onset	duration	sample	value	key	prompt_text
8.581	14.36	17162	prompt	n/a	the quick brown fox jumps over a lazy dog\n
12.348	0.135	24696	keystroke	t	n/a
12.528	0.105	25056	keystroke	h	n/a
13.218	0.06	26436	keystroke	e	n/a
13.308	0.09	26616	keystroke	Key.space	n/a
13.6835	0.06	27367	keystroke	q	n/a
13.8035	0.075	27607	keystroke	u	n/a
13.9985	0.06	27997	keystroke	i	n/a
14.0885	0.075	28177	keystroke	c	n/a
14.3585	0.075	28717	keystroke	k	n/a
14.5685	0.06	29137	keystroke	Key.space	n/a
14.7635	0.045	29527	keystroke	b	n/a
14.8685	0.06	29737	keystroke	r	n/a
15.0935	0.075	30187	keystroke	o	n/a
15.3035	0.075	30607	keystroke	w	n/a
15.4235	0.075	30847	keystroke	n	n/a
15.6185	0.06	31237	keystroke	Key.space	n/a
15.858	0.045	31716	keystroke	f	n/a
15.978	0.0755	31956	keystroke	o	n/a
16.2485	0.06	32497	keystroke	x	n/a
16.3385	0.06	32677	keystroke	Key.space	n/a
16.6075	0.076	33215	keystroke	j	n/a
16.7885	0.06	33577	keystroke	u	n/a
17.0285	0.045	34057	keystroke	m	n/a
18.8585	0.075	37717	keystroke	p	n/a
19.0685	0.045	38137	keystroke	s	n/a
19.1585	0.09	38317	keystroke	Key.space	n/a
19.398	0.0755	38796	keystroke	o	n/a
19.5035	0.06	39007	keystroke	v	n/a
19.6985	0.135	39397	keystroke	e	n/a
19.7435	0.105	39487	keystroke	r	n/a
19.8635	0.09	39727	keystroke	Key.space	n/a
20.0135	0.09	40027	keystroke	a	n/a
20.1185	0.075	40237	keystroke	Key.space	n/a
20.9735	0.075	41947	keystroke	l	n/a
21.0785	0.09	42157	keystroke	a	n/a
21.3035	0.09	42607	keystroke	z	n/a
21.6485	0.045	43297	keystroke	y	n/a
21.7385	0.09	43477	keystroke	Key.space	n/a
22.0985	0.045	44197	keystroke	d	n/a
22.2035	0.105	44407	keystroke	o	n/a
22.3535	0.06	44707	keystroke	g	n/a
22.878	0.06	45756	keystroke	Key.enter	n/a
22.946	15.1145	45892	prompt	n/a	hartford kazakhstan chambers stainless\n
23.943	0.06	47886	keystroke	h	n/a
24.078	0.12	48156	keystroke	a	n/a
24.228	0.075	48456	keystroke	r	n/a
24.4985	0.06	48997	keystroke	t	n/a
24.693	0.06	49386	keystroke	f	n/a
24.783	0.105	49566	keystroke	o	n/a
25.068	0.03	50136	keystroke	r	n/a
25.263	0.045	50526	keystroke	d	n/a
25.338	0.075	50676	keystroke	Key.space	n/a
26.3435	0.045	52687	keystroke	k	n/a
26.6285	0.075	53257	keystroke	a	n/a
27.5135	0.045	55027	keystroke	z	n/a
27.9785	0.0745	55957	keystroke	a	n/a
28.6985	0.06	57397	keystroke	k	n/a
28.9685	0.045	57937	keystroke	h	n/a
29.9585	0.0895	59917	keystroke	s	n/a
30.753	0.045	61506	keystroke	t	n/a
30.963	0.09	61926	keystroke	a	n/a
31.113	0.075	62226	keystroke	n	n/a
31.353	0.0905	62706	keystroke	Key.space	n/a
31.818	0.015	63636	keystroke	c	n/a
31.923	0.1055	63846	keystroke	h	n/a
32.0435	0.075	64087	keystroke	a	n/a
32.1785	0.06	64357	keystroke	n	n/a
33.1385	0.09	66277	keystroke	Key.backspace	n/a
33.2885	0.09	66577	keystroke	m	n/a
33.5285	0.075	67057	keystroke	n	n/a
33.8135	0.135	67627	keystroke	e	n/a
34.188	0.045	68376	keystroke	Key.backspace	n/a
34.338	0.09	68676	keystroke	Key.backspace	n/a
35.208	0.09	70416	keystroke	b	n/a
35.343	0.12	70686	keystroke	e	n/a
35.418	0.0755	70836	keystroke	r	n/a
35.6435	0.06	71287	keystroke	s	n/a
35.7485	0.075	71497	keystroke	Key.space	n/a
36.1225	0.076	72245	keystroke	s	n/a
36.439	0.059	72878	keystroke	t	n/a
36.6325	0.075	73265	keystroke	a	n/a
36.7985	0.1495	73597	keystroke	i	n/a
36.903	0.0755	73806	keystroke	n	n/a
37.113	0.105	74226	keystroke	l	n/a
37.2335	0.0605	74467	keystroke	e	n/a
37.488	0.045	74976	keystroke	s	n/a
37.593	0.09	75186	keystroke	s	n/a
37.998	0.06	75996	keystroke	Key.enter	n/a
38.0635	7.452	76127	prompt	n/a	booking article diamonds video\n
39.0635	0.075	78127	keystroke	b	n/a
39.6335	0.075	79267	keystroke	o	n/a
39.783	0.0755	79566	keystroke	o	n/a
39.9325	0.0905	79865	keystroke	k	n/a
40.188	0.12	80376	keystroke	i	n/a
40.293	0.105	80586	keystroke	n	n/a
40.488	0.045	80976	keystroke	g	n/a
40.593	0.1055	81186	keystroke	Key.space	n/a
41.013	0.075	82026	keystroke	a	n/a
41.254	0.045	82508	keystroke	r	n/a
41.419	0.059	82838	keystroke	t	n/a
41.523	0.105	83046	keystroke	i	n/a
41.808	0.076	83616	keystroke	c	n/a
41.899	0.104	83798	keystroke	l	n/a
42.048	0.06	84096	keystroke	e	n/a
42.153	0.09	84306	keystroke	Key.space	n/a
42.678	0.075	85356	keystroke	d	n/a
42.828	0.09	85656	keystroke	i	n/a
42.978	0.06	85956	keystroke	a	n/a
43.098	0.075	86196	keystroke	m	n/a
43.323	0.15	86646	keystroke	o	n/a
43.428	0.09	86856	keystroke	n	n/a
43.623	0.0455	87246	keystroke	d	n/a
43.8185	0.06	87637	keystroke	s	n/a
43.9835	0.075	87967	keystroke	Key.space	n/a
44.4035	0.06	88807	keystroke	v	n/a
44.5085	0.09	89017	keystroke	i	n/a
44.7035	0.06	89407	keystroke	d	n/a
44.8685	0.06	89737	keystroke	e	n/a
44.9585	0.12	89917	keystroke	o	n/a
45.4535	0.06	90907	keystroke	Key.enter	n/a
45.519	7.061	91038	prompt	n/a	picks license adapter modern\n
46.4585	0.135	92917	keystroke	p	n/a
46.5185	0.105	93037	keystroke	i	n/a
46.9535	0.045	93907	keystroke	c	n/a
47.0285	0.075	94057	keystroke	k	n/a
47.2085	0.045	94417	keystroke	s	n/a
47.2985	0.09	94597	keystroke	Key.space	n/a
47.5685	0.12	95137	keystroke	l	n/a
47.6285	0.105	95257	keystroke	i	n/a
47.778	0.105	95556	keystroke	c	n/a
47.928	0.06	95856	keystroke	e	n/a
48.048	0.0905	96096	keystroke	n	n/a
48.1685	0.06	96337	keystroke	s	n/a
48.3635	0.06	96727	keystroke	e	n/a
48.4535	0.105	96907	keystroke	Key.space	n/a
49.1135	0.075	98227	keystroke	a	n/a
49.5185	0.045	99037	keystroke	d	n/a
49.6835	0.06	99367	keystroke	a	n/a
49.8185	0.075	99637	keystroke	p	n/a
50.0435	0.015	100087	keystroke	t	n/a
50.193	0.0905	100386	keystroke	e	n/a
50.2385	0.0745	100477	keystroke	r	n/a
50.5535	0.105	101107	keystroke	Key.space	n/a
51.0935	0.165	102187	keystroke	m	n/a
51.1835	0.12	102367	keystroke	o	n/a
51.7385	0.15	103477	keystroke	d	n/a
51.9035	0.09	103807	keystroke	e	n/a
51.9785	0.1045	103957	keystroke	r	n/a
52.173	0.075	104346	keystroke	n	n/a
52.4885	0.0895	104977	keystroke	Key.enter	n/a
52.5835	9.102	105167	prompt	n/a	effectively suppliers tool vacuum\n
53.2985	0.045	106597	keystroke	e	n/a
53.4935	0.015	106987	keystroke	f	n/a
53.5835	0.075	107167	keystroke	f	n/a
53.7185	0.135	107437	keystroke	e	n/a
53.8235	0.045	107647	keystroke	c	n/a
54.0035	0.0445	108007	keystroke	t	n/a
54.079	0.104	108158	keystroke	i	n/a
54.243	0.091	108486	keystroke	v	n/a
54.303	0.091	108606	keystroke	e	n/a
54.409	0.12	108818	keystroke	l	n/a
54.558	0.15	109116	keystroke	y	n/a
54.723	0.045	109446	keystroke	Key.space	n/a
55.203	0.075	110406	keystroke	s	n/a
55.398	0.075	110796	keystroke	u	n/a
55.608	0.06	111216	keystroke	p	n/a
55.773	0.075	111546	keystroke	p	n/a
55.923	0.1055	111846	keystroke	l	n/a
56.1485	0.075	112297	keystroke	i	n/a
56.2835	0.09	112567	keystroke	e	n/a
56.4935	0.075	112987	keystroke	r	n/a
56.6735	0.075	113347	keystroke	s	n/a
56.8385	0.075	113677	keystroke	Key.space	n/a
57.333	0.06	114666	keystroke	t	n/a
57.513	0.045	115026	keystroke	o	n/a
57.663	0.06	115326	keystroke	o	n/a
57.888	0.106	115776	keystroke	l	n/a
58.1585	0.045	116317	keystroke	Key.space	n/a
58.6085	0.075	117217	keystroke	c	n/a
59.1485	0.075	118297	keystroke	Key.backspace	n/a
59.2685	0.06	118537	keystroke	v	n/a
59.4635	0.045	118927	keystroke	a	n/a
59.7635	0.06	119527	keystroke	c	n/a
60.0185	0.0595	120037	keystroke	u	n/a
60.183	0.075	120366	keystroke	u	n/a
60.408	0.075	120816	keystroke	m	n/a
61.6235	0.06	123247	keystroke	Key.enter	n/a
61.689	6.3115	123378	prompt	n/a	oops mind florida romance\n
62.718	0.015	125436	keystroke	o	n/a
62.8385	0.075	125677	keystroke	o	n/a
63.0335	0.09	126067	keystroke	p	n/a
63.1985	0.06	126397	keystroke	s	n/a
63.3185	0.075	126637	keystroke	Key.space	n/a
63.9185	0.12	127837	keystroke	m	n/a
64.0235	0.1505	128047	keystroke	i	n/a
64.174	0.12	128348	keystroke	n	n/a
64.443	0.061	128886	keystroke	d	n/a
64.548	0.075	129096	keystroke	Key.space	n/a
64.669	0.075	129338	keystroke	f	n/a
64.8935	0.045	129787	keystroke	l	n/a
65.0435	0.075	130087	keystroke	o	n/a
65.1785	0.075	130357	keystroke	r	n/a
65.3135	0.09	130627	keystroke	i	n/a
65.5235	0.06	131047	keystroke	d	n/a
65.7485	0.075	131497	keystroke	a	n/a
65.8835	0.09	131767	keystroke	Key.space	n/a
66.333	0.075	132666	keystroke	r	n/a
66.423	0.15	132846	keystroke	o	n/a
66.513	0.09	133026	keystroke	m	n/a
66.723	0.075	133446	keystroke	a	n/a
66.8735	0.09	133747	keystroke	n	n/a
67.0385	0.135	134077	keystroke	c	n/a
67.1435	0.045	134287	keystroke	e	n/a
67.9085	0.09	135817	keystroke	Key.enter	n/a
68.004	8.711	136008	prompt	n/a	signals starting suspect marijuana\n
68.8235	0.06	137647	keystroke	s	n/a
68.9435	0.09	137887	keystroke	i	n/a
69.1685	0.075	138337	keystroke	g	n/a
69.2735	0.075	138547	keystroke	n	n/a
69.4535	0.075	138907	keystroke	a	n/a
69.558	0.09	139116	keystroke	l	n/a
69.753	0.06	139506	keystroke	s	n/a
69.888	0.09	139776	keystroke	Key.space	n/a
70.5785	0.059	141157	keystroke	s	n/a
70.7435	0.089	141487	keystroke	t	n/a
70.9385	0.0605	141877	keystroke	a	n/a
70.968	0.0755	141936	keystroke	r	n/a
71.193	0.061	142386	keystroke	t	n/a
71.4035	0.1495	142807	keystroke	i	n/a
71.478	0.1045	142956	keystroke	n	n/a
71.6135	0.0745	143227	keystroke	g	n/a
71.7175	0.09	143435	keystroke	Key.space	n/a
72.1235	0.06	144247	keystroke	s	n/a
72.2885	0.09	144577	keystroke	u	n/a
72.4235	0.06	144847	keystroke	s	n/a
72.6935	0.12	145387	keystroke	p	n/a
72.8435	0.06	145687	keystroke	e	n/a
73.0535	0.06	146107	keystroke	c	n/a
73.2485	0.075	146497	keystroke	t	n/a
73.3385	0.075	146677	keystroke	Key.space	n/a
74.3435	0.06	148687	keystroke	m	n/a
74.5385	0.075	149077	keystroke	a	n/a
74.8685	0.06	149737	keystroke	r	n/a
75.1385	0.09	150277	keystroke	i	n/a
75.5285	0.06	151057	keystroke	j	n/a
75.7235	0.075	151447	keystroke	u	n/a
75.8885	0.06	151777	keystroke	a	n/a
75.9935	0.09	151987	keystroke	n	n/a
76.1285	0.06	152257	keystroke	a	n/a
76.6385	0.075	153277	keystroke	Key.enter	n/a
76.7205	9.655	153441	prompt	n/a	rainbow roman indicators couples\n
77.629	0.044	155258	keystroke	r	n/a
77.793	0.075	155586	keystroke	a	n/a
77.913	0.1505	155826	keystroke	i	n/a
78.003	0.0905	156006	keystroke	n	n/a
78.2885	0.075	156577	keystroke	b	n/a
78.5135	0.06	157027	keystroke	o	n/a
78.6635	0.09	157327	keystroke	w	n/a
79.0085	0.0895	158017	keystroke	Key.space	n/a
79.669	0.059	159338	keystroke	r	n/a
79.803	0.09	159606	keystroke	o	n/a
80.0135	0.075	160027	keystroke	m	n/a
80.1635	0.075	160327	keystroke	a	n/a
80.3135	0.075	160627	keystroke	n	n/a
80.508	0.09	161016	keystroke	Key.space	n/a
81.1685	0.12	162337	keystroke	i	n/a
81.2585	0.12	162517	keystroke	n	n/a
81.4675	0.076	162935	keystroke	i	n/a
81.9185	0.0905	163837	keystroke	Key.backspace	n/a
82.128	0.09	164256	keystroke	d	n/a
82.233	0.105	164466	keystroke	i	n/a
82.488	0.09	164976	keystroke	c	n/a
82.668	0.045	165336	keystroke	a	n/a
82.863	0.09	165726	keystroke	t	n/a
83.6285	0.075	167257	keystroke	o	n/a
83.8685	0.105	167737	keystroke	r	n/a
83.9885	0.105	167977	keystroke	s	n/a
84.1985	0.075	168397	keystroke	Key.space	n/a
85.263	0.03	170526	keystroke	c	n/a
85.353	0.12	170706	keystroke	o	n/a
85.413	0.105	170826	keystroke	u	n/a
85.638	0.105	171276	keystroke	p	n/a
85.713	0.105	171426	keystroke	l	n/a
85.833	0.06	171666	keystroke	e	n/a
85.998	0.0905	171996	keystroke	s	n/a
86.2985	0.075	172597	keystroke	Key.enter	n/a
86.3785	9.8515	172757	prompt	n/a	disclaimer ballot abroad mastercard\n
87.2885	0.075	174577	keystroke	d	n/a
87.3935	0.09	174787	keystroke	i	n/a
87.4985	0.075	174997	keystroke	s	n/a
87.6785	0.09	175357	keystroke	c	n/a
88.068	0.09	176136	keystroke	l	n/a
88.263	0.075	176526	keystroke	a	n/a
88.473	0.15	176946	keystroke	i	n/a
88.593	0.1055	177186	keystroke	m	n/a
88.7585	0.09	177517	keystroke	e	n/a
88.9685	0.09	177937	keystroke	r	n/a
89.2385	0.09	178477	keystroke	Key.space	n/a
89.9585	0.0595	179917	keystroke	b	n/a
90.063	0.075	180126	keystroke	a	n/a
90.243	0.015	180486	keystroke	l	n/a
90.528	0.075	181056	keystroke	l	n/a
91.578	0.075	183156	keystroke	o	n/a
91.683	0.045	183366	keystroke	t	n/a
91.863	0.03	183726	keystroke	Key.space	n/a
92.163	0.09	184326	keystroke	a	n/a
92.493	0.06	184986	keystroke	b	n/a
92.643	0.06	185286	keystroke	r	n/a
92.8385	0.09	185677	keystroke	o	n/a
93.3785	0.105	186757	keystroke	a	n/a
93.6035	0.075	187207	keystroke	d	n/a
93.7685	0.06	187537	keystroke	Key.space	n/a
94.158	0.06	188316	keystroke	m	n/a
94.233	0.075	188466	keystroke	a	n/a
94.428	0.06	188856	keystroke	s	n/a
94.608	0.075	189216	keystroke	t	n/a
94.758	0.135	189516	keystroke	e	n/a
94.848	0.075	189696	keystroke	r	n/a
95.073	0.06	190146	keystroke	c	n/a
95.178	0.1055	190356	keystroke	a	n/a
95.4185	0.06	190837	keystroke	r	n/a
95.6135	0.045	191227	keystroke	d	n/a
96.138	0.09	192276	keystroke	Key.enter	n/a
96.233	8.5165	192466	prompt	n/a	processing published castle by\n
96.9635	0.075	193927	keystroke	p	n/a
97.0685	0.09	194137	keystroke	r	n/a
97.3535	0.045	194707	keystroke	i	n/a
98.3735	0.06	196747	keystroke	Key.backspace	n/a
98.733	0.075	197466	keystroke	o	n/a
98.9735	0.15	197947	keystroke	c	n/a
99.063	0.1055	198126	keystroke	e	n/a
99.2885	0.045	198577	keystroke	s	n/a
99.3935	0.075	198787	keystroke	s	n/a
99.5285	0.1345	199057	keystroke	i	n/a
99.603	0.105	199206	keystroke	n	n/a
99.723	0.075	199446	keystroke	g	n/a
99.828	0.105	199656	keystroke	Key.space	n/a
100.6535	0.075	201307	keystroke	p	n/a
100.8335	0.075	201667	keystroke	u	n/a
101.0585	0.06	202117	keystroke	b	n/a
101.3285	0.12	202657	keystroke	l	n/a
101.3885	0.09	202777	keystroke	i	n/a
101.5685	0.075	203137	keystroke	s	n/a
101.7185	0.105	203437	keystroke	h	n/a
101.9435	0.06	203887	keystroke	e	n/a
102.1685	0.06	204337	keystroke	d	n/a
102.303	0.075	204606	keystroke	Key.space	n/a
102.6485	0.06	205297	keystroke	c	n/a
102.7985	0.165	205597	keystroke	a	n/a
102.9485	0.075	205897	keystroke	s	n/a
103.1885	0.045	206377	keystroke	t	n/a
103.2935	0.09	206587	keystroke	l	n/a
103.4135	0.06	206827	keystroke	e	n/a
103.9235	0.06	207847	keystroke	Key.space	n/a
104.3285	0.075	208657	keystroke	b	n/a
104.4035	0.09	208807	keystroke	y	n/a
104.6285	0.12	209257	keystroke	Key.enter	n/a
104.753	6.2065	209506	prompt	n/a	issues maintains banks with\n
105.5435	0.075	211087	keystroke	i	n/a
105.6785	0.06	211357	keystroke	s	n/a
105.7835	0.09	211567	keystroke	s	n/a
105.8885	0.09	211777	keystroke	u	n/a
106.008	0.045	212016	keystroke	e	n/a
106.173	0.075	212346	keystroke	s	n/a
106.308	0.06	212616	keystroke	Key.space	n/a
106.533	0.075	213066	keystroke	m	n/a
106.668	0.09	213336	keystroke	a	n/a
106.923	0.075	213846	keystroke	i	n/a
107.103	0.075	214206	keystroke	n	n/a
107.268	0.045	214536	keystroke	t	n/a
107.418	0.09	214836	keystroke	a	n/a
107.523	0.09	215046	keystroke	i	n/a
107.583	0.09	215166	keystroke	n	n/a
107.778	0.06	215556	keystroke	s	n/a
108.318	0.075	216636	keystroke	Key.space	n/a
108.708	0.075	217416	keystroke	b	n/a
108.828	0.09	217656	keystroke	a	n/a
108.948	0.105	217896	keystroke	n	n/a
109.353	0.09	218706	keystroke	k	n/a
109.503	0.06	219006	keystroke	s	n/a
109.623	0.075	219246	keystroke	Key.space	n/a
110.224	0.119	220448	keystroke	w	n/a
110.358	0.105	220716	keystroke	i	n/a
110.478	0.09	220956	keystroke	t	n/a
110.583	0.09	221166	keystroke	h	n/a
110.883	0.075	221766	keystroke	Key.enter	n/a
110.964	7.061	221928	prompt	n/a	listing babe three affiliate\n
111.798	0.0455	223596	keystroke	l	n/a
112.0985	0.074	224197	keystroke	i	n/a
112.2475	0.06	224495	keystroke	s	n/a
112.4875	0.061	224975	keystroke	t	n/a
112.6075	0.1205	225215	keystroke	i	n/a
112.683	0.075	225366	keystroke	n	n/a
112.833	0.045	225666	keystroke	g	n/a
112.908	0.105	225816	keystroke	Key.space	n/a
113.7185	0.074	227437	keystroke	b	n/a
113.8525	0.09	227705	keystroke	a	n/a
113.9275	0.075	227855	keystroke	b	n/a
114.1975	0.06	228395	keystroke	e	n/a
114.3025	0.09	228605	keystroke	Key.space	n/a
115.0225	0.045	230045	keystroke	t	n/a
115.0975	0.076	230195	keystroke	h	n/a
115.2475	0.09	230495	keystroke	r	n/a
115.4735	0.03	230947	keystroke	e	n/a
115.5785	0.105	231157	keystroke	e	n/a
115.9235	0.075	231847	keystroke	Key.space	n/a
116.1185	0.09	232237	keystroke	a	n/a
116.4935	0.045	232987	keystroke	f	n/a
116.5835	0.075	233167	keystroke	f	n/a
116.7185	0.075	233437	keystroke	i	n/a
116.8985	0.135	233797	keystroke	l	n/a
116.9885	0.105	233977	keystroke	i	n/a
117.303	0.075	234606	keystroke	a	n/a
117.528	0.12	235056	keystroke	t	n/a
117.603	0.105	235206	keystroke	e	n/a
117.948	0.0755	235896	keystroke	Key.enter	n/a
118.0285	9.011	236057	prompt	n/a	thereof alias similarly compatible\n
119.088	0.06	238176	keystroke	t	n/a
119.223	0.045	238446	keystroke	h	n/a
119.358	0.06	238716	keystroke	e	n/a
119.523	0.075	239046	keystroke	r	n/a
119.718	0.075	239436	keystroke	e	n/a
120.0335	0.105	240067	keystroke	o	n/a
120.2135	0.105	240427	keystroke	f	n/a
120.6025	0.076	241205	keystroke	Key.space	n/a
120.7985	0.075	241597	keystroke	a	n/a
121.0085	0.12	242017	keystroke	l	n/a
121.0685	0.105	242137	keystroke	i	n/a
121.2785	0.059	242557	keystroke	a	n/a
121.4875	0.06	242975	keystroke	s	n/a
121.6075	0.075	243215	keystroke	Key.space	n/a
122.193	0.045	244386	keystroke	s	n/a
122.313	0.075	244626	keystroke	i	n/a
122.523	0.06	245046	keystroke	m	n/a
122.688	0.1045	245376	keystroke	i	n/a
122.9575	0.075	245915	keystroke	l	n/a
123.3775	0.09	246755	keystroke	a	n/a
123.6175	0.075	247235	keystroke	r	n/a
123.8275	0.09	247655	keystroke	l	n/a
123.9475	0.06	247895	keystroke	y	n/a
124.113	0.09	248226	keystroke	Key.space	n/a
124.728	0.06	249456	keystroke	c	n/a
124.863	0.12	249726	keystroke	o	n/a
124.938	0.0905	249876	keystroke	m	n/a
125.1335	0.09	250267	keystroke	p	n/a
125.2385	0.0895	250477	keystroke	a	n/a
125.433	0.06	250866	keystroke	t	n/a
125.508	0.09	251016	keystroke	i	n/a
125.718	0.075	251436	keystroke	b	n/a
125.943	0.09	251886	keystroke	l	n/a
126.063	0.06	252126	keystroke	e	n/a
126.9625	0.075	253925	keystroke	Key.enter	n/a
127.043	8.8915	254086	prompt	n/a	he'll genuine louis electron\n
127.8775	0.075	255755	keystroke	h	n/a
127.9975	0.076	255995	keystroke	e	n/a
128.3425	0.106	256685	keystroke	'	n/a
129.1235	0.06	258247	keystroke	l	n/a
129.2735	0.074	258547	keystroke	l	n/a
129.5125	0.0605	259025	keystroke	Key.space	n/a
130.1435	0.045	260287	keystroke	g	n/a
130.3385	0.06	260677	keystroke	e	n/a
130.4435	0.0895	260887	keystroke	n	n/a
130.743	0.075	261486	keystroke	u	n/a
131.448	0.1055	262896	keystroke	i	n/a
131.733	0.075	263466	keystroke	n	n/a
131.883	0.06	263766	keystroke	e	n/a
132.003	0.09	264006	keystroke	Key.space	n/a
132.948	0.075	265896	keystroke	l	n/a
133.173	0.15	266346	keystroke	o	n/a
133.308	0.12	266616	keystroke	u	n/a
133.6685	0.09	267337	keystroke	i	n/a
133.8785	0.074	267757	keystroke	s	n/a
134.043	0.075	268086	keystroke	Key.space	n/a
134.403	0.06	268806	keystroke	e	n/a
134.523	0.075	269046	keystroke	l	n/a
134.643	0.075	269286	keystroke	e	n/a
134.853	0.06	269706	keystroke	c	n/a
135.063	0.045	270126	keystroke	t	n/a
135.228	0.075	270456	keystroke	r	n/a
135.348	0.135	270696	keystroke	o	n/a
135.453	0.09	270906	keystroke	n	n/a
135.843	0.09	271686	keystroke	Key.enter	n/a
135.9385	7.796	271877	prompt	n/a	changes trio zshops contracts\n
136.6375	0.06	273275	keystroke	c	n/a
136.7575	0.06	273515	keystroke	h	n/a
136.8325	0.105	273665	keystroke	a	n/a
136.9825	0.06	273965	keystroke	n	n/a
137.0875	0.09	274175	keystroke	g	n/a
137.1785	0.074	274357	keystroke	e	n/a
137.4175	0.075	274835	keystroke	s	n/a
137.5225	0.075	275045	keystroke	Key.space	n/a
138.228	0.06	276456	keystroke	t	n/a
138.393	0.075	276786	keystroke	r	n/a
138.708	0.105	277416	keystroke	i	n/a
138.768	0.105	277536	keystroke	o	n/a
139.0225	0.061	278045	keystroke	Key.space	n/a
139.773	0.09	279546	keystroke	z	n/a
140.118	0.075	280236	keystroke	s	n/a
140.3435	0.044	280687	keystroke	h	n/a
140.5225	0.06	281045	keystroke	o	n/a
141.4825	0.075	282965	keystroke	p	n/a
141.588	0.09	283176	keystroke	s	n/a
141.768	0.0595	283536	keystroke	Key.space	n/a
142.113	0.075	284226	keystroke	c	n/a
142.203	0.12	284406	keystroke	o	n/a
142.278	0.075	284556	keystroke	n	n/a
142.383	0.06	284766	keystroke	t	n/a
142.533	0.075	285066	keystroke	r	n/a
142.713	0.165	285426	keystroke	a	n/a
142.818	0.075	285636	keystroke	c	n/a
143.028	0.075	286056	keystroke	t	n/a
143.2075	0.06	286415	keystroke	s	n/a
143.6875	0.045	287375	keystroke	Key.enter	n/a
143.738	8.547	287476	prompt	n/a	improved authentication dining largest\n
144.8125	0.0755	289625	keystroke	i	n/a
144.843	0.12	289686	keystroke	m	n/a
145.113	0.09	290226	keystroke	p	n/a
145.278	0.0755	290556	keystroke	r	n/a
145.3835	0.105	290767	keystroke	o	n/a
145.6235	0.09	291247	keystroke	v	n/a
145.7135	0.09	291427	keystroke	e	n/a
145.9385	0.1045	291877	keystroke	d	n/a
146.0585	0.074	292117	keystroke	Key.space	n/a
146.3725	0.09	292745	keystroke	a	n/a
146.808	0.045	293616	keystroke	u	n/a
146.958	0.06	293916	keystroke	t	n/a
147.063	0.06	294126	keystroke	h	n/a
147.168	0.075	294336	keystroke	e	n/a
147.288	0.075	294576	keystroke	n	n/a
147.483	0.045	294966	keystroke	t	n/a
147.558	0.09	295116	keystroke	i	n/a
147.738	0.12	295476	keystroke	c	n/a
147.918	0.075	295836	keystroke	a	n/a
148.1275	0.075	296255	keystroke	t	n/a
148.2625	0.12	296525	keystroke	i	n/a
148.3075	0.12	296615	keystroke	o	n/a
148.5775	0.06	297155	keystroke	n	n/a
148.7725	0.09	297545	keystroke	Key.space	n/a
149.5225	0.061	299045	keystroke	d	n/a
149.6285	0.105	299257	keystroke	i	n/a
149.8085	0.06	299617	keystroke	n	n/a
150.0035	0.1345	300007	keystroke	i	n/a
150.108	0.075	300216	keystroke	n	n/a
150.198	0.06	300396	keystroke	g	n/a
150.318	0.105	300636	keystroke	Key.space	n/a
150.753	0.06	301506	keystroke	l	n/a
150.843	0.165	301686	keystroke	a	n/a
150.978	0.075	301956	keystroke	r	n/a
151.173	0.06	302346	keystroke	g	n/a
151.398	0.045	302796	keystroke	e	n/a
151.6075	0.105	303215	keystroke	s	n/a
151.6825	0.0905	303365	keystroke	t	n/a
152.2225	0.06	304445	keystroke	Key.enter	n/a
152.288	7.5865	304576	prompt	n/a	luck expects textbooks illness\n
153.0635	0.09	306127	keystroke	l	n/a
153.2885	0.075	306577	keystroke	u	n/a
153.753	0.075	307506	keystroke	c	n/a
153.843	0.075	307686	keystroke	k	n/a
154.068	0.0605	308136	keystroke	Key.space	n/a
154.6235	0.075	309247	keystroke	e	n/a
154.8485	0.06	309697	keystroke	x	n/a
155.0135	0.075	310027	keystroke	p	n/a
155.1335	0.165	310267	keystroke	e	n/a
155.2685	0.075	310537	keystroke	c	n/a
155.5225	0.076	311045	keystroke	t	n/a
155.6435	0.09	311287	keystroke	s	n/a
155.8225	0.075	311645	keystroke	Key.space	n/a
156.348	0.12	312696	keystroke	t	n/a
156.423	0.09	312846	keystroke	e	n/a
156.753	0.075	313506	keystroke	x	n/a
156.978	0.06	313956	keystroke	t	n/a
157.293	0.06	314586	keystroke	b	n/a
157.533	0.045	315066	keystroke	o	n/a
157.683	0.12	315366	keystroke	o	n/a
157.758	0.105	315516	keystroke	k	n/a
158.028	0.06	316056	keystroke	s	n/a
158.133	0.075	316266	keystroke	Key.space	n/a
158.463	0.09	316926	keystroke	i	n/a
158.703	0.045	317406	keystroke	l	n/a
158.823	0.06	317646	keystroke	l	n/a
159.078	0.0605	318156	keystroke	n	n/a
159.198	0.0745	318396	keystroke	e	n/a
159.4375	0.046	318875	keystroke	s	n/a
159.5425	0.075	319085	keystroke	s	n/a
159.7825	0.09	319565	keystroke	Key.enter	n/a
159.8775	6.912	319755	prompt	n/a	bedding builds page compact\n
160.728	0.075	321456	keystroke	b	n/a
160.8935	0.074	321787	keystroke	e	n/a
161.1475	0.045	322295	keystroke	d	n/a
161.2525	0.09	322505	keystroke	d	n/a
161.4325	0.15	322865	keystroke	i	n/a
161.5225	0.09	323045	keystroke	n	n/a
161.6725	0.06	323345	keystroke	g	n/a
161.7625	0.09	323525	keystroke	Key.space	n/a
162.528	0.135	325056	keystroke	b	n/a
162.573	0.135	325146	keystroke	u	n/a
162.813	0.075	325626	keystroke	i	n/a
163.008	0.09	326016	keystroke	l	n/a
163.083	0.06	326166	keystroke	d	n/a
163.263	0.0745	326526	keystroke	s	n/a
163.3525	0.06	326705	keystroke	Key.space	n/a
163.5625	0.0755	327125	keystroke	p	n/a
163.713	0.09	327426	keystroke	a	n/a
163.983	0.0605	327966	keystroke	g	n/a
164.0885	0.075	328177	keystroke	e	n/a
164.2685	0.075	328537	keystroke	Key.space	n/a
164.9585	0.0745	329917	keystroke	c	n/a
165.513	0.105	331026	keystroke	o	n/a
165.588	0.09	331176	keystroke	m	n/a
165.813	0.09	331626	keystroke	p	n/a
165.978	0.0895	331956	keystroke	a	n/a
166.1725	0.06	332345	keystroke	c	n/a
166.413	0.06	332826	keystroke	t	n/a
166.698	0.09	333396	keystroke	Key.enter	n/a
166.7945	7.615	333589	prompt	n/a	nancy pastor cause classified\n
167.6125	0.0755	335225	keystroke	n	n/a
167.988	0.0895	335976	keystroke	a	n/a
168.1375	0.09	336275	keystroke	n	n/a
168.3175	0.06	336635	keystroke	c	n/a
168.6625	0.045	337325	keystroke	y	n/a
168.8575	0.0755	337715	keystroke	Key.space	n/a
169.293	0.09	338586	keystroke	p	n/a
169.398	0.105	338796	keystroke	a	n/a
169.563	0.075	339126	keystroke	s	n/a
169.773	0.09	339546	keystroke	t	n/a
169.953	0.1195	339906	keystroke	o	n/a
170.1485	0.074	340297	keystroke	r	n/a
170.2675	0.076	340535	keystroke	Key.space	n/a
170.988	0.105	341976	keystroke	c	n/a
171.063	0.105	342126	keystroke	a	n/a
171.3035	0.09	342607	keystroke	u	n/a
171.4235	0.045	342847	keystroke	s	n/a
171.6035	0.06	343207	keystroke	e	n/a
171.7385	0.06	343477	keystroke	Key.space	n/a
172.3835	0.075	344767	keystroke	c	n/a
172.4735	0.09	344947	keystroke	l	n/a
172.5785	0.075	345157	keystroke	a	n/a
172.8035	0.03	345607	keystroke	s	n/a
172.8935	0.075	345787	keystroke	s	n/a
173.0285	0.09	346057	keystroke	i	n/a
173.223	0.075	346446	keystroke	f	n/a
173.313	0.09	346626	keystroke	i	n/a
173.433	0.075	346866	keystroke	e	n/a
173.628	0.09	347256	keystroke	d	n/a
174.3335	0.075	348667	keystroke	Key.enter	n/a
174.413	8.4715	348826	prompt	n/a	convergence dealing reason reference\n
175.3835	0.059	350767	keystroke	c	n/a
175.4875	0.091	350975	keystroke	o	n/a
175.7275	0.046	351455	keystroke	n	n/a
175.8335	0.059	351667	keystroke	v	n/a
175.9975	0.12	351995	keystroke	e	n/a
176.0575	0.09	352115	keystroke	r	n/a
176.3275	0.06	352655	keystroke	g	n/a
176.4925	0.06	352985	keystroke	e	n/a
176.5675	0.09	353135	keystroke	n	n/a
176.7625	0.135	353525	keystroke	c	n/a
176.8375	0.105	353675	keystroke	e	n/a
177.1975	0.0755	354395	keystroke	Key.space	n/a
177.753	0.045	355506	keystroke	d	n/a
177.888	0.075	355776	keystroke	e	n/a
178.038	0.1045	356076	keystroke	a	n/a
178.1725	0.105	356345	keystroke	l	n/a
178.4125	0.12	356825	keystroke	i	n/a
178.5025	0.06	357005	keystroke	n	n/a
178.6225	0.06	357245	keystroke	g	n/a
178.7125	0.075	357425	keystroke	Key.space	n/a
179.508	0.12	359016	keystroke	r	n/a
179.568	0.105	359136	keystroke	e	n/a
179.793	0.12	359586	keystroke	a	n/a
179.898	0.075	359796	keystroke	s	n/a
180.1225	0.12	360245	keystroke	o	n/a
180.1975	0.075	360395	keystroke	n	n/a
180.4225	0.06	360845	keystroke	Key.space	n/a
181.0225	0.09	362045	keystroke	r	n/a
181.1135	0.089	362227	keystroke	e	n/a
181.3075	0.0755	362615	keystroke	f	n/a
181.428	0.12	362856	keystroke	e	n/a
181.533	0.09	363066	keystroke	r	n/a
181.653	0.105	363306	keystroke	e	n/a
182.0275	0.075	364055	keystroke	n	n/a
182.1775	0.135	364355	keystroke	c	n/a
182.2825	0.09	364565	keystroke	e	n/a
182.793	0.09	365586	keystroke	Key.enter	n/a
182.888	8.6065	365776	prompt	n/a	talented hearts deer negotiation\n
183.648	0.06	367296	keystroke	t	n/a
183.813	0.06	367626	keystroke	a	n/a
183.888	0.09	367776	keystroke	l	n/a
184.2475	0.075	368495	keystroke	e	n/a
184.5625	0.075	369125	keystroke	n	n/a
184.7125	0.045	369425	keystroke	t	n/a
184.8625	0.075	369725	keystroke	e	n/a
185.0875	0.075	370175	keystroke	d	n/a
185.1775	0.09	370355	keystroke	Key.space	n/a
185.748	0.075	371496	keystroke	h	n/a
185.838	0.06	371676	keystroke	e	n/a
186.0335	0.165	372067	keystroke	a	n/a
186.2435	0.12	372487	keystroke	r	n/a
186.5285	0.09	373057	keystroke	t	n/a
186.7235	0.1195	373447	keystroke	s	n/a
187.338	0.06	374676	keystroke	Key.space	n/a
187.593	0.075	375186	keystroke	d	n/a
187.788	0.18	375576	keystroke	e	n/a
188.5385	0.089	377077	keystroke	e	n/a
188.7325	0.076	377465	keystroke	r	n/a
188.8525	0.09	377705	keystroke	Key.space	n/a
189.5275	0.06	379055	keystroke	n	n/a
189.6325	0.075	379265	keystroke	e	n/a
189.858	0.06	379716	keystroke	g	n/a
189.933	0.0895	379866	keystroke	o	n/a
190.1125	0.075	380225	keystroke	t	n/a
190.2175	0.075	380435	keystroke	i	n/a
190.4275	0.075	380855	keystroke	a	n/a
190.6225	0.075	381245	keystroke	t	n/a
190.7125	0.09	381425	keystroke	i	n/a
190.7575	0.105	381515	keystroke	o	n/a
190.968	0.03	381936	keystroke	n	n/a
191.403	0.09	382806	keystroke	Key.enter	n/a
191.498	7.2565	382996	prompt	n/a	ascii seventh advance trail\n
192.2135	0.12	384427	keystroke	a	n/a
192.4375	0.076	384875	keystroke	s	n/a
192.6325	0.076	385265	keystroke	c	n/a
192.9335	0.06	385867	keystroke	i	n/a
193.0985	0.075	386197	keystroke	i	n/a
193.458	0.045	386916	keystroke	Key.space	n/a
193.773	0.045	387546	keystroke	s	n/a
193.968	0.0595	387936	keystroke	e	n/a
194.1775	0.045	388355	keystroke	v	n/a
194.3275	0.09	388655	keystroke	e	n/a
194.4775	0.105	388955	keystroke	n	n/a
194.6875	0.06	389375	keystroke	t	n/a
194.8075	0.06	389615	keystroke	h	n/a
195.018	0.075	390036	keystroke	Key.space	n/a
195.513	0.09	391026	keystroke	a	n/a
195.738	0.06	391476	keystroke	d	n/a
196.428	0.045	392856	keystroke	v	n/a
196.593	0.075	393186	keystroke	a	n/a
196.758	0.09	393516	keystroke	n	n/a
196.923	0.12	393846	keystroke	c	n/a
197.013	0.075	394026	keystroke	e	n/a
197.148	0.09	394296	keystroke	Key.space	n/a
197.733	0.12	395466	keystroke	t	n/a
197.868	0.06	395736	keystroke	r	n/a
198.048	0.0745	396096	keystroke	a	n/a
198.1235	0.089	396247	keystroke	i	n/a
198.3325	0.0755	396665	keystroke	l	n/a
198.6625	0.0905	397325	keystroke	Key.enter	n/a
198.7575	8.262	397515	prompt	n/a	cuba web compression processing\n
199.5935	0.075	399187	keystroke	c	n/a
199.7735	0.0745	399547	keystroke	u	n/a
199.9985	0.0595	399997	keystroke	b	n/a
200.163	0.045	400326	keystroke	a	n/a
200.268	0.06	400536	keystroke	Key.space	n/a
200.973	0.075	401946	keystroke	w	n/a
201.198	0.09	402396	keystroke	e	n/a
201.498	0.075	402996	keystroke	b	n/a
201.7535	0.0595	403507	keystroke	Key.space	n/a
202.8175	0.045	405635	keystroke	c	n/a
202.9525	0.09	405905	keystroke	o	n/a
203.0275	0.075	406055	keystroke	m	n/a
203.2075	0.0905	406415	keystroke	p	n/a
203.433	0.135	406866	keystroke	r	n/a
203.523	0.09	407046	keystroke	e	n/a
203.763	0.03	407526	keystroke	s	n/a
203.883	0.045	407766	keystroke	s	n/a
203.943	0.1045	407886	keystroke	i	n/a
204.0175	0.105	408035	keystroke	o	n/a
204.2575	0.075	408515	keystroke	n	n/a
204.4525	0.075	408905	keystroke	Key.space	n/a
205.2625	0.09	410525	keystroke	p	n/a
205.3825	0.075	410765	keystroke	r	n/a
205.5025	0.06	411005	keystroke	o	n/a
205.6675	0.06	411335	keystroke	c	n/a
205.8175	0.06	411635	keystroke	e	n/a
206.028	0.06	412056	keystroke	s	n/a
206.133	0.075	412266	keystroke	s	n/a
206.283	0.15	412566	keystroke	i	n/a
206.373	0.0895	412746	keystroke	n	n/a
206.4775	0.045	412955	keystroke	g	n/a
206.9275	0.09	413855	keystroke	Key.enter	n/a
207.0225	9.6	414045	prompt	n/a	spank handy shanghai maintained\n
207.858	0.045	415716	keystroke	s	n/a
207.963	0.12	415926	keystroke	p	n/a
208.098	0.075	416196	keystroke	a	n/a
208.248	0.06	416496	keystroke	n	n/a
208.878	0.045	417756	keystroke	k	n/a
209.088	0.045	418176	keystroke	Key.space	n/a
209.673	0.06	419346	keystroke	h	n/a
209.778	0.09	419556	keystroke	a	n/a
209.898	0.075	419796	keystroke	n	n/a
210.048	0.06	420096	keystroke	d	n/a
210.318	0.075	420636	keystroke	y	n/a
210.453	0.075	420906	keystroke	Key.space	n/a
211.4875	0.06	422975	keystroke	s	n/a
211.6525	0.045	423305	keystroke	h	n/a
211.8175	0.075	423635	keystroke	a	n/a
211.9825	0.06	423965	keystroke	n	n/a
212.1325	0.06	424265	keystroke	g	n/a
213.123	0.0445	426246	keystroke	h	n/a
213.2125	0.075	426425	keystroke	a	n/a
213.4375	0.075	426875	keystroke	i	n/a
213.7075	0.045	427415	keystroke	Key.space	n/a
214.9375	0.045	429875	keystroke	m	n/a
215.0125	0.075	430025	keystroke	a	n/a
215.148	0.12	430296	keystroke	i	n/a
215.238	0.075	430476	keystroke	n	n/a
215.388	0.0595	430776	keystroke	t	n/a
215.5225	0.09	431045	keystroke	a	n/a
215.6275	0.12	431255	keystroke	i	n/a
215.6875	0.09	431375	keystroke	n	n/a
215.8225	0.06	431645	keystroke	e	n/a
216.0025	0.075	432005	keystroke	d	n/a
216.5275	0.09	433055	keystroke	Key.enter	n/a
216.6225	7.122	433245	prompt	n/a	boating amanda alias aaron\n
217.488	0.06	434976	keystroke	b	n/a
217.683	0.09	435366	keystroke	o	n/a
217.758	0.09	435516	keystroke	a	n/a
217.968	0.075	435936	keystroke	t	n/a
218.088	0.1195	436176	keystroke	i	n/a
218.1625	0.075	436325	keystroke	n	n/a
218.2525	0.06	436505	keystroke	g	n/a
218.3725	0.09	436745	keystroke	Key.space	n/a
218.8975	0.075	437795	keystroke	a	n/a
219.0175	0.06	438035	keystroke	m	n/a
219.1225	0.06	438245	keystroke	a	n/a
219.2875	0.0905	438575	keystroke	n	n/a
219.5275	0.045	439055	keystroke	d	n/a
219.7225	0.09	439445	keystroke	a	n/a
219.8725	0.09	439745	keystroke	Key.space	n/a
220.2625	0.09	440525	keystroke	a	n/a
220.3825	0.09	440765	keystroke	l	n/a
220.6975	0.075	441395	keystroke	i	n/a
220.8475	0.0755	441695	keystroke	a	n/a
221.073	0.0595	442146	keystroke	s	n/a
221.2375	0.075	442475	keystroke	Key.space	n/a
222.003	0.0595	444006	keystroke	a	n/a
222.1975	0.03	444395	keystroke	a	n/a
222.8125	0.06	445625	keystroke	r	n/a
222.9925	0.12	445985	keystroke	o	n/a
223.0825	0.075	446165	keystroke	n	n/a
223.683	0.06	447366	keystroke	Key.enter	n/a
223.7475	10.902	447495	prompt	n/a	happiness circular lexus presenting\n
224.5825	0.075	449165	keystroke	h	n/a
224.7025	0.075	449405	keystroke	a	n/a
224.8525	0.045	449705	keystroke	p	n/a
224.988	0.06	449976	keystroke	p	n/a
225.468	0.06	450936	keystroke	i	n/a
225.663	0.06	451326	keystroke	n	n/a
225.828	0.06	451656	keystroke	e	n/a
226.0525	0.045	452105	keystroke	s	n/a
226.1725	0.06	452345	keystroke	s	n/a
226.2775	0.075	452555	keystroke	Key.space	n/a
226.5175	0.06	453035	keystroke	c	n/a
227.1325	0.075	454265	keystroke	i	n/a
227.2525	0.06	454505	keystroke	r	n/a
227.4775	0.045	454955	keystroke	c	n/a
227.5525	0.06	455105	keystroke	u	n/a
227.7335	0.044	455467	keystroke	a	n/a
228.423	0.06	456846	keystroke	Key.backspace	n/a
229.0975	0.09	458195	keystroke	l	n/a
229.353	0.09	458706	keystroke	a	n/a
229.533	0.09	459066	keystroke	r	n/a
229.638	0.075	459276	keystroke	Key.space	n/a
230.5825	0.075	461165	keystroke	l	n/a
230.7325	0.06	461465	keystroke	e	n/a
231.1075	0.06	462215	keystroke	x	n/a
231.4975	0.075	462995	keystroke	u	n/a
231.6175	0.0605	463235	keystroke	s	n/a
231.768	0.075	463536	keystroke	Key.space	n/a
232.6975	0.061	465395	keystroke	p	n/a
232.9235	0.09	465847	keystroke	r	n/a
232.9835	0.06	465967	keystroke	e	n/a
233.1635	0.044	466327	keystroke	s	n/a
233.3135	0.075	466627	keystroke	e	n/a
233.4035	0.059	466807	keystroke	n	n/a
233.5075	0.075	467015	keystroke	t	n/a
233.6285	0.104	467257	keystroke	i	n/a
233.6725	0.09	467345	keystroke	n	n/a
233.7475	0.076	467495	keystroke	g	n/a
234.588	0.06	469176	keystroke	Key.enter	n/a
234.6525	8.607	469305	prompt	n/a	drink relief humor liberia\n
235.5175	0.0455	471035	keystroke	d	n/a
235.698	0.045	471396	keystroke	r	n/a
235.9225	0.06	471845	keystroke	i	n/a
236.253	0.075	472506	keystroke	n	n/a
236.718	0.075	473436	keystroke	k	n/a
236.973	0.06	473946	keystroke	Key.space	n/a
237.4675	0.12	474935	keystroke	r	n/a
237.5585	0.089	475117	keystroke	e	n/a
237.6775	0.15	475355	keystroke	l	n/a
237.8425	0.09	475685	keystroke	i	n/a
238.083	0.09	476166	keystroke	e	n/a
238.308	0.09	476616	keystroke	f	n/a
238.443	0.075	476886	keystroke	Key.space	n/a
239.088	0.0595	478176	keystroke	h	n/a
239.2835	0.059	478567	keystroke	u	n/a
239.5075	0.045	479015	keystroke	m	n/a
240.573	0.075	481146	keystroke	o	n/a
240.678	0.06	481356	keystroke	r	n/a
240.843	0.06	481686	keystroke	Key.space	n/a
241.7425	0.06	483485	keystroke	l	n/a
241.9375	0.0755	483875	keystroke	i	n/a
242.208	0.045	484416	keystroke	b	n/a
242.343	0.06	484686	keystroke	e	n/a
242.523	0.06	485046	keystroke	r	n/a
242.658	0.0755	485316	keystroke	i	n/a
242.7935	0.075	485587	keystroke	a	n/a
243.183	0.075	486366	keystroke	Key.enter	n/a
243.263	7.7065	486526	prompt	n/a	divided bass republic depot\n
244.2625	0.06	488525	keystroke	d	n/a
244.4425	0.1055	488885	keystroke	i	n/a
244.6535	0.0435	489307	keystroke	v	n/a
244.8025	0.091	489605	keystroke	i	n/a
245.0425	0.075	490085	keystroke	d	n/a
245.2375	0.06	490475	keystroke	e	n/a
245.418	0.075	490836	keystroke	d	n/a
245.507	0.076	491014	keystroke	Key.space	n/a
246.183	0.075	492366	keystroke	b	n/a
246.303	0.09	492606	keystroke	a	n/a
246.528	0.045	493056	keystroke	s	n/a
246.648	0.075	493296	keystroke	s	n/a
246.753	0.1045	493506	keystroke	Key.space	n/a
247.428	0.03	494856	keystroke	r	n/a
247.443	0.03	494886	keystroke	e	n/a
247.713	0.105	495426	keystroke	p	n/a
247.893	0.075	495786	keystroke	u	n/a
248.118	0.0745	496236	keystroke	b	n/a
248.3725	0.15	496745	keystroke	l	n/a
248.4325	0.12	496865	keystroke	i	n/a
248.7325	0.075	497465	keystroke	c	n/a
248.8375	0.09	497675	keystroke	Key.space	n/a
249.7235	0.06	499447	keystroke	d	n/a
249.8885	0.06	499777	keystroke	e	n/a
250.038	0.09	500076	keystroke	p	n/a
250.248	0.105	500496	keystroke	o	n/a
250.383	0.105	500766	keystroke	t	n/a
250.8775	0.09	501755	keystroke	Key.enter	n/a
250.9745	6.91	501949	prompt	n/a	councils and needs sold\n
252.033	0.015	504066	keystroke	c	n/a
252.183	0.15	504366	keystroke	o	n/a
252.243	0.1205	504486	keystroke	u	n/a
252.648	0.06	505296	keystroke	n	n/a
253.4285	0.09	506857	keystroke	c	n/a
253.938	0.0905	507876	keystroke	i	n/a
254.193	0.0755	508386	keystroke	l	n/a
254.3885	0.075	508777	keystroke	s	n/a
254.4775	0.075	508955	keystroke	Key.space	n/a
254.9575	0.091	509915	keystroke	a	n/a
255.0925	0.091	510185	keystroke	n	n/a
255.2425	0.076	510485	keystroke	d	n/a
255.3475	0.075	510695	keystroke	Key.space	n/a
255.843	0.06	511686	keystroke	n	n/a
256.038	0.045	512076	keystroke	e	n/a
256.143	0.075	512286	keystroke	e	n/a
256.338	0.045	512676	keystroke	d	n/a
256.503	0.075	513006	keystroke	s	n/a
256.593	0.09	513186	keystroke	Key.space	n/a
256.863	0.06	513726	keystroke	s	n/a
256.968	0.105	513936	keystroke	o	n/a
257.208	0.075	514416	keystroke	l	n/a
257.4775	0.06	514955	keystroke	d	n/a
257.778	0.105	515556	keystroke	Key.enter	n/a
257.8895	8.065	515779	prompt	n/a	structure kenny disclaimers bridge\n
258.9025	0.061	517805	keystroke	s	n/a
259.068	0.045	518136	keystroke	t	n/a
259.218	0.06	518436	keystroke	r	n/a
259.338	0.075	518676	keystroke	u	n/a
259.458	0.0595	518916	keystroke	c	n/a
259.6525	0.061	519305	keystroke	t	n/a
259.8935	0.074	519787	keystroke	u	n/a
260.148	0.12	520296	keystroke	r	n/a
260.208	0.105	520416	keystroke	e	n/a
260.358	0.0745	520716	keystroke	Key.space	n/a
260.9575	0.075	521915	keystroke	k	n/a
261.0775	0.105	522155	keystroke	e	n/a
261.5575	0.015	523115	keystroke	n	n/a
261.663	0.105	523326	keystroke	n	n/a
261.7825	0.075	523565	keystroke	y	n/a
261.9325	0.075	523865	keystroke	Key.space	n/a
262.5185	0.0595	525037	keystroke	d	n/a
262.608	0.09	525216	keystroke	i	n/a
262.743	0.045	525486	keystroke	s	n/a
262.893	0.06	525786	keystroke	c	n/a
263.013	0.075	526026	keystroke	l	n/a
263.118	0.075	526236	keystroke	a	n/a
263.283	0.075	526566	keystroke	i	n/a
263.523	0.06	527046	keystroke	m	n/a
263.658	0.06	527316	keystroke	e	n/a
263.838	0.09	527676	keystroke	r	n/a
264.033	0.09	528066	keystroke	s	n/a
264.153	0.09	528306	keystroke	Key.space	n/a
264.738	0.045	529476	keystroke	b	n/a
264.843	0.075	529686	keystroke	r	n/a
264.963	0.105	529926	keystroke	i	n/a
265.158	0.0595	530316	keystroke	d	n/a
265.3525	0.09	530705	keystroke	g	n/a
265.5475	0.09	531095	keystroke	e	n/a
265.878	0.075	531756	keystroke	Key.enter	n/a
265.9575	6.162	531915	prompt	n/a	mile of italian meters\n
266.7625	0.09	533525	keystroke	m	n/a
266.9275	0.105	533855	keystroke	i	n/a
267.1525	0.105	534305	keystroke	l	n/a
267.2725	0.06	534545	keystroke	e	n/a
267.3925	0.09	534785	keystroke	Key.space	n/a
268.083	0.105	536166	keystroke	o	n/a
268.4885	0.059	536977	keystroke	f	n/a
268.5775	0.0455	537155	keystroke	Key.space	n/a
268.773	0.09	537546	keystroke	i	n/a
269.028	0.045	538056	keystroke	t	n/a
269.223	0.09	538446	keystroke	a	n/a
269.388	0.1205	538776	keystroke	l	n/a
269.5675	0.09	539135	keystroke	i	n/a
269.9125	0.091	539825	keystroke	a	n/a
270.0035	0.104	540007	keystroke	n	n/a
270.2425	0.09	540485	keystroke	Key.space	n/a
270.8725	0.06	541745	keystroke	m	n/a
271.0225	0.075	542045	keystroke	e	n/a
271.1875	0.06	542375	keystroke	t	n/a
271.3525	0.12	542705	keystroke	e	n/a
271.4425	0.075	542885	keystroke	r	n/a
271.6675	0.075	543335	keystroke	s	n/a
272.013	0.105	544026	keystroke	Key.enter	n/a
272.1225	12.912	544245	prompt	n/a	efficient palestinian cricket references\n
273.0185	0.074	546037	keystroke	e	n/a
273.2135	0.045	546427	keystroke	f	n/a
273.3175	0.045	546635	keystroke	f	n/a
273.3925	0.09	546785	keystroke	i	n/a
273.5275	0.075	547055	keystroke	c	n/a
273.6185	0.0895	547237	keystroke	i	n/a
274.023	0.045	548046	keystroke	e	n/a
274.113	0.075	548226	keystroke	n	n/a
274.233	0.09	548466	keystroke	t	n/a
274.368	0.075	548736	keystroke	Key.space	n/a
274.908	0.075	549816	keystroke	p	n/a
275.028	0.09	550056	keystroke	a	n/a
275.5385	0.06	551077	keystroke	t	n/a
275.9725	0.09	551945	keystroke	Key.backspace	n/a
276.3035	0.09	552607	keystroke	l	n/a
276.4385	0.074	552877	keystroke	e	n/a
277.893	0.06	555786	keystroke	s	n/a
279.3025	0.045	558605	keystroke	t	n/a
279.4675	0.075	558935	keystroke	i	n/a
279.6925	0.045	559385	keystroke	n	n/a
279.8575	0.075	559715	keystroke	i	n/a
280.053	0.06	560106	keystroke	a	n/a
280.143	0.09	560286	keystroke	n	n/a
280.368	0.09	560736	keystroke	Key.space	n/a
280.968	0.06	561936	keystroke	c	n/a
281.163	0.075	562326	keystroke	r	n/a
281.298	0.075	562596	keystroke	i	n/a
281.613	0.0745	563226	keystroke	c	n/a
281.7775	0.075	563555	keystroke	k	n/a
281.8975	0.09	563795	keystroke	e	n/a
282.138	0.0755	564276	keystroke	t	n/a
282.3175	0.075	564635	keystroke	Key.space	n/a
283.3825	0.015	566765	keystroke	r	n/a
283.4575	0.075	566915	keystroke	e	n/a
283.608	0.075	567216	keystroke	f	n/a
283.758	0.12	567516	keystroke	e	n/a
283.848	0.075	567696	keystroke	r	n/a
284.028	0.06	568056	keystroke	e	n/a
284.103	0.09	568206	keystroke	n	n/a
284.253	0.12	568506	keystroke	c	n/a
284.343	0.06	568686	keystroke	e	n/a
284.538	0.105	569076	keystroke	s	n/a
284.913	0.12	569826	keystroke	Key.enter	n/a
285.039	10.9155	570078	prompt	n/a	robert afford tones milwaukee\n
285.858	0.06	571716	keystroke	r	n/a
285.948	0.0895	571896	keystroke	o	n/a
286.413	0.045	572826	keystroke	b	n/a
286.608	0.105	573216	keystroke	e	n/a
286.668	0.0895	573336	keystroke	r	n/a
286.863	0.0745	573726	keystroke	t	n/a
286.968	0.0895	573936	keystroke	Key.space	n/a
287.328	0.0595	574656	keystroke	a	n/a
288.153	0.0445	576306	keystroke	f	n/a
288.2725	0.06	576545	keystroke	f	n/a
288.3775	0.105	576755	keystroke	o	n/a
288.5125	0.06	577025	keystroke	r	n/a
288.7525	0.0605	577505	keystroke	d	n/a
288.888	0.075	577776	keystroke	Key.space	n/a
289.4275	0.06	578855	keystroke	t	n/a
289.5175	0.075	579035	keystroke	o	n/a
289.7425	0.105	579485	keystroke	n	n/a
289.8485	0.044	579697	keystroke	e	n/a
290.028	0.075	580056	keystroke	s	n/a
290.117	0.09	580234	keystroke	Key.space	n/a
290.763	0.09	581526	keystroke	m	n/a
290.973	0.09	581946	keystroke	i	n/a
291.213	0.075	582426	keystroke	l	n/a
291.648	0.09	583296	keystroke	w	n/a
291.9025	0.09	583805	keystroke	a	n/a
292.983	0.06	585966	keystroke	u	n/a
293.3275	0.0755	586655	keystroke	k	n/a
293.478	0.045	586956	keystroke	e	n/a
293.583	0.09	587166	keystroke	e	n/a
295.91	0.043	591820	keystroke	Key.enter	n/a
295.9575	12.522	591915	prompt	n/a	athletic island intervention investigated\n
296.718	0.12	593436	keystroke	a	n/a
297.032	0.045	594064	keystroke	t	n/a
297.123	0.075	594246	keystroke	h	n/a
298.3685	0.059	596737	keystroke	l	n/a
298.4435	0.074	596887	keystroke	e	n/a
298.653	0.06	597306	keystroke	t	n/a
298.758	0.075	597516	keystroke	i	n/a
298.998	0.06	597996	keystroke	c	n/a
299.118	0.06	598236	keystroke	Key.space	n/a
299.988	0.075	599976	keystroke	i	n/a
300.123	0.045	600246	keystroke	s	n/a
300.243	0.09	600486	keystroke	l	n/a
300.348	0.09	600696	keystroke	a	n/a
300.528	0.06	601056	keystroke	n	n/a
300.633	0.06	601266	keystroke	d	n/a
300.738	0.09	601476	keystroke	Key.space	n/a
301.248	0.0745	602496	keystroke	i	n/a
301.3235	0.089	602647	keystroke	n	n/a
301.6375	0.06	603275	keystroke	t	n/a
301.8025	0.12	603605	keystroke	e	n/a
301.8925	0.075	603785	keystroke	r	n/a
302.103	0.06	604206	keystroke	v	n/a
302.313	0.06	604626	keystroke	e	n/a
303.3775	0.075	606755	keystroke	n	n/a
303.5575	0.0605	607115	keystroke	t	n/a
303.693	0.15	607386	keystroke	i	n/a
303.768	0.135	607536	keystroke	o	n/a
303.948	0.0895	607896	keystroke	n	n/a
304.2775	0.06	608555	keystroke	Key.space	n/a
304.8175	0.06	609635	keystroke	i	n/a
304.9975	0.06	609995	keystroke	n	n/a
306.303	0.045	612606	keystroke	v	n/a
306.513	0.045	613026	keystroke	e	n/a
306.708	0.0445	613416	keystroke	s	n/a
306.8725	0.06	613745	keystroke	t	n/a
306.9925	0.0755	613985	keystroke	i	n/a
307.098	0.074	614196	keystroke	g	n/a
307.248	0.09	614496	keystroke	a	n/a
307.503	0.059	615006	keystroke	t	n/a
307.533	0.105	615066	keystroke	e	n/a
307.773	0.075	615546	keystroke	d	n/a
308.463	0.015	616926	keystroke	Key.enter	n/a
308.483	8.336	616966	prompt	n/a	estate personals specs robert\n
309.183	0.045	618366	keystroke	e	n/a
309.363	0.075	618726	keystroke	s	n/a
309.528	0.075	619056	keystroke	t	n/a
309.692	0.091	619384	keystroke	a	n/a
309.918	0.1195	619836	keystroke	t	n/a
309.992	0.0905	619984	keystroke	e	n/a
310.0975	0.09	620195	keystroke	Key.space	n/a
310.383	0.075	620766	keystroke	p	n/a
310.503	0.12	621006	keystroke	e	n/a
310.593	0.0745	621186	keystroke	r	n/a
310.8775	0.06	621755	keystroke	s	n/a
310.9525	0.105	621905	keystroke	o	n/a
311.1175	0.075	622235	keystroke	n	n/a
311.3435	0.074	622687	keystroke	a	n/a
311.4625	0.136	622925	keystroke	l	n/a
311.6425	0.0905	623285	keystroke	s	n/a
311.763	0.09	623526	keystroke	Key.space	n/a
312.5125	0.045	625025	keystroke	s	n/a
312.5875	0.075	625175	keystroke	p	n/a
312.7235	0.059	625447	keystroke	e	n/a
313.0085	0.075	626017	keystroke	c	n/a
313.1885	0.104	626377	keystroke	s	n/a
313.6225	0.06	627245	keystroke	Key.space	n/a
313.968	0.045	627936	keystroke	r	n/a
314.073	0.09	628146	keystroke	o	n/a
314.298	0.015	628596	keystroke	v	n/a
314.7175	0.09	629435	keystroke	Key.backspace	n/a
314.7925	0.09	629585	keystroke	b	n/a
315.078	0.165	630156	keystroke	e	n/a
315.183	0.09	630366	keystroke	r	n/a
315.423	0.09	630846	keystroke	y	n/a
316.3825	0.105	632765	keystroke	Key.backspace	n/a
316.4725	0.075	632945	keystroke	t	n/a
316.7425	0.075	633485	keystroke	Key.enter	n/a
316.823	7.721	633646	prompt	n/a	explore harbor leaf reviewer\n
317.6125	0.06	635225	keystroke	e	n/a
317.8225	0.075	635645	keystroke	x	n/a
317.9575	0.0905	635915	keystroke	p	n/a
318.153	0.06	636306	keystroke	l	n/a
318.333	0.075	636666	keystroke	o	n/a
318.468	0.135	636936	keystroke	r	n/a
318.558	0.105	637116	keystroke	e	n/a
318.693	0.0745	637386	keystroke	Key.space	n/a
319.338	0.06	638676	keystroke	h	n/a
319.413	0.09	638826	keystroke	a	n/a
319.653	0.06	639306	keystroke	r	n/a
320.013	0.06	640026	keystroke	b	n/a
320.9875	0.06	641975	keystroke	o	n/a
321.0775	0.045	642155	keystroke	r	n/a
321.2275	0.06	642455	keystroke	Key.space	n/a
321.4225	0.105	642845	keystroke	l	n/a
321.5425	0.06	643085	keystroke	e	n/a
321.7225	0.0905	643445	keystroke	a	n/a
321.932	0.046	643864	keystroke	f	n/a
322.0225	0.09	644045	keystroke	Key.space	n/a
322.473	0.105	644946	keystroke	r	n/a
322.533	0.09	645066	keystroke	e	n/a
322.773	0.075	645546	keystroke	v	n/a
322.908	0.075	645816	keystroke	i	n/a
323.088	0.0595	646176	keystroke	e	n/a
323.2825	0.06	646565	keystroke	w	n/a
323.5075	0.045	647015	keystroke	e	n/a
323.8375	0.105	647675	keystroke	r	n/a
324.4675	0.075	648935	keystroke	Key.enter	n/a
324.5475	8.6065	649095	prompt	n/a	sugar galleries prompt generated\n
325.3825	0.06	650765	keystroke	s	n/a
325.6975	0.06	651395	keystroke	u	n/a
325.9075	0.045	651815	keystroke	g	n/a
326.0875	0.0745	652175	keystroke	a	n/a
326.327	0.105	652654	keystroke	r	n/a
326.8975	0.1045	653795	keystroke	Key.space	n/a
327.6025	0.045	655205	keystroke	g	n/a
327.7075	0.105	655415	keystroke	a	n/a
327.9475	0.03	655895	keystroke	l	n/a
328.083	0.075	656166	keystroke	l	n/a
328.173	0.12	656346	keystroke	e	n/a
328.248	0.075	656496	keystroke	r	n/a
328.413	0.09	656826	keystroke	i	n/a
328.578	0.075	657156	keystroke	e	n/a
328.788	0.075	657576	keystroke	s	n/a
328.922	0.076	657844	keystroke	Key.space	n/a
329.523	0.0895	659046	keystroke	p	n/a
329.6875	0.075	659375	keystroke	r	n/a
329.7775	0.075	659555	keystroke	o	n/a
330.0025	0.045	660005	keystroke	m	n/a
330.1675	0.09	660335	keystroke	p	n/a
330.2875	0.09	660575	keystroke	t	n/a
330.4375	0.06	660875	keystroke	Key.space	n/a
331.2775	0.06	662555	keystroke	g	n/a
331.4425	0.075	662885	keystroke	e	n/a
331.5475	0.075	663095	keystroke	n	n/a
331.6525	0.135	663305	keystroke	e	n/a
331.7575	0.09	663515	keystroke	r	n/a
331.9975	0.06	663995	keystroke	a	n/a
332.1625	0.09	664325	keystroke	t	n/a
332.2225	0.075	664445	keystroke	e	n/a
332.4475	0.075	664895	keystroke	d	n/a
332.5525	0.075	665105	keystroke	Key.space	n/a
333.0775	0.075	666155	keystroke	Key.enter	n/a
333.1575	9.102	666315	prompt	n/a	longer kenya ourselves ecology\n
334.0225	0.075	668045	keystroke	l	n/a
334.2025	0.075	668405	keystroke	o	n/a
334.4125	0.06	668825	keystroke	n	n/a
334.5175	0.075	669035	keystroke	g	n/a
334.7125	0.135	669425	keystroke	e	n/a
334.7875	0.105	669575	keystroke	r	n/a
334.9525	0.075	669905	keystroke	Key.space	n/a
335.552	0.076	671104	keystroke	k	n/a
335.777	0.061	671554	keystroke	e	n/a
336.0025	0.075	672005	keystroke	n	n/a
336.6175	0.06	673235	keystroke	y	n/a
336.7975	0.09	673595	keystroke	a	n/a
336.9175	0.075	673835	keystroke	Key.space	n/a
337.667	0.135	675334	keystroke	o	n/a
337.757	0.105	675514	keystroke	u	n/a
337.9225	0.1045	675845	keystroke	r	n/a
338.177	0.06	676354	keystroke	s	n/a
338.432	0.075	676864	keystroke	e	n/a
338.582	0.105	677164	keystroke	l	n/a
338.792	0.045	677584	keystroke	v	n/a
338.927	0.09	677854	keystroke	e	n/a
339.107	0.091	678214	keystroke	s	n/a
339.213	0.075	678426	keystroke	Key.space	n/a
340.2625	0.09	680525	keystroke	e	n/a
340.6525	0.09	681305	keystroke	c	n/a
341.0275	0.06	682055	keystroke	o	n/a
341.2375	0.06	682475	keystroke	l	n/a
341.4325	0.075	682865	keystroke	o	n/a
341.5825	0.075	683165	keystroke	g	n/a
341.7775	0.075	683555	keystroke	y	n/a
342.168	0.0895	684336	keystroke	Key.enter	n/a
342.2635	7.9605	684527	prompt	n/a	items infectious battery blvd\n
343.023	0.075	686046	keystroke	i	n/a
343.158	0.15	686316	keystroke	t	n/a
343.278	0.09	686556	keystroke	e	n/a
343.413	0.09	686826	keystroke	m	n/a
343.578	0.06	687156	keystroke	s	n/a
343.698	0.075	687396	keystroke	Key.space	n/a
344.3425	0.075	688685	keystroke	i	n/a
344.5375	0.06	689075	keystroke	n	n/a
344.7175	0.045	689435	keystroke	f	n/a
344.8675	0.09	689735	keystroke	e	n/a
345.0025	0.075	690005	keystroke	c	n/a
345.2125	0.045	690425	keystroke	t	n/a
345.3025	0.135	690605	keystroke	i	n/a
345.3925	0.135	690785	keystroke	o	n/a
345.6025	0.12	691205	keystroke	u	n/a
345.8425	0.075	691685	keystroke	s	n/a
345.9775	0.075	691955	keystroke	Key.space	n/a
346.6825	0.06	693365	keystroke	b	n/a
346.7575	0.09	693515	keystroke	a	n/a
347.1025	0.06	694205	keystroke	t	n/a
347.2525	0.135	694505	keystroke	e	n/a
347.3125	0.09	694625	keystroke	r	n/a
347.5375	0.075	695075	keystroke	y	n/a
347.657	0.09	695314	keystroke	Key.space	n/a
348.3925	0.045	696785	keystroke	b	n/a
348.7075	0.06	697415	keystroke	l	n/a
349.278	0.045	698556	keystroke	v	n/a
349.788	0.06	699576	keystroke	d	n/a
350.1325	0.09	700265	keystroke	Key.enter	n/a
350.2275	12.1915	700455	prompt	n/a	pool reductions endorsement rendered\n
351.2425	0.075	702485	keystroke	p	n/a
351.4675	0.075	702935	keystroke	o	n/a
351.5875	0.06	703175	keystroke	o	n/a
352.127	0.061	704254	keystroke	l	n/a
352.667	0.06	705334	keystroke	Key.space	n/a
352.9225	0.12	705845	keystroke	r	n/a
352.9975	0.075	705995	keystroke	e	n/a
353.222	0.075	706444	keystroke	d	n/a
353.342	0.075	706684	keystroke	u	n/a
353.477	0.045	706954	keystroke	c	n/a
353.657	0.06	707314	keystroke	t	n/a
353.732	0.12	707464	keystroke	i	n/a
353.807	0.0905	707614	keystroke	o	n/a
353.9725	0.0905	707945	keystroke	n	n/a
354.318	0.06	708636	keystroke	s	n/a
354.438	0.0895	708876	keystroke	Key.space	n/a
355.758	0.045	711516	keystroke	e	n/a
356.2225	0.03	712445	keystroke	n	n/a
356.4175	0.06	712835	keystroke	d	n/a
356.6575	0.09	713315	keystroke	o	n/a
357.4375	0.12	714875	keystroke	r	n/a
357.7075	0.06	715415	keystroke	e	n/a
358.683	0.09	717366	keystroke	Key.backspace	n/a
358.803	0.075	717606	keystroke	s	n/a
358.998	0.06	717996	keystroke	e	n/a
359.163	0.0595	718326	keystroke	m	n/a
359.313	0.075	718626	keystroke	e	n/a
359.403	0.0895	718806	keystroke	n	n/a
359.538	0.075	719076	keystroke	t	n/a
359.628	0.09	719256	keystroke	Key.space	n/a
360.3175	0.12	720635	keystroke	r	n/a
360.3775	0.12	720755	keystroke	e	n/a
360.7225	0.06	721445	keystroke	n	n/a
360.8275	0.06	721655	keystroke	d	n/a
361.0225	0.075	722045	keystroke	e	n/a
361.1575	0.135	722315	keystroke	r	n/a
361.3525	0.135	722705	keystroke	e	n/a
361.5925	0.105	723185	keystroke	d	n/a
361.8475	0.09	723695	keystroke	Key.space	n/a
362.3425	0.075	724685	keystroke	Key.enter	n/a
362.4245	8.1095	724849	prompt	n/a	anatomy grades amended relations\n
363.047	0.075	726094	keystroke	a	n/a
363.393	0.075	726786	keystroke	n	n/a
363.588	0.059	727176	keystroke	a	n/a
363.813	0.059	727626	keystroke	t	n/a
363.903	0.104	727806	keystroke	o	n/a
364.1425	0.075	728285	keystroke	m	n/a
364.3225	0.09	728645	keystroke	y	n/a
364.4575	0.075	728915	keystroke	Key.space	n/a
365.282	0.046	730564	keystroke	g	n/a
365.447	0.06	730894	keystroke	r	n/a
365.612	0.06	731224	keystroke	a	n/a
365.852	0.06	731704	keystroke	d	n/a
366.062	0.045	732124	keystroke	e	n/a
366.242	0.06	732484	keystroke	s	n/a
366.362	0.075	732724	keystroke	Key.space	n/a
366.723	0.074	733446	keystroke	a	n/a
366.887	0.105	733774	keystroke	m	n/a
367.112	0.076	734224	keystroke	e	n/a
367.307	0.09	734614	keystroke	n	n/a
367.472	0.165	734944	keystroke	d	n/a
367.652	0.046	735304	keystroke	e	n/a
367.8175	0.0895	735635	keystroke	d	n/a
367.922	0.075	735844	keystroke	Key.space	n/a
368.927	0.1205	737854	keystroke	r	n/a
369.017	0.105	738034	keystroke	e	n/a
369.1375	0.0895	738275	keystroke	l	n/a
369.257	0.0755	738514	keystroke	a	n/a
369.392	0.091	738784	keystroke	t	n/a
369.543	0.12	739086	keystroke	i	n/a
369.618	0.12	739236	keystroke	o	n/a
369.798	0.075	739596	keystroke	n	n/a
369.888	0.075	739776	keystroke	s	n/a
370.008	0.1045	740016	keystroke	Key.space	n/a
370.4575	0.075	740915	keystroke	Key.enter	n/a
370.537	7.737	741074	prompt	n/a	resorts harmony back numerical\n
371.3275	0.105	742655	keystroke	r	n/a
371.3875	0.06	742775	keystroke	e	n/a
371.5675	0.06	743135	keystroke	s	n/a
372.092	0.0755	744184	keystroke	o	n/a
372.2125	0.06	744425	keystroke	r	n/a
372.5125	0.0595	745025	keystroke	t	n/a
372.707	0.06	745414	keystroke	s	n/a
372.932	0.015	745864	keystroke	Key.space	n/a
373.487	0.06	746974	keystroke	h	n/a
373.607	0.0755	747214	keystroke	a	n/a
373.7875	0.075	747575	keystroke	r	n/a
373.9075	0.06	747815	keystroke	m	n/a
374.1175	0.12	748235	keystroke	o	n/a
374.1925	0.09	748385	keystroke	n	n/a
374.3275	0.09	748655	keystroke	y	n/a
374.4625	0.06	748925	keystroke	Key.space	n/a
375.1825	0.045	750365	keystroke	b	n/a
375.2875	0.135	750575	keystroke	a	n/a
375.407	0.0755	750814	keystroke	c	n/a
375.6025	0.075	751205	keystroke	k	n/a
375.8125	0.075	751625	keystroke	Key.space	n/a
376.457	0.045	752914	keystroke	n	n/a
376.653	0.074	753306	keystroke	u	n/a
376.877	0.061	753754	keystroke	m	n/a
377.088	0.12	754176	keystroke	e	n/a
377.163	0.089	754326	keystroke	r	n/a
377.312	0.09	754624	keystroke	i	n/a
377.583	0.0895	755166	keystroke	c	n/a
377.6575	0.105	755315	keystroke	a	n/a
377.7775	0.1055	755555	keystroke	l	n/a
378.182	0.09	756364	keystroke	Key.enter	n/a
378.277	8.203	756554	prompt	n/a	meters aluminum waiting fiji\n
379.023	0.059	758046	keystroke	m	n/a
379.187	0.06	758374	keystroke	e	n/a
379.352	0.075	758704	keystroke	t	n/a
379.517	0.12	759034	keystroke	e	n/a
379.622	0.075	759244	keystroke	r	n/a
379.847	0.075	759694	keystroke	s	n/a
379.982	0.076	759964	keystroke	Key.space	n/a
380.2225	0.0755	760445	keystroke	a	n/a
381.078	0.075	762156	keystroke	l	n/a
381.303	0.06	762606	keystroke	u	n/a
381.513	0.045	763026	keystroke	m	n/a
381.7225	0.165	763445	keystroke	i	n/a
381.9025	0.09	763805	keystroke	n	n/a
382.2475	0.03	764495	keystroke	u	n/a
382.4425	0.045	764885	keystroke	m	n/a
382.787	0.045	765574	keystroke	Key.space	n/a
383.403	0.074	766806	keystroke	w	n/a
383.597	0.076	767194	keystroke	a	n/a
383.718	0.075	767436	keystroke	i	n/a
383.838	0.075	767676	keystroke	t	n/a
383.973	0.1195	767946	keystroke	i	n/a
384.0475	0.105	768095	keystroke	n	n/a
384.1825	0.135	768365	keystroke	g	n/a
384.4525	0.09	768905	keystroke	Key.space	n/a
385.1575	0.075	770315	keystroke	f	n/a
385.4425	0.06	770885	keystroke	i	n/a
385.8475	0.06	771695	keystroke	j	n/a
386.0275	0.1055	772055	keystroke	i	n/a
386.432	0.045	772864	keystroke	Key.enter	n/a
386.4835	9.5205	772967	prompt	n/a	locked filling how's background\n
387.1375	0.075	774275	keystroke	l	n/a
387.3475	0.06	774695	keystroke	o	n/a
387.5575	0.0445	775115	keystroke	c	n/a
387.632	0.09	775264	keystroke	k	n/a
387.797	0.06	775594	keystroke	e	n/a
387.978	0.089	775956	keystroke	d	n/a
388.082	0.06	776164	keystroke	Key.space	n/a
390.218	0	780436	keystroke	f	n/a
390.303	0.075	780606	keystroke	i	n/a
390.528	0.03	781056	keystroke	l	n/a
390.648	0.075	781296	keystroke	l	n/a
390.888	0.075	781776	keystroke	i	n/a
390.933	0.09	781866	keystroke	n	n/a
391.068	0.075	782136	keystroke	g	n/a
391.173	0.06	782346	keystroke	Key.space	n/a
391.878	0.045	783756	keystroke	h	n/a
392.028	0.075	784056	keystroke	o	n/a
392.223	0.0745	784446	keystroke	w	n/a
392.5075	0.015	785015	keystroke	'	n/a
393.0175	0.1505	786035	keystroke	s	n/a
393.228	0.09	786456	keystroke	Key.space	n/a
393.978	0.06	787956	keystroke	b	n/a
394.068	0.1045	788136	keystroke	a	n/a
394.3225	0.045	788645	keystroke	c	n/a
394.607	0.0605	789214	keystroke	k	n/a
394.9225	0.045	789845	keystroke	g	n/a
395.0875	0.045	790175	keystroke	r	n/a
395.1775	0.12	790355	keystroke	o	n/a
395.2525	0.075	790505	keystroke	u	n/a
395.4625	0.075	790925	keystroke	n	n/a
395.6575	0.06	791315	keystroke	d	n/a
395.9425	0.06	791885	keystroke	Key.enter	n/a
396.0075	9.7915	792015	prompt	n/a	requiring chase blake pennsylvania\n
396.8425	0.105	793685	keystroke	r	n/a
396.9025	0.09	793805	keystroke	e	n/a
397.4875	0.1355	794975	keystroke	q	n/a
397.638	0.045	795276	keystroke	u	n/a
397.728	0.105	795456	keystroke	i	n/a
397.893	0.12	795786	keystroke	r	n/a
398.733	0.119	797466	keystroke	i	n/a
398.807	0.076	797614	keystroke	n	n/a
398.912	0.075	797824	keystroke	g	n/a
399.032	0.075	798064	keystroke	Key.space	n/a
399.468	0.059	798936	keystroke	c	n/a
399.573	0.09	799146	keystroke	h	n/a
399.677	0.106	799354	keystroke	a	n/a
399.978	0.0445	799956	keystroke	s	n/a
400.1425	0.06	800285	keystroke	e	n/a
400.3075	0.075	800615	keystroke	Key.space	n/a
400.967	0.06	801934	keystroke	b	n/a
401.222	0.075	802444	keystroke	l	n/a
401.432	0.09	802864	keystroke	a	n/a
401.567	0.12	803134	keystroke	k	n/a
401.732	0.06	803464	keystroke	e	n/a
401.837	0.075	803674	keystroke	Key.space	n/a
402.4825	0.06	804965	keystroke	p	n/a
402.692	0.075	805384	keystroke	e	n/a
403.067	0.045	806134	keystroke	n	n/a
403.217	0.06	806434	keystroke	n	n/a
403.337	0.09	806674	keystroke	s	n/a
403.7575	0.06	807515	keystroke	y	n/a
403.8775	0.075	807755	keystroke	l	n/a
404.2825	0.06	808565	keystroke	v	n/a
404.447	0.09	808894	keystroke	a	n/a
404.717	0.06	809434	keystroke	n	n/a
404.958	0.075	809916	keystroke	i	n/a
405.093	0.105	810186	keystroke	a	n/a
405.723	0.075	811446	keystroke	Key.enter	n/a
405.8025	8.3815	811605	prompt	n/a	palace welsh rolled notebooks\n
406.7125	0.09	813425	keystroke	p	n/a
407.0575	0.075	814115	keystroke	a	n/a
407.2375	0.105	814475	keystroke	l	n/a
407.3425	0.075	814685	keystroke	a	n/a
407.822	0.06	815644	keystroke	c	n/a
407.867	0.045	815734	keystroke	e	n/a
407.913	0.089	815826	keystroke	Key.space	n/a
408.4825	0.09	816965	keystroke	w	n/a
408.7525	0.09	817505	keystroke	e	n/a
408.9625	0.1195	817925	keystroke	l	n/a
409.322	0.09	818644	keystroke	s	n/a
410.132	0.045	820264	keystroke	h	n/a
410.357	0.075	820714	keystroke	Key.space	n/a
411.033	0.044	822066	keystroke	r	n/a
411.122	0.09	822244	keystroke	o	n/a
411.348	0.044	822696	keystroke	l	n/a
411.452	0.075	822904	keystroke	l	n/a
411.572	0.045	823144	keystroke	e	n/a
411.752	0.075	823504	keystroke	d	n/a
411.857	0.06	823714	keystroke	Key.space	n/a
412.5475	0.0745	825095	keystroke	n	n/a
412.5925	0.0445	825185	keystroke	o	n/a
412.652	0.105	825304	keystroke	t	n/a
412.727	0.09	825454	keystroke	e	n/a
413.027	0.075	826054	keystroke	b	n/a
413.222	0.09	826444	keystroke	o	n/a
413.417	0.09	826834	keystroke	o	n/a
413.567	0.075	827134	keystroke	k	n/a
413.747	0.09	827494	keystroke	s	n/a
414.108	0.075	828216	keystroke	Key.enter	n/a
414.189	5.605	828378	prompt	n/a	no tackle clean zoom\n
415.008	0.105	830016	keystroke	n	n/a
415.098	0.104	830196	keystroke	o	n/a
415.337	0.075	830674	keystroke	Key.space	n/a
415.8775	0.045	831755	keystroke	t	n/a
416.072	0.18	832144	keystroke	a	n/a
416.237	0.03	832474	keystroke	c	n/a
416.372	0.09	832744	keystroke	k	n/a
416.582	0.09	833164	keystroke	l	n/a
416.673	0.074	833346	keystroke	e	n/a
416.837	0.06	833674	keystroke	Key.space	n/a
417.467	0.09	834934	keystroke	c	n/a
417.572	0.0905	835144	keystroke	l	n/a
417.6775	0.06	835355	keystroke	e	n/a
417.8725	0.09	835745	keystroke	a	n/a
417.9775	0.0445	835955	keystroke	n	n/a
418.172	0.06	836344	keystroke	Key.space	n/a
418.787	0.045	837574	keystroke	z	n/a
419.042	0.06	838084	keystroke	o	n/a
419.177	0.075	838354	keystroke	o	n/a
419.342	0.075	838684	keystroke	m	n/a
419.702	0.09	839404	keystroke	Key.enter	n/a
419.797	7.752	839594	prompt	n/a	why'd took formats aspects\n
420.827	0.09	841654	keystroke	w	n/a
420.9475	0.09	841895	keystroke	h	n/a
421.097	0.075	842194	keystroke	y	n/a
422.2225	0.09	844445	keystroke	'	n/a
422.5825	0.0755	845165	keystroke	d	n/a
423.002	0.06	846004	keystroke	Key.space	n/a
423.497	0.076	846994	keystroke	t	n/a
423.603	0.075	847206	keystroke	o	n/a
423.783	0.074	847566	keystroke	o	n/a
423.992	0.0905	847984	keystroke	k	n/a
424.2475	0.06	848495	keystroke	Key.space	n/a
424.8925	0.06	849785	keystroke	f	n/a
424.9825	0.06	849965	keystroke	o	n/a
425.0575	0.075	850115	keystroke	r	n/a
425.1925	0.06	850385	keystroke	m	n/a
425.2675	0.09	850535	keystroke	a	n/a
425.5225	0.075	851045	keystroke	t	n/a
425.7175	0.09	851435	keystroke	s	n/a
425.8225	0.075	851645	keystroke	Key.space	n/a
426.1075	0.075	852215	keystroke	a	n/a
426.2875	0.075	852575	keystroke	s	n/a
426.4825	0.09	852965	keystroke	p	n/a
426.6025	0.15	853205	keystroke	e	n/a
426.7225	0.075	853445	keystroke	c	n/a
426.9475	0.075	853895	keystroke	t	n/a
427.0375	0.12	854075	keystroke	s	n/a
427.4575	0.09	854915	keystroke	Key.enter	n/a
427.552	8.007	855104	prompt	n/a	register easy cork interpretation\n
428.283	0.105	856566	keystroke	r	n/a
428.342	0.09	856684	keystroke	e	n/a
428.627	0.06	857254	keystroke	g	n/a
428.822	0.076	857644	keystroke	i	n/a
428.972	0.076	857944	keystroke	s	n/a
429.152	0.061	858304	keystroke	t	n/a
429.318	0.149	858636	keystroke	e	n/a
429.437	0.091	858874	keystroke	r	n/a
429.617	0.09	859234	keystroke	Key.space	n/a
429.947	0.075	859894	keystroke	e	n/a
430.143	0.105	860286	keystroke	a	n/a
430.217	0.075	860434	keystroke	s	n/a
430.442	0.061	860884	keystroke	y	n/a
430.532	0.0905	861064	keystroke	Key.space	n/a
430.8175	0.06	861635	keystroke	c	n/a
430.9375	0.105	861875	keystroke	o	n/a
431.3725	0.075	862745	keystroke	r	n/a
431.6575	0.075	863315	keystroke	k	n/a
432.1075	0.06	864215	keystroke	Key.space	n/a
432.4225	0.09	864845	keystroke	i	n/a
432.8575	0.045	865715	keystroke	n	n/a
433.037	0.031	866074	keystroke	t	n/a
433.172	0.1355	866344	keystroke	e	n/a
433.2625	0.09	866525	keystroke	r	n/a
433.6675	0.075	867335	keystroke	p	n/a
433.9075	0.1345	867815	keystroke	r	n/a
433.9825	0.1045	867965	keystroke	e	n/a
434.252	0.045	868504	keystroke	t	n/a
434.402	0.09	868804	keystroke	a	n/a
434.507	0.075	869014	keystroke	t	n/a
434.642	0.09	869284	keystroke	i	n/a
434.672	0.105	869344	keystroke	o	n/a
434.867	0.0605	869734	keystroke	n	n/a
435.0625	0.075	870125	keystroke	Key.space	n/a
435.4825	0.075	870965	keystroke	Key.enter	n/a
435.562	6.312	871124	prompt	n/a	turtle animation come beds\n
436.3225	0.06	872645	keystroke	t	n/a
436.4725	0.0755	872945	keystroke	u	n/a
436.653	0.06	873306	keystroke	t	n/a
437.028	0.089	874056	keystroke	Key.backspace	n/a
437.133	0.045	874266	keystroke	r	n/a
437.298	0.105	874596	keystroke	t	n/a
437.433	0.105	874866	keystroke	l	n/a
437.568	0.1195	875136	keystroke	e	n/a
437.7325	0.09	875465	keystroke	Key.space	n/a
438.347	0.06	876694	keystroke	a	n/a
438.542	0.045	877084	keystroke	n	n/a
438.662	0.09	877324	keystroke	i	n/a
438.767	0.09	877534	keystroke	m	n/a
438.887	0.105	877774	keystroke	a	n/a
439.007	0.06	878014	keystroke	t	n/a
439.112	0.135	878224	keystroke	i	n/a
439.172	0.105	878344	keystroke	o	n/a
439.442	0.015	878884	keystroke	n	n/a
439.547	0.09	879094	keystroke	Key.space	n/a
440.012	0.075	880024	keystroke	c	n/a
440.102	0.135	880204	keystroke	o	n/a
440.177	0.105	880354	keystroke	m	n/a
440.327	0.0605	880654	keystroke	e	n/a
440.448	0.0745	880896	keystroke	Key.space	n/a
441.213	0.0595	882426	keystroke	b	n/a
441.3025	0.075	882605	keystroke	e	n/a
441.498	0.0595	882996	keystroke	d	n/a
441.6475	0.0895	883295	keystroke	s	n/a
441.827	0.045	883654	keystroke	Key.enter	n/a
441.8775	7.7965	883755	prompt	n/a	salt corrections removal richardson\n
442.7275	0.06	885455	keystroke	s	n/a
442.8775	0.105	885755	keystroke	a	n/a
443.0275	0.09	886055	keystroke	l	n/a
443.208	0.075	886416	keystroke	t	n/a
443.327	0.075	886654	keystroke	Key.space	n/a
444.0325	0.075	888065	keystroke	c	n/a
444.1525	0.09	888305	keystroke	o	n/a
444.3175	0.06	888635	keystroke	r	n/a
444.4225	0.075	888845	keystroke	r	n/a
444.5875	0.135	889175	keystroke	e	n/a
444.6775	0.06	889355	keystroke	c	n/a
444.857	0.06	889714	keystroke	t	n/a
444.932	0.105	889864	keystroke	i	n/a
444.992	0.105	889984	keystroke	o	n/a
445.187	0.09	890374	keystroke	n	n/a
445.337	0.075	890674	keystroke	s	n/a
445.427	0.075	890854	keystroke	Key.space	n/a
445.772	0.0905	891544	keystroke	r	n/a
445.8325	0.105	891665	keystroke	e	n/a
445.9675	0.0905	891935	keystroke	m	n/a
446.103	0.12	892206	keystroke	o	n/a
446.328	0.044	892656	keystroke	v	n/a
446.477	0.1055	892954	keystroke	a	n/a
446.567	0.09	893134	keystroke	l	n/a
446.807	0.09	893614	keystroke	Key.space	n/a
447.768	0.045	895536	keystroke	r	n/a
447.828	0.06	895656	keystroke	i	n/a
448.0225	0.045	896045	keystroke	c	n/a
448.2025	0.06	896405	keystroke	h	n/a
448.2925	0.09	896585	keystroke	a	n/a
448.5325	0.06	897065	keystroke	r	n/a
448.7275	0.06	897455	keystroke	d	n/a
448.9375	0.06	897875	keystroke	s	n/a
449.0425	0.105	898085	keystroke	o	n/a
449.2525	0.075	898505	keystroke	n	n/a
449.5975	0.075	899195	keystroke	Key.enter	n/a
449.6775	11.0965	899355	prompt	n/a	have cast steering sand\n
450.497	0.06	900994	keystroke	h	n/a
450.572	0.09	901144	keystroke	a	n/a
450.7975	0.09	901595	keystroke	v	n/a
450.8575	0.105	901715	keystroke	e	n/a
450.9925	0.075	901985	keystroke	Key.space	n/a
451.562	0.045	903124	keystroke	c	n/a
451.667	0.165	903334	keystroke	a	n/a
451.862	0.075	903724	keystroke	s	n/a
452.117	0.045	904234	keystroke	t	n/a
452.207	0.075	904414	keystroke	Key.space	n/a
452.8675	0.12	905735	keystroke	s	n/a
453.0175	0.06	906035	keystroke	t	n/a
453.2275	0.0445	906455	keystroke	e	n/a
453.392	0.045	906784	keystroke	r	n/a
453.497	0.105	906994	keystroke	r	n/a
453.632	0.12	907264	keystroke	i	n/a
453.692	0.09	907384	keystroke	n	n/a
453.767	0.075	907534	keystroke	g	n/a
453.902	0.09	907804	keystroke	Key.space	n/a
454.3675	0.045	908735	keystroke	s	n/a
454.5175	0.12	909035	keystroke	a	n/a
454.6825	0.09	909365	keystroke	n	n/a
455.1325	0.045	910265	keystroke	d	n/a
456.5425	0.06	913085	keystroke	Key.backspace	n/a
456.7075	0.0595	913415	keystroke	Key.backspace	n/a
456.857	0.06	913714	keystroke	Key.backspace	n/a
456.992	0.075	913984	keystroke	Key.backspace	n/a
457.142	0.076	914284	keystroke	Key.backspace	n/a
457.292	0.075	914584	keystroke	Key.backspace	n/a
457.442	0.075	914884	keystroke	Key.backspace	n/a
457.608	0.059	915216	keystroke	Key.backspace	n/a
457.7575	0.06	915515	keystroke	Key.backspace	n/a
457.9225	0.06	915845	keystroke	Key.backspace	n/a
458.5675	0.06	917135	keystroke	e	n/a
458.7475	0.09	917495	keystroke	r	n/a
458.8975	0.12	917795	keystroke	i	n/a
458.9725	0.09	917945	keystroke	n	n/a
459.0775	0.06	918155	keystroke	g	n/a
459.1675	0.09	918335	keystroke	Key.space	n/a
459.647	0.06	919294	keystroke	s	n/a
459.797	0.105	919594	keystroke	a	n/a
460.0075	0.075	920015	keystroke	n	n/a
460.4275	0.06	920855	keystroke	d	n/a
460.6975	0.075	921395	keystroke	Key.enter	n/a
460.7805	9.7885	921561	prompt	n/a	assignment bestsellers gentle minimal\n
461.4475	0.075	922895	keystroke	a	n/a
461.6725	0.03	923345	keystroke	s	n/a
461.7925	0.06	923585	keystroke	s	n/a
462.0475	0.0745	924095	keystroke	i	n/a
462.377	0.045	924754	keystroke	g	n/a
462.4825	0.075	924965	keystroke	n	n/a
462.812	0.075	925624	keystroke	m	n/a
462.947	0.075	925894	keystroke	e	n/a
463.1275	0.0745	926255	keystroke	n	n/a
463.247	0.09	926494	keystroke	t	n/a
463.367	0.075	926734	keystroke	Key.space	n/a
463.637	0.075	927274	keystroke	n	n/a
464.6875	0.09	929375	keystroke	Key.backspace	n/a
465.032	0.0755	930064	keystroke	b	n/a
465.168	0.0445	930336	keystroke	e	n/a
465.333	0.0745	930666	keystroke	s	n/a
465.513	0.045	931026	keystroke	t	n/a
465.6925	0.0605	931385	keystroke	s	n/a
465.8875	0.045	931775	keystroke	e	n/a
466.0675	0.06	932135	keystroke	l	n/a
466.2025	0.09	932405	keystroke	l	n/a
466.3225	0.135	932645	keystroke	e	n/a
466.4275	0.075	932855	keystroke	r	n/a
466.6525	0.06	933305	keystroke	s	n/a
466.7575	0.06	933515	keystroke	Key.space	n/a
467.4325	0.045	934865	keystroke	g	n/a
467.598	0.074	935196	keystroke	e	n/a
467.687	0.06	935374	keystroke	n	n/a
467.792	0.075	935584	keystroke	t	n/a
467.958	0.089	935916	keystroke	l	n/a
468.137	0.075	936274	keystroke	e	n/a
468.242	0.075	936484	keystroke	Key.space	n/a
468.587	0.06	937174	keystroke	m	n/a
468.677	0.06	937354	keystroke	a	n/a
469.067	0.09	938134	keystroke	Key.backspace	n/a
469.307	0.075	938614	keystroke	i	n/a
469.457	0.09	938914	keystroke	n	n/a
469.637	0.075	939274	keystroke	i	n/a
469.742	0.09	939484	keystroke	m	n/a
469.952	0.0605	939904	keystroke	a	n/a
470.0275	0.09	940055	keystroke	l	n/a
470.522	0.045	941044	keystroke	Key.enter	n/a
470.573	11.411	941146	prompt	n/a	mediterranean handbags draft lease\n
471.407	0.0605	942814	keystroke	m	n/a
471.6175	0.015	943235	keystroke	e	n/a
471.7525	0.075	943505	keystroke	d	n/a
471.8575	0.075	943715	keystroke	i	n/a
472.0975	0.06	944195	keystroke	t	n/a
472.787	0.0755	945574	keystroke	e	n/a
472.9525	0.0595	945905	keystroke	r	n/a
473.057	0.09	946114	keystroke	r	n/a
473.403	0.09	946806	keystroke	a	n/a
473.642	0.061	947284	keystroke	n	n/a
473.928	0.045	947856	keystroke	e	n/a
474.167	0.09	948334	keystroke	a	n/a
474.467	0.075	948934	keystroke	n	n/a
474.827	0.06	949654	keystroke	Key.space	n/a
477.515	0.012	955030	keystroke	h	n/a
477.587	0.09	955174	keystroke	a	n/a
477.707	0.075	955414	keystroke	n	n/a
477.812	0.09	955624	keystroke	d	n/a
478.082	0.06	956164	keystroke	b	n/a
478.188	0.105	956376	keystroke	a	n/a
478.4875	0.0445	956975	keystroke	g	n/a
478.712	0.076	957424	keystroke	s	n/a
478.818	0.0895	957636	keystroke	Key.space	n/a
479.6125	0.045	959225	keystroke	d	n/a
479.7775	0.06	959555	keystroke	r	n/a
480.017	0.075	960034	keystroke	a	n/a
480.227	0.045	960454	keystroke	f	n/a
480.407	0.12	960814	keystroke	t	n/a
480.542	0.06	961084	keystroke	Key.space	n/a
480.872	0.09	961744	keystroke	l	n/a
480.977	0.075	961954	keystroke	e	n/a
481.187	0.12	962374	keystroke	a	n/a
481.277	0.0605	962554	keystroke	s	n/a
481.4725	0.059	962945	keystroke	e	n/a
481.9225	0.06	963845	keystroke	Key.enter	n/a
481.9875	9.656	963975	prompt	n/a	estimates ladies distributors paperbacks\n
482.868	0.044	965736	keystroke	e	n/a
483.077	0.045	966154	keystroke	s	n/a
483.3475	0.06	966695	keystroke	t	n/a
483.5425	0.12	967085	keystroke	i	n/a
483.6625	0.075	967325	keystroke	m	n/a
483.8275	0.09	967655	keystroke	a	n/a
484.037	0.105	968074	keystroke	t	n/a
484.097	0.105	968194	keystroke	e	n/a
484.367	0.06	968734	keystroke	s	n/a
484.532	0.06	969064	keystroke	Key.space	n/a
484.877	0.075	969754	keystroke	l	n/a
484.982	0.075	969964	keystroke	a	n/a
485.207	0.06	970414	keystroke	d	n/a
485.342	0.105	970684	keystroke	i	n/a
485.492	0.06	970984	keystroke	e	n/a
485.687	0.075	971374	keystroke	s	n/a
485.807	0.075	971614	keystroke	Key.space	n/a
486.452	0.06	972904	keystroke	d	n/a
486.632	0.09	973264	keystroke	i	n/a
486.737	0.075	973474	keystroke	s	n/a
486.932	0.045	973864	keystroke	t	n/a
487.082	0.075	974164	keystroke	r	n/a
487.187	0.105	974374	keystroke	i	n/a
487.637	0.06	975274	keystroke	b	n/a
487.8025	0.105	975605	keystroke	u	n/a
488.057	0.075	976114	keystroke	t	n/a
488.222	0.105	976444	keystroke	o	n/a
488.5225	0.105	977045	keystroke	r	n/a
488.7325	0.105	977465	keystroke	s	n/a
488.8975	0.075	977795	keystroke	Key.space	n/a
489.5575	0.075	979115	keystroke	p	n/a
489.7225	0.105	979445	keystroke	a	n/a
489.8725	0.075	979745	keystroke	p	n/a
490.067	0.12	980134	keystroke	e	n/a
490.2175	0.0895	980435	keystroke	r	n/a
490.547	0.09	981094	keystroke	b	n/a
490.6825	0.15	981365	keystroke	a	n/a
490.7575	0.09	981515	keystroke	c	n/a
490.8775	0.0895	981755	keystroke	k	n/a
491.0425	0.075	982085	keystroke	s	n/a
491.5675	0.075	983135	keystroke	Key.enter	n/a
491.6475	9.3565	983295	prompt	n/a	crack acquisitions comic updates\n
492.512	0.015	985024	keystroke	c	n/a
492.6475	0.0445	985295	keystroke	r	n/a
492.827	0.0905	985654	keystroke	a	n/a
493.067	0.075	986134	keystroke	c	n/a
493.187	0.0755	986374	keystroke	k	n/a
493.4125	0.06	986825	keystroke	Key.space	n/a
493.728	0.074	987456	keystroke	a	n/a
494.2675	0.075	988535	keystroke	c	n/a
494.8525	0.105	989705	keystroke	q	n/a
495.0775	0.075	990155	keystroke	u	n/a
495.2875	0.105	990575	keystroke	i	n/a
495.4675	0.075	990935	keystroke	s	n/a
495.7225	0.075	991445	keystroke	i	n/a
495.8725	0.075	991745	keystroke	t	n/a
496.4725	0.12	992945	keystroke	i	n/a
496.5775	0.105	993155	keystroke	o	n/a
496.8025	0.075	993605	keystroke	n	n/a
496.9525	0.06	993905	keystroke	s	n/a
497.0275	0.09	994055	keystroke	Key.space	n/a
497.943	0.044	995886	keystroke	c	n/a
498.0325	0.15	996065	keystroke	o	n/a
498.1375	0.105	996275	keystroke	m	n/a
498.4675	0.09	996935	keystroke	i	n/a
498.5725	0.09	997145	keystroke	c	n/a
498.6775	0.105	997355	keystroke	Key.space	n/a
499.3525	0.045	998705	keystroke	u	n/a
499.5025	0.075	999005	keystroke	p	n/a
499.6525	0.09	999305	keystroke	d	n/a
499.8025	0.12	999605	keystroke	a	n/a
500.0275	0.135	1000055	keystroke	t	n/a
500.1175	0.09	1000235	keystroke	e	n/a
500.327	0.09	1000654	keystroke	s	n/a
500.9275	0.075	1001855	keystroke	Key.enter	n/a
501.0075	7.1665	1002015	prompt	n/a	ourselves but moving demand\n
501.827	0.15	1003654	keystroke	o	n/a
501.9025	0.09	1003805	keystroke	u	n/a
502.053	0.059	1004106	keystroke	r	n/a
502.262	0.03	1004524	keystroke	s	n/a
502.907	0.061	1005814	keystroke	e	n/a
503.0425	0.075	1006085	keystroke	l	n/a
503.3575	0.12	1006715	keystroke	v	n/a
503.4625	0.09	1006925	keystroke	e	n/a
503.7025	0.075	1007405	keystroke	s	n/a
503.8075	0.0745	1007615	keystroke	Key.space	n/a
504.6625	0.105	1009325	keystroke	b	n/a
504.9175	0.09	1009835	keystroke	u	n/a
505.0675	0.06	1010135	keystroke	t	n/a
505.1875	0.045	1010375	keystroke	Key.space	n/a
505.547	0.135	1011094	keystroke	m	n/a
505.622	0.105	1011244	keystroke	o	n/a
505.907	0.075	1011814	keystroke	v	n/a
506.0575	0.12	1012115	keystroke	i	n/a
506.1325	0.105	1012265	keystroke	n	n/a
506.2675	0.045	1012535	keystroke	g	n/a
506.3725	0.09	1012745	keystroke	Key.space	n/a
507.0475	0.06	1014095	keystroke	d	n/a
507.2275	0.045	1014455	keystroke	e	n/a
507.2875	0.075	1014575	keystroke	m	n/a
507.4225	0.105	1014845	keystroke	a	n/a
507.5425	0.09	1015085	keystroke	n	n/a
507.6625	0.075	1015325	keystroke	d	n/a
508.0975	0.075	1016195	keystroke	Key.enter	n/a
508.178	8.351	1016356	prompt	n/a	worse mobiles trends stainless\n
508.9525	0.06	1017905	keystroke	w	n/a
509.0575	0.075	1018115	keystroke	o	n/a
509.1925	0.09	1018385	keystroke	r	n/a
509.4025	0.045	1018805	keystroke	s	n/a
509.5825	0.06	1019165	keystroke	e	n/a
509.6575	0.09	1019315	keystroke	Key.space	n/a
510.1675	0.045	1020335	keystroke	m	n/a
510.4975	0.06	1020995	keystroke	o	n/a
510.8425	0.06	1021685	keystroke	b	n/a
510.9625	0.09	1021925	keystroke	i	n/a
511.2025	0.09	1022405	keystroke	l	n/a
511.3225	0.06	1022645	keystroke	e	n/a
511.5025	0.105	1023005	keystroke	s	n/a
511.6525	0.0895	1023305	keystroke	Key.space	n/a
512.088	0.045	1024176	keystroke	r	n/a
512.582	0.06	1025164	keystroke	Key.backspace	n/a
512.657	0.061	1025314	keystroke	t	n/a
512.8975	0.135	1025795	keystroke	r	n/a
513.0475	0.105	1026095	keystroke	e	n/a
513.6925	0.06	1027385	keystroke	n	n/a
513.7825	0.075	1027565	keystroke	d	n/a
513.9775	0.0895	1027955	keystroke	s	n/a
514.112	0.075	1028224	keystroke	Key.space	n/a
514.607	0.105	1029214	keystroke	s	n/a
514.862	0.045	1029724	keystroke	t	n/a
515.012	0.105	1030024	keystroke	a	n/a
515.162	0.1655	1030324	keystroke	i	n/a
515.282	0.0755	1030564	keystroke	n	n/a
515.4925	0.105	1030985	keystroke	l	n/a
515.5825	0.06	1031165	keystroke	e	n/a
515.7925	0.0295	1031585	keystroke	s	n/a
515.882	0.09	1031764	keystroke	s	n/a
516.4525	0.075	1032905	keystroke	Key.enter	n/a
516.532	11.3075	1033064	prompt	n/a	latvia routine samsung documents\n
517.5025	0.015	1035005	keystroke	l	n/a
517.5475	0.09	1035095	keystroke	a	n/a
517.7575	0.045	1035515	keystroke	t	n/a
518.1175	0.03	1036235	keystroke	v	n/a
518.2075	0.105	1036415	keystroke	i	n/a
518.4325	0.075	1036865	keystroke	a	n/a
518.5515	0.076	1037103	keystroke	Key.space	n/a
519.3625	0.06	1038725	keystroke	r	n/a
519.543	0.134	1039086	keystroke	o	n/a
519.618	0.104	1039236	keystroke	u	n/a
519.798	0.044	1039596	keystroke	t	n/a
519.9025	0.09	1039805	keystroke	i	n/a
520.0975	0.075	1040195	keystroke	n	n/a
520.2175	0.075	1040435	keystroke	e	n/a
520.3675	0.045	1040735	keystroke	Key.space	n/a
521.252	0.045	1042504	keystroke	s	n/a
521.432	0.09	1042864	keystroke	a	n/a
521.612	0.09	1043224	keystroke	m	n/a
521.822	0.06	1043644	keystroke	s	n/a
522.0175	0.09	1044035	keystroke	u	n/a
522.3775	0.09	1044755	keystroke	n	n/a
522.4975	0.075	1044995	keystroke	g	n/a
522.6175	0.075	1045235	keystroke	Key.space	n/a
525.4095	0.001	1050819	keystroke	d	n/a
525.5875	0.0595	1051175	keystroke	u	n/a
525.9775	0.075	1051955	keystroke	Key.backspace	n/a
526.247	0.06	1052494	keystroke	o	n/a
526.412	0.105	1052824	keystroke	c	n/a
526.623	0.044	1053246	keystroke	u	n/a
526.802	0.045	1053604	keystroke	m	n/a
526.952	0.061	1053904	keystroke	e	n/a
527.027	0.076	1054054	keystroke	n	n/a
527.147	0.06	1054294	keystroke	t	n/a
527.297	0.076	1054594	keystroke	s	n/a
527.732	0.105	1055464	keystroke	Key.enter	n/a
527.8425	8.8015	1055685	prompt	n/a	boolean garlic walls sold\n
528.9775	0.03	1057955	keystroke	b	n/a
529.727	0.075	1059454	keystroke	o	n/a
529.877	0.045	1059754	keystroke	o	n/a
530.057	0.09	1060114	keystroke	l	n/a
530.312	0.09	1060624	keystroke	e	n/a
530.522	0.105	1061044	keystroke	a	n/a
530.687	0.075	1061374	keystroke	n	n/a
530.897	0.075	1061794	keystroke	Key.space	n/a
531.332	0.06	1062664	keystroke	g	n/a
531.467	0.15	1062934	keystroke	a	n/a
531.602	0.09	1063204	keystroke	r	n/a
531.737	0.165	1063474	keystroke	l	n/a
531.887	0.105	1063774	keystroke	i	n/a
532.3215	0.06	1064643	keystroke	c	n/a
532.4865	0.06	1064973	keystroke	Key.space	n/a
532.787	0.075	1065574	keystroke	w	n/a
532.982	0.105	1065964	keystroke	a	n/a
533.177	0.075	1066354	keystroke	l	n/a
533.342	0.09	1066684	keystroke	l	n/a
533.4625	0.075	1066925	keystroke	s	n/a
533.6125	0.09	1067225	keystroke	Key.space	n/a
533.9125	0.075	1067825	keystroke	s	n/a
534.0025	0.1045	1068005	keystroke	o	n/a
534.4675	0.09	1068935	keystroke	l	n/a
535.4875	0.075	1070975	keystroke	d	n/a
536.582	0.06	1073164	keystroke	Key.enter	n/a
536.6465	8.9075	1073293	prompt	n/a	east essay celebrities sisters\n
537.5275	0.045	1075055	keystroke	e	n/a
537.722	0.1205	1075444	keystroke	a	n/a
537.7965	0.105	1075593	keystroke	s	n/a
538.0065	0.06	1076013	keystroke	t	n/a
538.1275	0.104	1076255	keystroke	Key.space	n/a
538.2925	0.074	1076585	keystroke	e	n/a
538.6375	0.06	1077275	keystroke	s	n/a
538.7425	0.09	1077485	keystroke	s	n/a
538.9215	0.091	1077843	keystroke	a	n/a
539.4775	0.075	1078955	keystroke	y	n/a
539.6575	0.075	1079315	keystroke	Key.space	n/a
540.287	0.06	1080574	keystroke	c	n/a
540.542	0.045	1081084	keystroke	e	n/a
540.842	0.09	1081684	keystroke	l	n/a
540.992	0.12	1081984	keystroke	e	n/a
541.6375	0.06	1083275	keystroke	v	n/a
542.057	0.06	1084114	keystroke	Key.backspace	n/a
542.147	0.06	1084294	keystroke	b	n/a
542.387	0.075	1084774	keystroke	r	n/a
542.537	0.1055	1085074	keystroke	i	n/a
542.7175	0.075	1085435	keystroke	t	n/a
542.8075	0.105	1085615	keystroke	i	n/a
542.9875	0.06	1085975	keystroke	e	n/a
543.1975	0.06	1086395	keystroke	s	n/a
543.2875	0.075	1086575	keystroke	Key.space	n/a
544.0525	0.03	1088105	keystroke	s	n/a
544.4125	0.09	1088825	keystroke	i	n/a
544.5625	0.09	1089125	keystroke	s	n/a
544.8025	0.045	1089605	keystroke	t	n/a
544.952	0.12	1089904	keystroke	e	n/a
545.027	0.075	1090054	keystroke	r	n/a
545.222	0.09	1090444	keystroke	s	n/a
545.462	0.09	1090924	keystroke	Key.enter	n/a
545.5575	8.1265	1091115	prompt	n/a	issue casinos doesn't cigarettes\n
546.3775	0.06	1092755	keystroke	i	n/a
546.4675	0.045	1092935	keystroke	s	n/a
546.5875	0.06	1093175	keystroke	s	n/a
546.692	0.12	1093384	keystroke	u	n/a
546.828	0.074	1093656	keystroke	e	n/a
547.007	0.0755	1094014	keystroke	Key.space	n/a
547.2625	0.06	1094525	keystroke	c	n/a
547.4425	0.075	1094885	keystroke	a	n/a
547.6825	0.06	1095365	keystroke	s	n/a
547.8175	0.09	1095635	keystroke	i	n/a
548.0425	0.06	1096085	keystroke	n	n/a
548.2525	0.09	1096505	keystroke	o	n/a
548.402	0.0905	1096804	keystroke	s	n/a
548.5075	0.09	1097015	keystroke	Key.space	n/a
549.4825	0.06	1098965	keystroke	d	n/a
549.5715	0.091	1099143	keystroke	o	n/a
549.6775	0.06	1099355	keystroke	e	n/a
549.8575	0.029	1099715	keystroke	s	n/a
549.9625	0.105	1099925	keystroke	n	n/a
550.4125	0.12	1100825	keystroke	'	n/a
550.6075	0.09	1101215	keystroke	t	n/a
550.7725	0.075	1101545	keystroke	Key.space	n/a
551.4175	0.06	1102835	keystroke	c	n/a
551.5975	0.075	1103195	keystroke	i	n/a
551.7475	0.03	1103495	keystroke	g	n/a
551.8825	0.09	1103765	keystroke	a	n/a
552.077	0.0455	1104154	keystroke	r	n/a
552.257	0.0905	1104514	keystroke	e	n/a
552.4675	0.0595	1104935	keystroke	t	n/a
552.572	0.075	1105144	keystroke	t	n/a
552.782	0.015	1105564	keystroke	e	n/a
552.962	0.0905	1105924	keystroke	s	n/a
553.0825	0.1045	1106165	keystroke	Key.space	n/a
553.592	0.09	1107184	keystroke	Key.enter	n/a
553.6875	8.771	1107375	prompt	n/a	desktop ambient structures ellen\n
554.717	0.045	1109434	keystroke	d	n/a
554.882	0.045	1109764	keystroke	e	n/a
555.077	0.075	1110154	keystroke	s	n/a
555.392	0.075	1110784	keystroke	k	n/a
555.617	0.075	1111234	keystroke	t	n/a
555.782	0.15	1111564	keystroke	o	n/a
555.887	0.09	1111774	keystroke	p	n/a
556.2025	0.075	1112405	keystroke	Key.space	n/a
556.787	0.075	1113574	keystroke	a	n/a
556.952	0.075	1113904	keystroke	m	n/a
557.192	0.0745	1114384	keystroke	b	n/a
557.3715	0.09	1114743	keystroke	i	n/a
557.5215	0.091	1115043	keystroke	e	n/a
557.6725	0.09	1115345	keystroke	n	n/a
557.8065	0.061	1115613	keystroke	t	n/a
557.8965	0.09	1115793	keystroke	Key.space	n/a
558.4375	0.044	1116875	keystroke	s	n/a
558.617	0.045	1117234	keystroke	t	n/a
558.767	0.06	1117534	keystroke	r	n/a
558.977	0.06	1117954	keystroke	u	n/a
559.082	0.06	1118164	keystroke	c	n/a
559.293	0.059	1118586	keystroke	t	n/a
559.607	0.06	1119214	keystroke	u	n/a
559.817	0.1055	1119634	keystroke	r	n/a
559.892	0.0745	1119784	keystroke	e	n/a
560.1025	0.075	1120205	keystroke	s	n/a
560.2375	0.075	1120475	keystroke	Key.space	n/a
560.7175	0.06	1121435	keystroke	e	n/a
561.1075	0.06	1122215	keystroke	l	n/a
561.2425	0.075	1122485	keystroke	l	n/a
561.3925	0.09	1122785	keystroke	e	n/a
561.4825	0.06	1122965	keystroke	n	n/a
562.382	0.075	1124764	keystroke	Key.enter	n/a
562.467	7.792	1124934	prompt	n/a	pledge educated workshop clinics\n
563.117	0.075	1126234	keystroke	p	n/a
563.312	0.075	1126624	keystroke	l	n/a
563.477	0.0605	1126954	keystroke	e	n/a
563.7025	0.075	1127405	keystroke	d	n/a
563.9425	0.045	1127885	keystroke	g	n/a
564.152	0.06	1128304	keystroke	e	n/a
564.302	0.03	1128604	keystroke	Key.space	n/a
564.8275	0.045	1129655	keystroke	e	n/a
564.9325	0.09	1129865	keystroke	d	n/a
565.0825	0.06	1130165	keystroke	u	n/a
565.2775	0.06	1130555	keystroke	c	n/a
565.4125	0.075	1130825	keystroke	a	n/a
565.6225	0.09	1131245	keystroke	t	n/a
565.6675	0.09	1131335	keystroke	e	n/a
565.8625	0.105	1131725	keystroke	d	n/a
565.9825	0.045	1131965	keystroke	Key.space	n/a
566.2975	0.06	1132595	keystroke	w	n/a
566.4025	0.09	1132805	keystroke	o	n/a
566.5525	0.075	1133105	keystroke	r	n/a
566.837	0.075	1133674	keystroke	k	n/a
567.107	0.0755	1134214	keystroke	s	n/a
567.2725	0.09	1134545	keystroke	h	n/a
567.5725	0.075	1135145	keystroke	o	n/a
567.7825	0.075	1135565	keystroke	p	n/a
568.607	0.06	1137214	keystroke	Key.space	n/a
568.832	0.075	1137664	keystroke	c	n/a
568.982	0.105	1137964	keystroke	l	n/a
569.057	0.105	1138114	keystroke	i	n/a
569.312	0.075	1138624	keystroke	n	n/a
569.477	0.105	1138954	keystroke	i	n/a
569.672	0.06	1139344	keystroke	c	n/a
569.822	0.12	1139644	keystroke	s	n/a
570.197	0.0605	1140394	keystroke	Key.enter	n/a
570.262	10.3765	1140524	prompt	n/a	berkeley generator portal victor\n
571.2775	0.06	1142555	keystroke	b	n/a
571.3975	0.09	1142795	keystroke	e	n/a
571.802	0.075	1143604	keystroke	r	n/a
572.057	0.076	1144114	keystroke	k	n/a
572.778	0.06	1145556	keystroke	e	n/a
572.9575	0.0905	1145915	keystroke	l	n/a
573.347	0.105	1146694	keystroke	e	n/a
573.737	0.09	1147474	keystroke	y	n/a
574.037	0.09	1148074	keystroke	Key.space	n/a
574.637	0.03	1149274	keystroke	g	n/a
574.772	0.075	1149544	keystroke	e	n/a
574.892	0.075	1149784	keystroke	n	n/a
575.012	0.15	1150024	keystroke	e	n/a
575.117	0.09	1150234	keystroke	r	n/a
575.282	0.09	1150564	keystroke	a	n/a
575.552	0.09	1151104	keystroke	t	n/a
575.702	0.105	1151404	keystroke	o	n/a
575.882	0.09	1151764	keystroke	s	n/a
576.5125	0.104	1153025	keystroke	Key.backspace	n/a
576.7375	0.0745	1153475	keystroke	r	n/a
576.917	0.0755	1153834	keystroke	Key.space	n/a
577.9075	0.045	1155815	keystroke	p	n/a
578.0725	0.06	1156145	keystroke	o	n/a
578.2075	0.075	1156415	keystroke	r	n/a
578.4025	0.045	1156805	keystroke	t	n/a
578.5825	0.09	1157165	keystroke	a	n/a
578.6875	0.09	1157375	keystroke	l	n/a
578.9125	0.075	1157825	keystroke	Key.space	n/a
579.4825	0.075	1158965	keystroke	v	n/a
579.5875	0.075	1159175	keystroke	i	n/a
579.7075	0.075	1159415	keystroke	c	n/a
579.917	0.075	1159834	keystroke	t	n/a
580.0225	0.105	1160045	keystroke	o	n/a
580.1125	0.105	1160225	keystroke	r	n/a
580.5625	0.075	1161125	keystroke	Key.enter	n/a
580.642	8.817	1161284	prompt	n/a	ne'er includes replication aluminum\n
581.5225	0.075	1163045	keystroke	n	n/a
581.6425	0.075	1163285	keystroke	e	n/a
581.8375	0.105	1163675	keystroke	'	n/a
582.0475	0.165	1164095	keystroke	e	n/a
582.1525	0.12	1164305	keystroke	r	n/a
582.3475	0.075	1164695	keystroke	Key.space	n/a
582.7375	0.105	1165475	keystroke	i	n/a
582.7975	0.075	1165595	keystroke	n	n/a
582.9325	0.075	1165865	keystroke	c	n/a
583.1425	0.165	1166285	keystroke	l	n/a
583.2325	0.105	1166465	keystroke	u	n/a
583.7125	0.09	1167425	keystroke	d	n/a
583.9075	0.06	1167815	keystroke	e	n/a
584.117	0.075	1168234	keystroke	s	n/a
584.222	0.075	1168444	keystroke	Key.space	n/a
584.627	0.15	1169254	keystroke	r	n/a
584.717	0.1055	1169434	keystroke	e	n/a
584.927	0.135	1169854	keystroke	p	n/a
585.002	0.12	1170004	keystroke	l	n/a
585.317	0.075	1170634	keystroke	i	n/a
585.437	0.075	1170874	keystroke	c	n/a
585.542	0.09	1171084	keystroke	a	n/a
585.737	0.075	1171474	keystroke	t	n/a
585.857	0.105	1171714	keystroke	i	n/a
585.917	0.1045	1171834	keystroke	o	n/a
586.0825	0.075	1172165	keystroke	n	n/a
586.2625	0.09	1172525	keystroke	Key.space	n/a
586.9525	0.09	1173905	keystroke	a	n/a
587.1475	0.105	1174295	keystroke	l	n/a
587.3125	0.06	1174625	keystroke	u	n/a
587.5225	0.105	1175045	keystroke	m	n/a
587.7325	0.12	1175465	keystroke	i	n/a
587.8365	0.09	1175673	keystroke	n	n/a
588.362	0.09	1176724	keystroke	u	n/a
588.587	0.06	1177174	keystroke	m	n/a
589.2775	0.18	1178555	keystroke	Key.enter	n/a
589.462	10.587	1178924	prompt	n/a	empirical intl protocol riverside\n
590.4775	0.045	1180955	keystroke	e	n/a
590.6125	0.06	1181225	keystroke	m	n/a
590.9425	0.09	1181885	keystroke	p	n/a
591.1375	0.06	1182275	keystroke	i	n/a
591.2575	0.075	1182515	keystroke	r	n/a
591.3775	0.12	1182755	keystroke	i	n/a
592.0675	0.09	1184135	keystroke	c	n/a
592.1575	0.105	1184315	keystroke	a	n/a
592.2775	0.105	1184555	keystroke	l	n/a
592.5025	0.075	1185005	keystroke	Key.space	n/a
593.192	0.15	1186384	keystroke	i	n/a
593.282	0.09	1186564	keystroke	n	n/a
593.522	0.075	1187044	keystroke	t	n/a
593.612	0.075	1187224	keystroke	l	n/a
593.807	0.075	1187614	keystroke	Key.space	n/a
594.092	0.09	1188184	keystroke	p	n/a
594.347	0.075	1188694	keystroke	r	n/a
594.467	0.105	1188934	keystroke	o	n/a
594.632	0.06	1189264	keystroke	t	n/a
594.7375	0.12	1189475	keystroke	o	n/a
595.0975	0.0745	1190195	keystroke	c	n/a
595.247	0.075	1190494	keystroke	o	n/a
595.457	0.09	1190914	keystroke	l	n/a
595.562	0.075	1191124	keystroke	s	n/a
595.682	0.075	1191364	keystroke	Key.space	n/a
596.5525	0.045	1193105	keystroke	t	n/a
596.942	0.075	1193884	keystroke	Key.backspace	n/a
597.047	0.0905	1194094	keystroke	r	n/a
598.3075	0.045	1196615	keystroke	i	n/a
598.5625	0.0445	1197125	keystroke	v	n/a
598.727	0.12	1197454	keystroke	e	n/a
598.787	0.075	1197574	keystroke	r	n/a
599.027	0.045	1198054	keystroke	s	n/a
599.132	0.075	1198264	keystroke	i	n/a
599.222	0.06	1198444	keystroke	d	n/a
599.372	0.075	1198744	keystroke	e	n/a
599.522	0.06	1199044	keystroke	Key.space	n/a
599.957	0.09	1199914	keystroke	Key.enter	n/a
600.052	10.812	1200104	prompt	n/a	refurbished mustang respondents tribune\n
601.0225	0.09	1202045	keystroke	r	n/a
601.0975	0.06	1202195	keystroke	e	n/a
601.262	0.06	1202524	keystroke	f	n/a
601.427	0.075	1202854	keystroke	u	n/a
601.622	0.075	1203244	keystroke	r	n/a
601.983	0.0595	1203966	keystroke	b	n/a
602.1625	0.09	1204325	keystroke	i	n/a
602.3125	0.06	1204625	keystroke	s	n/a
602.4475	0.075	1204895	keystroke	h	n/a
602.5675	0.06	1205135	keystroke	e	n/a
602.732	0.09	1205464	keystroke	d	n/a
602.837	0.075	1205674	keystroke	Key.space	n/a
603.212	0.06	1206424	keystroke	m	n/a
603.572	0.0905	1207144	keystroke	u	n/a
603.6925	0.09	1207385	keystroke	s	n/a
603.9325	0.06	1207865	keystroke	t	n/a
604.142	0.09	1208284	keystroke	a	n/a
604.337	0.09	1208674	keystroke	n	n/a
604.742	0.105	1209484	keystroke	g	n/a
604.892	0.075	1209784	keystroke	Key.space	n/a
605.792	0.105	1211584	keystroke	r	n/a
605.867	0.06	1211734	keystroke	e	n/a
606.0475	0.06	1212095	keystroke	s	n/a
606.1375	0.105	1212275	keystroke	p	n/a
606.2125	0.075	1212425	keystroke	o	n/a
606.4375	0.075	1212875	keystroke	n	n/a
607.307	0.06	1214614	keystroke	d	n/a
607.487	0.06	1214974	keystroke	e	n/a
607.592	0.075	1215184	keystroke	n	n/a
607.712	0.06	1215424	keystroke	t	n/a
607.862	0.09	1215724	keystroke	s	n/a
607.967	0.0745	1215934	keystroke	Key.space	n/a
609.0465	0.0455	1218093	keystroke	t	n/a
609.212	0.075	1218424	keystroke	r	n/a
609.407	0.0745	1218814	keystroke	i	n/a
610.0525	0.12	1220105	keystroke	b	n/a
610.112	0.12	1220224	keystroke	u	n/a
610.367	0.075	1220734	keystroke	n	n/a
610.4725	0.0745	1220945	keystroke	e	n/a
610.772	0.09	1221544	keystroke	Key.enter	n/a
610.8675	8.1415	1221735	prompt	n/a	donate locations nvidia trace\n
611.7475	0.075	1223495	keystroke	d	n/a
611.8675	0.15	1223735	keystroke	o	n/a
612.0325	0.075	1224065	keystroke	n	n/a
612.167	0.105	1224334	keystroke	a	n/a
612.647	0.1355	1225294	keystroke	t	n/a
612.7375	0.105	1225475	keystroke	e	n/a
612.8725	0.09	1225745	keystroke	Key.space	n/a
613.1125	0.06	1226225	keystroke	l	n/a
613.2925	0.075	1226585	keystroke	o	n/a
613.3525	0.09	1226705	keystroke	c	n/a
613.4275	0.089	1226855	keystroke	a	n/a
613.6215	0.061	1227243	keystroke	t	n/a
613.6975	0.12	1227395	keystroke	i	n/a
613.7425	0.105	1227485	keystroke	o	n/a
613.9375	0.105	1227875	keystroke	n	n/a
614.0575	0.06	1228115	keystroke	s	n/a
614.1925	0.09	1228385	keystroke	Key.space	n/a
614.822	0.06	1229644	keystroke	n	n/a
614.987	0.06	1229974	keystroke	v	n/a
615.167	0.06	1230334	keystroke	i	n/a
615.512	0.075	1231024	keystroke	d	n/a
615.617	0.12	1231234	keystroke	i	n/a
616.682	0.105	1233364	keystroke	a	n/a
617.042	0.105	1234084	keystroke	Key.space	n/a
618.422	0.075	1236844	keystroke	r	n/a
618.572	0.255	1237144	keystroke	a	n/a
618.767	0.105	1237534	keystroke	c	n/a
618.887	0.015	1237774	keystroke	e	n/a
618.917	0.09	1237834	keystroke	Key.enter	n/a
619.012	18.417	1238024	prompt	n/a	inexpensive artwork downtown diary\n
621.695	0.162	1243390	keystroke	i	n/a
621.722	0.15	1243444	keystroke	n	n/a
621.917	0.2105	1243834	keystroke	e	n/a
622.2025	0.135	1244405	keystroke	x	n/a
622.4125	0.09	1244825	keystroke	p	n/a
624.077	0.075	1248154	keystroke	e	n/a
624.212	0.09	1248424	keystroke	n	n/a
624.437	0.09	1248874	keystroke	s	n/a
624.677	0.075	1249354	keystroke	i	n/a
625.547	0.075	1251094	keystroke	v	n/a
625.637	0.09	1251274	keystroke	e	n/a
625.8025	0.135	1251605	keystroke	Key.space	n/a
626.1475	0.09	1252295	keystroke	a	n/a
626.3875	0.045	1252775	keystroke	r	n/a
626.5675	0.09	1253135	keystroke	t	n/a
626.7925	0.075	1253585	keystroke	o	n/a
626.9125	0.09	1253825	keystroke	w	n/a
627.3325	0.045	1254665	keystroke	r	n/a
627.4225	0.09	1254845	keystroke	k	n/a
627.6925	0.06	1255385	keystroke	Key.space	n/a
628.1415	0.045	1256283	keystroke	Key.backspace	n/a
628.3215	0.06	1256643	keystroke	Key.backspace	n/a
628.5165	0.03	1257033	keystroke	Key.backspace	n/a
628.6375	0.06	1257275	keystroke	Key.backspace	n/a
628.8025	0.03	1257605	keystroke	Key.backspace	n/a
629.492	0.075	1258984	keystroke	w	n/a
629.582	0.075	1259164	keystroke	i	n/a
629.702	0.105	1259404	keystroke	r	n/a
629.942	0.075	1259884	keystroke	k	n/a
630.1525	0.06	1260305	keystroke	Key.space	n/a
631.2475	0.03	1262495	keystroke	Key.backspace	n/a
631.6075	0.06	1263215	keystroke	Key.backspace	n/a
631.7875	0.06	1263575	keystroke	Key.backspace	n/a
631.9525	0.075	1263905	keystroke	Key.backspace	n/a
632.6265	0.135	1265253	keystroke	o	n/a
632.7915	0.075	1265583	keystroke	r	n/a
633.0015	0.06	1266003	keystroke	k	n/a
633.2265	0.045	1266453	keystroke	Key.space	n/a
633.7365	0.06	1267473	keystroke	d	n/a
633.8575	0.074	1267715	keystroke	o	n/a
633.9765	0.0755	1267953	keystroke	w	n/a
634.097	0.06	1268194	keystroke	n	n/a
634.277	0.06	1268554	keystroke	t	n/a
634.397	0.105	1268794	keystroke	o	n/a
634.667	0.135	1269334	keystroke	w	n/a
634.877	0.015	1269754	keystroke	n	n/a
635.4925	0.0895	1270985	keystroke	Key.space	n/a
635.957	0.0605	1271914	keystroke	d	n/a
636.0775	0.0745	1272155	keystroke	i	n/a
636.197	0.0905	1272394	keystroke	a	n/a
636.4075	0.075	1272815	keystroke	r	n/a
636.632	0.105	1273264	keystroke	y	n/a
637.367	0.06	1274734	keystroke	Key.enter	n/a
637.432	6.6265	1274864	prompt	n/a	apps district knows pounds\n
638.0115	0.12	1276023	keystroke	a	n/a
638.2665	0.015	1276533	keystroke	p	n/a
638.3415	0.105	1276683	keystroke	p	n/a
638.5365	0.06	1277073	keystroke	s	n/a
638.6265	0.075	1277253	keystroke	Key.space	n/a
639.2265	0.075	1278453	keystroke	d	n/a
639.407	0.105	1278814	keystroke	i	n/a
639.527	0.075	1279054	keystroke	s	n/a
639.707	0.075	1279414	keystroke	t	n/a
639.857	0.06	1279714	keystroke	r	n/a
640.037	0.075	1280074	keystroke	i	n/a
640.382	0.045	1280764	keystroke	c	n/a
640.697	0.06	1281394	keystroke	t	n/a
640.907	0.075	1281814	keystroke	Key.space	n/a
641.567	0.135	1283134	keystroke	k	n/a
641.672	0.09	1283344	keystroke	n	n/a
641.882	0.09	1283764	keystroke	o	n/a
642.017	0.06	1284034	keystroke	w	n/a
642.197	0.09	1284394	keystroke	s	n/a
642.302	0.075	1284604	keystroke	Key.space	n/a
642.6925	0.09	1285385	keystroke	p	n/a
642.992	0.09	1285984	keystroke	o	n/a
643.2165	0.075	1286433	keystroke	u	n/a
643.4275	0.059	1286855	keystroke	n	n/a
643.6525	0.149	1287305	keystroke	d	n/a
643.7415	0.12	1287483	keystroke	s	n/a
643.9665	0.09	1287933	keystroke	Key.enter	n/a
644.062	9.5365	1288124	prompt	n/a	shortcuts danish arrange intervals\n
644.8665	0.075	1289733	keystroke	s	n/a
645.1215	0.075	1290243	keystroke	h	n/a
645.2865	0.09	1290573	keystroke	o	n/a
645.3915	0.06	1290783	keystroke	r	n/a
645.6015	0.03	1291203	keystroke	t	n/a
645.8275	0.059	1291655	keystroke	c	n/a
645.9765	0.091	1291953	keystroke	u	n/a
646.187	0.075	1292374	keystroke	t	n/a
646.3815	0.09	1292763	keystroke	s	n/a
646.5015	0.075	1293003	keystroke	Key.space	n/a
647.3715	0.075	1294743	keystroke	d	n/a
647.5515	0.075	1295103	keystroke	a	n/a
647.6415	0.075	1295283	keystroke	n	n/a
647.8365	0.075	1295673	keystroke	i	n/a
647.9715	0.0905	1295943	keystroke	s	n/a
648.182	0.075	1296364	keystroke	h	n/a
648.392	0.06	1296784	keystroke	Key.space	n/a
648.692	0.09	1297384	keystroke	a	n/a
648.977	0.045	1297954	keystroke	r	n/a
649.082	0.075	1298164	keystroke	r	n/a
649.247	0.09	1298494	keystroke	a	n/a
649.352	0.075	1298704	keystroke	n	n/a
649.577	0.0595	1299154	keystroke	g	n/a
649.6825	0.09	1299365	keystroke	e	n/a
649.8165	0.075	1299633	keystroke	Key.space	n/a
651.0765	0.12	1302153	keystroke	i	n/a
651.1665	0.075	1302333	keystroke	n	n/a
651.767	0.075	1303534	keystroke	t	n/a
651.917	0.1345	1303834	keystroke	e	n/a
652.0065	0.09	1304013	keystroke	r	n/a
652.3965	0.06	1304793	keystroke	v	n/a
652.5615	0.09	1305123	keystroke	a	n/a
652.6525	0.12	1305305	keystroke	l	n/a
652.8165	0.06	1305633	keystroke	s	n/a
653.5215	0.075	1307043	keystroke	Key.enter	n/a
653.6015	7.377	1307203	prompt	n/a	typical amendments grades knee\n
654.3915	0.061	1308783	keystroke	t	n/a
654.962	0.06	1309924	keystroke	y	n/a
655.142	0.06	1310284	keystroke	p	n/a
655.352	0.06	1310704	keystroke	i	n/a
655.457	0.09	1310914	keystroke	c	n/a
655.562	0.105	1311124	keystroke	a	n/a
655.7575	0.06	1311515	keystroke	l	n/a
655.9665	0.0755	1311933	keystroke	Key.space	n/a
656.312	0.075	1312624	keystroke	a	n/a
656.432	0.09	1312864	keystroke	m	n/a
656.597	0.06	1313194	keystroke	e	n/a
656.762	0.09	1313524	keystroke	n	n/a
656.867	0.075	1313734	keystroke	d	n/a
657.017	0.0745	1314034	keystroke	m	n/a
657.1515	0.075	1314303	keystroke	e	n/a
657.2415	0.09	1314483	keystroke	n	n/a
657.3465	0.076	1314693	keystroke	t	n/a
657.5115	0.075	1315023	keystroke	s	n/a
657.6765	0.075	1315353	keystroke	Key.space	n/a
658.4725	0.06	1316945	keystroke	g	n/a
658.6525	0.0595	1317305	keystroke	r	n/a
658.787	0.09	1317574	keystroke	a	n/a
659.043	0.0445	1318086	keystroke	d	n/a
659.2075	0.045	1318415	keystroke	e	n/a
659.3865	0.061	1318773	keystroke	s	n/a
659.4915	0.075	1318983	keystroke	Key.space	n/a
660.002	0.105	1320004	keystroke	k	n/a
660.077	0.075	1320154	keystroke	n	n/a
660.407	0.075	1320814	keystroke	e	n/a
660.527	0.09	1321054	keystroke	e	n/a
660.887	0.09	1321774	keystroke	Key.enter	n/a
660.982	7.481	1321964	prompt	n/a	package shoulder inspiration disney\n
661.622	0.09	1323244	keystroke	p	n/a
661.727	0.09	1323454	keystroke	a	n/a
661.907	0.075	1323814	keystroke	c	n/a
661.997	0.09	1323994	keystroke	k	n/a
662.102	0.09	1324204	keystroke	a	n/a
662.342	0.12	1324684	keystroke	g	n/a
662.432	0.0905	1324864	keystroke	e	n/a
662.5825	0.09	1325165	keystroke	Key.space	n/a
663.017	0.06	1326034	keystroke	s	n/a
663.242	0.06	1326484	keystroke	h	n/a
663.422	0.105	1326844	keystroke	o	n/a
663.482	0.075	1326964	keystroke	u	n/a
663.632	0.1195	1327264	keystroke	l	n/a
663.7375	0.06	1327475	keystroke	d	n/a
663.9325	0.12	1327865	keystroke	e	n/a
664.0225	0.09	1328045	keystroke	r	n/a
664.1725	0.075	1328345	keystroke	Key.space	n/a
664.9525	0.135	1329905	keystroke	i	n/a
665.0425	0.09	1330085	keystroke	n	n/a
665.282	0.06	1330564	keystroke	s	n/a
665.372	0.075	1330744	keystroke	p	n/a
665.642	0.075	1331284	keystroke	i	n/a
665.777	0.075	1331554	keystroke	r	n/a
665.957	0.0595	1331914	keystroke	a	n/a
666.1365	0.045	1332273	keystroke	t	n/a
666.2115	0.105	1332423	keystroke	i	n/a
666.2715	0.105	1332543	keystroke	o	n/a
666.4665	0.06	1332933	keystroke	n	n/a
666.6475	0.0745	1333295	keystroke	Key.space	n/a
667.427	0.0905	1334854	keystroke	d	n/a
667.5325	0.06	1335065	keystroke	i	n/a
667.6225	0.075	1335245	keystroke	s	n/a
667.7425	0.075	1335485	keystroke	n	n/a
667.9075	0.06	1335815	keystroke	e	n/a
668.1175	0.075	1336235	keystroke	y	n/a
668.4025	0.06	1336805	keystroke	Key.enter	n/a
668.4665	8.922	1336933	prompt	n/a	package assignment it'd influence\n
669.287	0.0755	1338574	keystroke	p	n/a
669.4365	0.075	1338873	keystroke	a	n/a
669.6465	0.045	1339293	keystroke	c	n/a
669.7525	0.045	1339505	keystroke	k	n/a
669.8575	0.105	1339715	keystroke	a	n/a
670.6975	0.105	1341395	keystroke	g	n/a
670.8465	0.091	1341693	keystroke	e	n/a
671.0265	0.075	1342053	keystroke	Key.space	n/a
671.2225	0.105	1342445	keystroke	a	n/a
671.5515	0.045	1343103	keystroke	s	n/a
671.6565	0.075	1343313	keystroke	s	n/a
671.7465	0.076	1343493	keystroke	i	n/a
671.8815	0.076	1343763	keystroke	g	n/a
671.9865	0.121	1343973	keystroke	n	n/a
672.2575	0.075	1344515	keystroke	m	n/a
