onset	duration	sample	value	key	prompt_text
10.157	10.211	20314	prompt	n/a	the quick brown fox jumps over a lazy dog\n
11.696	0.0135	23392	keystroke	t	n/a
11.7395	0.119	23479	keystroke	h	n/a
11.8295	0.0895	23659	keystroke	e	n/a
11.9485	0.12	23897	keystroke	Key.space	n/a
12.414	0.0745	24828	keystroke	q	n/a
12.5635	0.1355	25127	keystroke	u	n/a
12.6685	0.1055	25337	keystroke	i	n/a
12.804	0.0905	25608	keystroke	c	n/a
12.924	0.15	25848	keystroke	k	n/a
13.0585	0.09	26117	keystroke	Key.space	n/a
13.2095	0.104	26419	keystroke	b	n/a
13.3285	0.091	26657	keystroke	r	n/a
13.464	0.12	26928	keystroke	o	n/a
13.569	0.0745	27138	keystroke	w	n/a
13.7335	0.15	27467	keystroke	n	n/a
13.8685	0.1205	27737	keystroke	Key.space	n/a
14.6335	0.0155	29267	keystroke	f	n/a
14.754	0.075	29508	keystroke	o	n/a
15.3845	0.0895	30769	keystroke	x	n/a
16.3585	0.1205	32717	keystroke	Key.space	n/a
16.5695	0.059	33139	keystroke	j	n/a
16.7335	0.0755	33467	keystroke	u	n/a
16.9435	0.135	33887	keystroke	m	n/a
17.0945	0.1045	34189	keystroke	p	n/a
17.5585	0.105	35117	keystroke	s	n/a
17.7085	0.0905	35417	keystroke	Key.space	n/a
17.829	0.1055	35658	keystroke	o	n/a
17.9185	0.061	35837	keystroke	v	n/a
18.0845	0.1495	36169	keystroke	e	n/a
18.1885	0.1055	36377	keystroke	r	n/a
18.309	0.09	36618	keystroke	Key.space	n/a
18.4295	0.074	36859	keystroke	a	n/a
18.549	0.0895	37098	keystroke	Key.space	n/a
18.6535	0.091	37307	keystroke	l	n/a
18.7585	0.135	37517	keystroke	a	n/a
19.509	0.18	39018	keystroke	z	n/a
19.704	0.0605	39408	keystroke	y	n/a
19.734	0.105	39468	keystroke	Key.space	n/a
19.8535	0.0905	39707	keystroke	d	n/a
19.9595	0.12	39919	keystroke	o	n/a
20.124	0.0905	40248	keystroke	g	n/a
20.274	0.09	40548	keystroke	Key.enter	n/a
20.3735	8.3775	40747	prompt	n/a	prix wallpapers titanium votes\n
21.249	0.1045	42498	keystroke	p	n/a
21.414	0.0755	42828	keystroke	r	n/a
21.504	0.0905	43008	keystroke	i	n/a
22.3145	0.075	44629	keystroke	x	n/a
22.4035	0.1205	44807	keystroke	Key.space	n/a
22.5535	0.105	45107	keystroke	w	n/a
22.7195	0.09	45439	keystroke	a	n/a
22.8395	0.0745	45679	keystroke	l	n/a
23.0185	0.06	46037	keystroke	l	n/a
23.424	0.075	46848	keystroke	p	n/a
23.5585	0.045	47117	keystroke	a	n/a
23.6635	0.0905	47327	keystroke	p	n/a
23.9945	0.195	47989	keystroke	e	n/a
24.1145	0.104	48229	keystroke	r	n/a
24.3385	0.1055	48677	keystroke	s	n/a
24.474	0.1205	48948	keystroke	Key.space	n/a
24.7735	0.09	49547	keystroke	i	n/a
25.2395	0.044	50479	keystroke	Key.backspace	n/a
25.3885	0.0755	50777	keystroke	t	n/a
25.4785	0.091	50957	keystroke	i	n/a
25.6585	0.0905	51317	keystroke	t	n/a
25.779	0.0755	51558	keystroke	a	n/a
26.2895	0.105	52579	keystroke	n	n/a
26.409	0.1355	52818	keystroke	i	n/a
27.0395	0.0895	54079	keystroke	u	n/a
27.3095	0.15	54619	keystroke	m	n/a
27.474	0.09	54948	keystroke	Key.space	n/a
27.7145	0.105	55429	keystroke	v	n/a
27.8345	0.074	55669	keystroke	o	n/a
28.0145	0.075	56029	keystroke	t	n/a
28.1345	0.1045	56269	keystroke	e	n/a
28.2845	0.105	56569	keystroke	s	n/a
28.674	0.075	57348	keystroke	Key.enter	n/a
28.7555	8.3215	57511	prompt	n/a	surge leisure parameters congo\n
29.664	0.06	59328	keystroke	s	n/a
29.8445	0.089	59689	keystroke	u	n/a
29.949	0.075	59898	keystroke	r	n/a
30.129	0.0755	60258	keystroke	g	n/a
30.2945	0.059	60589	keystroke	e	n/a
30.3985	0.1205	60797	keystroke	Key.space	n/a
30.564	0.105	61128	keystroke	l	n/a
30.684	0.06	61368	keystroke	e	n/a
30.789	0.09	61578	keystroke	i	n/a
31.014	0.105	62028	keystroke	s	n/a
31.1785	0.075	62357	keystroke	u	n/a
31.299	0.12	62598	keystroke	r	n/a
31.389	0.09	62778	keystroke	e	n/a
31.494	0.105	62988	keystroke	Key.space	n/a
31.7035	0.091	63407	keystroke	p	n/a
32.1835	0.0905	64367	keystroke	a	n/a
32.409	0.09	64818	keystroke	r	n/a
32.544	0.09	65088	keystroke	a	n/a
33.264	0.105	66528	keystroke	m	n/a
33.489	0.0755	66978	keystroke	e	n/a
33.684	0.06	67368	keystroke	t	n/a
33.849	0.135	67698	keystroke	e	n/a
34.404	0.0605	68808	keystroke	r	n/a
34.524	0.105	69048	keystroke	s	n/a
34.674	0.09	69348	keystroke	Key.space	n/a
35.694	0.09	71388	keystroke	c	n/a
35.8445	0.15	71689	keystroke	o	n/a
35.9345	0.134	71869	keystroke	n	n/a
36.0845	0.09	72169	keystroke	g	n/a
36.2785	0.091	72557	keystroke	o	n/a
36.9835	0.0905	73967	keystroke	Key.enter	n/a
37.081	11.3045	74162	prompt	n/a	covering flame gage strength\n
37.9295	0.075	75859	keystroke	v	n/a
38.0345	0.105	76069	keystroke	o	n/a
38.1535	0.061	76307	keystroke	v	n/a
38.3495	0.195	76699	keystroke	e	n/a
38.4995	0.135	76999	keystroke	r	n/a
38.9945	0.06	77989	keystroke	Key.backspace	n/a
39.1585	0.03	78317	keystroke	Key.backspace	n/a
39.3095	0.029	78619	keystroke	Key.backspace	n/a
39.6245	0.059	79249	keystroke	Key.backspace	n/a
39.849	0.075	79698	keystroke	Key.backspace	n/a
40.479	0.0605	80958	keystroke	c	n/a
40.6145	0.0895	81229	keystroke	o	n/a
40.719	0.06	81438	keystroke	v	n/a
40.914	0.135	81828	keystroke	e	n/a
41.019	0.09	82038	keystroke	r	n/a
41.139	0.165	82278	keystroke	i	n/a
41.229	0.12	82458	keystroke	n	n/a
41.364	0.075	82728	keystroke	g	n/a
41.469	0.105	82938	keystroke	Key.space	n/a
43.164	0.09	86328	keystroke	f	n/a
43.3445	0.104	86689	keystroke	l	n/a
43.4345	0.104	86869	keystroke	a	n/a
43.599	0.09	87198	keystroke	m	n/a
43.8685	0.1655	87737	keystroke	e	n/a
44.5735	0.135	89147	keystroke	Key.space	n/a
44.8135	0.09	89627	keystroke	g	n/a
44.9485	0.105	89897	keystroke	a	n/a
45.0845	0.089	90169	keystroke	g	n/a
45.249	0.105	90498	keystroke	e	n/a
45.399	0.135	90798	keystroke	Key.space	n/a
45.924	0.0605	91848	keystroke	s	n/a
46.134	0.075	92268	keystroke	t	n/a
46.329	0.135	92658	keystroke	r	n/a
46.464	0.09	92928	keystroke	e	n/a
46.749	0.105	93498	keystroke	n	n/a
46.959	0.06	93918	keystroke	t	n/a
47.559	0.075	95118	keystroke	Key.backspace	n/a
47.679	0.075	95358	keystroke	g	n/a
47.844	0.09	95688	keystroke	h	n/a
47.9195	0.0745	95839	keystroke	t	n/a
48.2785	0.105	96557	keystroke	Key.enter	n/a
48.3895	15.552	96779	prompt	n/a	cleaning beliefs organisations hands\n
51.341	0.013	102682	keystroke	c	n/a
51.564	0.105	103128	keystroke	l	n/a
51.699	0.105	103398	keystroke	e	n/a
51.774	0.105	103548	keystroke	a	n/a
51.954	0.0905	103908	keystroke	n	n/a
52.059	0.15	104118	keystroke	i	n/a
52.179	0.09	104358	keystroke	n	n/a
52.284	0.1055	104568	keystroke	g	n/a
52.479	0.105	104958	keystroke	Key.space	n/a
52.749	0.075	105498	keystroke	b	n/a
52.854	0.06	105708	keystroke	e	n/a
53.004	0.135	106008	keystroke	l	n/a
53.124	0.1055	106248	keystroke	i	n/a
53.4845	0.105	106969	keystroke	e	n/a
53.9345	0.075	107869	keystroke	f	n/a
54.0995	0.075	108199	keystroke	s	n/a
54.2795	0.105	108559	keystroke	Key.space	n/a
54.7745	0.09	109549	keystroke	o	n/a
54.924	0.09	109848	keystroke	r	n/a
56.4385	0.09	112877	keystroke	g	n/a
56.5735	0.0755	113147	keystroke	a	n/a
56.799	0.1045	113598	keystroke	n	n/a
56.9495	0.089	113899	keystroke	i	n/a
57.1735	0.1205	114347	keystroke	s	n/a
57.309	0.12	114618	keystroke	a	n/a
57.474	0.0905	114948	keystroke	t	n/a
57.5795	0.1045	115159	keystroke	i	n/a
57.669	0.12	115338	keystroke	o	n/a
57.744	0.1195	115488	keystroke	n	n/a
57.8785	0.106	115757	keystroke	s	n/a
57.999	0.1195	115998	keystroke	Key.space	n/a
58.1485	0.105	116297	keystroke	h	n/a
58.2545	0.089	116509	keystroke	a	n/a
58.7785	0.06	117557	keystroke	Key.backspace	n/a
58.929	0.06	117858	keystroke	Key.backspace	n/a
59.094	0.0455	118188	keystroke	Key.backspace	n/a
59.244	0.06	118488	keystroke	Key.backspace	n/a
59.409	0.0605	118818	keystroke	Key.backspace	n/a
59.574	0.0455	119148	keystroke	Key.backspace	n/a
59.754	0.015	119508	keystroke	Key.backspace	n/a
59.904	0.045	119808	keystroke	Key.backspace	n/a
60.189	0.045	120378	keystroke	Key.backspace	n/a
60.369	0.045	120738	keystroke	Key.backspace	n/a
62.094	0.09	124188	keystroke	a	n/a
62.319	0.09	124638	keystroke	t	n/a
62.424	0.15	124848	keystroke	i	n/a
62.559	0.15	125118	keystroke	o	n/a
62.664	0.12	125328	keystroke	n	n/a
62.829	0.12	125658	keystroke	s	n/a
63.039	0.09	126078	keystroke	Key.space	n/a
63.2635	0.091	126527	keystroke	h	n/a
63.3695	0.075	126739	keystroke	a	n/a
63.5045	0.105	127009	keystroke	n	n/a
63.6245	0.09	127249	keystroke	d	n/a
63.6995	0.09	127399	keystroke	s	n/a
63.8795	0.06	127759	keystroke	Key.enter	n/a
63.9455	13.346	127891	prompt	n/a	subcommittee blogging makes computation\n
64.764	0.1345	129528	keystroke	s	n/a
64.9585	0.09	129917	keystroke	u	n/a
66.0085	0.0755	132017	keystroke	b	n/a
66.324	0.1045	132648	keystroke	c	n/a
66.4585	0.121	132917	keystroke	o	n/a
67.1785	0.09	134357	keystroke	m	n/a
67.344	0.105	134688	keystroke	m	n/a
67.464	0.12	134928	keystroke	i	n/a
67.674	0.0605	135348	keystroke	t	n/a
67.839	0.075	135678	keystroke	t	n/a
68.799	0.0905	137598	keystroke	e	n/a
68.979	0.075	137958	keystroke	e	n/a
69.189	0.105	138378	keystroke	Key.space	n/a
69.8945	0.059	139789	keystroke	b	n/a
70.0735	0.075	140147	keystroke	l	n/a
70.2385	0.0755	140477	keystroke	o	n/a
70.344	0.0595	140688	keystroke	g	n/a
70.509	0.0595	141018	keystroke	g	n/a
70.5835	0.12	141167	keystroke	i	n/a
70.659	0.1645	141318	keystroke	n	n/a
70.809	0.0895	141618	keystroke	Key.space	n/a
70.869	0.075	141738	keystroke	g	n/a
70.989	0.1055	141978	keystroke	m	n/a
71.169	0.0755	142338	keystroke	a	n/a
71.9185	0.06	143837	keystroke	Key.backspace	n/a
72.0685	0.0455	144137	keystroke	Key.backspace	n/a
72.2185	0.06	144437	keystroke	Key.backspace	n/a
72.369	0.045	144738	keystroke	Key.backspace	n/a
73.0895	0.059	146179	keystroke	g	n/a
73.1785	0.12	146357	keystroke	Key.space	n/a
73.284	0.1195	146568	keystroke	m	n/a
73.389	0.075	146778	keystroke	a	n/a
73.508	0.0905	147016	keystroke	k	n/a
73.583	0.12	147166	keystroke	e	n/a
73.734	0.12	147468	keystroke	s	n/a
73.899	0.0745	147798	keystroke	Key.space	n/a
74.019	0.12	148038	keystroke	c	n/a
74.154	0.1195	148308	keystroke	o	n/a
75.0085	0.1055	150017	keystroke	m	n/a
75.219	0.09	150438	keystroke	p	n/a
75.6535	0.105	151307	keystroke	u	n/a
76.0285	0.0605	152057	keystroke	t	n/a
76.119	0.1345	152238	keystroke	a	n/a
76.2385	0.0755	152477	keystroke	t	n/a
76.3285	0.1355	152657	keystroke	i	n/a
76.4485	0.12	152897	keystroke	o	n/a
76.5235	0.1055	153047	keystroke	n	n/a
77.184	0.105	154368	keystroke	Key.enter	n/a
77.296	11.1845	154592	prompt	n/a	banking coalition sharon indirect\n
78.248	0.076	156496	keystroke	b	n/a
78.383	0.075	156766	keystroke	a	n/a
78.504	0.075	157008	keystroke	n	n/a
79.104	0.0445	158208	keystroke	k	n/a
79.2535	0.12	158507	keystroke	i	n/a
79.3285	0.12	158657	keystroke	n	n/a
79.464	0.09	158928	keystroke	g	n/a
79.569	0.12	159138	keystroke	Key.space	n/a
79.809	0.135	159618	keystroke	c	n/a
80.2135	0.09	160427	keystroke	o	n/a
80.844	0.0595	161688	keystroke	Key.backspace	n/a
80.9645	0.089	161929	keystroke	a	n/a
81.608	0.076	163216	keystroke	Key.backspace	n/a
82.749	0.075	165498	keystroke	o	n/a
82.989	0.0595	165978	keystroke	a	n/a
83.214	0.1945	166428	keystroke	l	n/a
83.394	0.0595	166788	keystroke	i	n/a
85.104	0.0895	170208	keystroke	t	n/a
85.2235	0.15	170447	keystroke	i	n/a
85.3285	0.12	170657	keystroke	o	n/a
85.434	0.1345	170868	keystroke	n	n/a
85.614	0.1045	171228	keystroke	Key.space	n/a
85.764	0.0895	171528	keystroke	s	n/a
85.884	0.1195	171768	keystroke	h	n/a
85.9885	0.165	171977	keystroke	a	n/a
86.1385	0.1055	172277	keystroke	r	n/a
86.3335	0.15	172667	keystroke	o	n/a
86.4535	0.1505	172907	keystroke	n	n/a
86.6185	0.0755	173237	keystroke	Key.space	n/a
86.8885	0.06	173777	keystroke	i	n/a
87.144	0.09	174288	keystroke	n	n/a
87.294	0.0895	174588	keystroke	d	n/a
87.4285	0.0895	174857	keystroke	i	n/a
87.533	0.166	175066	keystroke	r	n/a
87.669	0.09	175338	keystroke	e	n/a
87.849	0.0895	175698	keystroke	c	n/a
88.0735	0.075	176147	keystroke	t	n/a
88.373	0.105	176746	keystroke	Key.enter	n/a
88.487	11.4835	176974	prompt	n/a	recovery how'll spanish gene\n
89.259	0.179	178518	keystroke	r	n/a
89.409	0.105	178818	keystroke	e	n/a
89.634	0.12	179268	keystroke	c	n/a
89.828	0.091	179656	keystroke	o	n/a
89.904	0.075	179808	keystroke	v	n/a
90.114	0.135	180228	keystroke	e	n/a
90.234	0.074	180468	keystroke	r	n/a
91.014	0.134	182028	keystroke	y	n/a
91.194	0.104	182388	keystroke	Key.space	n/a
91.479	0.1045	182958	keystroke	h	n/a
92.9785	0.1205	185957	keystroke	o	n/a
93.129	0.09	186258	keystroke	w	n/a
94.194	0.075	188388	keystroke	'	n/a
94.748	0.03	189496	keystroke	l	n/a
94.898	0.12	189796	keystroke	l	n/a
95.034	0.18	190068	keystroke	Key.space	n/a
95.7835	0.105	191567	keystroke	s	n/a
95.9485	0.09	191897	keystroke	p	n/a
96.0535	0.105	192107	keystroke	a	n/a
96.654	0.12	193308	keystroke	n	n/a
96.789	0.12	193578	keystroke	i	n/a
96.924	0.1045	193848	keystroke	s	n/a
97.1035	0.105	194207	keystroke	h	n/a
97.344	0.12	194688	keystroke	Key.space	n/a
98.4835	0.09	196967	keystroke	g	n/a
98.6035	0.135	197207	keystroke	e	n/a
98.7535	0.12	197507	keystroke	n	n/a
98.904	0.0745	197808	keystroke	e	n/a
99.879	0.089	199758	keystroke	Key.enter	n/a
99.975	10.645	199950	prompt	n/a	butterfly she broadway articles\n
101.094	0.06	202188	keystroke	b	n/a
101.3335	0.075	202667	keystroke	u	n/a
101.4985	0.0455	202997	keystroke	t	n/a
101.6335	0.06	203267	keystroke	t	n/a
101.7985	0.135	203597	keystroke	e	n/a
101.8885	0.09	203777	keystroke	r	n/a
102.0985	0.075	204197	keystroke	f	n/a
102.2185	0.09	204437	keystroke	l	n/a
102.759	0.15	205518	keystroke	y	n/a
102.924	0.1195	205848	keystroke	Key.space	n/a
103.0585	0.09	206117	keystroke	s	n/a
103.1785	0.135	206357	keystroke	h	n/a
103.3285	0.075	206657	keystroke	e	n/a
103.4335	0.105	206867	keystroke	Key.space	n/a
104.4985	0.045	208997	keystroke	b	n/a
104.6185	0.105	209237	keystroke	r	n/a
104.7985	0.12	209597	keystroke	o	n/a
104.9035	0.105	209807	keystroke	a	n/a
105.219	0.0895	210438	keystroke	d	n/a
105.4135	0.09	210827	keystroke	w	n/a
105.5485	0.1055	211097	keystroke	a	n/a
105.8795	0.135	211759	keystroke	y	n/a
106.0735	0.0905	212147	keystroke	Key.space	n/a
106.314	0.105	212628	keystroke	a	n/a
106.5685	0.0895	213137	keystroke	r	n/a
106.9285	0.09	213857	keystroke	i	n/a
107.4235	0.0605	214847	keystroke	Key.backspace	n/a
107.964	0.0895	215928	keystroke	t	n/a
108.114	0.12	216228	keystroke	i	n/a
108.3235	0.09	216647	keystroke	c	n/a
109.419	0.075	218838	keystroke	l	n/a
109.524	0.15	219048	keystroke	e	n/a
109.689	0.09	219378	keystroke	s	n/a
110.514	0.105	221028	keystroke	Key.enter	n/a
110.624	11.711	221248	prompt	n/a	camps incidents desk accident\n
111.5795	0.1045	223159	keystroke	c	n/a
111.698	0.106	223396	keystroke	a	n/a
111.9395	0.119	223879	keystroke	m	n/a
113.679	0.09	227358	keystroke	p	n/a
113.844	0.104	227688	keystroke	s	n/a
113.978	0.106	227956	keystroke	Key.space	n/a
115.104	0.09	230208	keystroke	i	n/a
115.314	0.09	230628	keystroke	n	n/a
115.5085	0.09	231017	keystroke	c	n/a
115.629	0.0895	231258	keystroke	i	n/a
115.854	0.0745	231708	keystroke	d	n/a
116.0635	0.0895	232127	keystroke	e	n/a
118.3305	0.013	236661	keystroke	n	n/a
118.3735	0.105	236747	keystroke	t	n/a
118.6285	0.09	237257	keystroke	s	n/a
118.7785	0.1355	237557	keystroke	Key.space	n/a
119.5885	0.06	239177	keystroke	d	n/a
119.7535	0.09	239507	keystroke	e	n/a
119.8885	0.12	239777	keystroke	s	n/a
120.2185	0.15	240437	keystroke	k	n/a
120.3535	0.12	240707	keystroke	Key.space	n/a
120.489	0.1045	240978	keystroke	a	n/a
121.254	0.06	242508	keystroke	c	n/a
121.419	0.075	242838	keystroke	c	n/a
121.539	0.089	243078	keystroke	i	n/a
121.614	0.0595	243228	keystroke	d	n/a
121.7785	0.1055	243557	keystroke	e	n/a
121.8685	0.0905	243737	keystroke	n	n/a
122.0185	0.0905	244037	keystroke	t	n/a
122.244	0.09	244488	keystroke	Key.enter	n/a
122.34	7.3755	244680	prompt	n/a	doug work rejected install\n
123.7735	0.0605	247547	keystroke	d	n/a
123.954	0.1505	247908	keystroke	o	n/a
124.1045	0.0895	248209	keystroke	u	n/a
124.644	0.045	249288	keystroke	g	n/a
124.809	0.135	249618	keystroke	Key.space	n/a
125.109	0.09	250218	keystroke	w	n/a
125.244	0.165	250488	keystroke	o	n/a
125.394	0.075	250788	keystroke	r	n/a
125.499	0.135	250998	keystroke	k	n/a
125.709	0.1345	251418	keystroke	Key.space	n/a
125.9935	0.1795	251987	keystroke	r	n/a
126.128	0.12	252256	keystroke	e	n/a
126.458	0.076	252916	keystroke	j	n/a
126.564	0.105	253128	keystroke	e	n/a
126.758	0.091	253516	keystroke	c	n/a
126.9685	0.06	253937	keystroke	t	n/a
127.1485	0.06	254297	keystroke	e	n/a
127.3285	0.09	254657	keystroke	d	n/a
127.464	0.0745	254928	keystroke	Key.space	n/a
127.584	0.1645	255168	keystroke	i	n/a
127.7185	0.135	255437	keystroke	n	n/a
127.884	0.0895	255768	keystroke	s	n/a
128.0185	0.105	256037	keystroke	t	n/a
128.1385	0.09	256277	keystroke	a	n/a
128.3185	0.0905	256637	keystroke	l	n/a
128.499	0.075	256998	keystroke	l	n/a
129.6085	0.1055	259217	keystroke	Key.enter	n/a
129.72	8.05	259440	prompt	n/a	pichunter magical silly spencer\n
130.674	0.0295	261348	keystroke	p	n/a
130.8985	0.12	261797	keystroke	i	n/a
131.634	0.1345	263268	keystroke	c	n/a
132.2485	0.12	264497	keystroke	h	n/a
132.5485	0.1195	265097	keystroke	u	n/a
132.818	0.105	265636	keystroke	n	n/a
132.909	0.075	265818	keystroke	t	n/a
133.089	0.1345	266178	keystroke	e	n/a
133.2085	0.09	266417	keystroke	r	n/a
133.3285	0.165	266657	keystroke	Key.space	n/a
133.5085	0.12	267017	keystroke	m	n/a
133.614	0.0895	267228	keystroke	a	n/a
133.764	0.0895	267528	keystroke	g	n/a
133.868	0.1355	267736	keystroke	i	n/a
134.6185	0.0895	269237	keystroke	c	n/a
134.6935	0.1045	269387	keystroke	a	n/a
134.859	0.1345	269718	keystroke	l	n/a
135.0085	0.1045	270017	keystroke	Key.space	n/a
135.7445	0.089	271489	keystroke	s	n/a
135.8935	0.075	271787	keystroke	i	n/a
136.0885	0.0455	272177	keystroke	l	n/a
136.2235	0.06	272447	keystroke	l	n/a
136.4185	0.15	272837	keystroke	y	n/a
136.539	0.1195	273078	keystroke	Key.space	n/a
136.6595	0.119	273319	keystroke	s	n/a
136.764	0.1195	273528	keystroke	p	n/a
136.8985	0.105	273797	keystroke	e	n/a
137.0635	0.105	274127	keystroke	n	n/a
137.2585	0.0755	274517	keystroke	c	n/a
137.3935	0.15	274787	keystroke	e	n/a
137.5285	0.0755	275057	keystroke	r	n/a
137.6785	0.09	275357	keystroke	Key.enter	n/a
137.775	10.375	275550	prompt	n/a	obviously indeed grocery tongue\n
138.489	0.105	276978	keystroke	o	n/a
138.714	0.09	277428	keystroke	b	n/a
138.909	0.104	277818	keystroke	v	n/a
139.044	0.105	278088	keystroke	i	n/a
139.164	0.15	278328	keystroke	o	n/a
139.299	0.074	278598	keystroke	u	n/a
139.419	0.09	278838	keystroke	s	n/a
139.553	0.075	279106	keystroke	l	n/a
139.689	0.105	279378	keystroke	t	n/a
139.914	0.09	279828	keystroke	Key.space	n/a
140.334	0.075	280668	keystroke	i	n/a
140.484	0.105	280968	keystroke	n	n/a
140.604	0.09	281208	keystroke	d	n/a
141.0985	0.0595	282197	keystroke	Key.backspace	n/a
141.233	0.0605	282466	keystroke	Key.backspace	n/a
141.413	0.0305	282826	keystroke	Key.backspace	n/a
141.548	0.0605	283096	keystroke	Key.backspace	n/a
141.893	0.06	283786	keystroke	Key.backspace	n/a
142.599	0.149	285198	keystroke	y	n/a
142.733	0.135	285466	keystroke	Key.space	n/a
142.883	0.15	285766	keystroke	i	n/a
143.0185	0.12	286037	keystroke	n	n/a
143.213	0.0755	286426	keystroke	d	n/a
143.4085	0.06	286817	keystroke	e	n/a
143.5435	0.09	287087	keystroke	e	n/a
143.7535	0.06	287507	keystroke	d	n/a
143.8285	0.105	287657	keystroke	Key.space	n/a
144.7135	0.09	289427	keystroke	g	n/a
144.9385	0.059	289877	keystroke	r	n/a
145.0735	0.1055	290147	keystroke	o	n/a
145.254	0.06	290508	keystroke	c	n/a
145.4485	0.1805	290897	keystroke	e	n/a
145.614	0.09	291228	keystroke	r	n/a
146.0335	0.15	292067	keystroke	y	n/a
146.1835	0.1195	292367	keystroke	Key.space	n/a
146.603	0.091	293206	keystroke	t	n/a
146.708	0.15	293416	keystroke	o	n/a
146.798	0.091	293596	keystroke	u	n/a
147.039	0.075	294078	keystroke	n	n/a
147.173	0.075	294346	keystroke	g	n/a
147.309	0.074	294618	keystroke	u	n/a
147.6385	0.075	295277	keystroke	e	n/a
148.058	0.09	296116	keystroke	Key.enter	n/a
148.155	9.04	296310	prompt	n/a	you've religious wallpapers finger\n
149.904	0.1045	299808	keystroke	y	n/a
150.0525	0.181	300105	keystroke	o	n/a
150.189	0.09	300378	keystroke	u	n/a
150.2935	0.105	300587	keystroke	'	n/a
150.414	0.135	300828	keystroke	v	n/a
150.564	0.0895	301128	keystroke	e	n/a
150.668	0.15	301336	keystroke	Key.space	n/a
150.864	0.1645	301728	keystroke	r	n/a
151.0135	0.105	302027	keystroke	e	n/a
151.2385	0.134	302477	keystroke	l	n/a
151.4325	0.1215	302865	keystroke	i	n/a
152.664	0.0295	305328	keystroke	g	n/a
152.9935	0.075	305987	keystroke	i	n/a
153.0685	0.15	306137	keystroke	o	n/a
153.1735	0.1045	306347	keystroke	u	n/a
153.414	0.134	306828	keystroke	s	n/a
153.5635	0.0895	307127	keystroke	Key.space	n/a
153.788	0.09	307576	keystroke	w	n/a
153.908	0.09	307816	keystroke	a	n/a
154.043	0.075	308086	keystroke	l	n/a
154.193	0.0905	308386	keystroke	l	n/a
154.4785	0.0595	308957	keystroke	p	n/a
154.553	0.09	309106	keystroke	a	n/a
154.7185	0.1045	309437	keystroke	p	n/a
154.839	0.164	309678	keystroke	e	n/a
154.973	0.105	309946	keystroke	r	n/a
155.1535	0.135	310307	keystroke	s	n/a
155.3035	0.105	310607	keystroke	Key.space	n/a
155.514	0.12	311028	keystroke	f	n/a
155.6185	0.12	311237	keystroke	i	n/a
155.6935	0.12	311387	keystroke	n	n/a
156.1435	0.075	312287	keystroke	g	n/a
156.3685	0.18	312737	keystroke	e	n/a
156.5335	0.075	313067	keystroke	r	n/a
157.1035	0.09	314207	keystroke	Key.enter	n/a
157.1995	19.0305	314399	prompt	n/a	calculations read delhi institutes\n
159.7305	0.013	319461	keystroke	c	n/a
159.848	0.09	319696	keystroke	a	n/a
160.178	0.075	320356	keystroke	l	n/a
160.493	0.091	320986	keystroke	c	n/a
160.718	0.06	321436	keystroke	u	n/a
160.9135	0.1045	321827	keystroke	l	n/a
161.034	0.089	322068	keystroke	a	n/a
161.154	0.074	322308	keystroke	t	n/a
161.273	0.12	322546	keystroke	i	n/a
161.3635	0.1655	322727	keystroke	o	n/a
161.498	0.1355	322996	keystroke	n	n/a
161.708	0.09	323416	keystroke	s	n/a
161.8735	0.1195	323747	keystroke	Key.space	n/a
162.0085	0.165	324017	keystroke	r	n/a
162.159	0.0745	324318	keystroke	e	n/a
162.204	0.105	324408	keystroke	a	n/a
162.4285	0.09	324857	keystroke	d	n/a
162.5335	0.09	325067	keystroke	Key.space	n/a
163.4635	0.075	326927	keystroke	d	n/a
163.628	0.075	327256	keystroke	e	n/a
164.918	0.075	329836	keystroke	l	n/a
165.2035	0.0745	330407	keystroke	h	n/a
165.834	0.119	331668	keystroke	i	n/a
165.938	0.105	331876	keystroke	Key.space	n/a
166.088	0.1505	332176	keystroke	i	n/a
166.268	0.105	332536	keystroke	n	n/a
166.508	0.1205	333016	keystroke	s	n/a
167.0485	0.1045	334097	keystroke	i	n/a
167.2725	0.1055	334545	keystroke	t	n/a
168.098	0.0905	336196	keystroke	u	n/a
169.403	0.0305	338806	keystroke	Key.backspace	n/a
170.0635	0.12	340127	keystroke	i	n/a
171.0975	0.06	342195	keystroke	Key.backspace	n/a
171.2635	0.03	342527	keystroke	Key.backspace	n/a
171.368	0.075	342736	keystroke	Key.backspace	n/a
171.6385	0.075	343277	keystroke	t	n/a
171.8485	0.105	343697	keystroke	i	n/a
172.0885	0.089	344177	keystroke	t	n/a
172.1635	0.0905	344327	keystroke	u	n/a
172.3435	0.09	344687	keystroke	e	n/a
172.5085	0.105	345017	keystroke	s	n/a
173.2435	0.075	346487	keystroke	Key.backspace	n/a
173.4235	0.03	346847	keystroke	Key.backspace	n/a
174.008	0.0755	348016	keystroke	t	n/a
174.2175	0.121	348435	keystroke	e	n/a
174.398	0.105	348796	keystroke	s	n/a
175.703	0.1195	351406	keystroke	Key.space	n/a
176.138	0.0905	352276	keystroke	Key.enter	n/a
176.2345	15.2505	352469	prompt	n/a	darwin candidates provides unix\n
177.7135	0.105	355427	keystroke	d	n/a
177.8485	0.15	355697	keystroke	a	n/a
178.0435	0.105	356087	keystroke	r	n/a
178.298	0.075	356596	keystroke	w	n/a
178.448	0.15	356896	keystroke	i	n/a
178.568	0.1355	357136	keystroke	n	n/a
178.6735	0.1345	357347	keystroke	Key.space	n/a
178.9135	0.1345	357827	keystroke	c	n/a
179.0335	0.09	358067	keystroke	a	n/a
179.168	0.1055	358336	keystroke	n	n/a
179.904	0.089	359808	keystroke	d	n/a
180.0535	0.0895	360107	keystroke	i	n/a
180.3385	0.1045	360677	keystroke	d	n/a
180.518	0.1205	361036	keystroke	a	n/a
180.683	0.1205	361366	keystroke	t	n/a
180.804	0.119	361608	keystroke	e	n/a
180.968	0.105	361936	keystroke	s	n/a
181.088	0.1345	362176	keystroke	Key.space	n/a
181.3285	0.105	362657	keystroke	p	n/a
181.4935	0.105	362987	keystroke	r	n/a
181.6435	0.12	363287	keystroke	i	n/a
181.8235	0.09	363647	keystroke	v	n/a
182.0485	0.09	364097	keystroke	d	n/a
182.2285	0.09	364457	keystroke	e	n/a
182.3635	0.1045	364727	keystroke	s	n/a
182.483	0.105	364966	keystroke	Key.space	n/a
182.6635	0.09	365327	keystroke	u	n/a
182.888	0.0905	365776	keystroke	n	n/a
183.008	0.1055	366016	keystroke	i	n/a
183.4725	0.045	366945	keystroke	Key.backspace	n/a
183.6675	0.0155	367335	keystroke	Key.backspace	n/a
183.758	0.0595	367516	keystroke	Key.backspace	n/a
183.9235	0.06	367847	keystroke	Key.backspace	n/a
184.088	0.0455	368176	keystroke	Key.backspace	n/a
184.253	0.0305	368506	keystroke	Key.backspace	n/a
184.5675	0.06	369135	keystroke	Key.backspace	n/a
184.7635	0.059	369527	keystroke	Key.backspace	n/a
185.6335	0.105	371267	keystroke	Key.backspace	n/a
186.2335	0.105	372467	keystroke	o	n/a
186.4585	0.09	372917	keystroke	v	n/a
186.5935	0.09	373187	keystroke	i	n/a
186.7285	0.09	373457	keystroke	d	n/a
186.9235	0.075	373847	keystroke	e	n/a
187.1335	0.0895	374267	keystroke	s	n/a
187.2385	0.105	374477	keystroke	Key.space	n/a
187.5385	0.075	375077	keystroke	u	n/a
188.0485	0.105	376097	keystroke	n	n/a
188.2135	0.09	376427	keystroke	i	n/a
188.4975	0.075	376995	keystroke	z	n/a
189.7425	0.091	379485	keystroke	Key.backspace	n/a
190.1935	0.06	380387	keystroke	x	n/a
191.3935	0.09	382787	keystroke	Key.enter	n/a
191.4895	6.4755	382979	prompt	n/a	sporting elements aurora factor\n
192.4735	0.09	384947	keystroke	s	n/a
192.6385	0.075	385277	keystroke	p	n/a
192.8635	0.075	385727	keystroke	o	n/a
192.9385	0.06	385877	keystroke	r	n/a
193.1035	0.075	386207	keystroke	t	n/a
193.1625	0.1655	386325	keystroke	i	n/a
193.268	0.1205	386536	keystroke	n	n/a
193.403	0.0745	386806	keystroke	g	n/a
193.5225	0.105	387045	keystroke	Key.space	n/a
193.8385	0.09	387677	keystroke	e	n/a
194.0035	0.135	388007	keystroke	l	n/a
194.1535	0.1045	388307	keystroke	e	n/a
194.3785	0.075	388757	keystroke	m	n/a
194.5285	0.075	389057	keystroke	e	n/a
194.6485	0.09	389297	keystroke	n	n/a
194.7225	0.106	389445	keystroke	t	n/a
194.8725	0.106	389745	keystroke	s	n/a
195.0375	0.105	390075	keystroke	Key.space	n/a
195.3675	0.076	390735	keystroke	a	n/a
195.728	0.105	391456	keystroke	u	n/a
195.9235	0.0895	391847	keystroke	r	n/a
196.043	0.12	392086	keystroke	o	n/a
196.2835	0.1045	392567	keystroke	r	n/a
196.4335	0.1195	392867	keystroke	a	n/a
196.6735	0.104	393347	keystroke	Key.space	n/a
196.9575	0.105	393915	keystroke	f	n/a
197.0775	0.12	394155	keystroke	a	n/a
197.2425	0.0755	394485	keystroke	c	n/a
197.4685	0.0745	394937	keystroke	t	n/a
197.573	0.12	395146	keystroke	o	n/a
197.7085	0.104	395417	keystroke	r	n/a
197.8875	0.075	395775	keystroke	Key.enter	n/a
197.97	6.1305	395940	prompt	n/a	smell devon going stewart\n
198.578	0.075	397156	keystroke	s	n/a
198.743	0.105	397486	keystroke	m	n/a
198.863	0.075	397726	keystroke	e	n/a
198.998	0.0605	397996	keystroke	l	n/a
199.163	0.1345	398326	keystroke	l	n/a
199.283	0.1205	398566	keystroke	Key.space	n/a
199.4185	0.0445	398837	keystroke	d	n/a
199.598	0.075	399196	keystroke	e	n/a
199.7785	0.06	399557	keystroke	v	n/a
199.8675	0.136	399735	keystroke	o	n/a
199.9585	0.164	399917	keystroke	n	n/a
200.0925	0.121	400185	keystroke	Key.space	n/a
200.3485	0.075	400697	keystroke	g	n/a
200.4535	0.1495	400907	keystroke	o	n/a
200.543	0.165	401086	keystroke	i	n/a
200.6335	0.1495	401267	keystroke	n	n/a
200.813	0.105	401626	keystroke	g	n/a
200.933	0.105	401866	keystroke	Key.space	n/a
201.848	0.12	403696	keystroke	s	n/a
202.1335	0.075	404267	keystroke	t	n/a
202.763	0.075	405526	keystroke	e	n/a
202.928	0.105	405856	keystroke	w	n/a
203.108	0.195	406216	keystroke	a	n/a
203.273	0.15	406546	keystroke	r	n/a
203.663	0.105	407326	keystroke	t	n/a
204.008	0.0895	408016	keystroke	Key.enter	n/a
204.108	13.777	408216	prompt	n/a	katrina catering saving proprietary\n
205.1935	0.105	410387	keystroke	k	n/a
205.3285	0.12	410657	keystroke	a	n/a
205.5085	0.075	411017	keystroke	t	n/a
205.7185	0.075	411437	keystroke	r	n/a
205.8085	0.165	411617	keystroke	i	n/a
205.9285	0.12	411857	keystroke	n	n/a
206.0635	0.105	412127	keystroke	a	n/a
206.1835	0.105	412367	keystroke	Key.space	n/a
206.5585	0.105	413117	keystroke	c	n/a
206.7535	0.09	413507	keystroke	a	n/a
206.9035	0.09	413807	keystroke	t	n/a
207.1435	0.135	414287	keystroke	e	n/a
207.2635	0.105	414527	keystroke	r	n/a
207.4285	0.15	414857	keystroke	i	n/a
207.5185	0.15	415037	keystroke	n	n/a
207.8935	0.075	415787	keystroke	g	n/a
208.0285	0.165	416057	keystroke	Key.space	n/a
208.2985	0.09	416597	keystroke	s	n/a
208.4335	0.12	416867	keystroke	a	n/a
208.6135	0.12	417227	keystroke	v	n/a
208.7485	0.135	417497	keystroke	i	n/a
208.8385	0.12	417677	keystroke	n	n/a
208.9885	0.105	417977	keystroke	g	n/a
209.0935	0.135	418187	keystroke	Key.space	n/a
209.3185	0.105	418637	keystroke	p	n/a
209.5435	0.09	419087	keystroke	r	n/a
209.7835	0.045	419567	keystroke	o	n/a
210.0085	0.09	420017	keystroke	p	n/a
211.5685	0.105	423137	keystroke	r	n/a
211.7485	0.09	423497	keystroke	i	n/a
211.9135	0.105	423827	keystroke	e	n/a
212.1825	0.09	424365	keystroke	r	n/a
212.4535	0.18	424907	keystroke	a	n/a
213.1875	0.076	426375	keystroke	Key.backspace	n/a
213.3675	0.075	426735	keystroke	Key.backspace	n/a
213.5175	0.075	427035	keystroke	Key.backspace	n/a
216.4745	0.029	432949	keystroke	e	n/a
216.7425	0.105	433485	keystroke	t	n/a
217.0285	0.09	434057	keystroke	a	n/a
217.2085	0.09	434417	keystroke	r	n/a
217.4035	0.075	434807	keystroke	y	n/a
217.7925	0.091	435585	keystroke	Key.enter	n/a
217.8905	11.814	435781	prompt	n/a	competitive reproductive award aurora\n
219.1875	0.12	438375	keystroke	c	n/a
219.3525	0.1355	438705	keystroke	o	n/a
219.4425	0.15	438885	keystroke	m	n/a
219.6225	0.105	439245	keystroke	p	n/a
219.7735	0.075	439547	keystroke	e	n/a
219.968	0.09	439936	keystroke	t	n/a
220.073	0.09	440146	keystroke	i	n/a
220.2985	0.12	440597	keystroke	t	n/a
220.433	0.105	440866	keystroke	i	n/a
220.748	0.06	441496	keystroke	v	n/a
221.1085	0.1045	442217	keystroke	e	n/a
221.228	0.09	442456	keystroke	Key.space	n/a
221.393	0.1655	442786	keystroke	r	n/a
221.543	0.0905	443086	keystroke	e	n/a
221.978	0.106	443956	keystroke	p	n/a
222.2485	0.105	444497	keystroke	r	n/a
223.013	0.09	446026	keystroke	o	n/a
223.298	0.105	446596	keystroke	s	n/a
223.4785	0.1045	446957	keystroke	u	n/a
223.628	0.135	447256	keystroke	c	n/a
224.348	0.075	448696	keystroke	Key.backspace	n/a
224.8875	0.045	449775	keystroke	Key.backspace	n/a
224.9475	0.031	449895	keystroke	Key.backspace	n/a
225.009	0.0885	450018	keystroke	d	n/a
225.8935	0.0905	451787	keystroke	u	n/a
226.0135	0.09	452027	keystroke	c	n/a
226.284	0.1195	452568	keystroke	t	n/a
226.4175	0.121	452835	keystroke	i	n/a
226.5835	0.089	453167	keystroke	v	n/a
226.7485	0.09	453497	keystroke	e	n/a
227.183	0.09	454366	keystroke	Key.space	n/a
227.4835	0.075	454967	keystroke	a	n/a
227.6475	0.12	455295	keystroke	w	n/a
227.858	0.135	455716	keystroke	a	n/a
227.978	0.1205	455956	keystroke	r	n/a
228.203	0.09	456406	keystroke	d	n/a
228.3385	0.1195	456677	keystroke	Key.space	n/a
228.4735	0.09	456947	keystroke	a	n/a
228.6685	0.12	457337	keystroke	u	n/a
228.9235	0.12	457847	keystroke	r	n/a
229.0735	0.1345	458147	keystroke	o	n/a
229.2685	0.0895	458537	keystroke	r	n/a
229.4035	0.0895	458807	keystroke	a	n/a
229.613	0.09	459226	keystroke	Key.enter	n/a
229.7085	6.911	459417	prompt	n/a	hill tagged minor criterion\n
230.663	0.1195	461326	keystroke	h	n/a
230.8125	0.1055	461625	keystroke	i	n/a
231.038	0.045	462076	keystroke	l	n/a
231.2035	0.1195	462407	keystroke	l	n/a
231.3085	0.1045	462617	keystroke	Key.space	n/a
231.4735	0.06	462947	keystroke	t	n/a
231.5485	0.105	463097	keystroke	a	n/a
232.343	0.075	464686	keystroke	g	n/a
232.5085	0.1195	465017	keystroke	g	n/a
232.733	0.0905	465466	keystroke	e	n/a
232.928	0.0755	465856	keystroke	d	n/a
233.018	0.0905	466036	keystroke	Key.space	n/a
233.288	0.105	466576	keystroke	m	n/a
233.4085	0.09	466817	keystroke	i	n/a
233.6035	0.1195	467207	keystroke	n	n/a
233.738	0.105	467476	keystroke	o	n/a
233.963	0.091	467926	keystroke	r	n/a
234.113	0.135	468226	keystroke	Key.space	n/a
234.9385	0.074	469877	keystroke	c	n/a
235.2235	0.1645	470447	keystroke	r	n/a
235.508	0.09	471016	keystroke	i	n/a
235.628	0.0755	471256	keystroke	t	n/a
235.8085	0.1345	471617	keystroke	e	n/a
235.943	0.0905	471886	keystroke	r	n/a
236.0485	0.119	472097	keystroke	i	n/a
236.1535	0.15	472307	keystroke	o	n/a
236.2875	0.0755	472575	keystroke	n	n/a
236.5725	0.045	473145	keystroke	Key.enter	n/a
236.624	10.661	473248	prompt	n/a	performance cubic supplies girl\n
237.5335	0.12	475067	keystroke	p	n/a
237.6835	0.165	475367	keystroke	e	n/a
237.7585	0.135	475517	keystroke	r	n/a
238.1925	0.09	476385	keystroke	f	n/a
238.7925	0.181	477585	keystroke	o	n/a
238.9585	0.179	477917	keystroke	r	n/a
239.8285	0.0295	479657	keystroke	m	n/a
239.843	0.0755	479686	keystroke	a	n/a
240.008	0.06	480016	keystroke	n	n/a
240.128	0.15	480256	keystroke	c	n/a
240.263	0.075	480526	keystroke	e	n/a
240.338	0.09	480676	keystroke	Key.space	n/a
240.728	0.1055	481456	keystroke	c	n/a
240.863	0.075	481726	keystroke	u	n/a
241.088	0.1205	482176	keystroke	b	n/a
241.2235	0.105	482447	keystroke	i	n/a
241.3735	0.12	482747	keystroke	c	n/a
241.5085	0.104	483017	keystroke	Key.space	n/a
241.8535	0.089	483707	keystroke	s	n/a
242.0175	0.075	484035	keystroke	y	n/a
243.1135	0.075	486227	keystroke	Key.backspace	n/a
243.6685	0.06	487337	keystroke	u	n/a
244.0285	0.045	488057	keystroke	p	n/a
244.1785	0.045	488357	keystroke	p	n/a
244.5985	0.0895	489197	keystroke	l	n/a
244.718	0.12	489436	keystroke	i	n/a
244.8835	0.12	489767	keystroke	e	n/a
245.018	0.12	490036	keystroke	s	n/a
245.168	0.12	490336	keystroke	Key.space	n/a
245.468	0.09	490936	keystroke	f	n/a
246.218	0.075	492436	keystroke	Key.backspace	n/a
246.413	0.105	492826	keystroke	g	n/a
246.5785	0.0895	493157	keystroke	i	n/a
246.713	0.1205	493426	keystroke	r	n/a
246.998	0.0605	493996	keystroke	l	n/a
247.223	0.06	494446	keystroke	Key.enter	n/a
247.2885	7.871	494577	prompt	n/a	peace roses counseling employees\n
248.4535	0.1195	496907	keystroke	p	n/a
248.7235	0.1195	497447	keystroke	e	n/a
248.828	0.105	497656	keystroke	a	n/a
249.068	0.1805	498136	keystroke	c	n/a
249.218	0.12	498436	keystroke	e	n/a
249.338	0.12	498676	keystroke	Key.space	n/a
249.533	0.1045	499066	keystroke	r	n/a
249.6535	0.105	499307	keystroke	o	n/a
249.7885	0.18	499577	keystroke	s	n/a
249.9835	0.105	499967	keystroke	e	n/a
250.2085	0.104	500417	keystroke	s	n/a
250.4175	0.075	500835	keystroke	Key.space	n/a
250.613	0.1055	501226	keystroke	c	n/a
250.7185	0.1645	501437	keystroke	o	n/a
250.853	0.075	501706	keystroke	u	n/a
251.0785	0.09	502157	keystroke	n	n/a
251.1835	0.135	502367	keystroke	s	n/a
251.3335	0.06	502667	keystroke	e	n/a
251.4535	0.135	502907	keystroke	l	n/a
251.5735	0.15	503147	keystroke	i	n/a
251.6785	0.12	503357	keystroke	n	n/a
251.7835	0.09	503567	keystroke	g	n/a
251.9335	0.09	503867	keystroke	Key.space	n/a
252.728	0.09	505456	keystroke	e	n/a
252.848	0.105	505696	keystroke	m	n/a
253.0585	0.0745	506117	keystroke	p	n/a
253.283	0.06	506566	keystroke	l	n/a
253.4625	0.06	506925	keystroke	o	n/a
253.7335	0.0895	507467	keystroke	y	n/a
254.048	0.075	508096	keystroke	e	n/a
254.213	0.075	508426	keystroke	e	n/a
254.918	0.105	509836	keystroke	s	n/a
255.068	0.09	510136	keystroke	Key.enter	n/a
255.1635	9.011	510327	prompt	n/a	experience bits concrete chips\n
256.508	0.06	513016	keystroke	e	n/a
256.778	0.09	513556	keystroke	x	n/a
256.943	0.12	513886	keystroke	p	n/a
257.123	0.135	514246	keystroke	e	n/a
257.228	0.1055	514456	keystroke	r	n/a
257.363	0.09	514726	keystroke	i	n/a
257.468	0.075	514936	keystroke	e	n/a
257.603	0.075	515206	keystroke	n	n/a
258.0385	0.18	516077	keystroke	c	n/a
258.1735	0.105	516347	keystroke	e	n/a
258.3375	0.1355	516675	keystroke	Key.space	n/a
258.9235	0.09	517847	keystroke	b	n/a
259.0735	0.09	518147	keystroke	i	n/a
259.793	0.0905	519586	keystroke	t	n/a
259.943	0.0905	519886	keystroke	s	n/a
260.078	0.105	520156	keystroke	Key.space	n/a
260.2285	0.1045	520457	keystroke	c	n/a
260.363	0.09	520726	keystroke	o	n/a
260.4085	0.1345	520817	keystroke	n	n/a
262.0285	0.075	524057	keystroke	c	n/a
262.298	0.075	524596	keystroke	r	n/a
262.493	0.075	524986	keystroke	e	n/a
262.6735	0.105	525347	keystroke	t	n/a
262.823	0.09	525646	keystroke	e	n/a
262.943	0.105	525886	keystroke	Key.space	n/a
263.303	0.1345	526606	keystroke	c	n/a
263.4225	0.12	526845	keystroke	h	n/a
263.528	0.1195	527056	keystroke	i	n/a
263.7235	0.1045	527447	keystroke	p	n/a
263.8875	0.06	527775	keystroke	s	n/a
264.0975	0.075	528195	keystroke	Key.enter	n/a
264.179	7.1355	528358	prompt	n/a	count plains sponsored mild\n
264.848	0.09	529696	keystroke	c	n/a
264.968	0.165	529936	keystroke	o	n/a
265.103	0.075	530206	keystroke	u	n/a
265.313	0.09	530626	keystroke	n	n/a
265.418	0.09	530836	keystroke	t	n/a
265.523	0.09	531046	keystroke	Key.space	n/a
266.033	0.0595	532066	keystroke	p	n/a
266.2285	0.105	532457	keystroke	l	n/a
266.3625	0.075	532725	keystroke	a	n/a
266.4535	0.119	532907	keystroke	i	n/a
266.543	0.1045	533086	keystroke	n	n/a
266.678	0.1055	533356	keystroke	s	n/a
266.7975	0.105	533595	keystroke	Key.space	n/a
267.008	0.075	534016	keystroke	s	n/a
267.1435	0.074	534287	keystroke	p	n/a
267.3535	0.059	534707	keystroke	o	n/a
267.5175	0.0905	535035	keystroke	n	n/a
267.683	0.12	535366	keystroke	s	n/a
268.193	0.09	536386	keystroke	o	n/a
268.298	0.1195	536596	keystroke	e	n/a
268.808	0.0595	537616	keystroke	Key.backspace	n/a
268.9125	0.1805	537825	keystroke	r	n/a
269.048	0.0745	538096	keystroke	e	n/a
269.2575	0.09	538515	keystroke	d	n/a
269.4075	0.105	538815	keystroke	Key.space	n/a
270.323	0.1795	540646	keystroke	m	n/a
270.4875	0.075	540975	keystroke	i	n/a
270.6835	0.0745	541367	keystroke	l	n/a
270.803	0.075	541606	keystroke	d	n/a
271.237	0.0755	542474	keystroke	Key.enter	n/a
271.319	10.6155	542638	prompt	n/a	direct enquiries what's wagner\n
272.348	0.1195	544696	keystroke	d	n/a
272.483	0.0905	544966	keystroke	i	n/a
272.6185	0.1795	545237	keystroke	r	n/a
272.7525	0.09	545505	keystroke	e	n/a
272.9625	0.075	545925	keystroke	c	n/a
273.1875	0.075	546375	keystroke	t	n/a
273.3225	0.1355	546645	keystroke	Key.space	n/a
273.6085	0.104	547217	keystroke	e	n/a
273.773	0.0895	547546	keystroke	n	n/a
275.033	0.075	550066	keystroke	q	n/a
276.2475	0.12	552495	keystroke	u	n/a
276.4425	0.0905	552885	keystroke	i	n/a
276.7125	0.0905	553425	keystroke	r	n/a
276.833	0.0895	553666	keystroke	i	n/a
276.968	0.075	553936	keystroke	e	n/a
277.193	0.075	554386	keystroke	s	n/a
277.298	0.105	554596	keystroke	Key.space	n/a
277.433	0.09	554866	keystroke	w	n/a
278.123	0.075	556246	keystroke	h	n/a
278.213	0.135	556426	keystroke	a	n/a
278.318	0.09	556636	keystroke	t	n/a
278.438	0.105	556876	keystroke	'	n/a
278.633	0.105	557266	keystroke	s	n/a
278.828	0.09	557656	keystroke	Key.space	n/a
280.313	0.0605	560626	keystroke	w	n/a
280.478	0.09	560956	keystroke	a	n/a
280.823	0.09	561646	keystroke	g	n/a
280.973	0.09	561946	keystroke	n	n/a
281.138	0.135	562276	keystroke	e	n/a
281.2435	0.0895	562487	keystroke	r	n/a
281.843	0.09	563686	keystroke	Key.enter	n/a
281.9395	9.16	563879	prompt	n/a	share broker apart istanbul\n
283.0125	0.105	566025	keystroke	s	n/a
283.1475	0.106	566295	keystroke	h	n/a
283.4925	0.15	566985	keystroke	a	n/a
283.6125	0.1355	567225	keystroke	r	n/a
283.7025	0.0905	567405	keystroke	e	n/a
283.8375	0.1055	567675	keystroke	Key.space	n/a
284.168	0.09	568336	keystroke	b	n/a
284.273	0.09	568546	keystroke	r	n/a
284.393	0.09	568786	keystroke	o	n/a
284.603	0.09	569206	keystroke	k	n/a
284.723	0.1205	569446	keystroke	e	n/a
284.813	0.09	569626	keystroke	r	n/a
284.918	0.075	569836	keystroke	Key.space	n/a
285.1275	0.0755	570255	keystroke	p	n/a
285.578	0.06	571156	keystroke	Key.backspace	n/a
285.6985	0.0895	571397	keystroke	a	n/a
285.833	0.135	571666	keystroke	p	n/a
285.998	0.135	571996	keystroke	a	n/a
286.103	0.12	572206	keystroke	r	n/a
286.358	0.075	572716	keystroke	t	n/a
286.673	0.15	573346	keystroke	Key.space	n/a
287.483	0.1195	574966	keystroke	i	n/a
288.158	0.1045	576316	keystroke	s	n/a
288.398	0.1055	576796	keystroke	t	n/a
288.533	0.09	577066	keystroke	a	n/a
288.6675	0.09	577335	keystroke	n	n/a
290.018	0.075	580036	keystroke	b	n/a
290.318	0.09	580636	keystroke	u	n/a
290.483	0.09	580966	keystroke	l	n/a
291.008	0.0895	582016	keystroke	Key.enter	n/a
291.1045	9.25	582209	prompt	n/a	vincent blades compute pest\n
292.837	0.091	585674	keystroke	v	n/a
293.033	0.105	586066	keystroke	i	n/a
293.183	0.105	586366	keystroke	n	n/a
293.348	0.105	586696	keystroke	c	n/a
293.558	0.105	587116	keystroke	e	n/a
294.098	0.089	588196	keystroke	n	n/a
294.217	0.091	588434	keystroke	t	n/a
294.3825	0.0905	588765	keystroke	Key.space	n/a
295.703	0.045	591406	keystroke	b	n/a
296.2725	0.09	592545	keystroke	l	n/a
296.4085	0.0895	592817	keystroke	a	n/a
296.5875	0.1055	593175	keystroke	d	n/a
296.8425	0.0905	593685	keystroke	e	n/a
297.127	0.076	594254	keystroke	Key.space	n/a
297.547	0.076	595094	keystroke	Key.backspace	n/a
297.668	0.0895	595336	keystroke	s	n/a
297.7875	0.1055	595575	keystroke	Key.space	n/a
297.9525	0.121	595905	keystroke	c	n/a
298.1175	0.105	596235	keystroke	o	n/a
298.418	0.1045	596836	keystroke	m	n/a
298.598	0.1195	597196	keystroke	p	n/a
298.853	0.105	597706	keystroke	u	n/a
298.9725	0.09	597945	keystroke	t	n/a
299.1375	0.0905	598275	keystroke	e	n/a
299.273	0.1195	598546	keystroke	Key.space	n/a
299.408	0.1195	598816	keystroke	p	n/a
299.5425	0.0755	599085	keystroke	e	n/a
299.7075	0.165	599415	keystroke	s	n/a
299.8875	0.1205	599775	keystroke	t	n/a
300.2625	0.0905	600525	keystroke	Key.enter	n/a
300.3585	7.691	600717	prompt	n/a	sender truth cedar personal\n
301.0875	0.09	602175	keystroke	d	n/a
301.493	0.0745	602986	keystroke	Key.backspace	n/a
301.643	0.105	603286	keystroke	s	n/a
301.718	0.12	603436	keystroke	e	n/a
301.853	0.105	603706	keystroke	n	n/a
302.003	0.075	604006	keystroke	d	n/a
302.183	0.165	604366	keystroke	e	n/a
302.318	0.105	604636	keystroke	r	n/a
302.438	0.09	604876	keystroke	Key.space	n/a
302.618	0.045	605236	keystroke	t	n/a
302.798	0.09	605596	keystroke	r	n/a
302.903	0.1045	605806	keystroke	u	n/a
303.0525	0.0755	606105	keystroke	t	n/a
303.1725	0.165	606345	keystroke	h	n/a
303.3225	0.135	606645	keystroke	Key.space	n/a
304.478	0.06	608956	keystroke	c	n/a
304.6575	0.075	609315	keystroke	e	n/a
304.8975	0.0755	609795	keystroke	d	n/a
305.1075	0.1355	610215	keystroke	a	n/a
305.228	0.1045	610456	keystroke	r	n/a
305.4075	0.1205	610815	keystroke	Key.space	n/a
305.9175	0.105	611835	keystroke	p	n/a
306.1125	0.1495	612225	keystroke	e	n/a
306.188	0.12	612376	keystroke	r	n/a
306.412	0.121	612824	keystroke	s	n/a
306.563	0.12	613126	keystroke	o	n/a
306.653	0.105	613306	keystroke	n	n/a
306.848	0.075	613696	keystroke	a	n/a
306.968	0.135	613936	keystroke	l	n/a
307.958	0.09	615916	keystroke	Key.enter	n/a
308.056	13.5535	616112	prompt	n/a	measured fisher talent notification\n
310.9595	0.0135	621919	keystroke	m	n/a
311.078	0.09	622156	keystroke	e	n/a
311.183	0.105	622366	keystroke	a	n/a
311.438	0.075	622876	keystroke	s	n/a
311.528	0.06	623056	keystroke	u	n/a
311.603	0.18	623206	keystroke	r	n/a
311.738	0.09	623476	keystroke	e	n/a
311.9625	0.0905	623925	keystroke	d	n/a
312.0825	0.1355	624165	keystroke	Key.space	n/a
312.308	0.105	624616	keystroke	f	n/a
312.443	0.105	624886	keystroke	i	n/a
312.5925	0.105	625185	keystroke	s	n/a
312.7575	0.075	625515	keystroke	h	n/a
312.9075	0.18	625815	keystroke	e	n/a
313.043	0.0895	626086	keystroke	r	n/a
313.1625	0.12	626325	keystroke	Key.space	n/a
313.3725	0.06	626745	keystroke	t	n/a
313.4775	0.09	626955	keystroke	a	n/a
313.5975	0.1805	627195	keystroke	l	n/a
313.792	0.075	627584	keystroke	k	n/a
314.5425	0.075	629085	keystroke	Key.backspace	n/a
314.7375	0.075	629475	keystroke	e	n/a
314.918	0.015	629836	keystroke	m	n/a
315.083	0.12	630166	keystroke	t	n/a
315.278	0.09	630556	keystroke	Key.space	n/a
315.578	0.06	631156	keystroke	Key.backspace	n/a
315.713	0.06	631426	keystroke	Key.backspace	n/a
315.863	0.045	631726	keystroke	Key.backspace	n/a
316.103	0.045	632206	keystroke	m	n/a
316.208	0.09	632416	keystroke	t	n/a
316.6725	0.0445	633345	keystroke	Key.backspace	n/a
316.8075	0.06	633615	keystroke	Key.backspace	n/a
317.5275	0.06	635055	keystroke	n	n/a
317.723	0.0895	635446	keystroke	t	n/a
317.8575	0.12	635715	keystroke	Key.space	n/a
318.8775	0.09	637755	keystroke	n	n/a
319.7025	0.105	639405	keystroke	o	n/a
319.853	0.09	639706	keystroke	t	n/a
319.9575	0.075	639915	keystroke	i	n/a
320.153	0.12	640306	keystroke	f	n/a
320.4375	0.105	640875	keystroke	i	n/a
320.603	0.12	641206	keystroke	c	n/a
320.738	0.12	641476	keystroke	a	n/a
320.873	0.075	641746	keystroke	t	n/a
320.963	0.075	641926	keystroke	i	n/a
321.053	0.135	642106	keystroke	o	n/a
321.173	0.0895	642346	keystroke	n	n/a
321.5325	0.075	643065	keystroke	Key.enter	n/a
321.6135	6.7605	643227	prompt	n/a	collins customs lady fatty\n
322.5075	0.105	645015	keystroke	c	n/a
322.6725	0.075	645345	keystroke	o	n/a
322.8975	0.06	645795	keystroke	l	n/a
323.0625	0.06	646125	keystroke	l	n/a
323.1825	0.15	646365	keystroke	i	n/a
323.2875	0.135	646575	keystroke	n	n/a
323.528	0.075	647056	keystroke	s	n/a
323.618	0.1345	647236	keystroke	Key.space	n/a
323.798	0.0895	647596	keystroke	c	n/a
324.023	0.0895	648046	keystroke	u	n/a
324.1575	0.09	648315	keystroke	s	n/a
324.3525	0.06	648705	keystroke	t	n/a
324.3975	0.165	648795	keystroke	o	n/a
324.5325	0.1355	649065	keystroke	m	n/a
324.818	0.105	649636	keystroke	s	n/a
324.938	0.105	649876	keystroke	Key.space	n/a
325.118	0.09	650236	keystroke	l	n/a
325.253	0.045	650506	keystroke	a	n/a
325.447	0.091	650894	keystroke	d	n/a
325.598	0.12	651196	keystroke	y	n/a
325.748	0.1045	651496	keystroke	Key.space	n/a
326.5735	0.104	653147	keystroke	f	n/a
326.6925	0.105	653385	keystroke	a	n/a
327.818	0.075	655636	keystroke	t	n/a
327.953	0.075	655906	keystroke	t	n/a
328.058	0.075	656116	keystroke	y	n/a
328.252	0.1205	656504	keystroke	Key.enter	n/a
328.379	9.4755	656758	prompt	n/a	debian leaves equality blair\n
329.843	0.075	659686	keystroke	d	n/a
330.413	0.09	660826	keystroke	e	n/a
330.698	0.09	661396	keystroke	b	n/a
330.908	0.0745	661816	keystroke	i	n/a
331.073	0.075	662146	keystroke	a	n/a
331.223	0.105	662446	keystroke	n	n/a
331.3725	0.12	662745	keystroke	Key.space	n/a
332.0925	0.1055	664185	keystroke	l	n/a
332.2125	0.1355	664425	keystroke	e	n/a
332.3325	0.135	664665	keystroke	a	n/a
332.498	0.1045	664996	keystroke	v	n/a
332.678	0.12	665356	keystroke	e	n/a
332.7825	0.105	665565	keystroke	s	n/a
332.9325	0.12	665865	keystroke	Key.space	n/a
333.682	0.03	667364	keystroke	q	n/a
334.072	0.09	668144	keystroke	Key.backspace	n/a
334.328	0.06	668656	keystroke	e	n/a
334.583	0.075	669166	keystroke	q	n/a
334.808	0.09	669616	keystroke	u	n/a
335.378	0.105	670756	keystroke	a	n/a
335.5875	0.105	671175	keystroke	l	n/a
335.6775	0.1205	671355	keystroke	i	n/a
335.8875	0.075	671775	keystroke	t	n/a
336.0075	0.105	672015	keystroke	y	n/a
336.6675	0.12	673335	keystroke	Key.space	n/a
336.9825	0.075	673965	keystroke	b	n/a
337.2075	0.075	674415	keystroke	l	n/a
337.298	0.089	674596	keystroke	a	n/a
337.403	0.1045	674806	keystroke	i	n/a
337.523	0.0745	675046	keystroke	r	n/a
337.748	0.105	675496	keystroke	Key.enter	n/a
337.859	4.9455	675718	prompt	n/a	phone durable luggage ieee\n
338.8575	0.075	677715	keystroke	p	n/a
339.068	0.1045	678136	keystroke	h	n/a
339.1875	0.1655	678375	keystroke	o	n/a
339.3225	0.1055	678645	keystroke	n	n/a
339.443	0.0755	678886	keystroke	e	n/a
339.5325	0.105	679065	keystroke	Key.space	n/a
339.7125	0.0905	679425	keystroke	d	n/a
339.8175	0.1055	679635	keystroke	u	n/a
339.9375	0.12	679875	keystroke	r	n/a
340.043	0.105	680086	keystroke	a	n/a
340.1775	0.0755	680355	keystroke	b	n/a
340.328	0.0895	680656	keystroke	l	n/a
340.4625	0.0905	680925	keystroke	e	n/a
340.5675	0.105	681135	keystroke	Key.space	n/a
340.688	0.09	681376	keystroke	l	n/a
340.853	0.09	681706	keystroke	u	n/a
340.9875	0.075	681975	keystroke	g	n/a
341.153	0.075	682306	keystroke	g	n/a
341.2725	0.1205	682545	keystroke	a	n/a
341.453	0.09	682906	keystroke	g	n/a
341.6625	0.045	683325	keystroke	e	n/a
341.753	0.1195	683506	keystroke	Key.space	n/a
341.9025	0.1055	683805	keystroke	i	n/a
342.128	0.075	684256	keystroke	e	n/a
342.278	0.075	684556	keystroke	e	n/a
342.488	0.045	684976	keystroke	e	n/a
342.698	0.105	685396	keystroke	Key.enter	n/a
342.808	7.991	685616	prompt	n/a	tribes cover sexuality option\n
343.672	0.076	687344	keystroke	t	n/a
343.898	0.044	687796	keystroke	r	n/a
343.9575	0.1045	687915	keystroke	i	n/a
344.167	0.106	688334	keystroke	b	n/a
344.318	0.06	688636	keystroke	e	n/a
344.423	0.105	688846	keystroke	s	n/a
344.542	0.12	689084	keystroke	Key.space	n/a
344.737	0.091	689474	keystroke	c	n/a
344.842	0.09	689684	keystroke	o	n/a
344.947	0.076	689894	keystroke	v	n/a
345.173	0.1795	690346	keystroke	e	n/a
345.3075	0.105	690615	keystroke	r	n/a
345.443	0.105	690886	keystroke	Key.space	n/a
345.593	0.105	691186	keystroke	s	n/a
345.8625	0.12	691725	keystroke	e	n/a
346.928	0.09	693856	keystroke	x	n/a
347.137	0.075	694274	keystroke	u	n/a
347.272	0.075	694544	keystroke	a	n/a
347.407	0.0755	694814	keystroke	l	n/a
347.4675	0.1195	694935	keystroke	i	n/a
347.6025	0.0905	695205	keystroke	t	n/a
347.753	0.135	695506	keystroke	y	n/a
347.963	0.074	695926	keystroke	Key.space	n/a
348.098	0.12	696196	keystroke	i	n/a
348.338	0.045	696676	keystroke	p	n/a
348.893	0.074	697786	keystroke	Key.backspace	n/a
349.043	0.06	698086	keystroke	Key.backspace	n/a
349.807	0.061	699614	keystroke	o	n/a
349.942	0.076	699884	keystroke	p	n/a
350.153	0.074	700306	keystroke	t	n/a
350.257	0.1355	700514	keystroke	i	n/a
350.378	0.134	700756	keystroke	o	n/a
350.528	0.09	701056	keystroke	n	n/a
350.753	0.045	701506	keystroke	Key.enter	n/a
350.8025	8.908	701605	prompt	n/a	void rocky jimmy pastor\n
351.728	0.1045	703456	keystroke	v	n/a
351.8625	0.105	703725	keystroke	o	n/a
351.923	0.1345	703846	keystroke	i	n/a
352.103	0.1045	704206	keystroke	c	n/a
352.2225	0.12	704445	keystroke	Key.space	n/a
352.478	0.1045	704956	keystroke	r	n/a
352.597	0.15	705194	keystroke	o	n/a
353.332	0.031	706664	keystroke	Key.backspace	n/a
353.438	0.074	706876	keystroke	Key.backspace	n/a
353.587	0.046	707174	keystroke	Key.backspace	n/a
353.723	0.044	707446	keystroke	Key.backspace	n/a
353.813	0.075	707626	keystroke	d	n/a
354.007	0.1055	708014	keystroke	Key.space	n/a
354.4575	0.0905	708915	keystroke	r	n/a
354.5925	0.105	709185	keystroke	o	n/a
354.818	0.09	709636	keystroke	c	n/a
354.953	0.09	709906	keystroke	k	n/a
355.283	0.105	710566	keystroke	y	n/a
355.492	0.1805	710984	keystroke	Key.space	n/a
356.903	0.165	713806	keystroke	j	n/a
357.053	0.09	714106	keystroke	i	n/a
357.263	0.0895	714526	keystroke	m	n/a
357.428	0.059	714856	keystroke	m	n/a
357.6525	0.1495	715305	keystroke	y	n/a
357.772	0.135	715544	keystroke	Key.space	n/a
357.937	0.12	715874	keystroke	p	n/a
358.103	0.104	716206	keystroke	a	n/a
358.6275	0.0905	717255	keystroke	s	n/a
358.8225	0.075	717645	keystroke	t	n/a
359.002	0.196	718004	keystroke	o	n/a
359.3775	0.075	718755	keystroke	r	n/a
359.618	0.0895	719236	keystroke	Key.enter	n/a
359.715	12.024	719430	prompt	n/a	islamic transparency postings alexander\n
360.7725	0.09	721545	keystroke	i	n/a
360.9075	0.0905	721815	keystroke	s	n/a
361.0575	0.1055	722115	keystroke	l	n/a
361.2075	0.075	722415	keystroke	a	n/a
362.497	0.165	724994	keystroke	m	n/a
362.647	0.075	725294	keystroke	i	n/a
362.768	0.104	725536	keystroke	c	n/a
362.962	0.075	725924	keystroke	Key.space	n/a
363.353	0.075	726706	keystroke	t	n/a
363.5475	0.105	727095	keystroke	r	n/a
363.6825	0.105	727365	keystroke	a	n/a
363.9075	0.0905	727815	keystroke	n	n/a
364.118	0.1045	728236	keystroke	s	n/a
364.2525	0.09	728505	keystroke	p	n/a
365.1225	0.1195	730245	keystroke	a	n/a
365.3025	0.1345	730605	keystroke	r	n/a
366.2325	0.0745	732465	keystroke	e	n/a
366.368	0.089	732736	keystroke	n	n/a
366.503	0.104	733006	keystroke	c	n/a
366.6525	0.09	733305	keystroke	y	n/a
366.862	0.1055	733724	keystroke	Key.space	n/a
367.057	0.0905	734114	keystroke	p	n/a
367.2975	0.0755	734595	keystroke	o	n/a
367.4175	0.06	734835	keystroke	s	n/a
367.523	0.075	735046	keystroke	t	n/a
367.598	0.179	735196	keystroke	i	n/a
367.718	0.134	735436	keystroke	n	n/a
367.853	0.075	735706	keystroke	g	n/a
368.0175	0.09	736035	keystroke	s	n/a
368.1375	0.1355	736275	keystroke	Key.space	n/a
368.7075	0.09	737415	keystroke	a	n/a
368.8725	0.075	737745	keystroke	l	n/a
369.2175	0.075	738435	keystroke	e	n/a
369.7425	0.0755	739485	keystroke	x	n/a
369.998	0.075	739996	keystroke	a	n/a
370.163	0.075	740326	keystroke	n	n/a
370.718	0.075	741436	keystroke	d	n/a
370.958	0.135	741916	keystroke	e	n/a
371.078	0.089	742156	keystroke	r	n/a
371.6625	0.075	743325	keystroke	Key.enter	n/a
371.7425	5.1575	743485	prompt	n/a	on donna founder vocals\n
372.532	0.105	745064	keystroke	o	n/a
372.698	0.134	745396	keystroke	n	n/a
372.8175	0.0895	745635	keystroke	Key.space	n/a
373.012	0.0905	746024	keystroke	d	n/a
373.1475	0.0905	746295	keystroke	o	n/a
373.312	0.09	746624	keystroke	n	n/a
373.4925	0.0895	746985	keystroke	n	n/a
373.7625	0.105	747525	keystroke	Key.space	n/a
373.8525	0.09	747705	keystroke	a	n/a
374.347	0.06	748694	keystroke	Key.backspace	n/a
374.482	0.0605	748964	keystroke	Key.backspace	n/a
374.573	0.104	749146	keystroke	a	n/a
374.707	0.1205	749414	keystroke	Key.space	n/a
374.903	0.09	749806	keystroke	f	n/a
375.007	0.1505	750014	keystroke	o	n/a
375.1125	0.0605	750225	keystroke	u	n/a
375.3075	0.0905	750615	keystroke	n	n/a
375.4125	0.075	750825	keystroke	d	n/a
375.5925	0.12	751185	keystroke	e	n/a
375.6975	0.09	751395	keystroke	r	n/a
375.7725	0.105	751545	keystroke	Key.space	n/a
376.0125	0.105	752025	keystroke	v	n/a
376.163	0.1045	752326	keystroke	o	n/a
376.298	0.1345	752596	keystroke	c	n/a
376.418	0.104	752836	keystroke	a	n/a
376.537	0.0905	753074	keystroke	l	n/a
376.6725	0.09	753345	keystroke	s	n/a
376.8075	0.09	753615	keystroke	Key.enter	n/a
376.905	9.669	753810	prompt	n/a	bars newspapers explorer workflow\n
378.023	0.075	756046	keystroke	b	n/a
378.1425	0.165	756285	keystroke	a	n/a
378.2625	0.12	756525	keystroke	r	n/a
378.5325	0.0905	757065	keystroke	s	n/a
378.668	0.0895	757336	keystroke	Key.space	n/a
378.9225	0.1205	757845	keystroke	n	n/a
379.058	0.135	758116	keystroke	e	n/a
379.148	0.1345	758296	keystroke	w	n/a
379.4325	0.09	758865	keystroke	s	n/a
379.7325	0.105	759465	keystroke	p	n/a
379.898	0.1045	759796	keystroke	a	n/a
380.0625	0.105	760125	keystroke	p	n/a
380.1825	0.165	760365	keystroke	e	n/a
380.2875	0.12	760575	keystroke	r	n/a
380.5125	0.105	761025	keystroke	s	n/a
380.7075	0.12	761415	keystroke	Key.space	n/a
381.0075	0.105	762015	keystroke	e	n/a
381.7275	0.0295	763455	keystroke	x	n/a
382.523	0.0745	765046	keystroke	p	n/a
382.732	0.09	765464	keystroke	l	n/a
382.9275	0.09	765855	keystroke	o	n/a
383.093	0.0895	766186	keystroke	r	n/a
383.332	0.136	766664	keystroke	e	n/a
383.708	0.0745	767416	keystroke	r	n/a
383.8125	0.135	767625	keystroke	Key.space	n/a
384.2475	0.06	768495	keystroke	w	n/a
384.3825	0.09	768765	keystroke	o	n/a
384.4875	0.105	768975	keystroke	r	n/a
384.668	0.1795	769336	keystroke	k	n/a
385.5825	0.0605	771165	keystroke	f	n/a
385.7325	0.0305	771465	keystroke	l	n/a
385.9275	0.09	771855	keystroke	o	n/a
386.0625	0.075	772125	keystroke	w	n/a
386.4675	0.105	772935	keystroke	Key.enter	n/a
386.5795	6.6195	773159	prompt	n/a	lived paragraphs heard it's\n
387.3075	0.12	774615	keystroke	l	n/a
387.4575	0.105	774915	keystroke	i	n/a
387.5325	0.09	775065	keystroke	v	n/a
387.6825	0.09	775365	keystroke	e	n/a
387.8925	0.075	775785	keystroke	d	n/a
387.9375	0.12	775875	keystroke	Key.space	n/a
388.0875	0.135	776175	keystroke	p	n/a
388.2225	0.105	776445	keystroke	a	n/a
388.3725	0.15	776745	keystroke	r	n/a
388.538	0.075	777076	keystroke	a	n/a
388.7475	0.06	777495	keystroke	g	n/a
388.973	0.0895	777946	keystroke	r	n/a
389.813	0.0895	779626	keystroke	a	n/a
390.0075	0.075	780015	keystroke	p	n/a
390.248	0.075	780496	keystroke	h	n/a
390.653	0.09	781306	keystroke	s	n/a
391.342	0.0755	782684	keystroke	Key.space	n/a
391.5375	0.1055	783075	keystroke	h	n/a
391.628	0.15	783256	keystroke	e	n/a
391.763	0.195	783526	keystroke	a	n/a
391.913	0.105	783826	keystroke	r	n/a
392.123	0.089	784246	keystroke	d	n/a
392.228	0.12	784456	keystroke	Key.space	n/a
392.362	0.136	784724	keystroke	i	n/a
392.543	0.075	785086	keystroke	t	n/a
392.663	0.09	785326	keystroke	'	n/a
392.813	0.09	785626	keystroke	s	n/a
393.1125	0.075	786225	keystroke	Key.enter	n/a
393.2045	9.8545	786409	prompt	n/a	garbage blocked according locations\n
394.3575	0.09	788715	keystroke	g	n/a
394.5225	0.135	789045	keystroke	a	n/a
394.9125	0.105	789825	keystroke	r	n/a
395.753	0.0745	791506	keystroke	b	n/a
396.038	0.135	792076	keystroke	a	n/a
396.248	0.135	792496	keystroke	g	n/a
396.442	0.09	792884	keystroke	e	n/a
396.562	0.18	793124	keystroke	Key.space	n/a
396.728	0.119	793456	keystroke	b	n/a
396.9825	0.075	793965	keystroke	l	n/a
397.163	0.075	794326	keystroke	o	n/a
397.2825	0.0745	794565	keystroke	c	n/a
397.372	0.075	794744	keystroke	k	n/a
397.493	0.089	794986	keystroke	e	n/a
397.6725	0.075	795345	keystroke	Key.space	n/a
397.7175	0.09	795435	keystroke	d	n/a
397.9575	0.105	795915	keystroke	a	n/a
398.407	0.0455	796814	keystroke	Key.backspace	n/a
398.542	0.0605	797084	keystroke	Key.backspace	n/a
398.6775	0.075	797355	keystroke	Key.backspace	n/a
398.753	0.075	797506	keystroke	d	n/a
398.932	0.075	797864	keystroke	Key.space	n/a
399.052	0.0905	798104	keystroke	a	n/a
399.1875	0.075	798375	keystroke	c	n/a
399.3525	0.06	798705	keystroke	c	n/a
399.4275	0.12	798855	keystroke	o	n/a
399.592	0.075	799184	keystroke	r	n/a
399.787	0.075	799574	keystroke	d	n/a
399.877	0.135	799754	keystroke	i	n/a
399.982	0.091	799964	keystroke	n	n/a
400.087	0.076	800174	keystroke	g	n/a
400.192	0.075	800384	keystroke	Key.space	n/a
400.9725	0.09	801945	keystroke	l	n/a
401.1675	0.09	802335	keystroke	o	n/a
402.0525	0.075	804105	keystroke	c	n/a
402.188	0.1045	804376	keystroke	a	n/a
402.3075	0.075	804615	keystroke	t	n/a
402.4125	0.1355	804825	keystroke	i	n/a
402.5325	0.1355	805065	keystroke	o	n/a
402.6225	0.15	805245	keystroke	n	n/a
402.7575	0.1055	805515	keystroke	s	n/a
402.9975	0.06	805995	keystroke	Key.enter	n/a
403.0665	13.9275	806133	prompt	n/a	interaction sons valves egyptian\n
403.8825	0.0905	807765	keystroke	i	n/a
404.0175	0.105	808035	keystroke	n	n/a
404.138	0.075	808276	keystroke	t	n/a
404.317	0.106	808634	keystroke	e	n/a
404.392	0.0905	808784	keystroke	r	n/a
404.573	0.12	809146	keystroke	a	n/a
405.0075	0.015	810015	keystroke	c	n/a
405.1575	0.09	810315	keystroke	t	n/a
405.2625	0.15	810525	keystroke	i	n/a
405.3675	0.1205	810735	keystroke	n	n/a
405.518	0.0445	811036	keystroke	g	n/a
405.6225	0.075	811245	keystroke	Key.space	n/a
406.5075	0.015	813015	keystroke	Key.backspace	n/a
406.5975	0.075	813195	keystroke	Key.backspace	n/a
407.0925	0.06	814185	keystroke	Key.backspace	n/a
407.4825	0.105	814965	keystroke	o	n/a
407.873	0.075	815746	keystroke	n	n/a
408.0825	0.09	816165	keystroke	Key.space	n/a
408.983	0.105	817966	keystroke	s	n/a
409.118	0.1495	818236	keystroke	o	n/a
409.2075	0.165	818415	keystroke	n	n/a
409.388	0.1195	818776	keystroke	s	n/a
409.5675	0.105	819135	keystroke	Key.space	n/a
410.7225	0.0895	821445	keystroke	v	n/a
410.918	0.074	821836	keystroke	a	n/a
411.487	0.076	822974	keystroke	l	n/a
411.878	0.0745	823756	keystroke	v	n/a
412.237	0.105	824474	keystroke	e	n/a
412.417	0.1205	824834	keystroke	s	n/a
412.612	0.105	825224	keystroke	Key.space	n/a
413.857	0.075	827714	keystroke	e	n/a
414.9675	0.0745	829935	keystroke	g	n/a
415.223	0.074	830446	keystroke	y	n/a
415.477	0.105	830954	keystroke	p	n/a
415.7175	0.06	831435	keystroke	t	n/a
415.8225	0.1355	831645	keystroke	i	n/a
415.9725	0.09	831945	keystroke	a	n/a
416.0925	0.105	832185	keystroke	n	n/a
416.8875	0.1045	833775	keystroke	Key.enter	n/a
417.0085	8.641	834017	prompt	n/a	round newbie travelling miniature\n
418.883	0.059	837766	keystroke	r	n/a
419.048	0.105	838096	keystroke	o	n/a
419.107	0.121	838214	keystroke	u	n/a
419.407	0.1205	838814	keystroke	n	n/a
419.6025	0.0905	839205	keystroke	d	n/a
419.7075	0.09	839415	keystroke	Key.space	n/a
419.888	0.134	839776	keystroke	n	n/a
419.977	0.15	839954	keystroke	e	n/a
420.1125	0.105	840225	keystroke	w	n/a
420.487	0.12	840974	keystroke	b	n/a
420.623	0.104	841246	keystroke	i	n/a
420.7425	0.0905	841485	keystroke	w	n/a
421.327	0.075	842654	keystroke	Key.backspace	n/a
421.432	0.0905	842864	keystroke	e	n/a
421.6725	0.105	843345	keystroke	Key.space	n/a
422.4825	0.09	844965	keystroke	t	n/a
422.707	0.105	845414	keystroke	r	n/a
422.827	0.0905	845654	keystroke	a	n/a
423.007	0.105	846014	keystroke	v	n/a
423.143	0.1045	846286	keystroke	e	n/a
423.3225	0.06	846645	keystroke	l	n/a
423.458	0.0745	846916	keystroke	l	n/a
423.6075	0.135	847215	keystroke	i	n/a
423.6975	0.135	847395	keystroke	n	n/a
423.8175	0.09	847635	keystroke	g	n/a
423.923	0.1195	847846	keystroke	Key.space	n/a
424.2525	0.0905	848505	keystroke	m	n/a
424.4025	0.135	848805	keystroke	i	n/a
424.5675	0.09	849135	keystroke	n	n/a
424.6725	0.12	849345	keystroke	i	n/a
424.8225	0.12	849645	keystroke	a	n/a
424.9725	0.105	849945	keystroke	t	n/a
425.1525	0.1205	850305	keystroke	u	n/a
425.302	0.121	850604	keystroke	r	n/a
425.408	0.074	850816	keystroke	e	n/a
425.527	0.1205	851054	keystroke	Key.enter	n/a
425.654	9.1	851308	prompt	n/a	accurately that definition existed\n
426.4425	0.045	852885	keystroke	a	n/a
426.5775	0.045	853155	keystroke	c	n/a
426.7275	0.075	853455	keystroke	c	n/a
426.8775	0.105	853755	keystroke	u	n/a
427.0125	0.15	854025	keystroke	r	n/a
427.1775	0.135	854355	keystroke	a	n/a
427.3275	0.09	854655	keystroke	t	n/a
427.4925	0.075	854985	keystroke	e	n/a
427.6125	0.075	855225	keystroke	l	n/a
427.8075	0.135	855615	keystroke	y	n/a
427.9275	0.12	855855	keystroke	Key.space	n/a
428.3775	0.06	856755	keystroke	t	n/a
428.4525	0.105	856905	keystroke	h	n/a
428.5425	0.165	857085	keystroke	a	n/a
428.6625	0.105	857325	keystroke	t	n/a
428.7525	0.075	857505	keystroke	Key.space	n/a
429.1875	0.0755	858375	keystroke	d	n/a
429.368	0.0595	858736	keystroke	e	n/a
430.298	0.0745	860596	keystroke	f	n/a
430.402	0.105	860804	keystroke	i	n/a
430.5225	0.1345	861045	keystroke	n	n/a
431.2575	0.105	862515	keystroke	i	n/a
431.4525	0.06	862905	keystroke	t	n/a
431.543	0.1045	863086	keystroke	i	n/a
431.6625	0.135	863325	keystroke	o	n/a
431.7825	0.195	863565	keystroke	n	n/a
431.9925	0.15	863985	keystroke	Key.space	n/a
432.8175	0.09	865635	keystroke	e	n/a
433.1025	0.075	866205	keystroke	x	n/a
433.2675	0.06	866535	keystroke	i	n/a
433.8075	0.075	867615	keystroke	s	n/a
434.0025	0.0605	868005	keystroke	t	n/a
434.1525	0.075	868305	keystroke	e	n/a
434.348	0.075	868696	keystroke	d	n/a
434.6625	0.09	869325	keystroke	Key.enter	n/a
434.758	5.411	869516	prompt	n/a	finger duck tall ground\n
435.5475	0.075	871095	keystroke	f	n/a
435.637	0.15	871274	keystroke	i	n/a
435.742	0.135	871484	keystroke	n	n/a
435.892	0.076	871784	keystroke	g	n/a
436.072	0.136	872144	keystroke	e	n/a
436.192	0.075	872384	keystroke	r	n/a
436.282	0.0905	872564	keystroke	Key.space	n/a
436.5065	0.076	873013	keystroke	d	n/a
436.6125	0.09	873225	keystroke	u	n/a
436.7475	0.105	873495	keystroke	c	n/a
436.8675	0.1945	873735	keystroke	k	n/a
437.0315	0.091	874063	keystroke	Key.space	n/a
437.2575	0.09	874515	keystroke	t	n/a
437.3625	0.09	874725	keystroke	a	n/a
437.4825	0.045	874965	keystroke	l	n/a
437.6325	0.195	875265	keystroke	l	n/a
437.7825	0.105	875565	keystroke	Key.space	n/a
438.0225	0.075	876045	keystroke	g	n/a
439.0725	0.0755	878145	keystroke	r	n/a
439.237	0.12	878474	keystroke	o	n/a
439.343	0.105	878686	keystroke	u	n/a
439.5975	0.1045	879195	keystroke	n	n/a
439.732	0.0755	879464	keystroke	d	n/a
440.1375	0.03	880275	keystroke	Key.enter	n/a
440.1735	15.9105	880347	prompt	n/a	pipeline street acquisitions republicans\n
441.877	0.075	883754	keystroke	p	n/a
442.058	0.074	884116	keystroke	i	n/a
442.252	0.075	884504	keystroke	p	n/a
442.417	0.06	884834	keystroke	e	n/a
442.552	0.165	885104	keystroke	l	n/a
442.702	0.225	885404	keystroke	i	n/a
442.8975	0.12	885795	keystroke	n	n/a
443.0475	0.075	886095	keystroke	e	n/a
443.2425	0.1795	886485	keystroke	Key.space	n/a
443.722	0.105	887444	keystroke	s	n/a
443.9475	0.075	887895	keystroke	t	n/a
444.127	0.0905	888254	keystroke	r	n/a
444.277	0.0605	888554	keystroke	e	n/a
444.442	0.09	888884	keystroke	e	n/a
444.592	0.0755	889184	keystroke	t	n/a
444.7125	0.105	889425	keystroke	Key.space	n/a
445.582	0.0905	891164	keystroke	a	n/a
446.002	0.06	892004	keystroke	c	n/a
448.012	0.06	896024	keystroke	q	n/a
448.7615	0.015	897523	keystroke	u	n/a
448.8975	0.09	897795	keystroke	s	n/a
449.0475	0.075	898095	keystroke	i	n/a
449.7975	0.0745	899595	keystroke	t	n/a
449.9165	0.21	899833	keystroke	i	n/a
450.1115	0.12	900223	keystroke	o	n/a
450.8025	0.09	901605	keystroke	n	n/a
450.9225	0.075	901845	keystroke	s	n/a
451.0725	0.09	902145	keystroke	Key.space	n/a
453.354	0.0585	906708	keystroke	r	n/a
453.473	0.0745	906946	keystroke	e	n/a
454.417	0.0455	908834	keystroke	p	n/a
454.8375	0.0895	909675	keystroke	u	n/a
455.077	0.0605	910154	keystroke	b	n/a
455.242	0.135	910484	keystroke	l	n/a
455.347	0.1205	910694	keystroke	i	n/a
455.482	0.1055	910964	keystroke	c	n/a
455.5725	0.0895	911145	keystroke	a	n/a
455.6925	0.105	911385	keystroke	n	n/a
455.827	0.075	911654	keystroke	s	n/a
456.037	0.0455	912074	keystroke	Key.enter	n/a
456.088	12.1155	912176	prompt	n/a	chief nodes halo charity\n
457.2075	0.105	914415	keystroke	c	n/a
457.342	0.135	914684	keystroke	h	n/a
458.752	0.091	917504	keystroke	i	n/a
458.888	0.089	917776	keystroke	e	n/a
459.068	0.119	918136	keystroke	f	n/a
459.247	0.105	918494	keystroke	Key.space	n/a
460.582	0.1055	921164	keystroke	n	n/a
460.702	0.105	921404	keystroke	o	n/a
460.8975	0.06	921795	keystroke	d	n/a
461.1225	0.1045	922245	keystroke	e	n/a
461.318	0.089	922636	keystroke	s	n/a
462.052	0.1055	924104	keystroke	Key.space	n/a
462.3675	0.06	924735	keystroke	h	n/a
462.4875	0.075	924975	keystroke	a	n/a
462.593	0.075	925186	keystroke	l	n/a
462.8475	0.09	925695	keystroke	o	n/a
463.4775	0.12	926955	keystroke	Key.space	n/a
463.7625	0.105	927525	keystroke	c	n/a
463.8525	0.135	927705	keystroke	h	n/a
463.9725	0.135	927945	keystroke	a	n/a
464.1975	0.105	928395	keystroke	i	n/a
465.8175	0.075	931635	keystroke	Key.backspace	n/a
467.107	0.105	934214	keystroke	r	n/a
467.243	0.119	934486	keystroke	i	n/a
467.392	0.0755	934784	keystroke	t	n/a
467.588	0.059	935176	keystroke	y	n/a
467.8125	0.105	935625	keystroke	Key.space	n/a
468.097	0.105	936194	keystroke	Key.enter	n/a
468.207	10.092	936414	prompt	n/a	beliefs mention possess rules\n
470.0625	0.045	940125	keystroke	b	n/a
470.1675	0.105	940335	keystroke	e	n/a
470.2875	0.105	940575	keystroke	l	n/a
470.4525	0.12	940905	keystroke	e	n/a
470.558	0.135	941116	keystroke	i	n/a
470.797	0.135	941594	keystroke	f	n/a
471.052	0.0905	942104	keystroke	s	n/a
471.202	0.12	942404	keystroke	Key.space	n/a
471.832	0.06	943664	keystroke	Key.backspace	n/a
471.982	0.045	943964	keystroke	Key.backspace	n/a
472.132	0.045	944264	keystroke	Key.backspace	n/a
472.2815	0.061	944563	keystroke	Key.backspace	n/a
472.4475	0.029	944895	keystroke	Key.backspace	n/a
472.913	0.0895	945826	keystroke	i	n/a
473.0775	0.09	946155	keystroke	e	n/a
473.302	0.1205	946604	keystroke	f	n/a
473.527	0.12	947054	keystroke	s	n/a
473.7675	0.0895	947535	keystroke	Key.space	n/a
474.097	0.09	948194	keystroke	m	n/a
474.232	0.106	948464	keystroke	e	n/a
474.382	0.1055	948764	keystroke	n	n/a
474.4725	0.075	948945	keystroke	t	n/a
474.577	0.1055	949154	keystroke	i	n/a
474.668	0.165	949336	keystroke	o	n/a
474.7725	0.15	949545	keystroke	n	n/a
474.9065	0.106	949813	keystroke	Key.space	n/a
475.1625	0.075	950325	keystroke	p	n/a
475.3875	0.044	950775	keystroke	o	n/a
476.0925	0.059	952185	keystroke	s	n/a
476.3015	0.106	952603	keystroke	s	n/a
476.5425	0.089	953085	keystroke	e	n/a
476.8125	0.06	953625	keystroke	s	n/a
476.9765	0.075	953953	keystroke	s	n/a
477.0815	0.106	954163	keystroke	Key.space	n/a
477.2765	0.106	954553	keystroke	r	n/a
477.3975	0.104	954795	keystroke	u	n/a
477.6075	0.149	955215	keystroke	l	n/a
477.8315	0.12	955663	keystroke	e	n/a
477.9375	0.089	955875	keystroke	s	n/a
478.2225	0.0745	956445	keystroke	Key.enter	n/a
478.303	10.8415	956606	prompt	n/a	nasdaq proposal favor planning\n
480.5035	0.001	961007	keystroke	n	n/a
480.5625	0.105	961125	keystroke	a	n/a
481.0725	0.075	962145	keystroke	s	n/a
481.2825	0.09	962565	keystroke	d	n/a
481.4025	0.1195	962805	keystroke	a	n/a
481.807	0.0605	963614	keystroke	q	n/a
482.167	0.135	964334	keystroke	Key.space	n/a
482.422	0.12	964844	keystroke	p	n/a
482.617	0.105	965234	keystroke	r	n/a
483.052	0.0905	966104	keystroke	o	n/a
484.492	0.06	968984	keystroke	p	n/a
484.7175	0.0745	969435	keystroke	o	n/a
485.0325	0.1195	970065	keystroke	s	n/a
485.3475	0.09	970695	keystroke	a	n/a
485.4975	0.0745	970995	keystroke	l	n/a
485.662	0.06	971324	keystroke	Key.space	n/a
486.487	0.106	972974	keystroke	f	n/a
486.6375	0.1345	973275	keystroke	a	n/a
486.7875	0.1345	973575	keystroke	v	n/a
486.9675	0.1045	973935	keystroke	o	n/a
487.1775	0.105	974355	keystroke	r	n/a
487.2675	0.12	974535	keystroke	Key.space	n/a
487.7175	0.06	975435	keystroke	p	n/a
487.9275	0.075	975855	keystroke	l	n/a
488.0175	0.075	976035	keystroke	a	n/a
488.1225	0.06	976245	keystroke	n	n/a
488.302	0.045	976604	keystroke	n	n/a
488.377	0.1805	976754	keystroke	i	n/a
488.752	0.09	977504	keystroke	n	n/a
488.872	0.075	977744	keystroke	g	n/a
489.067	0.0755	978134	keystroke	Key.enter	n/a
489.1485	7.03	978297	prompt	n/a	absolute keeps detection bang\n
489.8175	0.134	979635	keystroke	a	n/a
490.1925	0.089	980385	keystroke	b	n/a
490.3875	0.104	980775	keystroke	s	n/a
490.5065	0.091	981013	keystroke	o	n/a
490.7315	0.0905	981463	keystroke	l	n/a
490.8815	0.12	981763	keystroke	u	n/a
490.9875	0.0895	981975	keystroke	t	n/a
491.1375	0.075	982275	keystroke	e	n/a
491.272	0.105	982544	keystroke	Key.space	n/a
491.422	0.1045	982844	keystroke	k	n/a
491.572	0.0605	983144	keystroke	e	n/a
491.7065	0.061	983413	keystroke	e	n/a
491.7965	0.105	983593	keystroke	p	n/a
491.9625	0.119	983925	keystroke	s	n/a
492.1875	0.149	984375	keystroke	Key.space	n/a
492.5625	0.075	985125	keystroke	d	n/a
492.742	0.0755	985484	keystroke	e	n/a
492.9665	0.076	985933	keystroke	t	n/a
493.147	0.0745	986294	keystroke	e	n/a
493.4475	0.09	986895	keystroke	c	n/a
493.6575	0.0895	987315	keystroke	t	n/a
493.7765	0.105	987553	keystroke	i	n/a
493.8665	0.1505	987733	keystroke	o	n/a
493.988	0.1035	987976	keystroke	n	n/a
494.1075	0.074	988215	keystroke	s	n/a
494.2565	0.106	988513	keystroke	Key.space	n/a
494.3765	0.091	988753	keystroke	b	n/a
494.4825	0.075	988965	keystroke	a	n/a
494.7075	0.09	989415	keystroke	n	n/a
494.8265	0.09	989653	keystroke	d	n/a
495.5165	0.1055	991033	keystroke	Key.backspace	n/a
495.7275	0.074	991455	keystroke	g	n/a
496.1015	0.075	992203	keystroke	Key.enter	n/a
496.183	9.6255	992366	prompt	n/a	merely melissa appendix raise\n
497.767	0.09	995534	keystroke	m	n/a
497.9925	0.104	995985	keystroke	e	n/a
498.4715	0.121	996943	keystroke	r	n/a
498.607	0.075	997214	keystroke	e	n/a
498.7265	0.075	997453	keystroke	l	n/a
498.9665	0.135	997933	keystroke	y	n/a
499.0865	0.121	998173	keystroke	Key.space	n/a
499.297	0.1205	998594	keystroke	m	n/a
499.4325	0.0445	998865	keystroke	e	n/a
499.627	0.15	999254	keystroke	l	n/a
499.762	0.09	999524	keystroke	i	n/a
499.912	0.06	999824	keystroke	s	n/a
500.062	0.09	1000124	keystroke	s	n/a
500.2125	0.0745	1000425	keystroke	a	n/a
500.347	0.15	1000694	keystroke	Key.space	n/a
500.7825	0.12	1001565	keystroke	a	n/a
500.9925	0.045	1001985	keystroke	p	n/a
501.1425	0.06	1002285	keystroke	p	n/a
501.2325	0.09	1002465	keystroke	e	n/a
501.9525	0.06	1003905	keystroke	n	n/a
502.117	0.0745	1004234	keystroke	d	n/a
502.282	0.09	1004564	keystroke	i	n/a
502.612	0.1205	1005224	keystroke	z	n/a
503.257	0.075	1006514	keystroke	Key.backspace	n/a
503.3015	0.121	1006603	keystroke	x	n/a
503.6925	0.12	1007385	keystroke	Key.space	n/a
505.0575	0.1195	1010115	keystroke	r	n/a
505.1925	0.0745	1010385	keystroke	a	n/a
505.342	0.105	1010684	keystroke	i	n/a
505.462	0.105	1010924	keystroke	s	n/a
505.537	0.12	1011074	keystroke	e	n/a
505.702	0.105	1011404	keystroke	Key.enter	n/a
505.812	9.7465	1011624	prompt	n/a	document resulting lots cancer\n
506.8125	0.105	1013625	keystroke	d	n/a
506.977	0.12	1013954	keystroke	o	n/a
507.082	0.09	1014164	keystroke	c	n/a
507.187	0.09	1014374	keystroke	u	n/a
507.3965	0.0905	1014793	keystroke	m	n/a
507.667	0.0895	1015334	keystroke	n	n/a
507.7715	0.1505	1015543	keystroke	e	n/a
507.9075	0.1045	1015815	keystroke	t	n/a
508.042	0.09	1016084	keystroke	Key.space	n/a
508.312	0.165	1016624	keystroke	r	n/a
508.762	0.06	1017524	keystroke	Key.backspace	n/a
508.912	0.06	1017824	keystroke	Key.backspace	n/a
509.062	0.045	1018124	keystroke	Key.backspace	n/a
509.212	0.06	1018424	keystroke	Key.backspace	n/a
509.3625	0.0745	1018725	keystroke	Key.backspace	n/a
509.527	0.075	1019054	keystroke	Key.backspace	n/a
510.277	0.075	1020554	keystroke	m	n/a
510.397	0.09	1020794	keystroke	e	n/a
510.502	0.09	1021004	keystroke	n	n/a
510.593	0.089	1021186	keystroke	t	n/a
510.727	0.075	1021454	keystroke	Key.space	n/a
510.832	0.12	1021664	keystroke	r	n/a
510.922	0.105	1021844	keystroke	e	n/a
511.102	0.105	1022204	keystroke	s	n/a
511.2215	0.1205	1022443	keystroke	u	n/a
511.402	0.105	1022804	keystroke	l	n/a
511.552	0.0755	1023104	keystroke	t	n/a
511.6425	0.15	1023285	keystroke	i	n/a
511.717	0.165	1023434	keystroke	n	n/a
511.867	0.09	1023734	keystroke	g	n/a
511.972	0.12	1023944	keystroke	Key.space	n/a
512.392	0.06	1024784	keystroke	o	n/a
512.962	0.075	1025924	keystroke	Key.backspace	n/a
513.3975	0.075	1026795	keystroke	l	n/a
513.5925	0.0895	1027185	keystroke	o	n/a
513.7265	0.075	1027453	keystroke	t	n/a
514.0115	0.09	1028023	keystroke	s	n/a
514.1315	0.12	1028263	keystroke	Key.space	n/a
514.3265	0.1205	1028653	keystroke	c	n/a
514.462	0.12	1028924	keystroke	a	n/a
514.627	0.12	1029254	keystroke	n	n/a
514.912	0.135	1029824	keystroke	c	n/a
515.182	0.1355	1030364	keystroke	e	n/a
515.2865	0.09	1030573	keystroke	r	n/a
515.452	0.105	1030904	keystroke	Key.enter	n/a
515.563	9.3405	1031126	prompt	n/a	august learners tsunami occupied\n
516.817	0.1045	1033634	keystroke	a	n/a
516.9965	0.0755	1033993	keystroke	u	n/a
517.117	0.105	1034234	keystroke	g	n/a
517.2375	0.0895	1034475	keystroke	u	n/a
517.372	0.09	1034744	keystroke	s	n/a
517.522	0.1055	1035044	keystroke	t	n/a
517.702	0.12	1035404	keystroke	Key.space	n/a
518.377	0.075	1036754	keystroke	l	n/a
518.497	0.135	1036994	keystroke	e	n/a
518.587	0.12	1037174	keystroke	a	n/a
519.052	0.09	1038104	keystroke	r	n/a
519.187	0.0745	1038374	keystroke	n	n/a
519.337	0.1195	1038674	keystroke	e	n/a
519.4115	0.12	1038823	keystroke	r	n/a
519.652	0.0905	1039304	keystroke	s	n/a
519.8175	0.089	1039635	keystroke	Key.space	n/a
520.777	0.075	1041554	keystroke	t	n/a
521.017	0.09	1042034	keystroke	s	n/a
521.212	0.09	1042424	keystroke	u	n/a
522.082	0.0605	1044164	keystroke	n	n/a
522.187	0.06	1044374	keystroke	a	n/a
522.487	0.015	1044974	keystroke	m	n/a
522.532	0.06	1045064	keystroke	i	n/a
523.207	0.105	1046414	keystroke	Key.space	n/a
523.507	0.09	1047014	keystroke	o	n/a
523.702	0.045	1047404	keystroke	c	n/a
523.8375	0.059	1047675	keystroke	c	n/a
523.9575	0.074	1047915	keystroke	u	n/a
524.1825	0.0745	1048365	keystroke	p	n/a
524.3615	0.1055	1048723	keystroke	i	n/a
524.4975	0.074	1048995	keystroke	e	n/a
524.677	0.075	1049354	keystroke	d	n/a
524.842	0.06	1049684	keystroke	Key.enter	n/a
524.9105	14.798	1049821	prompt	n/a	advertiser plastics vocabulary packages\n
525.832	0.0605	1051664	keystroke	a	n/a
526.0265	0.105	1052053	keystroke	d	n/a
526.8515	0.075	1053703	keystroke	v	n/a
527.077	0.12	1054154	keystroke	e	n/a
527.182	0.0895	1054364	keystroke	r	n/a
527.6465	0.105	1055293	keystroke	t	n/a
527.767	0.0895	1055534	keystroke	i	n/a
527.9765	0.12	1055953	keystroke	s	n/a
528.067	0.1645	1056134	keystroke	e	n/a
528.1865	0.135	1056373	keystroke	r	n/a
528.367	0.1795	1056734	keystroke	Key.space	n/a
528.5315	0.075	1057063	keystroke	p	n/a
528.7265	0.105	1057453	keystroke	l	n/a
528.8765	0.105	1057753	keystroke	a	n/a
529.0575	0.119	1058115	keystroke	s	n/a
529.2515	0.06	1058503	keystroke	t	n/a
529.3565	0.106	1058713	keystroke	i	n/a
529.702	0.075	1059404	keystroke	c	n/a
529.897	0.06	1059794	keystroke	s	n/a
530.0165	0.0905	1060033	keystroke	Key.space	n/a
530.392	0.09	1060784	keystroke	v	n/a
530.527	0.1045	1061054	keystroke	o	n/a
530.917	0.0895	1061834	keystroke	c	n/a
531.187	0.015	1062374	keystroke	a	n/a
531.352	0.075	1062704	keystroke	b	n/a
531.577	0.075	1063154	keystroke	u	n/a
531.772	0.105	1063544	keystroke	l	n/a
531.922	0.15	1063844	keystroke	a	n/a
532.102	0.075	1064204	keystroke	r	n/a
532.267	0.075	1064534	keystroke	y	n/a
532.432	0.075	1064864	keystroke	Key.space	n/a
533.332	0.105	1066664	keystroke	p	n/a
533.6015	0.12	1067203	keystroke	a	n/a
533.8875	0.089	1067775	keystroke	c	n/a
534.0375	0.0745	1068075	keystroke	k	n/a
534.2465	0.06	1068493	keystroke	a	n/a
534.3375	0.044	1068675	keystroke	a	n/a
534.4865	0.0755	1068973	keystroke	g	n/a
534.637	0.1495	1069274	keystroke	e	n/a
534.8015	0.09	1069603	keystroke	s	n/a
535.102	0.09	1070204	keystroke	Key.space	n/a
535.912	0.0595	1071824	keystroke	Key.backspace	n/a
536.0765	0.045	1072153	keystroke	Key.backspace	n/a
536.2265	0.045	1072453	keystroke	Key.backspace	n/a
536.3765	0.045	1072753	keystroke	Key.backspace	n/a
536.5265	0.0605	1073053	keystroke	Key.backspace	n/a
538.7335	0.044	1077467	keystroke	g	n/a
538.8215	0.0155	1077643	keystroke	e	n/a
538.8375	0.0885	1077675	keystroke	s	n/a
539.602	0.1045	1079204	keystroke	Key.enter	n/a
539.713	10.1055	1079426	prompt	n/a	escorts cigarettes illustrated months\n
540.682	0.0745	1081364	keystroke	e	n/a
541.1015	0.0605	1082203	keystroke	s	n/a
541.2965	0.0905	1082593	keystroke	c	n/a
541.4165	0.1055	1082833	keystroke	o	n/a
541.552	0.09	1083104	keystroke	r	n/a
541.747	0.06	1083494	keystroke	t	n/a
541.897	0.09	1083794	keystroke	s	n/a
542.002	0.135	1084004	keystroke	Key.space	n/a
543.007	0.075	1086014	keystroke	c	n/a
543.186	0.075	1086372	keystroke	i	n/a
544.042	0.105	1088084	keystroke	g	n/a
544.192	0.1045	1088384	keystroke	a	n/a
544.3865	0.1205	1088773	keystroke	r	n/a
544.552	0.1195	1089104	keystroke	e	n/a
544.7765	0.045	1089553	keystroke	t	n/a
545.0465	0.06	1090093	keystroke	e	n/a
545.587	0.09	1091174	keystroke	Key.backspace	n/a
545.7515	0.12	1091503	keystroke	t	n/a
546.157	0.09	1092314	keystroke	e	n/a
546.367	0.09	1092734	keystroke	s	n/a
546.592	0.15	1093184	keystroke	Key.space	n/a
546.952	0.075	1093904	keystroke	i	n/a
547.282	0.044	1094564	keystroke	l	n/a
547.432	0.06	1094864	keystroke	l	n/a
547.582	0.105	1095164	keystroke	u	n/a
547.717	0.09	1095434	keystroke	s	n/a
547.881	0.091	1095762	keystroke	t	n/a
548.076	0.106	1096152	keystroke	r	n/a
548.197	0.135	1096394	keystroke	a	n/a
548.347	0.075	1096694	keystroke	t	n/a
548.497	0.06	1096994	keystroke	e	n/a
548.677	0.09	1097354	keystroke	d	n/a
548.752	0.165	1097504	keystroke	Key.space	n/a
548.901	0.1205	1097802	keystroke	m	n/a
549.007	0.195	1098014	keystroke	o	n/a
549.187	0.1045	1098374	keystroke	n	n/a
549.3065	0.09	1098613	keystroke	t	n/a
549.4265	0.1205	1098853	keystroke	h	n/a
549.532	0.09	1099064	keystroke	s	n/a
549.727	0.09	1099454	keystroke	Key.enter	n/a
549.8225	16.406	1099645	prompt	n/a	ranging syracuse prostores collapse\n
551.482	0.09	1102964	keystroke	r	n/a
551.632	0.075	1103264	keystroke	a	n/a
551.812	0.105	1103624	keystroke	n	n/a
551.962	0.075	1103924	keystroke	g	n/a
552.082	0.135	1104164	keystroke	i	n/a
552.1875	0.1195	1104375	keystroke	n	n/a
552.352	0.075	1104704	keystroke	g	n/a
552.442	0.105	1104884	keystroke	Key.space	n/a
553.417	0.1055	1106834	keystroke	s	n/a
554.542	0.12	1109084	keystroke	y	n/a
554.767	0.135	1109534	keystroke	r	n/a
554.9325	0.0745	1109865	keystroke	a	n/a
555.3675	0.059	1110735	keystroke	c	n/a
555.4715	0.075	1110943	keystroke	u	n/a
555.637	0.1655	1111274	keystroke	s	n/a
555.7575	0.1045	1111515	keystroke	e	n/a
555.9215	0.09	1111843	keystroke	Key.space	n/a
556.2525	0.1495	1112505	keystroke	p	n/a
556.897	0.12	1113794	keystroke	r	n/a
557.092	0.0905	1114184	keystroke	o	n/a
557.392	0.12	1114784	keystroke	s	n/a
557.842	0.15	1115684	keystroke	t	n/a
558.067	0.105	1116134	keystroke	o	n/a
558.202	0.12	1116404	keystroke	r	n/a
558.337	0.12	1116674	keystroke	e	n/a
558.577	0.09	1117154	keystroke	s	n/a
558.772	0.0895	1117544	keystroke	Key.space	n/a
564.744	0.028	1129488	keystroke	c	n/a
564.802	0.105	1129604	keystroke	o	n/a
565.057	0.03	1130114	keystroke	l	n/a
565.177	0.0605	1130354	keystroke	l	n/a
565.297	0.075	1130594	keystroke	a	n/a
565.4175	0.0745	1130835	keystroke	p	n/a
565.747	0.12	1131494	keystroke	s	n/a
565.837	0.0905	1131674	keystroke	e	n/a
566.137	0.09	1132274	keystroke	Key.enter	n/a
566.2325	7.707	1132465	prompt	n/a	encouraged played reduction socket\n
567.142	0.075	1134284	keystroke	e	n/a
567.262	0.1345	1134524	keystroke	n	n/a
567.4115	0.091	1134823	keystroke	c	n/a
567.5175	0.149	1135035	keystroke	o	n/a
567.6075	0.12	1135215	keystroke	u	n/a
567.7575	0.12	1135515	keystroke	r	n/a
567.8925	0.075	1135785	keystroke	a	n/a
568.0275	0.075	1136055	keystroke	g	n/a
568.1765	0.091	1136353	keystroke	e	n/a
568.732	0.075	1137464	keystroke	d	n/a
568.837	0.12	1137674	keystroke	Key.space	n/a
568.942	0.09	1137884	keystroke	p	n/a
569.152	0.074	1138304	keystroke	l	n/a
569.2575	0.0895	1138515	keystroke	a	n/a
569.407	0.09	1138814	keystroke	y	n/a
569.542	0.0905	1139084	keystroke	e	n/a
569.7375	0.0445	1139475	keystroke	d	n/a
569.752	0.1495	1139504	keystroke	Key.space	n/a
570.0215	0.166	1140043	keystroke	r	n/a
570.157	0.09	1140314	keystroke	e	n/a
570.382	0.0895	1140764	keystroke	d	n/a
570.5315	0.06	1141063	keystroke	u	n/a
572.032	0.09	1144064	keystroke	c	n/a
572.272	0.09	1144544	keystroke	t	n/a
572.377	0.105	1144754	keystroke	i	n/a
572.467	0.135	1144934	keystroke	o	n/a
572.557	0.18	1145114	keystroke	n	n/a
572.722	0.105	1145444	keystroke	Key.space	n/a
572.872	0.105	1145744	keystroke	s	n/a
573.0375	0.0745	1146075	keystroke	o	n/a
573.172	0.0755	1146344	keystroke	c	n/a
573.3075	0.09	1146615	keystroke	k	n/a
573.4425	0.15	1146885	keystroke	e	n/a
573.5475	0.12	1147095	keystroke	t	n/a
573.8475	0.09	1147695	keystroke	Key.enter	n/a
573.9435	12.28	1147887	prompt	n/a	move affecting seal pushing\n
575.6025	0.075	1151205	keystroke	m	n/a
575.7075	0.105	1151415	keystroke	v	n/a
576.2765	0.0755	1152553	keystroke	Key.backspace	n/a
576.5315	0.135	1153063	keystroke	m	n/a
576.6825	0.089	1153365	keystroke	o	n/a
576.8165	0.1055	1153633	keystroke	v	n/a
577.162	0.045	1154324	keystroke	Key.backspace	n/a
577.312	0.03	1154624	keystroke	Key.backspace	n/a
577.432	0.06	1154864	keystroke	Key.backspace	n/a
577.672	0.075	1155344	keystroke	o	n/a
577.8225	0.0595	1155645	keystroke	v	n/a
577.927	0.15	1155854	keystroke	e	n/a
578.107	0.09	1156214	keystroke	Key.space	n/a
578.242	0.12	1156484	keystroke	a	n/a
578.452	0.06	1156904	keystroke	f	n/a
578.632	0.045	1157264	keystroke	f	n/a
578.737	0.105	1157474	keystroke	e	n/a
579.3965	0.091	1158793	keystroke	c	n/a
579.6365	0.076	1159273	keystroke	t	n/a
579.7125	0.15	1159425	keystroke	i	n/a
579.8175	0.135	1159635	keystroke	n	n/a
580.0725	0.09	1160145	keystroke	Key.space	n/a
580.522	0.105	1161044	keystroke	Key.backspace	n/a
580.867	0.1205	1161734	keystroke	g	n/a
581.257	0.0905	1162514	keystroke	Key.space	n/a
581.4375	0.075	1162875	keystroke	d	n/a
582.0515	0.135	1164103	keystroke	Key.backspace	n/a
582.2015	0.061	1164403	keystroke	f	n/a
582.2765	0.166	1164553	keystroke	e	n/a
582.4125	0.119	1164825	keystroke	a	n/a
582.8315	0.06	1165663	keystroke	Key.backspace	n/a
583.012	0.0295	1166024	keystroke	Key.backspace	n/a
583.1915	0.015	1166383	keystroke	Key.backspace	n/a
584.107	0.0755	1168214	keystroke	s	n/a
584.3325	0.134	1168665	keystroke	e	n/a
584.4675	0.089	1168935	keystroke	a	n/a
584.6175	0.164	1169235	keystroke	l	n/a
584.7365	0.135	1169473	keystroke	Key.space	n/a
584.9325	0.1195	1169865	keystroke	p	n/a
585.142	0.12	1170284	keystroke	u	n/a
585.5475	0.0895	1171095	keystroke	s	n/a
585.6525	0.0595	1171305	keystroke	h	n/a
585.682	0.195	1171364	keystroke	i	n/a
585.832	0.12	1171664	keystroke	n	n/a
585.937	0.09	1171874	keystroke	g	n/a
586.147	0.075	1172294	keystroke	Key.enter	n/a
586.228	5.5455	1172456	prompt	n/a	mario founder packet closing\n
587.2125	0.1195	1174425	keystroke	m	n/a
587.347	0.105	1174694	keystroke	a	n/a
587.497	0.105	1174994	keystroke	r	n/a
587.617	0.09	1175234	keystroke	i	n/a
587.752	0.135	1175504	keystroke	o	n/a
587.8875	0.0895	1175775	keystroke	Key.space	n/a
588.067	0.105	1176134	keystroke	f	n/a
588.142	0.15	1176284	keystroke	o	n/a
588.247	0.075	1176494	keystroke	u	n/a
588.442	0.105	1176884	keystroke	n	n/a
588.5625	0.0595	1177125	keystroke	d	n/a
588.697	0.18	1177394	keystroke	e	n/a
588.832	0.1205	1177664	keystroke	r	n/a
588.982	0.105	1177964	keystroke	Key.space	n/a
589.477	0.12	1178954	keystroke	p	n/a
589.582	0.0755	1179164	keystroke	a	n/a
589.747	0.0755	1179494	keystroke	c	n/a
589.837	0.0755	1179674	keystroke	k	n/a
589.987	0.12	1179974	keystroke	e	n/a
590.092	0.09	1180184	keystroke	t	n/a
590.197	0.09	1180394	keystroke	Key.space	n/a
590.3915	0.105	1180783	keystroke	c	n/a
590.512	0.0745	1181024	keystroke	l	n/a
590.6925	0.06	1181385	keystroke	o	n/a
590.7965	0.075	1181593	keystroke	s	n/a
591.277	0.15	1182554	keystroke	i	n/a
591.382	0.165	1182764	keystroke	n	n/a
591.502	0.09	1183004	keystroke	g	n/a
591.712	0.06	1183424	keystroke	Key.enter	n/a
591.777	5.9815	1183554	prompt	n/a	nonprofit benefits vital liver\n
592.627	0.12	1185254	keystroke	n	n/a
592.777	0.15	1185554	keystroke	o	n/a
592.912	0.105	1185824	keystroke	n	n/a
593.152	0.06	1186304	keystroke	p	n/a
593.272	0.075	1186544	keystroke	r	n/a
593.377	0.075	1186754	keystroke	o	n/a
593.542	0.0905	1187084	keystroke	f	n/a
593.662	0.075	1187324	keystroke	i	n/a
593.8125	0.0895	1187625	keystroke	t	n/a
594.007	0.105	1188014	keystroke	Key.space	n/a
594.502	0.06	1189004	keystroke	b	n/a
594.607	0.075	1189214	keystroke	e	n/a
594.802	0.09	1189604	keystroke	n	n/a
594.9375	0.0595	1189875	keystroke	e	n/a
595.1165	0.121	1190233	keystroke	f	n/a
595.2665	0.1055	1190533	keystroke	i	n/a
595.4025	0.0895	1190805	keystroke	t	n/a
595.567	0.09	1191134	keystroke	s	n/a
595.687	0.09	1191374	keystroke	Key.space	n/a
595.987	0.09	1191974	keystroke	v	n/a
596.092	0.075	1192184	keystroke	i	n/a
596.212	0.1205	1192424	keystroke	t	n/a
596.3775	0.075	1192755	keystroke	a	n/a
596.542	0.165	1193084	keystroke	l	n/a
596.692	0.12	1193384	keystroke	Key.space	n/a
596.992	0.0905	1193984	keystroke	l	n/a
597.1575	0.0595	1194315	keystroke	i	n/a
597.217	0.09	1194434	keystroke	v	n/a
597.4125	0.12	1194825	keystroke	e	n/a
597.5175	0.1045	1195035	keystroke	r	n/a
597.667	0.09	1195334	keystroke	Key.enter	n/a
597.762	6.9115	1195524	prompt	n/a	target messages spaces sell\n
598.492	0.09	1196984	keystroke	t	n/a
599.0025	0.15	1198005	keystroke	a	n/a
599.2125	0.089	1198425	keystroke	r	n/a
599.437	0.0595	1198874	keystroke	g	n/a
599.6165	0.1355	1199233	keystroke	e	n/a
599.7665	0.09	1199533	keystroke	t	n/a
600.022	0.135	1200044	keystroke	Key.space	n/a
600.757	0.09	1201514	keystroke	m	n/a
600.892	0.06	1201784	keystroke	e	n/a
601.117	0.0455	1202234	keystroke	s	n/a
601.252	0.0895	1202504	keystroke	s	n/a
601.6265	0.06	1203253	keystroke	a	n/a
601.8215	0.075	1203643	keystroke	g	n/a
601.9715	0.1205	1203943	keystroke	e	n/a
602.1075	0.1345	1204215	keystroke	s	n/a
602.257	0.105	1204514	keystroke	Key.space	n/a
602.4075	0.09	1204815	keystroke	s	n/a
602.512	0.105	1205024	keystroke	p	n/a
602.632	0.09	1205264	keystroke	a	n/a
602.797	0.15	1205594	keystroke	c	n/a
602.932	0.12	1205864	keystroke	e	n/a
603.0975	0.1045	1206195	keystroke	s	n/a
603.2465	0.0905	1206493	keystroke	Key.space	n/a
603.3665	0.105	1206733	keystroke	c	n/a
603.8165	0.075	1207633	keystroke	Key.backspace	n/a
603.907	0.1645	1207814	keystroke	s	n/a
604.0415	0.1055	1208083	keystroke	e	n/a
604.207	0.105	1208414	keystroke	l	n/a
604.4025	0.059	1208805	keystroke	l	n/a
604.5965	0.0755	1209193	keystroke	Key.enter	n/a
604.6795	7.5095	1209359	prompt	n/a	glenn wesley hint ambient\n
606.007	0.075	1212014	keystroke	g	n/a
606.4715	0.105	1212943	keystroke	l	n/a
606.5915	0.091	1213183	keystroke	e	n/a
606.7425	0.06	1213485	keystroke	n	n/a
607.282	0.1505	1214564	keystroke	n	n/a
607.387	0.1205	1214774	keystroke	Key.space	n/a
607.5515	0.15	1215103	keystroke	w	n/a
607.6565	0.12	1215313	keystroke	e	n/a
607.927	0.0895	1215854	keystroke	s	n/a
608.6915	0.091	1217383	keystroke	l	n/a
608.8575	0.044	1217715	keystroke	e	n/a
608.9475	0.1345	1217895	keystroke	y	n/a
609.172	0.09	1218344	keystroke	Key.space	n/a
609.3375	0.1045	1218675	keystroke	h	n/a
609.502	0.15	1219004	keystroke	i	n/a
609.6065	0.1505	1219213	keystroke	n	n/a
609.8165	0.105	1219633	keystroke	t	n/a
609.937	0.1205	1219874	keystroke	Key.space	n/a
610.132	0.09	1220264	keystroke	a	n/a
610.507	0.0755	1221014	keystroke	m	n/a
610.777	0.044	1221554	keystroke	b	n/a
611.107	0.12	1222214	keystroke	i	n/a
611.377	0.105	1222754	keystroke	e	n/a
611.4965	0.075	1222993	keystroke	n	n/a
611.647	0.09	1223294	keystroke	t	n/a
612.052	0.135	1224104	keystroke	Key.enter	n/a
612.194	9.25	1224388	prompt	n/a	duties centres insider lopez\n
613.3875	0.1195	1226775	keystroke	d	n/a
613.537	0.105	1227074	keystroke	u	n/a
613.672	0.09	1227344	keystroke	t	n/a
613.7775	0.1195	1227555	keystroke	i	n/a
613.912	0.105	1227824	keystroke	e	n/a
614.047	0.135	1228094	keystroke	s	n/a
614.182	0.12	1228364	keystroke	Key.space	n/a
614.632	0.105	1229264	keystroke	c	n/a
614.7825	0.0745	1229565	keystroke	e	n/a
614.857	0.105	1229714	keystroke	n	n/a
614.977	0.06	1229954	keystroke	t	n/a
615.5925	0.12	1231185	keystroke	r	n/a
615.6965	0.1055	1231393	keystroke	e	n/a
615.9375	0.089	1231875	keystroke	s	n/a
616.1165	0.09	1232233	keystroke	Key.space	n/a
618.022	0.1195	1236044	keystroke	i	n/a
618.157	0.105	1236314	keystroke	n	n/a
618.3215	0.105	1236643	keystroke	s	n/a
618.4275	0.105	1236855	keystroke	i	n/a
618.5465	0.075	1237093	keystroke	d	n/a
618.6965	0.075	1237393	keystroke	e	n/a
618.8165	0.09	1237633	keystroke	Key.space	n/a
619.5965	0.0905	1239193	keystroke	l	n/a
619.7915	0.075	1239583	keystroke	o	n/a
620.0015	0.075	1240003	keystroke	p	n/a
620.1215	0.0755	1240243	keystroke	e	n/a
621.1725	0.0895	1242345	keystroke	z	n/a
621.322	0.12	1242644	keystroke	Key.enter	n/a
621.449	10.7795	1242898	prompt	n/a	jackie elegant commitments attending\n
624.564	0.028	1249128	keystroke	j	n/a
624.6525	0.0745	1249305	keystroke	a	n/a
624.922	0.0745	1249844	keystroke	c	n/a
625.0115	0.075	1250023	keystroke	k	n/a
626.017	0.0905	1252034	keystroke	i	n/a
626.1215	0.076	1252243	keystroke	e	n/a
626.2565	0.09	1252513	keystroke	Key.space	n/a
626.5115	0.061	1253023	keystroke	e	n/a
626.6765	0.09	1253353	keystroke	l	n/a
626.7965	0.075	1253593	keystroke	e	n/a
627.052	0.0595	1254104	keystroke	g	n/a
627.1725	0.105	1254345	keystroke	a	n/a
627.2925	0.09	1254585	keystroke	n	n/a
627.457	0.09	1254914	keystroke	t	n/a
627.577	0.09	1255154	keystroke	Key.space	n/a
627.832	0.09	1255664	keystroke	c	n/a
627.967	0.06	1255934	keystroke	o	n/a
628.3415	0.06	1256683	keystroke	m	n/a
628.4915	0.091	1256983	keystroke	m	n/a
629.5265	0.12	1259053	keystroke	i	n/a
629.8275	0.0595	1259655	keystroke	t	n/a
630.022	0.0755	1260044	keystroke	m	n/a
630.1265	0.075	1260253	keystroke	e	n/a
630.2465	0.075	1260493	keystroke	n	n/a
630.307	0.0895	1260614	keystroke	t	n/a
630.4565	0.1055	1260913	keystroke	s	n/a
630.5765	0.1055	1261153	keystroke	Key.space	n/a
630.9065	0.09	1261813	keystroke	a	n/a
631.1015	0.03	1262203	keystroke	t	n/a
631.2215	0.045	1262443	keystroke	t	n/a
631.3715	0.075	1262743	keystroke	e	n/a
631.477	0.0895	1262954	keystroke	n	n/a
631.627	0.0895	1263254	keystroke	d	n/a
631.687	0.15	1263374	keystroke	i	n/a
631.7915	0.12	1263583	keystroke	n	n/a
631.9415	0.0905	1263883	keystroke	g	n/a
632.137	0.0895	1264274	keystroke	Key.enter	n/a
632.2335	6.97	1264467	prompt	n/a	cookies paris volunteer relates\n
632.9775	0.0895	1265955	keystroke	c	n/a
633.112	0.075	1266224	keystroke	o	n/a
633.2915	0.09	1266583	keystroke	o	n/a
633.487	0.0445	1266974	keystroke	k	n/a
633.637	0.09	1267274	keystroke	i	n/a
633.757	0.075	1267514	keystroke	e	n/a
633.9365	0.0755	1267873	keystroke	s	n/a
634.0415	0.105	1268083	keystroke	Key.space	n/a
634.162	0.1195	1268324	keystroke	p	n/a
634.2665	0.15	1268533	keystroke	a	n/a
634.4315	0.076	1268863	keystroke	r	n/a
634.552	0.0895	1269104	keystroke	i	n/a
634.7015	0.075	1269403	keystroke	s	n/a
634.8215	0.105	1269643	keystroke	Key.space	n/a
635.692	0.075	1271384	keystroke	v	n/a
635.827	0.105	1271654	keystroke	o	n/a
636.037	0.075	1272074	keystroke	l	n/a
636.202	0.09	1272404	keystroke	u	n/a
636.427	0.105	1272854	keystroke	n	n/a
636.5775	0.0745	1273155	keystroke	t	n/a
637.267	0.0295	1274534	keystroke	e	n/a
637.4165	0.1205	1274833	keystroke	e	n/a
637.507	0.1045	1275014	keystroke	r	n/a
637.6415	0.0905	1275283	keystroke	Key.space	n/a
637.777	0.135	1275554	keystroke	r	n/a
637.882	0.0745	1275764	keystroke	e	n/a
638.0015	0.1355	1276003	keystroke	l	n/a
638.122	0.105	1276244	keystroke	a	n/a
638.211	0.136	1276422	keystroke	t	n/a
638.377	0.105	1276754	keystroke	e	n/a
638.497	0.12	1276994	keystroke	s	n/a
639.112	0.09	1278224	keystroke	Key.enter	n/a
639.207	11.1865	1278414	prompt	n/a	wichita struggle fabulous scottish\n
641.6485	0.043	1283297	keystroke	w	n/a
641.887	0.1345	1283774	keystroke	i	n/a
642.3525	0.134	1284705	keystroke	c	n/a
642.547	0.1045	1285094	keystroke	h	n/a
642.667	0.12	1285334	keystroke	i	n/a
642.832	0.1205	1285664	keystroke	t	n/a
642.981	0.076	1285962	keystroke	a	n/a
643.342	0.06	1286684	keystroke	Key.space	n/a
643.9715	0.1055	1287943	keystroke	s	n/a
644.1815	0.075	1288363	keystroke	t	n/a
644.3915	0.075	1288783	keystroke	r	n/a
644.557	0.0595	1289114	keystroke	u	n/a
644.737	0.0595	1289474	keystroke	g	n/a
644.8715	0.0605	1289743	keystroke	g	n/a
644.962	0.12	1289924	keystroke	l	n/a
645.097	0.105	1290194	keystroke	e	n/a
645.216	0.121	1290432	keystroke	Key.space	n/a
646.0715	0.06	1292143	keystroke	f	n/a
646.266	0.1065	1292532	keystroke	a	n/a
647.167	0.075	1294334	keystroke	b	n/a
647.466	0.0915	1294932	keystroke	u	n/a
647.722	0.074	1295444	keystroke	l	n/a
647.9165	0.12	1295833	keystroke	o	n/a
648.0515	0.12	1296103	keystroke	u	n/a
648.2465	0.1055	1296493	keystroke	s	n/a
648.3965	0.075	1296793	keystroke	Key.space	n/a
648.5465	0.105	1297093	keystroke	s	n/a
648.7265	0.09	1297453	keystroke	c	n/a
649.4015	0.09	1298803	keystroke	o	n/a
649.6275	0.045	1299255	keystroke	t	n/a
649.7475	0.074	1299495	keystroke	t	n/a
649.8515	0.09	1299703	keystroke	i	n/a
649.9715	0.0905	1299943	keystroke	s	n/a
650.0915	0.075	1300183	keystroke	h	n/a
650.287	0.1045	1300574	keystroke	Key.enter	n/a
650.398	14.44	1300796	prompt	n/a	enhancing subsidiary launch egypt\n
651.3685	0.104	1302737	keystroke	e	n/a
651.4875	0.09	1302975	keystroke	n	n/a
651.7875	0.0595	1303575	keystroke	h	n/a
651.8915	0.0895	1303783	keystroke	a	n/a
652.027	0.075	1304054	keystroke	n	n/a
653.362	0.075	1306724	keystroke	c	n/a
653.466	0.151	1306932	keystroke	i	n/a
653.5725	0.1195	1307145	keystroke	n	n/a
653.752	0.075	1307504	keystroke	g	n/a
653.902	0.089	1307804	keystroke	Key.space	n/a
655.4015	0.015	1310803	keystroke	s	n/a
655.5665	0.075	1311133	keystroke	u	n/a
656.1965	0.105	1312393	keystroke	b	n/a
656.737	0.09	1313474	keystroke	s	n/a
656.8715	0.075	1313743	keystroke	i	n/a
657.517	0.105	1315034	keystroke	d	n/a
658.387	0.135	1316774	keystroke	i	n/a
658.612	0.12	1317224	keystroke	a	n/a
658.747	0.105	1317494	keystroke	r	n/a
658.912	0.089	1317824	keystroke	y	n/a
659.0915	0.12	1318183	keystroke	Key.space	n/a
659.3465	0.09	1318693	keystroke	l	n/a
659.4515	0.075	1318903	keystroke	a	n/a
659.587	0.075	1319174	keystroke	u	n/a
659.797	0.0895	1319594	keystroke	n	n/a
659.9325	0.0445	1319865	keystroke	d	n/a
660.4415	0.1055	1320883	keystroke	Key.backspace	n/a
660.5625	0.074	1321125	keystroke	c	n/a
660.7115	0.0905	1321423	keystroke	h	n/a
660.982	0.12	1321964	keystroke	Key.space	n/a
662.257	0.0895	1324514	keystroke	e	n/a
662.8565	0.0905	1325713	keystroke	g	n/a
663.8615	0.12	1327723	keystroke	y	n/a
664.416	0.105	1328832	keystroke	p	n/a
664.5515	0.075	1329103	keystroke	t	n/a
664.716	0.1205	1329432	keystroke	Key.enter	n/a
664.8415	6.912	1329683	prompt	n/a	humanitarian hormone realty class\n
665.871	0.045	1331742	keystroke	h	n/a
666.052	0.0745	1332104	keystroke	u	n/a
666.277	0.0745	1332554	keystroke	m	n/a
666.4415	0.03	1332883	keystroke	a	n/a
666.5015	0.1205	1333003	keystroke	n	n/a
666.607	0.1045	1333214	keystroke	i	n/a
666.9665	0.1055	1333933	keystroke	t	n/a
667.1015	0.0755	1334203	keystroke	a	n/a
667.3415	0.09	1334683	keystroke	r	n/a
667.4615	0.1205	1334923	keystroke	i	n/a
667.5665	0.0605	1335133	keystroke	a	n/a
667.6715	0.15	1335343	keystroke	n	n/a
667.8065	0.12	1335613	keystroke	Key.space	n/a
668.0915	0.091	1336183	keystroke	h	n/a
668.257	0.135	1336514	keystroke	o	n/a
668.857	0.045	1337714	keystroke	r	n/a
669.067	0.075	1338134	keystroke	m	n/a
669.127	0.21	1338254	keystroke	o	n/a
669.292	0.15	1338584	keystroke	n	n/a
669.487	0.075	1338974	keystroke	e	n/a
669.591	0.1055	1339182	keystroke	Key.space	n/a
669.9215	0.1805	1339843	keystroke	r	n/a
670.0715	0.1655	1340143	keystroke	e	n/a
670.222	0.119	1340444	keystroke	a	n/a
670.4015	0.106	1340803	keystroke	l	n/a
670.566	0.0905	1341132	keystroke	t	n/a
670.717	0.149	1341434	keystroke	y	n/a
670.821	0.12	1341642	keystroke	Key.space	n/a
671.001	0.1055	1342002	keystroke	c	n/a
671.1215	0.105	1342243	keystroke	l	n/a
671.2415	0.0605	1342483	keystroke	a	n/a
671.4065	0.06	1342813	keystroke	s	n/a
671.572	0.0445	1343144	keystroke	s	n/a
671.677	0.0745	1343354	keystroke	Key.enter	n/a
671.7575	20.816	1343515	prompt	n/a	berry girl responsibility egypt\n
672.4715	0.075	1344943	keystroke	b	n/a
672.5915	0.15	1345183	keystroke	e	n/a
672.7115	0.0905	1345423	keystroke	r	n/a
673.3415	0.075	1346683	keystroke	r	n/a
673.5065	0.1345	1347013	keystroke	y	n/a
673.627	0.12	1347254	keystroke	Key.space	n/a
674.766	0.106	1349532	keystroke	g	n/a
675.067	0.1345	1350134	keystroke	i	n/a
675.1865	0.0905	1350373	keystroke	r	n/a
675.352	0.1345	1350704	keystroke	l	n/a
675.4875	0.134	1350975	keystroke	Key.space	n/a
675.697	0.1795	1351394	keystroke	r	n/a
675.846	0.0905	1351692	keystroke	e	n/a
676.0565	0.076	1352113	keystroke	p	n/a
676.1615	0.075	1352323	keystroke	s	n/a
676.4315	0.045	1352863	keystroke	o	n/a
676.7325	0.0895	1353465	keystroke	n	n/a
677.152	0.0745	1354304	keystroke	s	n/a
677.3165	0.09	1354633	keystroke	i	n/a
677.5415	0.075	1355083	keystroke	b	n/a
677.6915	0.1055	1355383	keystroke	i	n/a
677.947	0.105	1355894	keystroke	l	n/a
678.0665	0.075	1356133	keystroke	i	n/a
678.2915	0.09	1356583	keystroke	t	n/a
678.5015	0.12	1357003	keystroke	y	n/a
678.772	0.0895	1357544	keystroke	Key.space	n/a
679.5215	0.06	1359043	keystroke	Key.backspace	n/a
679.702	0.045	1359404	keystroke	Key.backspace	n/a
679.852	0.0445	1359704	keystroke	Key.backspace	n/a
680.002	0.06	1360004	keystroke	Key.backspace	n/a
680.1665	0.045	1360333	keystroke	Key.backspace	n/a
680.3165	0.0605	1360633	keystroke	Key.backspace	n/a
680.4965	0.045	1360993	keystroke	Key.backspace	n/a
681.3815	0.0605	1362763	keystroke	b	n/a
681.5615	0.0905	1363123	keystroke	i	n/a
681.772	0.135	1363544	keystroke	l	n/a
681.891	0.106	1363782	keystroke	i	n/a
682.027	0.074	1364054	keystroke	t	n/a
682.177	0.12	1364354	keystroke	y	n/a
682.3415	0.09	1364683	keystroke	Key.space	n/a
685.416	0.03	1370832	keystroke	Key.backspace	n/a
685.581	0.045	1371162	keystroke	Key.backspace	n/a
686.391	0.075	1372782	keystroke	Key.backspace	n/a
686.887	0.075	1373774	keystroke	s	n/a
687.208	0.054	1374416	keystroke	p	n/a
687.397	0.044	1374794	keystroke	o	n/a
687.5615	0.105	1375123	keystroke	n	n/a
687.7415	0.0905	1375483	keystroke	s	n/a
687.8615	0.0895	1375723	keystroke	i	n/a
688.101	0.09	1376202	keystroke	b	n/a
688.2515	0.0895	1376503	keystroke	i	n/a
688.477	0.1355	1376954	keystroke	l	n/a
688.5815	0.135	1377163	keystroke	i	n/a
688.777	0.089	1377554	keystroke	t	n/a
688.896	0.09	1377792	keystroke	y	n/a
689.152	0.0595	1378304	keystroke	Key.space	n/a
690.8465	0.105	1381693	keystroke	e	n/a
691.4465	0.0605	1382893	keystroke	g	n/a
691.6565	0.0755	1383313	keystroke	y	n/a
692.227	0.0895	1384454	keystroke	p	n/a
692.347	0.075	1384694	keystroke	t	n/a
692.4665	0.1055	1384933	keystroke	Key.enter	n/a
692.5775	8.2755	1385155	prompt	n/a	carlo arrives success entertainment\n
693.6365	0.105	1387273	keystroke	c	n/a
693.7865	0.15	1387573	keystroke	a	n/a
693.9665	0.06	1387933	keystroke	r	n/a
694.0865	0.0595	1388173	keystroke	l	n/a
694.2365	0.1505	1388473	keystroke	o	n/a
694.3715	0.1195	1388743	keystroke	Key.space	n/a
694.4765	0.1205	1388953	keystroke	a	n/a
694.627	0.045	1389254	keystroke	r	n/a
694.762	0.09	1389524	keystroke	r	n/a
694.882	0.12	1389764	keystroke	i	n/a
695.002	0.089	1390004	keystroke	v	n/a
695.121	0.1505	1390242	keystroke	e	n/a
695.3165	0.0905	1390633	keystroke	s	n/a
695.8865	0.0905	1391773	keystroke	Key.space	n/a
696.157	0.0445	1392314	keystroke	s	n/a
696.4715	0.12	1392943	keystroke	u	n/a
697.057	0.075	1394114	keystroke	c	n/a
