onset	duration	sample	value	key	prompt_text
2.6125	18.797	5225	prompt	n/a	the quick brown fox jumps over a lazy dog\n
9.588	0.089	19176	keystroke	t	n/a
9.691	0.1055	19382	keystroke	h	n/a
9.8115	0.12	19623	keystroke	e	n/a
10.2465	0.18	20493	keystroke	Key.space	n/a
10.6515	0.15	21303	keystroke	q	n/a
10.8315	0.165	21663	keystroke	u	n/a
11.0715	0.1355	22143	keystroke	i	n/a
11.342	0.135	22684	keystroke	c	n/a
11.491	0.165	22982	keystroke	k	n/a
11.731	0.105	23462	keystroke	Key.space	n/a
12.152	0.1195	24304	keystroke	b	n/a
12.4515	0.135	24903	keystroke	r	n/a
12.6015	0.18	25203	keystroke	o	n/a
12.7365	0.15	25473	keystroke	w	n/a
12.9015	0.15	25803	keystroke	n	n/a
13.1115	0.12	26223	keystroke	Key.space	n/a
13.5615	0.1345	27123	keystroke	f	n/a
13.727	0.1495	27454	keystroke	o	n/a
14.0115	0.165	28023	keystroke	x	n/a
14.2215	0.105	28443	keystroke	Key.space	n/a
14.4465	0.105	28893	keystroke	j	n/a
14.6715	0.12	29343	keystroke	u	n/a
14.9565	0.2245	29913	keystroke	m	n/a
15.211	0.165	30422	keystroke	p	n/a
15.331	0.12	30662	keystroke	s	n/a
15.481	0.1055	30962	keystroke	Key.space	n/a
15.6915	0.135	31383	keystroke	o	n/a
15.7965	0.135	31593	keystroke	v	n/a
16.0365	0.165	32073	keystroke	e	n/a
16.2165	0.12	32433	keystroke	r	n/a
16.2915	0.12	32583	keystroke	Key.space	n/a
16.6215	0.105	33243	keystroke	Key.space	n/a
17.642	0.15	35284	keystroke	Key.backspace	n/a
18.0165	0.165	36033	keystroke	a	n/a
18.3315	0.12	36663	keystroke	Key.space	n/a
19.456	0.151	38912	keystroke	l	n/a
19.576	0.151	39152	keystroke	a	n/a
19.997	0.164	39994	keystroke	z	n/a
20.191	0.09	40382	keystroke	y	n/a
20.341	0.15	40682	keystroke	Key.space	n/a
20.567	0.135	41134	keystroke	d	n/a
20.702	0.165	41404	keystroke	o	n/a
20.882	0.12	41764	keystroke	g	n/a
21.302	0.104	42604	keystroke	Key.enter	n/a
21.414	8.965	42828	prompt	n/a	difficult fellow guided artist\n
22.0365	0.165	44073	keystroke	d	n/a
22.2165	0.09	44433	keystroke	i	n/a
22.3215	0.105	44643	keystroke	f	n/a
22.5315	0.09	45063	keystroke	f	n/a
22.7265	0.12	45453	keystroke	i	n/a
23.1015	0.1805	46203	keystroke	c	n/a
23.267	0.105	46534	keystroke	u	n/a
23.537	0.165	47074	keystroke	l	n/a
23.747	0.165	47494	keystroke	t	n/a
23.897	0.18	47794	keystroke	Key.space	n/a
24.707	0.1345	49414	keystroke	f	n/a
24.9315	0.15	49863	keystroke	e	n/a
25.1415	0.0905	50283	keystroke	l	n/a
25.2915	0.12	50583	keystroke	l	n/a
25.5315	0.135	51063	keystroke	o	n/a
25.6815	0.15	51363	keystroke	w	n/a
25.8465	0.12	51693	keystroke	Key.space	n/a
26.1015	0.166	52203	keystroke	g	n/a
26.327	0.15	52654	keystroke	u	n/a
26.597	0.12	53194	keystroke	i	n/a
26.882	0.075	53764	keystroke	d	n/a
27.182	0.045	54364	keystroke	e	n/a
27.407	0.1345	54814	keystroke	d	n/a
27.6615	0.165	55323	keystroke	Key.space	n/a
28.1265	0.165	56253	keystroke	a	n/a
28.5015	0.135	57003	keystroke	r	n/a
28.8165	0.0905	57633	keystroke	t	n/a
28.967	0.105	57934	keystroke	i	n/a
29.237	0.18	58474	keystroke	s	n/a
29.942	0.105	59884	keystroke	t	n/a
30.272	0.105	60544	keystroke	Key.enter	n/a
30.382	11.711	60764	prompt	n/a	penn truth halloween door\n
31.187	0.18	62374	keystroke	p	n/a
31.322	0.165	62644	keystroke	e	n/a
31.5315	0.105	63063	keystroke	n	n/a
31.6965	0.105	63393	keystroke	n	n/a
31.9215	0.165	63843	keystroke	Key.space	n/a
32.0715	0.105	64143	keystroke	t	n/a
32.2965	0.15	64593	keystroke	r	n/a
32.4615	0.105	64923	keystroke	u	n/a
34.306	0.121	68612	keystroke	t	n/a
34.502	0.105	69004	keystroke	h	n/a
34.666	0.105	69332	keystroke	Key.space	n/a
34.9965	0.105	69993	keystroke	h	n/a
35.5815	0.1505	71163	keystroke	a	n/a
36.587	0.105	73174	keystroke	l	n/a
36.781	0.105	73562	keystroke	l	n/a
37.756	0.136	75512	keystroke	o	n/a
38.0715	0.18	76143	keystroke	w	n/a
38.5815	0.105	77163	keystroke	e	n/a
38.7915	0.12	77583	keystroke	e	n/a
38.9265	0.15	77853	keystroke	n	n/a
39.1515	0.09	78303	keystroke	Key.space	n/a
40.4715	0.15	80943	keystroke	d	n/a
40.6365	0.15	81273	keystroke	o	n/a
41.251	0.12	82502	keystroke	o	n/a
41.521	0.121	83042	keystroke	r	n/a
41.956	0.135	83912	keystroke	Key.enter	n/a
42.096	23.9675	84192	prompt	n/a	leaves stood replica amsterdam\n
42.7665	0.165	85533	keystroke	l	n/a
42.8865	0.12	85773	keystroke	e	n/a
43.1565	0.195	86313	keystroke	a	n/a
43.876	0.135	87752	keystroke	v	n/a
44.1615	0.1495	88323	keystroke	e	n/a
44.5065	0.1195	89013	keystroke	s	n/a
44.686	0.135	89372	keystroke	Key.space	n/a
44.866	0.12	89732	keystroke	s	n/a
45.092	0.1195	90184	keystroke	t	n/a
45.2415	0.1055	90483	keystroke	o	n/a
45.452	0.09	90904	keystroke	o	n/a
45.617	0.21	91234	keystroke	d	n/a
45.782	0.135	91564	keystroke	Key.space	n/a
46.052	0.15	92104	keystroke	r	n/a
46.322	0.18	92644	keystroke	p	n/a
46.7715	0.135	93543	keystroke	l	n/a
47.0115	0.135	94023	keystroke	i	n/a
47.1315	0.18	94263	keystroke	c	n/a
47.3865	0.2255	94773	keystroke	a	n/a
47.641	0.135	95282	keystroke	Key.space	n/a
47.8515	0.165	95703	keystroke	a	n/a
48.1365	0.12	96273	keystroke	m	n/a
48.3465	0.165	96693	keystroke	s	n/a
51.484	0.001	102968	keystroke	Key.left	n/a
51.6465	0.075	103293	keystroke	Key.left	n/a
51.8415	0.06	103683	keystroke	Key.left	n/a
52.0365	0.06	104073	keystroke	Key.left	n/a
52.216	0.045	104432	keystroke	Key.left	n/a
52.366	0.06	104732	keystroke	Key.left	n/a
52.547	0.045	105094	keystroke	Key.left	n/a
52.892	0.09	105784	keystroke	Key.left	n/a
53.282	0.1045	106564	keystroke	Key.left	n/a
53.5515	0.1055	107103	keystroke	e	n/a
54.362	0.044	108724	keystroke	Key.up	n/a
54.511	0.046	109022	keystroke	Key.up	n/a
54.661	0.046	109322	keystroke	Key.up	n/a
54.8115	0.045	109623	keystroke	Key.up	n/a
54.9765	0.06	109953	keystroke	Key.up	n/a
56.101	0.06	112202	keystroke	Key.right	n/a
56.326	0.075	112652	keystroke	Key.right	n/a
56.5215	0.075	113043	keystroke	Key.right	n/a
56.6865	0.075	113373	keystroke	Key.right	n/a
56.8515	0.045	113703	keystroke	Key.right	n/a
56.9865	0.06	113973	keystroke	Key.right	n/a
57.1665	0.0595	114333	keystroke	Key.right	n/a
57.331	0.09	114662	keystroke	Key.right	n/a
57.541	0.075	115082	keystroke	Key.right	n/a
57.7965	0.09	115593	keystroke	Key.right	n/a
58.0665	0.075	116133	keystroke	Key.right	n/a
58.366	0.0605	116732	keystroke	Key.right	n/a
58.651	0.06	117302	keystroke	Key.right	n/a
58.921	0.06	117842	keystroke	Key.right	n/a
59.207	0.06	118414	keystroke	Key.right	n/a
59.462	0.0745	118924	keystroke	Key.right	n/a
59.792	0.06	119584	keystroke	Key.right	n/a
60.0465	0.09	120093	keystroke	Key.right	n/a
60.3465	0.075	120693	keystroke	Key.right	n/a
60.5715	0.105	121143	keystroke	Key.right	n/a
60.8115	0.09	121623	keystroke	Key.right	n/a
61.0215	0.09	122043	keystroke	Key.right	n/a
61.2465	0.105	122493	keystroke	Key.right	n/a
61.4865	0.09	122973	keystroke	Key.right	n/a
64.144	0.043	128288	keystroke	t	n/a
64.277	0.15	128554	keystroke	e	n/a
64.442	0.105	128884	keystroke	r	n/a
64.6965	0.135	129393	keystroke	d	n/a
65.3565	0.15	130713	keystroke	a	n/a
65.4915	0.135	130983	keystroke	m	n/a
65.942	0.12	131884	keystroke	Key.enter	n/a
66.08	9.9585	132160	prompt	n/a	tucson ment housewares edited\n
66.8265	0.105	133653	keystroke	t	n/a
67.006	0.151	134012	keystroke	u	n/a
67.847	0.105	135694	keystroke	c	n/a
68.087	0.15	136174	keystroke	s	n/a
68.222	0.12	136444	keystroke	o	n/a
68.387	0.165	136774	keystroke	n	n/a
68.566	0.106	137132	keystroke	Key.space	n/a
69.061	0.1205	138122	keystroke	m	n/a
69.2865	0.18	138573	keystroke	e	n/a
69.4815	0.12	138963	keystroke	n	n/a
69.6765	0.15	139353	keystroke	t	n/a
70.7115	0.105	141423	keystroke	Key.space	n/a
71.1015	0.18	142203	keystroke	h	n/a
71.2965	0.18	142593	keystroke	o	n/a
71.5215	0.1495	143043	keystroke	u	n/a
72.197	0.089	144394	keystroke	s	n/a
72.436	0.135	144872	keystroke	e	n/a
72.856	0.121	145712	keystroke	w	n/a
73.186	0.24	146372	keystroke	a	n/a
73.531	0.211	147062	keystroke	r	n/a
73.8315	0.15	147663	keystroke	e	n/a
74.1465	0.15	148293	keystroke	s	n/a
74.3415	0.0895	148683	keystroke	Key.space	n/a
74.536	0.105	149072	keystroke	e	n/a
74.806	0.15	149612	keystroke	d	n/a
74.896	0.15	149792	keystroke	i	n/a
75.121	0.12	150242	keystroke	t	n/a
75.331	0.105	150662	keystroke	e	n/a
75.556	0.135	151112	keystroke	d	n/a
75.931	0.105	151862	keystroke	Key.enter	n/a
76.0415	12.252	152083	prompt	n/a	multimedia provided bonus retain\n
77.057	0.1195	154114	keystroke	m	n/a
77.386	0.105	154772	keystroke	u	n/a
77.656	0.181	155312	keystroke	l	n/a
77.882	0.1195	155764	keystroke	t	n/a
78.0165	0.135	156033	keystroke	i	n/a
78.452	0.165	156904	keystroke	e	n/a
79.427	0.134	158854	keystroke	Key.backspace	n/a
80.1315	0.105	160263	keystroke	m	n/a
80.2365	0.135	160473	keystroke	e	n/a
80.5065	0.15	161013	keystroke	d	n/a
80.6115	0.12	161223	keystroke	i	n/a
80.9115	0.165	161823	keystroke	a	n/a
81.4215	0.135	162843	keystroke	Key.space	n/a
81.7665	0.18	163533	keystroke	p	n/a
82.0815	0.12	164163	keystroke	r	n/a
82.2165	0.09	164433	keystroke	o	n/a
82.3665	0.195	164733	keystroke	v	n/a
82.5765	0.105	165153	keystroke	i	n/a
82.6965	0.105	165393	keystroke	d	n/a
82.9365	0.09	165873	keystroke	e	n/a
83.1465	0.135	166293	keystroke	d	n/a
83.2815	0.1195	166563	keystroke	Key.space	n/a
83.777	0.12	167554	keystroke	b	n/a
84.002	0.15	168004	keystroke	o	n/a
84.257	0.15	168514	keystroke	n	n/a
84.617	0.1195	169234	keystroke	u	n/a
84.7515	0.15	169503	keystroke	s	n/a
84.8865	0.15	169773	keystroke	Key.space	n/a
85.2615	0.105	170523	keystroke	t	n/a
85.6815	0.195	171363	keystroke	r	n/a
86.1465	0.135	172293	keystroke	Key.backspace	n/a
86.4615	0.12	172923	keystroke	Key.backspace	n/a
86.7015	0.135	173403	keystroke	r	n/a
86.8665	0.165	173733	keystroke	e	n/a
87.167	0.0595	174334	keystroke	t	n/a
87.3915	0.195	174783	keystroke	a	n/a
87.5715	0.15	175143	keystroke	i	n/a
87.7665	0.135	175533	keystroke	n	n/a
88.2015	0.09	176403	keystroke	Key.enter	n/a
88.298	16.031	176596	prompt	n/a	biol kathy requesting gzip\n
89.117	0.164	178234	keystroke	b	n/a
89.236	0.105	178472	keystroke	i	n/a
89.506	0.135	179012	keystroke	l	n/a
90.061	0.105	180122	keystroke	y	n/a
91.036	0.06	182072	keystroke	Key.backspace	n/a
91.231	0.09	182462	keystroke	Key.backspace	n/a
91.681	0.105	183362	keystroke	o	n/a
91.951	0.241	183902	keystroke	l	n/a
92.236	0.15	184472	keystroke	Key.space	n/a
92.551	0.1505	185102	keystroke	k	n/a
93.0465	0.195	186093	keystroke	a	n/a
93.3765	0.12	186753	keystroke	t	n/a
93.5265	0.1205	187053	keystroke	h	n/a
93.8265	0.1355	187653	keystroke	y	n/a
94.0065	0.15	188013	keystroke	Key.space	n/a
94.2615	0.165	188523	keystroke	r	n/a
95.027	0.135	190054	keystroke	q	n/a
95.687	0.1345	191374	keystroke	Key.backspace	n/a
95.8365	0.18	191673	keystroke	e	n/a
96.572	0.12	193144	keystroke	q	n/a
96.751	0.135	193502	keystroke	u	n/a
96.976	0.12	193952	keystroke	e	n/a
97.276	0.12	194552	keystroke	s	n/a
97.546	0.121	195092	keystroke	t	n/a
97.652	0.179	195304	keystroke	i	n/a
97.816	0.301	195632	keystroke	o	n/a
98.042	0.164	196084	keystroke	n	n/a
98.236	0.12	196472	keystroke	g	n/a
98.341	0.15	196682	keystroke	Key.space	n/a
98.702	0.1195	197404	keystroke	g	n/a
99.736	0.166	199472	keystroke	Key.backspace	n/a
100.006	0.105	200012	keystroke	Key.backspace	n/a
100.231	0.09	200462	keystroke	Key.backspace	n/a
100.366	0.06	200732	keystroke	Key.backspace	n/a
100.6815	0.12	201363	keystroke	Key.backspace	n/a
101.1465	0.135	202293	keystroke	n	n/a
101.3115	0.1205	202623	keystroke	g	n/a
101.492	0.12	202984	keystroke	Key.space	n/a
102.122	0.1195	204244	keystroke	z	n/a
102.6765	0.135	205353	keystroke	Key.backspace	n/a
102.9165	0.105	205833	keystroke	g	n/a
103.3065	0.18	206613	keystroke	z	n/a
103.5315	0.1655	207063	keystroke	i	n/a
103.816	0.1505	207632	keystroke	p	n/a
104.2065	0.1205	208413	keystroke	Key.enter	n/a
104.3365	12.412	208673	prompt	n/a	chaos roland newfoundland gibson\n
105.0765	0.15	210153	keystroke	c	n/a
105.2565	0.165	210513	keystroke	h	n/a
105.3765	0.15	210753	keystroke	a	n/a
106.3815	0.105	212763	keystroke	o	n/a
106.8015	0.15	213603	keystroke	s	n/a
106.9665	0.18	213933	keystroke	Key.space	n/a
107.6415	0.165	215283	keystroke	r	n/a
107.8965	0.15	215793	keystroke	o	n/a
108.2565	0.15	216513	keystroke	l	n/a
108.4215	0.165	216843	keystroke	a	n/a
108.6465	0.15	217293	keystroke	n	n/a
108.8115	0.18	217623	keystroke	d	n/a
109.0065	0.165	218013	keystroke	Key.space	n/a
109.487	0.164	218974	keystroke	n	n/a
109.936	0.15	219872	keystroke	r	n/a
110.732	0.165	221464	keystroke	Key.backspace	n/a
110.852	0.135	221704	keystroke	e	n/a
111.092	0.15	222184	keystroke	w	n/a
111.542	0.1195	223084	keystroke	f	n/a
111.7965	0.15	223593	keystroke	o	n/a
112.0665	0.0905	224133	keystroke	u	n/a
112.352	0.149	224704	keystroke	n	n/a
112.592	0.15	225184	keystroke	d	n/a
113.5215	0.1505	227043	keystroke	l	n/a
113.657	0.135	227314	keystroke	a	n/a
113.807	0.12	227614	keystroke	n	n/a
113.957	0.149	227914	keystroke	d	n/a
114.121	0.106	228242	keystroke	Key.space	n/a
114.481	0.061	228962	keystroke	g	n/a
114.842	0.119	229684	keystroke	i	n/a
115.081	0.106	230162	keystroke	b	n/a
115.487	0.119	230974	keystroke	s	n/a
115.682	0.195	231364	keystroke	o	n/a
115.861	0.15	231722	keystroke	n	n/a
116.581	0.165	233162	keystroke	Key.enter	n/a
116.7525	21.2055	233505	prompt	n/a	specs bread alexandria check\n
117.5265	0.105	235053	keystroke	s	n/a
117.707	0.1795	235414	keystroke	p	n/a
118.0365	0.09	236073	keystroke	e	n/a
118.3965	0.135	236793	keystroke	c	n/a
118.7265	0.195	237453	keystroke	s	n/a
118.9515	0.165	237903	keystroke	Key.space	n/a
119.3115	0.12	238623	keystroke	b	n/a
119.6715	0.135	239343	keystroke	r	n/a
119.8515	0.21	239703	keystroke	e	n/a
120.2115	0.18	240423	keystroke	a	n/a
120.5415	0.18	241083	keystroke	s	n/a
120.842	0.149	241684	keystroke	Key.space	n/a
121.082	0.1495	242164	keystroke	a	n/a
121.2915	0.15	242583	keystroke	l	n/a
122.1465	0.1045	244293	keystroke	e	n/a
123.001	0.226	246002	keystroke	x	n/a
123.6465	0.165	247293	keystroke	a	n/a
123.9015	0.09	247803	keystroke	n	n/a
124.051	0.165	248102	keystroke	d	n/a
124.396	0.135	248792	keystroke	r	n/a
124.8915	0.105	249783	keystroke	i	n/a
125.0865	0.136	250173	keystroke	a	n/a
125.2665	0.195	250533	keystroke	Key.space	n/a
125.5215	0.21	251043	keystroke	c	n/a
125.7765	0.15	251553	keystroke	h	n/a
128.509	0.073	257018	keystroke	e	n/a
129.002	0.165	258004	keystroke	c	n/a
129.1815	0.15	258363	keystroke	k	n/a
130.262	0.12	260524	keystroke	Key.left	n/a
130.532	0.09	261064	keystroke	Key.left	n/a
130.787	0.105	261574	keystroke	Key.left	n/a
131.072	0.0895	262144	keystroke	Key.left	n/a
131.3415	0.105	262683	keystroke	Key.left	n/a
131.6415	0.105	263283	keystroke	Key.left	n/a
131.9115	0.105	263823	keystroke	Key.left	n/a
132.1665	0.1045	264333	keystroke	Key.left	n/a
132.482	0.1045	264964	keystroke	Key.left	n/a
132.7665	0.0905	265533	keystroke	Key.left	n/a
133.037	0.09	266074	keystroke	Key.left	n/a
133.3065	0.09	266613	keystroke	Key.left	n/a
133.576	0.09	267152	keystroke	Key.left	n/a
133.847	0.09	267694	keystroke	Key.left	n/a
134.102	0.09	268204	keystroke	Key.left	n/a
134.357	0.09	268714	keystroke	Key.left	n/a
134.672	0.12	269344	keystroke	Key.left	n/a
135.4515	0.1205	270903	keystroke	Key.backspace	n/a
135.932	0.135	271864	keystroke	d	n/a
137.852	0.105	275704	keystroke	Key.enter	n/a
137.962	13.871	275924	prompt	n/a	fought compliant wallpapers quarter\n
139.877	0.135	279754	keystroke	f	n/a
140.042	0.15	280084	keystroke	i	n/a
141.527	0.1195	283054	keystroke	Key.backspace	n/a
142.157	0.165	284314	keystroke	o	n/a
142.667	0.135	285334	keystroke	u	n/a
142.817	0.135	285634	keystroke	g	n/a
143.087	0.12	286174	keystroke	h	n/a
143.312	0.1345	286624	keystroke	t	n/a
143.4615	0.1805	286923	keystroke	Key.space	n/a
143.927	0.195	287854	keystroke	c	n/a
144.107	0.165	288214	keystroke	o	n/a
144.272	0.225	288544	keystroke	m	n/a
144.557	0.1645	289114	keystroke	p	n/a
144.8565	0.15	289713	keystroke	l	n/a
145.0965	0.18	290193	keystroke	i	n/a
145.2165	0.18	290433	keystroke	a	n/a
145.3965	0.15	290793	keystroke	n	n/a
145.6515	0.165	291303	keystroke	t	n/a
145.8015	0.165	291603	keystroke	Key.space	n/a
146.101	0.135	292202	keystroke	w	n/a
146.4165	0.18	292833	keystroke	a	n/a
146.6415	0.09	293283	keystroke	l	n/a
146.866	0.12	293732	keystroke	l	n/a
147.256	0.135	294512	keystroke	p	n/a
147.5265	0.1805	295053	keystroke	a	n/a
148.2315	0.165	296463	keystroke	p	n/a
148.5615	0.18	297123	keystroke	e	n/a
148.7715	0.1355	297543	keystroke	r	n/a
149.072	0.15	298144	keystroke	s	n/a
149.237	0.15	298474	keystroke	Key.space	n/a
149.6715	0.1055	299343	keystroke	q	n/a
149.882	0.15	299764	keystroke	u	n/a
150.092	0.1645	300184	keystroke	a	n/a
150.3915	0.135	300783	keystroke	r	n/a
150.6315	0.15	301263	keystroke	t	n/a
151.0815	0.165	302163	keystroke	e	n/a
151.3365	0.15	302673	keystroke	r	n/a
151.636	0.195	303272	keystroke	Key.enter	n/a
151.8365	9.1165	303673	prompt	n/a	roman phpbb entrance impact\n
152.7765	0.15	305553	keystroke	r	n/a
152.9715	0.135	305943	keystroke	o	n/a
153.1815	0.18	306363	keystroke	m	n/a
153.3465	0.21	306693	keystroke	a	n/a
153.587	0.149	307174	keystroke	n	n/a
153.811	0.135	307622	keystroke	Key.space	n/a
154.216	0.1655	308432	keystroke	p	n/a
154.501	0.15	309002	keystroke	h	n/a
154.8465	0.135	309693	keystroke	p	n/a
155.2965	0.105	310593	keystroke	b	n/a
155.5515	0.12	311103	keystroke	b	n/a
155.8215	0.165	311643	keystroke	Key.space	n/a
156.1815	0.165	312363	keystroke	e	n/a
156.4515	0.12	312903	keystroke	n	n/a
157.216	0.075	314432	keystroke	t	n/a
157.4565	0.09	314913	keystroke	r	n/a
157.7415	0.15	315483	keystroke	a	n/a
157.9065	0.135	315813	keystroke	n	n/a
158.1315	0.135	316263	keystroke	c	n/a
158.4465	0.105	316893	keystroke	e	n/a
158.5815	0.195	317163	keystroke	Key.space	n/a
158.8965	0.12	317793	keystroke	i	n/a
159.1515	0.225	318303	keystroke	m	n/a
159.3615	0.195	318723	keystroke	p	n/a
159.5115	0.1345	319023	keystroke	a	n/a
159.826	0.15	319652	keystroke	c	n/a
160.156	0.12	320312	keystroke	t	n/a
160.801	0.15	321602	keystroke	Key.enter	n/a
160.956	7.767	321912	prompt	n/a	them costa edinburgh rich\n
161.566	0.135	323132	keystroke	t	n/a
161.716	0.105	323432	keystroke	h	n/a
161.836	0.165	323672	keystroke	e	n/a
162.031	0.135	324062	keystroke	m	n/a
162.256	0.135	324512	keystroke	Key.space	n/a
162.4515	0.15	324903	keystroke	c	n/a
162.5415	0.15	325083	keystroke	o	n/a
162.7965	0.135	325593	keystroke	s	n/a
163.0815	0.105	326163	keystroke	t	n/a
163.3365	0.165	326673	keystroke	a	n/a
163.6665	0.1345	327333	keystroke	Key.space	n/a
164.071	0.12	328142	keystroke	e	n/a
164.341	0.165	328682	keystroke	d	n/a
164.506	0.18	329012	keystroke	i	n/a
165.2565	0.135	330513	keystroke	n	n/a
166.0365	0.12	332073	keystroke	b	n/a
166.2165	0.15	332433	keystroke	u	n/a
166.4865	0.0595	332973	keystroke	r	n/a
166.786	0.135	333572	keystroke	g	n/a
167.011	0.135	334022	keystroke	h	n/a
167.191	0.2245	334382	keystroke	Key.space	n/a
167.4015	0.105	334803	keystroke	r	n/a
167.5665	0.15	335133	keystroke	i	n/a
167.7915	0.225	335583	keystroke	c	n/a
167.9715	0.135	335943	keystroke	h	n/a
168.5415	0.18	337083	keystroke	Key.enter	n/a
168.7265	8.8915	337453	prompt	n/a	seeker qualified rolling honduras\n
169.351	0.12	338702	keystroke	s	n/a
169.591	0.0755	339182	keystroke	e	n/a
169.7715	0.09	339543	keystroke	e	n/a
169.9665	0.195	339933	keystroke	k	n/a
170.1465	0.135	340293	keystroke	e	n/a
170.3115	0.12	340623	keystroke	r	n/a
170.4915	0.18	340983	keystroke	Key.space	n/a
170.8355	0.136	341671	keystroke	q	n/a
171.0165	0.1655	342033	keystroke	u	n/a
171.2715	0.195	342543	keystroke	a	n/a
171.5115	0.12	343023	keystroke	l	n/a
171.7215	0.135	343443	keystroke	i	n/a
171.8715	0.1345	343743	keystroke	f	n/a
172.022	0.164	344044	keystroke	i	n/a
172.2165	0.15	344433	keystroke	e	n/a
172.5015	0.18	345003	keystroke	d	n/a
172.6965	0.12	345393	keystroke	Key.space	n/a
173.1915	0.12	346383	keystroke	r	n/a
173.3715	0.06	346743	keystroke	o	n/a
173.7765	0.09	347553	keystroke	l	n/a
173.9865	0.1045	347973	keystroke	l	n/a
174.241	0.136	348482	keystroke	i	n/a
174.436	0.165	348872	keystroke	n	n/a
174.586	0.1655	349172	keystroke	g	n/a
174.7665	0.165	349533	keystroke	Key.space	n/a
175.0665	0.135	350133	keystroke	h	n/a
175.2465	0.105	350493	keystroke	o	n/a
175.4865	0.1195	350973	keystroke	n	n/a
175.591	0.24	351182	keystroke	d	n/a
175.801	0.1055	351602	keystroke	u	n/a
176.1765	0.12	352353	keystroke	r	n/a
176.836	0.15	353672	keystroke	a	n/a
177.181	0.15	354362	keystroke	s	n/a
177.466	0.15	354932	keystroke	Key.enter	n/a
177.6225	13.766	355245	prompt	n/a	planned economic happiness instructions\n
178.3365	0.15	356673	keystroke	p	n/a
178.6365	0.15	357273	keystroke	l	n/a
179.026	0.15	358052	keystroke	a	n/a
179.311	0.09	358622	keystroke	n	n/a
179.491	0.105	358982	keystroke	n	n/a
179.746	0.12	359492	keystroke	e	n/a
180.001	0.1655	360002	keystroke	d	n/a
180.2115	0.18	360423	keystroke	Key.space	n/a
180.6015	0.12	361203	keystroke	e	n/a
180.9315	0.12	361863	keystroke	c	n/a
181.532	0.12	363064	keystroke	o	n/a
181.877	0.15	363754	keystroke	n	n/a
182.117	0.105	364234	keystroke	o	n/a
182.327	0.12	364654	keystroke	m	n/a
182.687	0.15	365374	keystroke	i	n/a
182.897	0.165	365794	keystroke	c	n/a
183.1515	0.135	366303	keystroke	Key.space	n/a
183.5265	0.1505	367053	keystroke	h	n/a
183.692	0.195	367384	keystroke	a	n/a
184.022	0.134	368044	keystroke	p	n/a
184.262	0.119	368524	keystroke	p	n/a
184.502	0.195	369004	keystroke	i	n/a
184.742	0.195	369484	keystroke	n	n/a
184.922	0.12	369844	keystroke	e	n/a
185.357	0.06	370714	keystroke	s	n/a
185.552	0.1045	371104	keystroke	s	n/a
185.7615	0.135	371523	keystroke	Key.space	n/a
186.1515	0.15	372303	keystroke	i	n/a
186.3765	0.195	372753	keystroke	n	n/a
186.6915	0.12	373383	keystroke	t	n/a
186.9315	0.135	373863	keystroke	r	n/a
188.446	0.165	376892	keystroke	Key.backspace	n/a
188.597	0.164	377194	keystroke	s	n/a
188.971	0.106	377942	keystroke	t	n/a
189.197	0.135	378394	keystroke	r	n/a
189.332	0.165	378664	keystroke	u	n/a
189.572	0.164	379144	keystroke	c	n/a
189.9315	0.15	379863	keystroke	t	n/a
190.0965	0.165	380193	keystroke	i	n/a
190.2465	0.255	380493	keystroke	o	n/a
190.4865	0.195	380973	keystroke	n	n/a
190.6815	0.1655	381363	keystroke	s	n/a
191.2365	0.15	382473	keystroke	Key.enter	n/a
191.393	8.5755	382786	prompt	n/a	adapters miles that retailer\n
192.076	0.135	384152	keystroke	a	n/a
192.271	0.135	384542	keystroke	d	n/a
192.481	0.135	384962	keystroke	a	n/a
192.631	0.18	385262	keystroke	p	n/a
192.977	0.119	385954	keystroke	t	n/a
193.216	0.1805	386432	keystroke	e	n/a
193.4265	0.12	386853	keystroke	r	n/a
193.966	0.135	387932	keystroke	s	n/a
194.236	0.18	388472	keystroke	Key.space	n/a
194.881	0.15	389762	keystroke	m	n/a
195.106	0.1355	390212	keystroke	i	n/a
195.3615	0.165	390723	keystroke	l	n/a
195.5415	0.1045	391083	keystroke	e	n/a
195.826	0.18	391652	keystroke	s	n/a
196.021	0.15	392042	keystroke	Key.space	n/a
196.336	0.105	392672	keystroke	t	n/a
196.456	0.1355	392912	keystroke	h	n/a
196.6065	0.165	393213	keystroke	a	n/a
196.8915	0.105	393783	keystroke	t	n/a
197.0115	0.1645	394023	keystroke	Key.space	n/a
197.311	0.135	394622	keystroke	r	n/a
197.581	0.135	395162	keystroke	e	n/a
197.851	0.09	395702	keystroke	t	n/a
198.1065	0.2255	396213	keystroke	a	n/a
198.377	0.12	396754	keystroke	i	n/a
198.706	0.106	397412	keystroke	l	n/a
198.872	0.1645	397744	keystroke	e	n/a
199.0665	0.135	398133	keystroke	r	n/a
199.8315	0.135	399663	keystroke	Key.enter	n/a
199.972	16.4665	399944	prompt	n/a	lasting element tight trivia\n
200.8365	0.24	401673	keystroke	;	n/a
200.9865	0.135	401973	keystroke	a	n/a
201.1965	0.12	402393	keystroke	s	n/a
201.4365	0.12	402873	keystroke	t	n/a
201.5565	0.165	403113	keystroke	i	n/a
201.7665	0.165	403533	keystroke	n	n/a
201.8865	0.1645	403773	keystroke	g	n/a
202.036	0.12	404072	keystroke	Key.space	n/a
203.0565	0.1505	406113	keystroke	Key.backspace	n/a
203.431	0.3605	406862	keystroke	Key.backspace	n/a
204.0165	0.12	408033	keystroke	Key.backspace	n/a
204.4215	0.105	408843	keystroke	Key.backspace	n/a
205.1265	0.09	410253	keystroke	Key.backspace	n/a
205.5165	0.1945	411033	keystroke	Key.backspace	n/a
205.9515	0.1645	411903	keystroke	Key.backspace	n/a
206.357	0.119	412714	keystroke	Key.backspace	n/a
207.047	0.15	414094	keystroke	l	n/a
207.182	0.12	414364	keystroke	a	n/a
207.392	0.135	414784	keystroke	s	n/a
207.6615	0.12	415323	keystroke	t	n/a
207.7665	0.15	415533	keystroke	i	n/a
207.9465	0.165	415893	keystroke	n	n/a
208.0815	0.135	416163	keystroke	g	n/a
208.6665	0.135	417333	keystroke	Key.space	n/a
208.9065	0.15	417813	keystroke	e	n/a
209.1165	0.165	418233	keystroke	l	n/a
209.2215	0.135	418443	keystroke	e	n/a
209.5365	0.1645	419073	keystroke	m	n/a
209.686	0.18	419372	keystroke	e	n/a
209.851	0.12	419702	keystroke	n	n/a
210.001	0.12	420002	keystroke	t	n/a
210.1815	0.24	420363	keystroke	Key.space	n/a
210.4065	0.12	420813	keystroke	t	n/a
210.5415	0.15	421083	keystroke	i	n/a
210.7815	0.12	421563	keystroke	g	n/a
210.8865	0.18	421773	keystroke	h	n/a
211.0515	0.12	422103	keystroke	t	n/a
211.2015	0.21	422403	keystroke	Key.space	n/a
211.5915	0.12	423183	keystroke	t	n/a
211.9065	0.105	423813	keystroke	r	n/a
213.1965	0.12	426393	keystroke	r	n/a
213.3615	0.135	426723	keystroke	i	n/a
213.631	0.045	427262	keystroke	v	n/a
213.961	0.09	427922	keystroke	Key.backspace	n/a
214.306	0.135	428612	keystroke	Key.backspace	n/a
214.636	0.12	429272	keystroke	Key.backspace	n/a
215.026	0.15	430052	keystroke	i	n/a
215.191	0.165	430382	keystroke	v	n/a
215.626	0.12	431252	keystroke	i	n/a
215.761	0.15	431522	keystroke	a	n/a
216.286	0.15	432572	keystroke	Key.enter	n/a
216.442	9.7755	432884	prompt	n/a	photos barriers mechanics merchant\n
217.276	0.195	434552	keystroke	p	n/a
217.531	0.165	435062	keystroke	h	n/a
217.741	0.195	435482	keystroke	o	n/a
217.981	0.1205	435962	keystroke	t	n/a
218.2815	0.1505	436563	keystroke	s	n/a
218.447	0.15	436894	keystroke	Key.space	n/a
218.7165	0.12	437433	keystroke	b	n/a
218.942	0.165	437884	keystroke	a	n/a
219.257	0.09	438514	keystroke	r	n/a
219.482	0.1195	438964	keystroke	r	n/a
219.841	0.15	439682	keystroke	i	n/a
220.096	0.15	440192	keystroke	e	n/a
220.336	0.135	440672	keystroke	r	n/a
220.666	0.15	441332	keystroke	s	n/a
220.861	0.1505	441722	keystroke	Key.space	n/a
221.0865	0.21	442173	keystroke	m	n/a
221.2665	0.105	442533	keystroke	e	n/a
221.5815	0.165	443163	keystroke	c	n/a
221.7615	0.1195	443523	keystroke	h	n/a
221.926	0.165	443852	keystroke	a	n/a
222.106	0.166	444212	keystroke	n	n/a
222.331	0.18	444662	keystroke	i	n/a
222.571	0.1505	445142	keystroke	c	n/a
223.501	0.09	447002	keystroke	s	n/a
223.8015	0.15	447603	keystroke	Key.space	n/a
224.101	0.1345	448202	keystroke	m	n/a
224.2065	0.18	448413	keystroke	e	n/a
224.476	0.135	448952	keystroke	r	n/a
224.896	0.15	449792	keystroke	c	n/a
225.121	0.09	450242	keystroke	h	n/a
225.226	0.165	450452	keystroke	a	n/a
225.421	0.1955	450842	keystroke	n	n/a
225.6465	0.135	451293	keystroke	t	n/a
226.0665	0.15	452133	keystroke	Key.enter	n/a
226.221	11.802	452442	prompt	n/a	beneficial mega christina customer\n
226.921	0.12	453842	keystroke	b	n/a
227.1915	0.149	454383	keystroke	e	n/a
227.4315	0.135	454863	keystroke	n	n/a
227.7005	0.1955	455401	keystroke	e	n/a
228.466	0.15	456932	keystroke	f	n/a
228.706	0.1505	457412	keystroke	i	n/a
229.0215	0.135	458043	keystroke	c	n/a
229.3665	0.105	458733	keystroke	i	n/a
230.281	0.165	460562	keystroke	a	n/a
230.506	0.18	461012	keystroke	l	n/a
230.761	0.135	461522	keystroke	Key.space	n/a
231.061	0.105	462122	keystroke	m	n/a
231.241	0.15	462482	keystroke	e	n/a
231.541	0.135	463082	keystroke	g	n/a
231.826	0.195	463652	keystroke	a	n/a
232.276	0.1505	464552	keystroke	Key.space	n/a
232.7115	0.18	465423	keystroke	c	n/a
232.9215	0.165	465843	keystroke	h	n/a
233.2365	0.135	466473	keystroke	r	n/a
233.4315	0.135	466863	keystroke	i	n/a
233.656	0.135	467312	keystroke	s	n/a
233.941	0.12	467882	keystroke	t	n/a
234.106	0.1805	468212	keystroke	i	n/a
234.3615	0.18	468723	keystroke	n	n/a
234.5565	0.2105	469113	keystroke	a	n/a
234.781	0.18	469562	keystroke	Key.space	n/a
235.2165	0.211	470433	keystroke	c	n/a
235.4115	0.12	470823	keystroke	u	n/a
235.6365	0.15	471273	keystroke	s	n/a
235.9815	0.1195	471963	keystroke	t	n/a
236.191	0.225	472382	keystroke	o	n/a
236.461	0.195	472922	keystroke	m	n/a
236.626	0.18	473252	keystroke	e	n/a
236.836	0.12	473672	keystroke	r	n/a
237.8415	0.18	475683	keystroke	Key.enter	n/a
238.028	8.86	476056	prompt	n/a	recycling roll head supervisor\n
238.726	0.1655	477452	keystroke	r	n/a
238.9365	0.15	477873	keystroke	e	n/a
239.2815	0.18	478563	keystroke	c	n/a
239.611	0.15	479222	keystroke	y	n/a
239.806	0.18	479612	keystroke	c	n/a
240.031	0.15	480062	keystroke	l	n/a
240.256	0.18	480512	keystroke	i	n/a
240.467	0.239	480934	keystroke	n	n/a
240.692	0.164	481384	keystroke	g	n/a
240.871	0.18	481742	keystroke	Key.space	n/a
241.216	0.165	482432	keystroke	r	n/a
241.366	0.105	482732	keystroke	o	n/a
241.681	0.15	483362	keystroke	l	n/a
241.921	0.135	483842	keystroke	l	n/a
242.116	0.285	484232	keystroke	Key.space	n/a
242.402	0.194	484804	keystroke	h	n/a
242.5815	0.1195	485163	keystroke	e	n/a
242.821	0.1805	485642	keystroke	a	n/a
243.1065	0.21	486213	keystroke	d	n/a
243.3315	0.15	486663	keystroke	Key.space	n/a
243.5715	0.1045	487143	keystroke	s	n/a
243.691	0.15	487382	keystroke	u	n/a
243.991	0.18	487982	keystroke	p	n/a
244.2165	0.21	488433	keystroke	e	n/a
244.4415	0.135	488883	keystroke	r	n/a
245.4015	0.15	490803	keystroke	v	n/a
245.6415	0.15	491283	keystroke	i	n/a
245.8365	0.15	491673	keystroke	s	n/a
245.9865	0.15	491973	keystroke	o	n/a
246.1665	0.12	492333	keystroke	r	n/a
246.7215	0.165	493443	keystroke	Key.enter	n/a
246.893	15.445	493786	prompt	n/a	characteristic background barrel journal\n
247.5615	0.165	495123	keystroke	c	n/a
247.7865	0.135	495573	keystroke	h	n/a
247.8915	0.135	495783	keystroke	a	n/a
249.212	0.134	498424	keystroke	r	n/a
249.482	0.15	498964	keystroke	a	n/a
249.782	0.194	499564	keystroke	c	n/a
250.277	0.12	500554	keystroke	t	n/a
250.502	0.165	501004	keystroke	e	n/a
250.712	0.12	501424	keystroke	r	n/a
252.391	0.15	504782	keystroke	i	n/a
252.526	0.15	505052	keystroke	s	n/a
252.796	0.15	505592	keystroke	t	n/a
253.036	0.135	506072	keystroke	i	n/a
253.201	0.18	506402	keystroke	c	n/a
254.176	0.1355	508352	keystroke	Key.space	n/a
254.5965	0.135	509193	keystroke	b	n/a
254.8365	0.195	509673	keystroke	a	n/a
255.2565	0.165	510513	keystroke	c	n/a
255.5565	0.195	511113	keystroke	k	n/a
255.8715	0.135	511743	keystroke	g	n/a
256.1865	0.165	512373	keystroke	r	n/a
256.3665	0.1645	512733	keystroke	o	n/a
256.696	0.12	513392	keystroke	u	n/a
257.0265	0.18	514053	keystroke	n	n/a
257.2365	0.1795	514473	keystroke	d	n/a
257.446	0.12	514892	keystroke	Key.space	n/a
258.1365	0.135	516273	keystroke	b	n/a
258.3765	0.15	516753	keystroke	a	n/a
258.7065	0.105	517413	keystroke	r	n/a
258.9465	0.135	517893	keystroke	r	n/a
259.172	0.1795	518344	keystroke	e	n/a
259.4115	0.1805	518823	keystroke	l	n/a
259.696	0.09	519392	keystroke	Key.space	n/a
260.011	0.165	520022	keystroke	j	n/a
260.281	0.12	520562	keystroke	o	n/a
260.521	0.1355	521042	keystroke	u	n/a
260.8065	0.18	521613	keystroke	r	n/a
261.0465	0.195	522093	keystroke	n	n/a
261.2565	0.225	522513	keystroke	a	n/a
261.4815	0.165	522963	keystroke	l	n/a
262.156	0.18	524312	keystroke	Key.enter	n/a
262.341	8.637	524682	prompt	n/a	intervals bend deals editions\n
263.026	0.165	526052	keystroke	i	n/a
263.281	0.195	526562	keystroke	n	n/a
263.461	0.12	526922	keystroke	t	n/a
263.9715	0.165	527943	keystroke	e	n/a
264.1965	0.09	528393	keystroke	r	n/a
264.5265	0.15	529053	keystroke	v	n/a
264.8265	0.195	529653	keystroke	a	n/a
265.0815	0.195	530163	keystroke	l	n/a
265.3365	0.15	530673	keystroke	s	n/a
265.5765	0.135	531153	keystroke	Key.space	n/a
265.8615	0.135	531723	keystroke	b	n/a
266.146	0.135	532292	keystroke	e	n/a
266.386	0.135	532772	keystroke	n	n/a
266.626	0.2105	533252	keystroke	d	n/a
266.9865	0.12	533973	keystroke	Key.space	n/a
267.2415	0.135	534483	keystroke	d	n/a
267.5415	0.12	535083	keystroke	e	n/a
267.7815	0.18	535563	keystroke	a	n/a
268.0515	0.1645	536103	keystroke	l	n/a
268.306	0.15	536612	keystroke	s	n/a
268.561	0.12	537122	keystroke	Key.space	n/a
268.801	0.135	537602	keystroke	e	n/a
269.0865	0.2245	538173	keystroke	d	n/a
269.296	0.15	538592	keystroke	i	n/a
269.506	0.135	539012	keystroke	t	n/a
269.731	0.105	539462	keystroke	i	n/a
269.926	0.24	539852	keystroke	o	n/a
270.181	0.165	540362	keystroke	n	n/a
270.376	0.15	540752	keystroke	s	n/a
270.826	0.15	541652	keystroke	Key.enter	n/a
270.9815	10.1065	541963	prompt	n/a	housewares adds norfolk feeling\n
271.6515	0.1645	543303	keystroke	h	n/a
271.846	0.165	543692	keystroke	o	n/a
272.026	0.165	544052	keystroke	u	n/a
272.266	0.12	544532	keystroke	s	n/a
272.551	0.135	545102	keystroke	e	n/a
273.001	0.12	546002	keystroke	w	n/a
273.376	0.135	546752	keystroke	a	n/a
273.676	0.105	547352	keystroke	r	n/a
274.186	0.1505	548372	keystroke	e	n/a
274.7265	0.15	549453	keystroke	s	n/a
274.9655	0.136	549931	keystroke	Key.space	n/a
275.1765	0.15	550353	keystroke	a	n/a
275.4015	0.12	550803	keystroke	d	n/a
275.6715	0.135	551343	keystroke	d	n/a
276.1515	0.165	552303	keystroke	s	n/a
276.4365	0.15	552873	keystroke	Key.space	n/a
276.7065	0.165	553413	keystroke	n	n/a
276.8865	0.18	553773	keystroke	o	n/a
277.0815	0.1045	554163	keystroke	r	n/a
277.351	0.1655	554702	keystroke	f	n/a
277.5615	0.105	555123	keystroke	o	n/a
278.1465	0.15	556293	keystroke	l	n/a
278.491	0.18	556982	keystroke	k	n/a
278.776	0.09	557552	keystroke	Key.space	n/a
279.016	0.135	558032	keystroke	f	n/a
279.301	0.09	558602	keystroke	e	n/a
279.511	0.12	559022	keystroke	e	n/a
279.7515	0.165	559503	keystroke	l	n/a
280.0215	0.165	560043	keystroke	i	n/a
280.2615	0.165	560523	keystroke	n	n/a
280.4865	0.135	560973	keystroke	g	n/a
280.9665	0.12	561933	keystroke	Key.enter	n/a
281.0915	6.807	562183	prompt	n/a	fears spot airports they\n
281.6715	0.135	563343	keystroke	f	n/a
281.9415	0.18	563883	keystroke	e	n/a
282.2865	0.1195	564573	keystroke	a	n/a
282.526	0.15	565052	keystroke	r	n/a
282.871	0.18	565742	keystroke	s	n/a
283.171	0.135	566342	keystroke	Key.space	n/a
283.351	0.1805	566702	keystroke	s	n/a
283.5765	0.0755	567153	keystroke	p	n/a
283.7715	0.105	567543	keystroke	o	n/a
283.9815	0.135	567963	keystroke	t	n/a
284.1465	0.15	568293	keystroke	Key.space	n/a
284.3565	0.18	568713	keystroke	a	n/a
284.5215	0.15	569043	keystroke	i	n/a
284.7015	0.135	569403	keystroke	r	n/a
284.9715	0.15	569943	keystroke	p	n/a
285.2115	0.21	570423	keystroke	o	n/a
285.4065	0.105	570813	keystroke	r	n/a
285.647	0.105	571294	keystroke	t	n/a
286.1865	0.165	572373	keystroke	s	n/a
286.3965	0.165	572793	keystroke	Key.space	n/a
286.6065	0.15	573213	keystroke	t	n/a
286.7865	0.135	573573	keystroke	h	n/a
286.8765	0.165	573753	keystroke	e	n/a
287.1615	0.135	574323	keystroke	y	n/a
287.731	0.1655	575462	keystroke	Key.enter	n/a
287.902	9.986	575804	prompt	n/a	services upgrade objects things\n
288.496	0.12	576992	keystroke	s	n/a
288.766	0.1655	577532	keystroke	e	n/a
288.916	0.1355	577832	keystroke	r	n/a
289.261	0.1655	578522	keystroke	v	n/a
289.4115	0.15	578823	keystroke	i	n/a
289.636	0.15	579272	keystroke	e	n/a
290.5665	0.1495	581133	keystroke	Key.backspace	n/a
290.776	0.135	581552	keystroke	c	n/a
291.076	0.1055	582152	keystroke	e	n/a
291.3465	0.105	582693	keystroke	s	n/a
291.5415	0.1795	583083	keystroke	Key.space	n/a
291.826	0.15	583652	keystroke	u	n/a
292.111	0.165	584222	keystroke	p	n/a
292.351	0.105	584702	keystroke	g	n/a
292.621	0.075	585242	keystroke	r	n/a
292.831	0.18	585662	keystroke	a	n/a
293.146	0.1805	586292	keystroke	d	n/a
293.4615	0.09	586923	keystroke	e	n/a
293.5965	0.165	587193	keystroke	Key.space	n/a
293.8665	0.15	587733	keystroke	o	n/a
294.0915	0.15	588183	keystroke	b	n/a
294.376	0.15	588752	keystroke	j	n/a
294.556	0.135	589112	keystroke	e	n/a
294.8865	0.165	589773	keystroke	c	n/a
295.2465	0.105	590493	keystroke	t	n/a
295.5915	0.135	591183	keystroke	s	n/a
295.771	0.18	591542	keystroke	Key.space	n/a
296.0115	0.1495	592023	keystroke	t	n/a
296.146	0.15	592292	keystroke	h	n/a
296.701	0.135	593402	keystroke	i	n/a
296.926	0.15	593852	keystroke	n	n/a
297.091	0.12	594182	keystroke	g	n/a
297.391	0.135	594782	keystroke	s	n/a
297.7365	0.15	595473	keystroke	Key.enter	n/a
297.8915	10.9915	595783	prompt	n/a	mouth endorsed active obligations\n
298.591	0.15	597182	keystroke	m	n/a
298.801	0.135	597602	keystroke	o	n/a
299.041	0.135	598082	keystroke	u	n/a
299.7615	0.1195	599523	keystroke	t	n/a
300.001	0.12	600002	keystroke	h	n/a
300.136	0.195	600272	keystroke	Key.space	n/a
300.586	0.15	601172	keystroke	e	n/a
300.737	0.119	601474	keystroke	n	n/a
300.976	0.1955	601952	keystroke	d	n/a
301.1265	0.165	602253	keystroke	o	n/a
301.3365	0.1345	602673	keystroke	r	n/a
302.7765	0.15	605553	keystroke	s	n/a
303.0615	0.12	606123	keystroke	e	n/a
303.3465	0.149	606693	keystroke	d	n/a
303.5705	0.1205	607141	keystroke	Key.space	n/a
303.841	0.12	607682	keystroke	a	n/a
304.141	0.18	608282	keystroke	c	n/a
304.4715	0.105	608943	keystroke	t	n/a
304.5915	0.165	609183	keystroke	i	n/a
304.936	0.15	609872	keystroke	v	n/a
305.251	0.1655	610502	keystroke	e	n/a
305.4465	0.1345	610893	keystroke	Key.space	n/a
305.717	0.089	611434	keystroke	o	n/a
306.002	0.135	612004	keystroke	b	n/a
306.286	0.135	612572	keystroke	l	n/a
306.526	0.091	613052	keystroke	i	n/a
306.722	0.135	613444	keystroke	g	n/a
306.946	0.136	613892	keystroke	a	n/a
307.216	0.135	614432	keystroke	t	n/a
307.441	0.135	614882	keystroke	i	n/a
307.591	0.211	615182	keystroke	o	n/a
307.861	0.18	615722	keystroke	n	n/a
308.101	0.135	616202	keystroke	s	n/a
308.671	0.21	617342	keystroke	Key.enter	n/a
308.8865	20.0065	617773	prompt	n/a	interview significantly hosting combining\n
309.541	0.15	619082	keystroke	i	n/a
309.751	0.2555	619502	keystroke	n	n/a
309.9465	0.18	619893	keystroke	t	n/a
310.2765	0.18	620553	keystroke	e	n/a
310.5015	0.12	621003	keystroke	r	n/a
310.966	0.1955	621932	keystroke	v	n/a
311.1615	0.135	622323	keystroke	i	n/a
311.3415	0.15	622683	keystroke	e	n/a
311.581	0.15	623162	keystroke	w	n/a
311.761	0.2105	623522	keystroke	Key.space	n/a
312.0315	0.15	624063	keystroke	s	n/a
312.1965	0.165	624393	keystroke	i	n/a
312.8265	0.12	625653	keystroke	g	n/a
313.1115	0.1495	626223	keystroke	n	n/a
313.411	0.15	626822	keystroke	i	n/a
313.9365	0.18	627873	keystroke	g	n/a
314.2065	0.1495	628413	keystroke	i	n/a
314.416	0.1505	628832	keystroke	c	n/a
314.6565	0.18	629313	keystroke	a	n/a
314.8065	0.165	629613	keystroke	n	n/a
315.256	0.12	630512	keystroke	t	n/a
315.482	0.15	630964	keystroke	l	n/a
315.857	0.149	631714	keystroke	y	n/a
316.066	0.2255	632132	keystroke	Key.space	n/a
317.7315	0.1645	635463	keystroke	Key.backspace	n/a
318.091	0.09	636182	keystroke	Key.backspace	n/a
318.436	0.15	636872	keystroke	Key.backspace	n/a
318.796	0.1805	637592	keystroke	Key.backspace	n/a
319.1565	0.1495	638313	keystroke	Key.backspace	n/a
319.471	0.105	638942	keystroke	Key.backspace	n/a
319.7865	0.135	639573	keystroke	Key.backspace	n/a
320.1015	0.135	640203	keystroke	Key.backspace	n/a
321.586	0.135	643172	keystroke	Key.backspace	n/a
322.7115	0.15	645423	keystroke	f	n/a
322.8765	0.135	645753	keystroke	i	n/a
323.1015	0.12	646203	keystroke	c	n/a
323.2815	0.135	646563	keystroke	a	n/a
323.4015	0.1345	646803	keystroke	n	n/a
323.6115	0.135	647223	keystroke	t	n/a
323.7765	0.18	647553	keystroke	l	n/a
324.136	0.165	648272	keystroke	y	n/a
324.316	0.1505	648632	keystroke	Key.space	n/a
324.6615	0.15	649323	keystroke	h	n/a
324.8565	0.165	649713	keystroke	o	n/a
324.9615	0.165	649923	keystroke	s	n/a
325.262	0.135	650524	keystroke	t	n/a
325.382	0.18	650764	keystroke	i	n/a
325.576	0.195	651152	keystroke	n	n/a
325.742	0.149	651484	keystroke	g	n/a
325.876	0.1955	651752	keystroke	Key.space	n/a
326.2965	0.18	652593	keystroke	c	n/a
326.4315	0.255	652863	keystroke	o	n/a
326.5815	0.18	653163	keystroke	m	n/a
327.1665	0.18	654333	keystroke	b	n/a
327.3915	0.135	654783	keystroke	i	n/a
327.6015	0.165	655203	keystroke	n	n/a
327.8865	0.18	655773	keystroke	i	n/a
328.0965	0.18	656193	keystroke	n	n/a
328.3065	0.1795	656613	keystroke	g	n/a
328.726	0.165	657452	keystroke	Key.enter	n/a
328.896	10.827	657792	prompt	n/a	gradually agreements webcam remember\n
329.5665	0.12	659133	keystroke	g	n/a
329.8665	0.105	659733	keystroke	r	n/a
330.106	0.151	660212	keystroke	a	n/a
330.3615	0.195	660723	keystroke	d	n/a
330.6465	0.135	661293	keystroke	u	n/a
330.8865	0.1645	661773	keystroke	a	n/a
331.096	0.12	662192	keystroke	l	n/a
331.321	0.12	662642	keystroke	l	n/a
331.7265	0.105	663453	keystroke	y	n/a
331.9965	0.135	663993	keystroke	Key.space	n/a
332.1915	0.165	664383	keystroke	a	n/a
332.4465	0.105	664893	keystroke	g	n/a
332.7165	0.135	665433	keystroke	r	n/a
332.9565	0.0895	665913	keystroke	e	n/a
333.166	0.1055	666332	keystroke	e	n/a
333.3765	0.165	666753	keystroke	m	n/a
333.5115	0.195	667023	keystroke	e	n/a
333.6915	0.165	667383	keystroke	n	n/a
333.8415	0.12	667683	keystroke	t	n/a
334.1565	0.165	668313	keystroke	s	n/a
334.3665	0.15	668733	keystroke	Key.space	n/a
334.5765	0.12	669153	keystroke	w	n/a
334.7865	0.165	669573	keystroke	e	n/a
335.1915	0.15	670383	keystroke	b	n/a
335.596	0.15	671192	keystroke	c	n/a
335.896	0.165	671792	keystroke	a	n/a
336.331	0.165	672662	keystroke	m	n/a
336.616	0.135	673232	keystroke	Key.space	n/a
336.871	0.1205	673742	keystroke	r	n/a
337.0365	0.165	674073	keystroke	e	n/a
337.2765	0.165	674553	keystroke	m	n/a
337.4565	0.1645	674913	keystroke	e	n/a
337.861	0.15	675722	keystroke	m	n/a
338.206	0.24	676412	keystroke	b	n/a
338.9265	0.195	677853	keystroke	e	n/a
339.1515	0.135	678303	keystroke	r	n/a
339.6015	0.1195	679203	keystroke	Key.enter	n/a
339.7265	15.806	679453	prompt	n/a	stainless liability bernard philip\n
340.291	0.12	680582	keystroke	s	n/a
340.561	0.12	681122	keystroke	t	n/a
340.831	0.195	681662	keystroke	a	n/a
341.011	0.18	682022	keystroke	i	n/a
341.252	0.179	682504	keystroke	n	n/a
341.581	0.1205	683162	keystroke	l	n/a
341.761	0.135	683522	keystroke	e	n/a
342.061	0.12	684122	keystroke	s	n/a
342.301	0.1355	684602	keystroke	s	n/a
342.4515	0.1495	684903	keystroke	Key.space	n/a
342.721	0.135	685442	keystroke	l	n/a
342.961	0.135	685922	keystroke	i	n/a
343.111	0.18	686222	keystroke	a	n/a
343.471	0.165	686942	keystroke	b	n/a
343.651	0.105	687302	keystroke	i	n/a
343.876	0.165	687752	keystroke	l	n/a
344.086	0.135	688172	keystroke	i	n/a
344.251	0.165	688502	keystroke	t	n/a
344.566	0.135	689132	keystroke	y	n/a
344.791	0.135	689582	keystroke	Key.space	n/a
345.121	0.1355	690242	keystroke	b	n/a
345.451	0.165	690902	keystroke	e	n/a
345.661	0.15	691322	keystroke	r	n/a
345.871	0.165	691742	keystroke	n	n/a
346.037	0.179	692074	keystroke	a	n/a
346.306	0.121	692612	keystroke	r	n/a
346.591	0.15	693182	keystroke	d	n/a
346.756	0.165	693512	keystroke	Key.space	n/a
348.166	0.165	696332	keystroke	h	n/a
349.111	0.1355	698222	keystroke	Key.backspace	n/a
349.756	0.135	699512	keystroke	o	n/a
350.116	0.0445	700232	keystroke	h	n/a
350.5055	0.12	701011	keystroke	Key.backspace	n/a
350.7455	0.12	701491	keystroke	Key.backspace	n/a
351.4205	0.1205	702841	keystroke	p	n/a
351.7515	0.12	703503	keystroke	h	n/a
352.0215	0.135	704043	keystroke	i	n/a
352.3665	0.135	704733	keystroke	l	n/a
353.476	0.1355	706952	keystroke	i	n/a
353.806	0.12	707612	keystroke	p	n/a
355.426	0.105	710852	keystroke	Key.enter	n/a
355.5355	9.5225	711071	prompt	n/a	favor marks wilderness colleague\n
356.371	0.12	712742	keystroke	f	n/a
356.551	0.15	713102	keystroke	a	n/a
356.761	0.18	713522	keystroke	v	n/a
357.3465	0.15	714693	keystroke	o	n/a
357.5415	0.164	715083	keystroke	r	n/a
357.7805	0.165	715561	keystroke	Key.space	n/a
358.1415	0.119	716283	keystroke	m	n/a
358.2915	0.134	716583	keystroke	a	n/a
358.5165	0.149	717033	keystroke	r	n/a
359.056	0.18	718112	keystroke	k	n/a
359.296	0.15	718592	keystroke	s	n/a
359.7755	0.15	719551	keystroke	Key.space	n/a
360.091	0.15	720182	keystroke	w	n/a
360.286	0.135	720572	keystroke	i	n/a
360.571	0.15	721142	keystroke	l	n/a
360.736	0.105	721472	keystroke	d	n/a
360.9605	0.1655	721921	keystroke	e	n/a
361.141	0.105	722282	keystroke	r	n/a
361.336	0.1655	722672	keystroke	n	n/a
361.5165	0.135	723033	keystroke	e	n/a
361.8465	0.075	723693	keystroke	s	n/a
362.0415	0.135	724083	keystroke	s	n/a
362.1915	0.15	724383	keystroke	Key.space	n/a
362.4015	0.195	724803	keystroke	c	n/a
362.5815	0.1045	725163	keystroke	o	n/a
362.8665	0.12	725733	keystroke	l	n/a
363.0765	0.135	726153	keystroke	l	n/a
363.2415	0.165	726483	keystroke	e	n/a
363.6615	0.1795	727323	keystroke	a	n/a
363.931	0.18	727862	keystroke	g	n/a
364.1715	0.15	728343	keystroke	u	n/a
364.516	0.1355	729032	keystroke	e	n/a
364.9365	0.12	729873	keystroke	Key.enter	n/a
365.0665	12.0815	730133	prompt	n/a	night diane coming likelihood\n
365.9715	0.135	731943	keystroke	n	n/a
366.1815	0.18	732363	keystroke	i	n/a
366.3465	0.105	732693	keystroke	g	n/a
366.4815	0.195	732963	keystroke	h	n/a
366.6765	0.15	733353	keystroke	t	n/a
366.8415	0.21	733683	keystroke	Key.space	n/a
367.1265	0.21	734253	keystroke	d	n/a
367.2915	0.165	734583	keystroke	i	n/a
367.4865	0.195	734973	keystroke	a	n/a
367.6365	0.18	735273	keystroke	n	n/a
367.9515	0.135	735903	keystroke	e	n/a
368.1015	0.1795	736203	keystroke	Key.space	n/a
368.401	0.165	736802	keystroke	c	n/a
368.551	0.21	737102	keystroke	o	n/a
368.716	0.18	737432	keystroke	m	n/a
369.886	0.135	739772	keystroke	i	n/a
370.051	0.225	740102	keystroke	n	n/a
370.291	0.12	740582	keystroke	g	n/a
370.531	0.165	741062	keystroke	Key.space	n/a
370.846	0.15	741692	keystroke	i	n/a
371.4605	0.06	742921	keystroke	Key.backspace	n/a
371.806	0.135	743612	keystroke	l	n/a
372.076	0.105	744152	keystroke	i	n/a
372.331	0.195	744662	keystroke	k	n/a
372.5405	0.12	745081	keystroke	e	n/a
372.8565	0.12	745713	keystroke	l	n/a
373.126	0.136	746252	keystroke	i	n/a
373.951	0.135	747902	keystroke	o	n/a
374.386	0.1205	748772	keystroke	h	n/a
374.9715	0.12	749943	keystroke	Key.backspace	n/a
375.2115	0.12	750423	keystroke	Key.backspace	n/a
375.5265	0.195	751053	keystroke	h	n/a
375.7365	0.135	751473	keystroke	o	n/a
375.9765	0.105	751953	keystroke	o	n/a
376.351	0.15	752702	keystroke	d	n/a
376.981	0.165	753962	keystroke	Key.enter	n/a
377.1515	9.0415	754303	prompt	n/a	bear reaching outdoor jack\n
378.1515	0.12	756303	keystroke	b	n/a
378.466	0.12	756932	keystroke	r	n/a
378.766	0.135	757532	keystroke	a	n/a
379.006	0.105	758012	keystroke	r	n/a
379.291	0.1205	758582	keystroke	Key.space	n/a
379.4415	0.135	758883	keystroke	r	n/a
379.6515	0.12	759303	keystroke	e	n/a
379.9065	0.135	759813	keystroke	a	n/a
380.191	0.21	760382	keystroke	c	n/a
380.431	0.12	760862	keystroke	h	n/a
380.611	0.135	761222	keystroke	i	n/a
380.791	0.21	761582	keystroke	n	n/a
380.986	0.165	761972	keystroke	g	n/a
381.166	0.135	762332	keystroke	Key.space	n/a
381.3915	0.119	762783	keystroke	o	n/a
381.6455	0.1505	763291	keystroke	u	n/a
382.0065	0.09	764013	keystroke	t	n/a
382.2915	0.165	764583	keystroke	d	n/a
382.4715	0.09	764943	keystroke	o	n/a
382.6665	0.105	765333	keystroke	o	n/a
382.8615	0.1495	765723	keystroke	r	n/a
383.086	0.195	766172	keystroke	Key.space	n/a
383.341	0.165	766682	keystroke	j	n/a
383.536	0.1655	767072	keystroke	a	n/a
383.8965	0.225	767793	keystroke	c	n/a
384.2265	0.15	768453	keystroke	l	n/a
385.246	0.09	770492	keystroke	Key.backspace	n/a
385.591	0.1805	771182	keystroke	k	n/a
386.0265	0.165	772053	keystroke	Key.enter	n/a
386.197	8.591	772394	prompt	n/a	cursor jewel better tomorrow\n
387.4215	0.09	774843	keystroke	c	n/a
387.4665	0.1795	774933	keystroke	u	n/a
387.661	0.15	775322	keystroke	r	n/a
387.946	0.135	775892	keystroke	s	n/a
388.111	0.12	776222	keystroke	o	n/a
388.276	0.12	776552	keystroke	r	n/a
388.441	0.18	776882	keystroke	Key.space	n/a
388.7565	0.1795	777513	keystroke	j	n/a
388.906	0.105	777812	keystroke	e	n/a
389.206	0.09	778412	keystroke	w	n/a
389.476	0.1805	778952	keystroke	e	n/a
389.7315	0.18	779463	keystroke	l	n/a
390.0015	0.09	780003	keystroke	Key.space	n/a
390.271	0.12	780542	keystroke	b	n/a
390.556	0.165	781112	keystroke	e	n/a
390.811	0.045	781622	keystroke	t	n/a
390.961	0.12	781922	keystroke	t	n/a
391.186	0.18	782372	keystroke	e	n/a
391.381	0.1355	782762	keystroke	r	n/a
391.681	0.135	783362	keystroke	Key.space	n/a
392.041	0.1205	784082	keystroke	t	n/a
392.1465	0.135	784293	keystroke	o	n/a
392.4315	0.12	784863	keystroke	m	n/a
392.6265	0.15	785253	keystroke	o	n/a
392.851	0.105	785702	keystroke	r	n/a
393.091	0.135	786182	keystroke	r	n/a
393.406	0.165	786812	keystroke	o	n/a
393.572	0.1495	787144	keystroke	w	n/a
394.636	0.15	789272	keystroke	Key.enter	n/a
394.791	9.582	789582	prompt	n/a	algorithm farm upset loop\n
395.551	0.21	791102	keystroke	a	n/a
395.776	0.1655	791552	keystroke	l	n/a
396.5115	0.165	793023	keystroke	g	n/a
396.9165	0.015	793833	keystroke	o	n/a
397.2015	0.165	794403	keystroke	r	n/a
397.4865	0.165	794973	keystroke	i	n/a
397.7715	0.165	795543	keystroke	t	n/a
398.0115	0.12	796023	keystroke	h	n/a
398.5665	0.12	797133	keystroke	m	n/a
398.8515	0.18	797703	keystroke	Key.space	n/a
399.1665	0.135	798333	keystroke	f	n/a
399.4515	0.1645	798903	keystroke	a	n/a
399.811	0.165	799622	keystroke	r	n/a
400.157	0.149	800314	keystroke	m	n/a
400.411	0.195	800822	keystroke	Key.space	n/a
400.666	0.18	801332	keystroke	u	n/a
401.3415	0.18	802683	keystroke	p	n/a
401.6265	0.105	803253	keystroke	s	n/a
401.8665	0.135	803733	keystroke	e	n/a
402.1365	0.135	804273	keystroke	t	n/a
402.3015	0.12	804603	keystroke	Key.space	n/a
402.946	0.09	805892	keystroke	l	n/a
403.1865	0.105	806373	keystroke	o	n/a
403.4565	0.105	806913	keystroke	o	n/a
403.7415	0.105	807483	keystroke	p	n/a
404.221	0.1505	808442	keystroke	Key.enter	n/a
404.376	12.492	808752	prompt	n/a	salmon raised fifty studied\n
405.0465	0.12	810093	keystroke	s	n/a
405.3015	0.18	810603	keystroke	a	n/a
405.5265	0.225	811053	keystroke	l	n/a
405.9765	0.15	811953	keystroke	m	n/a
406.3065	0.135	812613	keystroke	n	n/a
406.5765	0.24	813153	keystroke	o	n/a
406.8315	0.195	813663	keystroke	n	n/a
407.0865	0.195	814173	keystroke	Key.space	n/a
407.3865	0.1205	814773	keystroke	r	n/a
407.6115	0.24	815223	keystroke	a	n/a
408.2715	0.135	816543	keystroke	Key.backspace	n/a
408.5865	0.15	817173	keystroke	Key.backspace	n/a
408.9615	0.18	817923	keystroke	Key.backspace	n/a
409.2915	0.165	818583	keystroke	Key.backspace	n/a
409.5765	0.18	819153	keystroke	Key.backspace	n/a
410.056	0.105	820112	keystroke	Key.backspace	n/a
410.476	0.1655	820952	keystroke	o	n/a
410.6865	0.18	821373	keystroke	n	n/a
410.8815	0.195	821763	keystroke	Key.space	n/a
411.3015	0.1045	822603	keystroke	r	n/a
411.526	0.195	823052	keystroke	a	n/a
411.706	0.15	823412	keystroke	i	n/a
411.916	0.15	823832	keystroke	s	n/a
412.171	0.12	824342	keystroke	e	n/a
412.441	0.195	824882	keystroke	d	n/a
412.621	0.135	825242	keystroke	Key.space	n/a
413.221	0.15	826442	keystroke	f	n/a
413.461	0.1355	826922	keystroke	i	n/a
413.7465	0.135	827493	keystroke	f	n/a
414.1965	0.105	828393	keystroke	t	n/a
414.5265	0.1345	829053	keystroke	y	n/a
414.736	0.18	829472	keystroke	Key.space	n/a
414.931	0.12	829862	keystroke	s	n/a
415.186	0.105	830372	keystroke	t	n/a
415.4565	0.18	830913	keystroke	u	n/a
415.6515	0.1195	831303	keystroke	d	n/a
415.891	0.12	831782	keystroke	i	n/a
416.101	0.09	832202	keystroke	e	n/a
416.341	0.18	832682	keystroke	d	n/a
416.716	0.15	833432	keystroke	Key.enter	n/a
416.8725	21.2955	833745	prompt	n/a	ain't chemicals sixth constitution\n
417.556	0.21	835112	keystroke	a	n/a
417.781	0.1355	835562	keystroke	i	n/a
418.0515	0.15	836103	keystroke	n	n/a
418.2315	0.135	836463	keystroke	t	n/a
419.0865	0.1195	838173	keystroke	'	n/a
421.156	0.105	842312	keystroke	Key.backspace	n/a
421.531	0.09	843062	keystroke	Key.backspace	n/a
422.401	0.12	844802	keystroke	'	n/a
422.626	0.12	845252	keystroke	t	n/a
422.9715	0.15	845943	keystroke	Key.space	n/a
423.3465	0.18	846693	keystroke	c	n/a
423.5415	0.12	847083	keystroke	h	n/a
423.766	0.165	847532	keystroke	e	n/a
423.976	0.165	847952	keystroke	m	n/a
424.2915	0.12	848583	keystroke	i	n/a
424.4715	0.1645	848943	keystroke	c	n/a
424.726	0.15	849452	keystroke	a	n/a
424.891	0.165	849782	keystroke	l	n/a
425.146	0.195	850292	keystroke	s	n/a
425.356	0.135	850712	keystroke	Key.space	n/a
425.566	0.1505	851132	keystroke	s	n/a
425.7305	0.136	851461	keystroke	i	n/a
426.931	0.21	853862	keystroke	x	n/a
427.576	0.135	855152	keystroke	t	n/a
427.786	0.15	855572	keystroke	h	n/a
427.981	0.15	855962	keystroke	Key.space	n/a
429.2415	0.195	858483	keystroke	o	n/a
429.631	0.105	859262	keystroke	n	n/a
430.2465	0.135	860493	keystroke	Key.backspace	n/a
430.5015	0.075	861003	keystroke	Key.backspace	n/a
430.6665	0.18	861333	keystroke	c	n/a
430.8765	0.21	861753	keystroke	o	n/a
431.0865	0.15	862173	keystroke	n	n/a
431.2515	0.165	862503	keystroke	s	n/a
431.6265	0.12	863253	keystroke	t	n/a
431.851	0.12	863702	keystroke	i	n/a
432.016	0.15	864032	keystroke	t	n/a
432.271	0.165	864542	keystroke	u	n/a
433.306	0.15	866612	keystroke	Key.backspace	n/a
434.176	0.165	868352	keystroke	t	n/a
436.081	0.195	872162	keystroke	Key.backspace	n/a
436.531	0.135	873062	keystroke	u	n/a
437.101	0.12	874202	keystroke	t	n/a
437.266	0.135	874532	keystroke	i	n/a
437.401	0.24	874802	keystroke	o	n/a
437.596	0.1805	875192	keystroke	n	n/a
438.0305	0.135	876061	keystroke	Key.enter	n/a
438.172	7.3155	876344	prompt	n/a	meet marks fatty hawaii\n
438.8415	0.149	877683	keystroke	m	n/a
439.0355	0.09	878071	keystroke	e	n/a
439.2165	0.165	878433	keystroke	e	n/a
439.486	0.12	878972	keystroke	t	n/a
439.681	0.1205	879362	keystroke	Key.space	n/a
439.8915	0.18	879783	keystroke	m	n/a
440.0265	0.165	880053	keystroke	a	n/a
440.251	0.15	880502	keystroke	r	n/a
440.386	0.1505	880772	keystroke	k	n/a
440.9415	0.135	881883	keystroke	s	n/a
441.1815	0.12	882363	keystroke	Key.space	n/a
441.3765	0.12	882753	keystroke	f	n/a
441.571	0.12	883142	keystroke	a	n/a
441.841	0.075	883682	keystroke	t	n/a
442.036	0.06	884072	keystroke	t	n/a
442.366	0.165	884732	keystroke	y	n/a
442.516	0.195	885032	keystroke	Key.space	n/a
442.786	0.18	885572	keystroke	h	n/a
442.951	0.165	885902	keystroke	a	n/a
444.1355	0.12	888271	keystroke	w	n/a
444.4205	0.225	888841	keystroke	a	n/a
444.7205	0.09	889441	keystroke	i	n/a
444.9455	0.09	889891	keystroke	i	n/a
445.3505	0.135	890701	keystroke	Key.enter	n/a
445.493	14.44	890986	prompt	n/a	kirk barbados brokers geological\n
446.2805	0.136	892561	keystroke	k	n/a
446.6555	0.045	893311	keystroke	i	n/a
447.646	0.135	895292	keystroke	r	n/a
448.411	0.18	896822	keystroke	k	n/a
448.8305	0.135	897661	keystroke	Key.space	n/a
449.1615	0.149	898323	keystroke	b	n/a
449.3855	0.1955	898771	keystroke	a	n/a
449.7155	0.12	899431	keystroke	r	n/a
450.106	0.135	900212	keystroke	b	n/a
450.331	0.15	900662	keystroke	a	n/a
450.8715	0.18	901743	keystroke	d	n/a
451.1265	0.135	902253	keystroke	o	n/a
451.276	0.1805	902552	keystroke	s	n/a
451.4715	0.15	902943	keystroke	Key.space	n/a
451.7715	0.15	903543	keystroke	b	n/a
452.8365	0.165	905673	keystroke	r	n/a
453.0465	0.135	906093	keystroke	o	n/a
453.3915	0.165	906783	keystroke	k	n/a
453.6155	0.181	907231	keystroke	e	n/a
453.8415	0.12	907683	keystroke	r	n/a
454.1265	0.18	908253	keystroke	s	n/a
454.3355	0.166	908671	keystroke	Key.space	n/a
454.666	0.165	909332	keystroke	g	n/a
454.936	0.12	909872	keystroke	e	n/a
455.401	0.075	910802	keystroke	o	n/a
455.7015	0.105	911403	keystroke	l	n/a
456.0605	0.12	912121	keystroke	o	n/a
457.546	0.135	915092	keystroke	g	n/a
457.786	0.12	915572	keystroke	i	n/a
458.941	0.165	917882	keystroke	c	n/a
459.2405	0.196	918481	keystroke	a	n/a
459.4205	0.135	918841	keystroke	l	n/a
459.811	0.12	919622	keystroke	Key.enter	n/a
459.936	9.4465	919872	prompt	n/a	outline workshop supervisor hats\n
460.741	0.1045	921482	keystroke	o	n/a
460.981	0.12	921962	keystroke	u	n/a
461.206	0.15	922412	keystroke	t	n/a
461.476	0.1655	922952	keystroke	l	n/a
461.7315	0.12	923463	keystroke	i	n/a
461.9415	0.195	923883	keystroke	n	n/a
462.4365	0.18	924873	keystroke	e	n/a
462.7655	0.15	925531	keystroke	Key.space	n/a
463.2165	0.135	926433	keystroke	w	n/a
463.3665	0.21	926733	keystroke	o	n/a
463.5615	0.1645	927123	keystroke	r	n/a
463.741	0.18	927482	keystroke	k	n/a
464.086	0.18	928172	keystroke	s	n/a
464.281	0.21	928562	keystroke	h	n/a
464.6415	0.15	929283	keystroke	o	n/a
464.9565	0.119	929913	keystroke	p	n/a
465.2855	0.135	930571	keystroke	Key.space	n/a
465.676	0.15	931352	keystroke	s	n/a
465.871	0.15	931742	keystroke	u	n/a
466.171	0.165	932342	keystroke	p	n/a
466.366	0.18	932732	keystroke	e	n/a
466.561	0.135	933122	keystroke	r	n/a
466.921	0.135	933842	keystroke	v	n/a
467.041	0.15	934082	keystroke	i	n/a
467.251	0.135	934502	keystroke	s	n/a
467.416	0.165	934832	keystroke	o	n/a
467.596	0.15	935192	keystroke	r	n/a
467.851	0.135	935702	keystroke	Key.space	n/a
468.121	0.18	936242	keystroke	h	n/a
468.286	0.18	936572	keystroke	a	n/a
468.556	0.135	937112	keystroke	t	n/a
468.901	0.1045	937802	keystroke	s	n/a
469.261	0.12	938522	keystroke	Key.enter	n/a
469.386	13.917	938772	prompt	n/a	regulated representations genome festivals\n
470.281	0.12	940562	keystroke	r	n/a
470.461	0.12	940922	keystroke	e	n/a
470.761	0.18	941522	keystroke	g	n/a
470.971	0.12	941942	keystroke	u	n/a
471.226	0.18	942452	keystroke	l	n/a
471.361	0.15	942722	keystroke	a	n/a
471.616	0.1655	943232	keystroke	t	n/a
471.8265	0.1345	943653	keystroke	e	n/a
472.081	0.165	944162	keystroke	d	n/a
472.291	0.105	944582	keystroke	Key.space	n/a
472.546	0.12	945092	keystroke	r	n/a
472.726	0.165	945452	keystroke	e	n/a
473.011	0.21	946022	keystroke	p	n/a
473.2355	0.12	946471	keystroke	r	n/a
473.7005	0.15	947401	keystroke	e	n/a
474.0755	0.12	948151	keystroke	s	n/a
475.0505	0.165	950101	keystroke	e	n/a
475.2305	0.135	950461	keystroke	n	n/a
475.3955	0.12	950791	keystroke	t	n/a
475.7105	0.135	951421	keystroke	a	n/a
475.951	0.1505	951902	keystroke	t	n/a
476.1165	0.165	952233	keystroke	i	n/a
476.266	0.2405	952532	keystroke	o	n/a
476.4615	0.15	952923	keystroke	n	n/a
476.6715	0.12	953343	keystroke	s	n/a
476.8515	0.165	953703	keystroke	Key.space	n/a
477.1215	0.105	954243	keystroke	g	n/a
477.346	0.18	954692	keystroke	e	n/a
477.511	0.15	955022	keystroke	n	n/a
477.736	0.09	955472	keystroke	o	n/a
478.066	0.15	956132	keystroke	m	n/a
478.231	0.165	956462	keystroke	e	n/a
478.801	0.135	957602	keystroke	Key.space	n/a
479.056	0.12	958112	keystroke	f	n/a
479.311	0.135	958622	keystroke	e	n/a
479.566	0.1205	959132	keystroke	s	n/a
479.8215	0.09	959643	keystroke	t	n/a
479.9265	0.165	959853	keystroke	i	n/a
480.1965	0.0895	960393	keystroke	v	n/a
480.466	0.15	960932	keystroke	a	n/a
480.766	0.15	961532	keystroke	s	n/a
482.1305	0.135	964261	keystroke	Key.backspace	n/a
482.6265	0.1645	965253	keystroke	l	n/a
482.806	0.12	965612	keystroke	s	n/a
483.181	0.12	966362	keystroke	Key.enter	n/a
483.309	12.9835	966618	prompt	n/a	permits puppy projection wales\n
484.0655	0.196	968131	keystroke	p	n/a
484.2315	0.15	968463	keystroke	e	n/a
484.3965	0.135	968793	keystroke	r	n/a
484.6815	0.15	969363	keystroke	m	n/a
484.9965	0.15	969993	keystroke	i	n/a
485.2065	0.12	970413	keystroke	t	n/a
485.5065	0.165	971013	keystroke	s	n/a
485.7315	0.195	971463	keystroke	Key.space	n/a
486.7215	0.2245	973443	keystroke	p	n/a
487.351	0.12	974702	keystroke	u	n/a
487.6365	0.15	975273	keystroke	p	n/a
487.9065	0.1195	975813	keystroke	p	n/a
488.281	0.1495	976562	keystroke	y	n/a
488.5205	0.27	977041	keystroke	Key.space	n/a
488.8355	0.165	977671	keystroke	p	n/a
489.0755	0.165	978151	keystroke	f	n/a
490.1555	0.135	980311	keystroke	Key.backspace	n/a
490.4555	0.12	980911	keystroke	r	n/a
490.6355	0.135	981271	keystroke	o	n/a
491.101	0.15	982202	keystroke	j	n/a
491.296	0.105	982592	keystroke	e	n/a
491.611	0.165	983222	keystroke	c	n/a
491.911	0.1355	983822	keystroke	t	n/a
492.0615	0.15	984123	keystroke	i	n/a
492.1965	0.315	984393	keystroke	o	n/a
492.4365	0.18	984873	keystroke	n	n/a
492.6165	0.165	985233	keystroke	Key.space	n/a
492.8565	0.135	985713	keystroke	w	n/a
493.1865	0.195	986373	keystroke	a	n/a
493.4115	0.12	986823	keystroke	i	n/a
493.6965	0.18	987393	keystroke	l	n/a
493.9365	0.21	987873	keystroke	e	n/a
494.3715	0.09	988743	keystroke	Key.backspace	n/a
494.6715	0.09	989343	keystroke	Key.backspace	n/a
494.9715	0.105	989943	keystroke	Key.backspace	n/a
495.391	0.165	990782	keystroke	l	n/a
495.556	0.1055	991112	keystroke	e	n/a
495.8565	0.105	991713	keystroke	s	n/a
496.1565	0.1345	992313	keystroke	Key.enter	n/a
496.2955	14.967	992591	prompt	n/a	poem suicide prerequisite causes\n
497.101	0.135	994202	keystroke	p	n/a
497.356	0.18	994712	keystroke	o	n/a
497.551	0.21	995102	keystroke	e	n/a
497.806	0.165	995612	keystroke	m	n/a
498.061	0.18	996122	keystroke	Key.space	n/a
498.256	0.165	996512	keystroke	s	n/a
498.436	0.135	996872	keystroke	u	n/a
498.9755	0.12	997951	keystroke	i	n/a
499.186	0.1505	998372	keystroke	c	n/a
499.6965	0.15	999393	keystroke	i	n/a
499.8465	0.21	999693	keystroke	c	n/a
500.5355	0.135	1001071	keystroke	Key.backspace	n/a
500.6555	0.135	1001311	keystroke	d	n/a
500.9255	0.1505	1001851	keystroke	e	n/a
501.136	0.225	1002272	keystroke	Key.space	n/a
501.526	0.195	1003052	keystroke	p	n/a
501.886	0.165	1003772	keystroke	r	n/a
502.126	0.18	1004252	keystroke	e	n/a
502.621	0.195	1005242	keystroke	r	n/a
503.251	0.15	1006502	keystroke	e	n/a
504.211	0.195	1008422	keystroke	q	n/a
504.571	0.15	1009142	keystroke	u	n/a
504.856	0.165	1009712	keystroke	i	n/a
504.991	0.135	1009982	keystroke	s	n/a
506.8355	0.165	1013671	keystroke	Key.backspace	n/a
508.351	0.165	1016702	keystroke	s	n/a
508.531	0.15	1017062	keystroke	i	n/a
508.696	0.12	1017392	keystroke	t	n/a
508.966	0.135	1017932	keystroke	e	n/a
509.116	0.135	1018232	keystroke	Key.space	n/a
509.371	0.15	1018742	keystroke	c	n/a
509.611	0.15	1019222	keystroke	a	n/a
509.731	0.135	1019462	keystroke	u	n/a
509.941	0.105	1019882	keystroke	s	n/a
510.166	0.075	1020332	keystroke	e	n/a
510.781	0.12	1021562	keystroke	s	n/a
511.126	0.135	1022252	keystroke	Key.enter	n/a
511.267	10.736	1022534	prompt	n/a	mats glucose defensive watershed\n
511.951	0.15	1023902	keystroke	m	n/a
512.071	0.18	1024142	keystroke	a	n/a
512.341	0.105	1024682	keystroke	t	n/a
512.656	0.1345	1025312	keystroke	s	n/a
512.8055	0.106	1025611	keystroke	Key.space	n/a
513.3765	0.12	1026753	keystroke	g	n/a
513.646	0.165	1027292	keystroke	l	n/a
514.1115	0.18	1028223	keystroke	u	n/a
514.5615	0.119	1029123	keystroke	c	n/a
514.9955	0.135	1029991	keystroke	o	n/a
515.2805	0.12	1030561	keystroke	s	n/a
515.5805	0.1355	1031161	keystroke	e	n/a
515.761	0.075	1031522	keystroke	Key.space	n/a
516.2555	0.15	1032511	keystroke	d	n/a
516.601	0.1645	1033202	keystroke	e	n/a
516.856	0.135	1033712	keystroke	f	n/a
517.066	0.12	1034132	keystroke	e	n/a
517.381	0.105	1034762	keystroke	n	n/a
517.8465	0.134	1035693	keystroke	s	n/a
518.1155	0.1655	1036231	keystroke	i	n/a
518.266	0.195	1036532	keystroke	v	n/a
518.581	0.15	1037162	keystroke	e	n/a
518.836	0.135	1037672	keystroke	Key.space	n/a
519.151	0.135	1038302	keystroke	w	n/a
519.481	0.18	1038962	keystroke	a	n/a
519.8255	0.135	1039651	keystroke	t	n/a
520.0805	0.2255	1040161	keystroke	e	n/a
520.351	0.12	1040702	keystroke	r	n/a
520.741	0.135	1041482	keystroke	s	n/a
520.9505	0.18	1041901	keystroke	h	n/a
521.1455	0.135	1042291	keystroke	e	n/a
521.4755	0.15	1042951	keystroke	d	n/a
521.836	0.165	1043672	keystroke	Key.enter	n/a
522.0075	14.86	1044015	prompt	n/a	accident disability ecuador development\n
522.676	0.15	1045352	keystroke	a	n/a
523.006	0.12	1046012	keystroke	c	n/a
523.246	0.165	1046492	keystroke	c	n/a
523.441	0.165	1046882	keystroke	i	n/a
523.636	0.1195	1047272	keystroke	d	n/a
523.8905	0.18	1047781	keystroke	e	n/a
524.0855	0.15	1048171	keystroke	n	n/a
524.2655	0.15	1048531	keystroke	Key.space	n/a
524.5205	0.18	1049041	keystroke	d	n/a
524.7155	0.135	1049431	keystroke	i	n/a
525.6605	0.12	1051321	keystroke	Key.backspace	n/a
525.961	0.09	1051922	keystroke	Key.backspace	n/a
526.216	0.1795	1052432	keystroke	Key.backspace	n/a
526.6955	0.12	1053391	keystroke	t	n/a
526.9505	0.165	1053901	keystroke	Key.space	n/a
527.4755	0.045	1054951	keystroke	d	n/a
527.5355	0.15	1055071	keystroke	i	n/a
528.0155	0.135	1056031	keystroke	s	n/a
528.2855	0.166	1056571	keystroke	a	n/a
528.6165	0.179	1057233	keystroke	b	n/a
528.8105	0.121	1057621	keystroke	i	n/a
529.0815	0.179	1058163	keystroke	l	n/a
529.291	0.165	1058582	keystroke	i	n/a
529.546	0.1795	1059092	keystroke	t	n/a
529.8455	0.135	1059691	keystroke	y	n/a
530.0405	0.15	1060081	keystroke	Key.space	n/a
530.3105	0.105	1060621	keystroke	e	n/a
530.7755	0.1955	1061551	keystroke	c	n/a
531.1055	0.165	1062211	keystroke	u	n/a
531.3155	0.1205	1062631	keystroke	a	n/a
531.526	0.1945	1063052	keystroke	d	n/a
531.6905	0.165	1063381	keystroke	o	n/a
531.9305	0.151	1063861	keystroke	r	n/a
532.1405	0.21	1064281	keystroke	Key.space	n/a
532.3655	0.15	1064731	keystroke	d	n/a
533.881	0.165	1067762	keystroke	e	n/a
534.211	0.135	1068422	keystroke	v	n/a
534.451	0.1495	1068902	keystroke	e	n/a
534.6155	0.135	1069231	keystroke	l	n/a
535.2455	0.135	1070491	keystroke	o	n/a
535.591	0.12	1071182	keystroke	p	n/a
535.906	0.15	1071812	keystroke	m	n/a
535.981	0.18	1071962	keystroke	e	n/a
536.191	0.18	1072382	keystroke	n	n/a
536.356	0.135	1072712	keystroke	t	n/a
536.776	0.09	1073552	keystroke	Key.enter	n/a
536.8705	10.557	1073741	prompt	n/a	government eddie employers usually\n
537.496	0.135	1074992	keystroke	g	n/a
537.691	0.135	1075382	keystroke	o	n/a
537.811	0.135	1075622	keystroke	v	n/a
538.051	0.165	1076102	keystroke	e	n/a
538.6505	0.135	1077301	keystroke	r	n/a
538.8605	0.105	1077721	keystroke	n	n/a
539.2205	0.105	1078441	keystroke	m	n/a
539.401	0.21	1078802	keystroke	e	n/a
539.551	0.15	1079102	keystroke	n	n/a
539.746	0.135	1079492	keystroke	t	n/a
539.926	0.1795	1079852	keystroke	Key.space	n/a
540.1955	0.105	1080391	keystroke	e	n/a
540.4655	0.12	1080931	keystroke	d	n/a
541.036	0.135	1082072	keystroke	d	n/a
541.2605	0.136	1082521	keystroke	i	n/a
541.4865	0.1195	1082973	keystroke	e	n/a
541.621	0.195	1083242	keystroke	Key.space	n/a
542.0855	0.165	1084171	keystroke	e	n/a
542.5205	0.1205	1085041	keystroke	m	n/a
542.911	0.18	1085822	keystroke	p	n/a
543.241	0.15	1086482	keystroke	l	n/a
543.496	0.15	1086992	keystroke	o	n/a
543.871	0.15	1087742	keystroke	y	n/a
544.081	0.18	1088162	keystroke	e	n/a
544.291	0.105	1088582	keystroke	r	n/a
544.576	0.12	1089152	keystroke	s	n/a
544.906	0.165	1089812	keystroke	Key.space	n/a
545.371	0.1205	1090742	keystroke	u	n/a
545.5365	0.18	1091073	keystroke	s	n/a
545.8065	0.15	1091613	keystroke	u	n/a
546.0615	0.21	1092123	keystroke	a	n/a
546.3315	0.12	1092663	keystroke	l	n/a
546.5715	0.12	1093143	keystroke	l	n/a
546.9155	0.136	1093831	keystroke	y	n/a
547.3355	0.091	1094671	keystroke	Key.enter	n/a
547.4305	8.9525	1094861	prompt	n/a	senator script milwaukee famous\n
548.0415	0.09	1096083	keystroke	s	n/a
548.2515	0.135	1096503	keystroke	e	n/a
548.3865	0.165	1096773	keystroke	n	n/a
548.5665	0.15	1097133	keystroke	a	n/a
548.8365	0.105	1097673	keystroke	t	n/a
548.9865	0.1495	1097973	keystroke	o	n/a
549.181	0.12	1098362	keystroke	r	n/a
549.376	0.21	1098752	keystroke	Key.space	n/a
549.631	0.105	1099262	keystroke	s	n/a
549.946	0.15	1099892	keystroke	c	n/a
550.246	0.135	1100492	keystroke	r	n/a
550.411	0.105	1100822	keystroke	i	n/a
550.696	0.18	1101392	keystroke	p	n/a
551.0405	0.12	1102081	keystroke	t	n/a
551.2955	0.1655	1102591	keystroke	Key.space	n/a
551.5955	0.165	1103191	keystroke	m	n/a
551.881	0.12	1103762	keystroke	i	n/a
552.181	0.1495	1104362	keystroke	l	n/a
552.5405	0.135	1105081	keystroke	w	n/a
552.8255	0.15	1105651	keystroke	a	n/a
553.3355	0.09	1106671	keystroke	u	n/a
553.6365	0.1645	1107273	keystroke	k	n/a
553.831	0.105	1107662	keystroke	e	n/a
554.011	0.15	1108022	keystroke	e	n/a
554.296	0.105	1108592	keystroke	Key.space	n/a
554.776	0.12	1109552	keystroke	f	n/a
554.971	0.1795	1109942	keystroke	a	n/a
555.1815	0.149	1110363	keystroke	m	n/a
555.3915	0.119	1110783	keystroke	o	n/a
555.6465	0.119	1111293	keystroke	u	n/a
555.8405	0.1205	1111681	keystroke	s	n/a
556.186	0.195	1112372	keystroke	Key.enter	n/a
556.3875	37.6155	1112775	prompt	n/a	pick penguin omaha quickly\n
557.476	0.165	1114952	keystroke	p	n/a
557.986	0.225	1115972	keystroke	c	n/a
558.8555	0.165	1117711	keystroke	Key.backspace	n/a
559.231	0.165	1118462	keystroke	i	n/a
559.411	0.18	1118822	keystroke	c	n/a
559.636	0.1805	1119272	keystroke	k	n/a
559.9505	0.15	1119901	keystroke	Key.space	n/a
560.3405	0.18	1120681	keystroke	p	n/a
560.5355	0.1805	1121071	keystroke	e	n/a
560.746	0.18	1121492	keystroke	n	n/a
561.301	0.12	1122602	keystroke	q	n/a
561.5115	0.135	1123023	keystroke	u	n/a
561.766	0.1645	1123532	keystroke	i	n/a
562.0505	0.136	1124101	keystroke	n	n/a
562.2005	0.135	1124401	keystroke	Key.space	n/a
562.4555	0.12	1124911	keystroke	o	n/a
562.9055	0.18	1125811	keystroke	m	n/a
563.746	0.21	1127492	keystroke	a	n/a
564.0755	0.105	1128151	keystroke	h	n/a
564.796	0.165	1129592	keystroke	a	n/a
565.336	0.12	1130672	keystroke	Key.space	n/a
565.8605	0.2105	1131721	keystroke	q	n/a
566.131	0.135	1132262	keystroke	u	n/a
571.339	0.1325	1142678	keystroke	c	n/a
571.4265	0.18	1142853	keystroke	k	n/a
571.8465	0.15	1143693	keystroke	l	n/a
572.2215	0.135	1144443	keystroke	y	n/a
579.1085	0.028	1158217	keystroke	Key.left	n/a
579.2865	0.09	1158573	keystroke	Key.left	n/a
579.5415	0.075	1159083	keystroke	Key.left	n/a
579.7815	0.09	1159563	keystroke	Key.left	n/a
580.0365	0.09	1160073	keystroke	Key.left	n/a
580.2465	0.09	1160493	keystroke	Key.left	n/a
580.4565	0.075	1160913	keystroke	Key.left	n/a
580.6815	0.09	1161363	keystroke	Key.left	n/a
580.9215	0.09	1161843	keystroke	Key.left	n/a
581.146	0.075	1162292	keystroke	Key.left	n/a
581.326	0.105	1162652	keystroke	Key.left	n/a
581.521	0.09	1163042	keystroke	Key.left	n/a
581.701	0.12	1163402	keystroke	Key.left	n/a
581.896	0.105	1163792	keystroke	Key.left	n/a
582.106	0.075	1164212	keystroke	Key.left	n/a
582.481	0.18	1164962	keystroke	Key.left	n/a
583.381	0.1355	1166762	keystroke	Key.backspace	n/a
585.406	0.12	1170812	keystroke	q	n/a
588.8285	0.073	1177657	keystroke	Key.backspace	n/a
589.531	0.12	1179062	keystroke	g	n/a
592.4585	0.013	1184917	keystroke	Key.right	n/a
592.6065	0.09	1185213	keystroke	Key.right	n/a
593.8965	0.1055	1187793	keystroke	Key.enter	n/a
594.0065	18.7765	1188013	prompt	n/a	flash weblogs injection obtaining\n
594.886	0.1355	1189772	keystroke	f	n/a
595.051	0.195	1190102	keystroke	l	n/a
595.186	0.18	1190372	keystroke	a	n/a
595.426	0.12	1190852	keystroke	s	n/a
595.591	0.1205	1191182	keystroke	h	n/a
595.7415	0.165	1191483	keystroke	Key.space	n/a
596.027	0.105	1192054	keystroke	w	n/a
596.311	0.211	1192622	keystroke	e	n/a
596.821	0.1355	1193642	keystroke	b	n/a
597.1365	0.09	1194273	keystroke	o	n/a
597.6615	0.12	1195323	keystroke	g	n/a
597.9615	0.1495	1195923	keystroke	s	n/a
598.1855	0.12	1196371	keystroke	Key.space	n/a
598.441	0.12	1196882	keystroke	i	n/a
598.621	0.1505	1197242	keystroke	n	n/a
602.3735	0.058	1204747	keystroke	Key.backspace	n/a
602.6565	0.15	1205313	keystroke	Key.backspace	n/a
603.1065	0.135	1206213	keystroke	Key.backspace	n/a
603.466	0.18	1206932	keystroke	Key.backspace	n/a
603.991	0.015	1207982	keystroke	Key.backspace	n/a
604.2765	0.12	1208553	keystroke	Key.backspace	n/a
605.3415	0.105	1210683	keystroke	l	n/a
605.5815	0.165	1211163	keystroke	o	n/a
605.8065	0.135	1211613	keystroke	g	n/a
606.4815	0.1345	1212963	keystroke	s	n/a
606.691	0.1505	1213382	keystroke	Key.space	n/a
606.9615	0.15	1213923	keystroke	i	n/a
607.1565	0.18	1214313	keystroke	n	n/a
607.847	0.15	1215694	keystroke	j	n/a
608.101	0.12	1216202	keystroke	e	n/a
608.401	0.151	1216802	keystroke	c	n/a
608.702	0.134	1217404	keystroke	t	n/a
608.837	0.09	1217674	keystroke	i	n/a
608.912	0.2395	1217824	keystroke	o	n/a
609.1365	0.165	1218273	keystroke	n	n/a
609.3165	0.12	1218633	keystroke	Key.space	n/a
609.5565	0.12	1219113	keystroke	o	n/a
609.7065	0.12	1219413	keystroke	b	n/a
610.4265	0.06	1220853	keystroke	t	n/a
610.861	0.12	1221722	keystroke	a	n/a
611.161	0.135	1222322	keystroke	i	n/a
611.386	0.135	1222772	keystroke	n	n/a
611.6565	0.1495	1223313	keystroke	i	n/a
611.7465	0.2395	1223493	keystroke	n	n/a
612.031	0.12	1224062	keystroke	g	n/a
612.6465	0.135	1225293	keystroke	Key.enter	n/a
612.7865	10.4075	1225573	prompt	n/a	unknown institutions stranger obesity\n
613.5165	0.1195	1227033	keystroke	u	n/a
613.801	0.165	1227602	keystroke	n	n/a
614.101	0.165	1228202	keystroke	k	n/a
614.311	0.21	1228622	keystroke	n	n/a
614.522	0.164	1229044	keystroke	o	n/a
614.761	0.18	1229522	keystroke	w	n/a
614.956	0.1355	1229912	keystroke	n	n/a
615.1965	0.165	1230393	keystroke	Key.space	n/a
615.4215	0.15	1230843	keystroke	i	n/a
615.7515	0.15	1231503	keystroke	n	n/a
615.9465	0.165	1231893	keystroke	s	n/a
616.2315	0.135	1232463	keystroke	t	n/a
616.4415	0.15	1232883	keystroke	i	n/a
616.6065	0.165	1233213	keystroke	t	n/a
616.9965	0.135	1233993	keystroke	u	n/a
617.2365	0.15	1234473	keystroke	t	n/a
617.6265	0.165	1235253	keystroke	i	n/a
617.8665	0.195	1235733	keystroke	o	n/a
618.1065	0.18	1236213	keystroke	n	n/a
618.3465	0.15	1236693	keystroke	s	n/a
618.6765	0.15	1237353	keystroke	Key.space	n/a
618.8715	0.15	1237743	keystroke	s	n/a
619.201	0.09	1238402	keystroke	t	n/a
619.426	0.135	1238852	keystroke	r	n/a
619.6965	0.195	1239393	keystroke	a	n/a
619.8765	0.18	1239753	keystroke	n	n/a
620.0715	0.135	1240143	keystroke	g	n/a
620.2515	0.165	1240503	keystroke	e	n/a
620.4765	0.15	1240953	keystroke	r	n/a
620.6705	0.151	1241341	keystroke	Key.space	n/a
620.9565	0.15	1241913	keystroke	o	n/a
621.1955	0.15	1242391	keystroke	b	n/a
621.5115	0.1195	1243023	keystroke	e	n/a
621.811	0.09	1243622	keystroke	s	n/a
621.991	0.165	1243982	keystroke	i	n/a
622.201	0.165	1244402	keystroke	t	n/a
622.531	0.135	1245062	keystroke	y	n/a
623.056	0.135	1246112	keystroke	Key.enter	n/a
623.1975	10.4955	1246395	prompt	n/a	transform marshall rage four\n
623.8355	0.105	1247671	keystroke	t	n/a
624.0615	0.134	1248123	keystroke	r	n/a
624.3615	0.2245	1248723	keystroke	a	n/a
624.6015	0.1195	1249203	keystroke	n	n/a
624.826	0.15	1249652	keystroke	s	n/a
625.396	0.15	1250792	keystroke	f	n/a
625.561	0.12	1251122	keystroke	o	n/a
626.116	0.135	1252232	keystroke	r	n/a
626.356	0.135	1252712	keystroke	m	n/a
626.596	0.09	1253192	keystroke	Key.space	n/a
626.881	0.195	1253762	keystroke	m	n/a
627.106	0.195	1254212	keystroke	a	n/a
627.601	0.12	1255202	keystroke	r	n/a
627.916	0.135	1255832	keystroke	s	n/a
628.111	0.15	1256222	keystroke	h	n/a
628.246	0.195	1256492	keystroke	a	n/a
628.501	0.105	1257002	keystroke	l	n/a
628.7115	0.135	1257423	keystroke	l	n/a
628.9215	0.1045	1257843	keystroke	Key.space	n/a
629.2065	0.1345	1258413	keystroke	r	n/a
629.446	0.2095	1258892	keystroke	a	n/a
629.7605	0.18	1259521	keystroke	g	n/a
631.591	0.1505	1263182	keystroke	e	n/a
632.326	0.135	1264652	keystroke	Key.space	n/a
632.611	0.1955	1265222	keystroke	f	n/a
632.7465	0.12	1265493	keystroke	o	n/a
632.9565	0.165	1265913	keystroke	u	n/a
633.1815	0.165	1266363	keystroke	r	n/a
633.5565	0.1345	1267113	keystroke	Key.enter	n/a
633.698	12.205	1267396	prompt	n/a	hurricane crew medline seafood\n
634.681	0.12	1269362	keystroke	h	n/a
634.921	0.15	1269842	keystroke	u	n/a
635.131	0.09	1270262	keystroke	r	n/a
635.326	0.1205	1270652	keystroke	r	n/a
635.5215	0.1945	1271043	keystroke	i	n/a
635.806	0.135	1271612	keystroke	c	n/a
636.046	0.1955	1272092	keystroke	a	n/a
636.2265	0.165	1272453	keystroke	n	n/a
636.4665	0.1945	1272933	keystroke	Key.space	n/a
636.796	0.165	1273592	keystroke	c	n/a
637.186	0.225	1274372	keystroke	r	n/a
637.9515	0.06	1275903	keystroke	Key.backspace	n/a
638.176	0.105	1276352	keystroke	Key.backspace	n/a
638.3715	0.165	1276743	keystroke	Key.backspace	n/a
638.6715	0.165	1277343	keystroke	e	n/a
638.8665	0.135	1277733	keystroke	Key.space	n/a
639.1215	0.1645	1278243	keystroke	c	n/a
639.406	0.195	1278812	keystroke	r	n/a
639.586	0.135	1279172	keystroke	e	n/a
639.841	0.105	1279682	keystroke	w	n/a
640.036	0.12	1280072	keystroke	Key.space	n/a
640.426	0.1355	1280852	keystroke	m	n/a
641.117	0.12	1282234	keystroke	e	n/a
641.462	0.105	1282924	keystroke	d	n/a
641.9565	0.165	1283913	keystroke	l	n/a
642.2415	0.12	1284483	keystroke	i	n/a
642.4515	0.15	1284903	keystroke	n	n/a
642.6315	0.165	1285263	keystroke	e	n/a
642.7815	0.18	1285563	keystroke	Key.space	n/a
643.6065	0.09	1287213	keystroke	s	n/a
643.8915	0.12	1287783	keystroke	e	n/a
644.1915	0.195	1288383	keystroke	a	n/a
644.4015	0.12	1288803	keystroke	f	n/a
644.6115	0.09	1289223	keystroke	o	n/a
644.8365	0.105	1289673	keystroke	o	n/a
645.2415	0.135	1290483	keystroke	d	n/a
645.736	0.165	1291472	keystroke	Key.enter	n/a
645.907	7.4525	1291814	prompt	n/a	fabrics slow sofa recipe\n
646.7115	0.105	1293423	keystroke	f	n/a
646.8915	0.18	1293783	keystroke	a	n/a
647.1765	0.12	1294353	keystroke	b	n/a
647.4615	0.105	1294923	keystroke	r	n/a
647.597	0.15	1295194	keystroke	i	n/a
648.211	0.166	1296422	keystroke	c	n/a
648.647	0.149	1297294	keystroke	s	n/a
648.887	0.135	1297774	keystroke	Key.space	n/a
649.126	0.136	1298252	keystroke	s	n/a
649.277	0.135	1298554	keystroke	l	n/a
649.547	0.165	1299094	keystroke	o	n/a
649.697	0.18	1299394	keystroke	w	n/a
649.891	0.15	1299782	keystroke	Key.space	n/a
650.147	0.18	1300294	keystroke	s	n/a
650.357	0.119	1300714	keystroke	o	n/a
650.582	0.149	1301164	keystroke	f	n/a
650.836	0.196	1301672	keystroke	a	n/a
651.076	0.18	1302152	keystroke	Key.space	n/a
651.361	0.105	1302722	keystroke	r	n/a
651.601	0.135	1303202	keystroke	e	n/a
651.976	0.195	1303952	keystroke	c	n/a
652.186	0.165	1304372	keystroke	i	n/a
652.546	0.181	1305092	keystroke	p	n/a
652.816	0.15	1305632	keystroke	e	n/a
653.2215	0.135	1306443	keystroke	Key.enter	n/a
653.364	10.644	1306728	prompt	n/a	deposits enforcement barn drama\n
654.0315	0.105	1308063	keystroke	d	n/a
654.2715	0.2245	1308543	keystroke	e	n/a
654.481	0.15	1308962	keystroke	p	n/a
654.766	0.12	1309532	keystroke	o	n/a
654.961	0.135	1309922	keystroke	s	n/a
655.4415	0.1655	1310883	keystroke	i	n/a
655.742	0.12	1311484	keystroke	t	n/a
656.507	0.12	1313014	keystroke	s	n/a
656.792	0.135	1313584	keystroke	Key.space	n/a
657.107	0.12	1314214	keystroke	e	n/a
657.2865	0.12	1314573	keystroke	n	n/a
657.677	0.105	1315354	keystroke	f	n/a
657.797	0.165	1315594	keystroke	o	n/a
657.977	0.15	1315954	keystroke	r	n/a
658.232	0.1345	1316464	keystroke	m	n/a
658.937	0.105	1317874	keystroke	Key.backspace	n/a
659.2365	0.15	1318473	keystroke	c	n/a
659.5665	0.1355	1319133	keystroke	e	n/a
659.717	0.15	1319434	keystroke	m	n/a
659.852	0.18	1319704	keystroke	e	n/a
659.987	0.165	1319974	keystroke	n	n/a
660.182	0.135	1320364	keystroke	t	n/a
660.392	0.195	1320784	keystroke	Key.space	n/a
660.7065	0.12	1321413	keystroke	b	n/a
660.9015	0.18	1321803	keystroke	a	n/a
661.202	0.105	1322404	keystroke	r	n/a
661.442	0.135	1322884	keystroke	n	n/a
661.697	0.3595	1323394	keystroke	Key.space	n/a
661.9665	0.135	1323933	keystroke	d	n/a
662.3115	0.135	1324623	keystroke	r	n/a
662.7165	0.18	1325433	keystroke	a	n/a
662.9115	0.15	1325823	keystroke	m	n/a
663.4965	0.1345	1326993	keystroke	a	n/a
663.8565	0.15	1327713	keystroke	Key.enter	n/a
664.012	12.206	1328024	prompt	n/a	precisely pulled sprint drawings\n
664.8165	0.165	1329633	keystroke	p	n/a
664.9825	0.149	1329965	keystroke	r	n/a
665.2215	0.12	1330443	keystroke	i	n/a
665.7465	0.0905	1331493	keystroke	i	n/a
666.4515	0.045	1332903	keystroke	Key.backspace	n/a
666.6015	0.105	1333203	keystroke	Key.backspace	n/a
666.977	0.12	1333954	keystroke	e	n/a
667.622	0.18	1335244	keystroke	c	n/a
667.877	0.12	1335754	keystroke	i	n/a
668.1915	0.105	1336383	keystroke	s	n/a
669.2865	0.135	1338573	keystroke	e	n/a
669.4965	0.135	1338993	keystroke	l	n/a
669.9615	0.15	1339923	keystroke	y	n/a
670.1715	0.135	1340343	keystroke	Key.space	n/a
670.5465	0.135	1341093	keystroke	p	n/a
670.8315	0.135	1341663	keystroke	u	n/a
671.161	0.1055	1342322	keystroke	l	n/a
671.3715	0.15	1342743	keystroke	l	n/a
671.582	0.119	1343164	keystroke	e	n/a
671.836	0.165	1343672	keystroke	d	n/a
672.016	0.12	1344032	keystroke	Key.space	n/a
672.2715	0.18	1344543	keystroke	s	n/a
672.467	0.18	1344934	keystroke	p	n/a
672.677	0.1495	1345354	keystroke	r	n/a
672.8265	0.18	1345653	keystroke	i	n/a
673.0215	0.1805	1346043	keystroke	n	n/a
673.202	0.165	1346404	keystroke	t	n/a
673.367	0.1795	1346734	keystroke	Key.space	n/a
673.6515	0.15	1347303	keystroke	d	n/a
674.0115	0.15	1348023	keystroke	r	n/a
674.4615	0.135	1348923	keystroke	a	n/a
674.7915	0.12	1349583	keystroke	w	n/a
674.9565	0.1805	1349913	keystroke	i	n/a
675.152	0.255	1350304	keystroke	n	n/a
675.317	0.165	1350634	keystroke	g	n/a
675.602	0.165	1351204	keystroke	s	n/a
676.052	0.165	1352104	keystroke	Key.enter	n/a
676.2235	9.4445	1352447	prompt	n/a	prisoners enjoying finder stephen\n
676.967	0.18	1353934	keystroke	p	n/a
677.132	0.135	1354264	keystroke	r	n/a
677.312	0.165	1354624	keystroke	i	n/a
677.552	0.21	1355104	keystroke	s	n/a
677.792	0.15	1355584	keystroke	o	n/a
678.062	0.15	1356124	keystroke	n	n/a
678.257	0.15	1356514	keystroke	e	n/a
678.422	0.135	1356844	keystroke	r	n/a
678.767	0.135	1357534	keystroke	s	n/a
679.007	0.134	1358014	keystroke	Key.space	n/a
679.4115	0.165	1358823	keystroke	e	n/a
679.6215	0.12	1359243	keystroke	n	n/a
680.0265	0.15	1360053	keystroke	j	n/a
680.2815	0.12	1360563	keystroke	o	n/a
680.7765	0.15	1361553	keystroke	y	n/a
681.121	0.166	1362242	keystroke	i	n/a
681.346	0.18	1362692	keystroke	n	n/a
681.541	0.1505	1363082	keystroke	g	n/a
681.7515	0.165	1363503	keystroke	Key.space	n/a
681.9915	0.1495	1363983	keystroke	f	n/a
682.201	0.15	1364402	keystroke	i	n/a
682.411	0.18	1364822	keystroke	n	n/a
682.546	0.135	1365092	keystroke	d	n/a
682.831	0.12	1365662	keystroke	e	n/a
683.011	0.12	1366022	keystroke	r	n/a
683.266	0.165	1366532	keystroke	Key.space	n/a
683.551	0.136	1367102	keystroke	s	n/a
683.897	0.12	1367794	keystroke	t	n/a
684.122	0.135	1368244	keystroke	e	n/a
684.497	0.15	1368994	keystroke	p	n/a
684.707	0.15	1369414	keystroke	h	n/a
684.872	0.195	1369744	keystroke	e	n/a
685.082	0.1495	1370164	keystroke	n	n/a
685.5615	0.105	1371123	keystroke	Key.enter	n/a
685.6715	15.2665	1371343	prompt	n/a	customs suspended keyboard miscellaneous\n
686.341	0.18	1372682	keystroke	c	n/a
686.536	0.135	1373072	keystroke	u	n/a
686.686	0.1355	1373372	keystroke	s	n/a
686.9565	0.1655	1373913	keystroke	t	n/a
687.2415	0.075	1374483	keystroke	o	n/a
687.3315	0.1795	1374663	keystroke	m	n/a
688.1265	0.135	1376253	keystroke	Key.space	n/a
688.487	0.15	1376974	keystroke	u	n/a
688.607	0.135	1377214	keystroke	s	n/a
689.9865	0.105	1379973	keystroke	Key.backspace	n/a
690.1815	0.135	1380363	keystroke	Key.backspace	n/a
690.3465	0.18	1380693	keystroke	s	n/a
690.5275	0.149	1381055	keystroke	u	n/a
690.7215	0.195	1381443	keystroke	s	n/a
691.352	0.21	1382704	keystroke	p	n/a
691.547	0.1495	1383094	keystroke	e	n/a
691.7415	0.2105	1383483	keystroke	n	n/a
692.746	0.135	1385492	keystroke	d	n/a
693.016	0.105	1386032	keystroke	e	n/a
693.241	0.195	1386482	keystroke	d	n/a
693.421	0.135	1386842	keystroke	Key.space	n/a
693.706	0.195	1387412	keystroke	k	n/a
693.902	0.179	1387804	keystroke	e	n/a
694.2465	0.135	1388493	keystroke	y	n/a
694.7565	0.135	1389513	keystroke	b	n/a
694.9065	0.165	1389813	keystroke	o	n/a
695.0565	0.195	1390113	keystroke	a	n/a
695.3715	0.1045	1390743	keystroke	r	n/a
695.761	0.135	1391522	keystroke	d	n/a
696.196	0.15	1392392	keystroke	Key.space	n/a
696.527	0.119	1393054	keystroke	m	n/a
696.781	0.12	1393562	keystroke	i	n/a
697.036	0.135	1394072	keystroke	s	n/a
697.381	0.135	1394762	keystroke	c	n/a
697.6965	0.12	1395393	keystroke	e	n/a
697.8915	0.105	1395783	keystroke	l	n/a
698.1315	0.12	1396263	keystroke	l	n/a
698.3115	0.21	1396623	keystroke	a	n/a
698.5515	0.135	1397103	keystroke	n	n/a
699.1215	0.21	1398243	keystroke	e	n/a
699.7665	0.15	1399533	keystroke	o	n/a
700.0515	0.15	1400103	keystroke	u	n/a
700.2465	0.135	1400493	keystroke	s	n/a
700.771	0.165	1401542	keystroke	Key.enter	n/a
700.9415	9.2815	1401883	prompt	n/a	cement sword cologne expanding\n
701.671	0.15	1403342	keystroke	c	n/a
701.956	0.18	1403912	keystroke	e	n/a
702.6165	0.15	1405233	keystroke	m	n/a
702.7515	0.225	1405503	keystroke	e	n/a
702.9615	0.15	1405923	keystroke	n	n/a
703.1265	0.165	1406253	keystroke	t	n/a
703.4115	0.165	1406823	keystroke	Key.space	n/a
703.6965	0.12	1407393	keystroke	s	n/a
703.9665	0.15	1407933	keystroke	w	n/a
704.0865	0.15	1408173	keystroke	o	n/a
704.3265	0.15	1408653	keystroke	r	n/a
704.8515	0.15	1409703	keystroke	d	n/a
705.376	0.12	1410752	keystroke	Key.space	n/a
705.7215	0.165	1411443	keystroke	c	n/a
705.8715	0.12	1411743	keystroke	o	n/a
706.1415	0.135	1412283	keystroke	l	n/a
706.397	0.15	1412794	keystroke	o	n/a
706.712	0.105	1413424	keystroke	g	n/a
706.9515	0.15	1413903	keystroke	n	n/a
707.176	0.18	1414352	keystroke	e	n/a
707.461	0.135	1414922	keystroke	Key.space	n/a
707.747	0.1345	1415494	keystroke	e	n/a
708.1665	0.165	1416333	keystroke	x	n/a
708.3915	0.21	1416783	keystroke	p	n/a
708.5565	0.165	1417113	keystroke	a	n/a
708.7365	0.12	1417473	keystroke	n	n/a
708.9915	0.15	1417983	keystroke	d	n/a
709.2165	0.165	1418433	keystroke	i	n/a
709.4415	0.195	1418883	keystroke	n	n/a
709.6215	0.135	1419243	keystroke	g	n/a
710.0565	0.165	1420113	keystroke	Key.enter	n/a
710.226	8.9525	1420452	prompt	n/a	faster competent rico boost\n
710.897	0.135	1421794	keystroke	f	n/a
711.092	0.15	1422184	keystroke	a	n/a
711.287	0.135	1422574	keystroke	s	n/a
711.541	0.136	1423082	keystroke	t	n/a
711.722	0.1495	1423444	keystroke	e	n/a
711.8865	0.135	1423773	keystroke	r	n/a
712.2015	0.105	1424403	keystroke	Key.space	n/a
712.4415	0.15	1424883	keystroke	c	n/a
712.5765	0.165	1425153	keystroke	o	n/a
712.7565	0.195	1425513	keystroke	m	n/a
713.0115	0.1945	1426023	keystroke	p	n/a
713.191	0.15	1426382	keystroke	e	n/a
713.431	0.105	1426862	keystroke	t	n/a
713.626	0.15	1427252	keystroke	e	n/a
714.931	0.135	1429862	keystroke	n	n/a
715.141	0.135	1430282	keystroke	t	n/a
715.351	0.165	1430702	keystroke	Key.space	n/a
715.546	0.1505	1431092	keystroke	r	n/a
715.7565	0.105	1431513	keystroke	i	n/a
715.966	0.225	1431932	keystroke	c	n/a
716.146	0.12	1432292	keystroke	o	n/a
716.341	0.15	1432682	keystroke	Key.space	n/a
716.611	0.15	1433222	keystroke	b	n/a
716.701	0.09	1433402	keystroke	o	n/a
716.956	0.09	1433912	keystroke	o	n/a
717.9015	0.1345	1435803	keystroke	s	n/a
718.651	0.12	1437302	keystroke	t	n/a
719.041	0.135	1438082	keystroke	Key.enter	n/a
719.183	15.0855	1438366	prompt	n/a	bradley boulevard musicians netherlands\n
720.196	0.105	1440392	keystroke	b	n/a
720.496	0.12	1440992	keystroke	r	n/a
720.751	0.165	1441502	keystroke	a	n/a
721.0065	0.24	1442013	keystroke	d	n/a
721.352	0.1795	1442704	keystroke	l	n/a
721.576	0.135	1443152	keystroke	e	n/a
721.862	0.1495	1443724	keystroke	y	n/a
721.997	0.15	1443994	keystroke	Key.space	n/a
722.327	0.165	1444654	keystroke	b	n/a
722.522	0.105	1445044	keystroke	o	n/a
722.852	0.15	1445704	keystroke	l	n/a
724.3515	0.12	1448703	keystroke	Key.backspace	n/a
724.6815	0.12	1449363	keystroke	u	n/a
724.9965	0.135	1449993	keystroke	l	n/a
725.2815	0.15	1450563	keystroke	e	n/a
725.8215	0.12	1451643	keystroke	v	n/a
726.0465	0.135	1452093	keystroke	a	n/a
726.2865	0.12	1452573	keystroke	r	n/a
726.5715	0.135	1453143	keystroke	d	n/a
727.2465	0.195	1454493	keystroke	Key.space	n/a
727.6215	0.105	1455243	keystroke	m	n/a
728.0415	0.1355	1456083	keystroke	u	n/a
728.207	0.18	1456414	keystroke	s	n/a
728.372	0.165	1456744	keystroke	i	n/a
728.837	0.15	1457674	keystroke	c	n/a
729.047	0.165	1458094	keystroke	i	n/a
729.227	0.18	1458454	keystroke	a	n/a
729.422	0.165	1458844	keystroke	n	n/a
729.647	0.195	1459294	keystroke	s	n/a
729.827	0.195	1459654	keystroke	Key.space	n/a
730.172	0.18	1460344	keystroke	n	n/a
730.382	0.15	1460764	keystroke	e	n/a
730.667	0.135	1461334	keystroke	t	n/a
731.732	0.1945	1463464	keystroke	h	n/a
732.1665	0.165	1464333	keystroke	e	n/a
732.3915	0.15	1464783	keystroke	r	n/a
732.7515	0.225	1465503	keystroke	l	n/a
732.9615	0.225	1465923	keystroke	a	n/a
733.2315	0.165	1466463	keystroke	n	n/a
733.3665	0.15	1466733	keystroke	d	n/a
733.666	0.12	1467332	keystroke	s	n/a
734.116	0.15	1468232	keystroke	Key.enter	n/a
734.275	43.791	1468550	prompt	n/a	relevance acquisitions director shorts\n
735.062	0.165	1470124	keystroke	r	n/a
735.392	0.2095	1470784	keystroke	e	n/a
735.6615	0.18	1471323	keystroke	l	n/a
735.8865	0.195	1471773	keystroke	e	n/a
736.5315	0.135	1473063	keystroke	v	n/a
736.7865	0.21	1473573	keystroke	a	n/a
736.9665	0.151	1473933	keystroke	n	n/a
737.2215	0.15	1474443	keystroke	c	n/a
737.5365	0.15	1475073	keystroke	e	n/a
737.7615	0.18	1475523	keystroke	Key.space	n/a
738.0465	0.195	1476093	keystroke	a	n/a
739.6815	0.18	1479363	keystroke	z	n/a
740.4465	0.135	1480893	keystroke	Key.backspace	n/a
742.097	0.165	1484194	keystroke	c	n/a
742.9815	0.181	1485963	keystroke	q	n/a
743.237	0.15	1486474	keystroke	u	n/a
743.522	0.15	1487044	keystroke	i	n/a
743.657	0.15	1487314	keystroke	s	n/a
743.957	0.12	1487914	keystroke	t	n/a
744.092	0.135	1488184	keystroke	i	n/a
744.287	0.255	1488574	keystroke	o	n/a
744.527	0.12	1489054	keystroke	n	n/a
744.677	0.15	1489354	keystroke	s	n/a
744.872	0.1645	1489744	keystroke	Key.space	n/a
745.0965	0.165	1490193	keystroke	d	n/a
745.2165	0.1655	1490433	keystroke	i	n/a
745.427	0.12	1490854	keystroke	r	n/a
745.592	0.12	1491184	keystroke	e	n/a
745.9215	0.12	1491843	keystroke	c	n/a
746.1765	0.165	1492353	keystroke	t	n/a
746.3865	0.181	1492773	keystroke	o	n/a
746.5515	0.12	1493103	keystroke	r	n/a
746.7765	0.195	1493553	keystroke	Key.space	n/a
747.1515	0.135	1494303	keystroke	s	n/a
747.4365	0.15	1494873	keystroke	h	n/a
749.177	0.165	1498354	keystroke	o	n/a
749.312	0.105	1498624	keystroke	r	n/a
749.537	0.0745	1499074	keystroke	t	n/a
749.8215	0.1355	1499643	keystroke	s	n/a
751.307	0.06	1502614	keystroke	Key.left	n/a
751.6665	0.09	1503333	keystroke	Key.left	n/a
751.8915	0.105	1503783	keystroke	Key.left	n/a
752.0865	0.09	1504173	keystroke	Key.left	n/a
752.2965	0.105	1504593	keystroke	Key.left	n/a
752.4765	0.105	1504953	keystroke	Key.left	n/a
752.6415	0.12	1505283	keystroke	Key.left	n/a
752.8365	0.12	1505673	keystroke	Key.left	n/a
753.0465	0.12	1506093	keystroke	Key.left	n/a
753.2415	0.075	1506483	keystroke	Key.left	n/a
753.3915	0.105	1506783	keystroke	Key.left	n/a
753.5565	0.09	1507113	keystroke	Key.left	n/a
753.7365	0.075	1507473	keystroke	Key.left	n/a
753.9165	0.09	1507833	keystroke	Key.left	n/a
754.202	0.015	1508404	keystroke	Key.left	n/a
756.0915	0.135	1512183	keystroke	Key.left	n/a
756.4815	0.15	1512963	keystroke	Key.left	n/a
756.7665	0.135	1513533	keystroke	Key.left	n/a
757.0065	0.12	1514013	keystroke	Key.left	n/a
757.2765	0.135	1514553	keystroke	Key.left	n/a
757.5765	0.105	1515153	keystroke	Key.left	n/a
757.8165	0.151	1515633	keystroke	Key.left	n/a
758.2065	0.15	1516413	keystroke	Key.left	n/a
759.151	0.121	1518302	keystroke	Key.left	n/a
766.7445	0.057	1533489	keystroke	Key.up	n/a
766.982	0.15	1533964	keystroke	Key.up	n/a
768.5865	0.105	1537173	keystroke	Key.right	n/a
770.0715	0.12	1540143	keystroke	Key.right	n/a
770.2665	0.09	1540533	keystroke	Key.right	n/a
770.8515	0.12	1541703	keystroke	Key.right	n/a
771.797	0.075	1543594	keystroke	Key.backspace	n/a
772.127	0.045	1544254	keystroke	Key.backspace	n/a
772.442	0.045	1544884	keystroke	Key.backspace	n/a
773.417	0.12	1546834	keystroke	u	n/a
774.7825	0.12	1549565	keystroke	i	n/a
775.8175	0.2095	1551635	keystroke	s	n/a
776.147	0.165	1552294	keystroke	i	n/a
777.902	0.15	1555804	keystroke	Key.enter	n/a
778.076	22.838	1556152	prompt	n/a	equality shipment houston fathers\n
778.817	0.165	1557634	keystroke	e	n/a
779.237	0.195	1558474	keystroke	q	n/a
779.462	0.1955	1558924	keystroke	u	n/a
783.454	0.058	1566908	keystroke	d	n/a
789.605	0.042	1579210	keystroke	Key.backspace	n/a
790.382	0.135	1580764	keystroke	a	n/a
790.592	0.135	1581184	keystroke	l	n/a
790.832	0.15	1581664	keystroke	i	n/a
790.997	0.15	1581994	keystroke	t	n/a
791.177	0.12	1582354	keystroke	y	n/a
791.312	0.15	1582624	keystroke	Key.space	n/a
791.537	0.18	1583074	keystroke	s	n/a
791.687	0.166	1583374	keystroke	h	n/a
791.912	0.195	1583824	keystroke	i	n/a
792.242	0.165	1584484	keystroke	p	n/a
792.542	0.165	1585084	keystroke	m	n/a
792.677	0.165	1585354	keystroke	e	n/a
792.857	0.165	1585714	keystroke	n	n/a
792.992	0.18	1585984	keystroke	t	n/a
793.157	0.12	1586314	keystroke	Key.space	n/a
793.472	0.135	1586944	keystroke	h	n/a
793.608	0.149	1587216	keystroke	o	n/a
793.832	0.135	1587664	keystroke	u	n/a
794.012	0.075	1588024	keystroke	s	n/a
794.237	0.135	1588474	keystroke	t	n/a
794.402	0.15	1588804	keystroke	o	n/a
794.568	0.179	1589136	keystroke	n	n/a
794.762	0.12	1589524	keystroke	Key.space	n/a
794.9575	0.15	1589915	keystroke	f	n/a
795.2125	0.135	1590425	keystroke	a	n/a
796.0375	0.12	1592075	keystroke	Key.backspace	n/a
796.2625	0.0895	1592525	keystroke	Key.backspace	n/a
796.472	0.36	1592944	keystroke	Key.backspace	n/a
796.967	0.135	1593934	keystroke	Key.backspace	n/a
798.6625	0.134	1597325	keystroke	n	n/a
798.902	0.12	1597804	keystroke	Key.space	n/a
799.202	0.181	1598404	keystroke	f	n/a
799.487	0.15	1598974	keystroke	a	n/a
799.742	0.135	1599484	keystroke	t	n/a
799.892	0.1805	1599784	keystroke	h	n/a
799.9825	0.1945	1599965	keystroke	e	n/a
800.192	0.12	1600384	keystroke	r	n/a
800.4765	0.12	1600953	keystroke	s	n/a
800.7765	0.135	1601553	keystroke	Key.enter	n/a
800.9185	6.7905	1601837	prompt	n/a	hits marvel actor cyber\n
801.722	0.1205	1603444	keystroke	h	n/a
801.8875	0.165	1603775	keystroke	i	n/a
802.0825	0.12	1604165	keystroke	t	n/a
802.3825	0.15	1604765	keystroke	s	n/a
802.5625	0.135	1605125	keystroke	Key.space	n/a
802.8025	0.165	1605605	keystroke	m	n/a
802.9525	0.12	1605905	keystroke	a	n/a
803.1625	0.12	1606325	keystroke	r	n/a
803.447	0.1355	1606894	keystroke	v	n/a
803.7175	0.12	1607435	keystroke	e	n/a
803.8825	0.18	1607765	keystroke	l	n/a
804.0775	0.12	1608155	keystroke	Key.space	n/a
804.2425	0.12	1608485	keystroke	a	n/a
804.5125	0.195	1609025	keystroke	c	n/a
804.8275	0.15	1609655	keystroke	t	n/a
804.9925	0.18	1609985	keystroke	o	n/a
805.1875	0.105	1610375	keystroke	r	n/a
805.3375	0.165	1610675	keystroke	Key.space	n/a
805.622	0.21	1611244	keystroke	c	n/a
805.9525	0.165	1611905	keystroke	y	n/a
806.3125	0.1645	1612625	keystroke	b	n/a
806.657	0.165	1613314	keystroke	e	n/a
806.912	0.135	1613824	keystroke	r	n/a
807.5575	0.149	1615115	keystroke	Key.enter	n/a
807.7125	9.9865	1615425	prompt	n/a	triangle is doctors offering\n
808.682	0.0905	1617364	keystroke	t	n/a
808.8775	0.1345	1617755	keystroke	r	n/a
810.3775	0.12	1620755	keystroke	i	n/a
810.5575	0.18	1621115	keystroke	a	n/a
810.8875	0.12	1621775	keystroke	n	n/a
811.1725	0.15	1622345	keystroke	g	n/a
811.3525	0.1645	1622705	keystroke	l	n/a
811.577	0.1495	1623154	keystroke	e	n/a
811.8175	0.1945	1623635	keystroke	Key.space	n/a
812.162	0.1055	1624324	keystroke	i	n/a
812.312	0.12	1624624	keystroke	s	n/a
812.522	0.195	1625044	keystroke	Key.space	n/a
813.0775	0.1945	1626155	keystroke	d	n/a
813.287	0.1205	1626574	keystroke	o	n/a
813.4525	0.1945	1626905	keystroke	c	n/a
813.8275	0.18	1627655	keystroke	o	n/a
814.4725	0.135	1628945	keystroke	Key.backspace	n/a
814.5925	0.15	1629185	keystroke	t	n/a
814.8625	0.195	1629725	keystroke	o	n/a
814.9825	0.105	1629965	keystroke	r	n/a
815.2825	0.1945	1630565	keystroke	s	n/a
815.492	0.15	1630984	keystroke	Key.space	n/a
815.792	0.166	1631584	keystroke	o	n/a
815.928	0.09	1631856	keystroke	f	n/a
816.122	0.1055	1632244	keystroke	f	n/a
816.378	0.165	1632756	keystroke	e	n/a
816.573	0.135	1633146	keystroke	r	n/a
816.7675	0.165	1633535	keystroke	i	n/a
816.9625	0.18	1633925	keystroke	n	n/a
817.0975	0.165	1634195	keystroke	g	n/a
817.5475	0.1495	1635095	keystroke	Key.enter	n/a
817.702	14.652	1635404	prompt	n/a	yield supreme ensure latvia\n
818.507	0.165	1637014	keystroke	y	n/a
818.702	0.18	1637404	keystroke	e	n/a
819.9775	0.1045	1639955	keystroke	Key.backspace	n/a
822.5	0.027	1645000	keystroke	i	n/a
822.707	0.135	1645414	keystroke	e	n/a
822.902	0.09	1645804	keystroke	l	n/a
823.142	0.1355	1646284	keystroke	d	n/a
823.6225	0.135	1647245	keystroke	Key.space	n/a
823.8625	0.105	1647725	keystroke	s	n/a
824.0125	0.12	1648025	keystroke	u	n/a
824.3725	0.165	1648745	keystroke	p	n/a
824.7775	0.1495	1649555	keystroke	r	n/a
825.017	0.166	1650034	keystroke	e	n/a
825.287	0.225	1650574	keystroke	m	n/a
825.497	0.1355	1650994	keystroke	e	n/a
826.2025	0.135	1652405	keystroke	Key.space	n/a
826.6675	0.15	1653335	keystroke	e	n/a
826.9075	0.135	1653815	keystroke	n	n/a
827.0575	0.12	1654115	keystroke	s	n/a
827.3425	0.165	1654685	keystroke	u	n/a
827.5375	0.135	1655075	keystroke	r	n/a
827.9125	0.15	1655825	keystroke	e	n/a
828.167	0.1805	1656334	keystroke	Key.space	n/a
828.4975	0.15	1656995	keystroke	l	n/a
828.6625	0.165	1657325	keystroke	a	n/a
829.0225	0.12	1658045	keystroke	t	n/a
829.4725	0.12	1658945	keystroke	i	n/a
830.6415	0.12	1661283	keystroke	Key.backspace	n/a
831.0475	0.195	1662095	keystroke	v	n/a
831.4375	0.074	1662875	keystroke	i	n/a
831.707	0.135	1663414	keystroke	a	n/a
832.202	0.15	1664404	keystroke	Key.enter	n/a
832.357	8.9065	1664714	prompt	n/a	boss verify done hurt\n
833.177	0.15	1666354	keystroke	b	n/a
833.282	0.15	1666564	keystroke	o	n/a
833.537	0.0745	1667074	keystroke	s	n/a
833.7315	0.09	1667463	keystroke	s	n/a
833.8815	0.135	1667763	keystroke	Key.space	n/a
834.0625	0.1645	1668125	keystroke	v	n/a
834.407	0.135	1668814	keystroke	e	n/a
834.617	0.12	1669234	keystroke	r	n/a
834.812	0.165	1669624	keystroke	i	n/a
835.277	0.12	1670554	keystroke	y	n/a
836.702	0.15	1673404	keystroke	Key.backspace	n/a
836.927	0.165	1673854	keystroke	g	n/a
837.2125	0.165	1674425	keystroke	y	n/a
837.677	0.12	1675354	keystroke	Key.backspace	n/a
837.872	0.12	1675744	keystroke	Key.backspace	n/a
838.022	0.18	1676044	keystroke	f	n/a
838.247	0.165	1676494	keystroke	y	n/a
838.607	0.15	1677214	keystroke	Key.space	n/a
838.982	0.165	1677964	keystroke	d	n/a
839.087	0.195	1678174	keystroke	o	n/a
839.252	0.21	1678504	keystroke	n	n/a
839.492	0.18	1678984	keystroke	e	n/a
839.687	0.15	1679374	keystroke	Key.space	n/a
839.927	0.135	1679854	keystroke	h	n/a
840.182	0.135	1680364	keystroke	u	n/a
840.4225	0.135	1680845	keystroke	r	n/a
840.6775	0.135	1681355	keystroke	t	n/a
841.0825	0.18	1682165	keystroke	Key.enter	n/a
841.267	13.2575	1682534	prompt	n/a	columbia briefing personally patients\n
842.0575	0.195	1684115	keystroke	c	n/a
842.2975	0.075	1684595	keystroke	o	n/a
842.5525	0.21	1685105	keystroke	l	n/a
842.9275	0.105	1685855	keystroke	u	n/a
843.2275	0.165	1686455	keystroke	m	n/a
843.5275	0.135	1687055	keystroke	b	n/a
843.7075	0.165	1687415	keystroke	i	n/a
843.8425	0.18	1687685	keystroke	a	n/a
844.4865	0.165	1688973	keystroke	Key.space	n/a
844.8625	0.15	1689725	keystroke	b	n/a
845.2825	0.21	1690565	keystroke	r	n/a
847.007	0.12	1694014	keystroke	i	n/a
847.2765	0.165	1694553	keystroke	e	n/a
847.592	0.12	1695184	keystroke	f	n/a
848.1015	0.12	1696203	keystroke	i	n/a
848.5215	0.15	1697043	keystroke	n	n/a
848.7165	0.165	1697433	keystroke	g	n/a
848.9715	0.105	1697943	keystroke	Key.space	n/a
849.587	0.165	1699174	keystroke	p	n/a
849.767	0.225	1699534	keystroke	e	n/a
850.052	0.105	1700104	keystroke	r	n/a
850.457	0.15	1700914	keystroke	s	n/a
850.6515	0.2255	1701303	keystroke	o	n/a
850.877	0.1495	1701754	keystroke	n	n/a
851.042	0.1495	1702084	keystroke	a	n/a
851.2215	0.12	1702443	keystroke	l	n/a
851.3865	0.15	1702773	keystroke	l	n/a
851.8975	0.195	1703795	keystroke	y	n/a
852.1375	0.135	1704275	keystroke	Key.space	n/a
852.4825	0.18	1704965	keystroke	p	n/a
852.6025	0.165	1705205	keystroke	a	n/a
852.8725	0.105	1705745	keystroke	t	n/a
853.0075	0.135	1706015	keystroke	i	n/a
853.1725	0.135	1706345	keystroke	e	n/a
853.3675	0.195	1706735	keystroke	n	n/a
853.5475	0.105	1707095	keystroke	t	n/a
853.9975	0.1195	1707995	keystroke	s	n/a
854.402	0.1205	1708804	keystroke	Key.enter	n/a
854.5275	12.4465	1709055	prompt	n/a	arizona victoria addiction fool\n
855.1375	0.135	1710275	keystroke	a	n/a
855.4225	0.105	1710845	keystroke	r	n/a
855.5875	0.105	1711175	keystroke	i	n/a
855.7825	0.21	1711565	keystroke	z	n/a
855.9175	0.1945	1711835	keystroke	o	n/a
856.097	0.165	1712194	keystroke	n	n/a
856.427	0.135	1712854	keystroke	a	n/a
856.667	0.12	1713334	keystroke	Key.space	n/a
857.012	0.18	1714024	keystroke	v	n/a
858.2575	0.135	1716515	keystroke	i	n/a
858.4375	0.165	1716875	keystroke	c	n/a
858.7825	0.12	1717565	keystroke	t	n/a
858.8725	0.15	1717745	keystroke	o	n/a
859.0375	0.18	1718075	keystroke	r	n/a
859.2175	0.165	1718435	keystroke	i	n/a
859.592	0.195	1719184	keystroke	a	n/a
860.477	0.135	1720954	keystroke	Key.space	n/a
860.732	0.195	1721464	keystroke	a	n/a
860.957	0.15	1721914	keystroke	d	n/a
861.227	0.105	1722454	keystroke	d	n/a
864.274	0.073	1728548	keystroke	i	n/a
864.467	0.15	1728934	keystroke	c	n/a
864.752	0.15	1729504	keystroke	t	n/a
864.872	0.15	1729744	keystroke	i	n/a
865.037	0.24	1730074	keystroke	o	n/a
865.247	0.18	1730494	keystroke	n	n/a
865.442	0.1495	1730884	keystroke	Key.space	n/a
865.6365	0.165	1731273	keystroke	f	n/a
865.8165	0.135	1731633	keystroke	o	n/a
866.0425	0.104	1732085	keystroke	o	n/a
866.3415	0.151	1732683	keystroke	l	n/a
866.8215	0.15	1733643	keystroke	Key.enter	n/a
866.9765	9.4625	1733953	prompt	n/a	cooperation urgent topics meant\n
867.6475	0.2845	1735295	keystroke	c	n/a
867.8875	0.0895	1735775	keystroke	o	n/a
868.112	0.1495	1736224	keystroke	o	n/a
868.3815	0.1955	1736763	keystroke	p	n/a
868.5465	0.1805	1737093	keystroke	e	n/a
868.757	0.12	1737514	keystroke	r	n/a
