onset	duration	sample	value	key	prompt_text
7.792	8.6865	15584	prompt	n/a	the quick brown fox jumps over a lazy dog\n
9.849	0.0575	19698	keystroke	t	n/a
9.876	0.1205	19752	keystroke	h	n/a
10.0115	0.09	20023	keystroke	e	n/a
10.1305	0.165	20261	keystroke	Key.space	n/a
10.371	0.1355	20742	keystroke	q	n/a
10.5515	0.135	21103	keystroke	u	n/a
10.6565	0.09	21313	keystroke	i	n/a
11.0315	0.12	22063	keystroke	c	n/a
11.2265	0.1655	22453	keystroke	k	n/a
11.407	0.1345	22814	keystroke	Key.space	n/a
11.646	0.1055	23292	keystroke	b	n/a
11.887	0.105	23774	keystroke	r	n/a
12.007	0.12	24014	keystroke	o	n/a
12.142	0.09	24284	keystroke	w	n/a
12.262	0.164	24524	keystroke	n	n/a
12.411	0.105	24822	keystroke	Key.space	n/a
12.517	0.104	25034	keystroke	f	n/a
12.666	0.12	25332	keystroke	o	n/a
12.771	0.165	25542	keystroke	x	n/a
12.951	0.135	25902	keystroke	Key.space	n/a
13.071	0.09	26142	keystroke	j	n/a
13.281	0.09	26562	keystroke	u	n/a
13.491	0.15	26982	keystroke	m	n/a
13.611	0.135	27222	keystroke	p	n/a
13.776	0.09	27552	keystroke	s	n/a
13.911	0.12	27822	keystroke	Key.space	n/a
14.046	0.12	28092	keystroke	o	n/a
14.211	0.075	28422	keystroke	v	n/a
14.3465	0.09	28693	keystroke	e	n/a
14.4065	0.12	28813	keystroke	r	n/a
14.5105	0.12	29021	keystroke	Key.space	n/a
14.647	0.119	29294	keystroke	a	n/a
14.797	0.119	29594	keystroke	Key.space	n/a
14.902	0.12	29804	keystroke	l	n/a
15.1715	0.09	30343	keystroke	a	n/a
15.4265	0.195	30853	keystroke	z	n/a
15.6665	0.1505	31333	keystroke	y	n/a
15.786	0.15	31572	keystroke	Key.space	n/a
15.951	0.105	31902	keystroke	d	n/a
16.041	0.105	32082	keystroke	o	n/a
16.191	0.075	32382	keystroke	g	n/a
16.386	0.09	32772	keystroke	Key.enter	n/a
16.482	9.5215	32964	prompt	n/a	allow internship site shouldn't\n
17.0915	0.105	34183	keystroke	a	n/a
17.181	0.09	34362	keystroke	l	n/a
17.346	0.091	34692	keystroke	l	n/a
17.5415	0.09	35083	keystroke	o	n/a
17.6465	0.105	35293	keystroke	w	n/a
17.7965	0.12	35593	keystroke	Key.space	n/a
17.9015	0.15	35803	keystroke	i	n/a
17.977	0.165	35954	keystroke	n	n/a
18.112	0.12	36224	keystroke	t	n/a
18.247	0.18	36494	keystroke	e	n/a
18.382	0.09	36764	keystroke	r	n/a
19.147	0.105	38294	keystroke	n	n/a
19.342	0.09	38684	keystroke	s	n/a
19.462	0.12	38924	keystroke	h	n/a
19.537	0.135	39074	keystroke	i	n/a
19.657	0.15	39314	keystroke	p	n/a
19.807	0.15	39614	keystroke	Key.space	n/a
20.031	0.091	40062	keystroke	s	n/a
20.151	0.106	40302	keystroke	i	n/a
20.272	0.12	40544	keystroke	t	n/a
20.377	0.12	40754	keystroke	e	n/a
20.527	0.135	41054	keystroke	Key.space	n/a
20.931	0.106	41862	keystroke	s	n/a
21.082	0.104	42164	keystroke	h	n/a
21.232	0.195	42464	keystroke	o	n/a
21.381	0.1355	42762	keystroke	u	n/a
22.0265	0.135	44053	keystroke	l	n/a
22.8215	0.135	45643	keystroke	d	n/a
23.6165	0.15	47233	keystroke	n	n/a
24.891	0.091	49782	keystroke	'	n/a
25.282	0.06	50564	keystroke	t	n/a
25.9115	0.09	51823	keystroke	Key.enter	n/a
26.0065	4.7515	52013	prompt	n/a	dude drawing mary lots\n
26.826	0.09	53652	keystroke	d	n/a
26.961	0.09	53922	keystroke	u	n/a
27.111	0.075	54222	keystroke	d	n/a
27.291	0.076	54582	keystroke	e	n/a
27.442	0.12	54884	keystroke	Key.space	n/a
27.8465	0.075	55693	keystroke	d	n/a
28.1615	0.105	56323	keystroke	r	n/a
28.3115	0.15	56623	keystroke	a	n/a
28.5815	0.09	57163	keystroke	w	n/a
28.7915	0.165	57583	keystroke	i	n/a
28.8515	0.15	57703	keystroke	n	n/a
29.0315	0.09	58063	keystroke	g	n/a
29.1665	0.12	58333	keystroke	Key.space	n/a
29.3765	0.135	58753	keystroke	m	n/a
29.5125	0.119	59025	keystroke	a	n/a
29.6465	0.09	59293	keystroke	r	n/a
29.8115	0.135	59623	keystroke	y	n/a
29.9315	0.15	59863	keystroke	Key.space	n/a
30.0665	0.0905	60133	keystroke	l	n/a
30.2315	0.105	60463	keystroke	o	n/a
30.3065	0.105	60613	keystroke	t	n/a
30.4715	0.135	60943	keystroke	s	n/a
30.6515	0.105	61303	keystroke	Key.enter	n/a
30.7615	10.0625	61523	prompt	n/a	rebound carried isaac reliability\n
31.8965	0.09	63793	keystroke	r	n/a
32.0015	0.075	64003	keystroke	e	n/a
32.3765	0.075	64753	keystroke	b	n/a
32.4815	0.135	64963	keystroke	o	n/a
32.5715	0.12	65143	keystroke	u	n/a
32.7815	0.105	65563	keystroke	n	n/a
32.9315	0.105	65863	keystroke	d	n/a
33.0815	0.135	66163	keystroke	Key.space	n/a
33.6065	0.075	67213	keystroke	c	n/a
33.9365	0.12	67873	keystroke	a	n/a
34.1165	0.09	68233	keystroke	r	n/a
34.3115	0.09	68623	keystroke	r	n/a
34.4465	0.15	68893	keystroke	i	n/a
34.5815	0.06	69163	keystroke	e	n/a
34.7615	0.09	69523	keystroke	d	n/a
34.8965	0.135	69793	keystroke	Key.space	n/a
35.452	0.15	70904	keystroke	i	n/a
35.632	0.09	71264	keystroke	s	n/a
35.797	0.06	71594	keystroke	s	n/a
36.217	0.105	72434	keystroke	Key.backspace	n/a
36.382	0.105	72764	keystroke	a	n/a
36.5615	0.12	73123	keystroke	a	n/a
36.7865	0.105	73573	keystroke	c	n/a
36.9965	0.15	73993	keystroke	Key.space	n/a
37.3565	0.105	74713	keystroke	r	n/a
37.5665	0.09	75133	keystroke	e	n/a
37.7465	0.255	75493	keystroke	l	n/a
37.8815	0.09	75763	keystroke	i	n/a
38.977	0.1195	77954	keystroke	a	n/a
39.2615	0.09	78523	keystroke	b	n/a
39.7115	0.1195	79423	keystroke	i	n/a
39.936	0.15	79872	keystroke	l	n/a
40.071	0.105	80142	keystroke	i	n/a
40.311	0.12	80622	keystroke	t	n/a
40.461	0.121	80922	keystroke	y	n/a
40.716	0.105	81432	keystroke	Key.enter	n/a
40.827	7.1515	81654	prompt	n/a	terrace thomson itunes elder\n
41.947	0.12	83894	keystroke	t	n/a
42.1115	0.135	84223	keystroke	e	n/a
42.2615	0.09	84523	keystroke	r	n/a
42.442	0.09	84884	keystroke	r	n/a
42.6365	0.12	85273	keystroke	a	n/a
42.8615	0.09	85723	keystroke	c	n/a
43.1615	0.09	86323	keystroke	e	n/a
43.3865	0.135	86773	keystroke	Key.space	n/a
43.941	0.106	87882	keystroke	t	n/a
44.016	0.121	88032	keystroke	h	n/a
44.152	0.119	88304	keystroke	o	n/a
44.6015	0.12	89203	keystroke	m	n/a
44.9165	0.09	89833	keystroke	s	n/a
45.0215	0.135	90043	keystroke	o	n/a
45.1265	0.1195	90253	keystroke	n	n/a
45.351	0.15	90702	keystroke	Key.space	n/a
45.8615	0.105	91723	keystroke	i	n/a
46.0265	0.105	92053	keystroke	t	n/a
46.2815	0.09	92563	keystroke	u	n/a
46.4765	0.1355	92953	keystroke	n	n/a
46.597	0.075	93194	keystroke	e	n/a
46.777	0.075	93554	keystroke	s	n/a
46.897	0.12	93794	keystroke	Key.space	n/a
47.137	0.075	94274	keystroke	e	n/a
47.272	0.105	94544	keystroke	l	n/a
47.392	0.074	94784	keystroke	d	n/a
47.571	0.135	95142	keystroke	e	n/a
47.677	0.1045	95354	keystroke	r	n/a
47.8865	0.09	95773	keystroke	Key.enter	n/a
47.9815	4.9615	95963	prompt	n/a	outer carb fake screens\n
48.5915	0.195	97183	keystroke	o	n/a
48.7565	0.105	97513	keystroke	u	n/a
48.9065	0.105	97813	keystroke	t	n/a
49.0565	0.1055	98113	keystroke	e	n/a
49.147	0.12	98294	keystroke	r	n/a
49.282	0.1195	98564	keystroke	Key.space	n/a
49.5515	0.1055	99103	keystroke	c	n/a
49.732	0.134	99464	keystroke	a	n/a
49.851	0.12	99702	keystroke	r	n/a
50.166	0.076	100332	keystroke	b	n/a
50.361	0.15	100722	keystroke	Key.space	n/a
50.7365	0.09	101473	keystroke	f	n/a
50.8865	0.105	101773	keystroke	a	n/a
51.0065	0.135	102013	keystroke	k	n/a
51.1565	0.075	102313	keystroke	e	n/a
51.2765	0.135	102553	keystroke	Key.space	n/a
51.5615	0.075	103123	keystroke	s	n/a
51.771	0.075	103542	keystroke	c	n/a
51.951	0.09	103902	keystroke	r	n/a
52.1015	0.075	104203	keystroke	e	n/a
52.281	0.0605	104562	keystroke	e	n/a
52.4165	0.1195	104833	keystroke	n	n/a
52.6415	0.0895	105283	keystroke	s	n/a
52.851	0.09	105702	keystroke	Key.enter	n/a
52.9515	8.0175	105903	prompt	n/a	divorce relating spell projection\n
53.632	0.075	107264	keystroke	d	n/a
53.767	0.105	107534	keystroke	i	n/a
53.902	0.075	107804	keystroke	v	n/a
54.502	0.09	109004	keystroke	o	n/a
54.652	0.1195	109304	keystroke	r	n/a
54.9215	0.09	109843	keystroke	c	n/a
55.1315	0.075	110263	keystroke	e	n/a
55.3265	0.135	110653	keystroke	Key.space	n/a
55.8665	0.105	111733	keystroke	r	n/a
56.0015	0.105	112003	keystroke	e	n/a
56.1815	0.105	112363	keystroke	l	n/a
56.3165	0.105	112633	keystroke	a	n/a
56.4515	0.12	112903	keystroke	t	n/a
56.5865	0.165	113173	keystroke	i	n/a
56.7065	0.135	113413	keystroke	n	n/a
56.9015	0.09	113803	keystroke	g	n/a
57.0365	0.135	114073	keystroke	Key.space	n/a
57.2765	0.09	114553	keystroke	s	n/a
57.457	0.09	114914	keystroke	p	n/a
57.592	0.09	115184	keystroke	e	n/a
57.8465	0.075	115693	keystroke	l	n/a
58.0265	0.12	116053	keystroke	l	n/a
58.1615	0.135	116323	keystroke	Key.space	n/a
58.462	0.105	116924	keystroke	p	n/a
58.6265	0.12	117253	keystroke	o	n/a
58.9265	0.105	117853	keystroke	r	n/a
59.2565	0.09	118513	keystroke	Key.backspace	n/a
59.4215	0.075	118843	keystroke	Key.backspace	n/a
59.5415	0.105	119083	keystroke	r	n/a
59.6465	0.09	119293	keystroke	o	n/a
59.8415	0.1045	119683	keystroke	j	n/a
59.961	0.0605	119922	keystroke	e	n/a
60.172	0.09	120344	keystroke	c	n/a
60.322	0.09	120644	keystroke	t	n/a
60.457	0.09	120914	keystroke	i	n/a
60.517	0.135	121034	keystroke	o	n/a
60.622	0.105	121244	keystroke	n	n/a
60.877	0.09	121754	keystroke	Key.enter	n/a
60.9725	9.4005	121945	prompt	n/a	psychological thoughts protection painting\n
62.002	0.045	124004	keystroke	p	n/a
62.167	0.09	124334	keystroke	y	n/a
62.407	0.075	124814	keystroke	s	n/a
63.096	0.075	126192	keystroke	Key.backspace	n/a
63.246	0.09	126492	keystroke	Key.backspace	n/a
63.351	0.105	126702	keystroke	s	n/a
63.502	0.105	127004	keystroke	y	n/a
63.756	0.106	127512	keystroke	c	n/a
63.846	0.106	127692	keystroke	h	n/a
63.981	0.105	127962	keystroke	o	n/a
64.222	0.074	128444	keystroke	l	n/a
64.401	0.076	128802	keystroke	o	n/a
64.566	0.091	129132	keystroke	g	n/a
64.702	0.104	129404	keystroke	i	n/a
64.867	0.089	129734	keystroke	c	n/a
65.002	0.134	130004	keystroke	a	n/a
65.121	0.151	130242	keystroke	l	n/a
65.256	0.12	130512	keystroke	Key.space	n/a
65.4815	0.0905	130963	keystroke	t	n/a
65.587	0.089	131174	keystroke	h	n/a
65.691	0.196	131382	keystroke	o	n/a
65.827	0.119	131654	keystroke	u	n/a
65.991	0.091	131982	keystroke	g	n/a
66.112	0.104	132224	keystroke	h	n/a
66.231	0.061	132462	keystroke	t	n/a
66.367	0.12	132734	keystroke	s	n/a
66.546	0.15	133092	keystroke	Key.space	n/a
66.921	0.1355	133842	keystroke	p	n/a
67.0715	0.105	134143	keystroke	r	n/a
67.191	0.0755	134382	keystroke	o	n/a
67.3565	0.0895	134713	keystroke	t	n/a
67.4915	0.075	134983	keystroke	e	n/a
67.7315	0.0905	135463	keystroke	c	n/a
67.897	0.09	135794	keystroke	t	n/a
68.062	0.105	136124	keystroke	i	n/a
68.137	0.165	136274	keystroke	o	n/a
68.257	0.15	136514	keystroke	n	n/a
68.422	0.135	136844	keystroke	Key.space	n/a
68.992	0.135	137984	keystroke	p	n/a
69.247	0.12	138494	keystroke	a	n/a
69.427	0.15	138854	keystroke	i	n/a
69.532	0.12	139064	keystroke	n	n/a
69.712	0.09	139424	keystroke	t	n/a
69.832	0.135	139664	keystroke	i	n/a
69.922	0.12	139844	keystroke	n	n/a
70.057	0.075	140114	keystroke	g	n/a
70.252	0.12	140504	keystroke	Key.enter	n/a
70.3765	10.0165	140753	prompt	n/a	confusion membrane actress pieces\n
71.062	0.105	142124	keystroke	c	n/a
71.122	0.135	142244	keystroke	o	n/a
71.212	0.12	142424	keystroke	n	n/a
71.347	0.12	142694	keystroke	f	n/a
71.512	0.135	143024	keystroke	u	n/a
71.677	0.075	143354	keystroke	s	n/a
71.812	0.135	143624	keystroke	i	n/a
72.307	0.105	144614	keystroke	n	n/a
72.6815	0.0755	145363	keystroke	Key.backspace	n/a
72.922	0.12	145844	keystroke	o	n/a
73.012	0.135	146024	keystroke	n	n/a
73.192	0.105	146384	keystroke	Key.space	n/a
73.462	0.105	146924	keystroke	m	n/a
73.612	0.09	147224	keystroke	e	n/a
73.732	0.105	147464	keystroke	m	n/a
73.987	0.09	147974	keystroke	b	n/a
74.392	0.1195	148784	keystroke	r	n/a
74.5415	0.135	149083	keystroke	a	n/a
74.6915	0.135	149383	keystroke	n	n/a
74.8865	0.09	149773	keystroke	c	n/a
75.727	0.105	151454	keystroke	Key.backspace	n/a
75.892	0.0895	151784	keystroke	e	n/a
76.5065	0.135	153013	keystroke	Key.space	n/a
76.9565	0.105	153913	keystroke	a	n/a
77.1365	0.09	154273	keystroke	c	n/a
77.3165	0.09	154633	keystroke	t	n/a
77.5415	0.12	155083	keystroke	i	n/a
78.0215	0.105	156043	keystroke	Key.backspace	n/a
78.1415	0.075	156283	keystroke	r	n/a
78.3065	0.06	156613	keystroke	e	n/a
78.4715	0.075	156943	keystroke	s	n/a
78.6365	0.09	157273	keystroke	s	n/a
78.7715	0.135	157543	keystroke	Key.space	n/a
78.9665	0.15	157933	keystroke	p	n/a
79.1465	0.135	158293	keystroke	i	n/a
79.3115	0.09	158623	keystroke	e	n/a
79.582	0.06	159164	keystroke	c	n/a
79.747	0.09	159494	keystroke	e	n/a
79.927	0.075	159854	keystroke	s	n/a
80.317	0.075	160634	keystroke	Key.enter	n/a
80.396	9.708	160792	prompt	n/a	groundwater oecd accompanying asset\n
81.487	0.105	162974	keystroke	g	n/a
81.667	0.195	163334	keystroke	o	n/a
82.4165	0.09	164833	keystroke	Key.backspace	n/a
82.5215	0.09	165043	keystroke	r	n/a
82.6415	0.105	165283	keystroke	o	n/a
82.7165	0.1045	165433	keystroke	u	n/a
82.9115	0.105	165823	keystroke	n	n/a
83.031	0.0905	166062	keystroke	d	n/a
83.377	0.075	166754	keystroke	w	n/a
83.572	0.18	167144	keystroke	a	n/a
83.737	0.12	167474	keystroke	t	n/a
83.887	0.12	167774	keystroke	e	n/a
83.977	0.12	167954	keystroke	r	n/a
84.397	0.12	168794	keystroke	Key.space	n/a
84.7715	0.105	169543	keystroke	o	n/a
85.1765	0.105	170353	keystroke	e	n/a
85.4615	0.075	170923	keystroke	c	n/a
85.6415	0.075	171283	keystroke	d	n/a
85.8365	0.135	171673	keystroke	Key.space	n/a
86.0615	0.09	172123	keystroke	a	n/a
86.2865	0.09	172573	keystroke	c	n/a
86.4665	0.075	172933	keystroke	c	n/a
86.6465	0.15	173293	keystroke	o	n/a
86.7815	0.135	173563	keystroke	m	n/a
86.8715	0.165	173743	keystroke	p	n/a
87.4715	0.09	174943	keystroke	a	n/a
87.6365	0.09	175273	keystroke	n	n/a
87.877	0.12	175754	keystroke	y	n/a
88.2965	0.135	176593	keystroke	i	n/a
88.3865	0.135	176773	keystroke	n	n/a
88.5365	0.12	177073	keystroke	g	n/a
88.7015	0.1505	177403	keystroke	Key.space	n/a
89.077	0.12	178154	keystroke	a	n/a
89.286	0.061	178572	keystroke	s	n/a
89.452	0.0895	178904	keystroke	s	n/a
89.6165	0.09	179233	keystroke	e	n/a
89.7665	0.105	179533	keystroke	t	n/a
90.0065	0.09	180013	keystroke	Key.enter	n/a
90.107	10.1165	180214	prompt	n/a	leisure eyed certificate satisfaction\n
90.877	0.119	181754	keystroke	l	n/a
91.086	0.09	182172	keystroke	e	n/a
91.252	0.1345	182504	keystroke	i	n/a
91.431	0.0755	182862	keystroke	s	n/a
91.6865	0.12	183373	keystroke	u	n/a
91.8515	0.105	183703	keystroke	r	n/a
91.9575	0.089	183915	keystroke	e	n/a
92.1215	0.09	184243	keystroke	Key.space	n/a
92.4365	0.09	184873	keystroke	e	n/a
92.5415	0.105	185083	keystroke	y	n/a
92.767	0.119	185534	keystroke	e	n/a
93.097	0.12	186194	keystroke	d	n/a
93.321	0.15	186642	keystroke	Key.space	n/a
93.591	0.12	187182	keystroke	c	n/a
93.862	0.12	187724	keystroke	e	n/a
93.952	0.135	187904	keystroke	r	n/a
94.566	0.091	189132	keystroke	t	n/a
94.686	0.121	189372	keystroke	i	n/a
94.822	0.09	189644	keystroke	f	n/a
94.971	0.1055	189942	keystroke	i	n/a
95.1365	0.075	190273	keystroke	c	n/a
95.2415	0.195	190483	keystroke	a	n/a
95.3765	0.135	190753	keystroke	t	n/a
95.4965	0.12	190993	keystroke	e	n/a
95.6915	0.1505	191383	keystroke	Key.space	n/a
96.082	0.03	192164	keystroke	s	n/a
96.487	0.12	192974	keystroke	a	n/a
96.682	0.105	193364	keystroke	t	n/a
96.907	0.135	193814	keystroke	i	n/a
97.087	0.09	194174	keystroke	f	n/a
98.572	0.105	197144	keystroke	Key.backspace	n/a
98.692	0.09	197384	keystroke	s	n/a
98.992	0.09	197984	keystroke	f	n/a
99.187	0.165	198374	keystroke	a	n/a
99.442	0.03	198884	keystroke	c	n/a
99.547	0.09	199094	keystroke	t	n/a
99.697	0.1195	199394	keystroke	i	n/a
99.7715	0.15	199543	keystroke	o	n/a
99.8765	0.12	199753	keystroke	n	n/a
100.1015	0.12	200203	keystroke	Key.enter	n/a
100.227	7.976	200454	prompt	n/a	plastic rosa wishlist surgeons\n
100.957	0.12	201914	keystroke	p	n/a
101.182	0.09	202364	keystroke	l	n/a
101.331	0.18	202662	keystroke	a	n/a
101.496	0.12	202992	keystroke	s	n/a
101.586	0.121	203172	keystroke	t	n/a
101.721	0.1205	203442	keystroke	i	n/a
101.8715	0.105	203743	keystroke	c	n/a
102.0665	0.165	204133	keystroke	Key.space	n/a
102.5465	0.09	205093	keystroke	o	n/a
102.9215	0.091	205843	keystroke	Key.backspace	n/a
103.0125	0.104	206025	keystroke	r	n/a
103.1465	0.1195	206293	keystroke	o	n/a
103.401	0.09	206802	keystroke	s	n/a
103.551	0.135	207102	keystroke	a	n/a
103.716	0.1355	207432	keystroke	Key.space	n/a
104.3165	0.0755	208633	keystroke	w	n/a
104.437	0.135	208874	keystroke	i	n/a
104.587	0.105	209174	keystroke	s	n/a
104.707	0.135	209414	keystroke	h	n/a
104.932	0.135	209864	keystroke	l	n/a
105.082	0.105	210164	keystroke	i	n/a
105.232	0.15	210464	keystroke	s	n/a
105.337	0.12	210674	keystroke	t	n/a
105.502	0.135	211004	keystroke	Key.space	n/a
105.997	0.12	211994	keystroke	s	n/a
106.177	0.15	212354	keystroke	u	n/a
106.342	0.09	212684	keystroke	r	n/a
106.6115	0.075	213223	keystroke	g	n/a
107.2415	0.09	214483	keystroke	e	n/a
107.4965	0.21	214993	keystroke	o	n/a
107.6615	0.1355	215323	keystroke	n	n/a
107.857	0.1045	215714	keystroke	s	n/a
108.1115	0.09	216223	keystroke	Key.enter	n/a
108.206	8.772	216412	prompt	n/a	suitable routing meyer diana\n
108.952	0.0895	217904	keystroke	s	n/a
109.1615	0.12	218323	keystroke	u	n/a
109.3565	0.12	218713	keystroke	i	n/a
109.5215	0.105	219043	keystroke	t	n/a
109.7765	0.12	219553	keystroke	b	n/a
109.9115	0.1355	219823	keystroke	a	n/a
110.092	0.1345	220184	keystroke	l	n/a
110.661	0.09	221322	keystroke	Key.backspace	n/a
110.826	0.1055	221652	keystroke	Key.backspace	n/a
111.2765	0.09	222553	keystroke	Key.backspace	n/a
111.5765	0.12	223153	keystroke	a	n/a
111.7115	0.0905	223423	keystroke	b	n/a
111.862	0.105	223724	keystroke	l	n/a
112.042	0.06	224084	keystroke	e	n/a
112.207	0.104	224414	keystroke	Key.space	n/a
112.8365	0.12	225673	keystroke	r	n/a
112.9715	0.09	225943	keystroke	o	n/a
113.0315	0.135	226063	keystroke	u	n/a
113.1965	0.105	226393	keystroke	t	n/a
113.992	0.149	227984	keystroke	i	n/a
114.097	0.15	228194	keystroke	n	n/a
114.291	0.106	228582	keystroke	g	n/a
114.426	0.135	228852	keystroke	Key.space	n/a
114.651	0.1205	229302	keystroke	m	n/a
114.8465	0.09	229693	keystroke	e	n/a
115.0115	0.135	230023	keystroke	y	n/a
115.2065	0.135	230413	keystroke	e	n/a
115.3115	0.12	230623	keystroke	r	n/a
115.6265	0.15	231253	keystroke	Key.space	n/a
116.137	0.09	232274	keystroke	d	n/a
116.241	0.091	232482	keystroke	i	n/a
116.391	0.136	232782	keystroke	a	n/a
116.512	0.119	233024	keystroke	n	n/a
116.676	0.091	233352	keystroke	a	n/a
116.871	0.105	233742	keystroke	Key.enter	n/a
116.981	8.952	233962	prompt	n/a	shanghai explains ambassador badly\n
117.6665	0.09	235333	keystroke	s	n/a
117.8465	0.12	235693	keystroke	h	n/a
117.9515	0.12	235903	keystroke	a	n/a
118.1165	0.12	236233	keystroke	n	n/a
118.2815	0.075	236563	keystroke	g	n/a
118.4765	0.135	236953	keystroke	h	n/a
118.7315	0.1195	237463	keystroke	a	n/a
118.8815	0.135	237763	keystroke	i	n/a
119.196	0.135	238392	keystroke	Key.space	n/a
119.4365	0.0745	238873	keystroke	e	n/a
119.766	0.121	239532	keystroke	p	n/a
120.2465	0.075	240493	keystroke	Key.backspace	n/a
120.3365	0.09	240673	keystroke	x	n/a
120.5165	0.105	241033	keystroke	p	n/a
120.6815	0.105	241363	keystroke	l	n/a
120.8165	0.105	241633	keystroke	a	n/a
120.9815	0.18	241963	keystroke	i	n/a
121.1015	0.15	242203	keystroke	n	n/a
121.506	0.09	243012	keystroke	s	n/a
121.686	0.135	243372	keystroke	Key.space	n/a
122.016	0.105	244032	keystroke	a	n/a
122.211	0.12	244422	keystroke	m	n/a
122.451	0.121	244902	keystroke	b	n/a
122.751	0.061	245502	keystroke	a	n/a
122.9765	0.105	245953	keystroke	s	n/a
123.1865	0.075	246373	keystroke	s	n/a
123.667	0.1345	247334	keystroke	a	n/a
124.0415	0.06	248083	keystroke	d	n/a
124.1615	0.1205	248323	keystroke	o	n/a
124.312	0.09	248624	keystroke	r	n/a
124.522	0.12	249044	keystroke	Key.space	n/a
124.897	0.09	249794	keystroke	b	n/a
125.107	0.12	250214	keystroke	a	n/a
125.257	0.075	250514	keystroke	d	n/a
125.392	0.135	250784	keystroke	l	n/a
125.587	0.0895	251174	keystroke	y	n/a
125.841	0.09	251682	keystroke	Key.enter	n/a
125.936	6.507	251872	prompt	n/a	thickness touring eggs cloth\n
126.727	0.1045	253454	keystroke	t	n/a
126.847	0.12	253694	keystroke	h	n/a
126.921	0.121	253842	keystroke	i	n/a
127.162	0.09	254324	keystroke	c	n/a
127.252	0.12	254504	keystroke	k	n/a
127.851	0.136	255702	keystroke	n	n/a
128.002	0.074	256004	keystroke	e	n/a
128.196	0.061	256392	keystroke	s	n/a
128.347	0.0895	256694	keystroke	s	n/a
128.4515	0.135	256903	keystroke	Key.space	n/a
129.0515	0.12	258103	keystroke	t	n/a
129.1865	0.21	258373	keystroke	o	n/a
129.3665	0.135	258733	keystroke	u	n/a
129.802	0.105	259604	keystroke	r	n/a
129.937	0.164	259874	keystroke	i	n/a
130.027	0.15	260054	keystroke	n	n/a
130.177	0.09	260354	keystroke	g	n/a
130.372	0.165	260744	keystroke	Key.space	n/a
130.627	0.075	261254	keystroke	e	n/a
130.822	0.075	261644	keystroke	g	n/a
130.987	0.105	261974	keystroke	g	n/a
131.167	0.104	262334	keystroke	s	n/a
131.316	0.135	262632	keystroke	Key.space	n/a
131.676	0.1055	263352	keystroke	c	n/a
131.7665	0.06	263533	keystroke	l	n/a
131.9315	0.075	263863	keystroke	o	n/a
132.0665	0.075	264133	keystroke	t	n/a
132.1565	0.075	264313	keystroke	h	n/a
132.3365	0.105	264673	keystroke	Key.enter	n/a
132.4465	6.057	264893	prompt	n/a	garlic shorts accuracy glance\n
133.221	0.15	266442	keystroke	g	n/a
133.4615	0.135	266923	keystroke	a	n/a
133.5665	0.105	267133	keystroke	r	n/a
133.6565	0.09	267313	keystroke	l	n/a
133.8065	0.105	267613	keystroke	i	n/a
133.9715	0.105	267943	keystroke	c	n/a
134.1365	0.135	268273	keystroke	Key.space	n/a
134.4815	0.105	268963	keystroke	s	n/a
134.6015	0.09	269203	keystroke	h	n/a
134.6765	0.12	269353	keystroke	o	n/a
134.8115	0.09	269623	keystroke	r	n/a
135.0215	0.06	270043	keystroke	t	n/a
135.2465	0.09	270493	keystroke	s	n/a
135.3815	0.135	270763	keystroke	Key.space	n/a
135.6365	0.105	271273	keystroke	a	n/a
135.877	0.075	271754	keystroke	c	n/a
136.012	0.089	272024	keystroke	c	n/a
136.206	0.121	272412	keystroke	u	n/a
136.311	0.106	272622	keystroke	r	n/a
136.4915	0.1055	272983	keystroke	a	n/a
136.686	0.075	273372	keystroke	c	n/a
136.882	0.135	273764	keystroke	y	n/a
137.046	0.165	274092	keystroke	Key.space	n/a
137.452	0.09	274904	keystroke	g	n/a
137.586	0.12	275172	keystroke	l	n/a
137.751	0.1055	275502	keystroke	a	n/a
137.8715	0.12	275743	keystroke	n	n/a
138.0215	0.075	276043	keystroke	c	n/a
138.2165	0.075	276433	keystroke	e	n/a
138.411	0.09	276822	keystroke	Key.enter	n/a
138.506	12.627	277012	prompt	n/a	specialists proprietary lebanon directly\n
139.1315	0.09	278263	keystroke	s	n/a
139.2815	0.12	278563	keystroke	p	n/a
139.4165	0.09	278833	keystroke	e	n/a
139.6415	0.09	279283	keystroke	c	n/a
139.7615	0.105	279523	keystroke	i	n/a
139.9415	0.105	279883	keystroke	a	n/a
140.737	0.075	281474	keystroke	l	n/a
141.712	0.15	283424	keystroke	i	n/a
141.862	0.1795	283724	keystroke	s	n/a
141.9965	0.1045	283993	keystroke	t	n/a
142.431	0.091	284862	keystroke	s	n/a
142.596	0.15	285192	keystroke	Key.space	n/a
143.5115	0.135	287023	keystroke	p	n/a
143.7065	0.105	287413	keystroke	r	n/a
143.8265	0.09	287653	keystroke	o	n/a
144.1115	0.135	288223	keystroke	p	n/a
144.4415	0.135	288883	keystroke	r	n/a
144.996	0.1355	289992	keystroke	i	n/a
145.491	0.075	290982	keystroke	e	n/a
145.941	0.12	291882	keystroke	t	n/a
146.226	0.165	292452	keystroke	a	n/a
146.376	0.105	292752	keystroke	r	n/a
146.556	0.135	293112	keystroke	y	n/a
146.661	0.18	293322	keystroke	Key.space	n/a
146.886	0.12	293772	keystroke	l	n/a
147.036	0.075	294072	keystroke	e	n/a
147.3065	0.12	294613	keystroke	b	n/a
147.5165	0.105	295033	keystroke	a	n/a
147.7115	0.1205	295423	keystroke	n	n/a
147.982	0.135	295964	keystroke	o	n/a
148.147	0.165	296294	keystroke	n	n/a
148.462	0.135	296924	keystroke	Key.space	n/a
148.927	0.105	297854	keystroke	d	n/a
149.047	0.15	298094	keystroke	i	n/a
149.767	0.105	299534	keystroke	r	n/a
149.872	0.075	299744	keystroke	e	n/a
150.082	0.1345	300164	keystroke	c	n/a
150.2315	0.075	300463	keystroke	t	n/a
150.3365	0.195	300673	keystroke	l	n/a
150.5015	0.135	301003	keystroke	y	n/a
151.0265	0.105	302053	keystroke	Key.enter	n/a
151.137	11.471	302274	prompt	n/a	unified configuring fiji confidentiality\n
152.137	0.089	304274	keystroke	u	n/a
152.331	0.15	304662	keystroke	n	n/a
152.496	0.075	304992	keystroke	i	n/a
153.0215	0.105	306043	keystroke	f	n/a
153.1415	0.12	306283	keystroke	i	n/a
153.3515	0.06	306703	keystroke	e	n/a
153.5465	0.09	307093	keystroke	d	n/a
153.6965	0.15	307393	keystroke	Key.space	n/a
154.1915	0.105	308383	keystroke	c	n/a
154.2515	0.15	308503	keystroke	o	n/a
154.3715	0.12	308743	keystroke	n	n/a
154.9115	0.09	309823	keystroke	f	n/a
155.0615	0.135	310123	keystroke	i	n/a
155.2115	0.075	310423	keystroke	g	n/a
155.3915	0.135	310783	keystroke	u	n/a
155.5415	0.0895	311083	keystroke	r	n/a
155.782	0.12	311564	keystroke	i	n/a
155.992	0.15	311984	keystroke	n	n/a
156.202	0.09	312404	keystroke	g	n/a
157.5665	0.105	315133	keystroke	Key.space	n/a
157.7465	0.09	315493	keystroke	f	n/a
157.8515	0.105	315703	keystroke	i	n/a
158.0765	0.075	316153	keystroke	j	n/a
158.2115	0.105	316423	keystroke	i	n/a
158.496	0.12	316992	keystroke	Key.space	n/a
158.751	0.12	317502	keystroke	c	n/a
158.841	0.12	317682	keystroke	o	n/a
158.931	0.12	317862	keystroke	n	n/a
159.651	0.105	319302	keystroke	f	n/a
159.8015	0.135	319603	keystroke	i	n/a
160.0715	0.105	320143	keystroke	d	n/a
160.4015	0.075	320803	keystroke	e	n/a
160.5365	0.12	321073	keystroke	n	n/a
160.7315	0.105	321463	keystroke	t	n/a
160.8515	0.135	321703	keystroke	i	n/a
161.0015	0.12	322003	keystroke	a	n/a
161.1815	0.075	322363	keystroke	l	n/a
161.856	0.135	323712	keystroke	i	n/a
162.051	0.12	324102	keystroke	t	n/a
162.261	0.075	324522	keystroke	y	n/a
162.516	0.09	325032	keystroke	Key.enter	n/a
162.6135	9.205	325227	prompt	n/a	commissions oldest although minimize\n
163.447	0.1195	326894	keystroke	c	n/a
163.5365	0.09	327073	keystroke	o	n/a
163.6565	0.09	327313	keystroke	m	n/a
163.8365	0.105	327673	keystroke	m	n/a
164.0615	0.15	328123	keystroke	i	n/a
164.2565	0.09	328513	keystroke	s	n/a
164.3915	0.12	328783	keystroke	i	n/a
164.4815	0.12	328963	keystroke	o	n/a
164.871	0.105	329742	keystroke	Key.backspace	n/a
165.051	0.0905	330102	keystroke	Key.backspace	n/a
165.2015	0.075	330403	keystroke	s	n/a
165.3515	0.105	330703	keystroke	i	n/a
165.4415	0.135	330883	keystroke	o	n/a
165.5315	0.12	331063	keystroke	n	n/a
165.7415	0.0895	331483	keystroke	s	n/a
165.966	0.12	331932	keystroke	Key.space	n/a
166.432	0.074	332864	keystroke	o	n/a
166.612	0.09	333224	keystroke	l	n/a
166.731	0.075	333462	keystroke	d	n/a
166.926	0.075	333852	keystroke	e	n/a
167.091	0.105	334182	keystroke	s	n/a
167.227	0.119	334454	keystroke	t	n/a
167.421	0.12	334842	keystroke	Key.space	n/a
167.8415	0.12	335683	keystroke	a	n/a
167.9615	0.075	335923	keystroke	l	n/a
168.1715	0.105	336343	keystroke	t	n/a
168.3365	0.09	336673	keystroke	h	n/a
168.4565	0.15	336913	keystroke	o	n/a
168.5615	0.135	337123	keystroke	u	n/a
168.7265	0.075	337453	keystroke	g	n/a
168.8615	0.09	337723	keystroke	h	n/a
170.091	0.12	340182	keystroke	Key.space	n/a
170.376	0.135	340752	keystroke	m	n/a
170.526	0.0905	341052	keystroke	i	n/a
170.6465	0.195	341293	keystroke	n	n/a
170.8115	0.105	341623	keystroke	i	n/a
171.1415	0.12	342283	keystroke	m	n/a
171.2465	0.12	342493	keystroke	i	n/a
171.3815	0.0895	342763	keystroke	z	n/a
171.516	0.09	343032	keystroke	e	n/a
171.726	0.09	343452	keystroke	Key.enter	n/a
171.8215	8.2315	343643	prompt	n/a	fares outstanding witness mercedes\n
172.6565	0.09	345313	keystroke	f	n/a
172.8065	0.21	345613	keystroke	a	n/a
172.9865	0.105	345973	keystroke	r	n/a
173.1815	0.075	346363	keystroke	e	n/a
173.361	0.075	346722	keystroke	s	n/a
173.541	0.135	347082	keystroke	Key.space	n/a
173.976	0.15	347952	keystroke	o	n/a
174.066	0.165	348132	keystroke	u	n/a
174.186	0.105	348372	keystroke	t	n/a
174.441	0.09	348882	keystroke	s	n/a
175.012	0.089	350024	keystroke	t	n/a
175.146	0.12	350292	keystroke	a	n/a
175.341	0.12	350682	keystroke	n	n/a
175.476	0.09	350952	keystroke	d	n/a
175.626	0.15	351252	keystroke	i	n/a
175.702	0.149	351404	keystroke	n	n/a
175.836	0.0905	351672	keystroke	g	n/a
176.211	0.135	352422	keystroke	Key.space	n/a
176.6615	0.0595	353323	keystroke	w	n/a
176.751	0.15	353502	keystroke	i	n/a
176.916	0.105	353832	keystroke	t	n/a
177.396	0.12	354792	keystroke	n	n/a
177.546	0.075	355092	keystroke	e	n/a
177.741	0.075	355482	keystroke	s	n/a
177.891	0.09	355782	keystroke	s	n/a
178.026	0.135	356052	keystroke	Key.space	n/a
178.266	0.136	356532	keystroke	m	n/a
178.5515	0.165	357103	keystroke	e	n/a
178.6715	0.1195	357343	keystroke	r	n/a
179.002	0.089	358004	keystroke	c	n/a
179.2115	0.075	358423	keystroke	e	n/a
179.4065	0.075	358813	keystroke	d	n/a
179.5865	0.075	359173	keystroke	e	n/a
179.7365	0.09	359473	keystroke	s	n/a
179.9615	0.09	359923	keystroke	Key.enter	n/a
180.0565	9.477	360113	prompt	n/a	facility legislation shan't contractors\n
180.6815	0.075	361363	keystroke	f	n/a
180.8465	0.105	361693	keystroke	a	n/a
181.0115	0.0905	362023	keystroke	c	n/a
181.132	0.105	362264	keystroke	i	n/a
181.357	0.1195	362714	keystroke	l	n/a
181.5365	0.09	363073	keystroke	i	n/a
181.732	0.104	363464	keystroke	t	n/a
181.8965	0.1495	363793	keystroke	y	n/a
182.0165	0.1945	364033	keystroke	Key.space	n/a
182.7815	0.105	365563	keystroke	l	n/a
182.916	0.075	365832	keystroke	e	n/a
183.081	0.09	366162	keystroke	g	n/a
183.231	0.12	366462	keystroke	i	n/a
183.366	0.12	366732	keystroke	s	n/a
183.501	0.06	367002	keystroke	t	n/a
183.9215	0.09	367843	keystroke	Key.backspace	n/a
184.1465	0.105	368293	keystroke	l	n/a
184.2665	0.105	368533	keystroke	a	n/a
184.3415	0.12	368683	keystroke	t	n/a
184.4465	0.12	368893	keystroke	i	n/a
184.5515	0.135	369103	keystroke	o	n/a
184.6565	0.1495	369313	keystroke	n	n/a
184.791	0.15	369582	keystroke	Key.space	n/a
185.211	0.105	370422	keystroke	s	n/a
185.331	0.135	370662	keystroke	h	n/a
185.631	0.075	371262	keystroke	a	n/a
185.8565	0.15	371713	keystroke	n	n/a
186.2915	0.18	372583	keystroke	'	n/a
186.5315	0.1045	373063	keystroke	t	n/a
186.8155	0.1505	373631	keystroke	Key.space	n/a
187.416	0.12	374832	keystroke	c	n/a
187.521	0.12	375042	keystroke	o	n/a
187.611	0.12	375222	keystroke	n	n/a
188.046	0.075	376092	keystroke	t	n/a
188.241	0.075	376482	keystroke	r	n/a
188.376	0.09	376752	keystroke	a	n/a
188.541	0.09	377082	keystroke	c	n/a
188.691	0.09	377382	keystroke	t	n/a
188.826	0.105	377652	keystroke	o	n/a
188.961	0.105	377922	keystroke	r	n/a
189.156	0.09	378312	keystroke	s	n/a
189.426	0.105	378852	keystroke	Key.enter	n/a
189.539	11.079	379078	prompt	n/a	unavailable stick previous seas\n
190.491	0.045	380982	keystroke	u	n/a
190.566	0.12	381132	keystroke	n	n/a
190.731	0.135	381462	keystroke	a	n/a
190.911	0.195	381822	keystroke	v	n/a
191.931	0.075	383862	keystroke	v	n/a
192.396	0.1045	384792	keystroke	Key.backspace	n/a
192.5165	0.105	385033	keystroke	a	n/a
192.6965	0.105	385393	keystroke	i	n/a
192.9965	0.105	385993	keystroke	l	n/a
193.7765	0.135	387553	keystroke	a	n/a
193.9265	0.105	387853	keystroke	b	n/a
194.1215	0.12	388243	keystroke	l	n/a
194.2715	0.09	388543	keystroke	e	n/a
194.5865	0.165	389173	keystroke	Key.space	n/a
195.0515	0.075	390103	keystroke	s	n/a
195.2315	0.09	390463	keystroke	t	n/a
195.5015	0.0895	391003	keystroke	i	n/a
195.861	0.15	391722	keystroke	c	n/a
196.191	0.1655	392382	keystroke	k	n/a
196.3415	0.135	392683	keystroke	Key.space	n/a
196.6865	0.15	393373	keystroke	p	n/a
196.8815	0.135	393763	keystroke	r	n/a
197.0015	0.075	394003	keystroke	e	n/a
197.4965	0.12	394993	keystroke	v	n/a
197.6015	0.135	395203	keystroke	i	n/a
197.7215	0.165	395443	keystroke	o	n/a
197.8415	0.15	395683	keystroke	u	n/a
198.0815	0.105	396163	keystroke	s	n/a
198.3815	0.135	396763	keystroke	Key.space	n/a
198.9215	0.135	397843	keystroke	s	n/a
199.1015	0.105	398203	keystroke	e	n/a
199.9115	0.135	399823	keystroke	a	n/a
200.1815	0.105	400363	keystroke	s	n/a
200.5115	0.105	401023	keystroke	Key.enter	n/a
200.621	6.912	401242	prompt	n/a	pierce oops fresh dallas\n
201.3065	0.15	402613	keystroke	p	n/a
201.4715	0.135	402943	keystroke	i	n/a
201.8615	0.1195	403723	keystroke	e	n/a
202.5215	0.0895	405043	keystroke	r	n/a
202.776	0.075	405552	keystroke	c	n/a
202.986	0.06	405972	keystroke	e	n/a
203.151	0.12	406302	keystroke	Key.space	n/a
203.301	0.09	406602	keystroke	o	n/a
203.496	0.075	406992	keystroke	o	n/a
203.601	0.15	407202	keystroke	p	n/a
203.781	0.12	407562	keystroke	s	n/a
203.991	0.12	407982	keystroke	Key.space	n/a
204.6515	0.105	409303	keystroke	f	n/a
204.8915	0.09	409783	keystroke	r	n/a
205.0415	0.09	410083	keystroke	e	n/a
205.2515	0.075	410503	keystroke	s	n/a
205.401	0.15	410802	keystroke	h	n/a
205.581	0.15	411162	keystroke	Key.space	n/a
205.986	0.0905	411972	keystroke	d	n/a
206.1515	0.12	412303	keystroke	a	n/a
206.3015	0.105	412603	keystroke	l	n/a
206.5565	0.09	413113	keystroke	l	n/a
206.7365	0.12	413473	keystroke	a	n/a
207.1865	0.075	414373	keystroke	s	n/a
207.426	0.105	414852	keystroke	Key.enter	n/a
207.5355	9.8375	415071	prompt	n/a	threatening sensitive athens pierce\n
208.521	0.105	417042	keystroke	t	n/a
208.611	0.1505	417222	keystroke	h	n/a
208.7765	0.135	417553	keystroke	r	n/a
208.9265	0.06	417853	keystroke	e	n/a
209.0915	0.12	418183	keystroke	a	n/a
209.9165	0.135	419833	keystroke	t	n/a
210.171	0.075	420342	keystroke	e	n/a
210.321	0.075	420642	keystroke	n	n/a
210.501	0.15	421002	keystroke	i	n/a
210.606	0.12	421212	keystroke	n	n/a
210.786	0.09	421572	keystroke	g	n/a
210.921	0.15	421842	keystroke	Key.space	n/a
211.2065	0.09	422413	keystroke	s	n/a
211.3565	0.09	422713	keystroke	e	n/a
211.5055	0.121	423011	keystroke	n	n/a
211.6415	0.104	423283	keystroke	s	n/a
211.821	0.075	423642	keystroke	i	n/a
211.956	0.1205	423912	keystroke	s	n/a
212.6005	0.1355	425201	keystroke	Key.backspace	n/a
212.826	0.075	425652	keystroke	t	n/a
212.976	0.105	425952	keystroke	i	n/a
213.111	0.18	426222	keystroke	v	n/a
213.276	0.09	426552	keystroke	e	n/a
213.531	0.15	427062	keystroke	Key.space	n/a
213.996	0.12	427992	keystroke	a	n/a
214.2815	0.12	428563	keystroke	t	n/a
214.4315	0.12	428863	keystroke	h	n/a
214.5965	0.045	429193	keystroke	e	n/a
214.821	0.12	429642	keystroke	n	n/a
215.001	0.0905	430002	keystroke	s	n/a
215.1965	0.1495	430393	keystroke	Key.space	n/a
215.571	0.15	431142	keystroke	p	n/a
215.991	0.135	431982	keystroke	i	n/a
216.216	0.105	432432	keystroke	e	n/a
216.576	0.09	433152	keystroke	r	n/a
216.8465	0.0895	433693	keystroke	c	n/a
217.056	0.06	434112	keystroke	e	n/a
217.266	0.105	434532	keystroke	Key.enter	n/a
217.376	7.7965	434752	prompt	n/a	adjustable handbags bottle script\n
218.286	0.09	436572	keystroke	a	n/a
218.436	0.09	436872	keystroke	d	n/a
218.541	0.105	437082	keystroke	j	n/a
218.766	0.105	437532	keystroke	u	n/a
218.931	0.165	437862	keystroke	s	n/a
219.081	0.105	438162	keystroke	t	n/a
219.306	0.15	438612	keystroke	a	n/a
219.457	0.104	438914	keystroke	b	n/a
219.606	0.1055	439212	keystroke	l	n/a
219.7565	0.075	439513	keystroke	e	n/a
219.906	0.12	439812	keystroke	Key.space	n/a
220.251	0.105	440502	keystroke	h	n/a
220.401	0.15	440802	keystroke	a	n/a
220.566	0.12	441132	keystroke	n	n/a
221.3305	0.0605	442661	keystroke	d	n/a
221.586	0.09	443172	keystroke	b	n/a
221.7965	0.15	443593	keystroke	a	n/a
222.0065	0.09	444013	keystroke	g	n/a
222.2015	0.09	444403	keystroke	s	n/a
222.4115	0.135	444823	keystroke	Key.space	n/a
222.771	0.075	445542	keystroke	b	n/a
222.861	0.105	445722	keystroke	o	n/a
223.071	0.06	446142	keystroke	t	n/a
223.206	0.09	446412	keystroke	t	n/a
223.311	0.135	446622	keystroke	l	n/a
223.461	0.075	446922	keystroke	e	n/a
223.626	0.135	447252	keystroke	Key.space	n/a
223.926	0.09	447852	keystroke	s	n/a
224.166	0.105	448332	keystroke	c	n/a
224.331	0.1195	448662	keystroke	r	n/a
224.4665	0.15	448933	keystroke	i	n/a
224.5855	0.135	449171	keystroke	p	n/a
224.7665	0.074	449533	keystroke	t	n/a
225.0805	0.0905	450161	keystroke	Key.enter	n/a
225.1775	9.595	450355	prompt	n/a	finishing vocals memory meditation\n
225.846	0.03	451692	keystroke	f	n/a
225.921	0.105	451842	keystroke	i	n/a
226.041	0.195	452082	keystroke	n	n/a
226.1915	0.1045	452383	keystroke	i	n/a
226.311	0.105	452622	keystroke	s	n/a
226.446	0.0905	452892	keystroke	h	n/a
226.4915	0.18	452983	keystroke	i	n/a
226.6265	0.12	453253	keystroke	n	n/a
226.7615	0.105	453523	keystroke	g	n/a
226.8815	0.135	453763	keystroke	Key.space	n/a
227.1365	0.075	454273	keystroke	v	n/a
227.2115	0.105	454423	keystroke	o	n/a
227.4665	0.165	454933	keystroke	c	n/a
227.6465	0.135	455293	keystroke	a	n/a
227.7965	0.1195	455593	keystroke	l	n/a
228.081	0.105	456162	keystroke	s	n/a
228.246	0.105	456492	keystroke	Key.space	n/a
228.756	0.09	457512	keystroke	e	n/a
228.906	0.165	457812	keystroke	m	n/a
229.4165	0.074	458833	keystroke	Key.backspace	n/a
229.5665	0.09	459133	keystroke	Key.backspace	n/a
229.776	0.06	459552	keystroke	e	n/a
229.837	0.149	459674	keystroke	m	n/a
230.241	0.09	460482	keystroke	Key.backspace	n/a
230.4215	0.0595	460843	keystroke	Key.backspace	n/a
230.6305	0.09	461261	keystroke	m	n/a
230.7805	0.091	461561	keystroke	e	n/a
231.2605	0.136	462521	keystroke	m	n/a
231.3805	0.12	462761	keystroke	o	n/a
231.5305	0.12	463061	keystroke	r	n/a
231.7255	0.12	463451	keystroke	y	n/a
231.8905	0.15	463781	keystroke	Key.space	n/a
232.2215	0.135	464443	keystroke	m	n/a
232.3705	0.09	464741	keystroke	e	n/a
232.6255	0.091	465251	keystroke	d	n/a
233.4655	0.1505	466931	keystroke	i	n/a
233.946	0.09	467892	keystroke	t	n/a
234.081	0.12	468162	keystroke	a	n/a
234.186	0.135	468372	keystroke	t	n/a
234.306	0.105	468612	keystroke	i	n/a
234.351	0.135	468702	keystroke	o	n/a
234.441	0.12	468882	keystroke	n	n/a
234.666	0.105	469332	keystroke	Key.enter	n/a
234.7755	7.7075	469551	prompt	n/a	academy arranged beyond hans\n
235.491	0.135	470982	keystroke	a	n/a
235.716	0.09	471432	keystroke	c	n/a
235.896	0.105	471792	keystroke	a	n/a
236.106	0.06	472212	keystroke	d	n/a
236.391	0.06	472782	keystroke	e	n/a
236.6465	0.1345	473293	keystroke	m	n/a
236.9615	0.15	473923	keystroke	y	n/a
237.1115	0.18	474223	keystroke	Key.space	n/a
237.4115	0.15	474823	keystroke	a	n/a
237.5765	0.09	475153	keystroke	r	n/a
237.7415	0.105	475483	keystroke	r	n/a
237.8615	0.135	475723	keystroke	a	n/a
238.0105	0.151	476021	keystroke	n	n/a
238.1465	0.075	476293	keystroke	g	n/a
238.2655	0.09	476531	keystroke	e	n/a
238.4755	0.075	476951	keystroke	d	n/a
238.671	0.15	477342	keystroke	Key.space	n/a
239.5565	0.075	479113	keystroke	b	n/a
239.7065	0.09	479413	keystroke	e	n/a
240.0065	0.135	480013	keystroke	y	n/a
240.1865	0.15	480373	keystroke	o	n/a
240.3515	0.135	480703	keystroke	n	n/a
240.5315	0.09	481063	keystroke	d	n/a
240.771	0.12	481542	keystroke	Key.space	n/a
241.431	0.1205	482862	keystroke	h	n/a
241.6865	0.0895	483373	keystroke	a	n/a
241.761	0.15	483522	keystroke	n	n/a
242.121	0.105	484242	keystroke	s	n/a
242.391	0.09	484782	keystroke	Key.enter	n/a
242.495	9.573	484990	prompt	n/a	kinds orientation subsequent steel\n
243.1265	0.06	486253	keystroke	k	n/a
243.321	0.09	486642	keystroke	i	n/a
243.366	0.135	486732	keystroke	n	n/a
243.516	0.075	487032	keystroke	d	n/a
243.681	0.0905	487362	keystroke	s	n/a
243.8305	0.15	487661	keystroke	Key.space	n/a
244.1165	0.12	488233	keystroke	o	n/a
244.4015	0.134	488803	keystroke	r	n/a
244.596	0.12	489192	keystroke	i	n/a
244.836	0.12	489672	keystroke	e	n/a
245.016	0.1505	490032	keystroke	n	n/a
245.2115	0.09	490423	keystroke	t	n/a
246.036	0.135	492072	keystroke	a	n/a
246.156	0.105	492312	keystroke	t	n/a
246.291	0.135	492582	keystroke	i	n/a
246.396	0.12	492792	keystroke	o	n/a
246.471	0.18	492942	keystroke	n	n/a
246.606	0.15	493212	keystroke	Key.space	n/a
246.9215	0.09	493843	keystroke	s	n/a
247.0415	0.15	494083	keystroke	u	n/a
247.1765	0.104	494353	keystroke	b	n/a
247.4315	0.134	494863	keystroke	s	n/a
247.6415	0.09	495283	keystroke	e	n/a
248.406	0.12	496812	keystroke	q	n/a
248.586	0.105	497172	keystroke	u	n/a
248.751	0.075	497502	keystroke	e	n/a
249.456	0.12	498912	keystroke	n	n/a
250.6405	0.2105	501281	keystroke	t	n/a
250.8655	0.105	501731	keystroke	Key.space	n/a
251.0165	0.1195	502033	keystroke	s	n/a
251.151	0.135	502302	keystroke	t	n/a
251.436	0.06	502872	keystroke	e	n/a
251.601	0.06	503202	keystroke	e	n/a
251.721	0.105	503442	keystroke	l	n/a
251.976	0.09	503952	keystroke	Key.enter	n/a
252.0745	8.558	504149	prompt	n/a	who'll greenhouse rouge pair\n
252.801	0.09	505602	keystroke	w	n/a
253.071	0.15	506142	keystroke	h	n/a
253.266	0.135	506532	keystroke	o	n/a
253.596	0.12	507192	keystroke	'	n/a
253.896	0.075	507792	keystroke	l	n/a
254.076	0.135	508152	keystroke	l	n/a
254.196	0.135	508392	keystroke	Key.space	n/a
254.481	0.06	508962	keystroke	g	n/a
254.721	0.03	509442	keystroke	e	n/a
254.766	0.105	509532	keystroke	r	n/a
255.2615	0.06	510523	keystroke	Key.backspace	n/a
255.3965	0.105	510793	keystroke	Key.backspace	n/a
255.4715	0.09	510943	keystroke	r	n/a
255.5915	0.075	511183	keystroke	e	n/a
255.7715	0.075	511543	keystroke	e	n/a
255.9665	0.12	511933	keystroke	n	n/a
256.3865	0.075	512773	keystroke	h	n/a
256.4765	0.1945	512953	keystroke	o	n/a
256.596	0.135	513192	keystroke	u	n/a
256.776	0.135	513552	keystroke	s	n/a
256.851	0.12	513702	keystroke	e	n/a
257.286	0.12	514572	keystroke	Key.space	n/a
257.766	0.0895	515532	keystroke	r	n/a
257.8855	0.135	515771	keystroke	o	n/a
257.9755	0.135	515951	keystroke	u	n/a
258.1555	0.09	516311	keystroke	g	n/a
258.5005	0.075	517001	keystroke	e	n/a
258.6505	0.135	517301	keystroke	Key.space	n/a
259.1005	0.105	518201	keystroke	p	n/a
259.2065	0.119	518413	keystroke	a	n/a
259.4005	0.0905	518801	keystroke	i	n/a
259.5205	0.135	519041	keystroke	i	n/a
259.8055	0.09	519611	keystroke	r	n/a
260.1355	0.075	520271	keystroke	Key.backspace	n/a
260.2855	0.09	520571	keystroke	Key.backspace	n/a
260.3905	0.075	520781	keystroke	r	n/a
260.5255	0.105	521051	keystroke	Key.enter	n/a
260.636	7.4215	521272	prompt	n/a	teaches deborah micro benz\n
261.801	0.12	523602	keystroke	t	n/a
261.936	0.075	523872	keystroke	e	n/a
262.056	0.15	524112	keystroke	a	n/a
262.236	0.105	524472	keystroke	c	n/a
262.371	0.135	524742	keystroke	h	n/a
262.716	0.105	525432	keystroke	e	n/a
263.001	0.09	526002	keystroke	s	n/a
263.436	0.135	526872	keystroke	Key.space	n/a
263.871	0.075	527742	keystroke	d	n/a
264.066	0.06	528132	keystroke	e	n/a
264.531	0.075	529062	keystroke	b	n/a
264.681	0.135	529362	keystroke	o	n/a
264.966	0.105	529932	keystroke	r	n/a
265.131	0.105	530262	keystroke	a	n/a
265.356	0.1505	530712	keystroke	h	n/a
265.4765	0.165	530953	keystroke	Key.space	n/a
265.911	0.135	531822	keystroke	m	n/a
266.106	0.105	532212	keystroke	i	n/a
266.406	0.075	532812	keystroke	c	n/a
266.586	0.09	533172	keystroke	r	n/a
266.736	0.135	533472	keystroke	o	n/a
266.901	0.15	533802	keystroke	Key.space	n/a
267.261	0.06	534522	keystroke	b	n/a
267.411	0.09	534822	keystroke	e	n/a
267.576	0.135	535152	keystroke	n	n/a
267.7565	0.119	535513	keystroke	z	n/a
267.9515	0.104	535903	keystroke	Key.enter	n/a
268.0695	7.578	536139	prompt	n/a	fold converter camping teachers\n
268.8515	0.09	537703	keystroke	f	n/a
268.9865	0.09	537973	keystroke	o	n/a
269.1815	0.09	538363	keystroke	l	n/a
269.2865	0.09	538573	keystroke	d	n/a
269.4065	0.135	538813	keystroke	Key.space	n/a
269.5715	0.105	539143	keystroke	c	n/a
269.6615	0.1045	539323	keystroke	o	n/a
269.856	0.135	539712	keystroke	n	n/a
270.426	0.12	540852	keystroke	v	n/a
270.591	0.18	541182	keystroke	e	n/a
270.726	0.105	541452	keystroke	r	n/a
270.966	0.075	541932	keystroke	t	n/a
271.071	0.0745	542142	keystroke	e	n/a
271.2805	0.075	542561	keystroke	d	n/a
271.4755	0.135	542951	keystroke	Key.space	n/a
272.121	0.105	544242	keystroke	c	n/a
272.286	0.135	544572	keystroke	a	n/a
272.481	0.21	544962	keystroke	m	n/a
272.661	0.1205	545322	keystroke	p	n/a
272.8705	0.165	545741	keystroke	i	n/a
272.9605	0.165	545921	keystroke	n	n/a
273.1105	0.09	546221	keystroke	g	n/a
273.2605	0.12	546521	keystroke	Key.space	n/a
273.546	0.12	547092	keystroke	t	n/a
273.681	0.09	547362	keystroke	e	n/a
274.251	0.135	548502	keystroke	a	n/a
274.446	0.09	548892	keystroke	c	n/a
274.581	0.135	549162	keystroke	h	n/a
274.776	0.18	549552	keystroke	e	n/a
274.941	0.105	549882	keystroke	r	n/a
275.2565	0.089	550513	keystroke	s	n/a
275.5555	0.09	551111	keystroke	Key.enter	n/a
275.6505	6.717	551301	prompt	n/a	boat feat slight compute\n
276.2605	0.121	552521	keystroke	b	n/a
276.4105	0.105	552821	keystroke	o	n/a
276.5305	0.136	553061	keystroke	a	n/a
276.7715	0.104	553543	keystroke	t	n/a
276.936	0.15	553872	keystroke	Key.space	n/a
277.731	0.12	555462	keystroke	f	n/a
277.896	0.135	555792	keystroke	e	n/a
278.076	0.135	556152	keystroke	a	n/a
278.2555	0.12	556511	keystroke	s	n/a
278.8105	0.12	557621	keystroke	Key.backspace	n/a
278.9455	0.09	557891	keystroke	t	n/a
279.1255	0.135	558251	keystroke	Key.space	n/a
279.4405	0.091	558881	keystroke	s	n/a
279.5315	0.089	559063	keystroke	l	n/a
279.6655	0.09	559331	keystroke	i	n/a
279.7855	0.09	559571	keystroke	g	n/a
279.9505	0.12	559901	keystroke	h	n/a
280.1315	0.104	560263	keystroke	t	n/a
280.5505	0.15	561101	keystroke	Key.space	n/a
281.1055	0.105	562211	keystroke	c	n/a
281.2255	0.15	562451	keystroke	o	n/a
281.3465	0.164	562693	keystroke	m	n/a
281.4805	0.151	562961	keystroke	p	n/a
281.7355	0.135	563471	keystroke	u	n/a
281.9155	0.09	563831	keystroke	t	n/a
282.0505	0.09	564101	keystroke	e	n/a
282.2605	0.105	564521	keystroke	Key.enter	n/a
282.37	6.1325	564740	prompt	n/a	city running server quantities\n
283.161	0.105	566322	keystroke	c	n/a
283.251	0.12	566502	keystroke	i	n/a
283.401	0.105	566802	keystroke	t	n/a
283.536	0.12	567072	keystroke	y	n/a
283.641	0.1495	567282	keystroke	Key.space	n/a
283.9255	0.12	567851	keystroke	r	n/a
284.0305	0.09	568061	keystroke	u	n/a
284.2405	0.075	568481	keystroke	n	n/a
284.4205	0.09	568841	keystroke	n	n/a
284.5855	0.135	569171	keystroke	i	n/a
284.6905	0.12	569381	keystroke	n	n/a
284.8255	0.105	569651	keystroke	g	n/a
284.9605	0.1505	569921	keystroke	Key.space	n/a
285.351	0.12	570702	keystroke	s	n/a
285.456	0.135	570912	keystroke	e	n/a
285.546	0.12	571092	keystroke	r	n/a
285.816	0.0745	571632	keystroke	v	n/a
285.9505	0.165	571901	keystroke	e	n/a
286.0705	0.12	572141	keystroke	r	n/a
286.2205	0.1505	572441	keystroke	Key.space	n/a
286.5205	0.121	573041	keystroke	q	n/a
286.7315	0.1045	573463	keystroke	u	n/a
286.926	0.12	573852	keystroke	a	n/a
287.091	0.105	574182	keystroke	n	n/a
287.4055	0.106	574811	keystroke	t	n/a
287.5715	0.134	575143	keystroke	i	n/a
287.7205	0.105	575441	keystroke	t	n/a
287.856	0.105	575712	keystroke	i	n/a
288.066	0.06	576132	keystroke	e	n/a
288.216	0.105	576432	keystroke	s	n/a
288.411	0.09	576822	keystroke	Key.enter	n/a
288.506	9.9265	577012	prompt	n/a	prairie opponents movements realtor\n
289.4155	0.12	578831	keystroke	p	n/a
289.6555	0.1205	579311	keystroke	r	n/a
290.136	0.1205	580272	keystroke	a	n/a
290.331	0.15	580662	keystroke	i	n/a
290.616	0.12	581232	keystroke	r	n/a
290.916	0.105	581832	keystroke	i	n/a
291.081	0.075	582162	keystroke	e	n/a
291.261	0.105	582522	keystroke	Key.space	n/a
291.666	0.09	583332	keystroke	o	n/a
291.8915	0.089	583783	keystroke	p	n/a
292.0405	0.165	584081	keystroke	p	n/a
292.4305	0.105	584861	keystroke	o	n/a
293.5555	0.1205	587111	keystroke	n	n/a
293.871	0.105	587742	keystroke	e	n/a
294.036	0.135	588072	keystroke	n	n/a
294.201	0.09	588402	keystroke	t	n/a
294.381	0.105	588762	keystroke	s	n/a
294.531	0.105	589062	keystroke	Key.space	n/a
294.786	0.24	589572	keystroke	m	n/a
294.981	0.135	589962	keystroke	o	n/a
295.176	0.24	590352	keystroke	v	n/a
295.386	0.12	590772	keystroke	e	n/a
295.626	0.135	591252	keystroke	m	n/a
295.791	0.075	591582	keystroke	e	n/a
295.926	0.135	591852	keystroke	n	n/a
296.046	0.105	592092	keystroke	t	n/a
296.241	0.1045	592482	keystroke	s	n/a
296.4205	0.105	592841	keystroke	Key.space	n/a
296.8405	0.12	593681	keystroke	r	n/a
297.0055	0.09	594011	keystroke	e	n/a
297.1555	0.136	594311	keystroke	a	n/a
297.3055	0.1055	594611	keystroke	l	n/a
297.681	0.1195	595362	keystroke	t	n/a
297.8155	0.12	595631	keystroke	o	n/a
298.0855	0.105	596171	keystroke	r	n/a
298.3255	0.105	596651	keystroke	Key.enter	n/a
298.4355	4.707	596871	prompt	n/a	tight nice back output\n
299.1355	0.09	598271	keystroke	t	n/a
299.2265	0.119	598453	keystroke	i	n/a
299.3755	0.09	598751	keystroke	g	n/a
299.4955	0.105	598991	keystroke	h	n/a
299.6005	0.09	599201	keystroke	t	n/a
299.8255	0.105	599651	keystroke	Key.space	n/a
300.081	0.12	600162	keystroke	n	n/a
300.171	0.105	600342	keystroke	i	n/a
300.291	0.075	600582	keystroke	c	n/a
300.486	0.09	600972	keystroke	e	n/a
300.6655	0.135	601331	keystroke	Key.space	n/a
301.071	0.09	602142	keystroke	b	n/a
301.206	0.119	602412	keystroke	a	n/a
301.311	0.1345	602622	keystroke	c	n/a
301.431	0.1645	602862	keystroke	k	n/a
301.5655	0.1195	603131	keystroke	Key.space	n/a
301.9555	0.165	603911	keystroke	o	n/a
302.0905	0.15	604181	keystroke	u	n/a
302.2555	0.075	604511	keystroke	t	n/a
302.4205	0.18	604841	keystroke	p	n/a
302.6155	0.1355	605231	keystroke	u	n/a
302.781	0.0895	605562	keystroke	t	n/a
303.0355	0.105	606071	keystroke	Key.enter	n/a
303.1455	8.6675	606291	prompt	n/a	appearance altered noted antibodies\n
303.8305	0.1355	607661	keystroke	a	n/a
304.041	0.105	608082	keystroke	p	n/a
304.236	0.105	608472	keystroke	p	n/a
304.506	0.105	609012	keystroke	e	n/a
304.671	0.195	609342	keystroke	a	n/a
304.821	0.135	609642	keystroke	r	n/a
305.241	0.12	610482	keystroke	n	n/a
305.661	0.075	611322	keystroke	Key.backspace	n/a
305.781	0.135	611562	keystroke	a	n/a
305.931	0.09	611862	keystroke	n	n/a
306.051	0.06	612102	keystroke	c	n/a
306.216	0.075	612432	keystroke	e	n/a
306.351	0.15	612702	keystroke	Key.space	n/a
306.606	0.1045	613212	keystroke	a	n/a
306.9205	0.105	613841	keystroke	l	n/a
307.1755	0.12	614351	keystroke	t	n/a
307.3405	0.12	614681	keystroke	e	n/a
307.4455	0.135	614891	keystroke	r	n/a
308.0015	0.0745	616003	keystroke	e	n/a
308.241	0.075	616482	keystroke	d	n/a
308.451	0.15	616902	keystroke	Key.space	n/a
308.781	0.135	617562	keystroke	n	n/a
308.901	0.0895	617802	keystroke	o	n/a
309.0055	0.12	618011	keystroke	t	n/a
309.1705	0.06	618341	keystroke	e	n/a
309.336	0.09	618672	keystroke	d	n/a
309.486	0.135	618972	keystroke	Key.space	n/a
309.651	0.135	619302	keystroke	a	n/a
309.771	0.135	619542	keystroke	n	n/a
310.1455	0.12	620291	keystroke	t	n/a
310.3105	0.12	620621	keystroke	i	n/a
310.7305	0.09	621461	keystroke	b	n/a
310.8805	0.135	621761	keystroke	o	n/a
311.1205	0.105	622241	keystroke	d	n/a
311.2405	0.15	622481	keystroke	i	n/a
311.4055	0.075	622811	keystroke	e	n/a
311.5555	0.075	623111	keystroke	s	n/a
311.7055	0.1055	623411	keystroke	Key.enter	n/a
311.816	6.9715	623632	prompt	n/a	need graduate assembly amendment\n
312.576	0.105	625152	keystroke	n	n/a
312.711	0.09	625422	keystroke	e	n/a
312.966	0.015	625932	keystroke	e	n/a
313.101	0.06	626202	keystroke	d	n/a
313.266	0.12	626532	keystroke	Key.space	n/a
313.491	0.075	626982	keystroke	g	n/a
313.701	0.105	627402	keystroke	r	n/a
313.881	0.105	627762	keystroke	a	n/a
314.091	0.075	628182	keystroke	d	n/a
314.301	0.15	628602	keystroke	u	n/a
314.466	0.195	628932	keystroke	a	n/a
314.601	0.12	629202	keystroke	t	n/a
314.706	0.12	629412	keystroke	e	n/a
314.871	0.18	629742	keystroke	Key.space	n/a
315.2455	0.09	630491	keystroke	a	n/a
315.4705	0.09	630941	keystroke	s	n/a
315.6655	0.12	631331	keystroke	s	n/a
315.9055	0.075	631811	keystroke	e	n/a
316.0705	0.135	632141	keystroke	m	n/a
316.2805	0.09	632561	keystroke	b	n/a
316.416	0.1795	632832	keystroke	l	n/a
316.6105	0.135	633221	keystroke	y	n/a
316.7605	0.165	633521	keystroke	Key.space	n/a
317.0755	0.135	634151	keystroke	a	n/a
317.406	0.135	634812	keystroke	m	n/a
317.556	0.09	635112	keystroke	e	n/a
317.721	0.1345	635442	keystroke	n	n/a
317.8705	0.09	635741	keystroke	d	n/a
318.0505	0.12	636101	keystroke	m	n/a
318.2155	0.105	636431	keystroke	e	n/a
318.3505	0.12	636701	keystroke	n	n/a
318.4855	0.09	636971	keystroke	t	n/a
318.6805	0.105	637361	keystroke	Key.enter	n/a
318.79	5.6675	637580	prompt	n/a	skirt aurora vsnet punk\n
319.581	0.075	639162	keystroke	s	n/a
319.686	0.0745	639372	keystroke	k	n/a
319.8955	0.1055	639791	keystroke	i	n/a
320.0155	0.09	640031	keystroke	r	n/a
320.2255	0.09	640451	keystroke	t	n/a
320.3455	0.165	640691	keystroke	Key.space	n/a
320.841	0.135	641682	keystroke	a	n/a
321.036	0.135	642072	keystroke	u	n/a
321.306	0.105	642612	keystroke	r	n/a
321.561	0.105	643122	keystroke	o	n/a
321.711	0.1195	643422	keystroke	r	n/a
321.891	0.12	643782	keystroke	a	n/a
322.071	0.18	644142	keystroke	Key.space	n/a
322.476	0.15	644952	keystroke	v	n/a
322.791	0.074	645582	keystroke	s	n/a
322.955	0.136	645910	keystroke	n	n/a
323.1805	0.165	646361	keystroke	e	n/a
323.3155	0.105	646631	keystroke	t	n/a
323.481	0.135	646962	keystroke	Key.space	n/a
323.661	0.15	647322	keystroke	p	n/a
323.766	0.105	647532	keystroke	u	n/a
323.976	0.09	647952	keystroke	n	n/a
324.096	0.105	648192	keystroke	k	n/a
324.351	0.105	648702	keystroke	Key.enter	n/a
324.462	9.2505	648924	prompt	n/a	connect characterization blowing logs\n
325.161	0.12	650322	keystroke	c	n/a
325.266	0.12	650532	keystroke	o	n/a
325.446	0.09	650892	keystroke	n	n/a
325.611	0.12	651222	keystroke	n	n/a
325.716	0.09	651432	keystroke	e	n/a
325.956	0.075	651912	keystroke	c	n/a
326.106	0.105	652212	keystroke	t	n/a
326.256	0.15	652512	keystroke	Key.space	n/a
326.616	0.0895	653232	keystroke	c	n/a
326.7805	0.1205	653561	keystroke	h	n/a
326.916	0.075	653832	keystroke	a	n/a
327.411	0.135	654822	keystroke	a	n/a
327.846	0.09	655692	keystroke	Key.backspace	n/a
327.921	0.1345	655842	keystroke	r	n/a
328.0705	0.12	656141	keystroke	a	n/a
328.3405	0.105	656681	keystroke	c	n/a
328.5355	0.105	657071	keystroke	t	n/a
328.7755	0.18	657551	keystroke	e	n/a
328.9405	0.12	657881	keystroke	r	n/a
330.0355	0.135	660071	keystroke	i	n/a
330.4105	0.12	660821	keystroke	z	n/a
330.6505	0.0895	661301	keystroke	a	n/a
330.8005	0.0895	661601	keystroke	t	n/a
330.9355	0.105	661871	keystroke	i	n/a
330.9955	0.1795	661991	keystroke	o	n/a
331.13	0.1805	662260	keystroke	n	n/a
331.2805	0.165	662561	keystroke	Key.space	n/a
332.046	0.09	664092	keystroke	b	n/a
332.166	0.075	664332	keystroke	l	n/a
332.346	0.09	664692	keystroke	o	n/a
332.466	0.075	664932	keystroke	w	n/a
332.586	0.1345	665172	keystroke	i	n/a
332.646	0.1495	665292	keystroke	n	n/a
332.7505	0.09	665501	keystroke	g	n/a
332.9005	0.12	665801	keystroke	Key.space	n/a
333.0655	0.075	666131	keystroke	l	n/a
333.2305	0.09	666461	keystroke	o	n/a
333.2905	0.105	666581	keystroke	g	n/a
333.4705	0.105	666941	keystroke	s	n/a
333.6205	0.09	667241	keystroke	Key.enter	n/a
333.715	7.1225	667430	prompt	n/a	has switch friendship norm\n
334.341	0.12	668682	keystroke	h	n/a
334.431	0.15	668862	keystroke	a	n/a
334.566	0.105	669132	keystroke	s	n/a
334.686	0.1495	669372	keystroke	Key.space	n/a
334.8805	0.09	669761	keystroke	s	n/a
335.1205	0.03	670241	keystroke	w	n/a
335.5705	0.075	671141	keystroke	i	n/a
335.7205	0.075	671441	keystroke	t	n/a
335.9455	0.09	671891	keystroke	c	n/a
336.0805	0.15	672161	keystroke	h	n/a
336.2005	0.165	672401	keystroke	Key.space	n/a
336.7855	0.1205	673571	keystroke	f	n/a
337.296	0.09	674592	keystroke	r	n/a
337.551	0.09	675102	keystroke	i	n/a
337.7605	0.075	675521	keystroke	e	n/a
337.9255	0.135	675851	keystroke	n	n/a
338.0905	0.09	676181	keystroke	d	n/a
338.331	0.074	676662	keystroke	s	n/a
338.435	0.165	676870	keystroke	h	n/a
338.51	0.15	677020	keystroke	i	n/a
338.615	0.15	677230	keystroke	p	n/a
338.96	0.12	677920	keystroke	Key.space	n/a
339.201	0.1345	678402	keystroke	m	n/a
339.8305	0.09	679661	keystroke	Key.backspace	n/a
340.0255	0.12	680051	keystroke	n	n/a
340.1305	0.12	680261	keystroke	o	n/a
340.416	0.075	680832	keystroke	r	n/a
340.506	0.105	681012	keystroke	m	n/a
340.746	0.09	681492	keystroke	Key.enter	n/a
340.8405	7.452	681681	prompt	n/a	round warcraft focus ranks\n
341.511	0.105	683022	keystroke	r	n/a
341.601	0.12	683202	keystroke	o	n/a
341.691	0.0895	683382	keystroke	u	n/a
341.8855	0.09	683771	keystroke	n	n/a
342.0055	0.075	684011	keystroke	d	n/a
342.0955	0.135	684191	keystroke	Key.space	n/a
342.2905	0.09	684581	keystroke	w	n/a
342.4855	0.135	684971	keystroke	a	n/a
342.6055	0.105	685211	keystroke	r	n/a
342.9205	0.105	685841	keystroke	c	n/a
343.1605	0.165	686321	keystroke	r	n/a
343.3855	0.12	686771	keystroke	a	n/a
343.6555	0.12	687311	keystroke	s	n/a
344.136	0.105	688272	keystroke	Key.backspace	n/a
344.226	0.075	688452	keystroke	f	n/a
344.451	0.06	688902	keystroke	t	n/a
344.556	0.15	689112	keystroke	Key.space	n/a
344.991	0.09	689982	keystroke	f	n/a
345.171	0.12	690342	keystroke	o	n/a
345.441	0.075	690882	keystroke	c	n/a
345.561	0.12	691122	keystroke	u	n/a
345.741	0.09	691482	keystroke	s	n/a
345.906	0.12	691812	keystroke	Key.space	n/a
346.8955	0.09	693791	keystroke	r	n/a
347.0305	0.12	694061	keystroke	a	n/a
347.1355	0.135	694271	keystroke	n	n/a
347.2555	0.1355	694511	keystroke	k	n/a
347.421	0.044	694842	keystroke	d	n/a
347.916	0.1045	695832	keystroke	Key.backspace	n/a
348.0355	0.09	696071	keystroke	s	n/a
348.1855	0.1055	696371	keystroke	Key.enter	n/a
348.297	8.7555	696594	prompt	n/a	henderson waiting valve apparatus\n
348.9955	0.09	697991	keystroke	h	n/a
349.4305	0.09	698861	keystroke	e	n/a
349.625	0.12	699250	keystroke	n	n/a
349.79	0.09	699580	keystroke	d	n/a
350.3755	0.1345	700751	keystroke	e	n/a
350.495	0.1055	700990	keystroke	r	n/a
350.7655	0.09	701531	keystroke	s	n/a
350.87	0.12	701740	keystroke	o	n/a
350.9605	0.15	701921	keystroke	n	n/a
351.1255	0.1345	702251	keystroke	Key.space	n/a
351.455	0.09	702910	keystroke	w	n/a
351.635	0.105	703270	keystroke	a	n/a
351.7555	0.0895	703511	keystroke	i	n/a
351.92	0.09	703840	keystroke	t	n/a
352.025	0.165	704050	keystroke	i	n/a
352.1305	0.1495	704261	keystroke	n	n/a
352.295	0.076	704590	keystroke	g	n/a
352.416	0.15	704832	keystroke	Key.space	n/a
352.806	0.12	705612	keystroke	v	n/a
353.286	0.105	706572	keystroke	a	n/a
353.496	0.12	706992	keystroke	l	n/a
353.7805	0.09	707561	keystroke	v	n/a
353.9455	0.0755	707891	keystroke	e	n/a
354.126	0.12	708252	keystroke	Key.space	n/a
354.591	0.135	709182	keystroke	a	n/a
354.921	0.075	709842	keystroke	p	n/a
355.086	0.135	710172	keystroke	p	n/a
355.266	0.195	710532	keystroke	a	n/a
355.461	0.12	710922	keystroke	r	n/a
355.8955	0.105	711791	keystroke	a	n/a
356.195	0.106	712390	keystroke	t	n/a
356.57	0.106	713140	keystroke	u	n/a
356.751	0.12	713502	keystroke	s	n/a
356.961	0.09	713922	keystroke	Key.enter	n/a
357.055	8.217	714110	prompt	n/a	yards westminster ranger aids\n
357.8755	0.135	715751	keystroke	y	n/a
358.0255	0.2255	716051	keystroke	a	n/a
358.221	0.12	716442	keystroke	r	n/a
358.611	0.0745	717222	keystroke	d	n/a
358.8355	0.06	717671	keystroke	s	n/a
358.9855	0.12	717971	keystroke	Key.space	n/a
359.811	0.105	719622	keystroke	w	n/a
359.931	0.1345	719862	keystroke	e	n/a
360.2005	0.105	720401	keystroke	s	n/a
360.4855	0.105	720971	keystroke	t	n/a
360.9805	0.15	721961	keystroke	m	n/a
361.2655	0.15	722531	keystroke	i	n/a
361.3855	0.135	722771	keystroke	n	n/a
361.5805	0.1645	723161	keystroke	s	n/a
361.9705	0.1345	723941	keystroke	t	n/a
362.18	0.105	724360	keystroke	e	n/a
362.256	0.135	724512	keystroke	r	n/a
362.511	0.1495	725022	keystroke	Key.space	n/a
362.9305	0.15	725861	keystroke	r	n/a
363.0955	0.15	726191	keystroke	a	n/a
363.2605	0.15	726521	keystroke	n	n/a
363.876	0.09	727752	keystroke	g	n/a
364.041	0.09	728082	keystroke	e	n/a
364.116	0.12	728232	keystroke	r	n/a
364.266	0.135	728532	keystroke	Key.space	n/a
364.5205	0.135	729041	keystroke	a	n/a
364.6705	0.1495	729341	keystroke	i	n/a
364.79	0.075	729580	keystroke	d	n/a
364.985	0.075	729970	keystroke	s	n/a
365.18	0.09	730360	keystroke	Key.enter	n/a
365.275	5.817	730550	prompt	n/a	madness his embedded alleged\n
366.0805	0.165	732161	keystroke	m	n/a
366.2605	0.15	732521	keystroke	a	n/a
366.4255	0.06	732851	keystroke	d	n/a
366.6355	0.1045	733271	keystroke	n	n/a
366.785	0.075	733570	keystroke	e	n/a
366.965	0.06	733930	keystroke	s	n/a
367.115	0.075	734230	keystroke	s	n/a
367.205	0.105	734410	keystroke	Key.space	n/a
367.3555	0.15	734711	keystroke	h	n/a
367.4605	0.1345	734921	keystroke	i	n/a
367.5505	0.0895	735101	keystroke	s	n/a
367.67	0.1205	735340	keystroke	Key.space	n/a
367.8805	0.06	735761	keystroke	e	n/a
367.9705	0.1355	735941	keystroke	m	n/a
368.181	0.09	736362	keystroke	b	n/a
368.436	0.075	736872	keystroke	e	n/a
368.676	0.09	737352	keystroke	d	n/a
368.856	0.09	737712	keystroke	d	n/a
369.081	0.044	738162	keystroke	e	n/a
369.245	0.12	738490	keystroke	d	n/a
369.4255	0.1045	738851	keystroke	Key.space	n/a
369.591	0.09	739182	keystroke	a	n/a
369.726	0.09	739452	keystroke	l	n/a
369.906	0.09	739812	keystroke	l	n/a
370.086	0.105	740172	keystroke	e	n/a
370.341	0.09	740682	keystroke	g	n/a
370.521	0.0745	741042	keystroke	e	n/a
370.7305	0.09	741461	keystroke	d	n/a
371.0005	0.09	742001	keystroke	Key.enter	n/a
371.0945	6.0725	742189	prompt	n/a	jenny usually moving leaves\n
371.8255	0.12	743651	keystroke	j	n/a
371.9755	0.09	743951	keystroke	e	n/a
372.1255	0.09	744251	keystroke	n	n/a
372.2905	0.09	744581	keystroke	n	n/a
372.4855	0.1355	744971	keystroke	y	n/a
372.606	0.135	745212	keystroke	Key.space	n/a
372.756	0.15	745512	keystroke	u	n/a
372.921	0.075	745842	keystroke	s	n/a
373.101	0.12	746202	keystroke	u	n/a
373.611	0.12	747222	keystroke	a	n/a
373.7755	0.09	747551	keystroke	l	n/a
373.9855	0.105	747971	keystroke	l	n/a
374.1355	0.15	748271	keystroke	y	n/a
374.2705	0.15	748541	keystroke	Key.space	n/a
374.5705	0.18	749141	keystroke	m	n/a
374.6905	0.15	749381	keystroke	o	n/a
374.8855	0.135	749771	keystroke	v	n/a
375.2905	0.1345	750581	keystroke	i	n/a
375.381	0.134	750762	keystroke	n	n/a
375.516	0.1195	751032	keystroke	g	n/a
375.6805	0.1355	751361	keystroke	Key.space	n/a
376.0705	0.0905	752141	keystroke	l	n/a
376.206	0.075	752412	keystroke	e	n/a
376.371	0.165	752742	keystroke	a	n/a
376.551	0.15	753102	keystroke	v	n/a
376.686	0.12	753372	keystroke	e	n/a
376.836	0.12	753672	keystroke	s	n/a
377.076	0.09	754152	keystroke	Key.enter	n/a
377.1695	6.1775	754339	prompt	n/a	little indicate gasoline buttons\n
377.961	0.075	755922	keystroke	l	n/a
378.141	0.075	756282	keystroke	i	n/a
378.336	0.075	756672	keystroke	t	n/a
378.486	0.09	756972	keystroke	t	n/a
378.606	0.09	757212	keystroke	l	n/a
378.711	0.075	757422	keystroke	e	n/a
378.845	0.12	757690	keystroke	Key.space	n/a
378.981	0.15	757962	keystroke	i	n/a
379.086	0.135	758172	keystroke	n	n/a
379.281	0.105	758562	keystroke	d	n/a
379.416	0.15	758832	keystroke	i	n/a
379.581	0.075	759162	keystroke	c	n/a
379.776	0.15	759552	keystroke	a	n/a
379.896	0.134	759792	keystroke	t	n/a
380.031	0.089	760062	keystroke	e	n/a
380.21	0.12	760420	keystroke	Key.space	n/a
380.57	0.09	761140	keystroke	g	n/a
380.705	0.135	761410	keystroke	a	n/a
380.842	0.103	761684	keystroke	s	n/a
381.155	0.09	762310	keystroke	o	n/a
381.35	0.09	762700	keystroke	l	n/a
381.59	0.165	763180	keystroke	i	n/a
381.695	0.135	763390	keystroke	n	n/a
381.8755	0.09	763751	keystroke	e	n/a
382.0405	0.15	764081	keystroke	Key.space	n/a
382.3105	0.0895	764621	keystroke	b	n/a
382.415	0.12	764830	keystroke	u	n/a
382.595	0.076	765190	keystroke	t	n/a
382.731	0.105	765462	keystroke	t	n/a
382.806	0.15	765612	keystroke	o	n/a
382.926	0.12	765852	keystroke	n	n/a
383.061	0.09	766122	keystroke	s	n/a
383.226	0.119	766452	keystroke	Key.enter	n/a
383.3495	7.1825	766699	prompt	n/a	often collectibles orders semester\n
383.96	0.105	767920	keystroke	o	n/a
384.11	0.075	768220	keystroke	f	n/a
384.366	0.074	768732	keystroke	t	n/a
384.5	0.075	769000	keystroke	e	n/a
384.636	0.164	769272	keystroke	n	n/a
384.845	0.15	769690	keystroke	Key.space	n/a
385.73	0.1055	771460	keystroke	c	n/a
385.8505	0.075	771701	keystroke	o	n/a
386.0455	0.075	772091	keystroke	l	n/a
386.2405	0.12	772481	keystroke	l	n/a
386.3305	0.075	772661	keystroke	e	n/a
386.5255	0.09	773051	keystroke	c	n/a
386.705	0.09	773410	keystroke	t	n/a
386.93	0.075	773860	keystroke	i	n/a
387.02	0.075	774040	keystroke	b	n/a
387.2	0.105	774400	keystroke	l	n/a
387.335	0.0755	774670	keystroke	e	n/a
387.5155	0.09	775031	keystroke	s	n/a
387.6655	0.1345	775331	keystroke	Key.space	n/a
387.785	0.135	775570	keystroke	o	n/a
387.965	0.075	775930	keystroke	r	n/a
388.1	0.075	776200	keystroke	d	n/a
388.295	0.105	776590	keystroke	e	n/a
388.3555	0.1195	776711	keystroke	r	n/a
388.58	0.075	777160	keystroke	s	n/a
388.716	0.12	777432	keystroke	Key.space	n/a
388.896	0.135	777792	keystroke	s	n/a
389.045	0.106	778090	keystroke	e	n/a
389.241	0.1195	778482	keystroke	m	n/a
389.346	0.0745	778692	keystroke	e	n/a
389.796	0.105	779592	keystroke	s	n/a
389.976	0.1045	779952	keystroke	t	n/a
390.1855	0.105	780371	keystroke	e	n/a
390.2605	0.12	780521	keystroke	r	n/a
390.4405	0.09	780881	keystroke	Key.enter	n/a
390.535	9.027	781070	prompt	n/a	bolt petroleum efficient abraham\n
391.2355	0.105	782471	keystroke	b	n/a
391.3555	0.09	782711	keystroke	o	n/a
391.5655	0.09	783131	keystroke	l	n/a
391.7155	0.09	783431	keystroke	t	n/a
391.9105	0.135	783821	keystroke	Key.space	n/a
392.3305	0.12	784661	keystroke	p	n/a
392.4805	0.135	784961	keystroke	e	n/a
392.5705	0.1505	785141	keystroke	t	n/a
392.8855	0.075	785771	keystroke	r	n/a
393.0055	0.105	786011	keystroke	o	n/a
393.4405	0.075	786881	keystroke	i	n/a
393.6955	0.075	787391	keystroke	e	n/a
393.951	0.105	787902	keystroke	u	n/a
394.205	0.12	788410	keystroke	m	n/a
394.34	0.135	788680	keystroke	Key.space	n/a
395.6605	0.075	791321	keystroke	e	n/a
395.8405	0.06	791681	keystroke	f	n/a
396.005	0.09	792010	keystroke	f	n/a
396.11	0.12	792220	keystroke	i	n/a
396.275	0.09	792550	keystroke	c	n/a
396.395	0.09	792790	keystroke	i	n/a
396.575	0.09	793150	keystroke	e	n/a
396.725	0.135	793450	keystroke	n	n/a
396.875	0.105	793750	keystroke	t	n/a
397.04	0.12	794080	keystroke	Key.space	n/a
397.6555	0.12	795311	keystroke	a	n/a
397.9255	0.075	795851	keystroke	b	n/a
398.225	0.09	796450	keystroke	r	n/a
398.39	0.105	796780	keystroke	a	n/a
398.645	0.106	797290	keystroke	h	n/a
399.065	0.106	798130	keystroke	a	n/a
399.215	0.135	798430	keystroke	m	n/a
399.455	0.105	798910	keystroke	Key.enter	n/a
399.5665	8.0505	799133	prompt	n/a	answered recruiting general heater\n
400.1755	0.12	800351	keystroke	a	n/a
400.3405	0.135	800681	keystroke	n	n/a
400.5355	0.075	801071	keystroke	s	n/a
401.0005	0.12	802001	keystroke	w	n/a
401.2555	0.18	802511	keystroke	e	n/a
401.4205	0.12	802841	keystroke	r	n/a
401.5855	0.075	803171	keystroke	e	n/a
401.7655	0.075	803531	keystroke	d	n/a
401.9455	0.135	803891	keystroke	Key.space	n/a
402.5455	0.105	805091	keystroke	r	n/a
402.6955	0.09	805391	keystroke	e	n/a
402.9805	0.09	805961	keystroke	c	n/a
403.3705	0.09	806741	keystroke	r	n/a
403.7455	0.15	807491	keystroke	u	n/a
403.9105	0.15	807821	keystroke	i	n/a
404.1205	0.09	808241	keystroke	t	n/a
404.2405	0.135	808481	keystroke	i	n/a
404.3455	0.12	808691	keystroke	n	n/a
404.4505	0.09	808901	keystroke	g	n/a
404.6005	0.12	809201	keystroke	Key.space	n/a
404.8405	0.075	809681	keystroke	g	n/a
405.0055	0.09	810011	keystroke	e	n/a
405.1705	0.12	810341	keystroke	n	n/a
405.3355	0.105	810671	keystroke	e	n/a
405.4555	0.15	810911	keystroke	r	n/a
405.6505	0.1195	811301	keystroke	a	n/a
405.785	0.15	811570	keystroke	l	n/a
405.905	0.165	811810	keystroke	Key.space	n/a
406.371	0.1045	812742	keystroke	h	n/a
406.7455	0.12	813491	keystroke	e	n/a
406.8955	0.135	813791	keystroke	a	n/a
407.1205	0.09	814241	keystroke	t	n/a
407.2705	0.09	814541	keystroke	e	n/a
407.3455	0.12	814691	keystroke	r	n/a
407.5255	0.09	815051	keystroke	Key.enter	n/a
407.62	7.002	815240	prompt	n/a	harder we newton dylan\n
408.3055	0.105	816611	keystroke	b	n/a
408.5005	0.18	817001	keystroke	a	n/a
408.636	0.105	817272	keystroke	r	n/a
408.816	0.0895	817632	keystroke	d	n/a
409.176	0.075	818352	keystroke	Key.backspace	n/a
409.341	0.09	818682	keystroke	Key.backspace	n/a
409.521	0.0745	819042	keystroke	Key.backspace	n/a
409.6705	0.09	819341	keystroke	Key.backspace	n/a
409.8955	0.09	819791	keystroke	h	n/a
409.9705	0.21	819941	keystroke	a	n/a
410.1355	0.12	820271	keystroke	r	n/a
410.3455	0.075	820691	keystroke	d	n/a
410.541	0.195	821082	keystroke	e	n/a
410.72	0.135	821440	keystroke	r	n/a
410.9	0.165	821800	keystroke	Key.space	n/a
411.05	0.106	822100	keystroke	w	n/a
411.141	0.105	822282	keystroke	e	n/a
411.351	0.09	822702	keystroke	Key.space	n/a
411.935	0.12	823870	keystroke	n	n/a
412.401	0.119	824802	keystroke	e	n/a
412.565	0.105	825130	keystroke	w	n/a
412.85	0.075	825700	keystroke	t	n/a
413.0005	0.12	826001	keystroke	o	n/a
413.0905	0.1495	826181	keystroke	n	n/a
413.255	0.121	826510	keystroke	Key.space	n/a
413.676	0.0895	827352	keystroke	d	n/a
413.9455	0.09	827891	keystroke	y	n/a
414.0805	0.12	828161	keystroke	l	n/a
414.2305	0.12	828461	keystroke	a	n/a
414.3355	0.09	828671	keystroke	n	n/a
414.5155	0.1045	829031	keystroke	Key.enter	n/a
414.625	9.702	829250	prompt	n/a	encyclopedia stranger taxes loading\n
415.355	0.09	830710	keystroke	e	n/a
415.596	0.089	831192	keystroke	n	n/a
415.745	0.12	831490	keystroke	c	n/a
415.925	0.105	831850	keystroke	y	n/a
416.27	0.09	832540	keystroke	c	n/a
416.63	0.135	833260	keystroke	l	n/a
417.0205	0.09	834041	keystroke	o	n/a
417.321	0.09	834642	keystroke	p	n/a
417.501	0.09	835002	keystroke	e	n/a
417.741	0.0895	835482	keystroke	d	n/a
417.9355	0.105	835871	keystroke	i	n/a
418.1005	0.105	836201	keystroke	a	n/a
418.2805	0.135	836561	keystroke	Key.space	n/a
418.5805	0.1205	837161	keystroke	s	n/a
418.716	0.075	837432	keystroke	t	n/a
418.866	0.105	837732	keystroke	r	n/a
419.001	0.135	838002	keystroke	a	n/a
419.121	0.135	838242	keystroke	n	n/a
419.256	0.075	838512	keystroke	g	n/a
419.541	0.135	839082	keystroke	e	n/a
419.631	0.12	839262	keystroke	r	n/a
419.9155	0.15	839831	keystroke	Key.space	n/a
420.1855	0.09	840371	keystroke	t	n/a
420.8455	0.105	841691	keystroke	a	n/a
421.2655	0.015	842531	keystroke	x	n/a
421.431	0.075	842862	keystroke	e	n/a
421.656	0.09	843312	keystroke	s	n/a
421.926	0.15	843852	keystroke	Key.space	n/a
422.346	0.075	844692	keystroke	l	n/a
422.631	0.1195	845262	keystroke	a	n/a
423.0655	0.075	846131	keystroke	Key.backspace	n/a
423.2905	0.09	846581	keystroke	o	n/a
423.3955	0.105	846791	keystroke	a	n/a
423.5305	0.09	847061	keystroke	d	n/a
423.6805	0.165	847361	keystroke	i	n/a
423.7705	0.135	847541	keystroke	n	n/a
423.8905	0.075	847781	keystroke	g	n/a
424.2205	0.105	848441	keystroke	Key.enter	n/a
424.331	6.6715	848662	prompt	n/a	observer revolution prisoner use\n
425.0455	0.105	850091	keystroke	o	n/a
425.2255	0.09	850451	keystroke	b	n/a
425.5555	0.105	851111	keystroke	s	n/a
425.6905	0.1645	851381	keystroke	e	n/a
425.795	0.135	851590	keystroke	r	n/a
426.0355	0.075	852071	keystroke	v	n/a
426.1705	0.135	852341	keystroke	e	n/a
426.2905	0.09	852581	keystroke	r	n/a
426.3955	0.165	852791	keystroke	Key.space	n/a
426.89	0.1505	853780	keystroke	r	n/a
427.1155	0.09	854231	keystroke	e	n/a
427.385	0.106	854770	keystroke	v	n/a
427.626	0.105	855252	keystroke	o	n/a
427.8655	0.105	855731	keystroke	l	n/a
428.1805	0.1355	856361	keystroke	u	n/a
428.421	0.105	856842	keystroke	t	n/a
428.541	0.09	857082	keystroke	i	n/a
428.616	0.1195	857232	keystroke	o	n/a
428.7205	0.135	857441	keystroke	n	n/a
428.8405	0.135	857681	keystroke	Key.space	n/a
429.2155	0.12	858431	keystroke	p	n/a
429.3655	0.135	858731	keystroke	r	n/a
429.4855	0.1055	858971	keystroke	i	n/a
429.651	0.1045	859302	keystroke	s	n/a
429.8155	0.135	859631	keystroke	o	n/a
429.9355	0.105	859871	keystroke	n	n/a
430.1005	0.135	860201	keystroke	e	n/a
430.2055	0.135	860411	keystroke	r	n/a
430.3705	0.105	860741	keystroke	Key.space	n/a
430.5205	0.12	861041	keystroke	u	n/a
430.5955	0.15	861191	keystroke	s	n/a
430.7005	0.12	861401	keystroke	e	n/a
430.9255	0.075	861851	keystroke	Key.enter	n/a
431.005	7.092	862010	prompt	n/a	auction woman arbor buyer\n
431.6755	0.0905	863351	keystroke	a	n/a
431.841	0.12	863682	keystroke	u	n/a
432.0655	0.075	864131	keystroke	c	n/a
432.306	0.12	864612	keystroke	i	n/a
432.381	0.1345	864762	keystroke	o	n/a
432.4855	0.15	864971	keystroke	n	n/a
432.9805	0.09	865961	keystroke	Key.backspace	n/a
433.1605	0.075	866321	keystroke	Key.backspace	n/a
433.3255	0.09	866651	keystroke	Key.backspace	n/a
433.4755	0.105	866951	keystroke	t	n/a
433.6105	0.105	867221	keystroke	i	n/a
433.7005	0.1495	867401	keystroke	o	n/a
433.806	0.119	867612	keystroke	n	n/a
433.91	0.135	867820	keystroke	Key.space	n/a
434.285	0.076	868570	keystroke	o	n/a
434.616	0.089	869232	keystroke	Key.backspace	n/a
434.736	0.075	869472	keystroke	w	n/a
434.931	0.089	869862	keystroke	o	n/a
435.08	0.12	870160	keystroke	m	n/a
435.26	0.136	870520	keystroke	a	n/a
435.396	0.119	870792	keystroke	n	n/a
435.545	0.12	871090	keystroke	Key.space	n/a
435.92	0.105	871840	keystroke	a	n/a
436.22	0.075	872440	keystroke	r	n/a
436.461	0.0895	872922	keystroke	b	n/a
436.5655	0.12	873131	keystroke	o	n/a
436.7305	0.105	873461	keystroke	r	n/a
436.9105	0.135	873821	keystroke	Key.space	n/a
437.2105	0.09	874421	keystroke	b	n/a
437.3455	0.105	874691	keystroke	u	n/a
437.555	0.105	875110	keystroke	y	n/a
437.72	0.15	875440	keystroke	e	n/a
437.825	0.1205	875650	keystroke	r	n/a
437.9905	0.105	875981	keystroke	Key.enter	n/a
438.1	7.9625	876200	prompt	n/a	americans being goes hundreds\n
438.6955	0.12	877391	keystroke	a	n/a
438.8755	0.15	877751	keystroke	m	n/a
439.0105	0.135	878021	keystroke	e	n/a
439.1155	0.15	878231	keystroke	r	n/a
439.2205	0.09	878441	keystroke	i	n/a
439.4155	0.09	878831	keystroke	c	n/a
439.4755	0.12	878951	keystroke	a	n/a
439.6255	0.15	879251	keystroke	n	n/a
440.0905	0.09	880181	keystroke	s	n/a
440.3005	0.105	880601	keystroke	Key.space	n/a
440.9305	0.12	881861	keystroke	b	n/a
441.0805	0.09	882161	keystroke	e	n/a
441.246	0.165	882492	keystroke	i	n/a
441.3805	0.1355	882761	keystroke	n	n/a
441.531	0.075	883062	keystroke	g	n/a
441.711	0.1495	883422	keystroke	Key.space	n/a
443.5105	0.09	887021	keystroke	g	n/a
443.6155	0.12	887231	keystroke	o	n/a
443.7505	0.0605	887501	keystroke	e	n/a
443.856	0.12	887712	keystroke	s	n/a
443.991	0.1345	887982	keystroke	Key.space	n/a
444.411	0.074	888822	keystroke	h	n/a
444.59	0.076	889180	keystroke	u	n/a
444.771	0.09	889542	keystroke	n	n/a
444.875	0.061	889750	keystroke	d	n/a
445.145	0.15	890290	keystroke	r	n/a
445.28	0.136	890560	keystroke	e	n/a
445.565	0.09	891130	keystroke	d	n/a
445.76	0.075	891520	keystroke	s	n/a
445.955	0.105	891910	keystroke	Key.enter	n/a
446.065	9.372	892130	prompt	n/a	colorado garcia networks malaysia\n
446.811	0.105	893622	keystroke	c	n/a
446.885	0.09	893770	keystroke	o	n/a
447.081	0.059	894162	keystroke	l	n/a
447.245	0.0905	894490	keystroke	o	n/a
447.3805	0.12	894761	keystroke	r	n/a
447.5755	0.12	895151	keystroke	a	n/a
447.785	0.09	895570	keystroke	d	n/a
447.935	0.165	895870	keystroke	o	n/a
448.085	0.15	896170	keystroke	Key.space	n/a
448.73	0.105	897460	keystroke	g	n/a
449.18	0.18	898360	keystroke	a	n/a
449.345	0.105	898690	keystroke	r	n/a
449.615	0.09	899230	keystroke	c	n/a
449.75	0.1205	899500	keystroke	i	n/a
449.9005	0.12	899801	keystroke	a	n/a
450.05	0.15	900100	keystroke	Key.space	n/a
450.425	0.136	900850	keystroke	n	n/a
450.546	0.15	901092	keystroke	e	n/a
451.221	0.09	902442	keystroke	t	n/a
451.8505	0.075	903701	keystroke	w	n/a
452.1355	0.135	904271	keystroke	o	n/a
452.3005	0.09	904601	keystroke	r	n/a
452.4505	0.1205	904901	keystroke	k	n/a
452.736	0.105	905472	keystroke	s	n/a
452.916	0.09	905832	keystroke	Key.space	n/a
453.171	0.135	906342	keystroke	m	n/a
453.4405	0.105	906881	keystroke	a	n/a
453.6055	0.12	907211	keystroke	l	n/a
453.786	0.12	907572	keystroke	a	n/a
454.101	0.1195	908202	keystroke	y	n/a
454.8205	0.135	909641	keystroke	s	n/a
454.9705	0.135	909941	keystroke	i	n/a
455.1355	0.105	910271	keystroke	a	n/a
455.3455	0.09	910691	keystroke	Key.enter	n/a
455.44	9.267	910880	prompt	n/a	recommendation plant self syndicate\n
456.306	0.104	912612	keystroke	r	n/a
456.426	0.105	912852	keystroke	e	n/a
456.95	0.091	913900	keystroke	c	n/a
457.235	0.1205	914470	keystroke	o	n/a
457.4755	0.105	914951	keystroke	m	n/a
457.6555	0.12	915311	keystroke	m	n/a
458.2255	0.09	916451	keystroke	e	n/a
458.3755	0.12	916751	keystroke	n	n/a
458.5105	0.09	917021	keystroke	d	n/a
458.7205	0.135	917441	keystroke	a	n/a
458.8405	0.12	917681	keystroke	t	n/a
458.9605	0.135	917921	keystroke	i	n/a
459.0355	0.135	918071	keystroke	o	n/a
459.1255	0.165	918251	keystroke	n	n/a
459.2455	0.15	918491	keystroke	Key.space	n/a
459.5155	0.0895	919031	keystroke	p	n/a
459.65	0.12	919300	keystroke	l	n/a
459.771	0.104	919542	keystroke	a	n/a
459.92	0.12	919840	keystroke	n	n/a
460.085	0.09	920170	keystroke	t	n/a
460.205	0.135	920410	keystroke	Key.space	n/a
460.475	0.12	920950	keystroke	s	n/a
460.61	0.12	921220	keystroke	e	n/a
460.805	0.105	921610	keystroke	l	n/a
460.925	0.12	921850	keystroke	f	n/a
461.09	0.1205	922180	keystroke	Key.space	n/a
461.4955	0.105	922991	keystroke	s	n/a
461.7055	0.1195	923411	keystroke	y	n/a
462.185	0.12	924370	keystroke	n	n/a
462.5305	0.12	925061	keystroke	i	n/a
463.3105	0.1045	926621	keystroke	Key.backspace	n/a
463.475	0.105	926950	keystroke	d	n/a
463.625	0.105	927250	keystroke	i	n/a
464.0455	0.09	928091	keystroke	c	n/a
464.15	0.1505	928300	keystroke	a	n/a
464.2855	0.135	928571	keystroke	t	n/a
464.4055	0.105	928811	keystroke	e	n/a
464.6005	0.105	929201	keystroke	Key.enter	n/a
464.7115	7.9305	929423	prompt	n/a	takes opinion lions gotta\n
467.6175	0.028	935235	keystroke	t	n/a
467.6755	0.15	935351	keystroke	a	n/a
467.7955	0.15	935591	keystroke	k	n/a
467.9005	0.12	935801	keystroke	e	n/a
468.0505	0.1195	936101	keystroke	s	n/a
468.2155	0.1345	936431	keystroke	Key.space	n/a
468.455	0.21	936910	keystroke	o	n/a
468.65	0.225	937300	keystroke	p	n/a
469.085	0.135	938170	keystroke	i	n/a
469.58	0.135	939160	keystroke	n	n/a
469.91	0.12	939820	keystroke	i	n/a
470.015	0.15	940030	keystroke	o	n/a
470.135	0.195	940270	keystroke	n	n/a
470.315	0.12	940630	keystroke	Key.space	n/a
470.765	0.075	941530	keystroke	l	n/a
470.93	0.105	941860	keystroke	i	n/a
471.11	0.18	942220	keystroke	o	n/a
471.245	0.12	942490	keystroke	n	n/a
471.395	0.105	942790	keystroke	s	n/a
471.545	0.135	943090	keystroke	Key.space	n/a
471.815	0.105	943630	keystroke	g	n/a
471.905	0.09	943810	keystroke	o	n/a
472.07	0.09	944140	keystroke	t	n/a
472.235	0.105	944470	keystroke	t	n/a
472.355	0.135	944710	keystroke	a	n/a
472.535	0.105	945070	keystroke	Key.enter	n/a
472.645	9.0115	945290	prompt	n/a	hawaii heat crack massachusetts\n
473.9	0.12	947800	keystroke	h	n/a
474.05	0.151	948100	keystroke	a	n/a
474.47	0.06	948940	keystroke	w	n/a
474.65	0.135	949300	keystroke	a	n/a
474.95	0.075	949900	keystroke	i	n/a
475.145	0.091	950290	keystroke	i	n/a
475.385	0.135	950770	keystroke	Key.space	n/a
475.881	0.12	951762	keystroke	h	n/a
475.985	0.105	951970	keystroke	e	n/a
476.105	0.135	952210	keystroke	a	n/a
476.256	0.119	952512	keystroke	t	n/a
476.39	0.165	952780	keystroke	Key.space	n/a
476.631	0.089	953262	keystroke	c	n/a
476.811	0.119	953622	keystroke	r	n/a
476.946	0.104	953892	keystroke	a	n/a
477.14	0.106	954280	keystroke	c	n/a
477.32	0.195	954640	keystroke	k	n/a
477.455	0.135	954910	keystroke	Key.space	n/a
478.0405	0.135	956081	keystroke	m	n/a
478.2205	0.12	956441	keystroke	a	n/a
478.445	0.136	956890	keystroke	s	n/a
478.61	0.1355	957220	keystroke	s	n/a
479.345	0.105	958690	keystroke	a	n/a
479.915	0.1205	959830	keystroke	c	n/a
480.0655	0.075	960131	keystroke	h	n/a
480.2605	0.135	960521	keystroke	u	n/a
480.6055	0.135	961211	keystroke	s	n/a
480.8005	0.105	961601	keystroke	e	n/a
481.0555	0.075	962111	keystroke	t	n/a
481.1905	0.09	962381	keystroke	t	n/a
481.355	0.1055	962710	keystroke	s	n/a
481.5655	0.09	963131	keystroke	Key.enter	n/a
481.6645	5.2275	963329	prompt	n/a	roman login doctrine tied\n
482.3905	0.105	964781	keystroke	r	n/a
482.5105	0.09	965021	keystroke	o	n/a
482.6155	0.12	965231	keystroke	m	n/a
482.7655	0.105	965531	keystroke	a	n/a
482.8855	0.135	965771	keystroke	n	n/a
483.0355	0.135	966071	keystroke	Key.space	n/a
483.1855	0.075	966371	keystroke	l	n/a
483.3655	0.09	966731	keystroke	o	n/a
483.6355	0.09	967271	keystroke	g	n/a
483.7255	0.1495	967451	keystroke	i	n/a
483.8	0.15	967600	keystroke	n	n/a
483.935	0.135	967870	keystroke	Key.space	n/a
484.251	0.09	968502	keystroke	d	n/a
484.356	0.105	968712	keystroke	o	n/a
484.611	0.09	969222	keystroke	c	n/a
484.925	0.0755	969850	keystroke	t	n/a
485.1505	0.075	970301	keystroke	r	n/a
485.2705	0.15	970541	keystroke	i	n/a
485.3905	0.135	970781	keystroke	n	n/a
485.5555	0.075	971111	keystroke	e	n/a
485.6905	0.12	971381	keystroke	Key.space	n/a
486.1855	0.06	972371	keystroke	t	n/a
486.2905	0.105	972581	keystroke	i	n/a
486.4705	0.075	972941	keystroke	e	n/a
486.6355	0.09	973271	keystroke	d	n/a
486.8005	0.09	973601	keystroke	Key.enter	n/a
486.8955	8.6065	973791	prompt	n/a	moreover corporation dietary blake\n
487.7755	0.15	975551	keystroke	m	n/a
487.8955	0.12	975791	keystroke	o	n/a
488.0305	0.12	976061	keystroke	r	n/a
488.1355	0.0905	976271	keystroke	e	n/a
488.511	0.135	977022	keystroke	o	n/a
489.066	0.105	978132	keystroke	v	n/a
489.216	0.15	978432	keystroke	e	n/a
489.336	0.12	978672	keystroke	r	n/a
489.485	0.135	978970	keystroke	Key.space	n/a
489.98	0.135	979960	keystroke	c	n/a
490.13	0.105	980260	keystroke	o	n/a
490.281	0.09	980562	keystroke	r	n/a
490.475	0.165	980950	keystroke	p	n/a
490.7	0.136	981400	keystroke	o	n/a
490.836	0.1195	981672	keystroke	r	n/a
491.0005	0.12	982001	keystroke	a	n/a
491.1355	0.105	982271	keystroke	t	n/a
491.3155	0.135	982631	keystroke	i	n/a
491.4055	0.165	982811	keystroke	o	n/a
491.5255	0.15	983051	keystroke	n	n/a
491.6605	0.135	983321	keystroke	Key.space	n/a
492.0355	0.075	984071	keystroke	d	n/a
492.4255	0.09	984851	keystroke	i	n/a
492.5905	0.09	985181	keystroke	e	n/a
492.921	0.104	985842	keystroke	t	n/a
493.3555	0.18	986711	keystroke	a	n/a
493.5505	0.1045	987101	keystroke	r	n/a
493.79	0.135	987580	keystroke	y	n/a
493.97	0.165	987940	keystroke	Key.space	n/a
494.63	0.09	989260	keystroke	b	n/a
494.78	0.09	989560	keystroke	l	n/a
494.915	0.1355	989830	keystroke	a	n/a
495.0955	0.105	990191	keystroke	k	n/a
495.2155	0.075	990431	keystroke	e	n/a
495.3955	0.105	990791	keystroke	Key.enter	n/a
495.505	9.987	991010	prompt	n/a	outreach epson strategy remained\n
496.356	0.1345	992712	keystroke	o	n/a
496.4605	0.135	992921	keystroke	u	n/a
496.6405	0.06	993281	keystroke	t	n/a
496.8655	0.105	993731	keystroke	r	n/a
496.9855	0.105	993971	keystroke	e	n/a
497.1055	0.105	994211	keystroke	a	n/a
497.2555	0.105	994511	keystroke	c	n/a
497.3905	0.135	994781	keystroke	h	n/a
497.5105	0.15	995021	keystroke	Key.space	n/a
498.0205	0.135	996041	keystroke	p	n/a
498.4705	0.09	996941	keystroke	Key.backspace	n/a
498.5905	0.075	997181	keystroke	e	n/a
498.7255	0.12	997451	keystroke	p	n/a
498.9055	0.075	997811	keystroke	s	n/a
499.0105	0.15	998021	keystroke	o	n/a
499.1455	0.135	998291	keystroke	n	n/a
499.2955	0.135	998591	keystroke	Key.space	n/a
499.6855	0.12	999371	keystroke	s	n/a
499.8205	0.12	999641	keystroke	t	n/a
500.015	0.15	1000030	keystroke	r	n/a
500.225	0.135	1000450	keystroke	a	n/a
501.5305	0.075	1003061	keystroke	t	n/a
501.8455	0.09	1003691	keystroke	e	n/a
503.1655	0.09	1006331	keystroke	g	n/a
503.376	0.104	1006752	keystroke	y	n/a
503.6	0.12	1007200	keystroke	Key.space	n/a
504.2005	0.135	1008401	keystroke	r	n/a
504.3205	0.075	1008641	keystroke	e	n/a
504.5455	0.15	1009091	keystroke	m	n/a
504.7105	0.12	1009421	keystroke	a	n/a
504.8005	0.135	1009601	keystroke	i	n/a
504.8755	0.15	1009751	keystroke	n	n/a
505.0105	0.075	1010021	keystroke	e	n/a
505.1905	0.09	1010381	keystroke	d	n/a
505.3705	0.12	1010741	keystroke	Key.enter	n/a
505.495	10.1825	1010990	prompt	n/a	require appropriations surveys overnight\n
506.7505	0.1195	1013501	keystroke	r	n/a
507.17	0.105	1014340	keystroke	e	n/a
507.396	0.105	1014792	keystroke	q	n/a
507.591	0.1345	1015182	keystroke	u	n/a
507.695	0.1505	1015390	keystroke	i	n/a
507.861	0.105	1015722	keystroke	r	n/a
507.936	0.105	1015872	keystroke	e	n/a
508.1	0.1355	1016200	keystroke	Key.space	n/a
508.4155	0.105	1016831	keystroke	a	n/a
508.5655	0.09	1017131	keystroke	p	n/a
508.7305	0.135	1017461	keystroke	p	n/a
508.9855	0.12	1017971	keystroke	r	n/a
509.1955	0.12	1018391	keystroke	o	n/a
509.5555	0.15	1019111	keystroke	p	n/a
509.885	0.195	1019770	keystroke	r	n/a
510.081	0.089	1020162	keystroke	i	n/a
510.576	0.18	1021152	keystroke	a	n/a
510.771	0.09	1021542	keystroke	t	n/a
511.041	0.105	1022082	keystroke	i	n/a
511.115	0.21	1022230	keystroke	o	n/a
511.221	0.164	1022442	keystroke	n	n/a
511.416	0.105	1022832	keystroke	s	n/a
511.7	0.135	1023400	keystroke	Key.space	n/a
511.985	0.091	1023970	keystroke	s	n/a
512.151	0.134	1024302	keystroke	u	n/a
512.33	0.121	1024660	keystroke	r	n/a
512.69	0.09	1025380	keystroke	v	n/a
512.976	0.089	1025952	keystroke	e	n/a
513.38	0.15	1026760	keystroke	y	n/a
513.755	0.09	1027510	keystroke	s	n/a
513.965	0.15	1027930	keystroke	Key.space	n/a
514.445	0.12	1028890	keystroke	o	n/a
514.596	0.104	1029192	keystroke	v	n/a
514.745	0.12	1029490	keystroke	e	n/a
514.85	0.106	1029700	keystroke	r	n/a
514.97	0.1205	1029940	keystroke	n	n/a
515.0905	0.105	1030181	keystroke	i	n/a
515.1805	0.09	1030361	keystroke	g	n/a
515.3005	0.12	1030601	keystroke	h	n/a
515.4055	0.075	1030811	keystroke	t	n/a
515.5705	0.105	1031141	keystroke	Key.enter	n/a
515.6805	6.2065	1031361	prompt	n/a	shoes steering boss informal\n
516.5755	0.09	1033151	keystroke	s	n/a
516.7105	0.075	1033421	keystroke	h	n/a
516.7405	0.1195	1033481	keystroke	o	n/a
516.951	0.0745	1033902	keystroke	e	n/a
517.0705	0.105	1034141	keystroke	s	n/a
517.1905	0.12	1034381	keystroke	Key.space	n/a
517.3405	0.105	1034681	keystroke	s	n/a
517.9555	0.105	1035911	keystroke	t	n/a
518.21	0.076	1036420	keystroke	e	n/a
518.375	0.075	1036750	keystroke	e	n/a
518.555	0.105	1037110	keystroke	r	n/a
518.75	0.15	1037500	keystroke	i	n/a
518.825	0.135	1037650	keystroke	n	n/a
518.975	0.09	1037950	keystroke	g	n/a
519.17	0.12	1038340	keystroke	Key.space	n/a
519.485	0.0905	1038970	keystroke	b	n/a
519.6055	0.12	1039211	keystroke	o	n/a
519.7855	0.09	1039571	keystroke	s	n/a
519.9805	0.075	1039961	keystroke	s	n/a
520.1155	0.12	1040231	keystroke	Key.space	n/a
520.5355	0.135	1041071	keystroke	i	n/a
520.6105	0.135	1041221	keystroke	n	n/a
520.7605	0.09	1041521	keystroke	f	n/a
520.8955	0.135	1041791	keystroke	o	n/a
521.0605	0.105	1042121	keystroke	r	n/a
521.1805	0.135	1042361	keystroke	m	n/a
521.4205	0.09	1042841	keystroke	a	n/a
521.5255	0.09	1043051	keystroke	l	n/a
521.7955	0.09	1043591	keystroke	Key.enter	n/a
521.8905	7.6015	1043781	prompt	n/a	theory assists scenes reveals\n
522.5305	0.09	1045061	keystroke	t	n/a
522.6355	0.105	1045271	keystroke	h	n/a
522.7705	0.075	1045541	keystroke	e	n/a
522.8905	0.105	1045781	keystroke	o	n/a
523.0555	0.105	1046111	keystroke	r	n/a
523.325	0.12	1046650	keystroke	y	n/a
523.52	0.15	1047040	keystroke	Key.space	n/a
524.075	0.105	1048150	keystroke	a	n/a
524.27	0.061	1048540	keystroke	s	n/a
524.511	0.015	1049022	keystroke	s	n/a
524.541	0.089	1049082	keystroke	i	n/a
524.645	0.121	1049290	keystroke	s	n/a
524.781	0.09	1049562	keystroke	t	n/a
525.02	0.106	1050040	keystroke	s	n/a
525.185	0.15	1050370	keystroke	Key.space	n/a
525.83	0.091	1051660	keystroke	s	n/a
526.04	0.091	1052080	keystroke	c	n/a
526.9255	0.09	1053851	keystroke	e	n/a
527.0905	0.135	1054181	keystroke	n	n/a
527.3005	0.105	1054601	keystroke	e	n/a
527.5105	0.09	1055021	keystroke	s	n/a
527.6755	0.15	1055351	keystroke	Key.space	n/a
528.0655	0.135	1056131	keystroke	r	n/a
528.2305	0.09	1056461	keystroke	e	n/a
528.5005	0.12	1057001	keystroke	v	n/a
528.7105	0.09	1057421	keystroke	e	n/a
528.845	0.135	1057690	keystroke	a	n/a
529.025	0.121	1058050	keystroke	l	n/a
529.176	0.105	1058352	keystroke	s	n/a
529.386	0.105	1058772	keystroke	Key.enter	n/a
529.4945	7.2125	1058989	prompt	n/a	microphone ties theatre explained\n
530.18	0.165	1060360	keystroke	m	n/a
530.331	0.119	1060662	keystroke	i	n/a
530.465	0.106	1060930	keystroke	c	n/a
530.661	0.074	1061322	keystroke	r	n/a
530.765	0.121	1061530	keystroke	o	n/a
530.931	0.134	1061862	keystroke	p	n/a
531.171	0.089	1062342	keystroke	h	n/a
531.246	0.119	1062492	keystroke	o	n/a
531.38	0.15	1062760	keystroke	n	n/a
531.546	0.105	1063092	keystroke	e	n/a
531.785	0.1355	1063570	keystroke	Key.space	n/a
532.3705	0.09	1064741	keystroke	t	n/a
532.4755	0.135	1064951	keystroke	i	n/a
532.6255	0.06	1065251	keystroke	e	n/a
532.8055	0.09	1065611	keystroke	s	n/a
532.9705	0.15	1065941	keystroke	Key.space	n/a
533.3155	0.105	1066631	keystroke	t	n/a
533.4505	0.135	1066901	keystroke	h	n/a
533.6005	0.135	1067201	keystroke	e	n/a
533.9155	0.105	1067831	keystroke	a	n/a
534.1705	0.09	1068341	keystroke	t	n/a
534.3805	0.075	1068761	keystroke	r	n/a
534.561	0.075	1069122	keystroke	e	n/a
534.8	0.135	1069600	keystroke	Key.space	n/a
535.086	0.09	1070172	keystroke	e	n/a
535.281	0.12	1070562	keystroke	x	n/a
535.49	0.091	1070980	keystroke	p	n/a
535.641	0.1645	1071282	keystroke	l	n/a
535.7905	0.1055	1071581	keystroke	a	n/a
535.955	0.165	1071910	keystroke	i	n/a
536.091	0.149	1072182	keystroke	n	n/a
536.255	0.06	1072510	keystroke	e	n/a
536.435	0.091	1072870	keystroke	d	n/a
536.6	0.105	1073200	keystroke	Key.enter	n/a
536.71	13.812	1073420	prompt	n/a	easter sphere literacy trade\n
537.365	0.12	1074730	keystroke	e	n/a
537.545	0.135	1075090	keystroke	a	n/a
537.681	0.089	1075362	keystroke	s	n/a
537.755	0.135	1075510	keystroke	t	n/a
537.905	0.12	1075810	keystroke	e	n/a
537.995	0.135	1075990	keystroke	r	n/a
538.16	0.15	1076320	keystroke	Key.space	n/a
538.4	0.09	1076800	keystroke	s	n/a
538.685	0.09	1077370	keystroke	h	n/a
538.88	0.135	1077760	keystroke	p	n/a
539.345	0.075	1078690	keystroke	Key.backspace	n/a
539.495	0.09	1078990	keystroke	Key.backspace	n/a
539.72	0.12	1079440	keystroke	p	n/a
539.9	0.1505	1079800	keystroke	h	n/a
542.5425	0.118	1085085	keystroke	e	n/a
542.6605	0.12	1085321	keystroke	r	n/a
542.7955	0.09	1085591	keystroke	e	n/a
543.0205	0.1345	1086041	keystroke	Key.space	n/a
544.3855	0.12	1088771	keystroke	l	n/a
545.7055	0.15	1091411	keystroke	i	n/a
547.311	0.134	1094622	keystroke	t	n/a
547.55	0.135	1095100	keystroke	e	n/a
547.7	0.135	1095400	keystroke	r	n/a
547.94	0.061	1095880	keystroke	r	n/a
548.45	0.106	1096900	keystroke	Key.backspace	n/a
548.706	0.089	1097412	keystroke	a	n/a
548.901	0.09	1097802	keystroke	c	n/a
549.111	0.12	1098222	keystroke	y	n/a
549.216	0.165	1098432	keystroke	Key.space	n/a
549.5605	0.105	1099121	keystroke	t	n/a
549.7255	0.1505	1099451	keystroke	r	n/a
549.8905	0.1205	1099781	keystroke	a	n/a
550.056	0.09	1100112	keystroke	d	n/a
550.251	0.075	1100502	keystroke	e	n/a
550.4305	0.0905	1100861	keystroke	Key.enter	n/a
550.525	7.977	1101050	prompt	n/a	aspects forget ought frontier\n
551.1805	0.06	1102361	keystroke	a	n/a
551.7355	0.09	1103471	keystroke	s	n/a
551.9455	0.12	1103891	keystroke	p	n/a
552.1705	0.0755	1104341	keystroke	e	n/a
552.5155	0.09	1105031	keystroke	c	n/a
552.7105	0.09	1105421	keystroke	t	n/a
552.9055	0.09	1105811	keystroke	s	n/a
553.1155	0.12	1106231	keystroke	Key.space	n/a
553.6105	0.135	1107221	keystroke	f	n/a
553.7465	0.1335	1107493	keystroke	o	n/a
553.866	0.075	1107732	keystroke	r	n/a
554.075	0.076	1108150	keystroke	g	n/a
554.316	0.09	1108632	keystroke	e	n/a
554.421	0.12	1108842	keystroke	t	n/a
554.765	0.015	1109530	keystroke	Key.space	n/a
554.96	0.1655	1109920	keystroke	o	n/a
555.0805	0.135	1110161	keystroke	u	n/a
555.4255	0.075	1110851	keystroke	g	n/a
555.9655	0.12	1111931	keystroke	h	n/a
556.1455	0.105	1112291	keystroke	t	n/a
556.3405	0.15	1112681	keystroke	Key.space	n/a
556.821	0.089	1113642	keystroke	f	n/a
557.016	0.074	1114032	keystroke	r	n/a
557.151	0.165	1114302	keystroke	o	n/a
557.286	0.135	1114572	keystroke	n	n/a
557.45	0.106	1114900	keystroke	t	n/a
557.615	0.105	1115230	keystroke	i	n/a
557.781	0.059	1115562	keystroke	e	n/a
558.23	0.076	1116460	keystroke	r	n/a
558.395	0.105	1116790	keystroke	Key.enter	n/a
558.505	4.677	1117010	prompt	n/a	cant susan dial monaco\n
559.3555	0.12	1118711	keystroke	c	n/a
559.4905	0.135	1118981	keystroke	a	n/a
559.6405	0.12	1119281	keystroke	n	n/a
559.7755	0.105	1119551	keystroke	t	n/a
559.9855	0.09	1119971	keystroke	Key.space	n/a
560.1055	0.105	1120211	keystroke	s	n/a
560.2255	0.12	1120451	keystroke	u	n/a
560.3605	0.09	1120721	keystroke	s	n/a
560.5255	0.105	1121051	keystroke	a	n/a
560.6155	0.15	1121231	keystroke	n	n/a
560.7655	0.105	1121531	keystroke	Key.space	n/a
560.9305	0.09	1121861	keystroke	d	n/a
561.0355	0.105	1122071	keystroke	i	n/a
561.2005	0.135	1122401	keystroke	a	n/a
561.3805	0.135	1122761	keystroke	l	n/a
561.5005	0.12	1123001	keystroke	Key.space	n/a
561.7705	0.1345	1123541	keystroke	m	n/a
561.891	0.119	1123782	keystroke	o	n/a
562.071	0.119	1124142	keystroke	n	n/a
562.431	0.134	1124862	keystroke	a	n/a
562.656	0.104	1125312	keystroke	c	n/a
562.835	0.12	1125670	keystroke	o	n/a
563.09	0.09	1126180	keystroke	Key.enter	n/a
563.1855	7.0915	1126371	prompt	n/a	lightbox personals about thriller\n
563.886	0.075	1127772	keystroke	l	n/a
564.006	0.119	1128012	keystroke	i	n/a
564.155	0.09	1128310	keystroke	g	n/a
564.261	0.12	1128522	keystroke	h	n/a
564.411	0.075	1128822	keystroke	t	n/a
564.7405	0.09	1129481	keystroke	b	n/a
564.9355	0.105	1129871	keystroke	o	n/a
565.1155	0.1195	1130231	keystroke	x	n/a
565.37	0.15	1130740	keystroke	Key.space	n/a
565.925	0.12	1131850	keystroke	p	n/a
566.075	0.18	1132150	keystroke	e	n/a
566.21	0.12	1132420	keystroke	r	n/a
566.375	0.075	1132750	keystroke	s	n/a
566.435	0.15	1132870	keystroke	o	n/a
566.6	0.105	1133200	keystroke	n	n/a
566.735	0.135	1133470	keystroke	a	n/a
566.885	0.12	1133770	keystroke	l	n/a
567.035	0.135	1134070	keystroke	s	n/a
567.26	0.121	1134520	keystroke	Key.space	n/a
568.2805	0.1045	1136561	keystroke	a	n/a
568.415	0.12	1136830	keystroke	b	n/a
568.49	0.1205	1136980	keystroke	o	n/a
568.565	0.1355	1137130	keystroke	u	n/a
568.7015	0.089	1137403	keystroke	t	n/a
568.8055	0.12	1137611	keystroke	Key.space	n/a
568.9705	0.105	1137941	keystroke	t	n/a
569.0305	0.105	1138061	keystroke	h	n/a
569.2105	0.09	1138421	keystroke	r	n/a
569.3455	0.06	1138691	keystroke	i	n/a
569.4805	0.12	1138961	keystroke	l	n/a
569.6755	0.075	1139351	keystroke	l	n/a
569.84	0.105	1139680	keystroke	e	n/a
569.93	0.1205	1139860	keystroke	r	n/a
570.1555	0.12	1140311	keystroke	Key.enter	n/a
570.28	7.827	1140560	prompt	n/a	qualifications advances bond fuji\n
571.4305	0.12	1142861	keystroke	q	n/a
571.5805	0.15	1143161	keystroke	u	n/a
571.91	0.076	1143820	keystroke	a	n/a
572.135	0.105	1144270	keystroke	l	n/a
572.301	0.104	1144602	keystroke	i	n/a
572.705	0.106	1145410	keystroke	f	n/a
572.871	0.105	1145742	keystroke	i	n/a
573.021	0.09	1146042	keystroke	c	n/a
573.156	0.089	1146312	keystroke	a	n/a
573.26	0.0905	1146520	keystroke	t	n/a
573.3355	0.105	1146671	keystroke	i	n/a
573.3955	0.165	1146791	keystroke	o	n/a
573.5455	0.15	1147091	keystroke	n	n/a
573.8905	0.09	1147781	keystroke	s	n/a
574.085	0.12	1148170	keystroke	Key.space	n/a
574.34	0.165	1148680	keystroke	a	n/a
574.641	0.059	1149282	keystroke	d	n/a
574.955	0.09	1149910	keystroke	v	n/a
575.0755	0.12	1150151	keystroke	a	n/a
575.2255	0.12	1150451	keystroke	n	n/a
575.3605	0.0745	1150721	keystroke	c	n/a
575.57	0.06	1151140	keystroke	e	n/a
575.705	0.0905	1151410	keystroke	s	n/a
575.8555	0.135	1151711	keystroke	Key.space	n/a
576.0655	0.09	1152131	keystroke	b	n/a
576.1705	0.105	1152341	keystroke	o	n/a
576.3205	0.1345	1152641	keystroke	n	n/a
576.5	0.09	1153000	keystroke	d	n/a
576.65	0.09	1153300	keystroke	Key.space	n/a
576.8305	0.135	1153661	keystroke	f	n/a
577.3255	0.09	1154651	keystroke	u	n/a
577.5655	0.1045	1155131	keystroke	j	n/a
577.73	0.1055	1155460	keystroke	i	n/a
578.0005	0.105	1156001	keystroke	Key.enter	n/a
578.1115	9.3105	1156223	prompt	n/a	satisfaction pipe delegation nato\n
578.7805	0.0745	1157561	keystroke	s	n/a
579.485	0.1205	1158970	keystroke	a	n/a
579.7105	0.0905	1159421	keystroke	t	n/a
579.9355	0.12	1159871	keystroke	i	n/a
580.116	0.12	1160232	keystroke	f	n/a
581.195	0.06	1162390	keystroke	Key.backspace	n/a
581.39	0.09	1162780	keystroke	s	n/a
581.675	0.09	1163350	keystroke	f	n/a
581.855	0.09	1163710	keystroke	a	n/a
582.035	0.105	1164070	keystroke	c	n/a
582.785	0.12	1165570	keystroke	t	n/a
582.965	0.12	1165930	keystroke	i	n/a
583.07	0.15	1166140	keystroke	o	n/a
583.19	0.1805	1166380	keystroke	n	n/a
583.3555	0.12	1166711	keystroke	Key.space	n/a
583.5355	0.135	1167071	keystroke	p	n/a
583.7155	0.1345	1167431	keystroke	i	n/a
583.851	0.134	1167702	keystroke	p	n/a
584.1655	0.0895	1168331	keystroke	e	n/a
584.3305	0.1195	1168661	keystroke	Key.space	n/a
584.69	0.06	1169380	keystroke	d	n/a
584.885	0.06	1169770	keystroke	e	n/a
585.005	0.105	1170010	keystroke	l	n/a
585.095	0.075	1170190	keystroke	e	n/a
585.32	0.045	1170640	keystroke	g	n/a
585.545	0.12	1171090	keystroke	a	n/a
585.695	0.105	1171390	keystroke	t	n/a
585.83	0.105	1171660	keystroke	i	n/a
585.905	0.15	1171810	keystroke	o	n/a
586.01	0.15	1172020	keystroke	n	n/a
586.145	0.135	1172290	keystroke	Key.space	n/a
586.46	0.09	1172920	keystroke	n	n/a
586.655	0.165	1173310	keystroke	a	n/a
586.865	0.06	1173730	keystroke	t	n/a
587.075	0.091	1174150	keystroke	o	n/a
587.33	0.09	1174660	keystroke	Key.enter	n/a
587.4245	7.7375	1174849	prompt	n/a	flows delayed relief opinion\n
588.051	0.089	1176102	keystroke	f	n/a
588.156	0.074	1176312	keystroke	l	n/a
588.321	0.09	1176642	keystroke	o	n/a
588.456	0.074	1176912	keystroke	w	n/a
588.665	0.09	1177330	keystroke	s	n/a
588.86	0.12	1177720	keystroke	Key.space	n/a
589.026	0.0595	1178052	keystroke	d	n/a
589.2055	0.06	1178411	keystroke	e	n/a
589.3405	0.09	1178681	keystroke	l	n/a
589.4605	0.1195	1178921	keystroke	a	n/a
589.64	0.105	1179280	keystroke	y	n/a
589.805	0.06	1179610	keystroke	e	n/a
590.015	0.09	1180030	keystroke	d	n/a
590.15	0.135	1180300	keystroke	Key.space	n/a
590.45	0.105	1180900	keystroke	r	n/a
590.6	0.075	1181200	keystroke	e	n/a
590.705	0.075	1181410	keystroke	l	n/a
590.825	0.105	1181650	keystroke	i	n/a
590.99	0.075	1181980	keystroke	e	n/a
591.2	0.075	1182400	keystroke	d	n/a
591.62	0.12	1183240	keystroke	Key.backspace	n/a
591.725	0.075	1183450	keystroke	f	n/a
591.89	0.135	1183780	keystroke	Key.space	n/a
592.385	0.105	1184770	keystroke	o	n/a
592.52	0.165	1185040	keystroke	p	n/a
593.2555	0.09	1186511	keystroke	i	n/a
593.4655	0.18	1186931	keystroke	o	n/a
594.1255	0.06	1188251	keystroke	Key.backspace	n/a
594.3205	0.105	1188641	keystroke	n	n/a
594.4855	0.18	1188971	keystroke	i	n/a
594.6355	0.135	1189271	keystroke	o	n/a
594.7555	0.105	1189511	keystroke	n	n/a
595.0705	0.09	1190141	keystroke	Key.enter	n/a
595.165	5.6365	1190330	prompt	n/a	required phil span baths\n
595.94	0.12	1191880	keystroke	r	n/a
596.045	0.12	1192090	keystroke	e	n/a
596.15	0.12	1192300	keystroke	q	n/a
596.3	0.15	1192600	keystroke	u	n/a
596.435	0.105	1192870	keystroke	i	n/a
596.555	0.105	1193110	keystroke	r	n/a
596.645	0.09	1193290	keystroke	e	n/a
596.855	0.075	1193710	keystroke	d	n/a
597.005	0.135	1194010	keystroke	Key.space	n/a
597.635	0.12	1195270	keystroke	p	n/a
597.77	0.135	1195540	keystroke	h	n/a
597.98	0.105	1195960	keystroke	i	n/a
598.19	0.18	1196380	keystroke	l	n/a
598.355	0.15	1196710	keystroke	Key.space	n/a
598.625	0.09	1197250	keystroke	s	n/a
598.73	0.15	1197460	keystroke	p	n/a
598.925	0.12	1197850	keystroke	a	n/a
599.09	0.12	1198180	keystroke	n	n/a
599.255	0.12	1198510	keystroke	Key.space	n/a
599.51	0.0755	1199020	keystroke	b	n/a
599.93	0.1055	1199860	keystroke	a	n/a
600.1705	0.105	1200341	keystroke	t	n/a
600.3055	0.12	1200611	keystroke	h	n/a
600.4555	0.09	1200911	keystroke	s	n/a
600.6955	0.104	1201391	keystroke	Key.enter	n/a
600.804	7.2725	1201608	prompt	n/a	remained bond such heavily\n
601.5355	0.105	1203071	keystroke	r	n/a
601.6555	0.045	1203311	keystroke	e	n/a
601.7605	0.15	1203521	keystroke	m	n/a
601.9845	0.15	1203969	keystroke	a	n/a
602.1205	0.165	1204241	keystroke	i	n/a
602.2255	0.165	1204451	keystroke	n	n/a
602.4655	0.074	1204931	keystroke	e	n/a
602.87	0.0755	1205740	keystroke	d	n/a
603.08	0.135	1206160	keystroke	Key.space	n/a
604.43	0.075	1208860	keystroke	b	n/a
604.5205	0.1345	1209041	keystroke	o	n/a
604.6245	0.12	1209249	keystroke	n	n/a
604.73	0.105	1209460	keystroke	d	n/a
604.925	0.135	1209850	keystroke	Key.space	n/a
605.285	0.105	1210570	keystroke	s	n/a
605.375	0.135	1210750	keystroke	u	n/a
605.525	0.12	1211050	keystroke	c	n/a
605.646	0.119	1211292	keystroke	h	n/a
605.766	0.104	1211532	keystroke	Key.space	n/a
606.11	0.106	1212220	keystroke	h	n/a
606.35	0.09	1212700	keystroke	e	n/a
606.7855	0.105	1213571	keystroke	a	n/a
607.1155	0.105	1214231	keystroke	v	n/a
607.4005	0.09	1214801	keystroke	i	n/a
607.5505	0.105	1215101	keystroke	l	n/a
607.7305	0.105	1215461	keystroke	y	n/a
607.9705	0.105	1215941	keystroke	Key.enter	n/a
608.0795	10.3475	1216159	prompt	n/a	italy pixels attachments blogging\n
609.005	0.135	1218010	keystroke	i	n/a
609.185	0.09	1218370	keystroke	t	n/a
609.35	0.135	1218700	keystroke	a	n/a
609.4995	0.105	1218999	keystroke	l	n/a
609.7405	0.12	1219481	keystroke	y	n/a
609.8605	0.134	1219721	keystroke	Key.space	n/a
610.2495	0.12	1220499	keystroke	p	n/a
610.4605	0.075	1220921	keystroke	i	n/a
610.6545	0.136	1221309	keystroke	x	n/a
610.8345	0.075	1221669	keystroke	e	n/a
611.2705	0.104	1222541	keystroke	l	n/a
611.6305	0.09	1223261	keystroke	s	n/a
611.7945	0.136	1223589	keystroke	Key.space	n/a
612.0955	0.1045	1224191	keystroke	a	n/a
612.3205	0.0745	1224641	keystroke	t	n/a
612.4555	0.1345	1224911	keystroke	t	n/a
612.6055	0.135	1225211	keystroke	a	n/a
612.8	0.09	1225600	keystroke	c	n/a
613.37	0.12	1226740	keystroke	h	n/a
613.67	0.12	1227340	keystroke	m	n/a
