onset	duration	sample	value	key	prompt_text
3.623	15.2105	7246	prompt	n/a	the quick brown fox jumps over a lazy dog\n
5.5125	0.001	11025	keystroke_t	t	n/a
5.5545	0.088	11109	keystroke_h	h	n/a
5.6575	0.0905	11315	keystroke_e	e	n/a
5.777	0.15	11554	keystroke_Key.space	Key.space	n/a
6.2745	0.09	12549	keystroke_q	q	n/a
6.3345	0.045	12669	keystroke_u	u	n/a
6.5745	0.121	13149	keystroke_c	c	n/a
6.7255	0.0905	13451	keystroke_k	k	n/a
6.921	0.075	13842	keystroke_Key.space	Key.space	n/a
7.131	0.0745	14262	keystroke_b	b	n/a
7.3255	0.06	14651	keystroke_r	r	n/a
7.7605	0.06	15521	keystroke_Key.backspace	Key.backspace	n/a
7.8805	0.075	15761	keystroke_Key.backspace	Key.backspace	n/a
8.0155	0.075	16031	keystroke_Key.backspace	Key.backspace	n/a
8.1505	0.0895	16301	keystroke_Key.backspace	Key.backspace	n/a
8.48	0.045	16960	keystroke_Key.backspace	Key.backspace	n/a
8.645	0.06	17290	keystroke_i	i	n/a
8.78	0.105	17560	keystroke_c	c	n/a
8.93	0.09	17860	keystroke_k	k	n/a
9.11	0.09	18220	keystroke_Key.space	Key.space	n/a
9.275	0.06	18550	keystroke_b	b	n/a
9.485	0.06	18970	keystroke_r	r	n/a
9.665	0.1055	19330	keystroke_w	w	n/a
9.7405	0.135	19481	keystroke_o	o	n/a
9.8305	0.105	19661	keystroke_n	n	n/a
10.8205	0.045	21641	keystroke_Key.backspace	Key.backspace	n/a
10.9555	0.045	21911	keystroke_Key.backspace	Key.backspace	n/a
11.0605	0.075	22121	keystroke_Key.backspace	Key.backspace	n/a
11.2555	0.075	22511	keystroke_o	o	n/a
11.3605	0.09	22721	keystroke_w	w	n/a
11.4655	0.045	22931	keystroke_n	n	n/a
11.7205	0.09	23441	keystroke_Key.space	Key.space	n/a
11.8555	0.075	23711	keystroke_f	f	n/a
12.1105	0.105	24221	keystroke_o	o	n/a
12.2005	0.12	24401	keystroke_x	x	n/a
12.3505	0.105	24701	keystroke_Key.space	Key.space	n/a
12.4705	0.09	24941	keystroke_j	j	n/a
12.6955	0.06	25391	keystroke_u	u	n/a
12.8755	0.12	25751	keystroke_m	m	n/a
13.0105	0.105	26021	keystroke_p	p	n/a
13.1605	0.105	26321	keystroke_s	s	n/a
13.3405	0.12	26681	keystroke_Key.space	Key.space	n/a
13.5955	0.09	27191	keystroke_o	o	n/a
13.6705	0.06	27341	keystroke_v	v	n/a
13.7905	0.105	27581	keystroke_e	e	n/a
13.8655	0.075	27731	keystroke_r	r	n/a
13.9555	0.09	27911	keystroke_Key.space	Key.space	n/a
14.0905	0.105	28181	keystroke_a	a	n/a
14.2105	0.135	28421	keystroke_Key.space	Key.space	n/a
14.3155	0.06	28631	keystroke_s	s	n/a
14.4805	0.09	28961	keystroke_l	l	n/a
14.7505	0.045	29501	keystroke_Key.backspace	Key.backspace	n/a
14.8405	0.075	29681	keystroke_Key.backspace	Key.backspace	n/a
15.0055	0.075	30011	keystroke_a	a	n/a
15.0805	0.105	30161	keystroke_l	l	n/a
15.1705	0.105	30341	keystroke_z	z	n/a
15.6955	0.075	31391	keystroke_Key.backspace	Key.backspace	n/a
15.8155	0.06	31631	keystroke_Key.backspace	Key.backspace	n/a
15.9355	0.09	31871	keystroke_Key.backspace	Key.backspace	n/a
16.0555	0.09	32111	keystroke_a	a	n/a
16.1605	0.09	32321	keystroke_l	l	n/a
16.341	0.0145	32682	keystroke_z	z	n/a
16.6105	0.045	33221	keystroke_Key.backspace	Key.backspace	n/a
16.7155	0.075	33431	keystroke_Key.backspace	Key.backspace	n/a
16.8505	0.075	33701	keystroke_Key.backspace	Key.backspace	n/a
17.0605	0.075	34121	keystroke_l	l	n/a
17.1505	0.105	34301	keystroke_a	a	n/a
17.3605	0.09	34721	keystroke_z	z	n/a
17.6755	0.075	35351	keystroke_y	y	n/a
17.9605	0.105	35921	keystroke_Key.space	Key.space	n/a
18.3655	0.105	36731	keystroke_d	d	n/a
18.4555	0.12	36911	keystroke_o	o	n/a
18.5605	0.09	37121	keystroke_g	g	n/a
18.7555	0.075	37511	keystroke_Key.enter	Key.enter	n/a
18.8395	9.053	37679	prompt	n/a	restrict holes comparative composer\n
19.4005	0.105	38801	keystroke_r	r	n/a
19.5055	0.12	39011	keystroke_e	e	n/a
19.791	0.089	39582	keystroke_s	s	n/a
20.0605	0.075	40121	keystroke_t	t	n/a
20.2255	0.1055	40451	keystroke_i	i	n/a
20.6605	0.12	41321	keystroke_c	c	n/a
20.9755	0.09	41951	keystroke_t	t	n/a
21.9655	0.105	43931	keystroke_Key.space	Key.space	n/a
22.1905	0.09	44381	keystroke_h	h	n/a
22.2505	0.105	44501	keystroke_o	o	n/a
22.4305	0.105	44861	keystroke_l	l	n/a
22.5505	0.075	45101	keystroke_e	e	n/a
23.1655	0.075	46331	keystroke_s	s	n/a
23.3005	0.12	46601	keystroke_Key.space	Key.space	n/a
23.4955	0.12	46991	keystroke_c	c	n/a
23.5705	0.135	47141	keystroke_o	o	n/a
23.6755	0.075	47351	keystroke_m	m	n/a
23.8555	0.09	47711	keystroke_p	p	n/a
23.9905	0.09	47981	keystroke_a	a	n/a
24.2455	0.09	48491	keystroke_r	r	n/a
24.455	0.09	48910	keystroke_a	a	n/a
24.65	0.075	49300	keystroke_t	t	n/a
24.756	0.104	49512	keystroke_i	i	n/a
24.831	0.104	49662	keystroke_v	v	n/a
24.996	0.104	49992	keystroke_e	e	n/a
25.085	0.12	50170	keystroke_Key.space	Key.space	n/a
25.34	0.105	50680	keystroke_c	c	n/a
25.415	0.165	50830	keystroke_o	o	n/a
25.52	0.121	51040	keystroke_m	m	n/a
25.881	0.09	51762	keystroke_p	p	n/a
26.241	0.06	52482	keystroke_Key.backspace	Key.backspace	n/a
26.736	0.075	53472	keystroke_p	p	n/a
27.186	0.1195	54372	keystroke_o	o	n/a
27.3355	0.075	54671	keystroke_s	s	n/a
27.4855	0.12	54971	keystroke_e	e	n/a
27.5905	0.09	55181	keystroke_r	r	n/a
27.8005	0.09	55601	keystroke_Key.enter	Key.enter	n/a
27.906	7.1715	55812	prompt	n/a	jessica murder computer flesh\n
28.5355	0.0905	57071	keystroke_j	j	n/a
28.806	0.09	57612	keystroke_e	e	n/a
28.986	0.06	57972	keystroke_s	s	n/a
29.121	0.09	58242	keystroke_s	s	n/a
29.286	0.075	58572	keystroke_i	i	n/a
29.346	0.12	58692	keystroke_c	c	n/a
29.481	0.06	58962	keystroke_a	a	n/a
29.646	0.09	59292	keystroke_Key.space	Key.space	n/a
29.766	0.075	59532	keystroke_m	m	n/a
29.961	0.075	59922	keystroke_u	u	n/a
30.021	0.09	60042	keystroke_s	s	n/a
30.486	0.09	60972	keystroke_Key.backspace	Key.backspace	n/a
30.756	0.09	61512	keystroke_r	r	n/a
30.966	0.06	61932	keystroke_d	d	n/a
31.131	0.09	62262	keystroke_e	e	n/a
31.191	0.12	62382	keystroke_r	r	n/a
31.326	0.075	62652	keystroke_Key.space	Key.space	n/a
31.506	0.105	63012	keystroke_c	c	n/a
31.566	0.15	63132	keystroke_o	o	n/a
31.671	0.105	63342	keystroke_m	m	n/a
32.106	0.06	64212	keystroke_p	p	n/a
32.211	0.09	64422	keystroke_u	u	n/a
32.631	0.06	65262	keystroke_t	t	n/a
32.766	0.15	65532	keystroke_e	e	n/a
32.886	0.12	65772	keystroke_r	r	n/a
33.036	0.12	66072	keystroke_Key.space	Key.space	n/a
33.186	0.09	66372	keystroke_f	f	n/a
33.276	0.105	66552	keystroke_l	l	n/a
33.396	0.105	66792	keystroke_a	a	n/a
33.711	0.03	67422	keystroke_Key.backspace	Key.backspace	n/a
33.846	0.105	67692	keystroke_s	s	n/a
34.116	0.09	68232	keystroke_Key.backspace	Key.backspace	n/a
34.191	0.1045	68382	keystroke_e	e	n/a
34.356	0.1045	68712	keystroke_s	s	n/a
34.4905	0.09	68981	keystroke_h	h	n/a
34.9555	0.1205	69911	keystroke_Key.enter	Key.enter	n/a
35.082	12.2065	70164	prompt	n/a	uniform beats pantyhose partnerships\n
35.6455	0.09	71291	keystroke_u	u	n/a
35.8705	0.075	71741	keystroke_n	n	n/a
36.0505	0.09	72101	keystroke_i	i	n/a
36.1855	0.09	72371	keystroke_f	f	n/a
36.2605	0.09	72521	keystroke_i	i	n/a
36.4255	0.105	72851	keystroke_o	o	n/a
36.5905	0.09	73181	keystroke_r	r	n/a
36.6655	0.09	73331	keystroke_m	m	n/a
37.2805	0.06	74561	keystroke_Key.backspace	Key.backspace	n/a
37.4155	0.075	74831	keystroke_Key.backspace	Key.backspace	n/a
37.6855	0.09	75371	keystroke_Key.backspace	Key.backspace	n/a
37.9705	0.045	75941	keystroke_Key.backspace	Key.backspace	n/a
39.1105	0.09	78221	keystroke_o	o	n/a
39.2905	0.075	78581	keystroke_r	r	n/a
39.3805	0.09	78761	keystroke_m	m	n/a
39.8305	0.105	79661	keystroke_Key.space	Key.space	n/a
40.1155	0.015	80231	keystroke_b	b	n/a
40.2805	0.12	80561	keystroke_e	e	n/a
40.5055	0.075	81011	keystroke_a	a	n/a
40.6555	0.075	81311	keystroke_t	t	n/a
41.2705	0.105	82541	keystroke_s	s	n/a
41.6305	0.105	83261	keystroke_Key.space	Key.space	n/a
41.8705	0.09	83741	keystroke_p	p	n/a
42.0355	0.075	84071	keystroke_a	a	n/a
42.2155	0.075	84431	keystroke_n	n	n/a
42.7105	0.135	85421	keystroke_t	t	n/a
43.5055	0.105	87011	keystroke_y	y	n/a
43.7755	0.135	87551	keystroke_h	h	n/a
43.8655	0.12	87731	keystroke_o	o	n/a
44.0305	0.12	88061	keystroke_s	s	n/a
44.2105	0.135	88421	keystroke_e	e	n/a
44.3305	0.12	88661	keystroke_Key.space	Key.space	n/a
44.5105	0.105	89021	keystroke_p	p	n/a
44.6305	0.06	89261	keystroke_e	e	n/a
44.9155	0.06	89831	keystroke_Key.backspace	Key.backspace	n/a
44.9905	0.075	89981	keystroke_a	a	n/a
45.1555	0.105	90311	keystroke_r	r	n/a
45.3655	0.075	90731	keystroke_t	t	n/a
45.5455	0.06	91091	keystroke_n	n	n/a
45.6205	0.21	91241	keystroke_e	e	n/a
45.8455	0.09	91691	keystroke_r	r	n/a
46.5355	0.09	93071	keystroke_s	s	n/a
46.6105	0.135	93221	keystroke_h	h	n/a
46.6855	0.135	93371	keystroke_i	i	n/a
46.8655	0.12	93731	keystroke_p	p	n/a
46.9705	0.135	93941	keystroke_s	s	n/a
47.1955	0.09	94391	keystroke_Key.enter	Key.enter	n/a
47.2945	8.858	94589	prompt	n/a	waste verification verify bahamas\n
47.8555	0.12	95711	keystroke_w	w	n/a
48.0055	0.09	96011	keystroke_a	a	n/a
48.2005	0.075	96401	keystroke_t	t	n/a
48.5905	0.075	97181	keystroke_Key.backspace	Key.backspace	n/a
48.6355	0.09	97271	keystroke_s	s	n/a
48.8155	0.09	97631	keystroke_t	t	n/a
49.0105	0.105	98021	keystroke_e	e	n/a
49.3105	0.12	98621	keystroke_Key.space	Key.space	n/a
49.7	0.061	99400	keystroke_v	v	n/a
49.851	0.09	99702	keystroke_e	e	n/a
49.925	0.105	99850	keystroke_r	r	n/a
50.091	0.135	100182	keystroke_i	i	n/a
50.931	0.105	101862	keystroke_f	f	n/a
51.066	0.105	102132	keystroke_i	i	n/a
51.141	0.15	102282	keystroke_c	c	n/a
51.291	0.105	102582	keystroke_a	a	n/a
51.471	0.089	102942	keystroke_t	t	n/a
51.546	0.21	103092	keystroke_i	i	n/a
51.621	0.15	103242	keystroke_o	o	n/a
51.666	0.135	103332	keystroke_n	n	n/a
52.235	0.105	104470	keystroke_Key.space	Key.space	n/a
52.461	0.12	104922	keystroke_v	v	n/a
52.656	0.12	105312	keystroke_e	e	n/a
52.761	0.105	105522	keystroke_r	r	n/a
52.941	0.105	105882	keystroke_i	i	n/a
53.136	0.12	106272	keystroke_f	f	n/a
53.391	0.06	106782	keystroke_y	y	n/a
53.585	0.121	107170	keystroke_Key.space	Key.space	n/a
54.351	0.09	108702	keystroke_b	b	n/a
54.636	0.105	109272	keystroke_a	a	n/a
54.816	0.075	109632	keystroke_h	h	n/a
54.921	0.12	109842	keystroke_a	a	n/a
55.056	0.105	110112	keystroke_m	m	n/a
55.356	0.09	110712	keystroke_a	a	n/a
55.866	0.105	111732	keystroke_s	s	n/a
56.046	0.105	112092	keystroke_Key.enter	Key.enter	n/a
56.1575	10.931	112315	prompt	n/a	asian nascar indiana kenneth\n
56.826	0.12	113652	keystroke_a	a	n/a
57.006	0.09	114012	keystroke_s	s	n/a
57.336	0.09	114672	keystroke_i	i	n/a
57.591	0.12	115182	keystroke_a	a	n/a
57.741	0.06	115482	keystroke_n	n	n/a
57.906	0.09	115812	keystroke_Key.space	Key.space	n/a
58.161	0.06	116322	keystroke_n	n	n/a
61.299	0.057	122598	keystroke_a	a	n/a
61.476	0.105	122952	keystroke_s	s	n/a
61.941	0.12	123882	keystroke_c	c	n/a
62.091	0.105	124182	keystroke_a	a	n/a
62.316	0.09	124632	keystroke_r	r	n/a
62.481	0.135	124962	keystroke_Key.space	Key.space	n/a
62.646	0.135	125292	keystroke_i	i	n/a
62.751	0.06	125502	keystroke_n	n	n/a
63.036	0.09	126072	keystroke_d	d	n/a
63.156	0.105	126312	keystroke_i	i	n/a
63.306	0.09	126612	keystroke_a	a	n/a
63.411	0.075	126822	keystroke_n	n	n/a
63.546	0.105	127092	keystroke_a	a	n/a
64.026	0.12	128052	keystroke_Key.space	Key.space	n/a
64.356	0.12	128712	keystroke_k	k	n/a
64.476	0.12	128952	keystroke_e	e	n/a
64.671	0.075	129342	keystroke_n	n	n/a
64.821	0.06	129642	keystroke_n	n	n/a
64.941	0.075	129882	keystroke_t	t	n/a
65.136	0.09	130272	keystroke_h	h	n/a
65.721	0.03	131442	keystroke_Key.backspace	Key.backspace	n/a
65.841	0.06	131682	keystroke_Key.backspace	Key.backspace	n/a
65.916	0.09	131832	keystroke_e	e	n/a
66.111	0.09	132222	keystroke_t	t	n/a
66.156	0.12	132312	keystroke_h	h	n/a
66.966	0.12	133932	keystroke_Key.enter	Key.enter	n/a
67.093	6.6845	134186	prompt	n/a	iron character messages rush\n
67.596	0.105	135192	keystroke_i	i	n/a
67.686	0.06	135372	keystroke_n	n	n/a
67.986	0.06	135972	keystroke_Key.backspace	Key.backspace	n/a
68.121	0.105	136242	keystroke_r	r	n/a
68.196	0.12	136392	keystroke_o	o	n/a
68.301	0.09	136602	keystroke_n	n	n/a
68.451	0.135	136902	keystroke_Key.space	Key.space	n/a
68.766	0.105	137532	keystroke_c	c	n/a
68.916	0.09	137832	keystroke_h	h	n/a
69.291	0.09	138582	keystroke_a	a	n/a
69.546	0.045	139092	keystroke_r	r	n/a
69.981	0.105	139962	keystroke_a	a	n/a
70.206	0.105	140412	keystroke_c	c	n/a
70.446	0.09	140892	keystroke_t	t	n/a
70.656	0.105	141312	keystroke_o	o	n/a
71.136	0.075	142272	keystroke_Key.backspace	Key.backspace	n/a
71.226	0.105	142452	keystroke_e	e	n/a
71.406	0.105	142812	keystroke_r	r	n/a
71.556	0.12	143112	keystroke_Key.space	Key.space	n/a
71.706	0.09	143412	keystroke_m	m	n/a
71.811	0.06	143622	keystroke_e	e	n/a
71.961	0.09	143922	keystroke_s	s	n/a
72.141	0.09	144282	keystroke_s	s	n/a
72.306	0.135	144612	keystroke_a	a	n/a
72.486	0.075	144972	keystroke_g	g	n/a
72.606	0.09	145212	keystroke_e	e	n/a
72.786	0.135	145572	keystroke_s	s	n/a
72.906	0.075	145812	keystroke_Key.space	Key.space	n/a
73.101	0.09	146202	keystroke_r	r	n/a
73.221	0.075	146442	keystroke_u	u	n/a
73.311	0.105	146622	keystroke_s	s	n/a
73.446	0.105	146892	keystroke_h	h	n/a
73.701	0.075	147402	keystroke_Key.enter	Key.enter	n/a
73.7855	10.372	147571	prompt	n/a	boys confirm directors elevation\n
74.316	0.06	148632	keystroke_b	b	n/a
74.406	0.105	148812	keystroke_o	o	n/a
74.841	0.0745	149682	keystroke_y	y	n/a
75.0355	0.105	150071	keystroke_s	s	n/a
75.1705	0.105	150341	keystroke_Key.space	Key.space	n/a
75.3355	0.12	150671	keystroke_c	c	n/a
75.3955	0.135	150791	keystroke_o	o	n/a
75.8605	0.075	151721	keystroke_n	n	n/a
75.9955	0.09	151991	keystroke_f	f	n/a
76.1005	0.075	152201	keystroke_o	o	n/a
76.2055	0.105	152411	keystroke_r	r	n/a
76.2955	0.09	152591	keystroke_m	m	n/a
76.7005	0.06	153401	keystroke_Key.backspace	Key.backspace	n/a
76.8355	0.06	153671	keystroke_Key.backspace	Key.backspace	n/a
76.9405	0.09	153881	keystroke_Key.backspace	Key.backspace	n/a
77.1505	0.09	154301	keystroke_i	i	n/a
77.2705	0.09	154541	keystroke_r	r	n/a
77.3455	0.075	154691	keystroke_m	m	n/a
77.9455	0.105	155891	keystroke_Key.space	Key.space	n/a
78.1855	0.12	156371	keystroke_d	d	n/a
78.4105	0.09	156821	keystroke_e	e	n/a
78.7105	0.045	157421	keystroke_Key.backspace	Key.backspace	n/a
78.8905	0.06	157781	keystroke_i	i	n/a
79.1605	0.09	158321	keystroke_r	r	n/a
79.3705	0.06	158741	keystroke_e	e	n/a
79.7605	0.09	159521	keystroke_t	t	n/a
80.0455	0.075	160091	keystroke_Key.backspace	Key.backspace	n/a
80.1505	0.12	160301	keystroke_c	c	n/a
80.3905	0.105	160781	keystroke_t	t	n/a
80.5105	0.09	161021	keystroke_o	o	n/a
80.6455	0.075	161291	keystroke_r	r	n/a
81.2305	0.09	162461	keystroke_s	s	n/a
81.3955	0.105	162791	keystroke_Key.space	Key.space	n/a
81.5755	0.105	163151	keystroke_e	e	n/a
82.2055	0.12	164411	keystroke_l	l	n/a
82.4755	0.105	164951	keystroke_e	e	n/a
82.6855	0.075	165371	keystroke_v	v	n/a
82.8205	0.105	165641	keystroke_a	a	n/a
83.1055	0.06	166211	keystroke_t	t	n/a
83.2255	0.255	166451	keystroke_i	i	n/a
83.3305	0.135	166661	keystroke_o	o	n/a
83.3905	0.15	166781	keystroke_n	n	n/a
84.1405	0.015	168281	keystroke_Key.enter	Key.enter	n/a
84.163	15.1145	168326	prompt	n/a	tournament detroit tool build\n
88.599	0.012	177198	keystroke_t	t	n/a
88.641	0.09	177282	keystroke_o	o	n/a
88.836	0.09	177672	keystroke_u	u	n/a
89.061	0.105	178122	keystroke_r	r	n/a
89.496	0.075	178992	keystroke_m	m	n/a
89.856	0.075	179712	keystroke_Key.backspace	Key.backspace	n/a
90.051	0.075	180102	keystroke_n	n	n/a
91.341	0.09	182682	keystroke_a	a	n/a
91.476	0.09	182952	keystroke_m	m	n/a
91.611	0.09	183222	keystroke_e	e	n/a
91.686	0.09	183372	keystroke_n	n	n/a
91.806	0.105	183612	keystroke_t	t	n/a
91.986	0.12	183972	keystroke_Key.space	Key.space	n/a
92.271	0.105	184542	keystroke_d	d	n/a
92.481	0.105	184962	keystroke_e	e	n/a
92.781	0.09	185562	keystroke_t	t	n/a
93.246	0.105	186492	keystroke_r	r	n/a
93.531	0.105	187062	keystroke_o	o	n/a
93.681	0.12	187362	keystroke_i	i	n/a
93.831	0.105	187662	keystroke_t	t	n/a
94.116	0.105	188232	keystroke_Key.space	Key.space	n/a
94.296	0.12	188592	keystroke_t	t	n/a
94.386	0.075	188772	keystroke_o	o	n/a
94.566	0.075	189132	keystroke_l	l	n/a
94.701	0.12	189402	keystroke_l	l	n/a
94.986	0.075	189972	keystroke_Key.space	Key.space	n/a
95.226	0.075	190452	keystroke_b	b	n/a
95.346	0.135	190692	keystroke_u	u	n/a
95.466	0.075	190932	keystroke_i	i	n/a
95.571	0.12	191142	keystroke_l	l	n/a
95.736	0.09	191472	keystroke_d	d	n/a
95.946	0.195	191892	keystroke_Key.backspace	Key.backspace	n/a
96.201	0.09	192402	keystroke_Key.backspace	Key.backspace	n/a
96.336	0.09	192672	keystroke_Key.backspace	Key.backspace	n/a
96.486	0.075	192972	keystroke_Key.backspace	Key.backspace	n/a
96.621	0.075	193242	keystroke_Key.backspace	Key.backspace	n/a
96.771	0.06	193542	keystroke_Key.backspace	Key.backspace	n/a
96.906	0.075	193812	keystroke_Key.backspace	Key.backspace	n/a
97.041	0.06	194082	keystroke_Key.backspace	Key.backspace	n/a
97.266	0.09	194532	keystroke_o	o	n/a
97.476	0.105	194952	keystroke_l	l	n/a
97.611	0.12	195222	keystroke_Key.space	Key.space	n/a
97.851	0.075	195702	keystroke_b	b	n/a
97.986	0.12	195972	keystroke_u	u	n/a
98.061	0.105	196122	keystroke_i	i	n/a
98.196	0.09	196392	keystroke_l	l	n/a
98.271	0.135	196542	keystroke_d	d	n/a
99.171	0.105	198342	keystroke_Key.enter	Key.enter	n/a
99.2825	13.12	198565	prompt	n/a	illinois korea sector celtic\n
99.846	0.075	199692	keystroke_l	l	n/a
100.131	0.03	200262	keystroke_Key.backspace	Key.backspace	n/a
100.341	0.09	200682	keystroke_i	i	n/a
100.551	0.06	201102	keystroke_l	l	n/a
100.716	0.09	201432	keystroke_l	l	n/a
100.911	0.09	201822	keystroke_i	i	n/a
101.241	0.09	202482	keystroke_n	n	n/a
101.496	0.075	202992	keystroke_o	o	n/a
101.691	0.075	203382	keystroke_i	i	n/a
101.781	0.105	203562	keystroke_s	s	n/a
102.726	0.09	205452	keystroke_Key.space	Key.space	n/a
102.966	0.135	205932	keystroke_k	k	n/a
103.146	0.12	206292	keystroke_r	r	n/a
103.161	0.09	206322	keystroke_o	o	n/a
103.791	0.06	207582	keystroke_Key.backspace	Key.backspace	n/a
103.926	0.075	207852	keystroke_Key.backspace	Key.backspace	n/a
104.121	0.105	208242	keystroke_o	o	n/a
104.211	0.105	208422	keystroke_r	r	n/a
104.301	0.12	208602	keystroke_e	e	n/a
104.526	0.12	209052	keystroke_a	a	n/a
104.691	0.105	209382	keystroke_Key.space	Key.space	n/a
104.916	0.105	209832	keystroke_s	s	n/a
105.111	0.045	210222	keystroke_o	o	n/a
105.651	0.075	211302	keystroke_Key.backspace	Key.backspace	n/a
105.996	0.075	211992	keystroke_e	e	n/a
106.176	0.105	212352	keystroke_c	c	n/a
106.401	0.09	212802	keystroke_t	t	n/a
106.536	0.09	213072	keystroke_o	o	n/a
106.611	0.12	213222	keystroke_r	r	n/a
107.016	0.12	214032	keystroke_Key.space	Key.space	n/a
107.346	0.105	214692	keystroke_c	c	n/a
107.556	0.075	215112	keystroke_e	e	n/a
107.751	0.12	215502	keystroke_l	l	n/a
107.886	0.075	215772	keystroke_i	i	n/a
108.021	0.09	216042	keystroke_t	t	n/a
108.261	0.045	216522	keystroke_i	i	n/a
108.351	0.12	216702	keystroke_c	c	n/a
109.6705	0.075	219341	keystroke_Key.backspace	Key.backspace	n/a
109.8355	0.06	219671	keystroke_Key.backspace	Key.backspace	n/a
109.9705	0.075	219941	keystroke_Key.backspace	Key.backspace	n/a
110.1205	0.075	220241	keystroke_Key.backspace	Key.backspace	n/a
110.5405	0.09	221081	keystroke_t	t	n/a
110.8255	0.09	221651	keystroke_i	i	n/a
111.0205	0.09	222041	keystroke_c	c	n/a
112.2805	0.12	224561	keystroke_Key.enter	Key.enter	n/a
112.4075	7.78	224815	prompt	n/a	indigenous tube teenage similarly\n
113.0005	0.135	226001	keystroke_i	i	n/a
113.1055	0.105	226211	keystroke_n	n	n/a
113.4055	0.06	226811	keystroke_d	d	n/a
113.6455	0.09	227291	keystroke_i	i	n/a
114.0805	0.09	228161	keystroke_g	g	n/a
114.2755	0.12	228551	keystroke_e	e	n/a
114.4105	0.09	228821	keystroke_n	n	n/a
114.6805	0.09	229361	keystroke_o	o	n/a
114.8755	0.09	229751	keystroke_u	u	n/a
115.0105	0.09	230021	keystroke_s	s	n/a
115.2355	0.09	230471	keystroke_Key.space	Key.space	n/a
115.4755	0.045	230951	keystroke_t	t	n/a
115.6105	0.09	231221	keystroke_u	u	n/a
115.7155	0.09	231431	keystroke_b	b	n/a
115.9105	0.12	231821	keystroke_e	e	n/a
116.0305	0.105	232061	keystroke_Key.space	Key.space	n/a
116.2255	0.075	232451	keystroke_t	t	n/a
116.3755	0.09	232751	keystroke_e	e	n/a
116.5555	0.075	233111	keystroke_e	e	n/a
116.6605	0.09	233321	keystroke_n	n	n/a
116.8405	0.105	233681	keystroke_a	a	n/a
117.2305	0.045	234461	keystroke_g	g	n/a
117.3805	0.09	234761	keystroke_e	e	n/a
117.4855	0.105	234971	keystroke_Key.space	Key.space	n/a
117.6805	0.06	235361	keystroke_i	i	n/a
117.9955	0.075	235991	keystroke_Key.backspace	Key.backspace	n/a
118.0855	0.06	236171	keystroke_s	s	n/a
118.1755	0.135	236351	keystroke_i	i	n/a
118.2805	0.09	236561	keystroke_m	m	n/a
118.5355	0.09	237071	keystroke_i	i	n/a
118.6855	0.135	237371	keystroke_l	l	n/a
118.8805	0.09	237761	keystroke_a	a	n/a
119.0905	0.135	238181	keystroke_r	r	n/a
119.3005	0.135	238601	keystroke_l	l	n/a
119.4955	0.12	238991	keystroke_y	y	n/a
120.111	0.074	240222	keystroke_Key.enter	Key.enter	n/a
120.1945	9.9675	240389	prompt	n/a	likely butter thermal choices\n
120.681	0.06	241362	keystroke_i	i	n/a
120.936	0.03	241872	keystroke_Key.backspace	Key.backspace	n/a
121.116	0.105	242232	keystroke_l	l	n/a
121.176	0.075	242352	keystroke_i	i	n/a
121.341	0.06	242682	keystroke_k	k	n/a
121.461	0.105	242922	keystroke_e	e	n/a
121.716	0.075	243432	keystroke_y	y	n/a
122.151	0.075	244302	keystroke_Key.backspace	Key.backspace	n/a
122.361	0.12	244722	keystroke_l	l	n/a
122.466	0.105	244932	keystroke_y	y	n/a
122.556	0.12	245112	keystroke_Key.space	Key.space	n/a
122.736	0.09	245472	keystroke_b	b	n/a
122.946	0.105	245892	keystroke_u	u	n/a
123.291	0.075	246582	keystroke_t	t	n/a
123.471	0.06	246942	keystroke_t	t	n/a
123.636	0.165	247272	keystroke_e	e	n/a
123.756	0.12	247512	keystroke_r	r	n/a
123.936	0.12	247872	keystroke_Key.space	Key.space	n/a
124.206	0.09	248412	keystroke_t	t	n/a
124.491	0.105	248982	keystroke_h	h	n/a
124.641	0.105	249282	keystroke_e	e	n/a
124.896	0.075	249792	keystroke_m	m	n/a
125.841	0.09	251682	keystroke_Key.backspace	Key.backspace	n/a
127.056	0.105	254112	keystroke_r	r	n/a
127.236	0.075	254472	keystroke_m	m	n/a
127.341	0.12	254682	keystroke_a	a	n/a
127.461	0.09	254922	keystroke_l	l	n/a
127.581	0.105	255162	keystroke_Key.space	Key.space	n/a
127.791	0.105	255582	keystroke_c	c	n/a
128.031	0.135	256062	keystroke_h	h	n/a
128.181	0.12	256362	keystroke_o	o	n/a
129.051	0.045	258102	keystroke_i	i	n/a
129.201	0.12	258402	keystroke_c	c	n/a
129.396	0.06	258792	keystroke_e	e	n/a
129.561	0.09	259122	keystroke_s	s	n/a
130.041	0.12	260082	keystroke_Key.enter	Key.enter	n/a
130.1665	8.561	260333	prompt	n/a	rebel kenny arizona climbing\n
130.9705	0.09	261941	keystroke_r	r	n/a
131.0755	0.09	262151	keystroke_e	e	n/a
131.2705	0.075	262541	keystroke_b	b	n/a
131.4355	0.09	262871	keystroke_e	e	n/a
131.6005	0.12	263201	keystroke_l	l	n/a
131.7655	0.09	263531	keystroke_Key.space	Key.space	n/a
132.0205	0.12	264041	keystroke_k	k	n/a
132.3055	0.09	264611	keystroke_e	e	n/a
132.4855	0.06	264971	keystroke_n	n	n/a
132.6355	0.06	265271	keystroke_n	n	n/a
132.7555	0.12	265511	keystroke_y	y	n/a
132.9205	0.105	265841	keystroke_Key.space	Key.space	n/a
133.1605	0.105	266321	keystroke_a	a	n/a
133.4005	0.105	266801	keystroke_r	r	n/a
133.7755	0.06	267551	keystroke_i	i	n/a
134.0455	0.09	268091	keystroke_z	z	n/a
134.1505	0.105	268301	keystroke_o	o	n/a
134.2255	0.12	268451	keystroke_n	n	n/a
134.6755	0.105	269351	keystroke_a	a	n/a
134.8855	0.105	269771	keystroke_Key.space	Key.space	n/a
135.2005	0.12	270401	keystroke_c	c	n/a
135.5305	0.12	271061	keystroke_l	l	n/a
135.6355	0.12	271271	keystroke_i	i	n/a
135.7855	0.105	271571	keystroke_m	m	n/a
135.9805	0.106	271961	keystroke_b	b	n/a
136.0705	0.135	272141	keystroke_i	i	n/a
136.1455	0.09	272291	keystroke_n	n	n/a
136.2805	0.105	272561	keystroke_g	g	n/a
138.6845	0.041	277369	keystroke_Key.enter	Key.enter	n/a
138.732	6.0705	277464	prompt	n/a	bookings shot folding visible\n
139.3105	0.076	278621	keystroke_b	b	n/a
139.3705	0.09	278741	keystroke_o	o	n/a
139.5205	0.15	279041	keystroke_o	o	n/a
139.6255	0.075	279251	keystroke_k	k	n/a
139.8055	0.12	279611	keystroke_i	i	n/a
139.8815	0.089	279763	keystroke_n	n	n/a
139.9405	0.105	279881	keystroke_g	g	n/a
140.0305	0.09	280061	keystroke_Key.space	Key.space	n/a
140.3005	0.06	280601	keystroke_Key.backspace	Key.backspace	n/a
140.4055	0.09	280811	keystroke_s	s	n/a
140.5105	0.105	281021	keystroke_Key.space	Key.space	n/a
140.9455	0.105	281891	keystroke_s	s	n/a
141.0205	0.075	282041	keystroke_l	l	n/a
141.3355	0.045	282671	keystroke_Key.backspace	Key.backspace	n/a
141.5005	0.12	283001	keystroke_h	h	n/a
141.5605	0.12	283121	keystroke_o	o	n/a
141.6955	0.105	283391	keystroke_t	t	n/a
141.8155	0.09	283631	keystroke_Key.space	Key.space	n/a
142.0855	0.105	284171	keystroke_f	f	n/a
142.1605	0.09	284321	keystroke_o	o	n/a
142.3105	0.09	284621	keystroke_l	l	n/a
142.4155	0.09	284831	keystroke_d	d	n/a
142.5205	0.135	285041	keystroke_i	i	n/a
142.5955	0.105	285191	keystroke_n	n	n/a
142.6855	0.105	285371	keystroke_g	g	n/a
142.7755	0.075	285551	keystroke_Key.space	Key.space	n/a
142.9255	0.075	285851	keystroke_v	v	n/a
143.0455	0.105	286091	keystroke_i	i	n/a
143.2255	0.075	286451	keystroke_s	s	n/a
143.3315	0.104	286663	keystroke_i	i	n/a
143.6605	0.12	287321	keystroke_l	l	n/a
143.7655	0.075	287531	keystroke_b	b	n/a
144.1105	0.06	288221	keystroke_Key.backspace	Key.backspace	n/a
144.2315	0.074	288463	keystroke_Key.backspace	Key.backspace	n/a
144.3205	0.075	288641	keystroke_b	b	n/a
144.4405	0.105	288881	keystroke_l	l	n/a
144.5305	0.12	289061	keystroke_e	e	n/a
144.6955	0.105	289391	keystroke_Key.enter	Key.enter	n/a
144.807	18.01	289614	prompt	n/a	photographer organisms vietnamese clinics\n
145.4905	0.105	290981	keystroke_p	p	n/a
145.731	0.09	291462	keystroke_h	h	n/a
145.866	0.12	291732	keystroke_o	o	n/a
146.091	0.105	292182	keystroke_t	t	n/a
146.196	0.105	292392	keystroke_o	o	n/a
146.361	0.075	292722	keystroke_g	g	n/a
146.571	0.09	293142	keystroke_r	r	n/a
146.781	0.12	293562	keystroke_a	a	n/a
146.961	0.075	293922	keystroke_p	p	n/a
147.231	0.09	294462	keystroke_h	h	n/a
147.336	0.105	294672	keystroke_e	e	n/a
147.666	0.09	295332	keystroke_r	r	n/a
148.191	0.105	296382	keystroke_Key.space	Key.space	n/a
148.431	0.105	296862	keystroke_o	o	n/a
148.566	0.09	297132	keystroke_r	r	n/a
148.761	0.09	297522	keystroke_g	g	n/a
149.0005	0.045	298001	keystroke_a	a	n/a
149.2105	0.075	298421	keystroke_n	n	n/a
149.3605	0.105	298721	keystroke_i	i	n/a
149.6155	0.075	299231	keystroke_s	s	n/a
149.8105	0.105	299621	keystroke_m	m	n/a
149.9155	0.09	299831	keystroke_s	s	n/a
150.2755	0.075	300551	keystroke_Key.space	Key.space	n/a
150.6055	0.105	301211	keystroke_v	v	n/a
150.7705	0.105	301541	keystroke_i	i	n/a
151.2205	0.12	302441	keystroke_e	e	n/a
151.4755	0.105	302951	keystroke_t	t	n/a
151.8355	0.045	303671	keystroke_m	m	n/a
152.0605	0.045	304121	keystroke_Key.backspace	Key.backspace	n/a
152.2405	0.06	304481	keystroke_n	n	n/a
152.2705	0.075	304541	keystroke_a	a	n/a
152.4655	0.105	304931	keystroke_m	m	n/a
152.6005	0.075	305201	keystroke_e	e	n/a
152.7805	0.105	305561	keystroke_s	s	n/a
152.9755	0.09	305951	keystroke_e	e	n/a
153.1105	0.12	306221	keystroke_Key.space	Key.space	n/a
153.2755	0.12	306551	keystroke_c	c	n/a
153.5605	0.15	307121	keystroke_l	l	n/a
153.6655	0.105	307331	keystroke_i	i	n/a
153.8455	0.105	307691	keystroke_c	c	n/a
154.1455	0.105	308291	keystroke_i	i	n/a
154.2655	0.09	308531	keystroke_t	t	n/a
154.6405	0.06	309281	keystroke_Key.backspace	Key.backspace	n/a
154.6855	0.105	309371	keystroke_c	c	n/a
154.8055	0.09	309611	keystroke_s	s	n/a
155.9605	0.105	311921	keystroke_Key.backspace	Key.backspace	n/a
156.1555	0.06	312311	keystroke_Key.backspace	Key.backspace	n/a
156.3205	0.045	312641	keystroke_Key.backspace	Key.backspace	n/a
156.8005	0.06	313601	keystroke_Key.backspace	Key.backspace	n/a
156.9955	0.105	313991	keystroke_n	n	n/a
157.2205	0.09	314441	keystroke_i	i	n/a
157.3255	0.105	314651	keystroke_c	c	n/a
157.5355	0.09	315071	keystroke_s	s	n/a
162.7735	0.042	325547	keystroke_Key.enter	Key.enter	n/a
162.8215	7.436	325643	prompt	n/a	integer push fairly construction\n
163.5355	0.105	327071	keystroke_i	i	n/a
163.6255	0.09	327251	keystroke_n	n	n/a
163.9405	0.075	327881	keystroke_t	t	n/a
164.1205	0.15	328241	keystroke_e	e	n/a
164.5255	0.03	329051	keystroke_g	g	n/a
164.7205	0.135	329441	keystroke_e	e	n/a
164.8705	0.09	329741	keystroke_r	r	n/a
164.9755	0.135	329951	keystroke_Key.space	Key.space	n/a
165.1115	0.089	330223	keystroke_p	p	n/a
165.2905	0.105	330581	keystroke_u	u	n/a
165.4105	0.09	330821	keystroke_s	s	n/a
165.5155	0.105	331031	keystroke_h	h	n/a
165.6055	0.075	331211	keystroke_Key.space	Key.space	n/a
165.7855	0.075	331571	keystroke_f	f	n/a
165.9805	0.12	331961	keystroke_a	a	n/a
166.2055	0.09	332411	keystroke_i	i	n/a
166.7155	0.105	333431	keystroke_r	r	n/a
166.8505	0.12	333701	keystroke_l	l	n/a
167.0755	0.105	334151	keystroke_y	y	n/a
167.2405	0.135	334481	keystroke_Key.space	Key.space	n/a
167.5855	0.12	335171	keystroke_c	c	n/a
167.7205	0.12	335441	keystroke_o	o	n/a
167.8105	0.09	335621	keystroke_n	n	n/a
168.0805	0.105	336161	keystroke_s	s	n/a
168.3355	0.075	336671	keystroke_t	t	n/a
168.5605	0.09	337121	keystroke_r	r	n/a
168.7255	0.12	337451	keystroke_u	u	n/a
168.9805	0.105	337961	keystroke_c	c	n/a
169.2205	0.075	338441	keystroke_t	t	n/a
169.2655	0.21	338531	keystroke_i	i	n/a
169.3405	0.12	338681	keystroke_o	o	n/a
169.3855	0.12	338771	keystroke_n	n	n/a
170.1355	0.12	340271	keystroke_Key.enter	Key.enter	n/a
170.2635	15.084	340527	prompt	n/a	layers tobacco ensemble correctly\n
176.544	0.057	353088	keystroke_l	l	n/a
176.615	0.121	353230	keystroke_a	a	n/a
176.841	0.06	353682	keystroke_y	y	n/a
177.426	0.135	354852	keystroke_e	e	n/a
177.561	0.059	355122	keystroke_r	r	n/a
177.741	0.12	355482	keystroke_s	s	n/a
177.876	0.075	355752	keystroke_Key.space	Key.space	n/a
178.086	0.044	356172	keystroke_t	t	n/a
178.295	0.1215	356590	keystroke_o	o	n/a
178.431	0.089	356862	keystroke_b	b	n/a
178.715	0.091	357430	keystroke_a	a	n/a
179.076	0.089	358152	keystroke_c	c	n/a
179.181	0.045	358362	keystroke_o	o	n/a
179.301	0.12	358602	keystroke_o	o	n/a
179.54	0.091	359080	keystroke_Key.space	Key.space	n/a
179.916	0.104	359832	keystroke_e	e	n/a
180.036	0.09	360072	keystroke_n	n	n/a
180.291	0.074	360582	keystroke_s	s	n/a
180.456	0.075	360912	keystroke_i	i	n/a
180.951	0.1035	361902	keystroke_Key.backspace	Key.backspace	n/a
181.086	0.104	362172	keystroke_e	e	n/a
181.161	0.105	362322	keystroke_m	m	n/a
181.476	0.075	362952	keystroke_b	b	n/a
181.566	0.104	363132	keystroke_l	l	n/a
181.686	0.1345	363372	keystroke_e	e	n/a
181.8205	0.1195	363641	keystroke_Key.space	Key.space	n/a
182.091	0.1045	364182	keystroke_c	c	n/a
182.211	0.1045	364422	keystroke_o	o	n/a
182.3305	0.075	364661	keystroke_r	r	n/a
182.4805	0.0755	364961	keystroke_r	r	n/a
182.7805	0.105	365561	keystroke_c	c	n/a
183.1255	0.075	366251	keystroke_Key.backspace	Key.backspace	n/a
183.2155	0.075	366431	keystroke_e	e	n/a
183.3955	0.105	366791	keystroke_c	c	n/a
183.6055	0.075	367211	keystroke_l	l	n/a
184.1155	0.06	368231	keystroke_Key.backspace	Key.backspace	n/a
184.2055	0.12	368411	keystroke_t	t	n/a
184.3255	0.12	368651	keystroke_l	l	n/a
184.4605	0.09	368921	keystroke_y	y	n/a
185.2705	0.074	370541	keystroke_Key.enter	Key.enter	n/a
185.352	15.656	370704	prompt	n/a	partition displaying beef undergraduate\n
186.0355	0.105	372071	keystroke_p	p	n/a
186.2155	0.105	372431	keystroke_a	a	n/a
186.5455	0.075	373091	keystroke_t	t	n/a
186.9655	0.075	373931	keystroke_Key.backspace	Key.backspace	n/a
187.0855	0.15	374171	keystroke_r	r	n/a
187.4155	0.09	374831	keystroke_t	t	n/a
187.5355	0.09	375071	keystroke_i	i	n/a
187.7605	0.105	375521	keystroke_t	t	n/a
187.8505	0.21	375701	keystroke_i	i	n/a
187.9105	0.135	375821	keystroke_o	o	n/a
188.0005	0.105	376001	keystroke_n	n	n/a
188.6305	0.09	377261	keystroke_Key.space	Key.space	n/a
188.8555	0.09	377711	keystroke_d	d	n/a
188.9755	0.105	377951	keystroke_i	i	n/a
189.0505	0.105	378101	keystroke_s	s	n/a
189.2905	0.09	378581	keystroke_p	p	n/a
189.4555	0.075	378911	keystroke_a	a	n/a
189.4705	0.105	378941	keystroke_l	l	n/a
189.6655	0.105	379331	keystroke_y	y	n/a
189.7855	0.15	379571	keystroke_i	i	n/a
189.8605	0.09	379721	keystroke_n	n	n/a
189.9205	0.105	379841	keystroke_g	g	n/a
190.9105	0.105	381821	keystroke_Key.space	Key.space	n/a
191.1655	0.075	382331	keystroke_b	b	n/a
191.3305	0.135	382661	keystroke_e	e	n/a
192.1705	0.015	384341	keystroke_e	e	n/a
192.2455	0.135	384491	keystroke_f	f	n/a
193.6405	0.03	387281	keystroke_Key.backspace	Key.backspace	n/a
193.7455	0.075	387491	keystroke_Key.backspace	Key.backspace	n/a
193.8805	0.09	387761	keystroke_Key.backspace	Key.backspace	n/a
193.9855	0.105	387971	keystroke_Key.backspace	Key.backspace	n/a
194.1655	0.06	388331	keystroke_Key.backspace	Key.backspace	n/a
194.3005	0.06	388601	keystroke_Key.backspace	Key.backspace	n/a
194.4205	0.075	388841	keystroke_Key.backspace	Key.backspace	n/a
194.5555	0.06	389111	keystroke_Key.backspace	Key.backspace	n/a
194.6905	0.06	389381	keystroke_Key.backspace	Key.backspace	n/a
194.8255	0.06	389651	keystroke_Key.backspace	Key.backspace	n/a
194.9755	0.045	389951	keystroke_Key.backspace	Key.backspace	n/a
195.2005	0.03	390401	keystroke_l	l	n/a
195.3205	0.075	390641	keystroke_a	a	n/a
195.4855	0.075	390971	keystroke_y	y	n/a
195.5455	0.1495	391091	keystroke_i	i	n/a
195.6355	0.0905	391271	keystroke_n	n	n/a
195.74	0.105	391480	keystroke_g	g	n/a
195.89	0.075	391780	keystroke_Key.space	Key.space	n/a
196.28	0.03	392560	keystroke_f	f	n/a
196.415	0.075	392830	keystroke_b	b	n/a
196.67	0.06	393340	keystroke_Key.backspace	Key.backspace	n/a
196.79	0.075	393580	keystroke_Key.backspace	Key.backspace	n/a
196.835	0.076	393670	keystroke_b	b	n/a
196.985	0.135	393970	keystroke_e	e	n/a
197.135	0.06	394270	keystroke_f	f	n/a
197.285	0.105	394570	keystroke_f	f	n/a
197.555	0.045	395110	keystroke_Key.backspace	Key.backspace	n/a
197.675	0.075	395350	keystroke_Key.backspace	Key.backspace	n/a
197.795	0.12	395590	keystroke_e	e	n/a
197.87	0.12	395740	keystroke_f	f	n/a
198.185	0.075	396370	keystroke_Key.space	Key.space	n/a
198.395	0.06	396790	keystroke_u	u	n/a
198.576	0.044	397152	keystroke_n	n	n/a
198.635	0.075	397270	keystroke_d	d	n/a
198.816	0.134	397632	keystroke_e	e	n/a
198.935	0.075	397870	keystroke_r	r	n/a
199.415	0.091	398830	keystroke_g	g	n/a
199.595	0.061	399190	keystroke_r	r	n/a
199.79	0.12	399580	keystroke_a	a	n/a
200.045	0.12	400090	keystroke_d	d	n/a
200.181	0.104	400362	keystroke_u	u	n/a
200.345	0.075	400690	keystroke_a	a	n/a
200.54	0.061	401080	keystroke_t	t	n/a
200.645	0.12	401290	keystroke_e	e	n/a
200.9	0.105	401800	keystroke_Key.enter	Key.enter	n/a
201.016	7.282	402032	prompt	n/a	movie lying it'll elected\n
201.636	0.104	403272	keystroke_m	m	n/a
202.026	0.104	404052	keystroke_o	o	n/a
202.235	0.075	404470	keystroke_i	i	n/a
202.46	0.091	404920	keystroke_v	v	n/a
202.94	0.045	405880	keystroke_Key.backspace	Key.backspace	n/a
203.03	0.09	406060	keystroke_Key.backspace	Key.backspace	n/a
203.151	0.105	406302	keystroke_v	v	n/a
203.24	0.09	406480	keystroke_i	i	n/a
203.39	0.091	406780	keystroke_e	e	n/a
203.615	0.09	407230	keystroke_Key.space	Key.space	n/a
203.765	0.136	407530	keystroke_l	l	n/a
204.035	0.121	408070	keystroke_y	y	n/a
204.17	0.165	408340	keystroke_i	i	n/a
204.26	0.105	408520	keystroke_n	n	n/a
204.351	0.075	408702	keystroke_g	g	n/a
204.53	0.09	409060	keystroke_Key.space	Key.space	n/a
204.695	0.12	409390	keystroke_i	i	n/a
204.845	0.105	409690	keystroke_t	t	n/a
205.326	0.105	410652	keystroke_'	'	n/a
205.551	0.059	411102	keystroke_l	l	n/a
205.685	0.091	411370	keystroke_l	l	n/a
205.91	0.06	411820	keystroke_Key.space	Key.space	n/a
206.195	0.106	412390	keystroke_e	e	n/a
206.331	0.104	412662	keystroke_l	l	n/a
206.465	0.075	412930	keystroke_e	e	n/a
206.646	0.105	413292	keystroke_c	c	n/a
206.856	0.089	413712	keystroke_t	t	n/a
207.92	0.061	415840	keystroke_e	e	n/a
208.071	0.09	416142	keystroke_d	d	n/a
208.176	0.119	416352	keystroke_Key.enter	Key.enter	n/a
208.304	5.5435	416608	prompt	n/a	ipod forward think relates\n
208.971	0.12	417942	keystroke_i	i	n/a
209.196	0.09	418392	keystroke_p	p	n/a
209.346	0.18	418692	keystroke_o	o	n/a
209.661	0.104	419322	keystroke_d	d	n/a
209.901	0.089	419802	keystroke_Key.space	Key.space	n/a
210.11	0.075	420220	keystroke_f	f	n/a
210.156	0.134	420312	keystroke_o	o	n/a
210.381	0.104	420762	keystroke_w	w	n/a
210.77	0.061	421540	keystroke_a	a	n/a
211.19	0.091	422380	keystroke_r	r	n/a
211.401	0.105	422802	keystroke_d	d	n/a
211.565	0.105	423130	keystroke_Key.space	Key.space	n/a
211.776	0.09	423552	keystroke_t	t	n/a
211.851	0.089	423702	keystroke_h	h	n/a
211.91	0.135	423820	keystroke_i	i	n/a
212.031	0.165	424062	keystroke_n	n	n/a
212.12	0.12	424240	keystroke_k	k	n/a
212.376	0.059	424752	keystroke_Key.space	Key.space	n/a
212.676	0.105	425352	keystroke_r	r	n/a
212.796	0.105	425592	keystroke_e	e	n/a
212.961	0.135	425922	keystroke_l	l	n/a
213.096	0.075	426192	keystroke_a	a	n/a
213.246	0.105	426492	keystroke_t	t	n/a
213.366	0.09	426732	keystroke_e	e	n/a
213.546	0.1045	427092	keystroke_s	s	n/a
213.7395	0.105	427479	keystroke_Key.enter	Key.enter	n/a
213.852	7.1655	427704	prompt	n/a	services colleges pregnant goat\n
214.3855	0.045	428771	keystroke_e	e	n/a
214.6545	0.06	429309	keystroke_Key.backspace	Key.backspace	n/a
214.7005	0.075	429401	keystroke_s	s	n/a
214.8205	0.135	429641	keystroke_e	e	n/a
214.9405	0.06	429881	keystroke_r	r	n/a
215.1355	0.09	430271	keystroke_v	v	n/a
215.2405	0.09	430481	keystroke_i	i	n/a
215.3305	0.09	430661	keystroke_c	c	n/a
215.4955	0.044	430991	keystroke_e	e	n/a
215.6305	0.12	431261	keystroke_s	s	n/a
215.7645	0.091	431529	keystroke_Key.space	Key.space	n/a
215.8855	0.09	431771	keystroke_c	c	n/a
215.9605	0.105	431921	keystroke_o	o	n/a
216.1255	0.09	432251	keystroke_l	l	n/a
216.2755	0.06	432551	keystroke_l	l	n/a
216.3505	0.105	432701	keystroke_e	e	n/a
216.5145	0.061	433029	keystroke_g	g	n/a
216.6205	0.135	433241	keystroke_e	e	n/a
216.8755	0.089	433751	keystroke_s	s	n/a
216.9805	0.075	433961	keystroke_Key.space	Key.space	n/a
217.5505	0.12	435101	keystroke_p	p	n/a
217.6555	0.06	435311	keystroke_e	e	n/a
218.0005	0.075	436001	keystroke_Key.backspace	Key.backspace	n/a
218.0905	0.09	436181	keystroke_r	r	n/a
218.1505	0.105	436301	keystroke_e	e	n/a
218.3605	0.06	436721	keystroke_g	g	n/a
218.5555	0.06	437111	keystroke_n	n	n/a
218.9155	0.045	437831	keystroke_n	n	n/a
219.1845	0.06	438369	keystroke_Key.backspace	Key.backspace	n/a
219.2605	0.105	438521	keystroke_a	a	n/a
219.3805	0.06	438761	keystroke_n	n	n/a
219.5005	0.09	439001	keystroke_t	t	n/a
219.9355	0.105	439871	keystroke_Key.space	Key.space	n/a
220.1155	0.09	440231	keystroke_g	g	n/a
220.2205	0.09	440441	keystroke_o	o	n/a
220.3255	0.12	440651	keystroke_a	a	n/a
220.7455	0.09	441491	keystroke_t	t	n/a
220.9105	0.105	441821	keystroke_Key.enter	Key.enter	n/a
221.0225	8.05	442045	prompt	n/a	agree merchant bahrain southern\n
221.5105	0.09	443021	keystroke_a	a	n/a
221.6605	0.09	443321	keystroke_g	g	n/a
221.8555	0.12	443711	keystroke_r	r	n/a
221.9605	0.075	443921	keystroke_e	e	n/a
222.1255	0.105	444251	keystroke_e	e	n/a
222.2605	0.105	444521	keystroke_Key.space	Key.space	n/a
222.3805	0.12	444761	keystroke_m	m	n/a
222.4855	0.105	444971	keystroke_e	e	n/a
222.6655	0.105	445331	keystroke_r	r	n/a
222.9505	0.105	445901	keystroke_c	c	n/a
223.3705	0.09	446741	keystroke_h	h	n/a
223.5205	0.12	447041	keystroke_a	a	n/a
223.6405	0.075	447281	keystroke_n	n	n/a
224.2555	0.24	448511	keystroke_t	t	n/a
224.5105	0.03	449021	keystroke_Key.space	Key.space	n/a
224.6155	0.075	449231	keystroke_b	b	n/a
224.8855	0.09	449771	keystroke_a	a	n/a
225.1105	0.105	450221	keystroke_h	h	n/a
225.6055	0.09	451211	keystroke_r	r	n/a
225.8755	0.09	451751	keystroke_a	a	n/a
225.9505	0.15	451901	keystroke_i	i	n/a
226.0405	0.105	452081	keystroke_n	n	n/a
226.1755	0.105	452351	keystroke_Key.space	Key.space	n/a
226.3405	0.105	452681	keystroke_s	s	n/a
226.4755	0.105	452951	keystroke_o	o	n/a
226.6255	0.105	453251	keystroke_u	u	n/a
226.7905	0.09	453581	keystroke_t	t	n/a
226.8955	0.075	453791	keystroke_h	h	n/a
227.0455	0.135	454091	keystroke_e	e	n/a
227.2405	0.075	454481	keystroke_r	r	n/a
227.3305	0.105	454661	keystroke_n	n	n/a
228.9655	0.105	457931	keystroke_Key.enter	Key.enter	n/a
229.079	7.8685	458158	prompt	n/a	investigators alive reprints java\n
229.7005	0.15	459401	keystroke_i	i	n/a
229.8055	0.09	459611	keystroke_n	n	n/a
230.0305	0.045	460061	keystroke_v	v	n/a
230.1805	0.075	460361	keystroke_e	e	n/a
230.3455	0.105	460691	keystroke_s	s	n/a
230.6005	0.105	461201	keystroke_t	t	n/a
230.8255	0.09	461651	keystroke_i	i	n/a
230.9755	0.075	461951	keystroke_g	g	n/a
231.1705	0.09	462341	keystroke_a	a	n/a
231.3955	0.09	462791	keystroke_t	t	n/a
231.5005	0.105	463001	keystroke_o	o	n/a
231.6065	0.044	463213	keystroke_r	r	n/a
231.8455	0.105	463691	keystroke_s	s	n/a
232.3105	0.09	464621	keystroke_Key.space	Key.space	n/a
232.5355	0.09	465071	keystroke_a	a	n/a
232.6555	0.12	465311	keystroke_l	l	n/a
232.7155	0.135	465431	keystroke_i	i	n/a
232.8355	0.075	465671	keystroke_v	v	n/a
233.0155	0.105	466031	keystroke_e	e	n/a
233.3005	0.09	466601	keystroke_Key.space	Key.space	n/a
233.5405	0.09	467081	keystroke_r	r	n/a
233.6905	0.135	467381	keystroke_e	e	n/a
234.2755	0.105	468551	keystroke_p	p	n/a
234.5005	0.075	469001	keystroke_r	r	n/a
234.5605	0.15	469121	keystroke_i	i	n/a
234.7405	0.105	469481	keystroke_n	n	n/a
234.8305	0.12	469661	keystroke_t	t	n/a
235.4155	0.105	470831	keystroke_s	s	n/a
235.5655	0.105	471131	keystroke_Key.space	Key.space	n/a
235.8505	0.09	471701	keystroke_j	j	n/a
235.9255	0.12	471851	keystroke_a	a	n/a
236.1505	0.045	472301	keystroke_b	b	n/a
236.5405	0.075	473081	keystroke_Key.backspace	Key.backspace	n/a
236.6005	0.105	473201	keystroke_v	v	n/a
236.6605	0.12	473321	keystroke_a	a	n/a
236.8255	0.12	473651	keystroke_Key.enter	Key.enter	n/a
236.953	7.929	473906	prompt	n/a	fares infinite collections backed\n
237.4855	0.09	474971	keystroke_f	f	n/a
237.6355	0.09	475271	keystroke_a	a	n/a
237.8305	0.09	475661	keystroke_r	r	n/a
237.9655	0.105	475931	keystroke_e	e	n/a
238.1455	0.12	476291	keystroke_s	s	n/a
238.3405	0.09	476681	keystroke_Key.space	Key.space	n/a
238.7305	0.135	477461	keystroke_i	i	n/a
238.8355	0.12	477671	keystroke_n	n	n/a
239.1955	0.12	478391	keystroke_f	f	n/a
239.3305	0.12	478661	keystroke_i	i	n/a
239.6605	0.075	479321	keystroke_n	n	n/a
239.8105	0.105	479621	keystroke_i	i	n/a
239.9455	0.075	479891	keystroke_t	t	n/a
240.0955	0.105	480191	keystroke_e	e	n/a
240.2455	0.12	480491	keystroke_Key.space	Key.space	n/a
240.4105	0.105	480821	keystroke_c	c	n/a
240.5015	0.089	481003	keystroke_o	o	n/a
240.6955	0.075	481391	keystroke_l	l	n/a
240.8455	0.075	481691	keystroke_l	l	n/a
240.9655	0.09	481931	keystroke_e	e	n/a
241.5055	0.105	483011	keystroke_c	c	n/a
241.7455	0.075	483491	keystroke_t	t	n/a
241.8355	0.15	483671	keystroke_i	i	n/a
241.9555	0.06	483911	keystroke_o	o	n/a
242.1355	0.03	484271	keystroke_o	o	n/a
242.1805	0.09	484361	keystroke_n	n	n/a
242.5855	0.045	485171	keystroke_Key.backspace	Key.backspace	n/a
242.6905	0.075	485381	keystroke_Key.backspace	Key.backspace	n/a
242.8705	0.09	485741	keystroke_n	n	n/a
243.0355	0.09	486071	keystroke_s	s	n/a
243.3805	0.09	486761	keystroke_Key.space	Key.space	n/a
243.5905	0.075	487181	keystroke_b	b	n/a
243.7405	0.105	487481	keystroke_a	a	n/a
243.9205	0.12	487841	keystroke_c	c	n/a
243.9505	0.105	487901	keystroke_k	k	n/a
244.2205	0.09	488441	keystroke_e	e	n/a
244.4305	0.0895	488861	keystroke_d	d	n/a
244.79	0.09	489580	keystroke_Key.enter	Key.enter	n/a
244.888	5.5595	489776	prompt	n/a	cheap booking branch expansion\n
245.42	0.015	490840	keystroke_d	d	n/a
245.54	0.06	491080	keystroke_c	c	n/a
245.735	0.045	491470	keystroke_Key.backspace	Key.backspace	n/a
245.855	0.0905	491710	keystroke_Key.backspace	Key.backspace	n/a
245.975	0.1055	491950	keystroke_c	c	n/a
246.245	0.1505	492490	keystroke_h	h	n/a
246.365	0.075	492730	keystroke_e	e	n/a
246.4855	0.12	492971	keystroke_a	a	n/a
246.62	0.105	493240	keystroke_p	p	n/a
246.74	0.09	493480	keystroke_Key.space	Key.space	n/a
246.935	0.09	493870	keystroke_b	b	n/a
246.995	0.075	493990	keystroke_o	o	n/a
247.145	0.135	494290	keystroke_o	o	n/a
247.25	0.105	494500	keystroke_k	k	n/a
247.445	0.15	494890	keystroke_i	i	n/a
247.535	0.075	495070	keystroke_n	n	n/a
247.6405	0.0895	495281	keystroke_g	g	n/a
247.7	0.1055	495400	keystroke_Key.space	Key.space	n/a
247.94	0.045	495880	keystroke_b	b	n/a
248.105	0.075	496210	keystroke_r	r	n/a
248.3	0.09	496600	keystroke_a	a	n/a
248.405	0.06	496810	keystroke_n	n	n/a
248.495	0.105	496990	keystroke_c	c	n/a
248.705	0.075	497410	keystroke_h	h	n/a
248.81	0.075	497620	keystroke_Key.space	Key.space	n/a
248.945	0.09	497890	keystroke_e	e	n/a
249.14	0.09	498280	keystroke_x	x	n/a
249.305	0.09	498610	keystroke_p	p	n/a
249.41	0.105	498820	keystroke_a	a	n/a
249.56	0.075	499120	keystroke_n	n	n/a
249.71	0.09	499420	keystroke_s	s	n/a
249.815	0.27	499630	keystroke_i	i	n/a
249.95	0.105	499900	keystroke_o	o	n/a
249.995	0.135	499990	keystroke_n	n	n/a
250.34	0.105	500680	keystroke_Key.enter	Key.enter	n/a
250.453	6.1595	500906	prompt	n/a	oman nursing go norway\n
250.97	0.135	501940	keystroke_o	o	n/a
251.09	0.03	502180	keystroke_n	n	n/a
251.33	0.045	502660	keystroke_Key.backspace	Key.backspace	n/a
251.526	0.059	503052	keystroke_m	m	n/a
251.63	0.105	503260	keystroke_a	a	n/a
251.72	0.06	503440	keystroke_n	n	n/a
251.84	0.09	503680	keystroke_Key.space	Key.space	n/a
252.035	0.06	504070	keystroke_r	r	n/a
252.305	0.045	504610	keystroke_Key.backspace	Key.backspace	n/a
252.501	0.074	505002	keystroke_n	n	n/a
252.695	0.105	505390	keystroke_u	u	n/a
252.995	0.105	505990	keystroke_r	r	n/a
253.265	0.09	506530	keystroke_s	s	n/a
253.415	0.165	506830	keystroke_i	i	n/a
253.52	0.105	507040	keystroke_n	n	n/a
253.626	0.059	507252	keystroke_g	g	n/a
253.715	0.06	507430	keystroke_Key.space	Key.space	n/a
253.776	0.119	507552	keystroke_o	o	n/a
254.15	0.06	508300	keystroke_Key.backspace	Key.backspace	n/a
254.255	0.09	508510	keystroke_g	g	n/a
254.36	0.105	508720	keystroke_o	o	n/a
254.495	0.09	508990	keystroke_Key.space	Key.space	n/a
254.66	0.09	509320	keystroke_n	n	n/a
254.72	0.12	509440	keystroke_o	o	n/a
254.855	0.12	509710	keystroke_r	r	n/a
254.96	0.09	509920	keystroke_m	m	n/a
255.29	0.075	510580	keystroke_Key.backspace	Key.backspace	n/a
255.485	0.075	510970	keystroke_w	w	n/a
255.695	0.06	511390	keystroke_a	a	n/a
255.86	0.12	511720	keystroke_y	y	n/a
256.505	0.105	513010	keystroke_Key.enter	Key.enter	n/a
256.6175	5.62	513235	prompt	n/a	hang indian expedia trained\n
257.15	0.105	514300	keystroke_h	h	n/a
257.285	0.105	514570	keystroke_a	a	n/a
257.36	0.12	514720	keystroke_n	n	n/a
257.495	0.09	514990	keystroke_g	g	n/a
257.615	0.075	515230	keystroke_Key.space	Key.space	n/a
257.735	0.075	515470	keystroke_i	i	n/a
257.84	0.06	515680	keystroke_n	n	n/a
257.99	0.15	515980	keystroke_d	d	n/a
258.125	0.075	516250	keystroke_i	i	n/a
258.245	0.12	516490	keystroke_a	a	n/a
258.35	0.075	516700	keystroke_n	n	n/a
258.47	0.09	516940	keystroke_Key.space	Key.space	n/a
258.65	0.075	517300	keystroke_e	e	n/a
258.845	0.105	517690	keystroke_x	x	n/a
259.025	0.106	518050	keystroke_p	p	n/a
259.145	0.105	518290	keystroke_e	e	n/a
259.4	0.06	518800	keystroke_i	i	n/a
259.445	0.09	518890	keystroke_d	d	n/a
260.12	0.075	520240	keystroke_Key.backspace	Key.backspace	n/a
260.255	0.105	520510	keystroke_Key.backspace	Key.backspace	n/a
260.375	0.12	520750	keystroke_d	d	n/a
260.48	0.06	520960	keystroke_i	i	n/a
260.585	0.12	521170	keystroke_a	a	n/a
260.78	0.075	521560	keystroke_Key.space	Key.space	n/a
260.96	0.06	521920	keystroke_t	t	n/a
261.11	0.06	522220	keystroke_r	r	n/a
261.275	0.12	522550	keystroke_a	a	n/a
261.38	0.105	522760	keystroke_i	i	n/a
261.575	0.075	523150	keystroke_n	n	n/a
261.77	0.075	523540	keystroke_e	e	n/a
261.935	0.091	523870	keystroke_d	d	n/a
262.145	0.09	524290	keystroke_Key.enter	Key.enter	n/a
262.2435	10.5385	524487	prompt	n/a	photos so're initiative processing\n
262.76	0.091	525520	keystroke_p	p	n/a
262.955	0.09	525910	keystroke_h	h	n/a
263.15	0.105	526300	keystroke_o	o	n/a
263.526	0.089	527052	keystroke_t	t	n/a
263.705	0.09	527410	keystroke_o	o	n/a
263.99	0.076	527980	keystroke_s	s	n/a
264.17	0.06	528340	keystroke_Key.space	Key.space	n/a
264.365	0.075	528730	keystroke_s	s	n/a
264.47	0.075	528940	keystroke_o	o	n/a
265.265	0.105	530530	keystroke_'	'	n/a
265.595	0.15	531190	keystroke_r	r	n/a
265.685	0.136	531370	keystroke_e	e	n/a
266.12	0.075	532240	keystroke_Key.space	Key.space	n/a
266.66	0.15	533320	keystroke_i	i	n/a
266.751	0.089	533502	keystroke_n	n	n/a
267.035	0.105	534070	keystroke_t	t	n/a
267.23	0.105	534460	keystroke_i	i	n/a
269.15	0.06	538300	keystroke_Key.backspace	Key.backspace	n/a
269.27	0.09	538540	keystroke_Key.backspace	Key.backspace	n/a
269.496	0.089	538992	keystroke_i	i	n/a
269.676	0.104	539352	keystroke_t	t	n/a
269.766	0.104	539532	keystroke_i	i	n/a
270.441	0.06	540882	keystroke_a	a	n/a
270.621	0.074	541242	keystroke_t	t	n/a
270.71	0.106	541420	keystroke_i	i	n/a
270.801	0.075	541602	keystroke_v	v	n/a
270.935	0.12	541870	keystroke_e	e	n/a
271.04	0.105	542080	keystroke_Key.space	Key.space	n/a
271.251	0.09	542502	keystroke_p	p	n/a
271.341	0.105	542682	keystroke_r	r	n/a
271.46	0.12	542920	keystroke_o	o	n/a
271.671	0.134	543342	keystroke_c	c	n/a
271.91	0.06	543820	keystroke_e	e	n/a
272.076	0.045	544152	keystroke_s	s	n/a
272.226	0.075	544452	keystroke_s	s	n/a
272.33	0.121	544660	keystroke_i	i	n/a
272.405	0.12	544810	keystroke_n	n	n/a
272.481	0.09	544962	keystroke_g	g	n/a
272.69	0.09	545380	keystroke_Key.enter	Key.enter	n/a
272.7865	5.9655	545573	prompt	n/a	these ways appreciate burke\n
273.38	0.091	546760	keystroke_t	t	n/a
273.455	0.091	546910	keystroke_h	h	n/a
273.546	0.089	547092	keystroke_e	e	n/a
273.696	0.105	547392	keystroke_s	s	n/a
273.831	0.104	547662	keystroke_e	e	n/a
273.965	0.09	547930	keystroke_Key.space	Key.space	n/a
274.13	0.091	548260	keystroke_w	w	n/a
274.401	0.119	548802	keystroke_a	a	n/a
274.535	0.075	549070	keystroke_y	y	n/a
274.791	0.135	549582	keystroke_s	s	n/a
275.165	0.09	550330	keystroke_Key.space	Key.space	n/a
275.526	0.12	551052	keystroke_a	a	n/a
275.646	0.075	551292	keystroke_p	p	n/a
275.795	0.106	551590	keystroke_p	p	n/a
275.991	0.09	551982	keystroke_r	r	n/a
276.276	0.09	552552	keystroke_e	e	n/a
276.56	0.016	553120	keystroke_c	c	n/a
276.71	0.106	553420	keystroke_i	i	n/a
277.13	0.105	554260	keystroke_a	a	n/a
277.31	0.046	554620	keystroke_t	t	n/a
277.385	0.12	554770	keystroke_e	e	n/a
277.535	0.106	555070	keystroke_Key.space	Key.space	n/a
277.791	0.075	555582	keystroke_b	b	n/a
277.941	0.105	555882	keystroke_u	u	n/a
278.196	0.089	556392	keystroke_r	r	n/a
278.346	0.12	556692	keystroke_k	k	n/a
278.451	0.104	556902	keystroke_e	e	n/a
278.66	0.091	557320	keystroke_Key.enter	Key.enter	n/a
278.761	8.211	557522	prompt	n/a	lincoln minister border warrior\n
279.231	0.06	558462	keystroke_i	i	n/a
279.47	0.045	558940	keystroke_Key.backspace	Key.backspace	n/a
279.666	0.06	559332	keystroke_l	l	n/a
279.681	0.164	559362	keystroke_i	i	n/a
280.026	0.105	560052	keystroke_n	n	n/a
280.356	0.0895	560712	keystroke_c	c	n/a
280.5805	0.045	561161	keystroke_o	o	n/a
280.7455	0.0595	561491	keystroke_l	l	n/a
281.1055	0.09	562211	keystroke_n	n	n/a
281.3605	0.105	562721	keystroke_Key.space	Key.space	n/a
281.5855	0.075	563171	keystroke_m	m	n/a
281.7355	0.09	563471	keystroke_i	i	n/a
281.9905	0.075	563981	keystroke_n	n	n/a
282.1855	0.09	564371	keystroke_i	i	n/a
282.3055	0.105	564611	keystroke_s	s	n/a
282.5155	0.09	565031	keystroke_t	t	n/a
282.6355	0.106	565271	keystroke_o	o	n/a
282.7555	0.075	565511	keystroke_r	r	n/a
283.0105	0.06	566021	keystroke_Key.backspace	Key.backspace	n/a
283.1755	0.09	566351	keystroke_Key.backspace	Key.backspace	n/a
283.3105	0.135	566621	keystroke_e	e	n/a
283.4605	0.105	566921	keystroke_r	r	n/a
283.7305	0.075	567461	keystroke_Key.space	Key.space	n/a
283.985	0.075	567970	keystroke_b	b	n/a
284.1655	0.105	568331	keystroke_o	o	n/a
284.3005	0.0905	568601	keystroke_r	r	n/a
284.57	0.0905	569140	keystroke_d	d	n/a
284.765	0.12	569530	keystroke_e	e	n/a
284.841	0.119	569682	keystroke_r	r	n/a
284.975	0.105	569950	keystroke_Key.space	Key.space	n/a
285.095	0.12	570190	keystroke_w	w	n/a
285.245	0.105	570490	keystroke_a	a	n/a
285.425	0.075	570850	keystroke_r	r	n/a
285.59	0.075	571180	keystroke_r	r	n/a
285.68	0.075	571360	keystroke_i	i	n/a
285.965	0.12	571930	keystroke_o	o	n/a
286.07	0.105	572140	keystroke_r	r	n/a
286.85	0.12	573700	keystroke_Key.enter	Key.enter	n/a
286.977	6.205	573954	prompt	n/a	position float ranking decline\n
287.465	0.09	574930	keystroke_p	p	n/a
287.72	0.075	575440	keystroke_o	o	n/a
287.855	0.105	575710	keystroke_s	s	n/a
288.02	0.12	576040	keystroke_i	i	n/a
288.32	0.09	576640	keystroke_t	t	n/a
288.44	0.09	576880	keystroke_i	i	n/a
288.68	0.1955	577360	keystroke_i	i	n/a
288.74	0.1055	577480	keystroke_o	o	n/a
289.1305	0.045	578261	keystroke_Key.backspace	Key.backspace	n/a
289.2505	0.09	578501	keystroke_Key.backspace	Key.backspace	n/a
289.4755	0.12	578951	keystroke_o	o	n/a
289.5355	0.12	579071	keystroke_n	n	n/a
290.0605	0.074	580121	keystroke_Key.space	Key.space	n/a
290.2855	0.105	580571	keystroke_f	f	n/a
290.3755	0.105	580751	keystroke_l	l	n/a
290.5555	0.12	581111	keystroke_o	o	n/a
290.6455	0.09	581291	keystroke_a	a	n/a
290.8105	0.09	581621	keystroke_t	t	n/a
290.9305	0.12	581861	keystroke_Key.space	Key.space	n/a
291.1105	0.09	582221	keystroke_r	r	n/a
291.2755	0.105	582551	keystroke_a	a	n/a
291.3955	0.09	582791	keystroke_n	n	n/a
291.5005	0.09	583001	keystroke_k	k	n/a
291.6655	0.18	583331	keystroke_i	i	n/a
291.7405	0.12	583481	keystroke_n	n	n/a
291.8305	0.105	583661	keystroke_g	g	n/a
291.9205	0.089	583841	keystroke_Key.space	Key.space	n/a
292.1605	0.075	584321	keystroke_d	d	n/a
292.3255	0.09	584651	keystroke_e	e	n/a
292.5355	0.09	585071	keystroke_c	c	n/a
292.6405	0.135	585281	keystroke_l	l	n/a
292.7305	0.165	585461	keystroke_i	i	n/a
292.8055	0.12	585611	keystroke_n	n	n/a
292.8955	0.105	585791	keystroke_e	e	n/a
293.0605	0.12	586121	keystroke_Key.enter	Key.enter	n/a
293.188	5.889	586376	prompt	n/a	gadgets palmer sugar southwest\n
293.7655	0.09	587531	keystroke_g	g	n/a
293.9155	0.12	587831	keystroke_a	a	n/a
294.1105	0.12	588221	keystroke_d	d	n/a
294.3505	0.075	588701	keystroke_g	g	n/a
294.4555	0.135	588911	keystroke_e	e	n/a
294.5755	0.06	589151	keystroke_t	t	n/a
294.7555	0.12	589511	keystroke_s	s	n/a
294.9205	0.09	589841	keystroke_Key.space	Key.space	n/a
295.2805	0.09	590561	keystroke_p	p	n/a
295.4305	0.06	590861	keystroke_a	a	n/a
295.5055	0.09	591011	keystroke_l	l	n/a
295.8505	0.105	591701	keystroke_m	m	n/a
295.9405	0.12	591881	keystroke_e	e	n/a
296.0905	0.105	592181	keystroke_r	r	n/a
296.2555	0.105	592511	keystroke_Key.space	Key.space	n/a
296.4355	0.105	592871	keystroke_s	s	n/a
296.5555	0.105	593111	keystroke_u	u	n/a
296.7805	0.075	593561	keystroke_g	g	n/a
296.8855	0.18	593771	keystroke_e	e	n/a
296.9905	0.15	593981	keystroke_r	r	n/a
297.2005	0.165	594401	keystroke_Key.space	Key.space	n/a
297.4255	0.075	594851	keystroke_s	s	n/a
297.5155	0.09	595031	keystroke_o	o	n/a
297.6505	0.105	595301	keystroke_u	u	n/a
297.7705	0.075	595541	keystroke_t	t	n/a
297.8755	0.09	595751	keystroke_h	h	n/a
298.0555	0.105	596111	keystroke_w	w	n/a
298.2055	0.15	596411	keystroke_e	e	n/a
298.4005	0.105	596801	keystroke_s	s	n/a
298.5505	0.105	597101	keystroke_t	t	n/a
298.9405	0.135	597881	keystroke_Key.enter	Key.enter	n/a
299.083	7.149	598166	prompt	n/a	landscape perspective liked divx\n
299.6005	0.075	599201	keystroke_l	l	n/a
299.7055	0.135	599411	keystroke_a	a	n/a
299.8255	0.09	599651	keystroke_n	n	n/a
299.9305	0.105	599861	keystroke_d	d	n/a
300.1705	0.09	600341	keystroke_e	e	n/a
300.7555	0.06	601511	keystroke_Key.backspace	Key.backspace	n/a
300.8605	0.09	601721	keystroke_s	s	n/a
301.1905	0.12	602381	keystroke_c	c	n/a
301.4155	0.105	602831	keystroke_a	a	n/a
301.5805	0.12	603161	keystroke_p	p	n/a
301.7155	0.12	603431	keystroke_e	e	n/a
302.1055	0.09	604211	keystroke_Key.space	Key.space	n/a
302.4505	0.105	604901	keystroke_p	p	n/a
302.5405	0.105	605081	keystroke_e	e	n/a
302.6755	0.105	605351	keystroke_r	r	n/a
303.1105	0.135	606221	keystroke_s	s	n/a
303.2755	0.12	606551	keystroke_p	p	n/a
303.4405	0.09	606881	keystroke_e	e	n/a
303.6655	0.105	607331	keystroke_c	c	n/a
303.9055	0.06	607811	keystroke_t	t	n/a
303.9805	0.105	607961	keystroke_i	i	n/a
304.0855	0.075	608171	keystroke_v	v	n/a
304.2055	0.12	608411	keystroke_e	e	n/a
304.3105	0.09	608621	keystroke_Key.space	Key.space	n/a
304.4005	0.105	608801	keystroke_l	l	n/a
304.6105	0.075	609221	keystroke_i	i	n/a
304.8055	0.09	609611	keystroke_k	k	n/a
304.8805	0.075	609761	keystroke_e	e	n/a
305.0605	0.09	610121	keystroke_d	d	n/a
305.1655	0.09	610331	keystroke_Key.space	Key.space	n/a
305.3755	0.105	610751	keystroke_d	d	n/a
305.4955	0.105	610991	keystroke_i	i	n/a
305.6155	0.075	611231	keystroke_v	v	n/a
305.8405	0.135	611681	keystroke_x	x	n/a
306.1255	0.105	612251	keystroke_Key.enter	Key.enter	n/a
306.238	6.159	612476	prompt	n/a	phones pools spectrum doing\n
306.8005	0.075	613601	keystroke_p	p	n/a
306.9505	0.09	613901	keystroke_h	h	n/a
307.0255	0.12	614051	keystroke_o	o	n/a
307.1305	0.09	614261	keystroke_n	n	n/a
307.2355	0.075	614471	keystroke_e	e	n/a
307.3855	0.12	614771	keystroke_s	s	n/a
307.5055	0.075	615011	keystroke_Key.space	Key.space	n/a
307.8955	0.105	615791	keystroke_p	p	n/a
308.0305	0.105	616061	keystroke_o	o	n/a
308.3905	0.09	616781	keystroke_o	o	n/a
308.5855	0.105	617171	keystroke_l	l	n/a
308.8405	0.075	617681	keystroke_s	s	n/a
308.9755	0.09	617951	keystroke_Key.space	Key.space	n/a
309.1255	0.105	618251	keystroke_e	e	n/a
309.4255	0.075	618851	keystroke_Key.backspace	Key.backspace	n/a
309.5155	0.105	619031	keystroke_s	s	n/a
309.7105	0.09	619421	keystroke_p	p	n/a
309.9955	0.075	619991	keystroke_e	e	n/a
310.1905	0.105	620381	keystroke_c	c	n/a
310.4155	0.09	620831	keystroke_t	t	n/a
310.6405	0.03	621281	keystroke_r	r	n/a
310.6555	0.09	621311	keystroke_u	u	n/a
311.3005	0.105	622601	keystroke_m	m	n/a
311.4505	0.12	622901	keystroke_Key.space	Key.space	n/a
311.7055	0.12	623411	keystroke_d	d	n/a
311.8105	0.06	623621	keystroke_o	o	n/a
311.9305	0.18	623861	keystroke_i	i	n/a
312.0355	0.12	624071	keystroke_n	n	n/a
312.0955	0.075	624191	keystroke_g	g	n/a
312.2905	0.105	624581	keystroke_Key.enter	Key.enter	n/a
312.402	9.2805	624804	prompt	n/a	xerox fields brands pharmacies\n
313.0705	0.06	626141	keystroke_x	x	n/a
313.2505	0.09	626501	keystroke_e	e	n/a
313.4455	0.105	626891	keystroke_r	r	n/a
313.5805	0.1055	627161	keystroke_o	o	n/a
313.746	0.104	627492	keystroke_x	x	n/a
314.045	0.045	628090	keystroke_Key.space	Key.space	n/a
314.15	0.105	628300	keystroke_f	f	n/a
314.285	0.09	628570	keystroke_i	i	n/a
314.48	0.12	628960	keystroke_l	l	n/a
314.571	0.075	629142	keystroke_e	e	n/a
314.75	0.075	629500	keystroke_d	d	n/a
315.125	0.045	630250	keystroke_Key.backspace	Key.backspace	n/a
315.245	0.06	630490	keystroke_Key.backspace	Key.backspace	n/a
315.365	0.09	630730	keystroke_Key.backspace	Key.backspace	n/a
315.561	0.075	631122	keystroke_i	i	n/a
315.696	0.104	631392	keystroke_e	e	n/a
315.771	0.059	631542	keystroke_l	l	n/a
316.04	0.045	632080	keystroke_Key.backspace	Key.backspace	n/a
316.16	0.18	632320	keystroke_Key.backspace	Key.backspace	n/a
316.46	0.075	632920	keystroke_Key.backspace	Key.backspace	n/a
316.611	0.089	633222	keystroke_e	e	n/a
316.716	0.089	633432	keystroke_l	l	n/a
316.836	0.119	633672	keystroke_d	d	n/a
317.555	0.091	635110	keystroke_s	s	n/a
317.6595	0.105	635319	keystroke_Key.space	Key.space	n/a
317.915	0.0895	635830	keystroke_b	b	n/a
318.3045	0.06	636609	keystroke_r	r	n/a
318.4705	0.09	636941	keystroke_a	a	n/a
318.5455	0.104	637091	keystroke_n	n	n/a
318.6645	0.09	637329	keystroke_d	d	n/a
318.8145	0.09	637629	keystroke_s	s	n/a
318.9205	0.0895	637841	keystroke_Key.space	Key.space	n/a
319.1145	0.106	638229	keystroke_p	p	n/a
319.3705	0.09	638741	keystroke_h	h	n/a
319.7455	0.09	639491	keystroke_a	a	n/a
319.9855	0.089	639971	keystroke_r	r	n/a
320.5995	0.121	641199	keystroke_m	m	n/a
320.7805	0.119	641561	keystroke_a	a	n/a
321.0355	0.089	642071	keystroke_c	c	n/a
321.1705	0.104	642341	keystroke_i	i	n/a
321.2905	0.045	642581	keystroke_e	e	n/a
321.4105	0.105	642821	keystroke_s	s	n/a
321.5745	0.105	643149	keystroke_Key.enter	Key.enter	n/a
321.688	7.15	643376	prompt	n/a	perhaps daddy appliance italia\n
322.2055	0.09	644411	keystroke_p	p	n/a
322.4005	0.104	644801	keystroke_e	e	n/a
322.5655	0.074	645131	keystroke_r	r	n/a
322.7605	0.105	645521	keystroke_h	h	n/a
322.8795	0.091	645759	keystroke_a	a	n/a
322.9245	0.106	645849	keystroke_p	p	n/a
323.0905	0.12	646181	keystroke_s	s	n/a
323.2395	0.105	646479	keystroke_Key.space	Key.space	n/a
323.9295	0.166	647859	keystroke_d	d	n/a
324.1995	0.091	648399	keystroke_a	a	n/a
324.6505	0.074	649301	keystroke_d	d	n/a
324.8155	0.075	649631	keystroke_d	d	n/a
325.0405	0.105	650081	keystroke_y	y	n/a
325.2205	0.09	650441	keystroke_Key.space	Key.space	n/a
325.4295	0.075	650859	keystroke_p	p	n/a
325.6855	0.075	651371	keystroke_Key.backspace	Key.backspace	n/a
325.7755	0.12	651551	keystroke_a	a	n/a
325.8955	0.104	651791	keystroke_p	p	n/a
326.0605	0.09	652121	keystroke_p	p	n/a
326.2255	0.135	652451	keystroke_l	l	n/a
326.3155	0.12	652631	keystroke_i	i	n/a
326.5705	0.105	653141	keystroke_a	a	n/a
326.7205	0.09	653441	keystroke_n	n	n/a
326.8255	0.075	653651	keystroke_c	c	n/a
327.0205	0.045	654041	keystroke_e	e	n/a
327.3045	0.075	654609	keystroke_Key.space	Key.space	n/a
327.5155	0.12	655031	keystroke_i	i	n/a
327.7555	0.075	655511	keystroke_t	t	n/a
327.9505	0.105	655901	keystroke_a	a	n/a
328.1005	0.135	656201	keystroke_l	l	n/a
328.2355	0.135	656471	keystroke_i	i	n/a
328.5055	0.105	657011	keystroke_a	a	n/a
328.7305	0.105	657461	keystroke_Key.enter	Key.enter	n/a
328.8425	4.5845	657685	prompt	n/a	normal woods farms caps\n
329.4355	0.03	658871	keystroke_m	m	n/a
329.7795	0.045	659559	keystroke_Key.backspace	Key.backspace	n/a
329.9455	0.09	659891	keystroke_n	n	n/a
330.0505	0.105	660101	keystroke_o	o	n/a
330.1705	0.09	660341	keystroke_r	r	n/a
330.2455	0.09	660491	keystroke_m	m	n/a
330.3805	0.12	660761	keystroke_a	a	n/a
330.5155	0.09	661031	keystroke_l	l	n/a
330.7705	0.075	661541	keystroke_Key.space	Key.space	n/a
330.9505	0.105	661901	keystroke_w	w	n/a
331.0405	0.045	662081	keystroke_o	o	n/a
331.1605	0.09	662321	keystroke_o	o	n/a
331.2955	0.105	662591	keystroke_d	d	n/a
331.4305	0.105	662861	keystroke_s	s	n/a
331.6105	0.09	663221	keystroke_Key.space	Key.space	n/a
331.9405	0.09	663881	keystroke_f	f	n/a
332.0905	0.135	664181	keystroke_a	a	n/a
332.33	0.075	664660	keystroke_r	r	n/a
332.42	0.105	664840	keystroke_m	m	n/a
332.526	0.119	665052	keystroke_s	s	n/a
332.66	0.06	665320	keystroke_Key.space	Key.space	n/a
332.855	0.12	665710	keystroke_c	c	n/a
332.99	0.075	665980	keystroke_a	a	n/a
333.05	0.12	666100	keystroke_p	p	n/a
333.155	0.106	666310	keystroke_s	s	n/a
333.32	0.105	666640	keystroke_Key.enter	Key.enter	n/a
333.4335	10.5385	666867	prompt	n/a	eddie expired origin preferred\n
333.905	0.105	667810	keystroke_e	e	n/a
334.19	0.045	668380	keystroke_d	d	n/a
334.385	0.09	668770	keystroke_i	i	n/a
334.76	0.06	669520	keystroke_Key.backspace	Key.backspace	n/a
334.85	0.105	669700	keystroke_d	d	n/a
334.94	0.09	669880	keystroke_i	i	n/a
335.075	0.105	670150	keystroke_e	e	n/a
335.495	0.12	670990	keystroke_Key.space	Key.space	n/a
335.66	0.09	671320	keystroke_e	e	n/a
335.9	0.09	671800	keystroke_x	x	n/a
336.14	0.135	672280	keystroke_p	p	n/a
336.95	0.075	673900	keystroke_r	r	n/a
337.07	0.12	674140	keystroke_i	i	n/a
337.16	0.12	674320	keystroke_e	e	n/a
337.355	0.12	674710	keystroke_d	d	n/a
337.49	0.09	674980	keystroke_Key.space	Key.space	n/a
337.7	0.075	675400	keystroke_o	o	n/a
337.79	0.105	675580	keystroke_r	r	n/a
338.03	0.09	676060	keystroke_g	g	n/a
338.135	0.09	676270	keystroke_i	i	n/a
338.63	0.09	677260	keystroke_n	n	n/a
338.9	0.045	677800	keystroke_Key.backspace	Key.backspace	n/a
339.035	0.06	678070	keystroke_Key.backspace	Key.backspace	n/a
339.14	0.09	678280	keystroke_Key.backspace	Key.backspace	n/a
339.335	0.06	678670	keystroke_i	i	n/a
339.455	0.105	678910	keystroke_r	r	n/a
339.695	0.12	679390	keystroke_g	g	n/a
339.95	0.045	679900	keystroke_Key.backspace	Key.backspace	n/a
340.07	0.06	680140	keystroke_Key.backspace	Key.backspace	n/a
340.145	0.12	680290	keystroke_g	g	n/a
340.25	0.136	680500	keystroke_i	i	n/a
340.325	0.105	680650	keystroke_n	n	n/a
340.955	0.09	681910	keystroke_Key.space	Key.space	n/a
341.36	0.075	682720	keystroke_p	p	n/a
341.465	0.15	682930	keystroke_e	e	n/a
341.555	0.106	683110	keystroke_r	r	n/a
342.095	0.075	684190	keystroke_g	g	n/a
342.44	0.09	684880	keystroke_Key.backspace	Key.backspace	n/a
342.5	0.105	685000	keystroke_f	f	n/a
342.845	0.12	685690	keystroke_e	e	n/a
343.011	0.059	686022	keystroke_r	r	n/a
343.145	0.075	686290	keystroke_r	r	n/a
343.25	0.1205	686500	keystroke_e	e	n/a
343.4455	0.105	686891	keystroke_d	d	n/a
343.8655	0.105	687731	keystroke_Key.enter	Key.enter	n/a
343.979	7.9885	687958	prompt	n/a	collaborative identity movers heather\n
344.6005	0.12	689201	keystroke_c	c	n/a
344.7805	0.09	689561	keystroke_o	o	n/a
345.5905	0.06	691181	keystroke_l	l	n/a
345.7405	0.09	691481	keystroke_l	l	n/a
345.8455	0.105	691691	keystroke_a	a	n/a
346.1755	0.075	692351	keystroke_b	b	n/a
346.3405	0.105	692681	keystroke_o	o	n/a
346.7005	0.09	693401	keystroke_r	r	n/a
346.9255	0.075	693851	keystroke_a	a	n/a
347.1355	0.06	694271	keystroke_t	t	n/a
347.2405	0.09	694481	keystroke_i	i	n/a
347.3005	0.105	694601	keystroke_v	v	n/a
347.4655	0.105	694931	keystroke_e	e	n/a
347.5555	0.105	695111	keystroke_Key.space	Key.space	n/a
347.7205	0.15	695441	keystroke_i	i	n/a
347.8555	0.06	695711	keystroke_n	n	n/a
348.1855	0.075	696371	keystroke_Key.backspace	Key.backspace	n/a
348.2755	0.09	696551	keystroke_d	d	n/a
348.4555	0.105	696911	keystroke_e	e	n/a
348.6205	0.075	697241	keystroke_n	n	n/a
348.9805	0.105	697961	keystroke_t	t	n/a
349.1305	0.105	698261	keystroke_i	i	n/a
349.3105	0.105	698621	keystroke_t	t	n/a
349.5355	0.09	699071	keystroke_y	y	n/a
349.6705	0.105	699341	keystroke_Key.space	Key.space	n/a
349.8805	0.12	699761	keystroke_m	m	n/a
349.9855	0.105	699971	keystroke_o	o	n/a
350.1055	0.045	700211	keystroke_v	v	n/a
350.2105	0.15	700421	keystroke_e	e	n/a
350.3155	0.075	700631	keystroke_r	r	n/a
350.5405	0.06	701081	keystroke_s	s	n/a
350.6305	0.09	701261	keystroke_Key.space	Key.space	n/a
350.8105	0.12	701621	keystroke_h	h	n/a
350.8705	0.105	701741	keystroke_e	e	n/a
351.0355	0.105	702071	keystroke_a	a	n/a
351.3355	0.06	702671	keystroke_t	t	n/a
351.4705	0.09	702941	keystroke_h	h	n/a
351.5455	0.135	703091	keystroke_e	e	n/a
351.6655	0.105	703331	keystroke_r	r	n/a
351.8605	0.105	703721	keystroke_Key.enter	Key.enter	n/a
351.9745	9.1125	703949	prompt	n/a	banking traditions acquisition paintball\n
352.5655	0.075	705131	keystroke_b	b	n/a
352.7155	0.105	705431	keystroke_a	a	n/a
352.97	0.09	705940	keystroke_k	k	n/a
353.225	0.0755	706450	keystroke_Key.backspace	Key.backspace	n/a
353.42	0.12	706840	keystroke_n	n	n/a
353.465	0.105	706930	keystroke_k	k	n/a
353.645	0.12	707290	keystroke_i	i	n/a
353.705	0.105	707410	keystroke_n	n	n/a
353.795	0.12	707590	keystroke_g	g	n/a
353.9	0.06	707800	keystroke_Key.space	Key.space	n/a
354.05	0.09	708100	keystroke_t	t	n/a
354.275	0.075	708550	keystroke_r	r	n/a
354.5	0.0755	709000	keystroke_a	a	n/a
354.695	0.12	709390	keystroke_d	d	n/a
354.89	0.105	709780	keystroke_i	i	n/a
355.1	0.09	710200	keystroke_t	t	n/a
355.175	0.24	710350	keystroke_i	i	n/a
355.28	0.105	710560	keystroke_o	o	n/a
355.325	0.12	710650	keystroke_n	n	n/a
355.535	0.09	711070	keystroke_s	s	n/a
356.225	0.075	712450	keystroke_Key.space	Key.space	n/a
356.51	0.105	713020	keystroke_a	a	n/a
356.63	0.135	713260	keystroke_c	c	n/a
356.93	0.105	713860	keystroke_q	q	n/a
357.14	0.105	714280	keystroke_u	u	n/a
357.35	0.105	714700	keystroke_i	i	n/a
357.47	0.09	714940	keystroke_s	s	n/a
357.74	0.105	715480	keystroke_i	i	n/a
357.905	0.105	715810	keystroke_t	t	n/a
358.025	0.225	716050	keystroke_i	i	n/a
358.085	0.135	716170	keystroke_o	o	n/a
358.175	0.105	716350	keystroke_n	n	n/a
358.55	0.075	717100	keystroke_Key.space	Key.space	n/a
358.805	0.105	717610	keystroke_p	p	n/a
358.895	0.105	717790	keystroke_a	a	n/a
359.135	0.15	718270	keystroke_i	i	n/a
359.225	0.09	718450	keystroke_n	n	n/a
359.33	0.09	718660	keystroke_t	t	n/a
359.54	0.075	719080	keystroke_b	b	n/a
359.675	0.06	719350	keystroke_l	l	n/a
359.705	0.06	719410	keystroke_a	a	n/a
359.855	0.09	719710	keystroke_l	l	n/a
360.245	0.06	720490	keystroke_Key.backspace	Key.backspace	n/a
360.38	0.06	720760	keystroke_Key.backspace	Key.backspace	n/a
360.5	0.075	721000	keystroke_Key.backspace	Key.backspace	n/a
360.59	0.09	721180	keystroke_a	a	n/a
360.695	0.06	721390	keystroke_l	l	n/a
360.83	0.09	721660	keystroke_l	l	n/a
361.01	0.075	722020	keystroke_Key.enter	Key.enter	n/a
361.096	5.5865	722192	prompt	n/a	intersection link ready shannon\n
361.61	0.135	723220	keystroke_i	i	n/a
361.715	0.105	723430	keystroke_n	n	n/a
362.075	0.09	724150	keystroke_t	t	n/a
362.195	0.135	724390	keystroke_e	e	n/a
362.315	0.075	724630	keystroke_r	r	n/a
362.495	0.075	724990	keystroke_s	s	n/a
362.615	0.09	725230	keystroke_e	e	n/a
362.81	0.105	725620	keystroke_c	c	n/a
363.02	0.09	726040	keystroke_t	t	n/a
363.14	0.24	726280	keystroke_i	i	n/a
363.245	0.15	726490	keystroke_o	o	n/a
363.305	0.135	726610	keystroke_n	n	n/a
363.65	0.075	727300	keystroke_Key.space	Key.space	n/a
363.785	0.1355	727570	keystroke_l	l	n/a
363.9055	0.09	727811	keystroke_i	i	n/a
363.9805	0.21	727961	keystroke_n	n	n/a
364.1005	0.12	728201	keystroke_k	k	n/a
364.5805	0.045	729161	keystroke_Key.space	Key.space	n/a
364.7155	0.105	729431	keystroke_r	r	n/a
364.8055	0.09	729611	keystroke_e	e	n/a
364.9555	0.135	729911	keystroke_a	a	n/a
365.0455	0.105	730091	keystroke_d	d	n/a
365.2855	0.12	730571	keystroke_y	y	n/a
365.4655	0.09	730931	keystroke_Key.space	Key.space	n/a
365.6905	0.06	731381	keystroke_s	s	n/a
365.7955	0.105	731591	keystroke_h	h	n/a
365.8555	0.12	731711	keystroke_a	a	n/a
366.0055	0.06	732011	keystroke_n	n	n/a
366.1255	0.075	732251	keystroke_n	n	n/a
366.2455	0.105	732491	keystroke_o	o	n/a
366.3205	0.135	732641	keystroke_n	n	n/a
366.5605	0.12	733121	keystroke_Key.enter	Key.enter	n/a
366.688	11.724	733376	prompt	n/a	jelsoft themes individual notices\n
367.2055	0.09	734411	keystroke_j	j	n/a
367.3705	0.12	734741	keystroke_e	e	n/a
367.7005	0.12	735401	keystroke_l	l	n/a
367.8805	0.0755	735761	keystroke_f	f	n/a
368.135	0.045	736270	keystroke_Key.backspace	Key.backspace	n/a
368.21	0.106	736420	keystroke_s	s	n/a
368.331	0.089	736662	keystroke_o	o	n/a
368.54	0.121	737080	keystroke_l	l	n/a
368.675	0.075	737350	keystroke_f	f	n/a
368.885	0.06	737770	keystroke_Key.backspace	Key.backspace	n/a
369.005	0.09	738010	keystroke_Key.backspace	Key.backspace	n/a
369.066	0.089	738132	keystroke_f	f	n/a
369.261	0.089	738522	keystroke_t	t	n/a
369.575	0.09	739150	keystroke_Key.space	Key.space	n/a
369.8	0.075	739600	keystroke_t	t	n/a
369.845	0.09	739690	keystroke_h	h	n/a
369.966	0.104	739932	keystroke_e	e	n/a
370.056	0.135	740112	keystroke_m	m	n/a
370.31	0.045	740620	keystroke_e	e	n/a
370.52	0.091	741040	keystroke_s	s	n/a
370.685	0.106	741370	keystroke_e	e	n/a
371.255	0.075	742510	keystroke_Key.backspace	Key.backspace	n/a
371.63	0.105	743260	keystroke_Key.space	Key.space	n/a
372.125	0.12	744250	keystroke_i	i	n/a
372.2	0.106	744400	keystroke_n	n	n/a
372.486	0.0885	744972	keystroke_d	d	n/a
372.59	0.106	745180	keystroke_i	i	n/a
372.741	0.09	745482	keystroke_f	f	n/a
372.845	0.121	745690	keystroke_i	i	n/a
373.2055	0.06	746411	keystroke_Key.backspace	Key.backspace	n/a
373.3245	0.06	746649	keystroke_Key.backspace	Key.backspace	n/a
373.4155	0.0905	746831	keystroke_v	v	n/a
373.506	0.0885	747012	keystroke_i	i	n/a
373.7155	0.119	747431	keystroke_d	d	n/a
373.8195	0.121	747639	keystroke_i	i	n/a
374.8695	0.105	749739	keystroke_d	d	n/a
374.9905	0.104	749981	keystroke_u	u	n/a
375.1095	0.091	750219	keystroke_e	e	n/a
375.2445	0.091	750489	keystroke_l	l	n/a
375.5745	0.06	751149	keystroke_Key.backspace	Key.backspace	n/a
375.7095	0.09	751419	keystroke_a	a	n/a
375.7845	0.106	751569	keystroke_l	l	n/a
376.0555	0.044	752111	keystroke_Key.backspace	Key.backspace	n/a
376.1745	0.0755	752349	keystroke_Key.backspace	Key.backspace	n/a
376.3095	0.09	752619	keystroke_Key.backspace	Key.backspace	n/a
376.4305	0.104	752861	keystroke_a	a	n/a
376.5495	0.091	753099	keystroke_l	l	n/a
376.6555	0.119	753311	keystroke_Key.space	Key.space	n/a
376.8195	0.091	753639	keystroke_n	n	n/a
376.9555	0.105	753911	keystroke_o	o	n/a
377.1805	0.089	754361	keystroke_t	t	n/a
377.2705	0.135	754541	keystroke_i	i	n/a
377.4195	0.075	754839	keystroke_e	e	n/a
377.7645	0.076	755529	keystroke_Key.backspace	Key.backspace	n/a
377.8105	0.075	755621	keystroke_c	c	n/a
377.9905	0.045	755981	keystroke_e	e	n/a
378.1245	0.091	756249	keystroke_s	s	n/a
378.3055	0.104	756611	keystroke_Key.enter	Key.enter	n/a
378.4165	11.831	756833	prompt	n/a	cdna bathroom accurate biodiversity\n
379.0105	0.089	758021	keystroke_c	c	n/a
379.1155	0.09	758231	keystroke_a	a	n/a
379.3555	0.119	758711	keystroke_d	d	n/a
379.4905	0.12	758981	keystroke_a	a	n/a
379.9405	0.044	759881	keystroke_Key.backspace	Key.backspace	n/a
380.0745	0.045	760149	keystroke_Key.backspace	Key.backspace	n/a
380.1795	0.09	760359	keystroke_Key.backspace	Key.backspace	n/a
380.5855	0.089	761171	keystroke_n	n	n/a
380.8545	0.015	761709	keystroke_Key.backspace	Key.backspace	n/a
380.9005	0.135	761801	keystroke_d	d	n/a
381.0495	0.091	762099	keystroke_a	a	n/a
381.1245	0.091	762249	keystroke_n	n	n/a
381.6495	0.015	763299	keystroke_Key.backspace	Key.backspace	n/a
381.7405	0.09	763481	keystroke_Key.backspace	Key.backspace	n/a
381.9505	0.075	763901	keystroke_n	n	n/a
382.2055	0.12	764411	keystroke_a	a	n/a
382.3845	0.076	764769	keystroke_Key.space	Key.space	n/a
382.5955	0.09	765191	keystroke_b	b	n/a
382.7455	0.09	765491	keystroke_a	a	n/a
382.9405	0.075	765881	keystroke_t	t	n/a
383.0445	0.106	766089	keystroke_h	h	n/a
383.1505	0.075	766301	keystroke_r	r	n/a
383.4955	0.075	766991	keystroke_r	r	n/a
383.5855	0.075	767171	keystroke_o	o	n/a
383.7205	0.12	767441	keystroke_o	o	n/a
383.8705	0.045	767741	keystroke_m	m	n/a
384.0655	0.059	768131	keystroke_Key.backspace	Key.backspace	n/a
384.1995	0.076	768399	keystroke_Key.backspace	Key.backspace	n/a
384.3345	0.06	768669	keystroke_Key.backspace	Key.backspace	n/a
384.4695	0.091	768939	keystroke_Key.backspace	Key.backspace	n/a
384.8155	0.06	769631	keystroke_o	o	n/a
384.9655	0.075	769931	keystroke_o	o	n/a
385.1005	0.09	770201	keystroke_m	m	n/a
385.3705	0.104	770741	keystroke_Key.space	Key.space	n/a
385.6555	0.105	771311	keystroke_a	a	n/a
385.8505	0.075	771701	keystroke_c	c	n/a
385.9855	0.105	771971	keystroke_c	c	n/a
386.2105	0.105	772421	keystroke_u	u	n/a
386.3305	0.135	772661	keystroke_r	r	n/a
386.7205	0.09	773441	keystroke_a	a	n/a
386.9155	0.09	773831	keystroke_t	t	n/a
387.0805	0.105	774161	keystroke_e	e	n/a
387.2605	0.075	774521	keystroke_Key.space	Key.space	n/a
387.5905	0.03	775181	keystroke_b	b	n/a
387.7555	0.105	775511	keystroke_i	i	n/a
388.3405	0.105	776681	keystroke_o	o	n/a
388.6855	0.135	777371	keystroke_d	d	n/a
388.8655	0.09	777731	keystroke_i	i	n/a
389.0905	0.06	778181	keystroke_v	v	n/a
389.1955	0.18	778391	keystroke_e	e	n/a
389.3305	0.09	778661	keystroke_r	r	n/a
389.5555	0.075	779111	keystroke_s	s	n/a
389.6455	0.105	779291	keystroke_i	i	n/a
389.7355	0.12	779471	keystroke_t	t	n/a
389.9305	0.105	779861	keystroke_y	y	n/a
390.1555	0.09	780311	keystroke_Key.enter	Key.enter	n/a
390.2525	10.2245	780505	prompt	n/a	stops continues putting designing\n
390.9955	0.09	781991	keystroke_s	s	n/a
391.1155	0.18	782231	keystroke_o	o	n/a
391.2205	0.045	782441	keystroke_t	t	n/a
391.2805	0.135	782561	keystroke_p	p	n/a
391.5955	0.06	783191	keystroke_Key.backspace	Key.backspace	n/a
391.7455	0.045	783491	keystroke_Key.backspace	Key.backspace	n/a
391.8505	0.075	783701	keystroke_Key.backspace	Key.backspace	n/a
391.8805	0.09	783761	keystroke_t	t	n/a
392.0305	0.21	784061	keystroke_o	o	n/a
392.1955	0.12	784391	keystroke_p	p	n/a
392.7505	0.075	785501	keystroke_s	s	n/a
392.8555	0.135	785711	keystroke_Key.space	Key.space	n/a
393.0805	0.105	786161	keystroke_c	c	n/a
393.1705	0.105	786341	keystroke_o	o	n/a
393.2455	0.09	786491	keystroke_n	n	n/a
393.4555	0.105	786911	keystroke_i	i	n/a
393.8305	0.105	787661	keystroke_t	t	n/a
394.9105	0.045	789821	keystroke_Key.backspace	Key.backspace	n/a
395.0305	0.09	790061	keystroke_Key.backspace	Key.backspace	n/a
395.1655	0.105	790331	keystroke_t	t	n/a
395.2555	0.105	790511	keystroke_i	i	n/a
395.4955	0.075	790991	keystroke_n	n	n/a
395.6755	0.09	791351	keystroke_u	u	n/a
395.8555	0.09	791711	keystroke_e	e	n/a
396.5155	0.09	793031	keystroke_s	s	n/a
396.6205	0.09	793241	keystroke_Key.space	Key.space	n/a
396.9055	0.09	793811	keystroke_p	p	n/a
397.0705	0.09	794141	keystroke_u	u	n/a
397.1755	0.075	794351	keystroke_t	t	n/a
397.3255	0.09	794651	keystroke_t	t	n/a
397.3855	0.135	794771	keystroke_i	i	n/a
397.4755	0.12	794951	keystroke_n	n	n/a
397.5355	0.105	795071	keystroke_g	g	n/a
397.6555	0.105	795311	keystroke_Key.space	Key.space	n/a
397.9105	0.06	795821	keystroke_d	d	n/a
398.0605	0.075	796121	keystroke_e	e	n/a
398.2255	0.105	796451	keystroke_s	s	n/a
398.4505	0.06	796901	keystroke_i	i	n/a
398.9755	0.105	797951	keystroke_g	g	n/a
399.2155	0.09	798431	keystroke_n	n	n/a
399.4705	0.12	798941	keystroke_i	i	n/a
400.0405	0.09	800081	keystroke_n	n	n/a
400.1605	0.12	800321	keystroke_g	g	n/a
400.3705	0.105	800741	keystroke_Key.enter	Key.enter	n/a
400.4825	8.3795	800965	prompt	n/a	oclc literally extension alarm\n
401.1055	0.105	802211	keystroke_o	o	n/a
401.2555	0.12	802511	keystroke_c	c	n/a
401.4055	0.12	802811	keystroke_l	l	n/a
401.5705	0.09	803141	keystroke_c	c	n/a
401.8555	0.105	803711	keystroke_Key.space	Key.space	n/a
402.1855	0.15	804371	keystroke_l	l	n/a
402.3205	0.105	804641	keystroke_i	i	n/a
402.4855	0.135	804971	keystroke_t	t	n/a
402.7255	0.165	805451	keystroke_e	e	n/a
402.8755	0.105	805751	keystroke_r	r	n/a
403.1305	0.12	806261	keystroke_a	a	n/a
403.2655	0.075	806531	keystroke_l	l	n/a
403.4155	0.105	806831	keystroke_l	l	n/a
403.5355	0.075	807071	keystroke_y	y	n/a
403.6405	0.12	807281	keystroke_Key.space	Key.space	n/a
403.8505	0.105	807701	keystroke_e	e	n/a
404.0905	0.09	808181	keystroke_x	x	n/a
404.4355	0.06	808871	keystroke_t	t	n/a
404.795	0.075	809590	keystroke_e	e	n/a
404.915	0.075	809830	keystroke_n	n	n/a
405.14	0.09	810280	keystroke_s	s	n/a
405.62	0.045	811240	keystroke_t	t	n/a
405.905	0.075	811810	keystroke_Key.backspace	Key.backspace	n/a
406.115	0.225	812230	keystroke_i	i	n/a
406.205	0.12	812410	keystroke_o	o	n/a
406.28	0.105	812560	keystroke_n	n	n/a
406.745	0.09	813490	keystroke_Key.space	Key.space	n/a
407.015	0.1055	814030	keystroke_a	a	n/a
407.1355	0.09	814271	keystroke_l	l	n/a
407.2995	0.076	814599	keystroke_r	r	n/a
407.4645	0.105	814929	keystroke_a	a	n/a
407.5405	0.104	815081	keystroke_m	m	n/a
407.9305	0.059	815861	keystroke_Key.backspace	Key.backspace	n/a
408.0795	0.06	816159	keystroke_Key.backspace	Key.backspace	n/a
408.1995	0.09	816399	keystroke_Key.backspace	Key.backspace	n/a
408.2455	0.105	816491	keystroke_a	a	n/a
408.4555	0.074	816911	keystroke_r	r	n/a
408.5305	0.105	817061	keystroke_m	m	n/a
408.7855	0.074	817571	keystroke_Key.enter	Key.enter	n/a
408.867	6.2355	817734	prompt	n/a	wish confident morocco decent\n
409.3555	0.089	818711	keystroke_w	w	n/a
409.4605	0.104	818921	keystroke_i	i	n/a
409.6255	0.105	819251	keystroke_s	s	n/a
409.7005	0.089	819401	keystroke_h	h	n/a
409.8195	0.135	819639	keystroke_Key.space	Key.space	n/a
410.0005	0.119	820001	keystroke_c	c	n/a
410.0895	0.091	820179	keystroke_o	o	n/a
410.1355	0.0895	820271	keystroke_n	n	n/a
410.3005	0.104	820601	keystroke_f	f	n/a
410.3895	0.105	820779	keystroke_i	i	n/a
410.6005	0.104	821201	keystroke_d	d	n/a
410.9895	0.105	821979	keystroke_e	e	n/a
411.0805	0.089	822161	keystroke_n	n	n/a
411.1855	0.09	822371	keystroke_t	t	n/a
411.3195	0.09	822639	keystroke_Key.space	Key.space	n/a
411.5295	0.106	823059	keystroke_m	m	n/a
411.6955	0.09	823391	keystroke_o	o	n/a
412.1005	0.089	824201	keystroke_r	r	n/a
412.2055	0.105	824411	keystroke_o	o	n/a
412.3705	0.105	824741	keystroke_c	c	n/a
412.5945	0.061	825189	keystroke_o	o	n/a
412.9105	0.029	825821	keystroke_Key.backspace	Key.backspace	n/a
412.9855	0.104	825971	keystroke_c	c	n/a
413.1045	0.09	826209	keystroke_o	o	n/a
413.2395	0.076	826479	keystroke_Key.space	Key.space	n/a
413.3605	0.104	826721	keystroke_d	d	n/a
413.5395	0.106	827079	keystroke_e	e	n/a
413.7805	0.06	827561	keystroke_c	c	n/a
414.4705	0.09	828941	keystroke_e	e	n/a
414.5605	0.075	829121	keystroke_n	n	n/a
414.6505	0.12	829301	keystroke_t	t	n/a
414.9805	0.12	829961	keystroke_Key.enter	Key.enter	n/a
415.107	6.8205	830214	prompt	n/a	diameter leonard paste imported\n
415.6255	0.12	831251	keystroke_d	d	n/a
415.7605	0.09	831521	keystroke_i	i	n/a
415.9705	0.105	831941	keystroke_a	a	n/a
416.3155	0.105	832631	keystroke_m	m	n/a
416.4055	0.105	832811	keystroke_e	e	n/a
416.6005	0.075	833201	keystroke_t	t	n/a
416.7355	0.12	833471	keystroke_e	e	n/a
416.8855	0.12	833771	keystroke_r	r	n/a
417.5005	0.089	835001	keystroke_Key.space	Key.space	n/a
417.7105	0.105	835421	keystroke_l	l	n/a
417.9505	0.135	835901	keystroke_e	e	n/a
418.3705	0.09	836741	keystroke_o	o	n/a
418.5805	0.075	837161	keystroke_n	n	n/a
418.7755	0.075	837551	keystroke_a	a	n/a
418.9705	0.075	837941	keystroke_r	r	n/a
419.165	0.105	838330	keystroke_d	d	n/a
419.33	0.09	838660	keystroke_Key.space	Key.space	n/a
419.45	0.12	838900	keystroke_p	p	n/a
419.57	0.12	839140	keystroke_a	a	n/a
419.645	0.105	839290	keystroke_s	s	n/a
419.87	0.045	839740	keystroke_t	t	n/a
420.02	0.09	840040	keystroke_e	e	n/a
420.2	0.06	840400	keystroke_Key.space	Key.space	n/a
420.335	0.12	840670	keystroke_i	i	n/a
420.56	0.105	841120	keystroke_m	m	n/a
420.74	0.09	841480	keystroke_p	p	n/a
420.831	0.164	841662	keystroke_o	o	n/a
420.965	0.09	841930	keystroke_r	r	n/a
421.145	0.075	842290	keystroke_t	t	n/a
421.28	0.09	842560	keystroke_e	e	n/a
421.475	0.12	842950	keystroke_d	d	n/a
421.85	0.075	843700	keystroke_Key.enter	Key.enter	n/a
421.932	5.11	843864	prompt	n/a	soap cursor estimate food\n
422.495	0.105	844990	keystroke_s	s	n/a
422.615	0.075	845230	keystroke_o	o	n/a
422.735	0.12	845470	keystroke_a	a	n/a
423.05	0.06	846100	keystroke_Key.backspace	Key.backspace	n/a
423.29	0.105	846580	keystroke_a	a	n/a
423.425	0.105	846850	keystroke_p	p	n/a
423.56	0.105	847120	keystroke_Key.space	Key.space	n/a
423.74	0.135	847480	keystroke_c	c	n/a
423.92	0.105	847840	keystroke_u	u	n/a
424.055	0.09	848110	keystroke_r	r	n/a
424.37	0.075	848740	keystroke_s	s	n/a
424.565	0.12	849130	keystroke_o	o	n/a
424.715	0.105	849430	keystroke_r	r	n/a
424.85	0.12	849700	keystroke_Key.space	Key.space	n/a
425.045	0.09	850090	keystroke_e	e	n/a
425.27	0.075	850540	keystroke_s	s	n/a
425.51	0.06	851020	keystroke_t	t	n/a
425.615	0.105	851230	keystroke_i	i	n/a
425.825	0.09	851650	keystroke_m	m	n/a
425.93	0.09	851860	keystroke_a	a	n/a
426.08	0.09	852160	keystroke_t	t	n/a
426.23	0.105	852460	keystroke_e	e	n/a
426.395	0.105	852790	keystroke_Key.space	Key.space	n/a
426.47	0.105	852940	keystroke_f	f	n/a
426.56	0.09	853120	keystroke_o	o	n/a
426.725	0.09	853450	keystroke_o	o	n/a
426.785	0.12	853570	keystroke_d	d	n/a
426.965	0.075	853930	keystroke_Key.enter	Key.enter	n/a
427.061	14.996	854122	prompt	n/a	passed competitors graphics individual\n
427.58	0.105	855160	keystroke_p	p	n/a
427.82	0.105	855640	keystroke_a	a	n/a
427.985	0.06	855970	keystroke_s	s	n/a
428.135	0.075	856270	keystroke_s	s	n/a
428.27	0.09	856540	keystroke_e	e	n/a
428.435	0.12	856870	keystroke_d	d	n/a
428.54	0.105	857080	keystroke_Key.space	Key.space	n/a
428.765	0.12	857530	keystroke_o	o	n/a
428.901	0.15	857802	keystroke_m	m	n/a
429.08	0.135	858160	keystroke_p	p	n/a
429.38	0.12	858760	keystroke_e	e	n/a
429.605	0.06	859210	keystroke_t	t	n/a
430.055	0.075	860110	keystroke_i	i	n/a
430.19	0.09	860380	keystroke_t	t	n/a
430.415	0.12	860830	keystroke_o	o	n/a
430.551	0.119	861102	keystroke_r	r	n/a
430.805	0.105	861610	keystroke_s	s	n/a
430.97	0.075	861940	keystroke_Key.space	Key.space	n/a
431.48	0.075	862960	keystroke_g	g	n/a
431.66	0.075	863320	keystroke_r	r	n/a
431.84	0.136	863680	keystroke_a	a	n/a
432.215	0.046	864430	keystroke_p	p	n/a
432.29	0.12	864580	keystroke_h	h	n/a
432.395	0.09	864790	keystroke_o	o	n/a
432.501	0.059	865002	keystroke_n	n	n/a
432.875	0.045	865750	keystroke_Key.backspace	Key.backspace	n/a
433.175	0.045	866350	keystroke_Key.backspace	Key.backspace	n/a
433.326	0.089	866652	keystroke_i	i	n/a
433.416	0.119	866832	keystroke_c	c	n/a
436.6245	0.0905	873249	keystroke_Key.left	Key.left	n/a
436.7745	0.075	873549	keystroke_Key.left	Key.left	n/a
436.9555	0.105	873911	keystroke_c	c	n/a
437.0895	0.09	874179	keystroke_Key.right	Key.right	n/a
439.3555	0.089	878711	keystroke_s	s	n/a
439.5195	0.105	879039	keystroke_Key.space	Key.space	n/a
439.8945	0.12	879789	keystroke_i	i	n/a
439.9845	0.121	879969	keystroke_n	n	n/a
440.3895	0.105	880779	keystroke_d	d	n/a
440.5095	0.075	881019	keystroke_i	i	n/a
440.6305	0.089	881261	keystroke_v	v	n/a
440.7345	0.105	881469	keystroke_i	i	n/a
441.0355	0.134	882071	keystroke_d	d	n/a
441.4395	0.075	882879	keystroke_u	u	n/a
441.5445	0.136	883089	keystroke_a	a	n/a
441.6645	0.12	883329	keystroke_l	l	n/a
441.9495	0.105	883899	keystroke_Key.enter	Key.enter	n/a
442.063	7.8535	884126	prompt	n/a	samples supplier carrying listed\n
442.8055	0.089	885611	keystroke_s	s	n/a
442.9105	0.09	885821	keystroke_a	a	n/a
443.0445	0.09	886089	keystroke_m	m	n/a
443.5845	0.075	887169	keystroke_p	p	n/a
443.7345	0.105	887469	keystroke_l	l	n/a
443.8105	0.09	887621	keystroke_e	e	n/a
443.96	0.12	887920	keystroke_s	s	n/a
444.08	0.105	888160	keystroke_Key.space	Key.space	n/a
444.335	0.09	888670	keystroke_s	s	n/a
444.41	0.075	888820	keystroke_u	u	n/a
444.815	0.045	889630	keystroke_p	p	n/a
444.95	0.06	889900	keystroke_p	p	n/a
445.1	0.105	890200	keystroke_l	l	n/a
445.175	0.12	890350	keystroke_i	i	n/a
445.31	0.09	890620	keystroke_e	e	n/a
445.505	0.09	891010	keystroke_r	r	n/a
446.225	0.075	892450	keystroke_Key.space	Key.space	n/a
446.405	0.135	892810	keystroke_c	c	n/a
446.525	0.09	893050	keystroke_a	a	n/a
446.885	0.075	893770	keystroke_r	r	n/a
447.065	0.09	894130	keystroke_r	r	n/a
447.17	0.12	894340	keystroke_i	i	n/a
447.635	0.075	895270	keystroke_y	y	n/a
447.725	0.03	895450	keystroke_Key.backspace	Key.backspace	n/a
447.8	0.075	895600	keystroke_Key.backspace	Key.backspace	n/a
447.905	0.06	895810	keystroke_y	y	n/a
448.1	0.15	896200	keystroke_i	i	n/a
448.205	0.105	896410	keystroke_n	n	n/a
448.265	0.105	896530	keystroke_g	g	n/a
448.625	0.105	897250	keystroke_Key.space	Key.space	n/a
448.76	0.135	897520	keystroke_l	l	n/a
448.85	0.12	897700	keystroke_i	i	n/a
448.955	0.09	897910	keystroke_s	s	n/a
449.105	0.09	898210	keystroke_t	t	n/a
449.255	0.105	898510	keystroke_e	e	n/a
449.645	0.105	899290	keystroke_d	d	n/a
449.81	0.105	899620	keystroke_Key.enter	Key.enter	n/a
449.9205	7.091	899841	prompt	n/a	whats remembered usps gratuit\n
450.425	0.105	900850	keystroke_w	w	n/a
450.56	0.105	901120	keystroke_h	h	n/a
450.68	0.015	901360	keystroke_a	a	n/a
450.74	0.105	901480	keystroke_t	t	n/a
450.95	0.12	901900	keystroke_s	s	n/a
451.085	0.09	902170	keystroke_Key.space	Key.space	n/a
451.235	0.105	902470	keystroke_r	r	n/a
451.325	0.12	902650	keystroke_e	e	n/a
451.49	0.075	902980	keystroke_m	m	n/a
451.595	0.075	903190	keystroke_e	e	n/a
451.655	0.105	903310	keystroke_m	m	n/a
451.82	0.075	903640	keystroke_b	b	n/a
451.985	0.15	903970	keystroke_e	e	n/a
452.12	0.09	904240	keystroke_r	r	n/a
452.27	0.09	904540	keystroke_e	e	n/a
452.48	0.09	904960	keystroke_d	d	n/a
452.585	0.075	905170	keystroke_Key.space	Key.space	n/a
452.81	0.12	905620	keystroke_u	u	n/a
452.915	0.105	905830	keystroke_s	s	n/a
453.2	0.12	906400	keystroke_p	p	n/a
453.425	0.09	906850	keystroke_s	s	n/a
453.56	0.105	907120	keystroke_Key.space	Key.space	n/a
453.89	0.09	907780	keystroke_g	g	n/a
454.19	0.075	908380	keystroke_r	r	n/a
454.415	0.12	908830	keystroke_a	a	n/a
454.955	0.09	909910	keystroke_t	t	n/a
455.06	0.09	910120	keystroke_u	u	n/a
455.3	0.09	910600	keystroke_i	i	n/a
455.585	0.09	911170	keystroke_d	d	n/a
456.095	0.075	912190	keystroke_Key.backspace	Key.backspace	n/a
456.185	0.09	912370	keystroke_t	t	n/a
456.89	0.12	913780	keystroke_Key.enter	Key.enter	n/a
457.0175	7.674	914035	prompt	n/a	reservations conferencing chair happen\n
457.745	0.105	915490	keystroke_r	r	n/a
457.835	0.09	915670	keystroke_e	e	n/a
458.06	0.09	916120	keystroke_s	s	n/a
458.525	0.1495	917050	keystroke_e	e	n/a
458.6445	0.105	917289	keystroke_r	r	n/a
458.8695	0.105	917739	keystroke_v	v	n/a
459.0195	0.075	918039	keystroke_a	a	n/a
459.1995	0.075	918399	keystroke_t	t	n/a
459.2595	0.225	918519	keystroke_i	i	n/a
459.3045	0.165	918609	keystroke_o	o	n/a
459.3945	0.12	918789	keystroke_n	n	n/a
459.4545	0.15	918909	keystroke_s	s	n/a
459.6195	0.09	919239	keystroke_Key.space	Key.space	n/a
459.8595	0.12	919719	keystroke_c	c	n/a
459.9805	0.089	919961	keystroke_o	o	n/a
460.0395	0.105	920079	keystroke_n	n	n/a
460.1895	0.075	920379	keystroke_f	f	n/a
460.3545	0.18	920709	keystroke_e	e	n/a
460.5045	0.105	921009	keystroke_r	r	n/a
460.8345	0.09	921669	keystroke_e	e	n/a
460.9545	0.105	921909	keystroke_n	n	n/a
461.1945	0.075	922389	keystroke_s	s	n/a
461.4795	0.045	922959	keystroke_Key.backspace	Key.backspace	n/a
461.5395	0.105	923079	keystroke_c	c	n/a
461.6745	0.135	923349	keystroke_i	i	n/a
461.7495	0.09	923499	keystroke_n	n	n/a
461.8245	0.105	923649	keystroke_g	g	n/a
461.9445	0.075	923889	keystroke_Key.space	Key.space	n/a
462.1245	0.075	924249	keystroke_t	t	n/a
462.3495	0.045	924699	keystroke_Key.backspace	Key.backspace	n/a
462.4395	0.12	924879	keystroke_c	c	n/a
462.5595	0.09	925119	keystroke_h	h	n/a
462.6195	0.105	925239	keystroke_a	a	n/a
462.7845	0.15	925569	keystroke_i	i	n/a
462.9495	0.12	925899	keystroke_r	r	n/a
463.2345	0.12	926469	keystroke_Key.space	Key.space	n/a
463.4595	0.09	926919	keystroke_h	h	n/a
463.6395	0.106	927279	keystroke_a	a	n/a
463.7595	0.075	927519	keystroke_p	p	n/a
463.8945	0.09	927789	keystroke_p	p	n/a
463.9545	0.12	927909	keystroke_e	e	n/a
464.1345	0.105	928269	keystroke_n	n	n/a
464.5845	0.105	929169	keystroke_Key.enter	Key.enter	n/a
464.701	9.921	929402	prompt	n/a	merchandise unique created jewellery\n
465.2605	0.089	930521	keystroke_m	m	n/a
465.4695	0.09	930939	keystroke_e	e	n/a
465.6205	0.089	931241	keystroke_r	r	n/a
465.8595	0.105	931719	keystroke_c	c	n/a
465.9795	0.12	931959	keystroke_h	h	n/a
466.2495	0.135	932499	keystroke_a	a	n/a
467.4045	0.105	934809	keystroke_n	n	n/a
467.6745	0.09	935349	keystroke_s	s	n/a
468.2745	0.045	936549	keystroke_Key.backspace	Key.backspace	n/a
468.3795	0.105	936759	keystroke_d	d	n/a
468.4705	0.089	936941	keystroke_i	i	n/a
468.6645	0.105	937329	keystroke_s	s	n/a
469.0995	0.09	938199	keystroke_Key.space	Key.space	n/a
469.2195	0.105	938439	keystroke_u	u	n/a
469.8345	0.03	939669	keystroke_q	q	n/a
470.0745	0.06	940149	keystroke_Key.backspace	Key.backspace	n/a
470.2545	0.075	940509	keystroke_n	n	n/a
470.3745	0.09	940749	keystroke_i	i	n/a
470.4945	0.09	940989	keystroke_q	q	n/a
470.6145	0.09	941229	keystroke_u	u	n/a
470.7495	0.105	941499	keystroke_e	e	n/a
471.4245	0.09	942849	keystroke_Key.space	Key.space	n/a
471.6045	0.105	943209	keystroke_c	c	n/a
471.83	0.1045	943660	keystroke_r	r	n/a
471.9205	0.164	943841	keystroke_e	e	n/a
472.025	0.1045	944050	keystroke_a	a	n/a
472.1895	0.105	944379	keystroke_t	t	n/a
472.3395	0.105	944679	keystroke_e	e	n/a
472.5195	0.1205	945039	keystroke_d	d	n/a
472.625	0.089	945250	keystroke_Key.space	Key.space	n/a
472.865	0.075	945730	keystroke_j	j	n/a
473.045	0.12	946090	keystroke_e	e	n/a
473.285	0.075	946570	keystroke_w	w	n/a
473.45	0.105	946900	keystroke_e	e	n/a
473.615	0.06	947230	keystroke_l	l	n/a
473.75	0.135	947500	keystroke_l	l	n/a
474.005	0.135	948010	keystroke_e	e	n/a
474.155	0.106	948310	keystroke_r	r	n/a
474.38	0.075	948760	keystroke_y	y	n/a
474.545	0.075	949090	keystroke_Key.enter	Key.enter	n/a
474.6275	8.9795	949255	prompt	n/a	combinations contests pour isolated\n
475.175	0.12	950350	keystroke_c	c	n/a
475.55	0.135	951100	keystroke_o	o	n/a
475.625	0.12	951250	keystroke_m	m	n/a
475.88	0.09	951760	keystroke_p	p	n/a
476.225	0.075	952450	keystroke_b	b	n/a
476.57	0.105	953140	keystroke_Key.backspace	Key.backspace	n/a
476.75	0.075	953500	keystroke_Key.backspace	Key.backspace	n/a
476.9	0.105	953800	keystroke_b	b	n/a
476.99	0.135	953980	keystroke_i	i	n/a
477.065	0.105	954130	keystroke_n	n	n/a
477.785	0.105	955570	keystroke_a	a	n/a
478.79	0.075	957580	keystroke_t	t	n/a
478.85	0.21	957700	keystroke_i	i	n/a
478.91	0.135	957820	keystroke_o	o	n/a
478.985	0.105	957970	keystroke_n	n	n/a
479.105	0.135	958210	keystroke_s	s	n/a
479.27	0.09	958540	keystroke_Key.space	Key.space	n/a
479.54	0.12	959080	keystroke_c	c	n/a
479.765	0.12	959530	keystroke_o	o	n/a
479.9	0.09	959800	keystroke_n	n	n/a
480.41	0.015	960820	keystroke_t	t	n/a
480.485	0.105	960970	keystroke_e	e	n/a
480.635	0.105	961270	keystroke_s	s	n/a
480.77	0.105	961540	keystroke_t	t	n/a
480.95	0.135	961900	keystroke_s	s	n/a
481.055	0.105	962110	keystroke_Key.space	Key.space	n/a
481.25	0.09	962500	keystroke_p	p	n/a
481.385	0.165	962770	keystroke_o	o	n/a
481.565	0.12	963130	keystroke_u	u	n/a
481.715	0.12	963430	keystroke_r	r	n/a
482.015	0.09	964030	keystroke_Key.space	Key.space	n/a
482.27	0.135	964540	keystroke_i	i	n/a
482.465	0.12	964930	keystroke_s	s	n/a
482.57	0.105	965140	keystroke_o	o	n/a
482.735	0.135	965470	keystroke_l	l	n/a
482.885	0.06	965770	keystroke_a	a	n/a
483.02	0.105	966040	keystroke_t	t	n/a
483.14	0.105	966280	keystroke_e	e	n/a
483.335	0.09	966670	keystroke_d	d	n/a
483.5	0.105	967000	keystroke_Key.enter	Key.enter	n/a
483.613	8.08	967226	prompt	n/a	playstation traditions also robust\n
484.205	0.09	968410	keystroke_p	p	n/a
484.565	0.135	969130	keystroke_l	l	n/a
484.655	0.09	969310	keystroke_a	a	n/a
484.835	0.09	969670	keystroke_y	y	n/a
485.105	0.09	970210	keystroke_s	s	n/a
485.3	0.09	970600	keystroke_t	t	n/a
485.45	0.12	970900	keystroke_a	a	n/a
485.555	0.075	971110	keystroke_t	t	n/a
485.69	0.105	971380	keystroke_e	e	n/a
486.035	0.045	972070	keystroke_Key.backspace	Key.backspace	n/a
486.215	0.21	972430	keystroke_i	i	n/a
486.335	0.105	972670	keystroke_o	o	n/a
486.35	0.135	972700	keystroke_n	n	n/a
486.905	0.075	973810	keystroke_Key.space	Key.space	n/a
487.145	0.06	974290	keystroke_t	t	n/a
487.295	0.075	974590	keystroke_r	r	n/a
487.52	0.12	975040	keystroke_a	a	n/a
487.97	0.09	975940	keystroke_d	d	n/a
488.105	0.105	976210	keystroke_i	i	n/a
488.645	0.075	977290	keystroke_t	t	n/a
488.705	0.24	977410	keystroke_i	i	n/a
488.795	0.135	977590	keystroke_o	o	n/a
488.87	0.12	977740	keystroke_n	n	n/a
489.14	0.09	978280	keystroke_s	s	n/a
489.395	0.09	978790	keystroke_Key.space	Key.space	n/a
489.635	0.12	979270	keystroke_a	a	n/a
489.77	0.105	979540	keystroke_l	l	n/a
489.845	0.075	979690	keystroke_s	s	n/a
490.145	0.09	980290	keystroke_o	o	n/a
490.505	0.09	981010	keystroke_Key.space	Key.space	n/a
490.745	0.075	981490	keystroke_r	r	n/a
490.865	0.09	981730	keystroke_o	o	n/a
491	0.105	982000	keystroke_b	b	n/a
491.135	0.105	982270	keystroke_u	u	n/a
491.225	0.09	982450	keystroke_s	s	n/a
491.39	0.105	982780	keystroke_t	t	n/a
491.57	0.12	983140	keystroke_Key.enter	Key.enter	n/a
491.698	5.2445	983396	prompt	n/a	brad sporting yourself find\n
492.38	0.075	984760	keystroke_b	b	n/a
492.575	0.06	985150	keystroke_r	r	n/a
492.725	0.12	985450	keystroke_a	a	n/a
492.905	0.12	985810	keystroke_d	d	n/a
493.055	0.105	986110	keystroke_Key.space	Key.space	n/a
493.175	0.105	986350	keystroke_s	s	n/a
493.325	0.165	986650	keystroke_p	p	n/a
493.7	0.075	987400	keystroke_o	o	n/a
493.82	0.135	987640	keystroke_r	r	n/a
494.135	0.09	988270	keystroke_t	t	n/a
494.24	0.15	988480	keystroke_i	i	n/a
494.315	0.105	988630	keystroke_n	n	n/a
494.405	0.12	988810	keystroke_g	g	n/a
494.66	0.105	989320	keystroke_Key.space	Key.space	n/a
494.93	0.09	989860	keystroke_y	y	n/a
495.035	0.12	990070	keystroke_o	o	n/a
495.14	0.105	990280	keystroke_u	u	n/a
495.215	0.075	990430	keystroke_r	r	n/a
495.44	0.09	990880	keystroke_s	s	n/a
495.575	0.09	991150	keystroke_e	e	n/a
495.725	0.135	991450	keystroke_l	l	n/a
495.92	0.12	991840	keystroke_f	f	n/a
496.16	0.09	992320	keystroke_Key.space	Key.space	n/a
496.325	0.12	992650	keystroke_f	f	n/a
496.46	0.18	992920	keystroke_i	i	n/a
496.565	0.12	993130	keystroke_n	n	n/a
496.64	0.12	993280	keystroke_d	d	n/a
496.835	0.105	993670	keystroke_Key.enter	Key.enter	n/a
496.9475	6.6395	993895	prompt	n/a	assurance gently paso modification\n
497.51	0.135	995020	keystroke_a	a	n/a
497.69	0.075	995380	keystroke_s	s	n/a
497.885	0.06	995770	keystroke_s	s	n/a
497.99	0.105	995980	keystroke_u	u	n/a
498.215	0.09	996430	keystroke_r	r	n/a
498.41	0.105	996820	keystroke_a	a	n/a
498.53	0.09	997060	keystroke_n	n	n/a
498.605	0.09	997210	keystroke_c	c	n/a
498.8	0.105	997600	keystroke_e	e	n/a
498.92	0.09	997840	keystroke_Key.space	Key.space	n/a
499.055	0.12	998110	keystroke_g	g	n/a
499.265	0.105	998530	keystroke_e	e	n/a
499.4	0.105	998800	keystroke_n	n	n/a
499.52	0.09	999040	keystroke_t	t	n/a
499.685	0.135	999370	keystroke_l	l	n/a
499.805	0.105	999610	keystroke_y	y	n/a
499.955	0.105	999910	keystroke_Key.space	Key.space	n/a
500.3	0.105	1000600	keystroke_p	p	n/a
500.375	0.12	1000750	keystroke_a	a	n/a
500.465	0.09	1000930	keystroke_s	s	n/a
500.78	0.105	1001560	keystroke_o	o	n/a
500.96	0.075	1001920	keystroke_Key.space	Key.space	n/a
501.305	0.105	1002610	keystroke_m	m	n/a
501.56	0.105	1003120	keystroke_o	o	n/a
501.725	0.105	1003450	keystroke_d	d	n/a
501.935	0.09	1003870	keystroke_i	i	n/a
502.19	0.09	1004380	keystroke_f	f	n/a
502.295	0.09	1004590	keystroke_i	i	n/a
502.49	0.075	1004980	keystroke_c	c	n/a
502.595	0.105	1005190	keystroke_a	a	n/a
502.805	0.075	1005610	keystroke_t	t	n/a
502.85	0.255	1005700	keystroke_i	i	n/a
502.925	0.165	1005850	keystroke_o	o	n/a
503	0.15	1006000	keystroke_n	n	n/a
503.495	0.09	1006990	keystroke_Key.enter	Key.enter	n/a
503.593	6.954	1007186	prompt	n/a	charming idea indonesian wifi\n
504.035	0.105	1008070	keystroke_a	a	n/a
504.275	0.045	1008550	keystroke_Key.backspace	Key.backspace	n/a
504.335	0.12	1008670	keystroke_c	c	n/a
504.44	0.09	1008880	keystroke_h	h	n/a
504.5	0.09	1009000	keystroke_a	a	n/a
505.07	0.12	1010140	keystroke_r	r	n/a
505.175	0.075	1010350	keystroke_m	m	n/a
505.325	0.165	1010650	keystroke_i	i	n/a
505.4	0.105	1010800	keystroke_n	n	n/a
505.505	0.105	1011010	keystroke_g	g	n/a
505.61	0.09	1011220	keystroke_Key.space	Key.space	n/a
505.776	0.164	1011552	keystroke_i	i	n/a
505.925	0.15	1011850	keystroke_d	d	n/a
506.45	0.09	1012900	keystroke_e	e	n/a
506.75	0.015	1013500	keystroke_a	a	n/a
506.78	0.075	1013560	keystroke_Key.space	Key.space	n/a
506.96	0.15	1013920	keystroke_i	i	n/a
507.05	0.12	1014100	keystroke_n	n	n/a
507.545	0.12	1015090	keystroke_d	d	n/a
507.845	0.09	1015690	keystroke_o	o	n/a
507.995	0.09	1015990	keystroke_n	n	n/a
508.37	0.075	1016740	keystroke_e	e	n/a
508.625	0.09	1017250	keystroke_s	s	n/a
509.105	0.09	1018210	keystroke_i	i	n/a
509.21	0.12	1018420	keystroke_a	a	n/a
509.36	0.075	1018720	keystroke_n	n	n/a
509.51	0.09	1019020	keystroke_Key.space	Key.space	n/a
509.765	0.09	1019530	keystroke_w	w	n/a
509.84	0.105	1019680	keystroke_i	i	n/a
509.96	0.09	1019920	keystroke_f	f	n/a
510.051	0.134	1020102	keystroke_i	i	n/a
510.455	0.09	1020910	keystroke_Key.enter	Key.enter	n/a
510.5525	7.6145	1021105	prompt	n/a	temperatures focused draws aberdeen\n
511.265	0.075	1022530	keystroke_t	t	n/a
511.4	0.12	1022800	keystroke_e	e	n/a
511.535	0.1345	1023070	keystroke_m	m	n/a
511.6545	0.09	1023309	keystroke_p	p	n/a
511.9545	0.135	1023909	keystroke_e	e	n/a
512.0905	0.134	1024181	keystroke_r	r	n/a
512.2995	0.075	1024599	keystroke_a	a	n/a
512.4495	0.076	1024899	keystroke_t	t	n/a
512.5695	0.105	1025139	keystroke_u	u	n/a
512.6445	0.12	1025289	keystroke_r	r	n/a
512.7495	0.075	1025499	keystroke_e	e	n/a
512.9295	0.105	1025859	keystroke_s	s	n/a
513.0495	0.09	1026099	keystroke_Key.space	Key.space	n/a
513.1845	0.106	1026369	keystroke_f	f	n/a
513.3045	0.075	1026609	keystroke_o	o	n/a
513.4405	0.134	1026881	keystroke_c	c	n/a
513.9495	0.105	1027899	keystroke_u	u	n/a
514.0695	0.06	1028139	keystroke_s	s	n/a
514.2195	0.075	1028439	keystroke_e	e	n/a
514.3695	0.12	1028739	keystroke_d	d	n/a
514.4745	0.09	1028949	keystroke_Key.space	Key.space	n/a
514.6845	0.106	1029369	keystroke_f	f	n/a
514.9395	0.06	1029879	keystroke_Key.backspace	Key.backspace	n/a
514.9845	0.106	1029969	keystroke_d	d	n/a
515.1645	0.06	1030329	keystroke_r	r	n/a
515.3595	0.09	1030719	keystroke_a	a	n/a
515.4645	0.09	1030929	keystroke_w	w	n/a
515.6905	0.104	1031381	keystroke_s	s	n/a
515.9745	0.09	1031949	keystroke_Key.space	Key.space	n/a
516.1845	0.12	1032369	keystroke_a	a	n/a
516.4405	0.075	1032881	keystroke_b	b	n/a
516.6345	0.136	1033269	keystroke_e	e	n/a
516.7845	0.075	1033569	keystroke_r	r	n/a
516.9795	0.105	1033959	keystroke_d	d	n/a
517.1755	0.075	1034351	keystroke_e	e	n/a
517.3245	0.105	1034649	keystroke_e	e	n/a
517.4755	0.104	1034951	keystroke_n	n	n/a
