onset	duration	sample	value	key	prompt_text
24.417	16.81	48834	prompt	n/a	the quick brown fox jumps over a lazy dog\n
30.9085	0.011	61817	keystroke	t	n/a
31.0095	0.165	62019	keystroke	h	n/a
31.1595	0.075	62319	keystroke	e	n/a
31.6845	0.12	63369	keystroke	Key.space	n/a
32.1495	0.105	64299	keystroke	q	n/a
32.2395	0.15	64479	keystroke	u	n/a
32.2995	0.165	64599	keystroke	i	n/a
32.5095	0.12	65019	keystroke	c	n/a
32.6595	0.105	65319	keystroke	k	n/a
32.8395	0.135	65679	keystroke	Key.space	n/a
33.0645	0.105	66129	keystroke	b	n/a
33.2145	0.12	66429	keystroke	r	n/a
33.4695	0.12	66939	keystroke	o	n/a
33.6345	0.06	67269	keystroke	w	n/a
33.7695	0.09	67539	keystroke	n	n/a
33.9345	0.105	67869	keystroke	Key.space	n/a
34.1295	0.105	68259	keystroke	f	n/a
34.2945	0.105	68589	keystroke	o	n/a
34.5195	0.135	69039	keystroke	x	n/a
34.8495	0.105	69699	keystroke	Key.space	n/a
35.3445	0.105	70689	keystroke	j	n/a
35.5395	0.075	71079	keystroke	u	n/a
35.7945	0.09	71589	keystroke	m	n/a
36.4095	0.09	72819	keystroke	p	n/a
36.7695	0.06	73539	keystroke	s	n/a
37.0995	0.06	74199	keystroke	Key.space	n/a
37.2495	0.09	74499	keystroke	o	n/a
37.5945	0.06	75189	keystroke	v	n/a
37.7155	0.134	75431	keystroke	e	n/a
37.8795	0.09	75759	keystroke	r	n/a
38.1345	0.045	76269	keystroke	Key.space	n/a
38.3595	0.105	76719	keystroke	a	n/a
38.5395	0.105	77079	keystroke	Key.space	n/a
38.7945	0.12	77589	keystroke	l	n/a
38.9445	0.09	77889	keystroke	a	n/a
39.5445	0.165	79089	keystroke	z	n/a
39.8745	0.12	79749	keystroke	e	n/a
40.1295	0.09	80259	keystroke	Key.space	n/a
40.3545	0.105	80709	keystroke	d	n/a
40.5495	0.12	81099	keystroke	o	n/a
40.6995	0.06	81399	keystroke	g	n/a
41.1645	0.06	82329	keystroke	Key.enter	n/a
41.233	10.434	82466	prompt	n/a	tradition suited wisdom males\n
42.1245	0.075	84249	keystroke	t	n/a
42.3345	0.105	84669	keystroke	r	n/a
42.4995	0.075	84999	keystroke	a	n/a
42.7245	0.12	85449	keystroke	d	n/a
42.9045	0.105	85809	keystroke	i	n/a
43.1455	0.074	86291	keystroke	t	n/a
43.2495	0.15	86499	keystroke	i	n/a
43.4595	0.12	86919	keystroke	o	n/a
43.6545	0.105	87309	keystroke	n	n/a
44.3445	0.0905	88689	keystroke	Key.space	n/a
44.81	0.105	89620	keystroke	s	n/a
45.05	0.075	90100	keystroke	u	n/a
45.23	0.105	90460	keystroke	i	n/a
45.59	0.105	91180	keystroke	t	n/a
45.77	0.105	91540	keystroke	e	n/a
45.995	0.09	91990	keystroke	d	n/a
46.43	0.105	92860	keystroke	Key.space	n/a
46.73	0.135	93460	keystroke	w	n/a
47.3	0.105	94600	keystroke	i	n/a
47.479	0.121	94958	keystroke	d	n/a
48.214	0.12	96428	keystroke	Key.backspace	n/a
48.38	0.12	96760	keystroke	s	n/a
48.739	0.09	97478	keystroke	d	n/a
48.86	0.12	97720	keystroke	o	n/a
49.145	0.0895	98290	keystroke	m	n/a
49.9245	0.105	99849	keystroke	Key.space	n/a
50.21	0.105	100420	keystroke	m	n/a
50.3895	0.09	100779	keystroke	a	n/a
50.6745	0.12	101349	keystroke	l	n/a
50.7795	0.15	101559	keystroke	e	n/a
50.8995	0.12	101799	keystroke	s	n/a
51.59	0.075	103180	keystroke	Key.enter	n/a
51.6715	10.3005	103343	prompt	n/a	instruction lesser shared evaluated\n
52.3995	0.09	104799	keystroke	i	n/a
53.2845	0.075	106569	keystroke	n	n/a
53.5695	0.135	107139	keystroke	s	n/a
53.84	0.09	107680	keystroke	t	n/a
54.0645	0.105	108129	keystroke	r	n/a
54.2145	0.09	108429	keystroke	u	n/a
54.4245	0.09	108849	keystroke	c	n/a
54.6945	0.105	109389	keystroke	t	n/a
54.8145	0.09	109629	keystroke	i	n/a
54.9795	0.105	109959	keystroke	o	n/a
55.2045	0.09	110409	keystroke	n	n/a
55.4295	0.075	110859	keystroke	Key.space	n/a
55.6695	0.06	111339	keystroke	l	n/a
55.9245	0.105	111849	keystroke	e	n/a
56.1645	0.09	112329	keystroke	s	n/a
56.3745	0.0605	112749	keystroke	s	n/a
56.5845	0.105	113169	keystroke	e	n/a
56.8545	0.15	113709	keystroke	r	n/a
57.2445	0.135	114489	keystroke	Key.space	n/a
57.4545	0.135	114909	keystroke	s	n/a
57.6195	0.135	115239	keystroke	h	n/a
57.7995	0.075	115599	keystroke	a	n/a
58.0245	0.15	116049	keystroke	r	n/a
58.1145	0.135	116229	keystroke	e	n/a
58.3695	0.105	116739	keystroke	d	n/a
58.6845	0.09	117369	keystroke	Key.space	n/a
58.9245	0.105	117849	keystroke	e	n/a
59.4045	0.135	118809	keystroke	v	n/a
60.1245	0.12	120249	keystroke	a	n/a
60.3495	0.12	120699	keystroke	l	n/a
60.6195	0.105	121239	keystroke	u	n/a
60.7995	0.12	121599	keystroke	a	n/a
61.0545	0.135	122109	keystroke	t	n/a
61.2495	0.06	122499	keystroke	e	n/a
61.4595	0.075	122919	keystroke	d	n/a
61.8945	0.075	123789	keystroke	Key.enter	n/a
61.978	11.2595	123956	prompt	n/a	cylinder danger tablet samba\n
62.7645	0.12	125529	keystroke	c	n/a
63.0795	0.075	126159	keystroke	y	n/a
63.32	0.1045	126640	keystroke	l	n/a
63.5595	0.12	127119	keystroke	i	n/a
63.7995	0.105	127599	keystroke	n	n/a
65.6305	0.09	131261	keystroke	d	n/a
65.9005	0.18	131801	keystroke	e	n/a
66.1555	0.104	132311	keystroke	r	n/a
67.0545	0.091	134109	keystroke	Key.space	n/a
67.2355	0.105	134471	keystroke	d	n/a
67.4605	0.09	134921	keystroke	a	n/a
67.6105	0.045	135221	keystroke	n	n/a
67.7605	0.089	135521	keystroke	g	n/a
67.9855	0.195	135971	keystroke	e	n/a
68.1205	0.15	136241	keystroke	r	n/a
68.6295	0.091	137259	keystroke	Key.space	n/a
68.8995	0.06	137799	keystroke	t	n/a
69.0945	0.135	138189	keystroke	a	n/a
69.2745	0.075	138549	keystroke	b	n/a
69.4845	0.12	138969	keystroke	l	n/a
69.7095	0.091	139419	keystroke	e	n/a
69.9345	0.06	139869	keystroke	t	n/a
70.7595	0.1355	141519	keystroke	Key.space	n/a
70.985	0.075	141970	keystroke	s	n/a
71.21	0.09	142420	keystroke	a	n/a
71.375	0.03	142750	keystroke	m	n/a
71.8095	0.076	143619	keystroke	b	n/a
72.4855	0.105	144971	keystroke	a	n/a
73.145	0.09	146290	keystroke	Key.enter	n/a
73.243	12.549	146486	prompt	n/a	unix sculpture bruce photography\n
74.18	0.105	148360	keystroke	u	n/a
74.51	0.165	149020	keystroke	n	n/a
74.6	0.12	149200	keystroke	i	n/a
74.765	0.0905	149530	keystroke	x	n/a
75.8745	0.105	151749	keystroke	Key.space	n/a
76.1305	0.09	152261	keystroke	s	n/a
76.3405	0.12	152681	keystroke	c	n/a
76.4755	0.09	152951	keystroke	u	n/a
76.6855	0.12	153371	keystroke	l	n/a
77.51	0.105	155020	keystroke	p	n/a
78.035	0.09	156070	keystroke	t	n/a
78.23	0.09	156460	keystroke	u	n/a
78.41	0.105	156820	keystroke	r	n/a
78.47	0.121	156940	keystroke	e	n/a
79.6395	0.12	159279	keystroke	Key.space	n/a
79.8955	0.089	159791	keystroke	b	n/a
80.0455	0.075	160091	keystroke	r	n/a
80.3005	0.105	160601	keystroke	u	n/a
80.5405	0.09	161081	keystroke	c	n/a
80.8255	0.104	161651	keystroke	e	n/a
81.1705	0.134	162341	keystroke	Key.space	n/a
81.4855	0.09	162971	keystroke	p	n/a
81.7105	0.12	163421	keystroke	h	n/a
81.8755	0.105	163751	keystroke	o	n/a
82.0705	0.135	164141	keystroke	t	n/a
82.2955	0.104	164591	keystroke	o	n/a
82.7305	0.12	165461	keystroke	g	n/a
83.0605	0.09	166121	keystroke	r	n/a
83.2705	0.12	166541	keystroke	a	n/a
83.5855	0.105	167171	keystroke	p	n/a
83.7805	0.105	167561	keystroke	h	n/a
84.0505	0.12	168101	keystroke	y	n/a
85.6855	0.105	171371	keystroke	Key.enter	n/a
85.7965	13.737	171593	prompt	n/a	riverside singles openings dollar\n
86.9755	0.15	173951	keystroke	r	n/a
87.0505	0.135	174101	keystroke	e	n/a
87.3655	0.105	174731	keystroke	v	n/a
87.5905	0.12	175181	keystroke	i	n/a
88.9105	0.09	177821	keystroke	Key.backspace	n/a
89.1205	0.09	178241	keystroke	Key.backspace	n/a
90.1855	0.105	180371	keystroke	i	n/a
90.68	0.09	181360	keystroke	Key.backspace	n/a
90.89	0.12	181780	keystroke	Key.backspace	n/a
91.235	0.106	182470	keystroke	i	n/a
91.91	0.09	183820	keystroke	v	n/a
92.15	0.24	184300	keystroke	e	n/a
92.3	0.165	184600	keystroke	r	n/a
92.525	0.12	185050	keystroke	s	n/a
92.66	0.135	185320	keystroke	i	n/a
92.81	0.105	185620	keystroke	d	n/a
93.08	0.12	186160	keystroke	e	n/a
93.35	0.06	186700	keystroke	Key.space	n/a
93.575	0.09	187150	keystroke	s	n/a
93.785	0.18	187570	keystroke	i	n/a
93.875	0.151	187750	keystroke	n	n/a
94.07	0.105	188140	keystroke	g	n/a
94.31	0.06	188620	keystroke	l	n/a
94.505	0.09	189010	keystroke	e	n/a
94.73	0.075	189460	keystroke	s	n/a
95.18	0.09	190360	keystroke	Key.space	n/a
95.405	0.091	190810	keystroke	o	n/a
95.54	0.12	191080	keystroke	p	n/a
95.825	0.09	191650	keystroke	e	n/a
95.96	0.136	191920	keystroke	n	n/a
96.17	0.226	192340	keystroke	i	n/a
96.305	0.136	192610	keystroke	n	n/a
96.5	0.105	193000	keystroke	g	n/a
96.995	0.06	193990	keystroke	s	n/a
97.355	0.075	194710	keystroke	Key.space	n/a
97.67	0.09	195340	keystroke	d	n/a
97.865	0.12	195730	keystroke	o	n/a
98.15	0.12	196300	keystroke	l	n/a
98.36	0.135	196720	keystroke	l	n/a
98.646	0.104	197292	keystroke	a	n/a
98.825	0.075	197650	keystroke	r	n/a
99.44	0.09	198880	keystroke	Key.enter	n/a
99.541	16.7615	199082	prompt	n/a	qualities marathon homeland specifically\n
100.37	0.09	200740	keystroke	q	n/a
101.2555	0.075	202511	keystroke	u	n/a
101.4355	0.105	202871	keystroke	a	n/a
101.7955	0.09	203591	keystroke	l	n/a
101.9905	0.12	203981	keystroke	i	n/a
102.3505	0.06	204701	keystroke	t	n/a
102.5155	0.09	205031	keystroke	i	n/a
102.6505	0.15	205301	keystroke	e	n/a
102.8155	0.135	205631	keystroke	s	n/a
103.2355	0.135	206471	keystroke	Key.space	n/a
103.5355	0.09	207071	keystroke	m	n/a
103.7455	0.105	207491	keystroke	a	n/a
103.9705	0.135	207941	keystroke	r	n/a
104.1205	0.09	208241	keystroke	a	n/a
104.4205	0.075	208841	keystroke	t	n/a
104.6005	0.105	209201	keystroke	h	n/a
104.8105	0.105	209621	keystroke	o	n/a
105.0655	0.075	210131	keystroke	n	n/a
105.8305	0.1345	211661	keystroke	Key.space	n/a
106.176	0.09	212352	keystroke	h	n/a
106.325	0.105	212650	keystroke	o	n/a
106.566	0.104	213132	keystroke	m	n/a
106.745	0.105	213490	keystroke	e	n/a
106.896	0.09	213792	keystroke	l	n/a
107.136	0.09	214272	keystroke	a	n/a
107.346	0.075	214692	keystroke	n	n/a
108.095	0.091	216190	keystroke	d	n/a
108.56	0.106	217120	keystroke	Key.space	n/a
108.8905	0.06	217781	keystroke	s	n/a
109.0405	0.09	218081	keystroke	p	n/a
109.3405	0.105	218681	keystroke	e	n/a
110.6005	0.135	221201	keystroke	c	n/a
110.8705	0.12	221741	keystroke	i	n/a
111.2605	0.09	222521	keystroke	f	n/a
111.4705	0.105	222941	keystroke	i	n/a
112.3855	0.12	224771	keystroke	c	n/a
112.6105	0.105	225221	keystroke	a	n/a
112.8055	0.12	225611	keystroke	l	n/a
113.0305	0.09	226061	keystroke	l	n/a
113.3155	0.12	226631	keystroke	y	n/a
113.7505	0.15	227501	keystroke	Key.space	n/a
115.3405	0.12	230681	keystroke	Key.backspace	n/a
116.1655	0.135	232331	keystroke	Key.enter	n/a
116.307	15.626	232614	prompt	n/a	infection ports evanescence volkswagen\n
117.1405	0.09	234281	keystroke	i	n/a
117.3805	0.075	234761	keystroke	n	n/a
117.5605	0.105	235121	keystroke	f	n/a
117.7555	0.105	235511	keystroke	e	n/a
118.0105	0.105	236021	keystroke	c	n/a
118.3255	0.105	236651	keystroke	t	n/a
118.4155	0.12	236831	keystroke	i	n/a
118.6405	0.12	237281	keystroke	o	n/a
118.8655	0.135	237731	keystroke	n	n/a
119.1805	0.105	238361	keystroke	Key.space	n/a
119.3905	0.09	238781	keystroke	p	n/a
119.6005	0.12	239201	keystroke	o	n/a
119.9605	0.12	239921	keystroke	r	n/a
120.2305	0.12	240461	keystroke	t	n/a
120.5155	0.12	241031	keystroke	s	n/a
120.9805	0.12	241961	keystroke	Key.space	n/a
121.5355	0.09	243071	keystroke	e	n/a
121.8805	0.105	243761	keystroke	v	n/a
122.8405	0.15	245681	keystroke	a	n/a
123.3055	0.105	246611	keystroke	n	n/a
123.5905	0.135	247181	keystroke	e	n/a
123.8905	0.165	247781	keystroke	s	n/a
124.8205	0.15	249641	keystroke	c	n/a
125.1355	0.195	250271	keystroke	e	n/a
125.3905	0.165	250781	keystroke	n	n/a
125.8405	0.075	251681	keystroke	c	n/a
126.1105	0.09	252221	keystroke	e	n/a
126.7855	0.105	253571	keystroke	Key.space	n/a
128.2255	0.15	256451	keystroke	v	n/a
128.6305	0.15	257261	keystroke	o	n/a
129.155	0.12	258310	keystroke	l	n/a
129.41	0.165	258820	keystroke	k	n/a
129.68	0.09	259360	keystroke	s	n/a
129.936	0.119	259872	keystroke	w	n/a
130.22	0.0755	260440	keystroke	a	n/a
130.461	0.059	260922	keystroke	g	n/a
130.7	0.06	261400	keystroke	e	n/a
130.8655	0.105	261731	keystroke	n	n/a
131.8255	0.105	263651	keystroke	Key.enter	n/a
131.9385	10.974	263877	prompt	n/a	appreciate helpful male see\n
132.846	0.09	265692	keystroke	a	n/a
133.025	0.121	266050	keystroke	p	n/a
133.326	0.12	266652	keystroke	p	n/a
133.611	0.15	267222	keystroke	r	n/a
133.731	0.09	267462	keystroke	e	n/a
134.001	0.09	268002	keystroke	c	n/a
134.241	0.105	268482	keystroke	i	n/a
134.391	0.09	268782	keystroke	a	n/a
134.646	0.105	269292	keystroke	t	n/a
134.8855	0.105	269771	keystroke	e	n/a
135.1255	0.105	270251	keystroke	Key.space	n/a
135.4105	0.105	270821	keystroke	h	n/a
135.5915	0.134	271183	keystroke	e	n/a
135.8305	0.12	271661	keystroke	l	n/a
136.0705	0.105	272141	keystroke	p	n/a
136.4905	0.105	272981	keystroke	f	n/a
136.6555	0.105	273311	keystroke	u	n/a
136.9105	0.105	273821	keystroke	l	n/a
137.1655	0.075	274331	keystroke	Key.space	n/a
137.376	0.0895	274752	keystroke	m	n/a
137.5255	0.15	275051	keystroke	a	n/a
137.7205	0.105	275441	keystroke	k	n/a
137.9755	0.195	275951	keystroke	e	n/a
138.201	0.0895	276402	keystroke	Key.space	n/a
138.4555	0.09	276911	keystroke	s	n/a
138.6505	0.09	277301	keystroke	e	n/a
139.0555	0.075	278111	keystroke	Key.backspace	n/a
139.2655	0.075	278531	keystroke	Key.backspace	n/a
139.4905	0.075	278981	keystroke	Key.backspace	n/a
139.7155	0.1205	279431	keystroke	Key.backspace	n/a
139.986	0.12	279972	keystroke	Key.backspace	n/a
140.766	0.135	281532	keystroke	l	n/a
141.006	0.135	282012	keystroke	e	n/a
142.056	0.105	284112	keystroke	Key.space	n/a
142.236	0.195	284472	keystroke	s	n/a
142.446	0.105	284892	keystroke	e	n/a
142.656	0.09	285312	keystroke	e	n/a
142.851	0.06	285702	keystroke	Key.enter	n/a
142.917	11.8615	285834	prompt	n/a	bumper stories discipline announcement\n
143.871	0.06	287742	keystroke	b	n/a
144.171	0.075	288342	keystroke	u	n/a
144.456	0.105	288912	keystroke	m	n/a
144.861	0.075	289722	keystroke	p	n/a
145.146	0.135	290292	keystroke	e	n/a
145.371	0.165	290742	keystroke	r	n/a
145.581	0.105	291162	keystroke	Key.space	n/a
145.731	0.15	291462	keystroke	s	n/a
146.016	0.09	292032	keystroke	t	n/a
146.136	0.12	292272	keystroke	o	n/a
146.286	0.135	292572	keystroke	r	n/a
146.496	0.12	292992	keystroke	i	n/a
146.661	0.135	293322	keystroke	e	n/a
146.946	0.09	293892	keystroke	s	n/a
147.156	0.09	294312	keystroke	Key.space	n/a
147.411	0.12	294822	keystroke	d	n/a
147.561	0.135	295122	keystroke	i	n/a
147.801	0.12	295602	keystroke	s	n/a
148.086	0.135	296172	keystroke	c	n/a
148.251	0.12	296502	keystroke	i	n/a
148.476	0.105	296952	keystroke	p	n/a
148.701	0.105	297402	keystroke	l	n/a
148.881	0.12	297762	keystroke	i	n/a
149.136	0.105	298272	keystroke	n	n/a
149.361	0.09	298722	keystroke	e	n/a
150.591	0.12	301182	keystroke	Key.space	n/a
150.816	0.12	301632	keystroke	a	n/a
151.041	0.075	302082	keystroke	n	n/a
151.206	0.12	302412	keystroke	n	n/a
151.386	0.12	302772	keystroke	o	n/a
151.641	0.15	303282	keystroke	u	n/a
151.986	0.12	303972	keystroke	n	n/a
152.241	0.15	304482	keystroke	c	n/a
152.556	0.075	305112	keystroke	e	n/a
152.691	0.105	305382	keystroke	m	n/a
152.841	0.135	305682	keystroke	e	n/a
153.021	0.12	306042	keystroke	n	n/a
153.201	0.09	306402	keystroke	t	n/a
154.701	0.075	309402	keystroke	Key.enter	n/a
154.7845	13.3735	309569	prompt	n/a	keeps broader spirituality personals\n
156.1255	0.105	312251	keystroke	k	n/a
156.2905	0.06	312581	keystroke	e	n/a
156.5005	0.105	313001	keystroke	e	n/a
156.7105	0.105	313421	keystroke	o	n/a
156.9505	0.045	313901	keystroke	s	n/a
157.4305	0.09	314861	keystroke	Key.backspace	n/a
157.6555	0.135	315311	keystroke	Key.backspace	n/a
158.6605	0.075	317321	keystroke	p	n/a
159.6205	0.105	319241	keystroke	s	n/a
159.8755	0.075	319751	keystroke	Key.space	n/a
160.0705	0.09	320141	keystroke	b	n/a
160.2805	0.135	320561	keystroke	r	n/a
160.5355	0.09	321071	keystroke	o	n/a
160.8655	0.105	321731	keystroke	a	n/a
161.1355	0.12	322271	keystroke	d	n/a
161.4205	0.135	322841	keystroke	e	n/a
161.6755	0.12	323351	keystroke	r	n/a
161.9305	0.09	323861	keystroke	Key.space	n/a
162.3505	0.135	324701	keystroke	s	n/a
162.5455	0.135	325091	keystroke	p	n/a
162.816	0.104	325632	keystroke	i	n/a
163.115	0.135	326230	keystroke	r	n/a
163.311	0.089	326622	keystroke	i	n/a
163.55	0.105	327100	keystroke	t	n/a
163.7	0.121	327400	keystroke	u	n/a
163.925	0.105	327850	keystroke	a	n/a
164.151	0.149	328302	keystroke	l	n/a
164.345	0.105	328690	keystroke	i	n/a
164.615	0.091	329230	keystroke	t	n/a
164.9	0.091	329800	keystroke	y	n/a
165.185	0.076	330370	keystroke	Key.space	n/a
165.365	0.106	330730	keystroke	p	n/a
165.59	0.09	331180	keystroke	e	n/a
165.996	0.119	331992	keystroke	r	n/a
166.25	0.12	332500	keystroke	s	n/a
166.43	0.165	332860	keystroke	o	n/a
166.655	0.12	333310	keystroke	n	n/a
166.8955	0.105	333791	keystroke	a	n/a
167.1655	0.15	334331	keystroke	l	n/a
167.3755	0.12	334751	keystroke	s	n/a
168.0655	0.09	336131	keystroke	Key.enter	n/a
168.164	25.3585	336328	prompt	n/a	seed renew egyptian compilation\n
168.966	0.045	337932	keystroke	s	n/a
169.176	0.075	338352	keystroke	e	n/a
169.386	0.075	338772	keystroke	e	n/a
169.6555	0.105	339311	keystroke	d	n/a
169.9855	0.09	339971	keystroke	Key.space	n/a
170.5705	0.15	341141	keystroke	r	n/a
170.6455	0.135	341291	keystroke	e	n/a
170.8855	0.105	341771	keystroke	n	n/a
171.1255	0.12	342251	keystroke	e	n/a
171.3505	0.135	342701	keystroke	w	n/a
171.6355	0.09	343271	keystroke	Key.space	n/a
172.7455	0.09	345491	keystroke	e	n/a
173.5705	0.21	347141	keystroke	g	n/a
174.2005	0.12	348401	keystroke	y	n/a
175.1905	0.12	350381	keystroke	Key.backspace	n/a
175.5505	0.12	351101	keystroke	Key.backspace	n/a
176.6305	0.105	353261	keystroke	g	n/a
176.9455	0.12	353891	keystroke	y	n/a
177.4405	0.105	354881	keystroke	p	n/a
177.7855	0.105	355571	keystroke	t	n/a
178.5055	0.075	357011	keystroke	i	n/a
178.8205	0.135	357641	keystroke	a	n/a
179.0155	0.105	358031	keystroke	n	n/a
179.9005	0.12	359801	keystroke	Key.space	n/a
180.2155	0.12	360431	keystroke	c	n/a
180.2755	0.165	360551	keystroke	o	n/a
180.6205	0.105	361241	keystroke	m	n/a
185.1385	0.042	370277	keystroke	p	n/a
185.3155	0.21	370631	keystroke	l	n/a
185.4815	0.119	370963	keystroke	i	n/a
185.7055	0.105	371411	keystroke	a	n/a
188.859	0.0415	377718	keystroke	Key.backspace	n/a
189.0055	0.105	378011	keystroke	Key.backspace	n/a
189.2605	0.06	378521	keystroke	Key.backspace	n/a
189.8455	0.09	379691	keystroke	i	n/a
190.1155	0.105	380231	keystroke	l	n/a
191.0605	0.105	382121	keystroke	a	n/a
192.4255	0.09	384851	keystroke	t	n/a
192.5605	0.165	385121	keystroke	i	n/a
192.6655	0.2405	385331	keystroke	o	n/a
192.8755	0.0905	385751	keystroke	n	n/a
193.431	0.09	386862	keystroke	Key.enter	n/a
193.528	7.765	387056	prompt	n/a	cheaper hobby tion refers\n
194.541	0.105	389082	keystroke	c	n/a
194.691	0.105	389382	keystroke	h	n/a
194.901	0.0895	389802	keystroke	e	n/a
195.0955	0.105	390191	keystroke	a	n/a
195.2905	0.06	390581	keystroke	p	n/a
195.5605	0.105	391121	keystroke	e	n/a
195.8155	0.09	391631	keystroke	r	n/a
196.0255	0.06	392051	keystroke	Key.space	n/a
196.3405	0.135	392681	keystroke	h	n/a
196.6105	0.105	393221	keystroke	o	n/a
196.8655	0.1055	393731	keystroke	b	n/a
197.076	0.075	394152	keystroke	b	n/a
197.451	0.105	394902	keystroke	y	n/a
198.006	0.105	396012	keystroke	Key.space	n/a
198.561	0.09	397122	keystroke	t	n/a
198.726	0.12	397452	keystroke	i	n/a
198.936	0.0895	397872	keystroke	o	n/a
199.1455	0.105	398291	keystroke	n	n/a
199.3855	0.09	398771	keystroke	Key.space	n/a
199.6555	0.12	399311	keystroke	r	n/a
199.7905	0.12	399581	keystroke	e	n/a
200.0005	0.135	400001	keystroke	f	n/a
200.3155	0.18	400631	keystroke	e	n/a
200.4355	0.165	400871	keystroke	r	n/a
200.7505	0.105	401501	keystroke	s	n/a
201.2005	0.09	402401	keystroke	Key.enter	n/a
201.298	12.715	402596	prompt	n/a	golf nurse bachelor iraqi\n
202.1605	0.105	404321	keystroke	g	n/a
202.2955	0.12	404591	keystroke	o	n/a
202.5655	0.09	405131	keystroke	l	n/a
202.8505	0.135	405701	keystroke	f	n/a
203.3005	0.135	406601	keystroke	Key.space	n/a
203.5855	0.075	407171	keystroke	n	n/a
203.8405	0.135	407681	keystroke	u	n/a
204.0055	0.12	408011	keystroke	r	n/a
204.2755	0.12	408551	keystroke	s	n/a
204.5005	0.12	409001	keystroke	e	n/a
205.3555	0.075	410711	keystroke	Key.space	n/a
205.7005	0.105	411401	keystroke	b	n/a
205.8505	0.105	411701	keystroke	a	n/a
206.1205	0.09	412241	keystroke	c	n/a
206.2855	0.105	412571	keystroke	h	n/a
206.7055	0.135	413411	keystroke	e	n/a
206.9605	0.105	413921	keystroke	l	n/a
207.2005	0.12	414401	keystroke	o	n/a
207.4405	0.06	414881	keystroke	r	n/a
207.6355	0.06	415271	keystroke	Key.space	n/a
209.3155	0.105	418631	keystroke	i	n/a
209.5255	0.12	419051	keystroke	r	n/a
209.8105	0.15	419621	keystroke	q	n/a
211.1455	0.12	422291	keystroke	Key.backspace	n/a
211.4905	0.105	422981	keystroke	a	n/a
211.8505	0.105	423701	keystroke	q	n/a
213.2455	0.151	426491	keystroke	i	n/a
213.9055	0.105	427811	keystroke	Key.enter	n/a
214.018	11.905	428036	prompt	n/a	roman decimal indexed contractors\n
215.0765	0.149	430153	keystroke	r	n/a
215.2705	0.121	430541	keystroke	o	n/a
215.5105	0.135	431021	keystroke	m	n/a
215.7055	0.18	431411	keystroke	a	n/a
215.9155	0.106	431831	keystroke	n	n/a
216.0955	0.135	432191	keystroke	Key.space	n/a
216.5165	0.075	433033	keystroke	d	n/a
216.8615	0.135	433723	keystroke	e	n/a
217.8205	0.15	435641	keystroke	c	n/a
218.0905	0.105	436181	keystroke	i	n/a
218.3755	0.105	436751	keystroke	m	n/a
218.5855	0.105	437171	keystroke	a	n/a
218.7205	0.075	437441	keystroke	l	n/a
219.9805	0.105	439961	keystroke	Key.space	n/a
220.1905	0.12	440381	keystroke	i	n/a
220.4465	0.104	440893	keystroke	n	n/a
220.5955	0.075	441191	keystroke	d	n/a
220.836	0.105	441672	keystroke	e	n/a
221.166	0.12	442332	keystroke	x	n/a
221.616	0.105	443232	keystroke	e	n/a
222.201	0.075	444402	keystroke	d	n/a
222.516	0.045	445032	keystroke	Key.space	n/a
222.786	0.09	445572	keystroke	c	n/a
223.026	0.105	446052	keystroke	o	n/a
223.236	0.12	446472	keystroke	n	n/a
223.431	0.075	446862	keystroke	t	n/a
223.626	0.15	447252	keystroke	r	n/a
223.836	0.105	447672	keystroke	a	n/a
224.091	0.12	448182	keystroke	c	n/a
224.436	0.105	448872	keystroke	t	n/a
224.631	0.15	449262	keystroke	o	n/a
224.8565	0.09	449713	keystroke	r	n/a
225.0665	0.09	450133	keystroke	s	n/a
225.7865	0.135	451573	keystroke	Key.enter	n/a
225.928	15.3105	451856	prompt	n/a	gilbert cholesterol windsor rebates\n
228.58	0.071	457160	keystroke	g	n/a
228.666	0.136	457332	keystroke	i	n/a
228.9065	0.105	457813	keystroke	l	n/a
229.1465	0.12	458293	keystroke	b	n/a
229.3415	0.165	458683	keystroke	e	n/a
229.4765	0.12	458953	keystroke	r	n/a
229.7915	0.0895	459583	keystroke	t	n/a
230.001	0.12	460002	keystroke	Key.space	n/a
230.391	0.15	460782	keystroke	c	n/a
230.781	0.015	461562	keystroke	h	n/a
231.2615	0.15	462523	keystroke	o	n/a
231.5915	0.12	463183	keystroke	l	n/a
231.7715	0.1195	463543	keystroke	e	n/a
232.026	0.1355	464052	keystroke	s	n/a
232.3715	0.09	464743	keystroke	t	n/a
232.7615	0.165	465523	keystroke	e	n/a
233.0765	0.165	466153	keystroke	r	n/a
233.7965	0.09	467593	keystroke	o	n/a
234.0215	0.075	468043	keystroke	l	n/a
236.5295	0.042	473059	keystroke	Key.space	n/a
237.0365	0.135	474073	keystroke	w	n/a
237.1865	0.24	474373	keystroke	i	n/a
237.3215	0.15	474643	keystroke	n	n/a
237.5915	0.15	475183	keystroke	d	n/a
237.8465	0.15	475693	keystroke	s	n/a
238.0265	0.12	476053	keystroke	o	n/a
238.3265	0.09	476653	keystroke	r	n/a
238.7765	0.09	477553	keystroke	Key.space	n/a
239.0615	0.165	478123	keystroke	r	n/a
239.2275	0.134	478455	keystroke	e	n/a
239.5865	0.105	479173	keystroke	b	n/a
239.7215	0.075	479443	keystroke	a	n/a
239.9615	0.12	479923	keystroke	t	n/a
240.1265	0.15	480253	keystroke	e	n/a
240.3365	0.12	480673	keystroke	s	n/a
241.1315	0.105	482263	keystroke	Key.enter	n/a
241.2465	8.2875	482493	prompt	n/a	transmit armed lodge figure\n
242.0765	0.091	484153	keystroke	t	n/a
242.3015	0.12	484603	keystroke	r	n/a
242.5275	0.089	485055	keystroke	a	n/a
242.6915	0.12	485383	keystroke	n	n/a
242.8715	0.15	485743	keystroke	s	n/a
243.0365	0.09	486073	keystroke	m	n/a
243.2615	0.105	486523	keystroke	i	n/a
243.5465	0.105	487093	keystroke	t	n/a
243.9515	0.12	487903	keystroke	Key.space	n/a
244.2815	0.166	488563	keystroke	a	n/a
244.4615	0.165	488923	keystroke	r	n/a
244.6715	0.12	489343	keystroke	m	n/a
244.8215	0.075	489643	keystroke	e	n/a
245.0315	0.105	490063	keystroke	d	n/a
245.3915	0.15	490783	keystroke	Key.space	n/a
245.7665	0.135	491533	keystroke	l	n/a
246.0065	0.12	492013	keystroke	o	n/a
246.3665	0.105	492733	keystroke	d	n/a
246.6525	0.15	493305	keystroke	g	n/a
246.9815	0.135	493963	keystroke	e	n/a
247.3715	0.075	494743	keystroke	Key.space	n/a
247.8825	0.12	495765	keystroke	f	n/a
248.0165	0.105	496033	keystroke	i	n/a
248.1665	0.12	496333	keystroke	g	n/a
248.3615	0.105	496723	keystroke	u	n/a
248.5725	0.119	497145	keystroke	r	n/a
248.6765	0.135	497353	keystroke	e	n/a
249.4415	0.09	498883	keystroke	Key.enter	n/a
249.539	11.081	499078	prompt	n/a	lamps interactions mistakes surround\n
250.8965	0.15	501793	keystroke	l	n/a
251.1815	0.135	502363	keystroke	a	n/a
251.4215	0.12	502843	keystroke	m	n/a
251.6765	0.135	503353	keystroke	p	n/a
251.9315	0.135	503863	keystroke	s	n/a
252.2015	0.12	504403	keystroke	Key.space	n/a
252.4865	0.105	504973	keystroke	i	n/a
252.6815	0.135	505363	keystroke	n	n/a
252.8765	0.12	505753	keystroke	t	n/a
253.1315	0.135	506263	keystroke	e	n/a
253.3115	0.135	506623	keystroke	r	n/a
253.4765	0.135	506953	keystroke	a	n/a
253.7165	0.121	507433	keystroke	t	n/a
253.8375	0.119	507675	keystroke	i	n/a
254.0615	0.15	508123	keystroke	o	n/a
254.3615	0.09	508723	keystroke	n	n/a
254.842	0.1045	509684	keystroke	s	n/a
255.1565	0.12	510313	keystroke	Key.space	n/a
255.3065	0.105	510613	keystroke	m	n/a
255.5765	0.105	511153	keystroke	i	n/a
255.8015	0.12	511603	keystroke	s	n/a
256.0715	0.09	512143	keystroke	t	n/a
256.3715	0.015	512743	keystroke	a	n/a
256.4015	0.105	512803	keystroke	k	n/a
256.5815	0.135	513163	keystroke	e	n/a
256.8515	0.105	513703	keystroke	s	n/a
257.1365	0.045	514273	keystroke	Key.space	n/a
257.3315	0.105	514663	keystroke	s	n/a
257.5415	0.12	515083	keystroke	u	n/a
257.7365	0.075	515473	keystroke	r	n/a
257.9315	0.105	515863	keystroke	r	n/a
258.1265	0.195	516253	keystroke	o	n/a
258.2915	0.12	516583	keystroke	u	n/a
258.5765	0.105	517153	keystroke	n	n/a
259.1615	0.09	518323	keystroke	d	n/a
260.5265	0.091	521053	keystroke	Key.enter	n/a
260.624	9.625	521248	prompt	n/a	paragraph vice military gregory\n
261.4415	0.135	522883	keystroke	p	n/a
261.8165	0.15	523633	keystroke	a	n/a
262.0565	0.165	524113	keystroke	r	n/a
262.2665	0.105	524533	keystroke	a	n/a
262.4915	0.12	524983	keystroke	g	n/a
262.7465	0.105	525493	keystroke	r	n/a
262.9865	0.12	525973	keystroke	a	n/a
263.1965	0.09	526393	keystroke	p	n/a
263.3915	0.09	526783	keystroke	h	n/a
263.6615	0.075	527323	keystroke	Key.space	n/a
263.9765	0.09	527953	keystroke	v	n/a
264.1415	0.15	528283	keystroke	i	n/a
264.3965	0.105	528793	keystroke	c	n/a
264.6965	0.135	529393	keystroke	e	n/a
265.0715	0.015	530143	keystroke	Key.space	n/a
265.1015	0.105	530203	keystroke	m	n/a
265.3415	0.06	530683	keystroke	i	n/a
265.8365	0.135	531673	keystroke	l	n/a
266.0315	0.135	532063	keystroke	i	n/a
266.2715	0.09	532543	keystroke	t	n/a
266.4815	0.12	532963	keystroke	a	n/a
266.7365	0.12	533473	keystroke	r	n/a
267.0365	0.105	534073	keystroke	y	n/a
267.4715	0.135	534943	keystroke	Key.space	n/a
267.7565	0.06	535513	keystroke	g	n/a
268.2815	0.196	536563	keystroke	r	n/a
268.4465	0.105	536893	keystroke	e	n/a
268.7025	0.104	537405	keystroke	g	n/a
268.9115	0.12	537823	keystroke	o	n/a
269.1215	0.12	538243	keystroke	r	n/a
269.2865	0.12	538573	keystroke	y	n/a
270.1865	0.06	540373	keystroke	Key.enter	n/a
270.2525	15.2215	540505	prompt	n/a	christopher nationwide administration prepare\n
272.0775	0.134	544155	keystroke	c	n/a
272.2575	0.119	544515	keystroke	h	n/a
272.4375	0.194	544875	keystroke	r	n/a
272.8575	0.119	545715	keystroke	i	n/a
273.0825	0.12	546165	keystroke	s	n/a
274.0715	0.136	548143	keystroke	t	n/a
274.2525	0.134	548505	keystroke	o	n/a
274.4615	0.105	548923	keystroke	p	n/a
274.7315	0.076	549463	keystroke	h	n/a
274.8965	0.15	549793	keystroke	e	n/a
275.0315	0.135	550063	keystroke	r	n/a
275.5415	0.09	551083	keystroke	Key.space	n/a
275.9625	0.104	551925	keystroke	n	n/a
276.1265	0.15	552253	keystroke	a	n/a
276.3815	0.106	552763	keystroke	t	n/a
276.4715	0.136	552943	keystroke	i	n/a
276.5615	0.18	553123	keystroke	o	n/a
276.8165	0.15	553633	keystroke	n	n/a
277.6565	0.12	555313	keystroke	w	n/a
277.8065	0.135	555613	keystroke	i	n/a
278.4215	0.12	556843	keystroke	d	n/a
278.6775	0.059	557355	keystroke	e	n/a
279.502	0.12	559004	keystroke	Key.space	n/a
279.772	0.0605	559544	keystroke	a	n/a
280.027	0.165	560054	keystroke	d	n/a
280.237	0.075	560474	keystroke	m	n/a
280.462	0.15	560924	keystroke	i	n/a
281.0165	0.045	562033	keystroke	n	n/a
281.1825	0.105	562365	keystroke	i	n/a
281.4215	0.12	562843	keystroke	s	n/a
281.9015	0.09	563803	keystroke	t	n/a
282.1425	0.119	564285	keystroke	r	n/a
282.2775	0.15	564555	keystroke	a	n/a
282.5615	0.091	565123	keystroke	t	n/a
282.6815	0.105	565363	keystroke	i	n/a
282.892	0.075	565784	keystroke	o	n/a
283.087	0.105	566174	keystroke	n	n/a
283.372	0.105	566744	keystroke	Key.space	n/a
283.642	0.09	567284	keystroke	p	n/a
283.927	0.165	567854	keystroke	r	n/a
284.242	0.105	568484	keystroke	e	n/a
284.527	0.151	569054	keystroke	p	n/a
284.722	0.1055	569444	keystroke	a	n/a
284.962	0.165	569924	keystroke	r	n/a
285.037	0.135	570074	keystroke	e	n/a
285.382	0.09	570764	keystroke	Key.enter	n/a
285.4785	13.15	570957	prompt	n/a	auctions prague monkey phentermine\n
286.477	0.12	572954	keystroke	a	n/a
286.672	0.09	573344	keystroke	u	n/a
286.853	0.119	573706	keystroke	c	n/a
287.152	0.105	574304	keystroke	t	n/a
287.242	0.12	574484	keystroke	i	n/a
287.467	0.105	574934	keystroke	o	n/a
287.723	0.089	575446	keystroke	n	n/a
288.008	0.074	576016	keystroke	s	n/a
288.427	0.18	576854	keystroke	Key.space	n/a
288.9525	0.09	577905	keystroke	p	n/a
289.2225	0.12	578445	keystroke	r	n/a
289.3865	0.135	578773	keystroke	a	n/a
289.7025	0.119	579405	keystroke	g	n/a
289.8815	0.121	579763	keystroke	u	n/a
290.0925	0.105	580185	keystroke	e	n/a
290.3165	0.105	580633	keystroke	Key.space	n/a
290.4675	0.105	580935	keystroke	m	n/a
290.6925	0.119	581385	keystroke	o	n/a
290.9165	0.106	581833	keystroke	n	n/a
291.1425	0.134	582285	keystroke	k	n/a
291.3975	0.119	582795	keystroke	e	n/a
291.7115	0.031	583423	keystroke	y	n/a
294.3105	0.071	588621	keystroke	Key.space	n/a
294.5925	0.105	589185	keystroke	p	n/a
294.9375	0.09	589875	keystroke	h	n/a
295.4925	0.09	590985	keystroke	e	n/a
295.7175	0.09	591435	keystroke	n	n/a
296.1075	0.105	592215	keystroke	t	n/a
296.3325	0.135	592665	keystroke	e	n/a
296.4075	0.165	592815	keystroke	r	n/a
296.7525	0.105	593505	keystroke	m	n/a
296.9775	0.15	593955	keystroke	i	n/a
297.2925	0.12	594585	keystroke	n	n/a
297.517	0.105	595034	keystroke	e	n/a
298.492	0.135	596984	keystroke	Key.enter	n/a
298.6335	16.7505	597267	prompt	n/a	generators charge ties should\n
299.857	0.12	599714	keystroke	g	n/a
300.098	0.119	600196	keystroke	e	n/a
300.307	0.105	600614	keystroke	n	n/a
300.517	0.135	601034	keystroke	e	n/a
300.742	0.12	601484	keystroke	r	n/a
300.892	0.165	601784	keystroke	a	n/a
301.207	0.09	602414	keystroke	t	n/a
301.327	0.135	602654	keystroke	i	n/a
301.582	0.12	603164	keystroke	o	n/a
302.782	0.105	605564	keystroke	Key.backspace	n/a
303.007	0.105	606014	keystroke	Key.backspace	n/a
303.682	0.12	607364	keystroke	o	n/a
303.847	0.151	607694	keystroke	r	n/a
304.252	0.15	608504	keystroke	s	n/a
304.687	0.12	609374	keystroke	Key.space	n/a
305.062	0.165	610124	keystroke	c	n/a
305.377	0.105	610754	keystroke	h	n/a
305.557	0.105	611114	keystroke	a	n/a
305.782	0.06	611564	keystroke	r	n/a
306.007	0.09	612014	keystroke	g	n/a
306.262	0.135	612524	keystroke	e	n/a
306.787	0.12	613574	keystroke	Key.space	n/a
307.072	0.135	614144	keystroke	i	n/a
307.402	0.06	614804	keystroke	t	n/a
307.657	0.135	615314	keystroke	e	n/a
307.912	0.105	615824	keystroke	s	n/a
309.142	0.165	618284	keystroke	Key.space	n/a
310.492	0.105	620984	keystroke	Key.backspace	n/a
310.717	0.1505	621434	keystroke	Key.backspace	n/a
310.9725	0.105	621945	keystroke	Key.backspace	n/a
311.1975	0.12	622395	keystroke	Key.backspace	n/a
311.4225	0.105	622845	keystroke	Key.backspace	n/a
311.7525	0.105	623505	keystroke	t	n/a
311.9175	0.12	623835	keystroke	i	n/a
312.1425	0.12	624285	keystroke	e	n/a
312.3675	0.135	624735	keystroke	s	n/a
312.6675	0.135	625335	keystroke	Key.space	n/a
312.8775	0.105	625755	keystroke	s	n/a
313.0725	0.09	626145	keystroke	h	n/a
313.2375	0.15	626475	keystroke	o	n/a
313.4175	0.135	626835	keystroke	u	n/a
313.6875	0.12	627375	keystroke	l	n/a
313.9575	0.09	627915	keystroke	d	n/a
315.3075	0.075	630615	keystroke	Key.enter	n/a
315.39	14.469	630780	prompt	n/a	thats enquiries briefs accommodations\n
316.2825	0.09	632565	keystroke	t	n/a
316.4625	0.09	632925	keystroke	h	n/a
316.5975	0.12	633195	keystroke	a	n/a
316.8225	0.105	633645	keystroke	t	n/a
317.0625	0.135	634125	keystroke	s	n/a
317.3625	0.12	634725	keystroke	Key.space	n/a
318.0225	0.105	636045	keystroke	e	n/a
318.2625	0.09	636525	keystroke	n	n/a
318.952	0.135	637904	keystroke	q	n/a
319.882	0.15	639764	keystroke	u	n/a
320.423	0.149	640846	keystroke	i	n/a
320.693	0.134	641386	keystroke	r	n/a
320.873	0.165	641746	keystroke	i	n/a
321.022	0.18	642044	keystroke	e	n/a
321.187	0.151	642374	keystroke	s	n/a
323.257	0.15	646514	keystroke	Key.space	n/a
323.737	0.12	647474	keystroke	b	n/a
323.918	0.15	647836	keystroke	r	n/a
324.157	0.105	648314	keystroke	i	n/a
324.383	0.12	648766	keystroke	e	n/a
324.593	0.15	649186	keystroke	f	n/a
325.208	0.165	650416	keystroke	s	n/a
325.792	0.135	651584	keystroke	Key.space	n/a
326.003	0.105	652006	keystroke	a	n/a
326.227	0.151	652454	keystroke	c	n/a
326.467	0.12	652934	keystroke	c	n/a
326.618	0.15	653236	keystroke	o	n/a
326.978	0.09	653956	keystroke	m	n/a
327.188	0.105	654376	keystroke	m	n/a
327.412	0.136	654824	keystroke	o	n/a
327.683	0.135	655366	keystroke	d	n/a
328.132	0.211	656264	keystroke	a	n/a
328.568	0.105	657136	keystroke	t	n/a
328.703	0.134	657406	keystroke	i	n/a
328.928	0.195	657856	keystroke	o	n/a
329.078	0.134	658156	keystroke	n	n/a
329.198	0.12	658396	keystroke	s	n/a
329.782	0.075	659564	keystroke	Key.enter	n/a
329.864	12.415	659728	prompt	n/a	atom chinese judy marshall\n
330.878	0.149	661756	keystroke	a	n/a
331.223	0.089	662446	keystroke	t	n/a
331.402	0.106	662804	keystroke	o	n/a
331.643	0.119	663286	keystroke	m	n/a
331.882	0.12	663764	keystroke	Key.space	n/a
332.198	0.105	664396	keystroke	c	n/a
332.348	0.105	664696	keystroke	h	n/a
332.498	0.105	664996	keystroke	i	n/a
332.738	0.105	665476	keystroke	n	n/a
332.903	0.15	665806	keystroke	e	n/a
333.128	0.195	666256	keystroke	s	n/a
333.308	0.12	666616	keystroke	e	n/a
333.532	0.15	667064	keystroke	Key.space	n/a
333.803	0.12	667606	keystroke	j	n/a
334.118	0.15	668236	keystroke	u	n/a
334.628	0.12	669256	keystroke	d	n/a
334.853	0.119	669706	keystroke	y	n/a
335.482	0.15	670964	keystroke	Key.space	n/a
335.662	0.106	671324	keystroke	m	n/a
336.023	0.15	672046	keystroke	a	n/a
336.263	0.105	672526	keystroke	r	n/a
336.502	0.151	673004	keystroke	s	n/a
336.713	0.119	673426	keystroke	h	n/a
336.938	0.12	673876	keystroke	a	n/a
337.148	0.12	674296	keystroke	l	n/a
337.343	0.135	674686	keystroke	l	n/a
342.251	0.027	684502	keystroke	Key.enter	n/a
342.2835	12.671	684567	prompt	n/a	bizarre conservative mortality predicted\n
343.493	0.075	686986	keystroke	b	n/a
343.973	0.104	687946	keystroke	i	n/a
344.318	0.135	688636	keystroke	z	n/a
345.112	0.15	690224	keystroke	a	n/a
345.577	0.12	691154	keystroke	r	n/a
345.817	0.1355	691634	keystroke	r	n/a
346.042	0.12	692084	keystroke	e	n/a
346.312	0.105	692624	keystroke	Key.space	n/a
346.627	0.1505	693254	keystroke	c	n/a
346.9125	0.255	693825	keystroke	o	n/a
347.0625	0.12	694125	keystroke	n	n/a
347.2575	0.135	694515	keystroke	s	n/a
347.5725	0.165	695145	keystroke	e	n/a
348.2325	0.165	696465	keystroke	r	n/a
348.7125	0.12	697425	keystroke	v	n/a
349.162	0.195	698324	keystroke	a	n/a
349.522	0.076	699044	keystroke	t	n/a
349.688	0.15	699376	keystroke	i	n/a
349.852	0.135	699704	keystroke	v	n/a
350.1235	0.1195	700247	keystroke	e	n/a
350.377	0.09	700754	keystroke	Key.space	n/a
350.7675	0.0895	701535	keystroke	m	n/a
351.007	0.12	702014	keystroke	o	n/a
351.2325	0.0895	702465	keystroke	r	n/a
351.443	0.119	702886	keystroke	t	n/a
351.668	0.1355	703336	keystroke	a	n/a
351.907	0.211	703814	keystroke	l	n/a
352.058	0.164	704116	keystroke	i	n/a
352.2525	0.1045	704505	keystroke	t	n/a
352.477	0.105	704954	keystroke	y	n/a
352.838	0.119	705676	keystroke	Key.space	n/a
353.047	0.121	706094	keystroke	p	n/a
353.2285	0.15	706457	keystroke	r	n/a
353.332	0.105	706664	keystroke	e	n/a
353.5575	0.106	707115	keystroke	d	n/a
353.7385	0.1495	707477	keystroke	i	n/a
353.903	0.075	707806	keystroke	c	n/a
354.203	0.1045	708406	keystroke	t	n/a
354.443	0.1205	708886	keystroke	e	n/a
354.6685	0.135	709337	keystroke	d	n/a
354.8625	0.0895	709725	keystroke	Key.enter	n/a
354.96	9.8645	709920	prompt	n/a	receive renew solid factor\n
355.868	0.15	711736	keystroke	r	n/a
355.988	0.135	711976	keystroke	e	n/a
356.242	0.121	712484	keystroke	v	n/a
356.482	0.151	712964	keystroke	e	n/a
357.967	0.1205	715934	keystroke	Key.backspace	n/a
358.207	0.121	716414	keystroke	Key.backspace	n/a
358.523	0.105	717046	keystroke	c	n/a
358.793	0.135	717586	keystroke	e	n/a
358.943	0.12	717886	keystroke	i	n/a
359.258	0.06	718516	keystroke	v	n/a
359.663	0.12	719326	keystroke	e	n/a
359.9035	0.1045	719807	keystroke	Key.space	n/a
360.428	0.165	720856	keystroke	r	n/a
360.548	0.135	721096	keystroke	e	n/a
360.818	0.09	721636	keystroke	n	n/a
360.998	0.149	721996	keystroke	e	n/a
361.223	0.15	722446	keystroke	w	n/a
361.508	0.089	723016	keystroke	Key.space	n/a
361.763	0.135	723526	keystroke	s	n/a
361.928	0.12	723856	keystroke	o	n/a
362.153	0.12	724306	keystroke	l	n/a
362.363	0.105	724726	keystroke	i	n/a
362.603	0.12	725206	keystroke	d	n/a
362.843	0.104	725686	keystroke	Key.space	n/a
363.023	0.105	726046	keystroke	f	n/a
363.202	0.151	726404	keystroke	a	n/a
363.518	0.12	727036	keystroke	c	n/a
363.803	0.105	727606	keystroke	t	n/a
363.953	0.165	727906	keystroke	o	n/a
364.163	0.105	728326	keystroke	r	n/a
364.733	0.09	729466	keystroke	Key.enter	n/a
364.831	7.614	729662	prompt	n/a	amber rush iran leading\n
365.6485	0.105	731297	keystroke	a	n/a
365.9185	0.12	731837	keystroke	m	n/a
366.2335	0.105	732467	keystroke	b	n/a
366.4285	0.18	732857	keystroke	e	n/a
366.6685	0.15	733337	keystroke	r	n/a
366.8485	0.12	733697	keystroke	Key.space	n/a
367.5385	0.135	735077	keystroke	r	n/a
367.8985	0.12	735797	keystroke	u	n/a
368.1835	0.105	736367	keystroke	s	n/a
368.4085	0.105	736817	keystroke	h	n/a
368.6335	0.135	737267	keystroke	Key.space	n/a
368.918	0.135	737836	keystroke	i	n/a
369.098	0.105	738196	keystroke	r	n/a
369.353	0.09	738706	keystroke	a	n/a
369.503	0.105	739006	keystroke	n	n/a
369.758	0.09	739516	keystroke	Key.space	n/a
369.893	0.135	739786	keystroke	l	n/a
370.043	0.105	740086	keystroke	e	n/a
370.238	0.12	740476	keystroke	a	n/a
370.478	0.12	740956	keystroke	d	n/a
370.673	0.1355	741346	keystroke	i	n/a
370.8685	0.12	741737	keystroke	n	n/a
371.0335	0.09	742067	keystroke	g	n/a
372.2935	0.15	744587	keystroke	Key.enter	n/a
372.4495	10.5255	744899	prompt	n/a	facts blank uploaded hampton\n
374.6965	0.041	749393	keystroke	f	n/a
374.8135	0.1345	749627	keystroke	a	n/a
375.068	0.105	750136	keystroke	c	n/a
375.323	0.075	750646	keystroke	t	n/a
375.503	0.15	751006	keystroke	s	n/a
375.728	0.15	751456	keystroke	Key.space	n/a
375.923	0.105	751846	keystroke	b	n/a
376.118	0.135	752236	keystroke	l	n/a
376.328	0.12	752656	keystroke	a	n/a
376.523	0.135	753046	keystroke	n	n/a
376.733	0.105	753466	keystroke	d	n/a
377.1675	0.15	754335	keystroke	Key.space	n/a
377.7235	0.119	755447	keystroke	u	n/a
377.9025	0.105	755805	keystroke	p	n/a
378.1275	0.165	756255	keystroke	l	n/a
378.3675	0.135	756735	keystroke	o	n/a
378.6235	0.09	757247	keystroke	a	n/a
379.148	0.105	758296	keystroke	d	n/a
379.433	0.105	758866	keystroke	e	n/a
379.689	0.089	759378	keystroke	d	n/a
380.2275	0.136	760455	keystroke	Key.space	n/a
380.4535	0.105	760907	keystroke	h	n/a
380.8585	0.135	761717	keystroke	a	n/a
381.1285	0.105	762257	keystroke	m	n/a
381.7885	0.09	763577	keystroke	p	n/a
382.0885	0.105	764177	keystroke	t	n/a
382.2385	0.12	764477	keystroke	o	n/a
382.4485	0.105	764897	keystroke	n	n/a
382.8835	0.09	765767	keystroke	Key.enter	n/a
382.98	13.075	765960	prompt	n/a	destruction convertible gordon miracle\n
384.1885	0.09	768377	keystroke	d	n/a
384.4285	0.105	768857	keystroke	e	n/a
384.6235	0.15	769247	keystroke	s	n/a
385.0585	0.105	770117	keystroke	t	n/a
385.2835	0.135	770567	keystroke	r	n/a
385.4785	0.12	770957	keystroke	u	n/a
385.6885	0.12	771377	keystroke	c	n/a
386.0035	0.12	772007	keystroke	t	n/a
386.1535	0.12	772307	keystroke	i	n/a
386.3485	0.15	772697	keystroke	o	n/a
386.6185	0.105	773237	keystroke	n	n/a
386.8585	0.135	773717	keystroke	Key.space	n/a
387.8035	0.135	775607	keystroke	c	n/a
388.1935	0.135	776387	keystroke	o	n/a
388.8235	0.165	777647	keystroke	n	n/a
389.2735	0.15	778547	keystroke	v	n/a
389.5735	0.21	779147	keystroke	e	n/a
389.7235	0.15	779447	keystroke	r	n/a
389.9935	0.12	779987	keystroke	t	n/a
390.1885	0.12	780377	keystroke	i	n/a
390.4285	0.105	780857	keystroke	b	n/a
390.6385	0.135	781277	keystroke	l	n/a
390.8185	0.195	781637	keystroke	e	n/a
391.0435	0.165	782087	keystroke	Key.space	n/a
391.4935	0.105	782987	keystroke	g	n/a
391.6435	0.135	783287	keystroke	o	n/a
391.8385	0.09	783677	keystroke	r	n/a
392.0635	0.12	784127	keystroke	d	n/a
392.4985	0.135	784997	keystroke	o	n/a
392.7385	0.12	785477	keystroke	n	n/a
393.0385	0.12	786077	keystroke	Key.space	n/a
393.2485	0.135	786497	keystroke	m	n/a
393.5035	0.15	787007	keystroke	i	n/a
393.7135	0.135	787427	keystroke	r	n/a
393.9535	0.15	787907	keystroke	a	n/a
395.2135	0.135	790427	keystroke	c	n/a
395.4235	0.135	790847	keystroke	l	n/a
395.6185	0.105	791237	keystroke	e	n/a
395.9785	0.075	791957	keystroke	Key.enter	n/a
396.0595	17.201	792119	prompt	n/a	postcards madness sticky montana\n
396.8635	0.135	793727	keystroke	p	n/a
397.0585	0.135	794117	keystroke	o	n/a
397.2535	0.15	794507	keystroke	s	n/a
397.5385	0.06	795077	keystroke	t	n/a
397.8085	0.135	795617	keystroke	c	n/a
398.0935	0.135	796187	keystroke	a	n/a
398.3035	0.135	796607	keystroke	r	n/a
398.8435	0.12	797687	keystroke	e	n/a
399.3685	0.135	798737	keystroke	Key.backspace	n/a
399.5635	0.09	799127	keystroke	d	n/a
399.7885	0.12	799577	keystroke	s	n/a
400.5535	0.105	801107	keystroke	Key.space	n/a
400.7635	0.119	801527	keystroke	m	n/a
400.9435	0.105	801887	keystroke	a	n/a
401.1685	0.135	802337	keystroke	d	n/a
401.4235	0.134	802847	keystroke	n	n/a
401.6635	0.195	803327	keystroke	e	n/a
401.7985	0.15	803597	keystroke	w	n/a
402.0535	0.12	804107	keystroke	w	n/a
402.3525	0.18	804705	keystroke	Key.space	n/a
402.7135	0.1355	805427	keystroke	s	n/a
403.148	0.09	806296	keystroke	Key.backspace	n/a
403.343	0.09	806686	keystroke	Key.backspace	n/a
403.523	0.09	807046	keystroke	Key.backspace	n/a
403.733	0.12	807466	keystroke	Key.backspace	n/a
404.709	0.119	809418	keystroke	s	n/a
404.9335	0.15	809867	keystroke	s	n/a
405.2035	0.15	810407	keystroke	Key.space	n/a
405.7435	0.12	811487	keystroke	s	n/a
406.0885	0.06	812177	keystroke	i	n/a
406.1035	0.105	812207	keystroke	t	n/a
406.7635	0.0895	813527	keystroke	Key.backspace	n/a
406.943	0.105	813886	keystroke	Key.backspace	n/a
407.183	0.09	814366	keystroke	t	n/a
407.303	0.12	814606	keystroke	i	n/a
407.543	0.075	815086	keystroke	c	n/a
407.753	0.105	815506	keystroke	k	n/a
408.023	0.15	816046	keystroke	y	n/a
408.323	0.135	816646	keystroke	Key.space	n/a
408.503	0.105	817006	keystroke	m	n/a
408.729	0.119	817458	keystroke	o	n/a
408.9385	0.15	817877	keystroke	n	n/a
409.1485	0.09	818297	keystroke	t	n/a
409.3585	0.135	818717	keystroke	a	n/a
409.6135	0.195	819227	keystroke	n	n/a
409.7935	0.09	819587	keystroke	a	n/a
413.2165	0.042	826433	keystroke	Key.enter	n/a
413.266	13.1835	826532	prompt	n/a	curious hosting extremely mental\n
414.4585	0.12	828917	keystroke	c	n/a
414.6535	0.12	829307	keystroke	u	n/a
414.8935	0.09	829787	keystroke	r	n/a
415.0885	0.09	830177	keystroke	i	n/a
415.3135	0.135	830627	keystroke	o	n/a
415.5385	0.09	831077	keystroke	u	n/a
415.7185	0.165	831437	keystroke	s	n/a
415.9585	0.12	831917	keystroke	Key.space	n/a
416.3035	0.135	832607	keystroke	h	n/a
416.5285	0.15	833057	keystroke	o	n/a
416.7835	0.15	833567	keystroke	s	n/a
417.0685	0.09	834137	keystroke	t	n/a
417.2335	0.18	834467	keystroke	i	n/a
417.3985	0.15	834797	keystroke	n	n/a
417.6385	0.09	835277	keystroke	g	n/a
418.7935	0.15	837587	keystroke	Key.space	n/a
419.0035	0.105	838007	keystroke	e	n/a
419.2285	0.135	838457	keystroke	x	n/a
419.5585	0.105	839117	keystroke	t	n/a
419.7685	0.12	839537	keystroke	r	n/a
419.9785	0.105	839957	keystroke	e	n/a
420.2035	0.165	840407	keystroke	m	n/a
420.8485	0.105	841697	keystroke	e	n/a
421.1035	0.075	842207	keystroke	l	n/a
421.3585	0.09	842717	keystroke	y	n/a
422.1985	0.135	844397	keystroke	Key.space	n/a
422.4985	0.105	844997	keystroke	m	n/a
422.7385	0.165	845477	keystroke	e	n/a
422.8885	0.09	845777	keystroke	n	n/a
423.0685	0.105	846137	keystroke	t	n/a
423.6085	0.12	847217	keystroke	a	n/a
423.9085	0.105	847817	keystroke	l	n/a
426.4465	0	852893	keystroke	Key.enter	n/a
426.455	12.4555	852910	prompt	n/a	ready governor jeffrey intro\n
427.1785	0.195	854357	keystroke	r	n/a
427.2985	0.165	854597	keystroke	e	n/a
427.6135	0.135	855227	keystroke	d	n/a
428.3335	0.12	856667	keystroke	Key.backspace	n/a
428.4835	0.105	856967	keystroke	a	n/a
428.7085	0.1345	857417	keystroke	d	n/a
428.9035	0.12	857807	keystroke	y	n/a
429.2485	0.135	858497	keystroke	Key.space	n/a
429.5635	0.09	859127	keystroke	g	n/a
429.6835	0.12	859367	keystroke	o	n/a
429.9835	0.105	859967	keystroke	v	n/a
430.2085	0.165	860417	keystroke	e	n/a
430.5685	0.18	861137	keystroke	r	n/a
430.9735	0.105	861947	keystroke	n	n/a
431.2135	0.105	862427	keystroke	o	n/a
431.5735	0.12	863147	keystroke	r	n/a
432.0535	0.135	864107	keystroke	Key.space	n/a
432.8335	0.1195	865667	keystroke	j	n/a
433.104	0.105	866208	keystroke	e	n/a
433.374	0.104	866748	keystroke	f	n/a
433.598	0.091	867196	keystroke	f	n/a
434.769	0.209	869538	keystroke	r	n/a
434.963	0.135	869926	keystroke	e	n/a
435.158	0.105	870316	keystroke	y	n/a
437.1835	0.105	874367	keystroke	Key.space	n/a
437.5735	0.18	875147	keystroke	i	n/a
437.7085	0.15	875417	keystroke	n	n/a
437.9035	0.09	875807	keystroke	t	n/a
438.1285	0.135	876257	keystroke	r	n/a
438.2935	0.15	876587	keystroke	o	n/a
438.8335	0.075	877667	keystroke	Key.enter	n/a
438.916	11.0945	877832	prompt	n/a	costume analyzes canyon strings\n
439.914	0.12	879828	keystroke	c	n/a
440.124	0.105	880248	keystroke	o	n/a
440.348	0.136	880696	keystroke	s	n/a
440.708	0.106	881416	keystroke	t	n/a
440.889	0.15	881778	keystroke	u	n/a
441.219	0.119	882438	keystroke	m	n/a
441.384	0.195	882768	keystroke	e	n/a
441.609	0.119	883218	keystroke	Key.space	n/a
442.494	0.134	884988	keystroke	a	n/a
442.734	0.149	885468	keystroke	n	n/a
442.988	0.076	885976	keystroke	a	n/a
443.109	0.105	886218	keystroke	l	n/a
443.348	0.136	886696	keystroke	y	n/a
443.589	0.12	887178	keystroke	z	n/a
443.828	0.166	887656	keystroke	e	n/a
444.054	0.134	888108	keystroke	s	n/a
444.908	0.135	889816	keystroke	Key.space	n/a
445.419	0.15	890838	keystroke	c	n/a
445.703	0.151	891406	keystroke	a	n/a
445.913	0.106	891826	keystroke	n	n/a
446.229	0.119	892458	keystroke	y	n/a
446.468	0.166	892936	keystroke	o	n/a
446.693	0.12	893386	keystroke	n	n/a
447.098	0.12	894196	keystroke	Key.space	n/a
447.308	0.151	894616	keystroke	s	n/a
447.564	0.089	895128	keystroke	t	n/a
447.788	0.121	895576	keystroke	r	n/a
447.954	0.164	895908	keystroke	i	n/a
448.134	0.15	896268	keystroke	n	n/a
448.389	0.12	896778	keystroke	g	n/a
448.613	0.121	897226	keystroke	s	n/a
449.904	0.104	899808	keystroke	Key.enter	n/a
450.0155	11.4115	900031	prompt	n/a	entire manufacturing prefix stupid\n
450.849	0.12	901698	keystroke	e	n/a
451.014	0.119	902028	keystroke	n	n/a
451.314	0.12	902628	keystroke	t	n/a
451.523	0.091	903046	keystroke	i	n/a
451.748	0.166	903496	keystroke	r	n/a
451.974	0.135	903948	keystroke	e	n/a
452.259	0.149	904518	keystroke	Key.space	n/a
452.679	0.135	905358	keystroke	m	n/a
453.099	0.135	906198	keystroke	a	n/a
453.308	0.091	906616	keystroke	n	n/a
453.609	0.15	907218	keystroke	u	n/a
454.119	0.12	908238	keystroke	f	n/a
454.329	0.18	908658	keystroke	a	n/a
454.943	0.121	909886	keystroke	c	n/a
455.229	0.12	910458	keystroke	t	n/a
455.409	0.12	910818	keystroke	u	n/a
455.574	0.105	911148	keystroke	r	n/a
455.724	0.12	911448	keystroke	i	n/a
455.919	0.105	911838	keystroke	n	n/a
456.084	0.075	912168	keystroke	g	n/a
456.894	0.12	913788	keystroke	Key.space	n/a
457.209	0.105	914418	keystroke	p	n/a
457.584	0.165	915168	keystroke	r	n/a
457.704	0.135	915408	keystroke	e	n/a
458.049	0.12	916098	keystroke	f	n/a
458.244	0.12	916488	keystroke	i	n/a
458.424	0.105	916848	keystroke	x	n/a
459.1285	0.12	918257	keystroke	Key.space	n/a
459.5185	0.18	919037	keystroke	s	n/a
459.7735	0.12	919547	keystroke	t	n/a
459.9535	0.075	919907	keystroke	u	n/a
460.1935	0.06	920387	keystroke	p	n/a
460.4485	0.15	920897	keystroke	i	n/a
460.6435	0.075	921287	keystroke	d	n/a
461.304	0.12	922608	keystroke	Key.enter	n/a
461.4325	11.408	922865	prompt	n/a	entitled 'tis vote knives\n
462.324	0.15	924648	keystroke	e	n/a
462.489	0.1345	924978	keystroke	n	n/a
462.6985	0.1055	925397	keystroke	t	n/a
462.848	0.15	925696	keystroke	i	n/a
463.028	0.105	926056	keystroke	t	n/a
463.163	0.105	926326	keystroke	l	n/a
463.343	0.09	926686	keystroke	e	n/a
463.553	0.106	927106	keystroke	d	n/a
465.4885	0.12	930977	keystroke	Key.space	n/a
465.774	0.1195	931548	keystroke	'	n/a
466.4785	0.165	932957	keystroke	t	n/a
466.989	0.105	933978	keystroke	i	n/a
468.174	0.135	936348	keystroke	s	n/a
468.669	0.1945	937338	keystroke	Key.space	n/a
469.4785	0.12	938957	keystroke	v	n/a
469.6435	0.135	939287	keystroke	o	n/a
469.9285	0.105	939857	keystroke	t	n/a
470.1685	0.09	940337	keystroke	e	n/a
470.4535	0.15	940907	keystroke	Key.space	n/a
470.7985	0.09	941597	keystroke	k	n/a
470.9935	0.12	941987	keystroke	n	n/a
471.2185	0.12	942437	keystroke	i	n/a
471.5485	0.12	943097	keystroke	v	n/a
471.8185	0.12	943637	keystroke	e	n/a
472.0135	0.12	944027	keystroke	s	n/a
472.7635	0.075	945527	keystroke	Key.enter	n/a
472.8455	10.135	945691	prompt	n/a	hobbies remarkable dried shaped\n
473.6485	0.15	947297	keystroke	h	n/a
473.7385	0.15	947477	keystroke	o	n/a
474.1285	0.076	948257	keystroke	b	n/a
474.3235	0.105	948647	keystroke	b	n/a
474.5635	0.09	949127	keystroke	i	n/a
474.7135	0.135	949427	keystroke	e	n/a
474.9835	0.09	949967	keystroke	s	n/a
475.2235	0.09	950447	keystroke	Key.space	n/a
475.6285	0.12	951257	keystroke	r	n/a
475.8235	0.12	951647	keystroke	e	n/a
476.0335	0.135	952067	keystroke	m	n/a
476.2435	0.12	952487	keystroke	a	n/a
476.4685	0.15	952937	keystroke	r	n/a
476.6635	0.15	953327	keystroke	k	n/a
476.9035	0.12	953807	keystroke	a	n/a
477.6535	0.105	955307	keystroke	b	n/a
477.8785	0.075	955757	keystroke	l	n/a
478.4485	0.09	956897	keystroke	e	n/a
479.0785	0.105	958157	keystroke	Key.space	n/a
479.3485	0.105	958697	keystroke	d	n/a
479.6335	0.105	959267	keystroke	r	n/a
479.7835	0.15	959567	keystroke	i	n/a
479.9795	0.089	959959	keystroke	e	n/a
480.2185	0.075	960437	keystroke	d	n/a
480.6235	0.12	961247	keystroke	Key.space	n/a
481.1335	0.135	962267	keystroke	s	n/a
481.4035	0.105	962807	keystroke	h	n/a
481.5685	0.165	963137	keystroke	a	n/a
481.8385	0.12	963677	keystroke	p	n/a
481.9885	0.105	963977	keystroke	e	n/a
482.2285	0.075	964457	keystroke	d	n/a
482.8885	0.09	965777	keystroke	Key.enter	n/a
482.987	11.1835	965974	prompt	n/a	danger competent sent andale\n
483.9235	0.105	967847	keystroke	d	n/a
484.1485	0.12	968297	keystroke	a	n/a
484.2985	0.135	968597	keystroke	n	n/a
484.4935	0.105	968987	keystroke	g	n/a
484.7485	0.15	969497	keystroke	e	n/a
485.0785	0.075	970157	keystroke	r	n/a
485.3785	0.12	970757	keystroke	Key.space	n/a
485.8585	0.12	971717	keystroke	c	n/a
486.0685	0.12	972137	keystroke	o	n/a
486.3385	0.135	972677	keystroke	m	n/a
487.1185	0.135	974237	keystroke	p	n/a
487.6295	0.134	975259	keystroke	e	n/a
487.8985	0.12	975797	keystroke	t	n/a
488.0935	0.151	976187	keystroke	e	n/a
488.2595	0.119	976519	keystroke	n	n/a
488.4235	0.09	976847	keystroke	t	n/a
490.014	0.135	980028	keystroke	Key.space	n/a
490.269	0.12	980538	keystroke	s	n/a
490.494	0.12	980988	keystroke	e	n/a
490.659	0.12	981318	keystroke	n	n/a
490.868	0.061	981736	keystroke	t	n/a
491.079	0.134	982158	keystroke	Key.space	n/a
491.574	0.119	983148	keystroke	a	n/a
491.754	0.12	983508	keystroke	n	n/a
492.009	0.12	984018	keystroke	d	n/a
493.0445	0.1485	986089	keystroke	a	n/a
493.2385	0.135	986477	keystroke	l	n/a
493.4335	0.105	986867	keystroke	e	n/a
494.0785	0.09	988157	keystroke	Key.enter	n/a
494.177	11.424	988354	prompt	n/a	exceptional fraud dairy fathers\n
494.8595	0.104	989719	keystroke	e	n/a
495.1435	0.165	990287	keystroke	x	n/a
495.5185	0.121	991037	keystroke	c	n/a
495.7735	0.105	991547	keystroke	e	n/a
495.9545	0.134	991909	keystroke	p	n/a
496.2235	0.106	992447	keystroke	t	n/a
496.4635	0.105	992927	keystroke	i	n/a
496.6595	0.119	993319	keystroke	o	n/a
496.8685	0.136	993737	keystroke	n	n/a
497.0785	0.12	994157	keystroke	a	n/a
497.2885	0.09	994577	keystroke	l	n/a
498.1585	0.15	996317	keystroke	Key.space	n/a
498.4735	0.09	996947	keystroke	g	n/a
499.0435	0.135	998087	keystroke	Key.backspace	n/a
499.3435	0.06	998687	keystroke	f	n/a
499.5235	0.12	999047	keystroke	r	n/a
499.734	0.1345	999468	keystroke	a	n/a
499.9585	0.12	999917	keystroke	u	n/a
500.1385	0.091	1000277	keystroke	d	n/a
501.1885	0.12	1002377	keystroke	Key.space	n/a
501.3835	0.09	1002767	keystroke	d	n/a
501.6235	0.105	1003247	keystroke	a	n/a
501.8035	0.15	1003607	keystroke	i	n/a
501.9835	0.105	1003967	keystroke	r	n/a
502.1935	0.105	1004387	keystroke	y	n/a
502.9435	0.12	1005887	keystroke	Key.space	n/a
503.2735	0.06	1006547	keystroke	t	n/a
503.6635	0.135	1007327	keystroke	Key.backspace	n/a
503.8585	0.09	1007717	keystroke	f	n/a
504.0235	0.135	1008047	keystroke	a	n/a
504.3085	0.09	1008617	keystroke	t	n/a
504.4885	0.105	1008977	keystroke	h	n/a
504.6835	0.165	1009367	keystroke	e	n/a
504.8935	0.12	1009787	keystroke	r	n/a
505.1035	0.15	1010207	keystroke	s	n/a
505.4785	0.12	1010957	keystroke	Key.enter	n/a
505.607	13.2535	1011214	prompt	n/a	within kuwait remedy nitrogen\n
506.5445	0.164	1013089	keystroke	w	n/a
506.7245	0.119	1013449	keystroke	i	n/a
506.9035	0.12	1013807	keystroke	t	n/a
507.0835	0.09	1014167	keystroke	h	n/a
507.3245	0.119	1014649	keystroke	i	n/a
507.5795	0.089	1015159	keystroke	n	n/a
507.8935	0.105	1015787	keystroke	Key.space	n/a
508.4935	0.061	1016987	keystroke	k	n/a
508.7185	0.12	1017437	keystroke	u	n/a
509.0635	0.12	1018127	keystroke	w	n/a
509.4235	0.15	1018847	keystroke	a	n/a
509.6185	0.12	1019237	keystroke	i	n/a
509.8735	0.09	1019747	keystroke	t	n/a
510.6685	0.105	1021337	keystroke	Key.space	n/a
512.7085	0.135	1025417	keystroke	r	n/a
512.9785	0.105	1025957	keystroke	e	n/a
513.2335	0.165	1026467	keystroke	m	n/a
513.4285	0.165	1026857	keystroke	e	n/a
513.7595	0.105	1027519	keystroke	d	n/a
513.9235	0.135	1027847	keystroke	y	n/a
514.7935	0.135	1029587	keystroke	Key.space	n/a
515.3485	0.12	1030697	keystroke	n	n/a
515.5885	0.09	1031177	keystroke	i	n/a
516.1135	0.12	1032227	keystroke	t	n/a
516.9535	0.165	1033907	keystroke	r	n/a
517.2835	0.15	1034567	keystroke	o	n/a
517.809	0.105	1035618	keystroke	g	n/a
518.049	0.105	1036098	keystroke	e	n/a
518.259	0.135	1036518	keystroke	n	n/a
518.739	0.12	1037478	keystroke	Key.enter	n/a
518.8665	12.579	1037733	prompt	n/a	bidder perception gear telecommunications\n
520.419	0.105	1040838	keystroke	b	n/a
520.779	0.1195	1041558	keystroke	i	n/a
521.0635	0.06	1042127	keystroke	d	n/a
521.2435	0.09	1042487	keystroke	d	n/a
521.4985	0.135	1042997	keystroke	e	n/a
521.7835	0.15	1043567	keystroke	r	n/a
522.0085	0.105	1044017	keystroke	Key.space	n/a
522.5335	0.12	1045067	keystroke	p	n/a
522.7435	0.1055	1045487	keystroke	e	n/a
523.044	0.075	1046088	keystroke	r	n/a
523.509	0.135	1047018	keystroke	c	n/a
523.779	0.135	1047558	keystroke	e	n/a
523.974	0.105	1047948	keystroke	p	n/a
524.169	0.09	1048338	keystroke	t	n/a
524.349	0.135	1048698	keystroke	i	n/a
524.574	0.165	1049148	keystroke	o	n/a
524.844	0.0745	1049688	keystroke	n	n/a
525.4285	0.12	1050857	keystroke	Key.space	n/a
525.8335	0.09	1051667	keystroke	g	n/a
526.0885	0.09	1052177	keystroke	e	n/a
526.2835	0.105	1052567	keystroke	a	n/a
526.5385	0.105	1053077	keystroke	r	n/a
526.7335	0.1355	1053467	keystroke	Key.space	n/a
527.199	0.09	1054398	keystroke	t	n/a
527.409	0.105	1054818	keystroke	e	n/a
527.604	0.15	1055208	keystroke	l	n/a
527.859	0.105	1055718	keystroke	e	n/a
528.264	0.09	1056528	keystroke	c	n/a
528.444	0.12	1056888	keystroke	o	n/a
528.729	0.075	1057458	keystroke	m	n/a
528.9085	0.105	1057817	keystroke	m	n/a
529.1785	0.105	1058357	keystroke	u	n/a
529.4635	0.12	1058927	keystroke	n	n/a
529.6885	0.135	1059377	keystroke	i	n/a
529.8835	0.136	1059767	keystroke	c	n/a
530.0635	0.136	1060127	keystroke	a	n/a
530.3335	0.09	1060667	keystroke	t	n/a
530.4685	0.12	1060937	keystroke	i	n/a
530.6795	0.134	1061359	keystroke	o	n/a
530.8735	0.135	1061747	keystroke	n	n/a
531.0845	0.105	1062169	keystroke	s	n/a
531.3535	0.09	1062707	keystroke	Key.enter	n/a
531.45	13.091	1062900	prompt	n/a	bedroom plays geneva contrast\n
532.3435	0.106	1064687	keystroke	b	n/a
532.5085	0.075	1065017	keystroke	e	n/a
532.7035	0.09	1065407	keystroke	d	n/a
533.0035	0.105	1066007	keystroke	r	n/a
533.6345	0.09	1067269	keystroke	o	n/a
533.8295	0.119	1067659	keystroke	o	n/a
534.0535	0.12	1068107	keystroke	m	n/a
534.3685	0.12	1068737	keystroke	Key.space	n/a
534.5335	0.105	1069067	keystroke	p	n/a
534.7435	0.121	1069487	keystroke	l	n/a
534.9545	0.12	1069909	keystroke	a	n/a
535.1345	0.104	1070269	keystroke	y	n/a
535.3885	0.106	1070777	keystroke	s	n/a
535.6735	0.12	1071347	keystroke	Key.space	n/a
536.4085	0.091	1072817	keystroke	g	n/a
536.6645	0.119	1073329	keystroke	e	n/a
536.9495	0.135	1073899	keystroke	n	n/a
537.2935	0.12	1074587	keystroke	e	n/a
538.0895	0.104	1076179	keystroke	v	n/a
538.3295	0.09	1076659	keystroke	a	n/a
538.7045	0.134	1077409	keystroke	Key.space	n/a
539.1845	0.12	1078369	keystroke	c	n/a
539.4095	0.105	1078819	keystroke	o	n/a
539.6495	0.12	1079299	keystroke	n	n/a
540.1445	0.09	1080289	keystroke	t	n/a
540.3835	0.106	1080767	keystroke	r	n/a
540.5945	0.089	1081189	keystroke	a	n/a
540.7895	0.149	1081579	keystroke	s	n/a
541.0895	0.104	1082179	keystroke	t	n/a
544.4675	0.072	1088935	keystroke	Key.enter	n/a
544.545	8.1105	1089090	prompt	n/a	follow clinical coast police\n
546.2045	0.12	1092409	keystroke	f	n/a
546.3995	0.135	1092799	keystroke	o	n/a
546.6695	0.09	1093339	keystroke	l	n/a
546.8195	0.12	1093639	keystroke	l	n/a
547.0445	0.135	1094089	keystroke	o	n/a
547.2845	0.12	1094569	keystroke	w	n/a
547.4795	0.15	1094959	keystroke	Key.space	n/a
548.0645	0.135	1096129	keystroke	c	n/a
548.2895	0.15	1096579	keystroke	l	n/a
548.4095	0.18	1096819	keystroke	i	n/a
548.7095	0.1345	1097419	keystroke	n	n/a
548.934	0.15	1097868	keystroke	i	n/a
549.129	0.12	1098258	keystroke	c	n/a
549.399	0.09	1098798	keystroke	a	n/a
549.549	0.12	1099098	keystroke	l	n/a
549.774	0.105	1099548	keystroke	Key.space	n/a
550.029	0.09	1100058	keystroke	c	n/a
550.179	0.135	1100358	keystroke	o	n/a
550.344	0.105	1100688	keystroke	a	n/a
550.584	0.135	1101168	keystroke	s	n/a
550.8695	0.105	1101739	keystroke	t	n/a
551.0495	0.12	1102099	keystroke	Key.space	n/a
551.2145	0.12	1102429	keystroke	p	n/a
551.4845	0.105	1102969	keystroke	o	n/a
551.6945	0.135	1103389	keystroke	l	n/a
551.8595	0.12	1103719	keystroke	i	n/a
552.0545	0.09	1104109	keystroke	c	n/a
552.2945	0.105	1104589	keystroke	e	n/a
552.5645	0.09	1105129	keystroke	Key.enter	n/a
552.6605	13.166	1105321	prompt	n/a	practical gravity about becoming\n
554.8025	0.012	1109605	keystroke	p	n/a
554.979	0.09	1109958	keystroke	r	n/a
555.174	0.075	1110348	keystroke	a	n/a
555.384	0.105	1110768	keystroke	c	n/a
555.669	0.09	1111338	keystroke	t	n/a
555.864	0.09	1111728	keystroke	i	n/a
556.869	0.1205	1113738	keystroke	c	n/a
557.0645	0.105	1114129	keystroke	a	n/a
557.2145	0.12	1114429	keystroke	l	n/a
557.4095	0.105	1114819	keystroke	Key.space	n/a
557.7245	0.075	1115449	keystroke	g	n/a
557.9945	0.12	1115989	keystroke	r	n/a
558.1895	0.135	1116379	keystroke	a	n/a
560.638	0.056	1121276	keystroke	v	n/a
560.844	0.12	1121688	keystroke	i	n/a
561.145	0.104	1122290	keystroke	t	n/a
561.279	0.136	1122558	keystroke	y	n/a
561.864	0.105	1123728	keystroke	Key.space	n/a
562.03	0.179	1124060	keystroke	a	n/a
562.299	0.135	1124598	keystroke	b	n/a
562.524	0.135	1125048	keystroke	o	n/a
562.704	0.12	1125408	keystroke	u	n/a
562.945	0.104	1125890	keystroke	t	n/a
563.184	0.12	1126368	keystroke	Key.space	n/a
563.829	0.105	1127658	keystroke	b	n/a
563.965	0.089	1127930	keystroke	e	n/a
564.189	0.12	1128378	keystroke	c	n/a
564.354	0.15	1128708	keystroke	o	n/a
564.61	0.135	1129220	keystroke	m	n/a
564.834	0.105	1129668	keystroke	i	n/a
565.045	0.119	1130090	keystroke	n	n/a
565.209	0.105	1130418	keystroke	g	n/a
565.749	0.075	1131498	keystroke	Key.enter	n/a
565.8305	7.856	1131661	prompt	n/a	fathers sending time caught\n
566.53	0.105	1133060	keystroke	f	n/a
566.725	0.12	1133450	keystroke	a	n/a
567.114	0.135	1134228	keystroke	t	n/a
567.579	0.106	1135158	keystroke	h	n/a
567.789	0.121	1135578	keystroke	e	n/a
568.029	0.075	1136058	keystroke	r	n/a
568.209	0.091	1136418	keystroke	s	n/a
568.839	0.105	1137678	keystroke	Key.space	n/a
568.99	0.119	1137980	keystroke	s	n/a
569.215	0.134	1138430	keystroke	e	n/a
569.454	0.106	1138908	keystroke	n	n/a
569.62	0.135	1139240	keystroke	d	n/a
569.814	0.225	1139628	keystroke	i	n/a
569.965	0.12	1139930	keystroke	n	n/a
570.1	0.089	1140200	keystroke	g	n/a
570.354	0.105	1140708	keystroke	Key.space	n/a
570.639	0.106	1141278	keystroke	t	n/a
570.79	0.105	1141580	keystroke	i	n/a
571.045	0.105	1142090	keystroke	m	n/a
571.225	0.225	1142450	keystroke	e	n/a
571.434	0.12	1142868	keystroke	Key.space	n/a
571.735	0.105	1143470	keystroke	c	n/a
571.899	0.1805	1143798	keystroke	a	n/a
572.0945	0.135	1144189	keystroke	u	n/a
572.3045	0.105	1144609	keystroke	g	n/a
572.5295	0.135	1145059	keystroke	h	n/a
572.6795	0.105	1145359	keystroke	t	n/a
573.5795	0.105	1147159	keystroke	Key.enter	n/a
573.6905	12.836	1147381	prompt	n/a	describing shirt preserve utils\n
574.4195	0.075	1148839	keystroke	d	n/a
574.6745	0.15	1149349	keystroke	e	n/a
575.0495	0.165	1150099	keystroke	s	n/a
575.3345	0.105	1150669	keystroke	c	n/a
575.5745	0.15	1151149	keystroke	r	n/a
575.7995	0.075	1151599	keystroke	i	n/a
576.0545	0.045	1152109	keystroke	v	n/a
576.9245	0.075	1153849	keystroke	Key.backspace	n/a
577.2245	0.12	1154449	keystroke	b	n/a
577.4945	0.12	1154989	keystroke	i	n/a
577.7345	0.12	1155469	keystroke	n	n/a
577.9295	0.09	1155859	keystroke	g	n/a
578.1545	0.105	1156309	keystroke	Key.space	n/a
578.3795	0.12	1156759	keystroke	s	n/a
578.5595	0.09	1157119	keystroke	h	n/a
578.7545	0.12	1157509	keystroke	i	n/a
578.9195	0.105	1157839	keystroke	r	n/a
579.2045	0.06	1158409	keystroke	t	n/a
579.6095	0.09	1159219	keystroke	Key.space	n/a
579.8495	0.105	1159699	keystroke	p	n/a
580.0745	0.135	1160149	keystroke	r	n/a
580.1645	0.135	1160329	keystroke	e	n/a
580.4045	0.12	1160809	keystroke	s	n/a
580.6595	0.105	1161319	keystroke	e	n/a
581.1395	0.09	1162279	keystroke	r	n/a
581.4845	0.105	1162969	keystroke	v	n/a
582.0545	0.12	1164109	keystroke	e	n/a
582.4745	0.12	1164949	keystroke	Key.space	n/a
582.7745	0.1055	1165549	keystroke	u	n/a
584.125	0.135	1168250	keystroke	t	n/a
584.485	0.12	1168970	keystroke	i	n/a
584.77	0.1045	1169540	keystroke	l	n/a
585.0695	0.06	1170139	keystroke	s	n/a
586.4195	0.105	1172839	keystroke	Key.enter	n/a
586.53	10.3465	1173060	prompt	n/a	convinced alias burner pollution\n
587.3645	0.09	1174729	keystroke	c	n/a
587.5595	0.12	1175119	keystroke	o	n/a
587.7995	0.09	1175599	keystroke	n	n/a
587.9495	0.12	1175899	keystroke	v	n/a
588.1745	0.135	1176349	keystroke	i	n/a
588.4295	0.105	1176859	keystroke	n	n/a
588.7295	0.12	1177459	keystroke	c	n/a
588.9245	0.105	1177849	keystroke	e	n/a
589.1645	0.09	1178329	keystroke	d	n/a
589.4195	0.12	1178839	keystroke	Key.space	n/a
589.8855	0.119	1179771	keystroke	a	n/a
590.0795	0.15	1180159	keystroke	l	n/a
590.2745	0.18	1180549	keystroke	i	n/a
590.5155	0.104	1181031	keystroke	a	n/a
590.7395	0.105	1181479	keystroke	s	n/a
591.7145	0.12	1183429	keystroke	Key.space	n/a
591.985	0.105	1183970	keystroke	b	n/a
592.24	0.135	1184480	keystroke	u	n/a
592.45	0.12	1184900	keystroke	r	n/a
592.6	0.105	1185200	keystroke	n	n/a
592.81	0.12	1185620	keystroke	e	n/a
593.05	0.12	1186100	keystroke	r	n/a
593.499	0.135	1186998	keystroke	Key.space	n/a
593.709	0.136	1187418	keystroke	p	n/a
594.415	0.165	1188830	keystroke	o	n/a
594.7	0.135	1189400	keystroke	l	n/a
594.91	0.104	1189820	keystroke	l	n/a
595.104	0.136	1190208	keystroke	u	n/a
595.33	0.119	1190660	keystroke	t	n/a
595.51	0.12	1191020	keystroke	i	n/a
595.75	0.105	1191500	keystroke	o	n/a
595.975	0.12	1191950	keystroke	n	n/a
596.77	0.104	1193540	keystroke	Key.enter	n/a
596.8845	9.1275	1193769	prompt	n/a	restaurant chassis fitted bedding\n
597.79	0.105	1195580	keystroke	r	n/a
597.925	0.18	1195850	keystroke	e	n/a
598.12	0.165	1196240	keystroke	s	n/a
598.39	0.105	1196780	keystroke	t	n/a
598.585	0.135	1197170	keystroke	a	n/a
598.78	0.135	1197560	keystroke	u	n/a
598.975	0.105	1197950	keystroke	r	n/a
599.139	0.151	1198278	keystroke	a	n/a
599.305	0.105	1198610	keystroke	n	n/a
599.77	0.105	1199540	keystroke	t	n/a
599.994	0.12	1199988	keystroke	Key.space	n/a
600.355	0.135	1200710	keystroke	c	n/a
600.73	0.135	1201460	keystroke	h	n/a
600.985	0.165	1201970	keystroke	a	n/a
601.465	0.12	1202930	keystroke	s	n/a
601.675	0.135	1203350	keystroke	s	n/a
602.035	0.09	1204070	keystroke	i	n/a
602.245	0.12	1204490	keystroke	s	n/a
602.56	0.135	1205120	keystroke	Key.space	n/a
602.935	0.135	1205870	keystroke	f	n/a
603.115	0.105	1206230	keystroke	i	n/a
603.325	0.105	1206650	keystroke	t	n/a
603.565	0.135	1207130	keystroke	t	n/a
603.82	0.09	1207640	keystroke	e	n/a
604.06	0.105	1208120	keystroke	d	n/a
604.285	0.105	1208570	keystroke	Key.space	n/a
604.48	0.135	1208960	keystroke	b	n/a
604.63	0.09	1209260	keystroke	e	n/a
604.84	0.09	1209680	keystroke	d	n/a
605.05	0.105	1210100	keystroke	d	n/a
605.215	0.15	1210430	keystroke	i	n/a
605.425	0.135	1210850	keystroke	n	n/a
605.605	0.105	1211210	keystroke	g	n/a
605.905	0.105	1211810	keystroke	Key.enter	n/a
606.017	21.6395	1212034	prompt	n/a	approval transmitted informative explicitly\n
606.835	0.12	1213670	keystroke	a	n/a
607.045	0.105	1214090	keystroke	p	n/a
607.24	0.12	1214480	keystroke	p	n/a
607.69	0.15	1215380	keystroke	r	n/a
607.855	0.12	1215710	keystroke	o	n/a
608.65	0.1055	1217300	keystroke	b	n/a
608.8905	0.105	1217781	keystroke	a	n/a
609.1005	0.09	1218201	keystroke	l	n/a
609.3705	0.104	1218741	keystroke	Key.space	n/a
609.6105	0.075	1219221	keystroke	t	n/a
609.8205	0.12	1219641	keystroke	r	n/a
610.0155	0.165	1220031	keystroke	a	n/a
610.8395	0.12	1221679	keystroke	Key.backspace	n/a
611.0805	0.074	1222161	keystroke	Key.backspace	n/a
611.3045	0.105	1222609	keystroke	Key.backspace	n/a
611.5295	0.12	1223059	keystroke	Key.backspace	n/a
611.7695	0.105	1223539	keystroke	Key.backspace	n/a
611.9945	0.105	1223989	keystroke	Key.backspace	n/a
612.2345	0.105	1224469	keystroke	Key.backspace	n/a
614.005	0.105	1228010	keystroke	v	n/a
614.215	0.15	1228430	keystroke	a	n/a
614.425	0.075	1228850	keystroke	l	n/a
614.9045	0.165	1229809	keystroke	Key.space	n/a
615.4295	0.075	1230859	keystroke	t	n/a
615.6245	0.12	1231249	keystroke	r	n/a
615.8045	0.15	1231609	keystroke	a	n/a
615.9695	0.135	1231939	keystroke	n	n/a
616.2845	0.15	1232569	keystroke	s	n/a
616.87	0.12	1233740	keystroke	m	n/a
617.125	0.12	1234250	keystroke	i	n/a
617.5	0.09	1235000	keystroke	t	n/a
617.71	0.105	1235420	keystroke	t	n/a
618.01	0.12	1236020	keystroke	e	n/a
618.28	0.105	1236560	keystroke	d	n/a
618.685	0.12	1237370	keystroke	Key.space	n/a
618.8945	0.151	1237789	keystroke	i	n/a
619.2695	0.105	1238539	keystroke	n	n/a
619.4655	0.105	1238931	keystroke	f	n/a
619.5995	0.21	1239199	keystroke	o	n/a
619.8395	0.12	1239679	keystroke	r	n/a
620.0505	0.104	1240101	keystroke	m	n/a
620.2155	0.12	1240431	keystroke	a	n/a
620.5145	0.105	1241029	keystroke	t	n/a
620.6945	0.165	1241389	keystroke	i	n/a
620.9345	0.121	1241869	keystroke	v	n/a
621.2205	0.164	1242441	keystroke	e	n/a
621.4745	0.15	1242949	keystroke	Key.space	n/a
621.9405	0.104	1243881	keystroke	e	n/a
622.2105	0.12	1244421	keystroke	x	n/a
622.4945	0.135	1244989	keystroke	p	n/a
623.1845	0.136	1246369	keystroke	l	n/a
623.3045	0.136	1246609	keystroke	i	n/a
623.6355	0.089	1247271	keystroke	c	n/a
623.8455	0.135	1247691	keystroke	i	n/a
624.7295	0.091	1249459	keystroke	t	n/a
624.9705	0.12	1249941	keystroke	l	n/a
625.2395	0.121	1250479	keystroke	y	n/a
627.6285	0.026	1255257	keystroke	Key.enter	n/a
627.6605	9.071	1255321	prompt	n/a	devil plants invitation allen\n
628.4355	0.12	1256871	keystroke	d	n/a
628.6905	0.075	1257381	keystroke	e	n/a
628.9155	0.135	1257831	keystroke	v	n/a
629.0955	0.104	1258191	keystroke	i	n/a
629.3355	0.075	1258671	keystroke	l	n/a
629.6205	0.104	1259241	keystroke	Key.space	n/a
629.9045	0.091	1259809	keystroke	p	n/a
630.1155	0.12	1260231	keystroke	l	n/a
630.3705	0.12	1260741	keystroke	a	n/a
630.5805	0.135	1261161	keystroke	n	n/a
630.8355	0.105	1261671	keystroke	t	n/a
631.1055	0.09	1262211	keystroke	s	n/a
631.6005	0.135	1263201	keystroke	Key.space	n/a
631.9005	0.105	1263801	keystroke	i	n/a
632.1255	0.105	1264251	keystroke	n	n/a
632.3205	0.165	1264641	keystroke	v	n/a
632.5595	0.121	1265119	keystroke	i	n/a
633.3255	0.12	1266651	keystroke	t	n/a
633.5205	0.15	1267041	keystroke	a	n/a
633.7455	0.105	1267491	keystroke	t	n/a
633.8795	0.151	1267759	keystroke	i	n/a
634.1355	0.15	1268271	keystroke	o	n/a
634.3455	0.12	1268691	keystroke	n	n/a
634.5705	0.105	1269141	keystroke	Key.space	n/a
634.7955	0.12	1269591	keystroke	a	n/a
635.1705	0.09	1270341	keystroke	l	n/a
635.3805	0.104	1270761	keystroke	l	n/a
635.6655	0.105	1271331	keystroke	e	n/a
635.8905	0.075	1271781	keystroke	n	n/a
636.6855	0.044	1273371	keystroke	Key.enter	n/a
636.7355	12.026	1273471	prompt	n/a	details drawn responsibilities temple\n
637.5705	0.075	1275141	keystroke	d	n/a
637.8255	0.12	1275651	keystroke	e	n/a
638.0655	0.075	1276131	keystroke	t	n/a
638.3355	0.12	1276671	keystroke	a	n/a
638.5905	0.09	1277181	keystroke	i	n/a
638.8	0.105	1277600	keystroke	l	n/a
638.995	0.105	1277990	keystroke	s	n/a
639.22	0.12	1278440	keystroke	Key.space	n/a
639.46	0.09	1278920	keystroke	d	n/a
639.67	0.12	1279340	keystroke	r	n/a
639.895	0.105	1279790	keystroke	a	n/a
640.465	0.135	1280930	keystroke	w	n/a
640.675	0.105	1281350	keystroke	n	n/a
641.3205	0.09	1282641	keystroke	Key.space	n/a
641.9505	0.135	1283901	keystroke	r	n/a
642.1755	0.135	1284351	keystroke	e	n/a
642.4155	0.12	1284831	keystroke	s	n/a
642.6555	0.105	1285311	keystroke	p	n/a
642.8805	0.135	1285761	keystroke	o	n/a
643.1355	0.105	1286271	keystroke	n	n/a
643.4505	0.165	1286901	keystroke	s	n/a
643.6005	0.12	1287201	keystroke	i	n/a
643.8555	0.09	1287711	keystroke	b	n/a
644.0505	0.09	1288101	keystroke	i	n/a
644.2605	0.12	1288521	keystroke	l	n/a
644.4705	0.12	1288941	keystroke	i	n/a
644.7405	0.09	1289481	keystroke	t	n/a
644.935	0.12	1289870	keystroke	i	n/a
645.175	0.15	1290350	keystroke	e	n/a
645.43	0.12	1290860	keystroke	s	n/a
645.7	0.15	1291400	keystroke	Key.space	n/a
646.39	0.12	1292780	keystroke	t	n/a
646.645	0.135	1293290	keystroke	e	n/a
646.8555	0.12	1293711	keystroke	m	n/a
647.1105	0.12	1294221	keystroke	p	n/a
647.3355	0.15	1294671	keystroke	l	n/a
647.6055	0.18	1295211	keystroke	e	n/a
648.6555	0.105	1297311	keystroke	Key.enter	n/a
648.765	12.1025	1297530	prompt	n/a	arnold inquiry architect entire\n
649.63	0.135	1299260	keystroke	a	n/a
649.885	0.135	1299770	keystroke	r	n/a
650.215	0.12	1300430	keystroke	n	n/a
650.395	0.12	1300790	keystroke	o	n/a
650.65	0.12	1301300	keystroke	l	n/a
650.89	0.105	1301780	keystroke	d	n/a
651.145	0.105	1302290	keystroke	Key.space	n/a
652.465	0.105	1304930	keystroke	i	n/a
652.69	0.09	1305380	keystroke	n	n/a
653.065	0.165	1306130	keystroke	q	n/a
653.275	0.135	1306550	keystroke	u	n/a
653.545	0.12	1307090	keystroke	i	n/a
653.77	0.12	1307540	keystroke	r	n/a
654.01	0.135	1308020	keystroke	y	n/a
654.76	0.135	1309520	keystroke	Key.space	n/a
655.225	0.135	1310450	keystroke	a	n/a
655.495	0.09	1310990	keystroke	r	n/a
655.84	0.195	1311680	keystroke	c	n/a
656.38	0.135	1312760	keystroke	h	n/a
656.695	0.12	1313390	keystroke	i	n/a
656.95	0.121	1313900	keystroke	t	n/a
657.145	0.09	1314290	keystroke	e	n/a
657.385	0.12	1314770	keystroke	c	n/a
657.7	0.105	1315400	keystroke	t	n/a
658.195	0.105	1316390	keystroke	Key.space	n/a
658.57	0.136	1317140	keystroke	e	n/a
658.735	0.12	1317470	keystroke	n	n/a
658.945	0.09	1317890	keystroke	t	n/a
659.11	0.15	1318220	keystroke	i	n/a
659.32	0.165	1318640	keystroke	r	n/a
659.515	0.105	1319030	keystroke	e	n/a
660.76	0.105	1321520	keystroke	Key.enter	n/a
660.873	10.449	1321746	prompt	n/a	lately anyone referral oral\n
661.796	0.104	1323592	keystroke	l	n/a
661.96	0.12	1323920	keystroke	a	n/a
662.216	0.089	1324432	keystroke	t	n/a
662.395	0.135	1324790	keystroke	e	n/a
662.545	0.105	1325090	keystroke	l	n/a
662.815	0.105	1325630	keystroke	y	n/a
663.745	0.195	1327490	keystroke	Key.space	n/a
664.675	0.015	1329350	keystroke	a	n/a
665.156	0.135	1330312	keystroke	n	n/a
665.425	0.121	1330850	keystroke	y	n/a
665.816	0.12	1331632	keystroke	o	n/a
665.981	0.089	1331962	keystroke	n	n/a
666.191	0.089	1332382	keystroke	e	n/a
667.075	0.151	1334150	keystroke	Key.space	n/a
667.36	0.151	1334720	keystroke	r	n/a
667.48	0.136	1334960	keystroke	e	n/a
667.766	0.134	1335532	keystroke	f	n/a
667.991	0.135	1335982	keystroke	e	n/a
668.231	0.075	1336462	keystroke	r	n/a
668.425	0.15	1336850	keystroke	r	n/a
668.666	0.12	1337332	keystroke	a	n/a
668.8455	0.09	1337691	keystroke	l	n/a
669.2205	0.165	1338441	keystroke	Key.space	n/a
669.4755	0.12	1338951	keystroke	o	n/a
669.6705	0.12	1339341	keystroke	r	n/a
669.8805	0.135	1339761	keystroke	a	n/a
670.0605	0.09	1340121	keystroke	l	n/a
671.2305	0.09	1342461	keystroke	Key.enter	n/a
671.326	11.3965	1342652	prompt	n/a	column transmission selecting before\n
672.2055	0.09	1344411	keystroke	c	n/a
672.3105	0.135	1344621	keystroke	o	n/a
672.5655	0.105	1345131	keystroke	l	n/a
672.8355	0.135	1345671	keystroke	u	n/a
673.1655	0.09	1346331	keystroke	m	n/a
673.3755	0.09	1346751	keystroke	n	n/a
673.9305	0.12	1347861	keystroke	Key.space	n/a
674.2155	0.075	1348431	keystroke	t	n/a
674.4255	0.12	1348851	keystroke	r	n/a
674.6805	0.135	1349361	keystroke	a	n/a
675.0405	0.135	1350081	keystroke	n	n/a
676.3455	0.135	1352691	keystroke	s	n/a
676.5705	0.09	1353141	keystroke	m	n/a
676.7955	0.09	1353591	keystroke	i	n/a
677.0055	0.105	1354011	keystroke	s	n/a
677.2305	0.09	1354461	keystroke	s	n/a
677.3655	0.135	1354731	keystroke	i	n/a
677.5755	0.135	1355151	keystroke	o	n/a
677.8305	0.075	1355661	keystroke	n	n/a
678.3705	0.135	1356741	keystroke	Key.space	n/a
678.7755	0.1195	1357551	keystroke	s	n/a
678.985	0.105	1357970	keystroke	e	n/a
679.225	0.136	1358450	keystroke	l	n/a
679.375	0.075	1358750	keystroke	e	n/a
679.615	0.09	1359230	keystroke	c	n/a
679.885	0.09	1359770	keystroke	t	n/a
680.05	0.165	1360100	keystroke	i	n/a
680.23	0.135	1360460	keystroke	n	n/a
680.5	0.105	1361000	keystroke	g	n/a
680.725	0.12	1361450	keystroke	Key.space	n/a
680.965	0.105	1361930	keystroke	b	n/a
681.145	0.105	1362290	keystroke	e	n/a
681.355	0.106	1362710	keystroke	f	n/a
681.521	0.149	1363042	keystroke	o	n/a
681.7	0.166	1363400	keystroke	r	n/a
681.85	0.15	1363700	keystroke	e	n/a
682.645	0.075	1365290	keystroke	Key.enter	n/a
682.73	9.5625	1365460	prompt	n/a	stud spent manually nails\n
683.516	0.104	1367032	keystroke	s	n/a
684.13	0.136	1368260	keystroke	t	n/a
684.296	0.135	1368592	keystroke	u	n/a
684.55	0.121	1369100	keystroke	d	n/a
684.835	0.12	1369670	keystroke	Key.space	n/a
685.03	0.121	1370060	keystroke	s	n/a
685.181	0.134	1370362	keystroke	p	n/a
685.375	0.136	1370750	keystroke	e	n/a
685.586	0.119	1371172	keystroke	n	n/a
685.825	0.091	1371650	keystroke	t	n/a
686.185	0.135	1372370	keystroke	Key.space	n/a
686.425	0.12	1372850	keystroke	m	n/a
686.666	0.104	1373332	keystroke	a	n/a
686.905	0.075	1373810	keystroke	n	n/a
687.205	0.061	1374410	keystroke	u	n/a
687.221	0.015	1374442	keystroke	y	n/a
688	0.135	1376000	keystroke	Key.backspace	n/a
688.616	0.104	1377232	keystroke	a	n/a
688.78	0.151	1377560	keystroke	l	n/a
688.975	0.106	1377950	keystroke	l	n/a
689.231	0.119	1378462	keystroke	y	n/a
689.8755	0.135	1379751	keystroke	Key.space	n/a
690.476	0.09	1380952	keystroke	n	n/a
690.671	0.135	1381342	keystroke	a	n/a
690.911	0.105	1381822	keystroke	i	n/a
691.106	0.165	1382212	keystroke	l	n/a
691.481	0.09	1382962	keystroke	s	n/a
692.2005	0.09	1384401	keystroke	Key.enter	n/a
692.296	9.4765	1384592	prompt	n/a	documented okay solutions firewall\n
693.071	0.135	1386142	keystroke	d	n/a
693.311	0.135	1386622	keystroke	o	n/a
693.581	0.135	1387162	keystroke	c	n/a
693.746	0.12	1387492	keystroke	u	n/a
694.061	0.15	1388122	keystroke	m	n/a
694.316	0.135	1388632	keystroke	e	n/a
694.436	0.12	1388872	keystroke	n	n/a
694.661	0.105	1389322	keystroke	t	n/a
694.841	0.105	1389682	keystroke	e	n/a
695.066	0.135	1390132	keystroke	d	n/a
695.276	0.135	1390552	keystroke	Key.space	n/a
695.546	0.15	1391092	keystroke	o	n/a
695.771	0.135	1391542	keystroke	k	n/a
696.086	0.09	1392172	keystroke	a	n/a
696.341	0.135	1392682	keystroke	y	n/a
696.881	0.105	1393762	keystroke	Key.space	n/a
697.151	0.105	1394302	keystroke	s	n/a
697.361	0.12	1394722	keystroke	o	n/a
697.601	0.09	1395202	keystroke	l	n/a
697.811	0.12	1395622	keystroke	u	n/a
698.066	0.135	1396132	keystroke	t	n/a
698.216	0.12	1396432	keystroke	i	n/a
698.411	0.12	1396822	keystroke	o	n/a
698.636	0.12	1397272	keystroke	n	n/a
698.891	0.135	1397782	keystroke	s	n/a
699.131	0.165	1398262	keystroke	Key.space	n/a
699.581	0.105	1399162	keystroke	f	n/a
699.761	0.135	1399522	keystroke	i	n/a
700.031	0.12	1400062	keystroke	r	n/a
700.286	0.15	1400572	keystroke	e	n/a
700.511	0.135	1401022	keystroke	w	n/a
700.766	0.12	1401532	keystroke	a	n/a
700.9615	0.105	1401923	keystroke	l	n/a
701.1865	0.15	1402373	keystroke	l	n/a
701.6815	0.09	1403363	keystroke	Key.enter	n/a
701.7775	12.34	1403555	prompt	n/a	since shame every jackson\n
702.5515	0.105	1405103	keystroke	s	n/a
702.6865	0.15	1405373	keystroke	i	n/a
702.956	0.12	1405912	keystroke	n	n/a
703.181	0.075	1406362	keystroke	c	n/a
703.436	0.105	1406872	keystroke	e	n/a
705.056	0.12	1410112	keystroke	Key.space	n/a
705.281	0.09	1410562	keystroke	s	n/a
705.491	0.1645	1410982	keystroke	a	n/a
705.6705	0.15	1411341	keystroke	h	n/a
706.6155	0.12	1413231	keystroke	Key.backspace	n/a
706.9305	0.1505	1413861	keystroke	Key.backspace	n/a
707.351	0.15	1414702	keystroke	h	n/a
707.546	0.15	1415092	keystroke	a	n/a
707.756	0.12	1415512	keystroke	m	n/a
707.936	0.135	1415872	keystroke	e	n/a
708.176	0.12	1416352	keystroke	Key.space	n/a
708.461	0.105	1416922	keystroke	e	n/a
708.731	0.12	1417462	keystroke	v	n/a
708.911	0.2395	1417822	keystroke	e	n/a
709.1355	0.12	1418271	keystroke	r	n/a
709.3605	0.12	1418721	keystroke	y	n/a
709.6755	0.135	1419351	keystroke	Key.space	n/a
710.4405	0.135	1420881	keystroke	j	n/a
710.6655	0.15	1421331	keystroke	a	n/a
711.1905	0.105	1422381	keystroke	c	n/a
711.3555	0.135	1422711	keystroke	k	n/a
711.5205	0.135	1423041	keystroke	d	n/a
711.7755	0.105	1423551	keystroke	o	n/a
712.5105	0.105	1425021	keystroke	Key.backspace	n/a
712.7355	0.09	1425471	keystroke	Key.backspace	n/a
712.9615	0.149	1425923	keystroke	s	n/a
713.1255	0.15	1426251	keystroke	o	n/a
713.4105	0.09	1426821	keystroke	n	n/a
714.0105	0.105	1428021	keystroke	Key.enter	n/a
714.1235	12.3245	1428247	prompt	n/a	evaluate purchased collar effectively\n
715.1065	0.089	1430213	keystroke	e	n/a
715.5105	0.105	1431021	keystroke	v	n/a
715.7355	0.15	1431471	keystroke	a	n/a
716.0805	0.12	1432161	keystroke	l	n/a
716.3215	0.119	1432643	keystroke	u	n/a
716.5455	0.12	1433091	keystroke	a	n/a
716.8305	0.106	1433661	keystroke	t	n/a
717.0555	0.15	1434111	keystroke	e	n/a
717.2355	0.135	1434471	keystroke	Key.space	n/a
717.4455	0.12	1434891	keystroke	p	n/a
717.8055	0.136	1435611	keystroke	u	n/a
718.0005	0.105	1436001	keystroke	r	n/a
718.2555	0.09	1436511	keystroke	c	n/a
718.4205	0.105	1436841	keystroke	h	n/a
718.6455	0.135	1437291	keystroke	a	n/a
718.9465	0.134	1437893	keystroke	s	n/a
719.1855	0.105	1438371	keystroke	e	n/a
719.4105	0.106	1438821	keystroke	d	n/a
720.1755	0.09	1440351	keystroke	Key.space	n/a
720.4605	0.09	1440921	keystroke	c	n/a
720.5955	0.15	1441191	keystroke	o	n/a
720.8505	0.105	1441701	keystroke	l	n/a
721.0615	0.119	1442123	keystroke	l	n/a
721.2865	0.15	1442573	keystroke	a	n/a
721.5115	0.089	1443023	keystroke	r	n/a
721.7505	0.12	1443501	keystroke	Key.space	n/a
722.0805	0.076	1444161	keystroke	e	n/a
722.3365	0.075	1444673	keystroke	f	n/a
722.5305	0.12	1445061	keystroke	f	n/a
722.7705	0.12	1445541	keystroke	e	n/a
723.0405	0.105	1446081	keystroke	c	n/a
723.3105	0.136	1446621	keystroke	t	n/a
723.9405	0.106	1447881	keystroke	i	n/a
724.1805	0.106	1448361	keystroke	v	n/a
724.3915	0.104	1448783	keystroke	e	n/a
724.6915	0.074	1449383	keystroke	l	n/a
724.9005	0.121	1449801	keystroke	y	n/a
726.3565	0.089	1452713	keystroke	Key.enter	n/a
726.451	14.652	1452902	prompt	n/a	lauderdale downtown chart resumes\n
727.2115	0.105	1454423	keystroke	l	n/a
727.4815	0.18	1454963	keystroke	a	n/a
728.3365	0.12	1456673	keystroke	u	n/a
728.6065	0.105	1457213	keystroke	d	n/a
729.0555	0.165	1458111	keystroke	e	n/a
729.3255	0.151	1458651	keystroke	r	n/a
729.7155	0.12	1459431	keystroke	d	n/a
729.9715	0.104	1459943	keystroke	a	n/a
730.1365	0.134	1460273	keystroke	l	n/a
730.3305	0.075	1460661	keystroke	e	n/a
734.024	0.072	1468048	keystroke	Key.space	n/a
734.351	0.18	1468702	keystroke	d	n/a
734.576	0.15	1469152	keystroke	o	n/a
734.771	0.165	1469542	keystroke	w	n/a
734.996	0.12	1469992	keystroke	n	n/a
735.236	0.09	1470472	keystroke	t	n/a
735.476	0.12	1470952	keystroke	o	n/a
735.701	0.12	1471402	keystroke	w	n/a
735.971	0.075	1471942	keystroke	n	n/a
736.166	0.105	1472332	keystroke	Key.space	n/a
736.5255	0.136	1473051	keystroke	c	n/a
736.7365	0.09	1473473	keystroke	h	n/a
736.8865	0.134	1473773	keystroke	a	n/a
737.1265	0.12	1474253	keystroke	r	n/a
737.3965	0.09	1474793	keystroke	t	n/a
737.6815	0.089	1475363	keystroke	Key.space	n/a
738.1455	0.196	1476291	keystroke	r	n/a
738.3865	0.165	1476773	keystroke	e	n/a
738.6565	0.15	1477313	keystroke	s	n/a
738.8815	0.105	1477763	keystroke	u	n/a
739.1815	0.15	1478363	keystroke	m	n/a
739.3615	0.135	1478723	keystroke	e	n/a
739.6005	0.121	1479201	keystroke	s	n/a
741.0115	0.09	1482023	keystroke	Key.enter	n/a
741.107	10.6165	1482214	prompt	n/a	educational profit taxi tracking\n
742.1215	0.105	1484243	keystroke	e	n/a
742.3615	0.105	1484723	keystroke	d	n/a
742.5415	0.12	1485083	keystroke	u	n/a
742.7065	0.135	1485413	keystroke	c	n/a
742.8865	0.135	1485773	keystroke	a	n/a
743.1715	0.105	1486343	keystroke	t	n/a
743.3515	0.165	1486703	keystroke	i	n/a
743.5765	0.135	1487153	keystroke	o	n/a
743.8315	0.12	1487663	keystroke	n	n/a
744.0565	0.12	1488113	keystroke	a	n/a
744.2365	0.12	1488473	keystroke	l	n/a
744.5065	0.12	1489013	keystroke	Key.space	n/a
744.6865	0.135	1489373	keystroke	p	n/a
744.9415	0.105	1489883	keystroke	r	n/a
745.1065	0.165	1490213	keystroke	o	n/a
745.3315	0.15	1490663	keystroke	f	n/a
745.5715	0.135	1491143	keystroke	i	n/a
745.7965	0.075	1491593	keystroke	t	n/a
746.6365	0.135	1493273	keystroke	Key.space	n/a
747.1915	0.09	1494383	keystroke	t	n/a
747.4915	0.12	1494983	keystroke	a	n/a
747.7915	0.105	1495583	keystroke	c	n/a
748.2715	0.12	1496543	keystroke	Key.backspace	n/a
748.4515	0.12	1496903	keystroke	x	n/a
748.6765	0.105	1497353	keystroke	i	n/a
749.3515	0.135	1498703	keystroke	Key.space	n/a
749.6215	0.09	1499243	keystroke	t	n/a
749.8465	0.105	1499693	keystroke	r	n/a
750.0415	0.09	1500083	keystroke	a	n/a
750.2815	0.105	1500563	keystroke	c	n/a
750.4615	0.105	1500923	keystroke	k	n/a
750.7015	0.12	1501403	keystroke	i	n/a
750.9565	0.12	1501913	keystroke	n	n/a
751.1965	0.105	1502393	keystroke	g	n/a
751.6165	0.105	1503233	keystroke	Key.enter	n/a
751.728	11.0195	1503456	prompt	n/a	beverages beth ties twins\n
753.3565	0.12	1506713	keystroke	b	n/a
753.6265	0.135	1507253	keystroke	e	n/a
754.391	0.12	1508782	keystroke	v	n/a
754.691	0.135	1509382	keystroke	e	n/a
755.396	0.12	1510792	keystroke	r	n/a
755.561	0.1205	1511122	keystroke	a	n/a
755.8465	0.1045	1511693	keystroke	g	n/a
756.0565	0.1495	1512113	keystroke	e	n/a
756.266	0.1355	1512532	keystroke	s	n/a
756.716	0.105	1513432	keystroke	Key.space	n/a
757.001	0.135	1514002	keystroke	b	n/a
757.166	0.165	1514332	keystroke	e	n/a
757.4965	0.105	1514993	keystroke	t	n/a
757.736	0.12	1515472	keystroke	h	n/a
758.006	0.1205	1516012	keystroke	Key.space	n/a
758.486	0.135	1516972	keystroke	t	n/a
758.6665	0.165	1517333	keystroke	i	n/a
758.8905	0.136	1517781	keystroke	e	n/a
759.1455	0.151	1518291	keystroke	s	n/a
759.5815	0.104	1519163	keystroke	Key.space	n/a
759.9115	0.135	1519823	keystroke	t	n/a
760.1365	0.15	1520273	keystroke	w	n/a
760.3165	0.12	1520633	keystroke	i	n/a
760.5715	0.104	1521143	keystroke	n	n/a
760.7515	0.1495	1521503	keystroke	s	n/a
762.611	0.135	1525222	keystroke	Key.enter	n/a
762.7535	14.635	1525507	prompt	n/a	courts tops henderson amendment\n
763.871	0.12	1527742	keystroke	c	n/a
764.081	0.105	1528162	keystroke	o	n/a
764.276	0.12	1528552	keystroke	u	n/a
764.471	0.105	1528942	keystroke	r	n/a
764.711	0.09	1529422	keystroke	t	n/a
764.9515	0.105	1529903	keystroke	s	n/a
765.2965	0.135	1530593	keystroke	Key.space	n/a
765.6265	0.09	1531253	keystroke	t	n/a
765.8065	0.12	1531613	keystroke	o	n/a
766.0015	0.12	1532003	keystroke	p	n/a
766.1815	0.195	1532363	keystroke	s	n/a
766.6765	0.105	1533353	keystroke	Key.space	n/a
766.9465	0.119	1533893	keystroke	h	n/a
767.1705	0.136	1534341	keystroke	e	n/a
767.3515	0.12	1534703	keystroke	n	n/a
767.5165	0.06	1535033	keystroke	d	n/a
767.7415	0.149	1535483	keystroke	e	n/a
767.9815	0.105	1535963	keystroke	r	n/a
768.2215	0.119	1536443	keystroke	s	n/a
768.4765	0.105	1536953	keystroke	o	n/a
768.7015	0.12	1537403	keystroke	n	n/a
769.2265	0.135	1538453	keystroke	Key.space	n/a
769.4815	0.12	1538963	keystroke	a	n/a
770.2915	0.105	1540583	keystroke	m	n/a
770.5915	0.09	1541183	keystroke	e	n/a
772.0015	0.15	1544003	keystroke	n	n/a
772.3165	0.09	1544633	keystroke	d	n/a
772.6165	0.105	1545233	keystroke	m	n/a
772.7965	0.15	1545593	keystroke	e	n/a
772.9615	0.135	1545923	keystroke	n	n/a
773.1265	0.105	1546253	keystroke	t	n/a
777.3145	0.072	1554629	keystroke	Key.enter	n/a
777.3925	9.2955	1554785	prompt	n/a	substantial coffee natural daniel\n
778.3015	0.165	1556603	keystroke	s	n/a
778.5115	0.105	1557023	keystroke	u	n/a
778.7965	0.135	1557593	keystroke	b	n/a
779.0365	0.12	1558073	keystroke	s	n/a
779.2315	0.12	1558463	keystroke	t	n/a
779.456	0.165	1558912	keystroke	a	n/a
779.636	0.1055	1559272	keystroke	n	n/a
779.8615	0.12	1559723	keystroke	t	n/a
780.0415	0.15	1560083	keystroke	i	n/a
780.2365	0.1045	1560473	keystroke	a	n/a
780.401	0.135	1560802	keystroke	l	n/a
780.611	0.15	1561222	keystroke	Key.space	n/a
781.4215	0.1345	1562843	keystroke	c	n/a
781.601	0.105	1563202	keystroke	o	n/a
781.8415	0.075	1563683	keystroke	f	n/a
782.0215	0.135	1564043	keystroke	f	n/a
782.292	0.06	1564584	keystroke	e	n/a
782.457	0.1495	1564914	keystroke	e	n/a
782.7115	0.15	1565423	keystroke	Key.space	n/a
783.0115	0.135	1566023	keystroke	n	n/a
783.1765	0.135	1566353	keystroke	a	n/a
783.4165	0.0905	1566833	keystroke	t	n/a
783.5665	0.135	1567133	keystroke	u	n/a
783.7315	0.135	1567463	keystroke	r	n/a
783.9715	0.12	1567943	keystroke	a	n/a
784.1365	0.165	1568273	keystroke	l	n/a
784.3615	0.119	1568723	keystroke	Key.space	n/a
784.8265	0.12	1569653	keystroke	d	n/a
785.0815	0.105	1570163	keystroke	a	n/a
785.2765	0.105	1570553	keystroke	n	n/a
785.5165	0.12	1571033	keystroke	i	n/a
785.6965	0.105	1571393	keystroke	e	n/a
785.8615	0.09	1571723	keystroke	l	n/a
786.5815	0.105	1573163	keystroke	Key.enter	n/a
786.6945	9.7135	1573389	prompt	n/a	tired hang shirts utils\n
787.8715	0.12	1575743	keystroke	t	n/a
788.0215	0.15	1576043	keystroke	i	n/a
788.2765	0.15	1576553	keystroke	r	n/a
788.4415	0.105	1576883	keystroke	e	n/a
788.6665	0.1645	1577333	keystroke	d	n/a
788.846	0.15	1577692	keystroke	Key.space	n/a
789.042	0.165	1578084	keystroke	h	n/a
789.207	0.15	1578414	keystroke	a	n/a
789.432	0.12	1578864	keystroke	n	n/a
789.671	0.121	1579342	keystroke	g	n/a
790.271	0.12	1580542	keystroke	Key.space	n/a
790.512	0.09	1581024	keystroke	s	n/a
790.722	0.119	1581444	keystroke	h	n/a
790.962	0.135	1581924	keystroke	i	n/a
791.111	0.091	1582222	keystroke	r	n/a
791.351	0.09	1582702	keystroke	t	n/a
791.802	0.104	1583604	keystroke	s	n/a
792.131	0.105	1584262	keystroke	Key.space	n/a
792.477	0.089	1584954	keystroke	u	n/a
792.747	0.089	1585494	keystroke	t	n/a
792.866	0.165	1585732	keystroke	i	n/a
793.991	0.15	1587982	keystroke	l	n/a
795.7015	0.12	1591403	keystroke	s	n/a
796.317	0.0895	1592634	keystroke	Key.enter	n/a
796.4125	10.301	1592825	prompt	n/a	locking more ordinance incredible\n
797.277	0.12	1594554	keystroke	l	n/a
797.471	0.1205	1594942	keystroke	o	n/a
797.8465	0.135	1595693	keystroke	c	n/a
798.6115	0.105	1597223	keystroke	k	n/a
798.926	0.225	1597852	keystroke	i	n/a
799.0915	0.1495	1598183	keystroke	n	n/a
799.271	0.105	1598542	keystroke	g	n/a
799.511	0.1205	1599022	keystroke	Key.space	n/a
799.676	0.15	1599352	keystroke	m	n/a
799.871	0.12	1599742	keystroke	o	n/a
800.1265	0.135	1600253	keystroke	r	n/a
800.3065	0.135	1600613	keystroke	e	n/a
800.5465	0.105	1601093	keystroke	Key.space	n/a
800.7415	0.12	1601483	keystroke	o	n/a
800.9815	0.121	1601963	keystroke	r	n/a
801.6715	0.165	1603343	keystroke	d	n/a
801.8815	0.105	1603763	keystroke	i	n/a
802.1515	0.135	1604303	keystroke	n	n/a
802.4365	0.135	1604873	keystroke	a	n/a
802.6165	0.135	1605233	keystroke	n	n/a
802.7965	0.12	1605593	keystroke	c	n/a
803.0515	0.12	1606103	keystroke	e	n/a
803.3215	0.15	1606643	keystroke	Key.space	n/a
803.6815	0.135	1607363	keystroke	i	n/a
803.9665	0.135	1607933	keystroke	n	n/a
804.2215	0.09	1608443	keystroke	c	n/a
804.4915	0.18	1608983	keystroke	r	n/a
804.8215	0.09	1609643	keystroke	e	n/a
805.0775	0.104	1610155	keystroke	d	n/a
805.2425	0.09	1610485	keystroke	i	n/a
805.4815	0.135	1610963	keystroke	b	n/a
805.7215	0.136	1611443	keystroke	l	n/a
805.9165	0.075	1611833	keystroke	e	n/a
806.6215	0.09	1613243	keystroke	Key.enter	n/a
806.7165	9.6725	1613433	prompt	n/a	fortune relax considerable missing\n
807.7775	0.089	1615555	keystroke	f	n/a
807.9265	0.091	1615853	keystroke	o	n/a
808.1065	0.105	1616213	keystroke	r	n/a
808.3765	0.105	1616753	keystroke	t	n/a
808.5715	0.106	1617143	keystroke	u	n/a
808.8265	0.12	1617653	keystroke	n	n/a
808.9915	0.105	1617983	keystroke	e	n/a
809.2465	0.12	1618493	keystroke	Key.space	n/a
809.5025	0.089	1619005	keystroke	r	n/a
809.7115	0.106	1619423	keystroke	e	n/a
809.8775	0.164	1619755	keystroke	l	n/a
810.0575	0.074	1620115	keystroke	a	n/a
810.3115	0.135	1620623	keystroke	x	n/a
810.8965	0.135	1621793	keystroke	Key.space	n/a
811.6025	0.105	1623205	keystroke	c	n/a
811.7665	0.225	1623533	keystroke	o	n/a
811.9925	0.149	1623985	keystroke	n	n/a
812.2775	0.104	1624555	keystroke	s	n/a
812.5025	0.104	1625005	keystroke	i	n/a
812.6665	0.075	1625333	keystroke	d	n/a
812.8915	0.15	1625783	keystroke	e	n/a
813.1915	0.12	1626383	keystroke	r	n/a
813.4165	0.136	1626833	keystroke	a	n/a
813.6115	0.105	1627223	keystroke	b	n/a
813.7915	0.135	1627583	keystroke	l	n/a
814.0025	0.134	1628005	keystroke	e	n/a
814.1965	0.12	1628393	keystroke	Key.space	n/a
814.5415	0.075	1629083	keystroke	m	n/a
814.7675	0.105	1629535	keystroke	i	n/a
814.9165	0.106	1629833	keystroke	s	n/a
815.1415	0.136	1630283	keystroke	s	n/a
815.3225	0.164	1630645	keystroke	i	n/a
815.5175	0.149	1631035	keystroke	n	n/a
815.7125	0.074	1631425	keystroke	g	n/a
816.2675	0.119	1632535	keystroke	Key.enter	n/a
816.3955	10.194	1632791	prompt	n/a	really unix pharmacy never\n
817.2725	0.135	1634545	keystroke	r	n/a
817.4975	0.1045	1634995	keystroke	e	n/a
817.692	0.135	1635384	keystroke	a	n/a
817.812	0.09	1635624	keystroke	l	n/a
818.052	0.105	1636104	keystroke	l	n/a
818.307	0.165	1636614	keystroke	y	n/a
818.8015	0.12	1637603	keystroke	Key.space	n/a
818.9815	0.105	1637963	keystroke	u	n/a
819.2815	0.166	1638563	keystroke	n	n/a
819.4015	0.196	1638803	keystroke	i	n/a
819.6125	0.12	1639225	keystroke	x	n/a
819.8225	0.15	1639645	keystroke	Key.space	n/a
820.1225	0.105	1640245	keystroke	p	n/a
820.3625	0.09	1640725	keystroke	h	n/a
820.5865	0.12	1641173	keystroke	a	n/a
820.8425	0.149	1641685	keystroke	r	n/a
821.2165	0.12	1642433	keystroke	m	n/a
821.3825	0.15	1642765	keystroke	a	n/a
822.3725	0.119	1644745	keystroke	c	n/a
822.6865	0.1355	1645373	keystroke	y	n/a
823.197	0.135	1646394	keystroke	Key.space	n/a
823.452	0.15	1646904	keystroke	n	n/a
823.662	0.09	1647324	keystroke	e	n/a
823.827	0.12	1647654	keystroke	v	n/a
824.007	0.135	1648014	keystroke	e	n/a
824.112	0.12	1648224	keystroke	r	n/a
826.5605	0.027	1653121	keystroke	Key.enter	n/a
826.5945	11.1095	1653189	prompt	n/a	holdings thousands recently attach\n
827.6065	0.135	1655213	keystroke	h	n/a
827.7715	0.105	1655543	keystroke	o	n/a
827.9965	0.12	1655993	keystroke	l	n/a
828.2215	0.135	1656443	keystroke	d	n/a
828.4165	0.105	1656833	keystroke	i	n/a
828.6415	0.12	1657283	keystroke	n	n/a
828.8365	0.091	1657673	keystroke	g	n/a
829.0475	0.15	1658095	keystroke	s	n/a
829.2575	0.089	1658515	keystroke	Key.space	n/a
829.5115	0.091	1659023	keystroke	t	n/a
829.6625	0.12	1659325	keystroke	h	n/a
829.8575	0.195	1659715	keystroke	o	n/a
830.0225	0.165	1660045	keystroke	u	n/a
830.2625	0.12	1660525	keystroke	s	n/a
830.4875	0.135	1660975	keystroke	a	n/a
830.6525	0.135	1661305	keystroke	n	n/a
830.8325	0.105	1661665	keystroke	d	n/a
831.0125	0.15	1662025	keystroke	s	n/a
831.6575	0.104	1663315	keystroke	Key.space	n/a
831.9125	0.165	1663825	keystroke	r	n/a
832.0925	0.09	1664185	keystroke	e	n/a
832.3775	0.075	1664755	keystroke	c	n/a
832.6025	0.12	1665205	keystroke	e	n/a
832.8275	0.165	1665655	keystroke	n	n/a
833.0525	0.09	1666105	keystroke	t	n/a
833.2625	0.075	1666525	keystroke	l	n/a
833.5025	0.09	1667005	keystroke	y	n/a
833.7275	0.104	1667455	keystroke	Key.space	n/a
834.0575	0.12	1668115	keystroke	a	n/a
834.3425	0.045	1668685	keystroke	t	n/a
834.5225	0.105	1669045	keystroke	t	n/a
834.7325	0.105	1669465	keystroke	a	n/a
835.0175	0.075	1670035	keystroke	c	n/a
835.2275	0.12	1670455	keystroke	h	n/a
837.6455	0.057	1675291	keystroke	Key.enter	n/a
837.7105	12.114	1675421	prompt	n/a	watershed claims wife pros\n
838.7675	0.105	1677535	keystroke	w	n/a
838.9775	0.135	1677955	keystroke	a	n/a
839.2475	0.105	1678495	keystroke	t	n/a
839.5025	0.105	1679005	keystroke	e	n/a
839.7425	0.12	1679485	keystroke	r	n/a
839.9825	0.12	1679965	keystroke	s	n/a
840.1475	0.15	1680295	keystroke	h	n/a
840.3575	0.12	1680715	keystroke	e	n/a
840.6875	0.135	1681375	keystroke	d	n/a
841.9475	0.105	1683895	keystroke	Key.space	n/a
842.1875	0.12	1684375	keystroke	c	n/a
842.3675	0.135	1684735	keystroke	l	n/a
842.5325	0.15	1685065	keystroke	a	n/a
842.7125	0.105	1685425	keystroke	i	n/a
843.0125	0.135	1686025	keystroke	m	n/a
843.1925	0.15	1686385	keystroke	s	n/a
843.4325	0.12	1686865	keystroke	Key.space	n/a
843.7325	0.135	1687465	keystroke	w	n/a
843.8975	0.165	1687795	keystroke	i	n/a
844.1075	0.15	1688215	keystroke	f	n/a
844.3625	0.12	1688725	keystroke	e	n/a
845.0375	0.15	1690075	keystroke	Key.space	n/a
845.2775	0.135	1690555	keystroke	p	n/a
845.4725	0.135	1690945	keystroke	r	n/a
845.6825	0.18	1691365	keystroke	o	n/a
846.0725	0.12	1692145	keystroke	s	n/a
849.765	0.057	1699530	keystroke	Key.enter	n/a
849.8295	9.6995	1699659	prompt	n/a	dial saving someone miracle\n
850.617	0.15	1701234	keystroke	d	n/a
850.782	0.1355	1701564	keystroke	i	n/a
851.1425	0.12	1702285	keystroke	a	n/a
851.3375	0.12	1702675	keystroke	l	n/a
851.5775	0.12	1703155	keystroke	Key.space	n/a
851.7575	0.135	1703515	keystroke	s	n/a
851.9975	0.135	1703995	keystroke	a	n/a
852.2225	0.075	1704445	keystroke	v	n/a
852.4625	0.12	1704925	keystroke	i	n/a
852.7325	0.1045	1705465	keystroke	n	n/a
852.867	0.135	1705734	keystroke	g	n/a
853.062	0.12	1706124	keystroke	Key.space	n/a
853.257	0.15	1706514	keystroke	s	n/a
853.392	0.135	1706784	keystroke	o	n/a
853.662	0.135	1707324	keystroke	m	n/a
853.918	0.104	1707836	keystroke	e	n/a
854.337	0.12	1708674	keystroke	o	n/a
854.562	0.135	1709124	keystroke	n	n/a
854.787	0.165	1709574	keystroke	e	n/a
855.012	0.135	1710024	keystroke	Key.space	n/a
855.222	0.135	1710444	keystroke	m	n/a
855.522	0.166	1711044	keystroke	i	n/a
856.197	0.165	1712394	keystroke	r	n/a
856.468	0.15	1712936	keystroke	a	n/a
857.113	0.149	1714226	keystroke	c	n/a
857.578	0.12	1715156	keystroke	l	n/a
857.833	0.074	1715666	keystroke	e	n/a
859.4225	0.105	1718845	keystroke	Key.enter	n/a
859.534	20.4255	1719068	prompt	n/a	qualifications research enlarge eventually\n
860.4275	0.18	1720855	keystroke	q	n/a
860.6225	0.135	1721245	keystroke	u	n/a
860.8175	0.15	1721635	keystroke	a	n/a
860.9825	0.195	1721965	keystroke	l	n/a
861.1175	0.18	1722235	keystroke	i	n/a
861.3725	0.105	1722745	keystroke	t	n/a
861.5675	0.165	1723135	keystroke	i	n/a
861.882	0.21	1723764	keystroke	f	n/a
862.212	0.165	1724424	keystroke	a	n/a
862.542	0.1205	1725084	keystroke	t	n/a
862.677	0.18	1725354	keystroke	i	n/a
862.842	0.225	1725684	keystroke	o	n/a
863.082	0.12	1726164	keystroke	n	n/a
863.292	0.15	1726584	keystroke	s	n/a
863.547	0.1205	1727094	keystroke	Key.space	n/a
863.802	0.165	1727604	keystroke	r	n/a
863.982	0.15	1727964	keystroke	e	n/a
864.837	0.09	1729674	keystroke	Key.backspace	n/a
865.047	0.09	1730094	keystroke	Key.backspace	n/a
865.242	0.105	1730484	keystroke	Key.backspace	n/a
865.467	0.105	1730934	keystroke	Key.backspace	n/a
865.677	0.105	1731354	keystroke	Key.backspace	n/a
865.872	0.105	1731744	keystroke	Key.backspace	n/a
866.067	0.12	1732134	keystroke	Key.backspace	n/a
866.292	0.15	1732584	keystroke	Key.backspace	n/a
866.6375	0.1195	1733275	keystroke	Key.backspace	n/a
867.177	0.105	1734354	keystroke	Key.backspace	n/a
867.417	0.135	1734834	keystroke	Key.backspace	n/a
867.972	0.12	1735944	keystroke	Key.backspace	n/a
869.293	0.164	1738586	keystroke	f	n/a
869.518	0.135	1739036	keystroke	i	n/a
869.683	0.135	1739366	keystroke	c	n/a
869.877	0.151	1739754	keystroke	a	n/a
870.193	0.105	1740386	keystroke	t	n/a
870.343	0.135	1740686	keystroke	i	n/a
870.583	0.135	1741166	keystroke	o	n/a
870.838	0.12	1741676	keystroke	n	n/a
871.093	0.12	1742186	keystroke	s	n/a
871.873	0.12	1743746	keystroke	Key.space	n/a
872.248	0.165	1744496	keystroke	r	n/a
872.383	0.15	1744766	keystroke	e	n/a
872.593	0.15	1745186	keystroke	s	n/a
872.848	0.105	1745696	keystroke	e	n/a
873.058	0.21	1746116	keystroke	a	n/a
873.193	0.12	1746386	keystroke	r	n/a
873.508	0.09	1747016	keystroke	c	n/a
873.763	0.09	1747526	keystroke	h	n/a
874.183	0.12	1748366	keystroke	Key.space	n/a
874.393	0.12	1748786	keystroke	e	n/a
874.618	0.105	1749236	keystroke	n	n/a
874.813	0.135	1749626	keystroke	l	n/a
875.008	0.135	1750016	keystroke	a	n/a
875.278	0.105	1750556	keystroke	r	n/a
875.503	0.12	1751006	keystroke	g	n/a
875.743	0.165	1751486	keystroke	e	n/a
876.088	0.135	1752176	keystroke	Key.space	n/a
876.478	0.12	1752956	keystroke	e	n/a
876.763	0.135	1753526	keystroke	v	n/a
877.033	0.165	1754066	keystroke	e	n/a
877.168	0.12	1754336	keystroke	n	n/a
877.453	0.135	1754906	keystroke	t	n/a
877.633	0.135	1755266	keystroke	u	n/a
877.873	0.135	1755746	keystroke	a	n/a
878.173	0.12	1756346	keystroke	l	n/a
878.428	0.165	1756856	keystroke	l	n/a
878.743	0.1495	1757486	keystroke	y	n/a
879.8975	0.06	1759795	keystroke	Key.enter	n/a
879.965	12.895	1759930	prompt	n/a	methodology nirvana engaged where're\n
880.873	0.12	1761746	keystroke	m	n/a
881.143	0.135	1762286	keystroke	e	n/a
881.383	0.12	1762766	keystroke	t	n/a
881.563	0.135	1763126	keystroke	h	n/a
881.803	0.12	1763606	keystroke	o	n/a
882.403	0.105	1764806	keystroke	d	n/a
882.583	0.135	1765166	keystroke	o	n/a
882.852	0.076	1765704	keystroke	l	n/a
883.033	0.12	1766066	keystroke	o	n/a
883.273	0.105	1766546	keystroke	g	n/a
883.468	0.119	1766936	keystroke	y	n/a
883.782	0.075	1767564	keystroke	Key.space	n/a
884.593	0.119	1769186	keystroke	n	n/a
884.803	0.104	1769606	keystroke	i	n/a
885.012	0.075	1770024	keystroke	r	n/a
885.253	0.105	1770506	keystroke	v	n/a
885.493	0.12	1770986	keystroke	a	n/a
885.703	0.12	1771406	keystroke	n	n/a
885.912	0.091	1771824	keystroke	a	n/a
886.152	0.121	1772304	keystroke	Key.space	n/a
886.468	0.12	1772936	keystroke	e	n/a
886.633	0.15	1773266	keystroke	n	n/a
886.813	0.0895	1773626	keystroke	g	n/a
887.0225	0.136	1774045	keystroke	a	n/a
887.3075	0.135	1774615	keystroke	g	n/a
887.5785	0.089	1775157	keystroke	e	n/a
887.8185	0.059	1775637	keystroke	d	n/a
888.1175	0.135	1776235	keystroke	Key.space	n/a
888.5825	0.105	1777165	keystroke	w	n/a
888.7625	0.1205	1777525	keystroke	h	n/a
