onset	duration	sample	value	key	prompt_text
17.6945	10.1605	35389	prompt	n/a	the quick brown fox jumps over a lazy dog\n
22.5	0.013	45000	keystroke_t	t	n/a
22.527	0.106	45054	keystroke_h	h	n/a
22.617	0.076	45234	keystroke_e	e	n/a
22.722	0.09	45444	keystroke_Key.space	Key.space	n/a
22.872	0.121	45744	keystroke_q	q	n/a
22.963	0.104	45926	keystroke_u	u	n/a
23.037	0.09	46074	keystroke_i	i	n/a
23.173	0.135	46346	keystroke_c	c	n/a
23.278	0.105	46556	keystroke_k	k	n/a
23.413	0.09	46826	keystroke_Key.space	Key.space	n/a
23.577	0.061	47154	keystroke_b	b	n/a
23.758	0.09	47516	keystroke_r	r	n/a
23.833	0.089	47666	keystroke_o	o	n/a
23.952	0.105	47904	keystroke_w	w	n/a
24.043	0.0895	48086	keystroke_n	n	n/a
24.2075	0.09	48415	keystroke_Key.space	Key.space	n/a
24.4175	0.105	48835	keystroke_f	f	n/a
24.4925	0.075	48985	keystroke_o	o	n/a
24.7025	0.105	49405	keystroke_x	x	n/a
24.8675	0.09	49735	keystroke_Key.space	Key.space	n/a
25.0025	0.075	50005	keystroke_j	j	n/a
25.1825	0.045	50365	keystroke_u	u	n/a
25.3475	0.075	50695	keystroke_m	m	n/a
25.5425	0.09	51085	keystroke_p	p	n/a
25.6625	0.105	51325	keystroke_s	s	n/a
25.8575	0.09	51715	keystroke_Key.space	Key.space	n/a
26.0075	0.09	52015	keystroke_o	o	n/a
26.1125	0.075	52225	keystroke_v	v	n/a
26.2625	0.12	52525	keystroke_e	e	n/a
26.3225	0.105	52645	keystroke_r	r	n/a
26.3975	0.09	52795	keystroke_Key.space	Key.space	n/a
26.5475	0.09	53095	keystroke_a	a	n/a
26.6075	0.09	53215	keystroke_Key.space	Key.space	n/a
26.7425	0.105	53485	keystroke_l	l	n/a
26.8025	0.12	53605	keystroke_a	a	n/a
27.0275	0.135	54055	keystroke_z	z	n/a
27.1325	0.09	54265	keystroke_y	y	n/a
27.2375	0.12	54475	keystroke_Key.space	Key.space	n/a
27.4025	0.105	54805	keystroke_d	d	n/a
27.4925	0.075	54985	keystroke_o	o	n/a
27.6275	0.06	55255	keystroke_g	g	n/a
27.7475	0.105	55495	keystroke_Key.enter	Key.enter	n/a
27.859	6.415	55718	prompt	n/a	harper loved indicator childrens\n
28.6775	0.075	57355	keystroke_h	h	n/a
28.7675	0.165	57535	keystroke_a	a	n/a
28.9175	0.09	57835	keystroke_r	r	n/a
29.0675	0.09	58135	keystroke_p	p	n/a
29.1725	0.09	58345	keystroke_e	e	n/a
29.2325	0.09	58465	keystroke_r	r	n/a
29.5625	0.09	59125	keystroke_Key.space	Key.space	n/a
29.6975	0.09	59395	keystroke_l	l	n/a
29.8925	0.075	59785	keystroke_o	o	n/a
29.9825	0.06	59965	keystroke_v	v	n/a
30.1775	0.06	60355	keystroke_e	e	n/a
30.3575	0.09	60715	keystroke_d	d	n/a
30.7025	0.09	61405	keystroke_Key.space	Key.space	n/a
30.9275	0.135	61855	keystroke_i	i	n/a
31.0475	0.12	62095	keystroke_n	n	n/a
31.2575	0.105	62515	keystroke_d	d	n/a
31.3325	0.075	62665	keystroke_i	i	n/a
31.5125	0.09	63025	keystroke_c	c	n/a
31.6325	0.09	63265	keystroke_a	a	n/a
31.8875	0.015	63775	keystroke_t	t	n/a
31.918	0.0895	63836	keystroke_o	o	n/a
32.0375	0.075	64075	keystroke_r	r	n/a
32.6375	0.0905	65275	keystroke_Key.space	Key.space	n/a
32.968	0.1045	65936	keystroke_c	c	n/a
33.043	0.105	66086	keystroke_h	h	n/a
33.1175	0.0905	66235	keystroke_i	i	n/a
33.343	0.075	66686	keystroke_l	l	n/a
33.463	0.09	66926	keystroke_d	d	n/a
33.703	0.135	67406	keystroke_r	r	n/a
33.778	0.075	67556	keystroke_e	e	n/a
33.958	0.105	67916	keystroke_n	n	n/a
34.078	0.09	68156	keystroke_s	s	n/a
34.213	0.06	68426	keystroke_Key.enter	Key.enter	n/a
34.2775	8.202	68555	prompt	n/a	employers expected vacations performs\n
35.0525	0.09	70105	keystroke_e	e	n/a
35.2325	0.105	70465	keystroke_m	m	n/a
35.4425	0.1055	70885	keystroke_p	p	n/a
35.758	0.09	71516	keystroke_l	l	n/a
36.103	0.09	72206	keystroke_o	o	n/a
36.613	0.015	73226	keystroke_y	y	n/a
36.688	0.12	73376	keystroke_e	e	n/a
36.763	0.104	73526	keystroke_r	r	n/a
37.033	0.105	74066	keystroke_s	s	n/a
37.333	0.09	74666	keystroke_Key.space	Key.space	n/a
37.513	0.06	75026	keystroke_e	e	n/a
37.678	0.135	75356	keystroke_x	x	n/a
37.843	0.09	75686	keystroke_p	p	n/a
38.083	0.014	76166	keystroke_e	e	n/a
38.188	0.105	76376	keystroke_c	c	n/a
38.413	0.075	76826	keystroke_t	t	n/a
38.503	0.09	77006	keystroke_e	e	n/a
38.6975	0.06	77395	keystroke_d	d	n/a
38.8025	0.0595	77605	keystroke_Key.space	Key.space	n/a
39.2675	0.075	78535	keystroke_v	v	n/a
39.4175	0.105	78835	keystroke_a	a	n/a
39.6575	0.12	79315	keystroke_c	c	n/a
39.7625	0.105	79525	keystroke_a	a	n/a
39.9875	0.0745	79975	keystroke_t	t	n/a
40.107	0.136	80214	keystroke_i	i	n/a
40.153	0.15	80306	keystroke_o	o	n/a
40.258	0.105	80516	keystroke_n	n	n/a
40.423	0.119	80846	keystroke_s	s	n/a
40.632	0.076	81264	keystroke_Key.space	Key.space	n/a
40.857	0.106	81714	keystroke_p	p	n/a
40.948	0.105	81896	keystroke_e	e	n/a
41.008	0.119	82016	keystroke_r	r	n/a
41.7125	0.06	83425	keystroke_f	f	n/a
41.7275	0.06	83455	keystroke_o	o	n/a
41.8475	0.105	83695	keystroke_r	r	n/a
41.9375	0.105	83875	keystroke_m	m	n/a
42.0875	0.09	84175	keystroke_s	s	n/a
42.3725	0.105	84745	keystroke_Key.enter	Key.enter	n/a
42.4835	5.7105	84967	prompt	n/a	recall keys submissions belief\n
43.302	0.1505	86604	keystroke_r	r	n/a
43.393	0.0895	86786	keystroke_e	e	n/a
43.6025	0.135	87205	keystroke_c	c	n/a
43.7975	0.09	87595	keystroke_a	a	n/a
43.9025	0.075	87805	keystroke_l	l	n/a
44.0525	0.12	88105	keystroke_l	l	n/a
44.2025	0.09	88405	keystroke_Key.space	Key.space	n/a
44.4275	0.09	88855	keystroke_k	k	n/a
44.5325	0.075	89065	keystroke_e	e	n/a
44.6825	0.075	89365	keystroke_y	y	n/a
44.8625	0.0745	89725	keystroke_s	s	n/a
45.072	0.09	90144	keystroke_Key.space	Key.space	n/a
45.297	0.075	90594	keystroke_s	s	n/a
45.402	0.0605	90804	keystroke_u	u	n/a
45.5825	0.075	91165	keystroke_b	b	n/a
45.7475	0.15	91495	keystroke_m	m	n/a
45.8825	0.075	91765	keystroke_i	i	n/a
45.9875	0.06	91975	keystroke_s	s	n/a
46.1375	0.06	92275	keystroke_s	s	n/a
46.2125	0.15	92425	keystroke_i	i	n/a
46.2575	0.135	92515	keystroke_o	o	n/a
46.3325	0.09	92665	keystroke_n	n	n/a
46.4675	0.06	92935	keystroke_s	s	n/a
46.9625	0.03	93925	keystroke_Key.space	Key.space	n/a
47.2475	0.075	94495	keystroke_b	b	n/a
47.4425	0.09	94885	keystroke_e	e	n/a
47.5175	0.12	95035	keystroke_l	l	n/a
47.5925	0.09	95185	keystroke_i	i	n/a
47.6675	0.06	95335	keystroke_e	e	n/a
47.8775	0.105	95755	keystroke_f	f	n/a
48.1025	0.0895	96205	keystroke_Key.enter	Key.enter	n/a
48.197	9.282	96394	prompt	n/a	potato prophet deemed gets\n
48.882	0.105	97764	keystroke_p	p	n/a
49.392	0.075	98784	keystroke_a	a	n/a
49.812	0.061	99624	keystroke_Key.backspace	Key.backspace	n/a
50.023	0.06	100046	keystroke_o	o	n/a
50.202	0.121	100404	keystroke_t	t	n/a
50.502	0.105	101004	keystroke_a	a	n/a
50.712	0.075	101424	keystroke_t	t	n/a
50.803	0.075	101606	keystroke_o	o	n/a
51.7025	0.075	103405	keystroke_Key.space	Key.space	n/a
51.8825	0.09	103765	keystroke_p	p	n/a
52.0175	0.09	104035	keystroke_r	r	n/a
52.1225	0.06	104245	keystroke_o	o	n/a
53.6675	0.09	107335	keystroke_p	p	n/a
53.8775	0.075	107755	keystroke_h	h	n/a
54.2675	0.075	108535	keystroke_e	e	n/a
54.4475	0.06	108895	keystroke_t	t	n/a
55.062	0.09	110124	keystroke_Key.space	Key.space	n/a
55.362	0.09	110724	keystroke_d	d	n/a
55.557	0.045	111114	keystroke_e	e	n/a
55.6775	0.075	111355	keystroke_e	e	n/a
55.8125	0.135	111625	keystroke_m	m	n/a
55.9325	0.06	111865	keystroke_e	e	n/a
56.0975	0.075	112195	keystroke_d	d	n/a
56.5325	0.045	113065	keystroke_Key.space	Key.space	n/a
56.7275	0.075	113455	keystroke_g	g	n/a
56.9075	0.09	113815	keystroke_e	e	n/a
56.9825	0.105	113965	keystroke_t	t	n/a
57.2075	0.075	114415	keystroke_s	s	n/a
57.4025	0.075	114805	keystroke_Key.enter	Key.enter	n/a
57.483	8.5165	114966	prompt	n/a	diana gold statistical hypothesis\n
58.1675	0.09	116335	keystroke_d	d	n/a
58.2875	0.075	116575	keystroke_i	i	n/a
58.3775	0.12	116755	keystroke_a	a	n/a
58.5725	0.105	117145	keystroke_n	n	n/a
58.6475	0.12	117295	keystroke_a	a	n/a
59.3225	0.075	118645	keystroke_Key.space	Key.space	n/a
59.503	0.075	119006	keystroke_g	g	n/a
59.593	0.06	119186	keystroke_o	o	n/a
59.728	0.105	119456	keystroke_l	l	n/a
59.818	0.045	119636	keystroke_d	d	n/a
60.388	0.0895	120776	keystroke_Key.space	Key.space	n/a
60.5675	0.09	121135	keystroke_s	s	n/a
60.7475	0.12	121495	keystroke_t	t	n/a
60.8975	0.12	121795	keystroke_a	a	n/a
61.2275	0.09	122455	keystroke_t	t	n/a
61.3475	0.075	122695	keystroke_i	i	n/a
61.4375	0.09	122875	keystroke_s	s	n/a
62.743	0.075	125486	keystroke_i	i	n/a
62.833	0.06	125666	keystroke_c	c	n/a
62.893	0.105	125786	keystroke_a	a	n/a
63.013	0.09	126026	keystroke_l	l	n/a
63.5975	0.045	127195	keystroke_Key.space	Key.space	n/a
63.793	0.06	127586	keystroke_h	h	n/a
64.018	0.075	128036	keystroke_y	y	n/a
64.258	0.12	128516	keystroke_p	p	n/a
64.722	0.136	129444	keystroke_o	o	n/a
65.038	0.0895	130076	keystroke_t	t	n/a
65.1575	0.075	130315	keystroke_h	h	n/a
65.2475	0.09	130495	keystroke_e	e	n/a
65.4725	0.0905	130945	keystroke_s	s	n/a
65.578	0.075	131156	keystroke_i	i	n/a
65.668	0.09	131336	keystroke_s	s	n/a
65.938	0.059	131876	keystroke_Key.enter	Key.enter	n/a
66.0025	7.3615	132005	prompt	n/a	adjustment belize drum coordinate\n
66.793	0.09	133586	keystroke_a	a	n/a
66.973	0.075	133946	keystroke_d	d	n/a
67.108	0.075	134216	keystroke_j	j	n/a
67.2725	0.075	134545	keystroke_u	u	n/a
67.3325	0.135	134665	keystroke_s	s	n/a
67.5275	0.105	135055	keystroke_t	t	n/a
67.678	0.135	135356	keystroke_m	m	n/a
67.828	0.0595	135656	keystroke_e	e	n/a
67.9025	0.09	135805	keystroke_n	n	n/a
68.0075	0.075	136015	keystroke_t	t	n/a
68.773	0.075	137546	keystroke_Key.space	Key.space	n/a
68.923	0.06	137846	keystroke_d	d	n/a
69.313	0.06	138626	keystroke_Key.backspace	Key.backspace	n/a
69.433	0.0745	138866	keystroke_b	b	n/a
69.6425	0.0755	139285	keystroke_e	e	n/a
69.778	0.12	139556	keystroke_l	l	n/a
69.838	0.105	139676	keystroke_i	i	n/a
69.988	0.105	139976	keystroke_z	z	n/a
70.228	0.075	140456	keystroke_e	e	n/a
70.813	0.09	141626	keystroke_Key.space	Key.space	n/a
70.948	0.06	141896	keystroke_d	d	n/a
71.113	0.075	142226	keystroke_r	r	n/a
71.218	0.06	142436	keystroke_u	u	n/a
71.398	0.12	142796	keystroke_m	m	n/a
71.697	0.09	143394	keystroke_Key.space	Key.space	n/a
72.102	0.045	144204	keystroke_c	c	n/a
72.148	0.014	144296	keystroke_o	o	n/a
72.237	0.075	144474	keystroke_o	o	n/a
72.357	0.075	144714	keystroke_r	r	n/a
72.567	0.105	145134	keystroke_d	d	n/a
72.717	0.075	145434	keystroke_i	i	n/a
72.867	0.09	145734	keystroke_n	n	n/a
72.942	0.105	145884	keystroke_a	a	n/a
73.017	0.09	146034	keystroke_t	t	n/a
73.108	0.119	146216	keystroke_e	e	n/a
73.272	0.09	146544	keystroke_Key.enter	Key.enter	n/a
73.376	7.023	146752	prompt	n/a	points remark corp immunology\n
73.9775	0.075	147955	keystroke_p	p	n/a
74.1575	0.135	148315	keystroke_o	o	n/a
74.2325	0.1655	148465	keystroke_i	i	n/a
74.3675	0.09	148735	keystroke_n	n	n/a
74.5325	0.09	149065	keystroke_t	t	n/a
74.7275	0.0905	149455	keystroke_s	s	n/a
75.298	0.075	150596	keystroke_Key.space	Key.space	n/a
75.5675	0.12	151135	keystroke_r	r	n/a
75.6275	0.09	151255	keystroke_e	e	n/a
75.7475	0.105	151495	keystroke_m	m	n/a
75.8825	0.105	151765	keystroke_a	a	n/a
75.9425	0.105	151885	keystroke_r	r	n/a
76.0625	0.06	152125	keystroke_k	k	n/a
76.708	0.075	153416	keystroke_Key.space	Key.space	n/a
76.963	0.105	153926	keystroke_c	c	n/a
77.097	0.106	154194	keystroke_o	o	n/a
77.368	0.045	154736	keystroke_r	r	n/a
77.473	0.105	154946	keystroke_p	p	n/a
77.908	0.075	155816	keystroke_Key.space	Key.space	n/a
78.163	0.105	156326	keystroke_i	i	n/a
78.448	0.12	156896	keystroke_m	m	n/a
78.643	0.075	157286	keystroke_m	m	n/a
78.898	0.075	157796	keystroke_u	u	n/a
79.243	0.105	158486	keystroke_n	n	n/a
79.393	0.09	158786	keystroke_o	o	n/a
79.663	0.0745	159326	keystroke_l	l	n/a
79.8275	0.075	159655	keystroke_o	o	n/a
79.9625	0.075	159925	keystroke_g	g	n/a
80.0675	0.06	160135	keystroke_y	y	n/a
80.3225	0.075	160645	keystroke_Key.enter	Key.enter	n/a
80.4025	8.3815	160805	prompt	n/a	secret babe asthma protection\n
81.028	0.075	162056	keystroke_s	s	n/a
81.193	0.074	162386	keystroke_e	e	n/a
81.388	0.06	162776	keystroke_c	c	n/a
81.598	0.1195	163196	keystroke_r	r	n/a
81.657	0.0755	163314	keystroke_e	e	n/a
81.8825	0.075	163765	keystroke_t	t	n/a
82.2575	0.045	164515	keystroke_Key.space	Key.space	n/a
82.4525	0.075	164905	keystroke_b	b	n/a
82.6175	0.105	165235	keystroke_a	a	n/a
82.948	0.06	165896	keystroke_Key.space	Key.space	n/a
83.608	0.0745	167216	keystroke_Key.backspace	Key.backspace	n/a
83.668	0.0745	167336	keystroke_b	b	n/a
83.8775	0.075	167755	keystroke_e	e	n/a
84.6875	0.075	169375	keystroke_Key.space	Key.space	n/a
84.9425	0.15	169885	keystroke_a	a	n/a
85.0625	0.105	170125	keystroke_s	s	n/a
85.3175	0.105	170635	keystroke_t	t	n/a
85.4375	0.09	170875	keystroke_h	h	n/a
85.9775	0.1645	171955	keystroke_m	m	n/a
86.0975	0.1195	172195	keystroke_a	a	n/a
86.743	0.045	173486	keystroke_Key.space	Key.space	n/a
86.938	0.09	173876	keystroke_p	p	n/a
87.058	0.09	174116	keystroke_r	r	n/a
87.163	0.09	174326	keystroke_o	o	n/a
87.6275	0.0895	175255	keystroke_t	t	n/a
87.777	0.06	175554	keystroke_e	e	n/a
87.973	0.089	175946	keystroke_c	c	n/a
88.182	0.06	176364	keystroke_t	t	n/a
88.273	0.149	176546	keystroke_i	i	n/a
88.303	0.15	176606	keystroke_o	o	n/a
88.363	0.134	176726	keystroke_n	n	n/a
88.707	0.075	177414	keystroke_Key.enter	Key.enter	n/a
88.787	11.952	177574	prompt	n/a	substances assessing practitioners distributor\n
89.412	0.106	178824	keystroke_a	a	n/a
89.713	0.105	179426	keystroke_u	u	n/a
90.043	0.059	180086	keystroke_b	b	n/a
90.5825	0.06	181165	keystroke_Key.backspace	Key.backspace	n/a
90.7325	0.075	181465	keystroke_Key.backspace	Key.backspace	n/a
90.8825	0.075	181765	keystroke_Key.backspace	Key.backspace	n/a
91.0335	0.089	182067	keystroke_s	s	n/a
91.1375	0.075	182275	keystroke_u	u	n/a
91.2875	0.09	182575	keystroke_b	b	n/a
91.5725	0.075	183145	keystroke_s	s	n/a
91.6925	0.105	183385	keystroke_t	t	n/a
91.7985	0.134	183597	keystroke_a	a	n/a
91.9775	0.12	183955	keystroke_n	n	n/a
92.1125	0.105	184225	keystroke_c	c	n/a
92.3675	0.075	184735	keystroke_e	e	n/a
92.6225	0.075	185245	keystroke_s	s	n/a
92.8775	0.075	185755	keystroke_Key.space	Key.space	n/a
93.088	0.0895	186176	keystroke_a	a	n/a
93.268	0.0595	186536	keystroke_s	s	n/a
93.418	0.045	186836	keystroke_s	s	n/a
93.553	0.105	187106	keystroke_e	e	n/a
93.643	0.1045	187286	keystroke_s	s	n/a
93.8225	0.09	187645	keystroke_s	s	n/a
93.9725	0.135	187945	keystroke_i	i	n/a
94.0325	0.12	188065	keystroke_n	n	n/a
94.1085	0.074	188217	keystroke_g	g	n/a
94.6175	0.09	189235	keystroke_Key.space	Key.space	n/a
94.7975	0.12	189595	keystroke_p	p	n/a
94.9325	0.0895	189865	keystroke_r	r	n/a
95.157	0.091	190314	keystroke_a	a	n/a
95.352	0.075	190704	keystroke_c	c	n/a
95.592	0.075	191184	keystroke_t	t	n/a
95.682	0.06	191364	keystroke_i	i	n/a
96.013	0.09	192026	keystroke_t	t	n/a
96.088	0.15	192176	keystroke_i	i	n/a
96.148	0.12	192296	keystroke_o	o	n/a
96.223	0.105	192446	keystroke_n	n	n/a
96.358	0.105	192716	keystroke_a	a	n/a
96.553	0.0445	193106	keystroke_r	r	n/a
96.9725	0.045	193945	keystroke_Key.backspace	Key.backspace	n/a
97.1225	0.06	194245	keystroke_Key.backspace	Key.backspace	n/a
97.2275	0.105	194455	keystroke_e	e	n/a
97.3025	0.09	194605	keystroke_r	r	n/a
97.4525	0.12	194905	keystroke_s	s	n/a
98.1275	0.075	196255	keystroke_Key.space	Key.space	n/a
98.3375	0.09	196675	keystroke_d	d	n/a
98.4425	0.09	196885	keystroke_i	i	n/a
98.5335	0.074	197067	keystroke_s	s	n/a
98.6975	0.09	197395	keystroke_t	t	n/a
98.8775	0.06	197755	keystroke_r	r	n/a
98.9375	0.09	197875	keystroke_i	i	n/a
99.4475	0.09	198895	keystroke_b	b	n/a
99.6125	0.09	199225	keystroke_u	u	n/a
100.212	0.105	200424	keystroke_t	t	n/a
100.332	0.076	200664	keystroke_o	o	n/a
100.437	0.105	200874	keystroke_r	r	n/a
100.662	0.075	201324	keystroke_Key.enter	Key.enter	n/a
100.742	7.992	201484	prompt	n/a	architect forty bond deposits\n
102.4325	0.105	204865	keystroke_a	a	n/a
102.6575	0.0755	205315	keystroke_r	r	n/a
102.988	0.1195	205976	keystroke_c	c	n/a
103.1225	0.09	206245	keystroke_h	h	n/a
103.4675	0.075	206935	keystroke_i	i	n/a
103.707	0.091	207414	keystroke_t	t	n/a
103.828	0.075	207656	keystroke_e	e	n/a
104.023	0.105	208046	keystroke_c	c	n/a
104.263	0.075	208526	keystroke_t	t	n/a
104.562	0.075	209124	keystroke_Key.space	Key.space	n/a
104.758	0.09	209516	keystroke_f	f	n/a
104.878	0.09	209756	keystroke_o	o	n/a
105.013	0.045	210026	keystroke_r	r	n/a
105.133	0.075	210266	keystroke_t	t	n/a
105.238	0.075	210476	keystroke_y	y	n/a
105.837	0.075	211674	keystroke_Key.space	Key.space	n/a
106.1525	0.0755	212305	keystroke_b	b	n/a
106.2425	0.12	212485	keystroke_o	o	n/a
106.3175	0.1205	212635	keystroke_n	n	n/a
106.453	0.06	212906	keystroke_d	d	n/a
106.9925	0.06	213985	keystroke_Key.space	Key.space	n/a
107.2175	0.06	214435	keystroke_d	d	n/a
107.3675	0.075	214735	keystroke_e	e	n/a
107.5625	0.09	215125	keystroke_p	p	n/a
107.7425	0.12	215485	keystroke_o	o	n/a
107.9675	0.105	215935	keystroke_s	s	n/a
108.0875	0.09	216175	keystroke_i	i	n/a
108.2525	0.105	216505	keystroke_t	t	n/a
108.4625	0.09	216925	keystroke_s	s	n/a
108.6575	0.075	217315	keystroke_Key.enter	Key.enter	n/a
108.737	10.992	217474	prompt	n/a	halloween recording floppy travelers\n
109.5575	0.075	219115	keystroke_h	h	n/a
109.6475	0.105	219295	keystroke_a	a	n/a
109.8275	0.075	219655	keystroke_l	l	n/a
109.9325	0.09	219865	keystroke_l	l	n/a
110.3375	0.075	220675	keystroke_o	o	n/a
110.502	0.09	221004	keystroke_w	w	n/a
110.862	0.06	221724	keystroke_e	e	n/a
110.997	0.075	221994	keystroke_e	e	n/a
111.147	0.12	222294	keystroke_n	n	n/a
112.183	0.059	224366	keystroke_Key.space	Key.space	n/a
114.5695	0.088	229139	keystroke_r	r	n/a
114.5975	0.075	229195	keystroke_e	e	n/a
114.8975	0.105	229795	keystroke_c	c	n/a
114.9725	0.105	229945	keystroke_o	o	n/a
115.1375	0.06	230275	keystroke_r	r	n/a
115.2875	0.075	230575	keystroke_d	d	n/a
115.3475	0.135	230695	keystroke_i	i	n/a
115.4075	0.12	230815	keystroke_n	n	n/a
115.4975	0.075	230995	keystroke_g	g	n/a
116.0525	0.03	232105	keystroke_Key.space	Key.space	n/a
116.3075	0.1055	232615	keystroke_f	f	n/a
116.428	0.06	232856	keystroke_l	l	n/a
116.608	0.075	233216	keystroke_o	o	n/a
116.848	0.075	233696	keystroke_p	p	n/a
116.983	0.12	233966	keystroke_p	p	n/a
117.1775	0.075	234355	keystroke_y	y	n/a
117.8225	0.06	235645	keystroke_Key.space	Key.space	n/a
118.1225	0.075	236245	keystroke_t	t	n/a
118.3325	0.165	236665	keystroke_r	r	n/a
118.4375	0.135	236875	keystroke_a	a	n/a
118.7075	0.09	237415	keystroke_v	v	n/a
118.9175	0.09	237835	keystroke_e	e	n/a
119.083	0.12	238166	keystroke_l	l	n/a
119.188	0.105	238376	keystroke_e	e	n/a
119.263	0.105	238526	keystroke_r	r	n/a
119.473	0.105	238946	keystroke_s	s	n/a
119.653	0.075	239306	keystroke_Key.enter	Key.enter	n/a
119.7325	6.2665	239465	prompt	n/a	errors voted guess baking\n
120.3875	0.075	240775	keystroke_e	e	n/a
120.5825	0.06	241165	keystroke_r	r	n/a
120.7175	0.06	241435	keystroke_r	r	n/a
120.7925	0.075	241585	keystroke_o	o	n/a
120.8825	0.06	241765	keystroke_r	r	n/a
121.1675	0.09	242335	keystroke_s	s	n/a
121.857	0.076	243714	keystroke_Key.space	Key.space	n/a
121.978	0.105	243956	keystroke_v	v	n/a
122.098	0.074	244196	keystroke_o	o	n/a
122.277	0.075	244554	keystroke_t	t	n/a
122.412	0.076	244824	keystroke_e	e	n/a
122.608	0.059	245216	keystroke_d	d	n/a
122.892	0.045	245784	keystroke_Key.space	Key.space	n/a
123.118	0.1045	246236	keystroke_g	g	n/a
123.2975	0.105	246595	keystroke_u	u	n/a
123.4175	0.09	246835	keystroke_e	e	n/a
123.6875	0.0895	247375	keystroke_s	s	n/a
123.852	0.075	247704	keystroke_s	s	n/a
124.347	0.0755	248694	keystroke_Key.space	Key.space	n/a
124.542	0.06	249084	keystroke_b	b	n/a
124.677	0.12	249354	keystroke_a	a	n/a
124.872	0.075	249744	keystroke_k	k	n/a
125.052	0.12	250104	keystroke_i	i	n/a
125.127	0.105	250254	keystroke_n	n	n/a
125.187	0.09	250374	keystroke_g	g	n/a
125.8925	0.105	251785	keystroke_Key.enter	Key.enter	n/a
126.0025	9.4465	252005	prompt	n/a	internal gays trip qualify\n
127.363	0.09	254726	keystroke_i	i	n/a
127.558	0.105	255116	keystroke_n	n	n/a
127.678	0.075	255356	keystroke_t	t	n/a
127.783	0.12	255566	keystroke_e	e	n/a
127.858	0.135	255716	keystroke_r	r	n/a
127.948	0.09	255896	keystroke_n	n	n/a
128.053	0.12	256106	keystroke_a	a	n/a
128.158	0.075	256316	keystroke_l	l	n/a
128.608	0.075	257216	keystroke_Key.space	Key.space	n/a
128.878	0.105	257756	keystroke_g	g	n/a
128.967	0.121	257934	keystroke_a	a	n/a
129.103	0.105	258206	keystroke_y	y	n/a
129.223	0.105	258446	keystroke_s	s	n/a
129.553	0.075	259106	keystroke_Key.space	Key.space	n/a
129.6725	0.0745	259345	keystroke_t	t	n/a
129.853	0.09	259706	keystroke_r	r	n/a
130.138	0.0895	260276	keystroke_i	i	n/a
130.363	0.089	260726	keystroke_p	p	n/a
131.1875	0.075	262375	keystroke_Key.space	Key.space	n/a
131.3525	0.09	262705	keystroke_g	g	n/a
131.6675	0.0895	263335	keystroke_u	u	n/a
131.802	0.121	263604	keystroke_a	a	n/a
132.702	0.075	265404	keystroke_Key.backspace	Key.backspace	n/a
132.852	0.075	265704	keystroke_Key.backspace	Key.backspace	n/a
133.002	0.09	266004	keystroke_Key.backspace	Key.backspace	n/a
133.122	0.091	266244	keystroke_q	q	n/a
133.272	0.09	266544	keystroke_u	u	n/a
133.468	0.12	266936	keystroke_a	a	n/a
133.633	0.12	267266	keystroke_l	l	n/a
133.723	0.09	267446	keystroke_i	i	n/a
134.157	0.075	268314	keystroke_t	t	n/a
134.457	0.06	268914	keystroke_Key.backspace	Key.backspace	n/a
134.532	0.105	269064	keystroke_f	f	n/a
134.652	0.075	269304	keystroke_y	y	n/a
135.3275	0.12	270655	keystroke_Key.enter	Key.enter	n/a
135.452	11.832	270904	prompt	n/a	alpine infected surveillance mounting\n
136.8425	0.12	273685	keystroke_a	a	n/a
137.1575	0.075	274315	keystroke_l	l	n/a
137.413	0.075	274826	keystroke_p	p	n/a
137.7725	0.075	275545	keystroke_i	i	n/a
137.9675	0.09	275935	keystroke_n	n	n/a
138.1625	0.09	276325	keystroke_e	e	n/a
138.6425	0.06	277285	keystroke_Key.space	Key.space	n/a
138.8525	0.12	277705	keystroke_i	i	n/a
138.9875	0.12	277975	keystroke_n	n	n/a
139.3625	0.09	278725	keystroke_f	f	n/a
139.573	0.075	279146	keystroke_e	e	n/a
139.767	0.106	279534	keystroke_c	c	n/a
140.008	0.075	280016	keystroke_t	t	n/a
140.188	0.06	280376	keystroke_e	e	n/a
140.3675	0.075	280735	keystroke_d	d	n/a
140.5475	0.06	281095	keystroke_Key.space	Key.space	n/a
140.7125	0.105	281425	keystroke_s	s	n/a
140.8325	0.0745	281665	keystroke_u	u	n/a
140.967	0.075	281934	keystroke_r	r	n/a
141.177	0.09	282354	keystroke_v	v	n/a
141.417	0.061	282834	keystroke_e	e	n/a
141.568	0.075	283136	keystroke_l	l	n/a
141.8225	0.105	283645	keystroke_i	i	n/a
142.7675	0.045	285535	keystroke_Key.backspace	Key.backspace	n/a
142.8275	0.06	285655	keystroke_Key.backspace	Key.backspace	n/a
143.4575	0.09	286915	keystroke_l	l	n/a
143.6225	0.0745	287245	keystroke_l	l	n/a
143.893	0.104	287786	keystroke_i	i	n/a
144.178	0.104	288356	keystroke_a	a	n/a
144.268	0.089	288536	keystroke_n	n	n/a
144.507	0.09	289014	keystroke_c	c	n/a
144.7175	0.06	289435	keystroke_e	e	n/a
145.8125	0.075	291625	keystroke_Key.space	Key.space	n/a
146.1575	0.105	292315	keystroke_m	m	n/a
146.3375	0.12	292675	keystroke_o	o	n/a
146.4275	0.075	292855	keystroke_u	u	n/a
146.6225	0.075	293245	keystroke_n	n	n/a
146.8025	0.091	293605	keystroke_t	t	n/a
146.8775	0.12	293755	keystroke_i	i	n/a
146.9375	0.105	293875	keystroke_n	n	n/a
147.0275	0.06	294055	keystroke_g	g	n/a
147.1475	0.135	294295	keystroke_Key.enter	Key.enter	n/a
147.287	5.9975	294574	prompt	n/a	polymer debug heroes alot\n
147.8825	0.105	295765	keystroke_p	p	n/a
148.0925	0.075	296185	keystroke_o	o	n/a
148.2875	0.075	296575	keystroke_l	l	n/a
148.4975	0.075	296995	keystroke_y	y	n/a
148.782	0.105	297564	keystroke_m	m	n/a
148.9325	0.1655	297865	keystroke_e	e	n/a
149.038	0.12	298076	keystroke_r	r	n/a
149.248	0.075	298496	keystroke_Key.space	Key.space	n/a
149.368	0.09	298736	keystroke_d	d	n/a
149.563	0.075	299126	keystroke_e	e	n/a
149.833	0.089	299666	keystroke_b	b	n/a
149.892	0.076	299784	keystroke_u	u	n/a
150.057	0.06	300114	keystroke_g	g	n/a
150.6725	0.075	301345	keystroke_Key.space	Key.space	n/a
150.9425	0.06	301885	keystroke_h	h	n/a
151.1375	0.06	302275	keystroke_e	e	n/a
151.3775	0.09	302755	keystroke_r	r	n/a
151.4825	0.075	302965	keystroke_o	o	n/a
151.6175	0.12	303235	keystroke_e	e	n/a
151.873	0.105	303746	keystroke_s	s	n/a
152.488	0.075	304976	keystroke_Key.space	Key.space	n/a
152.683	0.09	305366	keystroke_a	a	n/a
152.788	0.045	305576	keystroke_l	l	n/a
152.938	0.075	305876	keystroke_o	o	n/a
153.043	0.06	306086	keystroke_t	t	n/a
153.163	0.12	306326	keystroke_Key.enter	Key.enter	n/a
153.287	9.9125	306574	prompt	n/a	excluding nicaragua chronicle letter\n
154.0625	0.06	308125	keystroke_e	e	n/a
154.2575	0.075	308515	keystroke_x	x	n/a
154.4525	0.105	308905	keystroke_c	c	n/a
154.6025	0.105	309205	keystroke_l	l	n/a
154.6625	0.105	309325	keystroke_u	u	n/a
154.7825	0.105	309565	keystroke_d	d	n/a
154.9175	0.15	309835	keystroke_i	i	n/a
154.9775	0.12	309955	keystroke_n	n	n/a
155.0825	0.075	310165	keystroke_g	g	n/a
156.0125	0.075	312025	keystroke_Key.space	Key.space	n/a
156.3125	0.075	312625	keystroke_n	n	n/a
156.462	0.076	312924	keystroke_i	i	n/a
156.9725	0.105	313945	keystroke_c	c	n/a
157.3625	0.12	314725	keystroke_a	a	n/a
157.678	0.134	315356	keystroke_r	r	n/a
157.872	0.106	315744	keystroke_a	a	n/a
158.172	0.075	316344	keystroke_g	g	n/a
158.262	0.09	316524	keystroke_u	u	n/a
158.367	0.121	316734	keystroke_a	a	n/a
158.8625	0.075	317725	keystroke_Key.space	Key.space	n/a
159.0575	0.105	318115	keystroke_c	c	n/a
159.2375	0.06	318475	keystroke_h	h	n/a
160.0325	0.105	320065	keystroke_r	r	n/a
160.1225	0.075	320245	keystroke_o	o	n/a
160.4975	0.075	320995	keystroke_n	n	n/a
160.6475	0.075	321295	keystroke_i	i	n/a
160.7525	0.12	321505	keystroke_c	c	n/a
161.0825	0.105	322165	keystroke_l	l	n/a
161.2325	0.075	322465	keystroke_e	e	n/a
161.653	0.0595	323306	keystroke_Key.space	Key.space	n/a
161.7575	0.09	323515	keystroke_l	l	n/a
161.8925	0.03	323785	keystroke_a	a	n/a
162.268	0.075	324536	keystroke_Key.backspace	Key.backspace	n/a
162.358	0.075	324716	keystroke_e	e	n/a
162.538	0.09	325076	keystroke_t	t	n/a
162.688	0.06	325376	keystroke_t	t	n/a
162.838	0.09	325676	keystroke_e	e	n/a
162.868	0.104	325736	keystroke_r	r	n/a
163.108	0.089	326216	keystroke_Key.enter	Key.enter	n/a
163.202	7.122	326404	prompt	n/a	intensity suppose disaster concepts\n
163.8425	0.12	327685	keystroke_i	i	n/a
164.0075	0.1045	328015	keystroke_n	n	n/a
164.277	0.075	328554	keystroke_t	t	n/a
164.397	0.091	328794	keystroke_e	e	n/a
164.472	0.09	328944	keystroke_n	n	n/a
164.712	0.105	329424	keystroke_s	s	n/a
164.787	0.075	329574	keystroke_i	i	n/a
164.922	0.09	329844	keystroke_t	t	n/a
164.997	0.045	329994	keystroke_y	y	n/a
165.612	0.075	331224	keystroke_Key.space	Key.space	n/a
165.763	0.074	331526	keystroke_s	s	n/a
165.852	0.075	331704	keystroke_u	u	n/a
166.003	0.089	332006	keystroke_p	p	n/a
166.137	0.075	332274	keystroke_p	p	n/a
166.572	0.091	333144	keystroke_o	o	n/a
166.692	0.1505	333384	keystroke_s	s	n/a
166.8125	0.09	333625	keystroke_e	e	n/a
167.4275	0.0755	334855	keystroke_Key.space	Key.space	n/a
167.578	0.1195	335156	keystroke_d	d	n/a
167.6825	0.06	335365	keystroke_i	i	n/a
167.9825	0.165	335965	keystroke_a	a	n/a
168.0875	0.12	336175	keystroke_s	s	n/a
168.373	0.075	336746	keystroke_t	t	n/a
168.493	0.105	336986	keystroke_e	e	n/a
168.553	0.09	337106	keystroke_r	r	n/a
168.838	0.075	337676	keystroke_Key.space	Key.space	n/a
169.033	0.135	338066	keystroke_c	c	n/a
169.153	0.12	338306	keystroke_o	o	n/a
169.258	0.06	338516	keystroke_n	n	n/a
169.348	0.1645	338696	keystroke_c	c	n/a
169.6925	0.075	339385	keystroke_e	e	n/a
169.8125	0.075	339625	keystroke_p	p	n/a
169.9175	0.075	339835	keystroke_t	t	n/a
170.0975	0.105	340195	keystroke_s	s	n/a
170.2325	0.09	340465	keystroke_Key.enter	Key.enter	n/a
170.3285	6.7455	340657	prompt	n/a	copied export engine radius\n
170.9675	0.105	341935	keystroke_c	c	n/a
171.0575	0.075	342115	keystroke_o	o	n/a
171.2525	0.09	342505	keystroke_p	p	n/a
171.4175	0.06	342835	keystroke_i	i	n/a
171.5525	0.075	343105	keystroke_e	e	n/a
171.7175	0.075	343435	keystroke_d	d	n/a
172.1675	0.045	344335	keystroke_Key.space	Key.space	n/a
172.2275	0.06	344455	keystroke_e	e	n/a
172.4225	0.105	344845	keystroke_x	x	n/a
172.5575	0.09	345115	keystroke_p	p	n/a
172.7375	0.075	345475	keystroke_o	o	n/a
172.7975	0.075	345595	keystroke_r	r	n/a
172.9775	0.075	345955	keystroke_t	t	n/a
173.4725	0.06	346945	keystroke_Key.space	Key.space	n/a
173.727	0.075	347454	keystroke_e	e	n/a
173.803	0.089	347606	keystroke_n	n	n/a
173.937	0.09	347874	keystroke_g	g	n/a
174.042	0.075	348084	keystroke_i	i	n/a
174.147	0.075	348294	keystroke_n	n	n/a
174.252	0.075	348504	keystroke_e	e	n/a
175.0475	0.075	350095	keystroke_r	r	n/a
175.1075	0.075	350215	keystroke_Key.space	Key.space	n/a
175.543	0.09	351086	keystroke_Key.backspace	Key.backspace	n/a
175.7075	0.06	351415	keystroke_Key.backspace	Key.backspace	n/a
175.8575	0.075	351715	keystroke_Key.space	Key.space	n/a
175.9625	0.135	351925	keystroke_r	r	n/a
176.0525	0.135	352105	keystroke_a	a	n/a
176.4425	0.1045	352885	keystroke_d	d	n/a
176.533	0.089	353066	keystroke_i	i	n/a
176.713	0.074	353426	keystroke_u	u	n/a
176.788	0.105	353576	keystroke_s	s	n/a
176.997	0.075	353994	keystroke_Key.enter	Key.enter	n/a
177.078	11.096	354156	prompt	n/a	latvia practices diseases gasoline\n
177.852	0.09	355704	keystroke_l	l	n/a
177.957	0.1055	355914	keystroke_a	a	n/a
178.827	0.075	357654	keystroke_t	t	n/a
179.262	0.105	358524	keystroke_v	v	n/a
179.353	0.089	358706	keystroke_i	i	n/a
179.457	0.105	358914	keystroke_a	a	n/a
179.9675	0.075	359935	keystroke_Key.space	Key.space	n/a
180.1925	0.09	360385	keystroke_p	p	n/a
180.3275	0.165	360655	keystroke_r	r	n/a
180.4775	0.09	360955	keystroke_a	a	n/a
180.6725	0.12	361345	keystroke_c	c	n/a
180.8675	0.075	361735	keystroke_t	t	n/a
180.9575	0.075	361915	keystroke_i	i	n/a
181.0625	0.075	362125	keystroke_c	c	n/a
181.2725	0.105	362545	keystroke_e	e	n/a
181.4825	0.075	362965	keystroke_s	s	n/a
181.7975	0.075	363595	keystroke_Key.space	Key.space	n/a
181.9925	0.075	363985	keystroke_d	d	n/a
182.1125	0.075	364225	keystroke_i	i	n/a
182.3525	0.1055	364705	keystroke_s	s	n/a
182.5775	0.135	365155	keystroke_e	e	n/a
183.027	0.12	366054	keystroke_a	a	n/a
185.5495	0.001	371099	keystroke_s	s	n/a
185.727	0.105	371454	keystroke_e	e	n/a
185.9075	0.09	371815	keystroke_s	s	n/a
186.1325	0.075	372265	keystroke_Key.space	Key.space	n/a
186.2975	0.105	372595	keystroke_g	g	n/a
186.4175	0.0905	372835	keystroke_a	a	n/a
186.628	0.105	373256	keystroke_s	s	n/a
186.718	0.075	373436	keystroke_o	o	n/a
186.883	0.06	373766	keystroke_l	l	n/a
186.973	0.18	373946	keystroke_i	i	n/a
187.138	0.105	374276	keystroke_n	n	n/a
187.333	0.075	374666	keystroke_e	e	n/a
188.0525	0.12	376105	keystroke_Key.enter	Key.enter	n/a
188.1785	7.0755	376357	prompt	n/a	cafe terrorists seas assumption\n
188.818	0.105	377636	keystroke_c	c	n/a
188.938	0.09	377876	keystroke_a	a	n/a
189.148	0.075	378296	keystroke_f	f	n/a
189.313	0.075	378626	keystroke_e	e	n/a
189.538	0.075	379076	keystroke_Key.space	Key.space	n/a
189.7775	0.06	379555	keystroke_t	t	n/a
189.9275	0.075	379855	keystroke_e	e	n/a
190.1375	0.06	380275	keystroke_r	r	n/a
190.6325	0.075	381265	keystroke_r	r	n/a
190.9025	0.09	381805	keystroke_o	o	n/a
191.0975	0.09	382195	keystroke_r	r	n/a
191.1725	0.075	382345	keystroke_i	i	n/a
191.5925	0.1205	383185	keystroke_s	s	n/a
191.863	0.075	383726	keystroke_t	t	n/a
192.073	0.105	384146	keystroke_s	s	n/a
192.298	0.09	384596	keystroke_Key.space	Key.space	n/a
192.433	0.105	384866	keystroke_s	s	n/a
192.613	0.105	385226	keystroke_e	e	n/a
192.688	0.12	385376	keystroke_a	a	n/a
192.928	0.12	385856	keystroke_s	s	n/a
193.258	0.075	386516	keystroke_Key.space	Key.space	n/a
193.543	0.075	387086	keystroke_a	a	n/a
193.693	0.075	387386	keystroke_s	s	n/a
193.843	0.06	387686	keystroke_s	s	n/a
193.948	0.06	387896	keystroke_u	u	n/a
194.128	0.06	388256	keystroke_m	m	n/a
194.413	0.105	388826	keystroke_p	p	n/a
194.608	0.075	389216	keystroke_t	t	n/a
194.713	0.165	389426	keystroke_i	i	n/a
194.773	0.15	389546	keystroke_o	o	n/a
194.848	0.105	389696	keystroke_n	n	n/a
194.938	0.09	389876	keystroke_s	s	n/a
195.193	0.06	390386	keystroke_Key.enter	Key.enter	n/a
195.257	4.707	390514	prompt	n/a	paste graphic held fatal\n
195.823	0.09	391646	keystroke_p	p	n/a
195.898	0.15	391796	keystroke_a	a	n/a
195.988	0.135	391976	keystroke_s	s	n/a
196.168	0.105	392336	keystroke_t	t	n/a
196.408	0.075	392816	keystroke_e	e	n/a
196.782	0.075	393564	keystroke_Key.space	Key.space	n/a
196.977	0.076	393954	keystroke_g	g	n/a
197.127	0.136	394254	keystroke_r	r	n/a
197.218	0.134	394436	keystroke_a	a	n/a
197.323	0.089	394646	keystroke_p	p	n/a
197.457	0.076	394914	keystroke_h	h	n/a
197.547	0.106	395094	keystroke_i	i	n/a
197.592	0.106	395184	keystroke_c	c	n/a
198.253	0.06	396506	keystroke_Key.space	Key.space	n/a
198.433	0.075	396866	keystroke_h	h	n/a
198.523	0.06	397046	keystroke_e	e	n/a
198.613	0.075	397226	keystroke_l	l	n/a
198.733	0.09	397466	keystroke_d	d	n/a
198.853	0.075	397706	keystroke_Key.space	Key.space	n/a
198.988	0.1345	397976	keystroke_f	f	n/a
199.1375	0.09	398275	keystroke_a	a	n/a
199.3625	0.09	398725	keystroke_t	t	n/a
199.4675	0.105	398935	keystroke_a	a	n/a
199.5875	0.09	399175	keystroke_l	l	n/a
199.8725	0.09	399745	keystroke_Key.enter	Key.enter	n/a
199.967	10.018	399934	prompt	n/a	speaker accomplished arbitrary cloudy\n
202.425	0.028	404850	keystroke_s	s	n/a
202.603	0.104	405206	keystroke_p	p	n/a
202.737	0.105	405474	keystroke_e	e	n/a
202.812	0.09	405624	keystroke_a	a	n/a
202.903	0.119	405806	keystroke_k	k	n/a
203.052	0.121	406104	keystroke_e	e	n/a
203.142	0.09	406284	keystroke_r	r	n/a
203.6825	0.09	407365	keystroke_Key.space	Key.space	n/a
203.8625	0.09	407725	keystroke_a	a	n/a
204.1025	0.075	408205	keystroke_c	c	n/a
204.2825	0.06	408565	keystroke_c	c	n/a
204.4775	0.15	408955	keystroke_o	o	n/a
204.5675	0.075	409135	keystroke_m	m	n/a
204.8225	0.09	409645	keystroke_p	p	n/a
205.048	0.119	410096	keystroke_l	l	n/a
205.138	0.074	410276	keystroke_i	i	n/a
205.257	0.075	410514	keystroke_s	s	n/a
205.437	0.076	410874	keystroke_h	h	n/a
205.542	0.09	411084	keystroke_e	e	n/a
205.707	0.09	411414	keystroke_d	d	n/a
206.187	0.09	412374	keystroke_Key.space	Key.space	n/a
206.3525	0.105	412705	keystroke_a	a	n/a
206.5625	0.09	413125	keystroke_r	r	n/a
207.0125	0.09	414025	keystroke_b	b	n/a
207.1475	0.045	414295	keystroke_i	i	n/a
207.3125	0.105	414625	keystroke_t	t	n/a
207.5225	0.135	415045	keystroke_r	r	n/a
207.6275	0.1205	415255	keystroke_a	a	n/a
207.763	0.0895	415526	keystroke_r	r	n/a
207.8825	0.075	415765	keystroke_y	y	n/a
208.258	0.1045	416516	keystroke_Key.space	Key.space	n/a
208.8125	0.12	417625	keystroke_c	c	n/a
208.9175	0.1505	417835	keystroke_l	l	n/a
209.203	0.165	418406	keystroke_o	o	n/a
209.323	0.09	418646	keystroke_u	u	n/a
209.443	0.06	418886	keystroke_d	d	n/a
209.563	0.075	419126	keystroke_y	y	n/a
209.8775	0.105	419755	keystroke_Key.enter	Key.enter	n/a
209.9875	8.0965	419975	prompt	n/a	refresh dairy pipes momentum\n
210.8225	0.09	421645	keystroke_r	r	n/a
210.8675	0.075	421735	keystroke_e	e	n/a
211.0625	0.075	422125	keystroke_f	f	n/a
211.2275	0.12	422455	keystroke_r	r	n/a
211.2725	0.105	422545	keystroke_e	e	n/a
211.4675	0.105	422935	keystroke_s	s	n/a
211.5575	0.075	423115	keystroke_h	h	n/a
211.9775	0.075	423955	keystroke_Key.space	Key.space	n/a
212.1275	0.075	424255	keystroke_d	d	n/a
212.4875	0.09	424975	keystroke_i	i	n/a
212.6075	0.12	425215	keystroke_a	a	n/a
212.9375	0.06	425875	keystroke_Key.backspace	Key.backspace	n/a
213.0725	0.075	426145	keystroke_Key.backspace	Key.backspace	n/a
213.2375	0.09	426475	keystroke_a	a	n/a
213.3425	0.105	426685	keystroke_i	i	n/a
213.5675	0.09	427135	keystroke_r	r	n/a
213.688	0.09	427376	keystroke_y	y	n/a
214.5125	0.09	429025	keystroke_Key.space	Key.space	n/a
214.6775	0.105	429355	keystroke_p	p	n/a
214.8275	0.075	429655	keystroke_i	i	n/a
215.0375	0.09	430075	keystroke_p	p	n/a
215.2325	0.09	430465	keystroke_e	e	n/a
215.4575	0.09	430915	keystroke_s	s	n/a
216.118	0.074	432236	keystroke_Key.space	Key.space	n/a
216.343	0.15	432686	keystroke_m	m	n/a
216.538	0.0745	433076	keystroke_o	o	n/a
216.7175	0.105	433435	keystroke_m	m	n/a
216.8675	0.075	433735	keystroke_e	e	n/a
216.9575	0.075	433915	keystroke_n	n	n/a
217.3325	0.075	434665	keystroke_t	t	n/a
217.4525	0.045	434905	keystroke_u	u	n/a
217.692	0.135	435384	keystroke_m	m	n/a
217.992	0.09	435984	keystroke_Key.enter	Key.enter	n/a
218.087	8.6975	436174	prompt	n/a	fixtures danny varies czech\n
218.802	0.076	437604	keystroke_f	f	n/a
218.892	0.0905	437784	keystroke_i	i	n/a
219.1325	0.06	438265	keystroke_x	x	n/a
219.3575	0.075	438715	keystroke_t	t	n/a
219.4475	0.075	438895	keystroke_u	u	n/a
219.5525	0.105	439105	keystroke_r	r	n/a
219.7775	0.09	439555	keystroke_e	e	n/a
220.0025	0.105	440005	keystroke_s	s	n/a
220.5875	0.09	441175	keystroke_Key.space	Key.space	n/a
220.9025	0.1495	441805	keystroke_d	d	n/a
220.992	0.12	441984	keystroke_a	a	n/a
221.142	0.06	442284	keystroke_n	n	n/a
221.262	0.09	442524	keystroke_n	n	n/a
221.488	0.0745	442976	keystroke_y	y	n/a
221.967	0.0755	443934	keystroke_Key.space	Key.space	n/a
222.1175	0.1355	444235	keystroke_v	v	n/a
222.297	0.105	444594	keystroke_a	a	n/a
222.523	0.074	445046	keystroke_r	r	n/a
222.612	0.0915	445224	keystroke_i	i	n/a
222.7325	0.12	445465	keystroke_e	e	n/a
222.8075	0.165	445615	keystroke_s	s	n/a
223.452	0.075	446904	keystroke_Key.space	Key.space	n/a
223.8575	0.075	447715	keystroke_s	s	n/a
224.518	0.075	449036	keystroke_Key.backspace	Key.backspace	n/a
224.653	0.105	449306	keystroke_c	c	n/a
225.4025	0.135	450805	keystroke_z	z	n/a
225.8225	0.075	451645	keystroke_e	e	n/a
226.0175	0.105	452035	keystroke_c	c	n/a
226.1235	0.074	452247	keystroke_h	h	n/a
226.6925	0.0905	453385	keystroke_Key.enter	Key.enter	n/a
226.7875	8.772	453575	prompt	n/a	limits flow lithuania estimation\n
227.488	0.06	454976	keystroke_l	l	n/a
227.623	0.12	455246	keystroke_i	i	n/a
227.803	0.12	455606	keystroke_m	m	n/a
227.953	0.09	455906	keystroke_i	i	n/a
228.088	0.09	456176	keystroke_t	t	n/a
228.298	0.09	456596	keystroke_s	s	n/a
228.823	0.075	457646	keystroke_Key.space	Key.space	n/a
229.003	0.0595	458006	keystroke_f	f	n/a
229.0325	0.075	458065	keystroke_l	l	n/a
229.2125	0.09	458425	keystroke_o	o	n/a
229.2875	0.075	458575	keystroke_w	w	n/a
229.9175	0.09	459835	keystroke_Key.space	Key.space	n/a
230.3225	0.12	460645	keystroke_l	l	n/a
230.5475	0.09	461095	keystroke_i	i	n/a
230.8625	0.09	461725	keystroke_t	t	n/a
231.0125	0.075	462025	keystroke_h	h	n/a
231.223	0.06	462446	keystroke_u	u	n/a
232.093	0.119	464186	keystroke_a	a	n/a
232.317	0.076	464634	keystroke_n	n	n/a
232.483	0.074	464966	keystroke_i	i	n/a
232.543	0.12	465086	keystroke_a	a	n/a
233.038	0.09	466076	keystroke_Key.space	Key.space	n/a
233.487	0.12	466974	keystroke_e	e	n/a
233.622	0.0905	467244	keystroke_s	s	n/a
234.1475	0.105	468295	keystroke_t	t	n/a
234.2675	0.09	468535	keystroke_i	i	n/a
234.4625	0.12	468925	keystroke_m	m	n/a
234.5675	0.105	469135	keystroke_a	a	n/a
234.763	0.075	469526	keystroke_t	t	n/a
234.9275	0.165	469855	keystroke_i	i	n/a
234.9875	0.15	469975	keystroke_o	o	n/a
235.0625	0.105	470125	keystroke_n	n	n/a
235.453	0.105	470906	keystroke_Key.enter	Key.enter	n/a
235.5625	7.272	471125	prompt	n/a	torture bulgaria throw seed\n
236.278	0.0745	472556	keystroke_t	t	n/a
236.3675	0.075	472735	keystroke_o	o	n/a
236.5025	0.075	473005	keystroke_r	r	n/a
237.1475	0.105	474295	keystroke_t	t	n/a
237.2675	0.075	474535	keystroke_u	u	n/a
237.3575	0.12	474715	keystroke_r	r	n/a
237.4175	0.09	474835	keystroke_e	e	n/a
238.123	0.1195	476246	keystroke_Key.space	Key.space	n/a
238.5875	0.075	477175	keystroke_b	b	n/a
238.7075	0.075	477415	keystroke_u	u	n/a
238.9025	0.1055	477805	keystroke_l	l	n/a
239.443	0.105	478886	keystroke_g	g	n/a
239.608	0.135	479216	keystroke_a	a	n/a
239.818	0.105	479636	keystroke_r	r	n/a
239.908	0.06	479816	keystroke_i	i	n/a
239.998	0.12	479996	keystroke_a	a	n/a
240.5075	0.09	481015	keystroke_Key.space	Key.space	n/a
240.7475	0.075	481495	keystroke_t	t	n/a
240.9125	0.105	481825	keystroke_h	h	n/a
241.0775	0.105	482155	keystroke_r	r	n/a
241.2125	0.075	482425	keystroke_o	o	n/a
241.3175	0.075	482635	keystroke_w	w	n/a
242.0525	0.09	484105	keystroke_Key.space	Key.space	n/a
242.1575	0.015	484315	keystroke_s	s	n/a
242.2475	0.06	484495	keystroke_e	e	n/a
242.3825	0.06	484765	keystroke_e	e	n/a
242.5325	0.09	485065	keystroke_d	d	n/a
242.7275	0.105	485455	keystroke_Key.enter	Key.enter	n/a
242.837	7.887	485674	prompt	n/a	faster authentication portrait pins\n
243.6425	0.1355	487285	keystroke_f	f	n/a
243.748	0.165	487496	keystroke_a	a	n/a
243.898	0.075	487796	keystroke_s	s	n/a
244.063	0.044	488126	keystroke_t	t	n/a
244.153	0.105	488306	keystroke_e	e	n/a
244.228	0.089	488456	keystroke_r	r	n/a
244.977	0.075	489954	keystroke_Key.space	Key.space	n/a
245.098	0.12	490196	keystroke_a	a	n/a
245.233	0.075	490466	keystroke_u	u	n/a
245.653	0.0895	491306	keystroke_t	t	n/a
245.7435	0.059	491487	keystroke_h	h	n/a
245.8775	0.09	491755	keystroke_e	e	n/a
245.9375	0.075	491875	keystroke_n	n	n/a
246.9275	0.045	493855	keystroke_t	t	n/a
246.9875	0.075	493975	keystroke_i	i	n/a
247.0925	0.12	494185	keystroke_c	c	n/a
247.198	0.089	494396	keystroke_a	a	n/a
247.377	0.06	494754	keystroke_t	t	n/a
247.422	0.18	494844	keystroke_i	i	n/a
247.498	0.1645	494996	keystroke_o	o	n/a
247.587	0.1055	495174	keystroke_n	n	n/a
247.8725	0.075	495745	keystroke_Key.space	Key.space	n/a
248.1575	0.0755	496315	keystroke_p	p	n/a
248.3075	0.105	496615	keystroke_o	o	n/a
248.4285	0.0435	496857	keystroke_r	r	n/a
248.578	0.075	497156	keystroke_t	t	n/a
248.968	0.15	497936	keystroke_r	r	n/a
249.088	0.12	498176	keystroke_a	a	n/a
249.178	0.12	498356	keystroke_i	i	n/a
249.343	0.09	498686	keystroke_t	t	n/a
249.883	0.0745	499766	keystroke_Key.space	Key.space	n/a
250.1075	0.075	500215	keystroke_p	p	n/a
250.2575	0.165	500515	keystroke_i	i	n/a
250.3475	0.105	500695	keystroke_n	n	n/a
250.4375	0.105	500875	keystroke_s	s	n/a
250.588	0.135	501176	keystroke_Key.enter	Key.enter	n/a
250.729	8.185	501458	prompt	n/a	entertaining trials ships informative\n
251.3525	0.12	502705	keystroke_e	e	n/a
251.4735	0.059	502947	keystroke_n	n	n/a
251.5775	0.06	503155	keystroke_t	t	n/a
251.6675	0.105	503335	keystroke_e	e	n/a
251.7425	0.12	503485	keystroke_r	r	n/a
252.2225	0.135	504445	keystroke_t	t	n/a
252.3275	0.105	504655	keystroke_a	a	n/a
252.853	0.12	505706	keystroke_i	i	n/a
252.928	0.105	505856	keystroke_n	n	n/a
253.078	0.12	506156	keystroke_i	i	n/a
253.138	0.09	506276	keystroke_n	n	n/a
253.213	0.06	506426	keystroke_g	g	n/a
253.7225	0.075	507445	keystroke_Key.space	Key.space	n/a
253.8575	0.09	507715	keystroke_t	t	n/a
254.008	0.135	508016	keystroke_r	r	n/a
254.098	0.12	508196	keystroke_a	a	n/a
254.173	0.06	508346	keystroke_i	i	n/a
254.338	0.06	508676	keystroke_l	l	n/a
254.383	0.075	508766	keystroke_s	s	n/a
254.998	0.075	509996	keystroke_Key.space	Key.space	n/a
255.133	0.09	510266	keystroke_s	s	n/a
255.208	0.06	510416	keystroke_h	h	n/a
255.313	0.09	510626	keystroke_i	i	n/a
255.508	0.09	511016	keystroke_p	p	n/a
255.628	0.06	511256	keystroke_s	s	n/a
256.213	0.075	512426	keystroke_Key.space	Key.space	n/a
256.378	0.105	512756	keystroke_i	i	n/a
256.483	0.075	512966	keystroke_n	n	n/a
256.6475	0.12	513295	keystroke_f	f	n/a
256.7525	0.06	513505	keystroke_o	o	n/a
256.8275	0.105	513655	keystroke_r	r	n/a
257.0525	0.135	514105	keystroke_m	m	n/a
258.0725	0.105	516145	keystroke_a	a	n/a
258.2975	0.075	516595	keystroke_t	t	n/a
258.3875	0.075	516775	keystroke_i	i	n/a
258.4775	0.09	516955	keystroke_v	v	n/a
258.6425	0.075	517285	keystroke_e	e	n/a
258.8075	0.105	517615	keystroke_Key.enter	Key.enter	n/a
258.917	6.582	517834	prompt	n/a	really rules newman african\n
259.5725	0.165	519145	keystroke_r	r	n/a
259.6625	0.12	519325	keystroke_e	e	n/a
259.7525	0.12	519505	keystroke_a	a	n/a
259.8575	0.06	519715	keystroke_l	l	n/a
259.9925	0.075	519985	keystroke_l	l	n/a
260.1425	0.075	520285	keystroke_y	y	n/a
260.5925	0.06	521185	keystroke_Key.space	Key.space	n/a
260.7875	0.135	521575	keystroke_r	r	n/a
260.8775	0.075	521755	keystroke_e	e	n/a
261.238	0.075	522476	keystroke_Key.backspace	Key.backspace	n/a
261.418	0.06	522836	keystroke_u	u	n/a
261.583	0.075	523166	keystroke_l	l	n/a
261.6725	0.105	523345	keystroke_e	e	n/a
261.9125	0.09	523825	keystroke_s	s	n/a
262.1975	0.06	524395	keystroke_Key.space	Key.space	n/a
262.6325	0.091	525265	keystroke_n	n	n/a
262.6925	0.136	525385	keystroke_e	e	n/a
262.7825	0.121	525565	keystroke_w	w	n/a
263.278	0.09	526556	keystroke_m	m	n/a
263.383	0.105	526766	keystroke_a	a	n/a
263.473	0.0745	526946	keystroke_n	n	n/a
264.2075	0.06	528415	keystroke_Key.space	Key.space	n/a
264.3875	0.09	528775	keystroke_a	a	n/a
264.5385	0.089	529077	keystroke_f	f	n/a
264.7485	0.089	529497	keystroke_r	r	n/a
264.8525	0.105	529705	keystroke_i	i	n/a
265.0175	0.106	530035	keystroke_c	c	n/a
265.1075	0.12	530215	keystroke_a	a	n/a
265.2125	0.091	530425	keystroke_n	n	n/a
265.3925	0.105	530785	keystroke_Key.enter	Key.enter	n/a
265.502	7.7225	531004	prompt	n/a	donors cottage gifts incidents\n
266.278	0.09	532556	keystroke_d	d	n/a
266.353	0.105	532706	keystroke_o	o	n/a
266.548	0.12	533096	keystroke_n	n	n/a
266.653	0.09	533306	keystroke_o	o	n/a
266.863	0.075	533726	keystroke_r	r	n/a
267.058	0.09	534116	keystroke_s	s	n/a
267.403	0.06	534806	keystroke_Key.space	Key.space	n/a
267.553	0.075	535106	keystroke_d	d	n/a
267.8975	0.06	535795	keystroke_Key.backspace	Key.backspace	n/a
267.9725	0.091	535945	keystroke_c	c	n/a
268.0775	0.075	536155	keystroke_o	o	n/a
268.7525	0.061	537505	keystroke_t	t	n/a
268.8885	0.075	537777	keystroke_t	t	n/a
269.0075	0.09	538015	keystroke_a	a	n/a
269.1425	0.075	538285	keystroke_g	g	n/a
269.3685	0.044	538737	keystroke_e	e	n/a
270.043	0.12	540086	keystroke_Key.space	Key.space	n/a
270.268	0.06	540536	keystroke_g	g	n/a
270.343	0.0745	540686	keystroke_i	i	n/a
270.4625	0.09	540925	keystroke_f	f	n/a
270.6425	0.075	541285	keystroke_t	t	n/a
270.8685	0.09	541737	keystroke_s	s	n/a
271.1075	0.09	542215	keystroke_Key.space	Key.space	n/a
271.3925	0.121	542785	keystroke_i	i	n/a
271.4825	0.12	542965	keystroke_n	n	n/a
271.8125	0.06	543625	keystroke_d	d	n/a
272.1275	0.06	544255	keystroke_Key.backspace	Key.backspace	n/a
272.2025	0.09	544405	keystroke_c	c	n/a
272.2935	0.104	544587	keystroke_i	i	n/a
272.5025	0.075	545005	keystroke_d	d	n/a
272.6525	0.076	545305	keystroke_e	e	n/a
272.7285	0.059	545457	keystroke_n	n	n/a
272.8185	0.074	545637	keystroke_t	t	n/a
273.0135	0.074	546027	keystroke_s	s	n/a
273.1175	0.105	546235	keystroke_Key.enter	Key.enter	n/a
273.227	7.9025	546454	prompt	n/a	copyrighted similarly coalition captain\n
273.943	0.105	547886	keystroke_c	c	n/a
274.033	0.075	548066	keystroke_o	o	n/a
274.213	0.12	548426	keystroke_p	p	n/a
274.319	0.089	548638	keystroke_y	y	n/a
274.648	0.0745	549296	keystroke_r	r	n/a
274.7235	0.074	549447	keystroke_i	i	n/a
274.9175	0.075	549835	keystroke_g	g	n/a
275.0075	0.075	550015	keystroke_h	h	n/a
275.0975	0.105	550195	keystroke_t	t	n/a
275.1875	0.09	550375	keystroke_e	e	n/a
275.3375	0.075	550675	keystroke_d	d	n/a
275.9825	0.075	551965	keystroke_Key.space	Key.space	n/a
276.1625	0.105	552325	keystroke_s	s	n/a
276.2525	0.09	552505	keystroke_i	i	n/a
276.4025	0.105	552805	keystroke_m	m	n/a
276.5525	0.075	553105	keystroke_i	i	n/a
276.748	0.044	553496	keystroke_l	l	n/a
276.868	0.135	553736	keystroke_a	a	n/a
276.988	0.089	553976	keystroke_r	r	n/a
277.2275	0.135	554455	keystroke_l	l	n/a
277.3175	0.075	554635	keystroke_y	y	n/a
277.9025	0.06	555805	keystroke_Key.space	Key.space	n/a
278.2025	0.12	556405	keystroke_c	c	n/a
278.3085	0.059	556617	keystroke_o	o	n/a
278.4285	0.104	556857	keystroke_a	a	n/a
278.7275	0.105	557455	keystroke_l	l	n/a
278.8175	0.075	557635	keystroke_i	i	n/a
279.2235	0.089	558447	keystroke_t	t	n/a
279.2975	0.18	558595	keystroke_i	i	n/a
279.3725	0.135	558745	keystroke_o	o	n/a
279.4325	0.12	558865	keystroke_n	n	n/a
279.6425	0.075	559285	keystroke_Key.space	Key.space	n/a
279.9725	0.136	559945	keystroke_c	c	n/a
280.0775	0.12	560155	keystroke_a	a	n/a
280.1985	0.089	560397	keystroke_p	p	n/a
280.3775	0.09	560755	keystroke_t	t	n/a
280.5885	0.12	561177	keystroke_a	a	n/a
280.6925	0.165	561385	keystroke_i	i	n/a
280.7975	0.075	561595	keystroke_n	n	n/a
281.0225	0.105	562045	keystroke_Key.enter	Key.enter	n/a
281.134	5.665	562268	prompt	n/a	hudson lion along person\n
282.0425	0.045	564085	keystroke_h	h	n/a
282.1925	0.06	564385	keystroke_u	u	n/a
282.2375	0.09	564475	keystroke_d	d	n/a
282.5075	0.105	565015	keystroke_s	s	n/a
282.5975	0.1205	565195	keystroke_o	o	n/a
282.643	0.12	565286	keystroke_n	n	n/a
283.048	0.075	566096	keystroke_Key.space	Key.space	n/a
283.153	0.09	566306	keystroke_l	l	n/a
283.213	0.09	566426	keystroke_i	i	n/a
283.408	0.105	566816	keystroke_o	o	n/a
283.468	0.1045	566936	keystroke_n	n	n/a
284.0525	0.06	568105	keystroke_Key.space	Key.space	n/a
284.2325	0.105	568465	keystroke_a	a	n/a
284.3075	0.06	568615	keystroke_l	l	n/a
284.4575	0.105	568915	keystroke_o	o	n/a
284.5175	0.09	569035	keystroke_n	n	n/a
284.5775	0.06	569155	keystroke_g	g	n/a
285.1625	0.075	570325	keystroke_Key.space	Key.space	n/a
285.3575	0.0755	570715	keystroke_p	p	n/a
285.4175	0.1055	570835	keystroke_e	e	n/a
285.478	0.105	570956	keystroke_r	r	n/a
285.643	0.0895	571286	keystroke_s	s	n/a
285.6875	0.135	571375	keystroke_o	o	n/a
285.7475	0.135	571495	keystroke_n	n	n/a
286.6925	0.105	573385	keystroke_Key.enter	Key.enter	n/a
286.802	6.6575	573604	prompt	n/a	backing oklahoma bases matthew\n
287.593	0.0895	575186	keystroke_b	b	n/a
287.7425	0.09	575485	keystroke_a	a	n/a
287.8775	0.12	575755	keystroke_c	c	n/a
287.9675	0.06	575935	keystroke_k	k	n/a
288.163	0.105	576326	keystroke_i	i	n/a
288.238	0.09	576476	keystroke_n	n	n/a
288.283	0.06	576566	keystroke_g	g	n/a
288.853	0.06	577706	keystroke_Key.space	Key.space	n/a
289.258	0.09	578516	keystroke_o	o	n/a
289.498	0.075	578996	keystroke_k	k	n/a
289.738	0.09	579476	keystroke_l	l	n/a
289.843	0.105	579686	keystroke_a	a	n/a
290.563	0.0595	581126	keystroke_h	h	n/a
290.653	0.1195	581306	keystroke_o	o	n/a
290.8775	0.12	581755	keystroke_m	m	n/a
290.9675	0.09	581935	keystroke_a	a	n/a
291.1625	0.09	582325	keystroke_Key.space	Key.space	n/a
291.3275	0.09	582655	keystroke_b	b	n/a
291.4775	0.12	582955	keystroke_a	a	n/a
291.5825	0.105	583165	keystroke_s	s	n/a
291.7925	0.075	583585	keystroke_e	e	n/a
291.9575	0.0905	583915	keystroke_s	s	n/a
292.153	0.0745	584306	keystroke_Key.space	Key.space	n/a
292.3775	0.135	584755	keystroke_m	m	n/a
292.5575	0.075	585115	keystroke_a	a	n/a
292.7075	0.06	585415	keystroke_t	t	n/a
292.8425	0.06	585685	keystroke_t	t	n/a
292.9175	0.06	585835	keystroke_h	h	n/a
293.0225	0.135	586045	keystroke_e	e	n/a
293.0975	0.12	586195	keystroke_w	w	n/a
293.353	0.1045	586706	keystroke_Key.enter	Key.enter	n/a
293.4625	6.507	586925	prompt	n/a	deadly grand metals appropriations\n
294.163	0.075	588326	keystroke_d	d	n/a
294.328	0.105	588656	keystroke_e	e	n/a
294.373	0.12	588746	keystroke_a	a	n/a
294.523	0.09	589046	keystroke_d	d	n/a
294.583	0.12	589166	keystroke_l	l	n/a
294.733	0.09	589466	keystroke_y	y	n/a
294.973	0.075	589946	keystroke_Key.space	Key.space	n/a
295.123	0.075	590246	keystroke_g	g	n/a
295.2875	0.12	590575	keystroke_r	r	n/a
295.3475	0.105	590695	keystroke_a	a	n/a
295.4085	0.104	590817	keystroke_n	n	n/a
295.5575	0.105	591115	keystroke_d	d	n/a
295.9175	0.045	591835	keystroke_Key.space	Key.space	n/a
296.0825	0.12	592165	keystroke_m	m	n/a
296.2175	0.0755	592435	keystroke_e	e	n/a
296.353	0.105	592706	keystroke_t	t	n/a
296.473	0.105	592946	keystroke_a	a	n/a
296.563	0.075	593126	keystroke_l	l	n/a
296.6975	0.105	593395	keystroke_s	s	n/a
296.8775	0.0895	593755	keystroke_Key.space	Key.space	n/a
297.028	0.119	594056	keystroke_a	a	n/a
297.163	0.044	594326	keystroke_p	p	n/a
297.283	0.105	594566	keystroke_p	p	n/a
297.7325	0.0905	595465	keystroke_r	r	n/a
297.853	0.09	595706	keystroke_o	o	n/a
298.528	0.0895	597056	keystroke_p	p	n/a
298.6625	0.105	597325	keystroke_r	r	n/a
298.7525	0.06	597505	keystroke_i	i	n/a
298.8425	0.12	597685	keystroke_a	a	n/a
299.263	0.09	598526	keystroke_t	t	n/a
299.398	0.18	598796	keystroke_i	i	n/a
299.443	0.165	598886	keystroke_o	o	n/a
299.548	0.105	599096	keystroke_n	n	n/a
299.698	0.09	599396	keystroke_s	s	n/a
299.833	0.135	599666	keystroke_Key.enter	Key.enter	n/a
299.981	6.783	599962	prompt	n/a	feeling pierce twins greatly\n
300.6725	0.06	601345	keystroke_f	f	n/a
300.7925	0.06	601585	keystroke_e	e	n/a
300.9425	0.06	601885	keystroke_e	e	n/a
301.0925	0.075	602185	keystroke_l	l	n/a
301.3325	0.1355	602665	keystroke_i	i	n/a
301.408	0.104	602816	keystroke_n	n	n/a
301.483	0.06	602966	keystroke_g	g	n/a
302.083	0.21	604166	keystroke_Key.space	Key.space	n/a
302.308	0.045	604616	keystroke_p	p	n/a
302.368	0.045	604736	keystroke_r	r	n/a
302.773	0.06	605546	keystroke_Key.backspace	Key.backspace	n/a
302.953	0.075	605906	keystroke_i	i	n/a
303.0875	0.09	606175	keystroke_e	e	n/a
303.3425	0.09	606685	keystroke_r	r	n/a
303.5525	0.105	607105	keystroke_c	c	n/a
303.793	0.06	607586	keystroke_e	e	n/a
304.287	0.0755	608574	keystroke_Key.space	Key.space	n/a
304.5125	0.03	609025	keystroke_t	t	n/a
304.7225	0.105	609445	keystroke_w	w	n/a
304.8725	0.105	609745	keystroke_i	i	n/a
305.0985	0.104	610197	keystroke_n	n	n/a
305.2175	0.105	610435	keystroke_s	s	n/a
305.6825	0.06	611365	keystroke_Key.space	Key.space	n/a
305.893	0.075	611786	keystroke_g	g	n/a
306.073	0.135	612146	keystroke_r	r	n/a
306.148	0.105	612296	keystroke_e	e	n/a
306.193	0.105	612386	keystroke_a	a	n/a
306.313	0.09	612626	keystroke_t	t	n/a
306.388	0.135	612776	keystroke_l	l	n/a
306.478	0.075	612956	keystroke_y	y	n/a
306.6875	0.075	613375	keystroke_Key.enter	Key.enter	n/a
306.7675	8.097	613535	prompt	n/a	flower toolbar below certificate\n
307.438	0.12	614876	keystroke_f	f	n/a
307.528	0.075	615056	keystroke_l	l	n/a
307.6925	0.075	615385	keystroke_o	o	n/a
307.7375	0.12	615475	keystroke_w	w	n/a
307.8275	0.12	615655	keystroke_e	e	n/a
307.9175	0.1205	615835	keystroke_r	r	n/a
308.6075	0.045	617215	keystroke_Key.space	Key.space	n/a
308.8625	0.09	617725	keystroke_t	t	n/a
308.9675	0.061	617935	keystroke_o	o	n/a
309.0885	0.074	618177	keystroke_o	o	n/a
309.2525	0.105	618505	keystroke_l	l	n/a
309.4325	0.09	618865	keystroke_b	b	n/a
309.5975	0.1355	619195	keystroke_a	a	n/a
309.688	0.105	619376	keystroke_r	r	n/a
310.288	0.075	620576	keystroke_Key.space	Key.space	n/a
310.528	0.075	621056	keystroke_b	b	n/a
310.693	0.075	621386	keystroke_e	e	n/a
310.768	0.075	621536	keystroke_l	l	n/a
310.933	0.075	621866	keystroke_o	o	n/a
310.993	0.105	621986	keystroke_w	w	n/a
311.218	0.075	622436	keystroke_Key.space	Key.space	n/a
311.443	0.105	622886	keystroke_c	c	n/a
311.653	0.12	623306	keystroke_e	e	n/a
311.758	0.09	623516	keystroke_r	r	n/a
312.433	0.06	624866	keystroke_t	t	n/a
312.478	0.075	624956	keystroke_i	i	n/a
312.6125	0.09	625225	keystroke_f	f	n/a
312.6575	0.075	625315	keystroke_i	i	n/a
312.8075	0.12	625615	keystroke_c	c	n/a
312.9285	0.134	625857	keystroke_a	a	n/a
313.0775	0.075	626155	keystroke_t	t	n/a
313.2575	0.15	626515	keystroke_i	i	n/a
313.3325	0.12	626665	keystroke_o	o	n/a
313.3925	0.105	626785	keystroke_n	n	n/a
314.1125	0.06	628225	keystroke_Key.backspace	Key.backspace	n/a
314.2625	0.0605	628525	keystroke_Key.backspace	Key.backspace	n/a
314.428	0.09	628856	keystroke_Key.backspace	Key.backspace	n/a
314.608	0.075	629216	keystroke_e	e	n/a
314.773	0.09	629546	keystroke_Key.enter	Key.enter	n/a
314.869	7.15	629738	prompt	n/a	camp sofa native characterized\n
315.6575	0.1055	631315	keystroke_c	c	n/a
315.808	0.105	631616	keystroke_a	a	n/a
315.928	0.105	631856	keystroke_m	m	n/a
316.123	0.09	632246	keystroke_p	p	n/a
316.228	0.09	632456	keystroke_Key.space	Key.space	n/a
316.363	0.105	632726	keystroke_s	s	n/a
316.453	0.06	632906	keystroke_o	o	n/a
316.573	0.075	633146	keystroke_f	f	n/a
316.663	0.105	633326	keystroke_a	a	n/a
316.873	0.09	633746	keystroke_Key.space	Key.space	n/a
317.098	0.09	634196	keystroke_n	n	n/a
317.203	0.12	634406	keystroke_a	a	n/a
317.353	0.09	634706	keystroke_t	t	n/a
317.488	0.075	634976	keystroke_i	i	n/a
317.548	0.09	635096	keystroke_v	v	n/a
317.713	0.0745	635426	keystroke_e	e	n/a
318.088	0.075	636176	keystroke_Key.space	Key.space	n/a
318.268	0.12	636536	keystroke_c	c	n/a
318.463	0.075	636926	keystroke_h	h	n/a
318.553	0.12	637106	keystroke_a	a	n/a
318.703	0.15	637406	keystroke_r	r	n/a
318.838	0.105	637676	keystroke_a	a	n/a
319.573	0.12	639146	keystroke_c	c	n/a
319.903	0.075	639806	keystroke_t	t	n/a
320.053	0.1205	640106	keystroke_e	e	n/a
320.113	0.135	640226	keystroke_r	r	n/a
320.353	0.075	640706	keystroke_i	i	n/a
320.623	0.15	641246	keystroke_z	z	n/a
320.9225	0.045	641845	keystroke_e	e	n/a
321.0575	0.075	642115	keystroke_d	d	n/a
321.9125	0.105	643825	keystroke_Key.enter	Key.enter	n/a
322.025	6.8495	644050	prompt	n/a	avon securely visible jaguar\n
322.8435	0.134	645687	keystroke_a	a	n/a
323.1275	0.106	646255	keystroke_v	v	n/a
323.2475	0.121	646495	keystroke_o	o	n/a
323.3085	0.119	646617	keystroke_n	n	n/a
323.5025	0.09	647005	keystroke_Key.space	Key.space	n/a
323.6525	0.0605	647305	keystroke_s	s	n/a
323.788	0.075	647576	keystroke_e	e	n/a
323.968	0.105	647936	keystroke_c	c	n/a
324.103	0.09	648206	keystroke_u	u	n/a
324.238	0.135	648476	keystroke_r	r	n/a
324.343	0.09	648686	keystroke_e	e	n/a
324.448	0.165	648896	keystroke_l	l	n/a
324.568	0.09	649136	keystroke_y	y	n/a
325.2125	0.075	650425	keystroke_Key.space	Key.space	n/a
325.3625	0.105	650725	keystroke_v	v	n/a
325.4685	0.074	650937	keystroke_i	i	n/a
325.5875	0.09	651175	keystroke_s	s	n/a
325.6625	0.09	651325	keystroke_i	i	n/a
325.9025	0.075	651805	keystroke_b	b	n/a
326.0075	0.06	652015	keystroke_l	l	n/a
326.1125	0.075	652225	keystroke_e	e	n/a
326.6975	0.0755	653395	keystroke_Key.space	Key.space	n/a
326.818	0.12	653636	keystroke_j	j	n/a
326.923	0.105	653846	keystroke_a	a	n/a
327.448	0.09	654896	keystroke_g	g	n/a
327.583	0.105	655166	keystroke_u	u	n/a
328.153	0.15	656306	keystroke_a	a	n/a
328.273	0.09	656546	keystroke_r	r	n/a
328.753	0.12	657506	keystroke_Key.enter	Key.enter	n/a
328.8775	6.462	657755	prompt	n/a	angry flip titles potatoes\n
329.4725	0.09	658945	keystroke_a	a	n/a
329.5475	0.09	659095	keystroke_n	n	n/a
329.7585	0.074	659517	keystroke_g	g	n/a
329.9225	0.075	659845	keystroke_r	r	n/a
330.0125	0.03	660025	keystroke_y	y	n/a
330.1325	0.09	660265	keystroke_Key.space	Key.space	n/a
330.478	0.075	660956	keystroke_f	f	n/a
330.523	0.12	661046	keystroke_l	l	n/a
330.598	0.075	661196	keystroke_i	i	n/a
330.793	0.105	661586	keystroke_p	p	n/a
331.063	0.06	662126	keystroke_Key.space	Key.space	n/a
331.318	0.075	662636	keystroke_t	t	n/a
331.408	0.06	662816	keystroke_i	i	n/a
331.513	0.105	663026	keystroke_t	t	n/a
331.603	0.075	663206	keystroke_l	l	n/a
331.693	0.105	663386	keystroke_e	e	n/a
331.978	0.12	663956	keystroke_s	s	n/a
332.488	0.075	664976	keystroke_Key.space	Key.space	n/a
332.698	0.09	665396	keystroke_p	p	n/a
332.878	0.105	665756	keystroke_o	o	n/a
333.148	0.03	666296	keystroke_t	t	n/a
333.478	0.09	666956	keystroke_a	a	n/a
334.003	0.09	668006	keystroke_t	t	n/a
334.138	0.105	668276	keystroke_o	o	n/a
334.288	0.09	668576	keystroke_e	e	n/a
334.513	0.09	669026	keystroke_s	s	n/a
335.248	0.09	670496	keystroke_Key.enter	Key.enter	n/a
335.3425	7.512	670685	prompt	n/a	throat regions hands solved\n
336.088	0.105	672176	keystroke_t	t	n/a
336.208	0.075	672416	keystroke_h	h	n/a
336.568	0.105	673136	keystroke_r	r	n/a
336.658	0.0895	673316	keystroke_o	o	n/a
336.7625	0.135	673525	keystroke_a	a	n/a
337.0625	0.075	674125	keystroke_t	t	n/a
337.468	0.075	674936	keystroke_Key.space	Key.space	n/a
337.648	0.1355	675296	keystroke_r	r	n/a
337.7385	0.075	675477	keystroke_e	e	n/a
337.9335	0.075	675867	keystroke_g	g	n/a
338.7135	0.15	677427	keystroke_i	i	n/a
338.7885	0.12	677577	keystroke_o	o	n/a
338.8485	0.09	677697	keystroke_n	n	n/a
338.9835	0.09	677967	keystroke_s	s	n/a
339.5675	0.06	679135	keystroke_Key.space	Key.space	n/a
339.7025	0.06	679405	keystroke_h	h	n/a
339.7635	0.134	679527	keystroke_a	a	n/a
339.8675	0.105	679735	keystroke_n	n	n/a
339.9585	0.089	679917	keystroke_d	d	n/a
340.2885	0.105	680577	keystroke_s	s	n/a
340.5725	0.075	681145	keystroke_Key.space	Key.space	n/a
340.8735	0.12	681747	keystroke_s	s	n/a
340.9785	0.074	681957	keystroke_o	o	n/a
341.1135	0.089	682227	keystroke_v	v	n/a
341.1735	0.089	682347	keystroke_l	l	n/a
341.6525	0.06	683305	keystroke_Key.backspace	Key.backspace	n/a
341.773	0.075	683546	keystroke_Key.backspace	Key.backspace	n/a
341.968	0.09	683936	keystroke_l	l	n/a
342.073	0.105	684146	keystroke_v	v	n/a
342.283	0.045	684566	keystroke_e	e	n/a
342.418	0.075	684836	keystroke_d	d	n/a
342.7175	0.135	685435	keystroke_Key.enter	Key.enter	n/a
342.8615	10.718	685723	prompt	n/a	counsel foreign absorption transfers\n
343.5885	0.1045	687177	keystroke_c	c	n/a
343.708	0.105	687416	keystroke_o	o	n/a
343.963	0.0745	687926	keystroke_u	u	n/a
344.1575	0.091	688315	keystroke_n	n	n/a
344.3225	0.09	688645	keystroke_s	s	n/a
344.6235	0.09	689247	keystroke_e	e	n/a
344.7275	0.075	689455	keystroke_l	l	n/a
345.0425	0.09	690085	keystroke_Key.space	Key.space	n/a
345.7035	0.104	691407	keystroke_f	f	n/a
345.8375	0.075	691675	keystroke_o	o	n/a
346.0775	0.076	692155	keystroke_e	e	n/a
346.2875	0.09	692575	keystroke_r	r	n/a
346.3935	0.074	692787	keystroke_i	i	n/a
347.3975	0.075	694795	keystroke_Key.backspace	Key.backspace	n/a
347.5475	0.075	695095	keystroke_Key.backspace	Key.backspace	n/a
347.6975	0.075	695395	keystroke_Key.backspace	Key.backspace	n/a
348.433	0.075	696866	keystroke_r	r	n/a
348.643	0.105	697286	keystroke_e	e	n/a
348.763	0.09	697526	keystroke_i	i	n/a
348.943	0.09	697886	keystroke_g	g	n/a
349.228	0.09	698456	keystroke_n	n	n/a
349.6025	0.09	699205	keystroke_Key.space	Key.space	n/a
350.0375	0.091	700075	keystroke_a	a	n/a
350.2485	0.059	700497	keystroke_b	b	n/a
350.4275	0.09	700855	keystroke_s	s	n/a
350.5025	0.09	701005	keystroke_o	o	n/a
350.6525	0.06	701305	keystroke_r	r	n/a
350.968	0.1045	701936	keystroke_p	p	n/a
351.1025	0.075	702205	keystroke_t	t	n/a
351.1785	0.164	702357	keystroke_i	i	n/a
351.2375	0.135	702475	keystroke_o	o	n/a
351.2975	0.12	702595	keystroke_n	n	n/a
351.838	0.045	703676	keystroke_Key.space	Key.space	n/a
352.138	0.09	704276	keystroke_t	t	n/a
352.288	0.135	704576	keystroke_r	r	n/a
352.393	0.105	704786	keystroke_a	a	n/a
352.438	0.09	704876	keystroke_n	n	n/a
352.588	0.09	705176	keystroke_s	s	n/a
352.993	0.09	705986	keystroke_f	f	n/a
353.143	0.09	706286	keystroke_e	e	n/a
353.188	0.105	706376	keystroke_r	r	n/a
353.308	0.12	706616	keystroke_s	s	n/a
353.473	0.105	706946	keystroke_Key.enter	Key.enter	n/a
353.582	7.2725	707164	prompt	n/a	farm associated directed thinking\n
354.3875	0.075	708775	keystroke_f	f	n/a
354.5675	0.015	709135	keystroke_r	r	n/a
354.9425	0.06	709885	keystroke_Key.backspace	Key.backspace	n/a
354.9875	0.135	709975	keystroke_a	a	n/a
355.0775	0.12	710155	keystroke_r	r	n/a
355.1525	0.12	710305	keystroke_m	m	n/a
355.7525	0.06	711505	keystroke_Key.space	Key.space	n/a
355.9625	0.135	711925	keystroke_a	a	n/a
356.1725	0.075	712345	keystroke_s	s	n/a
356.3225	0.09	712645	keystroke_s	s	n/a
356.4275	0.09	712855	keystroke_o	o	n/a
356.5325	0.09	713065	keystroke_c	c	n/a
356.6075	0.1055	713215	keystroke_i	i	n/a
356.6975	0.12	713395	keystroke_a	a	n/a
356.8025	0.09	713605	keystroke_t	t	n/a
356.8775	0.09	713755	keystroke_e	e	n/a
357.0275	0.105	714055	keystroke_d	d	n/a
357.238	0.0595	714476	keystroke_Key.space	Key.space	n/a
357.4325	0.045	714865	keystroke_f	f	n/a
357.763	0.06	715526	keystroke_Key.backspace	Key.backspace	n/a
357.838	0.09	715676	keystroke_d	d	n/a
357.943	0.09	715886	keystroke_i	i	n/a
358.1375	0.12	716275	keystroke_r	r	n/a
358.213	0.105	716426	keystroke_e	e	n/a
358.4375	0.045	716875	keystroke_c	c	n/a
358.7675	0.09	717535	keystroke_t	t	n/a
358.873	0.0745	717746	keystroke_e	e	n/a
359.023	0.105	718046	keystroke_d	d	n/a
359.263	0.06	718526	keystroke_Key.space	Key.space	n/a
359.473	0.09	718946	keystroke_t	t	n/a
359.564	0.089	719128	keystroke_h	h	n/a
359.654	0.1345	719308	keystroke_i	i	n/a
359.7585	0.075	719517	keystroke_n	n	n/a
360.3285	0.06	720657	keystroke_k	k	n/a
360.4775	0.121	720955	keystroke_i	i	n/a
360.5385	0.09	721077	keystroke_n	n	n/a
360.6135	0.06	721227	keystroke_g	g	n/a
360.7475	0.105	721495	keystroke_Key.enter	Key.enter	n/a
360.8575	8.112	721715	prompt	n/a	wound beaches butler crop\n
361.528	0.09	723056	keystroke_w	w	n/a
361.603	0.12	723206	keystroke_o	o	n/a
361.693	0.09	723386	keystroke_u	u	n/a
361.888	0.03	723776	keystroke_l	l	n/a
362.248	0.06	724496	keystroke_Key.backspace	Key.backspace	n/a
362.338	0.075	724676	keystroke_d	d	n/a
363.1925	0.075	726385	keystroke_Key.backspace	Key.backspace	n/a
363.4185	0.074	726837	keystroke_n	n	n/a
363.5225	0.076	727045	keystroke_d	d	n/a
364.483	0.075	728966	keystroke_Key.space	Key.space	n/a
364.693	0.075	729386	keystroke_b	b	n/a
364.888	0.12	729776	keystroke_e	e	n/a
364.963	0.135	729926	keystroke_a	a	n/a
365.1725	0.105	730345	keystroke_c	c	n/a
365.2785	0.089	730557	keystroke_h	h	n/a
365.4125	0.135	730825	keystroke_e	e	n/a
365.4875	0.135	730975	keystroke_s	s	n/a
366.1175	0.0755	732235	keystroke_Key.space	Key.space	n/a
366.3425	0.075	732685	keystroke_b	b	n/a
366.4475	0.075	732895	keystroke_u	u	n/a
366.8075	0.075	733615	keystroke_t	t	n/a
366.9425	0.09	733885	keystroke_l	l	n/a
367.0625	0.0755	734125	keystroke_e	e	n/a
367.4525	0.075	734905	keystroke_r	r	n/a
367.7085	0.075	735417	keystroke_Key.space	Key.space	n/a
367.978	0.12	735956	keystroke_c	c	n/a
368.2185	0.06	736437	keystroke_r	r	n/a
368.2935	0.09	736587	keystroke_o	o	n/a
368.4885	0.0895	736977	keystroke_p	p	n/a
368.893	0.075	737786	keystroke_Key.enter	Key.enter	n/a
368.972	7.3475	737944	prompt	n/a	greensboro violent cable hudson\n
369.628	0.0755	739256	keystroke_g	g	n/a
369.7785	0.134	739557	keystroke_r	r	n/a
369.8535	0.075	739707	keystroke_e	e	n/a
370.0025	0.091	740005	keystroke_e	e	n/a
370.1225	0.09	740245	keystroke_n	n	n/a
370.2575	0.106	740515	keystroke_s	s	n/a
370.6625	0.06	741325	keystroke_b	b	n/a
370.7385	0.104	741477	keystroke_o	o	n/a
370.8575	0.09	741715	keystroke_r	r	n/a
371.5925	0.1205	743185	keystroke_o	o	n/a
372.178	0.09	744356	keystroke_Key.space	Key.space	n/a
372.448	0.105	744896	keystroke_v	v	n/a
372.568	0.075	745136	keystroke_i	i	n/a
372.688	0.075	745376	keystroke_o	o	n/a
372.883	0.075	745766	keystroke_l	l	n/a
373.018	0.09	746036	keystroke_e	e	n/a
373.213	0.15	746426	keystroke_n	n	n/a
373.498	0.075	746996	keystroke_t	t	n/a
373.993	0.06	747986	keystroke_Key.space	Key.space	n/a
374.713	0.12	749426	keystroke_c	c	n/a
374.833	0.105	749666	keystroke_a	a	n/a
375.043	0.06	750086	keystroke_b	b	n/a
375.133	0.09	750266	keystroke_l	l	n/a
375.238	0.045	750476	keystroke_e	e	n/a
375.328	0.075	750656	keystroke_Key.space	Key.space	n/a
375.493	0.06	750986	keystroke_h	h	n/a
375.643	0.09	751286	keystroke_u	u	n/a
375.703	0.075	751406	keystroke_d	d	n/a
375.853	0.105	751706	keystroke_s	s	n/a
375.928	0.135	751856	keystroke_o	o	n/a
375.988	0.12	751976	keystroke_n	n	n/a
376.228	0.09	752456	keystroke_Key.enter	Key.enter	n/a
376.3245	8.53	752649	prompt	n/a	expectations coordinated engine platform\n
377.038	0.06	754076	keystroke_e	e	n/a
377.188	0.12	754376	keystroke_x	x	n/a
377.323	0.09	754646	keystroke_p	p	n/a
377.443	0.075	754886	keystroke_e	e	n/a
377.743	0.12	755486	keystroke_c	c	n/a
377.998	0.09	755996	keystroke_t	t	n/a
378.133	0.12	756266	keystroke_a	a	n/a
378.238	0.09	756476	keystroke_t	t	n/a
378.343	0.135	756686	keystroke_i	i	n/a
378.388	0.135	756776	keystroke_o	o	n/a
378.463	0.12	756926	keystroke_n	n	n/a
378.598	0.075	757196	keystroke_s	s	n/a
378.688	0.09	757376	keystroke_Key.space	Key.space	n/a
378.823	0.105	757646	keystroke_c	c	n/a
378.928	0.06	757856	keystroke_o	o	n/a
379.048	0.105	758096	keystroke_o	o	n/a
379.168	0.09	758336	keystroke_r	r	n/a
379.7975	0.09	759595	keystroke_d	d	n/a
379.9325	0.075	759865	keystroke_i	i	n/a
380.0825	0.105	760165	keystroke_n	n	n/a
380.1725	0.135	760345	keystroke_a	a	n/a
380.2625	0.075	760525	keystroke_t	t	n/a
380.3525	0.09	760705	keystroke_e	e	n/a
380.5325	0.0755	761065	keystroke_d	d	n/a
380.683	0.06	761366	keystroke_Key.space	Key.space	n/a
380.878	0.075	761756	keystroke_g	g	n/a
381.283	0.06	762566	keystroke_Key.backspace	Key.backspace	n/a
381.344	0.104	762688	keystroke_e	e	n/a
381.463	0.09	762926	keystroke_n	n	n/a
381.613	0.1045	763226	keystroke_g	g	n/a
381.7025	0.075	763405	keystroke_i	i	n/a
382.4825	0.075	764965	keystroke_n	n	n/a
382.5725	0.06	765145	keystroke_e	e	n/a
382.7675	0.06	765535	keystroke_Key.space	Key.space	n/a
383.0375	0.075	766075	keystroke_p	p	n/a
383.1875	0.09	766375	keystroke_l	l	n/a
383.2475	0.105	766495	keystroke_a	a	n/a
383.638	0.0745	767276	keystroke_t	t	n/a
383.8925	0.105	767785	keystroke_f	f	n/a
383.9675	0.09	767935	keystroke_o	o	n/a
384.1325	0.06	768265	keystroke_r	r	n/a
384.2075	0.135	768415	keystroke_m	m	n/a
384.7625	0.09	769525	keystroke_Key.enter	Key.enter	n/a
384.857	6.6275	769714	prompt	n/a	front adjustable supervisors asset\n
385.693	0.075	771386	keystroke_f	f	n/a
385.843	0.09	771686	keystroke_r	r	n/a
385.918	0.105	771836	keystroke_o	o	n/a
385.963	0.12	771926	keystroke_n	n	n/a
386.084	0.044	772168	keystroke_t	t	n/a
386.188	0.09	772376	keystroke_Key.space	Key.space	n/a
386.293	0.105	772586	keystroke_a	a	n/a
386.443	0.075	772886	keystroke_d	d	n/a
386.563	0.09	773126	keystroke_j	j	n/a
386.743	0.075	773486	keystroke_u	u	n/a
386.788	0.12	773576	keystroke_s	s	n/a
386.878	0.105	773756	keystroke_t	t	n/a
387.088	0.105	774176	keystroke_a	a	n/a
387.253	0.09	774506	keystroke_b	b	n/a
387.358	0.075	774716	keystroke_l	l	n/a
387.448	0.075	774896	keystroke_e	e	n/a
387.6575	0.0605	775315	keystroke_Key.space	Key.space	n/a
387.793	0.12	775586	keystroke_s	s	n/a
387.928	0.09	775856	keystroke_u	u	n/a
388.198	0.09	776396	keystroke_p	p	n/a
388.303	0.09	776606	keystroke_e	e	n/a
388.348	0.09	776696	keystroke_r	r	n/a
388.603	0.105	777206	keystroke_v	v	n/a
388.693	0.075	777386	keystroke_i	i	n/a
388.828	0.075	777656	keystroke_s	s	n/a
389.233	0.09	778466	keystroke_o	o	n/a
389.368	0.09	778736	keystroke_r	r	n/a
389.938	0.12	779876	keystroke_s	s	n/a
390.193	0.075	780386	keystroke_Key.space	Key.space	n/a
390.403	0.12	780806	keystroke_a	a	n/a
390.598	0.09	781196	keystroke_s	s	n/a
390.748	0.09	781496	keystroke_s	s	n/a
390.973	0.06	781946	keystroke_e	e	n/a
391.138	0.075	782276	keystroke_t	t	n/a
391.363	0.12	782726	keystroke_Key.enter	Key.enter	n/a
391.4885	8.591	782977	prompt	n/a	findarticles heavy celtic interviews\n
392.053	0.09	784106	keystroke_f	f	n/a
392.248	0.12	784496	keystroke_i	i	n/a
392.398	0.105	784796	keystroke_n	n	n/a
393.268	0.105	786536	keystroke_d	d	n/a
393.613	0.075	787226	keystroke_a	a	n/a
393.7485	0.075	787497	keystroke_r	r	n/a
393.9575	0.075	787915	keystroke_t	t	n/a
394.0485	0.09	788097	keystroke_i	i	n/a
394.1975	0.106	788395	keystroke_c	c	n/a
394.2875	0.09	788575	keystroke_l	l	n/a
394.408	0.12	788816	keystroke_e	e	n/a
394.738	0.075	789476	keystroke_s	s	n/a
395.083	0.075	790166	keystroke_Key.space	Key.space	n/a
395.293	0.105	790586	keystroke_h	h	n/a
395.338	0.135	790676	keystroke_e	e	n/a
395.413	0.105	790826	keystroke_a	a	n/a
395.593	0.105	791186	keystroke_v	v	n/a
395.758	0.0905	791516	keystroke_y	y	n/a
396.2525	0.12	792505	keystroke_Key.space	Key.space	n/a
396.6125	0.106	793225	keystroke_c	c	n/a
396.8225	0.075	793645	keystroke_e	e	n/a
396.8825	0.075	793765	keystroke_l	l	n/a
397.0175	0.09	794035	keystroke_t	t	n/a
397.1225	0.09	794245	keystroke_i	i	n/a
397.2275	0.1055	794455	keystroke_c	c	n/a
397.648	0.045	795296	keystroke_Key.space	Key.space	n/a
397.828	0.165	795656	keystroke_i	i	n/a
397.933	0.105	795866	keystroke_n	n	n/a
398.083	0.075	796166	keystroke_t	t	n/a
398.173	0.135	796346	keystroke_e	e	n/a
398.263	0.09	796526	keystroke_r	r	n/a
398.458	0.105	796916	keystroke_v	v	n/a
398.578	0.045	797156	keystroke_i	i	n/a
398.638	0.15	797276	keystroke_e	e	n/a
398.713	0.105	797426	keystroke_w	w	n/a
399.193	0.105	798386	keystroke_s	s	n/a
399.988	0.09	799976	keystroke_Key.enter	Key.enter	n/a
400.0885	6.126	800177	prompt	n/a	vitamin licenses stopped allah\n
400.813	0.12	801626	keystroke_v	v	n/a
400.993	0.075	801986	keystroke_i	i	n/a
401.173	0.1045	802346	keystroke_t	t	n/a
401.2925	0.12	802585	keystroke_a	a	n/a
401.3975	0.105	802795	keystroke_m	m	n/a
401.5175	0.135	803035	keystroke_i	i	n/a
401.6225	0.09	803245	keystroke_n	n	n/a
402.343	0.015	804686	keystroke_Key.space	Key.space	n/a
402.418	0.1045	804836	keystroke_l	l	n/a
402.6725	0.075	805345	keystroke_i	i	n/a
403.0475	0.09	806095	keystroke_c	c	n/a
403.2425	0.075	806485	keystroke_e	e	n/a
403.3325	0.075	806665	keystroke_n	n	n/a
403.4825	0.105	806965	keystroke_s	s	n/a
403.708	0.09	807416	keystroke_e	e	n/a
403.933	0.1045	807866	keystroke_s	s	n/a
404.1125	0.045	808225	keystroke_Key.space	Key.space	n/a
404.2175	0.09	808435	keystroke_s	s	n/a
404.3825	0.075	808765	keystroke_t	t	n/a
404.4725	0.075	808945	keystroke_o	o	n/a
404.6375	0.075	809275	keystroke_p	p	n/a
404.7575	0.09	809515	keystroke_p	p	n/a
404.8625	0.075	809725	keystroke_e	e	n/a
405.0125	0.09	810025	keystroke_d	d	n/a
405.1035	0.089	810207	keystroke_Key.space	Key.space	n/a
405.2075	0.1205	810415	keystroke_a	a	n/a
405.313	0.06	810626	keystroke_l	l	n/a
405.433	0.105	810866	keystroke_l	l	n/a
405.523	0.075	811046	keystroke_a	a	n/a
405.898	0.06	811796	keystroke_h	h	n/a
406.078	0.1355	812156	keystroke_Key.enter	Key.enter	n/a
406.2175	4.932	812435	prompt	n/a	right arbor highways shapes\n
406.8285	0.09	813657	keystroke_r	r	n/a
406.9035	0.06	813807	keystroke_i	i	n/a
407.0085	0.06	814017	keystroke_g	g	n/a
407.0685	0.075	814137	keystroke_h	h	n/a
407.1585	0.06	814317	keystroke_t	t	n/a
407.2325	0.076	814465	keystroke_Key.space	Key.space	n/a
407.3535	0.1345	814707	keystroke_a	a	n/a
407.4285	0.0895	814857	keystroke_r	r	n/a
407.668	0.075	815336	keystroke_b	b	n/a
407.773	0.075	815546	keystroke_o	o	n/a
407.878	0.075	815756	keystroke_r	r	n/a
408.1175	0.075	816235	keystroke_Key.space	Key.space	n/a
408.3725	0.075	816745	keystroke_h	h	n/a
408.4625	0.09	816925	keystroke_i	i	n/a
408.5685	0.09	817137	keystroke_g	g	n/a
408.6425	0.06	817285	keystroke_h	h	n/a
408.8985	0.104	817797	keystroke_w	w	n/a
409.0175	0.105	818035	keystroke_a	a	n/a
409.2275	0.075	818455	keystroke_y	y	n/a
409.543	0.105	819086	keystroke_s	s	n/a
410.0225	0.076	820045	keystroke_Key.space	Key.space	n/a
410.2635	0.104	820527	keystroke_s	s	n/a
410.3685	0.0895	820737	keystroke_h	h	n/a
410.443	0.12	820886	keystroke_a	a	n/a
410.533	0.105	821066	keystroke_p	p	n/a
410.698	0.06	821396	keystroke_e	e	n/a
410.893	0.09	821786	keystroke_s	s	n/a
411.043	0.105	822086	keystroke_Key.enter	Key.enter	n/a
411.153	9.8665	822306	prompt	n/a	forestry windsor unauthorized cycling\n
411.838	0.09	823676	keystroke_f	f	n/a
411.943	0.075	823886	keystroke_o	o	n/a
412.168	0.12	824336	keystroke_r	r	n/a
412.303	0.105	824606	keystroke_e	e	n/a
412.483	0.12	824966	keystroke_s	s	n/a
412.648	0.075	825296	keystroke_t	t	n/a
412.813	0.09	825626	keystroke_r	r	n/a
412.873	0.075	825746	keystroke_y	y	n/a
413.098	0.09	826196	keystroke_Key.space	Key.space	n/a
413.353	0.09	826706	keystroke_w	w	n/a
413.428	0.1505	826856	keystroke_i	i	n/a
413.5185	0.09	827037	keystroke_n	n	n/a
413.6835	0.075	827367	keystroke_d	d	n/a
413.9535	0.09	827907	keystroke_s	s	n/a
414.0585	0.06	828117	keystroke_o	o	n/a
414.1485	0.0895	828297	keystroke_r	r	n/a
414.793	0.09	829586	keystroke_Key.space	Key.space	n/a
415.0925	0.06	830185	keystroke_u	u	n/a
415.2875	0.075	830575	keystroke_n	n	n/a
415.573	0.09	831146	keystroke_a	a	n/a
415.783	0.09	831566	keystroke_u	u	n/a
416.3075	0.09	832615	keystroke_t	t	n/a
416.3825	0.09	832765	keystroke_h	h	n/a
416.8475	0.091	833695	keystroke_r	r	n/a
416.9525	0.12	833905	keystroke_o	o	n/a
417.2075	0.105	834415	keystroke_i	i	n/a
417.7775	0.045	835555	keystroke_Key.backspace	Key.backspace	n/a
417.8825	0.075	835765	keystroke_Key.backspace	Key.backspace	n/a
418.0025	0.0605	836005	keystroke_Key.backspace	Key.backspace	n/a
418.213	0.075	836426	keystroke_o	o	n/a
418.303	0.075	836606	keystroke_r	r	n/a
418.498	0.105	836996	keystroke_i	i	n/a
418.648	0.12	837296	keystroke_z	z	n/a
418.888	0.0595	837776	keystroke_e	e	n/a
419.0535	0.045	838107	keystroke_d	d	n/a
419.8185	0.075	839637	keystroke_Key.space	Key.space	n/a
419.9835	0.105	839967	keystroke_c	c	n/a
420.1335	0.075	840267	keystroke_y	y	n/a
420.2385	0.105	840477	keystroke_c	c	n/a
420.3585	0.09	840717	keystroke_l	l	n/a
420.5685	0.1495	841137	keystroke_i	i	n/a
420.643	0.1055	841286	keystroke_n	n	n/a
420.7495	0.074	841499	keystroke_g	g	n/a
420.9435	0.075	841887	keystroke_Key.enter	Key.enter	n/a
421.025	15.1295	842050	prompt	n/a	associates podcasts consumption demonstrate\n
422.1735	0.12	844347	keystroke_a	a	n/a
422.3535	0.06	844707	keystroke_s	s	n/a
422.5035	0.075	845007	keystroke_s	s	n/a
422.5935	0.105	845187	keystroke_o	o	n/a
422.9235	0.12	845847	keystroke_c	c	n/a
423.0135	0.0745	846027	keystroke_i	i	n/a
423.118	0.135	846236	keystroke_a	a	n/a
423.508	0.075	847016	keystroke_t	t	n/a
423.9275	0.076	847855	keystroke_e	e	n/a
424.1235	0.074	848247	keystroke_s	s	n/a
424.2575	0.091	848515	keystroke_Key.space	Key.space	n/a
424.423	0.12	848846	keystroke_p	p	n/a
424.858	0.09	849716	keystroke_o	o	n/a
424.978	0.105	849956	keystroke_d	d	n/a
425.728	0.075	851456	keystroke_c	c	n/a
425.893	0.12	851786	keystroke_a	a	n/a
426.268	0.09	852536	keystroke_s	s	n/a
426.493	0.06	852986	keystroke_t	t	n/a
426.763	0.105	853526	keystroke_s	s	n/a
427.438	0.015	854876	keystroke_Key.space	Key.space	n/a
427.678	0.075	855356	keystroke_c	c	n/a
427.768	0.15	855536	keystroke_o	o	n/a
427.858	0.105	855716	keystroke_n	n	n/a
428.413	0.0905	856826	keystroke_c	c	n/a
428.4885	0.06	856977	keystroke_u	u	n/a
428.7135	0.105	857427	keystroke_m	m	n/a
429.1185	0.09	858237	keystroke_p	p	n/a
429.7035	0.089	859407	keystroke_t	t	n/a
429.8225	0.135	859645	keystroke_i	i	n/a
429.9125	0.015	859825	keystroke_o	o	n/a
430.1075	0.075	860215	keystroke_o	o	n/a
430.4975	0.075	860995	keystroke_n	n	n/a
430.753	0.06	861506	keystroke_Key.backspace	Key.backspace	n/a
430.888	0.06	861776	keystroke_Key.backspace	Key.backspace	n/a
431.083	0.09	862166	keystroke_n	n	n/a
431.668	0.045	863336	keystroke_Key.space	Key.space	n/a
431.8175	0.075	863635	keystroke_d	d	n/a
431.9975	0.075	863995	keystroke_e	e	n/a
432.1175	0.09	864235	keystroke_m	m	n/a
432.3425	0.105	864685	keystroke_o	o	n/a
432.4025	0.12	864805	keystroke_n	n	n/a
432.688	0.105	865376	keystroke_s	s	n/a
432.853	0.075	865706	keystroke_t	t	n/a
435.1355	0.043	870271	keystroke_r	r	n/a
435.2085	0.12	870417	keystroke_a	a	n/a
435.3735	0.06	870747	keystroke_t	t	n/a
435.4485	0.09	870897	keystroke_e	e	n/a
436.0485	0.105	872097	keystroke_Key.enter	Key.enter	n/a
436.157	5.323	872314	prompt	n/a	month wolf decor lamp\n
437.9985	0.149	875997	keystroke_m	m	n/a
438.1625	0.105	876325	keystroke_o	o	n/a
438.2375	0.105	876475	keystroke_n	n	n/a
438.4475	0.075	876895	keystroke_t	t	n/a
438.5075	0.06	877015	keystroke_h	h	n/a
438.6725	0.06	877345	keystroke_Key.space	Key.space	n/a
438.8975	0.105	877795	keystroke_w	w	n/a
438.9875	0.075	877975	keystroke_o	o	n/a
439.1525	0.075	878305	keystroke_l	l	n/a
439.2875	0.105	878575	keystroke_f	f	n/a
439.5575	0.075	879115	keystroke_Key.space	Key.space	n/a
439.828	0.09	879656	keystroke_d	d	n/a
440.023	0.06	880046	keystroke_e	e	n/a
440.188	0.105	880376	keystroke_c	c	n/a
440.278	0.09	880556	keystroke_o	o	n/a
440.443	0.06	880886	keystroke_r	r	n/a
440.623	0.06	881246	keystroke_Key.space	Key.space	n/a
440.773	0.075	881546	keystroke_l	l	n/a
440.893	0.075	881786	keystroke_a	a	n/a
440.938	0.105	881876	keystroke_m	m	n/a
441.133	0.075	882266	keystroke_p	p	n/a
441.388	0.09	882776	keystroke_Key.enter	Key.enter	n/a
441.483	5.4115	882966	prompt	n/a	ladies caution speaks singing\n
442.648	0.09	885296	keystroke_l	l	n/a
442.739	0.106	885478	keystroke_a	a	n/a
442.888	0.075	885776	keystroke_d	d	n/a
442.993	0.06	885986	keystroke_i	i	n/a
443.083	0.12	886166	keystroke_e	e	n/a
443.128	0.135	886256	keystroke_s	s	n/a
443.308	0.06	886616	keystroke_Key.space	Key.space	n/a
443.443	0.1195	886886	keystroke_c	c	n/a
443.5475	0.12	887095	keystroke_a	a	n/a
443.7135	0.074	887427	keystroke_u	u	n/a
443.8185	0.09	887637	keystroke_t	t	n/a
443.9225	0.165	887845	keystroke_i	i	n/a
443.9825	0.121	887965	keystroke_o	o	n/a
444.0285	0.134	888057	keystroke_n	n	n/a
444.1775	0.09	888355	keystroke_Key.space	Key.space	n/a
444.2535	0.104	888507	keystroke_s	s	n/a
444.3425	0.105	888685	keystroke_p	p	n/a
444.4635	0.105	888927	keystroke_e	e	n/a
444.7325	0.121	889465	keystroke_a	a	n/a
444.8825	0.105	889765	keystroke_k	k	n/a
444.9575	0.105	889915	keystroke_s	s	n/a
445.2875	0.075	890575	keystroke_Key.space	Key.space	n/a
445.6025	0.12	891205	keystroke_s	s	n/a
445.6925	0.135	891385	keystroke_i	i	n/a
445.8875	0.105	891775	keystroke_n	n	n/a
446.2185	0.089	892437	keystroke_g	g	n/a
446.3825	0.136	892765	keystroke_i	i	n/a
446.4575	0.09	892915	keystroke_n	n	n/a
446.5325	0.06	893065	keystroke_g	g	n/a
446.8475	0.045	893695	keystroke_Key.enter	Key.enter	n/a
446.8975	8.427	893795	prompt	n/a	when's patient baseball strengthen\n
447.673	0.09	895346	keystroke_w	w	n/a
447.823	0.06	895646	keystroke_h	h	n/a
447.898	0.075	895796	keystroke_e	e	n/a
447.988	0.075	895976	keystroke_n	n	n/a
448.1685	0.06	896337	keystroke_'	'	n/a
448.2435	0.09	896487	keystroke_s	s	n/a
448.7235	0.06	897447	keystroke_Key.space	Key.space	n/a
448.8435	0.105	897687	keystroke_p	p	n/a
448.9335	0.105	897867	keystroke_a	a	n/a
449.0835	0.1045	898167	keystroke_t	t	n/a
449.2035	0.06	898407	keystroke_i	i	n/a
449.3085	0.09	898617	keystroke_e	e	n/a
449.399	0.0595	898798	keystroke_n	n	n/a
449.4885	0.0895	898977	keystroke_t	t	n/a
450.1785	0.075	900357	keystroke_Key.space	Key.space	n/a
450.313	0.075	900626	keystroke_b	b	n/a
450.448	0.15	900896	keystroke_a	a	n/a
450.628	0.135	901256	keystroke_s	s	n/a
450.688	0.105	901376	keystroke_e	e	n/a
450.883	0.12	901766	keystroke_b	b	n/a
451.018	0.12	902036	keystroke_a	a	n/a
451.123	0.06	902246	keystroke_l	l	n/a
451.243	0.09	902486	keystroke_l	l	n/a
451.573	0.06	903146	keystroke_Key.space	Key.space	n/a
451.7985	0.059	903597	keystroke_s	s	n/a
452.3375	0.06	904675	keystroke_t	t	n/a
452.5325	0.105	905065	keystroke_r	r	n/a
452.5925	0.105	905185	keystroke_e	e	n/a
453.643	0.09	907286	keystroke_n	n	n/a
454.2435	0.0895	908487	keystroke_g	g	n/a
454.723	0.075	909446	keystroke_t	t	n/a
454.813	0.075	909626	keystroke_h	h	n/a
454.933	0.075	909866	keystroke_e	e	n/a
454.978	0.135	909956	keystroke_n	n	n/a
455.263	0.06	910526	keystroke_Key.enter	Key.enter	n/a
455.328	5.1265	910656	prompt	n/a	office joyce pmid gasoline\n
455.9385	0.075	911877	keystroke_o	o	n/a
456.0435	0.09	912087	keystroke_f	f	n/a
456.1785	0.075	912357	keystroke_f	f	n/a
456.2535	0.06	912507	keystroke_i	i	n/a
456.3585	0.0895	912717	keystroke_c	c	n/a
456.553	0.06	913106	keystroke_e	e	n/a
456.628	0.09	913256	keystroke_Key.space	Key.space	n/a
456.733	0.09	913466	keystroke_j	j	n/a
456.898	0.15	913796	keystroke_o	o	n/a
457.048	0.045	914096	keystroke_y	y	n/a
457.2575	0.106	914515	keystroke_c	c	n/a
457.4825	0.045	914965	keystroke_e	e	n/a
457.693	0.06	915386	keystroke_Key.space	Key.space	n/a
457.918	0.09	915836	keystroke_p	p	n/a
458.188	0.165	916376	keystroke_m	m	n/a
458.338	0.09	916676	keystroke_i	i	n/a
458.458	0.1055	916916	keystroke_d	d	n/a
459.0725	0.075	918145	keystroke_Key.space	Key.space	n/a
459.3575	0.075	918715	keystroke_g	g	n/a
459.4335	0.149	918867	keystroke_a	a	n/a
459.6425	0.12	919285	keystroke_s	s	n/a
459.7335	0.074	919467	keystroke_o	o	n/a
459.913	0.06	919826	keystroke_l	l	n/a
460.048	0.12	920096	keystroke_i	i	n/a
460.123	0.105	920246	keystroke_n	n	n/a
460.213	0.06	920426	keystroke_e	e	n/a
460.333	0.12	920666	keystroke_Key.enter	Key.enter	n/a
460.4575	11.082	920915	prompt	n/a	tuesday infrastructure alternative slim\n
461.173	0.075	922346	keystroke_t	t	n/a
461.578	0.105	923156	keystroke_u	u	n/a
461.668	0.045	923336	keystroke_s	s	n/a
462.0135	0.06	924027	keystroke_Key.backspace	Key.backspace	n/a
462.1185	0.15	924237	keystroke_e	e	n/a
462.1935	0.12	924387	keystroke_s	s	n/a
462.4335	0.12	924867	keystroke_d	d	n/a
462.5085	0.135	925017	keystroke_a	a	n/a
462.6135	0.075	925227	keystroke_y	y	n/a
463.228	0.075	926456	keystroke_Key.space	Key.space	n/a
463.378	0.135	926756	keystroke_i	i	n/a
463.453	0.09	926906	keystroke_n	n	n/a
463.783	0.06	927566	keystroke_f	f	n/a
463.918	0.12	927836	keystroke_r	r	n/a
463.993	0.12	927986	keystroke_a	a	n/a
465.163	0.075	930326	keystroke_s	s	n/a
465.3435	0.105	930687	keystroke_c	c	n/a
465.928	0.06	931856	keystroke_Key.backspace	Key.backspace	n/a
467.173	0.06	934346	keystroke_t	t	n/a
467.428	0.105	934856	keystroke_r	r	n/a
467.638	0.0745	935276	keystroke_u	u	n/a
467.7735	0.12	935547	keystroke_c	c	n/a
468.133	0.0895	936266	keystroke_t	t	n/a
468.2375	0.075	936475	keystroke_u	u	n/a
468.3275	0.105	936655	keystroke_r	r	n/a
468.4025	0.075	936805	keystroke_e	e	n/a
468.8525	0.09	937705	keystroke_Key.space	Key.space	n/a
469.0035	0.105	938007	keystroke_a	a	n/a
469.0935	0.09	938187	keystroke_l	l	n/a
469.6485	0.1045	939297	keystroke_t	t	n/a
469.783	0.105	939566	keystroke_e	e	n/a
469.843	0.12	939686	keystroke_r	r	n/a
470.038	0.09	940076	keystroke_n	n	n/a
470.113	0.135	940226	keystroke_a	a	n/a
470.233	0.105	940466	keystroke_t	t	n/a
470.353	0.06	940706	keystroke_i	i	n/a
470.428	0.1055	940856	keystroke_v	v	n/a
470.6085	0.075	941217	keystroke_e	e	n/a
470.758	0.09	941516	keystroke_Key.space	Key.space	n/a
470.878	0.105	941756	keystroke_s	s	n/a
470.953	0.105	941906	keystroke_l	l	n/a
471.073	0.075	942146	keystroke_i	i	n/a
471.208	0.09	942416	keystroke_m	m	n/a
471.433	0.105	942866	keystroke_Key.enter	Key.enter	n/a
471.5425	10.092	943085	prompt	n/a	commentary upper accounts maintaining\n
472.2275	0.105	944455	keystroke_c	c	n/a
472.3175	0.09	944635	keystroke_o	o	n/a
472.3775	0.12	944755	keystroke_m	m	n/a
472.5725	0.09	945145	keystroke_m	m	n/a
472.8725	0.105	945745	keystroke_e	e	n/a
472.9925	0.09	945985	keystroke_n	n	n/a
473.1275	0.076	946255	keystroke_t	t	n/a
473.2635	0.135	946527	keystroke_a	a	n/a
473.3685	0.09	946737	keystroke_r	r	n/a
473.4285	0.0595	946857	keystroke_y	y	n/a
474.433	0.09	948866	keystroke_Key.space	Key.space	n/a
474.613	0.075	949226	keystroke_u	u	n/a
474.778	0.0745	949556	keystroke_p	p	n/a
474.9125	0.076	949825	keystroke_p	p	n/a
475.0625	0.105	950125	keystroke_e	e	n/a
475.1225	0.09	950245	keystroke_r	r	n/a
475.7225	0.105	951445	keystroke_Key.space	Key.space	n/a
475.8725	0.105	951745	keystroke_a	a	n/a
476.0525	0.105	952105	keystroke_c	c	n/a
476.2175	0.075	952435	keystroke_c	c	n/a
476.3525	0.12	952705	keystroke_o	o	n/a
476.4275	0.075	952855	keystroke_u	u	n/a
476.6075	0.075	953215	keystroke_n	n	n/a
476.7125	0.06	953425	keystroke_t	t	n/a
476.908	0.09	953816	keystroke_s	s	n/a
477.2535	0.0595	954507	keystroke_Key.space	Key.space	n/a
477.418	0.255	954836	keystroke_m	m	n/a
477.9885	0.1045	955977	keystroke_a	a	n/a
478.513	0.12	957026	keystroke_i	i	n/a
478.693	0.105	957386	keystroke_n	n	n/a
478.903	0.0905	957806	keystroke_t	t	n/a
479.0085	0.12	958017	keystroke_a	a	n/a
480.8225	0.09	961645	keystroke_i	i	n/a
480.9575	0.09	961915	keystroke_n	n	n/a
481.1675	0.1355	962335	keystroke_i	i	n/a
481.2275	0.1205	962455	keystroke_n	n	n/a
481.333	0.075	962666	keystroke_g	g	n/a
481.528	0.105	963056	keystroke_Key.enter	Key.enter	n/a
481.639	5.846	963278	prompt	n/a	refund void main signed\n
482.4125	0.135	964825	keystroke_r	r	n/a
482.4725	0.09	964945	keystroke_e	e	n/a
482.6675	0.12	965335	keystroke_f	f	n/a
482.8025	0.06	965605	keystroke_u	u	n/a
482.9975	0.06	965995	keystroke_n	n	n/a
483.0885	0.09	966177	keystroke_d	d	n/a
483.6575	0.09	967315	keystroke_Key.space	Key.space	n/a
483.8235	0.12	967647	keystroke_v	v	n/a
483.9275	0.091	967855	keystroke_o	o	n/a
483.9885	0.09	967977	keystroke_i	i	n/a
484.1385	0.075	968277	keystroke_d	d	n/a
484.8425	0.06	969685	keystroke_Key.space	Key.space	n/a
484.9925	0.135	969985	keystroke_m	m	n/a
485.1435	0.105	970287	keystroke_a	a	n/a
485.2775	0.12	970555	keystroke_i	i	n/a
485.548	0.0895	971096	keystroke_n	n	n/a
486.2085	0.045	972417	keystroke_Key.space	Key.space	n/a
486.3885	0.075	972777	keystroke_s	s	n/a
486.4785	0.075	972957	keystroke_i	i	n/a
486.6585	0.075	973317	keystroke_g	g	n/a
486.7935	0.09	973587	keystroke_n	n	n/a
486.9435	0.075	973887	keystroke_e	e	n/a
487.1075	0.076	974215	keystroke_d	d	n/a
487.393	0.09	974786	keystroke_Key.enter	Key.enter	n/a
487.488	6.3415	974976	prompt	n/a	selling compile sunday sauce\n
488.2485	0.075	976497	keystroke_s	s	n/a
488.5035	0.015	977007	keystroke_e	e	n/a
488.5335	0.06	977067	keystroke_l	l	n/a
488.6535	0.075	977307	keystroke_l	l	n/a
488.8335	0.15	977667	keystroke_i	i	n/a
489.1625	0.106	978325	keystroke_n	n	n/a
489.4185	0.075	978837	keystroke_g	g	n/a
490.1085	0.059	980217	keystroke_Key.space	Key.space	n/a
490.3185	0.119	980637	keystroke_c	c	n/a
490.4685	0.105	980937	keystroke_o	o	n/a
490.5285	0.135	981057	keystroke_m	m	n/a
490.7535	0.075	981507	keystroke_p	p	n/a
490.9485	0.06	981897	keystroke_l	l	n/a
491.0835	0.1045	982167	keystroke_i	i	n/a
491.293	0.075	982586	keystroke_e	e	n/a
492.0125	0.09	984025	keystroke_Key.space	Key.space	n/a
492.1475	0.105	984295	keystroke_s	s	n/a
492.2075	0.06	984415	keystroke_u	u	n/a
492.3875	0.075	984775	keystroke_n	n	n/a
492.4325	0.105	984865	keystroke_d	d	n/a
492.5075	0.12	985015	keystroke_a	a	n/a
492.6285	0.059	985257	keystroke_y	y	n/a
492.9125	0.09	985825	keystroke_Key.space	Key.space	n/a
493.093	0.15	986186	keystroke_s	s	n/a
493.1985	0.1345	986397	keystroke_a	a	n/a
493.334	0.074	986668	keystroke_u	u	n/a
493.423	0.09	986846	keystroke_c	c	n/a
493.633	0.045	987266	keystroke_e	e	n/a
493.738	0.09	987476	keystroke_Key.enter	Key.enter	n/a
493.833	8.6665	987666	prompt	n/a	known filename trunk repeat\n
494.908	0.12	989816	keystroke_k	k	n/a
495.223	0.0755	990446	keystroke_o	o	n/a
495.6885	0.075	991377	keystroke_Key.backspace	Key.backspace	n/a
495.9135	0.075	991827	keystroke_n	n	n/a
496.1835	0.0895	992367	keystroke_o	o	n/a
496.363	0.09	992726	keystroke_w	w	n/a
496.468	0.09	992936	keystroke_n	n	n/a
497.053	0.075	994106	keystroke_Key.space	Key.space	n/a
497.293	0.105	994586	keystroke_f	f	n/a
497.353	0.06	994706	keystroke_i	i	n/a
497.518	0.06	995036	keystroke_l	l	n/a
497.593	0.0905	995186	keystroke_e	e	n/a
497.6985	0.075	995397	keystroke_m	m	n/a
498.058	0.06	996116	keystroke_Key.backspace	Key.backspace	n/a
498.268	0.075	996536	keystroke_n	n	n/a
498.358	0.135	996716	keystroke_a	a	n/a
498.463	0.0905	996926	keystroke_m	m	n/a
498.5825	0.076	997165	keystroke_e	e	n/a
499.3025	0.075	998605	keystroke_Key.space	Key.space	n/a
499.4385	0.089	998877	keystroke_t	t	n/a
499.6335	0.059	999267	keystroke_r	r	n/a
499.7075	0.075	999415	keystroke_u	u	n/a
499.9035	0.074	999807	keystroke_n	n	n/a
500.0525	0.09	1000105	keystroke_k	k	n/a
500.4275	0.105	1000855	keystroke_Key.space	Key.space	n/a
500.923	0.12	1001846	keystroke_r	r	n/a
500.968	0.105	1001936	keystroke_e	e	n/a
501.193	0.105	1002386	keystroke_p	p	n/a
501.373	0.18	1002746	keystroke_e	e	n/a
501.493	0.12	1002986	keystroke_a	a	n/a
501.628	0.0755	1003256	keystroke_t	t	n/a
502.378	0.12	1004756	keystroke_Key.enter	Key.enter	n/a
502.5025	3.8075	1005005	prompt	n/a	ground play piece stone\n
503.143	0.075	1006286	keystroke_g	g	n/a
503.3385	0.075	1006677	keystroke_r	r	n/a
503.3985	0.09	1006797	keystroke_o	o	n/a
503.4735	0.06	1006947	keystroke_u	u	n/a
503.6535	0.0745	1007307	keystroke_n	n	n/a
503.698	0.105	1007396	keystroke_d	d	n/a
503.848	0.09	1007696	keystroke_Key.space	Key.space	n/a
503.953	0.06	1007906	keystroke_p	p	n/a
504.118	0.06	1008236	keystroke_l	l	n/a
504.193	0.12	1008386	keystroke_a	a	n/a
504.298	0.045	1008596	keystroke_y	y	n/a
504.403	0.09	1008806	keystroke_Key.space	Key.space	n/a
504.508	0.105	1009016	keystroke_p	p	n/a
504.733	0.075	1009466	keystroke_i	i	n/a
504.838	0.09	1009676	keystroke_e	e	n/a
505.063	0.075	1010126	keystroke_c	c	n/a
505.303	0.075	1010606	keystroke_e	e	n/a
505.453	0.06	1010906	keystroke_Key.space	Key.space	n/a
505.573	0.1055	1011146	keystroke_s	s	n/a
505.7385	0.105	1011477	keystroke_t	t	n/a
505.8285	0.12	1011657	keystroke_o	o	n/a
505.8885	0.105	1011777	keystroke_n	n	n/a
506.0085	0.06	1012017	keystroke_e	e	n/a
506.218	0.09	1012436	keystroke_Key.enter	Key.enter	n/a
506.3125	7.452	1012625	prompt	n/a	social cities attributes must've\n
506.968	0.09	1013936	keystroke_s	s	n/a
507.043	0.09	1014086	keystroke_o	o	n/a
507.193	0.105	1014386	keystroke_c	c	n/a
507.343	0.03	1014686	keystroke_i	i	n/a
507.403	0.105	1014806	keystroke_a	a	n/a
507.493	0.075	1014986	keystroke_l	l	n/a
507.658	0.06	1015316	keystroke_Key.space	Key.space	n/a
508.093	0.105	1016186	keystroke_c	c	n/a
508.183	0.0755	1016366	keystroke_i	i	n/a
508.3485	0.075	1016697	keystroke_t	t	n/a
508.3935	0.09	1016787	keystroke_i	i	n/a
508.5435	0.135	1017087	keystroke_e	e	n/a
508.6335	0.135	1017267	keystroke_s	s	n/a
509.3235	0.075	1018647	keystroke_Key.space	Key.space	n/a
509.4285	0.105	1018857	keystroke_a	a	n/a
509.6385	0.075	1019277	keystroke_t	t	n/a
509.8035	0.075	1019607	keystroke_t	t	n/a
510.0435	0.075	1020087	keystroke_r	r	n/a
510.1485	0.075	1020297	keystroke_i	i	n/a
510.8985	0.09	1021797	keystroke_b	b	n/a
511.0185	0.075	1022037	keystroke_u	u	n/a
511.2135	0.09	1022427	keystroke_t	t	n/a
511.5285	0.09	1023057	keystroke_e	e	n/a
511.723	0.105	1023446	keystroke_s	s	n/a
511.978	0.06	1023956	keystroke_Key.space	Key.space	n/a
512.188	0.105	1024376	keystroke_m	m	n/a
512.443	0.075	1024886	keystroke_u	u	n/a
512.698	0.09	1025396	keystroke_s	s	n/a
512.863	0.075	1025726	keystroke_t	t	n/a
513.148	0.075	1026296	keystroke_'	'	n/a
513.253	0.09	1026506	keystroke_v	v	n/a
513.463	0.06	1026926	keystroke_e	e	n/a
513.658	0.105	1027316	keystroke_Key.enter	Key.enter	n/a
513.773	4.4165	1027546	prompt	n/a	buzz pricing visual are\n
514.438	0.075	1028876	keystroke_b	b	n/a
514.5435	0.075	1029087	keystroke_u	u	n/a
514.7085	0.09	1029417	keystroke_z	z	n/a
514.8735	0.105	1029747	keystroke_z	z	n/a
515.1435	0.075	1030287	keystroke_Key.space	Key.space	n/a
515.3235	0.12	1030647	keystroke_p	p	n/a
515.4735	0.09	1030947	keystroke_r	r	n/a
515.5785	0.06	1031157	keystroke_i	i	n/a
515.6685	0.105	1031337	keystroke_c	c	n/a
515.7885	0.15	1031577	keystroke_i	i	n/a
515.9085	0.09	1031817	keystroke_n	n	n/a
515.9835	0.09	1031967	keystroke_g	g	n/a
516.4635	0.075	1032927	keystroke_Key.space	Key.space	n/a
516.7035	0.12	1033407	keystroke_v	v	n/a
516.8085	0.06	1033617	keystroke_i	i	n/a
516.9885	0.09	1033977	keystroke_s	s	n/a
517.0635	0.059	1034127	keystroke_u	u	n/a
517.1685	0.135	1034337	keystroke_a	a	n/a
517.2885	0.06	1034577	keystroke_l	l	n/a
517.5735	0.075	1035147	keystroke_Key.space	Key.space	n/a
517.798	0.105	1035596	keystroke_a	a	n/a
517.918	0.12	1035836	keystroke_r	r	n/a
517.993	0.09	1035986	keystroke_e	e	n/a
518.113	0.075	1036226	keystroke_Key.enter	Key.enter	n/a
518.192	9.7475	1036384	prompt	n/a	biblical fastest capabilities panasonic\n
518.9985	0.09	1037997	keystroke_b	b	n/a
519.1185	0.09	1038237	keystroke_i	i	n/a
519.7335	0.09	1039467	keystroke_b	b	n/a
520.2735	0.105	1040547	keystroke_l	l	n/a
520.3485	0.09	1040697	keystroke_i	i	n/a
520.4685	0.105	1040937	keystroke_c	c	n/a
520.5435	0.135	1041087	keystroke_a	a	n/a
520.6485	0.075	1041297	keystroke_l	l	n/a
520.8285	0.075	1041657	keystroke_Key.space	Key.space	n/a
521.0535	0.075	1042107	keystroke_f	f	n/a
521.1885	0.135	1042377	keystroke_a	a	n/a
521.3085	0.105	1042617	keystroke_s	s	n/a
521.503	0.09	1043006	keystroke_t	t	n/a
521.6675	0.091	1043335	keystroke_e	e	n/a
521.8475	0.09	1043695	keystroke_s	s	n/a
521.9685	0.104	1043937	keystroke_t	t	n/a
522.7025	0.045	1045405	keystroke_Key.space	Key.space	n/a
522.7925	0.135	1045585	keystroke_c	c	n/a
522.9425	0.09	1045885	keystroke_a	a	n/a
523.0625	0.105	1046125	keystroke_p	p	n/a
523.153	0.1045	1046306	keystroke_a	a	n/a
523.3785	0.09	1046757	keystroke_b	b	n/a
523.4825	0.06	1046965	keystroke_i	i	n/a
523.6475	0.121	1047295	keystroke_l	l	n/a
523.7535	0.074	1047507	keystroke_i	i	n/a
523.8725	0.105	1047745	keystroke_t	t	n/a
523.9475	0.076	1047895	keystroke_i	i	n/a
524.0385	0.089	1048077	keystroke_e	e	n/a
524.0975	0.15	1048195	keystroke_s	s	n/a
524.7425	0.075	1049485	keystroke_Key.space	Key.space	n/a
524.9075	0.075	1049815	keystroke_p	p	n/a
524.9975	0.105	1049995	keystroke_a	a	n/a
525.1185	0.074	1050237	keystroke_n	n	n/a
525.2075	0.09	1050415	keystroke_a	a	n/a
525.4775	0.03	1050955	keystroke_s	s	n/a
525.4925	0.06	1050985	keystroke_o	o	n/a
525.6135	0.089	1051227	keystroke_c	c	n/a
525.6575	0.09	1051315	keystroke_i	i	n/a
526.4225	0.075	1052845	keystroke_Key.backspace	Key.backspace	n/a
526.5725	0.105	1053145	keystroke_Key.backspace	Key.backspace	n/a
526.8735	0.074	1053747	keystroke_n	n	n/a
527.0675	0.075	1054135	keystroke_i	i	n/a
527.1575	0.105	1054315	keystroke_c	c	n/a
527.8325	0.105	1055665	keystroke_Key.enter	Key.enter	n/a
527.945	8.8895	1055890	prompt	n/a	perry inclusive princess italiano\n
528.5975	0.075	1057195	keystroke_p	p	n/a
528.7325	0.09	1057465	keystroke_e	e	n/a
528.8075	0.105	1057615	keystroke_r	r	n/a
529.0925	0.075	1058185	keystroke_r	r	n/a
529.2575	0.075	1058515	keystroke_y	y	n/a
529.4375	0.075	1058875	keystroke_Key.space	Key.space	n/a
529.6335	0.134	1059267	keystroke_i	i	n/a
529.7825	0.06	1059565	keystroke_n	n	n/a
529.9625	0.105	1059925	keystroke_c	c	n/a
530.0535	0.119	1060107	keystroke_l	l	n/a
530.1135	0.104	1060227	keystroke_u	u	n/a
530.3825	0.091	1060765	keystroke_s	s	n/a
530.4875	0.06	1060975	keystroke_i	i	n/a
530.5775	0.075	1061155	keystroke_v	v	n/a
530.7425	0.075	1061485	keystroke_e	e	n/a
530.9975	0.075	1061995	keystroke_Key.space	Key.space	n/a
531.2525	0.075	1062505	keystroke_p	p	n/a
531.4475	0.075	1062895	keystroke_r	r	n/a
531.5525	0.075	1063105	keystroke_i	i	n/a
531.7335	0.06	1063467	keystroke_n	n	n/a
531.9435	0.06	1063887	keystroke_c	c	n/a
532.138	0.075	1064276	keystroke_e	e	n/a
532.3335	0.075	1064667	keystroke_s	s	n/a
532.5135	0.075	1065027	keystroke_s	s	n/a
532.6935	0.06	1065387	keystroke_Key.space	Key.space	n/a
533.7585	0.074	1067517	keystroke_i	i	n/a
534.0425	0.106	1068085	keystroke_t	t	n/a
534.2535	0.12	1068507	keystroke_a	a	n/a
534.5085	0.0745	1069017	keystroke_l	l	n/a
536.0535	0.1045	1072107	keystroke_i	i	n/a
536.1885	0.12	1072377	keystroke_a	a	n/a
536.4135	0.09	1072827	keystroke_n	n	n/a
536.4885	0.09	1072977	keystroke_o	o	n/a
536.7135	0.12	1073427	keystroke_Key.enter	Key.enter	n/a
536.8375	4.7075	1073675	prompt	n/a	lazy pets direct rational\n
537.4935	0.0595	1074987	keystroke_l	l	n/a
537.568	0.09	1075136	keystroke_a	a	n/a
537.748	0.12	1075496	keystroke_z	z	n/a
537.853	0.06	1075706	keystroke_y	y	n/a
537.928	0.12	1075856	keystroke_Key.space	Key.space	n/a
538.063	0.075	1076126	keystroke_p	p	n/a
538.168	0.09	1076336	keystroke_e	e	n/a
538.3175	0.09	1076635	keystroke_t	t	n/a
538.4375	0.105	1076875	keystroke_s	s	n/a
538.5875	0.075	1077175	keystroke_Key.space	Key.space	n/a
538.7825	0.106	1077565	keystroke_d	d	n/a
538.903	0.06	1077806	keystroke_i	i	n/a
539.173	0.03	1078346	keystroke_r	r	n/a
539.188	0.075	1078376	keystroke_e	e	n/a
539.368	0.105	1078736	keystroke_c	c	n/a
539.593	0.075	1079186	keystroke_t	t	n/a
539.7285	0.06	1079457	keystroke_Key.space	Key.space	n/a
540.0435	0.12	1080087	keystroke_r	r	n/a
540.3285	0.09	1080657	keystroke_a	a	n/a
540.5235	0.09	1081047	keystroke_t	t	n/a
540.6435	0.15	1081287	keystroke_i	i	n/a
540.7335	0.105	1081467	keystroke_o	o	n/a
540.7785	0.105	1081557	keystroke_n	n	n/a
540.8835	0.105	1081767	keystroke_a	a	n/a
540.9735	0.09	1081947	keystroke_l	l	n/a
541.4535	0.09	1082907	keystroke_Key.enter	Key.enter	n/a
541.548	7.1815	1083096	prompt	n/a	gross seriously studio okay\n
543.4935	0.09	1086987	keystroke_g	g	n/a
543.6885	0.075	1087377	keystroke_r	r	n/a
543.7635	0.09	1087527	keystroke_o	o	n/a
543.9285	0.09	1087857	keystroke_s	s	n/a
544.0935	0.075	1088187	keystroke_s	s	n/a
544.708	0.075	1089416	keystroke_Key.space	Key.space	n/a
544.993	0.075	1089986	keystroke_s	s	n/a
545.173	0.135	1090346	keystroke_e	e	n/a
545.293	0.12	1090586	keystroke_r	r	n/a
545.428	0.225	1090856	keystroke_i	i	n/a
545.488	0.15	1090976	keystroke_o	o	n/a
545.623	0.045	1091246	keystroke_u	u	n/a
545.7135	0.105	1091427	keystroke_s	s	n/a
545.8185	0.165	1091637	keystroke_l	l	n/a
545.9685	0.045	1091937	keystroke_y	y	n/a
546.5985	0.09	1093197	keystroke_Key.space	Key.space	n/a
546.7485	0.09	1093497	keystroke_s	s	n/a
546.9135	0.075	1093827	keystroke_t	t	n/a
547.0185	0.06	1094037	keystroke_u	u	n/a
547.1085	0.09	1094217	keystroke_d	d	n/a
547.2435	0.09	1094487	keystroke_i	i	n/a
547.5435	0.09	1095087	keystroke_o	o	n/a
547.903	0.075	1095806	keystroke_Key.space	Key.space	n/a
548.068	0.06	1096136	keystroke_o	o	n/a
548.233	0.0755	1096466	keystroke_k	k	n/a
548.3235	0.105	1096647	keystroke_a	a	n/a
548.4285	0.0595	1096857	keystroke_y	y	n/a
548.653	0.075	1097306	keystroke_Key.enter	Key.enter	n/a
548.7335	4.256	1097467	prompt	n/a	guide green ward comments\n
549.658	0.0905	1099316	keystroke_g	g	n/a
549.7635	0.0595	1099527	keystroke_u	u	n/a
549.7935	0.1045	1099587	keystroke_i	i	n/a
549.913	0.09	1099826	keystroke_d	d	n/a
550.108	0.06	1100216	keystroke_e	e	n/a
550.408	0.06	1100816	keystroke_Key.space	Key.space	n/a
550.513	0.075	1101026	keystroke_g	g	n/a
550.678	0.105	1101356	keystroke_r	r	n/a
550.723	0.075	1101446	keystroke_e	e	n/a
550.873	0.09	1101746	keystroke_e	e	n/a
550.978	0.1055	1101956	keystroke_n	n	n/a
551.0685	0.075	1102137	keystroke_Key.space	Key.space	n/a
551.2485	0.09	1102497	keystroke_w	w	n/a
