onset	duration	sample	value	key	prompt_text
6.8135	37.007	13627	prompt	n/a	the quick brown fox jumps over a lazy dog\n
35.1535	0.012	70307	keystroke_t	t	n/a
35.4655	0.135	70931	keystroke_h	h	n/a
35.8555	0.09	71711	keystroke_e	e	n/a
36.05	0.0895	72100	keystroke_Key.space	Key.space	n/a
36.3805	0.105	72761	keystroke_q	q	n/a
36.4705	0.09	72941	keystroke_u	u	n/a
36.6055	0.09	73211	keystroke_i	i	n/a
36.7395	0.105	73479	keystroke_c	c	n/a
36.86	0.0745	73720	keystroke_k	k	n/a
36.9495	0.091	73899	keystroke_Key.space	Key.space	n/a
37.2645	0.061	74529	keystroke_b	b	n/a
37.431	0.0735	74862	keystroke_r	r	n/a
37.5505	0.1045	75101	keystroke_o	o	n/a
37.6995	0.1055	75399	keystroke_w	w	n/a
37.7905	0.105	75581	keystroke_n	n	n/a
37.9245	0.0755	75849	keystroke_Key.space	Key.space	n/a
38.4495	0.076	76899	keystroke_f	f	n/a
38.5405	0.089	77081	keystroke_o	o	n/a
38.66	0.09	77320	keystroke_x	x	n/a
38.7795	0.09	77559	keystroke_Key.space	Key.space	n/a
38.9895	0.0755	77979	keystroke_j	j	n/a
39.1555	0.06	78311	keystroke_u	u	n/a
39.321	0.074	78642	keystroke_m	m	n/a
39.515	0.0905	79030	keystroke_p	p	n/a
39.74	0.09	79480	keystroke_s	s	n/a
39.875	0.075	79750	keystroke_Key.space	Key.space	n/a
40.6405	0.09	81281	keystroke_o	o	n/a
40.7595	0.105	81519	keystroke_v	v	n/a
40.8945	0.121	81789	keystroke_e	e	n/a
40.9845	0.18	81969	keystroke_r	r	n/a
41.36	0.0595	82720	keystroke_Key.space	Key.space	n/a
41.5255	0.105	83051	keystroke_a	a	n/a
41.66	0.0755	83320	keystroke_Key.space	Key.space	n/a
42.0205	0.1195	84041	keystroke_l	l	n/a
42.23	0.105	84460	keystroke_a	a	n/a
42.575	0.105	85150	keystroke_z	z	n/a
42.725	0.105	85450	keystroke_y	y	n/a
42.8905	0.0745	85781	keystroke_Key.space	Key.space	n/a
43.1605	0.0755	86321	keystroke_d	d	n/a
43.25	0.1055	86500	keystroke_o	o	n/a
43.4605	0.09	86921	keystroke_g	g	n/a
43.7295	0.075	87459	keystroke_Key.enter	Key.enter	n/a
43.832	5.72	87664	prompt	n/a	press brick enjoy wired\n
44.57	0.075	89140	keystroke_p	p	n/a
44.675	0.0755	89350	keystroke_r	r	n/a
44.736	0.089	89472	keystroke_e	e	n/a
45.0195	0.091	90039	keystroke_s	s	n/a
45.4855	0.0895	90971	keystroke_s	s	n/a
45.65	0.09	91300	keystroke_Key.space	Key.space	n/a
45.8905	0.059	91781	keystroke_b	b	n/a
46.1445	0.0755	92289	keystroke_i	i	n/a
46.7445	0.06	93489	keystroke_Key.backspace	Key.backspace	n/a
46.9105	0.0745	93821	keystroke_r	r	n/a
47.0305	0.0745	94061	keystroke_i	i	n/a
47.165	0.1055	94330	keystroke_c	c	n/a
47.2705	0.0895	94541	keystroke_k	k	n/a
47.375	0.0905	94750	keystroke_Key.space	Key.space	n/a
47.6605	0.075	95321	keystroke_e	e	n/a
47.7505	0.074	95501	keystroke_n	n	n/a
47.9755	0.075	95951	keystroke_j	j	n/a
48.1245	0.1055	96249	keystroke_o	o	n/a
48.26	0.0895	96520	keystroke_y	y	n/a
48.365	0.075	96730	keystroke_Key.space	Key.space	n/a
48.605	0.0905	97210	keystroke_w	w	n/a
48.7405	0.09	97481	keystroke_i	i	n/a
48.98	0.09	97960	keystroke_r	r	n/a
49.145	0.06	98290	keystroke_e	e	n/a
49.295	0.0745	98590	keystroke_d	d	n/a
49.4595	0.09	98919	keystroke_Key.enter	Key.enter	n/a
49.558	8.034	99116	prompt	n/a	squad universities excellence ronald\n
50.3895	0.091	100779	keystroke_s	s	n/a
50.645	0.0905	101290	keystroke_q	q	n/a
50.84	0.0755	101680	keystroke_u	u	n/a
51.0645	0.106	102129	keystroke_a	a	n/a
51.2455	0.0895	102491	keystroke_d	d	n/a
51.395	0.09	102790	keystroke_Key.space	Key.space	n/a
51.6795	0.075	103359	keystroke_u	u	n/a
51.8745	0.091	103749	keystroke_n	n	n/a
52.025	0.075	104050	keystroke_i	i	n/a
52.2955	0.074	104591	keystroke_b	b	n/a
52.4895	0.091	104979	keystroke_e	e	n/a
52.5655	0.1045	105131	keystroke_r	r	n/a
52.8655	0.089	105731	keystroke_s	s	n/a
52.9695	0.075	105939	keystroke_i	i	n/a
53.1195	0.075	106239	keystroke_t	t	n/a
53.2555	0.0745	106511	keystroke_i	i	n/a
53.4355	0.0595	106871	keystroke_e	e	n/a
53.54	0.135	107080	keystroke_s	s	n/a
53.705	0.0595	107410	keystroke_Key.space	Key.space	n/a
53.8545	0.076	107709	keystroke_e	e	n/a
54.0955	0.09	108191	keystroke_x	x	n/a
54.515	0.105	109030	keystroke_c	c	n/a
54.7245	0.0905	109449	keystroke_e	e	n/a
54.95	0.06	109900	keystroke_l	l	n/a
55.07	0.09	110140	keystroke_l	l	n/a
55.1905	0.105	110381	keystroke_e	e	n/a
55.3105	0.09	110621	keystroke_n	n	n/a
55.6555	0.075	111311	keystroke_c	c	n/a
55.8355	0.0735	111671	keystroke_e	e	n/a
55.984	0.091	111968	keystroke_Key.space	Key.space	n/a
56.255	0.09	112510	keystroke_r	r	n/a
56.375	0.105	112750	keystroke_o	o	n/a
56.7055	0.0895	113411	keystroke_n	n	n/a
56.9145	0.1055	113829	keystroke_a	a	n/a
57.1855	0.1345	114371	keystroke_l	l	n/a
57.365	0.0745	114730	keystroke_d	d	n/a
57.515	0.0745	115030	keystroke_Key.enter	Key.enter	n/a
57.6035	7.008	115207	prompt	n/a	equations beverage metres docs\n
58.325	0.09	116650	keystroke_e	e	n/a
58.535	0.09	117070	keystroke_q	q	n/a
58.655	0.0905	117310	keystroke_u	u	n/a
58.835	0.1055	117670	keystroke_a	a	n/a
58.985	0.105	117970	keystroke_l	l	n/a
59.825	0.075	119650	keystroke_Key.backspace	Key.backspace	n/a
60.11	0.09	120220	keystroke_t	t	n/a
60.215	0.12	120430	keystroke_i	i	n/a
60.29	0.165	120580	keystroke_o	o	n/a
60.395	0.18	120790	keystroke_n	n	n/a
60.56	0.09	121120	keystroke_s	s	n/a
60.695	0.075	121390	keystroke_Key.space	Key.space	n/a
60.86	0.06	121720	keystroke_b	b	n/a
61.025	0.06	122050	keystroke_e	e	n/a
61.265	0.075	122530	keystroke_v	v	n/a
61.445	0.0455	122890	keystroke_e	e	n/a
61.7155	0.06	123431	keystroke_r	r	n/a
61.835	0.105	123670	keystroke_a	a	n/a
62.0305	0.074	124061	keystroke_g	g	n/a
62.15	0.0755	124300	keystroke_e	e	n/a
62.269	0.061	124538	keystroke_Key.space	Key.space	n/a
62.5245	0.091	125049	keystroke_m	m	n/a
62.69	0.0605	125380	keystroke_e	e	n/a
62.855	0.06	125710	keystroke_t	t	n/a
63.02	0.0755	126040	keystroke_r	r	n/a
63.3205	0.059	126641	keystroke_e	e	n/a
63.545	0.075	127090	keystroke_s	s	n/a
63.695	0.074	127390	keystroke_Key.space	Key.space	n/a
63.9205	0.06	127841	keystroke_d	d	n/a
64.04	0.075	128080	keystroke_o	o	n/a
64.1905	0.09	128381	keystroke_c	c	n/a
64.355	0.0745	128710	keystroke_s	s	n/a
64.5345	0.075	129069	keystroke_Key.enter	Key.enter	n/a
64.617	7.468	129234	prompt	n/a	territory code favorite settle\n
65.315	0.06	130630	keystroke_t	t	n/a
65.45	0.0605	130900	keystroke_e	e	n/a
65.615	0.0745	131230	keystroke_r	r	n/a
65.765	0.0755	131530	keystroke_r	r	n/a
65.9	0.0755	131800	keystroke_i	i	n/a
66.26	0.0905	132520	keystroke_o	o	n/a
66.7695	0.0605	133539	keystroke_Key.backspace	Key.backspace	n/a
66.995	0.075	133990	keystroke_t	t	n/a
67.115	0.0745	134230	keystroke_o	o	n/a
67.2345	0.075	134469	keystroke_r	r	n/a
67.325	0.1045	134650	keystroke_y	y	n/a
67.474	0.091	134948	keystroke_Key.space	Key.space	n/a
67.7	0.09	135400	keystroke_c	c	n/a
67.805	0.105	135610	keystroke_o	o	n/a
67.94	0.0755	135880	keystroke_d	d	n/a
68.105	0.075	136210	keystroke_e	e	n/a
68.225	0.09	136450	keystroke_Key.space	Key.space	n/a
68.51	0.0905	137020	keystroke_f	f	n/a
68.675	0.09	137350	keystroke_a	a	n/a
69.8595	0.0745	139719	keystroke_v	v	n/a
69.965	0.105	139930	keystroke_o	o	n/a
70.175	0.09	140350	keystroke_r	r	n/a
70.28	0.0755	140560	keystroke_i	i	n/a
70.5355	0.075	141071	keystroke_t	t	n/a
70.6705	0.075	141341	keystroke_e	e	n/a
70.8645	0.075	141729	keystroke_Key.space	Key.space	n/a
71.0755	0.0895	142151	keystroke_s	s	n/a
71.24	0.0595	142480	keystroke_e	e	n/a
71.45	0.075	142900	keystroke_t	t	n/a
71.585	0.075	143170	keystroke_t	t	n/a
71.72	0.135	143440	keystroke_l	l	n/a
71.856	0.0445	143712	keystroke_e	e	n/a
72.005	0.075	144010	keystroke_Key.enter	Key.enter	n/a
72.096	6.0315	144192	prompt	n/a	ma'am stream spray reply\n
72.8295	0.09	145659	keystroke_m	m	n/a
72.95	0.12	145900	keystroke_a	a	n/a
73.1595	0.1055	146319	keystroke_'	'	n/a
73.3995	0.106	146799	keystroke_a	a	n/a
73.5795	0.121	147159	keystroke_m	m	n/a
73.9545	0.06	147909	keystroke_Key.space	Key.space	n/a
74.1495	0.075	148299	keystroke_s	s	n/a
74.3295	0.061	148659	keystroke_t	t	n/a
74.4955	0.074	148991	keystroke_r	r	n/a
74.7205	0.06	149441	keystroke_e	e	n/a
74.8845	0.1055	149769	keystroke_a	a	n/a
75.3655	0.09	150731	keystroke_m	m	n/a
75.6645	0.06	151329	keystroke_Key.space	Key.space	n/a
75.9805	0.09	151961	keystroke_s	s	n/a
76.1155	0.12	152231	keystroke_p	p	n/a
76.2945	0.091	152589	keystroke_r	r	n/a
76.5205	0.1045	153041	keystroke_a	a	n/a
76.6855	0.0895	153371	keystroke_y	y	n/a
76.835	0.075	153670	keystroke_Key.space	Key.space	n/a
77.1795	0.075	154359	keystroke_r	r	n/a
77.2395	0.09	154479	keystroke_e	e	n/a
77.3895	0.09	154779	keystroke_p	p	n/a
77.5995	0.061	155199	keystroke_l	l	n/a
77.7055	0.1045	155411	keystroke_y	y	n/a
78.035	0.0895	156070	keystroke_Key.enter	Key.enter	n/a
78.1325	5.53	156265	prompt	n/a	less ware exec rugby\n
78.8295	0.105	157659	keystroke_l	l	n/a
78.98	0.0755	157960	keystroke_e	e	n/a
79.3695	0.061	158739	keystroke_s	s	n/a
79.5195	0.075	159039	keystroke_s	s	n/a
79.64	0.0895	159280	keystroke_Key.space	Key.space	n/a
80.075	0.075	160150	keystroke_w	w	n/a
80.2095	0.1355	160419	keystroke_a	a	n/a
80.3305	0.1045	160661	keystroke_r	r	n/a
80.42	0.09	160840	keystroke_e	e	n/a
80.57	0.09	161140	keystroke_Key.space	Key.space	n/a
80.87	0.0605	161740	keystroke_e	e	n/a
81.125	0.09	162250	keystroke_x	x	n/a
81.395	0.075	162790	keystroke_e	e	n/a
81.62	0.09	163240	keystroke_c	c	n/a
81.785	0.075	163570	keystroke_Key.space	Key.space	n/a
82.52	0.06	165040	keystroke_r	r	n/a
82.6855	0.0895	165371	keystroke_u	u	n/a
82.9105	0.075	165821	keystroke_g	g	n/a
83.2395	0.0755	166479	keystroke_b	b	n/a
83.33	0.0905	166660	keystroke_y	y	n/a
83.57	0.09	167140	keystroke_Key.enter	Key.enter	n/a
83.6695	6.487	167339	prompt	n/a	who's caroline directors size\n
84.455	0.0905	168910	keystroke_w	w	n/a
84.5605	0.0585	169121	keystroke_h	h	n/a
84.6645	0.1205	169329	keystroke_o	o	n/a
84.905	0.104	169810	keystroke_'	'	n/a
85.1	0.0745	170200	keystroke_s	s	n/a
85.2195	0.075	170439	keystroke_Key.space	Key.space	n/a
85.6855	0.074	171371	keystroke_c	c	n/a
85.8045	0.121	171609	keystroke_a	a	n/a
85.9995	0.105	171999	keystroke_r	r	n/a
86.1495	0.0905	172299	keystroke_o	o	n/a
86.42	0.075	172840	keystroke_l	l	n/a
86.57	0.0745	173140	keystroke_i	i	n/a
86.674	0.1515	173348	keystroke_n	n	n/a
86.84	0.089	173680	keystroke_e	e	n/a
87.0795	0.06	174159	keystroke_Key.space	Key.space	n/a
87.305	0.0905	174610	keystroke_d	d	n/a
87.4245	0.0755	174849	keystroke_i	i	n/a
87.56	0.075	175120	keystroke_r	r	n/a
87.68	0.075	175360	keystroke_e	e	n/a
87.875	0.0755	175750	keystroke_c	c	n/a
88.025	0.06	176050	keystroke_t	t	n/a
88.3545	0.0755	176709	keystroke_o	o	n/a
88.5505	0.074	177101	keystroke_r	r	n/a
89.1495	0.0905	178299	keystroke_s	s	n/a
89.2845	0.075	178569	keystroke_Key.space	Key.space	n/a
89.4945	0.075	178989	keystroke_s	s	n/a
89.6	0.0745	179200	keystroke_i	i	n/a
89.7355	0.104	179471	keystroke_z	z	n/a
89.9295	0.046	179859	keystroke_e	e	n/a
90.0795	0.075	180159	keystroke_Key.enter	Key.enter	n/a
90.1685	8.748	180337	prompt	n/a	pull single focuses telecharger\n
90.845	0.0605	181690	keystroke_p	p	n/a
90.995	0.0745	181990	keystroke_u	u	n/a
91.1905	0.059	182381	keystroke_l	l	n/a
91.3255	0.0745	182651	keystroke_l	l	n/a
91.4445	0.0755	182889	keystroke_Key.space	Key.space	n/a
91.5955	0.1045	183191	keystroke_s	s	n/a
91.7145	0.076	183429	keystroke_i	i	n/a
92.1205	0.0595	184241	keystroke_n	n	n/a
92.36	0.0745	184720	keystroke_g	g	n/a
92.5105	0.104	185021	keystroke_l	l	n/a
92.6155	0.074	185231	keystroke_e	e	n/a
92.705	0.0745	185410	keystroke_Key.space	Key.space	n/a
92.9905	0.059	185981	keystroke_f	f	n/a
93.1395	0.0745	186279	keystroke_o	o	n/a
93.4405	0.105	186881	keystroke_c	c	n/a
93.635	0.075	187270	keystroke_u	u	n/a
93.965	0.104	187930	keystroke_s	s	n/a
94.4145	0.06	188829	keystroke_e	e	n/a
94.58	0.0895	189160	keystroke_s	s	n/a
94.79	0.09	189580	keystroke_Key.space	Key.space	n/a
95.0155	0.0595	190031	keystroke_t	t	n/a
95.195	0.0455	190390	keystroke_e	e	n/a
95.36	0.104	190720	keystroke_l	l	n/a
95.5395	0.0605	191079	keystroke_e	e	n/a
95.99	0.075	191980	keystroke_c	c	n/a
96.095	0.09	192190	keystroke_h	h	n/a
96.29	0.105	192580	keystroke_a	a	n/a
96.4255	0.0745	192851	keystroke_g	g	n/a
96.9795	0.061	193959	keystroke_Key.backspace	Key.backspace	n/a
97.1455	0.075	194291	keystroke_r	r	n/a
97.4455	0.089	194891	keystroke_g	g	n/a
97.6555	0.075	195311	keystroke_e	e	n/a
97.7145	0.106	195429	keystroke_r	r	n/a
98.06	0.09	196120	keystroke_s	s	n/a
98.555	0.075	197110	keystroke_Key.backspace	Key.backspace	n/a
98.825	0.09	197650	keystroke_Key.enter	Key.enter	n/a
98.9255	10.671	197851	prompt	n/a	sigma latitude universities compatibility\n
99.725	0.09	199450	keystroke_s	s	n/a
99.845	0.0605	199690	keystroke_i	i	n/a
100.0395	0.061	200079	keystroke_g	g	n/a
100.249	0.061	200498	keystroke_n	n	n/a
100.6545	0.075	201309	keystroke_Key.backspace	Key.backspace	n/a
100.9845	0.075	201969	keystroke_m	m	n/a
101.1495	0.105	202299	keystroke_a	a	n/a
101.3295	0.09	202659	keystroke_Key.space	Key.space	n/a
101.6445	0.1205	203289	keystroke_l	l	n/a
101.795	0.105	203590	keystroke_a	a	n/a
102.14	0.09	204280	keystroke_t	t	n/a
102.2605	0.074	204521	keystroke_i	i	n/a
102.664	0.076	205328	keystroke_t	t	n/a
102.8	0.075	205600	keystroke_u	u	n/a
102.995	0.06	205990	keystroke_d	d	n/a
103.13	0.09	206260	keystroke_e	e	n/a
103.28	0.075	206560	keystroke_Key.space	Key.space	n/a
103.504	0.061	207008	keystroke_u	u	n/a
103.715	0.075	207430	keystroke_n	n	n/a
103.8645	0.076	207729	keystroke_i	i	n/a
104.1805	0.0895	208361	keystroke_v	v	n/a
104.4055	0.0895	208811	keystroke_e	e	n/a
104.48	0.1055	208960	keystroke_r	r	n/a
104.8095	0.0905	209619	keystroke_s	s	n/a
104.93	0.075	209860	keystroke_i	i	n/a
105.2145	0.075	210429	keystroke_t	t	n/a
105.335	0.0745	210670	keystroke_i	i	n/a
105.4545	0.045	210909	keystroke_e	e	n/a
105.5595	0.105	211119	keystroke_s	s	n/a
105.7395	0.09	211479	keystroke_Key.space	Key.space	n/a
106.01	0.0745	212020	keystroke_c	c	n/a
106.1145	0.121	212229	keystroke_o	o	n/a
106.2055	0.134	212411	keystroke_m	m	n/a
106.4595	0.091	212919	keystroke_p	p	n/a
106.6555	0.104	213311	keystroke_a	a	n/a
106.94	0.089	213880	keystroke_t	t	n/a
107.135	0.075	214270	keystroke_i	i	n/a
107.8095	0.0155	215619	keystroke_b	b	n/a
107.87	0.09	215740	keystroke_i	i	n/a
108.08	0.045	216160	keystroke_t	t	n/a
108.515	0.075	217030	keystroke_Key.backspace	Key.backspace	n/a
108.7855	0.0895	217571	keystroke_l	l	n/a
108.9505	0.0745	217901	keystroke_i	i	n/a
109.114	0.0765	218228	keystroke_t	t	n/a
109.2195	0.075	218439	keystroke_y	y	n/a
109.5195	0.075	219039	keystroke_Key.enter	Key.enter	n/a
109.601	7.9905	219202	prompt	n/a	scotland part alternatively depending\n
110.3445	0.09	220689	keystroke_s	s	n/a
110.5705	0.0895	221141	keystroke_c	c	n/a
110.705	0.0895	221410	keystroke_o	o	n/a
111.245	0.0595	222490	keystroke_t	t	n/a
111.5295	0.09	223059	keystroke_l	l	n/a
111.6505	0.105	223301	keystroke_a	a	n/a
111.7695	0.091	223539	keystroke_n	n	n/a
111.8755	0.0745	223751	keystroke_d	d	n/a
111.9945	0.075	223989	keystroke_Key.space	Key.space	n/a
112.22	0.1045	224440	keystroke_p	p	n/a
112.3405	0.104	224681	keystroke_a	a	n/a
112.4155	0.105	224831	keystroke_r	r	n/a
112.6405	0.0745	225281	keystroke_t	t	n/a
112.76	0.075	225520	keystroke_Key.space	Key.space	n/a
112.955	0.135	225910	keystroke_a	a	n/a
113.15	0.09	226300	keystroke_l	l	n/a
113.434	0.076	226868	keystroke_t	t	n/a
113.615	0.105	227230	keystroke_e	e	n/a
113.704	0.091	227408	keystroke_r	r	n/a
113.9155	0.0895	227831	keystroke_n	n	n/a
114.05	0.12	228100	keystroke_a	a	n/a
114.3655	0.074	228731	keystroke_t	t	n/a
114.47	0.0895	228940	keystroke_i	i	n/a
114.6045	0.091	229209	keystroke_v	v	n/a
114.7705	0.06	229541	keystroke_e	e	n/a
114.8745	0.076	229749	keystroke_Key.space	Key.space	n/a
115.34	0.06	230680	keystroke_Key.backspace	Key.backspace	n/a
115.64	0.06	231280	keystroke_l	l	n/a
115.775	0.09	231550	keystroke_y	y	n/a
115.985	0.045	231970	keystroke_Key.space	Key.space	n/a
116.24	0.0745	232480	keystroke_d	d	n/a
116.405	0.06	232810	keystroke_e	e	n/a
116.5555	0.0895	233111	keystroke_p	p	n/a
116.72	0.075	233440	keystroke_e	e	n/a
116.84	0.075	233680	keystroke_n	n	n/a
116.99	0.0895	233980	keystroke_d	d	n/a
117.11	0.1195	234220	keystroke_i	i	n/a
117.185	0.1495	234370	keystroke_n	n	n/a
117.2905	0.105	234581	keystroke_g	g	n/a
117.5145	0.075	235029	keystroke_Key.enter	Key.enter	n/a
117.6015	7.1005	235203	prompt	n/a	pioneer seek afterwards reynolds\n
118.295	0.075	236590	keystroke_p	p	n/a
118.4745	0.09	236949	keystroke_i	i	n/a
118.685	0.06	237370	keystroke_o	o	n/a
119.03	0.061	238060	keystroke_n	n	n/a
119.435	0.0755	238870	keystroke_e	e	n/a
119.57	0.1205	239140	keystroke_e	e	n/a
119.705	0.09	239410	keystroke_r	r	n/a
119.84	0.075	239680	keystroke_Key.space	Key.space	n/a
120.05	0.105	240100	keystroke_s	s	n/a
120.2295	0.061	240459	keystroke_e	e	n/a
120.395	0.0595	240790	keystroke_e	e	n/a
120.5305	0.089	241061	keystroke_k	k	n/a
120.6945	0.06	241389	keystroke_Key.space	Key.space	n/a
120.9045	0.12	241809	keystroke_a	a	n/a
121.0855	0.059	242171	keystroke_f	f	n/a
121.2795	0.0605	242559	keystroke_t	t	n/a
121.4305	0.09	242861	keystroke_e	e	n/a
121.505	0.0905	243010	keystroke_r	r	n/a
121.82	0.06	243640	keystroke_w	w	n/a
121.955	0.135	243910	keystroke_a	a	n/a
122.06	0.105	244120	keystroke_r	r	n/a
122.285	0.0755	244570	keystroke_d	d	n/a
122.4505	0.0905	244901	keystroke_s	s	n/a
122.735	0.075	245470	keystroke_Key.space	Key.space	n/a
122.9595	0.09	245919	keystroke_r	r	n/a
123.1245	0.061	246249	keystroke_e	e	n/a
123.3805	0.0595	246761	keystroke_y	y	n/a
123.7105	0.06	247421	keystroke_n	n	n/a
123.86	0.0755	247720	keystroke_o	o	n/a
124.0695	0.1055	248139	keystroke_l	l	n/a
124.2205	0.0745	248441	keystroke_d	d	n/a
124.4445	0.0755	248889	keystroke_s	s	n/a
124.6245	0.075	249249	keystroke_Key.enter	Key.enter	n/a
124.706	6.071	249412	prompt	n/a	such why's concert difference\n
125.4205	0.0745	250841	keystroke_s	s	n/a
125.5095	0.075	251019	keystroke_u	u	n/a
125.705	0.075	251410	keystroke_c	c	n/a
125.87	0.0595	251740	keystroke_h	h	n/a
125.9595	0.09	251919	keystroke_Key.space	Key.space	n/a
126.2005	0.0595	252401	keystroke_w	w	n/a
126.2905	0.074	252581	keystroke_h	h	n/a
126.4395	0.076	252879	keystroke_y	y	n/a
126.71	0.09	253420	keystroke_'	'	n/a
126.86	0.076	253720	keystroke_s	s	n/a
126.98	0.075	253960	keystroke_Key.space	Key.space	n/a
127.444	0.03	254888	keystroke_c	c	n/a
127.4905	0.119	254981	keystroke_o	o	n/a
127.5795	0.136	255159	keystroke_n	n	n/a
127.7755	0.09	255551	keystroke_v	v	n/a
128.24	0.06	256480	keystroke_Key.backspace	Key.backspace	n/a
128.4055	0.0745	256811	keystroke_c	c	n/a
128.57	0.09	257140	keystroke_e	e	n/a
128.645	0.075	257290	keystroke_r	r	n/a
128.8555	0.0595	257711	keystroke_t	t	n/a
128.99	0.0755	257980	keystroke_Key.space	Key.space	n/a
129.2	0.06	258400	keystroke_d	d	n/a
129.336	0.074	258672	keystroke_i	i	n/a
129.455	0.0455	258910	keystroke_f	f	n/a
129.62	0.06	259240	keystroke_f	f	n/a
129.8155	0.0595	259631	keystroke_e	e	n/a
129.8895	0.121	259779	keystroke_r	r	n/a
130.0245	0.061	260049	keystroke_e	e	n/a
130.16	0.09	260320	keystroke_n	n	n/a
130.2805	0.0895	260561	keystroke_c	c	n/a
130.4595	0.076	260919	keystroke_e	e	n/a
130.7145	0.06	261429	keystroke_Key.enter	Key.enter	n/a
130.781	5.4115	261562	prompt	n/a	rankings verbal quotes pete\n
131.556	0.059	263112	keystroke_r	r	n/a
131.765	0.09	263530	keystroke_a	a	n/a
131.945	0.075	263890	keystroke_n	n	n/a
132.095	0.09	264190	keystroke_k	k	n/a
132.3355	0.135	264671	keystroke_i	i	n/a
132.41	0.164	264820	keystroke_n	n	n/a
132.5	0.09	265000	keystroke_g	g	n/a
132.6955	0.1045	265391	keystroke_s	s	n/a
132.86	0.089	265720	keystroke_Key.space	Key.space	n/a
133.115	0.0755	266230	keystroke_v	v	n/a
133.325	0.1055	266650	keystroke_e	e	n/a
133.415	0.075	266830	keystroke_r	r	n/a
133.73	0.0605	267460	keystroke_b	b	n/a
133.8495	0.105	267699	keystroke_a	a	n/a
134.0005	0.1045	268001	keystroke_l	l	n/a
134.1195	0.075	268239	keystroke_Key.space	Key.space	n/a
134.375	0.09	268750	keystroke_q	q	n/a
134.5105	0.0745	269021	keystroke_u	u	n/a
134.6905	0.0745	269381	keystroke_o	o	n/a
134.825	0.06	269650	keystroke_t	t	n/a
134.96	0.0755	269920	keystroke_e	e	n/a
135.2155	0.0895	270431	keystroke_s	s	n/a
135.365	0.075	270730	keystroke_Key.space	Key.space	n/a
135.605	0.074	271210	keystroke_p	p	n/a
135.7095	0.0755	271419	keystroke_e	e	n/a
135.815	0.06	271630	keystroke_t	t	n/a
135.905	0.075	271810	keystroke_e	e	n/a
136.115	0.0745	272230	keystroke_Key.enter	Key.enter	n/a
136.207	6.9595	272414	prompt	n/a	discretion kodak marc stops\n
137	0.105	274000	keystroke_d	d	n/a
137.2255	0.06	274451	keystroke_i	i	n/a
137.42	0.075	274840	keystroke_s	s	n/a
137.735	0.15	275470	keystroke_c	c	n/a
138.02	0.076	276040	keystroke_r	r	n/a
138.2305	0.06	276461	keystroke_e	e	n/a
138.4405	0.075	276881	keystroke_t	t	n/a
138.6205	0.1645	277241	keystroke_i	i	n/a
138.7545	0.2105	277509	keystroke_o	o	n/a
138.9345	0.135	277869	keystroke_n	n	n/a
139.805	0.075	279610	keystroke_Key.space	Key.space	n/a
140.555	0.0455	281110	keystroke_k	k	n/a
140.7045	0.076	281409	keystroke_o	o	n/a
140.8405	0.075	281681	keystroke_d	d	n/a
140.96	0.1055	281920	keystroke_a	a	n/a
141.0945	0.075	282189	keystroke_k	k	n/a
141.2745	0.06	282549	keystroke_Key.space	Key.space	n/a
141.4705	0.09	282941	keystroke_m	m	n/a
141.5755	0.105	283151	keystroke_a	a	n/a
141.6505	0.09	283301	keystroke_r	r	n/a
141.8755	0.09	283751	keystroke_c	c	n/a
142.0245	0.0755	284049	keystroke_Key.space	Key.space	n/a
142.2205	0.0745	284441	keystroke_s	s	n/a
142.3555	0.075	284711	keystroke_t	t	n/a
142.4455	0.0745	284891	keystroke_o	o	n/a
142.55	0.134	285100	keystroke_p	p	n/a
142.8955	0.09	285791	keystroke_s	s	n/a
143.0895	0.0755	286179	keystroke_Key.enter	Key.enter	n/a
143.1705	9.2365	286341	prompt	n/a	indianapolis haven landscape generic\n
144.1105	0.059	288221	keystroke_i	i	n/a
144.245	0.075	288490	keystroke_n	n	n/a
144.4995	0.0605	288999	keystroke_d	d	n/a
144.6645	0.0605	289329	keystroke_i	i	n/a
144.9955	0.1045	289991	keystroke_a	a	n/a
145.28	0.074	290560	keystroke_n	n	n/a
145.505	0.12	291010	keystroke_a	a	n/a
145.91	0.0905	291820	keystroke_p	p	n/a
146.0895	0.075	292179	keystroke_o	o	n/a
146.3005	0.045	292601	keystroke_l	l	n/a
146.3905	0.089	292781	keystroke_i	i	n/a
146.5095	0.105	293019	keystroke_s	s	n/a
146.6295	0.09	293259	keystroke_Key.space	Key.space	n/a
146.84	0.075	293680	keystroke_h	h	n/a
146.9745	0.105	293949	keystroke_a	a	n/a
147.2005	0.1035	294401	keystroke_v	v	n/a
147.41	0.0605	294820	keystroke_e	e	n/a
147.5155	0.09	295031	keystroke_n	n	n/a
147.6505	0.074	295301	keystroke_Key.space	Key.space	n/a
147.8455	0.09	295691	keystroke_l	l	n/a
147.9505	0.09	295901	keystroke_a	a	n/a
148.0705	0.09	296141	keystroke_n	n	n/a
148.2055	0.0895	296411	keystroke_d	d	n/a
148.4445	0.075	296889	keystroke_s	s	n/a
148.7445	0.076	297489	keystroke_c	c	n/a
148.9845	0.076	297969	keystroke_a	a	n/a
149.69	0.105	299380	keystroke_p	p	n/a
149.825	0.075	299650	keystroke_e	e	n/a
149.99	0.09	299980	keystroke_Key.space	Key.space	n/a
150.44	0.075	300880	keystroke_g	g	n/a
150.92	0.075	301840	keystroke_e	e	n/a
151.355	0.09	302710	keystroke_n	n	n/a
151.55	0.075	303100	keystroke_e	e	n/a
151.7155	0.0595	303431	keystroke_r	r	n/a
152.0145	0.076	304029	keystroke_i	i	n/a
152.1495	0.091	304299	keystroke_c	c	n/a
152.345	0.06	304690	keystroke_Key.enter	Key.enter	n/a
152.417	6.44	304834	prompt	n/a	recall pierce animated necessity\n
153.14	0.075	306280	keystroke_r	r	n/a
153.23	0.0755	306460	keystroke_e	e	n/a
153.485	0.1055	306970	keystroke_c	c	n/a
153.62	0.12	307240	keystroke_a	a	n/a
153.755	0.06	307510	keystroke_l	l	n/a
153.8755	0.105	307751	keystroke_l	l	n/a
153.9945	0.06	307989	keystroke_Key.space	Key.space	n/a
154.235	0.0595	308470	keystroke_p	p	n/a
154.445	0.0755	308890	keystroke_i	i	n/a
154.595	0.0895	309190	keystroke_e	e	n/a
154.865	0.075	309730	keystroke_r	r	n/a
155.1195	0.075	310239	keystroke_c	c	n/a
155.2995	0.075	310599	keystroke_e	e	n/a
155.4345	0.0905	310869	keystroke_Key.space	Key.space	n/a
155.765	0.12	311530	keystroke_a	a	n/a
155.9155	0.075	311831	keystroke_n	n	n/a
156.08	0.06	312160	keystroke_i	i	n/a
156.3645	0.106	312729	keystroke_m	m	n/a
156.4545	0.1355	312909	keystroke_a	a	n/a
156.5755	0.0895	313151	keystroke_t	t	n/a
156.7095	0.075	313419	keystroke_e	e	n/a
156.8745	0.09	313749	keystroke_d	d	n/a
157.0245	0.06	314049	keystroke_Key.space	Key.space	n/a
157.235	0.0905	314470	keystroke_n	n	n/a
157.4	0.0605	314800	keystroke_e	e	n/a
157.625	0.09	315250	keystroke_c	c	n/a
157.82	0.061	315640	keystroke_e	e	n/a
158.045	0.0305	316090	keystroke_s	s	n/a
158.166	0.074	316332	keystroke_s	s	n/a
158.3	0.0745	316600	keystroke_i	i	n/a
158.42	0.0755	316840	keystroke_t	t	n/a
158.51	0.09	317020	keystroke_y	y	n/a
158.7645	0.09	317529	keystroke_Key.enter	Key.enter	n/a
158.8635	6.7135	317727	prompt	n/a	notifications pool sealed outlets\n
159.575	0.06	319150	keystroke_n	n	n/a
159.695	0.0895	319390	keystroke_o	o	n/a
159.89	0.075	319780	keystroke_t	t	n/a
160.01	0.075	320020	keystroke_i	i	n/a
160.73	0.075	321460	keystroke_f	f	n/a
160.835	0.0895	321670	keystroke_i	i	n/a
160.9695	0.061	321939	keystroke_c	c	n/a
161.0605	0.1345	322121	keystroke_a	a	n/a
161.15	0.135	322300	keystroke_i	i	n/a
161.165	0.06	322330	keystroke_t	t	n/a
161.24	0.18	322480	keystroke_o	o	n/a
161.3455	0.1955	322691	keystroke_n	n	n/a
161.51	0.09	323020	keystroke_s	s	n/a
161.63	0.0745	323260	keystroke_Key.space	Key.space	n/a
161.87	0.075	323740	keystroke_p	p	n/a
162.05	0.0905	324100	keystroke_o	o	n/a
162.4095	0.046	324819	keystroke_o	o	n/a
162.6495	0.091	325299	keystroke_l	l	n/a
162.8145	0.09	325629	keystroke_Key.space	Key.space	n/a
163.0855	0.105	326171	keystroke_s	s	n/a
163.2505	0.075	326501	keystroke_e	e	n/a
163.4295	0.1055	326859	keystroke_a	a	n/a
163.6545	0.0905	327309	keystroke_l	l	n/a
163.985	0.075	327970	keystroke_e	e	n/a
164.135	0.106	328270	keystroke_d	d	n/a
164.255	0.09	328510	keystroke_Key.space	Key.space	n/a
164.48	0.075	328960	keystroke_o	o	n/a
164.615	0.075	329230	keystroke_u	u	n/a
164.75	0.075	329500	keystroke_t	t	n/a
164.945	0.105	329890	keystroke_l	l	n/a
165.065	0.06	330130	keystroke_e	e	n/a
165.155	0.075	330310	keystroke_t	t	n/a
165.32	0.09	330640	keystroke_s	s	n/a
165.5	0.075	331000	keystroke_Key.enter	Key.enter	n/a
165.584	7.4025	331168	prompt	n/a	minerals cambridge deadly believes\n
166.3555	0.0895	332711	keystroke_m	m	n/a
166.5055	0.074	333011	keystroke_i	i	n/a
166.6695	0.091	333339	keystroke_n	n	n/a
166.895	0.075	333790	keystroke_e	e	n/a
167.09	0.0755	334180	keystroke_r	r	n/a
167.2095	0.106	334419	keystroke_a	a	n/a
167.33	0.1055	334660	keystroke_l	l	n/a
167.5255	0.09	335051	keystroke_s	s	n/a
167.6745	0.076	335349	keystroke_Key.space	Key.space	n/a
168.0955	0.105	336191	keystroke_c	c	n/a
168.3045	0.0905	336609	keystroke_a	a	n/a
168.53	0.09	337060	keystroke_m	m	n/a
168.935	0.0755	337870	keystroke_b	b	n/a
169.145	0.09	338290	keystroke_r	r	n/a
169.28	0.075	338560	keystroke_i	i	n/a
169.505	0.075	339010	keystroke_d	d	n/a
169.67	0.075	339340	keystroke_g	g	n/a
169.79	0.06	339580	keystroke_e	e	n/a
169.895	0.105	339790	keystroke_Key.space	Key.space	n/a
170.2095	0.0755	340419	keystroke_d	d	n/a
170.3905	0.044	340781	keystroke_e	e	n/a
170.675	0.09	341350	keystroke_a	a	n/a
170.915	0.105	341830	keystroke_d	d	n/a
171.094	0.106	342188	keystroke_l	l	n/a
171.215	0.09	342430	keystroke_y	y	n/a
171.349	0.075	342698	keystroke_Key.space	Key.space	n/a
171.605	0.0595	343210	keystroke_b	b	n/a
171.754	0.076	343508	keystroke_e	e	n/a
171.92	0.09	343840	keystroke_l	l	n/a
172.025	0.105	344050	keystroke_i	i	n/a
172.175	0.045	344350	keystroke_e	e	n/a
172.265	0.1205	344530	keystroke_v	v	n/a
172.4	0.09	344800	keystroke_e	e	n/a
172.715	0.075	345430	keystroke_s	s	n/a
172.91	0.075	345820	keystroke_Key.enter	Key.enter	n/a
172.9905	8.486	345981	prompt	n/a	denmark corps colleague glenn\n
173.885	0.075	347770	keystroke_d	d	n/a
174.08	0.0755	348160	keystroke_e	e	n/a
174.395	0.074	348790	keystroke_n	n	n/a
174.92	0.09	349840	keystroke_m	m	n/a
175.025	0.1205	350050	keystroke_a	a	n/a
175.115	0.105	350230	keystroke_r	r	n/a
175.265	0.09	350530	keystroke_k	k	n/a
175.37	0.075	350740	keystroke_Key.space	Key.space	n/a
175.58	0.09	351160	keystroke_c	c	n/a
175.7	0.075	351400	keystroke_o	o	n/a
175.82	0.06	351640	keystroke_r	r	n/a
176.0755	0.089	352151	keystroke_p	p	n/a
176.2845	0.0755	352569	keystroke_s	s	n/a
178.13	0.045	356260	keystroke_Key.space	Key.space	n/a
178.475	0.0895	356950	keystroke_c	c	n/a
178.6405	0.074	357281	keystroke_o	o	n/a
178.8495	0.075	357699	keystroke_l	l	n/a
179.0145	0.075	358029	keystroke_l	l	n/a
179.1345	0.0755	358269	keystroke_e	e	n/a
179.3005	0.09	358601	keystroke_a	a	n/a
179.5095	0.0755	359019	keystroke_g	g	n/a
179.6445	0.075	359289	keystroke_u	u	n/a
179.7655	0.0745	359531	keystroke_e	e	n/a
179.9295	0.06	359859	keystroke_Key.space	Key.space	n/a
180.3195	0.0755	360639	keystroke_g	g	n/a
180.4255	0.119	360851	keystroke_l	l	n/a
180.5595	0.076	361119	keystroke_e	e	n/a
181.04	0.045	362080	keystroke_n	n	n/a
181.145	0.075	362290	keystroke_n	n	n/a
181.4	0.0745	362800	keystroke_Key.enter	Key.enter	n/a
181.481	7.8705	362962	prompt	n/a	sale abandoned entries annually\n
183.7275	0	367455	keystroke_s	s	n/a
183.7285	0.1015	367457	keystroke_a	a	n/a
183.875	0.105	367750	keystroke_l	l	n/a
183.9945	0.076	367989	keystroke_e	e	n/a
184.0995	0.075	368199	keystroke_Key.space	Key.space	n/a
184.355	0.105	368710	keystroke_a	a	n/a
184.595	0.089	369190	keystroke_b	b	n/a
184.835	0.104	369670	keystroke_a	a	n/a
184.97	0.09	369940	keystroke_n	n	n/a
185.1205	0.076	370241	keystroke_d	d	n/a
185.3005	0.0745	370601	keystroke_o	o	n/a
185.435	0.1045	370870	keystroke_n	n	n/a
185.585	0.0755	371170	keystroke_e	e	n/a
185.8695	0.0905	371739	keystroke_Key.space	Key.space	n/a
186.1705	0.09	372341	keystroke_e	e	n/a
186.29	0.1055	372580	keystroke_n	n	n/a
186.484	0.061	372968	keystroke_t	t	n/a
186.92	0.075	373840	keystroke_r	r	n/a
187.01	0.0895	374020	keystroke_i	i	n/a
187.1305	0.0585	374261	keystroke_e	e	n/a
187.3245	0.0905	374649	keystroke_s	s	n/a
187.475	0.06	374950	keystroke_Key.space	Key.space	n/a
187.685	0.0905	375370	keystroke_a	a	n/a
187.82	0.0605	375640	keystroke_n	n	n/a
187.955	0.075	375910	keystroke_n	n	n/a
188.134	0.075	376268	keystroke_u	u	n/a
188.2695	0.106	376539	keystroke_a	a	n/a
188.4505	0.09	376901	keystroke_l	l	n/a
188.66	0.09	377320	keystroke_l	l	n/a
189.005	0.075	378010	keystroke_y	y	n/a
189.245	0.1045	378490	keystroke_Key.enter	Key.enter	n/a
189.356	9.4155	378712	prompt	n/a	secrets internationally operational wrapping\n
190.655	0.0755	381310	keystroke_s	s	n/a
190.8205	0.0895	381641	keystroke_e	e	n/a
191.12	0.0605	382240	keystroke_c	c	n/a
191.3	0.06	382600	keystroke_r	r	n/a
191.42	0.075	382840	keystroke_e	e	n/a
191.615	0.06	383230	keystroke_t	t	n/a
191.915	0.06	383830	keystroke_Key.space	Key.space	n/a
192.3955	0.059	384791	keystroke_i	i	n/a
192.5305	0.09	385061	keystroke_n	n	n/a
192.6655	0.0895	385331	keystroke_t	t	n/a
192.83	0.1205	385660	keystroke_e	e	n/a
192.9355	0.104	385871	keystroke_r	r	n/a
193.175	0.074	386350	keystroke_n	n	n/a
193.325	0.119	386650	keystroke_a	a	n/a
193.4755	0.0895	386951	keystroke_t	t	n/a
193.5655	0.135	387131	keystroke_i	i	n/a
193.656	0.1495	387312	keystroke_o	o	n/a
193.76	0.15	387520	keystroke_n	n	n/a
193.97	0.12	387940	keystroke_a	a	n/a
194.135	0.076	388270	keystroke_l	l	n/a
194.2855	0.0445	388571	keystroke_l	l	n/a
194.39	0.074	388780	keystroke_Key.space	Key.space	n/a
194.645	0.075	389290	keystroke_o	o	n/a
194.765	0.1055	389530	keystroke_p	p	n/a
194.915	0.0905	389830	keystroke_e	e	n/a
195.1405	0.09	390281	keystroke_r	r	n/a
195.29	0.105	390580	keystroke_a	a	n/a
195.4405	0.0745	390881	keystroke_t	t	n/a
195.516	0.119	391032	keystroke_i	i	n/a
195.59	0.1655	391180	keystroke_o	o	n/a
195.695	0.165	391390	keystroke_n	n	n/a
196.2655	0.105	392531	keystroke_a	a	n/a
196.3995	0.091	392799	keystroke_l	l	n/a
196.58	0.0595	393160	keystroke_Key.space	Key.space	n/a
196.9845	0.075	393969	keystroke_w	w	n/a
197.2695	0.09	394539	keystroke_r	r	n/a
197.496	0.119	394992	keystroke_a	a	n/a
197.705	0.0605	395410	keystroke_p	p	n/a
197.8555	0.059	395711	keystroke_p	p	n/a
198.005	0.1505	396010	keystroke_i	i	n/a
198.095	0.1505	396190	keystroke_n	n	n/a
198.1705	0.0895	396341	keystroke_g	g	n/a
198.6945	0.075	397389	keystroke_Key.enter	Key.enter	n/a
198.78	5.767	397560	prompt	n/a	head opinion blog specified\n
199.6705	0.0595	399341	keystroke_h	h	n/a
199.775	0.0605	399550	keystroke_e	e	n/a
199.8505	0.134	399701	keystroke_a	a	n/a
200.1195	0.106	400239	keystroke_d	d	n/a
200.3	0.075	400600	keystroke_Key.space	Key.space	n/a
200.54	0.0595	401080	keystroke_o	o	n/a
200.69	0.0905	401380	keystroke_p	p	n/a
200.915	0.06	401830	keystroke_i	i	n/a
201.065	0.0905	402130	keystroke_n	n	n/a
201.38	0.105	402760	keystroke_i	i	n/a
201.47	0.135	402940	keystroke_o	o	n/a
201.5755	0.1195	403151	keystroke_n	n	n/a
201.7545	0.0605	403509	keystroke_Key.space	Key.space	n/a
201.98	0.089	403960	keystroke_b	b	n/a
202.1155	0.09	404231	keystroke_l	l	n/a
202.2955	0.075	404591	keystroke_o	o	n/a
202.4455	0.09	404891	keystroke_g	g	n/a
202.579	0.091	405158	keystroke_Key.space	Key.space	n/a
202.925	0.0905	405850	keystroke_s	s	n/a
203.0905	0.0895	406181	keystroke_p	p	n/a
203.27	0.0455	406540	keystroke_e	e	n/a
203.585	0.09	407170	keystroke_c	c	n/a
203.705	0.0755	407410	keystroke_i	i	n/a
203.915	0.09	407830	keystroke_f	f	n/a
204.035	0.06	408070	keystroke_i	i	n/a
204.1255	0.0595	408251	keystroke_e	e	n/a
204.29	0.0895	408580	keystroke_d	d	n/a
204.4695	0.075	408939	keystroke_Key.enter	Key.enter	n/a
204.5515	8.005	409103	prompt	n/a	writers sleeve sage professionals\n
205.4	0.09	410800	keystroke_w	w	n/a
205.625	0.075	411250	keystroke_r	r	n/a
205.745	0.075	411490	keystroke_i	i	n/a
205.88	0.0605	411760	keystroke_t	t	n/a
206.015	0.075	412030	keystroke_e	e	n/a
206.18	0.075	412360	keystroke_r	r	n/a
206.39	0.0905	412780	keystroke_s	s	n/a
206.5695	0.06	413139	keystroke_Key.space	Key.space	n/a
206.7955	0.09	413591	keystroke_s	s	n/a
206.9295	0.106	413859	keystroke_l	l	n/a
207.155	0.06	414310	keystroke_e	e	n/a
207.2895	0.0605	414579	keystroke_e	e	n/a
207.4095	0.121	414819	keystroke_v	v	n/a
207.545	0.1045	415090	keystroke_e	e	n/a
207.7095	0.0755	415419	keystroke_Key.space	Key.space	n/a
207.9945	0.06	415989	keystroke_s	s	n/a
208.1005	0.119	416201	keystroke_a	a	n/a
208.2655	0.074	416531	keystroke_g	g	n/a
208.3845	0.075	416769	keystroke_e	e	n/a
208.4895	0.0755	416979	keystroke_Key.space	Key.space	n/a
208.79	0.09	417580	keystroke_p	p	n/a
208.925	0.06	417850	keystroke_r	r	n/a
209.015	0.09	418030	keystroke_o	o	n/a
209.21	0.06	418420	keystroke_g	g	n/a
209.585	0.075	419170	keystroke_e	e	n/a
209.99	0.03	419980	keystroke_Key.backspace	Key.backspace	n/a
210.125	0.06	420250	keystroke_Key.backspace	Key.backspace	n/a
210.2605	0.089	420521	keystroke_f	f	n/a
210.4545	0.061	420909	keystroke_e	e	n/a
210.71	0.0605	421420	keystroke_s	s	n/a
210.86	0.06	421720	keystroke_s	s	n/a
210.922	0.133	421844	keystroke_i	i	n/a
211.025	0.135	422050	keystroke_o	o	n/a
211.115	0.165	422230	keystroke_n	n	n/a
211.295	0.0755	422590	keystroke_s	s	n/a
211.7895	0.076	423579	keystroke_Key.backspace	Key.backspace	n/a
212.0155	0.089	424031	keystroke_a	a	n/a
212.15	0.105	424300	keystroke_l	l	n/a
212.315	0.0755	424630	keystroke_s	s	n/a
212.465	0.0895	424930	keystroke_Key.enter	Key.enter	n/a
212.5615	7.4495	425123	prompt	n/a	quizzes reid korea schema\n
213.3345	0.075	426669	keystroke_q	q	n/a
213.44	0.0745	426880	keystroke_u	u	n/a
213.5745	0.091	427149	keystroke_i	i	n/a
213.8005	0.0595	427601	keystroke_c	c	n/a
214.31	0.0595	428620	keystroke_Key.backspace	Key.backspace	n/a
214.5655	0.075	429131	keystroke_z	z	n/a
214.7155	0.074	429431	keystroke_z	z	n/a
215.0595	0.091	430119	keystroke_e	e	n/a
215.3145	0.076	430629	keystroke_s	s	n/a
215.45	0.0895	430900	keystroke_Key.space	Key.space	n/a
215.7505	0.104	431501	keystroke_r	r	n/a
216.0955	0.09	432191	keystroke_e	e	n/a
216.44	0.0605	432880	keystroke_i	i	n/a
216.6055	0.089	433211	keystroke_d	d	n/a
216.7395	0.0605	433479	keystroke_Key.space	Key.space	n/a
217.1	0.075	434200	keystroke_k	k	n/a
217.265	0.074	434530	keystroke_o	o	n/a
217.475	0.075	434950	keystroke_r	r	n/a
217.655	0.0605	435310	keystroke_e	e	n/a
217.7755	0.1045	435551	keystroke_a	a	n/a
218.015	0.075	436030	keystroke_Key.space	Key.space	n/a
218.24	0.09	436480	keystroke_s	s	n/a
218.5845	0.09	437169	keystroke_c	c	n/a
218.735	0.0905	437470	keystroke_h	h	n/a
219.0505	0.0895	438101	keystroke_e	e	n/a
219.29	0.105	438580	keystroke_m	m	n/a
219.56	0.105	439120	keystroke_a	a	n/a
219.935	0.075	439870	keystroke_Key.enter	Key.enter	n/a
220.0245	7.233	440049	prompt	n/a	lithuania britney shades mask\n
221.0005	0.09	442001	keystroke_l	l	n/a
221.1645	0.091	442329	keystroke_i	i	n/a
221.4955	0.09	442991	keystroke_t	t	n/a
221.6155	0.074	443231	keystroke_h	h	n/a
221.8695	0.076	443739	keystroke_u	u	n/a
222.1855	0.1195	444371	keystroke_a	a	n/a
222.5155	0.075	445031	keystroke_n	n	n/a
222.8295	0.075	445659	keystroke_i	i	n/a
222.935	0.1205	445870	keystroke_a	a	n/a
223.1445	0.0755	446289	keystroke_Key.space	Key.space	n/a
223.4305	0.0745	446861	keystroke_b	b	n/a
223.7005	0.089	447401	keystroke_r	r	n/a
223.85	0.0745	447700	keystroke_i	i	n/a
224.375	0.09	448750	keystroke_t	t	n/a
224.8255	0.074	449651	keystroke_n	n	n/a
224.975	0.0595	449950	keystroke_e	e	n/a
225.0795	0.0905	450159	keystroke_y	y	n/a
225.229	0.0765	450458	keystroke_Key.space	Key.space	n/a
225.44	0.09	450880	keystroke_s	s	n/a
225.5455	0.074	451091	keystroke_h	h	n/a
225.635	0.12	451270	keystroke_a	a	n/a
225.904	0.0765	451808	keystroke_d	d	n/a
226.0705	0.059	452141	keystroke_e	e	n/a
226.2055	0.09	452411	keystroke_s	s	n/a
226.3395	0.0755	452679	keystroke_Key.space	Key.space	n/a
226.5205	0.0895	453041	keystroke_m	m	n/a
226.625	0.105	453250	keystroke_a	a	n/a
226.775	0.105	453550	keystroke_s	s	n/a
226.94	0.075	453880	keystroke_k	k	n/a
227.1795	0.075	454359	keystroke_Key.enter	Key.enter	n/a
227.262	9.9695	454524	prompt	n/a	whole imagine posting rouge\n
230.7985	0.027	461597	keystroke_w	w	n/a
230.8255	0.06	461651	keystroke_h	h	n/a
230.96	0.0895	461920	keystroke_o	o	n/a
231.155	0.135	462310	keystroke_l	l	n/a
231.546	0.074	463092	keystroke_e	e	n/a
231.665	0.075	463330	keystroke_Key.space	Key.space	n/a
231.9955	0.074	463991	keystroke_i	i	n/a
232.0995	0.135	464199	keystroke_m	m	n/a
232.175	0.1355	464350	keystroke_a	a	n/a
232.2505	0.12	464501	keystroke_g	g	n/a
232.3555	0.104	464711	keystroke_e	e	n/a
232.82	0.0755	465640	keystroke_i	i	n/a
232.8505	0.164	465701	keystroke_n	n	n/a
233.4205	0.045	466841	keystroke_Key.backspace	Key.backspace	n/a
233.5705	0.0735	467141	keystroke_Key.backspace	Key.backspace	n/a
233.749	0.0755	467498	keystroke_Key.backspace	Key.backspace	n/a
234.5905	0.06	469181	keystroke_i	i	n/a
234.696	0.0895	469392	keystroke_n	n	n/a
234.8005	0.0895	469601	keystroke_e	e	n/a
234.935	0.0745	469870	keystroke_Key.space	Key.space	n/a
235.19	0.09	470380	keystroke_p	p	n/a
235.37	0.0755	470740	keystroke_o	o	n/a
235.49	0.0905	470980	keystroke_s	s	n/a
235.64	0.075	471280	keystroke_t	t	n/a
235.745	0.135	471490	keystroke_i	i	n/a
235.82	0.165	471640	keystroke_n	n	n/a
235.94	0.106	471880	keystroke_g	g	n/a
236.06	0.06	472120	keystroke_Key.space	Key.space	n/a
236.3005	0.089	472601	keystroke_r	r	n/a
236.4495	0.106	472899	keystroke_o	o	n/a
236.5255	0.1345	473051	keystroke_u	u	n/a
236.7495	0.076	473499	keystroke_g	g	n/a
236.9745	0.045	473949	keystroke_e	e	n/a
237.1245	0.105	474249	keystroke_Key.enter	Key.enter	n/a
237.237	5.9195	474474	prompt	n/a	owner creative miss tell\n
238.0395	0.091	476079	keystroke_o	o	n/a
238.1905	0.105	476381	keystroke_w	w	n/a
238.3105	0.0755	476621	keystroke_n	n	n/a
238.7745	0.091	477549	keystroke_e	e	n/a
239.0755	0.075	478151	keystroke_r	r	n/a
239.9595	0.075	479919	keystroke_Key.space	Key.space	n/a
240.305	0.0755	480610	keystroke_c	c	n/a
240.4845	0.075	480969	keystroke_r	r	n/a
240.6055	0.074	481211	keystroke_e	e	n/a
240.7105	0.149	481421	keystroke_a	a	n/a
240.8445	0.09	481689	keystroke_t	t	n/a
241.0855	0.0595	482171	keystroke_i	i	n/a
241.2055	0.09	482411	keystroke_v	v	n/a
241.3255	0.089	482651	keystroke_e	e	n/a
241.4445	0.075	482889	keystroke_Key.space	Key.space	n/a
241.6255	0.09	483251	keystroke_m	m	n/a
241.7605	0.09	483521	keystroke_i	i	n/a
241.9105	0.06	483821	keystroke_s	s	n/a
242.0455	0.074	484091	keystroke_s	s	n/a
242.2395	0.075	484479	keystroke_Key.space	Key.space	n/a
242.4345	0.076	484869	keystroke_t	t	n/a
242.57	0.06	485140	keystroke_e	e	n/a
242.7355	0.0595	485471	keystroke_l	l	n/a
242.87	0.0905	485740	keystroke_l	l	n/a
243.08	0.075	486160	keystroke_Key.enter	Key.enter	n/a
243.1625	8.2295	486325	prompt	n/a	jones motivated advisor advertise\n
244.01	0.0755	488020	keystroke_j	j	n/a
244.145	0.1055	488290	keystroke_o	o	n/a
244.37	0.0755	488740	keystroke_n	n	n/a
244.9255	0.06	489851	keystroke_e	e	n/a
245.06	0.09	490120	keystroke_s	s	n/a
245.21	0.09	490420	keystroke_Key.space	Key.space	n/a
245.4055	0.09	490811	keystroke_m	m	n/a
245.555	0.0905	491110	keystroke_o	o	n/a
245.9	0.075	491800	keystroke_t	t	n/a
246.02	0.0755	492040	keystroke_i	i	n/a
246.47	0.076	492940	keystroke_v	v	n/a
246.6205	0.1195	493241	keystroke_a	a	n/a
246.755	0.0905	493510	keystroke_t	t	n/a
246.875	0.09	493750	keystroke_e	e	n/a
247.04	0.105	494080	keystroke_d	d	n/a
247.16	0.09	494320	keystroke_Key.space	Key.space	n/a
247.43	0.1055	494860	keystroke_a	a	n/a
247.625	0.06	495250	keystroke_d	d	n/a
247.9395	0.0905	495879	keystroke_v	v	n/a
248.075	0.0745	496150	keystroke_i	i	n/a
248.45	0.09	496900	keystroke_s	s	n/a
248.57	0.09	497140	keystroke_o	o	n/a
248.6445	0.0905	497289	keystroke_r	r	n/a
248.765	0.075	497530	keystroke_Key.space	Key.space	n/a
248.96	0.12	497920	keystroke_a	a	n/a
249.14	0.0905	498280	keystroke_d	d	n/a
249.545	0.0755	499090	keystroke_v	v	n/a
249.7855	0.075	499571	keystroke_e	e	n/a
249.8455	0.09	499691	keystroke_r	r	n/a
250.115	0.0905	500230	keystroke_t	t	n/a
250.2505	0.075	500501	keystroke_i	i	n/a
250.985	0.0905	501970	keystroke_s	s	n/a
251.0895	0.075	502179	keystroke_e	e	n/a
251.3145	0.0755	502629	keystroke_Key.enter	Key.enter	n/a
251.4	6.8315	502800	prompt	n/a	exotic harley coming galaxy\n
252.0795	0.076	504159	keystroke_e	e	n/a
252.3205	0.12	504641	keystroke_x	x	n/a
252.6645	0.091	505329	keystroke_o	o	n/a
253.0405	0.105	506081	keystroke_t	t	n/a
253.1605	0.075	506321	keystroke_i	i	n/a
253.2945	0.0905	506589	keystroke_c	c	n/a
253.445	0.0745	506890	keystroke_Key.space	Key.space	n/a
253.7005	0.0745	507401	keystroke_h	h	n/a
253.835	0.105	507670	keystroke_a	a	n/a
253.895	0.12	507790	keystroke_r	r	n/a
254.66	0.105	509320	keystroke_l	l	n/a
254.8405	0.0745	509681	keystroke_e	e	n/a
254.96	0.09	509920	keystroke_y	y	n/a
255.095	0.075	510190	keystroke_Key.space	Key.space	n/a
255.44	0.0905	510880	keystroke_c	c	n/a
255.545	0.12	511090	keystroke_o	o	n/a
255.635	0.105	511270	keystroke_m	m	n/a
255.92	0.12	511840	keystroke_i	i	n/a
255.98	0.165	511960	keystroke_n	n	n/a
256.1	0.105	512200	keystroke_g	g	n/a
256.2505	0.0445	512501	keystroke_Key.space	Key.space	n/a
256.5045	0.0755	513009	keystroke_g	g	n/a
256.625	0.1045	513250	keystroke_a	a	n/a
256.8055	0.1045	513611	keystroke_l	l	n/a
256.9245	0.106	513849	keystroke_a	a	n/a
257.7505	0.015	515501	keystroke_x	x	n/a
257.885	0.0755	515770	keystroke_y	y	n/a
258.1395	0.09	516279	keystroke_Key.enter	Key.enter	n/a
258.239	6.5185	516478	prompt	n/a	fiscal cameroon tonight public\n
258.9945	0.075	517989	keystroke_f	f	n/a
259.115	0.075	518230	keystroke_i	i	n/a
259.2955	0.0735	518591	keystroke_s	s	n/a
259.5805	0.075	519161	keystroke_c	c	n/a
259.8205	0.105	519641	keystroke_a	a	n/a
260	0.1055	520000	keystroke_l	l	n/a
260.1505	0.076	520301	keystroke_Key.space	Key.space	n/a
260.435	0.0895	520870	keystroke_c	c	n/a
260.84	0.105	521680	keystroke_a	a	n/a
261.125	0.09	522250	keystroke_m	m	n/a
261.32	0.06	522640	keystroke_e	e	n/a
261.5	0.075	523000	keystroke_r	r	n/a
261.695	0.045	523390	keystroke_o	o	n/a
261.83	0.075	523660	keystroke_o	o	n/a
261.935	0.105	523870	keystroke_n	n	n/a
262.085	0.075	524170	keystroke_Key.space	Key.space	n/a
262.3555	0.075	524711	keystroke_t	t	n/a
262.4755	0.075	524951	keystroke_o	o	n/a
262.64	0.075	525280	keystroke_n	n	n/a
262.7905	0.075	525581	keystroke_i	i	n/a
262.94	0.09	525880	keystroke_g	g	n/a
263.045	0.0905	526090	keystroke_h	h	n/a
263.166	0.074	526332	keystroke_t	t	n/a
263.33	0.06	526660	keystroke_Key.space	Key.space	n/a
263.5405	0.0605	527081	keystroke_p	p	n/a
263.72	0.0755	527440	keystroke_u	u	n/a
263.93	0.06	527860	keystroke_b	b	n/a
264.125	0.076	528250	keystroke_l	l	n/a
264.26	0.09	528520	keystroke_i	i	n/a
264.4105	0.074	528821	keystroke_c	c	n/a
264.665	0.09	529330	keystroke_Key.enter	Key.enter	n/a
264.7695	6.2115	529539	prompt	n/a	benefit cameras codes luther\n
265.6255	0.0595	531251	keystroke_b	b	n/a
265.79	0.06	531580	keystroke_e	e	n/a
265.9245	0.091	531849	keystroke_n	n	n/a
266.0755	0.059	532151	keystroke_e	e	n/a
266.285	0.0745	532570	keystroke_f	f	n/a
266.4205	0.075	532841	keystroke_i	i	n/a
266.7195	0.076	533439	keystroke_t	t	n/a
266.87	0.0895	533740	keystroke_Key.space	Key.space	n/a
267.1395	0.091	534279	keystroke_c	c	n/a
267.3345	0.105	534669	keystroke_a	a	n/a
267.695	0.0895	535390	keystroke_m	m	n/a
267.8895	0.06	535779	keystroke_e	e	n/a
268.0695	0.075	536139	keystroke_r	r	n/a
268.22	0.12	536440	keystroke_a	a	n/a
268.4755	0.074	536951	keystroke_s	s	n/a
268.6395	0.075	537279	keystroke_Key.space	Key.space	n/a
268.9405	0.075	537881	keystroke_c	c	n/a
269.0605	0.09	538121	keystroke_o	o	n/a
269.21	0.0755	538420	keystroke_d	d	n/a
269.3905	0.06	538781	keystroke_e	e	n/a
269.5855	0.09	539171	keystroke_s	s	n/a
269.7345	0.0755	539469	keystroke_Key.space	Key.space	n/a
269.9755	0.075	539951	keystroke_l	l	n/a
270.155	0.0755	540310	keystroke_u	u	n/a
270.3655	0.075	540731	keystroke_t	t	n/a
270.4705	0.09	540941	keystroke_h	h	n/a
270.5755	0.089	541151	keystroke_e	e	n/a
270.6505	0.09	541301	keystroke_r	r	n/a
270.9045	0.075	541809	keystroke_Key.enter	Key.enter	n/a
270.9845	10.0645	541969	prompt	n/a	expanded delays chevrolet movement\n
271.82	0.0755	543640	keystroke_e	e	n/a
272.075	0.105	544150	keystroke_x	x	n/a
272.345	0.105	544690	keystroke_p	p	n/a
272.54	0.1055	545080	keystroke_a	a	n/a
272.6595	0.106	545319	keystroke_n	n	n/a
272.8395	0.1055	545679	keystroke_d	d	n/a
273.035	0.0905	546070	keystroke_e	e	n/a
273.2	0.105	546400	keystroke_d	d	n/a
273.335	0.091	546670	keystroke_Key.space	Key.space	n/a
273.575	0.076	547150	keystroke_d	d	n/a
273.74	0.075	547480	keystroke_e	e	n/a
273.935	0.09	547870	keystroke_l	l	n/a
274.055	0.1205	548110	keystroke_a	a	n/a
274.205	0.075	548410	keystroke_y	y	n/a
274.4605	0.0895	548921	keystroke_s	s	n/a
274.625	0.0755	549250	keystroke_Key.space	Key.space	n/a
275.0155	0.0895	550031	keystroke_v	v	n/a
275.15	0.09	550300	keystroke_h	h	n/a
275.675	0.06	551350	keystroke_Key.backspace	Key.backspace	n/a
275.8105	0.0745	551621	keystroke_Key.backspace	Key.backspace	n/a
275.9755	0.0895	551951	keystroke_c	c	n/a
276.125	0.09	552250	keystroke_h	h	n/a
276.365	0.09	552730	keystroke_e	e	n/a
278.06	0.09	556120	keystroke_v	v	n/a
278.615	0.105	557230	keystroke_r	r	n/a
278.78	0.075	557560	keystroke_o	o	n/a
279.0505	0.1045	558101	keystroke_l	l	n/a
279.2005	0.0745	558401	keystroke_e	e	n/a
279.305	0.09	558610	keystroke_t	t	n/a
279.59	0.06	559180	keystroke_Key.space	Key.space	n/a
279.8005	0.0895	559601	keystroke_m	m	n/a
279.95	0.0895	559900	keystroke_o	o	n/a
280.1005	0.0895	560201	keystroke_v	v	n/a
280.28	0.0605	560560	keystroke_e	e	n/a
280.445	0.0895	560890	keystroke_m	m	n/a
280.565	0.09	561130	keystroke_e	e	n/a
280.6395	0.091	561279	keystroke_n	n	n/a
280.7455	0.075	561491	keystroke_t	t	n/a
280.9545	0.09	561909	keystroke_Key.enter	Key.enter	n/a
281.0535	10.043	562107	prompt	n/a	palace lincoln julie screensavers\n
281.75	0.09	563500	keystroke_p	p	n/a
282.02	0.1205	564040	keystroke_a	a	n/a
282.2905	0.0895	564581	keystroke_l	l	n/a
282.5	0.105	565000	keystroke_a	a	n/a
282.8755	0.0745	565751	keystroke_c	c	n/a
283.0705	0.0745	566141	keystroke_e	e	n/a
283.2045	0.091	566409	keystroke_Key.space	Key.space	n/a
283.4605	0.06	566921	keystroke_i	i	n/a
283.895	0.06	567790	keystroke_Key.backspace	Key.backspace	n/a
284.165	0.075	568330	keystroke_l	l	n/a
284.345	0.06	568690	keystroke_i	i	n/a
284.495	0.075	568990	keystroke_n	n	n/a
285.05	0.075	570100	keystroke_c	c	n/a
285.169	0.091	570338	keystroke_o	o	n/a
285.35	0.105	570700	keystroke_l	l	n/a
286.28	0.0605	572560	keystroke_n	n	n/a
286.5195	0.0605	573039	keystroke_Key.space	Key.space	n/a
286.8205	0.0595	573641	keystroke_j	j	n/a
287.0005	0.0595	574001	keystroke_u	u	n/a
287.2555	0.09	574511	keystroke_l	l	n/a
287.42	0.075	574840	keystroke_i	i	n/a
287.5555	0.09	575111	keystroke_e	e	n/a
287.675	0.076	575350	keystroke_Key.space	Key.space	n/a
288.0505	0.06	576101	keystroke_s	s	n/a
288.275	0.0905	576550	keystroke_c	c	n/a
288.5005	0.074	577001	keystroke_r	r	n/a
288.711	0.0595	577422	keystroke_e	e	n/a
288.875	0.061	577750	keystroke_e	e	n/a
288.951	0.0895	577902	keystroke_n	n	n/a
289.88	0.09	579760	keystroke_s	s	n/a
290.091	0.104	580182	keystroke_a	a	n/a
290.3	0.0895	580600	keystroke_v	v	n/a
290.4945	0.0755	580989	keystroke_e	e	n/a
290.586	0.089	581172	keystroke_r	r	n/a
290.795	0.075	581590	keystroke_s	s	n/a
291.02	0.075	582040	keystroke_Key.enter	Key.enter	n/a
291.101	6.431	582202	prompt	n/a	between sheer managing riverside\n
291.845	0.06	583690	keystroke_b	b	n/a
291.9955	0.06	583991	keystroke_e	e	n/a
292.146	0.074	584292	keystroke_t	t	n/a
292.3405	0.09	584681	keystroke_w	w	n/a
292.5355	0.06	585071	keystroke_e	e	n/a
292.6855	0.06	585371	keystroke_e	e	n/a
292.8805	0.074	585761	keystroke_n	n	n/a
293.06	0.06	586120	keystroke_Key.space	Key.space	n/a
293.2845	0.0915	586569	keystroke_s	s	n/a
293.4055	0.0895	586811	keystroke_h	h	n/a
293.5855	0.075	587171	keystroke_e	e	n/a
293.735	0.0745	587470	keystroke_e	e	n/a
293.8245	0.09	587649	keystroke_r	r	n/a
294.0345	0.06	588069	keystroke_Key.space	Key.space	n/a
294.275	0.09	588550	keystroke_m	m	n/a
294.41	0.12	588820	keystroke_a	a	n/a
294.5755	0.075	589151	keystroke_n	n	n/a
294.68	0.1045	589360	keystroke_a	a	n/a
294.861	0.0745	589722	keystroke_g	g	n/a
295.0845	0.136	590169	keystroke_i	i	n/a
295.1605	0.195	590321	keystroke_n	n	n/a
295.2805	0.1045	590561	keystroke_g	g	n/a
295.37	0.09	590740	keystroke_Key.space	Key.space	n/a
295.6105	0.135	591221	keystroke_r	r	n/a
295.9705	0.075	591941	keystroke_i	i	n/a
296.1795	0.0755	592359	keystroke_v	v	n/a
296.3455	0.0745	592691	keystroke_e	e	n/a
296.4215	0.104	592843	keystroke_r	r	n/a
296.885	0.075	593770	keystroke_s	s	n/a
296.9755	0.075	593951	keystroke_i	i	n/a
297.065	0.0905	594130	keystroke_d	d	n/a
297.2305	0.075	594461	keystroke_e	e	n/a
297.44	0.09	594880	keystroke_Key.enter	Key.enter	n/a
297.54	7.4465	595080	prompt	n/a	realtors reasoning coleman pics\n
298.2955	0.089	596591	keystroke_r	r	n/a
298.4145	0.075	596829	keystroke_e	e	n/a
298.5345	0.136	597069	keystroke_a	a	n/a
298.7755	0.09	597551	keystroke_l	l	n/a
299.135	0.09	598270	keystroke_t	t	n/a
299.39	0.0905	598780	keystroke_o	o	n/a
299.51	0.075	599020	keystroke_r	r	n/a
299.675	0.12	599350	keystroke_s	s	n/a
299.84	0.06	599680	keystroke_Key.space	Key.space	n/a
300.08	0.0895	600160	keystroke_r	r	n/a
300.2155	0.0745	600431	keystroke_e	e	n/a
300.3055	0.15	600611	keystroke_a	a	n/a
300.5745	0.075	601149	keystroke_s	s	n/a
300.7255	0.09	601451	keystroke_o	o	n/a
300.935	0.0755	601870	keystroke_n	n	n/a
301.1445	0.1205	602289	keystroke_i	i	n/a
301.2345	0.166	602469	keystroke_n	n	n/a
301.3255	0.0895	602651	keystroke_g	g	n/a
301.475	0.09	602950	keystroke_Key.space	Key.space	n/a
301.866	0.09	603732	keystroke_c	c	n/a
302.0155	0.075	604031	keystroke_o	o	n/a
302.1955	0.1045	604391	keystroke_l	l	n/a
302.36	0.0755	604720	keystroke_e	e	n/a
302.6595	0.09	605319	keystroke_m	m	n/a
302.8705	0.1195	605741	keystroke_a	a	n/a
303.0665	0.0735	606133	keystroke_n	n	n/a
303.995	0.0445	607990	keystroke_Key.space	Key.space	n/a
304.1745	0.0755	608349	keystroke_p	p	n/a
304.355	0.075	608710	keystroke_i	i	n/a
304.49	0.09	608980	keystroke_c	c	n/a
304.67	0.09	609340	keystroke_s	s	n/a
304.91	0.075	609820	keystroke_Key.enter	Key.enter	n/a
304.9905	7.4215	609981	prompt	n/a	pursuant duplicate margin verizon\n
305.7655	0.089	611531	keystroke_p	p	n/a
305.9605	0.075	611921	keystroke_u	u	n/a
306.0645	0.075	612129	keystroke_r	r	n/a
306.47	0.09	612940	keystroke_s	s	n/a
306.6655	0.0745	613331	keystroke_u	u	n/a
306.9795	0.106	613959	keystroke_a	a	n/a
307.1155	0.074	614231	keystroke_n	n	n/a
307.2355	0.09	614471	keystroke_t	t	n/a
307.3855	0.0745	614771	keystroke_Key.space	Key.space	n/a
307.895	0.09	615790	keystroke_d	d	n/a
308.0455	0.075	616091	keystroke_u	u	n/a
308.195	0.105	616390	keystroke_p	p	n/a
308.4495	0.075	616899	keystroke_l	l	n/a
308.6145	0.06	617229	keystroke_i	i	n/a
308.7795	0.045	617559	keystroke_c	c	n/a
308.8695	0.135	617739	keystroke_a	a	n/a
308.975	0.105	617950	keystroke_t	t	n/a
309.0945	0.075	618189	keystroke_e	e	n/a
309.305	0.0605	618610	keystroke_Key.space	Key.space	n/a
309.5155	0.09	619031	keystroke_m	m	n/a
309.6505	0.135	619301	keystroke_a	a	n/a
309.7405	0.105	619481	keystroke_r	r	n/a
310.055	0.0755	620110	keystroke_g	g	n/a
310.1455	0.12	620291	keystroke_i	i	n/a
310.2355	0.165	620471	keystroke_n	n	n/a
310.4145	0.06	620829	keystroke_Key.space	Key.space	n/a
310.6555	0.089	621311	keystroke_v	v	n/a
310.8505	0.074	621701	keystroke_e	e	n/a
310.91	0.0895	621820	keystroke_r	r	n/a
311.3155	0.074	622631	keystroke_i	i	n/a
311.7355	0.12	623471	keystroke_z	z	n/a
311.8855	0.105	623771	keystroke_o	o	n/a
312.0205	0.09	624041	keystroke_n	n	n/a
312.3195	0.091	624639	keystroke_Key.enter	Key.enter	n/a
312.4165	7.9005	624833	prompt	n/a	backup geneva routines served\n
313.1595	0.06	626319	keystroke_b	b	n/a
313.25	0.0905	626500	keystroke_a	a	n/a
313.4445	0.075	626889	keystroke_c	c	n/a
313.5345	0.105	627069	keystroke_k	k	n/a
313.76	0.0755	627520	keystroke_u	u	n/a
313.8795	0.09	627759	keystroke_p	p	n/a
314.0305	0.0595	628061	keystroke_Key.space	Key.space	n/a
314.2395	0.09	628479	keystroke_g	g	n/a
314.435	0.0895	628870	keystroke_e	e	n/a
314.6145	0.09	629229	keystroke_n	n	n/a
314.75	0.075	629500	keystroke_e	e	n/a
314.8995	0.0755	629799	keystroke_r	r	n/a
315.5595	0.075	631119	keystroke_Key.backspace	Key.backspace	n/a
316.1745	0.076	632349	keystroke_v	v	n/a
316.3555	0.105	632711	keystroke_a	a	n/a
316.9245	0.0455	633849	keystroke_Key.space	Key.space	n/a
317.4505	0.06	634901	keystroke_r	r	n/a
317.5255	0.12	635051	keystroke_o	o	n/a
317.6155	0.12	635231	keystroke_u	u	n/a
317.84	0.075	635680	keystroke_t	t	n/a
318.0955	0.0595	636191	keystroke_i	i	n/a
318.215	0.1045	636430	keystroke_n	n	n/a
318.3955	0.075	636791	keystroke_e	e	n/a
318.59	0.09	637180	keystroke_s	s	n/a
318.71	0.075	637420	keystroke_Key.space	Key.space	n/a
318.9805	0.075	637961	keystroke_s	s	n/a
319.1455	0.09	638291	keystroke_e	e	n/a
319.22	0.1045	638440	keystroke_r	r	n/a
319.4745	0.091	638949	keystroke_v	v	n/a
319.8205	0.09	639641	keystroke_e	e	n/a
320.03	0.09	640060	keystroke_d	d	n/a
320.225	0.09	640450	keystroke_Key.enter	Key.enter	n/a
320.321	4.9605	640642	prompt	n/a	store states tested trips\n
321.0205	0.075	642041	keystroke_s	s	n/a
321.17	0.075	642340	keystroke_t	t	n/a
321.3055	0.0745	642611	keystroke_o	o	n/a
321.485	0.105	642970	keystroke_r	r	n/a
321.576	0.089	643152	keystroke_e	e	n/a
321.814	0.091	643628	keystroke_Key.space	Key.space	n/a
321.9945	0.105	643989	keystroke_s	s	n/a
322.145	0.0755	644290	keystroke_t	t	n/a
322.2505	0.12	644501	keystroke_a	a	n/a
322.3395	0.076	644679	keystroke_t	t	n/a
322.4905	0.09	644981	keystroke_e	e	n/a
322.685	0.0755	645370	keystroke_s	s	n/a
322.805	0.076	645610	keystroke_Key.space	Key.space	n/a
323.0455	0.0895	646091	keystroke_t	t	n/a
323.196	0.074	646392	keystroke_e	e	n/a
323.3455	0.09	646691	keystroke_s	s	n/a
323.48	0.075	646960	keystroke_t	t	n/a
323.6605	0.075	647321	keystroke_e	e	n/a
323.8255	0.09	647651	keystroke_d	d	n/a
323.945	0.075	647890	keystroke_Key.space	Key.space	n/a
324.2445	0.0755	648489	keystroke_t	t	n/a
324.4105	0.075	648821	keystroke_r	r	n/a
324.53	0.075	649060	keystroke_i	i	n/a
324.6645	0.091	649329	keystroke_p	p	n/a
324.8755	0.089	649751	keystroke_s	s	n/a
325.19	0.09	650380	keystroke_Key.enter	Key.enter	n/a
325.2895	11.978	650579	prompt	n/a	ticket batteries louisville penguin\n
326.1345	0.09	652269	keystroke_t	t	n/a
326.2995	0.076	652599	keystroke_i	i	n/a
326.5245	0.076	653049	keystroke_c	c	n/a
326.6155	0.0895	653231	keystroke_k	k	n/a
326.795	0.0905	653590	keystroke_e	e	n/a
326.9005	0.0895	653801	keystroke_t	t	n/a
327.094	0.0765	654188	keystroke_Key.space	Key.space	n/a
327.396	0.074	654792	keystroke_b	b	n/a
327.56	0.105	655120	keystroke_a	a	n/a
327.77	0.06	655540	keystroke_t	t	n/a
327.92	0.075	655840	keystroke_t	t	n/a
328.1155	0.0895	656231	keystroke_e	e	n/a
328.1905	0.1045	656381	keystroke_r	r	n/a
328.6555	0.0745	657311	keystroke_i	i	n/a
328.82	0.0605	657640	keystroke_e	e	n/a
328.925	0.1205	657850	keystroke_s	s	n/a
329.075	0.075	658150	keystroke_Key.space	Key.space	n/a
329.27	0.105	658540	keystroke_l	l	n/a
329.54	0.105	659080	keystroke_o	o	n/a
329.6155	0.1345	659231	keystroke_u	u	n/a
331.9715	0.0135	663943	keystroke_i	i	n/a
332.1945	0.061	664389	keystroke_s	s	n/a
332.6155	0.09	665231	keystroke_v	v	n/a
332.855	0.0905	665710	keystroke_e	e	n/a
333.6055	0.0735	667211	keystroke_Key.backspace	Key.backspace	n/a
333.8155	0.0745	667631	keystroke_i	i	n/a
334.0255	0.06	668051	keystroke_l	l	n/a
334.16	0.0605	668320	keystroke_l	l	n/a
334.2795	0.0905	668559	keystroke_e	e	n/a
334.384	0.0905	668768	keystroke_Key.space	Key.space	n/a
334.76	0.09	669520	keystroke_p	p	n/a
334.9405	0.0745	669881	keystroke_e	e	n/a
335.3155	0.0745	670631	keystroke_n	n	n/a
335.7795	0.0755	671559	keystroke_g	g	n/a
336.305	0.0605	672610	keystroke_u	u	n/a
336.4555	0.09	672911	keystroke_i	i	n/a
336.8455	0.06	673691	keystroke_n	n	n/a
337.2045	0.0605	674409	keystroke_Key.enter	Key.enter	n/a
337.279	5.0575	674558	prompt	n/a	matters stuck can regulated\n
338	0.09	676000	keystroke_m	m	n/a
338.12	0.09	676240	keystroke_a	a	n/a
338.27	0.075	676540	keystroke_t	t	n/a
338.421	0.074	676842	keystroke_t	t	n/a
338.5545	0.09	677109	keystroke_e	e	n/a
338.6295	0.105	677259	keystroke_r	r	n/a
338.7805	0.134	677561	keystroke_s	s	n/a
338.945	0.0745	677890	keystroke_Key.space	Key.space	n/a
339.1545	0.0905	678309	keystroke_s	s	n/a
339.3045	0.0605	678609	keystroke_t	t	n/a
339.425	0.075	678850	keystroke_u	u	n/a
339.6205	0.09	679241	keystroke_c	c	n/a
339.7245	0.076	679449	keystroke_k	k	n/a
339.8145	0.09	679629	keystroke_Key.space	Key.space	n/a
340.085	0.1205	680170	keystroke_c	c	n/a
340.2195	0.105	680439	keystroke_a	a	n/a
340.34	0.105	680680	keystroke_n	n	n/a
340.4595	0.075	680919	keystroke_Key.space	Key.space	n/a
340.6405	0.089	681281	keystroke_r	r	n/a
340.7305	0.105	681461	keystroke_e	e	n/a
341.2105	0.0745	682421	keystroke_g	g	n/a
341.3	0.0755	682600	keystroke_u	u	n/a
341.5545	0.1055	683109	keystroke_l	l	n/a
341.675	0.1045	683350	keystroke_a	a	n/a
341.7345	0.1055	683469	keystroke_t	t	n/a
341.885	0.0745	683770	keystroke_e	e	n/a
342.0505	0.075	684101	keystroke_d	d	n/a
342.26	0.075	684520	keystroke_Key.enter	Key.enter	n/a
342.3415	9.3705	684683	prompt	n/a	referred blvd petersburg coming\n
343.0255	0.075	686051	keystroke_r	r	n/a
343.1155	0.09	686231	keystroke_e	e	n/a
343.295	0.0905	686590	keystroke_f	f	n/a
343.4755	0.075	686951	keystroke_e	e	n/a
343.5505	0.089	687101	keystroke_r	r	n/a
343.82	0.075	687640	keystroke_r	r	n/a
344.045	0.0755	688090	keystroke_e	e	n/a
344.1955	0.0895	688391	keystroke_d	d	n/a
344.315	0.075	688630	keystroke_Key.space	Key.space	n/a
344.5255	0.059	689051	keystroke_b	b	n/a
344.6905	0.1045	689381	keystroke_l	l	n/a
345.575	0.09	691150	keystroke_c	c	n/a
346.175	0.0595	692350	keystroke_Key.backspace	Key.backspace	n/a
346.5945	0.061	693189	keystroke_v	v	n/a
346.8505	0.104	693701	keystroke_d	d	n/a
347.0595	0.09	694119	keystroke_Key.space	Key.space	n/a
347.525	0.12	695050	keystroke_p	p	n/a
347.87	0.0755	695740	keystroke_e	e	n/a
348.1555	0.0895	696311	keystroke_t	t	n/a
348.41	0.0905	696820	keystroke_e	e	n/a
348.56	0.075	697120	keystroke_r	r	n/a
349.085	0.09	698170	keystroke_s	s	n/a
349.7155	0.075	699431	keystroke_b	b	n/a
349.835	0.0905	699670	keystroke_u	u	n/a
349.955	0.09	699910	keystroke_r	r	n/a
350.2105	0.075	700421	keystroke_g	g	n/a
350.48	0.06	700960	keystroke_Key.space	Key.space	n/a
350.825	0.075	701650	keystroke_c	c	n/a
350.945	0.105	701890	keystroke_o	o	n/a
351.036	0.1045	702072	keystroke_m	m	n/a
351.245	0.1345	702490	keystroke_i	i	n/a
351.3205	0.1645	702641	keystroke_n	n	n/a
351.4545	0.09	702909	keystroke_g	g	n/a
351.605	0.105	703210	keystroke_Key.enter	Key.enter	n/a
351.7165	5.815	703433	prompt	n/a	incurred tanks refers mice\n
352.4605	0.0595	704921	keystroke_i	i	n/a
352.58	0.09	705160	keystroke_n	n	n/a
352.85	0.09	705700	keystroke_c	c	n/a
353.0905	0.074	706181	keystroke_u	u	n/a
353.285	0.0605	706570	keystroke_r	r	n/a
353.435	0.075	706870	keystroke_r	r	n/a
353.585	0.0755	707170	keystroke_e	e	n/a
353.78	0.0895	707560	keystroke_d	d	n/a
353.9295	0.06	707859	keystroke_Key.space	Key.space	n/a
354.185	0.0745	708370	keystroke_t	t	n/a
354.3195	0.1055	708639	keystroke_a	a	n/a
354.44	0.09	708880	keystroke_n	n	n/a
354.875	0.075	709750	keystroke_k	k	n/a
355.115	0.0755	710230	keystroke_s	s	n/a
355.3695	0.015	710739	keystroke_Key.space	Key.space	n/a
355.5205	0.09	711041	keystroke_r	r	n/a
355.6255	0.075	711251	keystroke_e	e	n/a
355.8045	0.0755	711609	keystroke_f	f	n/a
355.9705	0.074	711941	keystroke_e	e	n/a
356.0305	0.135	712061	keystroke_r	r	n/a
356.3145	0.091	712629	keystroke_s	s	n/a
356.4805	0.0745	712961	keystroke_Key.space	Key.space	n/a
356.66	0.0755	713320	keystroke_m	m	n/a
356.78	0.075	713560	keystroke_i	i	n/a
356.9005	0.0905	713801	keystroke_c	c	n/a
357.185	0.075	714370	keystroke_e	e	n/a
357.425	0.1045	714850	keystroke_Key.enter	Key.enter	n/a
357.542	6.0645	715084	prompt	n/a	opening ways anderson department\n
358.3105	0.075	716621	keystroke_o	o	n/a
358.4145	0.1055	716829	keystroke_p	p	n/a
358.58	0.0745	717160	keystroke_e	e	n/a
358.6855	0.075	717371	keystroke_n	n	n/a
358.8655	0.135	717731	keystroke_i	i	n/a
358.9255	0.195	717851	keystroke_n	n	n/a
359.0455	0.12	718091	keystroke_g	g	n/a
359.1505	0.09	718301	keystroke_Key.space	Key.space	n/a
359.405	0.0905	718810	keystroke_w	w	n/a
359.5405	0.12	719081	keystroke_a	a	n/a
359.6755	0.105	719351	keystroke_y	y	n/a
359.8255	0.09	719651	keystroke_s	s	n/a
359.9595	0.0755	719919	keystroke_Key.space	Key.space	n/a
360.3495	0.121	720699	keystroke_a	a	n/a
360.5595	0.0755	721119	keystroke_n	n	n/a
360.7545	0.091	721509	keystroke_d	d	n/a
360.9505	0.105	721901	keystroke_e	e	n/a
361.0405	0.104	722081	keystroke_r	r	n/a
361.3105	0.105	722621	keystroke_s	s	n/a
361.445	0.075	722890	keystroke_o	o	n/a
361.6105	0.0745	723221	keystroke_n	n	n/a
361.88	0.075	723760	keystroke_Key.space	Key.space	n/a
362.1205	0.075	724241	keystroke_d	d	n/a
362.3005	0.045	724601	keystroke_e	e	n/a
362.4055	0.12	724811	keystroke_p	p	n/a
362.5405	0.134	725081	keystroke_a	a	n/a
362.6305	0.1195	725261	keystroke_r	r	n/a
362.885	0.06	725770	keystroke_t	t	n/a
363.035	0.09	726070	keystroke_m	m	n/a
363.14	0.075	726280	keystroke_e	e	n/a
363.23	0.09	726460	keystroke_n	n	n/a
363.335	0.075	726670	keystroke_t	t	n/a
363.5145	0.09	727029	keystroke_Key.enter	Key.enter	n/a
363.611	7.5705	727222	prompt	n/a	noon expires detection verify\n
364.4905	0.075	728981	keystroke_n	n	n/a
364.9105	0.06	729821	keystroke_o	o	n/a
365.0305	0.06	730061	keystroke_o	o	n/a
365.1655	0.09	730331	keystroke_n	n	n/a
365.4355	0.075	730871	keystroke_Key.space	Key.space	n/a
365.676	0.0745	731352	keystroke_e	e	n/a
365.9155	0.1045	731831	keystroke_x	x	n/a
366.1555	0.1045	732311	keystroke_p	p	n/a
366.7845	0.0155	733569	keystroke_i	i	n/a
366.9505	0.0905	733901	keystroke_r	r	n/a
367.1305	0.075	734261	keystroke_e	e	n/a
367.4155	0.105	734831	keystroke_s	s	n/a
367.58	0.09	735160	keystroke_Key.space	Key.space	n/a
367.9405	0.089	735881	keystroke_d	d	n/a
368.1355	0.0595	736271	keystroke_e	e	n/a
368.3	0.075	736600	keystroke_t	t	n/a
368.6	0.0905	737200	keystroke_c	c	n/a
368.81	0.06	737620	keystroke_t	t	n/a
368.975	0.1055	737950	keystroke_i	i	n/a
369.0505	0.1495	738101	keystroke_o	o	n/a
369.1555	0.15	738311	keystroke_n	n	n/a
369.425	0.06	738850	keystroke_Key.space	Key.space	n/a
369.756	0.0895	739512	keystroke_v	v	n/a
370.1745	0.0755	740349	keystroke_e	e	n/a
370.505	0.075	741010	keystroke_r	r	n/a
370.61	0.0755	741220	keystroke_i	i	n/a
370.73	0.09	741460	keystroke_f	f	n/a
370.8355	0.0595	741671	keystroke_y	y	n/a
371.09	0.0895	742180	keystroke_Key.enter	Key.enter	n/a
371.185	8.187	742370	prompt	n/a	kelkoo bottle yields grenada\n
371.9595	0.06	743919	keystroke_k	k	n/a
372.5	0.075	745000	keystroke_i	i	n/a
372.89	0.0905	745780	keystroke_l	l	n/a
373.415	0.045	746830	keystroke_k	k	n/a
373.73	0.0455	747460	keystroke_o	o	n/a
373.8505	0.075	747701	keystroke_o	o	n/a
374.1805	0.074	748361	keystroke_Key.space	Key.space	n/a
374.511	0.074	749022	keystroke_b	b	n/a
374.66	0.06	749320	keystroke_o	o	n/a
374.8405	0.0595	749681	keystroke_t	t	n/a
375.066	0.014	750132	keystroke_t	t	n/a
375.2	0.12	750400	keystroke_l	l	n/a
375.35	0.075	750700	keystroke_e	e	n/a
375.47	0.075	750940	keystroke_Key.space	Key.space	n/a
375.8295	0.091	751659	keystroke_y	y	n/a
376.1155	0.074	752231	keystroke_i	i	n/a
376.2655	0.075	752531	keystroke_e	e	n/a
376.4005	0.135	752801	keystroke_l	l	n/a
376.5505	0.09	753101	keystroke_d	d	n/a
376.7155	0.074	753431	keystroke_s	s	n/a
376.8655	0.075	753731	keystroke_Key.space	Key.space	n/a
377.54	0.09	755080	keystroke_g	g	n/a
377.7505	0.0905	755501	keystroke_r	r	n/a
377.9155	0.075	755831	keystroke_e	e	n/a
378.275	0.0745	756550	keystroke_n	n	n/a
378.6055	0.104	757211	keystroke_a	a	n/a
378.9195	0.076	757839	keystroke_d	d	n/a
379.0405	0.105	758081	keystroke_a	a	n/a
379.2795	0.09	758559	keystroke_Key.enter	Key.enter	n/a
379.3765	5.5905	758753	prompt	n/a	barrel pocket threads yield\n
380.0595	0.076	760119	keystroke_b	b	n/a
380.1805	0.1205	760361	keystroke_a	a	n/a
380.3755	0.0605	760751	keystroke_r	r	n/a
380.526	0.059	761052	keystroke_r	r	n/a
380.6905	0.06	761381	keystroke_e	e	n/a
380.8095	0.121	761619	keystroke_l	l	n/a
380.9605	0.074	761921	keystroke_Key.space	Key.space	n/a
381.2155	0.075	762431	keystroke_p	p	n/a
381.3805	0.074	762761	keystroke_o	o	n/a
381.5455	0.09	763091	keystroke_c	c	n/a
381.6505	0.0745	763301	keystroke_k	k	n/a
381.7705	0.06	763541	keystroke_e	e	n/a
381.8605	0.105	763721	keystroke_t	t	n/a
381.9955	0.075	763991	keystroke_Key.space	Key.space	n/a
382.2655	0.0895	764531	keystroke_t	t	n/a
382.3845	0.0905	764769	keystroke_h	h	n/a
382.58	0.105	765160	keystroke_r	r	n/a
382.7305	0.09	765461	keystroke_e	e	n/a
382.985	0.1055	765970	keystroke_a	a	n/a
383.21	0.105	766420	keystroke_d	d	n/a
383.42	0.09	766840	keystroke_s	s	n/a
383.615	0.06	767230	keystroke_Key.space	Key.space	n/a
383.825	0.075	767650	keystroke_y	y	n/a
384.095	0.0905	768190	keystroke_i	i	n/a
384.2755	0.0595	768551	keystroke_e	e	n/a
384.6055	0.0895	769211	keystroke_l	l	n/a
384.755	0.075	769510	keystroke_d	d	n/a
384.875	0.09	769750	keystroke_Key.enter	Key.enter	n/a
384.9795	7.652	769959	prompt	n/a	shell cottages spanking html\n
385.761	0.089	771522	keystroke_s	s	n/a
385.88	0.09	771760	keystroke_h	h	n/a
386.03	0.075	772060	keystroke_e	e	n/a
386.285	0.0605	772570	keystroke_l	l	n/a
386.3905	0.09	772781	keystroke_l	l	n/a
386.51	0.0755	773020	keystroke_Key.space	Key.space	n/a
386.69	0.09	773380	keystroke_c	c	n/a
386.81	0.0905	773620	keystroke_o	o	n/a
387.035	0.06	774070	keystroke_t	t	n/a
387.155	0.075	774310	keystroke_t	t	n/a
387.306	0.119	774612	keystroke_a	a	n/a
387.3955	0.12	774791	keystroke_g	g	n/a
387.5	0.1055	775000	keystroke_e	e	n/a
387.6645	0.121	775329	keystroke_s	s	n/a
387.9045	0.061	775809	keystroke_Key.space	Key.space	n/a
388.1605	0.119	776321	keystroke_a	a	n/a
388.415	0.09	776830	keystroke_p	p	n/a
389.495	0.06	778990	keystroke_Key.backspace	Key.backspace	n/a
389.645	0.06	779290	keystroke_Key.backspace	Key.backspace	n/a
389.856	0.089	779712	keystroke_s	s	n/a
390.1255	0.09	780251	keystroke_p	p	n/a
390.47	0.1055	780940	keystroke_a	a	n/a
390.605	0.075	781210	keystroke_n	n	n/a
390.755	0.075	781510	keystroke_k	k	n/a
390.9505	0.1495	781901	keystroke_i	i	n/a
391.0405	0.1645	782081	keystroke_n	n	n/a
391.1605	0.1195	782321	keystroke_g	g	n/a
391.265	0.075	782530	keystroke_Key.space	Key.space	n/a
391.58	0.0755	783160	keystroke_h	h	n/a
391.7605	0.0745	783521	keystroke_t	t	n/a
392.1055	0.0595	784211	keystroke_m	m	n/a
392.3305	0.074	784661	keystroke_l	l	n/a
392.555	0.0745	785110	keystroke_Key.enter	Key.enter	n/a
392.636	7.363	785272	prompt	n/a	mike jill everyone's church\n
393.5005	0.09	787001	keystroke_m	m	n/a
393.74	0.075	787480	keystroke_i	i	n/a
394.1895	0.0605	788379	keystroke_k	k	n/a
394.3405	0.075	788681	keystroke_e	e	n/a
394.459	0.106	788918	keystroke_Key.space	Key.space	n/a
394.925	0.09	789850	keystroke_j	j	n/a
395.0755	0.0745	790151	keystroke_i	i	n/a
395.3	0.075	790600	keystroke_l	l	n/a
395.435	0.0905	790870	keystroke_l	l	n/a
395.5705	0.09	791141	keystroke_Key.space	Key.space	n/a
395.7355	0.075	791471	keystroke_e	e	n/a
395.8855	0.09	791771	keystroke_v	v	n/a
396.0355	0.09	792071	keystroke_e	e	n/a
396.1105	0.105	792221	keystroke_r	r	n/a
396.245	0.09	792490	keystroke_y	y	n/a
396.6655	0.12	793331	keystroke_o	o	n/a
396.7555	0.1345	793511	keystroke_n	n	n/a
396.9355	0.0745	793871	keystroke_e	e	n/a
397.8195	0.076	795639	keystroke_'	'	n/a
397.9545	0.105	795909	keystroke_s	s	n/a
398.1045	0.0755	796209	keystroke_Key.space	Key.space	n/a
398.6305	0.09	797261	keystroke_c	c	n/a
398.7355	0.075	797471	keystroke_h	h	n/a
399.2145	0.0145	798429	keystroke_u	u	n/a
399.3045	0.06	798609	keystroke_r	r	n/a
399.56	0.075	799120	keystroke_c	c	n/a
399.665	0.0755	799330	keystroke_h	h	n/a
399.905	0.09	799810	keystroke_Key.enter	Key.enter	n/a
400.0035	9.068	800007	prompt	n/a	experience sealed tracks americans\n
400.7605	0.0745	801521	keystroke_e	e	n/a
401.0155	0.0745	802031	keystroke_x	x	n/a
401.24	0.09	802480	keystroke_p	p	n/a
401.75	0.075	803500	keystroke_e	e	n/a
402.1095	0.0905	804219	keystroke_r	r	n/a
402.2755	0.09	804551	keystroke_i	i	n/a
402.5895	0.0755	805179	keystroke_e	e	n/a
402.71	0.0895	805420	keystroke_n	n	n/a
402.8155	0.104	805631	keystroke_c	c	n/a
402.995	0.0745	805990	keystroke_e	e	n/a
403.1305	0.0895	806261	keystroke_Key.space	Key.space	n/a
403.3555	0.0895	806711	keystroke_s	s	n/a
403.5055	0.0745	807011	keystroke_e	e	n/a
403.6395	0.1055	807279	keystroke_a	a	n/a
403.8205	0.1045	807641	keystroke_l	l	n/a
404.03	0.075	808060	keystroke_e	e	n/a
404.33	0.06	808660	keystroke_Key.space	Key.space	n/a
404.54	0.0755	809080	keystroke_t	t	n/a
404.7055	0.075	809411	keystroke_r	r	n/a
404.855	0.0905	809710	keystroke_a	a	n/a
405.1545	0.0905	810309	keystroke_c	c	n/a
405.5455	0.075	811091	keystroke_k	k	n/a
405.9955	0.0895	811991	keystroke_s	s	n/a
406.235	0.0755	812470	keystroke_Key.space	Key.space	n/a
406.475	0.105	812950	keystroke_a	a	n/a
406.67	0.0905	813340	keystroke_m	m	n/a
406.8655	0.09	813731	keystroke_e	e	n/a
406.9405	0.105	813881	keystroke_r	r	n/a
407.2555	0.075	814511	keystroke_i	i	n/a
407.6005	0.09	815201	keystroke_c	c	n/a
408.065	0.12	816130	keystroke_a	a	n/a
408.2755	0.09	816551	keystroke_n	n	n/a
408.725	0.09	817450	keystroke_s	s	n/a
408.98	0.09	817960	keystroke_Key.enter	Key.enter	n/a
409.078	7.959	818156	prompt	n/a	bytes gorgeous nationwide starring\n
410.0155	0.075	820031	keystroke_b	b	n/a
410.1495	0.076	820299	keystroke_y	y	n/a
410.4345	0.076	820869	keystroke_t	t	n/a
410.585	0.0755	821170	keystroke_e	e	n/a
410.7655	0.075	821531	keystroke_s	s	n/a
410.8855	0.089	821771	keystroke_Key.space	Key.space	n/a
411.2905	0.09	822581	keystroke_g	g	n/a
411.4405	0.075	822881	keystroke_o	o	n/a
411.6205	0.0745	823241	keystroke_r	r	n/a
411.905	0.0755	823810	keystroke_g	g	n/a
412.0545	0.075	824109	keystroke_e	e	n/a
412.625	0.1055	825250	keystroke_o	o	n/a
412.715	0.135	825430	keystroke_u	u	n/a
413.045	0.12	826090	keystroke_s	s	n/a
413.21	0.0745	826420	keystroke_Key.space	Key.space	n/a
413.4345	0.076	826869	keystroke_n	n	n/a
413.5855	0.1045	827171	keystroke_a	a	n/a
413.735	0.0905	827470	keystroke_t	t	n/a
413.8405	0.09	827681	keystroke_i	i	n/a
413.8995	0.151	827799	keystroke_o	o	n/a
414.0195	0.166	828039	keystroke_n	n	n/a
414.8305	0.0895	829661	keystroke_w	w	n/a
414.935	0.075	829870	keystroke_i	i	n/a
415.04	0.089	830080	keystroke_d	d	n/a
415.2055	0.075	830411	keystroke_e	e	n/a
415.3405	0.075	830681	keystroke_Key.space	Key.space	n/a
415.5505	0.09	831101	keystroke_s	s	n/a
415.6995	0.091	831399	keystroke_t	t	n/a
415.8505	0.134	831701	keystroke_a	a	n/a
416.0305	0.075	832061	keystroke_r	r	n/a
416.1805	0.09	832361	keystroke_r	r	n/a
416.54	0.1205	833080	keystroke_i	i	n/a
416.615	0.1655	833230	keystroke_n	n	n/a
416.735	0.105	833470	keystroke_g	g	n/a
416.945	0.09	833890	keystroke_Key.enter	Key.enter	n/a
417.048	7.1135	834096	prompt	n/a	myanmar alike fire organizer\n
417.815	0.09	835630	keystroke_m	m	n/a
418.4305	0.015	836861	keystroke_y	y	n/a
418.775	0.03	837550	keystroke_a	a	n/a
419.0155	0.1045	838031	keystroke_n	n	n/a
419.4495	0.091	838899	keystroke_m	m	n/a
419.6005	0.12	839201	keystroke_a	a	n/a
419.6905	0.104	839381	keystroke_r	r	n/a
419.8995	0.075	839799	keystroke_Key.space	Key.space	n/a
420.0955	0.119	840191	keystroke_a	a	n/a
420.47	0.0745	840940	keystroke_l	l	n/a
420.6645	0.06	841329	keystroke_i	i	n/a
420.8	0.0895	841600	keystroke_k	k	n/a
420.935	0.0895	841870	keystroke_e	e	n/a
421.04	0.0745	842080	keystroke_Key.space	Key.space	n/a
421.31	0.0745	842620	keystroke_f	f	n/a
421.4145	0.091	842829	keystroke_i	i	n/a
421.5205	0.0745	843041	keystroke_r	r	n/a
421.685	0.075	843370	keystroke_e	e	n/a
421.94	0.0605	843880	keystroke_Key.space	Key.space	n/a
422.2555	0.09	844511	keystroke_o	o	n/a
422.4195	0.091	844839	keystroke_r	r	n/a
422.7055	0.06	845411	keystroke_g	g	n/a
422.885	0.0905	845770	keystroke_a	a	n/a
423.05	0.0605	846100	keystroke_n	n	n/a
423.17	0.09	846340	keystroke_i	i	n/a
423.35	0.089	846700	keystroke_z	z	n/a
423.755	0.091	847510	keystroke_e	e	n/a
423.83	0.09	847660	keystroke_r	r	n/a
424.084	0.0755	848168	keystroke_Key.enter	Key.enter	n/a
424.1675	5.799	848335	prompt	n/a	trees now ease february\n
424.865	0.0745	849730	keystroke_t	t	n/a
425.046	0.074	850092	keystroke_r	r	n/a
425.2555	0.0595	850511	keystroke_e	e	n/a
425.42	0.06	850840	keystroke_e	e	n/a
425.54	0.09	851080	keystroke_s	s	n/a
425.69	0.06	851380	keystroke_Key.space	Key.space	n/a
425.915	0.0755	851830	keystroke_n	n	n/a
426.065	0.09	852130	keystroke_o	o	n/a
426.17	0.09	852340	keystroke_w	w	n/a
426.275	0.0745	852550	keystroke_Key.space	Key.space	n/a
426.5445	0.075	853089	keystroke_e	e	n/a
426.7095	0.1205	853419	keystroke_a	a	n/a
426.9045	0.09	853809	keystroke_s	s	n/a
427.07	0.0755	854140	keystroke_e	e	n/a
427.205	0.0745	854410	keystroke_Key.space	Key.space	n/a
427.4455	0.075	854891	keystroke_f	f	n/a
427.67	0.06	855340	keystroke_e	e	n/a
427.9395	0.075	855879	keystroke_b	b	n/a
428.165	0.0755	856330	keystroke_u	u	n/a
428.51	0.06	857020	keystroke_Key.backspace	Key.backspace	n/a
428.69	0.075	857380	keystroke_r	r	n/a
428.825	0.0905	857650	keystroke_u	u	n/a
429.29	0.0755	858580	keystroke_a	a	n/a
429.455	0.091	858910	keystroke_r	r	n/a
429.56	0.09	859120	keystroke_y	y	n/a
429.8595	0.1055	859719	keystroke_Key.enter	Key.enter	n/a
429.9705	6.506	859941	prompt	n/a	realtors packs felt recover\n
430.6845	0.091	861369	keystroke_r	r	n/a
430.8055	0.09	861611	keystroke_e	e	n/a
430.9405	0.1045	861881	keystroke_a	a	n/a
431.795	0.1055	863590	keystroke_l	l	n/a
432.11	0.0895	864220	keystroke_t	t	n/a
432.3805	0.0745	864761	keystroke_o	o	n/a
432.5	0.075	865000	keystroke_r	r	n/a
432.6655	0.09	865331	keystroke_s	s	n/a
432.8	0.075	865600	keystroke_Key.space	Key.space	n/a
433.34	0.09	866680	keystroke_p	p	n/a
433.46	0.075	866920	keystroke_a	a	n/a
433.61	0.105	867220	keystroke_c	c	n/a
433.73	0.09	867460	keystroke_k	k	n/a
434.016	0.1045	868032	keystroke_s	s	n/a
434.165	0.075	868330	keystroke_Key.space	Key.space	n/a
434.3905	0.0895	868781	keystroke_f	f	n/a
434.556	0.0745	869112	keystroke_e	e	n/a
434.7205	0.105	869441	keystroke_l	l	n/a
434.8705	0.075	869741	keystroke_t	t	n/a
435.02	0.0595	870040	keystroke_Key.space	Key.space	n/a
435.23	0.1055	870460	keystroke_r	r	n/a
435.4255	0.0595	870851	keystroke_e	e	n/a
435.68	0.09	871360	keystroke_c	c	n/a
435.8	0.105	871600	keystroke_o	o	n/a
435.92	0.075	871840	keystroke_v	v	n/a
436.07	0.075	872140	keystroke_e	e	n/a
436.13	0.09	872260	keystroke_r	r	n/a
436.385	0.0895	872770	keystroke_Key.enter	Key.enter	n/a
436.484	7.312	872968	prompt	n/a	german casa andrea surprise\n
437.3305	0.0745	874661	keystroke_g	g	n/a
437.48	0.09	874960	keystroke_e	e	n/a
437.571	0.1045	875142	keystroke_r	r	n/a
437.75	0.105	875500	keystroke_m	m	n/a
437.87	0.1045	875740	keystroke_a	a	n/a
437.9595	0.075	875919	keystroke_n	n	n/a
438.05	0.0745	876100	keystroke_Key.space	Key.space	n/a
438.2755	0.06	876551	keystroke_c	c	n/a
438.41	0.0905	876820	keystroke_a	a	n/a
438.635	0.075	877270	keystroke_s	s	n/a
438.755	0.105	877510	keystroke_a	a	n/a
439.0095	0.045	878019	keystroke_Key.space	Key.space	n/a
439.3255	0.0895	878651	keystroke_a	a	n/a
439.4755	0.0745	878951	keystroke_d	d	n/a
440.044	0.06	880088	keystroke_Key.backspace	Key.backspace	n/a
440.255	0.09	880510	keystroke_n	n	n/a
440.435	0.075	880870	keystroke_e	e	n/a
441.125	0.0745	882250	keystroke_Key.backspace	Key.backspace	n/a
441.3645	0.0755	882729	keystroke_d	d	n/a
441.5745	0.075	883149	keystroke_r	r	n/a
441.6795	0.075	883359	keystroke_e	e	n/a
441.815	0.12	883630	keystroke_a	a	n/a
442.0545	0.06	884109	keystroke_Key.space	Key.space	n/a
442.2345	0.09	884469	keystroke_s	s	n/a
442.3395	0.09	884679	keystroke_u	u	n/a
442.4745	0.075	884949	keystroke_r	r	n/a
442.6995	0.12	885399	keystroke_p	p	n/a
442.8645	0.09	885729	keystroke_r	r	n/a
443.0745	0.075	886149	keystroke_i	i	n/a
443.2545	0.09	886509	keystroke_s	s	n/a
443.5245	0.09	887049	keystroke_e	e	n/a
443.72	0.075	887440	keystroke_Key.enter	Key.enter	n/a
443.813	9.4485	887626	prompt	n/a	sensitivity marilyn qualification null\n
444.5605	0.09	889121	keystroke_s	s	n/a
444.7105	0.089	889421	keystroke_e	e	n/a
444.8455	0.089	889691	keystroke_n	n	n/a
445.1455	0.089	890291	keystroke_s	s	n/a
445.2645	0.09	890529	keystroke_i	i	n/a
445.625	0.105	891250	keystroke_t	t	n/a
445.789	0.09	891578	keystroke_i	i	n/a
446.975	0.0905	893950	keystroke_v	v	n/a
447.08	0.09	894160	keystroke_i	i	n/a
447.1845	0.075	894369	keystroke_t	t	n/a
447.2745	0.105	894549	keystroke_y	y	n/a
447.6195	0.0605	895239	keystroke_Key.space	Key.space	n/a
447.9645	0.105	895929	keystroke_m	m	n/a
448.0995	0.12	896199	keystroke_a	a	n/a
448.1905	0.1045	896381	keystroke_r	r	n/a
448.5795	0.0755	897159	keystroke_i	i	n/a
448.8645	0.076	897729	keystroke_l	l	n/a
448.985	0.105	897970	keystroke_y	y	n/a
449.2245	0.091	898449	keystroke_n	n	n/a
449.3895	0.0755	898779	keystroke_Key.space	Key.space	n/a
449.7045	0.09	899409	keystroke_q	q	n/a
449.84	0.0745	899680	keystroke_u	u	n/a
450.02	0.105	900040	keystroke_a	a	n/a
450.2305	0.0895	900461	keystroke_l	l	n/a
450.4095	0.061	900819	keystroke_i	i	n/a
451.0695	0.0755	902139	keystroke_f	f	n/a
451.22	0.075	902440	keystroke_i	i	n/a
451.3705	0.0745	902741	keystroke_c	c	n/a
451.475	0.135	902950	keystroke_a	a	n/a
451.5505	0.0895	903101	keystroke_t	t	n/a
451.625	0.135	903250	keystroke_i	i	n/a
451.729	0.181	903458	keystroke_o	o	n/a
451.835	0.18	903670	keystroke_n	n	n/a
452.09	0.0595	904180	keystroke_Key.space	Key.space	n/a
452.3905	0.0745	904781	keystroke_n	n	n/a
452.585	0.06	905170	keystroke_u	u	n/a
452.8555	0.0595	905711	keystroke_l	l	n/a
453.0045	0.075	906009	keystroke_l	l	n/a
453.1845	0.0755	906369	keystroke_Key.enter	Key.enter	n/a
453.2665	8.155	906533	prompt	n/a	builds baseball newspapers fisher\n
453.995	0.075	907990	keystroke_b	b	n/a
454.0995	0.0905	908199	keystroke_u	u	n/a
454.25	0.0905	908500	keystroke_i	i	n/a
454.4	0.135	908800	keystroke_l	l	n/a
454.5805	0.09	909161	keystroke_d	d	n/a
454.85	0.0755	909700	keystroke_s	s	n/a
454.97	0.09	909940	keystroke_Key.space	Key.space	n/a
455.2405	0.0745	910481	keystroke_b	b	n/a
455.3895	0.12	910779	keystroke_a	a	n/a
455.6755	0.104	911351	keystroke_e	e	n/a
455.96	0.0895	911920	keystroke_b	b	n/a
456.155	0.105	912310	keystroke_a	a	n/a
456.275	0.075	912550	keystroke_l	l	n/a
456.4255	0.09	912851	keystroke_l	l	n/a
456.56	0.0595	913120	keystroke_Key.space	Key.space	n/a
456.756	0.0735	913512	keystroke_n	n	n/a
456.89	0.09	913780	keystroke_e	e	n/a
457.026	0.104	914052	keystroke_w	w	n/a
457.34	0.06	914680	keystroke_Key.space	Key.space	n/a
457.7595	0.0755	915519	keystroke_Key.backspace	Key.backspace	n/a
457.9705	0.09	915941	keystroke_s	s	n/a
458.2405	0.09	916481	keystroke_p	p	n/a
458.6455	0.1195	917291	keystroke_a	a	n/a
459.05	0.1055	918100	keystroke_p	p	n/a
459.2	0.1055	918400	keystroke_e	e	n/a
459.275	0.121	918550	keystroke_r	r	n/a
459.5155	0.09	919031	keystroke_s	s	n/a
459.665	0.0745	919330	keystroke_Key.space	Key.space	n/a
459.9505	0.0595	919901	keystroke_f	f	n/a
460.055	0.076	920110	keystroke_i	i	n/a
460.2205	0.09	920441	keystroke_s	s	n/a
460.4755	0.075	920951	keystroke_h	h	n/a
460.7755	0.09	921551	keystroke_e	e	n/a
460.9705	0.075	921941	keystroke_r	r	n/a
461.3295	0.09	922659	keystroke_Key.enter	Key.enter	n/a
461.4275	8.1845	922855	prompt	n/a	nasa described factors testimony\n
462.2755	0.09	924551	keystroke_n	n	n/a
462.4105	0.12	924821	keystroke_a	a	n/a
462.7705	0.105	925541	keystroke_a	a	n/a
462.9945	0.091	925989	keystroke_Key.space	Key.space	n/a
463.1905	0.09	926381	keystroke_d	d	n/a
463.3855	0.06	926771	keystroke_e	e	n/a
463.85	0.075	927700	keystroke_s	s	n/a
464.0905	0.089	928181	keystroke_c	c	n/a
464.495	0.075	928990	keystroke_r	r	n/a
464.615	0.09	929230	keystroke_i	i	n/a
464.78	0.075	929560	keystroke_b	b	n/a
465.3055	0.075	930611	keystroke_e	e	n/a
465.4555	0.105	930911	keystroke_d	d	n/a
465.6195	0.075	931239	keystroke_Key.space	Key.space	n/a
466.1145	0.076	932229	keystroke_f	f	n/a
466.2355	0.09	932471	keystroke_a	a	n/a
466.4305	0.0905	932861	keystroke_c	c	n/a
466.64	0.0605	933280	keystroke_t	t	n/a
466.7755	0.0895	933551	keystroke_o	o	n/a
466.895	0.105	933790	keystroke_r	r	n/a
467.15	0.0755	934300	keystroke_s	s	n/a
467.27	0.0905	934540	keystroke_Key.space	Key.space	n/a
467.525	0.075	935050	keystroke_t	t	n/a
467.6905	0.06	935381	keystroke_e	e	n/a
467.9305	0.09	935861	keystroke_s	s	n/a
468.2155	0.075	936431	keystroke_t	t	n/a
468.335	0.0595	936670	keystroke_i	i	n/a
468.5605	0.074	937121	keystroke_m	m	n/a
468.7105	0.0745	937421	keystroke_o	o	n/a
468.845	0.09	937690	keystroke_n	n	n/a
469.205	0.06	938410	keystroke_y	y	n/a
469.5195	0.0905	939039	keystroke_Key.enter	Key.enter	n/a
469.616	9.3405	939232	prompt	n/a	manchester wednesday wikipedia feedback\n
470.54	0.105	941080	keystroke_m	m	n/a
470.705	0.105	941410	keystroke_a	a	n/a
471.275	0.09	942550	keystroke_n	n	n/a
471.62	0.09	943240	keystroke_c	c	n/a
471.7405	0.09	943481	keystroke_h	h	n/a
471.9355	0.104	943871	keystroke_e	e	n/a
472.2045	0.0905	944409	keystroke_s	s	n/a
472.415	0.075	944830	keystroke_t	t	n/a
472.5655	0.1045	945131	keystroke_e	e	n/a
472.655	0.075	945310	keystroke_r	r	n/a
472.88	0.075	945760	keystroke_Key.space	Key.space	n/a
473.12	0.1045	946240	keystroke_w	w	n/a
473.3	0.09	946600	keystroke_e	e	n/a
473.75	0.045	947500	keystroke_d	d	n/a
473.9605	0.1045	947921	keystroke_n	n	n/a
474.095	0.075	948190	keystroke_e	e	n/a
474.23	0.1045	948460	keystroke_s	s	n/a
474.44	0.0755	948880	keystroke_d	d	n/a
474.68	0.105	949360	keystroke_a	a	n/a
474.8	0.0895	949600	keystroke_y	y	n/a
474.935	0.0745	949870	keystroke_Key.space	Key.space	n/a
475.22	0.1055	950440	keystroke_w	w	n/a
475.3555	0.074	950711	keystroke_i	i	n/a
475.595	0.06	951190	keystroke_k	k	n/a
475.76	0.0605	951520	keystroke_i	i	n/a
475.985	0.075	951970	keystroke_p	p	n/a
476.165	0.075	952330	keystroke_e	e	n/a
476.5705	0.074	953141	keystroke_d	d	n/a
476.6755	0.075	953351	keystroke_i	i	n/a
476.7655	0.12	953531	keystroke_a	a	n/a
476.9295	0.075	953859	keystroke_Key.space	Key.space	n/a
477.1245	0.075	954249	keystroke_f	f	n/a
477.3055	0.06	954611	keystroke_e	e	n/a
477.47	0.075	954940	keystroke_e	e	n/a
478.1005	0.015	956201	keystroke_b	b	n/a
478.2345	0.105	956469	keystroke_a	a	n/a
478.5645	0.075	957129	keystroke_c	c	n/a
478.6545	0.09	957309	keystroke_k	k	n/a
478.8645	0.0905	957729	keystroke_Key.enter	Key.enter	n/a
478.9615	11.0645	957923	prompt	n/a	television cooperation hungary invention\n
479.96	0.06	959920	keystroke_t	t	n/a
480.095	0.0755	960190	keystroke_e	e	n/a
480.23	0.105	960460	keystroke_l	l	n/a
480.365	0.075	960730	keystroke_e	e	n/a
480.62	0.09	961240	keystroke_v	v	n/a
480.7705	0.0745	961541	keystroke_i	i	n/a
480.92	0.18	961840	keystroke_o	o	n/a
481.055	0.15	962110	keystroke_n	n	n/a
481.625	0.045	963250	keystroke_Key.backspace	Key.backspace	n/a
481.7745	0.075	963549	keystroke_Key.backspace	Key.backspace	n/a
482.7505	0.0745	965501	keystroke_s	s	n/a
482.8095	0.136	965619	keystroke_i	i	n/a
482.8995	0.166	965799	keystroke_o	o	n/a
483.02	0.15	966040	keystroke_n	n	n/a
483.14	0.075	966280	keystroke_Key.space	Key.space	n/a
483.35	0.0905	966700	keystroke_c	c	n/a
483.47	0.1195	966940	keystroke_o	o	n/a
483.7855	0.075	967571	keystroke_o	o	n/a
484.79	0.1055	969580	keystroke_p	p	n/a
484.9405	0.0745	969881	keystroke_e	e	n/a
485.12	0.0755	970240	keystroke_r	r	n/a
485.255	0.1055	970510	keystroke_a	a	n/a
485.3755	0.075	970751	keystroke_t	t	n/a
485.4655	0.119	970931	keystroke_i	i	n/a
485.54	0.1645	971080	keystroke_o	o	n/a
485.6455	0.165	971291	keystroke_n	n	n/a
485.78	0.0595	971560	keystroke_Key.space	Key.space	n/a
486.005	0.0895	972010	keystroke_h	h	n/a
486.2295	0.0755	972459	keystroke_u	u	n/a
486.4255	0.089	972851	keystroke_n	n	n/a
486.6505	0.0745	973301	keystroke_g	g	n/a
486.8905	0.1045	973781	keystroke_a	a	n/a
487.115	0.075	974230	keystroke_r	r	n/a
487.205	0.1055	974410	keystroke_y	y	n/a
487.595	0.06	975190	keystroke_Key.space	Key.space	n/a
488.1055	0.0445	976211	keystroke_i	i	n/a
488.225	0.09	976450	keystroke_n	n	n/a
488.555	0.09	977110	keystroke_v	v	n/a
489.035	0.06	978070	keystroke_e	e	n/a
489.14	0.0755	978280	keystroke_n	n	n/a
489.381	0.075	978762	keystroke_t	t	n/a
489.44	0.12	978880	keystroke_i	i	n/a
489.53	0.18	979060	keystroke_o	o	n/a
489.665	0.12	979330	keystroke_n	n	n/a
489.965	0.06	979930	keystroke_Key.enter	Key.enter	n/a
490.0335	7.4035	980067	prompt	n/a	importantly alexander doubt rear\n
490.91	0.0595	981820	keystroke_i	i	n/a
491.0445	0.105	982089	keystroke_m	m	n/a
491.24	0.0895	982480	keystroke_p	p	n/a
491.435	0.075	982870	keystroke_o	o	n/a
491.585	0.075	983170	keystroke_r	r	n/a
491.7655	0.0595	983531	keystroke_t	t	n/a
491.87	0.105	983740	keystroke_a	a	n/a
491.99	0.075	983980	keystroke_n	n	n/a
492.11	0.075	984220	keystroke_t	t	n/a
492.245	0.1355	984490	keystroke_l	l	n/a
492.365	0.105	984730	keystroke_y	y	n/a
492.515	0.0755	985030	keystroke_Key.space	Key.space	n/a
492.7255	0.1045	985451	keystroke_a	a	n/a
492.905	0.1205	985810	keystroke_l	l	n/a
493.1455	0.074	986291	keystroke_e	e	n/a
493.4305	0.12	986861	keystroke_x	x	n/a
494.0295	0.121	988059	keystroke_a	a	n/a
494.1955	0.0895	988391	keystroke_n	n	n/a
494.4355	0.09	988871	keystroke_d	d	n/a
494.6145	0.121	989229	keystroke_e	e	n/a
494.72	0.1045	989440	keystroke_r	r	n/a
494.8395	0.0605	989679	keystroke_Key.space	Key.space	n/a
495.095	0.09	990190	keystroke_d	d	n/a
495.2	0.1205	990400	keystroke_o	o	n/a
495.2905	0.12	990581	keystroke_u	u	n/a
495.515	0.075	991030	keystroke_b	b	n/a
495.665	0.0905	991330	keystroke_l	l	n/a
495.89	0.0755	991780	keystroke_t	t	n/a
496.055	0.075	992110	keystroke_Key.space	Key.space	n/a
496.265	0.09	992530	keystroke_r	r	n/a
496.4905	0.074	992981	keystroke_e	e	n/a
496.7005	0.104	993401	keystroke_a	a	n/a
497.0005	0.074	994001	keystroke_r	r	n/a
497.345	0.0895	994690	keystroke_Key.enter	Key.enter	n/a
497.442	8.9195	994884	prompt	n/a	identifying harassment rabbit liability\n
498.5	0.0605	997000	keystroke_i	i	n/a
498.755	0.09	997510	keystroke_d	d	n/a
499.4455	0.089	998891	keystroke_e	e	n/a
499.565	0.0745	999130	keystroke_n	n	n/a
499.7445	0.091	999489	keystroke_t	t	n/a
499.85	0.09	999700	keystroke_i	i	n/a
500.0595	0.09	1000119	keystroke_f	f	n/a
500.135	0.0745	1000270	keystroke_y	y	n/a
500.39	0.12	1000780	keystroke_i	i	n/a
500.465	0.1805	1000930	keystroke_n	n	n/a
500.585	0.09	1001170	keystroke_g	g	n/a
500.6595	0.0755	1001319	keystroke_Key.space	Key.space	n/a
500.9	0.0755	1001800	keystroke_h	h	n/a
501.0345	0.136	1002069	keystroke_a	a	n/a
501.2605	0.075	1002521	keystroke_r	r	n/a
501.545	0.1055	1003090	keystroke_a	a	n/a
501.89	0.06	1003780	keystroke_s	s	n/a
502.0245	0.09	1004049	keystroke_s	s	n/a
502.3545	0.075	1004709	keystroke_m	m	n/a
502.4595	0.075	1004919	keystroke_e	e	n/a
502.5495	0.09	1005099	keystroke_n	n	n/a
502.6245	0.09	1005249	keystroke_t	t	n/a
502.805	0.0595	1005610	keystroke_Key.space	Key.space	n/a
503.03	0.0745	1006060	keystroke_r	r	n/a
503.1805	0.0895	1006361	keystroke_a	a	n/a
503.405	0.06	1006810	keystroke_b	b	n/a
503.5405	0.06	1007081	keystroke_b	b	n/a
503.6605	0.075	1007321	keystroke_i	i	n/a
503.7805	0.075	1007561	keystroke_t	t	n/a
503.8855	0.0745	1007771	keystroke_Key.space	Key.space	n/a
504.08	0.0745	1008160	keystroke_l	l	n/a
504.2305	0.0755	1008461	keystroke_i	i	n/a
504.53	0.09	1009060	keystroke_a	a	n/a
504.785	0.075	1009570	keystroke_b	b	n/a
505.1	0.0595	1010200	keystroke_i	i	n/a
505.5945	0.091	1011189	keystroke_l	l	n/a
505.7605	0.06	1011521	keystroke_i	i	n/a
505.8805	0.09	1011761	keystroke_t	t	n/a
505.985	0.075	1011970	keystroke_y	y	n/a
506.2845	0.075	1012569	keystroke_Key.enter	Key.enter	n/a
506.367	5.8895	1012734	prompt	n/a	anatomy berlin bill rewards\n
507.1245	0.1205	1014249	keystroke_a	a	n/a
507.2605	0.09	1014521	keystroke_n	n	n/a
507.425	0.1195	1014850	keystroke_a	a	n/a
507.7705	0.089	1015541	keystroke_t	t	n/a
507.905	0.075	1015810	keystroke_o	o	n/a
508.0695	0.0905	1016139	keystroke_m	m	n/a
508.2805	0.0595	1016561	keystroke_y	y	n/a
508.4	0.06	1016800	keystroke_Key.space	Key.space	n/a
508.6705	0.09	1017341	keystroke_b	b	n/a
508.9245	0.1055	1017849	keystroke_e	e	n/a
509.0155	0.0895	1018031	keystroke_r	r	n/a
509.3755	0.09	1018751	keystroke_l	l	n/a
509.5395	0.0905	1019079	keystroke_i	i	n/a
509.6755	0.1345	1019351	keystroke_n	n	n/a
509.87	0.075	1019740	keystroke_Key.space	Key.space	n/a
510.185	0.0745	1020370	keystroke_b	b	n/a
510.3195	0.06	1020639	keystroke_i	i	n/a
510.4555	0.0745	1020911	keystroke_l	l	n/a
510.6045	0.076	1021209	keystroke_l	l	n/a
510.7395	0.0755	1021479	keystroke_Key.space	Key.space	n/a
510.935	0.0905	1021870	keystroke_r	r	n/a
511.0695	0.075	1022139	keystroke_e	e	n/a
511.3855	0.074	1022771	keystroke_w	w	n/a
511.5495	0.135	1023099	keystroke_a	a	n/a
511.64	0.1055	1023280	keystroke_r	r	n/a
511.8505	0.104	1023701	keystroke_d	d	n/a
512.015	0.0745	1024030	keystroke_s	s	n/a
512.1645	0.0905	1024329	keystroke_Key.enter	Key.enter	n/a
512.2605	5.546	1024521	prompt	n/a	fantasy nerve head charming\n
512.915	0.075	1025830	keystroke_f	f	n/a
513.05	0.105	1026100	keystroke_a	a	n/a
513.305	0.075	1026610	keystroke_n	n	n/a
513.59	0.075	1027180	keystroke_t	t	n/a
513.7255	0.105	1027451	keystroke_a	a	n/a
513.935	0.09	1027870	keystroke_s	s	n/a
514.055	0.09	1028110	keystroke_y	y	n/a
514.19	0.075	1028380	keystroke_Key.space	Key.space	n/a
514.3855	0.09	1028771	keystroke_n	n	n/a
514.58	0.076	1029160	keystroke_e	e	n/a
514.79	0.075	1029580	keystroke_r	r	n/a
515.0455	0.104	1030091	keystroke_v	v	n/a
515.27	0.0605	1030540	keystroke_e	e	n/a
515.435	0.06	1030870	keystroke_Key.space	Key.space	n/a
515.615	0.075	1031230	keystroke_h	h	n/a
515.735	0.075	1031470	keystroke_e	e	n/a
515.87	0.15	1031740	keystroke_a	a	n/a
516.065	0.0905	1032130	keystroke_d	d	n/a
516.23	0.09	1032460	keystroke_Key.space	Key.space	n/a
516.5	0.0755	1033000	keystroke_c	c	n/a
516.6205	0.0745	1033241	keystroke_h	h	n/a
516.711	0.149	1033422	keystroke_a	a	n/a
516.845	0.105	1033690	keystroke_r	r	n/a
517.115	0.09	1034230	keystroke_m	m	n/a
517.309	0.1365	1034618	keystroke_i	i	n/a
517.3855	0.1795	1034771	keystroke_n	n	n/a
517.535	0.075	1035070	keystroke_g	g	n/a
517.715	0.09	1035430	keystroke_Key.enter	Key.enter	n/a
517.811	7.4655	1035622	prompt	n/a	renewal rick notices objectives\n
518.6005	0.0895	1037201	keystroke_r	r	n/a
518.7195	0.1055	1037439	keystroke_e	e	n/a
519.0505	0.0745	1038101	keystroke_n	n	n/a
519.26	0.09	1038520	keystroke_e	e	n/a
519.5745	0.0905	1039149	keystroke_w	w	n/a
520.0255	0.09	1040051	keystroke_a	a	n/a
520.235	0.075	1040470	keystroke_l	l	n/a
520.3845	0.0755	1040769	keystroke_Key.space	Key.space	n/a
520.7295	0.0755	1041459	keystroke_r	r	n/a
520.865	0.075	1041730	keystroke_i	i	n/a
521.0605	0.089	1042121	keystroke_c	c	n/a
521.1945	0.0755	1042389	keystroke_k	k	n/a
521.3145	0.0905	1042629	keystroke_Key.space	Key.space	n/a
521.57	0.0595	1043140	keystroke_n	n	n/a
521.72	0.09	1043440	keystroke_o	o	n/a
522.02	0.0745	1044040	keystroke_t	t	n/a
522.1555	0.0745	1044311	keystroke_i	i	n/a
522.321	0.0745	1044642	keystroke_c	c	n/a
522.485	0.0755	1044970	keystroke_e	e	n/a
522.6355	0.075	1045271	keystroke_s	s	n/a
522.755	0.0745	1045510	keystroke_Key.space	Key.space	n/a
522.995	0.0905	1045990	keystroke_o	o	n/a
523.19	0.0755	1046380	keystroke_b	b	n/a
523.5205	0.0745	1047041	keystroke_j	j	n/a
523.73	0.075	1047460	keystroke_e	e	n/a
523.94	0.09	1047880	keystroke_c	c	n/a
524.09	0.0605	1048180	keystroke_t	t	n/a
524.255	0.075	1048510	keystroke_i	i	n/a
524.45	0.0755	1048900	keystroke_v	v	n/a
524.66	0.075	1049320	keystroke_e	e	n/a
524.975	0.09	1049950	keystroke_s	s	n/a
525.2	0.075	1050400	keystroke_Key.enter	Key.enter	n/a
525.281	8.7255	1050562	prompt	n/a	russell terrorism turning rural\n
526.115	0.075	1052230	keystroke_r	r	n/a
526.37	0.075	1052740	keystroke_u	u	n/a
526.61	0.0755	1053220	keystroke_s	s	n/a
526.7595	0.0755	1053519	keystroke_s	s	n/a
526.9095	0.06	1053819	keystroke_e	e	n/a
527.06	0.075	1054120	keystroke_l	l	n/a
527.5545	0.105	1055109	keystroke_l	l	n/a
527.8095	0.075	1055619	keystroke_Key.space	Key.space	n/a
528.515	0.06	1057030	keystroke_t	t	n/a
528.635	0.09	1057270	keystroke_e	e	n/a
528.8305	0.0595	1057661	keystroke_r	r	n/a
528.9805	0.0595	1057961	keystroke_r	r	n/a
529.1455	0.0895	1058291	keystroke_o	o	n/a
529.8345	0.09	1059669	keystroke_r	r	n/a
529.9705	0.0895	1059941	keystroke_i	i	n/a
530.1495	0.0755	1060299	keystroke_s	s	n/a
530.27	0.09	1060540	keystroke_m	m	n/a
530.405	0.075	1060810	keystroke_Key.space	Key.space	n/a
530.84	0.075	1061680	keystroke_t	t	n/a
530.9905	0.09	1061981	keystroke_u	u	n/a
531.2605	0.0745	1062521	keystroke_r	r	n/a
531.545	0.06	1063090	keystroke_n	n	n/a
531.74	0.135	1063480	keystroke_i	i	n/a
531.83	0.165	1063660	keystroke_n	n	n/a
531.935	0.09	1063870	keystroke_g	g	n/a
532.07	0.0745	1064140	keystroke_Key.space	Key.space	n/a
532.2645	0.0755	1064529	keystroke_r	r	n/a
532.4	0.09	1064800	keystroke_u	u	n/a
532.655	0.06	1065310	keystroke_r	r	n/a
532.835	0.0605	1065670	keystroke_u	u	n/a
533.3	0.06	1066600	keystroke_Key.backspace	Key.backspace	n/a
533.495	0.09	1066990	keystroke_a	a	n/a
533.63	0.12	1067260	keystroke_l	l	n/a
533.93	0.075	1067860	keystroke_Key.enter	Key.enter	n/a
534.01	8.0225	1068020	prompt	n/a	integrating collectors locations nursing\n
534.935	0.06	1069870	keystroke_i	i	n/a
535.055	0.105	1070110	keystroke_n	n	n/a
535.205	0.075	1070410	keystroke_t	t	n/a
535.355	0.09	1070710	keystroke_e	e	n/a
535.5805	0.0595	1071161	keystroke_g	g	n/a
535.745	0.075	1071490	keystroke_r	r	n/a
535.865	0.1195	1071730	keystroke_a	a	n/a
536.1045	0.0755	1072209	keystroke_t	t	n/a
536.33	0.135	1072660	keystroke_i	i	n/a
536.405	0.2105	1072810	keystroke_n	n	n/a
536.526	0.1045	1073052	keystroke_g	g	n/a
536.645	0.075	1073290	keystroke_Key.space	Key.space	n/a
536.84	0.0895	1073680	keystroke_c	c	n/a
536.99	0.0895	1073980	keystroke_o	o	n/a
537.2	0.0595	1074400	keystroke_l	l	n/a
537.35	0.09	1074700	keystroke_l	l	n/a
537.455	0.0595	1074910	keystroke_e	e	n/a
537.635	0.09	1075270	keystroke_c	c	n/a
538.0695	0.0755	1076139	keystroke_t	t	n/a
538.3255	0.089	1076651	keystroke_o	o	n/a
538.4905	0.075	1076981	keystroke_r	r	n/a
538.6555	0.104	1077311	keystroke_s	s	n/a
538.8195	0.09	1077639	keystroke_Key.space	Key.space	n/a
539.03	0.0905	1078060	keystroke_l	l	n/a
539.2105	0.074	1078421	keystroke_o	o	n/a
539.3455	0.089	1078691	keystroke_c	c	n/a
539.4645	0.121	1078929	keystroke_a	a	n/a
539.5395	0.105	1079079	keystroke_t	t	n/a
539.6305	0.12	1079261	keystroke_i	i	n/a
539.7195	0.165	1079439	keystroke_o	o	n/a
539.8095	0.195	1079619	keystroke_n	n	n/a
539.9745	0.09	1079949	keystroke_s	s	n/a
540.0805	0.0895	1080161	keystroke_Key.space	Key.space	n/a
540.29	0.075	1080580	keystroke_n	n	n/a
540.485	0.09	1080970	keystroke_u	u	n/a
541.04	0.075	1082080	keystroke_r	r	n/a
541.3545	0.09	1082709	keystroke_s	s	n/a
541.5195	0.15	1083039	keystroke_i	i	n/a
541.6095	0.1505	1083219	keystroke_n	n	n/a
541.7305	0.089	1083461	keystroke_g	g	n/a
541.94	0.09	1083880	keystroke_Key.enter	Key.enter	n/a
542.0365	9.1605	1084073	prompt	n/a	transcription hourly tsunami major\n
542.7495	0.075	1085499	keystroke_t	t	n/a
542.9145	0.0905	1085829	keystroke_r	r	n/a
543.14	0.1195	1086280	keystroke_a	a	n/a
543.3045	0.105	1086609	keystroke_n	n	n/a
543.7245	0.1055	1087449	keystroke_s	s	n/a
544.1145	0.075	1088229	keystroke_c	c	n/a
544.3395	0.076	1088679	keystroke_r	r	n/a
544.4755	0.06	1088951	keystroke_i	i	n/a
544.6245	0.09	1089249	keystroke_p	p	n/a
545.225	0.075	1090450	keystroke_t	t	n/a
545.3305	0.135	1090661	keystroke_i	i	n/a
545.4205	0.179	1090841	keystroke_o	o	n/a
545.5545	0.151	1091109	keystroke_n	n	n/a
545.72	0.0745	1091440	keystroke_Key.space	Key.space	n/a
545.9895	0.06	1091979	keystroke_h	h	n/a
546.2005	0.12	1092401	keystroke_o	o	n/a
546.2755	0.135	1092551	keystroke_u	u	n/a
546.5305	0.09	1093061	keystroke_r	r	n/a
546.9645	0.076	1093929	keystroke_l	l	n/a
547.1595	0.076	1094319	keystroke_y	y	n/a
547.3845	0.06	1094769	keystroke_Key.space	Key.space	n/a
547.8505	0.089	1095701	keystroke_t	t	n/a
548.3	0.1195	1096600	keystroke_s	s	n/a
548.6755	0.074	1097351	keystroke_u	u	n/a
549.1705	0.089	1098341	keystroke_n	n	n/a
549.5605	0.12	1099121	keystroke_a	a	n/a
549.786	0.074	1099572	keystroke_m	m	n/a
549.95	0.075	1099900	keystroke_i	i	n/a
550.115	0.075	1100230	keystroke_Key.space	Key.space	n/a
550.31	0.1045	1100620	keystroke_m	m	n/a
550.4605	0.1195	1100921	keystroke_a	a	n/a
550.6095	0.075	1101219	keystroke_j	j	n/a
550.85	0.0755	1101700	keystroke_o	o	n/a
550.955	0.09	1101910	keystroke_r	r	n/a
551.135	0.06	1102270	keystroke_Key.enter	Key.enter	n/a
551.2055	8.496	1102411	prompt	n/a	surfaces proteins blind sheffield\n
551.9145	0.075	1103829	keystroke_s	s	n/a
552.0205	0.0745	1104041	keystroke_u	u	n/a
552.1255	0.0895	1104251	keystroke_r	r	n/a
552.3355	0.0895	1104671	keystroke_f	f	n/a
552.455	0.105	1104910	keystroke_a	a	n/a
552.665	0.075	1105330	keystroke_c	c	n/a
552.845	0.0605	1105690	keystroke_e	e	n/a
553.01	0.075	1106020	keystroke_s	s	n/a
553.145	0.06	1106290	keystroke_Key.space	Key.space	n/a
553.37	0.09	1106740	keystroke_p	p	n/a
553.67	0.0755	1107340	keystroke_r	r	n/a
553.8205	0.0745	1107641	keystroke_o	o	n/a
554.15	0.0755	1108300	keystroke_t	t	n/a
554.4195	0.045	1108839	keystroke_e	e	n/a
554.8845	0.0755	1109769	keystroke_i	i	n/a
555.2	0.0895	1110400	keystroke_n	n	n/a
555.4245	0.09	1110849	keystroke_s	s	n/a
555.6045	0.0605	1111209	keystroke_Key.space	Key.space	n/a
556.0705	0.0745	1112141	keystroke_b	b	n/a
556.1755	0.119	1112351	keystroke_l	l	n/a
556.2495	0.135	1112499	keystroke_i	i	n/a
556.6995	0.06	1113399	keystroke_n	n	n/a
556.88	0.0745	1113760	keystroke_d	d	n/a
557.015	0.09	1114030	keystroke_Key.space	Key.space	n/a
557.6155	0.09	1115231	keystroke_s	s	n/a
557.7655	0.09	1115531	keystroke_h	h	n/a
558.0205	0.09	1116041	keystroke_e	e	n/a
558.275	0.075	1116550	keystroke_f	f	n/a
558.425	0.0895	1116850	keystroke_f	f	n/a
558.9355	0.0745	1117871	keystroke_i	i	n/a
559.085	0.09	1118170	keystroke_e	e	n/a
559.325	0.0905	1118650	keystroke_l	l	n/a
559.46	0.09	1118920	keystroke_d	d	n/a
559.6095	0.0905	1119219	keystroke_Key.enter	Key.enter	n/a
559.707	6.115	1119414	prompt	n/a	floral eastern meal so\n
560.4645	0.091	1120929	keystroke_f	f	n/a
560.615	0.075	1121230	keystroke_l	l	n/a
560.81	0.0745	1121620	keystroke_o	o	n/a
561.185	0.0905	1122370	keystroke_r	r	n/a
561.3955	0.105	1122791	keystroke_a	a	n/a
561.5595	0.091	1123119	keystroke_l	l	n/a
561.7095	0.0905	1123419	keystroke_Key.space	Key.space	n/a
561.92	0.0905	1123840	keystroke_e	e	n/a
562.1305	0.1195	1124261	keystroke_s	s	n/a
562.6095	0.09	1125219	keystroke_Key.backspace	Key.backspace	n/a
562.7755	0.105	1125551	keystroke_a	a	n/a
562.9695	0.106	1125939	keystroke_s	s	n/a
563.21	0.0755	1126420	keystroke_t	t	n/a
563.36	0.09	1126720	keystroke_e	e	n/a
563.4355	0.1035	1126871	keystroke_r	r	n/a
563.81	0.0755	1127620	keystroke_n	n	n/a
564.065	0.06	1128130	keystroke_Key.space	Key.space	n/a
564.545	0.0455	1129090	keystroke_m	m	n/a
564.6055	0.045	1129211	keystroke_e	e	n/a
564.6955	0.1195	1129391	keystroke_a	a	n/a
564.995	0.0895	1129990	keystroke_l	l	n/a
565.2195	0.06	1130439	keystroke_Key.space	Key.space	n/a
565.4005	0.089	1130801	keystroke_s	s	n/a
565.5195	0.075	1131039	keystroke_o	o	n/a
565.7445	0.076	1131489	keystroke_Key.enter	Key.enter	n/a
565.832	10.8795	1131664	prompt	n/a	wichita understand respiratory restricted\n
567.0795	0.076	1134159	keystroke_w	w	n/a
