onset	duration	sample	value	key	prompt_text
1.859	31.0815	3718	prompt	n/a	the quick brown fox jumps over a lazy dog\n
16.7525	0.149	33505	keystroke_d	d	n/a
19.0035	0.058	38007	keystroke_Key.backspace	Key.backspace	n/a
19.7065	0.195	39413	keystroke_t	t	n/a
19.8415	0.225	39683	keystroke_h	h	n/a
20.0515	0.15	40103	keystroke_e	e	n/a
20.3665	0.21	40733	keystroke_Key.space	Key.space	n/a
21.4465	0.21	42893	keystroke_w	w	n/a
22.2715	0.18	44543	keystroke_Key.backspace	Key.backspace	n/a
23.5465	0.21	47093	keystroke_q	q	n/a
23.7715	0.165	47543	keystroke_u	u	n/a
23.8615	0.21	47723	keystroke_i	i	n/a
24.1315	0.21	48263	keystroke_c	c	n/a
24.3415	0.18	48683	keystroke_k	k	n/a
24.5815	0.195	49163	keystroke_Key.space	Key.space	n/a
25.7515	0.21	51503	keystroke_b	b	n/a
25.9765	0.18	51953	keystroke_r	r	n/a
26.1265	0.225	52253	keystroke_o	o	n/a
26.3365	0.135	52673	keystroke_w	w	n/a
26.4725	0.239	52945	keystroke_n	n	n/a
26.6815	0.1645	53363	keystroke_Key.space	Key.space	n/a
26.847	0.195	53694	keystroke_f	f	n/a
27.027	0.239	54054	keystroke_o	o	n/a
27.281	0.18	54562	keystroke_x	x	n/a
27.536	0.18	55072	keystroke_Key.space	Key.space	n/a
27.882	0.165	55764	keystroke_j	j	n/a
28.137	0.18	56274	keystroke_u	u	n/a
28.452	0.21	56904	keystroke_m	m	n/a
28.647	0.24	57294	keystroke_p	p	n/a
28.827	0.12	57654	keystroke_s	s	n/a
28.991	0.18	57982	keystroke_Key.space	Key.space	n/a
29.231	0.211	58462	keystroke_o	o	n/a
29.472	0.165	58944	keystroke_v	v	n/a
29.682	0.21	59364	keystroke_e	e	n/a
29.832	0.1945	59664	keystroke_r	r	n/a
29.9515	0.18	59903	keystroke_Key.space	Key.space	n/a
30.2065	0.165	60413	keystroke_a	a	n/a
30.3565	0.21	60713	keystroke_Key.space	Key.space	n/a
30.6265	0.21	61253	keystroke_l	l	n/a
30.7465	0.15	61493	keystroke_a	a	n/a
31.1365	0.18	62273	keystroke_z	z	n/a
31.3465	0.195	62693	keystroke_y	y	n/a
31.6915	0.2095	63383	keystroke_Key.space	Key.space	n/a
32.082	0.165	64164	keystroke_d	d	n/a
32.216	0.256	64432	keystroke_o	o	n/a
32.457	0.165	64914	keystroke_g	g	n/a
32.756	0.181	65512	keystroke_Key.enter	Key.enter	n/a
32.9475	9.7425	65895	prompt	n/a	adidas handles trade rebate\n
33.957	0.135	67914	keystroke_a	a	n/a
34.166	0.1805	68332	keystroke_d	d	n/a
34.4665	0.21	68933	keystroke_i	i	n/a
34.7965	0.12	69593	keystroke_d	d	n/a
35.1565	0.255	70313	keystroke_a	a	n/a
35.3665	0.135	70733	keystroke_s	s	n/a
35.6515	0.165	71303	keystroke_Key.space	Key.space	n/a
35.9365	0.18	71873	keystroke_h	h	n/a
36.1015	0.165	72203	keystroke_a	a	n/a
36.3415	0.195	72683	keystroke_n	n	n/a
37.2115	0.18	74423	keystroke_d	d	n/a
37.4965	0.255	74993	keystroke_l	l	n/a
37.7065	0.21	75413	keystroke_e	e	n/a
37.8565	0.18	75713	keystroke_s	s	n/a
38.2615	0.18	76523	keystroke_Key.space	Key.space	n/a
39.3565	0.15	78713	keystroke_t	t	n/a
39.5665	0.24	79133	keystroke_r	r	n/a
39.7915	0.15	79583	keystroke_a	a	n/a
40.0765	0.165	80153	keystroke_d	d	n/a
40.3765	0.225	80753	keystroke_e	e	n/a
40.6315	0.24	81263	keystroke_Key.space	Key.space	n/a
40.8265	0.18	81653	keystroke_r	r	n/a
40.9315	0.165	81863	keystroke_e	e	n/a
41.3815	0.255	82763	keystroke_b	b	n/a
41.6065	0.24	83213	keystroke_a	a	n/a
41.8475	0.179	83695	keystroke_t	t	n/a
41.9815	0.15	83963	keystroke_e	e	n/a
42.4615	0.225	84923	keystroke_Key.enter	Key.enter	n/a
42.6945	13.675	85389	prompt	n/a	delete malta madrid ctrl\n
43.527	0.12	87054	keystroke_d	d	n/a
43.737	0.15	87474	keystroke_e	e	n/a
43.947	0.225	87894	keystroke_l	l	n/a
44.067	0.165	88134	keystroke_e	e	n/a
44.637	0.195	89274	keystroke_t	t	n/a
45.027	0.135	90054	keystroke_e	e	n/a
45.462	0.195	90924	keystroke_Key.space	Key.space	n/a
45.882	0.195	91764	keystroke_m	m	n/a
46.152	0.24	92304	keystroke_a	a	n/a
46.452	0.195	92904	keystroke_t	t	n/a
46.677	0.21	93354	keystroke_l	l	n/a
47.187	0.12	94374	keystroke_Key.backspace	Key.backspace	n/a
47.397	0.135	94794	keystroke_Key.backspace	Key.backspace	n/a
48.042	0.21	96084	keystroke_l	l	n/a
48.237	0.165	96474	keystroke_t	t	n/a
48.387	0.195	96774	keystroke_a	a	n/a
49.602	0.165	99204	keystroke_Key.space	Key.space	n/a
49.947	0.165	99894	keystroke_m	m	n/a
50.127	0.18	100254	keystroke_a	a	n/a
50.472	0.12	100944	keystroke_d	d	n/a
50.712	0.195	101424	keystroke_r	r	n/a
51.282	0.225	102564	keystroke_i	i	n/a
51.492	0.165	102984	keystroke_d	d	n/a
52.632	0.21	105264	keystroke_Key.space	Key.space	n/a
52.887	0.15	105774	keystroke_c	c	n/a
53.262	0.15	106524	keystroke_t	t	n/a
53.517	0.195	107034	keystroke_r	r	n/a
53.682	0.12	107364	keystroke_o	o	n/a
53.997	0.09	107994	keystroke_l	l	n/a
54.462	0.12	108924	keystroke_Key.backspace	Key.backspace	n/a
54.687	0.12	109374	keystroke_Key.backspace	Key.backspace	n/a
55.752	0.18	111504	keystroke_l	l	n/a
56.157	0.21	112314	keystroke_Key.enter	Key.enter	n/a
56.376	14.258	112752	prompt	n/a	army appropriations numerous greenhouse\n
57.492	0.21	114984	keystroke_a	a	n/a
57.807	0.18	115614	keystroke_r	r	n/a
58.062	0.195	116124	keystroke_m	m	n/a
58.497	0.18	116994	keystroke_y	y	n/a
58.662	0.225	117324	keystroke_Key.space	Key.space	n/a
59.277	0.18	118554	keystroke_a	a	n/a
59.637	0.21	119274	keystroke_p	p	n/a
59.877	0.15	119754	keystroke_p	p	n/a
60.672	0.15	121344	keystroke_r	r	n/a
60.957	0.255	121914	keystroke_o	o	n/a
61.722	0.285	123444	keystroke_p	p	n/a
62.022	0.15	124044	keystroke_r	r	n/a
62.262	0.225	124524	keystroke_i	i	n/a
62.502	0.255	125004	keystroke_a	a	n/a
62.742	0.226	125484	keystroke_t	t	n/a
62.922	0.165	125844	keystroke_e	e	n/a
63.507	0.15	127014	keystroke_Key.backspace	Key.backspace	n/a
63.942	0.255	127884	keystroke_i	i	n/a
64.167	0.345	128334	keystroke_o	o	n/a
64.377	0.21	128754	keystroke_n	n	n/a
64.557	0.15	129114	keystroke_s	s	n/a
64.947	0.165	129894	keystroke_Key.space	Key.space	n/a
65.262	0.165	130524	keystroke_n	n	n/a
65.652	0.15	131304	keystroke_u	u	n/a
65.982	0.165	131964	keystroke_m	m	n/a
66.222	0.18	132444	keystroke_e	e	n/a
66.373	0.194	132746	keystroke_r	r	n/a
66.598	0.224	133196	keystroke_o	o	n/a
66.717	0.18	133434	keystroke_u	u	n/a
66.912	0.135	133824	keystroke_s	s	n/a
67.737	0.195	135474	keystroke_Key.space	Key.space	n/a
67.992	0.165	135984	keystroke_g	g	n/a
68.307	0.21	136614	keystroke_r	r	n/a
68.457	0.12	136914	keystroke_e	e	n/a
68.742	0.18	137484	keystroke_e	e	n/a
69.087	0.18	138174	keystroke_n	n	n/a
69.507	0.18	139014	keystroke_h	h	n/a
69.672	0.27	139344	keystroke_o	o	n/a
69.792	0.195	139584	keystroke_u	u	n/a
69.942	0.1805	139884	keystroke_s	s	n/a
70.0625	0.15	140125	keystroke_e	e	n/a
70.4225	0.209	140845	keystroke_Key.enter	Key.enter	n/a
70.64	19.689	141280	prompt	n/a	leave career occasionally confusion\n
71.2475	0.27	142495	keystroke_l	l	n/a
71.4125	0.165	142825	keystroke_e	e	n/a
71.5475	0.195	143095	keystroke_a	a	n/a
71.7575	0.195	143515	keystroke_v	v	n/a
71.9225	0.135	143845	keystroke_e	e	n/a
72.0725	0.255	144145	keystroke_Key.space	Key.space	n/a
72.3125	0.195	144625	keystroke_c	c	n/a
72.5225	0.21	145045	keystroke_a	a	n/a
72.8675	0.18	145735	keystroke_r	r	n/a
73.0175	0.165	146035	keystroke_e	e	n/a
73.3475	0.135	146695	keystroke_e	e	n/a
73.9925	0.165	147985	keystroke_r	r	n/a
74.5325	0.225	149065	keystroke_Key.space	Key.space	n/a
75.0275	0.24	150055	keystroke_o	o	n/a
75.4325	0.18	150865	keystroke_c	c	n/a
75.7475	0.18	151495	keystroke_c	c	n/a
76.9025	0.225	153805	keystroke_a	a	n/a
77.2475	0.15	154495	keystroke_s	s	n/a
77.5025	0.15	155005	keystroke_s	s	n/a
77.7875	0.18	155575	keystroke_i	i	n/a
77.9075	0.2395	155815	keystroke_o	o	n/a
78.072	0.18	156144	keystroke_n	n	n/a
78.312	0.165	156624	keystroke_a	a	n/a
78.492	0.135	156984	keystroke_l	l	n/a
78.732	0.18	157464	keystroke_l	l	n/a
79.032	0.225	158064	keystroke_y	y	n/a
79.227	0.24	158454	keystroke_Key.space	Key.space	n/a
79.497	0.226	158994	keystroke_c	c	n/a
79.662	0.36	159324	keystroke_o	o	n/a
79.888	0.194	159776	keystroke_n	n	n/a
81.657	0.12	163314	keystroke_Key.backspace	Key.backspace	n/a
81.882	0.105	163764	keystroke_Key.backspace	Key.backspace	n/a
82.092	0.06	164184	keystroke_Key.backspace	Key.backspace	n/a
82.287	0.105	164574	keystroke_Key.backspace	Key.backspace	n/a
82.512	0.165	165024	keystroke_Key.backspace	Key.backspace	n/a
85.2615	0.161	170523	keystroke_a	a	n/a
85.7525	0.135	171505	keystroke_s	s	n/a
85.9025	0.15	171805	keystroke_i	i	n/a
86.0075	0.315	172015	keystroke_o	o	n/a
86.2175	0.21	172435	keystroke_n	n	n/a
86.4425	0.18	172885	keystroke_a	a	n/a
86.5925	0.12	173185	keystroke_l	l	n/a
86.8025	0.165	173605	keystroke_l	l	n/a
87.1025	0.21	174205	keystroke_y	y	n/a
87.2975	0.225	174595	keystroke_Key.space	Key.space	n/a
87.8225	0.18	175645	keystroke_c	c	n/a
87.9275	0.27	175855	keystroke_o	o	n/a
88.0775	0.225	176155	keystroke_n	n	n/a
88.8125	0.21	177625	keystroke_f	f	n/a
89.0375	0.195	178075	keystroke_u	u	n/a
89.2325	0.195	178465	keystroke_s	s	n/a
89.4125	0.1945	178825	keystroke_i	i	n/a
89.532	0.285	179064	keystroke_o	o	n/a
89.727	0.18	179454	keystroke_n	n	n/a
90.132	0.195	180264	keystroke_Key.enter	Key.enter	n/a
90.333	11.036	180666	prompt	n/a	salt briefs savannah blair\n
91.662	0.165	183324	keystroke_s	s	n/a
91.842	0.21	183684	keystroke_a	a	n/a
92.142	0.3	184284	keystroke_l	l	n/a
92.532	0.195	185064	keystroke_t	t	n/a
92.667	0.15	185334	keystroke_Key.space	Key.space	n/a
93.027	0.24	186054	keystroke_b	b	n/a
93.252	0.165	186504	keystroke_r	r	n/a
93.462	0.315	186924	keystroke_i	i	n/a
93.657	0.18	187314	keystroke_e	e	n/a
93.987	0.225	187974	keystroke_f	f	n/a
94.137	0.18	188274	keystroke_s	s	n/a
94.587	0.225	189174	keystroke_Key.space	Key.space	n/a
94.827	0.165	189654	keystroke_s	s	n/a
95.007	0.21	190014	keystroke_a	a	n/a
95.412	0.24	190824	keystroke_v	v	n/a
95.637	0.18	191274	keystroke_a	a	n/a
95.937	0.12	191874	keystroke_n	n	n/a
96.147	0.165	192294	keystroke_n	n	n/a
96.342	0.21	192684	keystroke_a	a	n/a
96.642	0.195	193284	keystroke_h	h	n/a
97.317	0.165	194634	keystroke_Key.space	Key.space	n/a
97.932	0.166	195864	keystroke_l	l	n/a
98.427	0.135	196854	keystroke_Key.backspace	Key.backspace	n/a
99.072	0.135	198144	keystroke_b	b	n/a
99.282	0.3	198564	keystroke_l	l	n/a
99.747	0.195	199494	keystroke_a	a	n/a
100.062	0.24	200124	keystroke_i	i	n/a
100.287	0.15	200574	keystroke_r	r	n/a
101.187	0.18	202374	keystroke_Key.enter	Key.enter	n/a
101.375	13.8395	202750	prompt	n/a	surprise flows earrings prevention\n
104.97	0.072	209940	keystroke_s	s	n/a
105.162	0.195	210324	keystroke_u	u	n/a
105.822	0.18	211644	keystroke_r	r	n/a
106.062	0.255	212124	keystroke_p	p	n/a
106.287	0.15	212574	keystroke_r	r	n/a
106.482	0.27	212964	keystroke_i	i	n/a
106.692	0.225	213384	keystroke_s	s	n/a
106.842	0.18	213684	keystroke_e	e	n/a
107.127	0.195	214254	keystroke_Key.space	Key.space	n/a
107.517	0.18	215034	keystroke_f	f	n/a
107.667	0.151	215334	keystroke_l	l	n/a
107.937	0.195	215874	keystroke_o	o	n/a
108.042	0.15	216084	keystroke_w	w	n/a
108.342	0.18	216684	keystroke_s	s	n/a
108.582	0.18	217164	keystroke_Key.space	Key.space	n/a
108.792	0.255	217584	keystroke_e	e	n/a
109.227	0.225	218454	keystroke_e	e	n/a
109.812	0.18	219624	keystroke_Key.backspace	Key.backspace	n/a
110.052	0.18	220104	keystroke_a	a	n/a
110.607	0.165	221214	keystroke_r	r	n/a
110.892	0.21	221784	keystroke_r	r	n/a
111.192	0.315	222384	keystroke_i	i	n/a
111.357	0.195	222714	keystroke_n	n	n/a
111.522	0.225	223044	keystroke_g	g	n/a
111.717	0.18	223434	keystroke_s	s	n/a
111.912	0.18	223824	keystroke_Key.space	Key.space	n/a
112.317	0.256	224634	keystroke_p	p	n/a
112.467	0.165	224934	keystroke_r	r	n/a
112.587	0.165	225174	keystroke_e	e	n/a
112.872	0.195	225744	keystroke_v	v	n/a
113.037	0.195	226074	keystroke_e	e	n/a
113.397	0.166	226794	keystroke_n	n	n/a
113.607	0.18	227214	keystroke_t	t	n/a
114.207	0.256	228414	keystroke_i	i	n/a
114.432	0.285	228864	keystroke_o	o	n/a
114.597	0.18	229194	keystroke_n	n	n/a
115.017	0.195	230034	keystroke_Key.enter	Key.enter	n/a
115.223	14.389	230446	prompt	n/a	contribute dangerous performer bundle\n
116.143	0.224	232286	keystroke_c	c	n/a
116.322	0.316	232644	keystroke_o	o	n/a
116.533	0.149	233066	keystroke_n	n	n/a
116.772	0.18	233544	keystroke_t	t	n/a
117.058	0.194	234116	keystroke_r	r	n/a
117.207	0.316	234414	keystroke_i	i	n/a
117.628	0.179	235256	keystroke_b	b	n/a
118.363	0.194	236726	keystroke_u	u	n/a
118.588	0.284	237176	keystroke_t	t	n/a
118.797	0.211	237594	keystroke_e	e	n/a
119.203	0.164	238406	keystroke_Key.space	Key.space	n/a
119.5915	0.21	239183	keystroke_d	d	n/a
119.8175	0.195	239635	keystroke_a	a	n/a
120.1015	0.166	240203	keystroke_n	n	n/a
120.3875	0.165	240775	keystroke_g	g	n/a
120.5975	0.195	241195	keystroke_e	e	n/a
120.7625	0.195	241525	keystroke_r	r	n/a
121.152	0.33	242304	keystroke_o	o	n/a
121.362	0.18	242724	keystroke_u	u	n/a
121.691	0.151	243382	keystroke_s	s	n/a
121.931	0.195	243862	keystroke_Key.space	Key.space	n/a
122.682	0.2085	245364	keystroke_p	p	n/a
122.8455	0.18	245691	keystroke_e	e	n/a
122.9815	0.15	245963	keystroke_r	r	n/a
123.3115	0.18	246623	keystroke_f	f	n/a
123.6565	0.225	247313	keystroke_o	o	n/a
123.8365	0.165	247673	keystroke_r	r	n/a
124.1365	0.165	248273	keystroke_m	m	n/a
124.436	0.225	248872	keystroke_e	e	n/a
124.616	0.165	249232	keystroke_r	r	n/a
127.1835	0.072	254367	keystroke_Key.space	Key.space	n/a
127.6005	0.18	255201	keystroke_b	b	n/a
127.99	0.18	255980	keystroke_u	u	n/a
128.41	0.18	256820	keystroke_n	n	n/a
128.605	0.18	257210	keystroke_d	d	n/a
128.8	0.18	257600	keystroke_l	l	n/a
129.025	0.165	258050	keystroke_e	e	n/a
129.43	0.18	258860	keystroke_Key.enter	Key.enter	n/a
129.617	14.56	259234	prompt	n/a	fatty coordinator yamaha indigenous\n
130.435	0.195	260870	keystroke_f	f	n/a
130.615	0.195	261230	keystroke_a	a	n/a
130.84	0.135	261680	keystroke_t	t	n/a
131.095	0.165	262190	keystroke_t	t	n/a
131.2895	0.195	262579	keystroke_y	y	n/a
131.5445	0.18	263089	keystroke_Key.space	Key.space	n/a
132.0995	0.165	264199	keystroke_c	c	n/a
132.3845	0.12	264769	keystroke_o	o	n/a
132.6245	0.18	265249	keystroke_o	o	n/a
133.539	0.135	267078	keystroke_r	r	n/a
133.989	0.165	267978	keystroke_d	d	n/a
134.229	0.315	268458	keystroke_i	i	n/a
134.454	0.21	268908	keystroke_n	n	n/a
134.634	0.18	269268	keystroke_a	a	n/a
134.769	0.195	269538	keystroke_t	t	n/a
135.009	0.21	270018	keystroke_o	o	n/a
135.264	0.15	270528	keystroke_r	r	n/a
135.879	0.18	271758	keystroke_Key.space	Key.space	n/a
136.299	0.18	272598	keystroke_y	y	n/a
136.524	0.18	273048	keystroke_a	a	n/a
136.929	0.135	273858	keystroke_m	m	n/a
137.079	0.195	274158	keystroke_a	a	n/a
137.589	0.1945	275178	keystroke_h	h	n/a
137.7535	0.151	275507	keystroke_a	a	n/a
138.0535	0.18	276107	keystroke_Key.space	Key.space	n/a
138.3985	0.27	276797	keystroke_i	i	n/a
138.5635	0.181	277127	keystroke_n	n	n/a
138.7735	0.195	277547	keystroke_d	d	n/a
139.0585	0.21	278117	keystroke_i	i	n/a
139.3735	0.165	278747	keystroke_d	d	n/a
140.7685	0.106	281537	keystroke_g	g	n/a
140.9335	0.18	281867	keystroke_Key.backspace	Key.backspace	n/a
141.1735	0.15	282347	keystroke_Key.backspace	Key.backspace	n/a
141.6385	0.1945	283277	keystroke_g	g	n/a
142.539	0.225	285078	keystroke_e	e	n/a
143.049	0.15	286098	keystroke_n	n	n/a
143.289	0.285	286578	keystroke_o	o	n/a
143.454	0.195	286908	keystroke_u	u	n/a
143.664	0.15	287328	keystroke_s	s	n/a
143.964	0.21	287928	keystroke_Key.enter	Key.enter	n/a
144.182	21.849	288364	prompt	n/a	lean port accessible needs\n
144.969	0.225	289938	keystroke_l	l	n/a
145.104	0.21	290208	keystroke_e	e	n/a
145.329	0.165	290658	keystroke_a	a	n/a
145.434	0.18	290868	keystroke_n	n	n/a
145.659	0.195	291318	keystroke_Key.space	Key.space	n/a
145.989	0.255	291978	keystroke_p	p	n/a
146.139	0.285	292278	keystroke_o	o	n/a
146.409	0.195	292818	keystroke_r	r	n/a
146.829	0.18	293658	keystroke_t	t	n/a
147.054	0.18	294108	keystroke_Key.space	Key.space	n/a
147.729	0.195	295458	keystroke_a	a	n/a
148.029	0.18	296058	keystroke_c	c	n/a
148.404	0.3	296808	keystroke_c	c	n/a
148.689	0.21	297378	keystroke_e	e	n/a
150.654	0.21	301308	keystroke_s	s	n/a
151.989	0.225	303978	keystroke_i	i	n/a
152.319	0.255	304638	keystroke_b	b	n/a
152.514	0.285	305028	keystroke_l	l	n/a
152.754	0.195	305508	keystroke_e	e	n/a
152.964	0.165	305928	keystroke_Key.space	Key.space	n/a
153.264	0.195	306528	keystroke_n	n	n/a
153.399	0.165	306798	keystroke_e	e	n/a
153.804	0.225	307608	keystroke_d	d	n/a
153.954	0.195	307908	keystroke_s	s	n/a
155.679	0.105	311358	keystroke_Key.backspace	Key.backspace	n/a
155.949	0.075	311898	keystroke_Key.backspace	Key.backspace	n/a
156.159	0.09	312318	keystroke_Key.backspace	Key.backspace	n/a
156.714	0.18	313428	keystroke_Key.backspace	Key.backspace	n/a
157.089	0.135	314178	keystroke_Key.backspace	Key.backspace	n/a
158.559	0.12	317118	keystroke_c	c	n/a
158.874	0.195	317748	keystroke_c	c	n/a
159.294	0.075	318588	keystroke_e	e	n/a
159.714	0.12	319428	keystroke_Key.backspace	Key.backspace	n/a
159.954	0.12	319908	keystroke_Key.backspace	Key.backspace	n/a
160.344	0.225	320688	keystroke_e	e	n/a
160.539	0.165	321078	keystroke_s	s	n/a
160.855	0.134	321710	keystroke_s	s	n/a
162.219	0.18	324438	keystroke_Key.backspace	Key.backspace	n/a
162.864	0.21	325728	keystroke_i	i	n/a
163.254	0.24	326508	keystroke_b	b	n/a
163.464	0.24	326928	keystroke_l	l	n/a
163.674	0.18	327348	keystroke_e	e	n/a
163.929	0.18	327858	keystroke_Key.space	Key.space	n/a
164.289	0.195	328578	keystroke_n	n	n/a
164.439	0.12	328878	keystroke_e	e	n/a
164.664	0.135	329328	keystroke_e	e	n/a
164.979	0.21	329958	keystroke_d	d	n/a
165.129	0.195	330258	keystroke_s	s	n/a
165.819	0.21	331638	keystroke_Key.enter	Key.enter	n/a
166.036	42.266	332072	prompt	n/a	experimental finished protection judgment\n
166.959	0.135	333918	keystroke_e	e	n/a
167.304	0.18	334608	keystroke_x	x	n/a
168.114	0.225	336228	keystroke_p	p	n/a
168.279	0.165	336558	keystroke_e	e	n/a
168.534	0.18	337068	keystroke_m	m	n/a
169.044	0.09	338088	keystroke_r	r	n/a
169.599	0.135	339198	keystroke_Key.backspace	Key.backspace	n/a
169.749	0.195	339498	keystroke_e	e	n/a
169.914	0.165	339828	keystroke_r	r	n/a
170.124	0.33	340248	keystroke_i	i	n/a
170.38	0.194	340760	keystroke_m	m	n/a
170.889	0.195	341778	keystroke_e	e	n/a
171.174	0.21	342348	keystroke_n	n	n/a
171.369	0.24	342738	keystroke_t	t	n/a
171.579	0.226	343158	keystroke_a	a	n/a
171.819	0.181	343638	keystroke_l	l	n/a
172.299	0.18	344598	keystroke_Key.space	Key.space	n/a
172.735	0.09	345470	keystroke_f	f	n/a
173.229	0.1045	346458	keystroke_Key.backspace	Key.backspace	n/a
173.4385	0.075	346877	keystroke_Key.backspace	Key.backspace	n/a
173.634	0.06	347268	keystroke_Key.backspace	Key.backspace	n/a
173.844	0.075	347688	keystroke_Key.backspace	Key.backspace	n/a
174.0385	0.0915	348077	keystroke_Key.backspace	Key.backspace	n/a
174.219	0.0895	348438	keystroke_Key.backspace	Key.backspace	n/a
174.4135	0.091	348827	keystroke_Key.backspace	Key.backspace	n/a
174.624	0.09	349248	keystroke_Key.backspace	Key.backspace	n/a
174.804	0.121	349608	keystroke_Key.backspace	Key.backspace	n/a
175.194	0.135	350388	keystroke_Key.backspace	Key.backspace	n/a
175.449	0.105	350898	keystroke_Key.backspace	Key.backspace	n/a
175.854	0.12	351708	keystroke_Key.backspace	Key.backspace	n/a
176.905	0.179	353810	keystroke_r	r	n/a
177.4	0.225	354800	keystroke_i	i	n/a
177.67	0.164	355340	keystroke_t	t	n/a
177.939	0.166	355878	keystroke_m	m	n/a
178.12	0.165	356240	keystroke_e	e	n/a
178.344	0.196	356688	keystroke_n	n	n/a
178.525	0.24	357050	keystroke_t	t	n/a
178.75	0.21	357500	keystroke_a	a	n/a
178.914	0.285	357828	keystroke_l	l	n/a
179.2	0.224	358400	keystroke_Key.space	Key.space	n/a
179.769	0.225	359538	keystroke_f	f	n/a
180.01	0.284	360020	keystroke_i	i	n/a
180.19	0.15	360380	keystroke_n	n	n/a
180.774	0.12	361548	keystroke_Key.backspace	Key.backspace	n/a
181.014	0.075	362028	keystroke_Key.backspace	Key.backspace	n/a
181.209	0.06	362418	keystroke_Key.backspace	Key.backspace	n/a
181.375	0.134	362750	keystroke_Key.backspace	Key.backspace	n/a
181.629	0.09	363258	keystroke_Key.backspace	Key.backspace	n/a
181.825	0.089	363650	keystroke_Key.backspace	Key.backspace	n/a
182.034	0.09	364068	keystroke_Key.backspace	Key.backspace	n/a
182.229	0.106	364458	keystroke_Key.backspace	Key.backspace	n/a
182.559	0.15	365118	keystroke_Key.backspace	Key.backspace	n/a
182.844	0.135	365688	keystroke_Key.backspace	Key.backspace	n/a
183.07	0.119	366140	keystroke_Key.backspace	Key.backspace	n/a
183.31	0.149	366620	keystroke_Key.backspace	Key.backspace	n/a
185.26	0.2545	370520	keystroke_i	i	n/a
186.0845	0.195	372169	keystroke_m	m	n/a
186.2645	0.195	372529	keystroke_e	e	n/a
186.5345	0.18	373069	keystroke_n	n	n/a
186.6845	0.21	373369	keystroke_t	t	n/a
186.8795	0.195	373759	keystroke_a	a	n/a
187.0445	0.24	374089	keystroke_l	l	n/a
187.2995	0.194	374599	keystroke_Key.space	Key.space	n/a
187.5995	0.195	375199	keystroke_f	f	n/a
187.7795	0.239	375559	keystroke_i	i	n/a
187.9595	0.21	375919	keystroke_n	n	n/a
188.1545	0.225	376309	keystroke_i	i	n/a
188.3345	0.21	376669	keystroke_s	s	n/a
188.5145	0.18	377029	keystroke_h	h	n/a
188.6945	0.195	377389	keystroke_e	e	n/a
189.0995	0.135	378199	keystroke_d	d	n/a
189.6845	0.21	379369	keystroke_Key.space	Key.space	n/a
190.0595	0.255	380119	keystroke_p	p	n/a
190.2545	0.165	380509	keystroke_r	r	n/a
190.4795	0.255	380959	keystroke_o	o	n/a
190.8695	0.15	381739	keystroke_c	c	n/a
191.32	0.18	382640	keystroke_t	t	n/a
191.47	0.165	382940	keystroke_e	e	n/a
191.8145	0.18	383629	keystroke_c	c	n/a
192.2345	0.18	384469	keystroke_t	t	n/a
192.3695	0.225	384739	keystroke_i	i	n/a
192.5495	0.27	385099	keystroke_o	o	n/a
192.7295	0.18	385459	keystroke_n	n	n/a
193.239	0.165	386478	keystroke_Key.space	Key.space	n/a
193.524	0.165	387048	keystroke_j	j	n/a
193.8995	0.18	387799	keystroke_u	u	n/a
194.7245	0.135	389449	keystroke_Key.backspace	Key.backspace	n/a
194.9645	0.105	389929	keystroke_Key.backspace	Key.backspace	n/a
195.174	0.06	390348	keystroke_Key.backspace	Key.backspace	n/a
195.399	0.075	390798	keystroke_Key.backspace	Key.backspace	n/a
195.594	0.1055	391188	keystroke_Key.backspace	Key.backspace	n/a
196.3595	0.135	392719	keystroke_Key.backspace	Key.backspace	n/a
196.6295	0.12	393259	keystroke_Key.backspace	Key.backspace	n/a
196.8995	0.06	393799	keystroke_Key.backspace	Key.backspace	n/a
197.2595	0.18	394519	keystroke_Key.backspace	Key.backspace	n/a
197.7395	0.15	395479	keystroke_Key.backspace	Key.backspace	n/a
198.0545	0.195	396109	keystroke_Key.backspace	Key.backspace	n/a
199.7345	0.225	399469	keystroke_t	t	n/a
199.9745	0.195	399949	keystroke_e	e	n/a
200.3195	0.136	400639	keystroke_c	c	n/a
200.6355	0.165	401271	keystroke_t	t	n/a
200.7845	0.136	401569	keystroke_i	i	n/a
200.8895	0.3	401779	keystroke_o	o	n/a
201.1755	0.194	402351	keystroke_n	n	n/a
201.5045	0.196	403009	keystroke_Key.space	Key.space	n/a
202.2555	0.15	404511	keystroke_j	j	n/a
202.5845	0.18	405169	keystroke_u	u	n/a
202.751	0.195	405502	keystroke_d	d	n/a
203.0795	0.21	406159	keystroke_g	g	n/a
203.2595	0.136	406519	keystroke_e	e	n/a
203.8445	0.15	407689	keystroke_Key.backspace	Key.backspace	n/a
204.415	0.1355	408830	keystroke_m	m	n/a
204.9255	0.179	409851	keystroke_Key.backspace	Key.backspace	n/a
205.2855	0.195	410571	keystroke_g	g	n/a
206.29	0.18	412580	keystroke_Key.backspace	Key.backspace	n/a
206.966	0.165	413932	keystroke_e	e	n/a
207.251	0.149	414502	keystroke_m	m	n/a
207.415	0.18	414830	keystroke_e	e	n/a
207.61	0.181	415220	keystroke_n	n	n/a
207.836	0.149	415672	keystroke_t	t	n/a
208.121	0.18	416242	keystroke_Key.enter	Key.enter	n/a
208.3085	26.35	416617	prompt	n/a	suspect consequences bernard arcade\n
217.588	0.117	435176	keystroke_s	s	n/a
217.721	0.165	435442	keystroke_u	u	n/a
217.84	0.165	435680	keystroke_s	s	n/a
218.305	0.18	436610	keystroke_p	p	n/a
218.47	0.15	436940	keystroke_e	e	n/a
218.71	0.165	437420	keystroke_c	c	n/a
219.04	0.195	438080	keystroke_t	t	n/a
219.265	0.21	438530	keystroke_Key.space	Key.space	n/a
219.655	0.18	439310	keystroke_c	c	n/a
219.82	0.3	439640	keystroke_o	o	n/a
220.015	0.12	440030	keystroke_n	n	n/a
220.765	0.15	441530	keystroke_s	s	n/a
221.53	0.135	443060	keystroke_3	3	n/a
222.505	0.18	445010	keystroke_Key.backspace	Key.backspace	n/a
223.225	0.135	446450	keystroke_e	e	n/a
224.455	0.211	448910	keystroke_q	q	n/a
224.605	0.211	449210	keystroke_u	u	n/a
224.965	0.12	449930	keystroke_e	e	n/a
225.19	0.181	450380	keystroke_n	n	n/a
225.386	0.254	450772	keystroke_c	c	n/a
225.581	0.224	451162	keystroke_e	e	n/a
225.746	0.18	451492	keystroke_s	s	n/a
226.03	0.195	452060	keystroke_Key.space	Key.space	n/a
226.615	0.181	453230	keystroke_b	b	n/a
226.766	0.149	453532	keystroke_e	e	n/a
226.885	0.181	453770	keystroke_r	r	n/a
227.411	0.165	454822	keystroke_n	n	n/a
227.65	0.21	455300	keystroke_a	a	n/a
227.801	0.165	455602	keystroke_r	r	n/a
228.146	0.209	456292	keystroke_d	d	n/a
228.476	0.179	456952	keystroke_Key.space	Key.space	n/a
228.94	0.241	457880	keystroke_a	a	n/a
229.166	0.15	458332	keystroke_r	r	n/a
229.616	0.134	459232	keystroke_d	d	n/a
230.561	0.12	461122	keystroke_c	c	n/a
230.801	0.225	461602	keystroke_Key.backspace	Key.backspace	n/a
231.13	0.15	462260	keystroke_Key.backspace	Key.backspace	n/a
231.461	0.164	462922	keystroke_c	c	n/a
231.716	0.15	463432	keystroke_d	d	n/a
232.001	0.195	464002	keystroke_e	e	n/a
232.916	0.2245	465832	keystroke_Key.backspace	Key.backspace	n/a
233.2155	0.165	466431	keystroke_Key.backspace	Key.backspace	n/a
233.5305	0.18	467061	keystroke_a	a	n/a
233.8605	0.18	467721	keystroke_d	d	n/a
234.161	0.195	468322	keystroke_e	e	n/a
234.446	0.21	468892	keystroke_Key.enter	Key.enter	n/a
234.6665	15.0365	469333	prompt	n/a	exterior serve andrew dividend\n
235.691	0.12	471382	keystroke_e	e	n/a
236.036	0.165	472072	keystroke_x	x	n/a
236.531	0.195	473062	keystroke_t	t	n/a
236.771	0.165	473542	keystroke_e	e	n/a
236.921	0.165	473842	keystroke_r	r	n/a
237.491	0.255	474982	keystroke_i	i	n/a
237.701	0.21	475402	keystroke_o	o	n/a
237.866	0.195	475732	keystroke_r	r	n/a
238.151	0.195	476302	keystroke_Key.space	Key.space	n/a
238.886	0.21	477772	keystroke_s	s	n/a
239.741	0.18	479482	keystroke_e	e	n/a
239.861	0.195	479722	keystroke_r	r	n/a
240.341	0.195	480682	keystroke_v	v	n/a
240.596	0.255	481192	keystroke_e	e	n/a
241.046	0.255	482092	keystroke_Key.space	Key.space	n/a
241.406	0.225	482812	keystroke_a	a	n/a
241.811	0.195	483622	keystroke_n	n	n/a
242.051	0.195	484102	keystroke_d	d	n/a
242.456	0.195	484912	keystroke_r	r	n/a
242.561	0.255	485122	keystroke_e	e	n/a
242.696	0.135	485392	keystroke_r	r	n/a
243.131	0.18	486262	keystroke_Key.space	Key.space	n/a
243.851	0.135	487702	keystroke_Key.backspace	Key.backspace	n/a
244.076	0.105	488152	keystroke_Key.backspace	Key.backspace	n/a
244.241	0.165	488482	keystroke_w	w	n/a
244.6765	0.2245	489353	keystroke_Key.space	Key.space	n/a
245.051	0.18	490102	keystroke_d	d	n/a
245.261	0.225	490522	keystroke_i	i	n/a
246.446	0.195	492892	keystroke_v	v	n/a
246.731	0.18	493462	keystroke_i	i	n/a
246.926	0.1955	493852	keystroke_d	d	n/a
247.2715	0.165	494543	keystroke_e	e	n/a
247.5565	0.15	495113	keystroke_n	n	n/a
248.0815	0.195	496163	keystroke_t	t	n/a
248.7715	0.195	497543	keystroke_Key.backspace	Key.backspace	n/a
248.9815	0.165	497963	keystroke_d	d	n/a
249.4615	0.24	498923	keystroke_Key.enter	Key.enter	n/a
249.7095	6.8035	499419	prompt	n/a	established stat we've posters\n
250.4515	0.18	500903	keystroke_e	e	n/a
250.5865	0.21	501173	keystroke_s	s	n/a
250.8715	0.2245	501743	keystroke_t	t	n/a
251.3065	0.21	502613	keystroke_a	a	n/a
251.6965	0.21	503393	keystroke_b	b	n/a
251.9665	0.3595	503933	keystroke_l	l	n/a
252.131	0.225	504262	keystroke_i	i	n/a
252.341	0.21	504682	keystroke_s	s	n/a
252.581	0.15	505162	keystroke_h	h	n/a
252.716	0.165	505432	keystroke_e	e	n/a
253.031	0.27	506062	keystroke_d	d	n/a
253.571	0.195	507142	keystroke_Key.space	Key.space	n/a
254.021	0.21	508042	keystroke_s	s	n/a
254.246	0.255	508492	keystroke_t	t	n/a
254.516	0.195	509032	keystroke_a	a	n/a
254.696	0.24	509392	keystroke_t	t	n/a
254.891	0.21	509782	keystroke_e	e	n/a
255.176	0.18	510352	keystroke_Key.space	Key.space	n/a
255.416	0.21	510832	keystroke_w	w	n/a
255.536	0.165	511072	keystroke_e	e	n/a
256.301	0.21	512602	keystroke_Key.enter	Key.enter	n/a
256.5175	16.3305	513035	prompt	n/a	fotos logs replies turtle\n
256.706	0.27	513412	keystroke_v	v	n/a
258.071	0.18	516142	keystroke_Key.backspace	Key.backspace	n/a
259.046	0.195	518092	keystroke_f	f	n/a
259.226	0.18	518452	keystroke_o	o	n/a
259.466	0.18	518932	keystroke_t	t	n/a
259.601	0.21	519202	keystroke_o	o	n/a
259.796	0.18	519592	keystroke_s	s	n/a
260.216	0.195	520432	keystroke_Key.space	Key.space	n/a
260.426	0.135	520852	keystroke_l	l	n/a
260.681	0.195	521362	keystroke_o	o	n/a
260.786	0.255	521572	keystroke_g	g	n/a
260.951	0.195	521902	keystroke_s	s	n/a
261.131	0.195	522262	keystroke_Key.space	Key.space	n/a
261.551	0.18	523102	keystroke_r	r	n/a
261.656	0.18	523312	keystroke_e	e	n/a
262.001	0.24	524002	keystroke_p	p	n/a
262.406	0.39	524812	keystroke_l	l	n/a
262.436	0.03	524872	keystroke_k	k	n/a
262.706	0.15	525412	keystroke_i	i	n/a
263.126	0.12	526252	keystroke_Key.backspace	Key.backspace	n/a
263.336	0.105	526672	keystroke_Key.backspace	Key.backspace	n/a
264.791	0.27	529582	keystroke_l	l	n/a
264.956	0.165	529912	keystroke_i	i	n/a
265.571	0.165	531142	keystroke_Key.backspace	Key.backspace	n/a
265.826	0.105	531652	keystroke_Key.backspace	Key.backspace	n/a
266.831	0.18	533662	keystroke_i	i	n/a
266.966	0.255	533932	keystroke_e	e	n/a
267.146	0.21	534292	keystroke_s	s	n/a
267.446	0.21	534892	keystroke_Key.space	Key.space	n/a
267.791	0.18	535582	keystroke_t	t	n/a
268.0765	0.18	536153	keystroke_u	u	n/a
268.2415	0.165	536483	keystroke_r	r	n/a
268.5565	0.18	537113	keystroke_t	t	n/a
268.7815	0.194	537563	keystroke_u	u	n/a
269.0665	0.195	538133	keystroke_l	l	n/a
269.6065	0.104	539213	keystroke_Key.backspace	Key.backspace	n/a
269.8305	0.105	539661	keystroke_Key.backspace	Key.backspace	n/a
270.0715	0.179	540143	keystroke_e	e	n/a
270.4465	0.285	540893	keystroke_l	l	n/a
270.6415	0.195	541283	keystroke_e	e	n/a
271.0615	0.089	542123	keystroke_Key.backspace	Key.backspace	n/a
271.2555	0.091	542511	keystroke_Key.backspace	Key.backspace	n/a
271.4515	0.075	542903	keystroke_Key.backspace	Key.backspace	n/a
271.8415	0.239	543683	keystroke_l	l	n/a
271.9765	0.21	543953	keystroke_e	e	n/a
272.6515	0.195	545303	keystroke_Key.enter	Key.enter	n/a
272.853	11.0055	545706	prompt	n/a	identity persons hidden dual\n
274.0165	0.21	548033	keystroke_i	i	n/a
274.1515	0.165	548303	keystroke_d	d	n/a
274.4665	0.225	548933	keystroke_e	e	n/a
274.6765	0.18	549353	keystroke_n	n	n/a
274.8715	0.195	549743	keystroke_t	t	n/a
275.0965	0.225	550193	keystroke_i	i	n/a
275.2465	0.12	550493	keystroke_t	t	n/a
275.5615	0.18	551123	keystroke_y	y	n/a
275.8465	0.195	551693	keystroke_Key.space	Key.space	n/a
276.2665	0.27	552533	keystroke_p	p	n/a
276.4465	0.21	552893	keystroke_e	e	n/a
276.6265	0.27	553253	keystroke_r	r	n/a
276.8665	0.18	553733	keystroke_s	s	n/a
277.3165	0.375	554633	keystroke_o	o	n/a
277.6465	0.195	555293	keystroke_n	n	n/a
277.9765	0.225	555953	keystroke_s	s	n/a
278.2465	0.1955	556493	keystroke_Key.space	Key.space	n/a
278.637	0.255	557274	keystroke_h	h	n/a
278.772	0.27	557544	keystroke_i	i	n/a
278.997	0.135	557994	keystroke_d	d	n/a
279.237	0.135	558474	keystroke_d	d	n/a
279.507	0.21	559014	keystroke_e	e	n/a
279.687	0.195	559374	keystroke_n	n	n/a
279.927	0.165	559854	keystroke_Key.space	Key.space	n/a
280.332	0.195	560664	keystroke_d	d	n/a
280.572	0.226	561144	keystroke_a	a	n/a
280.767	0.255	561534	keystroke_u	u	n/a
280.947	0.24	561894	keystroke_l	l	n/a
281.742	0.1195	563484	keystroke_Key.backspace	Key.backspace	n/a
281.9515	0.105	563903	keystroke_Key.backspace	Key.backspace	n/a
282.1465	0.09	564293	keystroke_Key.backspace	Key.backspace	n/a
282.6565	0.195	565313	keystroke_u	u	n/a
282.8815	0.21	565763	keystroke_a	a	n/a
283.1065	0.195	566213	keystroke_l	l	n/a
283.6015	0.255	567203	keystroke_Key.enter	Key.enter	n/a
283.863	26.441	567726	prompt	n/a	sick employment egypt immune\n
284.532	0.15	569064	keystroke_s	s	n/a
284.712	0.18	569424	keystroke_i	i	n/a
284.997	0.15	569994	keystroke_c	c	n/a
285.162	0.195	570324	keystroke_k	k	n/a
285.432	0.21	570864	keystroke_Key.space	Key.space	n/a
285.777	0.18	571554	keystroke_e	e	n/a
285.852	0.165	571704	keystroke_m	m	n/a
286.227	0.18	572454	keystroke_p	p	n/a
286.692	0.225	573384	keystroke_l	l	n/a
287.097	0.195	574194	keystroke_o	o	n/a
287.442	0.225	574884	keystroke_l	l	n/a
287.787	0.135	575574	keystroke_y	y	n/a
288.267	0.195	576534	keystroke_m	m	n/a
288.432	0.21	576864	keystroke_e	e	n/a
288.792	0.06	577584	keystroke_h	h	n/a
288.897	0.15	577794	keystroke_n	n	n/a
289.167	0.18	578334	keystroke_t	t	n/a
289.602	0.105	579204	keystroke_Key.backspace	Key.backspace	n/a
289.797	0.105	579594	keystroke_Key.backspace	Key.backspace	n/a
290.457	0.075	580914	keystroke_Key.backspace	Key.backspace	n/a
291.252	0.165	582504	keystroke_n	n	n/a
291.477	0.21	582954	keystroke_t	t	n/a
291.957	0.195	583914	keystroke_Key.space	Key.space	n/a
292.3615	0.195	584723	keystroke_e	e	n/a
292.7515	0.15	585503	keystroke_g	g	n/a
300.255	0.011	600510	keystroke_Key.backspace	Key.backspace	n/a
300.387	0.104	600774	keystroke_Key.backspace	Key.backspace	n/a
300.567	0.105	601134	keystroke_Key.backspace	Key.backspace	n/a
300.776	0.075	601552	keystroke_Key.backspace	Key.backspace	n/a
300.971	0.076	601942	keystroke_Key.backspace	Key.backspace	n/a
301.151	0.106	602302	keystroke_Key.backspace	Key.backspace	n/a
301.376	0.12	602752	keystroke_Key.backspace	Key.backspace	n/a
301.587	0.104	603174	keystroke_Key.backspace	Key.backspace	n/a
302.351	0.105	604702	keystroke_Key.backspace	Key.backspace	n/a
303.597	0.105	607194	keystroke_y	y	n/a
304.137	0.1505	608274	keystroke_m	m	n/a
304.271	0.2115	608542	keystroke_e	e	n/a
304.5125	0.1645	609025	keystroke_n	n	n/a
304.7225	0.1795	609445	keystroke_t	t	n/a
305.1125	0.179	610225	keystroke_Key.space	Key.space	n/a
306.1175	0.18	612235	keystroke_e	e	n/a
306.3875	0.195	612775	keystroke_g	g	n/a
306.7625	0.24	613525	keystroke_y	y	n/a
306.9725	0.27	613945	keystroke_p	p	n/a
307.1825	0.165	614365	keystroke_t	t	n/a
307.4375	0.165	614875	keystroke_Key.space	Key.space	n/a
307.6475	0.255	615295	keystroke_i	i	n/a
307.8125	0.135	615625	keystroke_m	m	n/a
308.0375	0.15	616075	keystroke_m	m	n/a
308.3975	0.1945	616795	keystroke_u	u	n/a
308.832	0.195	617664	keystroke_n	n	n/a
309.102	0.2105	618204	keystroke_e	e	n/a
310.0925	0.21	620185	keystroke_Key.enter	Key.enter	n/a
310.3085	12.671	620617	prompt	n/a	estimate deposits websites animation\n
311.0525	0.255	622105	keystroke_e	e	n/a
311.2475	0.2095	622495	keystroke_s	s	n/a
311.487	0.195	622974	keystroke_t	t	n/a
312.2825	0.285	624565	keystroke_i	i	n/a
312.5225	0.15	625045	keystroke_m	m	n/a
312.8375	0.225	625675	keystroke_a	a	n/a
313.0325	0.225	626065	keystroke_t	t	n/a
313.1975	0.18	626395	keystroke_e	e	n/a
313.4525	0.18	626905	keystroke_Key.space	Key.space	n/a
313.8725	0.165	627745	keystroke_d	d	n/a
314.1425	0.285	628285	keystroke_e	e	n/a
314.7275	0.225	629455	keystroke_p	p	n/a
315.0425	0.24	630085	keystroke_o	o	n/a
315.2675	0.195	630535	keystroke_s	s	n/a
316.362	0.2255	632724	keystroke_i	i	n/a
316.572	0.255	633144	keystroke_t	t	n/a
316.737	0.195	633474	keystroke_s	s	n/a
317.142	0.255	634284	keystroke_Key.space	Key.space	n/a
317.472	0.18	634944	keystroke_w	w	n/a
317.592	0.18	635184	keystroke_e	e	n/a
317.922	0.21	635844	keystroke_b	b	n/a
318.237	0.21	636474	keystroke_s	s	n/a
318.492	0.285	636984	keystroke_i	i	n/a
318.762	0.225	637524	keystroke_t	t	n/a
318.927	0.15	637854	keystroke_s	s	n/a
319.617	0.105	639234	keystroke_Key.backspace	Key.backspace	n/a
319.902	0.21	639804	keystroke_e	e	n/a
320.052	0.165	640104	keystroke_s	s	n/a
320.502	0.225	641004	keystroke_Key.space	Key.space	n/a
321.042	0.165	642084	keystroke_a	a	n/a
321.147	0.195	642294	keystroke_n	n	n/a
321.372	0.255	642744	keystroke_i	i	n/a
321.537	0.15	643074	keystroke_m	m	n/a
321.807	0.225	643614	keystroke_a	a	n/a
322.047	0.165	644094	keystroke_t	t	n/a
322.182	0.15	644364	keystroke_i	i	n/a
322.272	0.2255	644544	keystroke_o	o	n/a
322.422	0.1805	644844	keystroke_n	n	n/a
322.7525	0.2245	645505	keystroke_Key.enter	Key.enter	n/a
322.986	10.314	645972	prompt	n/a	studies resolve beside france\n
324.5825	0.195	649165	keystroke_s	s	n/a
324.8675	0.165	649735	keystroke_t	t	n/a
325.2725	0.1795	650545	keystroke_u	u	n/a
325.917	0.1655	651834	keystroke_d	d	n/a
326.1875	0.27	652375	keystroke_i	i	n/a
326.4275	0.18	652855	keystroke_e	e	n/a
326.5625	0.195	653125	keystroke_s	s	n/a
327.072	0.195	654144	keystroke_Key.space	Key.space	n/a
327.4775	0.18	654955	keystroke_r	r	n/a
327.5835	0.194	655167	keystroke_e	e	n/a
327.7475	0.135	655495	keystroke_s	s	n/a
328.2275	0.18	656455	keystroke_o	o	n/a
328.5425	0.24	657085	keystroke_l	l	n/a
328.7375	0.195	657475	keystroke_v	v	n/a
328.9025	0.195	657805	keystroke_e	e	n/a
329.1275	0.195	658255	keystroke_Key.space	Key.space	n/a
329.7875	0.195	659575	keystroke_b	b	n/a
329.8925	0.3	659785	keystroke_e	e	n/a
330.1475	0.18	660295	keystroke_s	s	n/a
330.5075	0.24	661015	keystroke_i	i	n/a
330.7625	0.165	661525	keystroke_d	d	n/a
331.0325	0.225	662065	keystroke_e	e	n/a
331.3775	0.18	662755	keystroke_Key.space	Key.space	n/a
331.5585	0.179	663117	keystroke_f	f	n/a
331.9175	0.27	663835	keystroke_r	r	n/a
332.1425	0.24	664285	keystroke_a	a	n/a
332.3975	0.21	664795	keystroke_n	n	n/a
332.6225	0.195	665245	keystroke_c	c	n/a
332.7885	0.149	665577	keystroke_e	e	n/a
333.0875	0.21	666175	keystroke_Key.enter	Key.enter	n/a
333.306	9.488	666612	prompt	n/a	lowest bite visitors peak\n
334.0025	0.165	668005	keystroke_l	l	n/a
334.2725	0.225	668545	keystroke_o	o	n/a
334.5425	0.33	669085	keystroke_e	e	n/a
334.8125	0.21	669625	keystroke_s	s	n/a
335.0675	0.225	670135	keystroke_t	t	n/a
335.4875	0.105	670975	keystroke_Key.backspace	Key.backspace	n/a
335.6975	0.09	671395	keystroke_Key.backspace	Key.backspace	n/a
336.0425	0.165	672085	keystroke_Key.backspace	Key.backspace	n/a
336.2225	0.285	672445	keystroke_w	w	n/a
336.4925	0.3	672985	keystroke_e	e	n/a
336.7775	0.24	673555	keystroke_s	s	n/a
336.9875	0.195	673975	keystroke_t	t	n/a
337.4525	0.015	674905	keystroke_Key.space	Key.space	n/a
337.9175	0.195	675835	keystroke_b	b	n/a
338.0975	0.255	676195	keystroke_i	i	n/a
338.2925	0.18	676585	keystroke_t	t	n/a
338.3825	0.18	676765	keystroke_e	e	n/a
338.5635	0.164	677127	keystroke_Key.space	Key.space	n/a
338.7575	0.18	677515	keystroke_v	v	n/a
338.9075	0.195	677815	keystroke_i	i	n/a
339.2675	0.075	678535	keystroke_s	s	n/a
340.1075	0.195	680215	keystroke_i	i	n/a
340.3325	0.15	680665	keystroke_t	t	n/a
340.4975	0.225	680995	keystroke_o	o	n/a
340.6925	0.21	681385	keystroke_r	r	n/a
340.8575	0.121	681715	keystroke_s	s	n/a
341.1125	0.18	682225	keystroke_Key.space	Key.space	n/a
341.5325	0.24	683065	keystroke_p	p	n/a
341.6825	0.271	683365	keystroke_e	e	n/a
341.9675	0.18	683935	keystroke_a	a	n/a
342.1335	0.224	684267	keystroke_k	k	n/a
342.7475	0.045	685495	keystroke_Key.enter	Key.enter	n/a
342.799	8.261	685598	prompt	n/a	heart mother dealers concert\n
344.1135	0.194	688227	keystroke_h	h	n/a
344.2335	0.194	688467	keystroke_e	e	n/a
344.3975	0.195	688795	keystroke_a	a	n/a
344.5635	0.134	689127	keystroke_r	r	n/a
344.8175	0.181	689635	keystroke_t	t	n/a
345.4925	0.195	690985	keystroke_Key.space	Key.space	n/a
345.8835	0.225	691767	keystroke_m	m	n/a
346.0785	0.254	692157	keystroke_o	o	n/a
346.2725	0.211	692545	keystroke_t	t	n/a
346.4675	0.21	692935	keystroke_h	h	n/a
346.6475	0.18	693295	keystroke_e	e	n/a
346.7675	0.18	693535	keystroke_r	r	n/a
346.9175	0.18	693835	keystroke_Key.space	Key.space	n/a
347.1285	0.15	694257	keystroke_d	d	n/a
347.3975	0.225	694795	keystroke_e	e	n/a
347.6085	0.2085	695217	keystroke_a	a	n/a
347.8035	0.24	695607	keystroke_l	l	n/a
348.0275	0.21	696055	keystroke_e	e	n/a
348.1935	0.239	696387	keystroke_r	r	n/a
348.3585	0.164	696717	keystroke_s	s	n/a
348.7175	0.1945	697435	keystroke_Key.space	Key.space	n/a
349.092	0.1355	698184	keystroke_c	c	n/a
349.2585	0.33	698517	keystroke_o	o	n/a
349.438	0.1805	698876	keystroke_n	n	n/a
349.5725	0.165	699145	keystroke_c	c	n/a
349.6925	0.3005	699385	keystroke_e	e	n/a
349.9485	0.1785	699897	keystroke_r	r	n/a
350.2925	0.1655	700585	keystroke_t	t	n/a
350.847	0.211	701694	keystroke_Key.enter	Key.enter	n/a
351.065	9.415	702130	prompt	n/a	python ought pmid suffered\n
352.047	0.166	704094	keystroke_p	p	n/a
353.008	0.165	706016	keystroke_y	y	n/a
353.338	0.18	706676	keystroke_t	t	n/a
353.563	0.179	707126	keystroke_h	h	n/a
353.683	0.21	707366	keystroke_o	o	n/a
354.103	0.18	708206	keystroke_n	n	n/a
354.567	0.256	709134	keystroke_Key.space	Key.space	n/a
355.017	0.346	710034	keystroke_o	o	n/a
355.183	0.165	710366	keystroke_u	u	n/a
355.438	0.315	710876	keystroke_g	g	n/a
355.903	0.135	711806	keystroke_h	h	n/a
356.383	0.209	712766	keystroke_Key.space	Key.space	n/a
356.893	0.224	713786	keystroke_p	p	n/a
357.538	0.255	715076	keystroke_m	m	n/a
357.763	0.24	715526	keystroke_i	i	n/a
358.018	0.179	716036	keystroke_d	d	n/a
358.257	0.226	716514	keystroke_Key.space	Key.space	n/a
358.498	0.135	716996	keystroke_s	s	n/a
358.708	0.18	717416	keystroke_u	u	n/a
358.858	0.165	717716	keystroke_f	f	n/a
359.142	0.166	718284	keystroke_f	f	n/a
359.338	0.285	718676	keystroke_e	e	n/a
359.593	0.165	719186	keystroke_r	r	n/a
360.268	0.21	720536	keystroke_Key.enter	Key.enter	n/a
360.4865	20.4385	720973	prompt	n/a	profile base macromedia disk\n
361.423	0.24	722846	keystroke_p	p	n/a
361.648	0.18	723296	keystroke_r	r	n/a
362.638	0.18	725276	keystroke_o	o	n/a
362.983	0.135	725966	keystroke_f	f	n/a
363.133	0.27	726266	keystroke_i	i	n/a
363.358	0.24	726716	keystroke_l	l	n/a
363.508	0.195	727016	keystroke_e	e	n/a
363.643	0.15	727286	keystroke_s	s	n/a
363.658	0.075	727316	keystroke_l	l	n/a
363.868	0.105	727736	keystroke_l	l	n/a
363.883	0.195	727766	keystroke_Key.space	Key.space	n/a
364.318	0.21	728636	keystroke_b	b	n/a
364.558	0.285	729116	keystroke_a	a	n/a
364.828	0.405	729656	keystroke_s	s	n/a
365.473	0.135	730946	keystroke_Key.backspace	Key.backspace	n/a
365.713	0.075	731426	keystroke_Key.backspace	Key.backspace	n/a
365.923	0.045	731846	keystroke_Key.backspace	Key.backspace	n/a
366.283	0.12	732566	keystroke_Key.backspace	Key.backspace	n/a
366.673	0.075	733346	keystroke_Key.backspace	Key.backspace	n/a
367.678	0.15	735356	keystroke_Key.backspace	Key.backspace	n/a
368.188	0.105	736376	keystroke_Key.backspace	Key.backspace	n/a
368.533	0.06	737066	keystroke_e	e	n/a
368.998	0.15	737996	keystroke_Key.backspace	Key.backspace	n/a
369.853	0.225	739706	keystroke_l	l	n/a
370.048	0.165	740096	keystroke_e	e	n/a
370.873	0.12	741746	keystroke_Key.backspace	Key.backspace	n/a
372.088	0.12	744176	keystroke_Key.backspace	Key.backspace	n/a
372.478	0.195	744956	keystroke_Key.space	Key.space	n/a
373.318	0.165	746636	keystroke_b	b	n/a
373.498	0.24	746996	keystroke_a	a	n/a
373.678	0.225	747356	keystroke_s	s	n/a
373.858	0.165	747716	keystroke_e	e	n/a
373.993	0.195	747986	keystroke_Key.space	Key.space	n/a
374.353	0.165	748706	keystroke_m	m	n/a
374.488	0.18	748976	keystroke_a	a	n/a
374.803	0.135	749606	keystroke_c	c	n/a
375.238	0.21	750476	keystroke_r	r	n/a
375.418	0.255	750836	keystroke_o	o	n/a
376.138	0.18	752276	keystroke_m	m	n/a
376.303	0.12	752606	keystroke_e	e	n/a
376.603	0.21	753206	keystroke_d	d	n/a
376.828	0.195	753656	keystroke_i	i	n/a
377.308	0.195	754616	keystroke_e	e	n/a
377.668	0.225	755336	keystroke_a	a	n/a
378.193	0.105	756386	keystroke_Key.backspace	Key.backspace	n/a
378.403	0.15	756806	keystroke_Key.backspace	Key.backspace	n/a
378.598	0.21	757196	keystroke_a	a	n/a
379.123	0.24	758246	keystroke_Key.space	Key.space	n/a
379.708	0.165	759416	keystroke_d	d	n/a
379.888	0.18	759776	keystroke_i	i	n/a
380.083	0.165	760166	keystroke_s	s	n/a
380.278	0.225	760556	keystroke_k	k	n/a
380.728	0.195	761456	keystroke_Key.enter	Key.enter	n/a
380.93	16.3305	761860	prompt	n/a	manufacturer jordan discount dialog\n
381.7785	0.1345	763557	keystroke_m	m	n/a
381.929	0.2245	763858	keystroke_a	a	n/a
382.1985	0.1505	764397	keystroke_n	n	n/a
383.3085	0.179	766617	keystroke_u	u	n/a
383.6225	0.166	767245	keystroke_f	f	n/a
383.9675	0.211	767935	keystroke_a	a	n/a
384.2085	0.165	768417	keystroke_c	c	n/a
384.5985	0.18	769197	keystroke_t	t	n/a
384.8085	0.195	769617	keystroke_u	u	n/a
385.1385	0.21	770277	keystroke_a	a	n/a
385.3335	0.165	770667	keystroke_r	r	n/a
386.3825	0.121	772765	keystroke_Key.backspace	Key.backspace	n/a
388.3335	0.209	776667	keystroke_Key.backspace	Key.backspace	n/a
389.1735	0.18	778347	keystroke_r	r	n/a
389.6835	0.195	779367	keystroke_e	e	n/a
389.8325	0.135	779665	keystroke_r	r	n/a
390.4785	0.21	780957	keystroke_Key.space	Key.space	n/a
390.9885	0.255	781977	keystroke_j	j	n/a
391.2135	0.21	782427	keystroke_o	o	n/a
391.3935	0.165	782787	keystroke_r	r	n/a
391.7085	0.27	783417	keystroke_d	d	n/a
392.0235	0.21	784047	keystroke_a	a	n/a
392.2485	0.18	784497	keystroke_n	n	n/a
392.5035	0.18	785007	keystroke_Key.space	Key.space	n/a
392.7885	0.165	785577	keystroke_d	d	n/a
392.9535	0.21	785907	keystroke_i	i	n/a
393.1935	0.225	786387	keystroke_s	s	n/a
393.5235	0.18	787047	keystroke_c	c	n/a
393.7035	0.27	787407	keystroke_o	o	n/a
393.8685	0.15	787737	keystroke_u	u	n/a
394.2285	0.195	788457	keystroke_n	n	n/a
394.3785	0.165	788757	keystroke_t	t	n/a
394.6485	0.195	789297	keystroke_Key.space	Key.space	n/a
395.0835	0.195	790167	keystroke_d	d	n/a
395.3085	0.225	790617	keystroke_i	i	n/a
395.6685	0.18	791337	keystroke_a	a	n/a
396.2535	0.21	792507	keystroke_l	l	n/a
396.6585	0.255	793317	keystroke_o	o	n/a
396.8985	0.15	793797	keystroke_g	g	n/a
397.1085	0.15	794217	keystroke_Key.enter	Key.enter	n/a
397.266	20.5445	794532	prompt	n/a	properties groove partial statements\n
403.967	0.162	807934	keystroke_p	p	n/a
404.234	0.194	808468	keystroke_r	r	n/a
404.773	0.195	809546	keystroke_o	o	n/a
404.878	0.165	809756	keystroke_-	-	n/a
405.194	0.209	810388	keystroke_p	p	n/a
405.658	0.165	811316	keystroke_Key.backspace	Key.backspace	n/a
405.929	0.134	811858	keystroke_Key.backspace	Key.backspace	n/a
406.604	0.21	813208	keystroke_p	p	n/a
406.933	0.271	813866	keystroke_e	e	n/a
407.114	0.164	814228	keystroke_r	r	n/a
408.314	0.18	816628	keystroke_t	t	n/a
408.494	0.225	816988	keystroke_i	i	n/a
408.659	0.254	817318	keystroke_e	e	n/a
408.824	0.194	817648	keystroke_s	s	n/a
409.003	0.21	818006	keystroke_Key.space	Key.space	n/a
409.499	0.195	818998	keystroke_g	g	n/a
409.994	0.194	819988	keystroke_r	r	n/a
410.219	0.164	820438	keystroke_o	o	n/a
410.504	0.315	821008	keystroke_o	o	n/a
411.149	0.195	822298	keystroke_v	v	n/a
411.299	0.18	822598	keystroke_e	e	n/a
411.613	0.18	823226	keystroke_Key.space	Key.space	n/a
412.214	0.24	824428	keystroke_p	p	n/a
412.379	0.254	824758	keystroke_a	a	n/a
412.574	0.15	825148	keystroke_r	r	n/a
412.814	0.18	825628	keystroke_t	t	n/a
413.009	0.209	826018	keystroke_i	i	n/a
413.174	0.21	826348	keystroke_a	a	n/a
413.399	0.21	826798	keystroke_l	l	n/a
414.238	0.2105	828476	keystroke_Key.space	Key.space	n/a
414.4185	0.27	828837	keystroke_s	s	n/a
414.8085	0.24	829617	keystroke_t	t	n/a
415.0485	0.285	830097	keystroke_a	a	n/a
415.3485	0.225	830697	keystroke_t	t	n/a
415.5285	0.195	831057	keystroke_e	e	n/a
416.1885	0.21	832377	keystroke_m	m	n/a
416.3835	0.21	832767	keystroke_e	e	n/a
416.6235	0.195	833247	keystroke_n	n	n/a
416.8485	0.18	833697	keystroke_t	t	n/a
416.9235	0.165	833847	keystroke_s	s	n/a
417.6135	0.195	835227	keystroke_Key.enter	Key.enter	n/a
417.8155	25.3375	835631	prompt	n/a	enterprises morris calculations latvia\n
418.7685	0.18	837537	keystroke_e	e	n/a
419.0685	0.165	838137	keystroke_n	n	n/a
419.2485	0.195	838497	keystroke_t	t	n/a
419.4135	0.2105	838827	keystroke_e	e	n/a
419.564	0.165	839128	keystroke_r	r	n/a
419.954	0.225	839908	keystroke_p	p	n/a
420.089	0.18	840178	keystroke_r	r	n/a
420.359	0.225	840718	keystroke_i	i	n/a
420.539	0.18	841078	keystroke_s	s	n/a
420.689	0.225	841378	keystroke_e	e	n/a
420.869	0.1955	841738	keystroke_s	s	n/a
421.6495	0.21	843299	keystroke_e	e	n/a
421.9045	0.165	843809	keystroke_s	s	n/a
422.46	0.225	844920	keystroke_Key.space	Key.space	n/a
423.6305	0.135	847261	keystroke_Key.backspace	Key.backspace	n/a
423.9605	0.165	847921	keystroke_Key.backspace	Key.backspace	n/a
424.2605	0.135	848521	keystroke_Key.backspace	Key.backspace	n/a
424.981	0.18	849962	keystroke_s	s	n/a
425.536	0.15	851072	keystroke_Key.space	Key.space	n/a
425.866	0.12	851732	keystroke_Key.backspace	Key.backspace	n/a
426.076	0.12	852152	keystroke_Key.backspace	Key.backspace	n/a
427.8165	0.18	855633	keystroke_Key.space	Key.space	n/a
428.2065	0.225	856413	keystroke_m	m	n/a
428.3865	0.18	856773	keystroke_o	o	n/a
428.6715	0.135	857343	keystroke_r	r	n/a
428.957	0.15	857914	keystroke_r	r	n/a
429.137	0.255	858274	keystroke_o	o	n/a
429.902	0.165	859804	keystroke_Key.backspace	Key.backspace	n/a
430.337	0.225	860674	keystroke_i	i	n/a
430.577	0.18	861154	keystroke_s	s	n/a
431.1325	0.18	862265	keystroke_Key.space	Key.space	n/a
431.5525	0.225	863105	keystroke_c	c	n/a
431.7475	0.21	863495	keystroke_a	a	n/a
431.8825	0.255	863765	keystroke_l	l	n/a
432.5575	0.18	865115	keystroke_c	c	n/a
432.7525	0.165	865505	keystroke_u	u	n/a
432.8425	0.2405	865685	keystroke_l	l	n/a
433.128	0.045	866256	keystroke_l	l	n/a
433.263	0.255	866526	keystroke_a	a	n/a
433.578	0.18	867156	keystroke_t	t	n/a
433.998	0.21	867996	keystroke_o	o	n/a
434.283	0.195	868566	keystroke_r	r	n/a
434.793	0.12	869586	keystroke_Key.backspace	Key.backspace	n/a
435.033	0.045	870066	keystroke_Key.backspace	Key.backspace	n/a
435.2285	0.09	870457	keystroke_Key.backspace	Key.backspace	n/a
435.4685	0.105	870937	keystroke_Key.backspace	Key.backspace	n/a
435.6935	0.09	871387	keystroke_Key.backspace	Key.backspace	n/a
437.554	0.24	875108	keystroke_a	a	n/a
437.854	0.195	875708	keystroke_t	t	n/a
438.124	0.225	876248	keystroke_o	o	n/a
438.334	0.33	876668	keystroke_r	r	n/a
438.829	0.165	877658	keystroke_s	s	n/a
439.5645	0.195	879129	keystroke_Key.space	Key.space	n/a
441.1995	0.255	882399	keystroke_l	l	n/a
441.3645	0.2405	882729	keystroke_a	a	n/a
441.62	0.195	883240	keystroke_t	t	n/a
442.1	0.21	884200	keystroke_v	v	n/a
442.265	0.24	884530	keystroke_i	i	n/a
442.52	0.195	885040	keystroke_a	a	n/a
442.91	0.24	885820	keystroke_Key.enter	Key.enter	n/a
443.1595	12.84	886319	prompt	n/a	colors wiring maker modes\n
443.9755	0.18	887951	keystroke_c	c	n/a
444.1105	0.18	888221	keystroke_o	o	n/a
444.4105	0.165	888821	keystroke_l	l	n/a
444.6955	0.24	889391	keystroke_o	o	n/a
444.9655	0.3	889931	keystroke_r	r	n/a
445.2055	0.195	890411	keystroke_s	s	n/a
445.5805	0.24	891161	keystroke_Key.space	Key.space	n/a
446.0005	0.2255	892001	keystroke_w	w	n/a
446.706	0.195	893412	keystroke_i	i	n/a
447.396	0.195	894792	keystroke_t	t	n/a
447.606	0.33	895212	keystroke_i	i	n/a
448.176	0.105	896352	keystroke_Key.backspace	Key.backspace	n/a
448.386	0.105	896772	keystroke_Key.backspace	Key.backspace	n/a
448.506	0.1955	897012	keystroke_r	r	n/a
449.0915	0.315	898183	keystroke_i	i	n/a
449.2865	0.135	898573	keystroke_n	n	n/a
449.6465	0.165	899293	keystroke_g	g	n/a
450.5765	0.195	901153	keystroke_Key.space	Key.space	n/a
451.0115	0.195	902023	keystroke_m	m	n/a
451.2215	0.225	902443	keystroke_a	a	n/a
451.4765	0.3	902953	keystroke_k	k	n/a
451.7915	0.09	903583	keystroke_3	3	n/a
451.927	0.075	903854	keystroke_r	r	n/a
452.392	0.12	904784	keystroke_Key.backspace	Key.backspace	n/a
452.707	0.165	905414	keystroke_Key.backspace	Key.backspace	n/a
452.992	0.21	905984	keystroke_e	e	n/a
453.172	0.165	906344	keystroke_r	r	n/a
453.487	0.195	906974	keystroke_Key.space	Key.space	n/a
453.877	0.21	907754	keystroke_m	m	n/a
454.057	0.225	908114	keystroke_o	o	n/a
454.237	0.195	908474	keystroke_d	d	n/a
454.5675	0.255	909135	keystroke_e	e	n/a
454.7625	0.165	909525	keystroke_s	s	n/a
455.7525	0.24	911505	keystroke_Key.enter	Key.enter	n/a
455.9995	12.747	911999	prompt	n/a	browsers coaching differential catch\n
457.104	0.254	914208	keystroke_b	b	n/a
457.313	0.21	914626	keystroke_r	r	n/a
457.658	0.27	915316	keystroke_o	o	n/a
457.883	0.18	915766	keystroke_w	w	n/a
458.873	0.18	917746	keystroke_s	s	n/a
459.308	0.48	918616	keystroke_e	e	n/a
459.458	0.21	918916	keystroke_r	r	n/a
459.773	0.21	919546	keystroke_s	s	n/a
460.613	0.2255	921226	keystroke_Key.space	Key.space	n/a
461.0035	0.15	922007	keystroke_c	c	n/a
461.2135	0.24	922427	keystroke_o	o	n/a
461.3785	0.225	922757	keystroke_a	a	n/a
461.6485	0.18	923297	keystroke_c	c	n/a
461.7835	0.21	923567	keystroke_h	h	n/a
461.9785	0.315	923957	keystroke_i	i	n/a
462.2035	0.135	924407	keystroke_n	n	n/a
462.6095	0.195	925219	keystroke_g	g	n/a
463.2535	0.165	926507	keystroke_Key.space	Key.space	n/a
463.4645	0.209	926929	keystroke_d	d	n/a
463.7045	0.209	927409	keystroke_i	i	n/a
463.8985	0.135	927797	keystroke_f	f	n/a
464.1545	0.194	928309	keystroke_f	f	n/a
464.3335	0.18	928667	keystroke_e	e	n/a
464.4985	0.195	928997	keystroke_r	r	n/a
464.6495	0.194	929299	keystroke_e	e	n/a
464.9635	0.166	929927	keystroke_n	n	n/a
465.4745	0.149	930949	keystroke_t	t	n/a
465.8485	0.24	931697	keystroke_i	i	n/a
466.1045	0.18	932209	keystroke_a	a	n/a
466.2385	0.255	932477	keystroke_l	l	n/a
466.5535	0.21	933107	keystroke_Key.space	Key.space	n/a
466.8845	0.239	933769	keystroke_c	c	n/a
467.1095	0.225	934219	keystroke_a	a	n/a
467.3345	0.165	934669	keystroke_t	t	n/a
467.8435	0.165	935687	keystroke_c	c	n/a
468.0245	0.18	936049	keystroke_h	h	n/a
468.5635	0.18	937127	keystroke_Key.enter	Key.enter	n/a
468.7515	19.239	937503	prompt	n/a	significantly somalia showing craps\n
469.5845	0.225	939169	keystroke_s	s	n/a
469.9445	0.18	939889	keystroke_i	i	n/a
470.6945	0.164	941389	keystroke_g	g	n/a
470.9495	0.27	941899	keystroke_n	n	n/a
471.1595	0.12	942319	keystroke_i	i	n/a
471.3995	0.149	942799	keystroke_f	f	n/a
471.5945	0.195	943189	keystroke_i	i	n/a
471.7445	0.24	943489	keystroke_c	c	n/a
471.9395	0.225	943879	keystroke_a	a	n/a
472.1945	0.135	944389	keystroke_l	l	n/a
472.5845	0.134	945169	keystroke_Key.backspace	Key.backspace	n/a
472.9745	0.164	945949	keystroke_n	n	n/a
473.2145	0.165	946429	keystroke_t	t	n/a
473.4095	0.18	946819	keystroke_l	l	n/a
473.7845	0.195	947569	keystroke_y	y	n/a
474.0845	0.179	948169	keystroke_Key.space	Key.space	n/a
474.3845	0.18	948769	keystroke_s	s	n/a
474.5795	0.255	949159	keystroke_o	o	n/a
474.7895	0.2845	949579	keystroke_m	m	n/a
475.314	0.21	950628	keystroke_o	o	n/a
476.139	0.315	952278	keystroke_l	l	n/a
476.529	0.27	953058	keystroke_i	i	n/a
476.784	0.21	953568	keystroke_a	a	n/a
477.189	0.15	954378	keystroke_Key.space	Key.space	n/a
483.2965	0.117	966593	keystroke_s	s	n/a
483.4585	0.225	966917	keystroke_h	h	n/a
483.5785	0.225	967157	keystroke_o	o	n/a
483.7435	0.195	967487	keystroke_w	w	n/a
483.9835	0.36	967967	keystroke_i	i	n/a
484.1635	0.165	968327	keystroke_n	n	n/a
484.3885	0.15	968777	keystroke_g	g	n/a
484.6435	0.165	969287	keystroke_Key.space	Key.space	n/a
484.9285	0.15	969857	keystroke_c	c	n/a
485.2735	0.27	970547	keystroke_r	r	n/a
485.5285	0.3	971057	keystroke_a	a	n/a
485.8585	0.18	971717	keystroke_p	p	n/a
486.2935	0.06	972587	keystroke_z	z	n/a
487.1785	0.165	974357	keystroke_Key.backspace	Key.backspace	n/a
487.3285	0.18	974657	keystroke_s	s	n/a
487.8085	0.18	975617	keystroke_Key.enter	Key.enter	n/a
487.998	8.4975	975996	prompt	n/a	teaches bent slave probably\n
488.9635	0.18	977927	keystroke_t	t	n/a
489.1585	0.255	978317	keystroke_e	e	n/a
489.3835	0.195	978767	keystroke_a	a	n/a
489.6385	0.21	979277	keystroke_c	c	n/a
489.8635	0.165	979727	keystroke_h	h	n/a
489.9985	0.3	979997	keystroke_e	e	n/a
490.2385	0.18	980477	keystroke_s	s	n/a
490.5985	0.21	981197	keystroke_Key.space	Key.space	n/a
491.3485	0.165	982697	keystroke_b	b	n/a
491.4685	0.18	982937	keystroke_e	e	n/a
491.7085	0.24	983417	keystroke_n	n	n/a
491.9185	0.15	983837	keystroke_t	t	n/a
492.114	0.1795	984228	keystroke_Key.space	Key.space	n/a
492.5635	0.195	985127	keystroke_s	s	n/a
492.8035	0.225	985607	keystroke_l	l	n/a
492.9685	0.24	985937	keystroke_a	a	n/a
493.254	0.1945	986508	keystroke_v	v	n/a
493.4185	0.21	986837	keystroke_e	e	n/a
493.6135	0.18	987227	keystroke_Key.space	Key.space	n/a
494.0035	0.24	988007	keystroke_p	p	n/a
494.3335	0.18	988667	keystroke_r	r	n/a
494.5285	0.21	989057	keystroke_o	o	n/a
494.9185	0.195	989837	keystroke_b	b	n/a
495.1735	0.195	990347	keystroke_a	a	n/a
495.2935	0.225	990587	keystroke_b	b	n/a
495.5335	0.21	991067	keystroke_l	l	n/a
495.9085	0.18	991817	keystroke_y	y	n/a
496.2835	0.21	992567	keystroke_Key.enter	Key.enter	n/a
496.5015	14.0635	993003	prompt	n/a	processors nursery synopsis extension\n
497.6635	0.24	995327	keystroke_p	p	n/a
497.9185	0.165	995837	keystroke_r	r	n/a
498.0985	0.256	996197	keystroke_o	o	n/a
498.3835	0.255	996767	keystroke_c	c	n/a
498.5935	0.2245	997187	keystroke_e	e	n/a
498.758	0.15	997516	keystroke_s	s	n/a
498.983	0.165	997966	keystroke_s	s	n/a
499.343	0.18	998686	keystroke_o	o	n/a
499.478	0.24	998956	keystroke_r	r	n/a
499.643	0.21	999286	keystroke_s	s	n/a
500.618	0.225	1001236	keystroke_Key.space	Key.space	n/a
501.743	0.15	1003486	keystroke_n	n	n/a
502.058	0.225	1004116	keystroke_u	u	n/a
502.238	0.18	1004476	keystroke_r	r	n/a
502.643	0.285	1005286	keystroke_s	s	n/a
503.198	0.21	1006396	keystroke_e	e	n/a
503.348	0.18	1006696	keystroke_r	r	n/a
503.633	0.195	1007266	keystroke_y	y	n/a
503.963	0.2555	1007926	keystroke_Key.space	Key.space	n/a
504.4135	0.165	1008827	keystroke_s	s	n/a
504.5935	0.135	1009187	keystroke_y	y	n/a
504.9985	0.21	1009997	keystroke_n	n	n/a
505.6435	0.21	1011287	keystroke_o	o	n/a
506.3935	0.225	1012787	keystroke_p	p	n/a
506.8285	0.135	1013657	keystroke_s	s	n/a
507.0235	0.225	1014047	keystroke_i	i	n/a
507.2185	0.165	1014437	keystroke_s	s	n/a
507.4735	0.225	1014947	keystroke_Key.space	Key.space	n/a
507.8935	0.135	1015787	keystroke_e	e	n/a
508.3285	0.18	1016657	keystroke_x	x	n/a
508.7785	0.24	1017557	keystroke_t	t	n/a
508.9735	0.15	1017947	keystroke_e	e	n/a
509.1985	0.165	1018397	keystroke_n	n	n/a
509.4835	0.1495	1018967	keystroke_s	s	n/a
509.663	0.195	1019326	keystroke_i	i	n/a
509.798	0.255	1019596	keystroke_o	o	n/a
509.963	0.135	1019926	keystroke_n	n	n/a
510.338	0.225	1020676	keystroke_Key.enter	Key.enter	n/a
510.57	10.9	1021140	prompt	n/a	elect powerpoint dual fold\n
512.183	0.165	1024366	keystroke_e	e	n/a
512.363	0.21	1024726	keystroke_l	l	n/a
512.468	0.18	1024936	keystroke_e	e	n/a
512.888	0.165	1025776	keystroke_c	c	n/a
513.293	0.165	1026586	keystroke_t	t	n/a
513.698	0.18	1027396	keystroke_Key.space	Key.space	n/a
514.388	0.315	1028776	keystroke_p	p	n/a
514.643	0.225	1029286	keystroke_o	o	n/a
514.988	0.255	1029976	keystroke_w	w	n/a
515.138	0.18	1030276	keystroke_e	e	n/a
515.303	0.18	1030606	keystroke_r	r	n/a
515.783	0.27	1031566	keystroke_p	p	n/a
516.098	0.42	1032196	keystroke_o	o	n/a
516.263	0.27	1032526	keystroke_i	i	n/a
516.488	0.18	1032976	keystroke_n	n	n/a
516.653	0.165	1033306	keystroke_t	t	n/a
517.403	0.255	1034806	keystroke_Key.space	Key.space	n/a
517.643	0.18	1035286	keystroke_d	d	n/a
517.988	0.18	1035976	keystroke_u	u	n/a
518.213	0.18	1036426	keystroke_a	a	n/a
518.363	0.375	1036726	keystroke_l	l	n/a
518.663	0.135	1037326	keystroke_Key.space	Key.space	n/a
520.1025	0.195	1040205	keystroke_f	f	n/a
520.2225	0.15	1040445	keystroke_o	o	n/a
520.5825	0.21	1041165	keystroke_l	l	n/a
520.8975	0.18	1041795	keystroke_d	d	n/a
521.2575	0.21	1042515	keystroke_Key.enter	Key.enter	n/a
521.475	11.769	1042950	prompt	n/a	dual posing occupied scenic\n
522.4575	0.165	1044915	keystroke_d	d	n/a
523.1625	0.195	1046325	keystroke_u	u	n/a
523.3725	0.18	1046745	keystroke_a	a	n/a
523.5675	0.24	1047135	keystroke_l	l	n/a
523.7775	0.225	1047555	keystroke_Key.space	Key.space	n/a
524.1075	0.255	1048215	keystroke_p	p	n/a
524.3175	0.3	1048635	keystroke_o	o	n/a
525.0975	0.24	1050195	keystroke_i	i	n/a
525.6975	0.18	1051395	keystroke_Key.backspace	Key.backspace	n/a
525.9975	0.165	1051995	keystroke_s	s	n/a
526.2975	0.36	1052595	keystroke_i	i	n/a
526.4925	0.166	1052985	keystroke_n	n	n/a
526.7785	0.194	1053557	keystroke_g	g	n/a
526.9275	0.18	1053855	keystroke_Key.space	Key.space	n/a
527.2575	0.225	1054515	keystroke_o	o	n/a
527.5125	0.15	1055025	keystroke_c	c	n/a
527.7825	0.165	1055565	keystroke_c	c	n/a
528.0375	0.225	1056075	keystroke_u	u	n/a
528.2775	0.225	1056555	keystroke_p	p	n/a
528.7575	0.15	1057515	keystroke_i	i	n/a
528.8775	0.195	1057755	keystroke_e	e	n/a
529.3125	0.15	1058625	keystroke_d	d	n/a
529.5375	0.225	1059075	keystroke_Key.space	Key.space	n/a
529.987	0.165	1059974	keystroke_s	s	n/a
530.362	0.12	1060724	keystroke_c	c	n/a
530.542	0.03	1061084	keystroke_c	c	n/a
531.352	0.1805	1062704	keystroke_Key.backspace	Key.backspace	n/a
531.6375	0.18	1063275	keystroke_e	e	n/a
531.9835	0.269	1063967	keystroke_n	n	n/a
532.3125	0.21	1064625	keystroke_i	i	n/a
532.5375	0.18	1065075	keystroke_c	c	n/a
533.017	0.225	1066034	keystroke_Key.enter	Key.enter	n/a
533.25	10.584	1066500	prompt	n/a	chance attribute purpose cage\n
534.1435	0.2085	1068287	keystroke_c	c	n/a
534.548	0.179	1069096	keystroke_h	h	n/a
534.712	0.24	1069424	keystroke_a	a	n/a
535.102	0.195	1070204	keystroke_n	n	n/a
535.432	0.195	1070864	keystroke_c	c	n/a
535.582	0.195	1071164	keystroke_e	e	n/a
535.912	0.195	1071824	keystroke_Key.space	Key.space	n/a
536.362	0.285	1072724	keystroke_a	a	n/a
536.842	0.195	1073684	keystroke_t	t	n/a
537.202	0.18	1074404	keystroke_t	t	n/a
537.652	0.18	1075304	keystroke_r	r	n/a
537.817	0.225	1075634	keystroke_i	i	n/a
538.177	0.165	1076354	keystroke_b	b	n/a
538.582	0.21	1077164	keystroke_u	u	n/a
538.717	0.285	1077434	keystroke_t	t	n/a
538.972	0.18	1077944	keystroke_e	e	n/a
539.302	0.24	1078604	keystroke_Key.space	Key.space	n/a
540.187	0.285	1080374	keystroke_p	p	n/a
540.412	0.196	1080824	keystroke_u	u	n/a
540.697	0.1945	1081394	keystroke_r	r	n/a
541.0415	0.195	1082083	keystroke_p	p	n/a
541.4465	0.21	1082893	keystroke_o	o	n/a
541.6865	0.24	1083373	keystroke_s	s	n/a
541.8665	0.15	1083733	keystroke_e	e	n/a
542.0315	0.195	1084063	keystroke_Key.space	Key.space	n/a
542.4065	0.225	1084813	keystroke_c	c	n/a
542.6165	0.27	1085233	keystroke_a	a	n/a
542.9165	0.21	1085833	keystroke_g	g	n/a
543.1865	0.196	1086373	keystroke_e	e	n/a
543.6365	0.195	1087273	keystroke_Key.enter	Key.enter	n/a
543.84	11.244	1087680	prompt	n/a	ellen likes cells influence\n
544.4915	0.165	1088983	keystroke_e	e	n/a
544.6715	0.135	1089343	keystroke_l	l	n/a
544.8965	0.18	1089793	keystroke_l	l	n/a
545.1065	0.195	1090213	keystroke_e	e	n/a
545.4215	0.151	1090843	keystroke_n	n	n/a
545.7965	0.2095	1091593	keystroke_Key.space	Key.space	n/a
546.051	0.286	1092102	keystroke_l	l	n/a
546.201	0.181	1092402	keystroke_i	i	n/a
546.546	0.27	1093092	keystroke_k	k	n/a
546.726	0.24	1093452	keystroke_e	e	n/a
546.892	0.164	1093784	keystroke_s	s	n/a
547.071	0.18	1094142	keystroke_Key.space	Key.space	n/a
547.402	0.194	1094804	keystroke_c	c	n/a
547.551	0.18	1095102	keystroke_e	e	n/a
547.761	0.135	1095522	keystroke_l	l	n/a
548.002	0.165	1096004	keystroke_l	l	n/a
548.211	0.181	1096422	keystroke_s	s	n/a
548.541	0.195	1097082	keystroke_Key.space	Key.space	n/a
548.857	0.195	1097714	keystroke_i	i	n/a
548.872	0.045	1097744	keystroke_o	o	n/a
548.946	0.196	1097892	keystroke_n	n	n/a
549.127	0.209	1098254	keystroke_f	f	n/a
549.292	0.3	1098584	keystroke_l	l	n/a
549.456	0.18	1098912	keystroke_u	u	n/a
549.831	0.12	1099662	keystroke_Key.backspace	Key.backspace	n/a
550.011	0.09	1100022	keystroke_Key.backspace	Key.backspace	n/a
550.431	0.136	1100862	keystroke_Key.backspace	Key.backspace	n/a
550.761	0.136	1101522	keystroke_Key.backspace	Key.backspace	n/a
551.437	0.119	1102874	keystroke_Key.backspace	Key.backspace	n/a
551.992	0.104	1103984	keystroke_l	l	n/a
552.501	0.121	1105002	keystroke_Key.backspace	Key.backspace	n/a
552.907	0.165	1105814	keystroke_n	n	n/a
553.597	0.195	1107194	keystroke_f	f	n/a
553.717	0.24	1107434	keystroke_l	l	n/a
553.882	0.12	1107764	keystroke_u	u	n/a
553.987	0.15	1107974	keystroke_e	e	n/a
554.287	0.195	1108574	keystroke_n	n	n/a
554.437	0.21	1108874	keystroke_c	c	n/a
554.572	0.165	1109144	keystroke_e	e	n/a
554.872	0.209	1109744	keystroke_Key.enter	Key.enter	n/a
555.089	9.9095	1110178	prompt	n/a	metallica assumes wall tariff\n
556.057	0.18	1112114	keystroke_m	m	n/a
556.117	0.225	1112234	keystroke_e	e	n/a
556.401	0.256	1112802	keystroke_t	t	n/a
556.672	0.18	1113344	keystroke_a	a	n/a
556.821	0.135	1113642	keystroke_l	l	n/a
557.077	0.255	1114154	keystroke_l	l	n/a
557.242	0.24	1114484	keystroke_i	i	n/a
557.467	0.21	1114934	keystroke_c	c	n/a
557.647	0.225	1115294	keystroke_a	a	n/a
558.157	0.194	1116314	keystroke_Key.space	Key.space	n/a
558.412	0.27	1116824	keystroke_a	a	n/a
558.637	0.21	1117274	keystroke_s	s	n/a
558.952	0.18	1117904	keystroke_s	s	n/a
559.222	0.165	1118444	keystroke_u	u	n/a
559.702	0.15	1119404	keystroke_m	m	n/a
560.137	0.015	1120274	keystroke_s	s	n/a
560.947	0.135	1121894	keystroke_Key.backspace	Key.backspace	n/a
561.083	0.269	1122166	keystroke_e	e	n/a
561.277	0.165	1122554	keystroke_s	s	n/a
561.607	0.195	1123214	keystroke_Key.space	Key.space	n/a
561.982	0.24	1123964	keystroke_w	w	n/a
562.237	0.21	1124474	keystroke_a	a	n/a
562.402	0.135	1124804	keystroke_l	l	n/a
562.642	0.2095	1125284	keystroke_l	l	n/a
562.7915	0.195	1125583	keystroke_Key.space	Key.space	n/a
563.0615	0.225	1126123	keystroke_t	t	n/a
563.3765	0.24	1126753	keystroke_a	a	n/a
563.6465	0.15	1127293	keystroke_r	r	n/a
563.8715	0.165	1127743	keystroke_r	r	n/a
564.1565	0.24	1128313	keystroke_i	i	n/a
564.3815	0.15	1128763	keystroke_f	f	n/a
564.8015	0.195	1129603	keystroke_Key.enter	Key.enter	n/a
565.004	8.6335	1130008	prompt	n/a	checkout huge comedy they'd\n
565.6865	0.21	1131373	keystroke_c	c	n/a
565.8965	0.165	1131793	keystroke_h	h	n/a
566.0465	0.21	1132093	keystroke_e	e	n/a
566.2415	0.18	1132483	keystroke_c	c	n/a
566.4665	0.195	1132933	keystroke_k	k	n/a
566.8115	0.2695	1133623	keystroke_o	o	n/a
566.9615	0.18	1133923	keystroke_u	u	n/a
567.111	0.18	1134222	keystroke_t	t	n/a
567.351	0.15	1134702	keystroke_Key.space	Key.space	n/a
567.666	0.165	1135332	keystroke_h	h	n/a
568.026	0.21	1136052	keystroke_u	u	n/a
568.251	0.21	1136502	keystroke_g	g	n/a
568.431	0.21	1136862	keystroke_e	e	n/a
568.596	0.225	1137192	keystroke_Key.space	Key.space	n/a
568.836	0.165	1137672	keystroke_c	c	n/a
568.986	0.375	1137972	keystroke_o	o	n/a
569.151	0.18	1138302	keystroke_m	m	n/a
569.316	0.18	1138632	keystroke_e	e	n/a
569.691	0.21	1139382	keystroke_d	d	n/a
569.871	0.195	1139742	keystroke_y	y	n/a
570.231	0.225	1140462	keystroke_Key.space	Key.space	n/a
570.741	0.18	1141482	keystroke_t	t	n/a
570.906	0.195	1141812	keystroke_h	h	n/a
571.086	0.18	1142172	keystroke_e	e	n/a
571.296	0.21	1142592	keystroke_y	y	n/a
571.581	0.255	1143162	keystroke_'	'	n/a
572.241	0.18	1144482	keystroke_d	d	n/a
573.426	0.21	1146852	keystroke_Key.enter	Key.enter	n/a
573.6425	11.29	1147285	prompt	n/a	host genuine again prayers\n
574.551	0.24	1149102	keystroke_h	h	n/a
574.671	0.24	1149342	keystroke_o	o	n/a
574.806	0.27	1149612	keystroke_s	s	n/a
575.016	0.195	1150032	keystroke_t	t	n/a
575.166	0.225	1150332	keystroke_Key.space	Key.space	n/a
575.571	0.225	1151142	keystroke_g	g	n/a
575.781	0.195	1151562	keystroke_e	e	n/a
575.931	0.21	1151862	keystroke_n	n	n/a
576.561	0.195	1153122	keystroke_u	u	n/a
576.771	0.39	1153542	keystroke_i	i	n/a
576.996	0.21	1153992	keystroke_n	n	n/a
577.191	0.21	1154382	keystroke_e	e	n/a
577.402	0.209	1154804	keystroke_Key.space	Key.space	n/a
577.716	0.21	1155432	keystroke_a	a	n/a
577.971	0.24	1155942	keystroke_g	g	n/a
578.136	0.195	1156272	keystroke_a	a	n/a
578.376	0.3	1156752	keystroke_i	i	n/a
578.541	0.21	1157082	keystroke_n	n	n/a
578.781	0.1945	1157562	keystroke_Key.space	Key.space	n/a
579.201	0.225	1158402	keystroke_p	p	n/a
579.411	0.225	1158822	keystroke_a	a	n/a
579.651	0.165	1159302	keystroke_r	r	n/a
579.936	0.18	1159872	keystroke_a	a	n/a
580.341	0.09	1160682	keystroke_Key.backspace	Key.backspace	n/a
580.551	0.0745	1161102	keystroke_Key.backspace	Key.backspace	n/a
580.9855	0.135	1161971	keystroke_Key.backspace	Key.backspace	n/a
581.2405	0.165	1162481	keystroke_r	r	n/a
581.3755	0.18	1162751	keystroke_a	a	n/a
582.9655	0.165	1165931	keystroke_y	y	n/a
583.2055	0.27	1166411	keystroke_e	e	n/a
583.4305	0.18	1166861	keystroke_r	r	n/a
583.9855	0.15	1167971	keystroke_s	s	n/a
584.7205	0.21	1169441	keystroke_Key.enter	Key.enter	n/a
584.9375	10.3005	1169875	prompt	n/a	sight netscape useful throwing\n
585.9055	0.165	1171811	keystroke_s	s	n/a
586.0855	0.21	1172171	keystroke_i	i	n/a
586.3705	0.165	1172741	keystroke_g	g	n/a
586.5955	0.21	1173191	keystroke_h	h	n/a
587.1655	0.21	1174331	keystroke_t	t	n/a
587.7655	0.18	1175531	keystroke_Key.space	Key.space	n/a
588.1105	0.195	1176221	keystroke_n	n	n/a
588.2605	0.255	1176521	keystroke_e	e	n/a
588.5005	0.15	1177001	keystroke_t	t	n/a
588.9965	0.209	1177993	keystroke_s	s	n/a
589.2205	0.27	1178441	keystroke_c	c	n/a
589.4755	0.21	1178951	keystroke_a	a	n/a
589.6555	0.255	1179311	keystroke_p	p	n/a
589.9705	0.195	1179941	keystroke_e	e	n/a
590.2255	0.15	1180451	keystroke_Key.space	Key.space	n/a
590.5855	0.21	1181171	keystroke_u	u	n/a
590.7805	0.3	1181561	keystroke_s	s	n/a
590.9315	0.179	1181863	keystroke_e	e	n/a
591.4705	0.195	1182941	keystroke_f	f	n/a
591.6665	0.194	1183333	keystroke_u	u	n/a
591.8005	0.21	1183601	keystroke_l	l	n/a
592.0405	0.18	1184081	keystroke_e	e	n/a
592.2055	0.165	1184411	keystroke_Key.space	Key.space	n/a
592.5505	0.18	1185101	keystroke_t	t	n/a
592.7315	0.179	1185463	keystroke_h	h	n/a
592.9255	0.18	1185851	keystroke_r	r	n/a
593.1355	0.301	1186271	keystroke_o	o	n/a
593.4955	0.21	1186991	keystroke_w	w	n/a
593.8105	0.33	1187621	keystroke_i	i	n/a
593.9905	0.225	1187981	keystroke_n	n	n/a
594.5605	0.18	1189121	keystroke_g	g	n/a
595.0105	0.225	1190021	keystroke_Key.enter	Key.enter	n/a
595.2455	16.5365	1190491	prompt	n/a	engaged deal navigation marriott\n
596.1965	0.1785	1192393	keystroke_e	e	n/a
596.615	0.18	1193230	keystroke_n	n	n/a
597.5455	0.2245	1195091	keystroke_a	a	n/a
598.6255	0.18	1197251	keystroke_Key.backspace	Key.backspace	n/a
598.9105	0.21	1197821	keystroke_g	g	n/a
599.1365	0.269	1198273	keystroke_a	a	n/a
599.435	0.21	1198870	keystroke_g	g	n/a
599.615	0.18	1199230	keystroke_e	e	n/a
600.066	0.195	1200132	keystroke_d	d	n/a
600.395	0.21	1200790	keystroke_Key.space	Key.space	n/a
600.936	0.149	1201872	keystroke_d	d	n/a
601.22	0.271	1202440	keystroke_e	e	n/a
601.475	0.166	1202950	keystroke_a	a	n/a
601.611	0.254	1203222	keystroke_l	l	n/a
601.835	0.151	1203670	keystroke_Key.space	Key.space	n/a
602.375	0.181	1204750	keystroke_n	n	n/a
602.511	0.3	1205022	keystroke_a	a	n/a
602.961	0.165	1205922	keystroke_v	v	n/a
603.305	0.211	1206610	keystroke_i	i	n/a
603.606	0.21	1207212	keystroke_g	g	n/a
603.845	0.27	1207690	keystroke_a	a	n/a
604.101	0.18	1208202	keystroke_t	t	n/a
604.355	0.195	1208710	keystroke_i	i	n/a
604.521	0.299	1209042	keystroke_o	o	n/a
604.7	0.21	1209400	keystroke_n	n	n/a
605.075	0.165	1210150	keystroke_Key.space	Key.space	n/a
605.45	0.166	1210900	keystroke_m	m	n/a
605.645	0.241	1211290	keystroke_a	a	n/a
605.9	0.136	1211800	keystroke_r	r	n/a
606.125	0.18	1212250	keystroke_r	r	n/a
606.381	0.21	1212762	keystroke_i	i	n/a
606.605	0.195	1213210	keystroke_t	t	n/a
606.741	0.135	1213482	keystroke_i	i	n/a
606.861	0.21	1213722	keystroke_o	o	n/a
607.866	0.165	1215732	keystroke_t	t	n/a
608.6445	0.121	1217289	keystroke_Key.backspace	Key.backspace	n/a
608.9155	0.104	1217831	keystroke_Key.backspace	Key.backspace	n/a
609.1705	0.09	1218341	keystroke_Key.backspace	Key.backspace	n/a
609.4705	0.135	1218941	keystroke_Key.backspace	Key.backspace	n/a
610.7005	0.255	1221401	keystroke_o	o	n/a
610.9705	0.135	1221941	keystroke_t	t	n/a
611.5555	0.225	1223111	keystroke_Key.enter	Key.enter	n/a
611.7885	9.6985	1223577	prompt	n/a	vehicles taxi answer has\n
612.7405	0.21	1225481	keystroke_v	v	n/a
613.3405	0.15	1226681	keystroke_e	e	n/a
614.0905	0.135	1228181	keystroke_h	h	n/a
614.5555	0.18	1229111	keystroke_n	n	n/a
615.0805	0.119	1230161	keystroke_Key.backspace	Key.backspace	n/a
615.4705	0.18	1230941	keystroke_i	i	n/a
615.6655	0.195	1231331	keystroke_c	c	n/a
615.9505	0.195	1231901	keystroke_l	l	n/a
616.5055	0.21	1233011	keystroke_e	e	n/a
616.6555	0.135	1233311	keystroke_s	s	n/a
616.9705	0.195	1233941	keystroke_Key.space	Key.space	n/a
617.6005	0.225	1235201	keystroke_t	t	n/a
617.7655	0.165	1235531	keystroke_a	a	n/a
618.1255	0.225	1236251	keystroke_x	x	n/a
618.3355	0.21	1236671	keystroke_i	i	n/a
618.5905	0.18	1237181	keystroke_Key.space	Key.space	n/a
619.0705	0.165	1238141	keystroke_a	a	n/a
619.1905	0.21	1238381	keystroke_n	n	n/a
619.3555	0.195	1238711	keystroke_s	s	n/a
619.67	0.2255	1239340	keystroke_w	w	n/a
619.835	0.2255	1239670	keystroke_e	e	n/a
620.015	0.18	1240030	keystroke_r	r	n/a
620.21	0.18	1240420	keystroke_Key.space	Key.space	n/a
620.5705	0.195	1241141	keystroke_h	h	n/a
620.7355	0.24	1241471	keystroke_a	a	n/a
620.9455	0.1795	1241891	keystroke_s	s	n/a
621.305	0.18	1242610	keystroke_Key.enter	Key.enter	n/a
621.4925	14.6345	1242985	prompt	n/a	talking translator cooperative informational\n
622.415	0.255	1244830	keystroke_t	t	n/a
622.7	0.225	1245400	keystroke_a	a	n/a
622.82	0.24	1245640	keystroke_l	l	n/a
622.955	0.225	1245910	keystroke_k	k	n/a
623.315	0.345	1246630	keystroke_i	i	n/a
623.48	0.195	1246960	keystroke_n	n	n/a
623.72	0.165	1247440	keystroke_g	g	n/a
623.96	0.165	1247920	keystroke_Key.space	Key.space	n/a
624.29	0.135	1248580	keystroke_t	t	n/a
624.575	0.21	1249150	keystroke_r	r	n/a
625.22	0.21	1250440	keystroke_a	a	n/a
625.505	0.195	1251010	keystroke_n	n	n/a
626.105	0.12	1252210	keystroke_s	s	n/a
626.375	0.195	1252750	keystroke_l	l	n/a
626.615	0.21	1253230	keystroke_a	a	n/a
626.84	0.15	1253680	keystroke_t	t	n/a
627.05	0.24	1254100	keystroke_o	o	n/a
627.26	0.165	1254520	keystroke_r	r	n/a
627.425	0.195	1254850	keystroke_Key.space	Key.space	n/a
627.725	0.18	1255450	keystroke_c	c	n/a
627.89	0.15	1255780	keystroke_o	o	n/a
628.145	0.195	1256290	keystroke_o	o	n/a
628.49	0.285	1256980	keystroke_p	p	n/a
628.685	0.21	1257370	keystroke_e	e	n/a
628.835	0.21	1257670	keystroke_r	r	n/a
629.18	0.21	1258360	keystroke_a	a	n/a
629.405	0.165	1258810	keystroke_t	t	n/a
629.675	0.24	1259350	keystroke_i	i	n/a
630.02	0.196	1260040	keystroke_v	v	n/a
630.23	0.24	1260460	keystroke_e	e	n/a
630.455	0.165	1260910	keystroke_Key.space	Key.space	n/a
630.86	0.27	1261720	keystroke_i	i	n/a
630.995	0.195	1261990	keystroke_n	n	n/a
631.205	0.195	1262410	keystroke_f	f	n/a
631.49	0.27	1262980	keystroke_o	o	n/a
631.7	0.195	1263400	keystroke_r	r	n/a
632.255	0.18	1264510	keystroke_m	m	n/a
632.45	0.225	1264900	keystroke_a	a	n/a
632.705	0.15	1265410	keystroke_t	t	n/a
632.87	0.195	1265740	keystroke_i	i	n/a
632.96	0.27	1265920	keystroke_o	o	n/a
633.125	0.225	1266250	keystroke_n	n	n/a
634.505	0.1795	1269010	keystroke_a	a	n/a
634.7445	0.1955	1269489	keystroke_l	l	n/a
635.9	0.2245	1271800	keystroke_Key.enter	Key.enter	n/a
636.1325	16.24	1272265	prompt	n/a	auckland substantial desperate promptly\n
637.0705	0.209	1274141	keystroke_a	a	n/a
637.2945	0.195	1274589	keystroke_u	u	n/a
637.5645	0.21	1275129	keystroke_c	c	n/a
637.8345	0.18	1275669	keystroke_k	k	n/a
638.2545	0.18	1276509	keystroke_l	l	n/a
638.4495	0.135	1276899	keystroke_a	a	n/a
638.6595	0.21	1277319	keystroke_n	n	n/a
638.8845	0.165	1277769	keystroke_d	d	n/a
639.0645	0.18	1278129	keystroke_Key.space	Key.space	n/a
639.3195	0.135	1278639	keystroke_s	s	n/a
639.5295	0.18	1279059	keystroke_u	u	n/a
640.0095	0.195	1280019	keystroke_b	b	n/a
640.3995	0.165	1280799	keystroke_s	s	n/a
640.8495	0.21	1281699	keystroke_t	t	n/a
641.0145	0.165	1282029	keystroke_a	a	n/a
641.2695	0.165	1282539	keystroke_n	n	n/a
641.7345	0.165	1283469	keystroke_t	t	n/a
641.8545	0.225	1283709	keystroke_i	i	n/a
642.0045	0.315	1284009	keystroke_o	o	n/a
642.2145	0.12	1284429	keystroke_n	n	n/a
642.7245	0.12	1285449	keystroke_Key.backspace	Key.backspace	n/a
642.9645	0.105	1285929	keystroke_Key.backspace	Key.backspace	n/a
643.6555	0.224	1287311	keystroke_a	a	n/a
643.9545	0.1955	1287909	keystroke_l	l	n/a
644.6	0.15	1289200	keystroke_Key.space	Key.space	n/a
646.1	0.135	1292200	keystroke_d	d	n/a
646.415	0.165	1292830	keystroke_e	e	n/a
646.535	0.135	1293070	keystroke_s	s	n/a
646.94	0.255	1293880	keystroke_p	p	n/a
647.21	0.225	1294420	keystroke_e	e	n/a
647.405	0.2995	1294810	keystroke_r	r	n/a
647.66	0.2245	1295320	keystroke_a	a	n/a
647.9	0.1795	1295800	keystroke_t	t	n/a
648.0345	0.18	1296069	keystroke_e	e	n/a
649.3995	0.195	1298799	keystroke_Key.space	Key.space	n/a
649.8045	0.2255	1299609	keystroke_p	p	n/a
650.075	0.1945	1300150	keystroke_r	r	n/a
650.2095	0.27	1300419	keystroke_o	o	n/a
650.4045	0.21	1300809	keystroke_m	m	n/a
650.7195	0.195	1301439	keystroke_p	p	n/a
650.8995	0.18	1301799	keystroke_t	t	n/a
651.3645	0.165	1302729	keystroke_l	l	n/a
651.7095	0.165	1303419	keystroke_y	y	n/a
652.1595	0.21	1304319	keystroke_Key.enter	Key.enter	n/a
652.378	13.2075	1304756	prompt	n/a	tumor less brochures idaho\n
653.4345	0.18	1306869	keystroke_t	t	n/a
653.6445	0.15	1307289	keystroke_u	u	n/a
653.9595	0.2395	1307919	keystroke_m	m	n/a
654.169	0.435	1308338	keystroke_o	o	n/a
654.364	0.165	1308728	keystroke_r	r	n/a
654.619	0.165	1309238	keystroke_Key.space	Key.space	n/a
654.844	0.211	1309688	keystroke_l	l	n/a
655.025	0.225	1310050	keystroke_e	e	n/a
655.204	0.135	1310408	keystroke_s	s	n/a
655.445	0.194	1310890	keystroke_s	s	n/a
655.714	0.151	1311428	keystroke_Key.space	Key.space	n/a
656.254	0.196	1312508	keystroke_b	b	n/a
656.525	0.18	1313050	keystroke_r	r	n/a
656.734	0.241	1313468	keystroke_o	o	n/a
657.155	0.149	1314310	keystroke_c	c	n/a
657.35	0.209	1314700	keystroke_h	h	n/a
657.604	0.316	1315208	keystroke_e	e	n/a
657.875	0.254	1315750	keystroke_r	r	n/a
658.069	0.18	1316138	keystroke_s	s	n/a
658.924	0.15	1317848	keystroke_Key.backspace	Key.backspace	n/a
659.284	0.15	1318568	keystroke_Key.backspace	Key.backspace	n/a
659.824	0.075	1319648	keystroke_Key.backspace	Key.backspace	n/a
660.5	0.164	1321000	keystroke_u	u	n/a
661.175	0.194	1322350	keystroke_e	e	n/a
661.669	0.15	1323338	keystroke_Key.backspace	Key.backspace	n/a
661.775	0.21	1323550	keystroke_r	r	n/a
661.909	0.181	1323818	keystroke_e	e	n/a
662.015	0.149	1324030	keystroke_s	s	n/a
662.419	0.195	1324838	keystroke_Key.space	Key.space	n/a
663.2735	0.21	1326547	keystroke_i	i	n/a
663.3795	0.1955	1326759	keystroke_d	d	n/a
663.605	0.24	1327210	keystroke_o	o	n/a
664.5035	0.121	1329007	keystroke_Key.backspace	Key.backspace	n/a
664.5645	0.21	1329129	keystroke_a	a	n/a
664.8795	0.18	1329759	keystroke_d	d	n/a
665.0135	0.196	1330027	keystroke_o	o	n/a
665.4035	0.18	1330807	keystroke_Key.enter	Key.enter	n/a
665.591	11.5155	1331182	prompt	n/a	granny yours thanksgiving judge\n
666.5595	0.18	1333119	keystroke_g	g	n/a
666.9045	0.195	1333809	keystroke_r	r	n/a
667.0695	0.179	1334139	keystroke_a	a	n/a
667.2345	0.12	1334469	keystroke_n	n	n/a
667.4595	0.15	1334919	keystroke_n	n	n/a
667.9695	0.18	1335939	keystroke_y	y	n/a
668.3735	0.195	1336747	keystroke_Key.space	Key.space	n/a
668.8995	0.195	1337799	keystroke_y	y	n/a
669.1835	0.406	1338367	keystroke_o	o	n/a
669.4395	0.165	1338879	keystroke_u	u	n/a
669.6345	0.24	1339269	keystroke_r	r	n/a
669.9195	0.225	1339839	keystroke_s	s	n/a
670.3535	0.211	1340707	keystroke_Key.space	Key.space	n/a
670.7895	0.195	1341579	keystroke_t	t	n/a
670.9695	0.165	1341939	keystroke_h	h	n/a
671.1495	0.225	1342299	keystroke_a	a	n/a
671.3895	0.225	1342779	keystroke_n	n	n/a
671.5845	0.195	1343169	keystroke_s	s	n/a
672.6795	0.12	1345359	keystroke_Key.backspace	Key.backspace	n/a
673.0845	0.18	1346169	keystroke_k	k	n/a
673.2945	0.165	1346589	keystroke_s	s	n/a
673.7895	0.135	1347579	keystroke_g	g	n/a
674.0145	0.165	1348029	keystroke_i	i	n/a
674.2395	0.15	1348479	keystroke_v	v	n/a
674.4195	0.315	1348839	keystroke_i	i	n/a
674.6445	0.165	1349289	keystroke_n	n	n/a
674.8095	0.165	1349619	keystroke_g	g	n/a
674.9895	0.165	1349979	keystroke_Key.space	Key.space	n/a
675.2895	0.165	1350579	keystroke_j	j	n/a
675.6345	0.195	1351269	keystroke_u	u	n/a
675.7545	0.195	1351509	keystroke_d	d	n/a
676.0995	0.195	1352199	keystroke_g	g	n/a
676.2645	0.18	1352529	keystroke_e	e	n/a
676.8645	0.24	1353729	keystroke_Key.enter	Key.enter	n/a
677.1105	17.0505	1354221	prompt	n/a	christians knights inspector severe\n
677.9745	0.195	1355949	keystroke_c	c	n/a
678.2145	0.21	1356429	keystroke_h	h	n/a
678.5145	0.225	1357029	keystroke_r	r	n/a
678.8445	0.255	1357689	keystroke_i	i	n/a
679.7895	0.18	1359579	keystroke_s	s	n/a
680.1345	0.18	1360269	keystroke_t	t	n/a
680.4495	0.2245	1360899	keystroke_r	r	n/a
680.659	0.225	1361318	keystroke_i	i	n/a
680.899	0.24	1361798	keystroke_a	a	n/a
681.409	0.18	1362818	keystroke_n	n	n/a
682.024	0.18	1364048	keystroke_Key.backspace	Key.backspace	n/a
682.234	0.12	1364468	keystroke_Key.backspace	Key.backspace	n/a
682.624	0.075	1365248	keystroke_Key.backspace	Key.backspace	n/a
683.119	0.105	1366238	keystroke_Key.backspace	Key.backspace	n/a
683.749	0.195	1367498	keystroke_i	i	n/a
683.899	0.225	1367798	keystroke_a	a	n/a
684.109	0.24	1368218	keystroke_n	n	n/a
684.334	0.18	1368668	keystroke_s	s	n/a
684.694	0.21	1369388	keystroke_Key.space	Key.space	n/a
685.264	0.18	1370528	keystroke_k	k	n/a
685.624	0.06	1371248	keystroke_k	k	n/a
686.314	0.15	1372628	keystroke_Key.backspace	Key.backspace	n/a
686.854	0.18	1373708	keystroke_n	n	n/a
687.049	0.255	1374098	keystroke_i	i	n/a
687.319	0.18	1374638	keystroke_g	g	n/a
687.484	0.225	1374968	keystroke_h	h	n/a
687.679	0.21	1375358	keystroke_t	t	n/a
687.829	0.24	1375658	keystroke_s	s	n/a
688.114	0.21	1376228	keystroke_Key.space	Key.space	n/a
688.354	0.285	1376708	keystroke_i	i	n/a
688.474	0.225	1376948	keystroke_n	n	n/a
689.674	0.165	1379348	keystroke_s	s	n/a
689.854	0.225	1379708	keystroke_p	p	n/a
690.004	0.195	1380008	keystroke_e	e	n/a
690.334	0.165	1380668	keystroke_c	c	n/a
690.679	0.165	1381358	keystroke_t	t	n/a
690.829	0.24	1381658	keystroke_o	o	n/a
691.144	0.165	1382288	keystroke_r	r	n/a
691.369	0.18	1382738	keystroke_Key.space	Key.space	n/a
691.759	0.24	1383518	keystroke_s	s	n/a
691.954	0.195	1383908	keystroke_e	e	n/a
692.479	0.255	1384958	keystroke_v	v	n/a
692.764	0.225	1385528	keystroke_e	e	n/a
692.974	0.24	1385948	keystroke_r	r	n/a
693.154	0.18	1386308	keystroke_e	e	n/a
693.949	0.21	1387898	keystroke_Key.enter	Key.enter	n/a
694.168	9.8785	1388336	prompt	n/a	divide agenda roommates fresh\n
695.059	0.18	1390118	keystroke_d	d	n/a
695.284	0.21	1390568	keystroke_i	i	n/a
695.509	0.21	1391018	keystroke_v	v	n/a
695.704	0.225	1391408	keystroke_i	i	n/a
695.959	0.18	1391918	keystroke_d	d	n/a
696.289	0.2095	1392578	keystroke_e	e	n/a
696.9035	0.21	1393807	keystroke_Key.space	Key.space	n/a
697.2945	0.255	1394589	keystroke_a	a	n/a
697.6245	0.24	1395249	keystroke_g	g	n/a
697.8495	0.18	1395699	keystroke_e	e	n/a
698.1945	0.18	1396389	keystroke_n	n	n/a
698.4345	0.21	1396869	keystroke_d	d	n/a
698.7045	0.225	1397409	keystroke_a	a	n/a
699.1385	0.151	1398277	keystroke_Key.space	Key.space	n/a
699.6045	0.195	1399209	keystroke_r	r	n/a
699.8445	0.135	1399689	keystroke_o	o	n/a
700.1145	0.135	1400229	keystroke_o	o	n/a
700.5645	0.12	1401129	keystroke_m	m	n/a
700.8045	0.105	1401609	keystroke_m	m	n/a
701.0895	0.24	1402179	keystroke_a	a	n/a
701.3895	0.285	1402779	keystroke_t	t	n/a
701.6295	0.195	1403259	keystroke_e	e	n/a
702.0045	0.165	1404009	keystroke_s	s	n/a
702.3645	0.225	1404729	keystroke_Key.space	Key.space	n/a
702.6345	0.165	1405269	keystroke_f	f	n/a
702.9195	0.24	1405839	keystroke_r	r	n/a
703.0545	0.18	1406109	keystroke_e	e	n/a
703.2045	0.105	1406409	keystroke_s	s	n/a
703.2795	0.18	1406559	keystroke_h	h	n/a
703.8195	0.225	1407639	keystroke_Key.enter	Key.enter	n/a
704.053	9.548	1408106	prompt	n/a	degrees chest charts frost\n
704.9295	0.18	1409859	keystroke_d	d	n/a
705.2295	0.195	1410459	keystroke_e	e	n/a
705.6345	0.165	1411269	keystroke_g	g	n/a
706.1445	0.195	1412289	keystroke_r	r	n/a
706.3245	0.165	1412649	keystroke_e	e	n/a
706.8645	0.12	1413729	keystroke_e	e	n/a
707.314	0.165	1414628	keystroke_s	s	n/a
708.139	0.195	1416278	keystroke_Key.space	Key.space	n/a
708.739	0.255	1417478	keystroke_c	c	n/a
708.979	0.225	1417958	keystroke_h	h	n/a
709.159	0.21	1418318	keystroke_e	e	n/a
709.324	0.21	1418648	keystroke_s	s	n/a
709.609	0.165	1419218	keystroke_t	t	n/a
709.759	0.195	1419518	keystroke_Key.space	Key.space	n/a
710.224	0.255	1420448	keystroke_c	c	n/a
710.509	0.21	1421018	keystroke_h	h	n/a
710.689	0.24	1421378	keystroke_a	a	n/a
710.899	0.165	1421798	keystroke_r	r	n/a
711.244	0.285	1422488	keystroke_t	t	n/a
711.469	0.24	1422938	keystroke_s	s	n/a
711.769	0.21	1423538	keystroke_Key.space	Key.space	n/a
712.159	0.165	1424318	keystroke_f	f	n/a
712.459	0.225	1424918	keystroke_r	r	n/a
712.639	0.225	1425278	keystroke_o	o	n/a
712.819	0.27	1425638	keystroke_s	s	n/a
713.119	0.12	1426238	keystroke_t	t	n/a
713.374	0.225	1426748	keystroke_Key.enter	Key.enter	n/a
713.606	20.4245	1427212	prompt	n/a	portuguese institutions friendly comfort\n
714.694	0.255	1429388	keystroke_[	[	n/a
715.834	0.15	1431668	keystroke_Key.backspace	Key.backspace	n/a
716.764	0.24	1433528	keystroke_p	p	n/a
717.364	0.21	1434728	keystroke_o	o	n/a
717.619	0.18	1435238	keystroke_r	r	n/a
718.069	0.1645	1436138	keystroke_t	t	n/a
718.3695	0.164	1436739	keystroke_u	u	n/a
718.5945	0.269	1437189	keystroke_g	g	n/a
718.8195	0.09	1437639	keystroke_e	e	n/a
719.4935	0.135	1438987	keystroke_Key.backspace	Key.backspace	n/a
720.0195	0.165	1440039	keystroke_u	u	n/a
720.1995	0.165	1440399	keystroke_e	e	n/a
720.3495	0.209	1440699	keystroke_s	s	n/a
720.7245	0.21	1441449	keystroke_e	e	n/a
721.2335	0.241	1442467	keystroke_Key.space	Key.space	n/a
722.7035	0.165	1445407	keystroke_Key.backspace	Key.backspace	n/a
723.094	0.135	1446188	keystroke_Key.backspace	Key.backspace	n/a
723.469	0.164	1446938	keystroke_Key.backspace	Key.backspace	n/a
723.799	0.104	1447598	keystroke_Key.backspace	Key.backspace	n/a
725.824	0.24	1451648	keystroke_e	e	n/a
726.049	0.21	1452098	keystroke_s	s	n/a
726.214	0.165	1452428	keystroke_e	e	n/a
726.709	0.195	1453418	keystroke_Key.space	Key.space	n/a
727.174	0.285	1454348	keystroke_i	i	n/a
727.369	0.195	1454738	keystroke_n	n	n/a
727.594	0.24	1455188	keystroke_s	s	n/a
727.879	0.135	1455758	keystroke_t	t	n/a
728.179	0.18	1456358	keystroke_i	i	n/a
728.599	0.15	1457198	keystroke_t	t	n/a
728.779	0.18	1457558	keystroke_u	u	n/a
729.109	0.165	1458218	keystroke_t	t	n/a
729.259	0.21	1458518	keystroke_i	i	n/a
729.424	0.3	1458848	keystroke_o	o	n/a
729.604	0.165	1459208	keystroke_n	n	n/a
729.739	0.18	1459478	keystroke_s	s	n/a
729.949	0.195	1459898	keystroke_Key.space	Key.space	n/a
730.114	0.15	1460228	keystroke_f	f	n/a
730.384	0.21	1460768	keystroke_r	r	n/a
730.624	0.209	1461248	keystroke_i	i	n/a
730.819	0.165	1461638	keystroke_e	e	n/a
731.014	0.18	1462028	keystroke_n	n	n/a
731.254	0.18	1462508	keystroke_d	d	n/a
731.419	0.21	1462838	keystroke_l	l	n/a
731.824	0.18	1463648	keystroke_y	y	n/a
731.974	0.21	1463948	keystroke_Key.space	Key.space	n/a
732.199	0.18	1464398	keystroke_c	c	n/a
732.334	0.315	1464668	keystroke_o	o	n/a
732.484	0.195	1464968	keystroke_m	m	n/a
732.634	0.18	1465268	keystroke_f	f	n/a
732.889	0.24	1465778	keystroke_o	o	n/a
733.069	0.195	1466138	keystroke_r	r	n/a
733.429	0.18	1466858	keystroke_t	t	n/a
733.804	0.225	1467608	keystroke_Key.enter	Key.enter	n/a
734.0375	7.6735	1468075	prompt	n/a	logos cached noticed latex\n
734.764	0.15	1469528	keystroke_l	l	n/a
735.034	0.15	1470068	keystroke_o	o	n/a
735.199	0.18	1470398	keystroke_g	g	n/a
735.349	0.21	1470698	keystroke_o	o	n/a
735.589	0.195	1471178	keystroke_s	s	n/a
735.859	0.195	1471718	keystroke_Key.space	Key.space	n/a
736.129	0.225	1472258	keystroke_c	c	n/a
736.339	0.24	1472678	keystroke_a	a	n/a
736.594	0.195	1473188	keystroke_c	c	n/a
736.804	0.195	1473608	keystroke_h	h	n/a
737.029	0.195	1474058	keystroke_e	e	n/a
737.389	0.21	1474778	keystroke_d	d	n/a
737.584	0.18	1475168	keystroke_Key.space	Key.space	n/a
737.929	0.225	1475858	keystroke_n	n	n/a
738.034	0.24	1476068	keystroke_o	o	n/a
738.289	0.165	1476578	keystroke_t	t	n/a
738.604	0.18	1477208	keystroke_i	i	n/a
738.799	0.255	1477598	keystroke_c	c	n/a
739.174	0.24	1478348	keystroke_e	e	n/a
739.549	0.24	1479098	keystroke_d	d	n/a
739.774	0.165	1479548	keystroke_Key.space	Key.space	n/a
740.014	0.24	1480028	keystroke_l	l	n/a
740.209	0.24	1480418	keystroke_a	a	n/a
740.539	0.165	1481078	keystroke_t	t	n/a
740.749	0.18	1481498	keystroke_e	e	n/a
741.154	0.195	1482308	keystroke_x	x	n/a
741.529	0.18	1483058	keystroke_Key.enter	Key.enter	n/a
741.715	11.951	1483430	prompt	n/a	proposal proudly encountered traveller\n
742.594	0.225	1485188	keystroke_p	p	n/a
742.8635	0.1945	1485727	keystroke_r	r	n/a
743.073	0.18	1486146	keystroke_o	o	n/a
743.478	0.255	1486956	keystroke_p	p	n/a
743.673	0.225	1487346	keystroke_o	o	n/a
743.914	0.24	1487828	keystroke_s	s	n/a
744.168	0.195	1488336	keystroke_a	a	n/a
744.348	0.195	1488696	keystroke_l	l	n/a
744.678	0.165	1489356	keystroke_Key.space	Key.space	n/a
745.248	0.18	1490496	keystroke_p	p	n/a
745.489	0.164	1490978	keystroke_r	r	n/a
745.639	0.285	1491278	keystroke_o	o	n/a
745.864	0.224	1491728	keystroke_u	u	n/a
746.119	0.209	1492238	keystroke_d	d	n/a
746.358	0.225	1492716	keystroke_l	l	n/a
746.689	0.225	1493378	keystroke_y	y	n/a
746.883	0.21	1493766	keystroke_Key.space	Key.space	n/a
747.154	0.195	1494308	keystroke_e	e	n/a
747.378	0.241	1494756	keystroke_n	n	n/a
748.084	0.18	1496168	keystroke_c	c	n/a
748.308	0.211	1496616	keystroke_o	o	n/a
748.414	0.15	1496828	keystroke_u	u	n/a
748.744	0.209	1497488	keystroke_n	n	n/a
748.969	0.21	1497938	keystroke_t	t	n/a
749.239	0.18	1498478	keystroke_e	e	n/a
749.404	0.224	1498808	keystroke_r	r	n/a
749.554	0.135	1499108	keystroke_e	e	n/a
749.914	0.165	1499828	keystroke_d	d	n/a
750.198	0.195	1500396	keystroke_Key.space	Key.space	n/a
750.859	0.18	1501718	keystroke_t	t	n/a
751.144	0.255	1502288	keystroke_r	r	n/a
751.384	0.225	1502768	keystroke_a	a	n/a
751.699	0.21	1503398	keystroke_v	v	n/a
751.893	0.181	1503786	keystroke_e	e	n/a
752.284	0.224	1504568	keystroke_l	l	n/a
752.703	0.181	1505406	keystroke_l	l	n/a
752.898	0.241	1505796	keystroke_e	e	n/a
753.079	0.15	1506158	keystroke_r	r	n/a
753.454	0.21	1506908	keystroke_Key.enter	Key.enter	n/a
753.6715	14.364	1507343	prompt	n/a	cream centres suggesting chairman\n
754.759	0.21	1509518	keystroke_c	c	n/a
755.209	0.315	1510418	keystroke_r	r	n/a
755.479	0.3	1510958	keystroke_e	e	n/a
755.734	0.21	1511468	keystroke_a	a	n/a
756.124	0.21	1512248	keystroke_m	m	n/a
756.453	0.166	1512906	keystroke_Key.space	Key.space	n/a
756.769	0.18	1513538	keystroke_c	c	n/a
756.919	0.165	1513838	keystroke_e	e	n/a
757.099	0.165	1514198	keystroke_n	n	n/a
757.324	0.165	1514648	keystroke_t	t	n/a
757.684	0.18	1515368	keystroke_r	r	n/a
757.834	0.255	1515668	keystroke_e	e	n/a
757.984	0.21	1515968	keystroke_s	s	n/a
758.419	0.195	1516838	keystroke_Key.space	Key.space	n/a
758.673	0.181	1517346	keystroke_s	s	n/a
759.769	0.18	1519538	keystroke_u	u	n/a
760.174	0.15	1520348	keystroke_g	g	n/a
760.429	0.27	1520858	keystroke_g	g	n/a
760.639	0.225	1521278	keystroke_e	e	n/a
760.804	0.24	1521608	keystroke_s	s	n/a
761.059	0.21	1522118	keystroke_t	t	n/a
761.254	0.315	1522508	keystroke_i	i	n/a
761.464	0.225	1522928	keystroke_n	n	n/a
761.659	0.18	1523318	keystroke_g	g	n/a
761.869	0.18	1523738	keystroke_Key.space	Key.space	n/a
762.124	0.21	1524248	keystroke_c	c	n/a
762.349	0.225	1524698	keystroke_h	h	n/a
762.559	0.255	1525118	keystroke_a	a	n/a
762.844	0.18	1525688	keystroke_r	r	n/a
763.039	0.075	1526078	keystroke_i	i	n/a
763.354	0.12	1526708	keystroke_Key.backspace	Key.backspace	n/a
763.534	0.105	1527068	keystroke_Key.backspace	Key.backspace	n/a
764.164	0.18	1528328	keystroke_i	i	n/a
764.494	0.165	1528988	keystroke_r	r	n/a
764.959	0.165	1529918	keystroke_m	m	n/a
765.514	0.165	1531028	keystroke_e	e	n/a
765.739	0.165	1531478	keystroke_n	n	n/a
766.654	0.135	1533308	keystroke_Key.backspace	Key.backspace	n/a
766.909	0.135	1533818	keystroke_Key.backspace	Key.backspace	n/a
767.164	0.21	1534328	keystroke_a	a	n/a
767.449	0.15	1534898	keystroke_n	n	n/a
767.824	0.21	1535648	keystroke_Key.enter	Key.enter	n/a
768.041	11.9655	1536082	prompt	n/a	agencies moves permissions jake\n
768.844	0.225	1537688	keystroke_a	a	n/a
769.099	0.24	1538198	keystroke_g	g	n/a
769.324	0.195	1538648	keystroke_e	e	n/a
769.534	0.195	1539068	keystroke_n	n	n/a
770.284	0.18	1540568	keystroke_g	g	n/a
770.764	0.195	1541528	keystroke_Key.backspace	Key.backspace	n/a
770.989	0.195	1541978	keystroke_c	c	n/a
771.319	0.225	1542638	keystroke_i	i	n/a
771.514	0.135	1543028	keystroke_d	d	n/a
772.009	0.15	1544018	keystroke_Key.backspace	Key.backspace	n/a
772.204	0.24	1544408	keystroke_e	e	n/a
772.369	0.15	1544738	keystroke_s	s	n/a
772.864	0.18	1545728	keystroke_Key.space	Key.space	n/a
773.224	0.225	1546448	keystroke_m	m	n/a
773.419	0.48	1546838	keystroke_o	o	n/a
773.629	0.225	1547258	keystroke_v	v	n/a
773.824	0.225	1547648	keystroke_e	e	n/a
773.959	0.21	1547918	keystroke_s	s	n/a
774.154	0.18	1548308	keystroke_Key.space	Key.space	n/a
774.904	0.255	1549808	keystroke_p	p	n/a
775.039	0.24	1550078	keystroke_e	e	n/a
775.174	0.24	1550348	keystroke_r	r	n/a
775.684	0.165	1551368	keystroke_m	m	n/a
776.239	0.18	1552478	keystroke_i	i	n/a
776.494	0.165	1552988	keystroke_s	s	n/a
776.764	0.165	1553528	keystroke_s	s	n/a
776.944	0.21	1553888	keystroke_i	i	n/a
777.109	0.345	1554218	keystroke_o	o	n/a
777.304	0.21	1554608	keystroke_n	n	n/a
777.529	0.195	1555058	keystroke_Key.space	Key.space	n/a
777.769	0.225	1555538	keystroke_j	j	n/a
778.009	0.12	1556018	keystroke_o	o	n/a
778.474	0.18	1556948	keystroke_Key.backspace	Key.backspace	n/a
778.804	0.225	1557608	keystroke_a	a	n/a
779.149	0.21	1558298	keystroke_k	k	n/a
779.329	0.21	1558658	keystroke_e	e	n/a
779.794	0.21	1559588	keystroke_Key.enter	Key.enter	n/a
780.01	9.7905	1560020	prompt	n/a	eliminate narrow suburban agents\n
780.979	0.18	1561958	keystroke_e	e	n/a
781.114	0.225	1562228	keystroke_l	l	n/a
781.249	0.285	1562498	keystroke_i	i	n/a
781.474	0.21	1562948	keystroke_m	m	n/a
781.894	0.3	1563788	keystroke_i	i	n/a
782.089	0.165	1564178	keystroke_n	n	n/a
782.374	0.195	1564748	keystroke_a	a	n/a
782.644	0.225	1565288	keystroke_t	t	n/a
782.8235	0.18	1565647	keystroke_e	e	n/a
783.0185	0.18	1566037	keystroke_Key.space	Key.space	n/a
783.3185	0.21	1566637	keystroke_n	n	n/a
783.4835	0.225	1566967	keystroke_a	a	n/a
783.6635	0.135	1567327	keystroke_r	r	n/a
783.9035	0.165	1567807	keystroke_r	r	n/a
784.0835	0.255	1568167	keystroke_o	o	n/a
784.2635	0.195	1568527	keystroke_w	w	n/a
784.4885	0.195	1568977	keystroke_Key.space	Key.space	n/a
784.7285	0.195	1569457	keystroke_s	s	n/a
784.9685	0.18	1569937	keystroke_u	u	n/a
785.4785	0.165	1570957	keystroke_b	b	n/a
786.0335	0.18	1572067	keystroke_u	u	n/a
786.2585	0.21	1572517	keystroke_r	r	n/a
786.6935	0.21	1573387	keystroke_b	b	n/a
786.9335	0.18	1573867	keystroke_a	a	n/a
787.2635	0.165	1574527	keystroke_n	n	n/a
787.5335	0.195	1575067	keystroke_Key.space	Key.space	n/a
787.7585	0.27	1575517	keystroke_a	a	n/a
788.0435	0.24	1576087	keystroke_g	g	n/a
788.2685	0.165	1576537	keystroke_e	e	n/a
788.6735	0.195	1577347	keystroke_n	n	n/a
788.8835	0.3	1577767	keystroke_t	t	n/a
789.1235	0.195	1578247	keystroke_s	s	n/a
789.5885	0.21	1579177	keystroke_Key.enter	Key.enter	n/a
789.8055	9.0405	1579611	prompt	n/a	mins perhaps jacket levy\n
790.6535	0.18	1581307	keystroke_m	m	n/a
790.9385	0.39	1581877	keystroke_i	i	n/a
791.1485	0.195	1582297	keystroke_n	n	n/a
791.4935	0.225	1582987	keystroke_s	s	n/a
791.9135	0.165	1583827	keystroke_Key.space	Key.space	n/a
792.5135	0.18	1585027	keystroke_p	p	n/a
792.9635	0.255	1585927	keystroke_e	e	n/a
793.2335	0.135	1586467	keystroke_r	r	n/a
794.3285	0.15	1588657	keystroke_h	h	n/a
794.5085	0.255	1589017	keystroke_a	a	n/a
794.7035	0.24	1589407	keystroke_p	p	n/a
794.9285	0.195	1589857	keystroke_s	s	n/a
795.1535	0.195	1590307	keystroke_Key.space	Key.space	n/a
795.5735	0.211	1591147	keystroke_j	j	n/a
795.8285	0.195	1591657	keystroke_a	a	n/a
796.2335	0.15	1592467	keystroke_c	c	n/a
796.4145	0.224	1592829	keystroke_k	k	n/a
796.6545	0.209	1593309	keystroke_e	e	n/a
796.9685	0.166	1593937	keystroke_t	t	n/a
797.3285	0.15	1594657	keystroke_Key.space	Key.space	n/a
797.6445	0.195	1595289	keystroke_l	l	n/a
797.7345	0.164	1595469	keystroke_e	e	n/a
798.0645	0.195	1596129	keystroke_v	v	n/a
798.2895	0.15	1596579	keystroke_y	y	n/a
798.6485	0.195	1597297	keystroke_Key.enter	Key.enter	n/a
798.852	11.2585	1597704	prompt	n/a	seeing attach sprint eugene\n
799.6385	0.226	1599277	keystroke_s	s	n/a
799.8035	0.165	1599607	keystroke_e	e	n/a
800.0585	0.211	1600117	keystroke_e	e	n/a
800.373	0.331	1600746	keystroke_i	i	n/a
800.568	0.166	1601136	keystroke_n	n	n/a
800.763	0.18	1601526	keystroke_g	g	n/a
800.988	0.165	1601976	keystroke_Key.space	Key.space	n/a
801.168	0.2255	1602336	keystroke_a	a	n/a
801.3785	0.12	1602757	keystroke_t	t	n/a
801.604	0.2095	1603208	keystroke_t	t	n/a
801.8735	0.225	1603747	keystroke_a	a	n/a
802.2335	0.165	1604467	keystroke_c	c	n/a
802.4435	0.225	1604887	keystroke_h	h	n/a
802.6535	0.225	1605307	keystroke_Key.space	Key.space	n/a
802.9385	0.195	1605877	keystroke_s	s	n/a
803.2235	0.21	1606447	keystroke_p	p	n/a
803.4335	0.18	1606867	keystroke_r	r	n/a
803.7335	0.27	1607467	keystroke_i	i	n/a
803.9585	0.21	1607917	keystroke_n	n	n/a
804.4985	0.195	1608997	keystroke_g	g	n/a
804.8735	0.225	1609747	keystroke_Key.space	Key.space	n/a
805.4285	0.135	1610857	keystroke_Key.backspace	Key.backspace	n/a
805.6535	0.165	1611307	keystroke_Key.backspace	Key.backspace	n/a
806.0885	0.225	1612177	keystroke_t	t	n/a
806.7785	0.21	1613557	keystroke_Key.space	Key.space	n/a
807.3185	0.18	1614637	keystroke_e	e	n/a
807.5735	0.21	1615147	keystroke_u	u	n/a
807.9935	0.195	1615987	keystroke_g	g	n/a
809.1335	0.165	1618267	keystroke_e	e	n/a
809.4485	0.18	1618897	keystroke_n	n	n/a
809.5835	0.165	1619167	keystroke_e	e	n/a
809.9285	0.18	1619857	keystroke_Key.enter	Key.enter	n/a
810.1155	20.425	1620231	prompt	n/a	officials loaded grow modem\n
810.9335	0.195	1621867	keystroke_o	o	n/a
811.0385	0.105	1622077	keystroke_f	f	n/a
811.3385	0.18	1622677	keystroke_f	f	n/a
811.7285	0.18	1623457	keystroke_i	i	n/a
812.0735	0.195	1624147	keystroke_c	c	n/a
812.3135	0.21	1624627	keystroke_i	i	n/a
812.5085	0.195	1625017	keystroke_a	a	n/a
812.7185	0.225	1625437	keystroke_l	l	n/a
812.9135	0.195	1625827	keystroke_s	s	n/a
813.2285	0.21	1626457	keystroke_Key.space	Key.space	n/a
813.4535	0.165	1626907	keystroke_l	l	n/a
813.7385	0.315	1627477	keystroke_o	o	n/a
813.9635	0.18	1627927	keystroke_u	u	n/a
814.1885	0.18	1628377	keystroke_d	d	n/a
814.5185	0.165	1629037	keystroke_e	e	n/a
814.9085	0.15	1629817	keystroke_d	d	n/a
815.1335	0.165	1630267	keystroke_Key.space	Key.space	n/a
815.6435	0.15	1631287	keystroke_g	g	n/a
815.9285	0.18	1631857	keystroke_r	r	n/a
816.1235	0.21	1632247	keystroke_o	o	n/a
816.3035	0.15	1632607	keystroke_w	w	n/a
816.4685	0.15	1632937	keystroke_Key.space	Key.space	n/a
816.7535	0.21	1633507	keystroke_m	m	n/a
816.9335	0.225	1633867	keystroke_o	o	n/a
817.1735	0.24	1634347	keystroke_d	d	n/a
817.5935	0.195	1635187	keystroke_e	e	n/a
817.7585	0.15	1635517	keystroke_r	r	n/a
817.9235	0.165	1635847	keystroke_n	n	n/a
819.1685	0.135	1638337	keystroke_Key.backspace	Key.backspace	n/a
819.4385	0.03	1638877	keystroke_Key.backspace	Key.backspace	n/a
819.6035	0.06	1639207	keystroke_Key.backspace	Key.backspace	n/a
819.8435	0.03	1639687	keystroke_Key.backspace	Key.backspace	n/a
820.0085	0.076	1640017	keystroke_Key.backspace	Key.backspace	n/a
820.1885	0.075	1640377	keystroke_Key.backspace	Key.backspace	n/a
820.3835	0.06	1640767	keystroke_Key.backspace	Key.backspace	n/a
820.5785	0.075	1641157	keystroke_Key.backspace	Key.backspace	n/a
820.7735	0.09	1641547	keystroke_Key.backspace	Key.backspace	n/a
820.9835	0.06	1641967	keystroke_Key.backspace	Key.backspace	n/a
821.1935	0.06	1642387	keystroke_Key.backspace	Key.backspace	n/a
821.3735	0.09	1642747	keystroke_Key.backspace	Key.backspace	n/a
821.9135	0.09	1643827	keystroke_Key.backspace	Key.backspace	n/a
822.1385	0.12	1644277	keystroke_Key.backspace	Key.backspace	n/a
822.3935	0.09	1644787	keystroke_Key.backspace	Key.backspace	n/a
822.7235	0.225	1645447	keystroke_Key.backspace	Key.backspace	n/a
823.0835	0.135	1646167	keystroke_Key.backspace	Key.backspace	n/a
823.3245	0.194	1646649	keystroke_a	a	n/a
823.8185	0.135	1647637	keystroke_Key.backspace	Key.backspace	n/a
825.6495	0.315	1651299	keystroke_o	o	n/a
825.9785	0.135	1651957	keystroke_a	a	n/a
826.2485	0.15	1652497	keystroke_d	d	n/a
826.5185	0.18	1653037	keystroke_e	e	n/a
826.8495	0.18	1653699	keystroke_d	d	n/a
826.9985	0.195	1653997	keystroke_Key.space	Key.space	n/a
827.2685	0.196	1654537	keystroke_g	g	n/a
827.5985	0.195	1655197	keystroke_r	r	n/a
827.8695	0.24	1655739	keystroke_o	o	n/a
828.0935	0.165	1656187	keystroke_w	w	n/a
828.2735	0.15	1656547	keystroke_Key.space	Key.space	n/a
828.7535	0.226	1657507	keystroke_m	m	n/a
828.9185	0.241	1657837	keystroke_o	o	n/a
829.0685	0.18	1658137	keystroke_d	d	n/a
829.3985	0.21	1658797	keystroke_e	e	n/a
829.5635	0.181	1659127	keystroke_r	r	n/a
829.6985	0.181	1659397	keystroke_n	n	n/a
830.3585	0.18	1660717	keystroke_Key.enter	Key.enter	n/a
830.5475	13.4925	1661095	prompt	n/a	alcohol utility harassment bullet\n
831.5135	0.196	1663027	keystroke_a	a	n/a
831.7835	0.166	1663567	keystroke_l	l	n/a
832.3235	0.18	1664647	keystroke_c	c	n/a
