onset	duration	sample	value	key	prompt_text
6.665	7.117	13330	prompt	n/a	the quick brown fox jumps over a lazy dog\n
7.706	0.001	15412	keystroke	t	n/a
7.72	0.06	15440	keystroke	h	n/a
7.78	0.075	15560	keystroke	e	n/a
7.87	0.0595	15740	keystroke	Key.space	n/a
7.9595	0.075	15919	keystroke	q	n/a
8.0495	0.0905	16099	keystroke	y	n/a
8.125	0.09	16250	keystroke	u	n/a
8.244	0.076	16488	keystroke	c	n/a
9.04	0.059	18080	keystroke	Key.backspace	n/a
9.1895	0.0755	18379	keystroke	Key.backspace	n/a
9.37	0.075	18740	keystroke	Key.backspace	n/a
9.8795	0.06	19759	keystroke	u	n/a
9.9995	0.075	19999	keystroke	i	n/a
10.1645	0.0905	20329	keystroke	c	n/a
10.2395	0.0595	20479	keystroke	k	n/a
10.3445	0.075	20689	keystroke	Key.space	n/a
10.449	0.076	20898	keystroke	b	n/a
10.5545	0.0745	21109	keystroke	r	n/a
10.645	0.045	21290	keystroke	o	n/a
10.719	0.0755	21438	keystroke	w	n/a
10.7795	0.09	21559	keystroke	n	n/a
10.8845	0.09	21769	keystroke	Key.space	n/a
10.9895	0.0595	21979	keystroke	f	n/a
11.0945	0.0605	22189	keystroke	o	n/a
11.1995	0.0755	22399	keystroke	x	n/a
11.3045	0.075	22609	keystroke	Key.space	n/a
11.4995	0.0605	22999	keystroke	j	n/a
11.6345	0.0445	23269	keystroke	u	n/a
11.799	0.0605	23598	keystroke	m	n/a
11.9495	0.0745	23899	keystroke	p	n/a
12.039	0.0605	24078	keystroke	s	n/a
12.0995	0.0595	24199	keystroke	Key.space	n/a
12.2195	0.0455	24439	keystroke	o	n/a
12.279	0.0605	24558	keystroke	v	n/a
12.43	0.059	24860	keystroke	e	n/a
12.5195	0.09	25039	keystroke	r	n/a
12.625	0.075	25250	keystroke	Key.space	n/a
12.6845	0.075	25369	keystroke	a	n/a
12.7595	0.0595	25519	keystroke	Key.space	n/a
12.8795	0.075	25759	keystroke	l	n/a
12.9395	0.0745	25879	keystroke	a	n/a
13.12	0.09	26240	keystroke	z	n/a
13.195	0.059	26390	keystroke	y	n/a
13.314	0.0605	26628	keystroke	Key.space	n/a
13.3895	0.075	26779	keystroke	d	n/a
13.45	0.0745	26900	keystroke	o	n/a
13.6	0.045	27200	keystroke	g	n/a
13.7195	0.06	27439	keystroke	Key.enter	n/a
13.787	6.0245	27574	prompt	n/a	affecting thinkpad greatest exhaust\n
14.65	0.09	29300	keystroke	a	n/a
14.889	0.061	29778	keystroke	f	n/a
15.0395	0.06	30079	keystroke	f	n/a
15.175	0.0605	30350	keystroke	e	n/a
15.3545	0.0755	30709	keystroke	c	n/a
15.535	0.06	31070	keystroke	t	n/a
15.5795	0.06	31159	keystroke	i	n/a
15.715	0.075	31430	keystroke	n	n/a
15.759	0.046	31518	keystroke	g	n/a
15.8345	0.075	31669	keystroke	Key.space	n/a
15.9395	0.0605	31879	keystroke	t	n/a
15.9845	0.0605	31969	keystroke	h	n/a
16.0895	0.0905	32179	keystroke	i	n/a
16.2245	0.0755	32449	keystroke	n	n/a
16.3445	0.0755	32689	keystroke	k	n/a
16.555	0.06	33110	keystroke	p	n/a
16.615	0.12	33230	keystroke	a	n/a
16.7495	0.0755	33499	keystroke	d	n/a
16.9745	0.0895	33949	keystroke	Key.space	n/a
17.365	0.044	34730	keystroke	g	n/a
17.455	0.089	34910	keystroke	r	n/a
17.53	0.0745	35060	keystroke	e	n/a
17.65	0.105	35300	keystroke	a	n/a
17.77	0.059	35540	keystroke	t	n/a
17.874	0.076	35748	keystroke	e	n/a
18.37	0.075	36740	keystroke	s	n/a
18.475	0.09	36950	keystroke	t	n/a
18.669	0.075	37338	keystroke	Key.space	n/a
18.9395	0.075	37879	keystroke	e	n/a
19.1495	0.075	38299	keystroke	x	n/a
19.21	0.075	38420	keystroke	h	n/a
19.33	0.06	38660	keystroke	a	n/a
19.3745	0.0605	38749	keystroke	u	n/a
19.45	0.075	38900	keystroke	s	n/a
19.6595	0.0445	39319	keystroke	t	n/a
19.75	0.06	39500	keystroke	Key.enter	n/a
19.8155	4.001	39631	prompt	n/a	shirt disciplinary tune throat\n
20.3795	0.0895	40759	keystroke	s	n/a
20.439	0.0605	40878	keystroke	h	n/a
20.5895	0.06	41179	keystroke	i	n/a
20.635	0.0605	41270	keystroke	r	n/a
20.785	0.074	41570	keystroke	t	n/a
20.829	0.0755	41658	keystroke	Key.space	n/a
20.9645	0.1505	41929	keystroke	d	n/a
21.039	0.0905	42078	keystroke	i	n/a
21.1595	0.0605	42319	keystroke	s	n/a
21.325	0.06	42650	keystroke	c	n/a
21.3995	0.0605	42799	keystroke	i	n/a
21.579	0.046	43158	keystroke	p	n/a
21.7745	0.075	43549	keystroke	l	n/a
21.985	0.045	43970	keystroke	i	n/a
22.135	0.09	44270	keystroke	n	n/a
22.21	0.0745	44420	keystroke	a	n/a
22.3295	0.075	44659	keystroke	r	n/a
22.4045	0.0455	44809	keystroke	y	n/a
22.5095	0.075	45019	keystroke	Key.space	n/a
22.6	0.06	45200	keystroke	t	n/a
22.6745	0.0295	45349	keystroke	u	n/a
22.825	0.06	45650	keystroke	n	n/a
22.855	0.075	45710	keystroke	e	n/a
22.9445	0.0595	45889	keystroke	Key.space	n/a
23.0345	0.0605	46069	keystroke	t	n/a
23.08	0.0595	46160	keystroke	h	n/a
23.214	0.0905	46428	keystroke	r	n/a
23.3195	0.0755	46639	keystroke	o	n/a
23.38	0.09	46760	keystroke	a	n/a
23.575	0.06	47150	keystroke	t	n/a
23.74	0.0745	47480	keystroke	Key.enter	n/a
23.82	5.667	47640	prompt	n/a	verified combines head referrals\n
24.445	0.09	48890	keystroke	v	n/a
24.6245	0.06	49249	keystroke	e	n/a
24.715	0.0745	49430	keystroke	r	n/a
24.835	0.06	49670	keystroke	i	n/a
24.94	0.03	49880	keystroke	f	n/a
25	0.059	50000	keystroke	i	n/a
25.0745	0.0595	50149	keystroke	e	n/a
25.2245	0.0895	50449	keystroke	d	n/a
25.269	0.091	50538	keystroke	Key.space	n/a
25.404	0.0905	50808	keystroke	c	n/a
25.4805	0.044	50961	keystroke	o	n/a
25.615	0.075	51230	keystroke	m	n/a
25.7195	0.0455	51439	keystroke	b	n/a
25.8095	0.06	51619	keystroke	i	n/a
25.945	0.074	51890	keystroke	n	n/a
25.9895	0.075	51979	keystroke	e	n/a
26.1395	0.09	52279	keystroke	s	n/a
26.214	0.046	52428	keystroke	Key.space	n/a
26.3195	0.0595	52639	keystroke	h	n/a
26.3645	0.0745	52729	keystroke	e	n/a
26.485	0.105	52970	keystroke	a	n/a
26.605	0.0895	53210	keystroke	d	n/a
26.77	0.0745	53540	keystroke	Key.space	n/a
27.01	0.075	54020	keystroke	r	n/a
27.114	0.076	54228	keystroke	e	n/a
27.25	0.075	54500	keystroke	f	n/a
27.3695	0.075	54739	keystroke	e	n/a
27.475	0.06	54950	keystroke	r	n/a
27.699	0.015	55398	keystroke	r	n/a
27.7595	0.1045	55519	keystroke	a	n/a
27.8795	0.0605	55759	keystroke	l	n/a
27.97	0.074	55940	keystroke	s	n/a
28.239	0.06	56478	keystroke	'	n/a
29.244	0.0455	58488	keystroke	Key.backspace	n/a
29.4245	0.06	58849	keystroke	Key.enter	n/a
29.493	5.2885	58986	prompt	n/a	presidential eternal subjects introduce\n
30.3095	0.0595	60619	keystroke	p	n/a
30.384	0.091	60768	keystroke	r	n/a
30.4595	0.075	60919	keystroke	e	n/a
30.6695	0.0745	61339	keystroke	s	n/a
30.7745	0.045	61549	keystroke	i	n/a
30.8495	0.0755	61699	keystroke	d	n/a
31	0.074	62000	keystroke	e	n/a
31.0895	0.0595	62179	keystroke	n	n/a
31.164	0.076	62328	keystroke	t	n/a
31.2845	0.0445	62569	keystroke	i	n/a
31.3445	0.0905	62689	keystroke	a	n/a
31.4495	0.0905	62899	keystroke	l	n/a
31.569	0.0605	63138	keystroke	Key.space	n/a
31.645	0.0745	63290	keystroke	e	n/a
31.7945	0.075	63589	keystroke	t	n/a
31.914	0.1055	63828	keystroke	e	n/a
31.9895	0.1045	63979	keystroke	r	n/a
32.109	0.045	64218	keystroke	n	n/a
32.2145	0.09	64429	keystroke	a	n/a
32.3045	0.075	64609	keystroke	l	n/a
32.4395	0.075	64879	keystroke	Key.space	n/a
32.545	0.074	65090	keystroke	s	n/a
32.635	0.045	65270	keystroke	u	n/a
32.7395	0.075	65479	keystroke	b	n/a
32.8295	0.06	65659	keystroke	j	n/a
32.935	0.06	65870	keystroke	e	n/a
33.129	0.0755	66258	keystroke	c	n/a
33.1895	0.0605	66379	keystroke	t	n/a
33.324	0.061	66648	keystroke	s	n/a
33.3695	0.06	66739	keystroke	Key.space	n/a
33.5645	0.045	67129	keystroke	i	n/a
33.7295	0.06	67459	keystroke	n	n/a
33.8045	0.0455	67609	keystroke	t	n/a
33.94	0.0745	67880	keystroke	r	n/a
33.9995	0.075	67999	keystroke	o	n/a
34.1345	0.06	68269	keystroke	d	n/a
34.2095	0.045	68419	keystroke	u	n/a
34.2995	0.0605	68599	keystroke	c	n/a
34.6145	0.045	69229	keystroke	e	n/a
34.7045	0.0745	69409	keystroke	Key.enter	n/a
34.7855	4.5865	69571	prompt	n/a	normal britney risks wallet\n
35.62	0.0745	71240	keystroke	n	n/a
35.799	0.06	71598	keystroke	o	n/a
35.9045	0.06	71809	keystroke	r	n/a
35.98	0.06	71960	keystroke	m	n/a
36.07	0.104	72140	keystroke	a	n/a
36.13	0.059	72260	keystroke	l	n/a
36.249	0.075	72498	keystroke	Key.space	n/a
36.4	0.075	72800	keystroke	b	n/a
36.4595	0.0755	72919	keystroke	r	n/a
36.565	0.09	73130	keystroke	i	n/a
36.685	0.0745	73370	keystroke	t	n/a
36.8345	0.075	73669	keystroke	n	n/a
37.015	0.0595	74030	keystroke	e	n/a
37.1345	0.06	74269	keystroke	y	n/a
37.2695	0.09	74539	keystroke	Key.space	n/a
37.42	0.074	74840	keystroke	r	n/a
37.524	0.0605	75048	keystroke	i	n/a
37.599	0.0755	75198	keystroke	s	n/a
37.7045	0.09	75409	keystroke	k	n/a
37.78	0.0745	75560	keystroke	s	n/a
37.914	0.09	75828	keystroke	Key.space	n/a
38.6045	0.045	77209	keystroke	w	n/a
38.7095	0.12	77419	keystroke	a	n/a
38.7995	0.0595	77599	keystroke	l	n/a
38.9045	0.0745	77809	keystroke	l	n/a
38.9645	0.0745	77929	keystroke	e	n/a
39.144	0.061	78288	keystroke	t	n/a
39.3545	0.0145	78709	keystroke	Key.enter	n/a
39.3785	4.8075	78757	prompt	n/a	lift distinct shares assuming\n
40.3745	0.0595	80749	keystroke	l	n/a
40.554	0.06	81108	keystroke	i	n/a
40.629	0.09	81258	keystroke	f	n/a
40.8245	0.06	81649	keystroke	t	n/a
40.8995	0.075	81799	keystroke	Key.space	n/a
41.0195	0.075	82039	keystroke	d	n/a
41.0795	0.075	82159	keystroke	i	n/a
41.1695	0.075	82339	keystroke	s	n/a
41.3345	0.06	82669	keystroke	t	n/a
41.3945	0.045	82789	keystroke	i	n/a
41.5445	0.06	83089	keystroke	n	n/a
41.6195	0.059	83239	keystroke	c	n/a
41.8595	0.045	83719	keystroke	t	n/a
41.9195	0.075	83839	keystroke	Key.space	n/a
42.0245	0.09	84049	keystroke	s	n/a
42.0995	0.06	84199	keystroke	h	n/a
42.2195	0.075	84439	keystroke	a	n/a
42.2645	0.15	84529	keystroke	r	n/a
42.399	0.105	84798	keystroke	e	n/a
42.594	0.0905	85188	keystroke	s	n/a
42.6695	0.075	85339	keystroke	Key.space	n/a
42.8045	0.119	85609	keystroke	a	n/a
42.9695	0.075	85939	keystroke	s	n/a
43.1495	0.0755	86299	keystroke	s	n/a
43.225	0.0585	86450	keystroke	u	n/a
43.4045	0.06	86809	keystroke	m	n/a
43.5695	0.045	87139	keystroke	i	n/a
43.6895	0.06	87379	keystroke	n	n/a
43.7645	0.075	87529	keystroke	g	n/a
44.1395	0.045	88279	keystroke	Key.enter	n/a
44.1935	4.1175	88387	prompt	n/a	reno worlds pioneer superior\n
44.9045	0.0895	89809	keystroke	r	n/a
45.0095	0.075	90019	keystroke	e	n/a
45.099	0.06	90198	keystroke	n	n/a
45.2795	0.06	90559	keystroke	o	n/a
45.4295	0.074	90859	keystroke	Key.space	n/a
45.534	0.105	91068	keystroke	w	n/a
45.64	0.0595	91280	keystroke	o	n/a
45.715	0.0745	91430	keystroke	r	n/a
45.804	0.0755	91608	keystroke	l	n/a
45.8945	0.12	91789	keystroke	d	n/a
45.9995	0.105	91999	keystroke	s	n/a
46.0895	0.074	92179	keystroke	Key.space	n/a
46.2395	0.06	92479	keystroke	p	n/a
46.4045	0.06	92809	keystroke	i	n/a
46.5395	0.075	93079	keystroke	o	n/a
46.7495	0.06	93499	keystroke	n	n/a
46.8395	0.09	93679	keystroke	e	n/a
46.9895	0.09	93979	keystroke	e	n/a
47.1245	0.075	94249	keystroke	r	n/a
47.1845	0.075	94369	keystroke	Key.space	n/a
47.3195	0.09	94639	keystroke	s	n/a
47.3945	0.045	94789	keystroke	u	n/a
47.5445	0.045	95089	keystroke	p	n/a
47.6045	0.075	95209	keystroke	e	n/a
47.6795	0.075	95359	keystroke	r	n/a
47.7845	0.0895	95569	keystroke	i	n/a
47.8595	0.0745	95719	keystroke	o	n/a
47.904	0.1055	95808	keystroke	r	n/a
48.2485	0.06	96497	keystroke	Key.enter	n/a
48.315	4.1955	96630	prompt	n/a	hose oman heater emotional\n
49.179	0.075	98358	keystroke	h	n/a
49.344	0.075	98688	keystroke	o	n/a
49.434	0.09	98868	keystroke	s	n/a
49.539	0.09	99078	keystroke	e	n/a
49.614	0.075	99228	keystroke	Key.space	n/a
49.839	0.0455	99678	keystroke	o	n/a
50.0045	0.0595	100009	keystroke	m	n/a
50.094	0.09	100188	keystroke	a	n/a
50.169	0.0595	100338	keystroke	n	n/a
50.2895	0.06	100579	keystroke	Key.space	n/a
50.3945	0.0595	100789	keystroke	h	n/a
50.4245	0.0745	100849	keystroke	e	n/a
50.529	0.1205	101058	keystroke	a	n/a
50.7245	0.0595	101449	keystroke	t	n/a
50.844	0.0905	101688	keystroke	e	n/a
50.9795	0.075	101959	keystroke	r	n/a
51.1295	0.09	102259	keystroke	Key.space	n/a
51.34	0.1045	102680	keystroke	e	n/a
51.4285	0.076	102857	keystroke	m	n/a
51.6095	0.03	103219	keystroke	o	n/a
51.6545	0.06	103309	keystroke	t	n/a
51.7295	0.0895	103459	keystroke	i	n/a
51.789	0.09	103578	keystroke	o	n/a
51.9695	0.059	103939	keystroke	n	n/a
52.0735	0.076	104147	keystroke	a	n/a
52.1645	0.06	104329	keystroke	l	n/a
52.4495	0.06	104899	keystroke	Key.enter	n/a
52.514	6.3865	105028	prompt	n/a	depend convicted wilson flex\n
53.2295	0.075	106459	keystroke	d	n/a
53.3795	0.075	106759	keystroke	e	n/a
53.4545	0.045	106909	keystroke	o	n/a
53.5145	0.0895	107029	keystroke	e	n/a
53.7095	0.015	107419	keystroke	n	n/a
54.0985	0.061	108197	keystroke	Key.backspace	n/a
54.3845	0.06	108769	keystroke	Key.backspace	n/a
54.5945	0.045	109189	keystroke	Key.backspace	n/a
55.1795	0.06	110359	keystroke	p	n/a
55.3145	0.075	110629	keystroke	e	n/a
55.4495	0.0595	110899	keystroke	n	n/a
55.584	0.0755	111168	keystroke	d	n/a
55.7795	0.059	111559	keystroke	Key.space	n/a
56.004	0.045	112008	keystroke	c	n/a
56.034	0.045	112068	keystroke	o	n/a
56.184	0.0755	112368	keystroke	n	n/a
56.244	0.075	112488	keystroke	v	n/a
56.349	0.06	112698	keystroke	i	n/a
56.5895	0.03	113179	keystroke	c	n/a
56.7245	0.075	113449	keystroke	t	n/a
56.9795	0.075	113959	keystroke	e	n/a
57.2195	0.075	114439	keystroke	d	n/a
57.3245	0.09	114649	keystroke	Key.space	n/a
57.5195	0.075	115039	keystroke	w	n/a
57.5795	0.06	115159	keystroke	i	n/a
57.759	0.045	115518	keystroke	l	n/a
57.819	0.075	115638	keystroke	s	n/a
57.924	0.045	115848	keystroke	o	n/a
58.0895	0.074	116179	keystroke	n	n/a
58.2085	0.0755	116417	keystroke	Key.space	n/a
58.2985	0.061	116597	keystroke	f	n/a
58.3745	0.06	116749	keystroke	l	n/a
58.4495	0.075	116899	keystroke	e	n/a
58.6595	0.06	117319	keystroke	x	n/a
58.8245	0.075	117649	keystroke	Key.enter	n/a
58.907	5.1535	117814	prompt	n/a	diving therapy dangerous istanbul\n
59.6485	0.076	119297	keystroke	d	n/a
59.7535	0.061	119507	keystroke	i	n/a
59.8895	0.075	119779	keystroke	v	n/a
59.9795	0.03	119959	keystroke	i	n/a
60.1295	0.06	120259	keystroke	n	n/a
60.249	0.0455	120498	keystroke	g	n/a
60.3545	0.074	120709	keystroke	Key.space	n/a
60.5045	0.06	121009	keystroke	t	n/a
60.5645	0.0595	121129	keystroke	h	n/a
60.6835	0.106	121367	keystroke	e	n/a
60.8195	0.09	121639	keystroke	r	n/a
60.9395	0.105	121879	keystroke	a	n/a
61.0585	0.061	122117	keystroke	p	n/a
61.2085	0.061	122417	keystroke	y	n/a
61.3285	0.09	122657	keystroke	Key.space	n/a
61.554	0.0905	123108	keystroke	d	n/a
61.674	0.0905	123348	keystroke	a	n/a
61.7795	0.045	123559	keystroke	n	n/a
61.8695	0.045	123739	keystroke	g	n/a
61.9895	0.09	123979	keystroke	e	n/a
62.0945	0.09	124189	keystroke	r	n/a
62.1995	0.06	124399	keystroke	o	n/a
62.3645	0.03	124729	keystroke	u	n/a
62.4095	0.09	124819	keystroke	s	n/a
62.4845	0.06	124969	keystroke	Key.space	n/a
62.6045	0.06	125209	keystroke	i	n/a
62.6495	0.075	125299	keystroke	s	n/a
62.7995	0.06	125599	keystroke	t	n/a
62.9045	0.105	125809	keystroke	a	n/a
62.9945	0.06	125989	keystroke	n	n/a
63.1595	0.075	126319	keystroke	b	n/a
63.339	0.0455	126678	keystroke	u	n/a
63.5195	0.075	127039	keystroke	l	n/a
64.0135	0.045	128027	keystroke	Key.enter	n/a
64.0655	4.5705	128131	prompt	n/a	audience projection diana acre\n
64.779	0.09	129558	keystroke	a	n/a
64.839	0.0905	129678	keystroke	u	n/a
64.9595	0.045	129919	keystroke	d	n/a
65.0495	0.06	130099	keystroke	i	n/a
65.1245	0.09	130249	keystroke	e	n/a
65.2295	0.0595	130459	keystroke	n	n/a
65.3645	0.0895	130729	keystroke	c	n/a
65.589	0.06	131178	keystroke	e	n/a
65.649	0.06	131298	keystroke	Key.space	n/a
65.784	0.06	131568	keystroke	p	n/a
65.859	0.0755	131718	keystroke	r	n/a
65.9495	0.044	131899	keystroke	o	n/a
66.099	0.06	132198	keystroke	j	n/a
66.114	0.0755	132228	keystroke	e	n/a
66.324	0.06	132648	keystroke	c	n/a
66.5495	0.06	133099	keystroke	t	n/a
66.5945	0.09	133189	keystroke	i	n/a
66.6395	0.09	133279	keystroke	o	n/a
66.8345	0.06	133669	keystroke	n	n/a
66.9245	0.09	133849	keystroke	Key.space	n/a
67.0445	0.075	134089	keystroke	d	n/a
67.1045	0.045	134209	keystroke	i	n/a
67.1795	0.105	134359	keystroke	a	n/a
67.2695	0.075	134539	keystroke	n	n/a
67.3595	0.0895	134719	keystroke	a	n/a
67.464	0.075	134928	keystroke	Key.space	n/a
67.8995	0.075	135799	keystroke	a	n/a
68.079	0.0605	136158	keystroke	c	n/a
68.3045	0.06	136609	keystroke	r	n/a
68.379	0.0905	136758	keystroke	e	n/a
68.5745	0.0595	137149	keystroke	Key.enter	n/a
68.64	4.556	137280	prompt	n/a	influenced shows annex lone\n
69.3545	0.06	138709	keystroke	i	n/a
69.5045	0.06	139009	keystroke	n	n/a
69.5795	0.075	139159	keystroke	f	n/a
69.6695	0.06	139339	keystroke	l	n/a
69.879	0.045	139758	keystroke	u	n/a
69.9545	0.0895	139909	keystroke	e	n/a
70.5845	0.045	141169	keystroke	n	n/a
70.6895	0.075	141379	keystroke	c	n/a
70.9145	0.0745	141829	keystroke	e	n/a
71.094	0.0905	142188	keystroke	d	n/a
71.2285	0.046	142457	keystroke	Key.space	n/a
71.2895	0.0755	142579	keystroke	s	n/a
71.349	0.06	142698	keystroke	h	n/a
71.484	0.061	142968	keystroke	o	n/a
71.5595	0.06	143119	keystroke	w	n/a
71.6945	0.09	143389	keystroke	s	n/a
71.7695	0.075	143539	keystroke	Key.space	n/a
71.8895	0.09	143779	keystroke	a	n/a
71.9645	0.06	143929	keystroke	n	n/a
72.0995	0.06	144199	keystroke	n	n/a
72.1745	0.06	144349	keystroke	e	n/a
72.3545	0.09	144709	keystroke	x	n/a
72.4295	0.06	144859	keystroke	Key.space	n/a
72.5645	0.09	145129	keystroke	l	n/a
72.729	0.0455	145458	keystroke	o	n/a
72.9095	0.015	145819	keystroke	n	n/a
72.9695	0.06	145939	keystroke	e	n/a
73.1345	0.06	146269	keystroke	Key.enter	n/a
73.201	5.4405	146402	prompt	n/a	appearance browsers prev personalized\n
73.8545	0.165	147709	keystroke	a	n/a
74.1695	0.0295	148339	keystroke	p	n/a
74.3945	0.1045	148789	keystroke	p	n/a
74.8	0.0295	149600	keystroke	e	n/a
74.8745	0.105	149749	keystroke	a	n/a
75.0095	0.105	150019	keystroke	r	n/a
75.1295	0.09	150259	keystroke	a	n/a
75.2645	0.075	150529	keystroke	n	n/a
75.3695	0.0755	150739	keystroke	c	n/a
75.5495	0.06	151099	keystroke	e	n/a
75.5795	0.06	151159	keystroke	Key.space	n/a
75.6995	0.06	151399	keystroke	b	n/a
75.7745	0.06	151549	keystroke	r	n/a
75.8645	0.0605	151729	keystroke	o	n/a
75.91	0.0595	151820	keystroke	w	n/a
76.0895	0.06	152179	keystroke	s	n/a
76.195	0.09	152390	keystroke	e	n/a
76.2995	0.09	152599	keystroke	r	n/a
76.4495	0.075	152899	keystroke	s	n/a
76.5395	0.06	153079	keystroke	Key.space	n/a
76.7045	0.0455	153409	keystroke	p	n/a
76.75	0.0745	153500	keystroke	r	n/a
76.84	0.0595	153680	keystroke	e	n/a
77.035	0.0595	154070	keystroke	v	n/a
77.0945	0.06	154189	keystroke	Key.space	n/a
77.2295	0.06	154459	keystroke	p	n/a
77.2895	0.0755	154579	keystroke	e	n/a
77.41	0.059	154820	keystroke	r	n/a
77.5445	0.075	155089	keystroke	s	n/a
77.62	0.044	155240	keystroke	o	n/a
77.7695	0.045	155539	keystroke	n	n/a
77.829	0.076	155658	keystroke	a	n/a
77.964	0.06	155928	keystroke	l	n/a
78.115	0.045	156230	keystroke	i	n/a
78.145	0.0895	156290	keystroke	z	n/a
78.3095	0.06	156619	keystroke	e	n/a
78.4745	0.0595	156949	keystroke	d	n/a
78.579	0.06	157158	keystroke	Key.enter	n/a
78.645	6.791	157290	prompt	n/a	christ exhaust hourly auckland\n
79.3145	0.0605	158629	keystroke	c	n/a
79.3895	0.075	158779	keystroke	h	n/a
79.5245	0.075	159049	keystroke	r	n/a
79.6145	0.06	159229	keystroke	i	n/a
79.6895	0.06	159379	keystroke	s	n/a
79.794	0.076	159588	keystroke	t	n/a
79.87	0.059	159740	keystroke	Key.space	n/a
79.959	0.06	159918	keystroke	e	n/a
80.1245	0.0905	160249	keystroke	x	n/a
80.1995	0.06	160399	keystroke	h	n/a
80.305	0.0895	160610	keystroke	a	n/a
80.4095	0.06	160819	keystroke	u	n/a
80.5445	0.06	161089	keystroke	s	n/a
80.7845	0.075	161569	keystroke	t	n/a
81.0845	0.0595	162169	keystroke	Key.space	n/a
81.384	0.045	162768	keystroke	h	n/a
81.519	0.06	163038	keystroke	o	n/a
81.639	0.061	163278	keystroke	u	n/a
81.715	0.074	163430	keystroke	r	n/a
81.805	0.089	163610	keystroke	l	n/a
81.9395	0.06	163879	keystroke	y	n/a
82.0145	0.075	164029	keystroke	Key.space	n/a
82.1195	0.105	164239	keystroke	a	n/a
82.2095	0.045	164419	keystroke	u	n/a
82.3	0.1045	164600	keystroke	c	n/a
82.3895	0.06	164779	keystroke	k	n/a
82.5245	0.075	165049	keystroke	l	n/a
82.5995	0.105	165199	keystroke	a	n/a
82.7195	0.0905	165439	keystroke	d	n/a
82.7345	0.06	165469	keystroke	n	n/a
83.6345	0.06	167269	keystroke	Key.backspace	n/a
83.7395	0.06	167479	keystroke	Key.backspace	n/a
84.1145	0.0605	168229	keystroke	d	n/a
84.4145	0.06	168829	keystroke	Key.backspace	n/a
84.715	0.045	169430	keystroke	n	n/a
84.85	0.06	169700	keystroke	d	n/a
85.4045	0.03	170809	keystroke	Key.enter	n/a
85.441	4.211	170882	prompt	n/a	hold ghost constitutes optics\n
86.215	0.0595	172430	keystroke	h	n/a
86.3945	0.0605	172789	keystroke	o	n/a
86.529	0.09	173058	keystroke	l	n/a
86.635	0.06	173270	keystroke	d	n/a
86.71	0.075	173420	keystroke	Key.space	n/a
86.845	0.075	173690	keystroke	g	n/a
86.905	0.06	173810	keystroke	h	n/a
87.04	0.06	174080	keystroke	o	n/a
87.129	0.076	174258	keystroke	s	n/a
87.31	0.045	174620	keystroke	t	n/a
87.37	0.075	174740	keystroke	Key.space	n/a
87.49	0.075	174980	keystroke	c	n/a
87.535	0.06	175070	keystroke	o	n/a
87.685	0.06	175370	keystroke	n	n/a
87.715	0.075	175430	keystroke	s	n/a
87.85	0.09	175700	keystroke	t	n/a
87.955	0.045	175910	keystroke	i	n/a
88.03	0.075	176060	keystroke	t	n/a
88.12	0.075	176240	keystroke	u	n/a
88.21	0.075	176420	keystroke	t	n/a
88.434	0.09	176868	keystroke	e	n/a
88.615	0.089	177230	keystroke	s	n/a
88.689	0.06	177378	keystroke	Key.space	n/a
88.84	0.134	177680	keystroke	o	n/a
88.93	0.075	177860	keystroke	p	n/a
89.049	0.076	178098	keystroke	t	n/a
89.154	0.061	178308	keystroke	i	n/a
89.289	0.09	178578	keystroke	c	n/a
89.439	0.075	178878	keystroke	s	n/a
89.574	0.075	179148	keystroke	Key.enter	n/a
89.6575	5.349	179315	prompt	n/a	jesse library nvidia bestsellers\n
90.415	0.0445	180830	keystroke	j	n/a
90.4595	0.09	180919	keystroke	e	n/a
90.67	0.06	181340	keystroke	s	n/a
90.805	0.06	181610	keystroke	s	n/a
91.0145	0.0455	182029	keystroke	e	n/a
91.1195	0.0905	182239	keystroke	Key.space	n/a
91.375	0.0595	182750	keystroke	l	n/a
91.5395	0.045	183079	keystroke	i	n/a
91.6745	0.0605	183349	keystroke	b	n/a
91.7195	0.0755	183439	keystroke	r	n/a
91.81	0.0895	183620	keystroke	a	n/a
91.915	0.0745	183830	keystroke	r	n/a
92.0045	0.045	184009	keystroke	y	n/a
92.1095	0.075	184219	keystroke	Key.space	n/a
92.26	0.0745	184520	keystroke	n	n/a
92.3945	0.0605	184789	keystroke	v	n/a
92.5745	0.06	185149	keystroke	i	n/a
92.709	0.075	185418	keystroke	d	n/a
92.815	0.0595	185630	keystroke	i	n/a
93.0095	0.06	186019	keystroke	a	n/a
93.0995	0.075	186199	keystroke	Key.space	n/a
93.3545	0.06	186709	keystroke	b	n/a
93.3995	0.0755	186799	keystroke	e	n/a
93.5495	0.105	187099	keystroke	s	n/a
93.775	0.0745	187550	keystroke	t	n/a
94.0145	0.075	188029	keystroke	s	n/a
94.165	0.0745	188330	keystroke	e	n/a
94.2545	0.06	188509	keystroke	l	n/a
94.3895	0.075	188779	keystroke	l	n/a
94.45	0.0745	188900	keystroke	e	n/a
94.5695	0.0755	189139	keystroke	r	n/a
94.735	0.0895	189470	keystroke	s	n/a
94.9445	0.06	189889	keystroke	Key.enter	n/a
95.014	4.5525	190028	prompt	n/a	situations executive host gourmet\n
95.74	0.06	191480	keystroke	s	n/a
95.83	0.06	191660	keystroke	i	n/a
95.92	0.0745	191840	keystroke	t	n/a
96.01	0.0595	192020	keystroke	u	n/a
96.0545	0.1045	192109	keystroke	a	n/a
96.205	0.075	192410	keystroke	t	n/a
96.265	0.09	192530	keystroke	i	n/a
96.325	0.075	192650	keystroke	o	n/a
96.49	0.09	192980	keystroke	n	n/a
96.565	0.06	193130	keystroke	s	n/a
96.64	0.09	193280	keystroke	Key.space	n/a
96.745	0.045	193490	keystroke	e	n/a
96.925	0.06	193850	keystroke	x	n/a
97.18	0.015	194360	keystroke	e	n/a
97.284	0.1055	194568	keystroke	c	n/a
97.374	0.076	194748	keystroke	u	n/a
97.54	0.0595	195080	keystroke	t	n/a
97.585	0.074	195170	keystroke	i	n/a
97.719	0.075	195438	keystroke	v	n/a
97.885	0.0595	195770	keystroke	e	n/a
97.96	0.0595	195920	keystroke	Key.space	n/a
98.065	0.075	196130	keystroke	h	n/a
98.2145	0.0605	196429	keystroke	o	n/a
98.26	0.075	196520	keystroke	s	n/a
98.395	0.06	196790	keystroke	t	n/a
98.455	0.0745	196910	keystroke	Key.space	n/a
98.5895	0.075	197179	keystroke	g	n/a
98.6345	0.06	197269	keystroke	o	n/a
98.8	0.0445	197600	keystroke	u	n/a
98.8745	0.0455	197749	keystroke	r	n/a
98.9645	0.0755	197929	keystroke	m	n/a
99.0695	0.0905	198139	keystroke	e	n/a
99.295	0.075	198590	keystroke	t	n/a
99.505	0.06	199010	keystroke	Key.enter	n/a
99.574	5.3025	199148	prompt	n/a	prostate thermal modems flour\n
100.24	0.045	200480	keystroke	p	n/a
100.314	0.076	200628	keystroke	r	n/a
100.405	0.06	200810	keystroke	o	n/a
100.975	0.075	201950	keystroke	s	n/a
101.14	0.045	202280	keystroke	t	n/a
101.23	0.12	202460	keystroke	a	n/a
101.38	0.075	202760	keystroke	t	n/a
101.575	0.06	203150	keystroke	e	n/a
101.695	0.075	203390	keystroke	Key.space	n/a
101.86	0.09	203720	keystroke	t	n/a
101.935	0.044	203870	keystroke	h	n/a
102.025	0.09	204050	keystroke	e	n/a
102.1295	0.0755	204259	keystroke	r	n/a
102.2195	0.0905	204439	keystroke	m	n/a
102.355	0.0445	204710	keystroke	a	n/a
102.415	0.06	204830	keystroke	l	n/a
102.5345	0.06	205069	keystroke	Key.space	n/a
102.67	0.0295	205340	keystroke	m	n/a
103.5695	0.075	207139	keystroke	o	n/a
103.6595	0.045	207319	keystroke	d	n/a
103.78	0.105	207560	keystroke	e	n/a
103.9	0.0295	207800	keystroke	m	n/a
103.99	0.075	207980	keystroke	s	n/a
104.065	0.06	208130	keystroke	Key.space	n/a
104.17	0.075	208340	keystroke	f	n/a
104.2745	0.0455	208549	keystroke	l	n/a
104.3945	0.0605	208789	keystroke	o	n/a
104.545	0.0605	209090	keystroke	u	n/a
104.62	0.075	209240	keystroke	r	n/a
104.815	0.06	209630	keystroke	Key.enter	n/a
104.881	4.5555	209762	prompt	n/a	geographic dual inventory process\n
105.6995	0.06	211399	keystroke	g	n/a
105.8345	0.105	211669	keystroke	e	n/a
105.8945	0.06	211789	keystroke	o	n/a
106.015	0.0745	212030	keystroke	g	n/a
106.1945	0.045	212389	keystroke	r	n/a
106.2545	0.09	212509	keystroke	a	n/a
106.3145	0.0605	212629	keystroke	p	n/a
106.5095	0.045	213019	keystroke	h	n/a
106.6595	0.0595	213319	keystroke	i	n/a
106.75	0.0595	213500	keystroke	c	n/a
106.8395	0.075	213679	keystroke	Key.space	n/a
106.9595	0.075	213919	keystroke	d	n/a
107.05	0.0595	214100	keystroke	u	n/a
107.1245	0.09	214249	keystroke	a	n/a
107.23	0.0895	214460	keystroke	l	n/a
107.3645	0.0755	214729	keystroke	Key.space	n/a
107.485	0.0595	214970	keystroke	i	n/a
107.6645	0.09	215329	keystroke	n	n/a
107.6945	0.075	215389	keystroke	v	n/a
107.8295	0.09	215659	keystroke	e	n/a
107.8895	0.075	215779	keystroke	n	n/a
107.9945	0.075	215989	keystroke	t	n/a
108.085	0.045	216170	keystroke	o	n/a
108.175	0.075	216350	keystroke	r	n/a
108.265	0.075	216530	keystroke	y	n/a
108.37	0.06	216740	keystroke	Key.space	n/a
108.505	0.06	217010	keystroke	p	n/a
108.595	0.06	217190	keystroke	r	n/a
108.67	0.075	217340	keystroke	o	n/a
108.805	0.09	217610	keystroke	c	n/a
109	0.06	218000	keystroke	e	n/a
109.135	0.089	218270	keystroke	s	n/a
109.3	0.059	218600	keystroke	s	n/a
109.36	0.074	218720	keystroke	Key.enter	n/a
109.4435	5.4235	218887	prompt	n/a	sbjct tropical conditions intention\n
110.23	0.075	220460	keystroke	s	n/a
110.335	0.06	220670	keystroke	b	n/a
110.83	0.075	221660	keystroke	j	n/a
111.07	0.075	222140	keystroke	c	n/a
111.4445	0.0155	222889	keystroke	t	n/a
111.625	0.0745	223250	keystroke	Key.space	n/a
111.7595	0.0605	223519	keystroke	t	n/a
111.9245	0.045	223849	keystroke	r	n/a
111.94	0.105	223880	keystroke	o	n/a
112.0145	0.0905	224029	keystroke	p	n/a
112.195	0.075	224390	keystroke	i	n/a
112.255	0.105	224510	keystroke	c	n/a
112.435	0.105	224870	keystroke	a	n/a
112.525	0.06	225050	keystroke	l	n/a
112.645	0.06	225290	keystroke	Key.space	n/a
112.75	0.075	225500	keystroke	c	n/a
112.81	0.045	225620	keystroke	o	n/a
112.9605	0.045	225921	keystroke	n	n/a
113.02	0.075	226040	keystroke	d	n/a
113.125	0.06	226250	keystroke	i	n/a
113.26	0.06	226520	keystroke	t	n/a
113.275	0.105	226550	keystroke	i	n/a
113.335	0.09	226670	keystroke	o	n/a
113.53	0.0755	227060	keystroke	n	n/a
113.62	0.0445	227240	keystroke	s	n/a
113.68	0.0445	227360	keystroke	Key.space	n/a
113.7845	0.06	227569	keystroke	i	n/a
113.9345	0.075	227869	keystroke	n	n/a
113.9795	0.075	227959	keystroke	t	n/a
114.1155	0.09	228231	keystroke	e	n/a
114.1905	0.059	228381	keystroke	n	n/a
114.3095	0.075	228619	keystroke	t	n/a
114.4155	0.105	228831	keystroke	i	n/a
114.4745	0.076	228949	keystroke	o	n/a
114.5645	0.061	229129	keystroke	n	n/a
114.8045	0.0605	229609	keystroke	Key.enter	n/a
114.8735	4.838	229747	prompt	n/a	salad combine contacting certain\n
115.5405	0.0895	231081	keystroke	s	n/a
115.7205	0.0745	231441	keystroke	a	n/a
115.795	0.0605	231590	keystroke	l	n/a
115.87	0.165	231740	keystroke	a	n/a
116.02	0.075	232040	keystroke	d	n/a
116.125	0.075	232250	keystroke	Key.space	n/a
116.515	0.0755	233030	keystroke	c	n/a
116.575	0.045	233150	keystroke	o	n/a
116.71	0.075	233420	keystroke	m	n/a
116.8005	0.0895	233601	keystroke	b	n/a
116.905	0.045	233810	keystroke	i	n/a
117.04	0.075	234080	keystroke	n	n/a
117.085	0.06	234170	keystroke	e	n/a
117.1895	0.075	234379	keystroke	Key.space	n/a
117.2795	0.0905	234559	keystroke	c	n/a
117.415	0.045	234830	keystroke	o	n/a
117.58	0.06	235160	keystroke	n	n/a
117.625	0.06	235250	keystroke	t	n/a
117.745	0.09	235490	keystroke	a	n/a
117.97	0.0745	235940	keystroke	c	n/a
118.2095	0.0605	236419	keystroke	t	n/a
118.2845	0.015	236569	keystroke	i	n/a
118.4055	0.074	236811	keystroke	n	n/a
118.4645	0.045	236929	keystroke	g	n/a
118.555	0.075	237110	keystroke	Key.space	n/a
118.645	0.075	237290	keystroke	c	n/a
118.81	0.0745	237620	keystroke	e	n/a
118.9005	0.0895	237801	keystroke	r	n/a
119.095	0.045	238190	keystroke	t	n/a
119.1695	0.09	238339	keystroke	a	n/a
119.2445	0.061	238489	keystroke	i	n/a
119.3955	0.06	238791	keystroke	n	n/a
119.6345	0.0755	239269	keystroke	Key.enter	n/a
119.718	5.6335	239436	prompt	n/a	transition gospel permissions traditions\n
120.2645	0.076	240529	keystroke	t	n/a
120.4595	0.076	240919	keystroke	r	n/a
120.5645	0.121	241129	keystroke	a	n/a
120.6995	0.045	241399	keystroke	n	n/a
120.7905	0.074	241581	keystroke	s	n/a
120.9095	0.06	241819	keystroke	i	n/a
121.015	0.09	242030	keystroke	t	n/a
121.135	0.09	242270	keystroke	i	n/a
121.27	0.075	242540	keystroke	o	n/a
121.48	0.06	242960	keystroke	n	n/a
121.645	0.06	243290	keystroke	Key.space	n/a
121.765	0.0605	243530	keystroke	g	n/a
121.84	0.045	243680	keystroke	o	n/a
121.93	0.0755	243860	keystroke	s	n/a
122.0205	0.0595	244041	keystroke	p	n/a
122.14	0.0755	244280	keystroke	e	n/a
122.2155	0.0745	244431	keystroke	l	n/a
122.365	0.06	244730	keystroke	Key.space	n/a
122.5305	0.0445	245061	keystroke	p	n/a
122.56	0.0905	245120	keystroke	e	n/a
122.665	0.075	245330	keystroke	r	n/a
122.9205	0.06	245841	keystroke	m	n/a
123.0845	0.045	246169	keystroke	i	n/a
123.1455	0.0595	246291	keystroke	s	n/a
123.265	0.075	246530	keystroke	s	n/a
123.31	0.09	246620	keystroke	i	n/a
123.385	0.06	246770	keystroke	o	n/a
123.58	0.03	247160	keystroke	n	n/a
123.5955	0.0745	247191	keystroke	s	n/a
123.7	0.06	247400	keystroke	Key.space	n/a
123.7755	0.059	247551	keystroke	t	n/a
123.9245	0.075	247849	keystroke	r	n/a
124.0455	0.134	248091	keystroke	a	n/a
124.1655	0.09	248331	keystroke	d	n/a
124.2405	0.075	248481	keystroke	i	n/a
124.405	0.06	248810	keystroke	t	n/a
124.435	0.09	248870	keystroke	i	n/a
124.495	0.075	248990	keystroke	o	n/a
124.6755	0.045	249351	keystroke	n	n/a
125.095	0.0745	250190	keystroke	s	n/a
125.29	0.06	250580	keystroke	Key.enter	n/a
125.3565	4.572	250713	prompt	n/a	broke track aviation traveling\n
126.16	0.06	252320	keystroke	b	n/a
126.265	0.09	252530	keystroke	r	n/a
126.37	0.105	252740	keystroke	o	n/a
126.4305	0.1045	252861	keystroke	k	n/a
126.565	0.075	253130	keystroke	e	n/a
126.7	0.06	253400	keystroke	Key.space	n/a
126.865	0.06	253730	keystroke	t	n/a
127	0.09	254000	keystroke	r	n/a
127.105	0.06	254210	keystroke	a	n/a
127.2705	0.06	254541	keystroke	c	n/a
127.3005	0.074	254601	keystroke	k	n/a
127.4055	0.075	254811	keystroke	Key.space	n/a
127.4655	0.075	254931	keystroke	a	n/a
127.6155	0.06	255231	keystroke	v	n/a
127.7055	0.06	255411	keystroke	i	n/a
127.7955	0.075	255591	keystroke	a	n/a
127.9905	0.075	255981	keystroke	t	n/a
128.0355	0.105	256071	keystroke	i	n/a
128.1105	0.105	256221	keystroke	o	n/a
128.32	0.09	256640	keystroke	n	n/a
128.485	0.075	256970	keystroke	Key.space	n/a
128.6945	0.0755	257389	keystroke	t	n/a
128.8595	0.076	257719	keystroke	r	n/a
128.9645	0.0905	257929	keystroke	a	n/a
129.1145	0.0905	258229	keystroke	v	n/a
129.28	0.075	258560	keystroke	e	n/a
129.325	0.075	258650	keystroke	l	n/a
129.505	0.045	259010	keystroke	i	n/a
129.64	0.0605	259280	keystroke	n	n/a
129.7145	0.061	259429	keystroke	g	n/a
129.85	0.0745	259700	keystroke	Key.enter	n/a
129.933	6.2035	259866	prompt	n/a	heading certificates calendars clinical\n
130.57	0.045	261140	keystroke	h	n/a
130.585	0.1055	261170	keystroke	e	n/a
130.735	0.0905	261470	keystroke	a	n/a
130.795	0.12	261590	keystroke	d	n/a
130.9595	0.076	261919	keystroke	i	n/a
131.1555	0.059	262311	keystroke	n	n/a
131.23	0.06	262460	keystroke	g	n/a
131.32	0.0745	262640	keystroke	Key.space	n/a
131.515	0.0745	263030	keystroke	c	n/a
131.6655	0.075	263331	keystroke	e	n/a
131.7555	0.074	263511	keystroke	r	n/a
131.9505	0.0595	263901	keystroke	t	n/a
132.025	0.0605	264050	keystroke	i	n/a
132.1295	0.0605	264259	keystroke	f	n/a
132.2055	0.059	264411	keystroke	i	n/a
132.3255	0.0895	264651	keystroke	c	n/a
132.445	0.105	264890	keystroke	a	n/a
132.64	0.09	265280	keystroke	t	n/a
132.8205	0.074	265641	keystroke	e	n/a
132.9705	0.089	265941	keystroke	s	n/a
133.2405	0.0595	266481	keystroke	Key.space	n/a
133.4955	0.074	266991	keystroke	c	n/a
133.63	0.1045	267260	keystroke	a	n/a
133.7055	0.0595	267411	keystroke	l	n/a
133.8095	0.0755	267619	keystroke	e	n/a
133.9	0.0755	267800	keystroke	n	n/a
134.0055	0.0745	268011	keystroke	d	n/a
134.215	0.09	268430	keystroke	a	n/a
134.35	0.09	268700	keystroke	r	n/a
134.5	0.09	269000	keystroke	s	n/a
134.71	0.075	269420	keystroke	Key.space	n/a
134.935	0.06	269870	keystroke	c	n/a
135.01	0.0755	270020	keystroke	l	n/a
135.235	0.015	270470	keystroke	i	n/a
135.325	0.075	270650	keystroke	n	n/a
135.535	0.0155	271070	keystroke	i	n/a
135.5805	0.0445	271161	keystroke	c	n/a
135.685	0.075	271370	keystroke	a	n/a
135.76	0.06	271520	keystroke	l	n/a
136.075	0.06	272150	keystroke	Key.enter	n/a
136.142	4.8995	272284	prompt	n/a	greatly understanding units rank\n
136.78	0.0595	273560	keystroke	g	n/a
136.9595	0.106	273919	keystroke	r	n/a
137.05	0.12	274100	keystroke	e	n/a
137.185	0.1045	274370	keystroke	a	n/a
137.38	0.0595	274760	keystroke	t	n/a
137.47	0.0595	274940	keystroke	l	n/a
137.6205	0.059	275241	keystroke	y	n/a
137.7245	0.091	275449	keystroke	Key.space	n/a
138.0845	0.0305	276169	keystroke	u	n/a
138.2195	0.075	276439	keystroke	n	n/a
138.2495	0.075	276499	keystroke	d	n/a
138.3845	0.076	276769	keystroke	e	n/a
138.4745	0.0755	276949	keystroke	r	n/a
138.6095	0.1055	277219	keystroke	s	n/a
138.76	0.0605	277520	keystroke	t	n/a
138.8655	0.119	277731	keystroke	a	n/a
138.9695	0.061	277939	keystroke	n	n/a
139.06	0.0605	278120	keystroke	d	n/a
139.1495	0.06	278299	keystroke	i	n/a
139.2855	0.09	278571	keystroke	n	n/a
139.3455	0.06	278691	keystroke	g	n/a
139.4355	0.06	278871	keystroke	Key.space	n/a
139.5405	0.045	279081	keystroke	u	n/a
139.7205	0.09	279441	keystroke	n	n/a
139.9305	0.045	279861	keystroke	i	n/a
139.9905	0.06	279981	keystroke	t	n/a
140.1255	0.1045	280251	keystroke	s	n/a
140.215	0.09	280430	keystroke	Key.space	n/a
140.32	0.075	280640	keystroke	r	n/a
140.4405	0.105	280881	keystroke	a	n/a
140.4995	0.061	280999	keystroke	n	n/a
140.6195	0.075	281239	keystroke	k	n/a
141.025	0.015	282050	keystroke	Key.enter	n/a
141.0465	8.335	282093	prompt	n/a	lang preparation persistent dream\n
141.6105	0.045	283221	keystroke	l	n/a
141.6855	0.089	283371	keystroke	a	n/a
141.8205	0.06	283641	keystroke	n	n/a
142.1655	0.075	284331	keystroke	d	n/a
142.33	0.075	284660	keystroke	Key.space	n/a
142.5855	0.045	285171	keystroke	o	n/a
142.705	0.06	285410	keystroke	r	n/a
142.8405	0.0745	285681	keystroke	e	n/a
143.5755	0.044	287151	keystroke	Key.backspace	n/a
143.7105	0.06	287421	keystroke	Key.backspace	n/a
144.295	0.0895	288590	keystroke	Key.backspace	n/a
144.655	0.045	289310	keystroke	p	n/a
144.715	0.09	289430	keystroke	r	n/a
144.7905	0.1045	289581	keystroke	e	n/a
144.955	0.06	289910	keystroke	p	n/a
145.031	0.1045	290062	keystroke	a	n/a
145.1955	0.059	290391	keystroke	r	n/a
145.525	0.105	291050	keystroke	a	n/a
145.765	0.045	291530	keystroke	t	n/a
145.81	0.105	291620	keystroke	i	n/a
145.87	0.105	291740	keystroke	o	n/a
146.11	0.075	292220	keystroke	n	n/a
146.245	0.06	292490	keystroke	Key.space	n/a
146.395	0.06	292790	keystroke	p	n/a
146.44	0.075	292880	keystroke	e	n/a
146.53	0.075	293060	keystroke	r	n/a
146.6805	0.0745	293361	keystroke	s	n/a
146.77	0.075	293540	keystroke	i	n/a
146.86	0.09	293720	keystroke	s	n/a
147.07	0.06	294140	keystroke	t	n/a
147.31	0.09	294620	keystroke	a	n/a
147.7905	0.06	295581	keystroke	Key.backspace	n/a
148.03	0.0755	296060	keystroke	e	n/a
148.24	0.0605	296480	keystroke	n	n/a
148.375	0.075	296750	keystroke	t	n/a
148.4795	0.09	296959	keystroke	Key.space	n/a
148.6295	0.075	297259	keystroke	d	n/a
148.8245	0.0755	297649	keystroke	r	n/a
148.8845	0.0905	297769	keystroke	e	n/a
148.99	0.1045	297980	keystroke	a	n/a
149.0955	0.0595	298191	keystroke	m	n/a
149.32	0.06	298640	keystroke	Key.enter	n/a
149.3865	4.3005	298773	prompt	n/a	cookie argued crystal superior\n
149.95	0.0745	299900	keystroke	c	n/a
150.0855	0.0445	300171	keystroke	o	n/a
150.1895	0.0605	300379	keystroke	o	n/a
150.3555	0.06	300711	keystroke	k	n/a
150.49	0.045	300980	keystroke	i	n/a
150.55	0.0755	301100	keystroke	e	n/a
150.64	0.075	301280	keystroke	Key.space	n/a
150.73	0.105	301460	keystroke	a	n/a
150.895	0.06	301790	keystroke	r	n/a
151.1495	0.016	302299	keystroke	g	n/a
151.18	0.0145	302360	keystroke	u	n/a
151.2245	0.0755	302449	keystroke	e	n/a
151.4055	0.06	302811	keystroke	d	n/a
151.4805	0.074	302961	keystroke	Key.space	n/a
151.6155	0.045	303231	keystroke	c	n/a
151.7805	0.06	303561	keystroke	r	n/a
151.885	0.0605	303770	keystroke	y	n/a
151.915	0.0905	303830	keystroke	s	n/a
152.065	0.06	304130	keystroke	t	n/a
152.1405	0.06	304281	keystroke	a	n/a
152.3205	0.06	304641	keystroke	l	n/a
152.5155	0.0745	305031	keystroke	Key.space	n/a
152.6805	0.0895	305361	keystroke	s	n/a
152.755	0.045	305510	keystroke	u	n/a
152.9205	0.0595	305841	keystroke	p	n/a
152.965	0.0755	305930	keystroke	e	n/a
153.085	0.09	306170	keystroke	r	n/a
153.19	0.09	306380	keystroke	i	n/a
153.25	0.0755	306500	keystroke	o	n/a
153.341	0.059	306682	keystroke	r	n/a
153.64	0.0455	307280	keystroke	Key.enter	n/a
153.6915	4.1945	307383	prompt	n/a	jimmy glad hours gender\n
154.36	0.075	308720	keystroke	j	n/a
154.585	0.0455	309170	keystroke	i	n/a
154.7805	0.045	309561	keystroke	m	n/a
154.8855	0.075	309771	keystroke	m	n/a
154.9905	0.06	309981	keystroke	y	n/a
155.0805	0.075	310161	keystroke	Key.space	n/a
155.2445	0.061	310489	keystroke	g	n/a
155.32	0.0445	310640	keystroke	l	n/a
155.4105	0.0895	310821	keystroke	a	n/a
155.5595	0.0905	311119	keystroke	d	n/a
155.68	0.075	311360	keystroke	Key.space	n/a
155.8895	0.03	311779	keystroke	h	n/a
156.5495	0.0605	313099	keystroke	o	n/a
156.7155	0.0595	313431	keystroke	u	n/a
156.7445	0.061	313489	keystroke	r	n/a
156.8495	0.09	313699	keystroke	s	n/a
156.9245	0.0605	313849	keystroke	Key.space	n/a
157.09	0.0455	314180	keystroke	g	n/a
157.18	0.0445	314360	keystroke	e	n/a
157.2695	0.0605	314539	keystroke	n	n/a
157.33	0.075	314660	keystroke	d	n/a
157.5105	0.0595	315021	keystroke	e	n/a
157.63	0.075	315260	keystroke	r	n/a
157.81	0.075	315620	keystroke	Key.enter	n/a
157.8915	8.53	315783	prompt	n/a	width backup contrary substantially\n
158.6655	0.06	317331	keystroke	w	n/a
158.7405	0.045	317481	keystroke	i	n/a
158.8155	0.105	317631	keystroke	d	n/a
159.055	0.0745	318110	keystroke	t	n/a
159.1305	0.044	318261	keystroke	h	n/a
159.25	0.0595	318500	keystroke	Key.space	n/a
159.385	0.06	318770	keystroke	b	n/a
159.4595	0.0605	318919	keystroke	a	n/a
159.61	0.0755	319220	keystroke	c	n/a
159.67	0.075	319340	keystroke	k	n/a
159.865	0.045	319730	keystroke	u	n/a
160.0605	0.06	320121	keystroke	p	n/a
160.3595	0.09	320719	keystroke	Key.space	n/a
160.5995	0.075	321199	keystroke	c	n/a
160.645	0.0445	321290	keystroke	o	n/a
160.7945	0.075	321589	keystroke	n	n/a
160.8705	0.0445	321741	keystroke	t	n/a
161.0345	0.0755	322069	keystroke	r	n/a
161.1545	0.0905	322309	keystroke	a	n/a
161.2745	0.091	322549	keystroke	r	n/a
161.3955	0.0445	322791	keystroke	y	n/a
161.5895	0.045	323179	keystroke	Key.space	n/a
161.77	0.0295	323540	keystroke	s	n/a
161.8145	0.06	323629	keystroke	u	n/a
161.95	0.0745	323900	keystroke	b	n/a
162.0095	0.0905	324019	keystroke	s	n/a
162.1595	0.061	324319	keystroke	t	n/a
162.2645	0.106	324529	keystroke	a	n/a
162.3245	0.0755	324649	keystroke	n	n/a
162.4605	0.06	324921	keystroke	t	n/a
162.5505	0.044	325101	keystroke	i	n/a
162.6245	0.061	325249	keystroke	t	n/a
162.8355	0.075	325671	keystroke	a	n/a
162.9255	0.045	325851	keystroke	l	n/a
163.0305	0.074	326061	keystroke	l	n/a
163.555	0.06	327110	keystroke	Key.backspace	n/a
163.69	0.06	327380	keystroke	Key.backspace	n/a
163.84	0.075	327680	keystroke	Key.backspace	n/a
164.2595	0.0905	328519	keystroke	Key.backspace	n/a
164.4095	0.18	328819	keystroke	a	n/a
165.2655	0.06	330531	keystroke	l	n/a
165.4005	0.075	330801	keystroke	l	n/a
166.0155	0.074	332031	keystroke	y	n/a
166.345	0.075	332690	keystroke	Key.enter	n/a
166.4255	6.026	332851	prompt	n/a	colleagues crossing differential blocks\n
167.1555	0.0745	334311	keystroke	c	n/a
167.2455	0.0295	334491	keystroke	o	n/a
167.425	0.045	334850	keystroke	l	n/a
168.1595	0.06	336319	keystroke	l	n/a
168.2645	0.0905	336529	keystroke	e	n/a
168.385	0.1055	336770	keystroke	a	n/a
168.58	0.06	337160	keystroke	g	n/a
168.6545	0.091	337309	keystroke	u	n/a
168.7595	0.0755	337519	keystroke	e	n/a
168.9255	0.0895	337851	keystroke	s	n/a
169	0.075	338000	keystroke	Key.space	n/a
169.135	0.075	338270	keystroke	c	n/a
169.3595	0.046	338719	keystroke	r	n/a
169.42	0.0905	338840	keystroke	o	n/a
169.5245	0.075	339049	keystroke	s	n/a
169.6755	0.06	339351	keystroke	s	n/a
169.7505	0.03	339501	keystroke	i	n/a
169.9	0.075	339800	keystroke	n	n/a
169.93	0.075	339860	keystroke	g	n/a
170.035	0.06	340070	keystroke	Key.space	n/a
170.14	0.06	340280	keystroke	d	n/a
170.185	0.06	340370	keystroke	i	n/a
170.305	0.06	340610	keystroke	f	n/a
170.44	0.075	340880	keystroke	f	n/a
170.8605	0.089	341721	keystroke	e	n/a
170.965	0.1045	341930	keystroke	r	n/a
171.0845	0.09	342169	keystroke	e	n/a
171.1895	0.06	342379	keystroke	n	n/a
171.2955	0.074	342591	keystroke	t	n/a
171.4305	0.059	342861	keystroke	i	n/a
171.5045	0.075	343009	keystroke	a	n/a
171.6095	0.0755	343219	keystroke	l	n/a
171.7445	0.09	343489	keystroke	Key.space	n/a
171.8645	0.03	343729	keystroke	b	n/a
171.91	0.06	343820	keystroke	l	n/a
172.0455	0.0595	344091	keystroke	o	n/a
172.1205	0.0595	344241	keystroke	c	n/a
172.195	0.0595	344390	keystroke	k	n/a
172.2695	0.075	344539	keystroke	s	n/a
172.39	0.06	344780	keystroke	Key.enter	n/a
172.455	4.7815	344910	prompt	n/a	reasons mountain james programmer\n
173.005	0.09	346010	keystroke	r	n/a
173.14	0.09	346280	keystroke	e	n/a
173.23	0.1055	346460	keystroke	a	n/a
173.3045	0.1655	346609	keystroke	s	n/a
173.485	0.0455	346970	keystroke	o	n/a
173.6345	0.0905	347269	keystroke	n	n/a
173.7405	0.045	347481	keystroke	s	n/a
173.8	0.0595	347600	keystroke	Key.space	n/a
173.9195	0.0755	347839	keystroke	m	n/a
174.1005	0.0445	348201	keystroke	o	n/a
174.2505	0.0445	348501	keystroke	u	n/a
174.385	0.075	348770	keystroke	n	n/a
174.4305	0.0745	348861	keystroke	t	n/a
174.55	0.09	349100	keystroke	a	n/a
174.61	0.0455	349220	keystroke	i	n/a
174.73	0.09	349460	keystroke	n	n/a
174.835	0.075	349670	keystroke	Key.space	n/a
174.94	0.0455	349880	keystroke	j	n/a
175.0005	0.075	350001	keystroke	a	n/a
175.1055	0.075	350211	keystroke	m	n/a
175.1495	0.0755	350299	keystroke	e	n/a
175.3305	0.075	350661	keystroke	s	n/a
175.3595	0.075	350719	keystroke	Key.space	n/a
175.4945	0.0755	350989	keystroke	p	n/a
175.5855	0.0595	351171	keystroke	r	n/a
175.66	0.06	351320	keystroke	o	n/a
175.78	0.075	351560	keystroke	g	n/a
176.0045	0.061	352009	keystroke	r	n/a
176.515	0.0745	353030	keystroke	a	n/a
176.6355	0.0595	353271	keystroke	m	n/a
176.7555	0.075	353511	keystroke	m	n/a
176.815	0.0905	353630	keystroke	e	n/a
176.9655	0.0295	353931	keystroke	r	n/a
177.1905	0.0445	354381	keystroke	Key.enter	n/a
177.2415	4.06	354483	prompt	n/a	aspect nikon grade delhi\n
177.8355	0.0895	355671	keystroke	a	n/a
177.91	0.1205	355820	keystroke	s	n/a
178.045	0.075	356090	keystroke	p	n/a
178.15	0.075	356300	keystroke	e	n/a
178.345	0.075	356690	keystroke	c	n/a
178.5405	0.044	357081	keystroke	t	n/a
178.5855	0.0895	357171	keystroke	Key.space	n/a
178.7045	0.061	357409	keystroke	n	n/a
178.885	0.0605	357770	keystroke	i	n/a
179.02	0.0755	358040	keystroke	k	n/a
179.1555	0.06	358311	keystroke	o	n/a
179.335	0.0755	358670	keystroke	n	n/a
179.4695	0.075	358939	keystroke	Key.space	n/a
179.65	0.06	359300	keystroke	g	n/a
179.695	0.075	359390	keystroke	r	n/a
179.815	0.105	359630	keystroke	a	n/a
179.935	0.1055	359870	keystroke	d	n/a
180.13	0.06	360260	keystroke	e	n/a
180.2205	0.06	360441	keystroke	Key.space	n/a
180.385	0.0605	360770	keystroke	d	n/a
180.5805	0.059	361161	keystroke	e	n/a
180.6255	0.09	361251	keystroke	l	n/a
180.8355	0.044	361671	keystroke	h	n/a
180.8955	0.06	361791	keystroke	i	n/a
181.2555	0.0445	362511	keystroke	Key.enter	n/a
181.311	5.5855	362622	prompt	n/a	connectivity peace secured facing\n
181.9455	0.074	363891	keystroke	c	n/a
182.0355	0.0295	364071	keystroke	o	n/a
182.1995	0.045	364399	keystroke	n	n/a
182.2895	0.09	364579	keystroke	n	n/a
182.3645	0.0905	364729	keystroke	e	n/a
182.575	0.0905	365150	keystroke	c	n/a
182.7855	0.0445	365571	keystroke	t	n/a
182.8605	0.0595	365721	keystroke	i	n/a
182.98	0.075	365960	keystroke	v	n/a
183.04	0.075	366080	keystroke	i	n/a
183.2345	0.061	366469	keystroke	t	n/a
183.4155	0.06	366831	keystroke	y	n/a
183.7155	0.09	367431	keystroke	Key.space	n/a
183.9255	0.06	367851	keystroke	p	n/a
183.9995	0.106	367999	keystroke	e	n/a
184.405	0.0595	368810	keystroke	a	n/a
184.5705	0.089	369141	keystroke	c	n/a
184.7655	0.06	369531	keystroke	e	n/a
184.8255	0.09	369651	keystroke	Key.space	n/a
184.9605	0.09	369921	keystroke	s	n/a
185.1555	0.0595	370311	keystroke	e	n/a
185.335	0.075	370670	keystroke	c	n/a
185.4255	0.06	370851	keystroke	u	n/a
185.53	0.075	371060	keystroke	r	n/a
185.6505	0.1045	371301	keystroke	e	n/a
185.8455	0.0745	371691	keystroke	d	n/a
185.98	0.0755	371960	keystroke	Key.space	n/a
186.1455	0.0595	372291	keystroke	f	n/a
186.235	0.09	372470	keystroke	a	n/a
186.385	0.0905	372770	keystroke	c	n/a
186.445	0.0605	372890	keystroke	i	n/a
186.595	0.0605	373190	keystroke	n	n/a
186.7005	0.075	373401	keystroke	g	n/a
186.8205	0.075	373641	keystroke	Key.enter	n/a
186.901	4.3755	373802	prompt	n/a	chile surface territory editor\n
187.4355	0.045	374871	keystroke	c	n/a
187.5105	0.045	375021	keystroke	h	n/a
187.6895	0.0155	375379	keystroke	i	n/a
187.8245	0.09	375649	keystroke	l	n/a
187.9295	0.0605	375859	keystroke	e	n/a
188.035	0.0305	376070	keystroke	Key.space	n/a
188.1695	0.075	376339	keystroke	s	n/a
188.1995	0.06	376399	keystroke	u	n/a
188.3495	0.06	376699	keystroke	r	n/a
188.5295	0.075	377059	keystroke	f	n/a
188.6495	0.091	377299	keystroke	a	n/a
188.8595	0.06	377719	keystroke	c	n/a
189.0545	0.0605	378109	keystroke	e	n/a
189.13	0.075	378260	keystroke	Key.space	n/a
189.25	0.075	378500	keystroke	t	n/a
189.4005	0.075	378801	keystroke	e	n/a
189.5205	0.075	379041	keystroke	r	n/a
189.67	0.06	379340	keystroke	r	n/a
189.745	0.075	379490	keystroke	i	n/a
189.8955	0.0745	379791	keystroke	t	n/a
189.955	0.0905	379910	keystroke	o	n/a
190.105	0.06	380210	keystroke	r	n/a
190.195	0.06	380390	keystroke	y	n/a
190.36	0.1045	380720	keystroke	Key.space	n/a
190.555	0.0595	381110	keystroke	e	n/a
190.7195	0.075	381439	keystroke	d	n/a
190.7645	0.0755	381529	keystroke	i	n/a
190.9145	0.06	381829	keystroke	t	n/a
190.99	0.0595	381980	keystroke	o	n/a
191.0945	0.075	382189	keystroke	r	n/a
191.2145	0.06	382429	keystroke	Key.enter	n/a
191.2805	5.4715	382561	prompt	n/a	incl winning austria accessory\n
191.8905	0.045	383781	keystroke	i	n/a
192.0555	0.06	384111	keystroke	n	n/a
192.2205	0.044	384441	keystroke	c	n/a
192.31	0.0305	384620	keystroke	l	n/a
192.5205	0.059	385041	keystroke	Key.space	n/a
192.7155	0.0895	385431	keystroke	w	n/a
192.79	0.0595	385580	keystroke	i	n/a
192.9705	0.044	385941	keystroke	n	n/a
193.0595	0.0755	386119	keystroke	n	n/a
193.2255	0.045	386451	keystroke	i	n/a
193.3595	0.106	386719	keystroke	n	n/a
193.4495	0.0605	386899	keystroke	g	n/a
193.5245	0.075	387049	keystroke	Key.space	n/a
193.645	0.0905	387290	keystroke	a	n/a
193.7355	0.045	387471	keystroke	u	n/a
193.7955	0.09	387591	keystroke	s	n/a
193.9755	0.06	387951	keystroke	t	n/a
194.1555	0.075	388311	keystroke	r	n/a
194.2605	0.075	388521	keystroke	i	n/a
194.3805	0.06	388761	keystroke	a	n/a
194.4695	0.0755	388939	keystroke	Key.space	n/a
194.5905	0.075	389181	keystroke	a	n/a
194.7705	0.059	389541	keystroke	c	n/a
194.8905	0.09	389781	keystroke	c	n/a
195.0855	0.059	390171	keystroke	e	n/a
195.2645	0.061	390529	keystroke	s	n/a
195.4	0.09	390800	keystroke	s	n/a
196.165	0.0455	392330	keystroke	o	n/a
196.27	0.0755	392540	keystroke	r	n/a
196.42	0.06	392840	keystroke	y	n/a
196.705	0.045	393410	keystroke	Key.enter	n/a
196.756	5.1855	393512	prompt	n/a	purchase bleeding suitable someone\n
197.4105	0.045	394821	keystroke	p	n/a
197.9805	0.06	395961	keystroke	u	n/a
198.0855	0.0745	396171	keystroke	r	n/a
198.3555	0.045	396711	keystroke	c	n/a
198.4455	0.045	396891	keystroke	h	n/a
198.5355	0.105	397071	keystroke	a	n/a
198.6255	0.104	397251	keystroke	s	n/a
198.7755	0.089	397551	keystroke	e	n/a
198.8805	0.0595	397761	keystroke	Key.space	n/a
198.9995	0.06	397999	keystroke	b	n/a
199.075	0.0605	398150	keystroke	l	n/a
199.1805	0.06	398361	keystroke	e	n/a
199.315	0.075	398630	keystroke	e	n/a
199.51	0.075	399020	keystroke	d	n/a
199.63	0.045	399260	keystroke	i	n/a
199.7805	0.089	399561	keystroke	n	n/a
199.8555	0.06	399711	keystroke	g	n/a
199.9295	0.0605	399859	keystroke	Key.space	n/a
200.0195	0.0905	400039	keystroke	s	n/a
200.1245	0.0455	400249	keystroke	u	n/a
200.1855	0.09	400371	keystroke	i	n/a
200.2905	0.075	400581	keystroke	t	n/a
200.425	0.0905	400850	keystroke	a	n/a
200.62	0.075	401240	keystroke	b	n/a
200.71	0.0745	401420	keystroke	l	n/a
200.8005	0.0595	401601	keystroke	e	n/a
200.8745	0.09	401749	keystroke	Key.space	n/a
200.9955	0.09	401991	keystroke	s	n/a
201.04	0.075	402080	keystroke	o	n/a
201.1905	0.06	402381	keystroke	m	n/a
201.2805	0.06	402561	keystroke	e	n/a
201.3555	0.045	402711	keystroke	o	n/a
201.5055	0.06	403011	keystroke	n	n/a
201.5955	0.06	403191	keystroke	e	n/a
201.895	0.045	403790	keystroke	Key.enter	n/a
201.946	4.557	403892	prompt	n/a	rock encoding wide original\n
202.645	0.0755	405290	keystroke	r	n/a
202.765	0.075	405530	keystroke	o	n/a
202.9	0.06	405800	keystroke	c	n/a
202.9455	0.0745	405891	keystroke	k	n/a
203.065	0.075	406130	keystroke	Key.space	n/a
203.17	0.09	406340	keystroke	e	n/a
203.3045	0.045	406609	keystroke	n	n/a
203.4545	0.076	406909	keystroke	c	n/a
204.19	0.075	408380	keystroke	o	n/a
204.385	0.0755	408770	keystroke	d	n/a
204.505	0.045	409010	keystroke	i	n/a
204.6555	0.074	409311	keystroke	n	n/a
204.7145	0.06	409429	keystroke	g	n/a
204.79	0.075	409580	keystroke	Key.space	n/a
204.955	0.09	409910	keystroke	w	n/a
205.09	0.06	410180	keystroke	i	n/a
205.1945	0.091	410389	keystroke	d	n/a
205.3605	0.075	410721	keystroke	e	n/a
205.4505	0.059	410901	keystroke	Key.space	n/a
205.585	0.075	411170	keystroke	o	n/a
205.645	0.075	411290	keystroke	r	n/a
205.75	0.075	411500	keystroke	i	n/a
205.8555	0.0595	411711	keystroke	g	n/a
205.885	0.06	411770	keystroke	i	n/a
206.0355	0.0595	412071	keystroke	n	n/a
206.11	0.075	412220	keystroke	a	n/a
206.2155	0.0595	412431	keystroke	l	n/a
206.44	0.06	412880	keystroke	Key.enter	n/a
206.507	3.79	413014	prompt	n/a	alone planes results timely\n
207.0555	0.089	414111	keystroke	a	n/a
207.1145	0.0605	414229	keystroke	l	n/a
207.295	0.045	414590	keystroke	o	n/a
207.4305	0.075	414861	keystroke	n	n/a
207.5055	0.075	415011	keystroke	e	n/a
207.5955	0.045	415191	keystroke	Key.space	n/a
207.6995	0.076	415399	keystroke	p	n/a
207.8645	0.046	415729	keystroke	l	n/a
207.955	0.0905	415910	keystroke	a	n/a
208.1045	0.06	416209	keystroke	n	n/a
208.3445	0.061	416689	keystroke	e	n/a
208.525	0.0905	417050	keystroke	s	n/a
208.6295	0.045	417259	keystroke	Key.space	n/a
208.7195	0.076	417439	keystroke	r	n/a
208.8245	0.1055	417649	keystroke	e	n/a
208.99	0.0905	417980	keystroke	s	n/a
209.0505	0.0595	418101	keystroke	u	n/a
209.23	0.06	418460	keystroke	l	n/a
209.275	0.06	418550	keystroke	t	n/a
209.38	0.1055	418760	keystroke	s	n/a
209.5	0.06	419000	keystroke	Key.space	n/a
209.575	0.075	419150	keystroke	t	n/a
209.665	0.0305	419330	keystroke	i	n/a
209.7855	0.075	419571	keystroke	m	n/a
209.8305	0.075	419661	keystroke	e	n/a
209.9505	0.075	419901	keystroke	l	n/a
210.0555	0.06	420111	keystroke	y	n/a
210.2355	0.06	420471	keystroke	Key.enter	n/a
210.3045	5.287	420609	prompt	n/a	helping tokyo enemies junk\n
210.9995	0.0455	421999	keystroke	h	n/a
211.09	0.0745	422180	keystroke	e	n/a
211.1795	0.075	422359	keystroke	l	n/a
211.3445	0.045	422689	keystroke	p	n/a
211.51	0.0445	423020	keystroke	i	n/a
211.6595	0.075	423319	keystroke	n	n/a
211.705	0.0745	423410	keystroke	g	n/a
211.8095	0.076	423619	keystroke	Key.space	n/a
211.9305	0.06	423861	keystroke	t	n/a
212.0055	0.06	424011	keystroke	o	n/a
212.1555	0.06	424311	keystroke	k	n/a
212.2755	0.06	424551	keystroke	y	n/a
212.4105	0.06	424821	keystroke	o	n/a
212.5895	0.06	425179	keystroke	Key.space	n/a
212.6955	0.075	425391	keystroke	e	n/a
212.7555	0.0745	425511	keystroke	n	n/a
212.875	0.075	425750	keystroke	e	n/a
212.965	0.075	425930	keystroke	m	n/a
213.1455	0.045	426291	keystroke	i	n/a
213.2195	0.03	426439	keystroke	e	n/a
213.3105	0.104	426621	keystroke	s	n/a
213.3995	0.06	426799	keystroke	Key.space	n/a
213.5195	0.06	427039	keystroke	j	n/a
213.6555	0.0595	427311	keystroke	u	n/a
213.8355	0.059	427671	keystroke	m	n/a
214.81	0.06	429620	keystroke	Key.backspace	n/a
215.0205	0.0745	430041	keystroke	n	n/a
215.14	0.0605	430280	keystroke	k	n/a
215.53	0.06	431060	keystroke	Key.enter	n/a
215.596	5.2315	431192	prompt	n/a	westminster phillips fleet monaco\n
216.3405	0.0895	432681	keystroke	w	n/a
216.4745	0.091	432949	keystroke	e	n/a
216.6255	0.105	433251	keystroke	s	n/a
216.8505	0.06	433701	keystroke	t	n/a
217.0455	0.06	434091	keystroke	m	n/a
217.2405	0.045	434481	keystroke	i	n/a
217.4205	0.075	434841	keystroke	n	n/a
217.69	0.0755	435380	keystroke	s	n/a
217.8855	0.045	435771	keystroke	t	n/a
217.9905	0.105	435981	keystroke	e	n/a
218.0655	0.09	436131	keystroke	r	n/a
218.1695	0.06	436339	keystroke	Key.space	n/a
218.3195	0.06	436639	keystroke	p	n/a
218.4255	0.044	436851	keystroke	h	n/a
218.5145	0.03	437029	keystroke	i	n/a
218.6645	0.0455	437329	keystroke	l	n/a
218.77	0.06	437540	keystroke	l	n/a
218.92	0.06	437840	keystroke	i	n/a
219.0405	0.059	438081	keystroke	p	n/a
219.13	0.0755	438260	keystroke	s	n/a
219.2205	0.059	438441	keystroke	Key.space	n/a
219.2945	0.0755	438589	keystroke	f	n/a
219.385	0.045	438770	keystroke	l	n/a
219.46	0.075	438920	keystroke	e	n/a
219.5945	0.091	439189	keystroke	e	n/a
219.7605	0.0895	439521	keystroke	t	n/a
219.805	0.075	439610	keystroke	Key.space	n/a
219.955	0.06	439910	keystroke	m	n/a
220.105	0.045	440210	keystroke	o	n/a
220.2555	0.0745	440511	keystroke	n	n/a
220.3	0.0605	440600	keystroke	a	n/a
220.465	0.075	440930	keystroke	c	n/a
220.525	0.045	441050	keystroke	o	n/a
220.7805	0.045	441561	keystroke	Key.enter	n/a
220.832	4.8695	441664	prompt	n/a	dispatch president voltage force\n
221.425	0.09	442850	keystroke	d	n/a
221.545	0.0605	443090	keystroke	i	n/a
221.62	0.09	443240	keystroke	s	n/a
221.74	0.06	443480	keystroke	p	n/a
221.845	0.075	443690	keystroke	a	n/a
221.995	0.075	443990	keystroke	t	n/a
222.2055	0.0595	444411	keystroke	c	n/a
222.2345	0.061	444469	keystroke	h	n/a
222.34	0.0745	444680	keystroke	Key.space	n/a
222.4745	0.061	444949	keystroke	p	n/a
222.5205	0.0595	445041	keystroke	r	n/a
222.5955	0.075	445191	keystroke	e	n/a
222.7905	0.09	445581	keystroke	s	n/a
222.8955	0.0595	445791	keystroke	i	n/a
223.0745	0.045	446149	keystroke	d	n/a
223.3305	0.075	446661	keystroke	e	n/a
223.4355	0.06	446871	keystroke	n	n/a
223.5255	0.074	447051	keystroke	t	n/a
223.6155	0.059	447231	keystroke	Key.space	n/a
223.7495	0.076	447499	keystroke	v	n/a
223.7945	0.06	447589	keystroke	o	n/a
223.9295	0.09	447859	keystroke	l	n/a
224.0055	0.045	448011	keystroke	t	n/a
224.11	0.09	448220	keystroke	a	n/a
224.245	0.045	448490	keystroke	g	n/a
224.335	0.0605	448670	keystroke	e	n/a
224.4105	0.075	448821	keystroke	Key.space	n/a
224.5305	0.0745	449061	keystroke	f	n/a
224.5905	0.06	449181	keystroke	o	n/a
224.7695	0.045	449539	keystroke	r	n/a
225.3405	0.074	450681	keystroke	c	n/a
225.535	0.0445	451070	keystroke	e	n/a
225.6395	0.06	451279	keystroke	Key.enter	n/a
225.705	7.782	451410	prompt	n/a	telescope properties converted structural\n
226.315	0.045	452630	keystroke	t	n/a
226.42	0.09	452840	keystroke	e	n/a
226.585	0.075	453170	keystroke	e	n/a
227.155	0.09	454310	keystroke	Key.backspace	n/a
227.5755	0.044	455151	keystroke	e	n/a
228.265	0.03	456530	keystroke	Key.backspace	n/a
228.4905	0.06	456981	keystroke	l	n/a
228.5795	0.076	457159	keystroke	e	n/a
228.7295	0.09	457459	keystroke	s	n/a
229.0155	0.015	458031	keystroke	c	n/a
229.0305	0.059	458061	keystroke	o	n/a
229.0455	0.09	458091	keystroke	p	n/a
229.1955	0.074	458391	keystroke	e	n/a
229.2995	0.0755	458599	keystroke	Key.space	n/a
229.4505	0.089	458901	keystroke	p	n/a
229.5855	0.045	459171	keystroke	r	n/a
229.6455	0.06	459291	keystroke	o	n/a
229.8095	0.06	459619	keystroke	p	n/a
229.885	0.075	459770	keystroke	e	n/a
229.9755	0.119	459951	keystroke	r	n/a
230.1995	0.0455	460399	keystroke	t	n/a
230.2605	0.059	460521	keystroke	i	n/a
230.35	0.0755	460700	keystroke	e	n/a
230.5305	0.09	461061	keystroke	s	n/a
230.6645	0.075	461329	keystroke	Key.space	n/a
230.8595	0.06	461719	keystroke	c	n/a
230.9345	0.045	461869	keystroke	o	n/a
231.0855	0.074	462171	keystroke	n	n/a
231.145	0.0745	462290	keystroke	v	n/a
231.295	0.075	462590	keystroke	e	n/a
231.4005	0.09	462801	keystroke	r	n/a
231.5955	0.059	463191	keystroke	t	n/a
231.7145	0.075	463429	keystroke	e	n/a
231.8805	0.09	463761	keystroke	d	n/a
231.9855	0.075	463971	keystroke	Key.space	n/a
232.0755	0.06	464151	keystroke	s	n/a
232.225	0.06	464450	keystroke	t	n/a
232.3755	0.0745	464751	keystroke	r	n/a
232.4645	0.0455	464929	keystroke	u	n/a
232.5695	0.09	465139	keystroke	c	n/a
232.81	0.045	465620	keystroke	t	n/a
232.87	0.075	465740	keystroke	u	n/a
232.9755	0.09	465951	keystroke	r	n/a
233.08	0.09	466160	keystroke	a	n/a
233.185	0.0605	466370	keystroke	l	n/a
233.4255	0.06	466851	keystroke	Key.enter	n/a
233.4915	6.04	466983	prompt	n/a	oklahoma direction specify import\n
234.175	0.015	468350	keystroke	o	n/a
234.985	0.0905	469970	keystroke	k	n/a
235.2255	0.075	470451	keystroke	l	n/a
235.4355	0.075	470871	keystroke	a	n/a
235.7495	0.06	471499	keystroke	h	n/a
235.8245	0.046	471649	keystroke	o	n/a
235.9745	0.0755	471949	keystroke	m	n/a
236.1245	0.0905	472249	keystroke	a	n/a
236.26	0.075	472520	keystroke	Key.space	n/a
236.4395	0.076	472879	keystroke	d	n/a
236.5455	0.045	473091	keystroke	i	n/a
236.6495	0.061	473299	keystroke	r	n/a
236.755	0.06	473510	keystroke	e	n/a
236.9355	0.075	473871	keystroke	c	n/a
237.13	0.06	474260	keystroke	t	n/a
237.175	0.105	474350	keystroke	i	n/a
237.2345	0.09	474469	keystroke	o	n/a
237.4445	0.0605	474889	keystroke	n	n/a
237.565	0.075	475130	keystroke	Key.space	n/a
237.6555	0.089	475311	keystroke	s	n/a
237.805	0.015	475610	keystroke	p	n/a
237.85	0.06	475700	keystroke	e	n/a
238.03	0.075	476060	keystroke	c	n/a
238.0895	0.0605	476179	keystroke	i	n/a
238.2105	0.059	476421	keystroke	f	n/a
238.33	0.06	476660	keystroke	y	n/a
238.495	0.0745	476990	keystroke	Key.space	n/a
238.66	0.0595	477320	keystroke	i	n/a
238.8245	0.061	477649	keystroke	m	n/a
238.975	0.1345	477950	keystroke	p	n/a
239.035	0.1055	478070	keystroke	o	n/a
239.1255	0.0595	478251	keystroke	r	n/a
239.3055	0.0595	478611	keystroke	t	n/a
239.455	0.075	478910	keystroke	Key.enter	n/a
239.5365	4.225	479073	prompt	n/a	titled investigator viking adjust\n
240.1005	0.06	480201	keystroke	t	n/a
240.19	0.045	480380	keystroke	i	n/a
240.2795	0.076	480559	keystroke	t	n/a
240.3855	0.0745	480771	keystroke	l	n/a
240.49	0.075	480980	keystroke	e	n/a
240.6705	0.075	481341	keystroke	d	n/a
240.76	0.06	481520	keystroke	Key.space	n/a
240.88	0.06	481760	keystroke	i	n/a
241.045	0.0455	482090	keystroke	n	n/a
241.0605	0.06	482121	keystroke	v	n/a
241.225	0.0755	482450	keystroke	e	n/a
241.36	0.09	482720	keystroke	s	n/a
241.5105	0.059	483021	keystroke	t	n/a
241.5855	0.059	483171	keystroke	i	n/a
241.6605	0.059	483321	keystroke	g	n/a
241.75	0.0905	483500	keystroke	a	n/a
241.9005	0.075	483801	keystroke	t	n/a
241.9905	0.045	483981	keystroke	o	n/a
242.0955	0.06	484191	keystroke	r	n/a
242.1405	0.075	484281	keystroke	Key.space	n/a
242.3055	0.06	484611	keystroke	v	n/a
242.3505	0.045	484701	keystroke	i	n/a
242.4855	0.0745	484971	keystroke	k	n/a
242.6355	0.0445	485271	keystroke	i	n/a
242.7855	0.0745	485571	keystroke	n	n/a
242.8445	0.061	485689	keystroke	g	n/a
242.9495	0.045	485899	keystroke	Key.space	n/a
243.0095	0.1055	486019	keystroke	a	n/a
243.1295	0.09	486259	keystroke	d	n/a
243.19	0.075	486380	keystroke	j	n/a
243.3395	0.075	486679	keystroke	u	n/a
243.3995	0.075	486799	keystroke	s	n/a
243.5645	0.06	487129	keystroke	t	n/a
243.7145	0.0455	487429	keystroke	Key.enter	n/a
243.7655	5.6065	487531	prompt	n/a	closure mine diverse relatives\n
244.3305	0.075	488661	keystroke	c	n/a
245.0205	0.045	490041	keystroke	l	n/a
245.1555	0.06	490311	keystroke	o	n/a
245.23	0.09	490460	keystroke	s	n/a
245.395	0.06	490790	keystroke	u	n/a
245.71	0.0895	491420	keystroke	r	n/a
245.89	0.075	491780	keystroke	e	n/a
245.98	0.06	491960	keystroke	Key.space	n/a
246.1455	0.0595	492291	keystroke	m	n/a
246.325	0.0455	492650	keystroke	i	n/a
246.4755	0.1045	492951	keystroke	n	n/a
246.55	0.0605	493100	keystroke	e	n/a
246.625	0.105	493250	keystroke	Key.space	n/a
246.76	0.0605	493520	keystroke	d	n/a
246.8645	0.046	493729	keystroke	i	n/a
246.97	0.06	493940	keystroke	v	n/a
247.135	0.06	494270	keystroke	e	n/a
247.255	0.0755	494510	keystroke	r	n/a
247.4055	0.09	494811	keystroke	s	n/a
247.6005	0.06	495201	keystroke	e	n/a
247.6905	0.0745	495381	keystroke	Key.space	n/a
248.125	0.09	496250	keystroke	r	n/a
248.2755	0.0895	496551	keystroke	e	n/a
248.38	0.075	496760	keystroke	l	n/a
248.485	0.09	496970	keystroke	a	n/a
248.65	0.075	497300	keystroke	t	n/a
248.74	0.06	497480	keystroke	i	n/a
248.875	0.06	497750	keystroke	v	n/a
249.0255	0.059	498051	keystroke	e	n/a
249.2045	0.09	498409	keystroke	s	n/a
249.31	0.0595	498620	keystroke	Key.enter	n/a
249.3755	5.681	498751	prompt	n/a	equal mightn't carries soonest\n
249.9555	0.0595	499911	keystroke	e	n/a
250.105	0.075	500210	keystroke	q	n/a
250.1955	0.059	500391	keystroke	u	n/a
250.3295	0.105	500659	keystroke	a	n/a
250.4195	0.0755	500839	keystroke	l	n/a
250.5845	0.06	501169	keystroke	Key.space	n/a
250.7195	0.09	501439	keystroke	m	n/a
250.9445	0.061	501889	keystroke	i	n/a
251.125	0.06	502250	keystroke	g	n/a
251.215	0.0755	502430	keystroke	h	n/a
251.5895	0.0305	503179	keystroke	t	n/a
251.7395	0.075	503479	keystroke	n	n/a
252.385	0.0455	504770	keystroke	'	n/a
252.6545	0.06	505309	keystroke	t	n/a
252.97	0.0595	505940	keystroke	Key.space	n/a
253.1345	0.061	506269	keystroke	c	n/a
253.285	0.0905	506570	keystroke	a	n/a
253.42	0.06	506840	keystroke	r	n/a
253.555	0.075	507110	keystroke	r	n/a
253.6755	0.0745	507351	keystroke	i	n/a
253.7505	0.06	507501	keystroke	e	n/a
253.915	0.075	507830	keystroke	s	n/a
253.9905	0.0595	507981	keystroke	Key.space	n/a
254.0955	0.0745	508191	keystroke	s	n/a
254.155	0.045	508310	keystroke	o	n/a
254.26	0.06	508520	keystroke	o	n/a
254.455	0.0455	508910	keystroke	n	n/a
254.485	0.075	508970	keystroke	e	n/a
254.71	0.06	509420	keystroke	s	n/a
254.89	0.06	509780	keystroke	t	n/a
254.9945	0.06	509989	keystroke	Key.enter	n/a
255.0605	5.0365	510121	prompt	n/a	holidays hiking break investigator\n
255.7155	0.089	511431	keystroke	h	n/a
255.8945	0.046	511789	keystroke	o	n/a
256.0445	0.0605	512089	keystroke	l	n/a
256.195	0.06	512390	keystroke	i	n/a
256.24	0.1045	512480	keystroke	d	n/a
256.3595	0.09	512719	keystroke	a	n/a
256.4645	0.045	512929	keystroke	y	n/a
256.5395	0.091	513079	keystroke	s	n/a
256.645	0.06	513290	keystroke	Key.space	n/a
256.7945	0.06	513589	keystroke	h	n/a
256.9595	0.0455	513919	keystroke	i	n/a
257.2	0.03	514400	keystroke	k	n/a
257.275	0.0595	514550	keystroke	i	n/a
257.4855	0.044	514971	keystroke	n	n/a
257.6195	0.0605	515239	keystroke	g	n/a
257.6645	0.075	515329	keystroke	Key.space	n/a
257.8455	0.06	515691	keystroke	b	n/a
257.9195	0.09	515839	keystroke	r	n/a
257.9945	0.09	515989	keystroke	e	n/a
258.1	0.105	516200	keystroke	a	n/a
258.1895	0.075	516379	keystroke	k	n/a
258.3095	0.09	516619	keystroke	Key.space	n/a
258.4295	0.045	516859	keystroke	i	n/a
258.5795	0.06	517159	keystroke	n	n/a
258.6245	0.0605	517249	keystroke	v	n/a
258.7605	0.074	517521	keystroke	e	n/a
258.91	0.0745	517820	keystroke	s	n/a
259.0755	0.0745	518151	keystroke	t	n/a
259.1655	0.06	518331	keystroke	i	n/a
259.2395	0.06	518479	keystroke	g	n/a
259.3595	0.076	518719	keystroke	a	n/a
259.5095	0.06	519019	keystroke	t	n/a
259.5845	0.0605	519169	keystroke	o	n/a
259.69	0.06	519380	keystroke	r	n/a
260.035	0.06	520070	keystroke	Key.enter	n/a
260.1015	5.935	520203	prompt	n/a	correspondence crimes prisoner weather\n
260.5895	0.06	521179	keystroke	c	n/a
260.6795	0.045	521359	keystroke	o	n/a
260.8295	0.0605	521659	keystroke	r	n/a
261.3255	0.09	522651	keystroke	r	n/a
261.49	0.075	522980	keystroke	e	n/a
261.685	0.0755	523370	keystroke	s	n/a
261.745	0.0605	523490	keystroke	p	n/a
261.8805	0.0595	523761	keystroke	o	n/a
262.06	0.0605	524120	keystroke	n	n/a
262.135	0.0595	524270	keystroke	d	n/a
262.2845	0.075	524569	keystroke	e	n/a
262.375	0.0595	524750	keystroke	n	n/a
262.4955	0.0595	524991	keystroke	c	n/a
262.69	0.045	525380	keystroke	e	n/a
262.7795	0.075	525559	keystroke	Key.space	n/a
263.3055	0.0595	526611	keystroke	c	n/a
263.53	0.0605	527060	keystroke	r	n/a
263.5905	0.06	527181	keystroke	i	n/a
263.7405	0.075	527481	keystroke	m	n/a
263.7855	0.075	527571	keystroke	e	n/a
263.9505	0.075	527901	keystroke	s	n/a
264.0105	0.059	528021	keystroke	Key.space	n/a
264.1605	0.045	528321	keystroke	p	n/a
264.2345	0.06	528469	keystroke	r	n/a
264.3245	0.0605	528649	keystroke	i	n/a
264.4305	0.09	528861	keystroke	s	n/a
264.505	0.06	529010	keystroke	o	n/a
264.6705	0.0595	529341	keystroke	n	n/a
264.7455	0.074	529491	keystroke	e	n/a
264.8345	0.075	529669	keystroke	r	n/a
264.9545	0.045	529909	keystroke	Key.space	n/a
265.1195	0.091	530239	keystroke	w	n/a
265.211	0.194	530422	keystroke	e	n/a
265.4195	0.031	530839	keystroke	a	n/a
265.5245	0.075	531049	keystroke	t	n/a
265.6155	0.0595	531231	keystroke	h	n/a
265.6895	0.075	531379	keystroke	e	n/a
265.7795	0.105	531559	keystroke	r	n/a
265.975	0.0595	531950	keystroke	Key.enter	n/a
266.04	15.612	532080	prompt	n/a	administrators structured dayton orlando\n
266.575	0.12	533150	keystroke	a	n/a
266.725	0.09	533450	keystroke	d	n/a
266.8005	0.06	533601	keystroke	m	n/a
266.995	0.0305	533990	keystroke	i	n/a
267.115	0.06	534230	keystroke	n	n/a
267.2355	0.089	534471	keystroke	i	n/a
267.2795	0.076	534559	keystroke	s	n/a
267.43	0.0605	534860	keystroke	t	n/a
267.5955	0.089	535191	keystroke	r	n/a
267.7605	0.089	535521	keystroke	a	n/a
267.97	0.0605	535940	keystroke	t	n/a
268.24	0.06	536480	keystroke	o	n/a
268.36	0.075	536720	keystroke	r	n/a
268.555	0.09	537110	keystroke	s	n/a
268.66	0.075	537320	keystroke	Key.space	n/a
268.855	0.075	537710	keystroke	s	n/a
269.005	0.075	538010	keystroke	t	n/a
269.155	0.06	538310	keystroke	r	n/a
269.2	0.0755	538400	keystroke	u	n/a
269.3655	0.0895	538731	keystroke	c	n/a
269.4705	0.0445	538941	keystroke	t	n/a
269.5905	0.0895	539181	keystroke	e	n/a
269.89	0.06	539780	keystroke	r	n/a
270.025	0.0745	540050	keystroke	e	n/a
270.235	0.06	540470	keystroke	d	n/a
270.31	0.075	540620	keystroke	Key.space	n/a
270.43	0.075	540860	keystroke	d	n/a
270.535	0.105	541070	keystroke	a	n/a
270.655	0.06	541310	keystroke	y	n/a
271.9745	0.075	543949	keystroke	Key.backspace	n/a
272.125	0.0745	544250	keystroke	Key.backspace	n/a
272.2895	0.0905	544579	keystroke	Key.backspace	n/a
272.44	0.075	544880	keystroke	Key.backspace	n/a
272.59	0.075	545180	keystroke	Key.backspace	n/a
272.74	0.075	545480	keystroke	Key.backspace	n/a
272.905	0.075	545810	keystroke	Key.backspace	n/a
273.28	0.075	546560	keystroke	Key.backspace	n/a
273.5355	0.09	547071	keystroke	r	n/a
273.6855	0.09	547371	keystroke	e	n/a
273.8955	0.0745	547791	keystroke	d	n/a
274.0155	0.075	548031	keystroke	Key.space	n/a
274.1795	0.075	548359	keystroke	d	n/a
274.285	0.105	548570	keystroke	a	n/a
274.3755	0.0595	548751	keystroke	y	n/a
274.675	0.0755	549350	keystroke	t	n/a
274.81	0.09	549620	keystroke	o	n/a
276.4445	0.0755	552889	keystroke	Key.backspace	n/a
276.595	0.075	553190	keystroke	Key.backspace	n/a
276.73	0.09	553460	keystroke	Key.backspace	n/a
276.865	0.1945	553730	keystroke	Key.backspace	n/a
277.0745	0.015	554149	keystroke	Key.backspace	n/a
277.1795	0.0605	554359	keystroke	Key.backspace	n/a
277.315	0.075	554630	keystroke	Key.backspace	n/a
277.465	0.075	554930	keystroke	Key.backspace	n/a
277.885	0.06	555770	keystroke	Key.backspace	n/a
278.3655	0.06	556731	keystroke	u	n/a
278.5295	0.046	557059	keystroke	r	n/a
278.6205	0.074	557241	keystroke	e	n/a
278.8295	0.06	557659	keystroke	d	n/a
278.9345	0.06	557869	keystroke	Key.space	n/a
279.0395	0.075	558079	keystroke	d	n/a
279.1595	0.12	558319	keystroke	a	n/a
279.2645	0.045	558529	keystroke	y	n/a
279.4595	0.06	558919	keystroke	t	n/a
279.5645	0.03	559129	keystroke	o	n/a
279.7605	0.044	559521	keystroke	n	n/a
279.955	0.015	559910	keystroke	Key.space	n/a
280.045	0.0605	560090	keystroke	o	n/a
280.1195	0.075	560239	keystroke	r	n/a
280.2255	0.075	560451	keystroke	l	n/a
280.3155	0.089	560631	keystroke	a	n/a
280.4345	0.061	560869	keystroke	n	n/a
280.6005	0.0595	561201	keystroke	d	n/a
280.7205	0.0595	561441	keystroke	o	n/a
281.59	0.06	563180	keystroke	Key.enter	n/a
281.656	5.2015	563312	prompt	n/a	readily lynn constant define\n
282.475	0.0295	564950	keystroke	r	n/a
282.4895	0.091	564979	keystroke	e	n/a
282.6255	0.12	565251	keystroke	a	n/a
282.7595	0.075	565519	keystroke	d	n/a
282.8505	0.03	565701	keystroke	i	n/a
283.015	0.0755	566030	keystroke	l	n/a
283.12	0.0605	566240	keystroke	y	n/a
283.21	0.075	566420	keystroke	Key.space	n/a
283.36	0.0905	566720	keystroke	l	n/a
283.5695	0.061	567139	keystroke	y	n/a
283.6595	0.061	567319	keystroke	n	n/a
283.7955	0.075	567591	keystroke	n	n/a
284.035	0.0755	568070	keystroke	Key.space	n/a
284.2455	0.06	568491	keystroke	c	n/a
284.275	0.045	568550	keystroke	o	n/a
284.4405	0.0595	568881	keystroke	n	n/a
284.4855	0.0445	568971	keystroke	s	n/a
284.6345	0.06	569269	keystroke	t	n/a
284.7395	0.105	569479	keystroke	a	n/a
284.8295	0.0755	569659	keystroke	n	n/a
284.9645	0.076	569929	keystroke	t	n/a
285.31	0.015	570620	keystroke	Key.space	n/a
285.4	0.06	570800	keystroke	d	n/a
285.565	0.0605	571130	keystroke	e	n/a
285.7005	0.074	571401	keystroke	f	n/a
285.7595	0.0455	571519	keystroke	i	n/a
285.9105	0.06	571821	keystroke	n	n/a
286.015	0.0455	572030	keystroke	e	n/a
286.7495	0.105	573499	keystroke	Key.enter	n/a
286.8655	4.9415	573731	prompt	n/a	announced hazardous bidding danish\n
287.5455	0.0895	575091	keystroke	a	n/a
287.6655	0.0595	575331	keystroke	n	n/a
287.7855	0.06	575571	keystroke	n	n/a
287.9505	0.0595	575901	keystroke	o	n/a
288.1155	0.0445	576231	keystroke	u	n/a
288.2495	0.076	576499	keystroke	n	n/a
288.2795	0.061	576559	keystroke	c	n/a
288.4745	0.06	576949	keystroke	e	n/a
288.6245	0.091	577249	keystroke	d	n/a
288.7155	0.059	577431	keystroke	Key.space	n/a
288.8495	0.06	577699	keystroke	h	n/a
288.9245	0.075	577849	keystroke	a	n/a
289.1055	0.09	578211	keystroke	z	n/a
289.3305	0.06	578661	keystroke	a	n/a
289.525	0.0745	579050	keystroke	r	n/a
289.7195	0.076	579439	keystroke	d	n/a
289.8095	0.031	579619	keystroke	o	n/a
289.9605	0.0595	579921	keystroke	u	n/a
290.035	0.075	580070	keystroke	s	n/a
290.125	0.06	580250	keystroke	Key.space	n/a
290.305	0.0455	580610	keystroke	b	n/a
290.3655	0.0595	580731	keystroke	i	n/a
290.47	0.0755	580940	keystroke	d	n/a
290.62	0.075	581240	keystroke	d	n/a
290.665	0.06	581330	keystroke	i	n/a
290.815	0.075	581630	keystroke	n	n/a
290.875	0.0605	581750	keystroke	g	n/a
290.9505	0.075	581901	keystroke	Key.space	n/a
291.0555	0.075	582111	keystroke	d	n/a
291.1605	0.075	582321	keystroke	a	n/a
291.22	0.06	582440	keystroke	n	n/a
291.385	0.045	582770	keystroke	i	n/a
291.431	0.0745	582862	keystroke	s	n/a
291.5355	0.06	583071	keystroke	h	n/a
291.76	0.045	583520	keystroke	Key.enter	n/a
291.8125	5.3495	583625	prompt	n/a	median bargain licence jelsoft\n
292.3595	0.076	584719	keystroke	m	n/a
292.4495	0.061	584899	keystroke	e	n/a
292.6155	0.12	585231	keystroke	d	n/a
292.6745	0.106	585349	keystroke	i	n/a
292.7955	0.074	585591	keystroke	a	n/a
292.8545	0.076	585709	keystroke	n	n/a
292.975	0.0605	585950	keystroke	Key.space	n/a
293.0805	0.0595	586161	keystroke	b	n/a
293.11	0.075	586220	keystroke	a	n/a
293.2455	0.06	586491	keystroke	r	n/a
293.365	0.06	586730	keystroke	g	n/a
293.44	0.075	586880	keystroke	a	n/a
293.53	0.0605	587060	keystroke	i	n/a
293.6805	0.06	587361	keystroke	n	n/a
293.77	0.0905	587540	keystroke	Key.space	n/a
293.905	0.06	587810	keystroke	l	n/a
294.07	0.045	588140	keystroke	i	n/a
294.1005	0.06	588201	keystroke	c	n/a
294.2805	0.0595	588561	keystroke	e	n/a
294.355	0.0605	588710	keystroke	n	n/a
294.5055	0.06	589011	keystroke	s	n/a
294.6855	0.0595	589371	keystroke	e	n/a
295	0.0455	590000	keystroke	Key.backspace	n/a
295.1205	0.06	590241	keystroke	Key.backspace	n/a
295.2255	0.075	590451	keystroke	c	n/a
295.4495	0.106	590899	keystroke	e	n/a
295.5695	0.0605	591139	keystroke	Key.space	n/a
295.8105	0.06	591621	keystroke	j	n/a
295.9155	0.0895	591831	keystroke	e	n/a
296.0505	0.0595	592101	keystroke	l	n/a
296.155	0.0755	592310	keystroke	s	n/a
296.2755	0.0445	592551	keystroke	o	n/a
296.3505	0.0745	592701	keystroke	f	n/a
296.62	0.015	593240	keystroke	t	n/a
297.0705	0.09	594141	keystroke	Key.enter	n/a
297.166	3.701	594332	prompt	n/a	snow leave caught russell\n
297.8345	0.075	595669	keystroke	s	n/a
297.9105	0.074	595821	keystroke	n	n/a
298.0605	0.06	596121	keystroke	o	n/a
298.1505	0.045	596301	keystroke	w	n/a
298.2105	0.045	596421	keystroke	Key.space	n/a
298.3005	0.075	596601	keystroke	l	n/a
298.3455	0.09	596691	keystroke	e	n/a
298.4805	0.09	596961	keystroke	a	n/a
298.6005	0.06	597201	keystroke	v	n/a
298.7055	0.075	597411	keystroke	e	n/a
298.8105	0.075	597621	keystroke	Key.space	n/a
299.125	0.075	598250	keystroke	c	n/a
299.2755	0.0895	598551	keystroke	a	n/a
299.3955	0.06	598791	keystroke	u	n/a
299.4705	0.06	598941	keystroke	g	n/a
299.56	0.0755	599120	keystroke	h	n/a
299.6505	0.045	599301	keystroke	t	n/a
299.7105	0.075	599421	keystroke	Key.space	n/a
299.8305	0.06	599661	keystroke	r	n/a
299.9205	0.06	599841	keystroke	u	n/a
300.0405	0.075	600081	keystroke	s	n/a
300.205	0.09	600410	keystroke	s	n/a
300.3855	0.06	600771	keystroke	e	n/a
300.4455	0.075	600891	keystroke	l	n/a
300.5805	0.075	601161	keystroke	l	n/a
300.805	0.06	601610	keystroke	Key.enter	n/a
300.8805	3.961	601761	prompt	n/a	harmony cohen twiki suse\n
301.5405	0.045	603081	keystroke	h	n/a
301.6005	0.09	603201	keystroke	a	n/a
301.7205	0.06	603441	keystroke	r	n/a
301.795	0.045	603590	keystroke	m	n/a
301.9605	0.03	603921	keystroke	o	n/a
302.11	0.075	604220	keystroke	n	n/a
302.17	0.061	604340	keystroke	y	n/a
302.275	0.0605	604550	keystroke	Key.space	n/a
302.47	0.0605	604940	keystroke	c	n/a
302.5905	0.045	605181	keystroke	o	n/a
302.7555	0.045	605511	keystroke	h	n/a
302.8305	0.09	605661	keystroke	e	n/a
302.935	0.0605	605870	keystroke	n	n/a
303.04	0.06	606080	keystroke	Key.space	n/a
303.115	0.0605	606230	keystroke	t	n/a
303.25	0.06	606500	keystroke	w	n/a
303.655	0.045	607310	keystroke	i	n/a
303.805	0.0755	607610	keystroke	k	n/a
303.9555	0.0595	607911	keystroke	i	n/a
304.12	0.06	608240	keystroke	Key.space	n/a
304.195	0.0605	608390	keystroke	s	n/a
304.27	0.06	608540	keystroke	u	n/a
304.3745	0.061	608749	keystroke	s	n/a
304.4805	0.089	608961	keystroke	e	n/a
304.7655	0.075	609531	keystroke	Key.enter	n/a
304.8445	6.2975	609689	prompt	n/a	how's rwanda load restrict\n
305.47	0.0455	610940	keystroke	h	n/a
305.6505	0.045	611301	keystroke	o	n/a
305.7855	0.06	611571	keystroke	w	n/a
306.0245	0.075	612049	keystroke	s	n/a
306.715	0.06	613430	keystroke	Key.backspace	n/a
306.9255	0.0595	613851	keystroke	'	n/a
307.03	0.09	614060	keystroke	s	n/a
307.3155	0.0895	614631	keystroke	Key.space	n/a
307.4805	0.0745	614961	keystroke	r	n/a
307.705	0.0905	615410	keystroke	w	n/a
307.9455	0.09	615891	keystroke	a	n/a
308.0805	0.0745	616161	keystroke	n	n/a
308.3055	0.0745	616611	keystroke	d	n/a
308.455	0.0905	616910	keystroke	a	n/a
308.605	0.0755	617210	keystroke	Key.space	n/a
308.8155	0.0745	617631	keystroke	l	n/a
308.9805	0.0595	617961	keystroke	o	n/a
309.0255	0.135	618051	keystroke	a	n/a
309.145	0.075	618290	keystroke	d	n/a
309.2505	0.0295	618501	keystroke	Key.space	n/a
309.88	0.09	619760	keystroke	r	n/a
310	0.0905	620000	keystroke	e	n/a
310.195	0.075	620390	keystroke	s	n/a
310.39	0.045	620780	keystroke	t	n/a
310.525	0.06	621050	keystroke	r	n/a
310.6005	0.045	621201	keystroke	i	n/a
310.7055	0.0895	621411	keystroke	c	n/a
310.9455	0.0445	621891	keystroke	t	n/a
311.0505	0.0895	622101	keystroke	Key.enter	n/a
311.1465	4.4805	622293	prompt	n/a	player henderson relocation actions\n
311.7255	0.06	623451	keystroke	p	n/a
311.8755	0.06	623751	keystroke	l	n/a
311.9055	0.105	623811	keystroke	a	n/a
312.0705	0.0445	624141	keystroke	y	n/a
312.13	0.075	624260	keystroke	e	n/a
312.1905	0.0895	624381	keystroke	r	n/a
312.281	0.044	624562	keystroke	Key.space	n/a
312.3855	0.06	624771	keystroke	h	n/a
312.4305	0.075	624861	keystroke	e	n/a
312.5655	0.075	625131	keystroke	n	n/a
312.6855	0.06	625371	keystroke	d	n/a
312.8655	0.105	625731	keystroke	e	n/a
313.0005	0.075	626001	keystroke	r	n/a
313.1505	0.09	626301	keystroke	s	n/a
313.2555	0.03	626511	keystroke	o	n/a
313.4205	0.045	626841	keystroke	n	n/a
313.5105	0.0595	627021	keystroke	Key.space	n/a
313.5255	0.0745	627051	keystroke	r	n/a
313.615	0.09	627230	keystroke	e	n/a
313.72	0.0605	627440	keystroke	l	n/a
313.8705	0.0595	627741	keystroke	o	n/a
313.915	0.075	627830	keystroke	c	n/a
314.035	0.105	628070	keystroke	a	n/a
314.185	0.075	628370	keystroke	t	n/a
314.2455	0.0745	628491	keystroke	i	n/a
314.29	0.09	628580	keystroke	o	n/a
314.4855	0.0895	628971	keystroke	n	n/a
314.59	0.09	629180	keystroke	Key.space	n/a
314.635	0.06	629270	keystroke	a	n/a
314.785	0.0905	629570	keystroke	c	n/a
315.025	0.045	630050	keystroke	t	n/a
315.055	0.075	630110	keystroke	i	n/a
315.1005	0.09	630201	keystroke	o	n/a
315.2805	0.045	630561	keystroke	n	n/a
315.3405	0.075	630681	keystroke	s	n/a
315.5805	0.045	631161	keystroke	Key.enter	n/a
315.6375	6.38	631275	prompt	n/a	doesn't deeper london noble\n
316.105	0.0755	632210	keystroke	d	n/a
316.1955	0.0595	632391	keystroke	o	n/a
316.3	0.0755	632600	keystroke	e	n/a
316.4655	0.075	632931	keystroke	s	n/a
316.5255	0.045	633051	keystroke	n	n/a
316.825	0.06	633650	keystroke	t	n/a
317.65	0.045	635300	keystroke	Key.backspace	n/a
317.86	0.0595	635720	keystroke	'	n/a
317.9805	0.075	635961	keystroke	t	n/a
318.2495	0.0455	636499	keystroke	Key.space	n/a
318.3555	0.06	636711	keystroke	d	n/a
318.505	0.075	637010	keystroke	e	n/a
318.6405	0.09	637281	keystroke	e	n/a
318.7155	0.075	637431	keystroke	p	n/a
318.8205	0.089	637641	keystroke	e	n/a
318.925	0.0905	637850	keystroke	r	n/a
319.0305	0.075	638061	keystroke	Key.space	n/a
319.375	0.0605	638750	keystroke	o	n/a
319.75	0.075	639500	keystroke	Key.backspace	n/a
320.14	0.0605	640280	keystroke	l	n/a
320.38	0.0155	640760	keystroke	o	n/a
320.515	0.045	641030	keystroke	n	n/a
320.7555	0.0595	641511	keystroke	d	n/a
320.86	0.03	641720	keystroke	o	n/a
321.01	0.06	642020	keystroke	n	n/a
321.13	0.075	642260	keystroke	Key.space	n/a
321.2505	0.0595	642501	keystroke	n	n/a
321.4305	0.0295	642861	keystroke	o	n/a
321.49	0.045	642980	keystroke	b	n/a
321.565	0.0755	643130	keystroke	l	n/a
321.67	0.075	643340	keystroke	e	n/a
321.9555	0.0595	643911	keystroke	Key.enter	n/a
322.0215	4.6455	644043	prompt	n/a	brand republican spider meaningful\n
322.735	0.06	645470	keystroke	b	n/a
322.78	0.06	645560	keystroke	r	n/a
322.885	0.12	645770	keystroke	a	n/a
322.99	0.0455	645980	keystroke	n	n/a
323.08	0.075	646160	keystroke	d	n/a
323.17	0.06	646340	keystroke	Key.space	n/a
323.365	0.06	646730	keystroke	r	n/a
323.4555	0.09	646911	keystroke	e	n/a
323.5605	0.06	647121	keystroke	p	n/a
323.7405	0.03	647481	keystroke	u	n/a
323.7855	0.06	647571	keystroke	b	n/a
323.8905	0.059	647781	keystroke	l	n/a
324.0545	0.045	648109	keystroke	i	n/a
324.115	0.0745	648230	keystroke	c	n/a
324.2495	0.09	648499	keystroke	a	n/a
324.3255	0.0595	648651	keystroke	n	n/a
324.445	0.0605	648890	keystroke	Key.space	n/a
324.5205	0.074	649041	keystroke	s	n/a
324.6095	0.045	649219	keystroke	p	n/a
324.7445	0.061	649489	keystroke	i	n/a
324.7755	0.0895	649551	keystroke	d	n/a
324.955	0.075	649910	keystroke	e	n/a
325.045	0.075	650090	keystroke	r	n/a
325.15	0.0605	650300	keystroke	Key.space	n/a
325.3455	0.074	650691	keystroke	m	n/a
325.4355	0.0745	650871	keystroke	e	n/a
325.5555	0.089	651111	keystroke	a	n/a
325.6155	0.0595	651231	keystroke	n	n/a
325.7645	0.046	651529	keystroke	i	n/a
325.9145	0.06	651829	keystroke	n	n/a
325.9595	0.076	651919	keystroke	g	n/a
326.1545	0.061	652309	keystroke	f	n/a
326.23	0.0295	652460	keystroke	u	n/a
326.3955	0.06	652791	keystroke	l	n/a
326.62	0.0445	653240	keystroke	Key.enter	n/a
326.671	5.036	653342	prompt	n/a	fold journalists prescribed primary\n
327.2505	0.0745	654501	keystroke	f	n/a
327.2955	0.0595	654591	keystroke	o	n/a
327.4455	0.075	654891	keystroke	l	n/a
327.5055	0.06	655011	keystroke	d	n/a
327.5955	0.075	655191	keystroke	Key.space	n/a
327.7155	0.06	655431	keystroke	j	n/a
327.8505	0.075	655701	keystroke	o	n/a
327.9855	0.06	655971	keystroke	u	n/a
328.0755	0.09	656151	keystroke	r	n/a
328.1505	0.06	656301	keystroke	n	n/a
328.2855	0.075	656571	keystroke	a	n/a
328.3155	0.06	656631	keystroke	l	n/a
328.5705	0.03	657141	keystroke	i	n/a
328.646	0.0595	657292	keystroke	s	n/a
328.7955	0.0595	657591	keystroke	t	n/a
328.9155	0.0895	657831	keystroke	s	n/a
329.2445	0.076	658489	keystroke	Key.space	n/a
329.4705	0.059	658941	keystroke	p	n/a
329.5155	0.09	659031	keystroke	r	n/a
329.5905	0.09	659181	keystroke	e	n/a
329.7855	0.075	659571	keystroke	s	n/a
329.95	0.09	659900	keystroke	c	n/a
330.175	0.045	660350	keystroke	r	n/a
330.205	0.0595	660410	keystroke	i	n/a
330.3705	0.075	660741	keystroke	b	n/a
330.4305	0.075	660861	keystroke	e	n/a
330.6105	0.0595	661221	keystroke	d	n/a
330.655	0.045	661310	keystroke	Key.space	n/a
330.8195	0.046	661639	keystroke	p	n/a
330.9395	0.061	661879	keystroke	r	n/a
331.0155	0.044	662031	keystroke	i	n/a
331.195	0.0455	662390	keystroke	m	n/a
331.2705	0.0745	662541	keystroke	a	n/a
331.3605	0.0745	662721	keystroke	r	n/a
331.45	0.03	662900	keystroke	y	n/a
331.66	0.045	663320	keystroke	Key.enter	n/a
331.7115	4.8105	663423	prompt	n/a	programming includes todd atlanta\n
332.2905	0.06	664581	keystroke	p	n/a
332.3805	0.09	664761	keystroke	r	n/a
332.5005	0.075	665001	keystroke	o	n/a
332.6505	0.075	665301	keystroke	g	n/a
332.8445	0.06	665689	keystroke	r	n/a
332.9645	0.09	665929	keystroke	a	n/a
333.0695	0.046	666139	keystroke	m	n/a
333.1745	0.0755	666349	keystroke	m	n/a
333.355	0.0455	666710	keystroke	i	n/a
333.49	0.075	666980	keystroke	n	n/a
333.55	0.045	667100	keystroke	g	n/a
333.6105	0.0745	667221	keystroke	Key.space	n/a
333.715	0.0455	667430	keystroke	i	n/a
333.91	0.015	667820	keystroke	n	n/a
333.9405	0.045	667881	keystroke	c	n/a
334.03	0.0455	668060	keystroke	l	n/a
334.195	0.0605	668390	keystroke	u	n/a
334.2405	0.06	668481	keystroke	d	n/a
334.3755	0.075	668751	keystroke	e	n/a
334.5255	0.0895	669051	keystroke	s	n/a
334.5845	0.0605	669169	keystroke	Key.space	n/a
334.7045	0.076	669409	keystroke	t	n/a
334.765	0.0755	669530	keystroke	o	n/a
335.1405	0.1045	670281	keystroke	d	n/a
335.29	0.0755	670580	keystroke	d	n/a
335.4105	0.075	670821	keystroke	Key.space	n/a
335.5455	0.09	671091	keystroke	a	n/a
335.7105	0.06	671421	keystroke	t	n/a
335.7705	0.0595	671541	keystroke	l	n/a
335.875	0.09	671750	keystroke	a	n/a
335.95	0.0605	671900	keystroke	n	n/a
336.07	0.075	672140	keystroke	t	n/a
336.34	0.0605	672680	keystroke	a	n/a
336.4605	0.0595	672921	keystroke	Key.enter	n/a
336.5255	6.4015	673051	prompt	n/a	encountered thermal discovered sorted\n
337.2255	0.0595	674451	keystroke	e	n/a
337.3	0.075	674600	keystroke	n	n/a
337.4805	0.0295	674961	keystroke	c	n/a
337.525	0.0455	675050	keystroke	o	n/a
337.6755	0.0445	675351	keystroke	u	n/a
337.825	0.0605	675650	keystroke	n	n/a
337.87	0.0755	675740	keystroke	t	n/a
338.0355	0.089	676071	keystroke	e	n/a
338.1405	0.12	676281	keystroke	r	n/a
338.5	0.09	677000	keystroke	e	n/a
338.71	0.1055	677420	keystroke	d	n/a
338.83	0.075	677660	keystroke	Key.space	n/a
338.9805	0.09	677961	keystroke	t	n/a
339.0405	0.059	678081	keystroke	h	n/a
339.1295	0.0905	678259	keystroke	e	n/a
339.235	0.075	678470	keystroke	r	n/a
339.355	0.045	678710	keystroke	m	n/a
339.43	0.09	678860	keystroke	a	n/a
339.535	0.075	679070	keystroke	l	n/a
339.6855	0.09	679371	keystroke	Key.space	n/a
339.73	0.06	679460	keystroke	d	n/a
339.835	0.06	679670	keystroke	i	n/a
339.88	0.0455	679760	keystroke	s	n/a
340.0155	0.074	680031	keystroke	c	n/a
340.0755	0.045	680151	keystroke	o	n/a
340.2405	0.059	680481	keystroke	v	n/a
340.4205	0.089	680841	keystroke	e	n/a
340.5555	0.059	681111	keystroke	r	n/a
340.6305	0.105	681261	keystroke	e	n/a
340.8255	0.075	681651	keystroke	d	n/a
340.9145	0.0605	681829	keystroke	Key.space	n/a
341.0055	0.09	682011	keystroke	s	n/a
341.1105	0.045	682221	keystroke	o	n/a
341.1705	0.075	682341	keystroke	r	n/a
341.3205	0.0595	682641	keystroke	t	n/a
341.4255	0.09	682851	keystroke	a	n/a
341.8905	0.0595	683781	keystroke	e	n/a
342.4	0.03	684800	keystroke	Key.backspace	n/a
342.49	0.0755	684980	keystroke	Key.backspace	n/a
342.5505	0.089	685101	keystroke	e	n/a
342.7155	0.075	685431	keystroke	d	n/a
342.8655	0.06	685731	keystroke	Key.enter	n/a
342.942	5.0115	685884	prompt	n/a	sacrifice remote microphone escape\n
343.645	0.0605	687290	keystroke	s	n/a
343.7955	0.09	687591	keystroke	a	n/a
343.9755	0.09	687951	keystroke	c	n/a
344.185	0.045	688370	keystroke	r	n/a
344.2455	0.06	688491	keystroke	i	n/a
344.3655	0.045	688731	keystroke	f	n/a
344.4255	0.06	688851	keystroke	i	n/a
344.5305	0.075	689061	keystroke	c	n/a
344.6955	0.075	689391	keystroke	e	n/a
344.7555	0.075	689511	keystroke	Key.space	n/a
344.8605	0.075	689721	keystroke	r	n/a
344.9655	0.1045	689931	keystroke	e	n/a
345.055	0.06	690110	keystroke	m	n/a
345.2055	0.0595	690411	keystroke	o	n/a
345.2955	0.06	690591	keystroke	t	n/a
345.445	0.075	690890	keystroke	e	n/a
345.5645	0.076	691129	keystroke	Key.space	n/a
345.8205	0.075	691641	keystroke	m	n/a
346.03	0.045	692060	keystroke	i	n/a
346.09	0.06	692180	keystroke	c	n/a
346.3	0.045	692600	keystroke	r	n/a
346.33	0.0455	692660	keystroke	o	n/a
346.495	0.0605	692990	keystroke	p	n/a
346.5705	0.0595	693141	keystroke	h	n/a
346.6755	0.06	693351	keystroke	o	n/a
346.855	0.06	693710	keystroke	n	n/a
346.9	0.0455	693800	keystroke	e	n/a
346.9755	0.0595	693951	keystroke	Key.space	n/a
347.05	0.0755	694100	keystroke	e	n/a
347.2155	0.0745	694431	keystroke	s	n/a
347.365	0.09	694730	keystroke	c	n/a
347.5	0.0905	695000	keystroke	a	n/a
347.605	0.075	695210	keystroke	p	n/a
347.7255	0.0745	695451	keystroke	e	n/a
347.86	0.09	695720	keystroke	Key.enter	n/a
347.959	4.823	695918	prompt	n/a	panels abstract election schema\n
348.49	0.0605	696980	keystroke	p	n/a
348.565	0.075	697130	keystroke	a	n/a
348.685	0.0455	697370	keystroke	n	n/a
348.745	0.0755	697490	keystroke	e	n/a
348.865	0.0605	697730	keystroke	l	n/a
348.97	0.045	697940	keystroke	s	n/a
349.06	0.0455	698120	keystroke	Key.space	n/a
349.15	0.09	698300	keystroke	a	n/a
349.2705	0.0595	698541	keystroke	b	n/a
349.5255	0.0895	699051	keystroke	s	n/a
349.6755	0.0445	699351	keystroke	t	n/a
349.855	0.0605	699710	keystroke	r	n/a
349.93	0.0755	699860	keystroke	a	n/a
350.11	0.06	700220	keystroke	c	n/a
350.155	0.0605	700310	keystroke	t	n/a
350.3205	0.06	700641	keystroke	Key.space	n/a
350.5305	0.0595	701061	keystroke	e	n/a
350.6205	0.0595	701241	keystroke	l	n/a
350.695	0.0755	701390	keystroke	e	n/a
350.9355	0.03	701871	keystroke	c	n/a
351.0705	0.0595	702141	keystroke	t	n/a
351.19	0.12	702380	keystroke	i	n/a
351.265	0.09	702530	keystroke	o	n/a
351.4455	0.075	702891	keystroke	n	n/a
351.5505	0.074	703101	keystroke	Key.space	n/a
351.6405	0.06	703281	keystroke	s	n/a
351.7755	0.075	703551	keystroke	c	n/a
352.0455	0.075	704091	keystroke	h	n/a
352.1805	0.09	704361	keystroke	e	n/a
352.3	0.0605	704600	keystroke	m	n/a
352.555	0.09	705110	keystroke	a	n/a
352.72	0.06	705440	keystroke	Key.enter	n/a
352.785	6.522	705570	prompt	n/a	celebrity verification exploring woman\n
353.425	0.06	706850	keystroke	c	n/a
353.5905	0.09	707181	keystroke	e	n/a
353.695	0.0605	707390	keystroke	l	n/a
353.8305	0.0895	707661	keystroke	e	n/a
354.0855	0.06	708171	keystroke	b	n/a
354.2655	0.045	708531	keystroke	r	n/a
354.3705	0.0595	708741	keystroke	i	n/a
354.715	0.0905	709430	keystroke	t	n/a
354.9855	0.0445	709971	keystroke	y	n/a
355.045	0.0755	710090	keystroke	Key.space	n/a
355.2555	0.0745	710511	keystroke	v	n/a
355.42	0.06	710840	keystroke	e	n/a
355.495	0.09	710990	keystroke	r	n/a
355.66	0.0455	711320	keystroke	i	n/a
355.7205	0.0895	711441	keystroke	f	n/a
356.32	0.0605	712640	keystroke	i	n/a
356.44	0.0755	712880	keystroke	c	n/a
356.605	0.105	713210	keystroke	a	n/a
356.8455	0.0595	713691	keystroke	t	n/a
356.92	0.0905	713840	keystroke	i	n/a
356.98	0.0755	713960	keystroke	o	n/a
357.1745	0.091	714349	keystroke	n	n/a
357.295	0.075	714590	keystroke	Key.space	n/a
357.385	0.06	714770	keystroke	e	n/a
357.5655	0.075	715131	keystroke	x	n/a
357.6105	0.06	715221	keystroke	p	n/a
357.7445	0.061	715489	keystroke	l	n/a
357.8805	0.059	715761	keystroke	o	n/a
357.9845	0.046	715969	keystroke	r	n/a
358.0895	0.045	716179	keystroke	i	n/a
358.2405	0.075	716481	keystroke	n	n/a
358.3005	0.06	716601	keystroke	g	n/a
358.375	0.0605	716750	keystroke	Key.space	n/a
358.5995	0.031	717199	keystroke	w	n/a
358.6595	0.06	717319	keystroke	o	n/a
358.84	0.0755	717680	keystroke	m	n/a
358.9295	0.075	717859	keystroke	a	n/a
359.0195	0.06	718039	keystroke	n	n/a
359.245	0.0605	718490	keystroke	Key.enter	n/a
359.311	7.0305	718622	prompt	n/a	textile acquisitions differently trembl\n
359.8905	0.075	719781	keystroke	t	n/a
360.0405	0.075	720081	keystroke	e	n/a
360.2505	0.045	720501	keystroke	x	n/a
360.46	0.0605	720920	keystroke	t	n/a
360.5355	0.045	721071	keystroke	i	n/a
360.685	0.0905	721370	keystroke	l	n/a
360.7605	0.0595	721521	keystroke	e	n/a
360.8505	0.0745	721701	keystroke	Key.space	n/a
360.94	0.075	721880	keystroke	a	n/a
361.12	0.0755	722240	keystroke	c	n/a
361.3	0.075	722600	keystroke	q	n/a
361.405	0.1055	722810	keystroke	u	n/a
361.465	0.105	722930	keystroke	i	n/a
361.615	0.075	723230	keystroke	s	n/a
361.7195	0.076	723439	keystroke	i	n/a
361.945	0.0745	723890	keystroke	t	n/a
362.0655	0.12	724131	keystroke	i	n/a
362.1545	0.091	724309	keystroke	o	n/a
362.3655	0.059	724731	keystroke	n	n/a
362.4695	0.076	724939	keystroke	s	n/a
362.56	0.0745	725120	keystroke	Key.space	n/a
362.6645	0.046	725329	keystroke	f	n/a
362.7555	0.059	725511	keystroke	i	n/a
363.0545	0.045	726109	keystroke	Key.backspace	n/a
363.175	0.06	726350	keystroke	Key.backspace	n/a
363.3255	0.075	726651	keystroke	d	n/a
363.415	0.045	726830	keystroke	i	n/a
363.49	0.0755	726980	keystroke	f	n/a
363.6545	0.09	727309	keystroke	f	n/a
363.8195	0.09	727639	keystroke	e	n/a
363.9245	0.075	727849	keystroke	r	n/a
364.0145	0.1055	728029	keystroke	e	n/a
364.375	0.075	728750	keystroke	n	n/a
364.5105	0.09	729021	keystroke	t	n/a
364.6455	0.075	729291	keystroke	l	n/a
364.7655	0.045	729531	keystroke	y	n/a
364.8555	0.075	729711	keystroke	Key.space	n/a
365.0355	0.0745	730071	keystroke	t	n/a
365.2755	0.014	730551	keystroke	r	n/a
365.5305	0.09	731061	keystroke	e	n/a
365.725	0.075	731450	keystroke	m	n/a
365.935	0.045	731870	keystroke	b	n/a
366.0105	0.0745	732021	keystroke	l	n/a
366.31	0.03	732620	keystroke	Key.enter	n/a
366.346	7.0185	732692	prompt	n/a	outcomes winning oriented smithsonian\n
367.18	0.0605	734360	keystroke	o	n/a
367.3605	0.0595	734721	keystroke	u	n/a
367.4355	0.0595	734871	keystroke	t	n/a
367.6305	0.06	735261	keystroke	c	n/a
367.6755	0.045	735351	keystroke	o	n/a
367.8255	0.075	735651	keystroke	m	n/a
367.8855	0.06	735771	keystroke	e	n/a
368.0655	0.105	736131	keystroke	s	n/a
368.1255	0.06	736251	keystroke	Key.space	n/a
368.26	0.0595	736520	keystroke	w	n/a
368.3055	0.06	736611	keystroke	i	n/a
368.4555	0.045	736911	keystroke	n	n/a
368.5755	0.06	737151	keystroke	n	n/a
368.7555	0.015	737511	keystroke	i	n/a
368.8605	0.09	737721	keystroke	n	n/a
368.9355	0.06	737871	keystroke	g	n/a
369.0105	0.075	738021	keystroke	Key.space	n/a
369.1905	0.0595	738381	keystroke	o	n/a
369.2955	0.0745	738591	keystroke	r	n/a
369.385	0.06	738770	keystroke	i	n/a
369.61	0.03	739220	keystroke	e	n/a
369.625	0.0455	739250	keystroke	n	n/a
369.7605	0.06	739521	keystroke	t	n/a
369.8805	0.0895	739761	keystroke	e	n/a
370.0895	0.031	740179	keystroke	d	n/a
370.1495	0.075	740299	keystroke	Key.space	n/a
370.3155	0.09	740631	keystroke	s	n/a
370.3455	0.075	740691	keystroke	m	n/a
371.7705	0.015	743541	keystroke	i	n/a
371.9355	0.06	743871	keystroke	t	n/a
372.0405	0.06	744081	keystroke	h	n/a
372.4905	0.075	744981	keystroke	s	n/a
372.5955	0.06	745191	keystroke	o	n/a
372.7445	0.075	745489	keystroke	n	n/a
372.9405	0.0295	745881	keystroke	i	n/a
373.0155	0.09	746031	keystroke	a	n/a
373.09	0.06	746180	keystroke	n	n/a
373.3155	0.0445	746631	keystroke	Key.enter	n/a
373.3685	4.3885	746737	prompt	n/a	cleared subscriptions keep cause\n
373.886	0.0595	747772	keystroke	c	n/a
373.9605	0.06	747921	keystroke	l	n/a
374.0655	0.06	748131	keystroke	e	n/a
374.1705	0.1195	748341	keystroke	a	n/a
374.29	0.1355	748580	keystroke	r	n/a
374.41	0.105	748820	keystroke	e	n/a
374.6205	0.105	749241	keystroke	d	n/a
374.8	0.0755	749600	keystroke	Key.space	n/a
374.9355	0.0745	749871	keystroke	s	n/a
375.04	0.0455	750080	keystroke	u	n/a
375.1905	0.06	750381	keystroke	b	n/a
375.2205	0.06	750441	keystroke	s	n/a
375.3555	0.09	750711	keystroke	c	n/a
375.58	0.0605	751160	keystroke	r	n/a
375.6255	0.0445	751251	keystroke	i	n/a
375.73	0.0905	751460	keystroke	p	n/a
375.8655	0.06	751731	keystroke	t	n/a
375.9555	0.12	751911	keystroke	i	n/a
376.0455	0.09	752091	keystroke	o	n/a
376.3155	0.06	752631	keystroke	n	n/a
376.4355	0.09	752871	keystroke	s	n/a
376.5405	0.06	753081	keystroke	Key.space	n/a
376.6755	0.075	753351	keystroke	k	n/a
376.735	0.0605	753470	keystroke	e	n/a
376.8705	0.075	753741	keystroke	e	n/a
376.9305	0.06	753861	keystroke	p	n/a
377.05	0.0755	754100	keystroke	Key.space	n/a
377.11	0.075	754220	keystroke	c	n/a
377.2455	0.105	754491	keystroke	a	n/a
377.3205	0.0445	754641	keystroke	u	n/a
377.4405	0.0745	754881	keystroke	s	n/a
377.56	0.075	755120	keystroke	e	n/a
377.695	0.06	755390	keystroke	Key.enter	n/a
377.761	4.406	755522	prompt	n/a	live harrison flip realtor\n
378.2655	0.075	756531	keystroke	l	n/a
378.4455	0.06	756891	keystroke	i	n/a
378.4905	0.059	756981	keystroke	v	n/a
378.6555	0.075	757311	keystroke	e	n/a
378.7145	0.075	757429	keystroke	Key.space	n/a
378.8355	0.0745	757671	keystroke	h	n/a
378.895	0.0905	757790	keystroke	a	n/a
379.0455	0.075	758091	keystroke	r	n/a
379.1805	0.075	758361	keystroke	r	n/a
379.2405	0.06	758481	keystroke	i	n/a
379.4055	0.075	758811	keystroke	s	n/a
379.4655	0.06	758931	keystroke	o	n/a
379.6305	0.06	759261	keystroke	n	n/a
379.75	0.075	759500	keystroke	Key.space	n/a
379.855	0.0595	759710	keystroke	f	n/a
379.9305	0.06	759861	keystroke	l	n/a
380.1105	0.03	760221	keystroke	i	n/a
380.2455	0.09	760491	keystroke	p	n/a
380.4095	0.075	760819	keystroke	Key.space	n/a
380.4705	0.09	760941	keystroke	r	n/a
380.5455	0.09	761091	keystroke	e	n/a
380.6955	0.0745	761391	keystroke	a	n/a
381.46	0.06	762920	keystroke	l	n/a
381.595	0.0605	763190	keystroke	t	n/a
381.7005	0.045	763401	keystroke	o	n/a
381.8355	0.06	763671	keystroke	r	n/a
382.1195	0.045	764239	keystroke	Key.enter	n/a
382.1725	4.9445	764345	prompt	n/a	mercedes vendors gratis mars\n
382.9	0.0605	765800	keystroke	m	n/a
382.975	0.075	765950	keystroke	e	n/a
383.08	0.06	766160	keystroke	r	n/a
383.275	0.0755	766550	keystroke	c	n/a
383.4695	0.075	766939	keystroke	e	n/a
383.6655	0.059	767331	keystroke	d	n/a
383.8605	0.045	767721	keystroke	e	n/a
383.9955	0.09	767991	keystroke	s	n/a
384.1305	0.0295	768261	keystroke	Key.space	n/a
384.3255	0.06	768651	keystroke	v	n/a
384.4905	0.0595	768981	keystroke	e	n/a
384.5655	0.075	769131	keystroke	n	n/a
384.715	0.045	769430	keystroke	d	n/a
384.79	0.06	769580	keystroke	o	n/a
384.94	0.075	769880	keystroke	r	n/a
385.105	0.0755	770210	keystroke	s	n/a
385.1955	0.0595	770391	keystroke	Key.space	n/a
385.435	0.045	770870	keystroke	g	n/a
385.4955	0.06	770991	keystroke	r	n/a
385.585	0.105	771170	keystroke	a	n/a
385.75	0.075	771500	keystroke	t	n/a
385.84	0.06	771680	keystroke	i	n/a
385.945	0.0755	771890	keystroke	s	n/a
386.05	0.0605	772100	keystroke	Key.space	n/a
386.2005	0.09	772401	keystroke	m	n/a
386.305	0.075	772610	keystroke	a	n/a
386.38	0.0905	772760	keystroke	r	n/a
386.53	0.0905	773060	keystroke	s	n/a
387.04	0.075	774080	keystroke	Key.enter	n/a
387.1215	3.94	774243	prompt	n/a	export eating viking pork\n
387.655	0.06	775310	keystroke	e	n/a
387.8355	0.09	775671	keystroke	x	n/a
387.9105	0.12	775821	keystroke	p	n/a
387.9705	0.105	775941	keystroke	o	n/a
388.0905	0.105	776181	keystroke	r	n/a
388.285	0.0605	776570	keystroke	t	n/a
388.36	0.06	776720	keystroke	Key.space	n/a
388.69	0.06	777380	keystroke	e	n/a
388.8105	0.0895	777621	keystroke	a	n/a
388.9895	0.0755	777979	keystroke	t	n/a
389.0495	0.046	778099	keystroke	i	n/a
389.2	0.09	778400	keystroke	n	n/a
389.2755	0.0445	778551	keystroke	g	n/a
389.38	0.0905	778760	keystroke	Key.space	n/a
389.6055	0.06	779211	keystroke	v	n/a
389.6505	0.03	779301	keystroke	i	n/a
389.8455	0.015	779691	keystroke	k	n/a
389.935	0.045	779870	keystroke	i	n/a
390.1	0.06	780200	keystroke	n	n/a
390.145	0.0605	780290	keystroke	g	n/a
390.2205	0.06	780441	keystroke	Key.space	n/a
390.3255	0.12	780651	keystroke	p	n/a
390.4155	0.09	780831	keystroke	o	n/a
390.5355	0.09	781071	keystroke	r	n/a
390.6555	0.06	781311	keystroke	k	n/a
391.0005	0.06	782001	keystroke	Key.enter	n/a
391.0655	4.1965	782131	prompt	n/a	iceland afford neighbor cold\n
391.75	0.045	783500	keystroke	i	n/a
391.8105	0.0745	783621	keystroke	c	n/a
392.0055	0.0595	784011	keystroke	e	n/a
392.0805	0.0445	784161	keystroke	l	n/a
392.17	0.105	784340	keystroke	a	n/a
392.26	0.075	784520	keystroke	n	n/a
392.35	0.06	784700	keystroke	d	n/a
392.411	0.044	784822	keystroke	Key.space	n/a
392.575	0.06	785150	keystroke	a	n/a
392.71	0.075	785420	keystroke	f	n/a
392.845	0.0755	785690	keystroke	f	n/a
392.935	0.06	785870	keystroke	o	n/a
393.07	0.0455	786140	keystroke	r	n/a
393.235	0.075	786470	keystroke	d	n/a
393.295	0.0605	786590	keystroke	Key.space	n/a
393.43	0.075	786860	keystroke	n	n/a
393.49	0.075	786980	keystroke	e	n/a
393.6255	0.045	787251	keystroke	i	n/a
393.6855	0.075	787371	keystroke	g	n/a
393.7755	0.06	787551	keystroke	h	n/a
393.9255	0.06	787851	keystroke	b	n/a
394.0895	0.045	788179	keystroke	o	n/a
394.15	0.0595	788300	keystroke	r	n/a
394.24	0.075	788480	keystroke	Key.space	n/a
394.6	0.0605	789200	keystroke	c	n/a
394.6745	0.046	789349	keystroke	o	n/a
394.8255	0.0745	789651	keystroke	l	n/a
394.9145	0.195	789829	keystroke	d	n/a
395.215	0.045	790430	keystroke	Key.enter	n/a
395.2665	6.01	790533	prompt	n/a	slideshow distributor likewise retained\n
395.905	0.0755	791810	keystroke	s	n/a
396.1155	0.045	792231	keystroke	l	n/a
396.2805	0.0595	792561	keystroke	i	n/a
396.3405	0.06	792681	keystroke	d	n/a
396.4905	0.075	792981	keystroke	e	n/a
396.655	0.0605	793310	keystroke	h	n/a
397.015	0.06	794030	keystroke	Key.backspace	n/a
397.1805	0.075	794361	keystroke	s	n/a
397.315	0.015	794630	keystroke	h	n/a
397.4505	0.06	794901	keystroke	o	n/a
397.54	0.09	795080	keystroke	w	n/a
397.675	0.06	795350	keystroke	Key.space	n/a
397.765	0.06	795530	keystroke	d	n/a
397.855	0.06	795710	keystroke	i	n/a
397.96	0.075	795920	keystroke	s	n/a
398.215	0.03	796430	keystroke	t	n/a
398.365	0.045	796730	keystroke	r	n/a
398.425	0.075	796850	keystroke	i	n/a
398.62	0.0605	797240	keystroke	b	n/a
398.695	0.06	797390	keystroke	u	n/a
398.815	0.06	797630	keystroke	t	n/a
398.89	0.075	797780	keystroke	o	n/a
399.025	0.045	798050	keystroke	r	n/a
399.1	0.045	798200	keystroke	Key.space	n/a
399.22	0.075	798440	keystroke	l	n/a
399.385	0.0455	798770	keystroke	i	n/a
399.5205	0.06	799041	keystroke	k	n/a
399.5655	0.075	799131	keystroke	e	n/a
399.715	0.075	799430	keystroke	w	n/a
399.805	0.075	799610	keystroke	i	n/a
