onset	duration	sample	value	key	prompt_text
0.842	7.96	1684	prompt	n/a	the quick brown fox jumps over a lazy dog\n
2.141	0.001	4282	keystroke_t	t	n/a
3.503	0.1205	7006	keystroke_h	h	n/a
3.58	0.1335	7160	keystroke_e	e	n/a
3.638	0.1655	7276	keystroke_Key.space	Key.space	n/a
3.7555	0.1085	7511	keystroke_q	q	n/a
3.834	0.074	7668	keystroke_u	u	n/a
3.984	0.09	7968	keystroke_i	i	n/a
4.0885	0.1355	8177	keystroke_c	c	n/a
4.209	0.0745	8418	keystroke_k	k	n/a
4.329	0.12	8658	keystroke_Key.space	Key.space	n/a
4.434	0.09	8868	keystroke_b	b	n/a
4.5535	0.0905	9107	keystroke_r	r	n/a
4.614	0.09	9228	keystroke_o	o	n/a
4.809	0.12	9618	keystroke_w	w	n/a
4.944	0.1055	9888	keystroke_n	n	n/a
5.034	0.135	10068	keystroke_Key.space	Key.space	n/a
5.124	0.105	10248	keystroke_f	f	n/a
5.214	0.135	10428	keystroke_o	o	n/a
5.364	0.105	10728	keystroke_x	x	n/a
5.424	0.135	10848	keystroke_Key.space	Key.space	n/a
5.484	0.105	10968	keystroke_j	j	n/a
5.544	0.1195	11088	keystroke_u	u	n/a
5.7545	0.135	11509	keystroke_m	m	n/a
5.7845	0.1495	11569	keystroke_p	p	n/a
5.873	0.151	11746	keystroke_s	s	n/a
5.949	0.134	11898	keystroke_Key.space	Key.space	n/a
6.069	0.1355	12138	keystroke_o	o	n/a
6.114	0.1345	12228	keystroke_v	v	n/a
6.2645	0.192	12529	keystroke_e	e	n/a
6.366	0.15	12732	keystroke_r	r	n/a
6.4405	0.1355	12881	keystroke_Key.space	Key.space	n/a
6.5615	0.0735	13123	keystroke_a	a	n/a
6.666	0.12	13332	keystroke_Key.space	Key.space	n/a
6.711	0.107	13422	keystroke_a	a	n/a
7.2675	0.0895	14535	keystroke_Key.backspace	Key.backspace	n/a
7.5235	0.1345	15047	keystroke_l	l	n/a
7.673	0.045	15346	keystroke_a	a	n/a
7.838	0.105	15676	keystroke_z	z	n/a
7.9135	0.1045	15827	keystroke_y	y	n/a
7.973	0.1495	15946	keystroke_Key.space	Key.space	n/a
8.093	0.12	16186	keystroke_d	d	n/a
8.1525	0.12	16305	keystroke_o	o	n/a
8.303	0.075	16606	keystroke_g	g	n/a
8.7085	0.0895	17417	keystroke_Key.enter	Key.enter	n/a
8.8085	4.101	17617	prompt	n/a	perspective canvas readers middle\n
9.413	0.135	18826	keystroke_p	p	n/a
9.5335	0.134	19067	keystroke_e	e	n/a
9.593	0.135	19186	keystroke_r	r	n/a
9.7875	0.105	19575	keystroke_s	s	n/a
9.8775	0.1205	19755	keystroke_p	p	n/a
9.983	0.15	19966	keystroke_e	e	n/a
10.058	0.0895	20116	keystroke_c	c	n/a
10.268	0.0455	20536	keystroke_t	t	n/a
10.3425	0.1205	20685	keystroke_i	i	n/a
10.478	0.1355	20956	keystroke_v	v	n/a
10.5535	0.1345	21107	keystroke_e	e	n/a
10.643	0.15	21286	keystroke_Key.space	Key.space	n/a
10.778	0.12	21556	keystroke_c	c	n/a
10.8535	0.1345	21707	keystroke_a	a	n/a
10.9425	0.121	21885	keystroke_n	n	n/a
11.0325	0.135	22065	keystroke_v	v	n/a
11.1535	0.1645	22307	keystroke_a	a	n/a
11.243	0.1495	22486	keystroke_s	s	n/a
11.363	0.135	22726	keystroke_Key.space	Key.space	n/a
11.438	0.135	22876	keystroke_r	r	n/a
11.5125	0.166	23025	keystroke_e	e	n/a
11.5885	0.15	23177	keystroke_a	a	n/a
11.6935	0.1345	23387	keystroke_d	d	n/a
11.798	0.15	23596	keystroke_e	e	n/a
11.9325	0.1655	23865	keystroke_r	r	n/a
12.038	0.135	24076	keystroke_s	s	n/a
12.113	0.1195	24226	keystroke_Key.space	Key.space	n/a
12.1885	0.1345	24377	keystroke_m	m	n/a
12.263	0.105	24526	keystroke_i	i	n/a
12.3085	0.1045	24617	keystroke_d	d	n/a
12.458	0.12	24916	keystroke_d	d	n/a
12.563	0.105	25126	keystroke_l	l	n/a
12.698	0.09	25396	keystroke_e	e	n/a
12.8175	0.09	25635	keystroke_Key.enter	Key.enter	n/a
12.914	5.1715	25828	prompt	n/a	seniors obligations effects operations\n
13.4185	0.12	26837	keystroke_s	s	n/a
13.688	0.135	27376	keystroke_e	e	n/a
13.808	0.1805	27616	keystroke_n	n	n/a
13.9135	0.1645	27827	keystroke_i	i	n/a
14.003	0.15	28006	keystroke_o	o	n/a
14.168	0.18	28336	keystroke_r	r	n/a
14.288	0.135	28576	keystroke_s	s	n/a
14.378	0.135	28756	keystroke_Key.space	Key.space	n/a
14.559	0.1345	29118	keystroke_o	o	n/a
14.6635	0.12	29327	keystroke_b	b	n/a
14.9785	0.1795	29957	keystroke_l	l	n/a
15.098	0.105	30196	keystroke_i	i	n/a
15.203	0.1205	30406	keystroke_g	g	n/a
15.338	0.135	30676	keystroke_a	a	n/a
15.413	0.1355	30826	keystroke_t	t	n/a
15.518	0.21	31036	keystroke_i	i	n/a
15.563	0.12	31126	keystroke_o	o	n/a
15.638	0.1505	31276	keystroke_n	n	n/a
15.7135	0.1495	31427	keystroke_s	s	n/a
15.803	0.12	31606	keystroke_Key.space	Key.space	n/a
15.938	0.1195	31876	keystroke_e	e	n/a
16.028	0.075	32056	keystroke_f	f	n/a
16.178	0.0755	32356	keystroke_f	f	n/a
16.238	0.1655	32476	keystroke_e	e	n/a
16.3435	0.1195	32687	keystroke_c	c	n/a
16.598	0.1355	33196	keystroke_t	t	n/a
16.6735	0.1345	33347	keystroke_s	s	n/a
16.748	0.12	33496	keystroke_Key.space	Key.space	n/a
16.958	0.21	33916	keystroke_o	o	n/a
17.048	0.15	34096	keystroke_p	p	n/a
17.1235	0.1345	34247	keystroke_e	e	n/a
17.182	0.106	34364	keystroke_r	r	n/a
17.3185	0.1195	34637	keystroke_a	a	n/a
17.393	0.12	34786	keystroke_t	t	n/a
17.468	0.21	34936	keystroke_i	i	n/a
17.543	0.12	35086	keystroke_o	o	n/a
17.618	0.135	35236	keystroke_n	n	n/a
17.783	0.09	35566	keystroke_s	s	n/a
18.008	0.075	36016	keystroke_Key.enter	Key.enter	n/a
18.0895	5.996	36179	prompt	n/a	professionals double creator pour\n
18.758	0.1205	37516	keystroke_p	p	n/a
18.8625	0.106	37725	keystroke_r	r	n/a
18.9525	0.1055	37905	keystroke_o	o	n/a
19.0735	0.1195	38147	keystroke_f	f	n/a
19.118	0.1205	38236	keystroke_e	e	n/a
19.178	0.0905	38356	keystroke_s	s	n/a
19.358	0.075	38716	keystroke_s	s	n/a
19.3885	0.1945	38777	keystroke_i	i	n/a
19.4335	0.1195	38867	keystroke_o	o	n/a
19.5235	0.1345	39047	keystroke_n	n	n/a
19.628	0.1055	39256	keystroke_a	a	n/a
19.7175	0.1205	39435	keystroke_l	l	n/a
19.868	0.165	39736	keystroke_s	s	n/a
20.198	0.12	40396	keystroke_Key.space	Key.space	n/a
20.558	0.1205	41116	keystroke_d	d	n/a
20.6475	0.1355	41295	keystroke_o	o	n/a
20.738	0.1055	41476	keystroke_u	u	n/a
20.828	0.105	41656	keystroke_b	b	n/a
20.9485	0.12	41897	keystroke_l	l	n/a
21.0235	0.1345	42047	keystroke_e	e	n/a
21.098	0.105	42196	keystroke_Key.space	Key.space	n/a
21.2485	0.12	42497	keystroke_c	c	n/a
21.473	0.105	42946	keystroke_r	r	n/a
21.5335	0.119	43067	keystroke_e	e	n/a
21.593	0.1495	43186	keystroke_a	a	n/a
21.683	0.121	43366	keystroke_t	t	n/a
22.583	0.105	45166	keystroke_o	o	n/a
22.7185	0.12	45437	keystroke_r	r	n/a
22.8985	0.135	45797	keystroke_Key.space	Key.space	n/a
23.213	0.135	46426	keystroke_p	p	n/a
23.378	0.075	46756	keystroke_o	o	n/a
23.678	0.0905	47356	keystroke_u	u	n/a
23.813	0.105	47626	keystroke_r	r	n/a
23.9925	0.0905	47985	keystroke_Key.enter	Key.enter	n/a
24.09	3.955	48180	prompt	n/a	xanax valley iron first\n
24.8785	0.1345	49757	keystroke_x	x	n/a
25.0885	0.1045	50177	keystroke_a	a	n/a
25.2075	0.1055	50415	keystroke_n	n	n/a
25.283	0.195	50566	keystroke_a	a	n/a
25.4935	0.1645	50987	keystroke_x	x	n/a
25.6275	0.1505	51255	keystroke_Key.space	Key.space	n/a
25.838	0.105	51676	keystroke_v	v	n/a
25.928	0.12	51856	keystroke_a	a	n/a
26.033	0.045	52066	keystroke_l	l	n/a
26.138	0.105	52276	keystroke_l	l	n/a
26.3035	0.1045	52607	keystroke_e	e	n/a
26.378	0.135	52756	keystroke_y	y	n/a
26.558	0.12	53116	keystroke_Key.space	Key.space	n/a
26.903	0.165	53806	keystroke_i	i	n/a
27.083	0.105	54166	keystroke_r	r	n/a
27.158	0.1055	54316	keystroke_o	o	n/a
27.2335	0.135	54467	keystroke_n	n	n/a
27.3225	0.1355	54645	keystroke_Key.space	Key.space	n/a
27.4725	0.076	54945	keystroke_f	f	n/a
27.5335	0.1195	55067	keystroke_i	i	n/a
27.638	0.0905	55276	keystroke_r	r	n/a
27.7135	0.135	55427	keystroke_s	s	n/a
27.8335	0.0895	55667	keystroke_t	t	n/a
27.968	0.075	55936	keystroke_Key.enter	Key.enter	n/a
28.0505	4.9905	56101	prompt	n/a	medium assessed moderator charles\n
28.778	0.12	57556	keystroke_m	m	n/a
28.838	0.1505	57676	keystroke_e	e	n/a
28.928	0.15	57856	keystroke_d	d	n/a
29.0335	0.0895	58067	keystroke_i	i	n/a
29.243	0.0905	58486	keystroke_u	u	n/a
29.423	0.1355	58846	keystroke_m	m	n/a
29.5135	0.18	59027	keystroke_Key.space	Key.space	n/a
29.6035	0.12	59207	keystroke_a	a	n/a
29.6785	0.105	59357	keystroke_s	s	n/a
29.9025	0.1055	59805	keystroke_s	s	n/a
29.9925	0.1355	59985	keystroke_e	e	n/a
30.098	0.1055	60196	keystroke_s	s	n/a
30.2635	0.1645	60527	keystroke_s	s	n/a
30.368	0.2555	60736	keystroke_e	e	n/a
30.5025	0.196	61005	keystroke_d	d	n/a
30.6375	0.1505	61275	keystroke_Key.space	Key.space	n/a
30.863	0.165	61726	keystroke_m	m	n/a
30.9535	0.12	61907	keystroke_o	o	n/a
30.9835	0.135	61967	keystroke_d	d	n/a
31.1035	0.1645	62207	keystroke_e	e	n/a
31.238	0.1055	62476	keystroke_r	r	n/a
31.328	0.165	62656	keystroke_a	a	n/a
31.448	0.135	62896	keystroke_t	t	n/a
31.8985	0.12	63797	keystroke_o	o	n/a
32.0335	0.1495	64067	keystroke_r	r	n/a
32.138	0.135	64276	keystroke_Key.space	Key.space	n/a
32.288	0.1505	64576	keystroke_c	c	n/a
32.3485	0.1195	64697	keystroke_h	h	n/a
32.4825	0.1205	64965	keystroke_a	a	n/a
32.573	0.075	65146	keystroke_r	r	n/a
32.648	0.1205	65296	keystroke_l	l	n/a
32.783	0.1055	65566	keystroke_e	e	n/a
32.8135	0.12	65627	keystroke_s	s	n/a
32.9635	0.074	65927	keystroke_Key.enter	Key.enter	n/a
33.0475	5.2125	66095	prompt	n/a	laptops classroom sports fraction\n
33.6535	0.104	67307	keystroke_l	l	n/a
33.7725	0.0905	67545	keystroke_a	a	n/a
33.8475	0.0905	67695	keystroke_p	p	n/a
33.9685	0.075	67937	keystroke_t	t	n/a
34.0275	0.196	68055	keystroke_o	o	n/a
34.1025	0.121	68205	keystroke_p	p	n/a
34.1775	0.151	68355	keystroke_s	s	n/a
34.2375	0.135	68475	keystroke_Key.space	Key.space	n/a
34.3585	0.12	68717	keystroke_c	c	n/a
34.4335	0.1055	68867	keystroke_l	l	n/a
34.524	0.09	69048	keystroke_a	a	n/a
34.5535	0.12	69107	keystroke_s	s	n/a
34.733	0.12	69466	keystroke_s	s	n/a
34.838	0.105	69676	keystroke_r	r	n/a
34.913	0.0755	69826	keystroke_o	o	n/a
35.0635	0.135	70127	keystroke_o	o	n/a
35.138	0.1655	70276	keystroke_m	m	n/a
35.2585	0.119	70517	keystroke_Key.space	Key.space	n/a
35.3035	0.15	70607	keystroke_s	s	n/a
35.4085	0.12	70817	keystroke_p	p	n/a
35.5125	0.1655	71025	keystroke_a	a	n/a
35.588	0.285	71176	keystroke_c	c	n/a
36.023	0.045	72046	keystroke_Key.backspace	Key.backspace	n/a
36.158	0.045	72316	keystroke_Key.backspace	Key.backspace	n/a
36.2785	0.1495	72557	keystroke_o	o	n/a
36.3985	0.1345	72797	keystroke_r	r	n/a
36.4735	0.18	72947	keystroke_t	t	n/a
36.623	0.12	73246	keystroke_s	s	n/a
36.6985	0.1195	73397	keystroke_Key.space	Key.space	n/a
37.2085	0.135	74417	keystroke_f	f	n/a
37.2835	0.135	74567	keystroke_r	r	n/a
37.3585	0.15	74717	keystroke_a	a	n/a
37.4635	0.09	74927	keystroke_c	c	n/a
37.6585	0.09	75317	keystroke_t	t	n/a
37.7335	0.225	75467	keystroke_i	i	n/a
37.7785	0.135	75557	keystroke_o	o	n/a
37.8835	0.135	75767	keystroke_n	n	n/a
38.1835	0.075	76367	keystroke_Key.enter	Key.enter	n/a
38.264	3.752	76528	prompt	n/a	thing liable child consists\n
38.9935	0.1045	77987	keystroke_t	t	n/a
39.083	0.15	78166	keystroke_h	h	n/a
39.218	0.165	78436	keystroke_i	i	n/a
39.338	0.1205	78676	keystroke_n	n	n/a
39.398	0.12	78796	keystroke_g	g	n/a
39.473	0.1195	78946	keystroke_Key.space	Key.space	n/a
39.518	0.165	79036	keystroke_l	l	n/a
39.6085	0.12	79217	keystroke_i	i	n/a
39.713	0.1205	79426	keystroke_a	a	n/a
39.8485	0.1645	79697	keystroke_b	b	n/a
39.968	0.1505	79936	keystroke_l	l	n/a
40.133	0.105	80266	keystroke_e	e	n/a
40.178	0.1355	80356	keystroke_Key.space	Key.space	n/a
40.3735	0.1495	80747	keystroke_c	c	n/a
40.388	0.225	80776	keystroke_h	h	n/a
40.553	0.1955	81106	keystroke_i	i	n/a
40.628	0.1505	81256	keystroke_l	l	n/a
40.8085	0.1195	81617	keystroke_d	d	n/a
40.8535	0.1495	81707	keystroke_Key.space	Key.space	n/a
41.003	0.135	82006	keystroke_c	c	n/a
41.078	0.12	82156	keystroke_o	o	n/a
41.1535	0.1345	82307	keystroke_n	n	n/a
41.288	0.06	82576	keystroke_s	s	n/a
41.363	0.1205	82726	keystroke_i	i	n/a
41.453	0.09	82906	keystroke_s	s	n/a
41.5885	0.12	83177	keystroke_t	t	n/a
41.678	0.1055	83356	keystroke_s	s	n/a
41.9035	0.105	83807	keystroke_Key.enter	Key.enter	n/a
42.018	5.2125	84036	prompt	n/a	ferry preservation robust remains\n
42.5325	0.121	85065	keystroke_f	f	n/a
42.623	0.15	85246	keystroke_e	e	n/a
42.7585	0.09	85517	keystroke_r	r	n/a
42.908	0.1205	85816	keystroke_r	r	n/a
42.9835	0.09	85967	keystroke_y	y	n/a
43.088	0.1355	86176	keystroke_Key.space	Key.space	n/a
43.1775	0.136	86355	keystroke_p	p	n/a
43.2525	0.166	86505	keystroke_r	r	n/a
43.3285	0.12	86657	keystroke_e	e	n/a
43.4035	0.21	86807	keystroke_s	s	n/a
43.5385	0.135	87077	keystroke_e	e	n/a
43.5835	0.104	87167	keystroke_r	r	n/a
43.7935	0.09	87587	keystroke_v	v	n/a
43.9135	0.135	87827	keystroke_a	a	n/a
44.0035	0.12	88007	keystroke_t	t	n/a
44.1085	0.315	88217	keystroke_i	i	n/a
44.2285	0.135	88457	keystroke_o	o	n/a
44.3485	0.135	88697	keystroke_n	n	n/a
44.4535	0.1195	88907	keystroke_Key.space	Key.space	n/a
44.663	0.12	89326	keystroke_r	r	n/a
44.723	0.15	89446	keystroke_o	o	n/a
44.843	0.195	89686	keystroke_b	b	n/a
44.948	0.1355	89896	keystroke_u	u	n/a
45.3085	0.105	90617	keystroke_s	s	n/a
45.3835	0.12	90767	keystroke_t	t	n/a
45.4885	0.135	90977	keystroke_Key.space	Key.space	n/a
45.5785	0.15	91157	keystroke_r	r	n/a
45.6535	0.165	91307	keystroke_e	e	n/a
45.7885	0.195	91577	keystroke_m	m	n/a
46.238	0.12	92476	keystroke_i	i	n/a
46.5375	0.076	93075	keystroke_Key.backspace	Key.backspace	n/a
46.6735	0.09	93347	keystroke_a	a	n/a
46.7485	0.135	93497	keystroke_i	i	n/a
46.8385	0.105	93677	keystroke_n	n	n/a
46.9585	0.09	93917	keystroke_s	s	n/a
47.1685	0.0595	94337	keystroke_Key.enter	Key.enter	n/a
47.2355	4.3445	94471	prompt	n/a	loan amendment traditional confused\n
47.889	0.164	95778	keystroke_l	l	n/a
47.978	0.135	95956	keystroke_o	o	n/a
48.143	0.12	96286	keystroke_a	a	n/a
48.248	0.135	96496	keystroke_n	n	n/a
48.3235	0.1645	96647	keystroke_Key.space	Key.space	n/a
48.4435	0.1045	96887	keystroke_a	a	n/a
48.503	0.12	97006	keystroke_m	m	n/a
48.623	0.12	97246	keystroke_e	e	n/a
48.7585	0.09	97517	keystroke_n	n	n/a
48.8185	0.15	97637	keystroke_d	d	n/a
48.9825	0.121	97965	keystroke_m	m	n/a
49.1185	0.119	98237	keystroke_e	e	n/a
49.2235	0.119	98447	keystroke_n	n	n/a
49.3585	0.12	98717	keystroke_t	t	n/a
49.448	0.1495	98896	keystroke_Key.space	Key.space	n/a
49.583	0.1345	99166	keystroke_t	t	n/a
49.6425	0.121	99285	keystroke_r	r	n/a
49.7185	0.165	99437	keystroke_a	a	n/a
49.868	0.15	99736	keystroke_d	d	n/a
49.9735	0.059	99947	keystroke_i	i	n/a
50.0775	0.136	100155	keystroke_t	t	n/a
50.1975	0.165	100395	keystroke_i	i	n/a
50.2285	0.105	100457	keystroke_o	o	n/a
50.2885	0.15	100577	keystroke_n	n	n/a
50.4075	0.09	100815	keystroke_a	a	n/a
50.4835	0.105	100967	keystroke_l	l	n/a
50.558	0.135	101116	keystroke_Key.space	Key.space	n/a
50.6785	0.1355	101357	keystroke_c	c	n/a
50.753	0.1205	101506	keystroke_o	o	n/a
50.828	0.1355	101656	keystroke_n	n	n/a
50.9485	0.1345	101897	keystroke_f	f	n/a
51.0385	0.12	102077	keystroke_u	u	n/a
51.1435	0.1795	102287	keystroke_s	s	n/a
51.2485	0.1495	102497	keystroke_e	e	n/a
51.338	0.15	102676	keystroke_d	d	n/a
51.518	0.06	103036	keystroke_Key.enter	Key.enter	n/a
51.585	8.6945	103170	prompt	n/a	illustrations licence spies repeat\n
52.2235	0.0745	104447	keystroke_i	i	n/a
52.6585	0.09	105317	keystroke_l	l	n/a
52.9435	0.0595	105887	keystroke_l	l	n/a
52.9585	0.1195	105917	keystroke_u	u	n/a
53.0935	0.135	106187	keystroke_s	s	n/a
53.2435	0.15	106487	keystroke_t	t	n/a
53.3185	0.225	106637	keystroke_r	r	n/a
53.4385	0.15	106877	keystroke_a	a	n/a
53.5285	0.165	107057	keystroke_t	t	n/a
53.6785	0.2845	107357	keystroke_i	i	n/a
53.768	0.15	107536	keystroke_o	o	n/a
53.874	0.1645	107748	keystroke_n	n	n/a
54.0085	0.12	108017	keystroke_s	s	n/a
54.0685	0.1495	108137	keystroke_Key.space	Key.space	n/a
54.203	0.165	108406	keystroke_l	l	n/a
54.293	0.1355	108586	keystroke_i	i	n/a
54.3835	0.24	108767	keystroke_c	c	n/a
54.5335	0.1795	109067	keystroke_e	e	n/a
54.6985	0.1345	109397	keystroke_n	n	n/a
54.983	0.165	109966	keystroke_c	c	n/a
55.073	0.18	110146	keystroke_e	e	n/a
55.223	0.15	110446	keystroke_Key.space	Key.space	n/a
57.535	0.058	115070	keystroke_s	s	n/a
57.5485	0.1945	115097	keystroke_p	p	n/a
57.758	0.1955	115516	keystroke_i	i	n/a
57.954	0.239	115908	keystroke_e	e	n/a
58.0885	0.1495	116177	keystroke_s	s	n/a
58.3135	0.15	116627	keystroke_Key.space	Key.space	n/a
58.4785	0.164	116957	keystroke_t	t	n/a
58.5685	0.105	117137	keystroke_r	r	n/a
59.2135	0.015	118427	keystroke_Key.backspace	Key.backspace	n/a
59.333	0.06	118666	keystroke_Key.backspace	Key.backspace	n/a
59.513	0.135	119026	keystroke_r	r	n/a
59.5585	0.1195	119117	keystroke_e	e	n/a
59.663	0.135	119326	keystroke_p	p	n/a
59.783	0.2105	119566	keystroke_e	e	n/a
59.8885	0.135	119777	keystroke_a	a	n/a
59.978	0.1205	119956	keystroke_t	t	n/a
60.1735	0.1045	120347	keystroke_Key.enter	Key.enter	n/a
60.2845	5.5755	120569	prompt	n/a	recovered options curtis fees\n
60.818	0.1055	121636	keystroke_r	r	n/a
60.878	0.12	121756	keystroke_e	e	n/a
61.0285	0.1355	122057	keystroke_o	o	n/a
61.0885	0.105	122177	keystroke_c	c	n/a
61.373	0.075	122746	keystroke_v	v	n/a
61.5535	0.045	123107	keystroke_Key.backspace	Key.backspace	n/a
61.6885	0.06	123377	keystroke_Key.backspace	Key.backspace	n/a
61.8085	0.075	123617	keystroke_Key.backspace	Key.backspace	n/a
61.9285	0.105	123857	keystroke_c	c	n/a
62.0185	0.12	124037	keystroke_o	o	n/a
62.1085	0.15	124217	keystroke_v	v	n/a
62.2135	0.1795	124427	keystroke_e	e	n/a
62.3485	0.1495	124697	keystroke_r	r	n/a
62.798	0.1805	125596	keystroke_e	e	n/a
62.9185	0.18	125837	keystroke_d	d	n/a
63.0835	0.1645	126167	keystroke_Key.space	Key.space	n/a
63.3085	0.2095	126617	keystroke_o	o	n/a
63.428	0.1205	126856	keystroke_p	p	n/a
63.549	0.119	127098	keystroke_t	t	n/a
63.668	0.24	127336	keystroke_i	i	n/a
63.728	0.1205	127456	keystroke_o	o	n/a
63.833	0.1355	127666	keystroke_n	n	n/a
63.893	0.1655	127786	keystroke_s	s	n/a
63.9385	0.1495	127877	keystroke_Key.space	Key.space	n/a
64.0735	0.12	128147	keystroke_c	c	n/a
64.2085	0.105	128417	keystroke_u	u	n/a
64.2985	0.12	128597	keystroke_r	r	n/a
64.6725	0.106	129345	keystroke_t	t	n/a
64.7935	0.105	129587	keystroke_i	i	n/a
64.943	0.12	129886	keystroke_s	s	n/a
65.018	0.105	130036	keystroke_Key.space	Key.space	n/a
65.0935	0.1345	130187	keystroke_f	f	n/a
65.1985	0.1195	130397	keystroke_e	e	n/a
65.408	0.1505	130816	keystroke_e	e	n/a
65.483	0.1205	130966	keystroke_s	s	n/a
65.768	0.09	131536	keystroke_Key.enter	Key.enter	n/a
65.8635	6.7765	131727	prompt	n/a	pichunter zimbabwe savannah wiley\n
66.5785	0.1055	133157	keystroke_p	p	n/a
66.7435	0.1345	133487	keystroke_i	i	n/a
66.8635	0.1795	133727	keystroke_c	c	n/a
67.058	0.1205	134116	keystroke_h	h	n/a
67.134	0.1645	134268	keystroke_u	u	n/a
67.2835	0.15	134567	keystroke_n	n	n/a
67.4185	0.1195	134837	keystroke_t	t	n/a
67.553	0.1655	135106	keystroke_e	e	n/a
67.628	0.1345	135256	keystroke_r	r	n/a
67.703	0.165	135406	keystroke_Key.space	Key.space	n/a
67.914	0.1795	135828	keystroke_z	z	n/a
68.0785	0.135	136157	keystroke_i	i	n/a
68.138	0.1205	136276	keystroke_m	m	n/a
68.3935	0.06	136787	keystroke_b	b	n/a
68.4835	0.119	136967	keystroke_a	a	n/a
68.5875	0.105	137175	keystroke_b	b	n/a
68.8585	0.15	137717	keystroke_w	w	n/a
68.9485	0.1345	137897	keystroke_e	e	n/a
69.803	0.1505	139606	keystroke_Key.space	Key.space	n/a
70.0135	0.135	140027	keystroke_s	s	n/a
70.178	0.105	140356	keystroke_a	a	n/a
70.2985	0.1645	140597	keystroke_v	v	n/a
70.418	0.1055	140836	keystroke_a	a	n/a
70.7485	0.06	141497	keystroke_n	n	n/a
70.8835	0.09	141767	keystroke_n	n	n/a
71.0035	0.09	142007	keystroke_a	a	n/a
71.0935	0.12	142187	keystroke_h	h	n/a
71.2575	0.1355	142515	keystroke_Key.space	Key.space	n/a
71.423	0.0905	142846	keystroke_v	v	n/a
71.693	0.075	143386	keystroke_Key.backspace	Key.backspace	n/a
71.828	0.09	143656	keystroke_w	w	n/a
71.8885	0.225	143777	keystroke_i	i	n/a
71.994	0.149	143988	keystroke_l	l	n/a
72.128	0.0755	144256	keystroke_e	e	n/a
72.218	0.0895	144436	keystroke_y	y	n/a
72.5335	0.1045	145067	keystroke_Key.enter	Key.enter	n/a
72.644	6.896	145288	prompt	n/a	prints attacked marriott resource\n
73.2535	0.105	146507	keystroke_p	p	n/a
73.3885	0.12	146777	keystroke_r	r	n/a
73.4925	0.181	146985	keystroke_i	i	n/a
73.6285	0.15	147257	keystroke_n	n	n/a
73.6885	0.1495	147377	keystroke_t	t	n/a
73.808	0.166	147616	keystroke_s	s	n/a
73.853	0.165	147706	keystroke_Key.space	Key.space	n/a
74.0335	0.135	148067	keystroke_a	a	n/a
74.1235	0.0905	148247	keystroke_t	t	n/a
74.3185	0.1345	148637	keystroke_t	t	n/a
74.4385	0.165	148877	keystroke_a	a	n/a
74.6185	0.15	149237	keystroke_c	c	n/a
74.7835	0.1495	149567	keystroke_j	j	n/a
74.948	0.1655	149896	keystroke_e	e	n/a
75.0085	0.1795	150017	keystroke_d	d	n/a
75.2775	0.09	150555	keystroke_Key.backspace	Key.backspace	n/a
75.4275	0.075	150855	keystroke_Key.backspace	Key.backspace	n/a
75.5475	0.0755	151095	keystroke_Key.backspace	Key.backspace	n/a
75.7135	0.12	151427	keystroke_k	k	n/a
75.8335	0.134	151667	keystroke_e	e	n/a
75.8775	0.151	151755	keystroke_d	d	n/a
76.0435	0.149	152087	keystroke_Key.space	Key.space	n/a
76.3725	0.121	152745	keystroke_m	m	n/a
76.478	0.105	152956	keystroke_a	a	n/a
76.539	0.1045	153078	keystroke_r	r	n/a
76.7485	0.105	153497	keystroke_r	r	n/a
76.9735	0.135	153947	keystroke_i	i	n/a
77.2435	0.1045	154487	keystroke_o	o	n/a
77.4085	0.0595	154817	keystroke_t	t	n/a
77.543	0.1195	155086	keystroke_t	t	n/a
77.8285	0.134	155657	keystroke_Key.space	Key.space	n/a
77.9475	0.18	155895	keystroke_r	r	n/a
78.0235	0.18	156047	keystroke_e	e	n/a
78.1885	0.15	156377	keystroke_s	s	n/a
78.2785	0.18	156557	keystroke_o	o	n/a
78.3835	0.135	156767	keystroke_u	u	n/a
78.473	0.1205	156946	keystroke_r	r	n/a
78.7585	0.18	157517	keystroke_c	c	n/a
78.8785	0.12	157757	keystroke_e	e	n/a
79.4475	0.091	158895	keystroke_Key.enter	Key.enter	n/a
79.545	5.5755	159090	prompt	n/a	slots computed genetics everything\n
80.1835	0.119	160367	keystroke_s	s	n/a
80.3185	0.21	160637	keystroke_l	l	n/a
80.4535	0.15	160907	keystroke_o	o	n/a
80.5585	0.135	161117	keystroke_t	t	n/a
80.6335	0.135	161267	keystroke_s	s	n/a
80.6785	0.135	161357	keystroke_Key.space	Key.space	n/a
80.8435	0.135	161687	keystroke_c	c	n/a
80.9335	0.18	161867	keystroke_o	o	n/a
81.0995	0.1635	162199	keystroke_m	m	n/a
81.2785	0.165	162557	keystroke_p	p	n/a
81.383	0.165	162766	keystroke_u	u	n/a
81.533	0.135	163066	keystroke_t	t	n/a
81.698	0.2705	163396	keystroke_e	e	n/a
81.8785	0.195	163757	keystroke_d	d	n/a
82.0435	0.12	164087	keystroke_Key.space	Key.space	n/a
82.2685	0.12	164537	keystroke_g	g	n/a
82.3585	0.105	164717	keystroke_e	e	n/a
82.4485	0.0905	164897	keystroke_n	n	n/a
82.5835	0.1345	165167	keystroke_e	e	n/a
82.6585	0.1195	165317	keystroke_r	r	n/a
82.958	0.0905	165916	keystroke_Key.backspace	Key.backspace	n/a
83.1075	0.091	166215	keystroke_t	t	n/a
83.2285	0.12	166457	keystroke_i	i	n/a
83.3785	0.165	166757	keystroke_c	c	n/a
83.4835	0.1505	166967	keystroke_s	s	n/a
83.6785	0.12	167357	keystroke_Key.space	Key.space	n/a
83.8735	0.074	167747	keystroke_e	e	n/a
84.0525	0.151	168105	keystroke_v	v	n/a
84.1425	0.165	168285	keystroke_e	e	n/a
84.2335	0.1345	168467	keystroke_r	r	n/a
84.323	0.09	168646	keystroke_y	y	n/a
84.4435	0.105	168887	keystroke_t	t	n/a
84.5185	0.074	169037	keystroke_h	h	n/a
84.578	0.1505	169156	keystroke_i	i	n/a
84.683	0.135	169366	keystroke_n	n	n/a
84.848	0.075	169696	keystroke_g	g	n/a
85.028	0.09	170056	keystroke_Key.enter	Key.enter	n/a
85.1275	3.0075	170255	prompt	n/a	disco filling test bali\n
85.7485	0.1195	171497	keystroke_d	d	n/a
85.823	0.1205	171646	keystroke_i	i	n/a
85.958	0.105	171916	keystroke_s	s	n/a
86.033	0.135	172066	keystroke_c	c	n/a
86.1385	0.09	172277	keystroke_o	o	n/a
86.243	0.1205	172486	keystroke_Key.space	Key.space	n/a
86.333	0.12	172666	keystroke_f	f	n/a
86.379	0.1195	172758	keystroke_i	i	n/a
86.453	0.09	172906	keystroke_l	l	n/a
86.6185	0.1495	173237	keystroke_l	l	n/a
86.693	0.165	173386	keystroke_i	i	n/a
86.7835	0.1345	173567	keystroke_n	n	n/a
86.8735	0.0895	173747	keystroke_g	g	n/a
86.933	0.1505	173866	keystroke_Key.space	Key.space	n/a
87.0975	0.121	174195	keystroke_t	t	n/a
87.1585	0.2245	174317	keystroke_e	e	n/a
87.2475	0.196	174495	keystroke_s	s	n/a
87.338	0.09	174676	keystroke_t	t	n/a
87.413	0.09	174826	keystroke_Key.space	Key.space	n/a
87.548	0.12	175096	keystroke_b	b	n/a
87.638	0.165	175276	keystroke_a	a	n/a
87.698	0.135	175396	keystroke_l	l	n/a
87.788	0.105	175576	keystroke_i	i	n/a
88.028	0.1055	176056	keystroke_Key.enter	Key.enter	n/a
88.1405	5.65	176281	prompt	n/a	destroy screening carnival mark\n
88.7035	0.195	177407	keystroke_d	d	n/a
88.8085	0.135	177617	keystroke_e	e	n/a
88.8985	0.105	177797	keystroke_s	s	n/a
89.0335	0.12	178067	keystroke_t	t	n/a
89.1085	0.135	178217	keystroke_r	r	n/a
89.7685	0.105	179537	keystroke_o	o	n/a
89.9485	0.12	179897	keystroke_y	y	n/a
90.0835	0.18	180167	keystroke_Key.space	Key.space	n/a
90.2025	0.136	180405	keystroke_s	s	n/a
90.5035	0.105	181007	keystroke_c	c	n/a
90.728	0.1055	181456	keystroke_r	r	n/a
90.7885	0.075	181577	keystroke_e	e	n/a
90.953	0.1355	181906	keystroke_e	e	n/a
91.0735	0.105	182147	keystroke_n	n	n/a
91.133	0.1955	182266	keystroke_i	i	n/a
91.298	0.1505	182596	keystroke_n	n	n/a
91.4635	0.0895	182927	keystroke_g	g	n/a
91.538	0.1355	183076	keystroke_Key.space	Key.space	n/a
91.778	0.135	183556	keystroke_c	c	n/a
91.914	0.1495	183828	keystroke_a	a	n/a
92.048	0.09	184096	keystroke_r	r	n/a
92.5135	0.1945	185027	keystroke_n	n	n/a
92.6625	0.135	185325	keystroke_i	i	n/a
92.8125	0.136	185625	keystroke_v	v	n/a
92.918	0.135	185836	keystroke_a	a	n/a
93.0235	0.09	186047	keystroke_l	l	n/a
93.158	0.105	186316	keystroke_Key.space	Key.space	n/a
93.2785	0.0895	186557	keystroke_m	m	n/a
93.353	0.1055	186706	keystroke_a	a	n/a
93.398	0.1355	186796	keystroke_r	r	n/a
93.4885	0.1345	186977	keystroke_k	k	n/a
93.713	0.075	187426	keystroke_Key.enter	Key.enter	n/a
93.7985	5.4665	187597	prompt	n/a	expressions innovations princeton charged\n
94.3875	0.121	188775	keystroke_e	e	n/a
94.5385	0.15	189077	keystroke_x	x	n/a
94.689	0.119	189378	keystroke_p	p	n/a
94.824	0.149	189648	keystroke_r	r	n/a
94.8985	0.135	189797	keystroke_e	e	n/a
94.9885	0.075	189977	keystroke_s	s	n/a
95.1235	0.12	190247	keystroke_s	s	n/a
95.1985	0.254	190397	keystroke_i	i	n/a
95.2735	0.135	190547	keystroke_o	o	n/a
95.3625	0.121	190725	keystroke_n	n	n/a
95.4375	0.121	190875	keystroke_s	s	n/a
95.4985	0.1645	190997	keystroke_Key.space	Key.space	n/a
95.694	0.134	191388	keystroke_i	i	n/a
95.813	0.0905	191626	keystroke_n	n	n/a
95.9785	0.15	191957	keystroke_n	n	n/a
96.053	0.105	192106	keystroke_o	o	n/a
96.113	0.165	192226	keystroke_v	v	n/a
96.248	0.1355	192496	keystroke_a	a	n/a
96.3685	0.105	192737	keystroke_t	t	n/a
96.413	0.2855	192826	keystroke_i	i	n/a
96.503	0.15	193006	keystroke_o	o	n/a
96.623	0.1495	193246	keystroke_n	n	n/a
96.758	0.135	193516	keystroke_s	s	n/a
96.833	0.1355	193666	keystroke_Key.space	Key.space	n/a
97.0435	0.135	194087	keystroke_p	p	n/a
97.1635	0.105	194327	keystroke_r	r	n/a
97.2835	0.1355	194567	keystroke_i	i	n/a
97.3585	0.1505	194717	keystroke_n	n	n/a
97.4635	0.165	194927	keystroke_c	c	n/a
97.5975	0.1205	195195	keystroke_e	e	n/a
97.808	0.09	195616	keystroke_t	t	n/a
97.914	0.1495	195828	keystroke_o	o	n/a
98.018	0.1355	196036	keystroke_n	n	n/a
98.093	0.1055	196186	keystroke_Key.space	Key.space	n/a
98.2435	0.135	196487	keystroke_c	c	n/a
98.348	0.135	196696	keystroke_h	h	n/a
98.4385	0.1495	196877	keystroke_a	a	n/a
98.5285	0.0745	197057	keystroke_r	r	n/a
98.708	0.1205	197416	keystroke_g	g	n/a
98.8885	0.1645	197777	keystroke_e	e	n/a
98.9785	0.15	197957	keystroke_d	d	n/a
99.158	0.105	198316	keystroke_Key.enter	Key.enter	n/a
99.27	4.225	198540	prompt	n/a	relating ring charming intersection\n
99.8635	0.15	199727	keystroke_r	r	n/a
99.9385	0.1345	199877	keystroke_e	e	n/a
100.0285	0.105	200057	keystroke_l	l	n/a
100.149	0.1195	200298	keystroke_a	a	n/a
100.2085	0.105	200417	keystroke_t	t	n/a
100.2695	0.149	200539	keystroke_i	i	n/a
100.3285	0.135	200657	keystroke_n	n	n/a
100.4035	0.135	200807	keystroke_g	g	n/a
100.4935	0.1505	200987	keystroke_Key.space	Key.space	n/a
100.5985	0.1045	201197	keystroke_r	r	n/a
100.6735	0.1355	201347	keystroke_i	i	n/a
100.7635	0.1045	201527	keystroke_n	n	n/a
100.824	0.104	201648	keystroke_g	g	n/a
100.913	0.12	201826	keystroke_Key.space	Key.space	n/a
101.063	0.1055	202126	keystroke_c	c	n/a
101.108	0.1055	202216	keystroke_h	h	n/a
101.2135	0.1355	202427	keystroke_a	a	n/a
101.3035	0.135	202607	keystroke_r	r	n/a
101.4085	0.12	202817	keystroke_m	m	n/a
101.4985	0.1795	202997	keystroke_i	i	n/a
101.6185	0.1495	203237	keystroke_n	n	n/a
101.7385	0.105	203477	keystroke_g	g	n/a
101.813	0.12	203626	keystroke_Key.space	Key.space	n/a
101.9785	0.1345	203957	keystroke_i	i	n/a
102.053	0.1355	204106	keystroke_n	n	n/a
102.128	0.105	204256	keystroke_t	t	n/a
102.218	0.1355	204436	keystroke_e	e	n/a
102.3235	0.1195	204647	keystroke_r	r	n/a
102.518	0.15	205036	keystroke_s	s	n/a
102.6235	0.135	205247	keystroke_e	e	n/a
102.699	0.089	205398	keystroke_c	c	n/a
102.9235	0.0895	205847	keystroke_t	t	n/a
102.998	0.195	205996	keystroke_i	i	n/a
103.0585	0.1195	206117	keystroke_o	o	n/a
103.1335	0.1195	206267	keystroke_n	n	n/a
103.4185	0.0745	206837	keystroke_Key.enter	Key.enter	n/a
103.4985	6.836	206997	prompt	n/a	simplified laser susan hostels\n
104.0785	0.105	208157	keystroke_s	s	n/a
104.198	0.135	208396	keystroke_i	i	n/a
104.288	0.105	208576	keystroke_m	m	n/a
104.4235	0.1645	208847	keystroke_p	p	n/a
104.543	0.09	209086	keystroke_l	l	n/a
104.7385	0.105	209477	keystroke_i	i	n/a
105.0685	0.135	210137	keystroke_f	f	n/a
105.1585	0.12	210317	keystroke_i	i	n/a
105.2785	0.165	210557	keystroke_e	e	n/a
105.3685	0.135	210737	keystroke_d	d	n/a
105.4585	0.1495	210917	keystroke_Key.space	Key.space	n/a
105.5785	0.135	211157	keystroke_l	l	n/a
105.6985	0.105	211397	keystroke_a	a	n/a
105.7585	0.18	211517	keystroke_s	s	n/a
105.8485	0.135	211697	keystroke_e	e	n/a
105.9235	0.15	211847	keystroke_r	r	n/a
106.0135	0.135	212027	keystroke_Key.space	Key.space	n/a
106.0885	0.09	212177	keystroke_s	s	n/a
106.1635	0.105	212327	keystroke_u	u	n/a
106.2835	0.105	212567	keystroke_s	s	n/a
106.374	0.1345	212748	keystroke_t	t	n/a
106.4785	0.135	212957	keystroke_a	a	n/a
106.628	0.165	213256	keystroke_i	i	n/a
106.748	0.135	213496	keystroke_n	n	n/a
107.108	0.075	214216	keystroke_Key.backspace	Key.backspace	n/a
107.273	0.06	214546	keystroke_Key.backspace	Key.backspace	n/a
107.4085	0.03	214817	keystroke_Key.backspace	Key.backspace	n/a
107.498	0.09	214996	keystroke_Key.backspace	Key.backspace	n/a
108.1735	0.1195	216347	keystroke_a	a	n/a
108.278	0.135	216556	keystroke_n	n	n/a
108.563	0.1355	217126	keystroke_Key.space	Key.space	n/a
108.818	0.1505	217636	keystroke_h	h	n/a
108.8935	0.12	217787	keystroke_o	o	n/a
108.998	0.121	217996	keystroke_s	s	n/a
109.0735	0.165	218147	keystroke_t	t	n/a
109.4635	0.105	218927	keystroke_e	e	n/a
109.6885	0.119	219377	keystroke_l	l	n/a
109.9125	0.09	219825	keystroke_s	s	n/a
110.2425	0.09	220485	keystroke_Key.enter	Key.enter	n/a
110.338	6.432	220676	prompt	n/a	mysql demands innovations availability\n
111.0235	0.119	222047	keystroke_m	m	n/a
111.248	0.135	222496	keystroke_y	y	n/a
111.4735	0.119	222947	keystroke_s	s	n/a
111.7735	0.119	223547	keystroke_q	q	n/a
111.998	0.12	223996	keystroke_l	l	n/a
112.133	0.135	224266	keystroke_Key.space	Key.space	n/a
112.268	0.165	224536	keystroke_d	d	n/a
112.3735	0.135	224747	keystroke_e	e	n/a
112.463	0.1055	224926	keystroke_m	m	n/a
112.5835	0.105	225167	keystroke_a	a	n/a
112.6725	0.1055	225345	keystroke_n	n	n/a
112.7635	0.195	225527	keystroke_d	d	n/a
112.8525	0.1815	225705	keystroke_s	s	n/a
113.108	0.15	226216	keystroke_Key.space	Key.space	n/a
113.3185	0.135	226637	keystroke_i	i	n/a
113.4085	0.089	226817	keystroke_n	n	n/a
113.5735	0.15	227147	keystroke_n	n	n/a
113.6485	0.12	227297	keystroke_o	o	n/a
113.7385	0.105	227477	keystroke_v	v	n/a
113.8285	0.15	227657	keystroke_a	a	n/a
113.9635	0.135	227927	keystroke_t	t	n/a
114.0385	0.24	228077	keystroke_i	i	n/a
114.0835	0.12	228167	keystroke_o	o	n/a
114.1885	0.149	228377	keystroke_n	n	n/a
114.2335	0.135	228467	keystroke_s	s	n/a
114.3225	0.106	228645	keystroke_Key.space	Key.space	n/a
114.4435	0.12	228887	keystroke_a	a	n/a
114.5785	0.1195	229157	keystroke_v	v	n/a
114.683	0.1055	229366	keystroke_a	a	n/a
114.848	0.1355	229696	keystroke_i	i	n/a
115.2685	0.1045	230537	keystroke_l	l	n/a
115.658	0.135	231316	keystroke_a	a	n/a
115.778	0.1495	231556	keystroke_b	b	n/a
115.9435	0.15	231887	keystroke_i	i	n/a
116.0945	0.149	232189	keystroke_l	l	n/a
116.1985	0.165	232397	keystroke_i	i	n/a
116.3485	0.15	232697	keystroke_t	t	n/a
116.4085	0.15	232817	keystroke_y	y	n/a
116.6785	0.09	233357	keystroke_Key.enter	Key.enter	n/a
116.774	3.326	233548	prompt	n/a	don't is hugo clark\n
117.6235	0.15	235247	keystroke_d	d	n/a
117.6985	0.105	235397	keystroke_o	o	n/a
117.759	0.179	235518	keystroke_n	n	n/a
117.923	0.165	235846	keystroke_'	'	n/a
118.103	0.15	236206	keystroke_t	t	n/a
118.193	0.12	236386	keystroke_Key.space	Key.space	n/a
118.253	0.1205	236506	keystroke_i	i	n/a
118.3735	0.15	236747	keystroke_s	s	n/a
118.4485	0.1195	236897	keystroke_Key.space	Key.space	n/a
118.6285	0.18	237257	keystroke_h	h	n/a
118.7335	0.1345	237467	keystroke_u	u	n/a
118.883	0.135	237766	keystroke_g	g	n/a
118.988	0.1055	237976	keystroke_o	o	n/a
119.1085	0.12	238217	keystroke_Key.space	Key.space	n/a
119.423	0.135	238846	keystroke_c	c	n/a
119.513	0.12	239026	keystroke_l	l	n/a
119.648	0.12	239296	keystroke_a	a	n/a
119.723	0.135	239446	keystroke_r	r	n/a
119.783	0.135	239566	keystroke_k	k	n/a
120.008	0.09	240016	keystroke_Key.enter	Key.enter	n/a
120.104	13.046	240208	prompt	n/a	girls interpretation conferencing holidays\n
120.7735	0.12	241547	keystroke_g	g	n/a
120.8625	0.105	241725	keystroke_i	i	n/a
120.9535	0.105	241907	keystroke_r	r	n/a
121.0735	0.09	242147	keystroke_l	l	n/a
121.2075	0.12	242415	keystroke_Key.space	Key.space	n/a
121.5975	0.106	243195	keystroke_Key.backspace	Key.backspace	n/a
121.7785	0.1495	243557	keystroke_s	s	n/a
121.8975	0.121	243795	keystroke_Key.space	Key.space	n/a
122.0335	0.1645	244067	keystroke_i	i	n/a
122.1235	0.165	244247	keystroke_n	n	n/a
122.5125	0.151	245025	keystroke_t	t	n/a
122.753	0.1655	245506	keystroke_e	e	n/a
122.858	0.105	245716	keystroke_r	r	n/a
122.978	0.135	245956	keystroke_p	p	n/a
123.098	0.1655	246196	keystroke_r	r	n/a
123.1425	0.226	246285	keystroke_e	e	n/a
123.2485	0.149	246497	keystroke_s	s	n/a
123.3835	0.165	246767	keystroke_t	t	n/a
123.5785	0.104	247157	keystroke_a	a	n/a
123.8025	0.0755	247605	keystroke_Key.backspace	Key.backspace	n/a
123.9375	0.0755	247875	keystroke_Key.backspace	Key.backspace	n/a
124.073	0.105	248146	keystroke_Key.backspace	Key.backspace	n/a
124.1485	0.12	248297	keystroke_t	t	n/a
124.2835	0.1345	248567	keystroke_a	a	n/a
124.358	0.15	248716	keystroke_t	t	n/a
124.478	0.2855	248956	keystroke_i	i	n/a
124.5535	0.15	249107	keystroke_o	o	n/a
124.6735	0.195	249347	keystroke_n	n	n/a
124.8825	0.1505	249765	keystroke_Key.space	Key.space	n/a
125.0785	0.12	250157	keystroke_c	c	n/a
125.1385	0.1495	250277	keystroke_o	o	n/a
125.2285	0.15	250457	keystroke_n	n	n/a
125.3635	0.09	250727	keystroke_f	f	n/a
125.4685	0.1345	250937	keystroke_e	e	n/a
125.588	0.15	251176	keystroke_r	r	n/a
125.708	0.195	251416	keystroke_e	e	n/a
125.888	0.135	251776	keystroke_c	c	n/a
126.068	0.165	252136	keystroke_i	i	n/a
126.158	0.1505	252316	keystroke_n	n	n/a
126.263	0.15	252526	keystroke_g	g	n/a
126.383	0.105	252766	keystroke_Key.space	Key.space	n/a
126.5325	0.1505	253065	keystroke_h	h	n/a
126.5935	0.104	253187	keystroke_o	o	n/a
126.8325	0.165	253665	keystroke_l	l	n/a
126.9075	0.136	253815	keystroke_i	i	n/a
127.028	0.1655	254056	keystroke_d	d	n/a
127.118	0.1345	254236	keystroke_a	a	n/a
127.2085	0.1345	254417	keystroke_y	y	n/a
127.3725	0.105	254745	keystroke_s	s	n/a
127.988	0.045	255976	keystroke_Key.backspace	Key.backspace	n/a
128.123	0.06	256246	keystroke_Key.backspace	Key.backspace	n/a
128.243	0.06	256486	keystroke_Key.backspace	Key.backspace	n/a
128.393	0.045	256786	keystroke_Key.backspace	Key.backspace	n/a
128.528	0.045	257056	keystroke_Key.backspace	Key.backspace	n/a
128.633	0.075	257266	keystroke_Key.backspace	Key.backspace	n/a
128.753	0.09	257506	keystroke_Key.backspace	Key.backspace	n/a
128.9025	0.075	257805	keystroke_Key.backspace	Key.backspace	n/a
129.038	0.075	258076	keystroke_Key.backspace	Key.backspace	n/a
129.1725	0.0605	258345	keystroke_Key.backspace	Key.backspace	n/a
129.278	0.1045	258556	keystroke_Key.backspace	Key.backspace	n/a
129.4725	0.121	258945	keystroke_Key.backspace	Key.backspace	n/a
130.313	0.075	260626	keystroke_Key.backspace	Key.backspace	n/a
131.2435	0.105	262487	keystroke_n	n	n/a
131.408	0.15	262816	keystroke_c	c	n/a
131.543	0.12	263086	keystroke_i	i	n/a
131.603	0.135	263206	keystroke_n	n	n/a
131.753	0.135	263506	keystroke_g	g	n/a
131.828	0.15	263656	keystroke_Key.space	Key.space	n/a
132.023	0.135	264046	keystroke_h	h	n/a
132.173	0.09	264346	keystroke_o	o	n/a
132.3835	0.149	264767	keystroke_l	l	n/a
132.4585	0.1045	264917	keystroke_i	i	n/a
132.548	0.1805	265096	keystroke_d	d	n/a
132.6535	0.135	265307	keystroke_a	a	n/a
132.7435	0.105	265487	keystroke_y	y	n/a
132.9085	0.09	265817	keystroke_s	s	n/a
133.0735	0.075	266147	keystroke_Key.enter	Key.enter	n/a
133.1545	5.141	266309	prompt	n/a	widespread trusted strange you'd\n
133.688	0.1045	267376	keystroke_w	w	n/a
133.7625	0.106	267525	keystroke_i	i	n/a
133.8525	0.196	267705	keystroke_d	d	n/a
133.9575	0.1805	267915	keystroke_e	e	n/a
134.4835	0.134	268967	keystroke_s	s	n/a
134.5735	0.119	269147	keystroke_p	p	n/a
134.6785	0.15	269357	keystroke_r	r	n/a
134.7375	0.286	269475	keystroke_e	e	n/a
134.843	0.1955	269686	keystroke_a	a	n/a
135.0235	0.1195	270047	keystroke_d	d	n/a
135.113	0.135	270226	keystroke_Key.space	Key.space	n/a
135.3085	0.1345	270617	keystroke_t	t	n/a
135.383	0.15	270766	keystroke_r	r	n/a
135.503	0.135	271006	keystroke_u	u	n/a
135.608	0.12	271216	keystroke_s	s	n/a
135.6835	0.1645	271367	keystroke_t	t	n/a
135.863	0.24	271726	keystroke_e	e	n/a
135.998	0.195	271996	keystroke_d	d	n/a
136.133	0.15	272266	keystroke_Key.space	Key.space	n/a
136.298	0.1205	272596	keystroke_s	s	n/a
136.388	0.165	272776	keystroke_t	t	n/a
136.478	0.15	272956	keystroke_r	r	n/a
136.538	0.1655	273076	keystroke_a	a	n/a
136.673	0.135	273346	keystroke_n	n	n/a
136.778	0.165	273556	keystroke_g	g	n/a
136.898	0.15	273796	keystroke_e	e	n/a
137.033	0.075	274066	keystroke_Key.space	Key.space	n/a
137.123	0.135	274246	keystroke_y	y	n/a
137.243	0.135	274486	keystroke_o	o	n/a
137.3635	0.165	274727	keystroke_u	u	n/a
137.618	0.1495	275236	keystroke_'	'	n/a
137.7685	0.1045	275537	keystroke_d	d	n/a
138.2175	0.075	276435	keystroke_Key.enter	Key.enter	n/a
138.298	3.147	276596	prompt	n/a	ball can't care hunt\n
138.9385	0.1345	277877	keystroke_b	b	n/a
139.0275	0.1505	278055	keystroke_a	a	n/a
139.088	0.075	278176	keystroke_l	l	n/a
139.2235	0.1195	278447	keystroke_l	l	n/a
139.283	0.1505	278566	keystroke_Key.space	Key.space	n/a
139.4335	0.165	278867	keystroke_c	c	n/a
139.5385	0.105	279077	keystroke_a	a	n/a
139.5835	0.18	279167	keystroke_n	n	n/a
139.7485	0.135	279497	keystroke_'	'	n/a
139.8685	0.135	279737	keystroke_t	t	n/a
139.9425	0.166	279885	keystroke_Key.space	Key.space	n/a
140.1535	0.135	280307	keystroke_c	c	n/a
140.2585	0.15	280517	keystroke_a	a	n/a
140.4085	0.1645	280817	keystroke_r	r	n/a
140.4985	0.164	280997	keystroke_e	e	n/a
140.588	0.1345	281176	keystroke_Key.space	Key.space	n/a
140.7675	0.12	281535	keystroke_h	h	n/a
140.8575	0.1655	281715	keystroke_u	u	n/a
140.993	0.1195	281986	keystroke_n	n	n/a
141.1285	0.089	282257	keystroke_t	t	n/a
141.338	0.105	282676	keystroke_Key.enter	Key.enter	n/a
141.4505	7.3595	282901	prompt	n/a	specifies facility diagnostic retrieve\n
142.013	0.1055	284026	keystroke_s	s	n/a
142.1025	0.106	284205	keystroke_p	p	n/a
142.4335	0.165	284867	keystroke_e	e	n/a
142.5685	0.15	285137	keystroke_c	c	n/a
142.733	0.135	285466	keystroke_i	i	n/a
142.9125	0.1355	285825	keystroke_f	f	n/a
143.0625	0.1355	286125	keystroke_i	i	n/a
143.2285	0.164	286457	keystroke_e	e	n/a
143.348	0.1055	286696	keystroke_s	s	n/a
143.5725	0.135	287145	keystroke_Key.space	Key.space	n/a
143.7675	0.151	287535	keystroke_f	f	n/a
143.9035	0.15	287807	keystroke_a	a	n/a
144.0235	0.165	288047	keystroke_c	c	n/a
144.128	0.1345	288256	keystroke_i	i	n/a
144.2785	0.15	288557	keystroke_l	l	n/a
144.4125	0.06	288825	keystroke_i	i	n/a
144.5635	0.104	289127	keystroke_i	i	n/a
145.028	0.09	290056	keystroke_Key.backspace	Key.backspace	n/a
145.238	0.18	290476	keystroke_t	t	n/a
145.3435	0.1195	290687	keystroke_y	y	n/a
145.6275	0.1655	291255	keystroke_Key.space	Key.space	n/a
146.033	0.15	292066	keystroke_d	d	n/a
146.2135	0.12	292427	keystroke_i	i	n/a
146.3785	0.165	292757	keystroke_a	a	n/a
146.4825	0.1655	292965	keystroke_g	g	n/a
146.633	0.165	293266	keystroke_n	n	n/a
146.709	0.149	293418	keystroke_o	o	n/a
146.843	0.135	293686	keystroke_s	s	n/a
146.933	0.1055	293866	keystroke_t	t	n/a
147.023	0.135	294046	keystroke_i	i	n/a
147.1735	0.135	294347	keystroke_c	c	n/a
147.293	0.12	294586	keystroke_Key.space	Key.space	n/a
147.4285	0.1195	294857	keystroke_r	r	n/a
147.488	0.1355	294976	keystroke_e	e	n/a
147.6835	0.1495	295367	keystroke_t	t	n/a
147.7435	0.1795	295487	keystroke_r	r	n/a
147.878	0.15	295756	keystroke_i	i	n/a
148.238	0.09	296476	keystroke_e	e	n/a
148.388	0.135	296776	keystroke_v	v	n/a
148.478	0.105	296956	keystroke_e	e	n/a
148.7325	0.075	297465	keystroke_Key.enter	Key.enter	n/a
148.815	5.2025	297630	prompt	n/a	communities murray identical clean\n
149.303	0.1945	298606	keystroke_c	c	n/a
149.3935	0.15	298787	keystroke_o	o	n/a
149.5135	0.075	299027	keystroke_m	m	n/a
149.693	0.0895	299386	keystroke_m	m	n/a
149.768	0.1355	299536	keystroke_u	u	n/a
149.8885	0.21	299777	keystroke_n	n	n/a
150.038	0.105	300076	keystroke_i	i	n/a
150.1575	0.105	300315	keystroke_t	t	n/a
150.2485	0.134	300497	keystroke_i	i	n/a
150.3675	0.196	300735	keystroke_e	e	n/a
150.458	0.1645	300916	keystroke_s	s	n/a
150.5635	0.1495	301127	keystroke_Key.space	Key.space	n/a
150.698	0.105	301396	keystroke_m	m	n/a
150.863	0.1205	301726	keystroke_u	u	n/a
150.9535	0.0745	301907	keystroke_r	r	n/a
151.103	0.12	302206	keystroke_r	r	n/a
151.178	0.1355	302356	keystroke_a	a	n/a
151.2685	0.12	302537	keystroke_y	y	n/a
151.4175	0.1205	302835	keystroke_Key.space	Key.space	n/a
151.5685	0.1045	303137	keystroke_i	i	n/a
151.658	0.165	303316	keystroke_d	d	n/a
151.778	0.135	303556	keystroke_e	e	n/a
151.883	0.1205	303766	keystroke_n	n	n/a
152.513	0.105	305026	keystroke_t	t	n/a
152.633	0.12	305266	keystroke_i	i	n/a
152.783	0.15	305566	keystroke_c	c	n/a
152.903	0.18	305806	keystroke_a	a	n/a
153.0385	0.1045	306077	keystroke_l	l	n/a
153.128	0.15	306256	keystroke_Key.space	Key.space	n/a
153.353	0.165	306706	keystroke_c	c	n/a
153.4585	0.089	306917	keystroke_l	l	n/a
153.5325	0.165	307065	keystroke_e	e	n/a
153.6225	0.1355	307245	keystroke_a	a	n/a
153.713	0.0905	307426	keystroke_n	n	n/a
153.9235	0.0895	307847	keystroke_Key.enter	Key.enter	n/a
154.024	6.5605	308048	prompt	n/a	celebrities northeast restaurant does\n
154.6435	0.1345	309287	keystroke_c	c	n/a
154.823	0.1055	309646	keystroke_e	e	n/a
155.1685	0.104	310337	keystroke_l	l	n/a
155.3475	0.135	310695	keystroke_e	e	n/a
155.4675	0.121	310935	keystroke_b	b	n/a
155.6035	0.105	311207	keystroke_r	r	n/a
155.723	0.09	311446	keystroke_i	i	n/a
155.828	0.0895	311656	keystroke_t	t	n/a
155.9325	0.12	311865	keystroke_i	i	n/a
156.0525	0.195	312105	keystroke_e	e	n/a
156.1575	0.1505	312315	keystroke_s	s	n/a
156.3375	0.12	312675	keystroke_Key.space	Key.space	n/a
156.908	0.1955	313816	keystroke_n	n	n/a
156.9835	0.135	313967	keystroke_o	o	n/a
157.1485	0.15	314297	keystroke_r	r	n/a
157.6285	0.1195	315257	keystroke_t	t	n/a
157.7635	0.119	315527	keystroke_h	h	n/a
157.8835	0.179	315767	keystroke_e	e	n/a
158.0035	0.195	316007	keystroke_a	a	n/a
158.1385	0.165	316277	keystroke_s	s	n/a
158.2575	0.1205	316515	keystroke_t	t	n/a
158.3475	0.1655	316695	keystroke_Key.space	Key.space	n/a
158.468	0.15	316936	keystroke_r	r	n/a
158.5275	0.226	317055	keystroke_e	e	n/a
158.603	0.1795	317206	keystroke_s	s	n/a
158.768	0.1205	317536	keystroke_t	t	n/a
159.3085	0.12	318617	keystroke_a	a	n/a
159.4135	0.12	318827	keystroke_u	u	n/a
159.5175	0.135	319035	keystroke_r	r	n/a
159.5785	0.165	319157	keystroke_a	a	n/a
159.7135	0.12	319427	keystroke_n	n	n/a
159.8335	0.12	319667	keystroke_t	t	n/a
159.9225	0.166	319845	keystroke_Key.space	Key.space	n/a
160.0735	0.105	320147	keystroke_d	d	n/a
160.1485	0.12	320297	keystroke_o	o	n/a
160.2385	0.15	320477	keystroke_e	e	n/a
160.3125	0.121	320625	keystroke_s	s	n/a
160.4775	0.105	320955	keystroke_Key.enter	Key.enter	n/a
160.589	4.5105	321178	prompt	n/a	runtime metallic charge penalty\n
161.1375	0.1205	322275	keystroke_r	r	n/a
161.214	0.134	322428	keystroke_u	u	n/a
161.2885	0.12	322577	keystroke_n	n	n/a
161.4235	0.104	322847	keystroke_t	t	n/a
161.5125	0.12	323025	keystroke_i	i	n/a
161.5725	0.1505	323145	keystroke_m	m	n/a
161.678	0.12	323356	keystroke_e	e	n/a
161.738	0.135	323476	keystroke_Key.space	Key.space	n/a
161.828	0.15	323656	keystroke_m	m	n/a
161.933	0.105	323866	keystroke_e	e	n/a
162.0235	0.1195	324047	keystroke_t	t	n/a
162.444	0.119	324888	keystroke_a	a	n/a
162.533	0.075	325066	keystroke_l	l	n/a
162.6825	0.196	325365	keystroke_l	l	n/a
162.788	0.15	325576	keystroke_i	i	n/a
162.9385	0.15	325877	keystroke_c	c	n/a
163.0735	0.134	326147	keystroke_Key.space	Key.space	n/a
163.179	0.1645	326358	keystroke_c	c	n/a
163.2535	0.105	326507	keystroke_h	h	n/a
163.373	0.1655	326746	keystroke_a	a	n/a
163.4935	0.179	326987	keystroke_r	r	n/a
163.7035	0.1795	327407	keystroke_g	g	n/a
163.808	0.15	327616	keystroke_e	e	n/a
163.928	0.135	327856	keystroke_Key.space	Key.space	n/a
164.048	0.105	328096	keystroke_p	p	n/a
164.168	0.091	328336	keystroke_e	e	n/a
164.228	0.135	328456	keystroke_n	n	n/a
164.363	0.12	328726	keystroke_a	a	n/a
164.453	0.12	328906	keystroke_l	l	n/a
164.588	0.2095	329176	keystroke_t	t	n/a
164.723	0.1205	329446	keystroke_y	y	n/a
164.993	0.1045	329986	keystroke_Key.enter	Key.enter	n/a
165.1035	5.396	330207	prompt	n/a	american develop arise kurt\n
165.6675	0.1205	331335	keystroke_a	a	n/a
165.7425	0.151	331485	keystroke_m	m	n/a
165.8635	0.149	331727	keystroke_e	e	n/a
165.9375	0.1055	331875	keystroke_r	r	n/a
166.0585	0.12	332117	keystroke_i	i	n/a
166.193	0.165	332386	keystroke_c	c	n/a
166.328	0.12	332656	keystroke_a	a	n/a
166.433	0.1205	332866	keystroke_n	n	n/a
166.8375	0.135	333675	keystroke_Key.space	Key.space	n/a
167.0325	0.12	334065	keystroke_d	d	n/a
167.1085	0.104	334217	keystroke_e	e	n/a
167.288	0.1805	334576	keystroke_v	v	n/a
167.5125	0.1205	335025	keystroke_e	e	n/a
167.6935	0.195	335387	keystroke_l	l	n/a
167.7825	0.196	335565	keystroke_o	o	n/a
167.8585	0.15	335717	keystroke_p	p	n/a
168.0375	0.1505	336075	keystroke_Key.space	Key.space	n/a
168.3075	0.151	336615	keystroke_a	a	n/a
168.5185	0.134	337037	keystroke_r	r	n/a
168.6835	0.1495	337367	keystroke_i	i	n/a
169.1925	0.2105	338385	keystroke_s	s	n/a
169.3285	0.179	338657	keystroke_e	e	n/a
169.463	0.1345	338926	keystroke_Key.space	Key.space	n/a
169.703	0.1055	339406	keystroke_k	k	n/a
169.9135	0.1345	339827	keystroke_u	u	n/a
170.0175	0.12	340035	keystroke_r	r	n/a
170.0775	0.135	340155	keystroke_t	t	n/a
170.4225	0.075	340845	keystroke_Key.enter	Key.enter	n/a
170.505	4.2095	341010	prompt	n/a	cakes papua education shapes\n
171.068	0.18	342136	keystroke_c	c	n/a
171.173	0.15	342346	keystroke_a	a	n/a
171.2785	0.0895	342557	keystroke_k	k	n/a
171.4425	0.2105	342885	keystroke_e	e	n/a
171.533	0.15	343066	keystroke_s	s	n/a
171.638	0.165	343276	keystroke_Key.space	Key.space	n/a
171.848	0.075	343696	keystroke_p	p	n/a
171.9975	0.076	343995	keystroke_a	a	n/a
172.0425	0.09	344085	keystroke_p	p	n/a
172.238	0.1345	344476	keystroke_u	u	n/a
172.523	0.1055	345046	keystroke_a	a	n/a
172.7035	0.1495	345407	keystroke_Key.space	Key.space	n/a
172.958	0.1345	345916	keystroke_e	e	n/a
173.0175	0.1055	346035	keystroke_d	d	n/a
173.108	0.121	346216	keystroke_u	u	n/a
173.213	0.1055	346426	keystroke_c	c	n/a
173.3335	0.1495	346667	keystroke_a	a	n/a
173.4685	0.119	346937	keystroke_t	t	n/a
173.5275	0.226	347055	keystroke_i	i	n/a
173.6025	0.121	347205	keystroke_o	o	n/a
173.6625	0.1205	347325	keystroke_n	n	n/a
173.738	0.1195	347476	keystroke_Key.space	Key.space	n/a
173.7975	0.1205	347595	keystroke_s	s	n/a
173.8725	0.1355	347745	keystroke_h	h	n/a
173.9935	0.12	347987	keystroke_a	a	n/a
174.1285	0.1195	348257	keystroke_p	p	n/a
174.233	0.135	348466	keystroke_e	e	n/a
174.3075	0.1205	348615	keystroke_s	s	n/a
174.6225	0.0905	349245	keystroke_Key.enter	Key.enter	n/a
174.719	5.621	349438	prompt	n/a	officer clients cluster pockets\n
175.358	0.1205	350716	keystroke_o	o	n/a
175.4785	0.0595	350957	keystroke_f	f	n/a
175.613	0.1055	351226	keystroke_f	f	n/a
175.733	0.135	351466	keystroke_i	i	n/a
175.898	0.1795	351796	keystroke_c	c	n/a
176.0925	0.166	352185	keystroke_e	e	n/a
176.2275	0.105	352455	keystroke_r	r	n/a
176.3175	0.15	352635	keystroke_Key.space	Key.space	n/a
176.4825	0.106	352965	keystroke_c	c	n/a
176.543	0.195	353086	keystroke_l	l	n/a
176.678	0.12	353356	keystroke_i	i	n/a
176.8285	0.1045	353657	keystroke_e	e	n/a
176.963	0.1355	353926	keystroke_n	n	n/a
177.083	0.15	354166	keystroke_t	t	n/a
177.203	0.135	354406	keystroke_s	s	n/a
177.263	0.135	354526	keystroke_Key.space	Key.space	n/a
177.413	0.135	354826	keystroke_c	c	n/a
177.5035	0.1795	355007	keystroke_l	l	n/a
177.607	0.1365	355214	keystroke_u	u	n/a
177.758	0.165	355516	keystroke_s	s	n/a
177.968	0.135	355936	keystroke_t	t	n/a
178.178	0.2255	356356	keystroke_e	e	n/a
178.2685	0.164	356537	keystroke_r	r	n/a
178.4175	0.12	356835	keystroke_Key.space	Key.space	n/a
178.478	0.18	356956	keystroke_p	p	n/a
178.6135	0.1345	357227	keystroke_o	o	n/a
178.7185	0.1345	357437	keystroke_c	c	n/a
178.8675	0.12	357735	keystroke_k	k	n/a
178.9575	0.135	357915	keystroke_e	e	n/a
179.0775	0.135	358155	keystroke_t	t	n/a
179.1975	0.12	358395	keystroke_s	s	n/a
180.2625	0.075	360525	keystroke_Key.enter	Key.enter	n/a
180.344	4.6305	360688	prompt	n/a	network facilities felt child\n
180.8785	0.135	361757	keystroke_n	n	n/a
180.9685	0.12	361937	keystroke_e	e	n/a
181.028	0.1195	362056	keystroke_t	t	n/a
181.1635	0.09	362327	keystroke_w	w	n/a
181.1925	0.076	362385	keystroke_o	o	n/a
181.7775	0.105	363555	keystroke_r	r	n/a
181.868	0.1355	363736	keystroke_k	k	n/a
181.9725	0.165	363945	keystroke_Key.space	Key.space	n/a
182.1085	0.074	364217	keystroke_f	f	n/a
182.1975	0.151	364395	keystroke_a	a	n/a
182.3025	0.136	364605	keystroke_c	c	n/a
182.408	0.1345	364816	keystroke_i	i	n/a
182.5435	0.21	365087	keystroke_l	l	n/a
182.6935	0.225	365387	keystroke_i	i	n/a
183.173	0.105	366346	keystroke_t	t	n/a
183.308	0.15	366616	keystroke_i	i	n/a
183.4285	0.21	366857	keystroke_e	e	n/a
183.533	0.165	367066	keystroke_s	s	n/a
183.6385	0.1495	367277	keystroke_Key.space	Key.space	n/a
183.803	0.12	367606	keystroke_f	f	n/a
183.8785	0.1345	367757	keystroke_e	e	n/a
183.953	0.09	367906	keystroke_l	l	n/a
184.0585	0.105	368117	keystroke_t	t	n/a
184.1485	0.1495	368297	keystroke_Key.space	Key.space	n/a
184.2985	0.1195	368597	keystroke_c	c	n/a
184.3575	0.1955	368715	keystroke_h	h	n/a
184.4325	0.1955	368865	keystroke_i	i	n/a
184.5085	0.15	369017	keystroke_l	l	n/a
184.6435	0.12	369287	keystroke_d	d	n/a
184.8975	0.075	369795	keystroke_Key.enter	Key.enter	n/a
184.9785	5.411	369957	prompt	n/a	imposed require peoples legislature\n
185.6035	0.1195	371207	keystroke_i	i	n/a
185.663	0.165	371326	keystroke_m	m	n/a
185.813	0.1655	371626	keystroke_p	p	n/a
185.903	0.15	371806	keystroke_o	o	n/a
186.008	0.1805	372016	keystroke_s	s	n/a
186.098	0.165	372196	keystroke_e	e	n/a
186.189	0.134	372378	keystroke_d	d	n/a
186.293	0.12	372586	keystroke_Key.space	Key.space	n/a
186.428	0.15	372856	keystroke_r	r	n/a
186.5035	0.1645	373007	keystroke_e	e	n/a
186.653	0.1055	373306	keystroke_q	q	n/a
186.743	0.195	373486	keystroke_u	u	n/a
186.8475	0.106	373695	keystroke_i	i	n/a
186.9835	0.1795	373967	keystroke_r	r	n/a
187.103	0.1805	374206	keystroke_e	e	n/a
187.4175	0.136	374835	keystroke_Key.space	Key.space	n/a
187.823	0.09	375646	keystroke_p	p	n/a
187.928	0.165	375856	keystroke_e	e	n/a
188.048	0.1055	376096	keystroke_o	o	n/a
188.123	0.195	376246	keystroke_p	p	n/a
188.2575	0.18	376515	keystroke_l	l	n/a
188.3925	0.21	376785	keystroke_e	e	n/a
188.5425	0.12	377085	keystroke_s	s	n/a
188.6325	0.1205	377265	keystroke_Key.space	Key.space	n/a
188.693	0.1055	377386	keystroke_l	l	n/a
188.8125	0.106	377625	keystroke_e	e	n/a
189.0525	0.135	378105	keystroke_g	g	n/a
189.2025	0.121	378405	keystroke_i	i	n/a
189.3535	0.105	378707	keystroke_s	s	n/a
189.443	0.1505	378886	keystroke_l	l	n/a
189.5635	0.15	379127	keystroke_a	a	n/a
189.6685	0.12	379337	keystroke_t	t	n/a
189.8035	0.12	379607	keystroke_u	u	n/a
189.9235	0.1195	379847	keystroke_r	r	n/a
189.9825	0.135	379965	keystroke_e	e	n/a
190.2985	0.089	380597	keystroke_Key.enter	Key.enter	n/a
190.3925	4.5875	380785	prompt	n/a	nails kyle spray retailers\n
191.0325	0.135	382065	keystroke_n	n	n/a
191.153	0.12	382306	keystroke_a	a	n/a
191.2425	0.181	382485	keystroke_i	i	n/a
191.3335	0.149	382667	keystroke_l	l	n/a
191.6485	0.134	383297	keystroke_s	s	n/a
191.7975	0.12	383595	keystroke_Key.space	Key.space	n/a
192.293	0.1495	384586	keystroke_k	k	n/a
192.4275	0.12	384855	keystroke_y	y	n/a
192.578	0.12	385156	keystroke_l	l	n/a
192.653	0.165	385306	keystroke_e	e	n/a
192.758	0.135	385516	keystroke_Key.space	Key.space	n/a
192.833	0.135	385666	keystroke_s	s	n/a
192.953	0.0905	385906	keystroke_p	p	n/a
193.118	0.24	386236	keystroke_r	r	n/a
193.343	0.1195	386686	keystroke_a	a	n/a
193.4925	0.121	386985	keystroke_y	y	n/a
193.703	0.12	387406	keystroke_Key.space	Key.space	n/a
193.9585	0.1195	387917	keystroke_r	r	n/a
194.0185	0.1495	388037	keystroke_e	e	n/a
194.2585	0.1195	388517	keystroke_t	t	n/a
194.348	0.135	388696	keystroke_a	a	n/a
194.438	0.165	388876	keystroke_i	i	n/a
194.498	0.1655	388996	keystroke_l	l	n/a
194.5585	0.1345	389117	keystroke_e	e	n/a
194.648	0.135	389296	keystroke_r	r	n/a
194.753	0.12	389506	keystroke_s	s	n/a
194.903	0.0755	389806	keystroke_Key.enter	Key.enter	n/a
194.984	6.971	389968	prompt	n/a	unexpected hollywood enables inclusion\n
195.5785	0.164	391157	keystroke_u	u	n/a
195.7275	0.1355	391455	keystroke_n	n	n/a
195.8325	0.1055	391665	keystroke_e	e	n/a
195.9535	0.1345	391907	keystroke_x	x	n/a
196.103	0.12	392206	keystroke_p	p	n/a
196.1635	0.134	392327	keystroke_e	e	n/a
196.2385	0.104	392477	keystroke_c	c	n/a
196.4635	0.0895	392927	keystroke_t	t	n/a
196.5385	0.1945	393077	keystroke_e	e	n/a
196.6725	0.12	393345	keystroke_d	d	n/a
196.7475	0.15	393495	keystroke_Key.space	Key.space	n/a
196.8525	0.136	393705	keystroke_h	h	n/a
196.9285	0.089	393857	keystroke_o	o	n/a
197.108	0.1055	394216	keystroke_l	l	n/a
197.5575	0.136	395115	keystroke_l	l	n/a
197.6935	0.105	395387	keystroke_y	y	n/a
197.858	0.12	395716	keystroke_w	w	n/a
197.933	0.09	395866	keystroke_o	o	n/a
198.083	0.105	396166	keystroke_o	o	n/a
198.203	0.105	396406	keystroke_d	d	n/a
198.278	0.135	396556	keystroke_Key.space	Key.space	n/a
198.428	0.1205	396856	keystroke_e	e	n/a
198.518	0.1195	397036	keystroke_b	b	n/a
198.6535	0.104	397307	keystroke_a	a	n/a
198.8475	0.09	397695	keystroke_Key.backspace	Key.backspace	n/a
199.0875	0.0755	398175	keystroke_Key.backspace	Key.backspace	n/a
199.313	0.1205	398626	keystroke_n	n	n/a
199.403	0.1655	398806	keystroke_a	a	n/a
199.553	0.135	399106	keystroke_b	b	n/a
199.658	0.135	399316	keystroke_l	l	n/a
199.808	0.225	399616	keystroke_e	e	n/a
199.958	0.135	399916	keystroke_s	s	n/a
200.213	0.135	400426	keystroke_Key.space	Key.space	n/a
200.4985	0.0445	400997	keystroke_h	h	n/a
200.753	0.0745	401506	keystroke_Key.backspace	Key.backspace	n/a
200.9485	0.1345	401897	keystroke_i	i	n/a
201.0375	0.1205	402075	keystroke_n	n	n/a
201.2025	0.075	402405	keystroke_c	c	n/a
201.2325	0.1505	402465	keystroke_l	l	n/a
201.293	0.1195	402586	keystroke_u	u	n/a
201.3985	0.104	402797	keystroke_s	s	n/a
201.5035	0.164	403007	keystroke_i	i	n/a
201.5485	0.1045	403097	keystroke_o	o	n/a
201.6085	0.119	403217	keystroke_n	n	n/a
201.8475	0.1055	403695	keystroke_Key.enter	Key.enter	n/a
201.9585	10.5865	403917	prompt	n/a	autumn perry destination balloon\n
202.6425	0.105	405285	keystroke_a	a	n/a
203.2125	0.105	406425	keystroke_u	u	n/a
203.3625	0.15	406725	keystroke_t	t	n/a
203.6325	0.165	407265	keystroke_u	u	n/a
203.8725	0.12	407745	keystroke_m	m	n/a
204.083	0.1205	408166	keystroke_n	n	n/a
204.1725	0.12	408345	keystroke_Key.space	Key.space	n/a
204.278	0.1355	408556	keystroke_p	p	n/a
204.3535	0.119	408707	keystroke_e	e	n/a
204.4425	0.076	408885	keystroke_r	r	n/a
204.5785	0.1495	409157	keystroke_r	r	n/a
204.683	0.12	409366	keystroke_y	y	n/a
204.818	0.135	409636	keystroke_Key.space	Key.space	n/a
204.968	0.195	409936	keystroke_d	d	n/a
205.073	0.195	410146	keystroke_e	e	n/a
205.163	0.12	410326	keystroke_s	s	n/a
205.298	0.135	410596	keystroke_i	i	n/a
205.358	0.1505	410716	keystroke_n	n	n/a
205.523	0.135	411046	keystroke_a	a	n/a
205.613	0.1505	411226	keystroke_t	t	n/a
205.7335	0.2245	411467	keystroke_i	i	n/a
205.793	0.1195	411586	keystroke_o	o	n/a
205.8825	0.1505	411765	keystroke_n	n	n/a
205.9725	0.12	411945	keystroke_Key.space	Key.space	n/a
206.1825	0.105	412365	keystroke_b	b	n/a
206.2725	0.1355	412545	keystroke_a	a	n/a
206.3325	0.0755	412665	keystroke_l	l	n/a
206.4975	0.09	412995	keystroke_l	l	n/a
206.7375	0.076	413475	keystroke_o	o	n/a
206.9175	0.0905	413835	keystroke_o	o	n/a
207.337	0.061	414674	keystroke_Key.backspace	Key.backspace	n/a
207.487	0.061	414974	keystroke_Key.backspace	Key.backspace	n/a
207.653	0.044	415306	keystroke_Key.backspace	Key.backspace	n/a
207.803	0.03	415606	keystroke_Key.backspace	Key.backspace	n/a
207.923	0.06	415846	keystroke_Key.backspace	Key.backspace	n/a
208.118	0.015	416236	keystroke_Key.backspace	Key.backspace	n/a
208.208	0.075	416416	keystroke_Key.backspace	Key.backspace	n/a
208.358	0.06	416716	keystroke_Key.backspace	Key.backspace	n/a
208.5075	0.0605	417015	keystroke_Key.backspace	Key.backspace	n/a
208.6575	0.0605	417315	keystroke_Key.backspace	Key.backspace	n/a
208.808	0.06	417616	keystroke_Key.backspace	Key.backspace	n/a
208.958	0.09	417916	keystroke_Key.backspace	Key.backspace	n/a
209.078	0.09	418156	keystroke_Key.backspace	Key.backspace	n/a
209.453	0.09	418906	keystroke_Key.backspace	Key.backspace	n/a
209.648	0.15	419296	keystroke_t	t	n/a
209.7385	0.1345	419477	keystroke_i	i	n/a
209.8135	0.1195	419627	keystroke_n	n	n/a
209.903	0.12	419806	keystroke_a	a	n/a
209.963	0.1205	419926	keystroke_t	t	n/a
210.0375	0.18	420075	keystroke_i	i	n/a
210.098	0.1055	420196	keystroke_o	o	n/a
210.173	0.12	420346	keystroke_n	n	n/a
210.563	0.15	421126	keystroke_Key.space	Key.space	n/a
210.953	0.135	421906	keystroke_b	b	n/a
211.058	0.15	422116	keystroke_a	a	n/a
211.103	0.18	422206	keystroke_l	l	n/a
211.6435	0.06	423287	keystroke_l	l	n/a
211.8535	0.105	423707	keystroke_o	o	n/a
212.0475	0.135	424095	keystroke_o	o	n/a
212.153	0.1345	424306	keystroke_n	n	n/a
212.4525	0.09	424905	keystroke_Key.enter	Key.enter	n/a
212.551	6.309	425102	prompt	n/a	behavioral reports theory delta\n
213.323	0.1045	426646	keystroke_b	b	n/a
213.4885	0.149	426977	keystroke_e	e	n/a
213.6235	0.135	427247	keystroke_h	h	n/a
213.774	0.1335	427548	keystroke_a	a	n/a
213.8485	0.15	427697	keystroke_v	v	n/a
213.9375	0.1805	427875	keystroke_i	i	n/a
214.0135	0.1195	428027	keystroke_o	o	n/a
214.148	0.165	428296	keystroke_r	r	n/a
214.268	0.135	428536	keystroke_Key.space	Key.space	n/a
214.8825	0.075	429765	keystroke_Key.backspace	Key.backspace	n/a
215.063	0.1045	430126	keystroke_a	a	n/a
215.138	0.1205	430276	keystroke_l	l	n/a
215.2585	0.119	430517	keystroke_Key.space	Key.space	n/a
215.3625	0.15	430725	keystroke_r	r	n/a
215.4375	0.135	430875	keystroke_e	e	n/a
215.5275	0.181	431055	keystroke_p	p	n/a
215.6335	0.134	431267	keystroke_o	o	n/a
215.7095	0.1635	431419	keystroke_r	r	n/a
215.7975	0.181	431595	keystroke_t	t	n/a
215.9485	0.12	431897	keystroke_s	s	n/a
216.023	0.135	432046	keystroke_Key.space	Key.space	n/a
216.128	0.1495	432256	keystroke_t	t	n/a
216.2325	0.12	432465	keystroke_e	e	n/a
216.473	0.1505	432946	keystroke_h	h	n/a
216.608	0.1495	433216	keystroke_o	o	n/a
216.9375	0.076	433875	keystroke_Key.backspace	Key.backspace	n/a
217.072	0.061	434144	keystroke_Key.backspace	Key.backspace	n/a
217.193	0.075	434386	keystroke_Key.backspace	Key.backspace	n/a
217.373	0.1055	434746	keystroke_h	h	n/a
217.493	0.105	434986	keystroke_e	e	n/a
217.583	0.105	435166	keystroke_o	o	n/a
217.718	0.1205	435436	keystroke_r	r	n/a
217.8535	0.1195	435707	keystroke_y	y	n/a
217.987	0.1505	435974	keystroke_Key.space	Key.space	n/a
218.243	0.18	436486	keystroke_d	d	n/a
218.318	0.1505	436636	keystroke_e	e	n/a
218.423	0.0755	436846	keystroke_l	l	n/a
218.5575	0.1205	437115	keystroke_t	t	n/a
218.6485	0.105	437297	keystroke_a	a	n/a
218.813	0.045	437626	keystroke_Key.enter	Key.enter	n/a
218.864	4.2555	437728	prompt	n/a	blog wall anonymous fred\n
219.502	0.136	439004	keystroke_b	b	n/a
219.6835	0.2395	439367	keystroke_l	l	n/a
219.833	0.15	439666	keystroke_o	o	n/a
219.924	0.1635	439848	keystroke_g	g	n/a
220.028	0.1645	440056	keystroke_Key.space	Key.space	n/a
220.178	0.15	440356	keystroke_w	w	n/a
220.2525	0.151	440505	keystroke_a	a	n/a
220.3735	0.0445	440747	keystroke_l	l	n/a
220.478	0.1195	440956	keystroke_l	l	n/a
220.5825	0.12	441165	keystroke_Key.space	Key.space	n/a
220.6885	0.1045	441377	keystroke_a	a	n/a
220.7785	0.104	441557	keystroke_n	n	n/a
221.318	0.1495	442636	keystroke_o	o	n/a
221.393	0.1505	442786	keystroke_n	n	n/a
221.693	0.1055	443386	keystroke_y	y	n/a
221.9175	0.136	443835	keystroke_m	m	n/a
222.0225	0.196	444045	keystroke_o	o	n/a
222.1435	0.1495	444287	keystroke_u	u	n/a
222.2335	0.1495	444467	keystroke_s	s	n/a
222.3075	0.15	444615	keystroke_Key.space	Key.space	n/a
222.4135	0.119	444827	keystroke_f	f	n/a
222.623	0.1055	445246	keystroke_r	r	n/a
222.7135	0.1795	445427	keystroke_e	e	n/a
222.848	0.1355	445696	keystroke_d	d	n/a
223.0575	0.06	446115	keystroke_Key.enter	Key.enter	n/a
223.124	4.196	446248	prompt	n/a	horizon spears blogging timer\n
223.7635	0.1195	447527	keystroke_h	h	n/a
223.8385	0.09	447677	keystroke_o	o	n/a
224.078	0.12	448156	keystroke_r	r	n/a
224.2125	0.121	448425	keystroke_i	i	n/a
224.498	0.1355	448996	keystroke_z	z	n/a
224.5885	0.12	449177	keystroke_o	o	n/a
224.663	0.15	449326	keystroke_n	n	n/a
224.798	0.12	449596	keystroke_Key.space	Key.space	n/a
224.873	0.1195	449746	keystroke_s	s	n/a
224.948	0.1505	449896	keystroke_p	p	n/a
225.068	0.21	450136	keystroke_e	e	n/a
225.2035	0.195	450407	keystroke_a	a	n/a
225.368	0.1955	450736	keystroke_r	r	n/a
225.518	0.12	451036	keystroke_s	s	n/a
225.593	0.1195	451186	keystroke_Key.space	Key.space	n/a
225.8485	0.1045	451697	keystroke_b	b	n/a
225.953	0.15	451906	keystroke_l	l	n/a
226.043	0.1205	452086	keystroke_o	o	n/a
226.208	0.0605	452416	keystroke_g	g	n/a
226.3435	0.1195	452687	keystroke_g	g	n/a
226.478	0.135	452956	keystroke_i	i	n/a
226.538	0.135	453076	keystroke_n	n	n/a
226.598	0.105	453196	keystroke_g	g	n/a
226.688	0.135	453376	keystroke_Key.space	Key.space	n/a
226.793	0.105	453586	keystroke_t	t	n/a
226.853	0.12	453706	keystroke_i	i	n/a
226.9135	0.1345	453827	keystroke_m	m	n/a
227.003	0.1055	454006	keystroke_e	e	n/a
227.048	0.1195	454096	keystroke_r	r	n/a
227.2425	0.075	454485	keystroke_Key.enter	Key.enter	n/a
227.324	5.802	454648	prompt	n/a	panasonic lighting yahoo attract\n
227.873	0.15	455746	keystroke_p	p	n/a
228.113	0.105	456226	keystroke_a	a	n/a
228.218	0.135	456436	keystroke_n	n	n/a
228.338	0.105	456676	keystroke_a	a	n/a
228.473	0.1205	456946	keystroke_s	s	n/a
228.563	0.135	457126	keystroke_o	o	n/a
228.638	0.255	457276	keystroke_n	n	n/a
228.788	0.135	457576	keystroke_i	i	n/a
228.894	0.164	457788	keystroke_c	c	n/a
229.028	0.105	458056	keystroke_Key.space	Key.space	n/a
229.088	0.1645	458176	keystroke_l	l	n/a
229.1635	0.12	458327	keystroke_i	i	n/a
229.2385	0.089	458477	keystroke_g	g	n/a
229.3435	0.1195	458687	keystroke_h	h	n/a
229.418	0.1205	458836	keystroke_t	t	n/a
229.5235	0.135	459047	keystroke_i	i	n/a
229.613	0.1645	459226	keystroke_n	n	n/a
229.823	0.15	459646	keystroke_g	g	n/a
229.9575	0.1355	459915	keystroke_Key.space	Key.space	n/a
230.6635	0.119	461327	keystroke_y	y	n/a
230.7975	0.1355	461595	keystroke_a	a	n/a
230.9335	0.164	461867	keystroke_h	h	n/a
231.1425	0.0755	462285	keystroke_o	o	n/a
231.293	0.1345	462586	keystroke_o	o	n/a
231.578	0.1345	463156	keystroke_Key.space	Key.space	n/a
231.653	0.135	463306	keystroke_a	a	n/a
231.848	0.0905	463696	keystroke_t	t	n/a
232.028	0.1055	464056	keystroke_t	t	n/a
232.2085	0.165	464417	keystroke_r	r	n/a
232.3435	0.1645	464687	keystroke_a	a	n/a
232.5235	0.12	465047	keystroke_c	c	n/a
232.7935	0.0895	465587	keystroke_t	t	n/a
233.0475	0.075	466095	keystroke_Key.enter	Key.enter	n/a
233.129	3.881	466258	prompt	n/a	capture goods carrying fisher\n
233.9335	0.1045	467867	keystroke_c	c	n/a
233.978	0.165	467956	keystroke_a	a	n/a
234.023	0.105	468046	keystroke_p	p	n/a
234.2635	0.0595	468527	keystroke_t	t	n/a
234.368	0.1205	468736	keystroke_u	u	n/a
234.458	0.135	468916	keystroke_r	r	n/a
234.5335	0.1195	469067	keystroke_e	e	n/a
234.578	0.1495	469156	keystroke_Key.space	Key.space	n/a
234.7125	0.1055	469425	keystroke_g	g	n/a
234.7425	0.06	469485	keystroke_o	o	n/a
234.878	0.1355	469756	keystroke_o	o	n/a
234.9985	0.18	469997	keystroke_d	d	n/a
235.1025	0.136	470205	keystroke_s	s	n/a
235.1325	0.165	470265	keystroke_Key.space	Key.space	n/a
235.2525	0.151	470505	keystroke_c	c	n/a
235.388	0.1205	470776	keystroke_a	a	n/a
235.5225	0.0755	471045	keystroke_r	r	n/a
235.6435	0.134	471287	keystroke_r	r	n/a
235.7325	0.0605	471465	keystroke_y	y	n/a
235.8535	0.15	471707	keystroke_i	i	n/a
235.9575	0.181	471915	keystroke_n	n	n/a
236.048	0.1205	472096	keystroke_g	g	n/a
236.183	0.15	472366	keystroke_Key.space	Key.space	n/a
236.3185	0.104	472637	keystroke_f	f	n/a
236.3785	0.09	472757	keystroke_i	i	n/a
236.4975	0.0905	472995	keystroke_s	s	n/a
236.603	0.1055	473206	keystroke_h	h	n/a
236.6925	0.106	473385	keystroke_e	e	n/a
236.7535	0.12	473507	keystroke_r	r	n/a
236.9035	0.105	473807	keystroke_Key.enter	Key.enter	n/a
237.0135	6.7915	474027	prompt	n/a	visibility installation books brokers\n
237.5485	0.1195	475097	keystroke_v	v	n/a
237.653	0.105	475306	keystroke_i	i	n/a
237.788	0.0755	475576	keystroke_s	s	n/a
237.864	0.1345	475728	keystroke_i	i	n/a
238.0135	0.12	476027	keystroke_b	b	n/a
238.1185	0.135	476237	keystroke_i	i	n/a
238.1935	0.18	476387	keystroke_l	l	n/a
238.358	0.165	476716	keystroke_i	i	n/a
238.538	0.1955	477076	keystroke_t	t	n/a
238.658	0.1355	477316	keystroke_y	y	n/a
239.017	0.136	478034	keystroke_Key.space	Key.space	n/a
239.2275	0.1505	478455	keystroke_i	i	n/a
239.303	0.1355	478606	keystroke_n	n	n/a
239.468	0.105	478936	keystroke_s	s	n/a
239.558	0.1355	479116	keystroke_t	t	n/a
239.648	0.12	479296	keystroke_a	a	n/a
239.678	0.075	479356	keystroke_l	l	n/a
239.843	0.09	479686	keystroke_l	l	n/a
239.9475	0.136	479895	keystroke_a	a	n/a
240.023	0.1345	480046	keystroke_t	t	n/a
240.1285	0.239	480257	keystroke_i	i	n/a
240.1875	0.135	480375	keystroke_o	o	n/a
240.2785	0.135	480557	keystroke_n	n	n/a
240.4135	0.104	480827	keystroke_Key.space	Key.space	n/a
240.6085	0.1045	481217	keystroke_b	b	n/a
240.683	0.045	481366	keystroke_o	o	n/a
240.803	0.135	481606	keystroke_o	o	n/a
240.878	0.151	481756	keystroke_k	k	n/a
240.968	0.12	481936	keystroke_s	s	n/a
241.0435	0.104	482087	keystroke_Key.space	Key.space	n/a
241.178	0.1205	482356	keystroke_b	b	n/a
241.2825	0.1355	482565	keystroke_r	r	n/a
241.4185	0.06	482837	keystroke_o	o	n/a
241.538	0.1505	483076	keystroke_o	o	n/a
241.6125	0.1505	483225	keystroke_k	k	n/a
241.703	0.1355	483406	keystroke_e	e	n/a
242.0925	0.075	484185	keystroke_Key.backspace	Key.backspace	n/a
242.258	0.0445	484516	keystroke_Key.backspace	Key.backspace	n/a
242.3775	0.06	484755	keystroke_Key.backspace	Key.backspace	n/a
242.5135	0.134	485027	keystroke_k	k	n/a
242.633	0.1355	485266	keystroke_e	e	n/a
242.6935	0.165	485387	keystroke_r	r	n/a
242.7985	0.12	485597	keystroke_s	s	n/a
243.698	0.105	487396	keystroke_Key.enter	Key.enter	n/a
243.809	5.201	487618	prompt	n/a	planet habits idaho thank\n
244.4935	0.1495	488987	keystroke_p	p	n/a
244.568	0.1655	489136	keystroke_l	l	n/a
244.748	0.135	489496	keystroke_a	a	n/a
244.898	0.165	489796	keystroke_n	n	n/a
245.048	0.1655	490096	keystroke_e	e	n/a
245.1385	0.149	490277	keystroke_t	t	n/a
245.2275	0.1505	490455	keystroke_Key.space	Key.space	n/a
245.3625	0.15	490725	keystroke_h	h	n/a
245.4825	0.136	490965	keystroke_a	a	n/a
245.5885	0.135	491177	keystroke_b	b	n/a
245.7085	0.1345	491417	keystroke_i	i	n/a
245.8735	0.1645	491747	keystroke_t	t	n/a
245.993	0.165	491986	keystroke_s	s	n/a
246.068	0.149	492136	keystroke_Key.space	Key.space	n/a
246.413	0.15	492826	keystroke_i	i	n/a
246.623	0.225	493246	keystroke_d	d	n/a
246.9525	0.1505	493905	keystroke_a	a	n/a
247.7325	0.151	495465	keystroke_h	h	n/a
247.8385	0.12	495677	keystroke_o	o	n/a
248.0325	0.12	496065	keystroke_Key.space	Key.space	n/a
248.1825	0.1355	496365	keystroke_t	t	n/a
248.258	0.09	496516	keystroke_h	h	n/a
248.393	0.1205	496786	keystroke_a	a	n/a
248.4685	0.1345	496937	keystroke_n	n	n/a
248.543	0.1355	497086	keystroke_k	k	n/a
248.903	0.105	497806	keystroke_Key.enter	Key.enter	n/a
249.0245	5.37	498049	prompt	n/a	triumph warning welfare monte\n
249.7125	0.135	499425	keystroke_t	t	n/a
249.7885	0.149	499577	keystroke_r	r	n/a
249.923	0.18	499846	keystroke_i	i	n/a
250.043	0.1645	500086	keystroke_m	m	n/a
250.4025	0.09	500805	keystroke_Key.backspace	Key.backspace	n/a
250.6125	0.106	501225	keystroke_u	u	n/a
250.943	0.1345	501886	keystroke_m	m	n/a
251.1085	0.209	502217	keystroke_p	p	n/a
251.258	0.15	502516	keystroke_h	h	n/a
251.468	0.135	502936	keystroke_Key.space	Key.space	n/a
251.633	0.18	503266	keystroke_w	w	n/a
251.738	0.12	503476	keystroke_a	a	n/a
251.798	0.15	503596	keystroke_r	r	n/a
251.888	0.105	503776	keystroke_n	n	n/a
251.9785	0.1345	503957	keystroke_i	i	n/a
252.128	0.18	504256	keystroke_n	n	n/a
252.338	0.15	504676	keystroke_g	g	n/a
252.458	0.135	504916	keystroke_Key.space	Key.space	n/a
252.788	0.1655	505576	keystroke_w	w	n/a
252.893	0.15	505786	keystroke_e	e	n/a
253.013	0.12	506026	keystroke_l	l	n/a
253.103	0.12	506206	keystroke_f	f	n/a
253.208	0.1495	506416	keystroke_a	a	n/a
253.328	0.1655	506656	keystroke_r	r	n/a
253.418	0.1655	506836	keystroke_e	e	n/a
253.5075	0.135	507015	keystroke_Key.space	Key.space	n/a
253.5685	0.09	507137	keystroke_m	m	n/a
253.6275	0.1655	507255	keystroke_o	o	n/a
253.7775	0.121	507555	keystroke_n	n	n/a
253.8685	0.089	507737	keystroke_t	t	n/a
253.9135	0.134	507827	keystroke_e	e	n/a
254.3325	0.06	508665	keystroke_Key.enter	Key.enter	n/a
254.3995	3.656	508799	prompt	n/a	brush cost earning cherry\n
255.098	0.1205	510196	keystroke_b	b	n/a
255.203	0.105	510406	keystroke_r	r	n/a
255.278	0.09	510556	keystroke_u	u	n/a
255.4125	0.1655	510825	keystroke_s	s	n/a
255.488	0.105	510976	keystroke_h	h	n/a
255.562	0.121	511124	keystroke_Key.space	Key.space	n/a
255.638	0.18	511276	keystroke_c	c	n/a
255.772	0.1215	511544	keystroke_o	o	n/a
255.878	0.15	511756	keystroke_s	s	n/a
255.9825	0.1055	511965	keystroke_t	t	n/a
256.058	0.135	512116	keystroke_Key.space	Key.space	n/a
256.163	0.21	512326	keystroke_e	e	n/a
256.268	0.1195	512536	keystroke_a	a	n/a
256.3125	0.151	512625	keystroke_r	r	n/a
256.4325	0.09	512865	keystroke_n	n	n/a
256.4925	0.1505	512985	keystroke_i	i	n/a
256.627	0.1505	513254	keystroke_n	n	n/a
256.718	0.1345	513436	keystroke_g	g	n/a
256.8375	0.1655	513675	keystroke_Key.space	Key.space	n/a
256.9885	0.12	513977	keystroke_c	c	n/a
257.0935	0.15	514187	keystroke_h	h	n/a
257.258	0.12	514516	keystroke_e	e	n/a
257.3475	0.09	514695	keystroke_r	r	n/a
257.498	0.135	514996	keystroke_r	r	n/a
257.573	0.1195	515146	keystroke_y	y	n/a
257.963	0.0895	515926	keystroke_Key.enter	Key.enter	n/a
258.059	6.0555	516118	prompt	n/a	parents wants relative bangladesh\n
258.7435	0.1185	517487	keystroke_p	p	n/a
258.832	0.105	517664	keystroke_a	a	n/a
258.877	0.136	517754	keystroke_r	r	n/a
259.028	0.105	518056	keystroke_n	n	n/a
259.4175	0.0905	518835	keystroke_Key.backspace	Key.backspace	n/a
259.5225	0.135	519045	keystroke_e	e	n/a
259.643	0.1345	519286	keystroke_n	n	n/a
259.7475	0.196	519495	keystroke_t	t	n/a
259.823	0.1055	519646	keystroke_s	s	n/a
259.913	0.1345	519826	keystroke_Key.space	Key.space	n/a
260.0325	0.15	520065	keystroke_w	w	n/a
260.1375	0.1655	520275	keystroke_a	a	n/a
260.273	0.1495	520546	keystroke_n	n	n/a
260.3635	0.1645	520727	keystroke_t	t	n/a
260.4535	0.15	520907	keystroke_s	s	n/a
260.4975	0.1355	520995	keystroke_Key.space	Key.space	n/a
260.6335	0.2545	521267	keystroke_r	r	n/a
260.8135	0.1795	521627	keystroke_e	e	n/a
260.963	0.135	521926	keystroke_l	l	n/a
261.113	0.135	522226	keystroke_a	a	n/a
261.203	0.1055	522406	keystroke_t	t	n/a
261.323	0.135	522646	keystroke_i	i	n/a
261.473	0.12	522946	keystroke_v	v	n/a
261.548	0.12	523096	keystroke_e	e	n/a
261.653	0.09	523306	keystroke_Key.space	Key.space	n/a
261.803	0.1505	523606	keystroke_b	b	n/a
261.9535	0.12	523907	keystroke_a	a	n/a
262.3735	0.1495	524747	keystroke_n	n	n/a
262.538	0.1645	525076	keystroke_g	g	n/a
262.6875	0.165	525375	keystroke_l	l	n/a
262.8375	0.15	525675	keystroke_a	a	n/a
263.1985	0.1645	526397	keystroke_d	d	n/a
263.288	0.1655	526576	keystroke_e	e	n/a
263.3775	0.135	526755	keystroke_s	s	n/a
263.483	0.135	526966	keystroke_h	h	n/a
264.008	0.105	528016	keystroke_Key.enter	Key.enter	n/a
264.119	3.8355	528238	prompt	n/a	diameter intention can futures\n
264.743	0.15	529486	keystroke_d	d	n/a
264.833	0.09	529666	keystroke_i	i	n/a
264.938	0.09	529876	keystroke_a	a	n/a
264.998	0.1355	529996	keystroke_m	m	n/a
265.118	0.12	530236	keystroke_e	e	n/a
265.239	0.134	530478	keystroke_t	t	n/a
265.388	0.15	530776	keystroke_e	e	n/a
265.463	0.1355	530926	keystroke_r	r	n/a
265.538	0.119	531076	keystroke_Key.space	Key.space	n/a
265.613	0.135	531226	keystroke_i	i	n/a
265.688	0.1055	531376	keystroke_n	n	n/a
265.763	0.12	531526	keystroke_t	t	n/a
265.853	0.1045	531706	keystroke_e	e	n/a
265.913	0.1195	531826	keystroke_n	n	n/a
266.0175	0.105	532035	keystroke_t	t	n/a
266.1075	0.2105	532215	keystroke_i	i	n/a
266.1675	0.135	532335	keystroke_o	o	n/a
266.243	0.1795	532486	keystroke_n	n	n/a
266.4525	0.1655	532905	keystroke_Key.space	Key.space	n/a
266.633	0.1505	533266	keystroke_c	c	n/a
266.7385	0.1495	533477	keystroke_a	a	n/a
266.828	0.135	533656	keystroke_n	n	n/a
266.918	0.09	533836	keystroke_Key.space	Key.space	n/a
266.978	0.12	533956	keystroke_f	f	n/a
267.083	0.135	534166	keystroke_u	u	n/a
267.203	0.09	534406	keystroke_t	t	n/a
267.308	0.1205	534616	keystroke_u	u	n/a
267.3985	0.1945	534797	keystroke_r	r	n/a
267.4725	0.226	534945	keystroke_e	e	n/a
267.6085	0.135	535217	keystroke_s	s	n/a
267.8475	0.1055	535695	keystroke_Key.enter	Key.enter	n/a
267.9615	4.253	535923	prompt	n/a	tired austin by painting\n
268.523	0.12	537046	keystroke_t	t	n/a
268.658	0.1345	537316	keystroke_i	i	n/a
268.7785	0.119	537557	keystroke_r	r	n/a
268.8685	0.21	537737	keystroke_e	e	n/a
269.0175	0.136	538035	keystroke_d	d	n/a
269.0925	0.1655	538185	keystroke_Key.space	Key.space	n/a
269.2725	0.121	538545	keystroke_u	u	n/a
269.558	0.0895	539116	keystroke_Key.backspace	Key.backspace	n/a
269.678	0.1055	539356	keystroke_a	a	n/a
269.7985	0.119	539597	keystroke_u	u	n/a
269.9485	0.1345	539897	keystroke_s	s	n/a
270.0385	0.119	540077	keystroke_t	t	n/a
270.1425	0.165	540285	keystroke_i	i	n/a
270.2335	0.134	540467	keystroke_n	n	n/a
270.3525	0.12	540705	keystroke_Key.space	Key.space	n/a
270.4875	0.1955	540975	keystroke_b	b	n/a
270.5775	0.1345	541155	keystroke_y	y	n/a
270.698	0.1195	541396	keystroke_Key.space	Key.space	n/a
270.8625	0.12	541725	keystroke_p	p	n/a
271.028	0.135	542056	keystroke_a	a	n/a
271.2535	0.2395	542507	keystroke_i	i	n/a
271.448	0.165	542896	keystroke_n	n	n/a
271.598	0.12	543196	keystroke_t	t	n/a
271.733	0.135	543466	keystroke_i	i	n/a
271.808	0.15	543616	keystroke_n	n	n/a
271.9435	0.0895	543887	keystroke_g	g	n/a
272.138	0.075	544276	keystroke_Key.enter	Key.enter	n/a
272.2185	7.301	544437	prompt	n/a	institutional proprietary labs packages\n
272.888	0.165	545776	keystroke_i	i	n/a
272.993	0.12	545986	keystroke_n	n	n/a
273.143	0.135	546286	keystroke_s	s	n/a
273.353	0.135	546706	keystroke_t	t	n/a
273.473	0.105	546946	keystroke_i	i	n/a
274.088	0.105	548176	keystroke_t	t	n/a
274.2235	0.089	548447	keystroke_u	u	n/a
274.3725	0.135	548745	keystroke_t	t	n/a
274.4635	0.2395	548927	keystroke_i	i	n/a
274.5235	0.1495	549047	keystroke_o	o	n/a
274.6275	0.1655	549255	keystroke_n	n	n/a
274.778	0.105	549556	keystroke_a	a	n/a
274.884	0.089	549768	keystroke_l	l	n/a
274.958	0.12	549916	keystroke_Key.space	Key.space	n/a
275.0935	0.135	550187	keystroke_p	p	n/a
275.483	0.1205	550966	keystroke_r	r	n/a
275.6485	0.135	551297	keystroke_o	o	n/a
275.8125	0.1805	551625	keystroke_p	p	n/a
276.3235	0.15	552647	keystroke_r	r	n/a
276.5035	0.104	553007	keystroke_i	i	n/a
276.698	0.12	553396	keystroke_e	e	n/a
276.9225	0.12	553845	keystroke_t	t	n/a
277.0585	0.1495	554117	keystroke_a	a	n/a
277.163	0.135	554326	keystroke_r	r	n/a
277.2375	0.1205	554475	keystroke_y	y	n/a
277.463	0.1495	554926	keystroke_Key.space	Key.space	n/a
277.9125	0.135	555825	keystroke_l	l	n/a
278.018	0.135	556036	keystroke_a	a	n/a
278.1085	0.1195	556217	keystroke_b	b	n/a
278.213	0.135	556426	keystroke_s	s	n/a
278.288	0.135	556576	keystroke_Key.space	Key.space	n/a
278.348	0.135	556696	keystroke_p	p	n/a
278.468	0.0895	556936	keystroke_a	a	n/a
278.5425	0.1505	557085	keystroke_c	c	n/a
278.633	0.1205	557266	keystroke_k	k	n/a
278.693	0.135	557386	keystroke_a	a	n/a
278.843	0.165	557686	keystroke_g	g	n/a
278.933	0.2105	557866	keystroke_e	e	n/a
279.068	0.119	558136	keystroke_s	s	n/a
279.413	0.105	558826	keystroke_Key.enter	Key.enter	n/a
279.5245	4.991	559049	prompt	n/a	keeps stores committees ahead\n
280.148	0.12	560296	keystroke_k	k	n/a
280.238	0.105	560476	keystroke_e	e	n/a
280.403	0.135	560806	keystroke_e	e	n/a
280.4785	0.1345	560957	keystroke_p	p	n/a
280.598	0.12	561196	keystroke_s	s	n/a
280.688	0.135	561376	keystroke_Key.space	Key.space	n/a
280.808	0.1205	561616	keystroke_s	s	n/a
280.883	0.12	561766	keystroke_t	t	n/a
280.988	0.1355	561976	keystroke_o	o	n/a
281.093	0.195	562186	keystroke_r	r	n/a
281.1685	0.195	562337	keystroke_e	e	n/a
281.273	0.18	562546	keystroke_s	s	n/a
281.333	0.15	562666	keystroke_Key.space	Key.space	n/a
281.513	0.1355	563026	keystroke_c	c	n/a
281.633	0.1505	563266	keystroke_o	o	n/a
281.738	0.09	563476	keystroke_m	m	n/a
281.933	0.075	563866	keystroke_m	m	n/a
282.2175	0.1205	564435	keystroke_i	i	n/a
282.4125	0.0755	564825	keystroke_t	t	n/a
282.6225	0.0755	565245	keystroke_t	t	n/a
282.803	0.075	565606	keystroke_e	e	n/a
282.968	0.15	565936	keystroke_e	e	n/a
283.088	0.18	566176	keystroke_s	s	n/a
283.253	0.135	566506	keystroke_Key.space	Key.space	n/a
283.403	0.105	566806	keystroke_a	a	n/a
283.598	0.12	567196	keystroke_h	h	n/a
283.733	0.12	567466	keystroke_e	e	n/a
284.078	0.1355	568156	keystroke_a	a	n/a
284.1835	0.135	568367	keystroke_d	d	n/a
284.423	0.09	568846	keystroke_Key.enter	Key.enter	n/a
284.5195	5.8755	569039	prompt	n/a	senegal learners volumes kansas\n
285.1275	0.1955	570255	keystroke_s	s	n/a
285.3085	0.104	570617	keystroke_e	e	n/a
285.398	0.1345	570796	keystroke_n	n	n/a
285.503	0.0895	571006	keystroke_e	e	n/a
285.6525	0.1505	571305	keystroke_g	g	n/a
285.759	0.164	571518	keystroke_a	a	n/a
285.863	0.0895	571726	keystroke_l	l	n/a
285.9375	0.135	571875	keystroke_Key.space	Key.space	n/a
286.1175	0.105	572235	keystroke_l	l	n/a
286.1785	0.1945	572357	keystroke_e	e	n/a
286.2675	0.1205	572535	keystroke_a	a	n/a
286.358	0.12	572716	keystroke_r	r	n/a
286.4175	0.1205	572835	keystroke_n	n	n/a
286.523	0.1195	573046	keystroke_i	i	n/a
286.8675	0.09	573735	keystroke_Key.backspace	Key.backspace	n/a
287.0175	0.136	574035	keystroke_e	e	n/a
287.093	0.18	574186	keystroke_r	r	n/a
287.228	0.165	574456	keystroke_s	s	n/a
287.378	0.1495	574756	keystroke_Key.space	Key.space	n/a
287.6485	0.12	575297	keystroke_v	v	n/a
287.738	0.0755	575476	keystroke_o	o	n/a
287.933	0.1645	575866	keystroke_l	l	n/a
288.038	0.1655	576076	keystroke_u	u	n/a
288.1585	0.195	576317	keystroke_m	m	n/a
288.3825	0.165	576765	keystroke_e	e	n/a
288.4885	0.1645	576977	keystroke_s	s	n/a
288.638	0.1345	577276	keystroke_Key.space	Key.space	n/a
289.0425	0.105	578085	keystroke_k	k	n/a
289.4475	0.12	578895	keystroke_a	a	n/a
289.5535	0.1345	579107	keystroke_n	n	n/a
289.778	0.135	579556	keystroke_s	s	n/a
289.913	0.1355	579826	keystroke_a	a	n/a
290.033	0.1195	580066	keystroke_s	s	n/a
290.2875	0.105	580575	keystroke_Key.enter	Key.enter	n/a
290.399	3.641	580798	prompt	n/a	case simon lights admission\n
290.933	0.18	581866	keystroke_c	c	n/a
291.038	0.135	582076	keystroke_a	a	n/a
291.143	0.1655	582286	keystroke_s	s	n/a
291.263	0.12	582526	keystroke_e	e	n/a
291.338	0.165	582676	keystroke_Key.space	Key.space	n/a
291.428	0.12	582856	keystroke_s	s	n/a
291.503	0.135	583006	keystroke_i	i	n/a
291.563	0.135	583126	keystroke_m	m	n/a
291.668	0.1645	583336	keystroke_o	o	n/a
291.803	0.135	583606	keystroke_n	n	n/a
291.9075	0.1205	583815	keystroke_Key.space	Key.space	n/a
291.998	0.135	583996	keystroke_l	l	n/a
292.058	0.135	584116	keystroke_i	i	n/a
292.1785	0.0895	584357	keystroke_g	g	n/a
292.298	0.135	584596	keystroke_h	h	n/a
292.388	0.1655	584776	keystroke_t	t	n/a
292.508	0.21	585016	keystroke_s	s	n/a
292.688	0.165	585376	keystroke_Key.space	Key.space	n/a
292.958	0.18	585916	keystroke_a	a	n/a
293.139	0.1495	586278	keystroke_d	d	n/a
293.273	0.135	586546	keystroke_m	m	n/a
293.318	0.105	586636	keystroke_i	i	n/a
293.3935	0.0745	586787	keystroke_s	s	n/a
293.528	0.1355	587056	keystroke_s	s	n/a
293.603	0.18	587206	keystroke_i	i	n/a
293.633	0.12	587266	keystroke_o	o	n/a
293.708	0.135	587416	keystroke_n	n	n/a
293.948	0.09	587896	keystroke_Key.enter	Key.enter	n/a
294.045	5.006	588090	prompt	n/a	expert translations double summer\n
294.5935	0.12	589187	keystroke_e	e	n/a
294.7435	0.165	589487	keystroke_x	x	n/a
294.8935	0.105	589787	keystroke_p	p	n/a
294.9685	0.18	589937	keystroke_e	e	n/a
295.0885	0.105	590177	keystroke_r	r	n/a
295.3135	0.089	590627	keystroke_t	t	n/a
295.3735	0.15	590747	keystroke_Key.space	Key.space	n/a
295.5685	0.15	591137	keystroke_t	t	n/a
295.6285	0.27	591257	keystroke_r	r	n/a
295.7925	0.1805	591585	keystroke_a	a	n/a
296.003	0.15	592006	keystroke_n	n	n/a
296.138	0.09	592276	keystroke_s	s	n/a
296.243	0.12	592486	keystroke_l	l	n/a
296.348	0.1205	592696	keystroke_a	a	n/a
296.423	0.12	592846	keystroke_t	t	n/a
296.513	0.24	593026	keystroke_i	i	n/a
296.573	0.135	593146	keystroke_o	o	n/a
296.663	0.15	593326	keystroke_n	n	n/a
296.739	0.149	593478	keystroke_s	s	n/a
296.828	0.12	593656	keystroke_Key.space	Key.space	n/a
296.9335	0.1645	593867	keystroke_d	d	n/a
297.1135	0.149	594227	keystroke_o	o	n/a
297.758	0.12	595516	keystroke_u	u	n/a
297.8925	0.1055	595785	keystroke_b	b	n/a
298.0125	0.1355	596025	keystroke_l	l	n/a
298.133	0.12	596266	keystroke_e	e	n/a
298.1925	0.15	596385	keystroke_Key.space	Key.space	n/a
298.2675	0.1205	596535	keystroke_s	s	n/a
298.313	0.09	596626	keystroke_u	u	n/a
298.5075	0.046	597015	keystroke_m	m	n/a
298.6435	0.1195	597287	keystroke_m	m	n/a
298.7475	0.09	597495	keystroke_e	e	n/a
298.793	0.12	597586	keystroke_r	r	n/a
298.9575	0.09	597915	keystroke_Key.enter	Key.enter	n/a
299.0555	6.775	598111	prompt	n/a	bald villages bristol workout\n
299.5875	0.135	599175	keystroke_b	b	n/a
299.6785	0.165	599357	keystroke_a	a	n/a
299.7535	0.105	599507	keystroke_l	l	n/a
299.8885	0.1345	599777	keystroke_d	d	n/a
299.9625	0.12	599925	keystroke_Key.space	Key.space	n/a
300.1435	0.1345	600287	keystroke_v	v	n/a
300.728	0.1205	601456	keystroke_i	i	n/a
300.803	0.09	601606	keystroke_l	l	n/a
300.983	0.105	601966	keystroke_l	l	n/a
301.058	0.15	602116	keystroke_a	a	n/a
301.148	0.225	602296	keystroke_g	g	n/a
301.253	0.2105	602506	keystroke_e	e	n/a
301.3885	0.134	602777	keystroke_Key.space	Key.space	n/a
301.4025	0.136	602805	keystroke_s	s	n/a
301.5385	0.09	603077	keystroke_b	b	n/a
301.5985	0.1495	603197	keystroke_r	r	n/a
301.7335	0.104	603467	keystroke_i	i	n/a
301.8235	0.135	603647	keystroke_s	s	n/a
301.9285	0.03	603857	keystroke_t	t	n/a
302.1375	0.06	604275	keystroke_Key.backspace	Key.backspace	n/a
302.3175	0.0305	604635	keystroke_Key.backspace	Key.backspace	n/a
302.453	0.0445	604906	keystroke_Key.backspace	Key.backspace	n/a
302.558	0.075	605116	keystroke_Key.backspace	Key.backspace	n/a
302.693	0.0595	605386	keystroke_Key.backspace	Key.backspace	n/a
302.8125	0.0605	605625	keystroke_Key.backspace	Key.backspace	n/a
302.9475	0.1055	605895	keystroke_Key.backspace	Key.backspace	n/a
303.1725	0.12	606345	keystroke_s	s	n/a
303.2475	0.12	606495	keystroke_Key.space	Key.space	n/a
303.4125	0.1505	606825	keystroke_b	b	n/a
303.5175	0.135	607035	keystroke_r	r	n/a
303.593	0.1045	607186	keystroke_i	i	n/a
303.7575	0.12	607515	keystroke_s	s	n/a
303.833	0.12	607666	keystroke_t	t	n/a
304.2975	0.135	608595	keystroke_o	o	n/a
304.463	0.165	608926	keystroke_l	l	n/a
304.6285	0.149	609257	keystroke_Key.space	Key.space	n/a
304.7325	0.136	609465	keystroke_w	w	n/a
304.8075	0.1205	609615	keystroke_o	o	n/a
304.898	0.135	609796	keystroke_r	r	n/a
304.9885	0.1495	609977	keystroke_k	k	n/a
305.108	0.12	610216	keystroke_o	o	n/a
305.3485	0.105	610697	keystroke_u	u	n/a
305.4825	0.105	610965	keystroke_t	t	n/a
305.738	0.0905	611476	keystroke_Key.enter	Key.enter	n/a
305.8345	4.93	611669	prompt	n/a	cells recruiting expenditure thou\n
306.5335	0.1645	613067	keystroke_c	c	n/a
306.6085	0.1645	613217	keystroke_e	e	n/a
306.7285	0.0595	613457	keystroke_l	l	n/a
306.8475	0.135	613695	keystroke_l	l	n/a
306.9375	0.1505	613875	keystroke_s	s	n/a
307.0275	0.135	614055	keystroke_Key.space	Key.space	n/a
307.103	0.12	614206	keystroke_r	r	n/a
307.178	0.12	614356	keystroke_e	e	n/a
307.3585	0.164	614717	keystroke_c	c	n/a
307.478	0.1345	614956	keystroke_r	r	n/a
307.5525	0.135	615105	keystroke_u	u	n/a
307.658	0.0745	615316	keystroke_i	i	n/a
307.7475	0.0905	615495	keystroke_t	t	n/a
307.853	0.09	615706	keystroke_i	i	n/a
307.928	0.12	615856	keystroke_n	n	n/a
307.988	0.15	615976	keystroke_g	g	n/a
308.0775	0.1205	616155	keystroke_Key.space	Key.space	n/a
308.213	0.0905	616426	keystroke_e	e	n/a
308.348	0.15	616696	keystroke_x	x	n/a
308.468	0.12	616936	keystroke_p	p	n/a
308.5725	0.15	617145	keystroke_e	e	n/a
308.7235	0.149	617447	keystroke_n	n	n/a
309.4125	0.136	618825	keystroke_d	d	n/a
309.5025	0.1355	619005	keystroke_i	i	n/a
309.683	0.105	619366	keystroke_t	t	n/a
309.803	0.1355	619606	keystroke_u	u	n/a
309.9225	0.136	619845	keystroke_r	r	n/a
309.9985	0.15	619997	keystroke_e	e	n/a
310.088	0.1505	620176	keystroke_Key.space	Key.space	n/a
310.1935	0.1045	620387	keystroke_t	t	n/a
310.2235	0.179	620447	keystroke_h	h	n/a
310.2985	0.149	620597	keystroke_o	o	n/a
310.3575	0.12	620715	keystroke_u	u	n/a
310.6575	0.105	621315	keystroke_Key.enter	Key.enter	n/a
310.7685	7.302	621537	prompt	n/a	pharmacy anaheim singapore conversation\n
311.4835	0.119	622967	keystroke_p	p	n/a
311.7075	0.121	623415	keystroke_h	h	n/a
311.8575	0.121	623715	keystroke_a	a	n/a
311.9325	0.121	623865	keystroke_r	r	n/a
312.0375	0.105	624075	keystroke_m	m	n/a
312.3525	0.136	624705	keystroke_n	n	n/a
312.683	0.105	625366	keystroke_Key.backspace	Key.backspace	n/a
312.8325	0.1505	625665	keystroke_a	a	n/a
312.9085	0.1645	625817	keystroke_c	c	n/a
313.073	0.12	626146	keystroke_y	y	n/a
313.208	0.1345	626416	keystroke_Key.space	Key.space	n/a
313.3575	0.106	626715	keystroke_a	a	n/a
313.4785	0.12	626957	keystroke_n	n	n/a
313.5835	0.1045	627167	keystroke_a	a	n/a
313.718	0.1805	627436	keystroke_h	h	n/a
314.243	0.105	628486	keystroke_e	e	n/a
314.3635	0.1795	628727	keystroke_i	i	n/a
314.468	0.15	628936	keystroke_m	m	n/a
314.603	0.1345	629206	keystroke_Key.space	Key.space	n/a
314.6925	0.136	629385	keystroke_s	s	n/a
314.8125	0.1955	629625	keystroke_i	i	n/a
314.9485	0.1345	629897	keystroke_n	n	n/a
315.0535	0.1345	630107	keystroke_g	g	n/a
315.158	0.12	630316	keystroke_a	a	n/a
315.5935	0.1345	631187	keystroke_p	p	n/a
315.8035	0.1345	631607	keystroke_o	o	n/a
315.923	0.15	631846	keystroke_r	r	n/a
316.028	0.15	632056	keystroke_e	e	n/a
316.163	0.1495	632326	keystroke_Key.space	Key.space	n/a
316.3585	0.1345	632717	keystroke_c	c	n/a
316.478	0.1355	632956	keystroke_o	o	n/a
316.583	0.1345	633166	keystroke_n	n	n/a
316.643	0.1795	633286	keystroke_v	v	n/a
316.7475	0.195	633495	keystroke_e	e	n/a
316.8525	0.121	633705	keystroke_r	r	n/a
317.093	0.1355	634186	keystroke_s	s	n/a
317.2575	0.15	634515	keystroke_a	a	n/a
317.378	0.1495	634756	keystroke_t	t	n/a
317.513	0.24	635026	keystroke_i	i	n/a
317.5735	0.149	635147	keystroke_o	o	n/a
317.678	0.1495	635356	keystroke_n	n	n/a
317.9475	0.12	635895	keystroke_Key.enter	Key.enter	n/a
318.0745	6.385	636149	prompt	n/a	wells respiratory measuring length\n
318.833	0.15	637666	keystroke_w	w	n/a
318.923	0.1195	637846	keystroke_e	e	n/a
319.0125	0.075	638025	keystroke_l	l	n/a
319.1485	0.134	638297	keystroke_l	l	n/a
319.2375	0.151	638475	keystroke_s	s	n/a
319.3125	0.15	638625	keystroke_Key.space	Key.space	n/a
319.4325	0.151	638865	keystroke_r	r	n/a
319.5225	0.18	639045	keystroke_e	e	n/a
319.7625	0.135	639525	keystroke_s	s	n/a
319.883	0.1945	639766	keystroke_p	p	n/a
320.0025	0.105	640005	keystroke_i	i	n/a
320.0925	0.136	640185	keystroke_r	r	n/a
320.2435	0.1495	640487	keystroke_a	a	n/a
320.363	0.1355	640726	keystroke_t	t	n/a
320.7385	0.135	641477	keystroke_o	o	n/a
320.933	0.181	641866	keystroke_r	r	n/a
321.083	0.15	642166	keystroke_y	y	n/a
321.293	0.135	642586	keystroke_Key.space	Key.space	n/a
321.488	0.1515	642976	keystroke_m	m	n/a
321.578	0.18	643156	keystroke_e	e	n/a
321.7725	0.211	643545	keystroke_a	a	n/a
321.9675	0.106	643935	keystroke_s	s	n/a
322.058	0.0755	644116	keystroke_u	u	n/a
322.1785	0.135	644357	keystroke_r	r	n/a
322.4175	0.1655	644835	keystroke_i	i	n/a
322.523	0.1655	645046	keystroke_n	n	n/a
322.7035	0.105	645407	keystroke_g	g	n/a
322.7785	0.12	645557	keystroke_Key.space	Key.space	n/a
322.8685	0.15	645737	keystroke_l	l	n/a
322.9285	0.195	645857	keystroke_e	e	n/a
323.3785	0.135	646757	keystroke_n	n	n/a
323.5275	0.181	647055	keystroke_g	g	n/a
323.6625	0.136	647325	keystroke_t	t	n/a
323.7825	0.106	647565	keystroke_h	h	n/a
324.3675	0.09	648735	keystroke_Key.enter	Key.enter	n/a
324.462	4.3635	648924	prompt	n/a	sent genuine combining integrity\n
324.998	0.165	649996	keystroke_s	s	n/a
325.0885	0.1505	650177	keystroke_e	e	n/a
325.1925	0.1205	650385	keystroke_n	n	n/a
325.298	0.1045	650596	keystroke_t	t	n/a
325.373	0.165	650746	keystroke_Key.space	Key.space	n/a
325.4925	0.1355	650985	keystroke_g	g	n/a
325.5975	0.1055	651195	keystroke_e	e	n/a
325.6575	0.21	651315	keystroke_n	n	n/a
325.8075	0.1655	651615	keystroke_u	u	n/a
325.9285	0.165	651857	keystroke_i	i	n/a
326.049	0.1795	652098	keystroke_n	n	n/a
326.2575	0.165	652515	keystroke_e	e	n/a
326.3475	0.15	652695	keystroke_Key.space	Key.space	n/a
326.558	0.1345	653116	keystroke_c	c	n/a
326.6475	0.121	653295	keystroke_o	o	n/a
326.7225	0.135	653445	keystroke_m	m	n/a
326.843	0.1045	653686	keystroke_b	b	n/a
326.9325	0.121	653865	keystroke_i	i	n/a
326.9925	0.1355	653985	keystroke_n	n	n/a
327.143	0.165	654286	keystroke_i	i	n/a
327.2475	0.1355	654495	keystroke_n	n	n/a
327.3685	0.104	654737	keystroke_g	g	n/a
327.4125	0.1205	654825	keystroke_Key.space	Key.space	n/a
327.518	0.12	655036	keystroke_i	i	n/a
327.563	0.1655	655126	keystroke_n	n	n/a
327.713	0.105	655426	keystroke_t	t	n/a
327.7735	0.1045	655547	keystroke_e	e	n/a
327.938	0.15	655876	keystroke_g	g	n/a
328.013	0.105	656026	keystroke_r	r	n/a
328.103	0.105	656206	keystroke_i	i	n/a
328.238	0.24	656476	keystroke_t	t	n/a
328.433	0.1355	656866	keystroke_y	y	n/a
328.733	0.09	657466	keystroke_Key.enter	Key.enter	n/a
328.8325	6.833	657665	prompt	n/a	institution listings import families\n
329.453	0.135	658906	keystroke_i	i	n/a
329.528	0.105	659056	keystroke_n	n	n/a
329.648	0.135	659296	keystroke_s	s	n/a
330.488	0.0895	660976	keystroke_t	t	n/a
330.5625	0.1055	661125	keystroke_i	i	n/a
330.728	0.105	661456	keystroke_t	t	n/a
330.818	0.09	661636	keystroke_u	u	n/a
330.953	0.105	661906	keystroke_t	t	n/a
331.013	0.24	662026	keystroke_i	i	n/a
331.073	0.135	662146	keystroke_o	o	n/a
331.163	0.165	662326	keystroke_n	n	n/a
331.6275	0.1355	663255	keystroke_Key.space	Key.space	n/a
331.793	0.165	663586	keystroke_l	l	n/a
331.868	0.105	663736	keystroke_i	i	n/a
331.913	0.15	663826	keystroke_s	s	n/a
332.003	0.09	664006	keystroke_t	t	n/a
332.078	0.12	664156	keystroke_i	i	n/a
332.1385	0.1345	664277	keystroke_n	n	n/a
332.213	0.1655	664426	keystroke_g	g	n/a
332.348	0.15	664696	keystroke_s	s	n/a
332.438	0.1195	664876	keystroke_Key.space	Key.space	n/a
332.513	0.12	665026	keystroke_i	i	n/a
332.5885	0.1345	665177	keystroke_m	m	n/a
332.6925	0.195	665385	keystroke_p	p	n/a
332.8125	0.195	665625	keystroke_o	o	n/a
332.9635	0.1645	665927	keystroke_r	r	n/a
333.023	0.1205	666046	keystroke_t	t	n/a
333.1575	0.12	666315	keystroke_Key.space	Key.space	n/a
333.2625	0.135	666525	keystroke_f	f	n/a
333.3675	0.135	666735	keystroke_a	a	n/a
333.4285	0.149	666857	keystroke_m	m	n/a
333.5185	0.1345	667037	keystroke_i	i	n/a
333.5935	0.165	667187	keystroke_l	l	n/a
333.7735	0.12	667547	keystroke_i	i	n/a
333.8475	0.06	667695	keystroke_t	t	n/a
334.133	0.075	668266	keystroke_Key.backspace	Key.backspace	n/a
334.298	0.075	668596	keystroke_Key.backspace	Key.backspace	n/a
334.8535	0.1195	669707	keystroke_i	i	n/a
335.003	0.165	670006	keystroke_e	e	n/a
335.108	0.12	670216	keystroke_s	s	n/a
335.5585	0.1045	671117	keystroke_Key.enter	Key.enter	n/a
335.67	4.8095	671340	prompt	n/a	license secure lake petersburg\n
336.2935	0.1645	672587	keystroke_l	l	n/a
336.383	0.1205	672766	keystroke_i	i	n/a
336.4885	0.18	672977	keystroke_c	c	n/a
336.5935	0.135	673187	keystroke_e	e	n/a
336.7135	0.1195	673427	keystroke_n	n	n/a
336.833	0.21	673666	keystroke_s	s	n/a
336.923	0.15	673846	keystroke_e	e	n/a
337.028	0.15	674056	keystroke_Key.space	Key.space	n/a
337.253	0.1505	674506	keystroke_s	s	n/a
337.359	0.149	674718	keystroke_e	e	n/a
337.463	0.12	674926	keystroke_c	c	n/a
337.598	0.135	675196	keystroke_u	u	n/a
337.718	0.18	675436	keystroke_r	r	n/a
337.808	0.15	675616	keystroke_e	e	n/a
337.913	0.12	675826	keystroke_Key.space	Key.space	n/a
338.018	0.15	676036	keystroke_l	l	n/a
338.423	0.1045	676846	keystroke_a	a	n/a
338.5425	0.151	677085	keystroke_k	k	n/a
338.6485	0.12	677297	keystroke_e	e	n/a
338.6935	0.135	677387	keystroke_Key.space	Key.space	n/a
338.8125	0.151	677625	keystroke_p	p	n/a
339.1725	0.136	678345	keystroke_e	e	n/a
339.3225	0.076	678645	keystroke_t	t	n/a
339.4135	0.165	678827	keystroke_e	e	n/a
339.5325	0.1805	679065	keystroke_r	r	n/a
339.653	0.135	679306	keystroke_s	s	n/a
339.818	0.1495	679636	keystroke_b	b	n/a
339.893	0.1045	679786	keystroke_u	u	n/a
339.983	0.1645	679966	keystroke_r	r	n/a
340.103	0.1205	680206	keystroke_g	g	n/a
340.3725	0.105	680745	keystroke_Key.enter	Key.enter	n/a
340.4835	6.2065	680967	prompt	n/a	prostores athletes someone's plugins\n
341.333	0.105	682666	keystroke_p	p	n/a
341.453	0.105	682906	keystroke_r	r	n/a
341.543	0.135	683086	keystroke_o	o	n/a
341.663	0.15	683326	keystroke_s	s	n/a
341.783	0.105	683566	keystroke_t	t	n/a
341.858	0.1505	683716	keystroke_o	o	n/a
341.993	0.21	683986	keystroke_r	r	n/a
342.0685	0.1945	684137	keystroke_e	e	n/a
342.1585	0.1345	684317	keystroke_s	s	n/a
342.2475	0.151	684495	keystroke_Key.space	Key.space	n/a
342.5185	0.135	685037	keystroke_a	a	n/a
342.6235	0.135	685247	keystroke_t	t	n/a
342.7435	0.15	685487	keystroke_h	h	n/a
342.8335	0.135	685667	keystroke_l	l	n/a
342.9535	0.1645	685907	keystroke_e	e	n/a
343.344	0.269	686688	keystroke_t	t	n/a
343.463	0.33	686926	keystroke_e	e	n/a
343.643	0.27	687286	keystroke_s	s	n/a
343.988	0.165	687976	keystroke_Key.space	Key.space	n/a
344.5285	0.119	689057	keystroke_s	s	n/a
344.6035	0.164	689207	keystroke_o	o	n/a
344.6785	0.135	689357	keystroke_m	m	n/a
344.7985	0.1195	689597	keystroke_e	e	n/a
344.903	0.15	689806	keystroke_o	o	n/a
344.9785	0.1795	689957	keystroke_n	n	n/a
345.114	0.104	690228	keystroke_e	e	n/a
345.263	0.15	690526	keystroke_'	'	n/a
345.428	0.15	690856	keystroke_s	s	n/a
345.503	0.15	691006	keystroke_Key.space	Key.space	n/a
345.638	0.1645	691276	keystroke_p	p	n/a
345.7585	0.119	691517	keystroke_l	l	n/a
345.9985	0.074	691997	keystroke_u	u	n/a
346.0875	0.1055	692175	keystroke_g	g	n/a
346.2085	0.1045	692417	keystroke_i	i	n/a
346.2675	0.1205	692535	keystroke_n	n	n/a
346.4035	0.1045	692807	keystroke_s	s	n/a
346.598	0.09	693196	keystroke_Key.enter	Key.enter	n/a
346.694	5.037	693388	prompt	n/a	error earn faculty persistent\n
347.1985	0.135	694397	keystroke_e	e	n/a
347.3025	0.106	694605	keystroke_r	r	n/a
347.483	0.1055	694966	keystroke_r	r	n/a
347.6025	0.1205	695205	keystroke_o	o	n/a
347.738	0.1055	695476	keystroke_r	r	n/a
347.813	0.18	695626	keystroke_Key.space	Key.space	n/a
348.323	0.18	696646	keystroke_e	e	n/a
348.4275	0.136	696855	keystroke_a	a	n/a
348.4875	0.1655	696975	keystroke_r	r	n/a
348.6385	0.1195	697277	keystroke_n	n	n/a
348.713	0.15	697426	keystroke_Key.space	Key.space	n/a
348.833	0.135	697666	keystroke_f	f	n/a
348.938	0.1655	697876	keystroke_a	a	n/a
349.0875	0.136	698175	keystroke_c	c	n/a
349.2085	0.164	698417	keystroke_u	u	n/a
349.2825	0.12	698565	keystroke_l	l	n/a
349.4035	0.134	698807	keystroke_t	t	n/a
349.913	0.1055	699826	keystroke_y	y	n/a
350.138	0.09	700276	keystroke_Key.space	Key.space	n/a
350.438	0.1205	700876	keystroke_p	p	n/a
350.5425	0.151	701085	keystroke_e	e	n/a
350.6185	0.12	701237	keystroke_r	r	n/a
350.7535	0.105	701507	keystroke_s	s	n/a
350.8435	0.105	701687	keystroke_i	i	n/a
351.0235	0.135	702047	keystroke_s	s	n/a
351.1735	0.15	702347	keystroke_t	t	n/a
351.2485	0.135	702497	keystroke_e	e	n/a
351.3535	0.12	702707	keystroke_n	n	n/a
351.4585	0.105	702917	keystroke_t	t	n/a
351.6685	0.06	703337	keystroke_Key.enter	Key.enter	n/a
351.735	3.97	703470	prompt	n/a	swift pushing programs firmware\n
352.313	0.06	704626	keystroke_s	s	n/a
352.4785	0.074	704957	keystroke_w	w	n/a
352.5385	0.1045	705077	keystroke_i	i	n/a
352.6125	0.1055	705225	keystroke_f	f	n/a
352.8235	0.119	705647	keystroke_t	t	n/a
352.8975	0.1205	705795	keystroke_Key.space	Key.space	n/a
352.9735	0.12	705947	keystroke_p	p	n/a
353.153	0.12	706306	keystroke_u	u	n/a
353.2585	0.1495	706517	keystroke_s	s	n/a
353.393	0.075	706786	keystroke_h	h	n/a
353.4535	0.135	706907	keystroke_i	i	n/a
353.589	0.1045	707178	keystroke_n	n	n/a
353.6485	0.1195	707297	keystroke_g	g	n/a
353.708	0.1195	707416	keystroke_Key.space	Key.space	n/a
353.8135	0.1045	707627	keystroke_p	p	n/a
353.888	0.0905	707776	keystroke_r	r	n/a
354.023	0.105	708046	keystroke_o	o	n/a
354.0685	0.165	708137	keystroke_g	g	n/a
354.143	0.15	708286	keystroke_r	r	n/a
354.2185	0.1495	708437	keystroke_a	a	n/a
354.2935	0.134	708587	keystroke_m	m	n/a
354.413	0.1355	708826	keystroke_s	s	n/a
354.4575	0.135	708915	keystroke_Key.space	Key.space	n/a
354.5325	0.1355	709065	keystroke_f	f	n/a
354.6535	0.0895	709307	keystroke_i	i	n/a
354.713	0.135	709426	keystroke_r	r	n/a
354.833	0.1505	709666	keystroke_m	m	n/a
355.0585	0.18	710117	keystroke_w	w	n/a
355.1785	0.1495	710357	keystroke_a	a	n/a
355.2835	0.1945	710567	keystroke_r	r	n/a
355.418	0.1355	710836	keystroke_e	e	n/a
355.6135	0.089	711227	keystroke_Key.enter	Key.enter	n/a
355.7095	4.87	711419	prompt	n/a	gnome thriller coaching accepting\n
356.4235	0.1195	712847	keystroke_g	g	n/a
356.528	0.15	713056	keystroke_n	n	n/a
356.708	0.1505	713416	keystroke_o	o	n/a
356.8135	0.1645	713627	keystroke_m	m	n/a
356.9485	0.1345	713897	keystroke_e	e	n/a
356.993	0.1355	713986	keystroke_Key.space	Key.space	n/a
357.1135	0.105	714227	keystroke_t	t	n/a
357.1735	0.12	714347	keystroke_h	h	n/a
357.3235	0.12	714647	keystroke_r	r	n/a
357.4135	0.12	714827	keystroke_i	i	n/a
357.4885	0.09	714977	keystroke_l	l	n/a
357.6685	0.1195	715337	keystroke_l	l	n/a
357.7735	0.1195	715547	keystroke_e	e	n/a
357.818	0.135	715636	keystroke_r	r	n/a
357.938	0.1355	715876	keystroke_Key.space	Key.space	n/a
358.1035	0.1195	716207	keystroke_c	c	n/a
358.1785	0.1045	716357	keystroke_o	o	n/a
358.313	0.1495	716626	keystroke_a	a	n/a
358.4025	0.135	716805	keystroke_s	s	n/a
358.7325	0.0905	717465	keystroke_Key.backspace	Key.backspace	n/a
358.8385	0.1495	717677	keystroke_c	c	n/a
358.943	0.12	717886	keystroke_h	h	n/a
359.048	0.15	718096	keystroke_i	i	n/a
359.1535	0.1345	718307	keystroke_n	n	n/a
359.303	0.135	718606	keystroke_g	g	n/a
359.423	0.12	718846	keystroke_Key.space	Key.space	n/a
359.558	0.1055	719116	keystroke_a	a	n/a
359.633	0.1055	719266	keystroke_c	c	n/a
359.798	0.12	719596	keystroke_c	c	n/a
359.873	0.1355	719746	keystroke_e	e	n/a
359.933	0.09	719866	keystroke_p	p	n/a
360.068	0.105	720136	keystroke_t	t	n/a
360.158	0.135	720316	keystroke_i	i	n/a
360.233	0.121	720466	keystroke_n	n	n/a
360.338	0.0755	720676	keystroke_g	g	n/a
360.488	0.09	720976	keystroke_Key.enter	Key.enter	n/a
360.5855	4.2695	721171	prompt	n/a	problems cornwall billing prove\n
361.178	0.12	722356	keystroke_p	p	n/a
361.283	0.09	722566	keystroke_r	r	n/a
361.388	0.105	722776	keystroke_o	o	n/a
361.478	0.0905	722956	keystroke_b	b	n/a
361.5975	0.091	723195	keystroke_l	l	n/a
361.6585	0.09	723317	keystroke_e	e	n/a
361.778	0.1195	723556	keystroke_m	m	n/a
361.8525	0.1355	723705	keystroke_s	s	n/a
