onset	duration	sample	value	key	prompt_text
9.022	15.2925	18044	prompt	n/a	the quick brown fox jumps over a lazy dog\n
10.587	0.044	21174	keystroke_t	t	n/a
10.6605	0.09	21321	keystroke_h	h	n/a
10.8105	0.15	21621	keystroke_e	e	n/a
11.6505	0.135	23301	keystroke_Key.space	Key.space	n/a
11.981	0.1495	23962	keystroke_q	q	n/a
12.0855	0.0905	24171	keystroke_u	u	n/a
12.296	0.1045	24592	keystroke_i	i	n/a
12.6405	0.2105	25281	keystroke_k	k	n/a
12.7905	0.135	25581	keystroke_Key.space	Key.space	n/a
14.1255	0.0755	28251	keystroke_Key.backspace	Key.backspace	n/a
14.306	0.0745	28612	keystroke_Key.backspace	Key.backspace	n/a
15.041	0.15	30082	keystroke_c	c	n/a
15.2805	0.0905	30561	keystroke_k	k	n/a
15.5355	0.1355	31071	keystroke_Key.space	Key.space	n/a
15.7605	0.0905	31521	keystroke_b	b	n/a
16.046	0.135	32092	keystroke_r	r	n/a
16.1505	0.1055	32301	keystroke_o	o	n/a
16.316	0.1645	32632	keystroke_w	w	n/a
16.466	0.1805	32932	keystroke_n	n	n/a
16.5855	0.1505	33171	keystroke_Key.space	Key.space	n/a
16.855	0.0905	33710	keystroke_f	f	n/a
16.9605	0.1055	33921	keystroke_o	o	n/a
17.1705	0.1355	34341	keystroke_x	x	n/a
17.3205	0.1355	34641	keystroke_Key.space	Key.space	n/a
17.546	0.075	35092	keystroke_j	j	n/a
17.7555	0.076	35511	keystroke_u	u	n/a
17.9805	0.0905	35961	keystroke_m	m	n/a
18.4455	0.105	36891	keystroke_s	s	n/a
19.286	0.06	38572	keystroke_Key.backspace	Key.backspace	n/a
20.0815	0.1045	40163	keystroke_p	p	n/a
20.2305	0.1655	40461	keystroke_s	s	n/a
20.336	0.12	40672	keystroke_Key.space	Key.space	n/a
20.486	0.12	40972	keystroke_o	o	n/a
20.696	0.135	41392	keystroke_v	v	n/a
20.936	0.1955	41872	keystroke_e	e	n/a
21.086	0.1505	42172	keystroke_r	r	n/a
21.2515	0.134	42503	keystroke_Key.space	Key.space	n/a
21.4005	0.135	42801	keystroke_a	a	n/a
21.5205	0.09	43041	keystroke_Key.space	Key.space	n/a
21.6855	0.1345	43371	keystroke_l	l	n/a
21.791	0.105	43582	keystroke_a	a	n/a
22.0755	0.1505	44151	keystroke_z	z	n/a
22.256	0.0895	44512	keystroke_y	y	n/a
22.4505	0.12	44901	keystroke_Key.space	Key.space	n/a
22.6005	0.21	45201	keystroke_d	d	n/a
22.7505	0.09	45501	keystroke_o	o	n/a
23.035	0.091	46070	keystroke_g	g	n/a
24.251	0.06	48502	keystroke_Key.enter	Key.enter	n/a
24.3215	7.8965	48643	prompt	n/a	armstrong html third niagara\n
25.811	0.225	51622	keystroke_a	a	n/a
26.0505	0.105	52101	keystroke_r	r	n/a
26.1865	0.135	52373	keystroke_m	m	n/a
26.4105	0.165	52821	keystroke_s	s	n/a
26.6805	0.0755	53361	keystroke_t	t	n/a
26.8755	0.105	53751	keystroke_r	r	n/a
26.996	0.225	53992	keystroke_o	o	n/a
27.176	0.0905	54352	keystroke_n	n	n/a
27.416	0.0895	54832	keystroke_g	g	n/a
27.581	0.119	55162	keystroke_Key.space	Key.space	n/a
27.851	0.09	55702	keystroke_h	h	n/a
28.106	0.061	56212	keystroke_t	t	n/a
28.3605	0.09	56721	keystroke_m	m	n/a
28.6165	0.1195	57233	keystroke_l	l	n/a
28.841	0.15	57682	keystroke_Key.space	Key.space	n/a
29.306	0.105	58612	keystroke_t	t	n/a
29.396	0.0755	58792	keystroke_h	h	n/a
29.5755	0.091	59151	keystroke_i	i	n/a
29.681	0.0755	59362	keystroke_r	r	n/a
29.9205	0.1805	59841	keystroke_d	d	n/a
30.1755	0.105	60351	keystroke_Key.space	Key.space	n/a
30.461	0.06	60922	keystroke_n	n	n/a
30.626	0.1195	61252	keystroke_i	i	n/a
30.761	0.1655	61522	keystroke_a	a	n/a
31.0605	0.105	62121	keystroke_g	g	n/a
31.241	0.18	62482	keystroke_a	a	n/a
31.5715	0.1045	63143	keystroke_r	r	n/a
31.7505	0.196	63501	keystroke_a	a	n/a
32.141	0.0745	64282	keystroke_Key.enter	Key.enter	n/a
32.223	10.6755	64446	prompt	n/a	stores accurate use acoustic\n
33.0255	0.1655	66051	keystroke_s	s	n/a
33.296	0.1045	66592	keystroke_t	t	n/a
33.4015	0.134	66803	keystroke_o	o	n/a
33.581	0.105	67162	keystroke_r	r	n/a
33.656	0.15	67312	keystroke_e	e	n/a
33.926	0.1795	67852	keystroke_a	a	n/a
34.0905	0.15	68181	keystroke_Key.space	Key.space	n/a
34.2555	0.106	68511	keystroke_a	a	n/a
34.4815	0.1195	68963	keystroke_c	c	n/a
34.6605	0.135	69321	keystroke_c	c	n/a
34.917	0.0735	69834	keystroke_u	u	n/a
35.7405	0.045	71481	keystroke_Key.backspace	Key.backspace	n/a
35.906	0.06	71812	keystroke_Key.backspace	Key.backspace	n/a
36.101	0.03	72202	keystroke_Key.backspace	Key.backspace	n/a
36.266	0.03	72532	keystroke_Key.backspace	Key.backspace	n/a
36.416	0.06	72832	keystroke_Key.backspace	Key.backspace	n/a
36.7005	0.075	73401	keystroke_Key.backspace	Key.backspace	n/a
37.0765	0.089	74153	keystroke_s	s	n/a
37.2105	0.15	74421	keystroke_Key.space	Key.space	n/a
37.3915	0.12	74783	keystroke_a	a	n/a
37.6305	0.09	75261	keystroke_c	c	n/a
37.7965	0.1195	75593	keystroke_c	c	n/a
38.1105	0.0455	76221	keystroke_u	u	n/a
38.3365	0.09	76673	keystroke_r	r	n/a
38.5305	0.211	77061	keystroke_a	a	n/a
38.7865	0.09	77573	keystroke_t	t	n/a
38.9665	0.12	77933	keystroke_e	e	n/a
39.1305	0.135	78261	keystroke_Key.space	Key.space	n/a
39.401	0.075	78802	keystroke_u	u	n/a
39.536	0.1045	79072	keystroke_s	s	n/a
39.731	0.1795	79462	keystroke_e	e	n/a
39.8655	0.1205	79731	keystroke_Key.space	Key.space	n/a
40.046	0.135	80092	keystroke_a	a	n/a
40.301	0.165	80602	keystroke_c	c	n/a
40.481	0.21	80962	keystroke_o	o	n/a
40.646	0.1345	81292	keystroke_u	u	n/a
40.826	0.1805	81652	keystroke_s	s	n/a
41.1865	0.0895	82373	keystroke_t	t	n/a
41.3055	0.075	82611	keystroke_i	i	n/a
41.4855	0.135	82971	keystroke_c	c	n/a
42.791	0.105	85582	keystroke_Key.enter	Key.enter	n/a
42.9035	13.435	85807	prompt	n/a	advance bridal hired applying\n
43.7215	0.1495	87443	keystroke_a	a	n/a
44.0215	0.12	88043	keystroke_d	d	n/a
46.3315	0.1495	92663	keystroke_v	v	n/a
46.5415	0.119	93083	keystroke_a	a	n/a
46.8105	0.106	93621	keystroke_c	c	n/a
47.711	0.105	95422	keystroke_Key.backspace	Key.backspace	n/a
48.2515	0.105	96503	keystroke_c	c	n/a
48.9255	0.09	97851	keystroke_Key.backspace	Key.backspace	n/a
49.3165	0.104	98633	keystroke_n	n	n/a
49.7205	0.12	99441	keystroke_c	c	n/a
49.9755	0.1805	99951	keystroke_e	e	n/a
50.156	0.135	100312	keystroke_Key.space	Key.space	n/a
50.336	0.1055	100672	keystroke_b	b	n/a
50.591	0.12	101182	keystroke_r	r	n/a
50.712	0.1045	101424	keystroke_i	i	n/a
50.9065	0.135	101813	keystroke_d	d	n/a
51.1465	0.1645	102293	keystroke_a	a	n/a
51.312	0.134	102624	keystroke_l	l	n/a
51.491	0.135	102982	keystroke_Key.space	Key.space	n/a
51.716	0.09	103432	keystroke_h	h	n/a
51.8965	0.1045	103793	keystroke_i	i	n/a
52.0615	0.1495	104123	keystroke_r	r	n/a
52.166	0.12	104332	keystroke_e	e	n/a
52.9315	0.12	105863	keystroke_d	d	n/a
53.1115	0.1645	106223	keystroke_Key.space	Key.space	n/a
53.411	0.135	106822	keystroke_a	a	n/a
53.621	0.0755	107242	keystroke_p	p	n/a
53.8165	0.0895	107633	keystroke_p	p	n/a
54.041	0.1195	108082	keystroke_l	l	n/a
54.3265	0.105	108653	keystroke_y	y	n/a
54.5815	0.09	109163	keystroke_i	i	n/a
54.8215	0.0895	109643	keystroke_n	n	n/a
55.031	0.075	110062	keystroke_g	g	n/a
56.2465	0.09	112493	keystroke_Key.enter	Key.enter	n/a
56.343	14.02	112686	prompt	n/a	dramatically memorabilia leasing victorian\n
56.9665	0.179	113933	keystroke_d	d	n/a
57.2505	0.121	114501	keystroke_r	r	n/a
57.6105	0.0615	115221	keystroke_m	m	n/a
58.1665	0.09	116333	keystroke_Key.backspace	Key.backspace	n/a
58.376	0.15	116752	keystroke_a	a	n/a
58.556	0.106	117112	keystroke_m	m	n/a
59.006	0.09	118012	keystroke_t	t	n/a
59.9815	0.104	119963	keystroke_Key.backspace	Key.backspace	n/a
60.1315	0.1795	120263	keystroke_a	a	n/a
60.4155	0.0905	120831	keystroke_t	t	n/a
60.551	0.0755	121102	keystroke_i	i	n/a
60.746	0.135	121492	keystroke_c	c	n/a
61.107	0.059	122214	keystroke_l	l	n/a
61.8115	0.105	123623	keystroke_Key.backspace	Key.backspace	n/a
62.0065	0.149	124013	keystroke_a	a	n/a
62.2465	0.075	124493	keystroke_l	l	n/a
62.4265	0.105	124853	keystroke_l	l	n/a
62.7115	0.075	125423	keystroke_y	y	n/a
63.101	0.1195	126202	keystroke_Key.space	Key.space	n/a
63.3255	0.1205	126651	keystroke_m	m	n/a
63.4605	0.121	126921	keystroke_e	e	n/a
63.7165	0.09	127433	keystroke_m	m	n/a
63.986	0.1045	127972	keystroke_o	o	n/a
64.1365	0.09	128273	keystroke_r	r	n/a
64.331	0.1345	128662	keystroke_a	a	n/a
64.6015	0.135	129203	keystroke_b	b	n/a
64.841	0.075	129682	keystroke_i	i	n/a
65.3205	0.1355	130641	keystroke_l	l	n/a
65.5755	0.076	131151	keystroke_i	i	n/a
65.801	0.18	131602	keystroke_a	a	n/a
65.966	0.135	131932	keystroke_Key.space	Key.space	n/a
66.2655	0.121	132531	keystroke_l	l	n/a
66.402	0.1035	132804	keystroke_e	e	n/a
66.596	0.1345	133192	keystroke_a	a	n/a
66.8665	0.165	133733	keystroke_s	s	n/a
67.0165	0.074	134033	keystroke_i	i	n/a
67.1965	0.105	134393	keystroke_n	n	n/a
67.4065	0.09	134813	keystroke_g	g	n/a
67.511	0.1045	135022	keystroke_Key.space	Key.space	n/a
67.781	0.1055	135562	keystroke_v	v	n/a
68.0665	0.059	136133	keystroke_i	i	n/a
68.2155	0.255	136431	keystroke_c	c	n/a
69.086	0.0905	138172	keystroke_t	t	n/a
69.237	0.1195	138474	keystroke_o	o	n/a
69.4315	0.09	138863	keystroke_r	r	n/a
69.5815	0.075	139163	keystroke_i	i	n/a
69.7015	0.18	139403	keystroke_a	a	n/a
69.8515	0.075	139703	keystroke_n	n	n/a
70.286	0.075	140572	keystroke_Key.enter	Key.enter	n/a
70.3685	8.562	140737	prompt	n/a	prefer hurricane bronze micro\n
71.0965	0.105	142193	keystroke_p	p	n/a
71.261	0.135	142522	keystroke_r	r	n/a
71.351	0.1355	142702	keystroke_e	e	n/a
71.6065	0.12	143213	keystroke_f	f	n/a
71.7865	0.165	143573	keystroke_e	e	n/a
71.9365	0.105	143873	keystroke_r	r	n/a
72.0865	0.135	144173	keystroke_Key.space	Key.space	n/a
72.296	0.09	144592	keystroke_h	h	n/a
72.551	0.075	145102	keystroke_u	u	n/a
72.7465	0.06	145493	keystroke_r	r	n/a
72.9115	0.09	145823	keystroke_r	r	n/a
73.0315	0.105	146063	keystroke_i	i	n/a
73.2565	0.1345	146513	keystroke_c	c	n/a
73.511	0.105	147022	keystroke_a	a	n/a
73.646	0.0755	147292	keystroke_n	n	n/a
73.871	0.135	147742	keystroke_e	e	n/a
74.6515	0.1345	149303	keystroke_Key.space	Key.space	n/a
74.8765	0.09	149753	keystroke_b	b	n/a
75.131	0.105	150262	keystroke_r	r	n/a
75.281	0.105	150562	keystroke_o	o	n/a
75.491	0.075	150982	keystroke_n	n	n/a
75.791	0.15	151582	keystroke_z	z	n/a
76.0605	0.1655	152121	keystroke_e	e	n/a
76.241	0.1205	152482	keystroke_Key.space	Key.space	n/a
76.451	0.0905	152902	keystroke_m	m	n/a
76.6615	0.09	153323	keystroke_i	i	n/a
76.8105	0.121	153621	keystroke_c	c	n/a
77.4865	0.0145	154973	keystroke_r	r	n/a
77.516	0.075	155032	keystroke_o	o	n/a
78.8365	0.089	157673	keystroke_Key.enter	Key.enter	n/a
78.935	8.333	157870	prompt	n/a	recovered northeast cons township\n
79.6755	0.136	159351	keystroke_r	r	n/a
79.8265	0.149	159653	keystroke_e	e	n/a
80.1415	0.149	160283	keystroke_c	c	n/a
80.3355	0.105	160671	keystroke_o	o	n/a
80.5605	0.166	161121	keystroke_v	v	n/a
80.8165	0.1945	161633	keystroke_e	e	n/a
80.966	0.1805	161932	keystroke_r	r	n/a
81.1315	0.164	162263	keystroke_e	e	n/a
81.536	0.1205	163072	keystroke_d	d	n/a
81.731	0.15	163462	keystroke_Key.space	Key.space	n/a
82.047	0.089	164094	keystroke_n	n	n/a
82.256	0.1345	164512	keystroke_o	o	n/a
82.4205	0.091	164841	keystroke_r	r	n/a
82.661	0.12	165322	keystroke_t	t	n/a
82.766	0.075	165532	keystroke_h	h	n/a
82.946	0.1055	165892	keystroke_e	e	n/a
83.156	0.225	166312	keystroke_a	a	n/a
83.366	0.15	166732	keystroke_s	s	n/a
83.6665	0.0745	167333	keystroke_t	t	n/a
83.771	0.15	167542	keystroke_Key.space	Key.space	n/a
83.966	0.15	167932	keystroke_c	c	n/a
84.1465	0.0445	168293	keystroke_o	o	n/a
84.626	0.09	169252	keystroke_n	n	n/a
84.821	0.121	169642	keystroke_s	s	n/a
85.046	0.1345	170092	keystroke_Key.space	Key.space	n/a
85.4965	0.089	170993	keystroke_t	t	n/a
85.5715	0.12	171143	keystroke_o	o	n/a
85.7655	0.1655	171531	keystroke_w	w	n/a
85.9165	0.075	171833	keystroke_n	n	n/a
86.141	0.135	172282	keystroke_s	s	n/a
86.261	0.09	172522	keystroke_h	h	n/a
86.471	0.09	172942	keystroke_i	i	n/a
86.726	0.12	173452	keystroke_p	p	n/a
87.176	0.09	174352	keystroke_Key.enter	Key.enter	n/a
87.276	9.382	174552	prompt	n/a	pick showing myrtle bugs\n
88.7065	0.1495	177413	keystroke_p	p	n/a
88.946	0.0905	177892	keystroke_i	i	n/a
89.186	0.1055	178372	keystroke_c	c	n/a
89.351	0.195	178702	keystroke_k	k	n/a
89.531	0.165	179062	keystroke_Key.space	Key.space	n/a
89.7405	0.12	179481	keystroke_s	s	n/a
89.8465	0.075	179693	keystroke_h	h	n/a
89.981	0.1505	179962	keystroke_o	o	n/a
90.2065	0.149	180413	keystroke_w	w	n/a
90.3405	0.09	180681	keystroke_i	i	n/a
90.5355	0.09	181071	keystroke_n	n	n/a
90.881	0.1045	181762	keystroke_Key.space	Key.space	n/a
91.541	0.105	183082	keystroke_Key.backspace	Key.backspace	n/a
91.766	0.0895	183532	keystroke_g	g	n/a
91.9455	0.135	183891	keystroke_Key.space	Key.space	n/a
92.2465	0.059	184493	keystroke_m	m	n/a
92.5015	0.0895	185003	keystroke_y	y	n/a
92.8155	0.075	185631	keystroke_r	r	n/a
94.1665	0.075	188333	keystroke_t	t	n/a
94.721	0.0905	189442	keystroke_l	l	n/a
94.871	0.1505	189742	keystroke_e	e	n/a
95.0355	0.1505	190071	keystroke_Key.space	Key.space	n/a
95.366	0.0905	190732	keystroke_b	b	n/a
95.486	0.09	190972	keystroke_u	u	n/a
96.0415	0.074	192083	keystroke_g	g	n/a
96.2365	0.12	192473	keystroke_s	s	n/a
96.581	0.0745	193162	keystroke_Key.enter	Key.enter	n/a
96.6625	15.1155	193325	prompt	n/a	protective seems mechanism statistics\n
97.7665	0.12	195533	keystroke_p	p	n/a
97.946	0.09	195892	keystroke_r	r	n/a
98.066	0.12	196132	keystroke_o	o	n/a
98.2615	0.1505	196523	keystroke_t	t	n/a
98.471	0.12	196942	keystroke_e	e	n/a
98.771	0.1495	197542	keystroke_c	c	n/a
99.1015	0.0895	198203	keystroke_t	t	n/a
99.266	0.09	198532	keystroke_i	i	n/a
99.432	0.119	198864	keystroke_v	v	n/a
99.626	0.1645	199252	keystroke_e	e	n/a
99.7915	0.12	199583	keystroke_Key.space	Key.space	n/a
100.091	0.1195	200182	keystroke_s	s	n/a
100.2865	0.104	200573	keystroke_e	e	n/a
100.4965	0.09	200993	keystroke_e	e	n/a
100.6155	0.09	201231	keystroke_m	m	n/a
100.796	0.181	201592	keystroke_s	s	n/a
100.946	0.105	201892	keystroke_Key.space	Key.space	n/a
101.1565	0.09	202313	keystroke_m	m	n/a
101.261	0.105	202522	keystroke_e	e	n/a
101.516	0.15	203032	keystroke_c	c	n/a
101.711	0.0755	203422	keystroke_h	h	n/a
101.891	0.165	203782	keystroke_a	a	n/a
102.056	0.0905	204112	keystroke_n	n	n/a
102.251	0.105	204502	keystroke_i	i	n/a
102.416	0.15	204832	keystroke_s	s	n/a
102.5815	0.195	205163	keystroke_m	m	n/a
102.7455	0.1505	205491	keystroke_Key.space	Key.space	n/a
102.9865	0.149	205973	keystroke_s	s	n/a
103.3015	0.0895	206603	keystroke_t	t	n/a
103.4205	0.21	206841	keystroke_a	a	n/a
103.811	0.105	207622	keystroke_t	t	n/a
104.0365	0.09	208073	keystroke_i	i	n/a
104.2315	0.1495	208463	keystroke_s	s	n/a
104.696	0.0605	209392	keystroke_i	i	n/a
106.4815	0.089	212963	keystroke_=	=	n/a
107.6655	0.106	215331	keystroke_Key.backspace	Key.backspace	n/a
107.921	0.075	215842	keystroke_Key.backspace	Key.backspace	n/a
108.236	0.12	216472	keystroke_Key.backspace	Key.backspace	n/a
109.1065	0.134	218213	keystroke_s	s	n/a
109.4055	0.09	218811	keystroke_t	t	n/a
109.5405	0.091	219081	keystroke_i	i	n/a
109.7365	0.105	219473	keystroke_c	c	n/a
109.9905	0.151	219981	keystroke_s	s	n/a
111.686	0.09	223372	keystroke_Key.enter	Key.enter	n/a
111.783	7.42	223566	prompt	n/a	honolulu offline hand wall\n
112.6915	0.09	225383	keystroke_h	h	n/a
113.501	0.0145	227002	keystroke_o	o	n/a
113.6365	0.104	227273	keystroke_n	n	n/a
113.8305	0.1205	227661	keystroke_o	o	n/a
114.101	0.12	228202	keystroke_l	l	n/a
114.4455	0.015	228891	keystroke_u	u	n/a
114.7015	0.1495	229403	keystroke_l	l	n/a
115.0455	0.0455	230091	keystroke_u	u	n/a
115.1955	0.15	230391	keystroke_Key.space	Key.space	n/a
115.4055	0.136	230811	keystroke_o	o	n/a
115.6165	0.0895	231233	keystroke_f	f	n/a
115.826	0.09	231652	keystroke_f	f	n/a
116.022	0.104	232044	keystroke_l	l	n/a
116.231	0.06	232462	keystroke_i	i	n/a
116.426	0.0905	232852	keystroke_n	n	n/a
116.546	0.12	233092	keystroke_e	e	n/a
116.681	0.105	233362	keystroke_Key.space	Key.space	n/a
116.831	0.09	233662	keystroke_h	h	n/a
116.951	0.1645	233902	keystroke_a	a	n/a
117.2805	0.0905	234561	keystroke_n	n	n/a
117.4755	0.165	234951	keystroke_d	d	n/a
117.6255	0.105	235251	keystroke_Key.space	Key.space	n/a
118.166	0.075	236332	keystroke_w	w	n/a
118.3755	0.1805	236751	keystroke_a	a	n/a
118.4965	0.0895	236993	keystroke_l	l	n/a
118.7365	0.1045	237473	keystroke_l	l	n/a
119.111	0.09	238222	keystroke_Key.enter	Key.enter	n/a
119.208	12.1895	238416	prompt	n/a	according protected schedule championship\n
119.951	0.1195	239902	keystroke_a	a	n/a
120.2205	0.1055	240441	keystroke_c	c	n/a
120.3855	0.1805	240771	keystroke_c	c	n/a
120.5805	0.15	241161	keystroke_o	o	n/a
120.7765	0.119	241553	keystroke_r	r	n/a
121.0465	0.195	242093	keystroke_d	d	n/a
121.196	0.075	242392	keystroke_i	i	n/a
121.391	0.075	242782	keystroke_n	n	n/a
121.586	0.105	243172	keystroke_g	g	n/a
121.721	0.09	243442	keystroke_Key.space	Key.space	n/a
121.916	0.1045	243832	keystroke_p	p	n/a
122.096	0.1195	244192	keystroke_r	r	n/a
122.2315	0.09	244463	keystroke_o	o	n/a
122.7705	0.166	245541	keystroke_t	t	n/a
122.9505	0.1355	245901	keystroke_e	e	n/a
123.251	0.1645	246502	keystroke_c	c	n/a
123.5815	0.135	247163	keystroke_t	t	n/a
123.6705	0.151	247341	keystroke_e	e	n/a
123.986	0.1345	247972	keystroke_d	d	n/a
124.2105	0.1355	248421	keystroke_Key.space	Key.space	n/a
124.5855	0.121	249171	keystroke_s	s	n/a
124.8405	0.18	249681	keystroke_c	c	n/a
125.0055	0.0905	250011	keystroke_h	h	n/a
125.2	0.0915	250400	keystroke_e	e	n/a
125.426	0.15	250852	keystroke_d	d	n/a
125.59	0.0765	251180	keystroke_u	u	n/a
125.8315	0.1195	251663	keystroke_l	l	n/a
125.966	0.1345	251932	keystroke_e	e	n/a
126.1305	0.135	252261	keystroke_Key.space	Key.space	n/a
126.521	0.09	253042	keystroke_s	s	n/a
126.971	0.075	253942	keystroke_Key.backspace	Key.backspace	n/a
127.166	0.15	254332	keystroke_c	c	n/a
127.331	0.0905	254662	keystroke_h	h	n/a
127.601	0.15	255202	keystroke_a	a	n/a
127.721	0.12	255442	keystroke_m	m	n/a
128.171	0.195	256342	keystroke_p	p	n/a
128.486	0.0895	256972	keystroke_i	i	n/a
128.6355	0.1055	257271	keystroke_o	o	n/a
128.801	0.12	257602	keystroke_n	n	n/a
129.0255	0.1355	258051	keystroke_s	s	n/a
130.016	0.105	260032	keystroke_h	h	n/a
130.196	0.105	260392	keystroke_i	i	n/a
130.436	0.135	260872	keystroke_p	p	n/a
131.3055	0.09	262611	keystroke_Key.enter	Key.enter	n/a
131.4025	9.7	262805	prompt	n/a	turbo who'd imports lowest\n
132.282	0.089	264564	keystroke_t	t	n/a
133.2105	0.045	266421	keystroke_r	r	n/a
133.645	0.091	267290	keystroke_Key.backspace	Key.backspace	n/a
134.0205	0.09	268041	keystroke_u	u	n/a
135.0855	0.075	270171	keystroke_r	r	n/a
135.3855	0.1205	270771	keystroke_b	b	n/a
135.5205	0.121	271041	keystroke_o	o	n/a
135.7755	0.135	271551	keystroke_Key.space	Key.space	n/a
136.0165	0.1645	272033	keystroke_w	w	n/a
136.106	0.09	272212	keystroke_h	h	n/a
136.3015	0.1345	272603	keystroke_o	o	n/a
137.006	0.12	274012	keystroke_'	'	n/a
137.186	0.1345	274372	keystroke_d	d	n/a
137.426	0.1195	274852	keystroke_Key.space	Key.space	n/a
137.7255	0.1055	275451	keystroke_i	i	n/a
137.9665	0.1195	275933	keystroke_m	m	n/a
138.2955	0.255	276591	keystroke_p	p	n/a
138.5355	0.166	277071	keystroke_o	o	n/a
138.821	0.1055	277642	keystroke_r	r	n/a
139.0765	0.09	278153	keystroke_t	t	n/a
139.2865	0.1645	278573	keystroke_s	s	n/a
139.3905	0.12	278781	keystroke_Key.space	Key.space	n/a
139.586	0.0905	279172	keystroke_l	l	n/a
139.8705	0.135	279741	keystroke_o	o	n/a
140.0505	0.2095	280101	keystroke_w	w	n/a
140.2305	0.1655	280461	keystroke_e	e	n/a
140.501	0.1805	281002	keystroke_s	s	n/a
140.8155	0.09	281631	keystroke_t	t	n/a
141.0255	0.075	282051	keystroke_Key.enter	Key.enter	n/a
141.1065	8.157	282213	prompt	n/a	blacks dallas spine betty\n
141.896	0.0895	283792	keystroke_b	b	n/a
142.0455	0.0605	284091	keystroke_l	l	n/a
142.1665	0.1045	284333	keystroke_a	a	n/a
142.4055	0.151	284811	keystroke_c	c	n/a
142.5405	0.0755	285081	keystroke_k	k	n/a
143.066	0.15	286132	keystroke_s	s	n/a
143.276	0.15	286552	keystroke_Key.space	Key.space	n/a
143.531	0.12	287062	keystroke_d	d	n/a
143.756	0.1205	287512	keystroke_a	a	n/a
143.861	0.0755	287722	keystroke_l	l	n/a
144.071	0.1045	288142	keystroke_l	l	n/a
144.1765	0.119	288353	keystroke_a	a	n/a
144.326	0.1515	288652	keystroke_s	s	n/a
144.4615	0.1345	288923	keystroke_Key.space	Key.space	n/a
144.656	0.15	289312	keystroke_s	s	n/a
144.776	0.1055	289552	keystroke_p	p	n/a
145.061	0.09	290122	keystroke_i	i	n/a
145.2865	0.0745	290573	keystroke_n	n	n/a
145.391	0.135	290782	keystroke_e	e	n/a
145.556	0.15	291112	keystroke_Key.space	Key.space	n/a
146.156	0.0895	292312	keystroke_b	b	n/a
146.3505	0.1805	292701	keystroke_e	e	n/a
146.786	0.0445	293572	keystroke_t	t	n/a
146.921	0.0745	293842	keystroke_t	t	n/a
147.221	0.075	294442	keystroke_t	t	n/a
148.406	0.0895	296812	keystroke_Key.backspace	Key.backspace	n/a
148.7955	0.075	297591	keystroke_y	y	n/a
149.1855	0.075	298371	keystroke_Key.enter	Key.enter	n/a
149.2685	8.4395	298537	prompt	n/a	increased he's recovered exams\n
150.1315	0.089	300263	keystroke_i	i	n/a
150.3555	0.09	300711	keystroke_n	n	n/a
150.6865	0.0145	301373	keystroke_c	c	n/a
150.836	0.1355	301672	keystroke_r	r	n/a
150.911	0.15	301822	keystroke_e	e	n/a
151.1515	0.194	302303	keystroke_a	a	n/a
151.3165	0.165	302633	keystroke_s	s	n/a
151.5415	0.119	303083	keystroke_e	e	n/a
151.8265	0.1195	303653	keystroke_d	d	n/a
151.9305	0.12	303861	keystroke_Key.space	Key.space	n/a
152.1555	0.075	304311	keystroke_h	h	n/a
152.2765	0.104	304553	keystroke_e	e	n/a
152.6055	0.09	305211	keystroke_'	'	n/a
152.8305	0.1205	305661	keystroke_s	s	n/a
153.1005	0.135	306201	keystroke_Key.space	Key.space	n/a
153.6565	0.1195	307313	keystroke_r	r	n/a
153.7315	0.15	307463	keystroke_e	e	n/a
154.0165	0.164	308033	keystroke_c	c	n/a
154.4355	0.12	308871	keystroke_o	o	n/a
154.6315	0.1495	309263	keystroke_v	v	n/a
154.916	0.1805	309832	keystroke_e	e	n/a
155.351	0.165	310702	keystroke_r	r	n/a
155.441	0.15	310882	keystroke_e	e	n/a
155.741	0.165	311482	keystroke_d	d	n/a
155.876	0.15	311752	keystroke_Key.space	Key.space	n/a
156.2665	0.09	312533	keystroke_e	e	n/a
156.551	0.1495	313102	keystroke_x	x	n/a
156.8215	0.1495	313643	keystroke_a	a	n/a
157.0165	0.09	314033	keystroke_m	m	n/a
157.181	0.165	314362	keystroke_s	s	n/a
157.616	0.09	315232	keystroke_Key.enter	Key.enter	n/a
157.7125	9.161	315425	prompt	n/a	marked donor intersection suited\n
158.471	0.09	316942	keystroke_m	m	n/a
158.606	0.21	317212	keystroke_a	a	n/a
158.786	0.135	317572	keystroke_r	r	n/a
158.981	0.105	317962	keystroke_k	k	n/a
159.116	0.1045	318232	keystroke_e	e	n/a
159.3705	0.135	318741	keystroke_d	d	n/a
159.4755	0.135	318951	keystroke_Key.space	Key.space	n/a
159.7005	0.151	319401	keystroke_d	d	n/a
159.7765	0.119	319553	keystroke_o	o	n/a
159.9705	0.09	319941	keystroke_n	n	n/a
160.1805	0.1055	320361	keystroke_o	o	n/a
160.331	0.09	320662	keystroke_r	r	n/a
160.886	0.135	321772	keystroke_Key.space	Key.space	n/a
161.381	0.0755	322762	keystroke_i	i	n/a
161.591	0.105	323182	keystroke_n	n	n/a
161.816	0.165	323632	keystroke_t	t	n/a
161.9655	0.1505	323931	keystroke_e	e	n/a
162.0705	0.1215	324141	keystroke_r	r	n/a
162.386	0.18	324772	keystroke_s	s	n/a
162.791	0.1055	325582	keystroke_e	e	n/a
163.091	0.15	326182	keystroke_c	c	n/a
163.406	0.1045	326812	keystroke_t	t	n/a
163.5855	0.105	327171	keystroke_i	i	n/a
163.766	0.1205	327532	keystroke_o	o	n/a
163.9615	0.2095	327923	keystroke_n	n	n/a
164.156	0.15	328312	keystroke_Key.space	Key.space	n/a
164.3515	0.1195	328703	keystroke_s	s	n/a
164.516	0.0755	329032	keystroke_u	u	n/a
164.71	0.106	329420	keystroke_i	i	n/a
164.861	0.1645	329722	keystroke_t	t	n/a
164.9955	0.166	329991	keystroke_e	e	n/a
165.296	0.1045	330592	keystroke_d	d	n/a
166.781	0.09	333562	keystroke_Key.enter	Key.enter	n/a
166.8795	7.0135	333759	prompt	n/a	this institutions tired about\n
167.891	0.1045	335782	keystroke_t	t	n/a
167.9805	0.0905	335961	keystroke_h	h	n/a
168.191	0.0745	336382	keystroke_i	i	n/a
168.326	0.12	336652	keystroke_s	s	n/a
168.431	0.135	336862	keystroke_Key.space	Key.space	n/a
168.6255	0.06	337251	keystroke_i	i	n/a
168.821	0.09	337642	keystroke_n	n	n/a
168.971	0.15	337942	keystroke_s	s	n/a
169.1965	0.1195	338393	keystroke_t	t	n/a
169.301	0.09	338602	keystroke_i	i	n/a
169.571	0.135	339142	keystroke_t	t	n/a
169.826	0.0745	339652	keystroke_u	u	n/a
170.036	0.135	340072	keystroke_t	t	n/a
170.141	0.135	340282	keystroke_i	i	n/a
170.321	0.15	340642	keystroke_o	o	n/a
170.441	0.105	340882	keystroke_n	n	n/a
170.621	0.195	341242	keystroke_s	s	n/a
170.741	0.135	341482	keystroke_Key.space	Key.space	n/a
170.966	0.12	341932	keystroke_t	t	n/a
171.101	0.1055	342202	keystroke_i	i	n/a
171.236	0.135	342472	keystroke_r	r	n/a
171.326	0.165	342652	keystroke_e	e	n/a
171.611	0.135	343222	keystroke_d	d	n/a
171.716	0.15	343432	keystroke_Key.space	Key.space	n/a
172.556	0.2105	345112	keystroke_a	a	n/a
172.781	0.015	345562	keystroke_b	b	n/a
172.856	0.21	345712	keystroke_o	o	n/a
173.021	0.195	346042	keystroke_u	u	n/a
173.411	0.0905	346822	keystroke_t	t	n/a
173.786	0.105	347572	keystroke_Key.enter	Key.enter	n/a
173.898	10.8695	347796	prompt	n/a	tony seafood checked receives\n
174.7905	0.105	349581	keystroke_t	t	n/a
174.9105	0.075	349821	keystroke_o	o	n/a
175.0915	0.105	350183	keystroke_n	n	n/a
175.391	0.075	350782	keystroke_y	y	n/a
175.5705	0.1355	351141	keystroke_Key.space	Key.space	n/a
175.736	0.12	351472	keystroke_s	s	n/a
175.9755	0.091	351951	keystroke_e	e	n/a
176.1555	0.15	352311	keystroke_a	a	n/a
176.3365	0.0295	352673	keystroke_a	a	n/a
176.5605	0.1355	353121	keystroke_f	f	n/a
176.741	0.09	353482	keystroke_o	o	n/a
178.271	0.09	356542	keystroke_Key.backspace	Key.backspace	n/a
178.466	0.075	356932	keystroke_Key.backspace	Key.backspace	n/a
178.841	0.105	357682	keystroke_Key.backspace	Key.backspace	n/a
179.202	0.104	358404	keystroke_f	f	n/a
179.606	0.0755	359212	keystroke_o	o	n/a
179.831	0.09	359662	keystroke_o	o	n/a
180.0115	0.18	360023	keystroke_d	d	n/a
180.3555	0.12	360711	keystroke_Key.space	Key.space	n/a
180.941	0.1345	361882	keystroke_c	c	n/a
181.1055	0.09	362211	keystroke_h	h	n/a
181.2555	0.12	362511	keystroke_e	e	n/a
181.5855	0.1205	363171	keystroke_c	c	n/a
181.691	0.105	363382	keystroke_k	k	n/a
182.171	0.045	364342	keystroke_e	e	n/a
182.3815	0.134	364763	keystroke_d	d	n/a
182.486	0.1495	364972	keystroke_Key.space	Key.space	n/a
182.7865	0.12	365573	keystroke_r	r	n/a
182.8465	0.18	365693	keystroke_e	e	n/a
183.2365	0.105	366473	keystroke_c	c	n/a
183.4765	0.179	366953	keystroke_e	e	n/a
183.6415	0.105	367283	keystroke_i	i	n/a
183.8515	0.164	367703	keystroke_v	v	n/a
184.0605	0.15	368121	keystroke_e	e	n/a
184.3465	0.105	368693	keystroke_d	d	n/a
184.676	0.0895	369352	keystroke_Key.enter	Key.enter	n/a
184.7715	9.9265	369543	prompt	n/a	fare livestock martha quoted\n
185.501	0.105	371002	keystroke_f	f	n/a
185.696	0.1645	371392	keystroke_a	a	n/a
185.8755	0.166	371751	keystroke_r	r	n/a
185.966	0.225	371932	keystroke_e	e	n/a
186.176	0.105	372352	keystroke_Key.space	Key.space	n/a
186.401	0.09	372802	keystroke_l	l	n/a
186.6705	0.06	373341	keystroke_i	i	n/a
186.8205	0.135	373641	keystroke_v	v	n/a
187.0465	0.1195	374093	keystroke_e	e	n/a
187.2705	0.195	374541	keystroke_s	s	n/a
187.541	0.0905	375082	keystroke_t	t	n/a
187.6315	0.104	375263	keystroke_o	o	n/a
187.8405	0.1655	375681	keystroke_c	c	n/a
187.976	0.075	375952	keystroke_k	k	n/a
188.396	0.12	376792	keystroke_Key.space	Key.space	n/a
188.606	0.12	377212	keystroke_m	m	n/a
188.756	0.195	377512	keystroke_a	a	n/a
189.461	0.105	378922	keystroke_r	r	n/a
189.731	0.12	379462	keystroke_t	t	n/a
189.896	0.075	379792	keystroke_h	h	n/a
190.7665	0.1495	381533	keystroke_a	a	n/a
190.931	0.135	381862	keystroke_Key.space	Key.space	n/a
191.336	0.075	382672	keystroke_u	u	n/a
192.4755	0.1055	384951	keystroke_Key.backspace	Key.backspace	n/a
192.821	0.105	385642	keystroke_q	q	n/a
192.956	0.09	385912	keystroke_u	u	n/a
193.136	0.15	386272	keystroke_o	o	n/a
193.301	0.135	386602	keystroke_t	t	n/a
193.437	0.134	386874	keystroke_e	e	n/a
193.691	0.105	387382	keystroke_d	d	n/a
194.5905	0.1055	389181	keystroke_Key.enter	Key.enter	n/a
194.7025	9.1305	389405	prompt	n/a	indices nations vertex gives\n
195.3705	0.0755	390741	keystroke_i	i	n/a
195.5815	0.104	391163	keystroke_n	n	n/a
195.7755	0.12	391551	keystroke_d	d	n/a
195.911	0.0745	391822	keystroke_i	i	n/a
196.0755	0.106	392151	keystroke_c	c	n/a
196.3155	0.135	392631	keystroke_e	e	n/a
196.5115	0.1645	393023	keystroke_s	s	n/a
196.6905	0.135	393381	keystroke_Key.space	Key.space	n/a
197.0055	0.105	394011	keystroke_n	n	n/a
197.0965	0.1645	394193	keystroke_a	a	n/a
197.336	0.12	394672	keystroke_t	t	n/a
197.471	0.1055	394942	keystroke_i	i	n/a
197.546	0.2105	395092	keystroke_o	o	n/a
197.7415	0.104	395483	keystroke_n	n	n/a
197.9055	0.1805	395811	keystroke_s	s	n/a
198.176	0.12	396352	keystroke_Key.space	Key.space	n/a
198.686	0.165	397372	keystroke_v	v	n/a
198.9255	0.21	397851	keystroke_e	e	n/a
199.0915	0.1345	398183	keystroke_r	r	n/a
199.4065	0.164	398813	keystroke_t	t	n/a
199.7515	0.149	399503	keystroke_e	e	n/a
200.081	0.1495	400162	keystroke_x	x	n/a
200.4105	0.15	400821	keystroke_Key.space	Key.space	n/a
200.861	0.0905	401722	keystroke_g	g	n/a
201.0105	0.121	402021	keystroke_i	i	n/a
201.1765	0.15	402353	keystroke_v	v	n/a
201.611	0.06	403222	keystroke_s	s	n/a
202.6155	0.121	405231	keystroke_Key.backspace	Key.backspace	n/a
203.127	0.119	406254	keystroke_e	e	n/a
203.351	0.1645	406702	keystroke_s	s	n/a
203.711	0.1195	407422	keystroke_Key.enter	Key.enter	n/a
203.8415	9.5325	407683	prompt	n/a	record walk worse bids\n
204.566	0.15	409132	keystroke_r	r	n/a
204.641	0.15	409282	keystroke_e	e	n/a
205.076	0.1055	410152	keystroke_e	e	n/a
205.601	0.09	411202	keystroke_Key.backspace	Key.backspace	n/a
205.8555	0.1655	411711	keystroke_c	c	n/a
206.9205	0.1355	413841	keystroke_o	o	n/a
207.0715	0.075	414143	keystroke_r	r	n/a
207.3265	0.15	414653	keystroke_d	d	n/a
207.521	0.15	415042	keystroke_Key.space	Key.space	n/a
207.7765	0.1195	415553	keystroke_w	w	n/a
207.986	0.18	415972	keystroke_a	a	n/a
208.121	0.09	416242	keystroke_l	l	n/a
208.3305	0.1805	416661	keystroke_k	k	n/a
208.466	0.165	416932	keystroke_Key.space	Key.space	n/a
208.706	0.165	417412	keystroke_w	w	n/a
208.841	0.135	417682	keystroke_o	o	n/a
208.991	0.105	417982	keystroke_r	r	n/a
209.261	0.15	418522	keystroke_s	s	n/a
209.651	0.1655	419302	keystroke_e	e	n/a
209.846	0.1195	419692	keystroke_Key.space	Key.space	n/a
210.1755	0.045	420351	keystroke_i	i	n/a
211.571	0.1045	423142	keystroke_Key.backspace	Key.backspace	n/a
211.871	0.12	423742	keystroke_b	b	n/a
212.021	0.0905	424042	keystroke_i	i	n/a
212.1705	0.15	424341	keystroke_d	d	n/a
212.4255	0.151	424851	keystroke_s	s	n/a
213.281	0.0895	426562	keystroke_Key.enter	Key.enter	n/a
213.3785	8.095	426757	prompt	n/a	performs demonstrates concert thing\n
214.106	0.135	428212	keystroke_p	p	n/a
214.256	0.195	428512	keystroke_e	e	n/a
214.421	0.09	428842	keystroke_r	r	n/a
214.661	0.1505	429322	keystroke_f	f	n/a
214.781	0.105	429562	keystroke_o	o	n/a
214.9605	0.1205	429921	keystroke_r	r	n/a
215.111	0.105	430222	keystroke_m	m	n/a
215.6055	0.136	431211	keystroke_s	s	n/a
215.756	0.1495	431512	keystroke_Key.space	Key.space	n/a
215.9515	0.105	431903	keystroke_d	d	n/a
216.1765	0.1495	432353	keystroke_e	e	n/a
216.326	0.09	432652	keystroke_m	m	n/a
216.536	0.12	433072	keystroke_o	o	n/a
216.626	0.1355	433252	keystroke_n	n	n/a
216.8065	0.21	433613	keystroke_s	s	n/a
217.105	0.076	434210	keystroke_t	t	n/a
217.3015	0.1195	434603	keystroke_r	r	n/a
217.4365	0.195	434873	keystroke_a	a	n/a
217.646	0.1495	435292	keystroke_t	t	n/a
217.7805	0.15	435561	keystroke_e	e	n/a
218.0355	0.1655	436071	keystroke_s	s	n/a
218.1705	0.15	436341	keystroke_Key.space	Key.space	n/a
218.3505	0.196	436701	keystroke_c	c	n/a
218.5605	0.1655	437121	keystroke_o	o	n/a
218.7105	0.12	437421	keystroke_n	n	n/a
218.9955	0.106	437991	keystroke_c	c	n/a
219.326	0.1645	438652	keystroke_e	e	n/a
219.7155	0.12	439431	keystroke_r	r	n/a
220.001	0.105	440002	keystroke_t	t	n/a
220.166	0.135	440332	keystroke_Key.space	Key.space	n/a
220.316	0.105	440632	keystroke_t	t	n/a
220.4065	0.0895	440813	keystroke_h	h	n/a
220.6165	0.059	441233	keystroke_i	i	n/a
220.7205	0.106	441441	keystroke_n	n	n/a
221.051	0.09	442102	keystroke_g	g	n/a
221.396	0.0755	442792	keystroke_Key.enter	Key.enter	n/a
221.478	11.89	442956	prompt	n/a	candidate improvements genius cent\n
222.2215	0.1495	444443	keystroke_c	c	n/a
222.836	0.12	445672	keystroke_a	a	n/a
222.971	0.0605	445942	keystroke_n	n	n/a
223.136	0.1805	446272	keystroke_d	d	n/a
223.3165	0.074	446633	keystroke_i	i	n/a
223.4965	0.104	446993	keystroke_d	d	n/a
223.7815	0.1795	447563	keystroke_a	a	n/a
224.021	0.1205	448042	keystroke_t	t	n/a
224.2165	0.149	448433	keystroke_e	e	n/a
224.3665	0.134	448733	keystroke_Key.space	Key.space	n/a
224.5465	0.09	449093	keystroke_i	i	n/a
224.7865	0.09	449573	keystroke_m	m	n/a
225.0265	0.1345	450053	keystroke_p	p	n/a
225.2365	0.1195	450473	keystroke_r	r	n/a
225.341	0.165	450682	keystroke_o	o	n/a
225.806	0.0755	451612	keystroke_e	e	n/a
226.9755	0.15	453951	keystroke_Key.backspace	Key.backspace	n/a
227.1565	0.1195	454313	keystroke_v	v	n/a
227.3805	0.15	454761	keystroke_e	e	n/a
227.6655	0.075	455331	keystroke_m	m	n/a
227.8315	0.165	455663	keystroke_e	e	n/a
227.9515	0.09	455903	keystroke_n	n	n/a
228.3715	0.195	456743	keystroke_s	s	n/a
228.9855	0.1205	457971	keystroke_Key.backspace	Key.backspace	n/a
229.3015	0.075	458603	keystroke_t	t	n/a
229.4965	0.2095	458993	keystroke_s	s	n/a
229.661	0.1345	459322	keystroke_Key.space	Key.space	n/a
229.856	0.1055	459712	keystroke_g	g	n/a
230.0665	0.165	460133	keystroke_e	e	n/a
230.6965	0.1195	461393	keystroke_n	n	n/a
230.936	0.12	461872	keystroke_i	i	n/a
231.206	0.1045	462412	keystroke_u	u	n/a
231.551	0.1045	463102	keystroke_s	s	n/a
231.791	0.135	463582	keystroke_Key.space	Key.space	n/a
232.001	0.135	464002	keystroke_c	c	n/a
232.601	0.15	465202	keystroke_e	e	n/a
232.721	0.0745	465442	keystroke_n	n	n/a
232.991	0.0605	465982	keystroke_t	t	n/a
233.2755	0.09	466551	keystroke_Key.enter	Key.enter	n/a
233.373	12.7445	466746	prompt	n/a	alike widespread productive imports\n
234.401	0.15	468802	keystroke_a	a	n/a
234.536	0.105	469072	keystroke_l	l	n/a
235.616	0.075	471232	keystroke_i	i	n/a
235.8415	0.0895	471683	keystroke_k	k	n/a
235.9615	0.105	471923	keystroke_e	e	n/a
236.0805	0.15	472161	keystroke_Key.space	Key.space	n/a
236.3365	0.075	472673	keystroke_w	w	n/a
236.441	0.075	472882	keystroke_i	i	n/a
236.7405	0.106	473481	keystroke_d	d	n/a
236.996	0.1045	473992	keystroke_e	e	n/a
237.251	0.18	474502	keystroke_s	s	n/a
237.566	0.105	475132	keystroke_p	p	n/a
237.866	0.1655	475732	keystroke_r	r	n/a
237.956	0.3	475912	keystroke_e	e	n/a
238.5705	0.136	477141	keystroke_a	a	n/a
238.826	0.1805	477652	keystroke_d	d	n/a
239.051	0.1345	478102	keystroke_Key.space	Key.space	n/a
239.306	0.15	478612	keystroke_p	p	n/a
239.561	0.1205	479122	keystroke_r	r	n/a
239.651	0.135	479302	keystroke_o	o	n/a
239.861	0.0905	479722	keystroke_d	d	n/a
240.5655	0.09	481131	keystroke_u	u	n/a
240.8355	0.195	481671	keystroke_c	c	n/a
241.722	0.089	483444	keystroke_t	t	n/a
241.856	0.09	483712	keystroke_i	i	n/a
242.036	0.15	484072	keystroke_v	v	n/a
242.276	0.15	484552	keystroke_e	e	n/a
242.396	0.15	484792	keystroke_Key.space	Key.space	n/a
243.1905	0.12	486381	keystroke_i	i	n/a
244.4815	0.15	488963	keystroke_m	m	n/a
244.7815	0.179	489563	keystroke_p	p	n/a
244.9315	0.2245	489863	keystroke_o	o	n/a
245.2015	0.089	490403	keystroke_r	r	n/a
245.4415	0.105	490883	keystroke_t	t	n/a
245.666	0.15	491332	keystroke_s	s	n/a
245.996	0.1195	491992	keystroke_Key.enter	Key.enter	n/a
246.121	7.662	492242	prompt	n/a	info band shepherd ma'am\n
246.7305	0.06	493461	keystroke_i	i	n/a
247.7965	0.105	495593	keystroke_n	n	n/a
248.0355	0.1505	496071	keystroke_f	f	n/a
248.126	0.3005	496252	keystroke_o	o	n/a
248.756	0.15	497512	keystroke_Key.space	Key.space	n/a
248.936	0.15	497872	keystroke_b	b	n/a
249.161	0.18	498322	keystroke_a	a	n/a
249.2815	0.0895	498563	keystroke_n	n	n/a
249.521	0.15	499042	keystroke_d	d	n/a
249.656	0.12	499312	keystroke_Key.space	Key.space	n/a
249.821	0.1055	499642	keystroke_s	s	n/a
249.927	0.104	499854	keystroke_h	h	n/a
250.091	0.15	500182	keystroke_e	e	n/a
250.376	0.12	500752	keystroke_p	p	n/a
250.6315	0.09	501263	keystroke_h	h	n/a
250.736	0.1945	501472	keystroke_e	e	n/a
250.9315	0.1345	501863	keystroke_r	r	n/a
251.201	0.18	502402	keystroke_d	d	n/a
251.6205	0.135	503241	keystroke_Key.space	Key.space	n/a
251.8755	0.09	503751	keystroke_m	m	n/a
251.9955	0.1655	503991	keystroke_a	a	n/a
252.7465	0.1195	505493	keystroke_'	'	n/a
252.971	0.12	505942	keystroke_a	a	n/a
253.151	0.06	506302	keystroke_m	m	n/a
253.6915	0.09	507383	keystroke_Key.enter	Key.enter	n/a
253.787	11.5305	507574	prompt	n/a	cycle increasingly charleston replication\n
254.561	0.18	509122	keystroke_c	c	n/a
254.816	0.09	509632	keystroke_y	y	n/a
255.0715	0.1195	510143	keystroke_c	c	n/a
255.326	0.12	510652	keystroke_l	l	n/a
255.506	0.1805	511012	keystroke_e	e	n/a
255.6705	0.12	511341	keystroke_Key.space	Key.space	n/a
255.866	0.09	511732	keystroke_i	i	n/a
256.256	0.09	512512	keystroke_c	c	n/a
257.321	0.075	514642	keystroke_Key.backspace	Key.backspace	n/a
257.6365	0.104	515273	keystroke_n	n	n/a
257.9065	0.165	515813	keystroke_c	c	n/a
258.221	0.18	516442	keystroke_r	r	n/a
258.311	0.18	516622	keystroke_e	e	n/a
258.581	0.165	517162	keystroke_a	a	n/a
258.806	0.15	517612	keystroke_s	s	n/a
258.9415	0.1045	517883	keystroke_i	i	n/a
259.151	0.105	518302	keystroke_n	n	n/a
259.391	0.1055	518782	keystroke_g	g	n/a
259.541	0.195	519082	keystroke_l	l	n/a
259.931	0.06	519862	keystroke_y	y	n/a
260.1265	0.15	520253	keystroke_Key.space	Key.space	n/a
260.366	0.15	520732	keystroke_c	c	n/a
260.501	0.075	521002	keystroke_h	h	n/a
260.681	0.1805	521362	keystroke_a	a	n/a
260.877	0.1345	521754	keystroke_r	r	n/a
261.0565	0.134	522113	keystroke_l	l	n/a
261.1755	0.105	522351	keystroke_e	e	n/a
261.3565	0.195	522713	keystroke_s	s	n/a
261.8655	0.105	523731	keystroke_t	t	n/a
262.0005	0.105	524001	keystroke_o	o	n/a
262.241	0.135	524482	keystroke_n	n	n/a
262.466	0.1345	524932	keystroke_Key.space	Key.space	n/a
262.6305	0.21	525261	keystroke_r	r	n/a
262.7515	0.164	525503	keystroke_e	e	n/a
263.066	0.135	526132	keystroke_p	p	n/a
263.321	0.1205	526642	keystroke_l	l	n/a
263.576	0.1045	527152	keystroke_i	i	n/a
263.6955	0.1665	527391	keystroke_c	c	n/a
263.9515	0.179	527903	keystroke_a	a	n/a
264.221	0.105	528442	keystroke_t	t	n/a
264.3115	0.1195	528623	keystroke_i	i	n/a
264.4765	0.164	528953	keystroke_o	o	n/a
264.6255	0.1355	529251	keystroke_n	n	n/a
265.1955	0.12	530391	keystroke_Key.enter	Key.enter	n/a
265.3215	9.4165	530643	prompt	n/a	packard goes military objective\n
266.1415	0.134	532283	keystroke_p	p	n/a
266.2915	0.0895	532583	keystroke_a	a	n/a
266.4855	0.1805	532971	keystroke_c	c	n/a
266.651	0.12	533302	keystroke_k	k	n/a
266.8455	0.195	533691	keystroke_a	a	n/a
267.4905	0.046	534981	keystroke_r	r	n/a
267.6255	0.18	535251	keystroke_d	d	n/a
267.8355	0.135	535671	keystroke_Key.space	Key.space	n/a
268.106	0.1195	536212	keystroke_g	g	n/a
268.2105	0.1355	536421	keystroke_o	o	n/a
268.3605	0.1355	536721	keystroke_e	e	n/a
268.571	0.1795	537142	keystroke_s	s	n/a
268.6905	0.1505	537381	keystroke_Key.space	Key.space	n/a
269.141	0.06	538282	keystroke_i	i	n/a
269.636	0.105	539272	keystroke_Key.backspace	Key.backspace	n/a
269.996	0.136	539992	keystroke_m	m	n/a
270.446	0.09	540892	keystroke_i	i	n/a
270.7315	0.1345	541463	keystroke_l	l	n/a
271.031	0.075	542062	keystroke_i	i	n/a
271.406	0.105	542812	keystroke_t	t	n/a
271.632	0.224	543264	keystroke_a	a	n/a
271.8565	0.1495	543713	keystroke_r	r	n/a
272.0805	0.091	544161	keystroke_y	y	n/a
272.291	0.135	544582	keystroke_Key.space	Key.space	n/a
272.486	0.15	544972	keystroke_o	o	n/a
272.771	0.135	545542	keystroke_b	b	n/a
272.966	0.12	545932	keystroke_j	j	n/a
273.131	0.09	546262	keystroke_e	e	n/a
273.371	0.1655	546742	keystroke_c	c	n/a
273.656	0.136	547312	keystroke_t	t	n/a
273.836	0.0895	547672	keystroke_i	i	n/a
274.0005	0.1505	548001	keystroke_v	v	n/a
274.2105	0.1805	548421	keystroke_e	e	n/a
274.646	0.0895	549292	keystroke_Key.enter	Key.enter	n/a
274.743	10.615	549486	prompt	n/a	danny mardi arrived observation\n
275.441	0.1345	550882	keystroke_d	d	n/a
275.6205	0.1655	551241	keystroke_a	a	n/a
275.771	0.0595	551542	keystroke_n	n	n/a
275.936	0.075	551872	keystroke_n	n	n/a
276.1755	0.09	552351	keystroke_y	y	n/a
276.3405	0.1355	552681	keystroke_Key.space	Key.space	n/a
276.7005	0.1055	553401	keystroke_a	a	n/a
277.1805	0.0905	554361	keystroke_Key.backspace	Key.backspace	n/a
277.5105	0.136	555021	keystroke_m	m	n/a
278.0655	0.1805	556131	keystroke_a	a	n/a
278.2905	0.09	556581	keystroke_r	r	n/a
278.5455	0.165	557091	keystroke_d	d	n/a
278.7265	0.0595	557453	keystroke_i	i	n/a
279.0105	0.135	558021	keystroke_Key.space	Key.space	n/a
279.3115	0.18	558623	keystroke_a	a	n/a
279.581	0.075	559162	keystroke_r	r	n/a
279.7615	0.0895	559523	keystroke_r	r	n/a
280.391	0.105	560782	keystroke_i	i	n/a
280.586	0.15	561172	keystroke_v	v	n/a
280.841	0.1345	561682	keystroke_e	e	n/a
281.0965	0.135	562193	keystroke_d	d	n/a
281.2315	0.1345	562463	keystroke_Key.space	Key.space	n/a
281.4255	0.1355	562851	keystroke_o	o	n/a
281.6055	0.1355	563211	keystroke_b	b	n/a
281.906	0.15	563812	keystroke_s	s	n/a
282.1165	0.2385	564233	keystroke_e	e	n/a
282.3405	0.136	564681	keystroke_r	r	n/a
282.926	0.1655	565852	keystroke_a	a	n/a
283.496	0.09	566992	keystroke_Key.backspace	Key.backspace	n/a
283.7505	0.1505	567501	keystroke_v	v	n/a
283.991	0.1645	567982	keystroke_a	a	n/a
284.2915	0.1045	568583	keystroke_t	t	n/a
284.4555	0.09	568911	keystroke_i	i	n/a
284.621	0.1205	569242	keystroke_o	o	n/a
284.8165	0.119	569633	keystroke_n	n	n/a
285.2355	0.1205	570471	keystroke_Key.enter	Key.enter	n/a
285.3625	6.3855	570725	prompt	n/a	john florist ever sterling\n
286.151	0.135	572302	keystroke_j	j	n/a
286.33	0.1805	572660	keystroke_o	o	n/a
286.4655	0.09	572931	keystroke_h	h	n/a
286.7065	0.195	573413	keystroke_n	n	n/a
286.841	0.135	573682	keystroke_Key.space	Key.space	n/a
287.0815	0.1345	574163	keystroke_f	f	n/a
287.171	0.06	574342	keystroke_l	l	n/a
287.396	0.1045	574792	keystroke_o	o	n/a
287.5615	0.104	575123	keystroke_r	r	n/a
287.6805	0.0755	575361	keystroke_i	i	n/a
287.8315	0.224	575663	keystroke_s	s	n/a
288.1905	0.0755	576381	keystroke_t	t	n/a
288.2955	0.15	576591	keystroke_Key.space	Key.space	n/a
288.491	0.165	576982	keystroke_e	e	n/a
288.776	0.15	577552	keystroke_v	v	n/a
289.031	0.1955	578062	keystroke_e	e	n/a
289.2415	0.1195	578483	keystroke_r	r	n/a
289.376	0.15	578752	keystroke_Key.space	Key.space	n/a
289.541	0.1955	579082	keystroke_s	s	n/a
289.856	0.09	579712	keystroke_t	t	n/a
290.0055	0.18	580011	keystroke_e	e	n/a
290.1555	0.1355	580311	keystroke_r	r	n/a
290.726	0.105	581452	keystroke_l	l	n/a
290.9665	0.0745	581933	keystroke_i	i	n/a
291.131	0.135	582262	keystroke_n	n	n/a
291.341	0.12	582682	keystroke_g	g	n/a
291.6415	0.1045	583283	keystroke_Key.enter	Key.enter	n/a
291.7525	9.22	583505	prompt	n/a	disposition jazz maine testimony\n
292.466	0.1205	584932	keystroke_d	d	n/a
292.6305	0.091	585261	keystroke_i	i	n/a
292.766	0.1795	585532	keystroke_s	s	n/a
292.991	0.1795	585982	keystroke_p	p	n/a
293.1855	0.121	586371	keystroke_o	o	n/a
293.4115	0.164	586823	keystroke_s	s	n/a
293.6205	0.061	587241	keystroke_i	i	n/a
293.831	0.1195	587662	keystroke_t	t	n/a
293.966	0.0745	587932	keystroke_i	i	n/a
294.026	0.135	588052	keystroke_o	o	n/a
294.3105	0.21	588621	keystroke_n	n	n/a
294.6105	0.151	589221	keystroke_Key.space	Key.space	n/a
294.8955	0.121	589791	keystroke_j	j	n/a
295.001	0.1195	590002	keystroke_a	a	n/a
295.2855	0.106	590571	keystroke_z	z	n/a
295.4965	0.134	590993	keystroke_z	z	n/a
295.6155	0.1345	591231	keystroke_Key.space	Key.space	n/a
295.901	0.1045	591802	keystroke_m	m	n/a
296.0515	0.1345	592103	keystroke_a	a	n/a
296.171	0.0745	592342	keystroke_i	i	n/a
296.47	0.1805	592940	keystroke_e	e	n/a
297.041	0.075	594082	keystroke_Key.backspace	Key.backspace	n/a
297.3265	0.12	594653	keystroke_n	n	n/a
297.521	0.12	595042	keystroke_e	e	n/a
297.671	0.15	595342	keystroke_Key.space	Key.space	n/a
297.881	0.1045	595762	keystroke_t	t	n/a
298.0315	0.1345	596063	keystroke_e	e	n/a
298.3305	0.0455	596661	keystroke_s	s	n/a
299.0065	0.09	598013	keystroke_t	t	n/a
299.2605	0.076	598521	keystroke_i	i	n/a
299.5455	0.105	599091	keystroke_m	m	n/a
299.7715	0.09	599543	keystroke_o	o	n/a
299.906	0.1045	599812	keystroke_n	n	n/a
300.2205	0.075	600441	keystroke_y	y	n/a
300.8505	0.1205	601701	keystroke_Key.enter	Key.enter	n/a
300.9775	13.15	601955	prompt	n/a	delegation uzbekistan reception prior\n
301.7955	0.1205	603591	keystroke_d	d	n/a
302.0815	0.104	604163	keystroke_e	e	n/a
302.276	0.1195	604552	keystroke_l	l	n/a
302.426	0.135	604852	keystroke_e	e	n/a
302.7105	0.105	605421	keystroke_g	g	n/a
302.921	0.1795	605842	keystroke_a	a	n/a
303.236	0.09	606472	keystroke_t	t	n/a
303.416	0.09	606832	keystroke_i	i	n/a
303.596	0.1055	607192	keystroke_o	o	n/a
303.806	0.15	607612	keystroke_n	n	n/a
304.046	0.135	608092	keystroke_Key.space	Key.space	n/a
304.376	0.12	608752	keystroke_u	u	n/a
304.661	0.135	609322	keystroke_z	z	n/a
305.051	0.1205	610102	keystroke_b	b	n/a
305.2605	0.15	610521	keystroke_e	e	n/a
305.5755	0.076	611151	keystroke_k	k	n/a
305.846	0.0745	611692	keystroke_i	i	n/a
305.9955	0.18	611991	keystroke_s	s	n/a
306.326	0.0155	612652	keystroke_t	t	n/a
306.491	0.1655	612982	keystroke_a	a	n/a
306.6705	0.091	613341	keystroke_n	n	n/a
310.003	0.0885	620006	keystroke_Key.space	Key.space	n/a
310.1215	0.135	620243	keystroke_r	r	n/a
310.1805	0.151	620361	keystroke_e	e	n/a
310.4815	0.104	620963	keystroke_c	c	n/a
311.291	0.1655	622582	keystroke_e	e	n/a
311.471	0.1205	622942	keystroke_p	p	n/a
311.7415	0.104	623483	keystroke_t	t	n/a
311.8605	0.075	623721	keystroke_i	i	n/a
312.416	0.09	624832	keystroke_o	o	n/a
312.6105	0.225	625221	keystroke_n	n	n/a
312.7755	0.165	625551	keystroke_Key.space	Key.space	n/a
312.9865	0.119	625973	keystroke_p	p	n/a
313.166	0.1345	626332	keystroke_r	r	n/a
313.2855	0.0605	626571	keystroke_i	i	n/a
313.466	0.15	626932	keystroke_o	o	n/a
313.706	0.0895	627412	keystroke_r	r	n/a
313.991	0.135	627982	keystroke_Key.enter	Key.enter	n/a
314.1325	8.0655	628265	prompt	n/a	bars hair employer guild\n
314.951	0.1645	629902	keystroke_b	b	n/a
315.2655	0.18	630531	keystroke_a	a	n/a
315.5355	0.105	631071	keystroke_r	r	n/a
315.7615	0.1795	631523	keystroke_s	s	n/a
315.911	0.15	631822	keystroke_Key.space	Key.space	n/a
316.301	0.15	632602	keystroke_a	a	n/a
316.7655	0.09	633531	keystroke_Key.backspace	Key.backspace	n/a
317.0815	0.1045	634163	keystroke_h	h	n/a
317.306	0.1355	634612	keystroke_a	a	n/a
317.486	0.075	634972	keystroke_i	i	n/a
317.666	0.1045	635332	keystroke_r	r	n/a
317.815	0.106	635630	keystroke_Key.space	Key.space	n/a
318.0105	0.135	636021	keystroke_e	e	n/a
318.161	0.1045	636322	keystroke_m	m	n/a
318.386	0.12	636772	keystroke_p	p	n/a
318.6255	0.1055	637251	keystroke_l	l	n/a
318.866	0.09	637732	keystroke_o	o	n/a
319.121	0.075	638242	keystroke_y	y	n/a
319.361	0.1655	638722	keystroke_e	e	n/a
319.601	0.1205	639202	keystroke_r	r	n/a
319.766	0.1345	639532	keystroke_Key.space	Key.space	n/a
319.976	0.1355	639952	keystroke_g	g	n/a
320.096	0.105	640192	keystroke_u	u	n/a
320.5465	0.104	641093	keystroke_l	l	n/a
320.981	0.1045	641962	keystroke_Key.backspace	Key.backspace	n/a
321.311	0.105	642622	keystroke_i	i	n/a
321.5355	0.1205	643071	keystroke_l	l	n/a
321.641	0.1795	643282	keystroke_d	d	n/a
322.0755	0.121	644151	keystroke_Key.enter	Key.enter	n/a
322.207	6.7105	644414	prompt	n/a	marked employees pride lost\n
323.021	0.135	646042	keystroke_m	m	n/a
323.186	0.2095	646372	keystroke_a	a	n/a
323.4115	0.1345	646823	keystroke_r	r	n/a
323.561	0.1195	647122	keystroke_k	k	n/a
323.6955	0.1505	647391	keystroke_e	e	n/a
324.056	0.15	648112	keystroke_d	d	n/a
324.1905	0.1355	648381	keystroke_Key.space	Key.space	n/a
324.4315	0.1945	648863	keystroke_e	e	n/a
324.581	0.105	649162	keystroke_m	m	n/a
324.926	0.09	649852	keystroke_p	p	n/a
325.151	0.105	650302	keystroke_l	l	n/a
325.406	0.15	650812	keystroke_o	o	n/a
325.6765	0.0895	651353	keystroke_y	y	n/a
325.871	0.075	651742	keystroke_e	e	n/a
326.0665	0.1045	652133	keystroke_e	e	n/a
326.261	0.195	652522	keystroke_s	s	n/a
326.426	0.15	652852	keystroke_Key.space	Key.space	n/a
326.801	0.12	653602	keystroke_p	p	n/a
327.0105	0.105	654021	keystroke_r	r	n/a
327.1305	0.09	654261	keystroke_i	i	n/a
327.3255	0.1055	654651	keystroke_d	d	n/a
327.5655	0.12	655131	keystroke_e	e	n/a
327.671	0.1195	655342	keystroke_Key.space	Key.space	n/a
327.866	0.09	655732	keystroke_l	l	n/a
328.151	0.135	656302	keystroke_o	o	n/a
328.2705	0.1805	656541	keystroke_s	s	n/a
328.571	0.09	657142	keystroke_t	t	n/a
328.826	0.09	657652	keystroke_Key.enter	Key.enter	n/a
328.9215	7.361	657843	prompt	n/a	evaluate cent arbitration takes\n
329.606	0.105	659212	keystroke_e	e	n/a
329.861	0.15	659722	keystroke_v	v	n/a
330.071	0.18	660142	keystroke_a	a	n/a
330.236	0.1345	660472	keystroke_l	l	n/a
330.4905	0.09	660981	keystroke_u	u	n/a
330.5965	0.1645	661193	keystroke_a	a	n/a
330.836	0.1195	661672	keystroke_t	t	n/a
331.0455	0.1355	662091	keystroke_e	e	n/a
331.2255	0.15	662451	keystroke_Key.space	Key.space	n/a
331.6615	0.165	663323	keystroke_c	c	n/a
331.946	0.195	663892	keystroke_e	e	n/a
332.0805	0.106	664161	keystroke_n	n	n/a
332.3065	0.09	664613	keystroke_t	t	n/a
332.4105	0.1355	664821	keystroke_Key.space	Key.space	n/a
332.636	0.195	665272	keystroke_a	a	n/a
332.861	0.09	665722	keystroke_r	r	n/a
333.2355	0.121	666471	keystroke_b	b	n/a
333.4155	0.1055	666831	keystroke_i	i	n/a
333.6705	0.061	667341	keystroke_t	t	n/a
333.851	0.09	667702	keystroke_r	r	n/a
334.211	0.015	668422	keystroke_a	a	n/a
334.301	0.105	668602	keystroke_t	t	n/a
334.421	0.09	668842	keystroke_i	i	n/a
334.556	0.12	669112	keystroke_o	o	n/a
334.736	0.21	669472	keystroke_n	n	n/a
334.931	0.1795	669862	keystroke_Key.space	Key.space	n/a
335.1115	0.119	670223	keystroke_t	t	n/a
335.2755	0.165	670551	keystroke_a	a	n/a
335.4855	0.091	670971	keystroke_k	k	n/a
335.561	0.1195	671122	keystroke_e	e	n/a
335.7555	0.1655	671511	keystroke_s	s	n/a
336.176	0.105	672352	keystroke_Key.enter	Key.enter	n/a
336.2875	7.0165	672575	prompt	n/a	bare const bunny contacted\n
337.0765	0.1195	674153	keystroke_b	b	n/a
337.2705	0.195	674541	keystroke_a	a	n/a
337.4815	0.18	674963	keystroke_r	r	n/a
337.6465	0.165	675293	keystroke_e	e	n/a
337.8855	0.136	675771	keystroke_Key.space	Key.space	n/a
338.051	0.1505	676102	keystroke_c	c	n/a
338.1705	0.211	676341	keystroke_o	o	n/a
338.3065	0.1495	676613	keystroke_n	n	n/a
338.516	0.1655	677032	keystroke_s	s	n/a
338.756	0.1205	677512	keystroke_t	t	n/a
338.9205	0.1355	677841	keystroke_Key.space	Key.space	n/a
339.1605	0.105	678321	keystroke_b	b	n/a
339.341	0.105	678682	keystroke_u	u	n/a
339.9105	0.061	679821	keystroke_n	n	n/a
340.0915	0.074	680183	keystroke_n	n	n/a
340.361	0.0755	680722	keystroke_y	y	n/a
340.556	0.135	681112	keystroke_Key.space	Key.space	n/a
340.721	0.2105	681442	keystroke_c	c	n/a
340.8715	0.165	681743	keystroke_o	o	n/a
340.9915	0.15	681983	keystroke_n	n	n/a
341.1865	0.105	682373	keystroke_t	t	n/a
341.9055	0.121	683811	keystroke_a	a	n/a
342.1005	0.21	684201	keystroke_c	c	n/a
342.431	0.165	684862	keystroke_t	t	n/a
342.5815	0.164	685163	keystroke_e	e	n/a
342.866	0.12	685732	keystroke_d	d	n/a
343.2255	0.075	686451	keystroke_Key.enter	Key.enter	n/a
343.3085	6.2795	686617	prompt	n/a	armstrong harley heart send\n
343.991	0.1955	687982	keystroke_a	a	n/a
344.2005	0.1355	688401	keystroke_r	r	n/a
344.4405	0.106	688881	keystroke_m	m	n/a
344.6055	0.2105	689211	keystroke_s	s	n/a
344.951	0.045	689902	keystroke_t	t	n/a
345.116	0.105	690232	keystroke_r	r	n/a
345.221	0.165	690442	keystroke_o	o	n/a
345.341	0.135	690682	keystroke_n	n	n/a
345.5215	0.1345	691043	keystroke_g	g	n/a
345.626	0.135	691252	keystroke_Key.space	Key.space	n/a
345.791	0.12	691582	keystroke_h	h	n/a
345.896	0.18	691792	keystroke_a	a	n/a
346.061	0.15	692122	keystroke_r	r	n/a
346.4215	0.1495	692843	keystroke_l	l	n/a
346.6315	0.1345	693263	keystroke_e	e	n/a
346.841	0.09	693682	keystroke_y	y	n/a
347.171	0.12	694342	keystroke_Key.space	Key.space	n/a
347.456	0.09	694912	keystroke_h	h	n/a
347.5765	0.119	695153	keystroke_e	e	n/a
347.7565	0.209	695513	keystroke_a	a	n/a
347.921	0.135	695842	keystroke_r	r	n/a
348.2655	0.12	696531	keystroke_t	t	n/a
348.4005	0.15	696801	keystroke_Key.space	Key.space	n/a
348.581	0.1345	697162	keystroke_s	s	n/a
348.806	0.135	697612	keystroke_e	e	n/a
348.9565	0.0895	697913	keystroke_n	n	n/a
349.136	0.135	698272	keystroke_d	d	n/a
349.481	0.105	698962	keystroke_Key.enter	Key.enter	n/a
349.5925	7.4055	699185	prompt	n/a	chem disorder shelf platforms\n
350.411	0.15	700822	keystroke_c	c	n/a
350.546	0.09	701092	keystroke_h	h	n/a
350.771	0.18	701542	keystroke_e	e	n/a
350.936	0.18	701872	keystroke_m	m	n/a
351.056	0.15	702112	keystroke_Key.space	Key.space	n/a
351.2815	0.0895	702563	keystroke_d	d	n/a
351.461	0.0905	702922	keystroke_i	i	n/a
351.581	0.165	703162	keystroke_s	s	n/a
351.9255	0.136	703851	keystroke_o	o	n/a
352.841	0.1205	705682	keystroke_r	r	n/a
353.1105	0.105	706221	keystroke_d	d	n/a
353.3355	0.18	706671	keystroke_e	e	n/a
353.4715	0.119	706943	keystroke_r	r	n/a
353.5915	0.134	707183	keystroke_Key.space	Key.space	n/a
353.7705	0.1655	707541	keystroke_s	s	n/a
353.891	0.09	707782	keystroke_h	h	n/a
354.026	0.165	708052	keystroke_e	e	n/a
354.221	0.12	708442	keystroke_l	l	n/a
354.476	0.12	708952	keystroke_f	f	n/a
354.731	0.1645	709462	keystroke_Key.space	Key.space	n/a
355.1655	0.106	710331	keystroke_p	p	n/a
355.391	0.1345	710782	keystroke_l	l	n/a
355.4955	0.1955	710991	keystroke_a	a	n/a
355.721	0.09	711442	keystroke_t	t	n/a
356.0055	0.1355	712011	keystroke_f	f	n/a
356.1105	0.151	712221	keystroke_o	o	n/a
356.276	0.1045	712552	keystroke_r	r	n/a
356.4405	0.1055	712881	keystroke_m	m	n/a
356.591	0.1355	713182	keystroke_s	s	n/a
356.891	0.105	713782	keystroke_Key.enter	Key.enter	n/a
357.0025	6.685	714005	prompt	n/a	zope hate affecting health\n
357.7915	0.1645	715583	keystroke_z	z	n/a
357.896	0.105	715792	keystroke_o	o	n/a
358.1365	0.1345	716273	keystroke_p	p	n/a
358.346	0.15	716692	keystroke_e	e	n/a
358.451	0.135	716902	keystroke_Key.space	Key.space	n/a
358.811	0.135	717622	keystroke_h	h	n/a
358.931	0.18	717862	keystroke_a	a	n/a
359.276	0.1205	718552	keystroke_t	t	n/a
359.4705	0.1505	718941	keystroke_e	e	n/a
359.651	0.136	719302	keystroke_Key.space	Key.space	n/a
359.8615	0.1945	719723	keystroke_a	a	n/a
360.116	0.09	720232	keystroke_f	f	n/a
360.311	0.0915	720622	keystroke_f	f	n/a
360.446	0.135	720892	keystroke_e	e	n/a
361.106	0.165	722212	keystroke_c	c	n/a
361.496	0.1055	722992	keystroke_t	t	n/a
361.6315	0.0745	723263	keystroke_i	i	n/a
361.811	0.1055	723622	keystroke_n	n	n/a
361.976	0.135	723952	keystroke_g	g	n/a
362.051	0.12	724102	keystroke_Key.space	Key.space	n/a
362.231	0.12	724462	keystroke_h	h	n/a
362.336	0.12	724672	keystroke_e	e	n/a
362.681	0.18	725362	keystroke_a	a	n/a
362.8015	0.1495	725603	keystroke_l	l	n/a
363.071	0.0895	726142	keystroke_t	t	n/a
363.1305	0.09	726261	keystroke_h	h	n/a
363.611	0.0745	727222	keystroke_Key.enter	Key.enter	n/a
363.6925	5.3955	727385	prompt	n/a	parker skin boxes rarely\n
364.376	0.15	728752	keystroke_p	p	n/a
364.496	0.1955	728992	keystroke_a	a	n/a
364.6765	0.12	729353	keystroke_r	r	n/a
364.8415	0.089	729683	keystroke_k	k	n/a
364.9615	0.165	729923	keystroke_e	e	n/a
365.1415	0.1045	730283	keystroke_r	r	n/a
365.2305	0.135	730461	keystroke_Key.space	Key.space	n/a
365.426	0.165	730852	keystroke_s	s	n/a
365.5315	0.0745	731063	keystroke_k	k	n/a
365.7565	0.0745	731513	keystroke_i	i	n/a
365.951	0.18	731902	keystroke_n	n	n/a
366.0715	0.164	732143	keystroke_Key.space	Key.space	n/a
366.3105	0.1205	732621	keystroke_b	b	n/a
366.4155	0.12	732831	keystroke_o	o	n/a
366.626	0.1205	733252	keystroke_x	x	n/a
366.896	0.105	733792	keystroke_e	e	n/a
367.0915	0.1645	734183	keystroke_s	s	n/a
367.2115	0.1495	734423	keystroke_Key.space	Key.space	n/a
367.481	0.09	734962	keystroke_r	r	n/a
367.616	0.21	735232	keystroke_a	a	n/a
367.886	0.195	735772	keystroke_r	r	n/a
368.0655	0.166	736131	keystroke_e	e	n/a
368.3365	0.149	736673	keystroke_l	l	n/a
368.636	0.09	737272	keystroke_y	y	n/a
368.996	0.09	737992	keystroke_Key.enter	Key.enter	n/a
369.092	4.5565	738184	prompt	n/a	sharing aware ripe skiing\n
369.731	0.12	739462	keystroke_s	s	n/a
369.836	0.09	739672	keystroke_h	h	n/a
369.986	0.18	739972	keystroke_a	a	n/a
370.1815	0.1195	740363	keystroke_r	r	n/a
370.241	0.165	740482	keystroke_i	i	n/a
370.3915	0.12	740783	keystroke_n	n	n/a
370.571	0.12	741142	keystroke_g	g	n/a
370.661	0.135	741322	keystroke_Key.space	Key.space	n/a
370.946	0.18	741892	keystroke_a	a	n/a
371.246	0.105	742492	keystroke_w	w	n/a
371.426	0.2255	742852	keystroke_a	a	n/a
371.7565	0.2095	743513	keystroke_e	e	n/a
371.9515	0.134	743903	keystroke_Key.space	Key.space	n/a
373.5105	0.135	747021	keystroke_Key.enter	Key.enter	n/a
373.653	11.6645	747306	prompt	n/a	yards votes sleeping gain\n
375.0405	0.105	750081	keystroke_y	y	n/a
375.3705	0.2105	750741	keystroke_a	a	n/a
375.596	0.09	751192	keystroke_r	r	n/a
376.391	0.135	752782	keystroke_d	d	n/a
376.586	0.1955	753172	keystroke_s	s	n/a
376.796	0.135	753592	keystroke_Key.space	Key.space	n/a
376.976	0.1055	753952	keystroke_b	b	n/a
377.066	0.1205	754132	keystroke_o	o	n/a
377.471	0.1045	754942	keystroke_t	t	n/a
377.5615	0.149	755123	keystroke_e	e	n/a
377.8005	0.195	755601	keystroke_s	s	n/a
377.921	0.135	755842	keystroke_Key.space	Key.space	n/a
378.1165	0.149	756233	keystroke_s	s	n/a
378.2805	0.075	756561	keystroke_l	l	n/a
378.9555	0.075	757911	keystroke_Key.backspace	Key.backspace	n/a
379.1355	0.06	758271	keystroke_Key.backspace	Key.backspace	n/a
379.3155	0.045	758631	keystroke_Key.backspace	Key.backspace	n/a
379.4655	0.0605	758931	keystroke_Key.backspace	Key.backspace	n/a
379.6315	0.074	759263	keystroke_Key.backspace	Key.backspace	n/a
379.8105	0.0605	759621	keystroke_Key.backspace	Key.backspace	n/a
379.961	0.0605	759922	keystroke_Key.backspace	Key.backspace	n/a
380.1115	0.0895	760223	keystroke_Key.backspace	Key.backspace	n/a
381.011	0.1495	762022	keystroke_v	v	n/a
381.1755	0.135	762351	keystroke_o	o	n/a
381.446	0.09	762892	keystroke_t	t	n/a
381.581	0.15	763162	keystroke_e	e	n/a
381.8205	0.1655	763641	keystroke_s	s	n/a
381.9105	0.1355	763821	keystroke_Key.space	Key.space	n/a
382.1055	0.136	764211	keystroke_s	s	n/a
382.2105	0.1505	764421	keystroke_l	l	n/a
382.4055	0.075	764811	keystroke_e	e	n/a
382.5865	0.12	765173	keystroke_e	e	n/a
382.7215	0.105	765443	keystroke_p	p	n/a
382.9465	0.06	765893	keystroke_i	i	n/a
383.1415	0.09	766283	keystroke_n	n	n/a
383.3065	0.12	766613	keystroke_g	g	n/a
383.4115	0.135	766823	keystroke_Key.space	Key.space	n/a
383.5915	0.12	767183	keystroke_g	g	n/a
383.7565	0.209	767513	keystroke_a	a	n/a
383.861	0.0905	767722	keystroke_i	i	n/a
384.0415	0.134	768083	keystroke_n	n	n/a
385.2105	0.105	770421	keystroke_Key.enter	Key.enter	n/a
385.3225	13.3305	770645	prompt	n/a	toilet restrictions cached reasonable\n
386.366	0.1055	772732	keystroke_t	t	n/a
386.4715	0.119	772943	keystroke_o	o	n/a
386.7115	0.074	773423	keystroke_i	i	n/a
386.921	0.1195	773842	keystroke_l	l	n/a
387.1165	0.135	774233	keystroke_e	e	n/a
387.3865	0.075	774773	keystroke_t	t	n/a
387.4915	0.1345	774983	keystroke_Key.space	Key.space	n/a
387.671	0.15	775342	keystroke_r	r	n/a
387.761	0.1795	775522	keystroke_e	e	n/a
388.0915	0.045	776183	keystroke_s	s	n/a
388.6915	0.1495	777383	keystroke_s	s	n/a
388.946	0.075	777892	keystroke_t	t	n/a
389.141	0.0905	778282	keystroke_r	r	n/a
389.276	0.09	778552	keystroke_i	i	n/a
389.516	0.06	779032	keystroke_c	c	n/a
390.521	0.076	781042	keystroke_Key.backspace	Key.backspace	n/a
390.926	0.06	781852	keystroke_Key.backspace	Key.backspace	n/a
391.1205	0.061	782241	keystroke_Key.backspace	Key.backspace	n/a
391.3005	0.075	782601	keystroke_Key.backspace	Key.backspace	n/a
391.5255	0.076	783051	keystroke_Key.backspace	Key.backspace	n/a
391.9615	0.074	783923	keystroke_t	t	n/a
392.1555	0.09	784311	keystroke_r	r	n/a
392.3355	0.105	784671	keystroke_i	i	n/a
392.5155	0.18	785031	keystroke_c	c	n/a
392.9355	0.1205	785871	keystroke_t	t	n/a
393.041	0.1205	786082	keystroke_i	i	n/a
393.1905	0.165	786381	keystroke_o	o	n/a
393.3105	0.15	786621	keystroke_n	n	n/a
393.491	0.1805	786982	keystroke_s	s	n/a
393.626	0.1495	787252	keystroke_Key.space	Key.space	n/a
393.9255	0.1505	787851	keystroke_c	c	n/a
394.4955	0.09	788991	keystroke_a	a	n/a
394.7215	0.1945	789443	keystroke_c	c	n/a
394.901	0.09	789802	keystroke_h	h	n/a
395.471	0.1505	790942	keystroke_d	d	n/a
396.026	0.12	792052	keystroke_Key.backspace	Key.backspace	n/a
396.221	0.105	792442	keystroke_e	e	n/a
396.476	0.15	792952	keystroke_d	d	n/a
396.581	0.15	793162	keystroke_Key.space	Key.space	n/a
396.806	0.15	793612	keystroke_r	r	n/a
396.881	0.165	793762	keystroke_e	e	n/a
397.121	0.165	794242	keystroke_a	a	n/a
397.346	0.18	794692	keystroke_s	s	n/a
397.4515	0.1495	794903	keystroke_o	o	n/a
397.571	0.18	795142	keystroke_n	n	n/a
397.736	0.15	795472	keystroke_a	a	n/a
397.946	0.1505	795892	keystroke_b	b	n/a
398.051	0.1055	796102	keystroke_l	l	n/a
398.2015	0.165	796403	keystroke_e	e	n/a
398.5615	0.09	797123	keystroke_Key.enter	Key.enter	n/a
398.6575	9.2955	797315	prompt	n/a	kirk improving observation roll\n
399.4465	0.044	798893	keystroke_k	k	n/a
399.641	0.075	799282	keystroke_i	i	n/a
399.8215	0.0895	799643	keystroke_r	r	n/a
400.0315	0.18	800063	keystroke_k	k	n/a
400.1815	0.165	800363	keystroke_Key.space	Key.space	n/a
400.4665	0.045	800933	keystroke_i	i	n/a
400.7065	0.1195	801413	keystroke_m	m	n/a
400.976	0.135	801952	keystroke_p	p	n/a
401.2915	0.075	802583	keystroke_r	r	n/a
401.3815	0.12	802763	keystroke_o	o	n/a
401.6365	0.135	803273	keystroke_v	v	n/a
401.7715	0.075	803543	keystroke_i	i	n/a
401.9655	0.105	803931	keystroke_n	n	n/a
402.1455	0.106	804291	keystroke_g	g	n/a
402.2805	0.1205	804561	keystroke_Key.space	Key.space	n/a
402.581	0.045	805162	keystroke_c	c	n/a
403.0465	0.105	806093	keystroke_o	o	n/a
403.856	0.06	807712	keystroke_Key.backspace	Key.backspace	n/a
404.0065	0.074	808013	keystroke_Key.backspace	Key.backspace	n/a
404.2765	0.1345	808553	keystroke_o	o	n/a
404.426	0.12	808852	keystroke_b	b	n/a
405.041	0.1505	810082	keystroke_s	s	n/a
405.2515	0.1945	810503	keystroke_e	e	n/a
405.401	0.1055	810802	keystroke_r	r	n/a
405.7015	0.1495	811403	keystroke_v	v	n/a
405.941	0.15	811882	keystroke_a	a	n/a
406.211	0.105	812422	keystroke_t	t	n/a
406.3165	0.1195	812633	keystroke_i	i	n/a
406.391	0.195	812782	keystroke_o	o	n/a
406.5115	0.18	813023	keystroke_n	n	n/a
406.7965	0.15	813593	keystroke_Key.space	Key.space	n/a
406.9615	0.12	813923	keystroke_r	r	n/a
407.0365	0.09	814073	keystroke_o	o	n/a
407.3065	0.06	814613	keystroke_l	l	n/a
407.4855	0.106	814971	keystroke_l	l	n/a
407.8455	0.106	815691	keystroke_Key.enter	Key.enter	n/a
407.9595	15.7735	815919	prompt	n/a	geographical flag evaluating greek\n
408.911	0.105	817822	keystroke_g	g	n/a
409.0915	0.24	818183	keystroke_e	e	n/a
409.2415	0.1195	818483	keystroke_o	o	n/a
409.4665	0.0745	818933	keystroke_g	g	n/a
409.6915	0.1195	819383	keystroke_r	r	n/a
409.826	0.135	819652	keystroke_a	a	n/a
409.901	0.12	819802	keystroke_p	p	n/a
410.066	0.1055	820132	keystroke_h	h	n/a
410.2465	0.119	820493	keystroke_i	i	n/a
410.3815	0.15	820763	keystroke_c	c	n/a
410.6515	0.149	821303	keystroke_a	a	n/a
410.7265	0.195	821453	keystroke_l	l	n/a
410.8315	0.18	821663	keystroke_Key.space	Key.space	n/a
411.1465	0.105	822293	keystroke_l	l	n/a
411.2215	0.1945	822443	keystroke_a	a	n/a
412.511	0.105	825022	keystroke_Key.backspace	Key.backspace	n/a
412.631	0.09	825262	keystroke_Key.backspace	Key.backspace	n/a
412.8705	0.09	825741	keystroke_g	g	n/a
412.9465	0.135	825893	keystroke_l	l	n/a
413.1265	0.15	826253	keystroke_a	a	n/a
413.981	0.075	827962	keystroke_Key.backspace	Key.backspace	n/a
414.161	0.1055	828322	keystroke_Key.backspace	Key.backspace	n/a
414.5955	0.121	829191	keystroke_Key.backspace	Key.backspace	n/a
415.1065	0.12	830213	keystroke_f	f	n/a
415.4055	0.091	830811	keystroke_a	a	n/a
416.171	0.105	832342	keystroke_Key.backspace	Key.backspace	n/a
416.591	0.1205	833182	keystroke_l	l	n/a
416.7415	0.165	833483	keystroke_a	a	n/a
416.966	0.105	833932	keystroke_g	g	n/a
417.311	0.15	834622	keystroke_Key.space	Key.space	n/a
417.536	0.105	835072	keystroke_e	e	n/a
417.791	0.15	835582	keystroke_v	v	n/a
417.9715	0.1645	835943	keystroke_a	a	n/a
418.136	0.105	836272	keystroke_l	l	n/a
419.3365	0.12	838673	keystroke_u	u	n/a
419.9655	0.1805	839931	keystroke_a	a	n/a
420.266	0.105	840532	keystroke_t	t	n/a
420.386	0.075	840772	keystroke_i	i	n/a
420.5665	0.1205	841133	keystroke_n	n	n/a
420.732	0.1345	841464	keystroke_g	g	n/a
420.851	0.1495	841702	keystroke_Key.space	Key.space	n/a
421.8115	0.09	843623	keystroke_g	g	n/a
422.0355	0.166	844071	keystroke_r	r	n/a
422.1255	0.3605	844251	keystroke_e	e	n/a
422.8765	0.119	845753	keystroke_e	e	n/a
423.1905	0.1055	846381	keystroke_k	k	n/a
423.6105	0.1205	847221	keystroke_Key.enter	Key.enter	n/a
423.7375	11.1405	847475	prompt	n/a	left laundry linux charming\n
424.616	0.1505	849232	keystroke_l	l	n/a
424.901	0.12	849802	keystroke_e	e	n/a
425.126	0.105	850252	keystroke_f	f	n/a
425.396	0.105	850792	keystroke_t	t	n/a
425.516	0.135	851032	keystroke_Key.space	Key.space	n/a
425.711	0.195	851422	keystroke_l	l	n/a
425.8765	0.18	851753	keystroke_a	a	n/a
426.656	0.105	853312	keystroke_u	u	n/a
427.106	0.135	854212	keystroke_n	n	n/a
427.376	0.18	854752	keystroke_d	d	n/a
427.6905	0.121	855381	keystroke_r	r	n/a
428.0665	0.12	856133	keystroke_Key.space	Key.space	n/a
428.306	0.12	856612	keystroke_l	l	n/a
429.2365	0.1345	858473	keystroke_=	=	n/a
430.1805	0.0905	860361	keystroke_Key.backspace	Key.backspace	n/a
430.406	0.0895	860812	keystroke_Key.backspace	Key.backspace	n/a
430.631	0.105	861262	keystroke_Key.backspace	Key.backspace	n/a
431.1115	0.089	862223	keystroke_y	y	n/a
431.4265	0.105	862853	keystroke_Key.space	Key.space	n/a
431.6515	0.1045	863303	keystroke_l	l	n/a
431.861	0.075	863722	keystroke_i	i	n/a
432.0715	0.09	864143	keystroke_n	n	n/a
432.3255	0.091	864651	keystroke_u	u	n/a
432.671	0.15	865342	keystroke_x	x	n/a
432.8665	0.1645	865733	keystroke_Key.space	Key.space	n/a
433.1665	0.1945	866333	keystroke_c	c	n/a
433.316	0.0755	866632	keystroke_h	h	n/a
433.5265	0.135	867053	keystroke_a	a	n/a
433.766	0.1045	867532	keystroke_r	r	n/a
433.976	0.105	867952	keystroke_m	m	n/a
434.171	0.09	868342	keystroke_i	i	n/a
434.321	0.135	868642	keystroke_n	n	n/a
434.501	0.105	869002	keystroke_g	g	n/a
434.7855	0.09	869571	keystroke_Key.enter	Key.enter	n/a
434.883	10.8095	869766	prompt	n/a	reasoning you beautiful judy\n
435.7015	0.33	871403	keystroke_r	r	n/a
435.9255	0.166	871851	keystroke_e	e	n/a
436.2715	0.179	872543	keystroke_a	a	n/a
436.4955	0.2105	872991	keystroke_s	s	n/a
436.6605	0.09	873321	keystroke_o	o	n/a
436.8255	0.1055	873651	keystroke_n	n	n/a
437.0515	0.09	874103	keystroke_g	g	n/a
437.081	0.15	874162	keystroke_i	i	n/a
437.216	0.165	874432	keystroke_n	n	n/a
437.4265	0.0895	874853	keystroke_g	g	n/a
437.5015	0.1195	875003	keystroke_Key.space	Key.space	n/a
439.136	0.0895	878272	keystroke_Key.backspace	Key.backspace	n/a
439.3315	0.074	878663	keystroke_Key.backspace	Key.backspace	n/a
439.5405	0.06	879081	keystroke_Key.backspace	Key.backspace	n/a
439.7355	0.0755	879471	keystroke_Key.backspace	Key.backspace	n/a
439.9315	0.0895	879863	keystroke_Key.backspace	Key.backspace	n/a
440.3215	0.075	880643	keystroke_i	i	n/a
440.5165	0.105	881033	keystroke_n	n	n/a
440.696	0.1055	881392	keystroke_g	g	n/a
440.8455	0.105	881691	keystroke_Key.space	Key.space	n/a
441.1465	0.105	882293	keystroke_y	y	n/a
441.3115	0.1645	882623	keystroke_o	o	n/a
441.416	0.15	882832	keystroke_u	u	n/a
441.6265	0.1345	883253	keystroke_Key.space	Key.space	n/a
441.851	0.09	883702	keystroke_b	b	n/a
442.6305	0.06	885261	keystroke_e	e	n/a
442.7055	0.1805	885411	keystroke_a	a	n/a
442.901	0.0755	885802	keystroke_u	u	n/a
443.0965	0.0745	886193	keystroke_t	t	n/a
443.366	0.12	886732	keystroke_i	i	n/a
443.5765	0.1345	887153	keystroke_f	f	n/a
443.696	0.09	887392	keystroke_u	u	n/a
443.9355	0.1805	887871	keystroke_l	l	n/a
444.056	0.135	888112	keystroke_Key.space	Key.space	n/a
444.2505	0.105	888501	keystroke_j	j	n/a
444.4605	0.075	888921	keystroke_u	u	n/a
444.626	0.1045	889252	keystroke_d	d	n/a
444.7315	0.089	889463	keystroke_y	y	n/a
445.586	0.1055	891172	keystroke_Key.enter	Key.enter	n/a
445.696	7.2565	891392	prompt	n/a	putting formula assign fixtures\n
446.396	0.135	892792	keystroke_p	p	n/a
446.5465	0.1045	893093	keystroke_u	u	n/a
446.996	0.09	893992	keystroke_t	t	n/a
447.326	0.09	894652	keystroke_t	t	n/a
447.491	0.09	894982	keystroke_i	i	n/a
447.6715	0.075	895343	keystroke_n	n	n/a
447.8515	0.104	895703	keystroke_g	g	n/a
448.0005	0.1205	896001	keystroke_Key.space	Key.space	n/a
448.2115	0.135	896423	keystroke_f	f	n/a
448.3005	0.105	896601	keystroke_o	o	n/a
448.5565	0.12	897113	keystroke_r	r	n/a
448.736	0.1055	897472	keystroke_m	m	n/a
449.0055	0.106	898011	keystroke_u	u	n/a
449.2315	0.134	898463	keystroke_l	l	n/a
449.3815	0.15	898763	keystroke_a	a	n/a
449.516	0.105	899032	keystroke_Key.space	Key.space	n/a
449.7265	0.21	899453	keystroke_a	a	n/a
449.9065	0.164	899813	keystroke_s	s	n/a
450.1915	0.15	900383	keystroke_s	s	n/a
450.2965	0.074	900593	keystroke_i	i	n/a
450.5215	0.105	901043	keystroke_g	g	n/a
450.5815	0.15	901163	keystroke_n	n	n/a
450.7155	0.166	901431	keystroke_Key.space	Key.space	n/a
451.1815	0.105	902363	keystroke_f	f	n/a
451.3465	0.06	902693	keystroke_i	i	n/a
451.571	0.12	903142	keystroke_x	x	n/a
451.916	0.1045	903832	keystroke_t	t	n/a
452.0215	0.09	904043	keystroke_u	u	n/a
452.1565	0.179	904313	keystroke_r	r	n/a
452.2755	0.1655	904551	keystroke_e	e	n/a
452.59	0.1355	905180	keystroke_s	s	n/a
452.8605	0.09	905721	keystroke_Key.enter	Key.enter	n/a
452.956	9.0115	905912	prompt	n/a	assumptions sleeve beaches allocated\n
453.6115	0.165	907223	keystroke_a	a	n/a
453.7905	0.1205	907581	keystroke_s	s	n/a
454.031	0.135	908062	keystroke_s	s	n/a
454.106	0.105	908212	keystroke_u	u	n/a
454.361	0.105	908722	keystroke_m	m	n/a
454.586	0.09	909172	keystroke_p	p	n/a
454.841	0.12	909682	keystroke_t	t	n/a
454.946	0.09	909892	keystroke_i	i	n/a
454.9915	0.2245	909983	keystroke_o	o	n/a
455.1715	0.1195	910343	keystroke_n	n	n/a
455.516	0.121	911032	keystroke_s	s	n/a
455.652	0.1485	911304	keystroke_Key.space	Key.space	n/a
455.9205	0.0455	911841	keystroke_a	a	n/a
456.596	0.12	913192	keystroke_Key.backspace	Key.backspace	n/a
456.881	0.135	913762	keystroke_s	s	n/a
457.001	0.135	914002	keystroke_l	l	n/a
457.406	0.075	914812	keystroke_e	e	n/a
457.6615	0.09	915323	keystroke_e	e	n/a
457.9165	0.1495	915833	keystroke_v	v	n/a
458.171	0.15	916342	keystroke_e	e	n/a
458.366	0.1195	916732	keystroke_Key.space	Key.space	n/a
458.6055	0.09	917211	keystroke_b	b	n/a
458.8165	0.135	917633	keystroke_e	e	n/a
459.0265	0.104	918053	keystroke_a	a	n/a
459.251	0.135	918502	keystroke_c	c	n/a
459.356	0.0905	918712	keystroke_h	h	n/a
459.506	0.12	919012	keystroke_e	e	n/a
459.701	0.165	919402	keystroke_s	s	n/a
459.851	0.135	919702	keystroke_Key.space	Key.space	n/a
460.001	0.18	920002	keystroke_a	a	n/a
460.136	0.09	920272	keystroke_l	l	n/a
460.346	0.09	920692	keystroke_l	l	n/a
460.5865	0.119	921173	keystroke_o	o	n/a
460.7205	0.15	921441	keystroke_c	c	n/a
460.9465	0.239	921893	keystroke_a	a	n/a
461.1715	0.1345	922343	keystroke_t	t	n/a
461.2615	0.1495	922523	keystroke_e	e	n/a
461.5305	0.1055	923061	keystroke_d	d	n/a
461.9205	0.0445	923841	keystroke_Key.enter	Key.enter	n/a
461.972	7.316	923944	prompt	n/a	intensity preparing sorted sharon\n
462.6415	0.0745	925283	keystroke_i	i	n/a
462.836	0.09	925672	keystroke_n	n	n/a
463.0905	0.0905	926181	keystroke_t	t	n/a
463.526	0.1055	927052	keystroke_e	e	n/a
463.601	0.1045	927202	keystroke_n	n	n/a
463.8255	0.1505	927651	keystroke_s	s	n/a
463.946	0.1045	927892	keystroke_i	i	n/a
464.2005	0.105	928401	keystroke_t	t	n/a
464.2915	0.104	928583	keystroke_y	y	n/a
464.531	0.12	929062	keystroke_Key.space	Key.space	n/a
464.7115	0.149	929423	keystroke_p	p	n/a
464.8615	0.1795	929723	keystroke_r	r	n/a
464.9655	0.1955	929931	keystroke_e	e	n/a
465.206	0.12	930412	keystroke_p	p	n/a
465.356	0.225	930712	keystroke_a	a	n/a
465.566	0.15	931132	keystroke_r	r	n/a
465.731	0.075	931462	keystroke_i	i	n/a
465.9105	0.0755	931821	keystroke_n	n	n/a
466.0915	0.105	932183	keystroke_g	g	n/a
466.1815	0.12	932363	keystroke_Key.space	Key.space	n/a
466.346	0.225	932692	keystroke_s	s	n/a
466.4965	0.12	932993	keystroke_o	o	n/a
466.7365	0.089	933473	keystroke_r	r	n/a
466.9755	0.166	933951	keystroke_t	t	n/a
467.0965	0.18	934193	keystroke_e	e	n/a
467.396	0.15	934792	keystroke_d	d	n/a
467.516	0.12	935032	keystroke_Key.space	Key.space	n/a
467.936	0.135	935872	keystroke_s	s	n/a
468.0555	0.0755	936111	keystroke_h	h	n/a
468.2205	0.1805	936441	keystroke_a	a	n/a
468.476	0.1195	936952	keystroke_r	r	n/a
468.581	0.105	937162	keystroke_o	o	n/a
468.7605	0.1055	937521	keystroke_n	n	n/a
469.1955	0.09	938391	keystroke_Key.enter	Key.enter	n/a
469.293	6.7745	938586	prompt	n/a	justify packets forgot readings\n
469.9465	0.0895	939893	keystroke_j	j	n/a
470.1555	0.091	940311	keystroke_u	u	n/a
470.3355	0.136	940671	keystroke_s	s	n/a
470.5755	0.076	941151	keystroke_t	t	n/a
470.6215	0.104	941243	keystroke_i	i	n/a
470.8465	0.119	941693	keystroke_f	f	n/a
470.936	0.0895	941872	keystroke_y	y	n/a
471.1465	0.12	942293	keystroke_Key.space	Key.space	n/a
471.2815	0.1495	942563	keystroke_p	p	n/a
471.386	0.0895	942772	keystroke_a	a	n/a
471.626	0.12	943252	keystroke_c	c	n/a
471.7315	0.0745	943463	keystroke_k	k	n/a
471.8965	0.164	943793	keystroke_e	e	n/a
472.1815	0.09	944363	keystroke_t	t	n/a
472.3905	0.195	944781	keystroke_s	s	n/a
472.5255	0.135	945051	keystroke_Key.space	Key.space	n/a
472.7805	0.1355	945561	keystroke_f	f	n/a
472.886	0.12	945772	keystroke_o	o	n/a
473.051	0.075	946102	keystroke_r	r	n/a
473.4405	0.18	946881	keystroke_g	g	n/a
473.591	0.0895	947182	keystroke_o	o	n/a
473.786	0.09	947572	keystroke_t	t	n/a
473.966	0.12	947932	keystroke_Key.space	Key.space	n/a
474.4015	0.164	948803	keystroke_r	r	n/a
474.491	0.18	948982	keystroke_e	e	n/a
474.7455	0.1505	949491	keystroke_a	a	n/a
474.971	0.225	949942	keystroke_d	d	n/a
475.106	0.12	950212	keystroke_i	i	n/a
475.301	0.12	950602	keystroke_n	n	n/a
475.481	0.1045	950962	keystroke_g	g	n/a
475.691	0.15	951382	keystroke_s	s	n/a
475.946	0.12	951892	keystroke_Key.enter	Key.enter	n/a
476.074	6.039	952148	prompt	n/a	changelog panel bench tribe\n
476.771	0.165	953542	keystroke_c	c	n/a
476.921	0.075	953842	keystroke_h	h	n/a
477.071	0.18	954142	keystroke_a	a	n/a
477.176	0.09	954352	keystroke_n	n	n/a
477.326	0.1055	954652	keystroke_g	g	n/a
477.491	0.21	954982	keystroke_e	e	n/a
477.671	0.09	955342	keystroke_l	l	n/a
477.911	0.09	955822	keystroke_o	o	n/a
478.046	0.0905	956092	keystroke_g	g	n/a
478.3755	0.121	956751	keystroke_Key.space	Key.space	n/a
478.5705	0.1205	957141	keystroke_p	p	n/a
478.7205	0.15	957441	keystroke_a	a	n/a
478.8555	0.0755	957711	keystroke_n	n	n/a
478.9905	0.135	957981	keystroke_e	e	n/a
479.1555	0.1805	958311	keystroke_l	l	n/a
479.306	0.15	958612	keystroke_Key.space	Key.space	n/a
479.6365	0.1045	959273	keystroke_b	b	n/a
479.846	0.165	959692	keystroke_e	e	n/a
479.9805	0.1055	959961	keystroke_n	n	n/a
480.2055	0.15	960411	keystroke_c	c	n/a
480.2955	0.09	960591	keystroke_h	h	n/a
480.4455	0.12	960891	keystroke_Key.space	Key.space	n/a
480.7455	0.06	961491	keystroke_t	t	n/a
480.9415	0.0895	961883	keystroke_r	r	n/a
481.076	0.09	962152	keystroke_i	i	n/a
481.466	0.1045	962932	keystroke_b	b	n/a
481.6755	0.135	963351	keystroke_e	e	n/a
481.9905	0.1205	963981	keystroke_Key.enter	Key.enter	n/a
482.118	10.15	964236	prompt	n/a	wide bennett vegetables completed\n
483.146	0.12	966292	keystroke_w	w	n/a
483.281	0.105	966562	keystroke_i	i	n/a
483.446	0.12	966892	keystroke_d	d	n/a
483.671	0.15	967342	keystroke_e	e	n/a
483.761	0.165	967522	keystroke_Key.space	Key.space	n/a
484.0155	0.09	968031	keystroke_b	b	n/a
484.3755	0.136	968751	keystroke_e	e	n/a
485.0655	0.0755	970131	keystroke_n	n	n/a
485.2605	0.09	970521	keystroke_n	n	n/a
485.381	0.1495	970762	keystroke_e	e	n/a
485.6505	0.061	971301	keystroke_t	t	n/a
485.951	0.12	971902	keystroke_Key.space	Key.space	n/a
487.016	0.12	974032	keystroke_Key.backspace	Key.backspace	n/a
487.331	0.075	974662	keystroke_t	t	n/a
487.481	0.135	974962	keystroke_Key.space	Key.space	n/a
487.661	0.1355	975322	keystroke_v	v	n/a
487.8715	0.149	975743	keystroke_e	e	n/a
488.1415	0.09	976283	keystroke_g	g	n/a
488.3055	0.1805	976611	keystroke_e	e	n/a
488.756	0.09	977512	keystroke_t	t	n/a
488.951	0.15	977902	keystroke_a	a	n/a
489.206	0.1345	978412	keystroke_b	b	n/a
489.3855	0.135	978771	keystroke_l	l	n/a
489.5355	0.091	979071	keystroke_e	e	n/a
489.731	0.18	979462	keystroke_s	s	n/a
489.8505	0.135	979701	keystroke_Key.space	Key.space	n/a
490.466	0.1795	980932	keystroke_c	c	n/a
490.616	0.09	981232	keystroke_o	o	n/a
490.7955	0.12	981591	keystroke_m	m	n/a
491.0205	0.075	982041	keystroke_p	p	n/a
491.2005	0.15	982401	keystroke_l	l	n/a
491.3355	0.12	982671	keystroke_e	e	n/a
491.5605	0.12	983121	keystroke_t	t	n/a
491.6505	0.151	983301	keystroke_e	e	n/a
491.9065	0.119	983813	keystroke_d	d	n/a
492.1605	0.105	984321	keystroke_Key.enter	Key.enter	n/a
492.2735	13.48	984547	prompt	n/a	wasn't prior throwing nicaragua\n
492.9865	0.1185	985973	keystroke_w	w	n/a
493.1955	0.135	986391	keystroke_a	a	n/a
493.3755	0.195	986751	keystroke_s	s	n/a
493.5565	0.089	987113	keystroke_n	n	n/a
494.171	0.12	988342	keystroke_'	'	n/a
494.366	0.09	988732	keystroke_t	t	n/a
494.531	0.12	989062	keystroke_Key.space	Key.space	n/a
494.7405	0.105	989481	keystroke_p	p	n/a
494.9355	0.12	989871	keystroke_r	r	n/a
495.0255	0.075	990051	keystroke_i	i	n/a
495.176	0.1345	990352	keystroke_o	o	n/a
495.416	0.0895	990832	keystroke_r	r	n/a
495.5065	0.119	991013	keystroke_Key.space	Key.space	n/a
495.6855	0.105	991371	keystroke_t	t	n/a
495.7915	0.0595	991583	keystroke_h	h	n/a
496.031	0.0755	992062	keystroke_r	r	n/a
496.121	0.0745	992242	keystroke_o	o	n/a
496.946	0.0605	993892	keystroke_i	i	n/a
497.5455	0.0455	995091	keystroke_Key.backspace	Key.backspace	n/a
497.6065	0.149	995213	keystroke_w	w	n/a
497.7715	0.059	995543	keystroke_i	i	n/a
498.026	0.015	996052	keystroke_n	n	n/a
498.101	0.105	996202	keystroke_g	g	n/a
498.191	0.12	996382	keystroke_Key.space	Key.space	n/a
498.446	0.075	996892	keystroke_n	n	n/a
498.611	0.0905	997222	keystroke_i	i	n/a
498.866	0.135	997732	keystroke_c	c	n/a
500.1115	0.1645	1000223	keystroke_a	a	n/a
500.441	0.105	1000882	keystroke_r	r	n/a
501.056	0.195	1002112	keystroke_a	a	n/a
504.2075	0.0585	1008415	keystroke_g	g	n/a
505.181	0.0905	1010362	keystroke_u	u	n/a
505.286	0.105	1010572	keystroke_a	a	n/a
505.6455	0.105	1011291	keystroke_Key.enter	Key.enter	n/a
505.7585	6.8495	1011517	prompt	n/a	tribunal dimensional pipes joke\n
506.576	0.075	1013152	keystroke_t	t	n/a
506.771	0.09	1013542	keystroke_r	r	n/a
506.846	0.15	1013692	keystroke_i	i	n/a
507.071	0.1355	1014142	keystroke_b	b	n/a
507.221	0.075	1014442	keystroke_u	u	n/a
507.446	0.12	1014892	keystroke_n	n	n/a
507.611	0.1805	1015222	keystroke_a	a	n/a
507.7305	0.195	1015461	keystroke_l	l	n/a
507.8365	0.149	1015673	keystroke_Key.space	Key.space	n/a
508.0155	0.195	1016031	keystroke_d	d	n/a
508.1665	0.075	1016333	keystroke_i	i	n/a
508.3615	0.105	1016723	keystroke_m	m	n/a
508.9465	0.105	1017893	keystroke_e	e	n/a
509.0365	0.104	1018073	keystroke_n	n	n/a
509.3515	0.12	1018703	keystroke_s	s	n/a
509.4865	0.09	1018973	keystroke_i	i	n/a
509.6365	0.105	1019273	keystroke_o	o	n/a
509.7715	0.15	1019543	keystroke_n	n	n/a
510.0115	0.15	1020023	keystroke_a	a	n/a
510.0715	0.195	1020143	keystroke_l	l	n/a
510.1755	0.1655	1020351	keystroke_Key.space	Key.space	n/a
510.4165	0.075	1020833	keystroke_p	p	n/a
510.5815	0.075	1021163	keystroke_i	i	n/a
510.8055	0.1055	1021611	keystroke_p	p	n/a
511.0915	0.014	1022183	keystroke_e	e	n/a
511.1955	0.15	1022391	keystroke_s	s	n/a
511.2855	0.1355	1022571	keystroke_Key.space	Key.space	n/a
511.526	0.1045	1023052	keystroke_j	j	n/a
511.6915	0.104	1023383	keystroke_o	o	n/a
511.9915	0.0895	1023983	keystroke_k	k	n/a
512.216	0.09	1024432	keystroke_e	e	n/a
512.5005	0.105	1025001	keystroke_Key.enter	Key.enter	n/a
512.617	7.5505	1025234	prompt	n/a	ladder white alumni cached\n
513.2965	0.134	1026593	keystroke_l	l	n/a
513.4455	0.27	1026891	keystroke_a	a	n/a
513.82	0.076	1027640	keystroke_d	d	n/a
514.0005	0.076	1028001	keystroke_d	d	n/a
514.1955	0.105	1028391	keystroke_e	e	n/a
514.4215	0.0895	1028843	keystroke_d	d	n/a
514.826	0.1045	1029652	keystroke_Key.backspace	Key.backspace	n/a
515.156	0.09	1030312	keystroke_r	r	n/a
515.321	0.1495	1030642	keystroke_Key.space	Key.space	n/a
515.786	0.12	1031572	keystroke_w	w	n/a
515.9065	0.0745	1031813	keystroke_h	h	n/a
516.1005	0.09	1032201	keystroke_i	i	n/a
516.311	0.075	1032622	keystroke_t	t	n/a
516.4755	0.15	1032951	keystroke_e	e	n/a
516.6265	0.1345	1033253	keystroke_Key.space	Key.space	n/a
516.8955	0.195	1033791	keystroke_a	a	n/a
517.0755	0.0905	1034151	keystroke_l	l	n/a
517.3165	0.074	1034633	keystroke_u	u	n/a
517.7665	0.134	1035533	keystroke_m	m	n/a
518.1265	0.1045	1036253	keystroke_n	n	n/a
518.381	0.09	1036762	keystroke_i	i	n/a
518.606	0.1495	1037212	keystroke_Key.space	Key.space	n/a
518.8605	0.121	1037721	keystroke_c	c	n/a
519.0555	0.1355	1038111	keystroke_a	a	n/a
519.266	0.18	1038532	keystroke_c	c	n/a
519.4005	0.105	1038801	keystroke_h	h	n/a
519.5955	0.105	1039191	keystroke_e	e	n/a
519.821	0.12	1039642	keystroke_d	d	n/a
520.091	0.0745	1040182	keystroke_Key.enter	Key.enter	n/a
520.1725	7.4205	1040345	prompt	n/a	numbers carl trick efforts\n
520.9155	0.09	1041831	keystroke_n	n	n/a
521.1405	0.075	1042281	keystroke_u	u	n/a
521.3665	0.089	1042733	keystroke_m	m	n/a
521.6055	0.105	1043211	keystroke_b	b	n/a
521.801	0.225	1043602	keystroke_e	e	n/a
522.701	0.09	1045402	keystroke_r	r	n/a
522.896	0.165	1045792	keystroke_s	s	n/a
523.046	0.119	1046092	keystroke_Key.space	Key.space	n/a
523.2265	0.1495	1046453	keystroke_c	c	n/a
523.8255	0.195	1047651	keystroke_a	a	n/a
524.0515	0.1195	1048103	keystroke_r	r	n/a
524.2455	0.2105	1048491	keystroke_l	l	n/a
524.441	0.165	1048882	keystroke_Key.space	Key.space	n/a
524.651	0.0755	1049302	keystroke_t	t	n/a
524.861	0.09	1049722	keystroke_r	r	n/a
524.966	0.09	1049932	keystroke_i	i	n/a
525.176	0.165	1050352	keystroke_c	c	n/a
525.326	0.195	1050652	keystroke_k	k	n/a
525.461	0.165	1050922	keystroke_Key.space	Key.space	n/a
525.7915	0.1345	1051583	keystroke_e	e	n/a
526.1065	0.075	1052213	keystroke_f	f	n/a
526.3165	0.1345	1052633	keystroke_f	f	n/a
526.541	0.1795	1053082	keystroke_o	o	n/a
526.7805	0.091	1053561	keystroke_r	r	n/a
527.021	0.105	1054042	keystroke_t	t	n/a
527.2315	0.149	1054463	keystroke_s	s	n/a
527.501	0.09	1055002	keystroke_Key.enter	Key.enter	n/a
527.5975	8.17	1055195	prompt	n/a	planets colombia locate pillow\n
528.281	0.09	1056562	keystroke_p	p	n/a
528.4905	0.1355	1056981	keystroke_l	l	n/a
528.6115	0.1495	1057223	keystroke_a	a	n/a
528.7305	0.1205	1057461	keystroke_n	n	n/a
528.866	0.12	1057732	keystroke_e	e	n/a
529.331	0.09	1058662	keystroke_t	t	n/a
529.556	0.1495	1059112	keystroke_s	s	n/a
529.691	0.12	1059382	keystroke_Key.space	Key.space	n/a
529.856	0.1345	1059712	keystroke_c	c	n/a
530.411	0.135	1060822	keystroke_o	o	n/a
530.7115	0.0895	1061423	keystroke_l	l	n/a
530.9515	0.09	1061903	keystroke_o	o	n/a
531.131	0.105	1062262	keystroke_m	m	n/a
531.401	0.105	1062802	keystroke_b	b	n/a
531.491	0.075	1062982	keystroke_i	i	n/a
531.611	0.195	1063222	keystroke_a	a	n/a
531.716	0.12	1063432	keystroke_Key.space	Key.space	n/a
531.8815	0.09	1063763	keystroke_l	l	n/a
532.1065	0.12	1064213	keystroke_o	o	n/a
532.166	0.1645	1064332	keystroke_c	c	n/a
532.3915	0.195	1064783	keystroke_a	a	n/a
532.6605	0.121	1065321	keystroke_t	t	n/a
532.8405	0.1805	1065681	keystroke_e	e	n/a
532.991	0.1495	1065982	keystroke_Key.space	Key.space	n/a
533.486	0.0905	1066972	keystroke_i	i	n/a
533.936	0.0895	1067872	keystroke_Key.backspace	Key.backspace	n/a
534.311	0.135	1068622	keystroke_p	p	n/a
534.536	0.1055	1069072	keystroke_i	i	n/a
534.806	0.0905	1069612	keystroke_l	l	n/a
535.0015	0.0595	1070003	keystroke_l	l	n/a
535.196	0.105	1070392	keystroke_o	o	n/a
535.436	0.1205	1070872	keystroke_w	w	n/a
535.646	0.12	1071292	keystroke_Key.enter	Key.enter	n/a
535.771	8.5765	1071542	prompt	n/a	carl tender enzyme abilities\n
536.4865	0.135	1072973	keystroke_c	c	n/a
536.7115	0.21	1073423	keystroke_a	a	n/a
537.0715	0.104	1074143	keystroke_r	r	n/a
537.3265	0.105	1074653	keystroke_l	l	n/a
537.6115	0.1495	1075223	keystroke_Key.space	Key.space	n/a
537.8505	0.09	1075701	keystroke_t	t	n/a
538.0015	0.1495	1076003	keystroke_e	e	n/a
538.1515	0.105	1076303	keystroke_n	n	n/a
538.3015	0.09	1076603	keystroke_d	d	n/a
538.4955	0.18	1076991	keystroke_e	e	n/a
538.6315	0.12	1077263	keystroke_r	r	n/a
539.171	0.15	1078342	keystroke_Key.space	Key.space	n/a
539.6655	0.105	1079331	keystroke_e	e	n/a
539.8015	0.075	1079603	keystroke_n	n	n/a
539.996	0.1795	1079992	keystroke_z	z	n/a
540.2355	0.105	1080471	keystroke_y	y	n/a
540.9715	0.0895	1081943	keystroke_m	m	n/a
541.181	0.165	1082362	keystroke_e	e	n/a
541.331	0.12	1082662	keystroke_Key.space	Key.space	n/a
542.3355	0.1505	1084671	keystroke_a	a	n/a
542.591	0.105	1085182	keystroke_b	b	n/a
542.786	0.09	1085572	keystroke_i	i	n/a
543.011	0.165	1086022	keystroke_l	l	n/a
543.221	0.105	1086442	keystroke_i	i	n/a
543.4155	0.12	1086831	keystroke_t	t	n/a
543.551	0.1055	1087102	keystroke_i	i	n/a
543.6255	0.1055	1087251	keystroke_e	e	n/a
543.836	0.0605	1087672	keystroke_s	s	n/a
544.226	0.12	1088452	keystroke_Key.enter	Key.enter	n/a
544.351	7.782	1088702	prompt	n/a	cricket shortly balloon fourth\n
545.2165	0.18	1090433	keystroke_c	c	n/a
545.5465	0.12	1091093	keystroke_r	r	n/a
545.7265	0.09	1091453	keystroke_i	i	n/a
545.9655	0.1805	1091931	keystroke_c	c	n/a
546.1305	0.0755	1092261	keystroke_k	k	n/a
546.386	0.1655	1092772	keystroke_e	e	n/a
546.641	0.0895	1093282	keystroke_t	t	n/a
546.761	0.1195	1093522	keystroke_Key.space	Key.space	n/a
546.9255	0.1955	1093851	keystroke_s	s	n/a
547.0015	0.09	1094003	keystroke_h	h	n/a
547.1665	0.1345	1094333	keystroke_o	o	n/a
547.316	0.0745	1094632	keystroke_r	r	n/a
547.5565	0.104	1095113	keystroke_t	t	n/a
547.6615	0.134	1095323	keystroke_l	l	n/a
547.9455	0.075	1095891	keystroke_y	y	n/a
548.1255	0.121	1096251	keystroke_Key.space	Key.space	n/a
548.2915	0.119	1096583	keystroke_b	b	n/a
548.4565	0.1795	1096913	keystroke_a	a	n/a
548.606	0.075	1097212	keystroke_l	l	n/a
548.7865	0.09	1097573	keystroke_l	l	n/a
549.026	0.09	1098052	keystroke_o	o	n/a
549.2055	0.196	1098411	keystroke_o	o	n/a
549.3855	0.225	1098771	keystroke_n	n	n/a
549.5505	0.165	1099101	keystroke_Key.space	Key.space	n/a
549.7315	0.165	1099463	keystroke_f	f	n/a
549.986	0.12	1099972	keystroke_o	o	n/a
550.151	0.09	1100302	keystroke_r	r	n/a
550.6905	0.106	1101381	keystroke_Key.backspace	Key.backspace	n/a
551.0965	0.075	1102193	keystroke_u	u	n/a
551.3505	0.076	1102701	keystroke_r	r	n/a
551.5615	0.1045	1103123	keystroke_t	t	n/a
551.651	0.0895	1103302	keystroke_h	h	n/a
552.0405	0.0905	1104081	keystroke_Key.enter	Key.enter	n/a
552.1375	12.055	1104275	prompt	n/a	interior neighbor screenshots cabin\n
552.882	0.059	1105764	keystroke_i	i	n/a
553.076	0.09	1106152	keystroke_n	n	n/a
553.241	0.119	1106482	keystroke_t	t	n/a
553.376	0.1505	1106752	keystroke_e	e	n/a
553.4815	0.1345	1106963	keystroke_r	r	n/a
553.661	0.06	1107322	keystroke_i	i	n/a
553.811	0.12	1107622	keystroke_o	o	n/a
554.021	0.09	1108042	keystroke_r	r	n/a
554.126	0.105	1108252	keystroke_Key.space	Key.space	n/a
554.276	0.12	1108552	keystroke_n	n	n/a
554.4115	0.134	1108823	keystroke_e	e	n/a
554.847	0.119	1109694	keystroke_i	i	n/a
555.236	0.0605	1110472	keystroke_h	h	n/a
555.731	0.0745	1111462	keystroke_Key.backspace	Key.backspace	n/a
556.1355	0.15	1112271	keystroke_g	g	n/a
556.2555	0.076	1112511	keystroke_h	h	n/a
556.6905	0.151	1113381	keystroke_b	b	n/a
556.8565	0.1195	1113713	keystroke_o	o	n/a
557.0655	0.09	1114131	keystroke_r	r	n/a
557.201	0.135	1114402	keystroke_Key.space	Key.space	n/a
557.3515	0.1345	1114703	keystroke_s	s	n/a
557.591	0.18	1115182	keystroke_c	c	n/a
557.756	0.09	1115512	keystroke_h	h	n/a
558.791	0.1045	1117582	keystroke_Key.backspace	Key.backspace	n/a
558.9405	0.18	1117881	keystroke_r	r	n/a
559.046	0.1805	1118092	keystroke_e	e	n/a
559.3305	0.135	1118661	keystroke_e	e	n/a
559.4355	0.105	1118871	keystroke_n	n	n/a
559.6305	0.18	1119261	keystroke_s	s	n/a
559.751	0.0745	1119502	keystroke_h	h	n/a
559.8705	0.12	1119741	keystroke_o	o	n/a
560.1255	0.1505	1120251	keystroke_p	p	n/a
560.426	0.09	1120852	keystroke_t	t	n/a
561.131	0.075	1122262	keystroke_Key.backspace	Key.backspace	n/a
561.491	0.09	1122982	keystroke_Key.backspace	Key.backspace	n/a
562.2715	0.09	1124543	keystroke_t	t	n/a
562.4815	0.1495	1124963	keystroke_s	s	n/a
562.6155	0.1205	1125231	keystroke_Key.space	Key.space	n/a
562.811	0.135	1125622	keystroke_c	c	n/a
563.021	0.165	1126042	keystroke_a	a	n/a
563.276	0.1205	1126552	keystroke_b	b	n/a
563.411	0.076	1126822	keystroke_i	i	n/a
563.6355	0.09	1127271	keystroke_n	n	n/a
564.1005	0.0905	1128201	keystroke_Key.enter	Key.enter	n/a
564.197	9.956	1128394	prompt	n/a	singles saver sensors spanking\n
564.881	0.165	1129762	keystroke_s	s	n/a
565.1815	0.105	1130363	keystroke_n	n	n/a
566.9205	0.09	1133841	keystroke_Key.backspace	Key.backspace	n/a
567.236	0.0745	1134472	keystroke_i	i	n/a
567.4305	0.09	1134861	keystroke_n	n	n/a
567.6115	0.12	1135223	keystroke_g	g	n/a
567.7455	0.105	1135491	keystroke_l	l	n/a
567.8515	0.105	1135703	keystroke_e	e	n/a
568.031	0.18	1136062	keystroke_s	s	n/a
568.166	0.135	1136332	keystroke_Key.space	Key.space	n/a
568.3465	0.105	1136693	keystroke_s	s	n/a
568.4805	0.166	1136961	keystroke_a	a	n/a
568.766	0.18	1137532	keystroke_v	v	n/a
569.051	0.21	1138102	keystroke_e	e	n/a
569.996	0.105	1139992	keystroke_r	r	n/a
570.161	0.15	1140322	keystroke_Key.space	Key.space	n/a
570.326	0.15	1140652	keystroke_s	s	n/a
570.536	0.1505	1141072	keystroke_e	e	n/a
570.641	0.136	1141282	keystroke_n	n	n/a
571.0155	0.2255	1142031	keystroke_s	s	n/a
571.1815	0.119	1142363	keystroke_o	o	n/a
571.361	0.0895	1142722	keystroke_r	r	n/a
571.5715	0.1645	1143143	keystroke_s	s	n/a
571.6905	0.12	1143381	keystroke_Key.space	Key.space	n/a
572.0965	0.135	1144193	keystroke_s	s	n/a
572.2165	0.119	1144433	keystroke_p	p	n/a
572.351	0.1955	1144702	keystroke_a	a	n/a
572.5015	0.075	1145003	keystroke_n	n	n/a
573.3115	0.015	1146623	keystroke_k	k	n/a
573.4465	0.1345	1146893	keystroke_i	i	n/a
573.5655	0.121	1147131	keystroke_n	n	n/a
573.761	0.0905	1147522	keystroke_g	g	n/a
574.061	0.09	1148122	keystroke_Key.enter	Key.enter	n/a
574.1575	5.665	1148315	prompt	n/a	weak males suse machines\n
574.931	0.075	1149862	keystroke_w	w	n/a
575.096	0.09	1150192	keystroke_e	e	n/a
575.291	0.18	1150582	keystroke_a	a	n/a
575.6365	0.0745	1151273	keystroke_k	k	n/a
575.831	0.1355	1151662	keystroke_Key.space	Key.space	n/a
576.071	0.1205	1152142	keystroke_m	m	n/a
576.206	0.18	1152412	keystroke_a	a	n/a
576.4015	0.1495	1152803	keystroke_l	l	n/a
576.6865	0.0895	1153373	keystroke_e	e	n/a
576.866	0.1805	1153732	keystroke_s	s	n/a
576.971	0.15	1153942	keystroke_Key.space	Key.space	n/a
577.166	0.165	1154332	keystroke_s	s	n/a
577.286	0.105	1154572	keystroke_u	u	n/a
577.511	0.1355	1155022	keystroke_s	s	n/a
577.9315	0.164	1155863	keystroke_e	e	n/a
578.1105	0.136	1156221	keystroke_Key.space	Key.space	n/a
578.3205	0.136	1156641	keystroke_m	m	n/a
578.4415	0.12	1156883	keystroke_a	a	n/a
578.6665	0.1645	1157333	keystroke_c	c	n/a
578.771	0.09	1157542	keystroke_h	h	n/a
579.041	0.015	1158082	keystroke_i	i	n/a
579.116	0.1205	1158232	keystroke_n	n	n/a
579.3715	0.104	1158743	keystroke_e	e	n/a
579.5505	0.165	1159101	keystroke_s	s	n/a
579.7455	0.075	1159491	keystroke_Key.enter	Key.enter	n/a
579.827	10.991	1159654	prompt	n/a	mechanism cycle arnold involved\n
580.496	0.105	1160992	keystroke_m	m	n/a
580.6155	0.0905	1161231	keystroke_e	e	n/a
580.8705	0.15	1161741	keystroke_c	c	n/a
581.0065	0.059	1162013	keystroke_h	h	n/a
581.1415	0.179	1162283	keystroke_a	a	n/a
581.2605	0.121	1162521	keystroke_n	n	n/a
581.4415	0.12	1162883	keystroke_i	i	n/a
581.621	0.1505	1163242	keystroke_s	s	n/a
582.0555	0.1205	1164111	keystroke_Key.space	Key.space	n/a
582.7305	0.045	1165461	keystroke_Key.backspace	Key.backspace	n/a
582.8815	0.119	1165763	keystroke_m	m	n/a
583.0905	0.15	1166181	keystroke_Key.space	Key.space	n/a
583.347	0.1195	1166694	keystroke_c	c	n/a
583.481	0.0895	1166962	keystroke_y	y	n/a
583.7355	0.105	1167471	keystroke_c	c	n/a
583.9005	0.09	1167801	keystroke_l	l	n/a
584.0665	0.1495	1168133	keystroke_e	e	n/a
584.2005	0.1355	1168401	keystroke_Key.space	Key.space	n/a
584.4105	0.18	1168821	keystroke_a	a	n/a
584.666	0.12	1169332	keystroke_r	r	n/a
584.771	0.105	1169542	keystroke_n	n	n/a
584.966	0.09	1169932	keystroke_o	o	n/a
585.101	0.0905	1170202	keystroke_n	n	n/a
586.076	0.06	1172152	keystroke_Key.backspace	Key.backspace	n/a
587.501	0.135	1175002	keystroke_l	l	n/a
587.6965	0.1495	1175393	keystroke_d	d	n/a
587.831	0.12	1175662	keystroke_Key.space	Key.space	n/a
588.2965	0.0595	1176593	keystroke_i	i	n/a
588.4915	0.089	1176983	keystroke_n	n	n/a
589.256	0.1655	1178512	keystroke_v	v	n/a
589.3765	0.0745	1178753	keystroke_o	o	n/a
589.5865	0.1345	1179173	keystroke_l	l	n/a
590.0215	0.15	1180043	keystroke_v	v	n/a
590.2305	0.1355	1180461	keystroke_e	e	n/a
590.4705	0.09	1180941	keystroke_d	d	n/a
590.7255	0.09	1181451	keystroke_Key.enter	Key.enter	n/a
590.8225	9.641	1181645	prompt	n/a	athletic clara animated represent\n
591.6565	0.149	1183313	keystroke_a	a	n/a
591.9415	0.105	1183883	keystroke_t	t	n/a
592.0315	0.09	1184063	keystroke_h	h	n/a
592.2415	0.105	1184483	keystroke_l	l	n/a
592.9765	0.1195	1185953	keystroke_e	e	n/a
593.2315	0.0895	1186463	keystroke_t	t	n/a
593.322	0.089	1186644	keystroke_i	i	n/a
593.561	0.1345	1187122	keystroke_c	c	n/a
593.711	0.1345	1187422	keystroke_Key.space	Key.space	n/a
594.146	0.135	1188292	keystroke_c	c	n/a
594.2815	0.119	1188563	keystroke_l	l	n/a
594.4615	0.18	1188923	keystroke_a	a	n/a
594.6855	0.1055	1189371	keystroke_r	r	n/a
594.851	0.18	1189702	keystroke_a	a	n/a
595.016	0.135	1190032	keystroke_Key.space	Key.space	n/a
595.541	0.0605	1191082	keystroke_n	n	n/a
596.021	0.09	1192042	keystroke_Key.backspace	Key.backspace	n/a
596.2165	0.1495	1192433	keystroke_a	a	n/a
596.336	0.105	1192672	keystroke_n	n	n/a
596.561	0.0605	1193122	keystroke_i	i	n/a
596.7715	0.074	1193543	keystroke_m	m	n/a
596.891	0.165	1193782	keystroke_a	a	n/a
597.176	0.15	1194352	keystroke_t	t	n/a
597.311	0.135	1194622	keystroke_e	e	n/a
597.551	0.165	1195102	keystroke_d	d	n/a
597.686	0.1345	1195372	keystroke_Key.space	Key.space	n/a
597.8655	0.195	1195731	keystroke_r	r	n/a
597.9555	0.195	1195911	keystroke_e	e	n/a
598.571	0.12	1197142	keystroke_p	p	n/a
598.721	0.21	1197442	keystroke_r	r	n/a
598.826	0.165	1197652	keystroke_e	e	n/a
599.546	0.1355	1199092	keystroke_s	s	n/a
599.7565	0.1945	1199513	keystroke_e	e	n/a
599.876	0.09	1199752	keystroke_n	n	n/a
600.056	0.105	1200112	keystroke_t	t	n/a
600.356	0.105	1200712	keystroke_Key.enter	Key.enter	n/a
600.468	10.855	1200936	prompt	n/a	authority dancing wherever cited\n
601.046	0.18	1202092	keystroke_a	a	n/a
601.241	0.105	1202482	keystroke_u	u	n/a
601.7665	0.104	1203533	keystroke_t	t	n/a
601.841	0.0755	1203682	keystroke_h	h	n/a
601.991	0.1355	1203982	keystroke_o	o	n/a
602.2015	0.105	1204403	keystroke_r	r	n/a
602.3065	0.074	1204613	keystroke_i	i	n/a
602.456	0.12	1204912	keystroke_t	t	n/a
602.5305	0.0755	1205061	keystroke_y	y	n/a
602.7555	0.1355	1205511	keystroke_Key.space	Key.space	n/a
602.966	0.0455	1205932	keystroke_c	c	n/a
603.461	0.105	1206922	keystroke_Key.backspace	Key.backspace	n/a
603.6265	0.1495	1207253	keystroke_d	d	n/a
603.8655	0.1355	1207731	keystroke_a	a	n/a
603.9405	0.121	1207881	keystroke_n	n	n/a
604.391	0.135	1208782	keystroke_c	c	n/a
604.451	0.0905	1208902	keystroke_i	i	n/a
604.6615	0.1045	1209323	keystroke_n	n	n/a
604.841	0.12	1209682	keystroke_g	g	n/a
604.9905	0.1505	1209981	keystroke_Key.space	Key.space	n/a
605.2915	0.1495	1210583	keystroke_w	w	n/a
605.426	0.0755	1210852	keystroke_h	h	n/a
605.6055	0.1655	1211211	keystroke_e	e	n/a
605.7565	0.165	1211513	keystroke_r	r	n/a
605.8765	0.1495	1211753	keystroke_e	e	n/a
606.236	0.165	1212472	keystroke_v	v	n/a
606.5065	0.21	1213013	keystroke_e	e	n/a
606.656	0.15	1213312	keystroke_r	r	n/a
606.836	0.135	1213672	keystroke_Key.space	Key.space	n/a
607.196	0.165	1214392	keystroke_c	c	n/a
607.376	0.0755	1214752	keystroke_i	i	n/a
607.631	0.135	1215262	keystroke_t	t	n/a
607.721	0.165	1215442	keystroke_e	e	n/a
608.156	0.1055	1216312	keystroke_d	d	n/a
611.3085	0.013	1222617	keystroke_Key.enter	Key.enter	n/a
611.331	10.298	1222662	prompt	n/a	flower spider downloaded nursery\n
612.3265	0.1045	1224653	keystroke_f	f	n/a
612.476	0.09	1224952	keystroke_l	l	n/a
612.7015	0.1045	1225403	keystroke_o	o	n/a
612.881	0.165	1225762	keystroke_w	w	n/a
613.0765	0.18	1226153	keystroke_e	e	n/a
613.3465	0.089	1226693	keystroke_r	r	n/a
613.466	0.15	1226932	keystroke_Key.space	Key.space	n/a
613.6315	0.2095	1227263	keystroke_s	s	n/a
613.751	0.12	1227502	keystroke_p	p	n/a
613.991	0.0755	1227982	keystroke_i	i	n/a
614.1565	0.1045	1228313	keystroke_d	d	n/a
614.3815	0.1495	1228763	keystroke_e	e	n/a
614.5465	0.1495	1229093	keystroke_n	n	n/a
614.681	0.12	1229362	keystroke_Key.space	Key.space	n/a
615.086	0.0295	1230172	keystroke_o	o	n/a
616.5255	0.075	1233051	keystroke_Key.backspace	Key.backspace	n/a
616.7215	0.059	1233443	keystroke_Key.backspace	Key.backspace	n/a
616.9155	0.0605	1233831	keystroke_Key.backspace	Key.backspace	n/a
617.2005	0.076	1234401	keystroke_r	r	n/a
617.3365	0.1345	1234673	keystroke_Key.space	Key.space	n/a
617.5755	0.136	1235151	keystroke_d	d	n/a
617.726	0.09	1235452	keystroke_o	o	n/a
617.951	0.135	1235902	keystroke_w	w	n/a
618.0715	0.0745	1236143	keystroke_n	n	n/a
618.3565	0.074	1236713	keystroke_l	l	n/a
618.581	0.1345	1237162	keystroke_o	o	n/a
618.701	0.1045	1237402	keystroke_a	a	n/a
618.8805	0.1205	1237761	keystroke_d	d	n/a
619.1205	0.06	1238241	keystroke_e	e	n/a
619.301	0.1805	1238602	keystroke_d	d	n/a
619.376	0.12	1238752	keystroke_Key.space	Key.space	n/a
619.646	0.06	1239292	keystroke_n	n	n/a
619.856	0.0905	1239712	keystroke_u	u	n/a
619.9765	0.089	1239953	keystroke_r	r	n/a
620.561	0.1505	1241122	keystroke_s	s	n/a
620.7715	0.21	1241543	keystroke_e	e	n/a
620.951	0.1355	1241902	keystroke_r	r	n/a
621.1615	0.09	1242323	keystroke_y	y	n/a
621.566	0.0595	1243132	keystroke_Key.enter	Key.enter	n/a
621.6345	8.6635	1243269	prompt	n/a	wing composed touring holes\n
622.4065	0.135	1244813	keystroke_w	w	n/a
622.511	0.06	1245022	keystroke_i	i	n/a
622.706	0.0755	1245412	keystroke_n	n	n/a
623.3505	0.0455	1246701	keystroke_g	g	n/a
623.4105	0.0905	1246821	keystroke_Key.space	Key.space	n/a
623.5465	0.2095	1247093	keystroke_c	c	n/a
623.696	0.0745	1247392	keystroke_o	o	n/a
623.876	0.0895	1247752	keystroke_m	m	n/a
624.086	0.18	1248172	keystroke_p	p	n/a
624.2515	0.1645	1248503	keystroke_o	o	n/a
624.446	0.135	1248892	keystroke_s	s	n/a
624.6715	0.0745	1249343	keystroke_e	e	n/a
624.8805	0.1655	1249761	keystroke_d	d	n/a
624.986	0.165	1249972	keystroke_Key.space	Key.space	n/a
625.226	0.0905	1250452	keystroke_t	t	n/a
625.3305	0.1055	1250661	keystroke_o	o	n/a
625.496	0.1055	1250992	keystroke_r	r	n/a
626.1705	0.105	1252341	keystroke_Key.backspace	Key.backspace	n/a
626.4865	0.0895	1252973	keystroke_u	u	n/a
626.726	0.09	1253452	keystroke_r	r	n/a
626.846	0.09	1253692	keystroke_i	i	n/a
627.011	0.09	1254022	keystroke_n	n	n/a
627.161	0.12	1254322	keystroke_g	g	n/a
627.236	0.12	1254472	keystroke_Key.space	Key.space	n/a
627.401	0.105	1254802	keystroke_h	h	n/a
627.5515	0.1045	1255103	keystroke_o	o	n/a
627.791	0.1205	1255582	keystroke_l	l	n/a
627.896	0.0745	1255792	keystroke_d	d	n/a
629.5605	0.105	1259121	keystroke_Key.backspace	Key.backspace	n/a
629.696	0.0905	1259392	keystroke_e	e	n/a
629.876	0.1495	1259752	keystroke_s	s	n/a
630.2205	0.075	1260441	keystroke_Key.enter	Key.enter	n/a
630.3025	10.39	1260605	prompt	n/a	guinea anthony shark southwest\n
631.076	0.105	1262152	keystroke_g	g	n/a
631.211	0.075	1262422	keystroke_u	u	n/a
631.481	0.015	1262962	keystroke_i	i	n/a
631.616	0.075	1263232	keystroke_n	n	n/a
631.736	0.075	1263472	keystroke_e	e	n/a
631.961	0.15	1263922	keystroke_a	a	n/a
632.096	0.12	1264192	keystroke_Key.space	Key.space	n/a
632.7715	0.074	1265543	keystroke_a	a	n/a
632.8615	0.015	1265723	keystroke_n	n	n/a
633.0415	0.1045	1266083	keystroke_t	t	n/a
633.1315	0.075	1266263	keystroke_h	h	n/a
633.2815	0.104	1266563	keystroke_o	o	n/a
633.4905	0.075	1266981	keystroke_n	n	n/a
633.6705	0.075	1267341	keystroke_l	l	n/a
635.501	0.105	1271002	keystroke_Key.backspace	Key.backspace	n/a
636.6115	0.075	1273223	keystroke_y	y	n/a
636.866	0.135	1273732	keystroke_Key.space	Key.space	n/a
637.106	0.12	1274212	keystroke_s	s	n/a
637.1955	0.076	1274391	keystroke_h	h	n/a
637.3305	0.18	1274661	keystroke_a	a	n/a
638.096	0.06	1276192	keystroke_r	r	n/a
638.186	0.09	1276372	keystroke_k	k	n/a
638.381	0.135	1276762	keystroke_Key.space	Key.space	n/a
638.576	0.075	1277152	keystroke_s	s	n/a
638.8765	0.194	1277753	keystroke_o	o	n/a
639.0255	0.121	1278051	keystroke_u	u	n/a
