onset	duration	sample	value	key	prompt_text
3.0145	0.1495	6029	keystroke_f	f	n/a
3.2545	0.1345	6509	keystroke_i	i	n/a
3.3145	0.1195	6629	keystroke_n	n	n/a
3.4045	0.1945	6809	keystroke_a	a	n/a
3.5695	0.1345	7139	keystroke_l	l	n/a
3.8095	0.1045	7619	keystroke_Key.space	Key.space	n/a
3.9745	0.116	7949	keystroke_f	f	n/a
4.106	0.119	8212	keystroke_a	a	n/a
4.1975	0.118	8395	keystroke_n	n	n/a
4.3315	0.0585	8663	keystroke_t	t	n/a
4.3605	0.178	8721	keystroke_a	a	n/a
4.509	0.2395	9018	keystroke_s	s	n/a
4.6445	0.089	9289	keystroke_y	y	n/a
4.764	0.1195	9528	keystroke_Key.space	Key.space	n/a
4.959	0.1345	9918	keystroke_i	i	n/a
5.079	0.1345	10158	keystroke_x	x	n/a
5.199	0.105	10398	keystroke_Key.space	Key.space	n/a
5.3795	0.0745	10759	keystroke_m	m	n/a
5.574	0.12	11148	keystroke_u	u	n/a
5.65	0.119	11300	keystroke_s	s	n/a
5.7545	0.0895	11509	keystroke_i	i	n/a
5.859	0.105	11718	keystroke_c	c	n/a
5.949	0.09	11898	keystroke_Key.enter	Key.enter	n/a
58.644	0.06	117288	keystroke_a	a	n/a
58.749	0.045	117498	keystroke_l	l	n/a
58.764	0.1195	117528	keystroke_a	a	n/a
58.869	0.0745	117738	keystroke_n	n	n/a
58.959	0.0745	117918	keystroke_d	d	n/a
59.049	0.0595	118098	keystroke_u	u	n/a
59.184	0.0745	118368	keystroke_Key.tab	Key.tab	n/a
68.7955	5.0325	137591	prompt	n/a	the quick brown fox jumps over a lazy dog\n
70.044	0.09	140088	keystroke_t	t	n/a
70.104	0.0745	140208	keystroke_h	h	n/a
70.194	0.1045	140388	keystroke_e	e	n/a
70.254	0.1045	140508	keystroke_Key.space	Key.space	n/a
70.329	0.1045	140658	keystroke_q	q	n/a
70.404	0.1195	140808	keystroke_u	u	n/a
70.4785	0.075	140957	keystroke_i	i	n/a
70.539	0.165	141078	keystroke_c	c	n/a
70.659	0.0745	141318	keystroke_k	k	n/a
70.7345	0.104	141469	keystroke_Key.space	Key.space	n/a
70.8545	0.0595	141709	keystroke_b	b	n/a
71.019	0.1645	142038	keystroke_r	r	n/a
71.109	0.1045	142218	keystroke_o	o	n/a
71.199	0.1045	142398	keystroke_w	w	n/a
71.259	0.1045	142518	keystroke_n	n	n/a
71.349	0.0745	142698	keystroke_Key.space	Key.space	n/a
71.409	0.1045	142818	keystroke_f	f	n/a
71.469	0.075	142938	keystroke_o	o	n/a
71.559	0.12	143118	keystroke_x	x	n/a
71.6345	0.0745	143269	keystroke_Key.space	Key.space	n/a
71.694	0.0445	143388	keystroke_j	j	n/a
71.814	0.0745	143628	keystroke_u	u	n/a
71.994	0.09	143988	keystroke_m	m	n/a
72.069	0.105	144138	keystroke_p	p	n/a
72.159	0.0895	144318	keystroke_s	s	n/a
72.2045	0.104	144409	keystroke_Key.space	Key.space	n/a
72.264	0.1045	144528	keystroke_o	o	n/a
72.354	0.0745	144708	keystroke_v	v	n/a
72.489	0.1195	144978	keystroke_e	e	n/a
72.549	0.1045	145098	keystroke_r	r	n/a
72.624	0.09	145248	keystroke_Key.space	Key.space	n/a
72.6845	0.1495	145369	keystroke_a	a	n/a
72.819	0.0895	145638	keystroke_Key.space	Key.space	n/a
72.939	0.0745	145878	keystroke_l	l	n/a
73.029	0.0745	146058	keystroke_a	a	n/a
73.209	0.1195	146418	keystroke_z	z	n/a
73.239	0.105	146478	keystroke_y	y	n/a
73.359	0.075	146718	keystroke_Key.space	Key.space	n/a
73.4195	0.1195	146839	keystroke_d	d	n/a
73.509	0.075	147018	keystroke_o	o	n/a
73.599	0.0745	147198	keystroke_g	g	n/a
73.734	0.0895	147468	keystroke_Key.enter	Key.enter	n/a
73.8405	4.7555	147681	prompt	n/a	asus earthquake deserve meters\n
74.9345	0.1045	149869	keystroke_a	a	n/a
75.024	0.0895	150048	keystroke_s	s	n/a
75.129	0.09	150258	keystroke_u	u	n/a
75.204	0.0895	150408	keystroke_s	s	n/a
75.294	0.0905	150588	keystroke_Key.space	Key.space	n/a
75.444	0.1045	150888	keystroke_e	e	n/a
75.594	0.1045	151188	keystroke_a	a	n/a
75.639	0.105	151278	keystroke_r	r	n/a
75.816	0.0775	151632	keystroke_t	t	n/a
75.879	0.0895	151758	keystroke_h	h	n/a
75.999	0.0895	151998	keystroke_q	q	n/a
76.119	0.0895	152238	keystroke_u	u	n/a
76.2245	0.119	152449	keystroke_a	a	n/a
76.359	0.075	152718	keystroke_k	k	n/a
76.419	0.1045	152838	keystroke_e	e	n/a
76.494	0.09	152988	keystroke_Key.space	Key.space	n/a
76.616	0.073	153232	keystroke_d	d	n/a
76.839	0.0745	153678	keystroke_e	e	n/a
76.899	0.1645	153798	keystroke_s	s	n/a
77.034	0.1045	154068	keystroke_e	e	n/a
77.094	0.09	154188	keystroke_r	r	n/a
77.274	0.0895	154548	keystroke_v	v	n/a
77.3945	0.0895	154789	keystroke_e	e	n/a
77.469	0.0745	154938	keystroke_Key.space	Key.space	n/a
77.544	0.0915	155088	keystroke_m	m	n/a
77.6195	0.104	155239	keystroke_e	e	n/a
77.709	0.0895	155418	keystroke_t	t	n/a
77.8145	0.1045	155629	keystroke_e	e	n/a
77.904	0.12	155808	keystroke_r	r	n/a
77.979	0.105	155958	keystroke_s	s	n/a
78.504	0.09	157008	keystroke_Key.enter	Key.enter	n/a
78.6055	3.725	157211	prompt	n/a	thehun hometown navigate manga\n
79.209	0.1195	158418	keystroke_t	t	n/a
79.3435	0.09	158687	keystroke_h	h	n/a
79.389	0.0895	158778	keystroke_e	e	n/a
79.4935	0.075	158987	keystroke_h	h	n/a
79.659	0.1045	159318	keystroke_u	u	n/a
79.839	0.0745	159678	keystroke_n	n	n/a
79.944	0.09	159888	keystroke_Key.space	Key.space	n/a
80.0495	0.0745	160099	keystroke_h	h	n/a
80.1395	0.119	160279	keystroke_o	o	n/a
80.214	0.12	160428	keystroke_m	m	n/a
80.3495	0.1345	160699	keystroke_e	e	n/a
80.4695	0.1195	160939	keystroke_t	t	n/a
80.5445	0.0895	161089	keystroke_o	o	n/a
80.65	0.119	161300	keystroke_w	w	n/a
80.7095	0.1045	161419	keystroke_n	n	n/a
80.829	0.09	161658	keystroke_Key.space	Key.space	n/a
80.9195	0.0895	161839	keystroke_n	n	n/a
81.0245	0.119	162049	keystroke_a	a	n/a
81.114	0.09	162228	keystroke_v	v	n/a
81.1895	0.074	162379	keystroke_i	i	n/a
81.2795	0.1045	162559	keystroke_g	g	n/a
81.3695	0.149	162739	keystroke_a	a	n/a
81.504	0.1195	163008	keystroke_t	t	n/a
81.5795	0.1045	163159	keystroke_e	e	n/a
81.654	0.0745	163308	keystroke_Key.space	Key.space	n/a
81.759	0.0895	163518	keystroke_m	m	n/a
81.849	0.1195	163698	keystroke_a	a	n/a
81.939	0.0895	163878	keystroke_n	n	n/a
82.0435	0.06	164087	keystroke_g	g	n/a
82.074	0.1195	164148	keystroke_a	a	n/a
82.239	0.0895	164478	keystroke_Key.enter	Key.enter	n/a
82.339	2.7515	164678	prompt	n/a	whose guitar poems world\n
82.914	0.1045	165828	keystroke_w	w	n/a
82.989	0.0895	165978	keystroke_h	h	n/a
83.064	0.1045	166128	keystroke_o	o	n/a
83.124	0.1345	166248	keystroke_s	s	n/a
83.1995	0.0895	166399	keystroke_e	e	n/a
83.244	0.0745	166488	keystroke_Key.space	Key.space	n/a
83.3345	0.089	166669	keystroke_g	g	n/a
83.409	0.1195	166818	keystroke_u	u	n/a
83.4995	0.104	166999	keystroke_i	i	n/a
83.589	0.1195	167178	keystroke_t	t	n/a
83.724	0.1345	167448	keystroke_a	a	n/a
83.814	0.12	167628	keystroke_r	r	n/a
83.904	0.1045	167808	keystroke_Key.space	Key.space	n/a
84.024	0.075	168048	keystroke_p	p	n/a
84.129	0.105	168258	keystroke_o	o	n/a
84.2195	0.089	168439	keystroke_e	e	n/a
84.324	0.09	168648	keystroke_m	m	n/a
84.3845	0.104	168769	keystroke_s	s	n/a
84.5045	0.044	169009	keystroke_Key.space	Key.space	n/a
84.579	0.1345	169158	keystroke_w	w	n/a
84.654	0.075	169308	keystroke_o	o	n/a
84.744	0.0745	169488	keystroke_r	r	n/a
84.834	0.06	169668	keystroke_l	l	n/a
84.894	0.09	169788	keystroke_d	d	n/a
85.014	0.0745	170028	keystroke_Key.enter	Key.enter	n/a
85.0975	4.223	170195	prompt	n/a	fuji reunion development calling\n
85.689	0.1045	171378	keystroke_f	f	n/a
85.809	0.0745	171618	keystroke_u	u	n/a
85.989	0.0895	171978	keystroke_j	j	n/a
86.124	0.0745	172248	keystroke_i	i	n/a
86.259	0.0745	172518	keystroke_Key.space	Key.space	n/a
86.589	0.1045	173178	keystroke_r	r	n/a
86.664	0.1045	173328	keystroke_e	e	n/a
86.724	0.0745	173448	keystroke_u	u	n/a
86.904	0.1045	173808	keystroke_n	n	n/a
86.979	0.1945	173958	keystroke_i	i	n/a
87.069	0.1195	174138	keystroke_o	o	n/a
87.144	0.105	174288	keystroke_n	n	n/a
87.264	0.0595	174528	keystroke_Key.space	Key.space	n/a
87.339	0.061	174678	keystroke_d	d	n/a
87.4895	0.089	174979	keystroke_e	e	n/a
87.594	0.0895	175188	keystroke_v	v	n/a
87.6545	0.1045	175309	keystroke_e	e	n/a
87.759	0.06	175518	keystroke_l	l	n/a
87.909	0.1045	175818	keystroke_o	o	n/a
87.969	0.1045	175938	keystroke_p	p	n/a
88.1345	0.104	176269	keystroke_m	m	n/a
88.224	0.0895	176448	keystroke_e	e	n/a
88.2995	0.0895	176599	keystroke_n	n	n/a
88.374	0.0895	176748	keystroke_t	t	n/a
88.4345	0.089	176869	keystroke_Key.space	Key.space	n/a
88.569	0.0895	177138	keystroke_c	c	n/a
88.644	0.1495	177288	keystroke_a	a	n/a
88.719	0.0595	177438	keystroke_l	l	n/a
88.854	0.1045	177708	keystroke_l	l	n/a
88.944	0.135	177888	keystroke_i	i	n/a
89.019	0.0895	178038	keystroke_n	n	n/a
89.094	0.0895	178188	keystroke_g	g	n/a
89.244	0.0745	178488	keystroke_Key.enter	Key.enter	n/a
89.3305	3.7865	178661	prompt	n/a	slot framed rebecca freight\n
89.934	0.0895	179868	keystroke_s	s	n/a
89.979	0.075	179958	keystroke_l	l	n/a
90.144	0.0745	180288	keystroke_o	o	n/a
90.204	0.1045	180408	keystroke_t	t	n/a
90.2645	0.0745	180529	keystroke_Key.space	Key.space	n/a
90.384	0.0895	180768	keystroke_f	f	n/a
90.549	0.1195	181098	keystroke_r	r	n/a
90.6845	0.134	181369	keystroke_a	a	n/a
90.804	0.0895	181608	keystroke_m	m	n/a
90.909	0.06	181818	keystroke_e	e	n/a
91.044	0.09	182088	keystroke_d	d	n/a
91.149	0.0895	182298	keystroke_Key.space	Key.space	n/a
91.224	0.1045	182448	keystroke_r	r	n/a
91.2995	0.089	182599	keystroke_e	e	n/a
91.449	0.0745	182898	keystroke_b	b	n/a
91.584	0.0595	183168	keystroke_e	e	n/a
91.7645	0.044	183529	keystroke_c	c	n/a
91.8995	0.074	183799	keystroke_c	c	n/a
92.019	0.1345	184038	keystroke_a	a	n/a
92.139	0.0895	184278	keystroke_Key.space	Key.space	n/a
92.319	0.0745	184638	keystroke_f	f	n/a
92.469	0.1195	184938	keystroke_r	r	n/a
92.544	0.1495	185088	keystroke_e	e	n/a
92.649	0.0895	185298	keystroke_i	i	n/a
92.754	0.075	185508	keystroke_g	g	n/a
92.829	0.09	185658	keystroke_h	h	n/a
92.904	0.075	185808	keystroke_t	t	n/a
93.039	0.075	186078	keystroke_Key.enter	Key.enter	n/a
93.1335	3.777	186267	prompt	n/a	engines filtering juan happiness\n
93.729	0.105	187458	keystroke_e	e	n/a
93.849	0.0745	187698	keystroke_n	n	n/a
93.909	0.1045	187818	keystroke_g	g	n/a
94.029	0.0895	188058	keystroke_i	i	n/a
94.074	0.09	188148	keystroke_n	n	n/a
94.1495	0.104	188299	keystroke_e	e	n/a
94.284	0.1045	188568	keystroke_s	s	n/a
94.389	0.0595	188778	keystroke_Key.space	Key.space	n/a
94.464	0.0895	188928	keystroke_f	f	n/a
94.539	0.1345	189078	keystroke_i	i	n/a
94.614	0.1195	189228	keystroke_l	l	n/a
94.719	0.0595	189438	keystroke_t	t	n/a
94.7945	0.119	189589	keystroke_e	e	n/a
94.8695	0.119	189739	keystroke_r	r	n/a
94.944	0.1045	189888	keystroke_i	i	n/a
95.004	0.1045	190008	keystroke_n	n	n/a
95.094	0.0895	190188	keystroke_g	g	n/a
95.169	0.0895	190338	keystroke_Key.space	Key.space	n/a
95.244	0.06	190488	keystroke_j	j	n/a
95.394	0.0895	190788	keystroke_u	u	n/a
95.4995	0.1495	190999	keystroke_a	a	n/a
95.589	0.0745	191178	keystroke_n	n	n/a
95.709	0.0745	191418	keystroke_Key.space	Key.space	n/a
95.754	0.0745	191508	keystroke_h	h	n/a
95.874	0.1045	191748	keystroke_a	a	n/a
95.934	0.0745	191868	keystroke_p	p	n/a
96.0695	0.089	192139	keystroke_p	p	n/a
96.2345	0.104	192469	keystroke_i	i	n/a
96.279	0.0895	192558	keystroke_n	n	n/a
96.354	0.0745	192708	keystroke_e	e	n/a
96.459	0.075	192918	keystroke_s	s	n/a
96.609	0.0895	193218	keystroke_s	s	n/a
96.8345	0.074	193669	keystroke_Key.enter	Key.enter	n/a
96.9185	5.455	193837	prompt	n/a	enzyme oscar vacancies but\n
97.5695	0.074	195139	keystroke_e	e	n/a
97.674	0.0745	195348	keystroke_n	n	n/a
97.7645	0.119	195529	keystroke_z	z	n/a
97.869	0.0895	195738	keystroke_y	y	n/a
98.079	0.075	196158	keystroke_m	m	n/a
98.139	0.1045	196278	keystroke_e	e	n/a
98.229	0.0745	196458	keystroke_Key.space	Key.space	n/a
98.3645	0.0745	196729	keystroke_o	o	n/a
98.424	0.075	196848	keystroke_s	s	n/a
98.559	0.105	197118	keystroke_c	c	n/a
98.694	0.1345	197388	keystroke_a	a	n/a
98.769	0.1195	197538	keystroke_r	r	n/a
98.859	0.105	197718	keystroke_Key.space	Key.space	n/a
99.009	0.1045	198018	keystroke_v	v	n/a
99.0995	0.089	198199	keystroke_a	a	n/a
99.219	0.0895	198438	keystroke_c	c	n/a
99.324	0.1195	198648	keystroke_a	a	n/a
99.429	0.0895	198858	keystroke_n	n	n/a
99.579	0.0895	199158	keystroke_a	a	n/a
99.654	0.0745	199308	keystroke_c	c	n/a
99.849	0.0895	199698	keystroke_i	i	n/a
100.269	0.06	200538	keystroke_Key.backspace	Key.backspace	n/a
100.4045	0.089	200809	keystroke_Key.backspace	Key.backspace	n/a
101.0345	0.0595	202069	keystroke_Key.backspace	Key.backspace	n/a
101.589	0.075	203178	keystroke_c	c	n/a
101.6795	0.089	203359	keystroke_i	i	n/a
101.7695	0.1345	203539	keystroke_e	e	n/a
101.859	0.0895	203718	keystroke_s	s	n/a
101.9195	0.089	203839	keystroke_Key.space	Key.space	n/a
102.039	0.09	204078	keystroke_b	b	n/a
102.1145	0.0895	204229	keystroke_u	u	n/a
102.219	0.0895	204438	keystroke_t	t	n/a
102.294	0.075	204588	keystroke_Key.enter	Key.enter	n/a
102.388	3.538	204776	prompt	n/a	indie mails finish accreditation\n
102.924	0.105	205848	keystroke_i	i	n/a
102.984	0.0895	205968	keystroke_n	n	n/a
103.044	0.0895	206088	keystroke_d	d	n/a
103.149	0.0745	206298	keystroke_i	i	n/a
103.209	0.105	206418	keystroke_e	e	n/a
103.284	0.09	206568	keystroke_Key.space	Key.space	n/a
103.3295	0.074	206659	keystroke_m	m	n/a
103.434	0.12	206868	keystroke_a	a	n/a
103.509	0.105	207018	keystroke_i	i	n/a
103.569	0.1045	207138	keystroke_l	l	n/a
103.6295	0.1195	207259	keystroke_s	s	n/a
103.719	0.0745	207438	keystroke_Key.space	Key.space	n/a
103.8095	0.1195	207619	keystroke_f	f	n/a
103.854	0.105	207708	keystroke_i	i	n/a
103.9295	0.1195	207859	keystroke_n	n	n/a
104.034	0.0895	208068	keystroke_i	i	n/a
104.109	0.1345	208218	keystroke_s	s	n/a
104.184	0.0895	208368	keystroke_h	h	n/a
104.289	0.1045	208578	keystroke_Key.space	Key.space	n/a
104.364	0.075	208728	keystroke_a	a	n/a
104.484	0.0745	208968	keystroke_c	c	n/a
104.634	0.0745	209268	keystroke_c	c	n/a
104.799	0.105	209598	keystroke_r	r	n/a
104.874	0.075	209748	keystroke_e	e	n/a
105.039	0.1045	210078	keystroke_d	d	n/a
105.1305	0.088	210261	keystroke_i	i	n/a
105.249	0.105	210498	keystroke_t	t	n/a
105.369	0.1195	210738	keystroke_a	a	n/a
105.4295	0.1045	210859	keystroke_t	t	n/a
105.549	0.1645	211098	keystroke_i	i	n/a
105.624	0.105	211248	keystroke_o	o	n/a
105.6845	0.0895	211369	keystroke_n	n	n/a
105.849	0.0745	211698	keystroke_Key.enter	Key.enter	n/a
105.9365	3.2445	211873	prompt	n/a	files wanting disco indices\n
106.5845	0.1195	213169	keystroke_f	f	n/a
106.6745	0.1345	213349	keystroke_i	i	n/a
106.7345	0.1045	213469	keystroke_l	l	n/a
106.824	0.0895	213648	keystroke_e	e	n/a
106.854	0.105	213708	keystroke_s	s	n/a
106.944	0.0895	213888	keystroke_Key.space	Key.space	n/a
107.0645	0.059	214129	keystroke_w	w	n/a
107.124	0.1195	214248	keystroke_a	a	n/a
107.259	0.105	214518	keystroke_n	n	n/a
107.394	0.12	214788	keystroke_t	t	n/a
107.499	0.105	214998	keystroke_i	i	n/a
107.544	0.12	215088	keystroke_n	n	n/a
107.619	0.1195	215238	keystroke_g	g	n/a
107.709	0.075	215418	keystroke_Key.space	Key.space	n/a
107.8145	0.104	215629	keystroke_d	d	n/a
107.9045	0.0895	215809	keystroke_i	i	n/a
107.9795	0.089	215959	keystroke_s	s	n/a
108.1295	0.1345	216259	keystroke_c	c	n/a
108.219	0.0895	216438	keystroke_o	o	n/a
108.324	0.0895	216648	keystroke_Key.space	Key.space	n/a
108.429	0.135	216858	keystroke_i	i	n/a
108.489	0.09	216978	keystroke_n	n	n/a
108.549	0.0895	217098	keystroke_d	d	n/a
108.669	0.0895	217338	keystroke_i	i	n/a
108.744	0.075	217488	keystroke_c	c	n/a
108.924	0.135	217848	keystroke_e	e	n/a
108.984	0.12	217968	keystroke_s	s	n/a
109.119	0.06	218238	keystroke_Key.enter	Key.enter	n/a
109.188	5.663	218376	prompt	n/a	chorus arbitration cubic executed\n
109.824	0.0895	219648	keystroke_c	c	n/a
109.8845	0.0895	219769	keystroke_h	h	n/a
109.989	0.1045	219978	keystroke_o	o	n/a
110.109	0.1045	220218	keystroke_r	r	n/a
110.2295	0.0745	220459	keystroke_u	u	n/a
110.289	0.12	220578	keystroke_s	s	n/a
110.395	0.0735	220790	keystroke_Key.space	Key.space	n/a
110.484	0.12	220968	keystroke_a	a	n/a
110.559	0.0895	221118	keystroke_r	r	n/a
110.754	0.09	221508	keystroke_b	b	n/a
110.874	0.105	221748	keystroke_i	i	n/a
110.964	0.06	221928	keystroke_t	t	n/a
111.114	0.09	222228	keystroke_r	r	n/a
111.189	0.135	222378	keystroke_a	a	n/a
111.295	0.0885	222590	keystroke_r	r	n/a
111.699	0.075	223398	keystroke_Key.backspace	Key.backspace	n/a
112.449	0.15	224898	keystroke_t	t	n/a
112.645	0.1785	225290	keystroke_i	i	n/a
112.854	0.1495	225708	keystroke_o	o	n/a
112.9445	0.1195	225889	keystroke_n	n	n/a
113.124	0.09	226248	keystroke_Key.space	Key.space	n/a
113.274	0.09	226548	keystroke_c	c	n/a
113.409	0.03	226818	keystroke_u	u	n/a
113.454	0.105	226908	keystroke_b	b	n/a
113.5445	0.0895	227089	keystroke_i	i	n/a
113.604	0.09	227208	keystroke_c	c	n/a
113.6945	0.0745	227389	keystroke_Key.space	Key.space	n/a
113.814	0.0895	227628	keystroke_e	e	n/a
114.009	0.075	228018	keystroke_x	x	n/a
114.174	0.06	228348	keystroke_e	e	n/a
114.3545	0.0445	228709	keystroke_c	c	n/a
114.4145	0.0895	228829	keystroke_u	u	n/a
114.489	0.09	228978	keystroke_t	t	n/a
114.549	0.0595	229098	keystroke_e	e	n/a
114.684	0.09	229368	keystroke_d	d	n/a
114.789	0.06	229578	keystroke_Key.enter	Key.enter	n/a
114.867	5.0085	229734	prompt	n/a	buyers commission civilization shareholders\n
115.524	0.0745	231048	keystroke_b	b	n/a
115.584	0.0745	231168	keystroke_u	u	n/a
115.734	0.0895	231468	keystroke_y	y	n/a
115.839	0.135	231678	keystroke_e	e	n/a
115.9295	0.1645	231859	keystroke_r	r	n/a
116.049	0.1195	232098	keystroke_s	s	n/a
116.139	0.09	232278	keystroke_Key.space	Key.space	n/a
116.289	0.09	232578	keystroke_c	c	n/a
116.349	0.09	232698	keystroke_o	o	n/a
116.3945	0.0895	232789	keystroke_m	m	n/a
116.5445	0.1195	233089	keystroke_m	m	n/a
116.6495	0.074	233299	keystroke_i	i	n/a
116.7695	0.0745	233539	keystroke_s	s	n/a
116.904	0.1045	233808	keystroke_s	s	n/a
116.9945	0.1495	233989	keystroke_i	i	n/a
117.0545	0.104	234109	keystroke_o	o	n/a
117.114	0.09	234228	keystroke_n	n	n/a
117.174	0.075	234348	keystroke_Key.space	Key.space	n/a
117.2945	0.104	234589	keystroke_c	c	n/a
117.384	0.0895	234768	keystroke_i	i	n/a
117.489	0.09	234978	keystroke_v	v	n/a
117.5945	0.1195	235189	keystroke_i	i	n/a
117.699	0.105	235398	keystroke_l	l	n/a
117.774	0.105	235548	keystroke_i	i	n/a
117.924	0.0895	235848	keystroke_z	z	n/a
118.119	0.12	236238	keystroke_a	a	n/a
118.1795	0.119	236359	keystroke_t	t	n/a
118.284	0.15	236568	keystroke_i	i	n/a
118.3445	0.1195	236689	keystroke_o	o	n/a
118.4195	0.104	236839	keystroke_n	n	n/a
118.509	0.0745	237018	keystroke_Key.space	Key.space	n/a
118.5695	0.104	237139	keystroke_s	s	n/a
118.689	0.09	237378	keystroke_h	h	n/a
118.764	0.1045	237528	keystroke_a	a	n/a
118.8245	0.1045	237649	keystroke_r	r	n/a
118.8845	0.1045	237769	keystroke_e	e	n/a
118.974	0.0895	237948	keystroke_h	h	n/a
119.0345	0.089	238069	keystroke_o	o	n/a
119.214	0.09	238428	keystroke_l	l	n/a
119.289	0.06	238578	keystroke_d	d	n/a
119.424	0.105	238848	keystroke_e	e	n/a
119.499	0.1045	238998	keystroke_r	r	n/a
119.544	0.1195	239088	keystroke_s	s	n/a
119.814	0.06	239628	keystroke_Key.enter	Key.enter	n/a
119.8865	3.7405	239773	prompt	n/a	memories dispatch admission blast\n
120.504	0.075	241008	keystroke_m	m	n/a
120.5945	0.1195	241189	keystroke_e	e	n/a
120.684	0.12	241368	keystroke_m	m	n/a
120.7595	0.104	241519	keystroke_o	o	n/a
120.8795	0.104	241759	keystroke_r	r	n/a
120.969	0.105	241938	keystroke_i	i	n/a
121.0895	0.105	242179	keystroke_e	e	n/a
121.134	0.105	242268	keystroke_s	s	n/a
121.224	0.06	242448	keystroke_Key.space	Key.space	n/a
121.3295	0.0895	242659	keystroke_d	d	n/a
121.404	0.09	242808	keystroke_i	i	n/a
121.5095	0.1045	243019	keystroke_s	s	n/a
121.5995	0.1195	243199	keystroke_p	p	n/a
121.704	0.1195	243408	keystroke_a	a	n/a
121.7645	0.0895	243529	keystroke_t	t	n/a
121.9595	0.1195	243919	keystroke_c	c	n/a
122.0345	0.104	244069	keystroke_h	h	n/a
122.124	0.091	244248	keystroke_Key.space	Key.space	n/a
122.2305	0.1185	244461	keystroke_a	a	n/a
122.304	0.12	244608	keystroke_d	d	n/a
122.4095	0.1045	244819	keystroke_m	m	n/a
122.4995	0.1045	244999	keystroke_i	i	n/a
122.589	0.076	245178	keystroke_s	s	n/a
122.739	0.105	245478	keystroke_s	s	n/a
122.7995	0.1795	245599	keystroke_i	i	n/a
122.874	0.0895	245748	keystroke_o	o	n/a
122.934	0.1195	245868	keystroke_n	n	n/a
123.01	0.1035	246020	keystroke_Key.space	Key.space	n/a
123.099	0.0895	246198	keystroke_b	b	n/a
123.219	0.06	246438	keystroke_l	l	n/a
123.249	0.135	246498	keystroke_a	a	n/a
123.324	0.15	246648	keystroke_s	s	n/a
123.414	0.105	246828	keystroke_t	t	n/a
123.564	0.0595	247128	keystroke_Key.enter	Key.enter	n/a
123.638	3.3635	247276	prompt	n/a	barely sets meyer persian\n
124.2995	0.104	248599	keystroke_b	b	n/a
124.464	0.1345	248928	keystroke_a	a	n/a
124.5545	0.119	249109	keystroke_r	r	n/a
124.6445	0.164	249289	keystroke_e	e	n/a
124.824	0.075	249648	keystroke_l	l	n/a
124.929	0.105	249858	keystroke_y	y	n/a
125.064	0.0745	250128	keystroke_Key.space	Key.space	n/a
125.124	0.1495	250248	keystroke_s	s	n/a
125.214	0.105	250428	keystroke_e	e	n/a
125.274	0.135	250548	keystroke_t	t	n/a
125.394	0.105	250788	keystroke_s	s	n/a
125.469	0.09	250938	keystroke_Key.space	Key.space	n/a
125.5445	0.0895	251089	keystroke_m	m	n/a
125.6945	0.119	251389	keystroke_e	e	n/a
125.799	0.09	251598	keystroke_y	y	n/a
125.904	0.105	251808	keystroke_e	e	n/a
125.9495	0.1345	251899	keystroke_r	r	n/a
126.0545	0.119	252109	keystroke_Key.space	Key.space	n/a
126.2195	0.089	252439	keystroke_p	p	n/a
126.3095	0.1195	252619	keystroke_e	e	n/a
126.3845	0.1045	252769	keystroke_r	r	n/a
126.474	0.12	252948	keystroke_s	s	n/a
126.579	0.075	253158	keystroke_i	i	n/a
126.6845	0.119	253369	keystroke_a	a	n/a
126.7595	0.0595	253519	keystroke_n	n	n/a
126.9395	0.0595	253879	keystroke_Key.enter	Key.enter	n/a
127.0125	4.249	254025	prompt	n/a	href orlando creative dialog\n
127.749	0.075	255498	keystroke_h	h	n/a
127.869	0.135	255738	keystroke_r	r	n/a
127.989	0.1345	255978	keystroke_e	e	n/a
128.1095	0.1345	256219	keystroke_f	f	n/a
128.229	0.0895	256458	keystroke_Key.space	Key.space	n/a
128.3495	0.1045	256699	keystroke_o	o	n/a
128.484	0.1045	256968	keystroke_r	r	n/a
128.604	0.09	257208	keystroke_l	l	n/a
128.7095	0.1045	257419	keystroke_a	a	n/a
128.784	0.09	257568	keystroke_n	n	n/a
128.8595	0.1645	257719	keystroke_d	d	n/a
128.964	0.09	257928	keystroke_o	o	n/a
129.039	0.075	258078	keystroke_Key.space	Key.space	n/a
129.174	0.045	258348	keystroke_c	c	n/a
129.339	0.15	258678	keystroke_r	r	n/a
129.414	0.135	258828	keystroke_e	e	n/a
129.519	0.12	259038	keystroke_a	a	n/a
129.61	0.104	259220	keystroke_t	t	n/a
129.789	0.105	259578	keystroke_i	i	n/a
129.939	0.1205	259878	keystroke_v	v	n/a
130.074	0.105	260148	keystroke_e	e	n/a
130.1645	0.0895	260329	keystroke_Key.space	Key.space	n/a
130.3445	0.0895	260689	keystroke_d	d	n/a
130.4495	0.0895	260899	keystroke_i	i	n/a
130.539	0.12	261078	keystroke_a	a	n/a
130.6445	0.0745	261289	keystroke_l	l	n/a
130.8095	0.0745	261619	keystroke_o	o	n/a
130.8995	0.059	261799	keystroke_g	g	n/a
131.199	0.06	262398	keystroke_Key.enter	Key.enter	n/a
131.2695	4.1465	262539	prompt	n/a	upload emma dave sublimedirectory\n
131.919	0.0905	263838	keystroke_u	u	n/a
132.025	0.104	264050	keystroke_p	p	n/a
132.219	0.06	264438	keystroke_l	l	n/a
132.369	0.09	264738	keystroke_o	o	n/a
132.429	0.12	264858	keystroke_a	a	n/a
132.475	0.134	264950	keystroke_d	d	n/a
132.579	0.075	265158	keystroke_Key.space	Key.space	n/a
132.684	0.1045	265368	keystroke_e	e	n/a
132.789	0.075	265578	keystroke_m	m	n/a
132.9395	0.074	265879	keystroke_m	m	n/a
133.0145	0.1045	266029	keystroke_a	a	n/a
133.104	0.105	266208	keystroke_Key.space	Key.space	n/a
133.1945	0.1045	266389	keystroke_d	d	n/a
133.2845	0.1045	266569	keystroke_a	a	n/a
133.3595	0.1195	266719	keystroke_v	v	n/a
133.4495	0.0895	266899	keystroke_e	e	n/a
133.5245	0.0595	267049	keystroke_Key.space	Key.space	n/a
133.629	0.1045	267258	keystroke_s	s	n/a
133.704	0.105	267408	keystroke_u	u	n/a
133.8245	0.0895	267649	keystroke_b	b	n/a
133.929	0.105	267858	keystroke_l	l	n/a
133.989	0.12	267978	keystroke_i	i	n/a
134.0645	0.1045	268129	keystroke_m	m	n/a
134.1395	0.0745	268279	keystroke_e	e	n/a
134.3045	0.0745	268609	keystroke_d	d	n/a
134.394	0.09	268788	keystroke_i	i	n/a
134.469	0.12	268938	keystroke_r	r	n/a
134.5445	0.0595	269089	keystroke_e	e	n/a
134.739	0.045	269478	keystroke_c	c	n/a
134.8745	0.0895	269749	keystroke_t	t	n/a
134.994	0.075	269988	keystroke_o	o	n/a
135.039	0.105	270078	keystroke_r	r	n/a
135.1595	0.0745	270319	keystroke_y	y	n/a
135.3395	0.0745	270679	keystroke_Key.enter	Key.enter	n/a
135.4245	4.1685	270849	prompt	n/a	opinions aerial separation spaces\n
136.089	0.12	272178	keystroke_o	o	n/a
136.1945	0.0745	272389	keystroke_p	p	n/a
136.3295	0.1345	272659	keystroke_i	i	n/a
136.4235	0.1305	272847	keystroke_n	n	n/a
136.5245	0.1645	273049	keystroke_i	i	n/a
136.5995	0.1345	273199	keystroke_o	o	n/a
136.675	0.1185	273350	keystroke_n	n	n/a
136.8095	0.1045	273619	keystroke_s	s	n/a
136.899	0.09	273798	keystroke_Key.space	Key.space	n/a
137.004	0.15	274008	keystroke_a	a	n/a
137.1245	0.1195	274249	keystroke_e	e	n/a
137.23	0.134	274460	keystroke_r	r	n/a
137.35	0.089	274700	keystroke_i	i	n/a
137.4545	0.1045	274909	keystroke_e	e	n/a
137.575	0.074	275150	keystroke_l	l	n/a
137.664	0.075	275328	keystroke_Key.space	Key.space	n/a
137.7395	0.1205	275479	keystroke_s	s	n/a
137.814	0.12	275628	keystroke_e	e	n/a
137.9495	0.0625	275899	keystroke_p	p	n/a
138.025	0.104	276050	keystroke_a	a	n/a
138.099	0.15	276198	keystroke_r	r	n/a
138.219	0.135	276438	keystroke_a	a	n/a
138.294	0.12	276588	keystroke_t	t	n/a
138.444	0.18	276888	keystroke_i	i	n/a
138.519	0.12	277038	keystroke_o	o	n/a
138.5645	0.1195	277129	keystroke_n	n	n/a
138.6845	0.0745	277369	keystroke_Key.space	Key.space	n/a
138.789	0.105	277578	keystroke_s	s	n/a
138.9095	0.0895	277819	keystroke_p	p	n/a
138.984	0.075	277968	keystroke_a	a	n/a
139.104	0.09	278208	keystroke_c	c	n/a
139.2845	0.1195	278569	keystroke_e	e	n/a
139.3445	0.1195	278689	keystroke_s	s	n/a
139.4945	0.095	278989	keystroke_Key.enter	Key.enter	n/a
139.5995	3.7215	279199	prompt	n/a	invision placed hawk sweet\n
140.1695	0.1045	280339	keystroke_i	i	n/a
140.214	0.09	280428	keystroke_n	n	n/a
140.3645	0.1045	280729	keystroke_v	v	n/a
140.3945	0.1045	280789	keystroke_i	i	n/a
140.589	0.12	281178	keystroke_s	s	n/a
140.71	0.1795	281420	keystroke_i	i	n/a
140.7845	0.1345	281569	keystroke_o	o	n/a
140.8445	0.1195	281689	keystroke_n	n	n/a
140.9945	0.0895	281989	keystroke_Key.space	Key.space	n/a
141.129	0.075	282258	keystroke_p	p	n/a
141.2795	0.1045	282559	keystroke_l	l	n/a
141.3995	0.0745	282799	keystroke_a	a	n/a
141.564	0.075	283128	keystroke_c	c	n/a
141.7145	0.0445	283429	keystroke_e	e	n/a
141.8345	0.119	283669	keystroke_d	d	n/a
141.94	0.089	283880	keystroke_Key.space	Key.space	n/a
142.0145	0.1045	284029	keystroke_h	h	n/a
142.1045	0.135	284209	keystroke_a	a	n/a
142.2095	0.1195	284419	keystroke_w	w	n/a
142.344	0.075	284688	keystroke_k	k	n/a
142.434	0.09	284868	keystroke_Key.space	Key.space	n/a
142.6145	0.0895	285229	keystroke_s	s	n/a
142.8095	0.09	285619	keystroke_w	w	n/a
142.884	0.075	285768	keystroke_e	e	n/a
143.019	0.1205	286038	keystroke_e	e	n/a
143.1245	0.0895	286249	keystroke_t	t	n/a
143.244	0.075	286488	keystroke_Key.enter	Key.enter	n/a
143.334	3.347	286668	prompt	n/a	parts guam eliminate armed\n
143.98	0.089	287960	keystroke_p	p	n/a
144.01	0.164	288020	keystroke_a	a	n/a
144.1445	0.0895	288289	keystroke_r	r	n/a
144.3095	0.1195	288619	keystroke_t	t	n/a
144.414	0.09	288828	keystroke_s	s	n/a
144.4895	0.0745	288979	keystroke_Key.space	Key.space	n/a
144.579	0.105	289158	keystroke_g	g	n/a
144.699	0.09	289398	keystroke_u	u	n/a
144.7595	0.134	289519	keystroke_a	a	n/a
144.9095	0.0895	289819	keystroke_m	m	n/a
145.014	0.075	290028	keystroke_Key.space	Key.space	n/a
145.1345	0.0895	290269	keystroke_e	e	n/a
145.225	0.089	290450	keystroke_l	l	n/a
145.2845	0.1195	290569	keystroke_i	i	n/a
145.375	0.119	290750	keystroke_m	m	n/a
145.4795	0.1345	290959	keystroke_i	i	n/a
145.5695	0.1045	291139	keystroke_n	n	n/a
145.6895	0.1045	291379	keystroke_a	a	n/a
145.7645	0.1045	291529	keystroke_t	t	n/a
145.824	0.12	291648	keystroke_e	e	n/a
145.929	0.06	291858	keystroke_Key.space	Key.space	n/a
146.019	0.105	292038	keystroke_a	a	n/a
146.1245	0.1195	292249	keystroke_r	r	n/a
146.229	0.075	292458	keystroke_m	m	n/a
146.319	0.075	292638	keystroke_e	e	n/a
146.484	0.075	292968	keystroke_d	d	n/a
146.604	0.075	293208	keystroke_Key.enter	Key.enter	n/a
146.6875	4.104	293375	prompt	n/a	translated dried sense spent\n
147.31	0.074	294620	keystroke_t	t	n/a
147.459	0.105	294918	keystroke_r	r	n/a
147.549	0.105	295098	keystroke_a	a	n/a
147.643	0.086	295286	keystroke_n	n	n/a
147.834	0.12	295668	keystroke_s	s	n/a
147.9995	0.0895	295999	keystroke_l	l	n/a
148.1195	0.1345	296239	keystroke_a	a	n/a
148.209	0.12	296418	keystroke_t	t	n/a
148.299	0.075	296598	keystroke_e	e	n/a
148.4495	0.0895	296899	keystroke_d	d	n/a
148.5245	0.0745	297049	keystroke_Key.space	Key.space	n/a
148.644	0.06	297288	keystroke_d	d	n/a
148.7645	0.1345	297529	keystroke_r	r	n/a
148.8695	0.0895	297739	keystroke_i	i	n/a
148.944	0.075	297888	keystroke_e	e	n/a
149.094	0.09	298188	keystroke_d	d	n/a
149.1695	0.0895	298339	keystroke_Key.space	Key.space	n/a
149.2745	0.0895	298549	keystroke_s	s	n/a
149.3195	0.1045	298639	keystroke_e	e	n/a
149.4545	0.0595	298909	keystroke_n	n	n/a
149.529	0.12	299058	keystroke_s	s	n/a
149.5895	0.1195	299179	keystroke_e	e	n/a
149.679	0.075	299358	keystroke_Key.space	Key.space	n/a
149.7995	0.1345	299599	keystroke_s	s	n/a
149.919	0.09	299838	keystroke_p	p	n/a
149.949	0.135	299898	keystroke_e	e	n/a
150.175	0.089	300350	keystroke_n	n	n/a
150.219	0.105	300438	keystroke_t	t	n/a
150.7145	0.0745	301429	keystroke_Key.enter	Key.enter	n/a
150.799	4.462	301598	prompt	n/a	traffic principles naturals reseller\n
151.3895	0.0745	302779	keystroke_t	t	n/a
151.554	0.1045	303108	keystroke_r	r	n/a
151.734	0.12	303468	keystroke_a	a	n/a
151.8395	0.0745	303679	keystroke_f	f	n/a
151.9745	0.1045	303949	keystroke_f	f	n/a
152.094	0.09	304188	keystroke_i	i	n/a
152.199	0.06	304398	keystroke_c	c	n/a
152.2595	0.1045	304519	keystroke_Key.space	Key.space	n/a
152.349	0.105	304698	keystroke_p	p	n/a
152.469	0.09	304938	keystroke_r	r	n/a
152.544	0.12	305088	keystroke_i	i	n/a
152.619	0.105	305238	keystroke_n	n	n/a
152.694	0.105	305388	keystroke_c	c	n/a
152.784	0.1205	305568	keystroke_i	i	n/a
152.859	0.09	305718	keystroke_p	p	n/a
153.009	0.105	306018	keystroke_l	l	n/a
153.1145	0.0895	306229	keystroke_e	e	n/a
153.1745	0.1195	306349	keystroke_s	s	n/a
153.264	0.105	306528	keystroke_Key.space	Key.space	n/a
153.4745	0.0745	306949	keystroke_n	n	n/a
153.5645	0.1045	307129	keystroke_a	a	n/a
153.6395	0.1195	307279	keystroke_t	t	n/a
153.759	0.075	307518	keystroke_u	u	n/a
153.8345	0.1195	307669	keystroke_r	r	n/a
153.8945	0.135	307789	keystroke_a	a	n/a
154.015	0.0745	308030	keystroke_l	l	n/a
154.1045	0.0895	308209	keystroke_s	s	n/a
154.1795	0.0895	308359	keystroke_Key.space	Key.space	n/a
154.284	0.12	308568	keystroke_r	r	n/a
154.3595	0.1045	308719	keystroke_e	e	n/a
154.434	0.1345	308868	keystroke_s	s	n/a
154.584	0.0895	309168	keystroke_e	e	n/a
154.734	0.06	309468	keystroke_l	l	n/a
154.869	0.075	309738	keystroke_l	l	n/a
154.974	0.09	309948	keystroke_e	e	n/a
155.0495	0.0745	310099	keystroke_r	r	n/a
155.184	0.075	310368	keystroke_Key.enter	Key.enter	n/a
155.268	3.113	310536	prompt	n/a	jobs sink ultram social\n
155.8145	0.1195	311629	keystroke_j	j	n/a
155.9045	0.0895	311809	keystroke_o	o	n/a
155.979	0.09	311958	keystroke_b	b	n/a
156.099	0.12	312198	keystroke_s	s	n/a
156.205	0.104	312410	keystroke_Key.space	Key.space	n/a
156.3245	0.0895	312649	keystroke_s	s	n/a
156.369	0.12	312738	keystroke_i	i	n/a
156.4445	0.0895	312889	keystroke_n	n	n/a
156.5645	0.1045	313129	keystroke_k	k	n/a
156.7145	0.0595	313429	keystroke_Key.space	Key.space	n/a
156.79	0.074	313580	keystroke_u	u	n/a
156.8795	0.1195	313759	keystroke_l	l	n/a
157.0145	0.089	314029	keystroke_t	t	n/a
157.209	0.105	314418	keystroke_r	r	n/a
157.2995	0.1495	314599	keystroke_a	a	n/a
157.4495	0.0895	314899	keystroke_m	m	n/a
157.5845	0.0595	315169	keystroke_Key.space	Key.space	n/a
157.6895	0.0895	315379	keystroke_s	s	n/a
157.7495	0.0895	315499	keystroke_o	o	n/a
157.869	0.105	315738	keystroke_c	c	n/a
157.9595	0.0745	315919	keystroke_i	i	n/a
158.0495	0.1195	316099	keystroke_a	a	n/a
158.124	0.0755	316248	keystroke_l	l	n/a
158.319	0.06	316638	keystroke_Key.enter	Key.enter	n/a
158.3885	4.268	316777	prompt	n/a	situated displays critics museums\n
159.024	0.12	318048	keystroke_s	s	n/a
159.129	0.075	318258	keystroke_i	i	n/a
159.234	0.105	318468	keystroke_t	t	n/a
159.324	0.09	318648	keystroke_u	u	n/a
159.414	0.12	318828	keystroke_a	a	n/a
159.474	0.135	318948	keystroke_t	t	n/a
159.5645	0.0895	319129	keystroke_e	e	n/a
159.729	0.105	319458	keystroke_d	d	n/a
159.8195	0.0895	319639	keystroke_Key.space	Key.space	n/a
159.9245	0.1045	319849	keystroke_d	d	n/a
160.059	0.075	320118	keystroke_i	i	n/a
160.119	0.135	320238	keystroke_s	s	n/a
160.239	0.075	320478	keystroke_p	p	n/a
160.374	0.09	320748	keystroke_l	l	n/a
160.509	0.1055	321018	keystroke_a	a	n/a
160.584	0.075	321168	keystroke_y	y	n/a
160.674	0.09	321348	keystroke_s	s	n/a
160.7645	0.0745	321529	keystroke_Key.space	Key.space	n/a
160.884	0.06	321768	keystroke_c	c	n/a
161.034	0.105	322068	keystroke_r	r	n/a
161.1545	0.0595	322309	keystroke_i	i	n/a
161.2145	0.1195	322429	keystroke_t	t	n/a
161.349	0.06	322698	keystroke_i	i	n/a
161.4245	0.1345	322849	keystroke_c	c	n/a
161.5445	0.1045	323089	keystroke_s	s	n/a
161.6045	0.1195	323209	keystroke_Key.space	Key.space	n/a
161.6945	0.0745	323389	keystroke_m	m	n/a
161.874	0.075	323748	keystroke_u	u	n/a
161.964	0.12	323928	keystroke_s	s	n/a
162.0545	0.1195	324109	keystroke_e	e	n/a
162.144	0.09	324288	keystroke_u	u	n/a
162.3245	0.0745	324649	keystroke_m	m	n/a
162.414	0.1195	324828	keystroke_s	s	n/a
162.594	0.06	325188	keystroke_Key.enter	Key.enter	n/a
162.6645	5.0165	325329	prompt	n/a	what'd receives implementation interested\n
163.2995	0.1045	326599	keystroke_w	w	n/a
163.4205	0.0885	326841	keystroke_h	h	n/a
163.5395	0.1345	327079	keystroke_a	a	n/a
163.629	0.105	327258	keystroke_t	t	n/a
163.749	0.075	327498	keystroke_'	'	n/a
163.8395	0.1045	327679	keystroke_d	d	n/a
163.959	0.075	327918	keystroke_Key.space	Key.space	n/a
164.064	0.105	328128	keystroke_r	r	n/a
164.1395	0.0745	328279	keystroke_e	e	n/a
164.32	0.089	328640	keystroke_c	c	n/a
164.484	0.105	328968	keystroke_e	e	n/a
164.59	0.089	329180	keystroke_i	i	n/a
164.6945	0.0895	329389	keystroke_v	v	n/a
164.7545	0.1795	329509	keystroke_e	e	n/a
164.8595	0.1045	329719	keystroke_s	s	n/a
164.9195	0.1195	329839	keystroke_Key.space	Key.space	n/a
165.084	0.12	330168	keystroke_i	i	n/a
165.1595	0.2095	330319	keystroke_m	m	n/a
165.2945	0.1045	330589	keystroke_p	p	n/a
165.459	0.09	330918	keystroke_l	l	n/a
165.579	0.105	331158	keystroke_e	e	n/a
165.699	0.09	331398	keystroke_m	m	n/a
165.82	0.104	331640	keystroke_e	e	n/a
165.894	0.09	331788	keystroke_n	n	n/a
165.999	0.09	331998	keystroke_t	t	n/a
166.1045	0.1345	332209	keystroke_a	a	n/a
166.1645	0.1195	332329	keystroke_t	t	n/a
166.2695	0.1495	332539	keystroke_i	i	n/a
166.329	0.105	332658	keystroke_o	o	n/a
166.3895	0.1045	332779	keystroke_n	n	n/a
166.5095	0.0745	333019	keystroke_Key.space	Key.space	n/a
166.6145	0.0895	333229	keystroke_i	i	n/a
166.6745	0.0745	333349	keystroke_n	n	n/a
166.734	0.105	333468	keystroke_t	t	n/a
166.8545	0.0745	333709	keystroke_e	e	n/a
166.9145	0.1645	333829	keystroke_r	r	n/a
167.02	0.134	334040	keystroke_e	e	n/a
167.124	0.165	334248	keystroke_s	s	n/a
167.229	0.105	334458	keystroke_t	t	n/a
167.2745	0.0895	334549	keystroke_e	e	n/a
167.4395	0.1045	334879	keystroke_d	d	n/a
167.6045	0.0745	335209	keystroke_Key.enter	Key.enter	n/a
167.69	4.282	335380	prompt	n/a	collection politics wagner making\n
168.3245	0.1045	336649	keystroke_c	c	n/a
168.399	0.075	336798	keystroke_o	o	n/a
168.579	0.06	337158	keystroke_l	l	n/a
168.7145	0.0895	337429	keystroke_l	l	n/a
168.774	0.09	337548	keystroke_e	e	n/a
168.9695	0.0595	337939	keystroke_c	c	n/a
169.089	0.12	338178	keystroke_t	t	n/a
169.1945	0.1795	338389	keystroke_i	i	n/a
169.2545	0.1345	338509	keystroke_o	o	n/a
169.329	0.135	338658	keystroke_n	n	n/a
169.449	0.09	338898	keystroke_Key.space	Key.space	n/a
169.5695	0.1045	339139	keystroke_p	p	n/a
169.6445	0.0895	339289	keystroke_o	o	n/a
169.824	0.105	339648	keystroke_l	l	n/a
169.914	0.105	339828	keystroke_i	i	n/a
170.034	0.105	340068	keystroke_t	t	n/a
170.1095	0.0895	340219	keystroke_i	i	n/a
170.2595	0.1345	340519	keystroke_c	c	n/a
170.364	0.12	340728	keystroke_s	s	n/a
170.4695	0.0895	340939	keystroke_Key.space	Key.space	n/a
170.5895	0.1495	341179	keystroke_w	w	n/a
170.6945	0.1345	341389	keystroke_a	a	n/a
170.7995	0.1045	341599	keystroke_g	g	n/a
170.9195	0.0745	341839	keystroke_n	n	n/a
170.9945	0.1195	341989	keystroke_e	e	n/a
171.0695	0.1195	342139	keystroke_r	r	n/a
171.144	0.09	342288	keystroke_Key.space	Key.space	n/a
171.234	0.09	342468	keystroke_m	m	n/a
171.294	0.135	342588	keystroke_a	a	n/a
171.414	0.06	342828	keystroke_k	k	n/a
171.579	0.105	343158	keystroke_i	i	n/a
171.6245	0.1045	343249	keystroke_n	n	n/a
171.7145	0.0745	343429	keystroke_g	g	n/a
171.9095	0.0595	343819	keystroke_Key.enter	Key.enter	n/a
171.9795	3.501	343959	prompt	n/a	rage abortion singapore lease\n
172.7495	0.1045	345499	keystroke_r	r	n/a
172.8695	0.1195	345739	keystroke_a	a	n/a
172.9445	0.1495	345889	keystroke_g	g	n/a
173.064	0.09	346128	keystroke_e	e	n/a
173.124	0.09	346248	keystroke_Key.space	Key.space	n/a
173.2295	0.1195	346459	keystroke_a	a	n/a
173.3195	0.0895	346639	keystroke_b	b	n/a
173.4545	0.1045	346909	keystroke_o	o	n/a
173.5295	0.09	347059	keystroke_r	r	n/a
173.6795	0.1195	347359	keystroke_t	t	n/a
173.785	0.179	347570	keystroke_i	i	n/a
173.8445	0.1345	347689	keystroke_o	o	n/a
173.9045	0.1345	347809	keystroke_n	n	n/a
174.009	0.09	348018	keystroke_Key.space	Key.space	n/a
174.1145	0.1195	348229	keystroke_s	s	n/a
174.22	0.134	348440	keystroke_i	i	n/a
174.309	0.12	348618	keystroke_n	n	n/a
174.339	0.15	348678	keystroke_g	g	n/a
174.4745	0.1495	348949	keystroke_a	a	n/a
174.579	0.1055	349158	keystroke_p	p	n/a
174.639	0.12	349278	keystroke_o	o	n/a
174.729	0.09	349458	keystroke_r	r	n/a
174.774	0.1055	349548	keystroke_e	e	n/a
174.8495	0.1045	349699	keystroke_Key.space	Key.space	n/a
174.939	0.075	349878	keystroke_l	l	n/a
174.999	0.12	349998	keystroke_e	e	n/a
175.104	0.105	350208	keystroke_a	a	n/a
175.1645	0.1645	350329	keystroke_s	s	n/a
175.2545	0.1195	350509	keystroke_e	e	n/a
175.4045	0.0745	350809	keystroke_Key.enter	Key.enter	n/a
175.4875	5.243	350975	prompt	n/a	carl memorabilia bureau incidence\n
176.2895	0.0595	352579	keystroke_c	c	n/a
176.3945	0.1495	352789	keystroke_a	a	n/a
176.4545	0.1645	352909	keystroke_r	r	n/a
176.589	0.09	353178	keystroke_l	l	n/a
176.6945	0.1045	353389	keystroke_Key.space	Key.space	n/a
176.814	0.09	353628	keystroke_m	m	n/a
176.8895	0.1045	353779	keystroke_e	e	n/a
177.0095	0.0895	354019	keystroke_m	m	n/a
177.0695	0.1045	354139	keystroke_o	o	n/a
177.159	0.12	354318	keystroke_r	r	n/a
177.264	0.12	354528	keystroke_a	a	n/a
177.414	0.105	354828	keystroke_b	b	n/a
177.5345	0.1345	355069	keystroke_i	i	n/a
177.6845	0.1345	355369	keystroke_l	l	n/a
177.759	0.165	355518	keystroke_i	i	n/a
177.939	0.12	355878	keystroke_a	a	n/a
178.044	0.09	356088	keystroke_Key.space	Key.space	n/a
178.2095	0.1045	356419	keystroke_b	b	n/a
178.4345	0.0895	356869	keystroke_e	e	n/a
178.7945	0.0895	357589	keystroke_Key.backspace	Key.backspace	n/a
179.0045	0.0895	358009	keystroke_u	u	n/a
179.154	0.135	358308	keystroke_r	r	n/a
179.214	0.135	358428	keystroke_e	e	n/a
179.3195	0.1345	358639	keystroke_a	a	n/a
179.4245	0.089	358849	keystroke_u	u	n/a
179.544	0.09	359088	keystroke_Key.space	Key.space	n/a
179.679	0.12	359358	keystroke_i	i	n/a
179.739	0.09	359478	keystroke_n	n	n/a
179.814	0.09	359628	keystroke_c	c	n/a
179.9345	0.0895	359869	keystroke_i	i	n/a
180.009	0.06	360018	keystroke_d	d	n/a
180.144	0.09	360288	keystroke_e	e	n/a
180.249	0.06	360498	keystroke_n	n	n/a
180.3395	0.0745	360679	keystroke_c	c	n/a
180.5195	0.0595	361039	keystroke_e	e	n/a
180.6395	0.0895	361279	keystroke_Key.enter	Key.enter	n/a
180.738	3.4625	361476	prompt	n/a	shan't interface moving earlier\n
181.2995	0.0745	362599	keystroke_s	s	n/a
181.359	0.0895	362718	keystroke_h	h	n/a
181.4345	0.1345	362869	keystroke_a	a	n/a
181.539	0.09	363078	keystroke_n	n	n/a
181.6445	0.0895	363289	keystroke_'	'	n/a
181.7345	0.1195	363469	keystroke_t	t	n/a
181.8245	0.1045	363649	keystroke_Key.space	Key.space	n/a
182.004	0.105	364008	keystroke_i	i	n/a
182.064	0.105	364128	keystroke_n	n	n/a
182.1545	0.0745	364309	keystroke_t	t	n/a
182.2145	0.12	364429	keystroke_e	e	n/a
182.3045	0.0895	364609	keystroke_r	r	n/a
182.47	0.119	364940	keystroke_f	f	n/a
182.574	0.06	365148	keystroke_a	a	n/a
182.6795	0.0595	365359	keystroke_c	c	n/a
182.8445	0.0895	365689	keystroke_e	e	n/a
182.9045	0.1195	365809	keystroke_Key.space	Key.space	n/a
182.9795	0.1195	365959	keystroke_m	m	n/a
183.054	0.09	366108	keystroke_o	o	n/a
183.1745	0.0895	366349	keystroke_v	v	n/a
183.249	0.12	366498	keystroke_i	i	n/a
183.294	0.12	366588	keystroke_n	n	n/a
183.3545	0.1045	366709	keystroke_g	g	n/a
183.4295	0.0895	366859	keystroke_Key.space	Key.space	n/a
183.535	0.134	367070	keystroke_e	e	n/a
183.624	0.135	367248	keystroke_a	a	n/a
183.699	0.12	367398	keystroke_r	r	n/a
183.8045	0.1195	367609	keystroke_l	l	n/a
183.8795	0.0895	367759	keystroke_i	i	n/a
183.939	0.06	367878	keystroke_e	e	n/a
183.9695	0.1045	367939	keystroke_r	r	n/a
184.104	0.0905	368208	keystroke_Key.enter	Key.enter	n/a
184.2255	4.6805	368451	prompt	n/a	tiny holdings documented breakfast\n
184.7945	0.105	369589	keystroke_t	t	n/a
184.8545	0.1195	369709	keystroke_i	i	n/a
184.9295	0.0745	369859	keystroke_n	n	n/a
185.124	0.075	370248	keystroke_y	y	n/a
185.214	0.0895	370428	keystroke_Key.space	Key.space	n/a
185.3345	0.0445	370669	keystroke_h	h	n/a
185.3645	0.1195	370729	keystroke_o	o	n/a
185.604	0.09	371208	keystroke_l	l	n/a
186.1145	0.1045	372229	keystroke_d	d	n/a
186.189	0.105	372378	keystroke_i	i	n/a
186.25	0.104	372500	keystroke_n	n	n/a
186.309	0.12	372618	keystroke_g	g	n/a
186.4145	0.1195	372829	keystroke_s	s	n/a
186.5495	0.0745	373099	keystroke_Key.space	Key.space	n/a
186.7	0.089	373400	keystroke_d	d	n/a
186.7745	0.0745	373549	keystroke_o	o	n/a
186.8945	0.0745	373789	keystroke_c	c	n/a
186.9395	0.09	373879	keystroke_u	u	n/a
187.119	0.09	374238	keystroke_m	m	n/a
187.239	0.105	374478	keystroke_e	e	n/a
187.329	0.075	374658	keystroke_n	n	n/a
187.389	0.12	374778	keystroke_t	t	n/a
187.479	0.06	374958	keystroke_e	e	n/a
187.644	0.105	375288	keystroke_d	d	n/a
187.7345	0.0745	375469	keystroke_Key.space	Key.space	n/a
187.8245	0.0745	375649	keystroke_b	b	n/a
188.0195	0.1645	376039	keystroke_r	r	n/a
188.094	0.135	376188	keystroke_e	e	n/a
188.2	0.119	376400	keystroke_a	a	n/a
188.2895	0.0745	376579	keystroke_k	k	n/a
188.394	0.105	376788	keystroke_f	f	n/a
188.469	0.135	376938	keystroke_a	a	n/a
188.5745	0.1345	377149	keystroke_s	s	n/a
188.6495	0.1045	377299	keystroke_t	t	n/a
188.829	0.075	377658	keystroke_Key.enter	Key.enter	n/a
188.9135	4.2825	377827	prompt	n/a	freedom sizes notes breast\n
189.444	0.09	378888	keystroke_f	f	n/a
189.579	0.105	379158	keystroke_r	r	n/a
189.654	0.09	379308	keystroke_e	e	n/a
189.804	0.075	379608	keystroke_e	e	n/a
189.9545	0.1345	379909	keystroke_d	d	n/a
190.104	0.09	380208	keystroke_o	o	n/a
190.1495	0.1045	380299	keystroke_m	m	n/a
190.254	0.09	380508	keystroke_Key.space	Key.space	n/a
190.3295	0.105	380659	keystroke_s	s	n/a
190.4495	0.0895	380899	keystroke_i	i	n/a
190.5995	0.1045	381199	keystroke_e	e	n/a
190.9295	0.0895	381859	keystroke_Key.backspace	Key.backspace	n/a
191.6345	0.1045	383269	keystroke_z	z	n/a
191.7845	0.1345	383569	keystroke_e	e	n/a
191.8745	0.1195	383749	keystroke_s	s	n/a
191.9495	0.1045	383899	keystroke_Key.space	Key.space	n/a
192.039	0.105	384078	keystroke_n	n	n/a
192.1	0.119	384200	keystroke_o	o	n/a
192.159	0.135	384318	keystroke_t	t	n/a
192.2045	0.1345	384409	keystroke_e	e	n/a
192.264	0.12	384528	keystroke_s	s	n/a
192.3545	0.0895	384709	keystroke_Key.space	Key.space	n/a
192.504	0.075	385008	keystroke_b	b	n/a
192.6995	0.1495	385399	keystroke_r	r	n/a
192.7595	0.1195	385519	keystroke_e	e	n/a
192.8345	0.1495	385669	keystroke_a	a	n/a
192.924	0.135	385848	keystroke_s	s	n/a
193.014	0.09	386028	keystroke_t	t	n/a
193.1495	0.0445	386299	keystroke_Key.enter	Key.enter	n/a
193.2055	3.291	386411	prompt	n/a	mailing i'm speech buddy\n
193.824	0.075	387648	keystroke_m	m	n/a
193.8845	0.1195	387769	keystroke_a	a	n/a
194.0045	0.12	388009	keystroke_i	i	n/a
194.0795	0.1495	388159	keystroke_l	l	n/a
194.201	0.148	388402	keystroke_i	i	n/a
194.2595	0.1195	388519	keystroke_n	n	n/a
194.3345	0.1045	388669	keystroke_g	g	n/a
194.3945	0.0895	388789	keystroke_Key.space	Key.space	n/a
194.4995	0.1195	388999	keystroke_i	i	n/a
194.6045	0.1345	389209	keystroke_'	'	n/a
194.679	0.135	389358	keystroke_m	m	n/a
194.8295	0.0895	389659	keystroke_Key.space	Key.space	n/a
194.9495	0.1045	389899	keystroke_s	s	n/a
195.039	0.105	390078	keystroke_p	p	n/a
195.159	0.06	390318	keystroke_e	e	n/a
195.294	0.075	390588	keystroke_e	e	n/a
195.5045	0.1645	391009	keystroke_c	c	n/a
195.594	0.075	391188	keystroke_h	h	n/a
195.7145	0.0895	391429	keystroke_Key.space	Key.space	n/a
195.7895	0.1245	391579	keystroke_b	b	n/a
195.879	0.09	391758	keystroke_u	u	n/a
195.9995	0.0745	391999	keystroke_d	d	n/a
196.1345	0.1045	392269	keystroke_d	d	n/a
196.224	0.06	392448	keystroke_y	y	n/a
196.4045	0.0895	392809	keystroke_Key.enter	Key.enter	n/a
196.5095	4.173	393019	prompt	n/a	beast hospitality audit discrete\n
197.1545	0.1045	394309	keystroke_b	b	n/a
197.3495	0.1195	394699	keystroke_e	e	n/a
197.4395	0.1795	394879	keystroke_a	a	n/a
197.5595	0.1645	395119	keystroke_s	s	n/a
197.6345	0.1495	395269	keystroke_t	t	n/a
197.7395	0.0895	395479	keystroke_Key.space	Key.space	n/a
197.815	0.119	395630	keystroke_h	h	n/a
197.9195	0.1195	395839	keystroke_o	o	n/a
198.024	0.12	396048	keystroke_s	s	n/a
198.1595	0.1045	396319	keystroke_p	p	n/a
198.219	0.12	396438	keystroke_i	i	n/a
198.3095	0.1205	396619	keystroke_t	t	n/a
198.4	0.149	396800	keystroke_a	a	n/a
198.5195	0.1045	397039	keystroke_l	l	n/a
198.579	0.12	397158	keystroke_i	i	n/a
198.6845	0.1345	397369	keystroke_t	t	n/a
198.7745	0.1045	397549	keystroke_y	y	n/a
198.8945	0.1045	397789	keystroke_Key.space	Key.space	n/a
198.969	0.12	397938	keystroke_a	a	n/a
199.0745	0.1045	398149	keystroke_u	u	n/a
199.1645	0.0895	398329	keystroke_d	d	n/a
199.2845	0.1045	398569	keystroke_i	i	n/a
199.3595	0.105	398719	keystroke_t	t	n/a
199.4495	0.0745	398899	keystroke_Key.space	Key.space	n/a
199.5695	0.0895	399139	keystroke_d	d	n/a
199.6745	0.09	399349	keystroke_i	i	n/a
199.7495	0.1045	399499	keystroke_s	s	n/a
199.9145	0.0895	399829	keystroke_c	c	n/a
200.079	0.12	400158	keystroke_r	r	n/a
200.155	0.134	400310	keystroke_e	e	n/a
200.304	0.105	400608	keystroke_t	t	n/a
200.365	0.104	400730	keystroke_e	e	n/a
200.604	0.075	401208	keystroke_Key.enter	Key.enter	n/a
200.6905	4.07	401381	prompt	n/a	melissa prostores that'll buyer\n
201.2645	0.09	402529	keystroke_m	m	n/a
201.3695	0.0895	402739	keystroke_e	e	n/a
201.4895	0.1045	402979	keystroke_l	l	n/a
201.565	0.089	403130	keystroke_i	i	n/a
201.6695	0.0745	403339	keystroke_s	s	n/a
201.8195	0.1045	403639	keystroke_s	s	n/a
202.029	0.09	404058	keystroke_a	a	n/a
202.105	0.089	404210	keystroke_Key.space	Key.space	n/a
202.2545	0.1195	404509	keystroke_p	p	n/a
202.4045	0.0895	404809	keystroke_r	r	n/a
202.5095	0.0895	405019	keystroke_o	o	n/a
202.659	0.1055	405318	keystroke_s	s	n/a
202.7945	0.1195	405589	keystroke_t	t	n/a
202.8995	0.0895	405799	keystroke_o	o	n/a
203.0045	0.1495	406009	keystroke_r	r	n/a
203.065	0.149	406130	keystroke_e	e	n/a
203.1395	0.1495	406279	keystroke_s	s	n/a
203.2295	0.1045	406459	keystroke_Key.space	Key.space	n/a
203.3495	0.1195	406699	keystroke_t	t	n/a
203.4095	0.1045	406819	keystroke_h	h	n/a
203.4995	0.1345	406999	keystroke_a	a	n/a
203.5445	0.1345	407089	keystroke_t	t	n/a
203.6345	0.0895	407269	keystroke_'	'	n/a
203.7845	0.0595	407569	keystroke_l	l	n/a
203.9195	0.0895	407839	keystroke_l	l	n/a
203.9945	0.0745	407989	keystroke_Key.space	Key.space	n/a
204.115	0.059	408230	keystroke_b	b	n/a
204.1445	0.0745	408289	keystroke_u	u	n/a
204.3095	0.0745	408619	keystroke_y	y	n/a
204.384	0.12	408768	keystroke_e	e	n/a
204.4595	0.1195	408919	keystroke_r	r	n/a
204.6845	0.0745	409369	keystroke_Key.enter	Key.enter	n/a
204.768	4.149	409536	prompt	n/a	evans recommends sound accurately\n
205.4045	0.1195	410809	keystroke_e	e	n/a
205.5545	0.1045	411109	keystroke_v	v	n/a
205.6895	0.1195	411379	keystroke_a	a	n/a
205.8395	0.105	411679	keystroke_n	n	n/a
206.0045	0.1045	412009	keystroke_s	s	n/a
206.1245	0.0745	412249	keystroke_Key.space	Key.space	n/a
206.2145	0.1045	412429	keystroke_r	r	n/a
206.2895	0.0595	412579	keystroke_e	e	n/a
206.4695	0.0745	412939	keystroke_c	c	n/a
206.53	0.074	413060	keystroke_o	o	n/a
206.5745	0.09	413149	keystroke_m	m	n/a
206.7095	0.105	413419	keystroke_m	m	n/a
206.7995	0.0895	413599	keystroke_e	e	n/a
206.9045	0.0895	413809	keystroke_n	n	n/a
206.98	0.134	413960	keystroke_d	d	n/a
207.0395	0.105	414079	keystroke_s	s	n/a
207.13	0.089	414260	keystroke_Key.space	Key.space	n/a
207.2195	0.1195	414439	keystroke_s	s	n/a
207.294	0.105	414588	keystroke_o	o	n/a
207.3395	0.0895	414679	keystroke_u	u	n/a
207.5345	0.0745	415069	keystroke_n	n	n/a
207.5945	0.1045	415189	keystroke_d	d	n/a
207.6845	0.0745	415369	keystroke_Key.space	Key.space	n/a
207.7745	0.06	415549	keystroke_a	a	n/a
207.8795	0.0595	415759	keystroke_c	c	n/a
208.044	0.06	416088	keystroke_c	c	n/a
208.1495	0.0895	416299	keystroke_u	u	n/a
208.1945	0.1345	416389	keystroke_r	r	n/a
208.3145	0.151	416629	keystroke_a	a	n/a
208.405	0.119	416810	keystroke_t	t	n/a
208.466	0.133	416932	keystroke_e	e	n/a
208.5845	0.1045	417169	keystroke_l	l	n/a
208.644	0.09	417288	keystroke_y	y	n/a
208.8395	0.075	417679	keystroke_Key.enter	Key.enter	n/a
208.9245	3.774	417849	prompt	n/a	event effects analyst created\n
209.4845	0.1045	418969	keystroke_e	e	n/a
209.6195	0.0895	419239	keystroke_v	v	n/a
209.6795	0.1345	419359	keystroke_e	e	n/a
209.7995	0.0745	419599	keystroke_n	n	n/a
209.8895	0.1045	419779	keystroke_t	t	n/a
209.966	0.088	419932	keystroke_Key.space	Key.space	n/a
210.0395	0.1045	420079	keystroke_e	e	n/a
210.1595	0.0745	420319	keystroke_f	f	n/a
210.3095	0.0895	420619	keystroke_f	f	n/a
210.3695	0.0895	420739	keystroke_e	e	n/a
210.5645	0.075	421129	keystroke_c	c	n/a
210.73	0.104	421460	keystroke_t	t	n/a
210.8195	0.0895	421639	keystroke_s	s	n/a
210.88	0.059	421760	keystroke_Key.space	Key.space	n/a
210.9845	0.1195	421969	keystroke_a	a	n/a
211.0745	0.0895	422149	keystroke_n	n	n/a
211.18	0.1195	422360	keystroke_a	a	n/a
211.2695	0.1045	422539	keystroke_l	l	n/a
211.33	0.104	422660	keystroke_y	y	n/a
211.4495	0.1045	422899	keystroke_s	s	n/a
211.615	0.119	423230	keystroke_t	t	n/a
211.7045	0.0895	423409	keystroke_Key.space	Key.space	n/a
211.8545	0.0595	423709	keystroke_c	c	n/a
212.0195	0.1045	424039	keystroke_r	r	n/a
212.065	0.134	424130	keystroke_e	e	n/a
212.1695	0.1195	424339	keystroke_a	a	n/a
212.2295	0.1195	424459	keystroke_t	t	n/a
212.3045	0.0745	424609	keystroke_e	e	n/a
212.4545	0.0895	424909	keystroke_d	d	n/a
212.6195	0.0745	425239	keystroke_Key.enter	Key.enter	n/a
212.7085	4.174	425417	prompt	n/a	tongue calculations jury irrigation\n
213.324	0.1055	426648	keystroke_t	t	n/a
213.415	0.104	426830	keystroke_o	o	n/a
213.4595	0.105	426919	keystroke_n	n	n/a
213.565	0.104	427130	keystroke_g	g	n/a
213.6845	0.0745	427369	keystroke_u	u	n/a
213.7445	0.105	427489	keystroke_e	e	n/a
213.8345	0.0895	427669	keystroke_Key.space	Key.space	n/a
213.9995	0.0895	427999	keystroke_c	c	n/a
214.1045	0.1345	428209	keystroke_a	a	n/a
214.2545	0.0895	428509	keystroke_l	l	n/a
214.3295	0.1045	428659	keystroke_c	c	n/a
214.4195	0.0745	428839	keystroke_u	u	n/a
214.5095	0.1195	429019	keystroke_l	l	n/a
214.615	0.104	429230	keystroke_a	a	n/a
214.6745	0.1195	429349	keystroke_t	t	n/a
214.78	0.164	429560	keystroke_i	i	n/a
214.8395	0.1345	429679	keystroke_o	o	n/a
214.8995	0.1195	429799	keystroke_n	n	n/a
214.9895	0.09	429979	keystroke_s	s	n/a
215.0495	0.1345	430099	keystroke_Key.space	Key.space	n/a
215.1695	0.06	430339	keystroke_j	j	n/a
215.3195	0.0745	430639	keystroke_u	u	n/a
215.41	0.119	430820	keystroke_r	r	n/a
215.4845	0.0745	430969	keystroke_y	y	n/a
215.5895	0.0895	431179	keystroke_Key.space	Key.space	n/a
215.739	0.09	431478	keystroke_i	i	n/a
215.8145	0.0745	431629	keystroke_r	r	n/a
215.9495	0.0895	431899	keystroke_r	r	n/a
216.0395	0.0895	432079	keystroke_i	i	n/a
216.145	0.074	432290	keystroke_g	g	n/a
216.2345	0.1345	432469	keystroke_a	a	n/a
216.3095	0.135	432619	keystroke_t	t	n/a
216.4145	0.1345	432829	keystroke_i	i	n/a
216.4595	0.135	432919	keystroke_o	o	n/a
216.5645	0.0895	433129	keystroke_n	n	n/a
216.8045	0.0745	433609	keystroke_Key.enter	Key.enter	n/a
216.8925	3.1985	433785	prompt	n/a	sport planning sign mall\n
217.4195	0.1195	434839	keystroke_s	s	n/a
217.5545	0.09	435109	keystroke_p	p	n/a
217.6295	0.1045	435259	keystroke_o	o	n/a
217.6895	0.0745	435379	keystroke_r	r	n/a
217.8245	0.1195	435649	keystroke_t	t	n/a
217.9145	0.0895	435829	keystroke_Key.space	Key.space	n/a
218.0045	0.09	436009	keystroke_p	p	n/a
218.1545	0.1195	436309	keystroke_l	l	n/a
218.2895	0.0745	436579	keystroke_a	a	n/a
218.3495	0.0745	436699	keystroke_n	n	n/a
218.4995	0.1045	436999	keystroke_n	n	n/a
218.6495	0.1195	437299	keystroke_i	i	n/a
218.7095	0.1195	437419	keystroke_n	n	n/a
218.8595	0.1195	437719	keystroke_g	g	n/a
218.949	0.105	437898	keystroke_Key.space	Key.space	n/a
219.0995	0.1195	438199	keystroke_s	s	n/a
219.1895	0.0745	438379	keystroke_i	i	n/a
219.264	0.135	438528	keystroke_g	g	n/a
219.3545	0.1045	438709	keystroke_n	n	n/a
219.445	0.104	438890	keystroke_Key.space	Key.space	n/a
219.565	0.059	439130	keystroke_m	m	n/a
219.6395	0.1345	439279	keystroke_a	a	n/a
219.745	0.059	439490	keystroke_l	l	n/a
219.8795	0.0445	439759	keystroke_l	l	n/a
220.0145	0.0745	440029	keystroke_Key.enter	Key.enter	n/a
220.1005	4.356	440201	prompt	n/a	meyer gear adobe helen\n
220.8695	0.0895	441739	keystroke_m	m	n/a
220.9745	0.0895	441949	keystroke_e	e	n/a
221.0945	0.0745	442189	keystroke_y	y	n/a
221.1845	0.0895	442369	keystroke_e	e	n/a
221.2445	0.1195	442489	keystroke_r	r	n/a
221.3345	0.0895	442669	keystroke_Key.space	Key.space	n/a
221.4395	0.105	442879	keystroke_g	g	n/a
221.5295	0.1645	443059	keystroke_e	e	n/a
221.6795	0.1345	443359	keystroke_a	a	n/a
221.7395	0.1345	443479	keystroke_r	r	n/a
221.8595	0.0895	443719	keystroke_Key.space	Key.space	n/a
222.0245	0.0745	444049	keystroke_a	a	n/a
222.0845	0.105	444169	keystroke_d	d	n/a
222.2795	0.0895	444559	keystroke_o	o	n/a
222.4295	0.0895	444859	keystroke_b	b	n/a
222.5795	0.0895	445159	keystroke_e	e	n/a
222.6695	0.0745	445339	keystroke_Key.space	Key.space	n/a
222.774	0.075	445548	keystroke_h	h	n/a
222.8345	0.1195	445669	keystroke_e	e	n/a
222.9695	0.1045	445939	keystroke_l	l	n/a
223.5545	0.1045	447109	keystroke_e	e	n/a
223.6145	0.0595	447229	keystroke_n	n	n/a
224.3795	0.075	448759	keystroke_Key.enter	Key.enter	n/a
224.466	4.1	448932	prompt	n/a	hands salvation forests alternative\n
225.1595	0.0895	450319	keystroke_h	h	n/a
225.2495	0.1045	450499	keystroke_a	a	n/a
225.3395	0.09	450679	keystroke_n	n	n/a
225.3995	0.1645	450799	keystroke_d	d	n/a
225.5045	0.1195	451009	keystroke_s	s	n/a
225.58	0.104	451160	keystroke_Key.space	Key.space	n/a
225.7145	0.1195	451429	keystroke_s	s	n/a
225.8645	0.1495	451729	keystroke_a	a	n/a
225.9995	0.0745	451999	keystroke_l	l	n/a
226.089	0.0905	452178	keystroke_v	v	n/a
226.1795	0.1495	452359	keystroke_a	a	n/a
226.2995	0.1195	452599	keystroke_t	t	n/a
226.4045	0.1495	452809	keystroke_i	i	n/a
226.4495	0.12	452899	keystroke_o	o	n/a
226.5095	0.135	453019	keystroke_n	n	n/a
226.63	0.074	453260	keystroke_Key.space	Key.space	n/a
226.6895	0.0745	453379	keystroke_f	f	n/a
226.7645	0.0745	453529	keystroke_o	o	n/a
226.8545	0.1495	453709	keystroke_r	r	n/a
226.9295	0.18	453859	keystroke_e	e	n/a
226.9745	0.1495	453949	keystroke_s	s	n/a
227.11	0.119	454220	keystroke_t	t	n/a
227.2145	0.0895	454429	keystroke_s	s	n/a
227.2895	0.12	454579	keystroke_Key.space	Key.space	n/a
227.395	0.119	454790	keystroke_a	a	n/a
227.4845	0.0895	454969	keystroke_l	l	n/a
227.56	0.119	455120	keystroke_t	t	n/a
227.6945	0.1045	455389	keystroke_e	e	n/a
227.7695	0.1345	455539	keystroke_r	r	n/a
227.86	0.104	455720	keystroke_n	n	n/a
227.9495	0.1345	455899	keystroke_a	a	n/a
228.01	0.119	456020	keystroke_t	t	n/a
228.145	0.089	456290	keystroke_i	i	n/a
228.2495	0.0895	456499	keystroke_v	v	n/a
228.31	0.119	456620	keystroke_e	e	n/a
228.4745	0.0895	456949	keystroke_Key.enter	Key.enter	n/a
228.5735	5.3325	457147	prompt	n/a	preston attached article regardless\n
229.1645	0.105	458329	keystroke_p	p	n/a
229.2845	0.0595	458569	keystroke_e	e	n/a
229.5995	0.09	459199	keystroke_Key.backspace	Key.backspace	n/a
229.9145	0.15	459829	keystroke_r	r	n/a
229.989	0.1655	459978	keystroke_e	e	n/a
230.0955	0.1335	460191	keystroke_s	s	n/a
230.2145	0.1195	460429	keystroke_t	t	n/a
230.3195	0.1045	460639	keystroke_o	o	n/a
230.3645	0.12	460729	keystroke_n	n	n/a
230.469	0.105	460938	keystroke_Key.space	Key.space	n/a
230.6645	0.0745	461329	keystroke_a	a	n/a
230.724	0.06	461448	keystroke_t	t	n/a
230.8445	0.1195	461689	keystroke_t	t	n/a
230.9495	0.0595	461899	keystroke_a	a	n/a
231.1145	0.0595	462229	keystroke_c	c	n/a
231.16	0.089	462320	keystroke_h	h	n/a
231.2645	0.0595	462529	keystroke_e	e	n/a
231.4145	0.0895	462829	keystroke_d	d	n/a
231.5195	0.0445	463039	keystroke_Key.space	Key.space	n/a
231.5495	0.1345	463099	keystroke_a	a	n/a
231.8045	0.0745	463609	keystroke_r	r	n/a
231.9695	0.0745	463939	keystroke_t	t	n/a
232.0745	0.1045	464149	keystroke_i	i	n/a
232.1495	0.0895	464299	keystroke_c	c	n/a
232.2845	0.1045	464569	keystroke_l	l	n/a
232.345	0.119	464690	keystroke_e	e	n/a
232.4795	0.0745	464959	keystroke_Key.space	Key.space	n/a
232.5695	0.1495	465139	keystroke_r	r	n/a
232.6745	0.09	465349	keystroke_e	e	n/a
232.839	0.1055	465678	keystroke_g	g	n/a
232.974	0.12	465948	keystroke_a	a	n/a
233.05	0.104	466100	keystroke_r	r	n/a
233.1845	0.1045	466369	keystroke_d	d	n/a
233.3045	0.0595	466609	keystroke_l	l	n/a
233.3945	0.0895	466789	keystroke_e	e	n/a
233.4995	0.075	466999	keystroke_s	s	n/a
233.6495	0.0745	467299	keystroke_s	s	n/a
233.8145	0.0895	467629	keystroke_Key.enter	Key.enter	n/a
233.9135	4.4775	467827	prompt	n/a	frankfurt filtering radar trans\n
234.4745	0.0745	468949	keystroke_f	f	n/a
234.6395	0.0745	469279	keystroke_r	r	n/a
234.6995	0.1195	469399	keystroke_a	a	n/a
234.7745	0.1045	469549	keystroke_n	n	n/a
234.8645	0.1045	469729	keystroke_k	k	n/a
234.9545	0.0895	469909	keystroke_f	f	n/a
235.0895	0.075	470179	keystroke_u	u	n/a
235.1205	0.0735	470241	keystroke_r	r	n/a
235.2695	0.1045	470539	keystroke_t	t	n/a
235.3595	0.0595	470719	keystroke_Key.space	Key.space	n/a
235.4795	0.0895	470959	keystroke_f	f	n/a
235.5845	0.1645	471169	keystroke_i	i	n/a
235.6895	0.1345	471379	keystroke_l	l	n/a
235.7795	0.0895	471559	keystroke_t	t	n/a
235.8995	0.0895	471799	keystroke_e	e	n/a
235.9595	0.1045	471919	keystroke_r	r	n/a
236.0495	0.1045	472099	keystroke_i	i	n/a
236.0945	0.1045	472189	keystroke_n	n	n/a
236.1845	0.1045	472369	keystroke_g	g	n/a
236.274	0.075	472548	keystroke_Key.space	Key.space	n/a
236.3945	0.1345	472789	keystroke_r	r	n/a
236.499	0.105	472998	keystroke_a	a	n/a
236.6345	0.0895	473269	keystroke_d	d	n/a
236.8145	0.1045	473629	keystroke_a	a	n/a
236.9645	0.1045	473929	keystroke_r	r	n/a
237.115	0.074	474230	keystroke_Key.space	Key.space	n/a
237.339	0.075	474678	keystroke_t	t	n/a
237.4755	0.1185	474951	keystroke_r	r	n/a
237.5645	0.1045	475129	keystroke_a	a	n/a
237.6995	0.0445	475399	keystroke_n	n	n/a
237.7295	0.0895	475459	keystroke_s	s	n/a
238.2995	0.0895	476599	keystroke_Key.enter	Key.enter	n/a
238.399	5.887	476798	prompt	n/a	bedroom israeli introduce criterion\n
239.1395	0.0445	478279	keystroke_b	b	n/a
239.26	0.089	478520	keystroke_e	e	n/a
239.6645	0.0745	479329	keystroke_Key.backspace	Key.backspace	n/a
240.1005	0.0885	480201	keystroke_e	e	n/a
240.3095	0.0745	480619	keystroke_d	d	n/a
240.4745	0.1195	480949	keystroke_r	r	n/a
240.5795	0.0595	481159	keystroke_o	o	n/a
240.7295	0.0895	481459	keystroke_o	o	n/a
240.7595	0.1045	481519	keystroke_m	m	n/a
240.8795	0.0895	481759	keystroke_Key.space	Key.space	n/a
240.9845	0.1045	481969	keystroke_i	i	n/a
241.1045	0.0895	482209	keystroke_s	s	n/a
241.181	0.1185	482362	keystroke_r	r	n/a
241.2695	0.1345	482539	keystroke_a	a	n/a
241.3595	0.1045	482719	keystroke_e	e	n/a
241.449	0.105	482898	keystroke_l	l	n/a
241.5095	0.1045	483019	keystroke_i	i	n/a
241.675	0.059	483350	keystroke_Key.space	Key.space	n/a
242.1545	0.1195	484309	keystroke_i	i	n/a
242.2145	0.1195	484429	keystroke_n	n	n/a
242.2595	0.0895	484519	keystroke_t	t	n/a
242.4245	0.0745	484849	keystroke_r	r	n/a
242.515	0.089	485030	keystroke_o	o	n/a
242.6045	0.075	485209	keystroke_d	d	n/a
242.694	0.075	485388	keystroke_u	u	n/a
242.7545	0.0745	485509	keystroke_c	c	n/a
242.9195	0.0895	485839	keystroke_e	e	n/a
242.9945	0.0895	485989	keystroke_Key.space	Key.space	n/a
243.1295	0.0745	486259	keystroke_c	c	n/a
243.2945	0.1195	486589	keystroke_r	r	n/a
243.4295	0.0745	486859	keystroke_i	i	n/a
243.4895	0.0745	486979	keystroke_t	t	n/a
243.594	0.1205	487188	keystroke_e	e	n/a
243.6545	0.1195	487309	keystroke_r	r	n/a
243.7295	0.2095	487459	keystroke_i	i	n/a
243.804	0.15	487608	keystroke_o	o	n/a
243.8945	0.1345	487789	keystroke_n	n	n/a
244.2095	0.0745	488419	keystroke_Key.enter	Key.enter	n/a
244.294	3.922	488588	prompt	n/a	director apartment kind thus\n
244.989	0.06	489978	keystroke_d	d	n/a
245.0645	0.0895	490129	keystroke_i	i	n/a
245.139	0.135	490278	keystroke_r	r	n/a
245.2295	0.0745	490459	keystroke_e	e	n/a
245.4395	0.0445	490879	keystroke_c	c	n/a
245.56	0.104	491120	keystroke_t	t	n/a
245.6795	0.0895	491359	keystroke_o	o	n/a
245.7395	0.1195	491479	keystroke_r	r	n/a
245.8745	0.0895	491749	keystroke_y	y	n/a
245.9795	0.0895	491959	keystroke_Key.space	Key.space	n/a
246.054	0.165	492108	keystroke_a	a	n/a
246.2345	0.1045	492469	keystroke_p	p	n/a
246.369	0.15	492738	keystroke_a	a	n/a
246.4595	0.12	492919	keystroke_r	r	n/a
246.6395	0.1195	493279	keystroke_t	t	n/a
246.775	0.089	493550	keystroke_m	m	n/a
246.8645	0.1045	493729	keystroke_e	e	n/a
246.954	0.09	493908	keystroke_n	n	n/a
247.0145	0.1195	494029	keystroke_t	t	n/a
247.104	0.09	494208	keystroke_Key.space	Key.space	n/a
247.1645	0.0745	494329	keystroke_k	k	n/a
247.3445	0.1045	494689	keystroke_i	i	n/a
247.404	0.105	494808	keystroke_n	n	n/a
247.5095	0.1045	495019	keystroke_d	d	n/a
247.599	0.06	495198	keystroke_Key.space	Key.space	n/a
247.689	0.105	495378	keystroke_t	t	n/a
247.7495	0.0595	495499	keystroke_h	h	n/a
247.8995	0.0745	495799	keystroke_u	u	n/a
247.989	0.105	495978	keystroke_s	s	n/a
248.1245	0.0895	496249	keystroke_Key.enter	Key.enter	n/a
248.223	3.519	496446	prompt	n/a	discounts nested despite jets\n
248.7995	0.09	497599	keystroke_d	d	n/a
248.904	0.075	497808	keystroke_i	i	n/a
248.9795	0.0745	497959	keystroke_s	s	n/a
249.1445	0.0745	498289	keystroke_c	c	n/a
249.19	0.104	498380	keystroke_o	o	n/a
249.2495	0.1045	498499	keystroke_u	u	n/a
249.4445	0.0895	498889	keystroke_n	n	n/a
249.5495	0.1045	499099	keystroke_t	t	n/a
249.6095	0.12	499219	keystroke_s	s	n/a
249.6995	0.09	499399	keystroke_Key.space	Key.space	n/a
249.775	0.104	499550	keystroke_n	n	n/a
249.8645	0.075	499729	keystroke_e	e	n/a
249.999	0.165	499998	keystroke_s	s	n/a
250.1345	0.1195	500269	keystroke_t	t	n/a
250.2095	0.1045	500419	keystroke_e	e	n/a
250.39	0.104	500780	keystroke_d	d	n/a
250.48	0.074	500960	keystroke_Key.space	Key.space	n/a
250.5995	0.06	501199	keystroke_d	d	n/a
250.7645	0.06	501529	keystroke_e	e	n/a
250.8095	0.1495	501619	keystroke_s	s	n/a
250.899	0.12	501798	keystroke_p	p	n/a
250.99	0.089	501980	keystroke_i	i	n/a
251.0645	0.1195	502129	keystroke_t	t	n/a
251.1245	0.105	502249	keystroke_e	e	n/a
251.2145	0.0895	502429	keystroke_Key.space	Key.space	n/a
251.304	0.09	502608	keystroke_j	j	n/a
251.38	0.104	502760	keystroke_e	e	n/a
251.454	0.105	502908	keystroke_t	t	n/a
251.5445	0.1045	503089	keystroke_s	s	n/a
251.6645	0.0745	503329	keystroke_Key.enter	Key.enter	n/a
251.75	4.386	503500	prompt	n/a	amsterdam respondents matters clusters\n
252.31	0.134	504620	keystroke_a	a	n/a
252.504	0.075	505008	keystroke_m	m	n/a
252.625	0.104	505250	keystroke_s	s	n/a
252.7145	0.1045	505429	keystroke_t	t	n/a
252.8345	0.1195	505669	keystroke_e	e	n/a
252.9095	0.1045	505819	keystroke_r	r	n/a
253.075	0.104	506150	keystroke_d	d	n/a
253.164	0.165	506328	keystroke_a	a	n/a
253.2695	0.0895	506539	keystroke_m	m	n/a
253.4045	0.0595	506809	keystroke_Key.space	Key.space	n/a
253.4795	0.15	506959	keystroke_r	r	n/a
253.5695	0.1045	507139	keystroke_e	e	n/a
253.6445	0.1195	507289	keystroke_s	s	n/a
253.749	0.09	507498	keystroke_p	p	n/a
253.7945	0.1495	507589	keystroke_o	o	n/a
253.869	0.15	507738	keystroke_n	n	n/a
254.004	0.045	508008	keystroke_d	d	n/a
254.1245	0.1045	508249	keystroke_e	e	n/a
254.1845	0.0895	508369	keystroke_n	n	n/a
254.2895	0.1195	508579	keystroke_t	t	n/a
254.3645	0.1345	508729	keystroke_s	s	n/a
254.4545	0.0895	508909	keystroke_Key.space	Key.space	n/a
254.5295	0.0895	509059	keystroke_m	m	n/a
254.604	0.105	509208	keystroke_a	a	n/a
254.6945	0.0745	509389	keystroke_t	t	n/a
254.83	0.089	509660	keystroke_t	t	n/a
254.9495	0.1045	509899	keystroke_e	e	n/a
255.009	0.12	510018	keystroke_r	r	n/a
255.069	0.12	510138	keystroke_s	s	n/a
255.1745	0.0895	510349	keystroke_Key.space	Key.space	n/a
255.2945	0.0895	510589	keystroke_c	c	n/a
255.369	0.105	510738	keystroke_l	l	n/a
255.4295	0.1045	510859	keystroke_u	u	n/a
255.549	0.0905	511098	keystroke_s	s	n/a
255.625	0.104	511250	keystroke_t	t	n/a
255.7295	0.1415	511459	keystroke_e	e	n/a
255.8195	0.105	511639	keystroke_r	r	n/a
255.8945	0.1045	511789	keystroke_s	s	n/a
256.0445	0.0895	512089	keystroke_Key.enter	Key.enter	n/a
256.15	4.126	512300	prompt	n/a	vary who'll ultram concentration\n
256.84	0.089	513680	keystroke_v	v	n/a
256.9445	0.165	513889	keystroke_a	a	n/a
257.0345	0.1645	514069	keystroke_r	r	n/a
257.14	0.104	514280	keystroke_y	y	n/a
257.2295	0.0595	514459	keystroke_Key.space	Key.space	n/a
257.3045	0.0895	514609	keystroke_w	w	n/a
257.3495	0.1045	514699	keystroke_h	h	n/a
257.4395	0.0745	514879	keystroke_o	o	n/a
257.5745	0.0895	515149	keystroke_'	'	n/a
257.74	0.081	515480	keystroke_l	l	n/a
257.8895	0.0745	515779	keystroke_l	l	n/a
258.0995	0.0745	516199	keystroke_Key.space	Key.space	n/a
258.1895	0.0895	516379	keystroke_u	u	n/a
258.2945	0.1045	516589	keystroke_l	l	n/a
258.3845	0.0895	516769	keystroke_t	t	n/a
258.5495	0.1045	517099	keystroke_r	r	n/a
258.609	0.15	517218	keystroke_a	a	n/a
258.6695	0.1045	517339	keystroke_m	m	n/a
258.79	0.074	517580	keystroke_Key.space	Key.space	n/a
258.9095	0.0895	517819	keystroke_c	c	n/a
258.9995	0.0895	517999	keystroke_o	o	n/a
259.0445	0.1045	518089	keystroke_n	n	n/a
259.1195	0.0895	518239	keystroke_c	c	n/a
259.284	0.0755	518568	keystroke_e	e	n/a
259.3745	0.0745	518749	keystroke_n	n	n/a
259.4495	0.0595	518899	keystroke_t	t	n/a
259.599	0.09	519198	keystroke_r	r	n/a
259.6445	0.1495	519289	keystroke_a	a	n/a
259.749	0.135	519498	keystroke_t	t	n/a
259.855	0.164	519710	keystroke_i	i	n/a
259.9295	0.1195	519859	keystroke_o	o	n/a
259.9895	0.0895	519979	keystroke_n	n	n/a
260.1995	0.0745	520399	keystroke_Key.enter	Key.enter	n/a
260.2835	3.8025	520567	prompt	n/a	clean ethernet gregory usual\n
261.0695	0.0895	522139	keystroke_c	c	n/a
261.19	0.119	522380	keystroke_l	l	n/a
261.2795	0.1195	522559	keystroke_e	e	n/a
261.3695	0.1945	522739	keystroke_a	a	n/a
261.459	0.1055	522918	keystroke_n	n	n/a
261.5795	0.0745	523159	keystroke_Key.space	Key.space	n/a
261.684	0.105	523368	keystroke_e	e	n/a
261.819	0.105	523638	keystroke_t	t	n/a
261.94	0.089	523880	keystroke_h	h	n/a
262.0145	0.1045	524029	keystroke_e	e	n/a
262.0895	0.1495	524179	keystroke_r	r	n/a
262.225	0.074	524450	keystroke_n	n	n/a
262.2845	0.1345	524569	keystroke_e	e	n/a
262.374	0.1355	524748	keystroke_t	t	n/a
262.4795	0.0595	524959	keystroke_Key.space	Key.space	n/a
262.6145	0.0745	525229	keystroke_g	g	n/a
262.8115	0.1325	525623	keystroke_r	r	n/a
262.9145	0.0895	525829	keystroke_e	e	n/a
263.0345	0.0895	526069	keystroke_g	g	n/a
263.1245	0.075	526249	keystroke_o	o	n/a
263.2145	0.1195	526429	keystroke_r	r	n/a
263.3045	0.0895	526609	keystroke_y	y	n/a
263.3945	0.0895	526789	keystroke_Key.space	Key.space	n/a
263.4995	0.0745	526999	keystroke_u	u	n/a
263.5895	0.0895	527179	keystroke_s	s	n/a
263.649	0.09	527298	keystroke_u	u	n/a
263.769	0.105	527538	keystroke_a	a	n/a
263.8295	0.06	527659	keystroke_l	l	n/a
264.01	0.074	528020	keystroke_Key.enter	Key.enter	n/a
264.0945	3.982	528189	prompt	n/a	managers orders cruises scheme\n
264.729	0.0755	529458	keystroke_m	m	n/a
264.805	0.104	529610	keystroke_a	a	n/a
264.8945	0.0895	529789	keystroke_n	n	n/a
264.9845	0.1045	529969	keystroke_a	a	n/a
265.074	0.09	530148	keystroke_g	g	n/a
265.2095	0.1195	530419	keystroke_e	e	n/a
265.284	0.135	530568	keystroke_r	r	n/a
265.3595	0.135	530719	keystroke_s	s	n/a
265.4645	0.1045	530929	keystroke_Key.space	Key.space	n/a
265.659	0.09	531318	keystroke_o	o	n/a
265.7345	0.1195	531469	keystroke_r	r	n/a
265.869	0.075	531738	keystroke_d	d	n/a
266.0045	0.1045	532009	keystroke_e	e	n/a
266.0645	0.1495	532129	keystroke_r	r	n/a
266.169	0.105	532338	keystroke_s	s	n/a
266.2595	0.075	532519	keystroke_Key.space	Key.space	n/a
266.3945	0.0745	532789	keystroke_c	c	n/a
266.5595	0.1195	533119	keystroke_r	r	n/a
266.634	0.075	533268	keystroke_u	u	n/a
266.7845	0.0745	533569	keystroke_i	i	n/a
266.859	0.1205	533718	keystroke_s	s	n/a
266.964	0.0905	533928	keystroke_e	e	n/a
267.0845	0.1045	534169	keystroke_s	s	n/a
267.1745	0.0745	534349	keystroke_Key.space	Key.space	n/a
267.294	0.06	534588	keystroke_s	s	n/a
267.4445	0.0745	534889	keystroke_c	c	n/a
267.534	0.09	535068	keystroke_h	h	n/a
267.6395	0.0745	535279	keystroke_e	e	n/a
267.7595	0.0745	535519	keystroke_m	m	n/a
267.8195	0.1045	535639	keystroke_e	e	n/a
268.0145	0.0595	536029	keystroke_Key.enter	Key.enter	n/a
268.084	2.947	536168	prompt	n/a	chocolate maiden mile yoga\n
268.7045	0.0895	537409	keystroke_c	c	n/a
268.7945	0.0895	537589	keystroke_h	h	n/a
268.8545	0.1045	537709	keystroke_o	o	n/a
268.9745	0.0895	537949	keystroke_c	c	n/a
269.0495	0.0745	538099	keystroke_o	o	n/a
269.2145	0.0745	538429	keystroke_l	l	n/a
269.275	0.104	538550	keystroke_a	a	n/a
269.32	0.119	538640	keystroke_t	t	n/a
269.379	0.12	538758	keystroke_e	e	n/a
269.47	0.089	538940	keystroke_Key.space	Key.space	n/a
269.5145	0.0895	539029	keystroke_m	m	n/a
269.6345	0.135	539269	keystroke_a	a	n/a
269.7395	0.1045	539479	keystroke_i	i	n/a
269.8145	0.0745	539629	keystroke_d	d	n/a
269.9495	0.1645	539899	keystroke_e	e	n/a
270.0245	0.0745	540049	keystroke_n	n	n/a
270.1295	0.1045	540259	keystroke_Key.space	Key.space	n/a
270.22	0.119	540440	keystroke_m	m	n/a
270.3095	0.1495	540619	keystroke_i	i	n/a
270.3845	0.1195	540769	keystroke_l	l	n/a
270.4895	0.105	540979	keystroke_e	e	n/a
270.5645	0.0745	541129	keystroke_Key.space	Key.space	n/a
270.6095	0.0895	541219	keystroke_y	y	n/a
270.684	0.1055	541368	keystroke_o	o	n/a
270.805	0.074	541610	keystroke_g	g	n/a
270.8495	0.1195	541699	keystroke_a	a	n/a
270.955	0.074	541910	keystroke_Key.enter	Key.enter	n/a
271.04	5.918	542080	prompt	n/a	verified measuring comparison outcomes\n
271.8095	0.0745	543619	keystroke_v	v	n/a
271.9445	0.1045	543889	keystroke_e	e	n/a
272.0045	0.1045	544009	keystroke_r	r	n/a
272.1395	0.0895	544279	keystroke_i	i	n/a
272.1995	0.1195	544399	keystroke_f	f	n/a
272.3345	0.0745	544669	keystroke_i	i	n/a
272.3945	0.0745	544789	keystroke_e	e	n/a
272.5295	0.1195	545059	keystroke_d	d	n/a
272.6345	0.0745	545269	keystroke_Key.space	Key.space	n/a
272.6795	0.1045	545359	keystroke_m	m	n/a
272.8145	0.0745	545629	keystroke_e	e	n/a
272.8745	0.1195	545749	keystroke_a	a	n/a
272.9645	0.1195	545929	keystroke_s	s	n/a
273.0395	0.1045	546079	keystroke_u	u	n/a
273.19	0.119	546380	keystroke_g	g	n/a
273.279	0.135	546558	keystroke_i	i	n/a
273.3395	0.12	546679	keystroke_n	n	n/a
273.7295	0.0595	547459	keystroke_Key.backspace	Key.backspace	n/a
273.8945	0.0595	547789	keystroke_Key.backspace	Key.backspace	n/a
274.059	0.075	548118	keystroke_Key.backspace	Key.backspace	n/a
274.1945	0.1345	548389	keystroke_r	r	n/a
274.315	0.104	548630	keystroke_i	i	n/a
274.3595	0.1345	548719	keystroke_n	n	n/a
274.4345	0.1045	548869	keystroke_g	g	n/a
274.5095	0.0745	549019	keystroke_Key.space	Key.space	n/a
274.6295	0.09	549259	keystroke_c	c	n/a
274.7045	0.0895	549409	keystroke_o	o	n/a
274.7495	0.1195	549499	keystroke_m	m	n/a
274.8545	0.1045	549709	keystroke_p	p	n/a
275.005	0.119	550010	keystroke_r	r	n/a
275.3645	0.0745	550729	keystroke_Key.backspace	Key.backspace	n/a
275.47	0.179	550940	keystroke_a	a	n/a
275.574	0.1205	551148	keystroke_r	r	n/a
275.664	0.09	551328	keystroke_i	i	n/a
275.7695	0.15	551539	keystroke_s	s	n/a
275.8445	0.1045	551689	keystroke_o	o	n/a
275.8895	0.1195	551779	keystroke_n	n	n/a
275.9945	0.0895	551989	keystroke_Key.space	Key.space	n/a
276.0995	0.0895	552199	keystroke_o	o	n/a
276.145	0.089	552290	keystroke_u	u	n/a
276.2045	0.0895	552409	keystroke_t	t	n/a
276.399	0.09	552798	keystroke_c	c	n/a
276.4895	0.0595	552979	keystroke_o	o	n/a
276.52	0.104	553040	keystroke_m	m	n/a
276.6245	0.1345	553249	keystroke_e	e	n/a
276.714	0.105	553428	keystroke_s	s	n/a
276.8795	0.075	553759	keystroke_Key.enter	Key.enter	n/a
276.9665	3.621	553933	prompt	n/a	crude boards phase afford\n
277.6295	0.09	555259	keystroke_c	c	n/a
277.8095	0.0895	555619	keystroke_r	r	n/a
277.8845	0.0745	555769	keystroke_u	u	n/a
277.9745	0.0595	555949	keystroke_d	d	n/a
278.0945	0.1045	556189	keystroke_e	e	n/a
278.17	0.104	556340	keystroke_Key.space	Key.space	n/a
278.3195	0.0895	556639	keystroke_b	b	n/a
278.4395	0.0745	556879	keystroke_o	o	n/a
278.5295	0.1195	557059	keystroke_a	a	n/a
278.5895	0.135	557179	keystroke_r	r	n/a
278.6945	0.1645	557389	keystroke_d	d	n/a
278.784	0.1205	557568	keystroke_s	s	n/a
278.8595	0.0895	557719	keystroke_Key.space	Key.space	n/a
278.9645	0.12	557929	keystroke_p	p	n/a
279.0095	0.1045	558019	keystroke_h	h	n/a
279.0995	0.1495	558199	keystroke_a	a	n/a
279.19	0.209	558380	keystroke_s	s	n/a
279.3095	0.105	558619	keystroke_e	e	n/a
279.7295	0.09	559459	keystroke_Key.space	Key.space	n/a
279.8795	0.105	559759	keystroke_a	a	n/a
279.97	0.059	559940	keystroke_f	f	n/a
280.0895	0.0895	560179	keystroke_f	f	n/a
280.1945	0.09	560389	keystroke_o	o	n/a
280.27	0.089	560540	keystroke_r	r	n/a
280.4045	0.105	560809	keystroke_d	d	n/a
280.5245	0.06	561049	keystroke_Key.enter	Key.enter	n/a
280.599	3.7225	561198	prompt	n/a	engagement public ricky mixer\n
281.275	0.104	562550	keystroke_e	e	n/a
281.3795	0.0895	562759	keystroke_n	n	n/a
281.47	0.089	562940	keystroke_g	g	n/a
281.5895	0.12	563179	keystroke_a	a	n/a
281.6945	0.075	563389	keystroke_g	g	n/a
281.7845	0.1045	563569	keystroke_e	e	n/a
281.8745	0.0895	563749	keystroke_m	m	n/a
281.9795	0.1045	563959	keystroke_e	e	n/a
282.055	0.089	564110	keystroke_n	n	n/a
282.1295	0.105	564259	keystroke_t	t	n/a
282.1895	0.1195	564379	keystroke_Key.space	Key.space	n/a
282.2945	0.0895	564589	keystroke_p	p	n/a
282.3545	0.1045	564709	keystroke_u	u	n/a
282.4445	0.0895	564889	keystroke_b	b	n/a
282.549	0.1055	565098	keystroke_l	l	n/a
282.6095	0.1045	565219	keystroke_i	i	n/a
282.655	0.104	565310	keystroke_c	c	n/a
282.7445	0.0595	565489	keystroke_Key.space	Key.space	n/a
282.8795	0.1045	565759	keystroke_r	r	n/a
282.9995	0.0595	565999	keystroke_i	i	n/a
283.1045	0.0895	566209	keystroke_c	c	n/a
283.1795	0.0895	566359	keystroke_k	k	n/a
283.3145	0.1045	566629	keystroke_y	y	n/a
283.435	0.089	566870	keystroke_Key.space	Key.space	n/a
283.5545	0.1345	567109	keystroke_m	m	n/a
283.6445	0.1195	567289	keystroke_i	i	n/a
283.7045	0.0745	567409	keystroke_x	x	n/a
283.885	0.134	567770	keystroke_e	e	n/a
283.9745	0.1195	567949	keystroke_r	r	n/a
284.2595	0.0595	568519	keystroke_Key.enter	Key.enter	n/a
284.331	3.711	568662	prompt	n/a	apache thus sized andorra\n
284.8745	0.1195	569749	keystroke_a	a	n/a
284.9795	0.1045	569959	keystroke_p	p	n/a
285.0695	0.0745	570139	keystroke_a	a	n/a
285.2045	0.0895	570409	keystroke_c	c	n/a
285.325	0.089	570650	keystroke_h	h	n/a
285.4295	0.0905	570859	keystroke_e	e	n/a
285.535	0.0745	571070	keystroke_Key.space	Key.space	n/a
285.5945	0.1195	571189	keystroke_t	t	n/a
285.6545	0.075	571309	keystroke_h	h	n/a
285.805	0.104	571610	keystroke_u	u	n/a
285.8645	0.0745	571729	keystroke_s	s	n/a
285.9245	0.0895	571849	keystroke_Key.space	Key.space	n/a
286.06	0.074	572120	keystroke_s	s	n/a
286.1495	0.09	572299	keystroke_i	i	n/a
286.3745	0.0295	572749	keystroke_e	e	n/a
286.6895	0.0895	573379	keystroke_Key.backspace	Key.backspace	n/a
286.7945	0.135	573589	keystroke_z	z	n/a
286.885	0.089	573770	keystroke_e	e	n/a
287.049	0.1055	574098	keystroke_d	d	n/a
287.1395	0.075	574279	keystroke_Key.space	Key.space	n/a
287.2445	0.1195	574489	keystroke_a	a	n/a
287.3045	0.0895	574609	keystroke_n	n	n/a
287.4095	0.105	574819	keystroke_d	d	n/a
287.53	0.059	575060	keystroke_o	o	n/a
287.6045	0.0445	575209	keystroke_r	r	n/a
287.7245	0.1045	575449	keystroke_r	r	n/a
287.785	0.1345	575570	keystroke_a	a	n/a
287.9795	0.06	575959	keystroke_Key.enter	Key.enter	n/a
288.05	3.502	576100	prompt	n/a	different master resources moves\n
288.6095	0.0895	577219	keystroke_d	d	n/a
288.7145	0.0745	577429	keystroke_i	i	n/a
288.8045	0.0595	577609	keystroke_f	f	n/a
288.94	0.0745	577880	keystroke_f	f	n/a
289.0445	0.1045	578089	keystroke_e	e	n/a
289.1195	0.1495	578239	keystroke_r	r	n/a
289.2245	0.1045	578449	keystroke_e	e	n/a
289.3295	0.09	578659	keystroke_n	n	n/a
289.3895	0.1345	578779	keystroke_t	t	n/a
289.4795	0.105	578959	keystroke_Key.space	Key.space	n/a
289.57	0.089	579140	keystroke_m	m	n/a
289.6445	0.15	579289	keystroke_a	a	n/a
289.735	0.104	579470	keystroke_s	s	n/a
289.8095	0.1195	579619	keystroke_t	t	n/a
289.9295	0.12	579859	keystroke_e	e	n/a
290.0045	0.1045	580009	keystroke_r	r	n/a
290.0795	0.0895	580159	keystroke_Key.space	Key.space	n/a
290.2	0.135	580400	keystroke_r	r	n/a
290.2745	0.1345	580549	keystroke_e	e	n/a
290.365	0.1345	580730	keystroke_s	s	n/a
290.4695	0.1045	580939	keystroke_o	o	n/a
290.5145	0.12	581029	keystroke_u	u	n/a
290.5895	0.0745	581179	keystroke_r	r	n/a
290.74	0.074	581480	keystroke_c	c	n/a
290.8895	0.1195	581779	keystroke_e	e	n/a
290.95	0.1495	581900	keystroke_s	s	n/a
291.0395	0.1045	582079	keystroke_Key.space	Key.space	n/a
291.1005	0.0885	582201	keystroke_m	m	n/a
291.1595	0.09	582319	keystroke_o	o	n/a
291.235	0.1045	582470	keystroke_v	v	n/a
291.2795	0.15	582559	keystroke_e	e	n/a
291.4145	0.0745	582829	keystroke_s	s	n/a
291.4745	0.075	582949	keystroke_Key.enter	Key.enter	n/a
291.56	4.0115	583120	prompt	n/a	distribute enclosed wake ours\n
292.1195	0.1045	584239	keystroke_d	d	n/a
292.2395	0.0895	584479	keystroke_i	i	n/a
292.3595	0.075	584719	keystroke_s	s	n/a
292.4195	0.0895	584839	keystroke_t	t	n/a
292.5695	0.1045	585139	keystroke_r	r	n/a
292.6595	0.0895	585319	keystroke_i	i	n/a
292.7645	0.1045	585529	keystroke_b	b	n/a
292.8395	0.0895	585679	keystroke_u	u	n/a
292.945	0.119	585890	keystroke_t	t	n/a
293.0195	0.1045	586039	keystroke_e	e	n/a
293.1095	0.0745	586219	keystroke_Key.space	Key.space	n/a
293.1995	0.0745	586399	keystroke_e	e	n/a
293.29	0.089	586580	keystroke_n	n	n/a
293.3945	0.1045	586789	keystroke_c	c	n/a
293.5	0.059	587000	keystroke_l	l	n/a
293.6495	0.0745	587299	keystroke_o	o	n/a
293.7095	0.1045	587419	keystroke_s	s	n/a
293.755	0.104	587510	keystroke_e	e	n/a
293.9195	0.1045	587839	keystroke_d	d	n/a
294.0245	0.1045	588049	keystroke_Key.space	Key.space	n/a
294.1445	0.12	588289	keystroke_w	w	n/a
294.2495	0.1345	588499	keystroke_a	a	n/a
294.2795	0.09	588559	keystroke_k	k	n/a
294.7445	0.0745	589489	keystroke_e	e	n/a
294.8645	0.0895	589729	keystroke_Key.space	Key.space	n/a
295.0145	0.1045	590029	keystroke_o	o	n/a
295.0595	0.0895	590119	keystroke_u	u	n/a
295.1345	0.105	590269	keystroke_r	r	n/a
295.1945	0.1195	590389	keystroke_s	s	n/a
295.4945	0.0745	590989	keystroke_Key.enter	Key.enter	n/a
295.581	3.395	591162	prompt	n/a	typing creations drink grove\n
296.1395	0.1045	592279	keystroke_t	t	n/a
296.2595	0.1045	592519	keystroke_y	y	n/a
296.35	0.119	592700	keystroke_p	p	n/a
296.4545	0.1195	592909	keystroke_i	i	n/a
296.5145	0.1195	593029	keystroke_n	n	n/a
296.6045	0.1045	593209	keystroke_g	g	n/a
296.6795	0.0745	593359	keystroke_Key.space	Key.space	n/a
296.8	0.089	593600	keystroke_c	c	n/a
296.9945	0.135	593989	keystroke_r	r	n/a
297.0545	0.12	594109	keystroke_e	e	n/a
297.1445	0.1495	594289	keystroke_a	a	n/a
297.2195	0.1345	594439	keystroke_t	t	n/a
297.3095	0.1495	594619	keystroke_i	i	n/a
297.385	0.104	594770	keystroke_o	o	n/a
297.4145	0.1045	594829	keystroke_n	n	n/a
297.475	0.1195	594950	keystroke_s	s	n/a
297.5495	0.1045	595099	keystroke_Key.space	Key.space	n/a
297.6845	0.075	595369	keystroke_d	d	n/a
297.8195	0.1345	595639	keystroke_r	r	n/a
297.9095	0.1195	595819	keystroke_i	i	n/a
297.97	0.104	595940	keystroke_n	n	n/a
298.1195	0.1045	596239	keystroke_k	k	n/a
298.2695	0.0595	596539	keystroke_Key.space	Key.space	n/a
298.3145	0.0895	596629	keystroke_g	g	n/a
298.4795	0.1045	596959	keystroke_r	r	n/a
298.5695	0.0895	597139	keystroke_o	o	n/a
298.6895	0.0895	597379	keystroke_v	v	n/a
298.7645	0.105	597529	keystroke_e	e	n/a
298.9145	0.0595	597829	keystroke_Key.enter	Key.enter	n/a
298.9835	5.0625	597967	prompt	n/a	queensland subsection tunes infant\n
300.805	0.1045	601610	keystroke_q	q	n/a
300.8795	0.105	601759	keystroke_u	u	n/a
300.9545	0.0745	601909	keystroke_e	e	n/a
301.09	0.104	602180	keystroke_e	e	n/a
301.1795	0.0895	602359	keystroke_n	n	n/a
301.2845	0.09	602569	keystroke_s	s	n/a
301.3895	0.075	602779	keystroke_l	l	n/a
301.4945	0.105	602989	keystroke_a	a	n/a
301.57	0.074	603140	keystroke_n	n	n/a
301.615	0.104	603230	keystroke_d	d	n/a
301.7045	0.0745	603409	keystroke_Key.space	Key.space	n/a
301.795	0.104	603590	keystroke_s	s	n/a
301.8845	0.1045	603769	keystroke_u	u	n/a
302.005	0.06	604010	keystroke_b	b	n/a
302.1095	0.12	604219	keystroke_s	s	n/a
302.1995	0.0745	604399	keystroke_e	e	n/a
302.3795	0.0595	604759	keystroke_c	c	n/a
302.5445	0.09	605089	keystroke_t	t	n/a
302.6195	0.1645	605239	keystroke_i	i	n/a
302.6945	0.12	605389	keystroke_o	o	n/a
302.7395	0.0895	605479	keystroke_n	n	n/a
302.8	0.0895	605600	keystroke_Key.space	Key.space	n/a
302.8745	0.1045	605749	keystroke_t	t	n/a
302.9945	0.0595	605989	keystroke_u	u	n/a
303.159	0.09	606318	keystroke_n	n	n/a
303.2195	0.135	606439	keystroke_e	e	n/a
303.2795	0.12	606559	keystroke_s	s	n/a
303.3395	0.105	606679	keystroke_Key.space	Key.space	n/a
303.4145	0.1195	606829	keystroke_i	i	n/a
303.4595	0.1195	606919	keystroke_n	n	n/a
303.565	0.119	607130	keystroke_f	f	n/a
303.6395	0.1495	607279	keystroke_a	a	n/a
303.7445	0.0745	607489	keystroke_n	n	n/a
303.8495	0.105	607699	keystroke_t	t	n/a
303.9695	0.0745	607939	keystroke_Key.enter	Key.enter	n/a
304.053	7.1035	608106	prompt	n/a	gamecube adjacent kinase officials\n
304.6895	0.0895	609379	keystroke_g	g	n/a
304.7945	0.1195	609589	keystroke_a	a	n/a
304.8845	0.1045	609769	keystroke_m	m	n/a
305.0045	0.0745	610009	keystroke_e	e	n/a
305.2	0.089	610400	keystroke_c	c	n/a
305.2895	0.0745	610579	keystroke_u	u	n/a
305.3795	0.0745	610759	keystroke_b	b	n/a
305.5	0.104	611000	keystroke_e	e	n/a
305.59	0.0745	611180	keystroke_Key.space	Key.space	n/a
305.6795	0.12	611359	keystroke_a	a	n/a
305.7845	0.09	611569	keystroke_d	d	n/a
305.8895	0.06	611779	keystroke_j	j	n/a
305.965	0.089	611930	keystroke_a	a	n/a
306.0845	0.0595	612169	keystroke_c	c	n/a
306.2345	0.0895	612469	keystroke_e	e	n/a
306.3395	0.075	612679	keystroke_n	n	n/a
306.3995	0.0895	612799	keystroke_t	t	n/a
306.4595	0.105	612919	keystroke_Key.space	Key.space	n/a
306.535	0.089	613070	keystroke_k	k	n/a
306.7295	0.12	613459	keystroke_i	i	n/a
306.7745	0.1045	613549	keystroke_n	n	n/a
306.8645	0.135	613729	keystroke_a	a	n/a
306.9695	0.1345	613939	keystroke_s	s	n/a
307.0295	0.1195	614059	keystroke_e	e	n/a
307.1345	0.0745	614269	keystroke_Key.space	Key.space	n/a
307.2395	0.06	614479	keystroke_f	f	n/a
307.2845	0.09	614569	keystroke_o	o	n/a
307.615	0.044	615230	keystroke_Key.backspace	Key.backspace	n/a
307.7195	0.09	615439	keystroke_Key.backspace	Key.backspace	n/a
307.9745	0.1045	615949	keystroke_o	o	n/a
308.065	0.059	616130	keystroke_f	f	n/a
308.1995	0.0895	616399	keystroke_f	f	n/a
308.2745	0.075	616549	keystroke_i	i	n/a
308.4095	0.105	616819	keystroke_c	c	n/a
308.4845	0.0895	616969	keystroke_i	i	n/a
309.235	0.0595	618470	keystroke_Key.backspace	Key.backspace	n/a
310.7045	0.0895	621409	keystroke_i	i	n/a
310.78	0.119	621560	keystroke_a	a	n/a
310.885	0.074	621770	keystroke_l	l	n/a
310.9745	0.09	621949	keystroke_s	s	n/a
311.0795	0.0745	622159	keystroke_Key.enter	Key.enter	n/a
311.166	3.2755	622332	prompt	n/a	houses publication torture ruth\n
311.6945	0.0895	623389	keystroke_h	h	n/a
311.815	0.119	623630	keystroke_o	o	n/a
311.8895	0.1045	623779	keystroke_u	u	n/a
311.9345	0.105	623869	keystroke_s	s	n/a
312.0095	0.1045	624019	keystroke_e	e	n/a
312.13	0.029	624260	keystroke_e	e	n/a
312.1445	0.105	624289	keystroke_s	s	n/a
312.25	0.0745	624500	keystroke_Key.space	Key.space	n/a
312.3395	0.1045	624679	keystroke_p	p	n/a
312.3695	0.12	624739	keystroke_u	u	n/a
312.5045	0.0895	625009	keystroke_b	b	n/a
312.5795	0.0895	625159	keystroke_l	l	n/a
312.6245	0.1055	625249	keystroke_i	i	n/a
312.6845	0.09	625369	keystroke_c	c	n/a
312.7895	0.105	625579	keystroke_a	a	n/a
312.8495	0.15	625699	keystroke_t	t	n/a
312.9095	0.15	625819	keystroke_i	i	n/a
312.9845	0.1045	625969	keystroke_o	o	n/a
313.015	0.1045	626030	keystroke_n	n	n/a
313.105	0.089	626210	keystroke_Key.space	Key.space	n/a
313.165	0.134	626330	keystroke_t	t	n/a
313.2845	0.0745	626569	keystroke_o	o	n/a
313.3745	0.0745	626749	keystroke_r	r	n/a
313.5245	0.105	627049	keystroke_t	t	n/a
313.6145	0.09	627229	keystroke_u	u	n/a
313.7195	0.1345	627439	keystroke_r	r	n/a
313.765	0.134	627530	keystroke_e	e	n/a
313.8695	0.0745	627739	keystroke_Key.space	Key.space	n/a
313.944	0.12	627888	keystroke_r	r	n/a
314.0495	0.0745	628099	keystroke_u	u	n/a
314.1395	0.1045	628279	keystroke_t	t	n/a
314.2295	0.0595	628459	keystroke_h	h	n/a
314.3495	0.09	628699	keystroke_Key.enter	Key.enter	n/a
314.4515	3.935	628903	prompt	n/a	xbox harris session nottingham\n
315.28	0.0895	630560	keystroke_x	x	n/a
315.3995	0.1045	630799	keystroke_b	b	n/a
315.4895	0.075	630979	keystroke_o	o	n/a
315.58	0.1345	631160	keystroke_x	x	n/a
315.6695	0.109	631339	keystroke_Key.space	Key.space	n/a
315.744	0.076	631488	keystroke_h	h	n/a
315.865	0.1195	631730	keystroke_a	a	n/a
315.9395	0.09	631879	keystroke_r	r	n/a
316.09	0.104	632180	keystroke_r	r	n/a
316.1945	0.0895	632389	keystroke_i	i	n/a
316.2995	0.0745	632599	keystroke_s	s	n/a
316.3445	0.09	632689	keystroke_Key.space	Key.space	n/a
316.4945	0.09	632989	keystroke_s	s	n/a
316.6	0.044	633200	keystroke_e	e	n/a
316.7495	0.06	633499	keystroke_s	s	n/a
316.915	0.0745	633830	keystroke_s	s	n/a
317.0045	0.1645	634009	keystroke_i	i	n/a
317.065	0.119	634130	keystroke_o	o	n/a
317.1245	0.105	634249	keystroke_n	n	n/a
317.2445	0.075	634489	keystroke_Key.space	Key.space	n/a
317.335	0.1045	634670	keystroke_n	n	n/a
317.4245	0.075	634849	keystroke_o	o	n/a
317.4845	0.0745	634969	keystroke_t	t	n/a
317.6195	0.1045	635239	keystroke_t	t	n/a
317.695	0.0895	635390	keystroke_i	i	n/a
317.7395	0.1045	635479	keystroke_n	n	n/a
317.8295	0.1195	635659	keystroke_g	g	n/a
317.9345	0.0895	635869	keystroke_h	h	n/a
318.0695	0.1195	636139	keystroke_a	a	n/a
318.13	0.0895	636260	keystroke_m	m	n/a
318.3095	0.0745	636619	keystroke_Key.enter	Key.enter	n/a
318.3945	5.0165	636789	prompt	n/a	organizations appear passive debt\n
319	0.089	638000	keystroke_o	o	n/a
319.1045	0.09	638209	keystroke_r	r	n/a
319.2845	0.0745	638569	keystroke_g	g	n/a
319.33	0.104	638660	keystroke_a	a	n/a
319.4195	0.0895	638839	keystroke_n	n	n/a
319.48	0.104	638960	keystroke_i	i	n/a
319.5695	0.0745	639139	keystroke_z	z	n/a
319.7345	0.12	639469	keystroke_a	a	n/a
319.8245	0.09	639649	keystroke_t	t	n/a
319.9145	0.165	639829	keystroke_i	i	n/a
319.9895	0.1045	639979	keystroke_o	o	n/a
320.05	0.104	640100	keystroke_n	n	n/a
320.1395	0.09	640279	keystroke_s	s	n/a
320.215	0.089	640430	keystroke_Key.space	Key.space	n/a
320.3045	0.1195	640609	keystroke_a	a	n/a
320.38	0.0745	640760	keystroke_p	p	n/a
320.515	0.1045	641030	keystroke_p	p	n/a
320.6645	0.1195	641329	keystroke_e	e	n/a
320.8445	0.165	641689	keystroke_a	a	n/a
320.9345	0.15	641869	keystroke_r	r	n/a
321.069	0.0755	642138	keystroke_Key.space	Key.space	n/a
321.1745	0.1045	642349	keystroke_p	p	n/a
321.3095	0.0745	642619	keystroke_s	s	n/a
321.58	0.059	643160	keystroke_Key.backspace	Key.backspace	n/a
321.7895	0.0895	643579	keystroke_a	a	n/a
321.8645	0.0745	643729	keystroke_s	s	n/a
322.0145	0.0895	644029	keystroke_s	s	n/a
322.1195	0.0895	644239	keystroke_i	i	n/a
322.1945	0.1045	644389	keystroke_v	v	n/a
322.315	0.074	644630	keystroke_e	e	n/a
322.3745	0.0745	644749	keystroke_Key.space	Key.space	n/a
322.4645	0.0745	644929	keystroke_d	d	n/a
322.615	0.1045	645230	keystroke_e	e	n/a
322.7345	0.06	645469	keystroke_b	b	n/a
322.9295	0.105	645859	keystroke_t	t	n/a
323.3195	0.0895	646639	keystroke_Key.enter	Key.enter	n/a
323.423	4.668	646846	prompt	n/a	mike concentrate eventually convergence\n
324.0245	0.135	648049	keystroke_m	m	n/a
324.1145	0.105	648229	keystroke_i	i	n/a
324.295	0.104	648590	keystroke_k	k	n/a
324.3695	0.105	648739	keystroke_e	e	n/a
324.445	0.089	648890	keystroke_Key.space	Key.space	n/a
324.595	0.1195	649190	keystroke_c	c	n/a
324.6695	0.09	649339	keystroke_o	o	n/a
324.7295	0.09	649459	keystroke_n	n	n/a
324.8045	0.0595	649609	keystroke_c	c	n/a
324.955	0.0745	649910	keystroke_e	e	n/a
325.0595	0.09	650119	keystroke_n	n	n/a
325.1195	0.0745	650239	keystroke_t	t	n/a
325.2695	0.12	650539	keystroke_r	r	n/a
325.345	0.1645	650690	keystroke_a	a	n/a
325.4645	0.1345	650929	keystroke_t	t	n/a
325.5395	0.105	651079	keystroke_e	e	n/a
325.6295	0.0595	651259	keystroke_Key.space	Key.space	n/a
325.7345	0.1195	651469	keystroke_e	e	n/a
325.8695	0.1045	651739	keystroke_v	v	n/a
325.9445	0.1195	651889	keystroke_e	e	n/a
326.0495	0.0895	652099	keystroke_n	n	n/a
326.1545	0.1345	652309	keystroke_t	t	n/a
326.2595	0.0895	652519	keystroke_u	u	n/a
326.3345	0.1195	652669	keystroke_a	a	n/a
326.4395	0.0595	652879	keystroke_l	l	n/a
326.5745	0.1195	653149	keystroke_l	l	n/a
326.6195	0.1045	653239	keystroke_y	y	n/a
326.7545	0.0895	653509	keystroke_Key.space	Key.space	n/a
326.8745	0.0895	653749	keystroke_c	c	n/a
326.98	0.1045	653960	keystroke_o	o	n/a
327.0395	0.09	654079	keystroke_n	n	n/a
327.0995	0.075	654199	keystroke_v	v	n/a
327.2345	0.1045	654469	keystroke_e	e	n/a
327.295	0.104	654590	keystroke_r	r	n/a
327.4595	0.09	654919	keystroke_g	g	n/a
327.505	0.104	655010	keystroke_e	e	n/a
327.6395	0.0905	655279	keystroke_n	n	n/a
327.73	0.0595	655460	keystroke_c	c	n/a
327.88	0.0895	655760	keystroke_e	e	n/a
327.9995	0.0895	655999	keystroke_Key.enter	Key.enter	n/a
328.0985	3.503	656197	prompt	n/a	awarded which bool handed\n
328.6295	0.105	657259	keystroke_a	a	n/a
328.78	0.1345	657560	keystroke_w	w	n/a
328.9145	0.12	657829	keystroke_a	a	n/a
329.0045	0.075	658009	keystroke_r	r	n/a
329.155	0.0745	658310	keystroke_d	d	n/a
329.3045	0.075	658609	keystroke_e	e	n/a
329.455	0.089	658910	keystroke_d	d	n/a
329.5445	0.1045	659089	keystroke_Key.space	Key.space	n/a
329.6345	0.0895	659269	keystroke_w	w	n/a
329.7095	0.135	659419	keystroke_h	h	n/a
329.7995	0.1195	659599	keystroke_i	i	n/a
329.8595	0.1795	659719	keystroke_c	c	n/a
329.9645	0.12	659929	keystroke_h	h	n/a
330.085	0.074	660170	keystroke_Key.space	Key.space	n/a
330.145	0.074	660290	keystroke_b	b	n/a
330.2195	0.075	660439	keystroke_o	o	n/a
330.3695	0.0745	660739	keystroke_o	o	n/a
330.5195	0.1045	661039	keystroke_l	l	n/a
330.6695	0.12	661339	keystroke_Key.space	Key.space	n/a
330.7745	0.06	661549	keystroke_h	h	n/a
330.8795	0.0895	661759	keystroke_a	a	n/a
330.9245	0.0895	661849	keystroke_n	n	n/a
331.0745	0.06	662149	keystroke_d	d	n/a
331.2095	0.09	662419	keystroke_e	e	n/a
331.3745	0.0745	662749	keystroke_d	d	n/a
331.5095	0.0895	663019	keystroke_Key.enter	Key.enter	n/a
331.6095	4.103	663219	prompt	n/a	comparable textile caused sharon\n
332.1695	0.12	664339	keystroke_c	c	n/a
332.275	0.0745	664550	keystroke_o	o	n/a
332.3045	0.15	664609	keystroke_m	m	n/a
332.4395	0.105	664879	keystroke_p	p	n/a
332.53	0.1045	665060	keystroke_a	a	n/a
332.6045	0.1345	665209	keystroke_r	r	n/a
332.7395	0.12	665479	keystroke_a	a	n/a
332.845	0.1045	665690	keystroke_b	b	n/a
332.9645	0.075	665929	keystroke_l	l	n/a
333.0545	0.0895	666109	keystroke_e	e	n/a
333.13	0.074	666260	keystroke_Key.space	Key.space	n/a
333.2195	0.1345	666439	keystroke_t	t	n/a
333.31	0.0895	666620	keystroke_e	e	n/a
333.5495	0.1045	667099	keystroke_x	x	n/a
333.61	0.1345	667220	keystroke_t	t	n/a
333.715	0.104	667430	keystroke_i	i	n/a
333.8345	0.12	667669	keystroke_l	l	n/a
333.9245	0.0895	667849	keystroke_e	e	n/a
334.0295	0.0745	668059	keystroke_Key.space	Key.space	n/a
334.165	0.0745	668330	keystroke_c	c	n/a
334.27	0.149	668540	keystroke_a	a	n/a
334.4045	0.09	668809	keystroke_u	u	n/a
334.51	0.134	669020	keystroke_s	s	n/a
334.63	0.104	669260	keystroke_e	e	n/a
334.81	0.119	669620	keystroke_d	d	n/a
334.915	0.074	669830	keystroke_Key.space	Key.space	n/a
335.035	0.1195	670070	keystroke_s	s	n/a
335.11	0.0745	670220	keystroke_h	h	n/a
335.185	0.1345	670370	keystroke_a	a	n/a
335.2605	0.1035	670521	keystroke_r	r	n/a
335.35	0.1345	670700	keystroke_o	o	n/a
335.4395	0.1045	670879	keystroke_n	n	n/a
335.635	0.074	671270	keystroke_Key.enter	Key.enter	n/a
335.723	3.8285	671446	prompt	n/a	berry skins bought modifications\n
336.3395	0.0895	672679	keystroke_b	b	n/a
336.5045	0.1045	673009	keystroke_e	e	n/a
336.595	0.0745	673190	keystroke_r	r	n/a
336.7455	0.1335	673491	keystroke_r	r	n/a
336.8195	0.1045	673639	keystroke_y	y	n/a
336.9395	0.0745	673879	keystroke_Key.space	Key.space	n/a
336.9995	0.0895	673999	keystroke_s	s	n/a
337.0745	0.0895	674149	keystroke_k	k	n/a
337.2695	0.135	674539	keystroke_i	i	n/a
337.345	0.104	674690	keystroke_n	n	n/a
337.4645	0.0895	674929	keystroke_s	s	n/a
337.5395	0.075	675079	keystroke_Key.space	Key.space	n/a
337.645	0.104	675290	keystroke_b	b	n/a
337.7645	0.1045	675529	keystroke_o	o	n/a
337.8095	0.1195	675619	keystroke_u	u	n/a
337.8845	0.0895	675769	keystroke_g	g	n/a
338.0195	0.09	676039	keystroke_h	h	n/a
338.0495	0.1345	676099	keystroke_t	t	n/a
338.1545	0.09	676309	keystroke_Key.space	Key.space	n/a
338.2595	0.0895	676519	keystroke_m	m	n/a
338.3495	0.09	676699	keystroke_o	o	n/a
338.4545	0.09	676909	keystroke_d	d	n/a
338.5745	0.075	677149	keystroke_i	i	n/a
338.6645	0.12	677329	keystroke_f	f	n/a
338.7695	0.0745	677539	keystroke_i	i	n/a
338.86	0.074	677720	keystroke_c	c	n/a
338.95	0.1345	677900	keystroke_a	a	n/a
339.0245	0.1345	678049	keystroke_t	t	n/a
339.0995	0.1795	678199	keystroke_i	i	n/a
339.1745	0.1195	678349	keystroke_o	o	n/a
339.2495	0.09	678499	keystroke_n	n	n/a
339.31	0.104	678620	keystroke_s	s	n/a
339.4745	0.075	678949	keystroke_Key.enter	Key.enter	n/a
339.56	4.371	679120	prompt	n/a	target olympus control literature\n
340.1645	0.1345	680329	keystroke_t	t	n/a
340.36	0.119	680720	keystroke_a	a	n/a
340.4345	0.1045	680869	keystroke_r	r	n/a
340.6145	0.09	681229	keystroke_g	g	n/a
340.7195	0.1045	681439	keystroke_e	e	n/a
340.7945	0.105	681589	keystroke_t	t	n/a
340.8705	0.089	681741	keystroke_Key.space	Key.space	n/a
340.9155	0.059	681831	keystroke_o	o	n/a
341.0645	0.09	682129	keystroke_l	l	n/a
341.2295	0.0745	682459	keystroke_y	y	n/a
341.4395	0.0895	682879	keystroke_m	m	n/a
341.5895	0.1195	683179	keystroke_p	p	n/a
341.6945	0.0895	683389	keystroke_u	u	n/a
341.8445	0.1195	683689	keystroke_s	s	n/a
341.9495	0.09	683899	keystroke_Key.space	Key.space	n/a
342.16	0.0745	684320	keystroke_c	c	n/a
342.2195	0.1045	684439	keystroke_o	o	n/a
342.2645	0.1045	684529	keystroke_n	n	n/a
342.3545	0.0745	684709	keystroke_t	t	n/a
342.489	0.105	684978	keystroke_r	r	n/a
342.5495	0.06	685099	keystroke_o	o	n/a
342.6995	0.0895	685399	keystroke_l	l	n/a
342.8345	0.09	685669	keystroke_Key.space	Key.space	n/a
342.9395	0.1045	685879	keystroke_l	l	n/a
343.0145	0.1045	686029	keystroke_i	i	n/a
343.1195	0.09	686239	keystroke_t	t	n/a
343.225	0.1045	686450	keystroke_e	e	n/a
343.2845	0.1195	686569	keystroke_r	r	n/a
343.3745	0.135	686749	keystroke_a	a	n/a
343.4645	0.1045	686929	keystroke_t	t	n/a
343.555	0.089	687110	keystroke_u	u	n/a
343.629	0.105	687258	keystroke_r	r	n/a
343.675	0.119	687350	keystroke_e	e	n/a
343.8545	0.0745	687709	keystroke_Key.enter	Key.enter	n/a
343.939	5.962	687878	prompt	n/a	toyota packages sustainability dreams\n
344.575	0.1195	689150	keystroke_t	t	n/a
344.6955	0.104	689391	keystroke_o	o	n/a
344.7845	0.1045	689569	keystroke_y	y	n/a
344.9045	0.1045	689809	keystroke_o	o	n/a
345.0245	0.1045	690049	keystroke_t	t	n/a
345.115	0.1195	690230	keystroke_a	a	n/a
345.1895	0.105	690379	keystroke_Key.space	Key.space	n/a
345.3095	0.1195	690619	keystroke_p	p	n/a
345.445	0.104	690890	keystroke_a	a	n/a
345.5645	0.1045	691129	keystroke_c	c	n/a
345.6845	0.075	691369	keystroke_k	k	n/a
345.745	0.119	691490	keystroke_a	a	n/a
345.8195	0.165	691639	keystroke_g	g	n/a
345.895	0.1495	691790	keystroke_e	e	n/a
345.97	0.0895	691940	keystroke_s	s	n/a
346.0305	0.0735	692061	keystroke_Key.space	Key.space	n/a
346.1645	0.1045	692329	keystroke_s	s	n/a
346.2545	0.0745	692509	keystroke_u	u	n/a
346.36	0.1045	692720	keystroke_s	s	n/a
346.4495	0.1195	692899	keystroke_t	t	n/a
346.5545	0.1195	693109	keystroke_a	a	n/a
346.66	0.119	693320	keystroke_i	i	n/a
346.7195	0.1045	693439	keystroke_n	n	n/a
346.8695	0.0895	693739	keystroke_a	a	n/a
346.9745	0.1045	693949	keystroke_b	b	n/a
347.0795	0.0895	694159	keystroke_i	i	n/a
347.1995	0.1195	694399	keystroke_l	l	n/a
347.275	0.1195	694550	keystroke_i	i	n/a
347.3495	0.1345	694699	keystroke_t	t	n/a
347.4695	0.09	694939	keystroke_y	y	n/a
347.56	0.089	695120	keystroke_Key.space	Key.space	n/a
347.6645	0.1045	695329	keystroke_d	d	n/a
347.8145	0.1645	695629	keystroke_r	r	n/a
347.904	0.135	695808	keystroke_e	e	n/a
347.994	0.15	695988	keystroke_a	a	n/a
348.1595	0.15	696319	keystroke_s	s	n/a
348.16	0.0595	696320	keystroke_m	m	n/a
348.8795	0.0595	697759	keystroke_Key.backspace	Key.backspace	n/a
349.0145	0.0895	698029	keystroke_Key.backspace	Key.backspace	n/a
349.4945	0.0595	698989	keystroke_m	m	n/a
349.5995	0.075	699199	keystroke_s	s	n/a
349.825	0.074	699650	keystroke_Key.enter	Key.enter	n/a
349.9085	4.1365	699817	prompt	n/a	enjoying platinum thong affiliate\n
350.4845	0.1045	700969	keystroke_e	e	n/a
350.5745	0.0895	701149	keystroke_n	n	n/a
350.739	0.09	701478	keystroke_j	j	n/a
350.8445	0.105	701689	keystroke_o	o	n/a
350.9645	0.0745	701929	keystroke_y	y	n/a
351.0995	0.135	702199	keystroke_i	i	n/a
351.16	0.119	702320	keystroke_n	n	n/a
351.2495	0.0895	702499	keystroke_g	g	n/a
351.2945	0.1195	702589	keystroke_Key.space	Key.space	n/a
351.3845	0.105	702769	keystroke_p	p	n/a
351.5345	0.1045	703069	keystroke_l	l	n/a
351.6695	0.135	703339	keystroke_a	a	n/a
351.775	0.1195	703550	keystroke_t	t	n/a
351.8795	0.1045	703759	keystroke_i	i	n/a
351.9695	0.09	703939	keystroke_n	n	n/a
352.1795	0.0745	704359	keystroke_u	u	n/a
352.3595	0.06	704719	keystroke_m	m	n/a
352.4495	0.0745	704899	keystroke_Key.space	Key.space	n/a
352.495	0.134	704990	keystroke_t	t	n/a
352.5845	0.12	705169	keystroke_h	h	n/a
352.6595	0.12	705319	keystroke_o	o	n/a
352.7495	0.09	705499	keystroke_n	n	n/a
352.825	0.104	705650	keystroke_g	g	n/a
352.8845	0.09	705769	keystroke_Key.space	Key.space	n/a
352.9895	0.105	705979	keystroke_a	a	n/a
353.0795	0.0745	706159	keystroke_f	f	n/a
353.2295	0.1045	706459	keystroke_f	f	n/a
353.3045	0.12	706609	keystroke_i	i	n/a
353.4395	0.135	706879	keystroke_l	l	n/a
353.5145	0.1195	707029	keystroke_i	i	n/a
353.5895	0.15	707179	keystroke_a	a	n/a
353.6645	0.1195	707329	keystroke_t	t	n/a
353.7245	0.135	707449	keystroke_e	e	n/a
353.9645	0.075	707929	keystroke_Key.enter	Key.enter	n/a
354.053	4.055	708106	prompt	n/a	wrapped assessing slight empirical\n
354.6095	0.1345	709219	keystroke_w	w	n/a
354.7595	0.0895	709519	keystroke_r	r	n/a
354.8795	0.135	709759	keystroke_a	a	n/a
355.0295	0.0745	710059	keystroke_p	p	n/a
355.1795	0.1045	710359	keystroke_p	p	n/a
355.2845	0.075	710569	keystroke_e	e	n/a
355.4495	0.1045	710899	keystroke_d	d	n/a
355.54	0.0895	711080	keystroke_Key.space	Key.space	n/a
355.6145	0.09	711229	keystroke_a	a	n/a
355.675	0.1045	711350	keystroke_s	s	n/a
355.8545	0.1045	711709	keystroke_s	s	n/a
355.9595	0.09	711919	keystroke_e	e	n/a
356.11	0.074	712220	keystroke_s	s	n/a
356.275	0.089	712550	keystroke_s	s	n/a
356.3495	0.1495	712699	keystroke_i	i	n/a
356.4095	0.1045	712819	keystroke_n	n	n/a
356.4545	0.1045	712909	keystroke_g	g	n/a
356.5295	0.0745	713059	keystroke_Key.space	Key.space	n/a
356.575	0.134	713150	keystroke_s	s	n/a
356.6795	0.1045	713359	keystroke_l	l	n/a
356.7545	0.0895	713509	keystroke_i	i	n/a
356.8145	0.0895	713629	keystroke_g	g	n/a
356.9345	0.105	713869	keystroke_h	h	n/a
356.995	0.104	713990	keystroke_t	t	n/a
357.0695	0.0745	714139	keystroke_Key.space	Key.space	n/a
357.1595	0.1195	714319	keystroke_e	e	n/a
357.2345	0.105	714469	keystroke_m	m	n/a
