onset	duration	sample	value	key	prompt_text
9.769	7.727	19538	prompt	n/a	the quick brown fox jumps over a lazy dog\n
11.121	0.028	22242	keystroke_t	t	n/a
11.209	0.1645	22418	keystroke_h	h	n/a
11.3435	0.09	22687	keystroke_e	e	n/a
11.509	0.105	23018	keystroke_Key.space	Key.space	n/a
11.659	0.119	23318	keystroke_q	q	n/a
11.764	0.165	23528	keystroke_u	u	n/a
11.884	0.1335	23768	keystroke_i	i	n/a
12.0625	0.12	24125	keystroke_c	c	n/a
12.1675	0.1505	24335	keystroke_k	k	n/a
12.303	0.135	24606	keystroke_Key.space	Key.space	n/a
12.453	0.12	24906	keystroke_b	b	n/a
12.588	0.09	25176	keystroke_r	r	n/a
12.708	0.12	25416	keystroke_o	o	n/a
12.843	0.1205	25686	keystroke_w	w	n/a
12.9335	0.1795	25867	keystroke_n	n	n/a
13.1285	0.09	26257	keystroke_Key.space	Key.space	n/a
13.2635	0.1045	26527	keystroke_f	f	n/a
13.398	0.15	26796	keystroke_o	o	n/a
13.578	0.1055	27156	keystroke_x	x	n/a
13.6985	0.105	27397	keystroke_Key.space	Key.space	n/a
13.8485	0.12	27697	keystroke_j	j	n/a
14.0435	0.105	28087	keystroke_u	u	n/a
14.2985	0.06	28597	keystroke_m	m	n/a
14.4935	0.12	28987	keystroke_p	p	n/a
14.5985	0.09	29197	keystroke_s	s	n/a
14.7185	0.135	29437	keystroke_Key.space	Key.space	n/a
14.9435	0.135	29887	keystroke_o	o	n/a
15.0635	0.09	30127	keystroke_v	v	n/a
15.2585	0.135	30517	keystroke_e	e	n/a
15.3335	0.15	30667	keystroke_r	r	n/a
15.4685	0.105	30937	keystroke_Key.space	Key.space	n/a
15.634	0.1045	31268	keystroke_a	a	n/a
15.7235	0.09	31447	keystroke_Key.space	Key.space	n/a
15.8585	0.165	31717	keystroke_l	l	n/a
15.9635	0.075	31927	keystroke_a	a	n/a
16.2035	0.06	32407	keystroke_z	z	n/a
16.4735	0.165	32947	keystroke_y	y	n/a
16.8035	0.15	33607	keystroke_Key.space	Key.space	n/a
16.9685	0.12	33937	keystroke_d	d	n/a
17.1335	0.105	34267	keystroke_o	o	n/a
17.2685	0.12	34537	keystroke_g	g	n/a
17.4335	0.06	34867	keystroke_Key.enter	Key.enter	n/a
17.5	6.1005	35000	prompt	n/a	quotes reporter largely blonde\n
18.1685	0.105	36337	keystroke_q	q	n/a
18.2885	0.12	36577	keystroke_u	u	n/a
18.6185	0.12	37237	keystroke_o	o	n/a
18.8285	0.09	37657	keystroke_t	t	n/a
19.0535	0.15	38107	keystroke_e	e	n/a
19.1735	0.105	38347	keystroke_s	s	n/a
19.3235	0.12	38647	keystroke_Key.space	Key.space	n/a
19.5935	0.12	39187	keystroke_r	r	n/a
19.6685	0.165	39337	keystroke_e	e	n/a
19.8635	0.12	39727	keystroke_p	p	n/a
19.9085	0.18	39817	keystroke_o	o	n/a
20.0585	0.075	40117	keystroke_r	r	n/a
20.2535	0.09	40507	keystroke_t	t	n/a
20.4485	0.165	40897	keystroke_e	e	n/a
20.5685	0.12	41137	keystroke_r	r	n/a
20.7185	0.105	41437	keystroke_Key.space	Key.space	n/a
20.8985	0.135	41797	keystroke_l	l	n/a
20.9585	0.15	41917	keystroke_a	a	n/a
21.1535	0.075	42307	keystroke_r	r	n/a
21.3785	0.105	42757	keystroke_g	g	n/a
21.513	0.12	43026	keystroke_e	e	n/a
21.648	0.121	43296	keystroke_l	l	n/a
21.799	0.105	43598	keystroke_y	y	n/a
21.889	0.15	43778	keystroke_Key.space	Key.space	n/a
22.114	0.105	44228	keystroke_b	b	n/a
22.384	0.105	44768	keystroke_l	l	n/a
22.504	0.12	45008	keystroke_o	o	n/a
22.9385	0.105	45877	keystroke_n	n	n/a
23.0585	0.09	46117	keystroke_d	d	n/a
23.2985	0.075	46597	keystroke_e	e	n/a
23.5085	0.09	47017	keystroke_Key.enter	Key.enter	n/a
23.614	9.7815	47228	prompt	n/a	correctly cancellation armstrong charlotte\n
24.1985	0.135	48397	keystroke_c	c	n/a
24.2735	0.12	48547	keystroke_o	o	n/a
24.5135	0.075	49027	keystroke_r	r	n/a
24.7085	0.06	49417	keystroke_r	r	n/a
24.7385	0.1195	49477	keystroke_e	e	n/a
24.993	0.121	49986	keystroke_c	c	n/a
25.234	0.089	50468	keystroke_t	t	n/a
25.354	0.134	50708	keystroke_l	l	n/a
25.504	0.119	51008	keystroke_y	y	n/a
25.6985	0.12	51397	keystroke_Key.space	Key.space	n/a
25.9085	0.09	51817	keystroke_c	c	n/a
26.2085	0.165	52417	keystroke_a	a	n/a
26.3885	0.105	52777	keystroke_n	n	n/a
26.5535	0.105	53107	keystroke_c	c	n/a
27.153	0.075	54306	keystroke_e	e	n/a
27.288	0.09	54576	keystroke_l	l	n/a
27.453	0.105	54906	keystroke_l	l	n/a
27.648	0.09	55296	keystroke_a	a	n/a
27.858	0.12	55716	keystroke_t	t	n/a
27.993	0.12	55986	keystroke_i	i	n/a
28.053	0.165	56106	keystroke_o	o	n/a
28.173	0.1805	56346	keystroke_n	n	n/a
28.3235	0.1355	56647	keystroke_Key.space	Key.space	n/a
28.474	0.105	56948	keystroke_a	a	n/a
28.609	0.12	57218	keystroke_r	r	n/a
28.759	0.165	57518	keystroke_m	m	n/a
28.879	0.135	57758	keystroke_s	s	n/a
29.089	0.105	58178	keystroke_t	t	n/a
29.299	0.12	58598	keystroke_r	r	n/a
29.464	0.165	58928	keystroke_o	o	n/a
29.569	0.18	59138	keystroke_n	n	n/a
29.764	0.105	59528	keystroke_g	g	n/a
29.914	0.105	59828	keystroke_Key.space	Key.space	n/a
30.094	0.12	60188	keystroke_c	c	n/a
30.184	0.135	60368	keystroke_h	h	n/a
30.349	0.15	60698	keystroke_a	a	n/a
30.439	0.12	60878	keystroke_r	r	n/a
30.604	0.075	61208	keystroke_o	o	n/a
31.129	0.09	62258	keystroke_Key.backspace	Key.backspace	n/a
31.399	0.12	62798	keystroke_l	l	n/a
31.639	0.12	63278	keystroke_o	o	n/a
31.864	0.09	63728	keystroke_t	t	n/a
32.089	0.045	64178	keystroke_t	t	n/a
32.373	0.121	64746	keystroke_o	o	n/a
32.989	0.104	65978	keystroke_Key.backspace	Key.backspace	n/a
33.139	0.089	66278	keystroke_e	e	n/a
33.334	0.06	66668	keystroke_Key.enter	Key.enter	n/a
33.3995	4.976	66799	prompt	n/a	suggest rent oldest heel\n
34.068	0.105	68136	keystroke_s	s	n/a
34.143	0.12	68286	keystroke_u	u	n/a
34.279	0.074	68558	keystroke_g	g	n/a
34.458	0.091	68916	keystroke_g	g	n/a
34.608	0.165	69216	keystroke_e	e	n/a
34.758	0.181	69516	keystroke_s	s	n/a
34.893	0.105	69786	keystroke_t	t	n/a
35.088	0.12	70176	keystroke_Key.space	Key.space	n/a
35.373	0.12	70746	keystroke_r	r	n/a
35.478	0.105	70956	keystroke_e	e	n/a
35.718	0.105	71436	keystroke_n	n	n/a
35.808	0.09	71616	keystroke_t	t	n/a
36.018	0.12	72036	keystroke_Key.space	Key.space	n/a
36.243	0.105	72486	keystroke_o	o	n/a
36.468	0.105	72936	keystroke_l	l	n/a
36.558	0.09	73116	keystroke_d	d	n/a
36.768	0.135	73536	keystroke_e	e	n/a
36.933	0.105	73866	keystroke_s	s	n/a
37.173	0.12	74346	keystroke_t	t	n/a
37.368	0.12	74736	keystroke_Key.space	Key.space	n/a
37.503	0.105	75006	keystroke_h	h	n/a
37.713	0.045	75426	keystroke_e	e	n/a
37.8335	0.075	75667	keystroke_e	e	n/a
38.0435	0.09	76087	keystroke_l	l	n/a
38.3285	0.045	76657	keystroke_Key.enter	Key.enter	n/a
38.3785	4.962	76757	prompt	n/a	new idea setup researchers\n
39.0495	0.149	78099	keystroke_n	n	n/a
39.1535	0.165	78307	keystroke_e	e	n/a
39.2735	0.135	78547	keystroke_w	w	n/a
39.4235	0.135	78847	keystroke_Key.space	Key.space	n/a
39.5435	0.15	79087	keystroke_i	i	n/a
39.6335	0.105	79267	keystroke_d	d	n/a
39.8435	0.075	79687	keystroke_e	e	n/a
40.0385	0.09	80077	keystroke_a	a	n/a
40.2035	0.12	80407	keystroke_Key.space	Key.space	n/a
40.2935	0.1955	80587	keystroke_s	s	n/a
40.459	0.105	80918	keystroke_e	e	n/a
40.639	0.135	81278	keystroke_t	t	n/a
40.834	0.135	81668	keystroke_u	u	n/a
40.984	0.195	81968	keystroke_p	p	n/a
41.149	0.195	82298	keystroke_Key.space	Key.space	n/a
41.344	0.119	82688	keystroke_r	r	n/a
41.419	0.119	82838	keystroke_e	e	n/a
41.688	0.18	83376	keystroke_s	s	n/a
41.808	0.1205	83616	keystroke_e	e	n/a
42.0635	0.135	84127	keystroke_a	a	n/a
42.1235	0.09	84247	keystroke_r	r	n/a
42.4085	0.105	84817	keystroke_c	c	n/a
42.4685	0.12	84937	keystroke_h	h	n/a
42.6635	0.135	85327	keystroke_e	e	n/a
42.7685	0.15	85537	keystroke_r	r	n/a
42.9335	0.1505	85867	keystroke_s	s	n/a
43.249	0.09	86498	keystroke_Key.enter	Key.enter	n/a
43.347	6.8335	86694	prompt	n/a	nobody murphy carlos multiple\n
43.999	0.1495	87998	keystroke_n	n	n/a
44.1935	0.105	88387	keystroke_o	o	n/a
44.4185	0.09	88837	keystroke_b	b	n/a
44.6435	0.12	89287	keystroke_o	o	n/a
44.7485	0.09	89497	keystroke_d	d	n/a
44.9585	0.105	89917	keystroke_y	y	n/a
45.1085	0.105	90217	keystroke_Key.space	Key.space	n/a
45.3335	0.1055	90667	keystroke_m	m	n/a
45.589	0.119	91178	keystroke_u	u	n/a
45.693	0.121	91386	keystroke_r	r	n/a
46.009	0.104	92018	keystroke_p	p	n/a
46.263	0.121	92526	keystroke_h	h	n/a
46.444	0.105	92888	keystroke_y	y	n/a
46.683	0.09	93366	keystroke_Key.space	Key.space	n/a
46.924	0.12	93848	keystroke_c	c	n/a
47.089	0.209	94178	keystroke_a	a	n/a
47.223	0.136	94446	keystroke_r	r	n/a
47.614	0.15	95228	keystroke_l	l	n/a
47.749	0.15	95498	keystroke_o	o	n/a
47.869	0.12	95738	keystroke_s	s	n/a
48.184	0.119	96368	keystroke_Key.space	Key.space	n/a
48.529	0.105	97058	keystroke_m	m	n/a
48.753	0.105	97506	keystroke_u	u	n/a
49.039	0.119	98078	keystroke_l	l	n/a
49.204	0.104	98408	keystroke_t	t	n/a
49.324	0.134	98648	keystroke_i	i	n/a
49.548	0.061	99096	keystroke_p	p	n/a
49.759	0.119	99518	keystroke_l	l	n/a
49.863	0.09	99726	keystroke_e	e	n/a
50.103	0.075	100206	keystroke_Key.enter	Key.enter	n/a
50.1845	6.6255	100369	prompt	n/a	language grew operator referral\n
50.8085	0.135	101617	keystroke_l	l	n/a
50.9285	0.12	101857	keystroke_a	a	n/a
51.0785	0.1505	102157	keystroke_n	n	n/a
51.244	0.12	102488	keystroke_g	g	n/a
51.409	0.105	102818	keystroke_u	u	n/a
51.619	0.15	103238	keystroke_a	a	n/a
51.994	0.045	103988	keystroke_g	g	n/a
52.219	0.075	104438	keystroke_e	e	n/a
52.489	0.12	104978	keystroke_Key.space	Key.space	n/a
52.864	0.12	105728	keystroke_g	g	n/a
53.134	0.075	106268	keystroke_r	r	n/a
53.149	0.255	106298	keystroke_e	e	n/a
53.344	0.135	106688	keystroke_w	w	n/a
53.569	0.12	107138	keystroke_Key.space	Key.space	n/a
53.974	0.12	107948	keystroke_o	o	n/a
54.094	0.12	108188	keystroke_p	p	n/a
54.229	0.135	108458	keystroke_e	e	n/a
54.289	0.165	108578	keystroke_r	r	n/a
54.469	0.195	108938	keystroke_a	a	n/a
54.634	0.105	109268	keystroke_t	t	n/a
54.784	0.12	109568	keystroke_o	o	n/a
54.874	0.105	109748	keystroke_r	r	n/a
55.084	0.12	110168	keystroke_Key.space	Key.space	n/a
55.219	0.12	110438	keystroke_r	r	n/a
55.34	0.104	110680	keystroke_e	e	n/a
55.5335	0.105	111067	keystroke_f	f	n/a
55.6835	0.15	111367	keystroke_e	e	n/a
55.8035	0.105	111607	keystroke_r	r	n/a
55.9835	0.105	111967	keystroke_r	r	n/a
56.2985	0.12	112597	keystroke_a	a	n/a
56.4335	0.12	112867	keystroke_l	l	n/a
56.7485	0.06	113497	keystroke_Key.enter	Key.enter	n/a
56.8145	6.5355	113629	prompt	n/a	vocals prefix charter triple\n
57.4385	0.09	114877	keystroke_v	v	n/a
57.739	0.09	115478	keystroke_o	o	n/a
57.873	0.121	115746	keystroke_c	c	n/a
58.098	0.135	116196	keystroke_a	a	n/a
58.263	0.12	116526	keystroke_l	l	n/a
58.548	0.121	117096	keystroke_s	s	n/a
58.758	0.135	117516	keystroke_Key.space	Key.space	n/a
58.983	0.135	117966	keystroke_p	p	n/a
59.104	0.1645	118208	keystroke_r	r	n/a
59.2535	0.12	118507	keystroke_e	e	n/a
59.4935	0.09	118987	keystroke_f	f	n/a
59.5985	0.15	119197	keystroke_i	i	n/a
59.7785	0.135	119557	keystroke_x	x	n/a
59.9285	0.12	119857	keystroke_Key.space	Key.space	n/a
60.2435	0.135	120487	keystroke_c	c	n/a
60.3635	0.1355	120727	keystroke_h	h	n/a
60.484	0.195	120968	keystroke_a	a	n/a
60.619	0.089	121238	keystroke_r	r	n/a
60.814	0.105	121628	keystroke_t	t	n/a
61.008	0.166	122016	keystroke_e	e	n/a
61.083	0.136	122166	keystroke_r	r	n/a
61.249	0.149	122498	keystroke_Key.space	Key.space	n/a
61.428	0.106	122856	keystroke_t	t	n/a
61.639	0.135	123278	keystroke_r	r	n/a
61.744	0.104	123488	keystroke_i	i	n/a
61.9235	0.1345	123847	keystroke_m	m	n/a
62.388	0.075	124776	keystroke_Key.backspace	Key.backspace	n/a
62.673	0.075	125346	keystroke_p	p	n/a
62.883	0.091	125766	keystroke_l	l	n/a
63.033	0.12	126066	keystroke_e	e	n/a
63.258	0.09	126516	keystroke_Key.enter	Key.enter	n/a
63.353	5.9075	126706	prompt	n/a	confident see treaty corrections\n
63.9335	0.135	127867	keystroke_c	c	n/a
64.0085	0.075	128017	keystroke_o	o	n/a
64.1285	0.135	128257	keystroke_n	n	n/a
64.2935	0.1205	128587	keystroke_f	f	n/a
64.429	0.1045	128858	keystroke_i	i	n/a
64.5485	0.12	129097	keystroke_d	d	n/a
64.7885	0.09	129577	keystroke_e	e	n/a
64.8635	0.15	129727	keystroke_n	n	n/a
64.9985	0.1055	129997	keystroke_t	t	n/a
65.134	0.135	130268	keystroke_Key.space	Key.space	n/a
65.254	0.225	130508	keystroke_s	s	n/a
65.419	0.09	130838	keystroke_e	e	n/a
65.599	0.12	131198	keystroke_e	e	n/a
65.734	0.105	131468	keystroke_Key.space	Key.space	n/a
65.869	0.09	131738	keystroke_t	t	n/a
66.094	0.105	132188	keystroke_r	r	n/a
66.139	0.135	132278	keystroke_e	e	n/a
66.514	0.015	133028	keystroke_a	a	n/a
66.544	0.105	133088	keystroke_t	t	n/a
66.784	0.105	133568	keystroke_y	y	n/a
67.024	0.135	134048	keystroke_Key.space	Key.space	n/a
67.324	0.12	134648	keystroke_c	c	n/a
67.399	0.12	134798	keystroke_o	o	n/a
67.594	0.075	135188	keystroke_r	r	n/a
67.774	0.1045	135548	keystroke_r	r	n/a
67.9385	0.12	135877	keystroke_e	e	n/a
68.1935	0.105	136387	keystroke_c	c	n/a
68.4345	0.089	136869	keystroke_t	t	n/a
68.5385	0.12	137077	keystroke_i	i	n/a
68.6735	0.18	137347	keystroke_o	o	n/a
68.7935	0.15	137587	keystroke_n	n	n/a
68.9285	0.15	137857	keystroke_s	s	n/a
69.1985	0.06	138397	keystroke_Key.enter	Key.enter	n/a
69.263	6.522	138526	prompt	n/a	religions korean junction self\n
69.918	0.12	139836	keystroke_r	r	n/a
70.039	0.149	140078	keystroke_e	e	n/a
70.413	0.106	140826	keystroke_l	l	n/a
70.609	0.12	141218	keystroke_i	i	n/a
70.774	0.075	141548	keystroke_g	g	n/a
70.879	0.09	141758	keystroke_i	i	n/a
70.939	0.195	141878	keystroke_o	o	n/a
71.074	0.165	142148	keystroke_n	n	n/a
71.209	0.1645	142418	keystroke_s	s	n/a
71.4635	0.1205	142927	keystroke_Key.space	Key.space	n/a
72.004	0.135	144008	keystroke_k	k	n/a
72.259	0.105	144518	keystroke_o	o	n/a
72.334	0.12	144668	keystroke_r	r	n/a
72.424	0.12	144848	keystroke_e	e	n/a
72.679	0.12	145358	keystroke_a	a	n/a
72.799	0.1495	145598	keystroke_n	n	n/a
73.0085	0.105	146017	keystroke_Key.space	Key.space	n/a
73.429	0.06	146858	keystroke_j	j	n/a
73.624	0.075	147248	keystroke_u	u	n/a
73.849	0.09	147698	keystroke_n	n	n/a
73.999	0.105	147998	keystroke_c	c	n/a
74.269	0.105	148538	keystroke_t	t	n/a
74.434	0.15	148868	keystroke_i	i	n/a
74.554	0.195	149108	keystroke_o	o	n/a
74.689	0.165	149378	keystroke_n	n	n/a
74.854	0.1495	149708	keystroke_Key.space	Key.space	n/a
75.0935	0.15	150187	keystroke_s	s	n/a
75.1835	0.12	150367	keystroke_e	e	n/a
75.3335	0.135	150667	keystroke_l	l	n/a
75.4385	0.1355	150877	keystroke_f	f	n/a
75.709	0.0745	151418	keystroke_Key.enter	Key.enter	n/a
75.788	5.817	151576	prompt	n/a	margin tissue so're design\n
76.5035	0.12	153007	keystroke_m	m	n/a
76.5785	0.1655	153157	keystroke_a	a	n/a
76.7135	0.12	153427	keystroke_r	r	n/a
76.998	0.09	153996	keystroke_g	g	n/a
77.238	0.1655	154476	keystroke_i	i	n/a
77.3585	0.135	154717	keystroke_n	n	n/a
77.5085	0.105	155017	keystroke_s	s	n/a
77.9435	0.09	155887	keystroke_Key.backspace	Key.backspace	n/a
78.1835	0.12	156367	keystroke_Key.space	Key.space	n/a
78.3485	0.105	156697	keystroke_t	t	n/a
78.5135	0.12	157027	keystroke_i	i	n/a
78.6485	0.12	157297	keystroke_s	s	n/a
78.8435	0.105	157687	keystroke_s	s	n/a
78.9635	0.105	157927	keystroke_u	u	n/a
79.0835	0.12	158167	keystroke_e	e	n/a
79.2935	0.105	158587	keystroke_Key.space	Key.space	n/a
79.5185	0.105	159037	keystroke_s	s	n/a
79.6385	0.075	159277	keystroke_o	o	n/a
79.8935	0.1205	159787	keystroke_'	'	n/a
80.0435	0.195	160087	keystroke_r	r	n/a
80.1935	0.135	160387	keystroke_e	e	n/a
80.3435	0.135	160687	keystroke_Key.space	Key.space	n/a
80.5085	0.12	161017	keystroke_d	d	n/a
80.7335	0.075	161467	keystroke_e	e	n/a
80.8985	0.12	161797	keystroke_s	s	n/a
80.9735	0.105	161947	keystroke_i	i	n/a
81.1535	0.135	162307	keystroke_g	g	n/a
81.2135	0.12	162427	keystroke_n	n	n/a
81.5285	0.075	163057	keystroke_Key.enter	Key.enter	n/a
81.6075	6.9125	163215	prompt	n/a	coverage organisation bulletin renewal\n
82.2485	0.12	164497	keystroke_c	c	n/a
82.3835	0.105	164767	keystroke_o	o	n/a
82.5035	0.09	165007	keystroke_v	v	n/a
82.6835	0.165	165367	keystroke_e	e	n/a
82.7885	0.12	165577	keystroke_r	r	n/a
83.0135	0.105	166027	keystroke_a	a	n/a
83.2235	0.105	166447	keystroke_g	g	n/a
83.3435	0.15	166687	keystroke_e	e	n/a
83.5385	0.135	167077	keystroke_Key.space	Key.space	n/a
83.6585	0.135	167317	keystroke_o	o	n/a
83.7635	0.06	167527	keystroke_r	r	n/a
83.959	0.09	167918	keystroke_g	g	n/a
84.184	0.105	168368	keystroke_a	a	n/a
84.274	0.09	168548	keystroke_n	n	n/a
84.499	0.105	168998	keystroke_i	i	n/a
84.544	0.105	169088	keystroke_s	s	n/a
84.754	0.09	169508	keystroke_a	a	n/a
84.949	0.12	169898	keystroke_t	t	n/a
85.054	0.09	170108	keystroke_i	i	n/a
85.129	0.165	170258	keystroke_o	o	n/a
85.234	0.18	170468	keystroke_n	n	n/a
85.399	0.12	170798	keystroke_Key.space	Key.space	n/a
85.549	0.165	171098	keystroke_b	b	n/a
85.7735	0.12	171547	keystroke_u	u	n/a
86.1035	0.1055	172207	keystroke_l	l	n/a
86.284	0.105	172568	keystroke_l	l	n/a
86.374	0.105	172748	keystroke_e	e	n/a
86.539	0.135	173078	keystroke_t	t	n/a
86.749	0.135	173498	keystroke_i	i	n/a
86.869	0.165	173738	keystroke_n	n	n/a
87.019	0.135	174038	keystroke_Key.space	Key.space	n/a
87.184	0.105	174368	keystroke_r	r	n/a
87.274	0.15	174548	keystroke_e	e	n/a
87.454	0.165	174908	keystroke_n	n	n/a
87.574	0.165	175148	keystroke_e	e	n/a
87.709	0.12	175418	keystroke_w	w	n/a
87.979	0.12	175958	keystroke_a	a	n/a
88.114	0.1195	176228	keystroke_l	l	n/a
88.4435	0.075	176887	keystroke_Key.enter	Key.enter	n/a
88.5235	8.772	177047	prompt	n/a	establishment bright continuing virtual\n
89.1485	0.15	178297	keystroke_e	e	n/a
89.3135	0.165	178627	keystroke_s	s	n/a
89.4485	0.105	178897	keystroke_t	t	n/a
89.6285	0.12	179257	keystroke_a	a	n/a
89.7335	0.105	179467	keystroke_b	b	n/a
89.9285	0.165	179857	keystroke_l	l	n/a
90.1535	0.105	180307	keystroke_i	i	n/a
90.3335	0.12	180667	keystroke_s	s	n/a
90.7685	0.105	181537	keystroke_h	h	n/a
91.0535	0.105	182107	keystroke_m	m	n/a
91.1435	0.12	182287	keystroke_e	e	n/a
91.3085	0.105	182617	keystroke_n	n	n/a
91.3685	0.105	182737	keystroke_t	t	n/a
91.4885	0.135	182977	keystroke_Key.space	Key.space	n/a
91.7435	0.105	183487	keystroke_b	b	n/a
91.8635	0.105	183727	keystroke_r	r	n/a
92.0735	0.135	184147	keystroke_i	i	n/a
92.2685	0.105	184537	keystroke_g	g	n/a
92.4345	0.104	184869	keystroke_h	h	n/a
92.5685	0.105	185137	keystroke_t	t	n/a
92.7485	0.105	185497	keystroke_Key.space	Key.space	n/a
92.9585	0.105	185917	keystroke_c	c	n/a
93.0035	0.135	186007	keystroke_o	o	n/a
93.0935	0.165	186187	keystroke_n	n	n/a
93.2735	0.12	186547	keystroke_t	t	n/a
93.3785	0.12	186757	keystroke_i	i	n/a
93.4535	0.135	186907	keystroke_n	n	n/a
93.6785	0.105	187357	keystroke_u	u	n/a
93.8285	0.15	187657	keystroke_s	s	n/a
93.9935	0.12	187987	keystroke_i	i	n/a
94.1285	0.15	188257	keystroke_n	n	n/a
94.5485	0.06	189097	keystroke_Key.backspace	Key.backspace	n/a
94.7435	0.045	189487	keystroke_Key.backspace	Key.backspace	n/a
94.8785	0.075	189757	keystroke_Key.backspace	Key.backspace	n/a
95.1935	0.12	190387	keystroke_i	i	n/a
95.3285	0.15	190657	keystroke_n	n	n/a
95.4935	0.105	190987	keystroke_g	g	n/a
95.6435	0.1045	191287	keystroke_Key.space	Key.space	n/a
95.808	0.106	191616	keystroke_v	v	n/a
95.884	0.135	191768	keystroke_i	i	n/a
96.093	0.06	192186	keystroke_r	r	n/a
96.4985	0.075	192997	keystroke_t	t	n/a
96.6635	0.091	193327	keystroke_u	u	n/a
96.8135	0.135	193627	keystroke_a	a	n/a
96.9185	0.12	193837	keystroke_l	l	n/a
97.2485	0.045	194497	keystroke_Key.enter	Key.enter	n/a
97.298	7.902	194596	prompt	n/a	cameroon maternity holly seconds\n
97.939	0.135	195878	keystroke_c	c	n/a
98.134	0.18	196268	keystroke_a	a	n/a
98.299	0.075	196598	keystroke_m	m	n/a
98.419	0.195	196838	keystroke_e	e	n/a
98.539	0.15	197078	keystroke_r	r	n/a
99.589	0.0895	199178	keystroke_o	o	n/a
99.7835	0.12	199567	keystroke_o	o	n/a
99.8585	0.15	199717	keystroke_n	n	n/a
100.0535	0.135	200107	keystroke_Key.space	Key.space	n/a
100.4585	0.12	200917	keystroke_m	m	n/a
100.5935	0.075	201187	keystroke_a	a	n/a
100.7735	0.105	201547	keystroke_t	t	n/a
100.9985	0.135	201997	keystroke_e	e	n/a
101.0585	0.12	202117	keystroke_r	r	n/a
101.3135	0.165	202627	keystroke_n	n	n/a
102.0185	0.12	204037	keystroke_i	i	n/a
102.1835	0.075	204367	keystroke_t	t	n/a
102.4085	0.09	204817	keystroke_y	y	n/a
102.6785	0.12	205357	keystroke_Key.space	Key.space	n/a
102.949	0.09	205898	keystroke_h	h	n/a
103.069	0.0595	206138	keystroke_o	o	n/a
103.264	0.09	206528	keystroke_l	l	n/a
103.429	0.12	206858	keystroke_l	l	n/a
103.534	0.09	207068	keystroke_y	y	n/a
103.684	0.12	207368	keystroke_Key.space	Key.space	n/a
103.924	0.18	207848	keystroke_s	s	n/a
104.059	0.12	208118	keystroke_e	e	n/a
104.344	0.105	208688	keystroke_c	c	n/a
104.494	0.105	208988	keystroke_o	o	n/a
104.524	0.18	209048	keystroke_n	n	n/a
104.689	0.105	209378	keystroke_d	d	n/a
104.8685	0.135	209737	keystroke_s	s	n/a
105.1385	0.06	210277	keystroke_Key.enter	Key.enter	n/a
105.204	8.9665	210408	prompt	n/a	apparently philadelphia href calibration\n
105.7685	0.1655	211537	keystroke_a	a	n/a
105.9035	0.09	211807	keystroke_p	p	n/a
106.0985	0.105	212197	keystroke_p	p	n/a
106.2185	0.09	212437	keystroke_a	a	n/a
106.3535	0.09	212707	keystroke_r	r	n/a
106.5485	0.105	213097	keystroke_t	t	n/a
107.0285	0.09	214057	keystroke_Key.backspace	Key.backspace	n/a
107.1335	0.135	214267	keystroke_e	e	n/a
107.3285	0.165	214657	keystroke_n	n	n/a
107.4485	0.105	214897	keystroke_t	t	n/a
107.719	0.105	215438	keystroke_l	l	n/a
107.839	0.1045	215678	keystroke_y	y	n/a
108.0185	0.105	216037	keystroke_Key.space	Key.space	n/a
108.2885	0.0755	216577	keystroke_p	p	n/a
108.4835	0.105	216967	keystroke_h	h	n/a
108.6935	0.09	217387	keystroke_i	i	n/a
108.904	0.105	217808	keystroke_l	l	n/a
108.994	0.135	217988	keystroke_a	a	n/a
109.219	0.12	218438	keystroke_d	d	n/a
109.444	0.135	218888	keystroke_l	l	n/a
109.804	0.075	219608	keystroke_Key.backspace	Key.backspace	n/a
109.924	0.12	219848	keystroke_e	e	n/a
110.074	0.12	220148	keystroke_l	l	n/a
110.344	0.135	220688	keystroke_p	p	n/a
110.6735	0.06	221347	keystroke_h	h	n/a
110.8685	0.105	221737	keystroke_i	i	n/a
110.9585	0.135	221917	keystroke_a	a	n/a
111.1235	0.105	222247	keystroke_Key.space	Key.space	n/a
111.4385	0.105	222877	keystroke_h	h	n/a
111.6785	0.135	223357	keystroke_r	r	n/a
111.799	0.1045	223598	keystroke_e	e	n/a
112.0385	0.105	224077	keystroke_f	f	n/a
112.2185	0.105	224437	keystroke_Key.space	Key.space	n/a
112.3835	0.105	224767	keystroke_c	c	n/a
112.5485	0.15	225097	keystroke_a	a	n/a
112.7135	0.165	225427	keystroke_l	l	n/a
112.8335	0.105	225667	keystroke_i	i	n/a
113.0435	0.135	226087	keystroke_b	b	n/a
113.1485	0.105	226297	keystroke_r	r	n/a
113.2835	0.151	226567	keystroke_a	a	n/a
113.4935	0.135	226987	keystroke_t	t	n/a
113.5985	0.15	227197	keystroke_i	i	n/a
113.7185	0.135	227437	keystroke_o	o	n/a
113.8085	0.105	227617	keystroke_n	n	n/a
114.1085	0.06	228217	keystroke_Key.enter	Key.enter	n/a
114.174	6.5815	228348	prompt	n/a	boost copyrights scientists meant\n
114.7835	0.09	229567	keystroke_b	b	n/a
114.9785	0.105	229957	keystroke_o	o	n/a
115.1885	0.105	230377	keystroke_o	o	n/a
115.3085	0.105	230617	keystroke_s	s	n/a
115.5335	0.09	231067	keystroke_t	t	n/a
115.6835	0.12	231367	keystroke_Key.space	Key.space	n/a
115.8635	0.105	231727	keystroke_c	c	n/a
116.1485	0.09	232297	keystroke_o	o	n/a
116.3435	0.105	232687	keystroke_p	p	n/a
116.4185	0.12	232837	keystroke_y	y	n/a
116.7485	0.09	233497	keystroke_r	r	n/a
116.8985	0.12	233797	keystroke_i	i	n/a
117.0335	0.105	234067	keystroke_g	g	n/a
117.1535	0.12	234307	keystroke_h	h	n/a
117.2745	0.104	234549	keystroke_t	t	n/a
117.5435	0.12	235087	keystroke_s	s	n/a
117.6785	0.105	235357	keystroke_Key.space	Key.space	n/a
117.8435	0.09	235687	keystroke_s	s	n/a
118.0535	0.105	236107	keystroke_c	c	n/a
118.1435	0.105	236287	keystroke_i	i	n/a
118.2935	0.12	236587	keystroke_e	e	n/a
118.4435	0.12	236887	keystroke_n	n	n/a
118.5485	0.105	237097	keystroke_t	t	n/a
118.8185	0.105	237637	keystroke_i	i	n/a
118.8785	0.12	237757	keystroke_s	s	n/a
119.1335	0.105	238267	keystroke_t	t	n/a
119.3435	0.15	238687	keystroke_s	s	n/a
119.5235	0.12	239047	keystroke_Key.space	Key.space	n/a
119.7785	0.12	239557	keystroke_m	m	n/a
119.8685	0.075	239737	keystroke_e	e	n/a
120.0635	0.12	240127	keystroke_a	a	n/a
120.1235	0.09	240247	keystroke_n	n	n/a
120.4085	0.09	240817	keystroke_t	t	n/a
120.6785	0.075	241357	keystroke_Key.enter	Key.enter	n/a
120.758	6.672	241516	prompt	n/a	lambda harley assured widescreen\n
121.3535	0.12	242707	keystroke_l	l	n/a
121.5035	0.135	243007	keystroke_a	a	n/a
121.7435	0.12	243487	keystroke_m	m	n/a
121.9685	0.105	243937	keystroke_b	b	n/a
122.1935	0.1205	244387	keystroke_d	d	n/a
122.5535	0.12	245107	keystroke_a	a	n/a
122.7335	0.105	245467	keystroke_Key.space	Key.space	n/a
122.8835	0.135	245767	keystroke_h	h	n/a
123.0635	0.09	246127	keystroke_a	a	n/a
123.1685	0.105	246337	keystroke_r	r	n/a
123.2885	0.165	246577	keystroke_l	l	n/a
123.4985	0.09	246997	keystroke_e	e	n/a
123.6935	0.12	247387	keystroke_y	y	n/a
123.8435	0.12	247687	keystroke_Key.space	Key.space	n/a
124.0085	0.135	248017	keystroke_a	a	n/a
124.2635	0.075	248527	keystroke_s	s	n/a
124.4435	0.075	248887	keystroke_s	s	n/a
124.5335	0.09	249067	keystroke_u	u	n/a
124.6685	0.09	249337	keystroke_r	r	n/a
124.8635	0.075	249727	keystroke_e	e	n/a
125.074	0.09	250148	keystroke_d	d	n/a
125.194	0.12	250388	keystroke_Key.space	Key.space	n/a
125.389	0.105	250778	keystroke_w	w	n/a
125.569	0.12	251138	keystroke_i	i	n/a
125.704	0.105	251408	keystroke_d	d	n/a
125.929	0.135	251858	keystroke_e	e	n/a
126.094	0.105	252188	keystroke_s	s	n/a
126.319	0.0895	252638	keystroke_c	c	n/a
126.559	0.09	253118	keystroke_r	r	n/a
126.784	0.09	253568	keystroke_e	e	n/a
126.979	0.075	253958	keystroke_e	e	n/a
127.084	0.09	254168	keystroke_n	n	n/a
127.369	0.06	254738	keystroke_Key.enter	Key.enter	n/a
127.4325	5.338	254865	prompt	n/a	petition ralph wearing loop\n
128.104	0.135	256208	keystroke_p	p	n/a
128.209	0.105	256418	keystroke_e	e	n/a
128.404	0.105	256808	keystroke_t	t	n/a
128.509	0.105	257018	keystroke_i	i	n/a
128.614	0.135	257228	keystroke_t	t	n/a
128.734	0.18	257468	keystroke_i	i	n/a
128.899	0.165	257798	keystroke_o	o	n/a
129.019	0.15	258038	keystroke_n	n	n/a
129.154	0.15	258308	keystroke_Key.space	Key.space	n/a
129.289	0.09	258578	keystroke_r	r	n/a
129.409	0.18	258818	keystroke_a	a	n/a
129.7685	0.1055	259537	keystroke_l	l	n/a
130.009	0.105	260018	keystroke_p	p	n/a
130.234	0.135	260468	keystroke_h	h	n/a
130.414	0.12	260828	keystroke_Key.space	Key.space	n/a
130.759	0.165	261518	keystroke_w	w	n/a
130.894	0.105	261788	keystroke_e	e	n/a
131.044	0.18	262088	keystroke_a	a	n/a
131.164	0.105	262328	keystroke_r	r	n/a
131.299	0.165	262598	keystroke_i	i	n/a
131.479	0.135	262958	keystroke_n	n	n/a
131.629	0.135	263258	keystroke_g	g	n/a
131.809	0.09	263618	keystroke_Key.space	Key.space	n/a
132.004	0.09	264008	keystroke_l	l	n/a
132.154	0.075	264308	keystroke_o	o	n/a
132.319	0.15	264638	keystroke_o	o	n/a
132.439	0.12	264878	keystroke_p	p	n/a
132.709	0.06	265418	keystroke_Key.enter	Key.enter	n/a
132.775	7.495	265550	prompt	n/a	older ipaq puzzles spyware\n
133.3535	0.09	266707	keystroke_o	o	n/a
133.5785	0.1205	267157	keystroke_l	l	n/a
133.654	0.1045	267308	keystroke_d	d	n/a
133.8935	0.15	267787	keystroke_e	e	n/a
133.9835	0.15	267967	keystroke_r	r	n/a
134.1635	0.135	268327	keystroke_Key.space	Key.space	n/a
134.3885	0.105	268777	keystroke_i	i	n/a
134.644	0.105	269288	keystroke_p	p	n/a
134.734	0.1205	269468	keystroke_a	a	n/a
134.974	0.075	269948	keystroke_g	g	n/a
135.334	0.075	270668	keystroke_Key.backspace	Key.backspace	n/a
135.469	0.105	270938	keystroke_q	q	n/a
135.709	0.09	271418	keystroke_Key.space	Key.space	n/a
136.249	0.105	272498	keystroke_p	p	n/a
136.474	0.105	272948	keystroke_u	u	n/a
136.669	0.09	273338	keystroke_z	z	n/a
136.849	0.0895	273698	keystroke_z	z	n/a
136.9985	0.105	273997	keystroke_l	l	n/a
137.1635	0.21	274327	keystroke_e	e	n/a
137.2985	0.1355	274597	keystroke_s	s	n/a
137.5085	0.12	275017	keystroke_Key.space	Key.space	n/a
137.8535	0.12	275707	keystroke_s	s	n/a
138.0635	0.09	276127	keystroke_p	p	n/a
138.1835	0.09	276367	keystroke_a	a	n/a
138.4385	0.12	276877	keystroke_y	y	n/a
138.9635	0.045	277927	keystroke_Key.backspace	Key.backspace	n/a
139.1135	0.075	278227	keystroke_Key.backspace	Key.backspace	n/a
139.2335	0.105	278467	keystroke_y	y	n/a
139.4885	0.165	278977	keystroke_w	w	n/a
139.5785	0.15	279157	keystroke_a	a	n/a
139.8035	0.18	279607	keystroke_r	r	n/a
139.8935	0.165	279787	keystroke_e	e	n/a
140.1935	0.075	280387	keystroke_Key.enter	Key.enter	n/a
140.2755	6.0995	280551	prompt	n/a	around swingers heaven waiver\n
140.929	0.195	281858	keystroke_a	a	n/a
141.079	0.135	282158	keystroke_r	r	n/a
141.244	0.135	282488	keystroke_o	o	n/a
141.349	0.135	282698	keystroke_u	u	n/a
141.409	0.195	282818	keystroke_n	n	n/a
141.529	0.105	283058	keystroke_d	d	n/a
141.664	0.105	283328	keystroke_Key.space	Key.space	n/a
141.784	0.12	283568	keystroke_s	s	n/a
142.024	0.105	284048	keystroke_w	w	n/a
142.144	0.15	284288	keystroke_i	i	n/a
142.339	0.15	284678	keystroke_n	n	n/a
142.429	0.105	284858	keystroke_g	g	n/a
142.684	0.12	285368	keystroke_s	s	n/a
143.074	0.09	286148	keystroke_Key.backspace	Key.backspace	n/a
143.209	0.135	286418	keystroke_e	e	n/a
143.299	0.135	286598	keystroke_r	r	n/a
143.509	0.12	287018	keystroke_s	s	n/a
143.7345	0.119	287469	keystroke_Key.space	Key.space	n/a
143.9295	0.164	287859	keystroke_h	h	n/a
144.1085	0.045	288217	keystroke_e	e	n/a
144.4385	0.09	288877	keystroke_a	a	n/a
144.6485	0.12	289297	keystroke_v	v	n/a
144.8435	0.12	289687	keystroke_e	e	n/a
144.9785	0.165	289957	keystroke_n	n	n/a
145.1285	0.12	290257	keystroke_Key.space	Key.space	n/a
145.2185	0.09	290437	keystroke_w	w	n/a
145.4585	0.105	290917	keystroke_a	a	n/a
145.6085	0.1205	291217	keystroke_i	i	n/a
145.759	0.09	291518	keystroke_v	v	n/a
145.954	0.165	291908	keystroke_e	e	n/a
146.059	0.12	292118	keystroke_r	r	n/a
146.299	0.075	292598	keystroke_Key.enter	Key.enter	n/a
146.3865	6.604	292773	prompt	n/a	steve essay facility restaurant\n
146.974	0.135	293948	keystroke_s	s	n/a
147.124	0.105	294248	keystroke_t	t	n/a
147.259	0.105	294518	keystroke_e	e	n/a
147.514	0.1205	295028	keystroke_v	v	n/a
147.664	0.105	295328	keystroke_e	e	n/a
147.814	0.105	295628	keystroke_Key.space	Key.space	n/a
147.904	0.105	295808	keystroke_e	e	n/a
148.039	0.135	296078	keystroke_s	s	n/a
148.2795	0.075	296559	keystroke_s	s	n/a
148.4745	0.09	296949	keystroke_a	a	n/a
148.7445	0.0895	297489	keystroke_y	y	n/a
149.014	0.105	298028	keystroke_Key.space	Key.space	n/a
149.329	0.09	298658	keystroke_f	f	n/a
149.479	0.135	298958	keystroke_a	a	n/a
149.644	0.105	299288	keystroke_i	i	n/a
149.854	0.21	299708	keystroke_l	l	n/a
149.989	0.135	299978	keystroke_i	i	n/a
150.094	0.045	300188	keystroke_t	t	n/a
150.274	0.12	300548	keystroke_y	y	n/a
150.559	0.1495	301118	keystroke_Key.space	Key.space	n/a
150.8585	0.091	301717	keystroke_r	r	n/a
150.9185	0.21	301837	keystroke_e	e	n/a
151.0535	0.135	302107	keystroke_s	s	n/a
151.2335	0.09	302467	keystroke_p	p	n/a
151.6235	0.09	303247	keystroke_Key.backspace	Key.backspace	n/a
151.7735	0.105	303547	keystroke_t	t	n/a
152.0135	0.105	304027	keystroke_a	a	n/a
152.1035	0.12	304207	keystroke_u	u	n/a
152.2535	0.12	304507	keystroke_r	r	n/a
152.4785	0.09	304957	keystroke_a	a	n/a
152.5535	0.075	305107	keystroke_n	n	n/a
152.7185	0.105	305437	keystroke_t	t	n/a
152.9435	0.045	305887	keystroke_Key.enter	Key.enter	n/a
152.994	7.9465	305988	prompt	n/a	speeds subsidiary ultimately conference\n
153.6485	0.12	307297	keystroke_s	s	n/a
153.7385	0.105	307477	keystroke_p	p	n/a
153.9335	0.075	307867	keystroke_e	e	n/a
154.0985	0.075	308197	keystroke_e	e	n/a
154.2935	0.165	308587	keystroke_d	d	n/a
154.4435	0.12	308887	keystroke_s	s	n/a
154.5935	0.105	309187	keystroke_Key.space	Key.space	n/a
154.7135	0.105	309427	keystroke_s	s	n/a
154.8335	0.12	309667	keystroke_u	u	n/a
154.9835	0.135	309967	keystroke_b	b	n/a
155.1335	0.15	310267	keystroke_s	s	n/a
155.2985	0.12	310597	keystroke_i	i	n/a
155.5835	0.135	311167	keystroke_d	d	n/a
155.8535	0.12	311707	keystroke_i	i	n/a
156.0035	0.165	312007	keystroke_a	a	n/a
156.2285	0.075	312457	keystroke_r	r	n/a
156.4685	0.105	312937	keystroke_y	y	n/a
156.6485	0.09	313297	keystroke_Key.space	Key.space	n/a
156.8135	0.105	313627	keystroke_u	u	n/a
157.0535	0.12	314107	keystroke_l	l	n/a
157.2335	0.106	314467	keystroke_t	t	n/a
157.3535	0.105	314707	keystroke_i	i	n/a
157.5045	0.089	315009	keystroke_e	e	n/a
158.0135	0.075	316027	keystroke_Key.backspace	Key.backspace	n/a
158.3135	0.076	316627	keystroke_m	m	n/a
158.3745	0.105	316749	keystroke_a	a	n/a
158.5395	0.134	317079	keystroke_t	t	n/a
158.6595	0.12	317319	keystroke_e	e	n/a
158.8095	0.089	317619	keystroke_l	l	n/a
158.9595	0.105	317919	keystroke_y	y	n/a
159.1235	0.105	318247	keystroke_Key.space	Key.space	n/a
159.2885	0.121	318577	keystroke_c	c	n/a
159.3785	0.135	318757	keystroke_o	o	n/a
159.4835	0.151	318967	keystroke_n	n	n/a
159.6195	0.12	319239	keystroke_f	f	n/a
159.9195	0.119	319839	keystroke_e	e	n/a
160.0685	0.15	320137	keystroke_r	r	n/a
160.2035	0.12	320407	keystroke_e	e	n/a
160.3545	0.104	320709	keystroke_n	n	n/a
160.4885	0.195	320977	keystroke_c	c	n/a
160.6385	0.105	321277	keystroke_e	e	n/a
160.8785	0.06	321757	keystroke_Key.enter	Key.enter	n/a
160.946	5.769	321892	prompt	n/a	summit shipment authority clara\n
161.4485	0.135	322897	keystroke_s	s	n/a
161.6285	0.09	323257	keystroke_u	u	n/a
161.8385	0.09	323677	keystroke_m	m	n/a
162.0035	0.106	324007	keystroke_m	m	n/a
162.1535	0.12	324307	keystroke_i	i	n/a
162.3185	0.135	324637	keystroke_t	t	n/a
162.5135	0.12	325027	keystroke_Key.space	Key.space	n/a
162.8585	0.1505	325717	keystroke_s	s	n/a
162.994	0.09	325988	keystroke_h	h	n/a
163.084	0.105	326168	keystroke_i	i	n/a
163.324	0.09	326648	keystroke_p	p	n/a
163.564	0.12	327128	keystroke_m	m	n/a
163.699	0.105	327398	keystroke_e	e	n/a
163.789	0.15	327578	keystroke_n	n	n/a
163.909	0.1195	327818	keystroke_t	t	n/a
164.0135	0.135	328027	keystroke_Key.space	Key.space	n/a
164.1785	0.135	328357	keystroke_a	a	n/a
164.3285	0.105	328657	keystroke_u	u	n/a
164.4635	0.136	328927	keystroke_t	t	n/a
164.5685	0.12	329137	keystroke_h	h	n/a
164.7485	0.105	329497	keystroke_o	o	n/a
164.8695	0.0895	329739	keystroke_r	r	n/a
164.989	0.15	329978	keystroke_i	i	n/a
165.229	0.105	330458	keystroke_t	t	n/a
165.529	0.105	331058	keystroke_y	y	n/a
165.724	0.12	331448	keystroke_Key.space	Key.space	n/a
165.904	0.135	331808	keystroke_c	c	n/a
166.024	0.15	332048	keystroke_l	l	n/a
166.144	0.15	332288	keystroke_a	a	n/a
166.249	0.15	332498	keystroke_r	r	n/a
166.444	0.075	332888	keystroke_a	a	n/a
166.669	0.045	333338	keystroke_Key.enter	Key.enter	n/a
166.7195	9.806	333439	prompt	n/a	explains solely predict cables\n
167.269	0.06	334538	keystroke_e	e	n/a
167.5685	0.075	335137	keystroke_p	p	n/a
167.8235	0.045	335647	keystroke_l	l	n/a
168.1685	0.09	336337	keystroke_Key.backspace	Key.backspace	n/a
168.2885	0.15	336577	keystroke_x	x	n/a
168.7685	0.06	337537	keystroke_Key.backspace	Key.backspace	n/a
168.9195	0.075	337839	keystroke_Key.backspace	Key.backspace	n/a
169.0095	0.18	338019	keystroke_x	x	n/a
169.2345	0.09	338469	keystroke_p	p	n/a
169.4595	0.1045	338919	keystroke_l	l	n/a
169.594	0.15	339188	keystroke_a	a	n/a
169.789	0.12	339578	keystroke_i	i	n/a
169.879	0.18	339758	keystroke_n	n	n/a
170.044	0.135	340088	keystroke_s	s	n/a
170.284	0.12	340568	keystroke_Key.space	Key.space	n/a
170.539	0.12	341078	keystroke_s	s	n/a
170.869	0.105	341738	keystroke_o	o	n/a
171.019	0.135	342038	keystroke_r	r	n/a
171.109	0.15	342218	keystroke_e	e	n/a
171.274	0.135	342548	keystroke_l	l	n/a
171.424	0.09	342848	keystroke_y	y	n/a
171.9795	0.06	343959	keystroke_Key.backspace	Key.backspace	n/a
172.2345	0.075	344469	keystroke_Key.backspace	Key.backspace	n/a
172.4145	0.075	344829	keystroke_Key.backspace	Key.backspace	n/a
172.6245	0.06	345249	keystroke_Key.backspace	Key.backspace	n/a
172.9995	0.165	345999	keystroke_l	l	n/a
173.1495	0.105	346299	keystroke_e	e	n/a
173.5395	0.135	347079	keystroke_l	l	n/a
173.6895	0.09	347379	keystroke_y	y	n/a
173.9435	0.135	347887	keystroke_Key.space	Key.space	n/a
174.2745	0.105	348549	keystroke_p	p	n/a
174.3645	0.105	348729	keystroke_r	r	n/a
174.4245	0.12	348849	keystroke_e	e	n/a
174.6795	0.09	349359	keystroke_d	d	n/a
174.7395	0.119	349479	keystroke_i	i	n/a
174.9945	0.12	349989	keystroke_c	c	n/a
175.2645	0.075	350529	keystroke_t	t	n/a
175.4295	0.119	350859	keystroke_Key.space	Key.space	n/a
175.5795	0.119	351159	keystroke_c	c	n/a
175.7145	0.134	351429	keystroke_a	a	n/a
175.8335	0.09	351667	keystroke_b	b	n/a
176.0585	0.121	352117	keystroke_l	l	n/a
176.1045	0.194	352209	keystroke_e	e	n/a
176.2395	0.134	352479	keystroke_s	s	n/a
176.4485	0.075	352897	keystroke_Key.enter	Key.enter	n/a
176.5335	8.692	353067	prompt	n/a	rochester meetup notion porcelain\n
177.2435	0.09	354487	keystroke_r	r	n/a
177.3495	0.194	354699	keystroke_o	o	n/a
177.6035	0.105	355207	keystroke_c	c	n/a
177.6635	0.1205	355327	keystroke_h	h	n/a
177.8435	0.166	355687	keystroke_e	e	n/a
177.9635	0.15	355927	keystroke_s	s	n/a
178.159	0.105	356318	keystroke_t	t	n/a
178.384	0.15	356768	keystroke_e	e	n/a
178.429	0.135	356858	keystroke_r	r	n/a
178.609	0.12	357218	keystroke_Key.space	Key.space	n/a
178.849	0.15	357698	keystroke_m	m	n/a
178.879	0.105	357758	keystroke_e	e	n/a
179.119	0.09	358238	keystroke_e	e	n/a
179.299	0.135	358598	keystroke_t	t	n/a
179.509	0.135	359018	keystroke_u	u	n/a
179.659	0.135	359318	keystroke_p	p	n/a
179.779	0.15	359558	keystroke_Key.space	Key.space	n/a
180.124	0.075	360248	keystroke_n	n	n/a
180.214	0.135	360428	keystroke_o	o	n/a
180.379	0.15	360758	keystroke_t	t	n/a
180.484	0.21	360968	keystroke_i	i	n/a
180.649	0.21	361298	keystroke_o	o	n/a
180.769	0.225	361538	keystroke_n	n	n/a
181.114	0.12	362228	keystroke_Key.space	Key.space	n/a
181.639	0.09	363278	keystroke_p	p	n/a
181.864	0.105	363728	keystroke_o	o	n/a
182.179	0.045	364358	keystroke_r	r	n/a
183.379	0.015	366758	keystroke_c	c	n/a
183.529	0.15	367058	keystroke_e	e	n/a
183.799	0.12	367598	keystroke_l	l	n/a
184.054	0.09	368108	keystroke_i	i	n/a
184.459	0.045	368918	keystroke_Key.backspace	Key.backspace	n/a
184.564	0.135	369128	keystroke_a	a	n/a
184.729	0.15	369458	keystroke_i	i	n/a
184.834	0.12	369668	keystroke_n	n	n/a
185.149	0.075	370298	keystroke_Key.enter	Key.enter	n/a
185.2285	6.087	370457	prompt	n/a	molecular lesson meaning this's\n
185.869	0.105	371738	keystroke_m	m	n/a
186.079	0.12	372158	keystroke_o	o	n/a
186.319	0.12	372638	keystroke_l	l	n/a
186.44	0.104	372880	keystroke_e	e	n/a
186.709	0.15	373418	keystroke_c	c	n/a
187.144	0.075	374288	keystroke_u	u	n/a
187.369	0.15	374738	keystroke_l	l	n/a
187.504	0.12	375008	keystroke_a	a	n/a
187.654	0.105	375308	keystroke_r	r	n/a
187.789	0.135	375578	keystroke_Key.space	Key.space	n/a
187.969	0.165	375938	keystroke_l	l	n/a
188.059	0.12	376118	keystroke_e	e	n/a
188.254	0.09	376508	keystroke_s	s	n/a
188.449	0.09	376898	keystroke_s	s	n/a
188.584	0.165	377168	keystroke_o	o	n/a
188.659	0.195	377318	keystroke_n	n	n/a
188.869	0.135	377738	keystroke_Key.space	Key.space	n/a
189.079	0.18	378158	keystroke_m	m	n/a
189.199	0.075	378398	keystroke_e	e	n/a
189.379	0.12	378758	keystroke_a	a	n/a
189.484	0.09	378968	keystroke_n	n	n/a
189.634	0.15	379268	keystroke_i	i	n/a
189.769	0.15	379538	keystroke_n	n	n/a
189.934	0.105	379868	keystroke_g	g	n/a
190.024	0.15	380048	keystroke_Key.space	Key.space	n/a
190.234	0.105	380468	keystroke_t	t	n/a
190.294	0.165	380588	keystroke_h	h	n/a
190.414	0.15	380828	keystroke_i	i	n/a
190.549	0.165	381098	keystroke_s	s	n/a
190.744	0.135	381488	keystroke_'	'	n/a
190.924	0.15	381848	keystroke_s	s	n/a
191.254	0.06	382508	keystroke_Key.enter	Key.enter	n/a
191.318	7.3775	382636	prompt	n/a	ticket poison sucking loving\n
192.019	0.09	384038	keystroke_t	t	n/a
192.124	0.12	384248	keystroke_i	i	n/a
192.319	0.12	384638	keystroke_c	c	n/a
192.409	0.15	384818	keystroke_k	k	n/a
192.544	0.15	385088	keystroke_e	e	n/a
192.649	0.15	385298	keystroke_t	t	n/a
192.784	0.136	385568	keystroke_Key.space	Key.space	n/a
192.964	0.136	385928	keystroke_p	p	n/a
193.144	0.106	386288	keystroke_o	o	n/a
193.264	0.12	386528	keystroke_s	s	n/a
193.385	0.134	386770	keystroke_i	i	n/a
194.434	0.075	388868	keystroke_Key.backspace	Key.backspace	n/a
194.704	0.12	389408	keystroke_o	o	n/a
195.1095	0.06	390219	keystroke_Key.backspace	Key.backspace	n/a
195.2595	0.09	390519	keystroke_Key.backspace	Key.backspace	n/a
195.664	0.1055	391328	keystroke_i	i	n/a
195.7845	0.1345	391569	keystroke_s	s	n/a
195.9495	0.18	391899	keystroke_o	o	n/a
196.0995	0.149	392199	keystroke_n	n	n/a
196.2945	0.135	392589	keystroke_Key.space	Key.space	n/a
196.6095	0.135	393219	keystroke_s	s	n/a
196.7145	0.09	393429	keystroke_u	u	n/a
196.8485	0.1505	393697	keystroke_c	c	n/a
196.984	0.105	393968	keystroke_k	k	n/a
197.194	0.105	394388	keystroke_i	i	n/a
197.269	0.225	394538	keystroke_n	n	n/a
197.464	0.09	394928	keystroke_g	g	n/a
197.584	0.135	395168	keystroke_Key.space	Key.space	n/a
197.749	0.15	395498	keystroke_l	l	n/a
197.884	0.09	395768	keystroke_o	o	n/a
197.975	0.104	395950	keystroke_v	v	n/a
198.124	0.15	396248	keystroke_i	i	n/a
198.244	0.135	396488	keystroke_n	n	n/a
198.364	0.136	396728	keystroke_g	g	n/a
198.634	0.06	397268	keystroke_Key.enter	Key.enter	n/a
198.6985	7.332	397397	prompt	n/a	considering populations simply sees\n
199.309	0.105	398618	keystroke_c	c	n/a
199.429	0.135	398858	keystroke_o	o	n/a
199.459	0.18	398918	keystroke_n	n	n/a
199.774	0.12	399548	keystroke_s	s	n/a
199.924	0.105	399848	keystroke_i	i	n/a
200.044	0.105	400088	keystroke_d	d	n/a
200.269	0.15	400538	keystroke_e	e	n/a
200.374	0.165	400748	keystroke_r	r	n/a
200.554	0.135	401108	keystroke_i	i	n/a
200.644	0.18	401288	keystroke_n	n	n/a
200.779	0.135	401558	keystroke_g	g	n/a
200.915	0.119	401830	keystroke_Key.space	Key.space	n/a
201.049	0.165	402098	keystroke_p	p	n/a
201.169	0.18	402338	keystroke_o	o	n/a
201.334	0.105	402668	keystroke_p	p	n/a
201.559	0.09	403118	keystroke_u	u	n/a
201.784	0.12	403568	keystroke_l	l	n/a
201.889	0.075	403778	keystroke_a	a	n/a
202.024	0.135	404048	keystroke_t	t	n/a
202.144	0.165	404288	keystroke_i	i	n/a
202.294	0.135	404588	keystroke_o	o	n/a
202.384	0.165	404768	keystroke_n	n	n/a
202.519	0.135	405038	keystroke_s	s	n/a
202.669	0.135	405338	keystroke_Key.space	Key.space	n/a
202.834	0.135	405668	keystroke_s	s	n/a
202.924	0.105	405848	keystroke_i	i	n/a
203.104	0.1355	406208	keystroke_m	m	n/a
203.2695	0.075	406539	keystroke_p	p	n/a
203.4795	0.12	406959	keystroke_l	l	n/a
203.5695	0.105	407139	keystroke_y	y	n/a
203.6895	0.15	407379	keystroke_Key.space	Key.space	n/a
203.8545	0.18	407709	keystroke_s	s	n/a
204.0495	0.075	408099	keystroke_e	e	n/a
204.2295	0.09	408459	keystroke_s	s	n/a
204.4245	0.075	408849	keystroke_s	s	n/a
205.3845	0.075	410769	keystroke_Key.backspace	Key.backspace	n/a
205.549	0.105	411098	keystroke_Key.backspace	Key.backspace	n/a
205.609	0.18	411218	keystroke_e	e	n/a
205.759	0.135	411518	keystroke_s	s	n/a
205.954	0.075	411908	keystroke_Key.enter	Key.enter	n/a
206.035	10.2105	412070	prompt	n/a	delivers planes lithuania displays\n
206.6885	0.1355	413377	keystroke_d	d	n/a
206.779	0.06	413558	keystroke_i	i	n/a
207.214	0.06	414428	keystroke_Key.backspace	Key.backspace	n/a
207.349	0.105	414698	keystroke_e	e	n/a
207.514	0.195	415028	keystroke_l	l	n/a
207.634	0.165	415268	keystroke_i	i	n/a
207.8	0.059	415600	keystroke_v	v	n/a
207.964	0.135	415928	keystroke_e	e	n/a
208.054	0.15	416108	keystroke_r	r	n/a
208.234	0.135	416468	keystroke_s	s	n/a
208.37	0.134	416740	keystroke_Key.space	Key.space	n/a
208.534	0.09	417068	keystroke_p	p	n/a
208.759	0.09	417518	keystroke_l	l	n/a
208.834	0.105	417668	keystroke_a	a	n/a
208.984	0.15	417968	keystroke_n	n	n/a
209.164	0.12	418328	keystroke_c	c	n/a
209.344	0.165	418688	keystroke_e	e	n/a
209.764	0.075	419528	keystroke_Key.backspace	Key.backspace	n/a
209.929	0.09	419858	keystroke_Key.backspace	Key.backspace	n/a
210.079	0.165	420158	keystroke_e	e	n/a
210.274	0.165	420548	keystroke_s	s	n/a
210.574	0.135	421148	keystroke_Key.space	Key.space	n/a
210.934	0.105	421868	keystroke_l	l	n/a
211.129	0.135	422258	keystroke_i	i	n/a
211.324	0.12	422648	keystroke_t	t	n/a
212.164	0.12	424328	keystroke_h	h	n/a
212.449	0.105	424898	keystroke_u	u	n/a
212.689	0.135	425378	keystroke_a	a	n/a
212.884	0.12	425768	keystroke_n	n	n/a
213.454	0.12	426908	keystroke_i	i	n/a
213.679	0.165	427358	keystroke_a	a	n/a
213.994	0.075	427988	keystroke_Key.space	Key.space	n/a
214.219	0.105	428438	keystroke_d	d	n/a
214.324	0.105	428648	keystroke_i	i	n/a
214.444	0.12	428888	keystroke_s	s	n/a
214.609	0.09	429218	keystroke_p	p	n/a
214.834	0.105	429668	keystroke_l	l	n/a
214.864	0.12	429728	keystroke_a	a	n/a
215.119	0.09	430238	keystroke_y	y	n/a
215.329	0.075	430658	keystroke_e	e	n/a
215.854	0.075	431708	keystroke_Key.backspace	Key.backspace	n/a
215.944	0.12	431888	keystroke_s	s	n/a
216.139	0.105	432278	keystroke_Key.enter	Key.enter	n/a
216.2485	6.612	432497	prompt	n/a	lightbox scheduled handbags infants\n
216.874	0.1795	433748	keystroke_l	l	n/a
217.0085	0.12	434017	keystroke_i	i	n/a
217.1435	0.075	434287	keystroke_g	g	n/a
217.2335	0.12	434467	keystroke_h	h	n/a
217.3545	0.134	434709	keystroke_t	t	n/a
217.5185	0.135	435037	keystroke_b	b	n/a
217.744	0.1195	435488	keystroke_o	o	n/a
217.8785	0.15	435757	keystroke_x	x	n/a
218.0585	0.12	436117	keystroke_Key.space	Key.space	n/a
218.2685	0.12	436537	keystroke_s	s	n/a
218.5385	0.12	437077	keystroke_c	c	n/a
218.6735	0.12	437347	keystroke_h	h	n/a
218.8235	0.075	437647	keystroke_e	e	n/a
219.0335	0.105	438067	keystroke_d	d	n/a
219.1235	0.075	438247	keystroke_u	u	n/a
219.3485	0.135	438697	keystroke_l	l	n/a
219.4535	0.075	438907	keystroke_e	e	n/a
219.664	0.105	439328	keystroke_d	d	n/a
219.769	0.15	439538	keystroke_Key.space	Key.space	n/a
219.964	0.105	439928	keystroke_h	h	n/a
220.084	0.105	440168	keystroke_a	a	n/a
220.219	0.12	440438	keystroke_n	n	n/a
220.324	0.165	440648	keystroke_d	d	n/a
220.579	0.135	441158	keystroke_b	b	n/a
220.744	0.12	441488	keystroke_a	a	n/a
221.014	0.075	442028	keystroke_g	g	n/a
221.284	0.105	442568	keystroke_s	s	n/a
221.494	0.105	442988	keystroke_Key.space	Key.space	n/a
221.704	0.15	443408	keystroke_i	i	n/a
221.809	0.15	443618	keystroke_n	n	n/a
221.944	0.075	443888	keystroke_f	f	n/a
222.109	0.105	444218	keystroke_a	a	n/a
222.184	0.135	444368	keystroke_n	n	n/a
222.364	0.105	444728	keystroke_t	t	n/a
222.589	0.105	445178	keystroke_s	s	n/a
222.784	0.075	445568	keystroke_Key.enter	Key.enter	n/a
222.863	7.4075	445726	prompt	n/a	killed exemption mineral animals\n
223.3985	0.075	446797	keystroke_l	l	n/a
223.7885	0.06	447577	keystroke_Key.backspace	Key.backspace	n/a
224.0285	0.09	448057	keystroke_k	k	n/a
224.2535	0.09	448507	keystroke_i	i	n/a
224.4635	0.12	448927	keystroke_l	l	n/a
224.6435	0.12	449287	keystroke_l	l	n/a
224.7785	0.045	449557	keystroke_e	e	n/a
224.974	0.12	449948	keystroke_d	d	n/a
225.109	0.135	450218	keystroke_Key.space	Key.space	n/a
225.379	0.105	450758	keystroke_e	e	n/a
225.604	0.135	451208	keystroke_x	x	n/a
225.889	0.135	451778	keystroke_e	e	n/a
225.994	0.165	451988	keystroke_m	m	n/a
226.189	0.105	452378	keystroke_p	p	n/a
226.369	0.075	452738	keystroke_t	t	n/a
226.609	0.15	453218	keystroke_i	i	n/a
226.744	0.195	453488	keystroke_o	o	n/a
226.894	0.18	453788	keystroke_n	n	n/a
227.089	0.135	454178	keystroke_Key.space	Key.space	n/a
227.344	0.135	454688	keystroke_m	m	n/a
227.434	0.18	454868	keystroke_i	i	n/a
227.599	0.15	455198	keystroke_n	n	n/a
227.869	0.165	455738	keystroke_e	e	n/a
227.974	0.1505	455948	keystroke_r	r	n/a
228.1995	0.12	456399	keystroke_a	a	n/a
228.2745	0.15	456549	keystroke_l	l	n/a
228.4845	0.18	456969	keystroke_Key.space	Key.space	n/a
228.889	0.135	457778	keystroke_a	a	n/a
229.009	0.09	458018	keystroke_n	n	n/a
229.264	0.075	458528	keystroke_i	i	n/a
229.504	0.09	459008	keystroke_m	m	n/a
229.654	0.105	459308	keystroke_a	a	n/a
229.804	0.15	459608	keystroke_l	l	n/a
229.969	0.135	459938	keystroke_s	s	n/a
230.209	0.06	460418	keystroke_Key.enter	Key.enter	n/a
230.2785	6.802	460557	prompt	n/a	expiration someone's ambien shop\n
230.884	0.09	461768	keystroke_e	e	n/a
231.154	0.135	462308	keystroke_x	x	n/a
231.334	0.105	462668	keystroke_p	p	n/a
231.739	0.09	463478	keystroke_i	i	n/a
231.949	0.105	463898	keystroke_r	r	n/a
232.114	0.135	464228	keystroke_a	a	n/a
232.354	0.106	464708	keystroke_t	t	n/a
232.444	0.135	464888	keystroke_i	i	n/a
232.594	0.135	465188	keystroke_o	o	n/a
232.654	0.195	465308	keystroke_n	n	n/a
232.834	0.15	465668	keystroke_Key.space	Key.space	n/a
232.924	0.15	465848	keystroke_s	s	n/a
233.089	0.18	466178	keystroke_o	o	n/a
233.194	0.165	466388	keystroke_m	m	n/a
233.389	0.12	466778	keystroke_e	e	n/a
233.554	0.135	467108	keystroke_o	o	n/a
233.629	0.165	467258	keystroke_n	n	n/a
233.899	0.075	467798	keystroke_e	e	n/a
234.019	0.12	468038	keystroke_'	'	n/a
234.454	0.075	468908	keystroke_s	s	n/a
234.694	0.135	469388	keystroke_Key.space	Key.space	n/a
234.9035	0.15	469807	keystroke_a	a	n/a
235.0385	0.12	470077	keystroke_m	m	n/a
235.3085	0.135	470617	keystroke_b	b	n/a
235.5785	0.1205	471157	keystroke_i	i	n/a
235.714	0.135	471428	keystroke_e	e	n/a
235.879	0.135	471758	keystroke_n	n	n/a
236.029	0.12	472058	keystroke_Key.space	Key.space	n/a
236.134	0.135	472268	keystroke_s	s	n/a
236.239	0.165	472478	keystroke_h	h	n/a
236.419	0.135	472838	keystroke_o	o	n/a
236.689	0.12	473378	keystroke_p	p	n/a
236.9895	0.09	473979	keystroke_Key.enter	Key.enter	n/a
237.0835	9.177	474167	prompt	n/a	lodging believed quest symposium\n
237.6945	0.165	475389	keystroke_l	l	n/a
237.8445	0.15	475689	keystroke_o	o	n/a
238.0245	0.135	476049	keystroke_d	d	n/a
238.2645	0.12	476529	keystroke_g	g	n/a
238.4145	0.15	476829	keystroke_i	i	n/a
238.6395	0.18	477279	keystroke_n	n	n/a
238.8045	0.12	477609	keystroke_g	g	n/a
238.9695	0.135	477939	keystroke_Key.space	Key.space	n/a
239.1945	0.1045	478389	keystroke_b	b	n/a
239.344	0.075	478688	keystroke_e	e	n/a
239.434	0.195	478868	keystroke_l	l	n/a
239.554	0.165	479108	keystroke_i	i	n/a
239.734	0.105	479468	keystroke_v	v	n/a
239.914	0.09	479828	keystroke_e	e	n/a
240.154	0.105	480308	keystroke_d	d	n/a
240.604	0.06	481208	keystroke_Key.backspace	Key.backspace	n/a
240.799	0.045	481598	keystroke_Key.backspace	Key.backspace	n/a
240.949	0.06	481898	keystroke_Key.backspace	Key.backspace	n/a
241.084	0.105	482168	keystroke_Key.backspace	Key.backspace	n/a
241.249	0.09	482498	keystroke_e	e	n/a
241.699	0.06	483398	keystroke_Key.backspace	Key.backspace	n/a
241.924	0.135	483848	keystroke_i	i	n/a
242.044	0.105	484088	keystroke_e	e	n/a
242.299	0.09	484598	keystroke_v	v	n/a
242.479	0.09	484958	keystroke_e	e	n/a
242.704	0.12	485408	keystroke_d	d	n/a
242.899	0.12	485798	keystroke_Key.space	Key.space	n/a
243.109	0.09	486218	keystroke_q	q	n/a
243.199	0.15	486398	keystroke_u	u	n/a
243.424	0.165	486848	keystroke_e	e	n/a
243.574	0.21	487148	keystroke_s	s	n/a
243.694	0.15	487388	keystroke_t	t	n/a
243.919	0.105	487838	keystroke_Key.space	Key.space	n/a
244.144	0.135	488288	keystroke_s	s	n/a
244.429	0.105	488858	keystroke_y	y	n/a
244.654	0.09	489308	keystroke_m	m	n/a
244.909	0.195	489818	keystroke_p	p	n/a
245.029	0.135	490058	keystroke_o	o	n/a
245.209	0.12	490418	keystroke_s	s	n/a
245.344	0.105	490688	keystroke_i	i	n/a
245.644	0.075	491288	keystroke_u	u	n/a
245.884	0.06	491768	keystroke_m	m	n/a
246.199	0.06	492398	keystroke_Key.enter	Key.enter	n/a
246.264	7.212	492528	prompt	n/a	deal logitech accommodate security\n
246.814	0.09	493628	keystroke_d	d	n/a
247.009	0.0755	494018	keystroke_e	e	n/a
247.204	0.1205	494408	keystroke_a	a	n/a
247.2645	0.1645	494529	keystroke_l	l	n/a
247.3545	0.2245	494709	keystroke_Key.space	Key.space	n/a
247.699	0.09	495398	keystroke_l	l	n/a
248.0895	0.105	496179	keystroke_o	o	n/a
248.2545	0.12	496509	keystroke_g	g	n/a
248.4645	0.12	496929	keystroke_i	i	n/a
248.6145	0.1055	497229	keystroke_t	t	n/a
248.9295	0.105	497859	keystroke_e	e	n/a
249.2445	0.12	498489	keystroke_c	c	n/a
249.3795	0.135	498759	keystroke_h	h	n/a
249.5595	0.12	499119	keystroke_Key.space	Key.space	n/a
249.9195	0.105	499839	keystroke_a	a	n/a
250.1445	0.09	500289	keystroke_c	c	n/a
250.3095	0.105	500619	keystroke_c	c	n/a
250.4295	0.195	500859	keystroke_o	o	n/a
250.5645	0.12	501129	keystroke_m	m	n/a
250.7595	0.1205	501519	keystroke_m	m	n/a
251.0145	0.12	502029	keystroke_o	o	n/a
251.1045	0.105	502209	keystroke_d	d	n/a
251.3145	0.105	502629	keystroke_a	a	n/a
251.4945	0.135	502989	keystroke_t	t	n/a
251.6145	0.12	503229	keystroke_e	e	n/a
251.7795	0.105	503559	keystroke_Key.space	Key.space	n/a
251.8695	0.21	503739	keystroke_s	s	n/a
252.0345	0.105	504069	keystroke_e	e	n/a
252.2895	0.12	504579	keystroke_c	c	n/a
252.4245	0.105	504849	keystroke_u	u	n/a
252.6195	0.09	505239	keystroke_r	r	n/a
252.7545	0.1645	505509	keystroke_i	i	n/a
252.904	0.075	505808	keystroke_t	t	n/a
253.114	0.09	506228	keystroke_y	y	n/a
253.384	0.09	506768	keystroke_Key.enter	Key.enter	n/a
253.4785	6.387	506957	prompt	n/a	matrix sing heritage keeps\n
254.194	0.135	508388	keystroke_m	m	n/a
254.374	0.09	508748	keystroke_a	a	n/a
254.554	0.1055	509108	keystroke_t	t	n/a
254.764	0.121	509528	keystroke_r	r	n/a
254.9	0.135	509800	keystroke_i	i	n/a
255.095	0.12	510190	keystroke_x	x	n/a
255.395	0.12	510790	keystroke_Key.space	Key.space	n/a
255.59	0.105	511180	keystroke_s	s	n/a
255.68	0.135	511360	keystroke_i	i	n/a
255.785	0.1645	511570	keystroke_n	n	n/a
255.9195	0.135	511839	keystroke_g	g	n/a
256.0395	0.18	512079	keystroke_Key.space	Key.space	n/a
256.2645	0.135	512529	keystroke_h	h	n/a
256.4145	0.195	512829	keystroke_e	e	n/a
256.5645	0.105	513129	keystroke_r	r	n/a
256.7745	0.105	513549	keystroke_t	t	n/a
257.0595	0.105	514119	keystroke_i	i	n/a
257.284	0.09	514568	keystroke_g	g	n/a
257.629	0.135	515258	keystroke_a	a	n/a
257.974	0.06	515948	keystroke_Key.backspace	Key.backspace	n/a
258.124	0.105	516248	keystroke_Key.backspace	Key.backspace	n/a
258.244	0.045	516488	keystroke_a	a	n/a
258.454	0.105	516908	keystroke_g	g	n/a
258.649	0.12	517298	keystroke_e	e	n/a
258.784	0.12	517568	keystroke_Key.space	Key.space	n/a
259.0095	0.135	518019	keystroke_k	k	n/a
259.1295	0.075	518259	keystroke_e	e	n/a
259.3095	0.105	518619	keystroke_e	e	n/a
259.3995	0.105	518799	keystroke_p	p	n/a
259.5645	0.12	519129	keystroke_s	s	n/a
259.8045	0.059	519609	keystroke_Key.enter	Key.enter	n/a
259.868	8.023	519736	prompt	n/a	camera queue recovery solutions\n
260.615	0.12	521230	keystroke_c	c	n/a
260.75	0.12	521500	keystroke_a	a	n/a
261.0795	0.1795	522159	keystroke_e	e	n/a
261.184	0.12	522368	keystroke_r	r	n/a
261.529	0.075	523058	keystroke_Key.backspace	Key.backspace	n/a
261.694	0.075	523388	keystroke_Key.backspace	Key.backspace	n/a
261.949	0.135	523898	keystroke_m	m	n/a
262.129	0.165	524258	keystroke_e	e	n/a
262.219	0.135	524438	keystroke_r	r	n/a
262.564	0.105	525128	keystroke_a	a	n/a
262.759	0.12	525518	keystroke_Key.space	Key.space	n/a
263.014	0.105	526028	keystroke_q	q	n/a
263.134	0.105	526268	keystroke_u	u	n/a
263.314	0.075	526628	keystroke_e	e	n/a
263.419	0.135	526838	keystroke_u	u	n/a
263.644	0.12	527288	keystroke_e	e	n/a
263.779	0.105	527558	keystroke_u	u	n/a
264.41	0.09	528820	keystroke_Key.backspace	Key.backspace	n/a
264.68	0.12	529360	keystroke_Key.space	Key.space	n/a
264.965	0.09	529930	keystroke_r	r	n/a
265.01	0.135	530020	keystroke_e	e	n/a
265.325	0.09	530650	keystroke_c	c	n/a
265.43	0.1345	530860	keystroke_o	o	n/a
265.5795	0.105	531159	keystroke_v	v	n/a
265.7295	0.18	531459	keystroke_e	e	n/a
265.8645	0.105	531729	keystroke_r	r	n/a
266.1195	0.09	532239	keystroke_y	y	n/a
266.3145	0.135	532629	keystroke_Key.space	Key.space	n/a
266.4505	0.164	532901	keystroke_s	s	n/a
266.5845	0.105	533169	keystroke_o	o	n/a
266.8095	0.075	533619	keystroke_l	l	n/a
266.9595	0.105	533919	keystroke_u	u	n/a
267.0795	0.09	534159	keystroke_t	t	n/a
267.1995	0.15	534399	keystroke_i	i	n/a
267.3495	0.135	534699	keystroke_o	o	n/a
267.3945	0.135	534789	keystroke_n	n	n/a
267.5895	0.1495	535179	keystroke_s	s	n/a
267.844	0.045	535688	keystroke_Key.enter	Key.enter	n/a
267.8955	9.01	535791	prompt	n/a	participating minus oklahoma selected\n
268.519	0.12	537038	keystroke_p	p	n/a
268.64	0.179	537280	keystroke_a	a	n/a
268.789	0.09	537578	keystroke_r	r	n/a
269.029	0.091	538058	keystroke_t	t	n/a
269.135	0.105	538270	keystroke_i	i	n/a
269.39	0.105	538780	keystroke_c	c	n/a
269.45	0.09	538900	keystroke_i	i	n/a
269.7045	0.09	539409	keystroke_p	p	n/a
269.8245	0.12	539649	keystroke_a	a	n/a
270.1095	0.105	540219	keystroke_t	t	n/a
270.2295	0.165	540459	keystroke_i	i	n/a
270.3645	0.12	540729	keystroke_n	n	n/a
270.5445	0.075	541089	keystroke_g	g	n/a
270.6795	0.12	541359	keystroke_Key.space	Key.space	n/a
270.8445	0.165	541689	keystroke_m	m	n/a
271.0245	0.105	542049	keystroke_i	i	n/a
271.1445	0.165	542289	keystroke_n	n	n/a
271.2795	0.135	542559	keystroke_u	u	n/a
271.4895	0.15	542979	keystroke_s	s	n/a
271.6245	0.165	543249	keystroke_Key.space	Key.space	n/a
271.9395	0.09	543879	keystroke_o	o	n/a
272.734	0.076	545468	keystroke_k	k	n/a
273.275	0.119	546550	keystroke_l	l	n/a
273.709	0.105	547418	keystroke_a	a	n/a
274.099	0.135	548198	keystroke_h	h	n/a
274.279	0.12	548558	keystroke_o	o	n/a
274.534	0.12	549068	keystroke_m	m	n/a
274.819	0.106	549638	keystroke_a	a	n/a
275.104	0.12	550208	keystroke_Key.space	Key.space	n/a
275.284	0.181	550568	keystroke_s	s	n/a
275.419	0.12	550838	keystroke_e	e	n/a
275.629	0.15	551258	keystroke_l	l	n/a
275.689	0.105	551378	keystroke_e	e	n/a
275.944	0.1055	551888	keystroke_c	c	n/a
276.1545	0.105	552309	keystroke_t	t	n/a
276.3345	0.09	552669	keystroke_e	e	n/a
276.5595	0.105	553119	keystroke_d	d	n/a
276.829	0.075	553658	keystroke_Key.enter	Key.enter	n/a
276.908	7.363	553816	prompt	n/a	entered classical camcorder investments\n
277.534	0.135	555068	keystroke_e	e	n/a
277.654	0.135	555308	keystroke_n	n	n/a
277.819	0.091	555638	keystroke_t	t	n/a
278.015	0.12	556030	keystroke_e	e	n/a
278.075	0.12	556150	keystroke_r	r	n/a
278.27	0.09	556540	keystroke_e	e	n/a
278.51	0.105	557020	keystroke_d	d	n/a
278.6	0.135	557200	keystroke_Key.space	Key.space	n/a
278.9145	0.1355	557829	keystroke_c	c	n/a
279.0345	0.135	558069	keystroke_l	l	n/a
279.1545	0.135	558309	keystroke_a	a	n/a
279.3945	0.105	558789	keystroke_s	s	n/a
279.724	0.106	559448	keystroke_s	s	n/a
279.814	0.105	559628	keystroke_i	i	n/a
280.024	0.12	560048	keystroke_c	c	n/a
280.189	0.15	560378	keystroke_a	a	n/a
280.354	0.1505	560708	keystroke_l	l	n/a
280.4895	0.165	560979	keystroke_Key.space	Key.space	n/a
280.6995	0.1195	561399	keystroke_c	c	n/a
280.9245	0.135	561849	keystroke_a	a	n/a
281.0745	0.12	562149	keystroke_m	m	n/a
281.3295	0.135	562659	keystroke_c	c	n/a
281.4945	0.12	562989	keystroke_o	o	n/a
281.6295	0.09	563259	keystroke_r	r	n/a
281.854	0.121	563708	keystroke_d	d	n/a
282.065	0.164	564130	keystroke_e	e	n/a
282.154	0.165	564308	keystroke_r	r	n/a
282.349	0.15	564698	keystroke_Key.space	Key.space	n/a
282.544	0.105	565088	keystroke_i	i	n/a
282.605	0.15	565210	keystroke_n	n	n/a
282.74	0.104	565480	keystroke_v	v	n/a
282.8895	0.165	565779	keystroke_e	e	n/a
283.0245	0.1945	566049	keystroke_s	s	n/a
283.174	0.135	566348	keystroke_t	t	n/a
283.339	0.135	566678	keystroke_m	m	n/a
283.504	0.12	567008	keystroke_e	e	n/a
283.639	0.1055	567278	keystroke_n	n	n/a
283.7295	0.105	567459	keystroke_t	t	n/a
283.9545	0.12	567909	keystroke_s	s	n/a
284.1645	0.105	568329	keystroke_Key.enter	Key.enter	n/a
284.275	8.486	568550	prompt	n/a	interview congressional registered aged\n
284.7795	0.1495	569559	keystroke_i	i	n/a
284.914	0.165	569828	keystroke_n	n	n/a
285.049	0.12	570098	keystroke_t	t	n/a
285.214	0.21	570428	keystroke_e	e	n/a
285.349	0.12	570698	keystroke_r	r	n/a
285.8445	0.075	571689	keystroke_v	v	n/a
286.1295	0.12	572259	keystroke_i	i	n/a
286.2945	0.165	572589	keystroke_e	e	n/a
286.4145	0.18	572829	keystroke_w	w	n/a
286.8045	0.12	573609	keystroke_Key.space	Key.space	n/a
287.1645	0.12	574329	keystroke_c	c	n/a
287.2695	0.135	574539	keystroke_o	o	n/a
287.3745	0.135	574749	keystroke_n	n	n/a
287.5545	0.075	575109	keystroke_f	f	n/a
287.9595	0.075	575919	keystroke_Key.backspace	Key.backspace	n/a
288.0345	0.09	576069	keystroke_g	g	n/a
288.2745	0.105	576549	keystroke_r	r	n/a
288.4695	0.105	576939	keystroke_e	e	n/a
288.6645	0.09	577329	keystroke_s	s	n/a
288.8895	0.0755	577779	keystroke_s	s	n/a
289.19	0.149	578380	keystroke_i	i	n/a
289.309	0.18	578618	keystroke_o	o	n/a
289.414	0.15	578828	keystroke_n	n	n/a
289.595	0.1345	579190	keystroke_a	a	n/a
289.7145	0.165	579429	keystroke_l	l	n/a
289.8945	0.1345	579789	keystroke_Key.space	Key.space	n/a
290.089	0.105	580178	keystroke_r	r	n/a
290.164	0.12	580328	keystroke_e	e	n/a
290.374	0.12	580748	keystroke_g	g	n/a
290.479	0.15	580958	keystroke_i	i	n/a
290.644	0.195	581288	keystroke_s	s	n/a
290.779	0.105	581558	keystroke_t	t	n/a
291.0195	0.15	582039	keystroke_e	e	n/a
291.0945	0.15	582189	keystroke_r	r	n/a
291.3045	0.1045	582609	keystroke_e	e	n/a
291.545	0.1045	583090	keystroke_d	d	n/a
291.6945	0.135	583389	keystroke_Key.space	Key.space	n/a
291.8145	0.12	583629	keystroke_a	a	n/a
292.0395	0.09	584079	keystroke_g	g	n/a
292.2045	0.09	584409	keystroke_e	e	n/a
292.4445	0.09	584889	keystroke_d	d	n/a
292.6695	0.0895	585339	keystroke_Key.enter	Key.enter	n/a
292.763	5.323	585526	prompt	n/a	notices power ferrari digital\n
293.4495	0.15	586899	keystroke_n	n	n/a
293.6295	0.1045	587259	keystroke_o	o	n/a
293.735	0.104	587470	keystroke_t	t	n/a
293.854	0.15	587708	keystroke_i	i	n/a
294.019	0.12	588038	keystroke_c	c	n/a
294.154	0.196	588308	keystroke_e	e	n/a
294.289	0.15	588578	keystroke_s	s	n/a
294.409	0.135	588818	keystroke_Key.space	Key.space	n/a
294.604	0.195	589208	keystroke_p	p	n/a
294.724	0.21	589448	keystroke_o	o	n/a
294.904	0.21	589808	keystroke_w	w	n/a
295.009	0.24	590018	keystroke_e	e	n/a
295.129	0.151	590258	keystroke_r	r	n/a
295.294	0.1355	590588	keystroke_Key.space	Key.space	n/a
295.459	0.09	590918	keystroke_f	f	n/a
295.639	0.15	591278	keystroke_e	e	n/a
295.7745	0.0745	591549	keystroke_r	r	n/a
295.924	0.09	591848	keystroke_r	r	n/a
296.089	0.1355	592178	keystroke_a	a	n/a
296.3745	0.15	592749	keystroke_r	r	n/a
296.5695	0.195	593139	keystroke_i	i	n/a
296.7495	0.12	593499	keystroke_Key.space	Key.space	n/a
296.8545	0.1345	593709	keystroke_d	d	n/a
297.004	0.135	594008	keystroke_i	i	n/a
297.169	0.09	594338	keystroke_g	g	n/a
297.274	0.105	594548	keystroke_i	i	n/a
297.409	0.105	594818	keystroke_t	t	n/a
297.619	0.1345	595238	keystroke_a	a	n/a
297.7385	0.091	595477	keystroke_l	l	n/a
298.0085	0.0755	596017	keystroke_Key.enter	Key.enter	n/a
298.0905	9.91	596181	prompt	n/a	hidden commissions disclosure projector\n
298.774	0.12	597548	keystroke_h	h	n/a
299.014	0.105	598028	keystroke_i	i	n/a
299.12	0.089	598240	keystroke_d	d	n/a
299.344	0.06	598688	keystroke_d	d	n/a
299.6	0.104	599200	keystroke_e	e	n/a
299.809	0.135	599618	keystroke_n	n	n/a
299.974	0.12	599948	keystroke_Key.space	Key.space	n/a
300.079	0.15	600158	keystroke_c	c	n/a
300.199	0.1655	600398	keystroke_o	o	n/a
300.2895	0.135	600579	keystroke_m	m	n/a
300.5145	0.105	601029	keystroke_m	m	n/a
300.7395	0.105	601479	keystroke_i	i	n/a
300.9045	0.105	601809	keystroke_s	s	n/a
301.1145	0.09	602229	keystroke_s	s	n/a
301.1895	0.135	602379	keystroke_i	i	n/a
301.3395	0.15	602679	keystroke_o	o	n/a
301.3995	0.195	602799	keystroke_n	n	n/a
301.5795	0.1345	603159	keystroke_s	s	n/a
301.759	0.135	603518	keystroke_Key.space	Key.space	n/a
301.924	0.12	603848	keystroke_d	d	n/a
302.059	0.12	604118	keystroke_i	i	n/a
302.209	0.1055	604418	keystroke_s	s	n/a
302.4645	0.1195	604929	keystroke_c	c	n/a
302.5695	0.165	605139	keystroke_l	l	n/a
302.7045	0.12	605409	keystroke_o	o	n/a
302.9145	0.0895	605829	keystroke_s	s	n/a
303.1095	0.09	606219	keystroke_u	u	n/a
303.8745	0.075	607749	keystroke_Key.backspace	Key.backspace	n/a
304.6095	0.075	609219	keystroke_s	s	n/a
304.999	0.06	609998	keystroke_Key.backspace	Key.backspace	n/a
305.269	0.105	610538	keystroke_u	u	n/a
305.449	0.1495	610898	keystroke_r	r	n/a
305.5835	0.136	611167	keystroke_e	e	n/a
305.9745	0.0895	611949	keystroke_Key.space	Key.space	n/a
306.4845	0.12	612969	keystroke_p	p	n/a
306.5595	0.09	613119	keystroke_r	r	n/a
306.6945	0.075	613389	keystroke_o	o	n/a
306.9045	0.105	613809	keystroke_j	j	n/a
306.9645	0.075	613929	keystroke_e	e	n/a
307.1895	0.105	614379	keystroke_c	c	n/a
307.4145	0.09	614829	keystroke_t	t	n/a
307.5345	0.105	615069	keystroke_o	o	n/a
307.6545	0.1045	615309	keystroke_r	r	n/a
307.909	0.09	615818	keystroke_Key.enter	Key.enter	n/a
308.0035	7.947	616007	prompt	n/a	burden explore seattle schedules\n
308.7195	0.09	617439	keystroke_b	b	n/a
308.8695	0.09	617739	keystroke_u	u	n/a
308.9745	0.09	617949	keystroke_r	r	n/a
309.1995	0.09	618399	keystroke_d	d	n/a
309.4245	0.105	618849	keystroke_e	e	n/a
309.5895	0.105	619179	keystroke_n	n	n/a
309.7245	0.12	619449	keystroke_Key.space	Key.space	n/a
309.8295	0.09	619659	keystroke_e	e	n/a
310.0695	0.135	620139	keystroke_x	x	n/a
310.234	0.075	620468	keystroke_p	p	n/a
310.475	0.12	620950	keystroke_l	l	n/a
310.6845	0.12	621369	keystroke_o	o	n/a
310.8645	0.075	621729	keystroke_r	r	n/a
311.089	0.105	622178	keystroke_e	e	n/a
311.239	0.105	622478	keystroke_Key.space	Key.space	n/a
311.389	0.09	622778	keystroke_s	s	n/a
311.914	0.09	623828	keystroke_e	e	n/a
312.154	0.105	624308	keystroke_a	a	n/a
312.379	0.09	624758	keystroke_t	t	n/a
312.589	0.09	625178	keystroke_t	t	n/a
312.739	0.1955	625478	keystroke_l	l	n/a
312.8745	0.105	625749	keystroke_e	e	n/a
313.0095	0.135	626019	keystroke_Key.space	Key.space	n/a
313.1295	0.165	626259	keystroke_s	s	n/a
313.3995	0.1345	626799	keystroke_c	c	n/a
313.4895	0.105	626979	keystroke_h	h	n/a
313.7295	0.105	627459	keystroke_e	e	n/a
314.8695	0.135	629739	keystroke_d	d	n/a
315.0645	0.12	630129	keystroke_u	u	n/a
315.3195	0.12	630639	keystroke_l	l	n/a
315.4695	0.075	630939	keystroke_e	e	n/a
315.6645	0.105	631329	keystroke_s	s	n/a
315.8745	0.075	631749	keystroke_Key.enter	Key.enter	n/a
315.954	5.502	631908	prompt	n/a	how'll mice locking asia\n
316.6695	0.135	633339	keystroke_h	h	n/a
316.8495	0.1045	633699	keystroke_o	o	n/a
316.969	0.135	633938	keystroke_w	w	n/a
317.164	0.1055	634328	keystroke_'	'	n/a
317.4495	0.12	634899	keystroke_l	l	n/a
317.674	0.12	635348	keystroke_l	l	n/a
317.929	0.12	635858	keystroke_Key.space	Key.space	n/a
318.454	0.12	636908	keystroke_m	m	n/a
318.7095	0.09	637419	keystroke_i	i	n/a
318.8145	0.12	637629	keystroke_c	c	n/a
319.0545	0.09	638109	keystroke_e	e	n/a
319.1745	0.135	638349	keystroke_Key.space	Key.space	n/a
319.3545	0.1495	638709	keystroke_l	l	n/a
319.4895	0.12	638979	keystroke_o	o	n/a
319.6845	0.15	639369	keystroke_c	c	n/a
319.8045	0.105	639609	keystroke_k	k	n/a
320.0745	0.075	640149	keystroke_i	i	n/a
320.1195	0.1945	640239	keystroke_n	n	n/a
320.284	0.105	640568	keystroke_g	g	n/a
320.419	0.18	640838	keystroke_Key.space	Key.space	n/a
320.644	0.105	641288	keystroke_a	a	n/a
320.869	0.1055	641738	keystroke_s	s	n/a
320.9595	0.105	641919	keystroke_i	i	n/a
321.3945	0.06	642789	keystroke_Key.enter	Key.enter	n/a
321.4585	7.3325	642917	prompt	n/a	remedy dear surgeons represents\n
322.4295	0.105	644859	keystroke_r	r	n/a
322.5495	0.135	645099	keystroke_e	e	n/a
322.7445	0.15	645489	keystroke_m	m	n/a
322.9245	0.09	645849	keystroke_e	e	n/a
323.1345	0.075	646269	keystroke_d	d	n/a
323.389	0.106	646778	keystroke_y	y	n/a
323.509	0.1805	647018	keystroke_Key.space	Key.space	n/a
323.7045	0.09	647409	keystroke_d	d	n/a
323.8995	0.075	647799	keystroke_e	e	n/a
324.1095	0.12	648219	keystroke_a	a	n/a
324.3345	0.105	648669	keystroke_r	r	n/a
324.5145	0.09	649029	keystroke_Key.space	Key.space	n/a
324.6345	0.105	649269	keystroke_s	s	n/a
324.7545	0.135	649509	keystroke_u	u	n/a
324.9345	0.075	649869	keystroke_r	r	n/a
325.1745	0.12	650349	keystroke_g	g	n/a
326.089	0.1355	652178	keystroke_e	e	n/a
326.2995	0.105	652599	keystroke_o	o	n/a
326.5395	0.12	653079	keystroke_n	n	n/a
326.6745	0.135	653349	keystroke_s	s	n/a
326.824	0.15	653648	keystroke_Key.space	Key.space	n/a
327.079	0.105	654158	keystroke_r	r	n/a
327.124	0.15	654248	keystroke_e	e	n/a
327.304	0.135	654608	keystroke_p	p	n/a
327.484	0.15	654968	keystroke_r	r	n/a
327.589	0.1955	655178	keystroke_e	e	n/a
327.7695	0.165	655539	keystroke_s	s	n/a
327.9045	0.135	655809	keystroke_e	e	n/a
328.0845	0.1345	656169	keystroke_n	n	n/a
328.204	0.105	656408	keystroke_t	t	n/a
328.444	0.105	656888	keystroke_s	s	n/a
328.714	0.075	657428	keystroke_Key.enter	Key.enter	n/a
328.7935	6.5825	657587	prompt	n/a	class login metal ecuador\n
329.449	0.151	658898	keystroke_c	c	n/a
329.57	0.165	659140	keystroke_l	l	n/a
329.705	0.12	659410	keystroke_a	a	n/a
329.93	0.105	659860	keystroke_s	s	n/a
330.125	0.12	660250	keystroke_s	s	n/a
330.215	0.165	660430	keystroke_Key.space	Key.space	n/a
330.395	0.18	660790	keystroke_l	l	n/a
330.56	0.1345	661120	keystroke_o	o	n/a
330.7695	0.1195	661539	keystroke_g	g	n/a
331.054	0.165	662108	keystroke_i	i	n/a
331.204	0.18	662408	keystroke_n	n	n/a
331.399	0.135	662798	keystroke_Key.space	Key.space	n/a
331.7445	0.12	663489	keystroke_m	m	n/a
331.7595	0.105	663519	keystroke_e	e	n/a
332.0445	0.105	664089	keystroke_t	t	n/a
332.3445	0.09	664689	keystroke_l	l	n/a
332.7795	0.09	665559	keystroke_Key.backspace	Key.backspace	n/a
332.8995	0.1645	665799	keystroke_a	a	n/a
333.079	0.165	666158	keystroke_l	l	n/a
333.289	0.15	666578	keystroke_Key.space	Key.space	n/a
333.6945	0.105	667389	keystroke_e	e	n/a
334.04	0.135	668080	keystroke_c	c	n/a
334.235	0.1345	668470	keystroke_u	u	n/a
334.5945	0.075	669189	keystroke_a	a	n/a
334.8045	0.135	669609	keystroke_d	d	n/a
334.9545	0.12	669909	keystroke_o	o	n/a
335.0895	0.09	670179	keystroke_r	r	n/a
335.3145	0.06	670629	keystroke_Key.enter	Key.enter	n/a
335.387	7.654	670774	prompt	n/a	fighting continental retired auditor\n
336.049	0.09	672098	keystroke_f	f	n/a
336.185	0.119	672370	keystroke_i	i	n/a
336.319	0.106	672638	keystroke_g	g	n/a
336.44	0.119	672880	keystroke_h	h	n/a
336.574	0.12	673148	keystroke_t	t	n/a
336.679	0.15	673358	keystroke_i	i	n/a
336.784	0.181	673568	keystroke_n	n	n/a
336.949	0.121	673898	keystroke_g	g	n/a
337.054	0.135	674108	keystroke_Key.space	Key.space	n/a
337.265	0.119	674530	keystroke_c	c	n/a
337.37	0.119	674740	keystroke_o	o	n/a
337.445	0.164	674890	keystroke_n	n	n/a
337.6695	0.105	675339	keystroke_t	t	n/a
337.8045	0.135	675609	keystroke_i	i	n/a
337.8945	0.15	675789	keystroke_n	n	n/a
338.1795	0.12	676359	keystroke_e	e	n/a
338.3145	0.135	676629	keystroke_n	n	n/a
338.4645	0.105	676929	keystroke_t	t	n/a
338.7345	0.15	677469	keystroke_a	a	n/a
338.8995	0.12	677799	keystroke_l	l	n/a
339.0495	0.15	678099	keystroke_Key.space	Key.space	n/a
339.3345	0.135	678669	keystroke_r	r	n/a
339.4245	0.15	678849	keystroke_e	e	n/a
339.6345	0.1045	679269	keystroke_t	t	n/a
339.754	0.135	679508	keystroke_i	i	n/a
339.89	0.179	679780	keystroke_r	r	n/a
340.024	0.1205	680048	keystroke_e	e	n/a
340.2795	0.105	680559	keystroke_d	d	n/a
340.4445	0.135	680889	keystroke_Key.space	Key.space	n/a
340.5645	0.135	681129	keystroke_a	a	n/a
340.7445	0.1195	681489	keystroke_u	u	n/a
340.969	0.06	681938	keystroke_t	t	n/a
341.314	0.075	682628	keystroke_Key.backspace	Key.backspace	n/a
341.464	0.135	682928	keystroke_d	d	n/a
341.825	0.044	683650	keystroke_i	i	n/a
342.1845	0.075	684369	keystroke_t	t	n/a
342.4095	0.09	684819	keystroke_o	o	n/a
342.4995	0.12	684999	keystroke_r	r	n/a
342.964	0.075	685928	keystroke_Key.enter	Key.enter	n/a
343.0445	7.226	686089	prompt	n/a	nascar ireland molecules follow\n
343.7595	0.105	687519	keystroke_n	n	n/a
344.074	0.09	688148	keystroke_a	a	n/a
344.284	0.105	688568	keystroke_s	s	n/a
344.6145	0.12	689229	keystroke_c	c	n/a
344.8095	0.1195	689619	keystroke_a	a	n/a
344.974	0.12	689948	keystroke_r	r	n/a
345.124	0.15	690248	keystroke_Key.space	Key.space	n/a
345.409	0.135	690818	keystroke_i	i	n/a
345.529	0.09	691058	keystroke_r	r	n/a
345.6945	0.105	691389	keystroke_e	e	n/a
345.934	0.135	691868	keystroke_l	l	n/a
346.054	0.12	692108	keystroke_a	a	n/a
346.189	0.15	692378	keystroke_n	n	n/a
346.324	0.135	692648	keystroke_d	d	n/a
346.474	0.105	692948	keystroke_Key.space	Key.space	n/a
346.669	0.195	693338	keystroke_m	m	n/a
346.849	0.0905	693698	keystroke_o	o	n/a
347.2395	0.09	694479	keystroke_l	l	n/a
347.4345	0.075	694869	keystroke_e	e	n/a
347.959	0.135	695918	keystroke_c	c	n/a
348.394	0.105	696788	keystroke_u	u	n/a
348.6495	0.1505	697299	keystroke_l	l	n/a
348.785	0.2095	697570	keystroke_e	e	n/a
348.9195	0.135	697839	keystroke_s	s	n/a
349.0695	0.12	698139	keystroke_Key.space	Key.space	n/a
349.2345	0.165	698469	keystroke_f	f	n/a
349.3395	0.105	698679	keystroke_o	o	n/a
349.564	0.06	699128	keystroke_l	l	n/a
349.7145	0.135	699429	keystroke_l	l	n/a
349.8195	0.1495	699639	keystroke_o	o	n/a
349.9545	0.1045	699909	keystroke_w	w	n/a
350.194	0.075	700388	keystroke_Key.enter	Key.enter	n/a
350.278	5.153	700556	prompt	n/a	thereby toolbar slim serves\n
351.019	0.12	702038	keystroke_t	t	n/a
351.125	0.1345	702250	keystroke_h	h	n/a
351.2745	0.105	702549	keystroke_e	e	n/a
351.3645	0.165	702729	keystroke_r	r	n/a
351.5145	0.12	703029	keystroke_e	e	n/a
351.65	0.1345	703300	keystroke_b	b	n/a
351.8445	0.105	703689	keystroke_y	y	n/a
351.9795	0.165	703959	keystroke_Key.space	Key.space	n/a
352.1895	0.135	704379	keystroke_t	t	n/a
352.3395	0.09	704679	keystroke_o	o	n/a
352.5495	0.06	705099	keystroke_o	o	n/a
352.7445	0.09	705489	keystroke_l	l	n/a
352.9245	0.135	705849	keystroke_b	b	n/a
353.0445	0.1205	706089	keystroke_a	a	n/a
353.21	0.12	706420	keystroke_r	r	n/a
353.345	0.12	706690	keystroke_Key.space	Key.space	n/a
353.48	0.165	706960	keystroke_s	s	n/a
353.675	0.21	707350	keystroke_l	l	n/a
353.84	0.105	707680	keystroke_i	i	n/a
354.0795	0.18	708159	keystroke_m	m	n/a
354.2445	0.135	708489	keystroke_Key.space	Key.space	n/a
354.3645	0.165	708729	keystroke_s	s	n/a
354.4695	0.18	708939	keystroke_e	e	n/a
354.5745	0.09	709149	keystroke_r	r	n/a
354.8145	0.135	709629	keystroke_v	v	n/a
354.9945	0.21	709989	keystroke_e	e	n/a
355.1595	0.135	710319	keystroke_s	s	n/a
355.3395	0.0895	710679	keystroke_Key.enter	Key.enter	n/a
355.436	4.75	710872	prompt	n/a	server catering char rely\n
355.9995	0.24	711999	keystroke_s	s	n/a
356.1945	0.21	712389	keystroke_e	e	n/a
356.4645	0.105	712929	keystroke_r	r	n/a
356.7645	0.105	713529	keystroke_v	v	n/a
356.9895	0.15	713979	keystroke_e	e	n/a
357.0645	0.18	714129	keystroke_r	r	n/a
357.2745	0.135	714549	keystroke_Key.space	Key.space	n/a
357.4545	0.12	714909	keystroke_c	c	n/a
357.6045	0.1055	715209	keystroke_a	a	n/a
357.815	0.089	715630	keystroke_t	t	n/a
358.07	0.1645	716140	keystroke_e	e	n/a
358.1745	0.15	716349	keystroke_r	r	n/a
358.2795	0.15	716559	keystroke_i	i	n/a
358.3845	0.165	716769	keystroke_n	n	n/a
358.5345	0.12	717069	keystroke_g	g	n/a
358.6995	0.09	717399	keystroke_Key.space	Key.space	n/a
358.8495	0.12	717699	keystroke_c	c	n/a
358.9545	0.135	717909	keystroke_h	h	n/a
359.1045	0.18	718209	keystroke_a	a	n/a
359.1945	0.135	718389	keystroke_r	r	n/a
359.3445	0.12	718689	keystroke_Key.space	Key.space	n/a
359.4795	0.1645	718959	keystroke_r	r	n/a
359.584	0.1355	719168	keystroke_e	e	n/a
359.7345	0.1195	719469	keystroke_l	l	n/a
359.8845	0.135	719769	keystroke_y	y	n/a
360.0945	0.0895	720189	keystroke_Key.enter	Key.enter	n/a
360.1885	6.4475	720377	prompt	n/a	minds newest researchers part\n
360.7995	0.1055	721599	keystroke_m	m	n/a
361.04	0.12	722080	keystroke_i	i	n/a
361.145	0.165	722290	keystroke_n	n	n/a
361.265	0.195	722530	keystroke_d	d	n/a
361.43	0.15	722860	keystroke_s	s	n/a
361.55	0.165	723100	keystroke_Key.space	Key.space	n/a
361.7	0.18	723400	keystroke_n	n	n/a
361.865	0.165	723730	keystroke_e	e	n/a
361.985	0.12	723970	keystroke_w	w	n/a
362.285	0.075	724570	keystroke_e	e	n/a
362.51	0.12	725020	keystroke_s	s	n/a
362.765	0.12	725530	keystroke_t	t	n/a
362.9	0.12	725800	keystroke_Key.space	Key.space	n/a
363.335	0.15	726670	keystroke_r	r	n/a
363.5	0.105	727000	keystroke_e	e	n/a
363.74	0.09	727480	keystroke_a	a	n/a
364.085	0.104	728170	keystroke_Key.backspace	Key.backspace	n/a
364.204	0.135	728408	keystroke_s	s	n/a
364.355	0.09	728710	keystroke_e	e	n/a
364.565	0.165	729130	keystroke_a	a	n/a
364.7	0.105	729400	keystroke_r	r	n/a
364.97	0.12	729940	keystroke_c	c	n/a
365.06	0.09	730120	keystroke_h	h	n/a
365.21	0.135	730420	keystroke_e	e	n/a
365.3	0.134	730600	keystroke_r	r	n/a
365.495	0.135	730990	keystroke_s	s	n/a
365.614	0.135	731228	keystroke_Key.space	Key.space	n/a
365.795	0.105	731590	keystroke_p	p	n/a
365.87	0.149	731740	keystroke_a	a	n/a
366.005	0.119	732010	keystroke_r	r	n/a
366.26	0.104	732520	keystroke_t	t	n/a
366.544	0.09	733088	keystroke_Key.enter	Key.enter	n/a
366.6385	6.0275	733277	prompt	n/a	wellington fingers terrace shaped\n
367.339	0.091	734678	keystroke_w	w	n/a
367.37	0.179	734740	keystroke_e	e	n/a
367.534	0.1205	735068	keystroke_l	l	n/a
367.73	0.135	735460	keystroke_l	l	n/a
367.894	0.151	735788	keystroke_i	i	n/a
368.015	0.149	736030	keystroke_n	n	n/a
368.15	0.119	736300	keystroke_g	g	n/a
368.389	0.121	736778	keystroke_t	t	n/a
368.495	0.195	736990	keystroke_o	o	n/a
368.615	0.18	737230	keystroke_n	n	n/a
368.779	0.135	737558	keystroke_Key.space	Key.space	n/a
368.93	0.12	737860	keystroke_f	f	n/a
369.02	0.149	738040	keystroke_i	i	n/a
369.139	0.165	738278	keystroke_n	n	n/a
369.244	0.091	738488	keystroke_g	g	n/a
369.455	0.135	738910	keystroke_e	e	n/a
369.544	0.15	739088	keystroke_r	r	n/a
369.769	0.135	739538	keystroke_s	s	n/a
369.934	0.135	739868	keystroke_Key.space	Key.space	n/a
370.084	0.136	740168	keystroke_t	t	n/a
370.279	0.181	740558	keystroke_e	e	n/a
370.474	0.03	740948	keystroke_r	r	n/a
370.609	0.121	741218	keystroke_r	r	n/a
370.879	0.12	741758	keystroke_a	a	n/a
371.135	0.164	742270	keystroke_c	c	n/a
371.3	0.134	742600	keystroke_e	e	n/a
371.449	0.105	742898	keystroke_Key.space	Key.space	n/a
371.569	0.12	743138	keystroke_s	s	n/a
371.705	0.1045	743410	keystroke_h	h	n/a
371.8245	0.1045	743649	keystroke_a	a	n/a
371.959	0.12	743918	keystroke_p	p	n/a
372.124	0.09	744248	keystroke_e	e	n/a
372.334	0.12	744668	keystroke_d	d	n/a
372.574	0.09	745148	keystroke_Key.enter	Key.enter	n/a
372.669	7.782	745338	prompt	n/a	unless capacity neighbors challenge\n
373.415	0.09	746830	keystroke_u	u	n/a
373.625	0.105	747250	keystroke_n	n	n/a
373.835	0.135	747670	keystroke_l	l	n/a
373.94	0.135	747880	keystroke_e	e	n/a
374.135	0.105	748270	keystroke_s	s	n/a
374.33	0.09	748660	keystroke_s	s	n/a
374.435	0.15	748870	keystroke_Key.space	Key.space	n/a
374.6	0.09	749200	keystroke_c	c	n/a
374.765	0.09	749530	keystroke_a	a	n/a
374.869	0.105	749738	keystroke_p	p	n/a
375.034	0.12	750068	keystroke_a	a	n/a
375.304	0.09	750608	keystroke_c	c	n/a
375.454	0.135	750908	keystroke_i	i	n/a
375.604	0.09	751208	keystroke_t	t	n/a
375.844	0.09	751688	keystroke_y	y	n/a
375.979	0.105	751958	keystroke_Key.space	Key.space	n/a
376.219	0.105	752438	keystroke_n	n	n/a
376.519	0.12	753038	keystroke_e	e	n/a
376.684	0.12	753368	keystroke_i	i	n/a
376.819	0.1205	753638	keystroke_g	g	n/a
376.9545	0.135	753909	keystroke_h	h	n/a
377.5095	0.105	755019	keystroke_b	b	n/a
377.7195	0.135	755439	keystroke_o	o	n/a
377.8995	0.105	755799	keystroke_r	r	n/a
378.1545	0.15	756309	keystroke_s	s	n/a
378.3495	0.09	756699	keystroke_Key.space	Key.space	n/a
378.5895	0.12	757179	keystroke_c	c	n/a
378.8145	0.09	757629	keystroke_h	h	n/a
379.2345	0.075	758469	keystroke_a	a	n/a
379.3245	0.105	758649	keystroke_l	l	n/a
379.5045	0.105	759009	keystroke_l	l	n/a
379.5945	0.105	759189	keystroke_e	e	n/a
379.7295	0.15	759459	keystroke_n	n	n/a
379.8945	0.09	759789	keystroke_g	g	n/a
380.0895	0.09	760179	keystroke_e	e	n/a
380.3595	0.09	760719	keystroke_Key.enter	Key.enter	n/a
380.4535	7.078	760907	prompt	n/a	teachers pipes launch suspension\n
381.079	0.09	762158	keystroke_t	t	n/a
381.229	0.105	762458	keystroke_e	e	n/a
381.4545	0.1045	762909	keystroke_a	a	n/a
381.6645	0.12	763329	keystroke_c	c	n/a
381.7695	0.09	763539	keystroke_h	h	n/a
381.9795	0.12	763959	keystroke_e	e	n/a
382.1745	0.165	764349	keystroke_r	r	n/a
382.3695	0.135	764739	keystroke_s	s	n/a
382.6095	0.1345	765219	keystroke_Key.space	Key.space	n/a
382.819	0.135	765638	keystroke_p	p	n/a
383.014	0.151	766028	keystroke_i	i	n/a
383.21	0.089	766420	keystroke_p	p	n/a
383.45	0.119	766900	keystroke_l	l	n/a
383.854	0.075	767708	keystroke_Key.backspace	Key.backspace	n/a
383.975	0.12	767950	keystroke_e	e	n/a
384.169	0.165	768338	keystroke_s	s	n/a
384.349	0.12	768698	keystroke_Key.space	Key.space	n/a
384.709	0.15	769418	keystroke_l	l	n/a
384.844	0.136	769688	keystroke_a	a	n/a
384.964	0.091	769928	keystroke_u	u	n/a
385.114	0.15	770228	keystroke_n	n	n/a
385.31	0.149	770620	keystroke_c	c	n/a
385.429	0.135	770858	keystroke_h	h	n/a
385.609	0.135	771218	keystroke_Key.space	Key.space	n/a
385.789	0.135	771578	keystroke_s	s	n/a
385.969	0.135	771938	keystroke_u	u	n/a
386.179	0.165	772358	keystroke_s	s	n/a
386.359	0.09	772718	keystroke_p	p	n/a
386.509	0.12	773018	keystroke_e	e	n/a
386.644	0.135	773288	keystroke_n	n	n/a
386.824	0.09	773648	keystroke_s	s	n/a
386.929	0.15	773858	keystroke_i	i	n/a
387.064	0.165	774128	keystroke_o	o	n/a
387.124	0.15	774248	keystroke_n	n	n/a
387.454	0.075	774908	keystroke_Key.enter	Key.enter	n/a
387.536	6.7	775072	prompt	n/a	knowledge haiti veterinary team\n
388.1745	0.135	776349	keystroke_k	k	n/a
388.3245	0.165	776649	keystroke_n	n	n/a
388.5045	0.12	777009	keystroke_o	o	n/a
388.6395	0.09	777279	keystroke_w	w	n/a
388.7895	0.135	777579	keystroke_l	l	n/a
388.8945	0.106	777789	keystroke_e	e	n/a
389.1195	0.075	778239	keystroke_d	d	n/a
389.3145	0.135	778629	keystroke_g	g	n/a
389.4945	0.12	778989	keystroke_e	e	n/a
389.5995	0.105	779199	keystroke_Key.space	Key.space	n/a
389.7645	0.135	779529	keystroke_h	h	n/a
389.8845	0.09	779769	keystroke_a	a	n/a
390.0945	0.12	780189	keystroke_i	i	n/a
390.2295	0.15	780459	keystroke_t	t	n/a
390.3645	0.135	780729	keystroke_i	i	n/a
390.9795	0.135	781959	keystroke_Key.space	Key.space	n/a
391.3395	0.1205	782679	keystroke_v	v	n/a
391.52	0.135	783040	keystroke_e	e	n/a
391.685	0.135	783370	keystroke_t	t	n/a
391.88	0.21	783760	keystroke_e	e	n/a
392.045	0.135	784090	keystroke_r	r	n/a
392.27	0.12	784540	keystroke_i	i	n/a
392.42	0.165	784840	keystroke_n	n	n/a
392.6	0.135	785200	keystroke_a	a	n/a
392.705	0.105	785410	keystroke_r	r	n/a
392.96	0.12	785920	keystroke_y	y	n/a
393.155	0.12	786310	keystroke_Key.space	Key.space	n/a
393.305	0.075	786610	keystroke_t	t	n/a
393.47	0.105	786940	keystroke_e	e	n/a
393.694	0.136	787388	keystroke_a	a	n/a
393.845	0.12	787690	keystroke_m	m	n/a
394.146	0.089	788292	keystroke_Key.enter	Key.enter	n/a
394.2385	6.163	788477	prompt	n/a	prozac mercury helping loop\n
394.955	0.105	789910	keystroke_p	p	n/a
395.105	0.075	790210	keystroke_r	r	n/a
395.195	0.135	790390	keystroke_o	o	n/a
395.495	0.09	790990	keystroke_z	z	n/a
395.735	0.105	791470	keystroke_a	a	n/a
396.23	0.12	792460	keystroke_c	c	n/a
396.589	0.121	793178	keystroke_Key.space	Key.space	n/a
396.965	0.135	793930	keystroke_m	m	n/a
397.115	0.165	794230	keystroke_e	e	n/a
397.235	0.12	794470	keystroke_r	r	n/a
397.535	0.105	795070	keystroke_c	c	n/a
397.61	0.119	795220	keystroke_u	u	n/a
397.775	0.089	795550	keystroke_r	r	n/a
398.014	0.106	796028	keystroke_y	y	n/a
398.254	0.09	796508	keystroke_Key.space	Key.space	n/a
398.405	0.1345	796810	keystroke_h	h	n/a
398.5095	0.09	797019	keystroke_e	e	n/a
398.6905	0.089	797381	keystroke_l	l	n/a
398.8705	0.104	797741	keystroke_p	p	n/a
399.0505	0.164	798101	keystroke_i	i	n/a
399.1845	0.165	798369	keystroke_n	n	n/a
399.3345	0.12	798669	keystroke_g	g	n/a
399.4095	0.15	798819	keystroke_Key.space	Key.space	n/a
399.5745	0.12	799149	keystroke_l	l	n/a
399.7545	0.105	799509	keystroke_o	o	n/a
399.9345	0.121	799869	keystroke_o	o	n/a
400.0395	0.12	800079	keystroke_p	p	n/a
400.3245	0.075	800649	keystroke_Key.enter	Key.enter	n/a
400.405	5.741	800810	prompt	n/a	newbie exchange dealt changing\n
401.045	0.12	802090	keystroke_n	n	n/a
401.105	0.195	802210	keystroke_e	e	n/a
401.27	0.135	802540	keystroke_w	w	n/a
401.465	0.075	802930	keystroke_b	b	n/a
401.63	0.135	803260	keystroke_i	i	n/a
401.795	0.12	803590	keystroke_e	e	n/a
401.975	0.135	803950	keystroke_Key.space	Key.space	n/a
402.14	0.075	804280	keystroke_e	e	n/a
402.62	0.135	805240	keystroke_x	x	n/a
402.9195	0.135	805839	keystroke_c	c	n/a
403.0395	0.09	806079	keystroke_h	h	n/a
403.1895	0.105	806379	keystroke_a	a	n/a
403.2795	0.12	806559	keystroke_n	n	n/a
403.4445	0.12	806889	keystroke_g	g	n/a
403.5795	0.09	807159	keystroke_e	e	n/a
403.6995	0.135	807399	keystroke_Key.space	Key.space	n/a
403.8195	0.105	807639	keystroke_d	d	n/a
404.0295	0.075	808059	keystroke_e	e	n/a
404.2095	0.12	808419	keystroke_a	a	n/a
404.3145	0.135	808629	keystroke_l	l	n/a
404.4945	0.105	808989	keystroke_t	t	n/a
404.6145	0.15	809229	keystroke_Key.space	Key.space	n/a
404.8395	0.1205	809679	keystroke_c	c	n/a
404.945	0.105	809890	keystroke_h	h	n/a
405.065	0.18	810130	keystroke_a	a	n/a
405.23	0.09	810460	keystroke_n	n	n/a
405.395	0.12	810790	keystroke_g	g	n/a
405.53	0.15	811060	keystroke_i	i	n/a
405.65	0.135	811300	keystroke_n	n	n/a
405.83	0.09	811660	keystroke_g	g	n/a
406.055	0.09	812110	keystroke_Key.enter	Key.enter	n/a
406.158	7.068	812316	prompt	n/a	destroy valley alternative bath\n
406.76	0.105	813520	keystroke_d	d	n/a
406.97	0.12	813940	keystroke_e	e	n/a
407.12	0.12	814240	keystroke_s	s	n/a
407.375	0.12	814750	keystroke_t	t	n/a
407.63	0.1045	815260	keystroke_r	r	n/a
407.8545	0.135	815709	keystroke_o	o	n/a
408.0345	0.09	816069	keystroke_y	y	n/a
408.2295	0.12	816459	keystroke_Key.space	Key.space	n/a
408.5295	0.09	817059	keystroke_v	v	n/a
408.6795	0.15	817359	keystroke_a	a	n/a
408.7695	0.105	817539	keystroke_l	l	n/a
408.95	0.135	817900	keystroke_l	l	n/a
409.025	0.12	818050	keystroke_e	e	n/a
409.265	0.105	818530	keystroke_y	y	n/a
409.415	0.12	818830	keystroke_Key.space	Key.space	n/a
409.55	0.15	819100	keystroke_a	a	n/a
409.685	0.1495	819370	keystroke_l	l	n/a
409.85	0.105	819700	keystroke_t	t	n/a
410.09	0.15	820180	keystroke_e	e	n/a
410.255	0.12	820510	keystroke_r	r	n/a
410.435	0.105	820870	keystroke_n	n	n/a
410.555	0.12	821110	keystroke_a	a	n/a
410.78	0.09	821560	keystroke_t	t	n/a
410.885	0.1195	821770	keystroke_i	i	n/a
411.1095	0.09	822219	keystroke_v	v	n/a
411.2745	0.105	822549	keystroke_a	a	n/a
411.7395	0.045	823479	keystroke_Key.backspace	Key.backspace	n/a
412.0245	0.09	824049	keystroke_e	e	n/a
412.2645	0.105	824529	keystroke_Key.space	Key.space	n/a
412.4445	0.15	824889	keystroke_b	b	n/a
412.5795	0.06	825159	keystroke_a	a	n/a
412.7745	0.075	825549	keystroke_t	t	n/a
412.8345	0.105	825669	keystroke_h	h	n/a
413.1345	0.09	826269	keystroke_Key.enter	Key.enter	n/a
413.229	5.877	826458	prompt	n/a	lotus beijing msgstr ronald\n
413.8095	0.12	827619	keystroke_l	l	n/a
414.0045	0.09	828009	keystroke_o	o	n/a
414.1095	0.105	828219	keystroke_t	t	n/a
414.3345	0.075	828669	keystroke_u	u	n/a
414.5895	0.15	829179	keystroke_s	s	n/a
414.7845	0.105	829569	keystroke_Key.space	Key.space	n/a
414.9495	0.12	829899	keystroke_b	b	n/a
415.0545	0.105	830109	keystroke_e	e	n/a
415.2195	0.15	830439	keystroke_i	i	n/a
415.3995	0.18	830799	keystroke_j	j	n/a
415.5495	0.135	831099	keystroke_i	i	n/a
415.7445	0.15	831489	keystroke_n	n	n/a
415.9545	0.12	831909	keystroke_g	g	n/a
416.1195	0.105	832239	keystroke_Key.space	Key.space	n/a
416.4045	0.12	832809	keystroke_m	m	n/a
416.5395	0.135	833079	keystroke_s	s	n/a
416.7795	0.105	833559	keystroke_g	g	n/a
417.0645	0.12	834129	keystroke_s	s	n/a
417.2295	0.105	834459	keystroke_t	t	n/a
417.5745	0.09	835149	keystroke_r	r	n/a
417.7845	0.135	835569	keystroke_Key.space	Key.space	n/a
418.0245	0.09	836049	keystroke_r	r	n/a
418.1295	0.105	836259	keystroke_o	o	n/a
418.3245	0.135	836649	keystroke_n	n	n/a
418.4895	0.135	836979	keystroke_a	a	n/a
418.6545	0.12	837309	keystroke_l	l	n/a
418.7755	0.134	837551	keystroke_d	d	n/a
419.0145	0.09	838029	keystroke_Key.enter	Key.enter	n/a
419.119	4.2175	838238	prompt	n/a	logo mesa london verde\n
419.7045	0.105	839409	keystroke_l	l	n/a
419.8395	0.12	839679	keystroke_o	o	n/a
419.9745	0.12	839949	keystroke_g	g	n/a
420.0795	0.15	840159	keystroke_o	o	n/a
420.2145	0.15	840429	keystroke_Key.space	Key.space	n/a
420.4245	0.18	840849	keystroke_m	m	n/a
420.5445	0.18	841089	keystroke_e	e	n/a
420.6645	0.105	841329	keystroke_s	s	n/a
420.9945	0.015	841989	keystroke_a	a	n/a
421.0245	0.12	842049	keystroke_Key.space	Key.space	n/a
421.2045	0.18	842409	keystroke_l	l	n/a
421.3695	0.0905	842739	keystroke_o	o	n/a
421.5495	0.15	843099	keystroke_n	n	n/a
421.6845	0.165	843369	keystroke_d	d	n/a
421.8945	0.1505	843789	keystroke_o	o	n/a
421.9695	0.2105	843939	keystroke_n	n	n/a
422.165	0.135	844330	keystroke_Key.space	Key.space	n/a
422.301	0.104	844602	keystroke_v	v	n/a
422.495	0.135	844990	keystroke_e	e	n/a
422.6	0.12	845200	keystroke_r	r	n/a
422.825	0.105	845650	keystroke_d	d	n/a
423.05	0.09	846100	keystroke_e	e	n/a
423.2445	0.09	846489	keystroke_Key.enter	Key.enter	n/a
423.3405	6.3255	846681	prompt	n/a	exclude arrest refers lancaster\n
423.9045	0.075	847809	keystroke_e	e	n/a
424.1145	0.12	848229	keystroke_x	x	n/a
424.3245	0.15	848649	keystroke_c	c	n/a
424.5495	0.12	849099	keystroke_l	l	n/a
424.7745	0.105	849549	keystroke_u	u	n/a
424.8495	0.105	849699	keystroke_d	d	n/a
425.0895	0.09	850179	keystroke_e	e	n/a
425.2095	0.105	850419	keystroke_Key.space	Key.space	n/a
425.3595	0.12	850719	keystroke_a	a	n/a
425.5545	0.075	851109	keystroke_r	r	n/a
425.7195	0.09	851439	keystroke_r	r	n/a
425.9145	0.075	851829	keystroke_e	e	n/a
426.1395	0.06	852279	keystroke_s	s	n/a
426.2595	0.12	852519	keystroke_t	t	n/a
426.3945	0.135	852789	keystroke_Key.space	Key.space	n/a
426.5445	0.12	853089	keystroke_r	r	n/a
426.6795	0.12	853359	keystroke_e	e	n/a
426.8595	0.15	853719	keystroke_f	f	n/a
427.0245	0.135	854049	keystroke_e	e	n/a
427.1445	0.165	854289	keystroke_r	r	n/a
427.2945	0.18	854589	keystroke_e	e	n/a
427.4145	0.18	854829	keystroke_s	s	n/a
427.6095	0.15	855219	keystroke_Key.space	Key.space	n/a
427.8795	0.12	855759	keystroke_l	l	n/a
427.9845	0.12	855969	keystroke_a	a	n/a
428.1055	0.164	856211	keystroke_n	n	n/a
428.4795	0.105	856959	keystroke_c	c	n/a
428.6745	0.105	857349	keystroke_a	a	n/a
428.8845	0.105	857769	keystroke_s	s	n/a
429.0195	0.105	858039	keystroke_t	t	n/a
429.2295	0.15	858459	keystroke_e	e	n/a
429.3195	0.12	858639	keystroke_r	r	n/a
429.5895	0.075	859179	keystroke_Key.enter	Key.enter	n/a
429.6725	11.1545	859345	prompt	n/a	substantially synthesis preliminary everyone's\n
430.6095	0.12	861219	keystroke_s	s	n/a
430.7445	0.1355	861489	keystroke_u	u	n/a
430.895	0.105	861790	keystroke_b	b	n/a
431.03	0.135	862060	keystroke_s	s	n/a
431.27	0.09	862540	keystroke_t	t	n/a
431.435	0.12	862870	keystroke_a	a	n/a
431.615	0.12	863230	keystroke_n	n	n/a
431.855	0.12	863710	keystroke_t	t	n/a
432.035	0.1045	864070	keystroke_i	i	n/a
432.1695	0.135	864339	keystroke_a	a	n/a
432.3195	0.09	864639	keystroke_l	l	n/a
432.5145	0.12	865029	keystroke_l	l	n/a
432.6045	0.12	865209	keystroke_y	y	n/a
432.7395	0.136	865479	keystroke_Key.space	Key.space	n/a
432.9205	0.135	865841	keystroke_s	s	n/a
433.1745	0.105	866349	keystroke_y	y	n/a
433.4445	0.12	866889	keystroke_n	n	n/a
433.7455	0.059	867491	keystroke_t	t	n/a
433.8645	0.12	867729	keystroke_h	h	n/a
434.0745	0.06	868149	keystroke_s	s	n/a
434.3445	0.12	868689	keystroke_e	e	n/a
434.6445	0.09	869289	keystroke_Key.backspace	Key.backspace	n/a
434.8095	0.09	869619	keystroke_Key.backspace	Key.backspace	n/a
434.8845	0.18	869769	keystroke_e	e	n/a
435.0345	0.15	870069	keystroke_s	s	n/a
435.2745	0.12	870549	keystroke_i	i	n/a
435.4245	0.135	870849	keystroke_s	s	n/a
435.5745	0.135	871149	keystroke_Key.space	Key.space	n/a
435.7845	0.105	871569	keystroke_p	p	n/a
436.0845	0.135	872169	keystroke_r	r	n/a
436.2495	0.12	872499	keystroke_e	e	n/a
436.3545	0.225	872709	keystroke_l	l	n/a
436.5345	0.105	873069	keystroke_i	i	n/a
436.7745	0.1505	873549	keystroke_m	m	n/a
437.045	0.12	874090	keystroke_i	i	n/a
437.195	0.15	874390	keystroke_n	n	n/a
437.48	0.15	874960	keystroke_a	a	n/a
437.585	0.09	875170	keystroke_r	r	n/a
437.84	0.09	875680	keystroke_y	y	n/a
437.99	0.135	875980	keystroke_Key.space	Key.space	n/a
438.14	0.09	876280	keystroke_e	e	n/a
438.395	0.09	876790	keystroke_v	v	n/a
438.56	0.105	877120	keystroke_e	e	n/a
438.9945	0.09	877989	keystroke_r	r	n/a
439.2345	0.09	878469	keystroke_y	y	n/a
439.4305	0.134	878861	keystroke_o	o	n/a
439.5345	0.15	879069	keystroke_n	n	n/a
439.655	0.1045	879310	keystroke_e	e	n/a
439.8195	0.135	879639	keystroke_'	'	n/a
439.9995	0.135	879999	keystroke_s	s	n/a
440.1645	0.105	880329	keystroke_Key.space	Key.space	n/a
440.7645	0.06	881529	keystroke_Key.enter	Key.enter	n/a
440.8295	5.982	881659	prompt	n/a	loops lincoln patterns filed\n
441.515	0.09	883030	keystroke_l	l	n/a
441.71	0.06	883420	keystroke_o	o	n/a
441.86	0.105	883720	keystroke_o	o	n/a
441.95	0.15	883900	keystroke_p	p	n/a
442.085	0.165	884170	keystroke_s	s	n/a
442.28	0.135	884560	keystroke_Key.space	Key.space	n/a
442.52	0.165	885040	keystroke_l	l	n/a
442.685	0.12	885370	keystroke_i	i	n/a
442.85	0.165	885700	keystroke_n	n	n/a
443.12	0.135	886240	keystroke_c	c	n/a
443.225	0.075	886450	keystroke_o	o	n/a
443.435	0.105	886870	keystroke_l	l	n/a
443.63	0.165	887260	keystroke_n	n	n/a
443.84	0.165	887680	keystroke_Key.space	Key.space	n/a
444.1545	0.091	888309	keystroke_p	p	n/a
444.2145	0.151	888429	keystroke_a	a	n/a
444.3655	0.089	888731	keystroke_t	t	n/a
444.5605	0.119	889121	keystroke_t	t	n/a
444.7855	0.165	889571	keystroke_e	e	n/a
444.8905	0.135	889781	keystroke_r	r	n/a
445.0705	0.134	890141	keystroke_n	n	n/a
445.2505	0.134	890501	keystroke_s	s	n/a
445.3995	0.15	890799	keystroke_Key.space	Key.space	n/a
445.6255	0.09	891251	keystroke_f	f	n/a
445.7155	0.12	891431	keystroke_i	i	n/a
446.0305	0.12	892061	keystroke_l	l	n/a
446.2855	0.075	892571	keystroke_e	e	n/a
446.4655	0.105	892931	keystroke_d	d	n/a
446.7355	0.074	893471	keystroke_Key.enter	Key.enter	n/a
446.8145	6.102	893629	prompt	n/a	composer inside victim reached\n
447.4545	0.121	894909	keystroke_c	c	n/a
447.5895	0.105	895179	keystroke_o	o	n/a
447.8745	0.105	895749	keystroke_m	m	n/a
448.0245	0.15	896049	keystroke_p	p	n/a
448.1595	0.15	896319	keystroke_o	o	n/a
448.3245	0.09	896649	keystroke_s	s	n/a
448.7595	0.121	897519	keystroke_e	e	n/a
448.8495	0.165	897699	keystroke_r	r	n/a
449.0295	0.12	898059	keystroke_Key.space	Key.space	n/a
449.1655	0.18	898331	keystroke_i	i	n/a
449.3155	0.119	898631	keystroke_n	n	n/a
449.4495	0.135	898899	keystroke_s	s	n/a
449.6145	0.12	899229	keystroke_i	i	n/a
449.7045	0.12	899409	keystroke_d	d	n/a
449.9445	0.075	899889	keystroke_e	e	n/a
450.0495	0.12	900099	keystroke_Key.space	Key.space	n/a
450.2155	0.119	900431	keystroke_v	v	n/a
450.3195	0.15	900639	keystroke_i	i	n/a
450.5605	0.089	901121	keystroke_c	c	n/a
451.0245	0.105	902049	keystroke_t	t	n/a
451.1595	0.15	902319	keystroke_i	i	n/a
451.2495	0.195	902499	keystroke_m	m	n/a
451.4305	0.149	902861	keystroke_Key.space	Key.space	n/a
451.5945	0.105	903189	keystroke_r	r	n/a
451.6695	0.12	903339	keystroke_e	e	n/a
451.8945	0.12	903789	keystroke_a	a	n/a
452.135	0.105	904270	keystroke_c	c	n/a
452.21	0.105	904420	keystroke_h	h	n/a
452.36	0.075	904720	keystroke_e	e	n/a
452.585	0.075	905170	keystroke_d	d	n/a
452.84	0.075	905680	keystroke_Key.enter	Key.enter	n/a
452.919	4.5875	905838	prompt	n/a	sure lion regions generic\n
453.485	0.135	906970	keystroke_s	s	n/a
453.65	0.12	907300	keystroke_u	u	n/a
453.815	0.15	907630	keystroke_r	r	n/a
453.92	0.165	907840	keystroke_e	e	n/a
454.055	0.12	908110	keystroke_Key.space	Key.space	n/a
454.235	0.135	908470	keystroke_l	l	n/a
454.46	0.1655	908920	keystroke_i	i	n/a
454.6405	0.165	909281	keystroke_o	o	n/a
454.7755	0.18	909551	keystroke_n	n	n/a
454.9405	0.135	909881	keystroke_Key.space	Key.space	n/a
455.1655	0.18	910331	keystroke_r	r	n/a
455.3305	0.09	910661	keystroke_e	e	n/a
455.5105	0.105	911021	keystroke_g	g	n/a
455.6005	0.1345	911201	keystroke_i	i	n/a
455.72	0.195	911440	keystroke_o	o	n/a
455.81	0.195	911620	keystroke_n	n	n/a
455.975	0.12	911950	keystroke_s	s	n/a
456.08	0.165	912160	keystroke_Key.space	Key.space	n/a
456.29	0.105	912580	keystroke_g	g	n/a
456.455	0.12	912910	keystroke_e	e	n/a
456.59	0.135	913180	keystroke_n	n	n/a
456.74	0.15	913480	keystroke_e	e	n/a
456.86	0.135	913720	keystroke_r	r	n/a
457.055	0.12	914110	keystroke_i	i	n/a
457.205	0.1195	914410	keystroke_c	c	n/a
457.4445	0.06	914889	keystroke_Key.enter	Key.enter	n/a
457.509	6.4325	915018	prompt	n/a	represents enough excerpt developer\n
458.18	0.15	916360	keystroke_r	r	n/a
458.315	0.105	916630	keystroke_e	e	n/a
458.45	0.105	916900	keystroke_p	p	n/a
458.585	0.18	917170	keystroke_r	r	n/a
458.75	0.15	917500	keystroke_e	e	n/a
458.901	0.194	917802	keystroke_s	s	n/a
459.02	0.135	918040	keystroke_e	e	n/a
459.17	0.135	918340	keystroke_n	n	n/a
459.29	0.105	918580	keystroke_t	t	n/a
459.5	0.105	919000	keystroke_s	s	n/a
459.59	0.135	919180	keystroke_Key.space	Key.space	n/a
459.74	0.135	919480	keystroke_e	e	n/a
459.86	0.12	919720	keystroke_n	n	n/a
460.01	0.165	920020	keystroke_o	o	n/a
460.13	0.135	920260	keystroke_u	u	n/a
460.28	0.12	920560	keystroke_g	g	n/a
460.385	0.135	920770	keystroke_h	h	n/a
460.535	0.12	921070	keystroke_Key.space	Key.space	n/a
460.625	0.075	921250	keystroke_e	e	n/a
460.88	0.09	921760	keystroke_x	x	n/a
461.075	0.09	922150	keystroke_c	c	n/a
461.42	0.135	922840	keystroke_e	e	n/a
461.57	0.135	923140	keystroke_r	r	n/a
461.765	0.12	923530	keystroke_p	p	n/a
461.93	0.12	923860	keystroke_t	t	n/a
462.08	0.12	924160	keystroke_Key.space	Key.space	n/a
462.26	0.09	924520	keystroke_d	d	n/a
462.47	0.075	924940	keystroke_e	e	n/a
462.695	0.12	925390	keystroke_v	v	n/a
462.9045	0.105	925809	keystroke_e	e	n/a
463.0845	0.15	926169	keystroke_l	l	n/a
463.2045	0.135	926409	keystroke_o	o	n/a
463.3695	0.165	926739	keystroke_p	p	n/a
463.5195	0.165	927039	keystroke_e	e	n/a
463.6395	0.135	927279	keystroke_r	r	n/a
463.8645	0.075	927729	keystroke_Key.enter	Key.enter	n/a
463.944	6.192	927888	prompt	n/a	manor explanation mere religions\n
464.5695	0.15	929139	keystroke_m	m	n/a
464.7645	0.1205	929529	keystroke_a	a	n/a
464.9	0.06	929800	keystroke_n	n	n/a
465.05	0.135	930100	keystroke_o	o	n/a
465.155	0.135	930310	keystroke_r	r	n/a
465.365	0.15	930730	keystroke_Key.space	Key.space	n/a
465.545	0.09	931090	keystroke_e	e	n/a
465.8	0.1195	931600	keystroke_x	x	n/a
466.1745	0.091	932349	keystroke_p	p	n/a
466.3855	0.134	932771	keystroke_l	l	n/a
466.5505	0.135	933101	keystroke_a	a	n/a
466.6705	0.135	933341	keystroke_n	n	n/a
466.895	0.09	933790	keystroke_a	a	n/a
467.15	0.0445	934300	keystroke_t	t	n/a
467.2095	0.135	934419	keystroke_i	i	n/a
467.3595	0.165	934719	keystroke_o	o	n/a
467.4345	0.21	934869	keystroke_n	n	n/a
467.6295	0.105	935259	keystroke_Key.space	Key.space	n/a
467.8995	0.165	935799	keystroke_m	m	n/a
468.0795	0.165	936159	keystroke_e	e	n/a
468.2145	0.195	936429	keystroke_r	r	n/a
468.3795	0.18	936759	keystroke_e	e	n/a
468.5895	0.15	937179	keystroke_Key.space	Key.space	n/a
468.7845	0.1355	937569	keystroke_r	r	n/a
468.905	0.15	937810	keystroke_e	e	n/a
469.04	0.195	938080	keystroke_l	l	n/a
469.22	0.12	938440	keystroke_i	i	n/a
469.31	0.135	938620	keystroke_g	g	n/a
469.46	0.105	938920	keystroke_i	i	n/a
469.52	0.165	939040	keystroke_o	o	n/a
469.61	0.165	939220	keystroke_n	n	n/a
469.805	0.105	939610	keystroke_s	s	n/a
470.0605	0.0745	940121	keystroke_Key.enter	Key.enter	n/a
470.139	7.2575	940278	prompt	n/a	transaction close province yamaha\n
470.72	0.09	941440	keystroke_r	r	n/a
471.2	0.075	942400	keystroke_Key.backspace	Key.backspace	n/a
471.335	0.09	942670	keystroke_t	t	n/a
471.56	0.09	943120	keystroke_r	r	n/a
471.695	0.165	943390	keystroke_a	a	n/a
471.845	0.135	943690	keystroke_n	n	n/a
471.965	0.09	943930	keystroke_s	s	n/a
472.175	0.075	944350	keystroke_a	a	n/a
472.385	0.09	944770	keystroke_c	c	n/a
472.64	0.12	945280	keystroke_t	t	n/a
472.745	0.105	945490	keystroke_i	i	n/a
472.835	0.165	945670	keystroke_o	o	n/a
472.925	0.15	945850	keystroke_n	n	n/a
473.045	0.12	946090	keystroke_Key.space	Key.space	n/a
473.18	0.135	946360	keystroke_c	c	n/a
473.27	0.195	946540	keystroke_l	l	n/a
473.435	0.135	946870	keystroke_o	o	n/a
473.555	0.165	947110	keystroke_s	s	n/a
473.675	0.105	947350	keystroke_e	e	n/a
473.765	0.165	947530	keystroke_Key.space	Key.space	n/a
474.035	0.135	948070	keystroke_p	p	n/a
474.155	0.12	948310	keystroke_r	r	n/a
474.29	0.105	948580	keystroke_o	o	n/a
474.47	0.09	948940	keystroke_v	v	n/a
474.561	0.104	949122	keystroke_i	i	n/a
474.725	0.135	949450	keystroke_n	n	n/a
474.875	0.15	949750	keystroke_c	c	n/a
475.01	0.105	950020	keystroke_e	e	n/a
475.145	0.135	950290	keystroke_Key.space	Key.space	n/a
475.91	0.135	951820	keystroke_y	y	n/a
476.315	0.105	952630	keystroke_a	a	n/a
476.435	0.135	952870	keystroke_m	m	n/a
476.8545	0.075	953709	keystroke_a	a	n/a
476.9595	0.105	953919	keystroke_h	h	n/a
477.1095	0.1055	954219	keystroke_a	a	n/a
477.35	0.045	954700	keystroke_Key.enter	Key.enter	n/a
477.399	6.7025	954798	prompt	n/a	bother property interpreted cart\n
478.0395	0.09	956079	keystroke_b	b	n/a
478.2495	0.105	956499	keystroke_o	o	n/a
478.3245	0.106	956649	keystroke_t	t	n/a
478.4595	0.15	956919	keystroke_h	h	n/a
478.6245	0.195	957249	keystroke_e	e	n/a
478.7745	0.12	957549	keystroke_r	r	n/a
478.9545	0.105	957909	keystroke_Key.space	Key.space	n/a
479.1045	0.135	958209	keystroke_p	p	n/a
479.2405	0.104	958481	keystroke_r	r	n/a
479.3145	0.135	958629	keystroke_o	o	n/a
479.4345	0.15	958869	keystroke_p	p	n/a
479.5695	0.15	959139	keystroke_e	e	n/a
479.66	0.105	959320	keystroke_r	r	n/a
479.8995	0.0905	959799	keystroke_t	t	n/a
480.1995	0.105	960399	keystroke_y	y	n/a
480.7095	0.105	961419	keystroke_Key.space	Key.space	n/a
