onset	duration	sample	value	key	prompt_text
0	0.001	0	keystroke	Key.enter	n/a
0.0485	21.22	97	prompt	n/a	the quick brown fox jumps over a lazy dog\n
12.5825	0.028	25165	keystroke	t	n/a
12.6255	0.09	25251	keystroke	h	n/a
12.9855	0.075	25971	keystroke	e	n/a
13.1505	0.09	26301	keystroke	Key.space	n/a
13.5255	0.03	27051	keystroke	q	n/a
13.5855	0.105	27171	keystroke	u	n/a
13.7505	0.075	27501	keystroke	i	n/a
14.0505	0.06	28101	keystroke	c	n/a
14.1255	0.135	28251	keystroke	k	n/a
14.2755	0.06	28551	keystroke	Key.space	n/a
14.4255	0.105	28851	keystroke	b	n/a
14.5905	0.105	29181	keystroke	r	n/a
14.7105	0.09	29421	keystroke	o	n/a
14.9655	0.06	29931	keystroke	w	n/a
15.0705	0.09	30141	keystroke	n	n/a
15.2355	0.075	30471	keystroke	Key.space	n/a
15.4905	0.015	30981	keystroke	f	n/a
15.5505	0.075	31101	keystroke	o	n/a
15.9105	0.075	31821	keystroke	x	n/a
16.0155	0.09	32031	keystroke	Key.space	n/a
16.1655	0.09	32331	keystroke	j	n/a
16.3455	0.06	32691	keystroke	u	n/a
16.5255	0.075	33051	keystroke	m	n/a
16.7805	0.015	33561	keystroke	p	n/a
16.8855	0.075	33771	keystroke	s	n/a
17.0205	0.075	34041	keystroke	Key.space	n/a
17.2905	0.03	34581	keystroke	o	n/a
17.5155	0.075	35031	keystroke	v	n/a
17.6955	0.15	35391	keystroke	e	n/a
17.8605	0.075	35721	keystroke	r	n/a
18.0105	0.075	36021	keystroke	Key.space	n/a
18.6555	0.06	37311	keystroke	a	n/a
18.7755	0.09	37551	keystroke	Key.space	n/a
19.0155	0.09	38031	keystroke	l	n/a
19.1805	0.09	38361	keystroke	a	n/a
19.4655	0.09	38931	keystroke	z	n/a
19.5555	0.195	39111	keystroke	y	n/a
19.7655	0.015	39531	keystroke	Key.space	n/a
19.9455	0.045	39891	keystroke	d	n/a
20.0355	0.06	40071	keystroke	o	n/a
20.3055	0.075	40611	keystroke	g	n/a
21.2055	0.06	42411	keystroke	Key.enter	n/a
21.2725	7.09	42545	prompt	n/a	troy let's abuse obtain\n
22.2105	0.12	44421	keystroke	t	n/a
22.6155	0.06	45231	keystroke	r	n/a
22.7805	0.075	45561	keystroke	o	n/a
23.3655	0.03	46731	keystroke	y	n/a
23.3805	0.075	46761	keystroke	Key.space	n/a
23.6055	0.105	47211	keystroke	l	n/a
23.7255	0.15	47451	keystroke	e	n/a
23.9955	0.075	47991	keystroke	t	n/a
25.0005	0.12	50001	keystroke	'	n/a
25.2705	0.045	50541	keystroke	s	n/a
25.3755	0.12	50751	keystroke	Key.space	n/a
25.5555	0.21	51111	keystroke	a	n/a
25.7505	0.03	51501	keystroke	b	n/a
25.8555	0.075	51711	keystroke	u	n/a
25.9755	0.18	51951	keystroke	s	n/a
26.2005	0.09	52401	keystroke	e	n/a
26.3355	0.09	52671	keystroke	Key.space	n/a
26.6205	0.015	53241	keystroke	o	n/a
26.8305	0.075	53661	keystroke	b	n/a
27.1005	0.075	54201	keystroke	t	n/a
27.3555	0.105	54711	keystroke	a	n/a
27.4455	0.06	54891	keystroke	i	n/a
27.5955	0.12	55191	keystroke	n	n/a
28.2855	0.075	56571	keystroke	Key.enter	n/a
28.3665	7.001	56733	prompt	n/a	who're repairs frame sells\n
29.0805	0.03	58161	keystroke	w	n/a
29.0955	0.075	58191	keystroke	h	n/a
29.3355	0.06	58671	keystroke	o	n/a
30.3105	0.06	60621	keystroke	'	n/a
30.4605	0.135	60921	keystroke	r	n/a
30.6105	0.135	61221	keystroke	e	n/a
30.8205	0.105	61641	keystroke	Key.space	n/a
31.2255	0.15	62451	keystroke	r	n/a
31.3605	0.21	62721	keystroke	e	n/a
31.6155	0.075	63231	keystroke	p	n/a
31.7955	0.15	63591	keystroke	a	n/a
31.9605	0.045	63921	keystroke	i	n/a
32.0655	0.09	64131	keystroke	r	n/a
32.3205	0.075	64641	keystroke	s	n/a
32.4555	0.075	64911	keystroke	Key.space	n/a
32.6955	0.015	65391	keystroke	f	n/a
32.8755	0.03	65751	keystroke	r	n/a
33.1005	0.045	66201	keystroke	a	n/a
33.2055	0.18	66411	keystroke	m	n/a
33.4155	0.09	66831	keystroke	e	n/a
33.6255	0.075	67251	keystroke	Key.space	n/a
33.7905	0.075	67581	keystroke	s	n/a
34.0605	0.03	68121	keystroke	e	n/a
34.1655	0.06	68331	keystroke	l	n/a
34.3155	0.075	68631	keystroke	l	n/a
34.4655	0.09	68931	keystroke	s	n/a
35.2755	0.09	70551	keystroke	Key.enter	n/a
35.372	7.375	70744	prompt	n/a	assets palestinian mating magic\n
36.0705	0.06	72141	keystroke	a	n/a
36.2955	0.075	72591	keystroke	s	n/a
36.4455	0.075	72891	keystroke	s	n/a
36.5955	0.105	73191	keystroke	e	n/a
36.8805	0.03	73761	keystroke	t	n/a
37.0905	0.09	74181	keystroke	s	n/a
37.4205	0.075	74841	keystroke	Key.space	n/a
37.6905	0.03	75381	keystroke	p	n/a
37.8105	0.135	75621	keystroke	a	n/a
37.9605	0.075	75921	keystroke	l	n/a
38.0805	0.09	76161	keystroke	e	n/a
38.3055	0.15	76611	keystroke	s	n/a
38.5155	0.09	77031	keystroke	t	n/a
38.6355	0.06	77271	keystroke	i	n/a
38.8005	0.06	77601	keystroke	n	n/a
39.0405	0.015	78081	keystroke	i	n/a
39.2955	0.06	78591	keystroke	a	n/a
39.4005	0.12	78801	keystroke	n	n/a
39.9255	0.015	79851	keystroke	Key.space	n/a
40.3905	0.09	80781	keystroke	m	n/a
40.5255	0.06	81051	keystroke	a	n/a
40.7805	0.03	81561	keystroke	t	n/a
40.8255	0.06	81651	keystroke	i	n/a
40.9755	0.075	81951	keystroke	n	n/a
41.0805	0.09	82161	keystroke	g	n/a
41.1855	0.09	82371	keystroke	Key.space	n/a
41.5155	0.075	83031	keystroke	m	n/a
41.6355	0.09	83271	keystroke	a	n/a
41.9205	0.06	83841	keystroke	g	n/a
42.0105	0.09	84021	keystroke	i	n/a
42.2205	0.075	84441	keystroke	c	n/a
42.6705	0.075	85341	keystroke	Key.enter	n/a
42.7505	8.727	85501	prompt	n/a	risks check decide advances\n
45.4325	0.028	90865	keystroke	r	n/a
45.5055	0.09	91011	keystroke	i	n/a
45.7305	0.075	91461	keystroke	s	n/a
45.8205	0.075	91641	keystroke	k	n/a
45.9705	0.105	91941	keystroke	s	n/a
46.1205	0.09	92241	keystroke	Key.space	n/a
46.3305	0.075	92661	keystroke	c	n/a
46.3905	0.105	92781	keystroke	h	n/a
46.5105	0.06	93021	keystroke	e	n/a
46.6755	0.09	93351	keystroke	c	n/a
46.7805	0.075	93561	keystroke	k	n/a
46.8855	0.075	93771	keystroke	Key.space	n/a
47.0205	0.09	94041	keystroke	d	n/a
47.2155	0.06	94431	keystroke	e	n/a
47.4105	0.09	94821	keystroke	c	n/a
47.5155	0.06	95031	keystroke	i	n/a
47.6805	0.075	95361	keystroke	d	n/a
47.8755	0.06	95751	keystroke	e	n/a
48.3705	0.09	96741	keystroke	Key.space	n/a
48.7905	0.12	97581	keystroke	a	n/a
49.0005	0.075	98001	keystroke	d	n/a
49.2405	0.06	98481	keystroke	v	n/a
49.4505	0.09	98901	keystroke	a	n/a
49.5705	0.09	99141	keystroke	n	n/a
49.6905	0.09	99381	keystroke	c	n/a
49.8405	0.09	99681	keystroke	e	n/a
50.1255	0.06	100251	keystroke	s	n/a
51.3855	0.09	102771	keystroke	Key.enter	n/a
51.481	7.4365	102962	prompt	n/a	threatened flights cash seeds\n
52.1355	0.105	104271	keystroke	t	n/a
52.2255	0.09	104451	keystroke	h	n/a
52.3605	0.105	104721	keystroke	r	n/a
52.4805	0.09	104961	keystroke	e	n/a
52.6905	0.06	105381	keystroke	a	n/a
52.8855	0.075	105771	keystroke	t	n/a
53.0655	0.09	106131	keystroke	e	n/a
53.2155	0.09	106431	keystroke	n	n/a
53.3205	0.09	106641	keystroke	e	n/a
53.5605	0.075	107121	keystroke	d	n/a
53.6955	0.075	107391	keystroke	Key.space	n/a
54.1905	0.06	108381	keystroke	f	n/a
55.3005	0.09	110601	keystroke	l	n/a
55.5555	0.075	111111	keystroke	i	n/a
55.7205	0.075	111441	keystroke	g	n/a
55.8105	0.06	111621	keystroke	h	n/a
55.9605	0.075	111921	keystroke	t	n/a
56.2305	0.075	112461	keystroke	s	n/a
56.3805	0.09	112761	keystroke	Key.space	n/a
56.6055	0.105	113211	keystroke	c	n/a
56.8755	0.075	113751	keystroke	a	n/a
57.0555	0.075	114111	keystroke	s	n/a
57.1455	0.105	114291	keystroke	h	n/a
57.2655	0.09	114531	keystroke	Key.space	n/a
57.4455	0.09	114891	keystroke	s	n/a
57.6555	0.06	115311	keystroke	e	n/a
57.8055	0.075	115611	keystroke	e	n/a
57.9855	0.09	115971	keystroke	d	n/a
58.0905	0.105	116181	keystroke	s	n/a
58.8105	0.105	117621	keystroke	Key.enter	n/a
58.9235	7.3445	117847	prompt	n/a	features endorsed hostel television\n
59.6655	0.09	119331	keystroke	f	n/a
59.8605	0.075	119721	keystroke	e	n/a
60.0255	0.09	120051	keystroke	a	n/a
60.2505	0.075	120501	keystroke	t	n/a
60.3405	0.105	120681	keystroke	u	n/a
60.4755	0.105	120951	keystroke	r	n/a
60.5955	0.09	121191	keystroke	e	n/a
60.8355	0.09	121671	keystroke	s	n/a
60.9405	0.09	121881	keystroke	Key.space	n/a
61.0755	0.075	122151	keystroke	e	n/a
61.1805	0.09	122361	keystroke	n	n/a
61.3155	0.105	122631	keystroke	d	n/a
61.4505	0.075	122901	keystroke	o	n/a
61.5705	0.105	123141	keystroke	r	n/a
61.8405	0.06	123681	keystroke	s	n/a
62.0055	0.075	124011	keystroke	e	n/a
62.2155	0.06	124431	keystroke	d	n/a
62.2905	0.06	124581	keystroke	Key.space	n/a
62.4705	0.06	124941	keystroke	h	n/a
62.6655	0.06	125331	keystroke	o	n/a
62.7705	0.09	125541	keystroke	s	n/a
62.9655	0.075	125931	keystroke	t	n/a
63.0865	0.104	126173	keystroke	e	n/a
63.2355	0.075	126471	keystroke	l	n/a
63.3555	0.075	126711	keystroke	Key.space	n/a
63.6705	0.075	127341	keystroke	t	n/a
63.8205	0.075	127641	keystroke	e	n/a
63.9405	0.06	127881	keystroke	l	n/a
64.0455	0.075	128091	keystroke	e	n/a
64.2855	0.075	128571	keystroke	v	n/a
64.5255	0.045	129051	keystroke	i	n/a
64.6605	0.075	129321	keystroke	s	n/a
64.8255	0.06	129651	keystroke	i	n/a
65.0355	0.03	130071	keystroke	o	n/a
65.1855	0.075	130371	keystroke	n	n/a
66.1005	0.165	132201	keystroke	Key.enter	n/a
66.271	6.687	132542	prompt	n/a	shares jewelry thrown relatively\n
66.8805	0.09	133761	keystroke	s	n/a
66.9555	0.09	133911	keystroke	h	n/a
67.1055	0.075	134211	keystroke	a	n/a
67.2255	0.105	134451	keystroke	r	n/a
67.3455	0.075	134691	keystroke	e	n/a
67.5705	0.075	135141	keystroke	s	n/a
67.6605	0.09	135321	keystroke	Key.space	n/a
67.9305	0.075	135861	keystroke	j	n/a
68.0655	0.12	136131	keystroke	e	n/a
68.3055	0.12	136611	keystroke	w	n/a
68.6055	0.09	137211	keystroke	e	n/a
68.9205	0.09	137841	keystroke	l	n/a
69.5505	0.075	139101	keystroke	r	n/a
69.6105	0.09	139221	keystroke	y	n/a
69.9555	0.09	139911	keystroke	Key.space	n/a
70.1655	0.06	140331	keystroke	t	n/a
70.2555	0.06	140511	keystroke	h	n/a
70.3605	0.075	140721	keystroke	r	n/a
70.4955	0.075	140991	keystroke	o	n/a
70.6155	0.09	141231	keystroke	w	n/a
70.7205	0.09	141441	keystroke	n	n/a
70.7955	0.09	141591	keystroke	Key.space	n/a
71.0805	0.015	142161	keystroke	r	n/a
71.1105	0.075	142221	keystroke	e	n/a
71.1705	0.075	142341	keystroke	l	n/a
71.4265	0.059	142853	keystroke	a	n/a
71.6655	0.075	143331	keystroke	t	n/a
71.8605	0.075	143721	keystroke	i	n/a
71.9805	0.06	143961	keystroke	v	n/a
72.1305	0.075	144261	keystroke	e	n/a
72.2205	0.075	144441	keystroke	l	n/a
72.4305	0.09	144861	keystroke	y	n/a
72.8955	0.06	145791	keystroke	Key.enter	n/a
72.961	5.9665	145922	prompt	n/a	fifteen marriage keyboard form\n
73.6005	0.075	147201	keystroke	f	n/a
73.6605	0.09	147321	keystroke	i	n/a
73.8105	0.09	147621	keystroke	f	n/a
74.0205	0.075	148041	keystroke	t	n/a
74.2005	0.06	148401	keystroke	e	n/a
74.3655	0.076	148731	keystroke	e	n/a
74.4705	0.075	148941	keystroke	n	n/a
74.5605	0.075	149121	keystroke	Key.space	n/a
74.7265	0.074	149453	keystroke	m	n/a
74.8155	0.075	149631	keystroke	a	n/a
75.0255	0.06	150051	keystroke	r	n/a
75.1755	0.075	150351	keystroke	r	n/a
75.2805	0.045	150561	keystroke	i	n/a
75.4305	0.075	150861	keystroke	a	n/a
75.5205	0.09	151041	keystroke	g	n/a
75.6555	0.105	151311	keystroke	e	n/a
75.7755	0.06	151551	keystroke	Key.space	n/a
76.1805	0.045	152361	keystroke	k	n/a
76.3155	0.076	152631	keystroke	e	n/a
76.4205	0.09	152841	keystroke	y	n/a
76.6615	0.059	153323	keystroke	b	n/a
76.8705	0.061	153741	keystroke	o	n/a
76.9905	0.09	153981	keystroke	a	n/a
77.1405	0.075	154281	keystroke	r	n/a
77.3505	0.076	154701	keystroke	d	n/a
77.4405	0.105	154881	keystroke	Key.space	n/a
77.6065	0.074	155213	keystroke	f	n/a
77.7255	0.075	155451	keystroke	o	n/a
77.8455	0.09	155691	keystroke	r	n/a
77.9815	0.105	155963	keystroke	m	n/a
78.8655	0.06	157731	keystroke	Key.enter	n/a
78.9305	8.502	157861	prompt	n/a	designers scales expansys probability\n
79.9155	0.075	159831	keystroke	d	n/a
80.1105	0.09	160221	keystroke	e	n/a
80.3655	0.075	160731	keystroke	s	n/a
80.4555	0.075	160911	keystroke	i	n/a
80.6505	0.06	161301	keystroke	g	n/a
80.7405	0.09	161481	keystroke	n	n/a
80.8915	0.119	161783	keystroke	e	n/a
81.0265	0.074	162053	keystroke	r	n/a
81.2505	0.076	162501	keystroke	s	n/a
81.3705	0.091	162741	keystroke	Key.space	n/a
81.5355	0.06	163071	keystroke	s	n/a
81.7165	0.089	163433	keystroke	c	n/a
81.8805	0.075	163761	keystroke	a	n/a
81.9855	0.106	163971	keystroke	l	n/a
82.1065	0.119	164213	keystroke	e	n/a
82.3755	0.091	164751	keystroke	s	n/a
82.4955	0.09	164991	keystroke	Key.space	n/a
82.7665	0.074	165533	keystroke	e	n/a
83.0215	0.089	166043	keystroke	x	n/a
83.3815	0.075	166763	keystroke	p	n/a
83.6355	0.045	167271	keystroke	a	n/a
83.7265	0.075	167453	keystroke	n	n/a
83.9205	0.076	167841	keystroke	s	n/a
84.0105	0.09	168021	keystroke	y	n/a
84.1915	0.059	168383	keystroke	s	n/a
84.9405	0.09	169881	keystroke	Key.space	n/a
85.1815	0.075	170363	keystroke	p	n/a
85.3155	0.076	170631	keystroke	r	n/a
85.4055	0.06	170811	keystroke	o	n/a
85.6305	0.061	171261	keystroke	b	n/a
85.7665	0.075	171533	keystroke	a	n/a
85.8565	0.089	171713	keystroke	b	n/a
86.0805	0.06	172161	keystroke	i	n/a
86.3055	0.06	172611	keystroke	l	n/a
86.4855	0.061	172971	keystroke	i	n/a
86.6365	0.075	173273	keystroke	t	n/a
86.6965	0.089	173393	keystroke	y	n/a
87.3415	0.089	174683	keystroke	Key.enter	n/a
87.4355	8.562	174871	prompt	n/a	computer screens gardens cause\n
88.3165	0.105	176633	keystroke	c	n/a
88.4055	0.061	176811	keystroke	o	n/a
88.5865	0.06	177173	keystroke	m	n/a
88.7805	0.045	177561	keystroke	p	n/a
88.9155	0.076	177831	keystroke	u	n/a
88.9765	0.105	177953	keystroke	t	n/a
89.1565	0.12	178313	keystroke	e	n/a
89.2765	0.074	178553	keystroke	r	n/a
89.3805	0.076	178761	keystroke	Key.space	n/a
89.5315	0.059	179063	keystroke	s	n/a
89.7115	0.09	179423	keystroke	c	n/a
89.9355	0.091	179871	keystroke	r	n/a
90.0565	0.09	180113	keystroke	e	n/a
90.2665	0.075	180533	keystroke	e	n/a
90.5515	0.09	181103	keystroke	n	n/a
91.0915	0.089	182183	keystroke	s	n/a
91.2265	0.104	182453	keystroke	Key.space	n/a
91.4815	0.075	182963	keystroke	g	n/a
91.6905	0.091	183381	keystroke	a	n/a
91.8265	0.12	183653	keystroke	r	n/a
92.4265	0.075	184853	keystroke	d	n/a
92.6065	0.06	185213	keystroke	e	n/a
92.7265	0.075	185453	keystroke	n	n/a
92.9215	0.09	185843	keystroke	s	n/a
93.1015	0.09	186203	keystroke	Key.space	n/a
93.2515	0.09	186503	keystroke	c	n/a
93.4465	0.075	186893	keystroke	a	n/a
93.5515	0.09	187103	keystroke	u	n/a
93.7015	0.09	187403	keystroke	s	n/a
93.8665	0.105	187733	keystroke	e	n/a
95.9065	0.09	191813	keystroke	Key.enter	n/a
96.001	9.6715	192002	prompt	n/a	actually licence register persian\n
96.6565	0.06	193313	keystroke	a	n/a
96.8515	0.075	193703	keystroke	c	n/a
97.0765	0.09	194153	keystroke	t	n/a
97.1815	0.06	194363	keystroke	u	n/a
97.3465	0.075	194693	keystroke	a	n/a
97.4215	0.075	194843	keystroke	l	n/a
97.5415	0.075	195083	keystroke	l	n/a
97.7365	0.09	195473	keystroke	y	n/a
97.8415	0.09	195683	keystroke	Key.space	n/a
98.1115	0.09	196223	keystroke	l	n/a
98.3215	0.075	196643	keystroke	i	n/a
98.4715	0.09	196943	keystroke	c	n/a
98.7115	0.075	197423	keystroke	e	n/a
98.8315	0.075	197663	keystroke	n	n/a
98.9965	0.075	197993	keystroke	s	n/a
99.3865	0.075	198773	keystroke	Key.backspace	n/a
99.5215	0.09	199043	keystroke	c	n/a
99.6865	0.075	199373	keystroke	e	n/a
100.0765	0.09	200153	keystroke	Key.space	n/a
102.5535	0.043	205107	keystroke	r	n/a
102.6115	0.09	205223	keystroke	e	n/a
102.8215	0.075	205643	keystroke	g	n/a
102.9265	0.075	205853	keystroke	i	n/a
103.0615	0.075	206123	keystroke	s	n/a
103.2715	0.075	206543	keystroke	t	n/a
103.4215	0.135	206843	keystroke	e	n/a
103.5265	0.135	207053	keystroke	r	n/a
103.7065	0.09	207413	keystroke	Key.space	n/a
103.9165	0.09	207833	keystroke	p	n/a
104.0365	0.09	208073	keystroke	e	n/a
104.2465	0.06	208493	keystroke	r	n/a
104.5615	0.075	209123	keystroke	s	n/a
104.8165	0.075	209633	keystroke	i	n/a
104.9815	0.09	209963	keystroke	a	n/a
105.1165	0.105	210233	keystroke	n	n/a
105.5965	0.075	211193	keystroke	Key.enter	n/a
105.6755	9.4175	211351	prompt	n/a	household talent functionality november\n
106.3615	0.075	212723	keystroke	h	n/a
106.5865	0.09	213173	keystroke	o	n/a
106.6315	0.09	213263	keystroke	u	n/a
106.7365	0.075	213473	keystroke	s	n/a
106.8865	0.105	213773	keystroke	e	n/a
107.0215	0.075	214043	keystroke	h	n/a
107.2165	0.06	214433	keystroke	o	n/a
107.3965	0.09	214793	keystroke	l	n/a
107.5465	0.075	215093	keystroke	d	n/a
107.6365	0.075	215273	keystroke	Key.space	n/a
107.8765	0.06	215753	keystroke	t	n/a
108.0865	0.09	216173	keystroke	a	n/a
108.2215	0.075	216443	keystroke	l	n/a
108.3565	0.09	216713	keystroke	e	n/a
108.4915	0.09	216983	keystroke	n	n/a
108.6565	0.075	217313	keystroke	t	n/a
108.8065	0.075	217613	keystroke	Key.space	n/a
109.1665	0.075	218333	keystroke	f	n/a
109.2715	0.09	218543	keystroke	u	n/a
109.5115	0.09	219023	keystroke	n	n/a
109.6615	0.09	219323	keystroke	c	n/a
109.9615	0.075	219923	keystroke	t	n/a
110.0515	0.09	220103	keystroke	i	n/a
110.2165	0.075	220433	keystroke	o	n/a
110.3815	0.075	220763	keystroke	n	n/a
110.5165	0.105	221033	keystroke	a	n/a
110.6365	0.075	221273	keystroke	l	n/a
110.9815	0.03	221963	keystroke	t	n/a
111.4465	0.045	222893	keystroke	Key.backspace	n/a
112.1365	0.06	224273	keystroke	i	n/a
112.3165	0.075	224633	keystroke	t	n/a
112.4215	0.09	224843	keystroke	y	n/a
113.3215	0.06	226643	keystroke	Key.space	n/a
113.4865	0.06	226973	keystroke	n	n/a
113.6815	0.06	227363	keystroke	o	n/a
113.7715	0.105	227543	keystroke	v	n/a
113.9365	0.12	227873	keystroke	e	n/a
114.0715	0.075	228143	keystroke	m	n/a
114.2665	0.075	228533	keystroke	b	n/a
114.3715	0.135	228743	keystroke	e	n/a
114.4915	0.12	228983	keystroke	r	n/a
114.9865	0.105	229973	keystroke	Key.enter	n/a
115.096	7.722	230192	prompt	n/a	priced orlando msgid cognitive\n
115.9465	0.06	231893	keystroke	p	n/a
116.0815	0.075	232163	keystroke	r	n/a
116.2165	0.075	232433	keystroke	i	n/a
116.4115	0.075	232823	keystroke	c	n/a
116.5765	0.06	233153	keystroke	e	n/a
116.7565	0.09	233513	keystroke	d	n/a
116.9065	0.105	233813	keystroke	Key.space	n/a
117.2365	0.075	234473	keystroke	o	n/a
117.3715	0.09	234743	keystroke	r	n/a
117.5215	0.075	235043	keystroke	l	n/a
117.7165	0.09	235433	keystroke	a	n/a
117.8665	0.09	235733	keystroke	n	n/a
118.0765	0.075	236153	keystroke	d	n/a
118.1965	0.06	236393	keystroke	o	n/a
118.4065	0.075	236813	keystroke	Key.space	n/a
118.8115	0.075	237623	keystroke	m	n/a
118.9465	0.09	237893	keystroke	s	n/a
119.2165	0.06	238433	keystroke	g	n/a
119.3065	0.075	238613	keystroke	i	n/a
119.5315	0.09	239063	keystroke	d	n/a
119.9065	0.09	239813	keystroke	Key.space	n/a
120.1615	0.09	240323	keystroke	c	n/a
120.6565	0.06	241313	keystroke	o	n/a
121.1665	0.075	242333	keystroke	g	n/a
121.3315	0.075	242663	keystroke	n	n/a
121.5265	0.075	243053	keystroke	i	n/a
121.6915	0.06	243383	keystroke	t	n/a
121.7965	0.075	243593	keystroke	i	n/a
121.9915	0.06	243983	keystroke	v	n/a
122.2015	0.075	244403	keystroke	e	n/a
122.6965	0.12	245393	keystroke	Key.enter	n/a
122.821	6.807	245642	prompt	n/a	reader pittsburgh turkey rentals\n
123.4615	0.12	246923	keystroke	r	n/a
123.5515	0.105	247103	keystroke	e	n/a
123.7615	0.06	247523	keystroke	a	n/a
123.9715	0.075	247943	keystroke	d	n/a
124.1065	0.15	248213	keystroke	e	n/a
124.2415	0.105	248483	keystroke	r	n/a
124.3765	0.09	248753	keystroke	Key.space	n/a
124.5565	0.075	249113	keystroke	p	n/a
124.7665	0.075	249533	keystroke	i	n/a
124.9165	0.03	249833	keystroke	t	n/a
125.0365	0.06	250073	keystroke	t	n/a
125.2915	0.09	250583	keystroke	s	n/a
125.4115	0.075	250823	keystroke	b	n/a
125.5465	0.075	251093	keystroke	u	n/a
125.7265	0.075	251453	keystroke	r	n/a
125.8315	0.075	251663	keystroke	g	n/a
126.0265	0.09	252053	keystroke	h	n/a
126.2665	0.075	252533	keystroke	Key.space	n/a
126.5515	0.06	253103	keystroke	t	n/a
126.6265	0.075	253253	keystroke	u	n/a
126.7615	0.075	253523	keystroke	r	n/a
126.8815	0.075	253763	keystroke	k	n/a
127.0315	0.075	254063	keystroke	e	n/a
127.1665	0.12	254333	keystroke	y	n/a
127.3915	0.105	254783	keystroke	Key.space	n/a
127.6465	0.09	255293	keystroke	r	n/a
127.7815	0.075	255563	keystroke	e	n/a
127.9015	0.09	255803	keystroke	n	n/a
128.0515	0.06	256103	keystroke	t	n/a
128.3065	0.045	256613	keystroke	a	n/a
128.3665	0.075	256733	keystroke	l	n/a
128.5915	0.06	257183	keystroke	s	n/a
129.5365	0.09	259073	keystroke	Key.enter	n/a
129.631	7.572	259262	prompt	n/a	biblical mexico columbus creates\n
130.3915	0.06	260783	keystroke	b	n/a
130.5715	0.075	261143	keystroke	i	n/a
130.7665	0.06	261533	keystroke	b	n/a
131.0065	0.045	262013	keystroke	l	n/a
131.1565	0.075	262313	keystroke	i	n/a
131.2615	0.09	262523	keystroke	c	n/a
131.4415	0.075	262883	keystroke	a	n/a
131.5615	0.075	263123	keystroke	l	n/a
131.6665	0.075	263333	keystroke	Key.space	n/a
131.8465	0.105	263693	keystroke	m	n/a
132.0265	0.075	264053	keystroke	e	n/a
132.2815	0.09	264563	keystroke	x	n/a
132.3565	0.075	264713	keystroke	i	n/a
132.5365	0.075	265073	keystroke	c	n/a
132.6865	0.06	265373	keystroke	o	n/a
132.8215	0.09	265643	keystroke	Key.space	n/a
133.1065	0.06	266213	keystroke	c	n/a
133.2115	0.045	266423	keystroke	o	n/a
133.4065	0.06	266813	keystroke	l	n/a
133.5565	0.075	267113	keystroke	u	n/a
133.7965	0.075	267593	keystroke	m	n/a
134.0065	0.06	268013	keystroke	b	n/a
134.1115	0.075	268223	keystroke	u	n/a
134.2615	0.075	268523	keystroke	s	n/a
134.4115	0.075	268823	keystroke	Key.space	n/a
134.6815	0.06	269363	keystroke	c	n/a
134.9065	0.09	269813	keystroke	r	n/a
135.0565	0.09	270113	keystroke	e	n/a
135.2665	0.06	270533	keystroke	a	n/a
135.4765	0.075	270953	keystroke	t	n/a
135.6565	0.06	271313	keystroke	e	n/a
135.9115	0.075	271823	keystroke	s	n/a
137.1265	0.075	274253	keystroke	Key.enter	n/a
137.2075	10.7085	274415	prompt	n/a	cake qualification combinations electronic\n
138.0415	0.075	276083	keystroke	c	n/a
138.2215	0.075	276443	keystroke	a	n/a
138.3115	0.075	276623	keystroke	k	n/a
138.4615	0.075	276923	keystroke	e	n/a
138.5815	0.09	277163	keystroke	Key.space	n/a
138.8365	0.075	277673	keystroke	q	n/a
138.8965	0.12	277793	keystroke	u	n/a
139.1515	0.075	278303	keystroke	a	n/a
139.2715	0.09	278543	keystroke	l	n/a
139.5265	0.075	279053	keystroke	i	n/a
139.7515	0.075	279503	keystroke	f	n/a
139.8715	0.075	279743	keystroke	i	n/a
140.0815	0.06	280163	keystroke	c	n/a
140.2765	0.075	280553	keystroke	a	n/a
140.5015	0.075	281003	keystroke	t	n/a
140.5915	0.075	281183	keystroke	i	n/a
140.7715	0.045	281543	keystroke	o	n/a
140.9515	0.09	281903	keystroke	n	n/a
141.0415	0.075	282083	keystroke	Key.space	n/a
141.1765	0.135	282353	keystroke	c	n/a
141.2665	0.06	282533	keystroke	o	n/a
141.4465	0.075	282893	keystroke	m	n/a
141.6565	0.09	283313	keystroke	b	n/a
141.8515	0.075	283703	keystroke	i	n/a
142.0165	0.09	284033	keystroke	n	n/a
142.1665	0.09	284333	keystroke	a	n/a
142.3915	0.075	284783	keystroke	t	n/a
142.4965	0.09	284993	keystroke	i	n/a
142.6915	0.06	285383	keystroke	o	n/a
142.8565	0.09	285713	keystroke	n	n/a
143.0065	0.09	286013	keystroke	s	n/a
143.1415	0.075	286283	keystroke	Key.space	n/a
143.5915	0.075	287183	keystroke	e	n/a
143.7265	0.075	287453	keystroke	l	n/a
143.8465	0.075	287693	keystroke	e	n/a
144.0715	0.09	288143	keystroke	c	n/a
144.3265	0.09	288653	keystroke	t	n/a
144.5365	0.075	289073	keystroke	r	n/a
144.6265	0.06	289253	keystroke	o	n/a
144.7915	0.06	289583	keystroke	n	n/a
144.9265	0.075	289853	keystroke	i	n/a
145.0765	0.09	290153	keystroke	c	n/a
147.9135	0	295827	keystroke	Key.enter	n/a
147.919	7.928	295838	prompt	n/a	apartment prepared anonymous counts\n
148.6315	0.105	297263	keystroke	a	n/a
148.7965	0.06	297593	keystroke	p	n/a
148.9915	0.09	297983	keystroke	a	n/a
149.1705	0.075	298341	keystroke	r	n/a
149.3805	0.075	298761	keystroke	t	n/a
149.6205	0.105	299241	keystroke	m	n/a
149.7855	0.075	299571	keystroke	e	n/a
149.8905	0.075	299781	keystroke	n	n/a
150.0555	0.076	300111	keystroke	t	n/a
150.1765	0.105	300353	keystroke	Key.space	n/a
150.4015	0.075	300803	keystroke	p	n/a
150.5065	0.104	301013	keystroke	r	n/a
150.6255	0.09	301251	keystroke	e	n/a
150.7905	0.105	301581	keystroke	p	n/a
151.0305	0.09	302061	keystroke	a	n/a
151.2855	0.105	302571	keystroke	r	n/a
151.3755	0.09	302751	keystroke	e	n/a
151.6455	0.105	303291	keystroke	d	n/a
151.7955	0.09	303591	keystroke	Key.space	n/a
152.0205	0.06	304041	keystroke	a	n/a
152.0955	0.075	304191	keystroke	n	n/a
152.3205	0.045	304641	keystroke	o	n/a
152.4705	0.09	304941	keystroke	n	n/a
152.6505	0.075	305301	keystroke	y	n/a
152.9205	0.045	305841	keystroke	m	n/a
153.1155	0.09	306231	keystroke	o	n/a
153.1905	0.09	306381	keystroke	u	n/a
153.3555	0.06	306711	keystroke	s	n/a
153.6555	0.075	307311	keystroke	Key.space	n/a
153.8505	0.075	307701	keystroke	c	n/a
153.9705	0.12	307941	keystroke	o	n/a
154.0455	0.09	308091	keystroke	u	n/a
154.2705	0.075	308541	keystroke	n	n/a
154.3755	0.105	308751	keystroke	t	n/a
154.6905	0.09	309381	keystroke	s	n/a
155.7105	0.135	311421	keystroke	Key.enter	n/a
155.85	8.982	311700	prompt	n/a	license grip wellington noted\n
156.6255	0.09	313251	keystroke	l	n/a
156.8355	0.075	313671	keystroke	i	n/a
157.0155	0.09	314031	keystroke	c	n/a
157.2255	0.075	314451	keystroke	e	n/a
157.3155	0.09	314631	keystroke	n	n/a
157.4805	0.09	314961	keystroke	s	n/a
157.6755	0.09	315351	keystroke	e	n/a
157.8855	0.075	315771	keystroke	Key.space	n/a
158.2455	0.06	316491	keystroke	g	n/a
158.4555	0.075	316911	keystroke	r	n/a
158.5455	0.075	317091	keystroke	i	n/a
158.7555	0.06	317511	keystroke	p	n/a
158.8905	0.09	317781	keystroke	Key.space	n/a
159.0705	0.075	318141	keystroke	w	n/a
159.1605	0.075	318321	keystroke	i	n/a
159.5355	0.075	319071	keystroke	=	n/a
160.4955	0.075	320991	keystroke	Key.backspace	n/a
160.8105	0.075	321621	keystroke	Key.backspace	n/a
161.2305	0.06	322461	keystroke	e	n/a
161.4255	0.075	322851	keystroke	l	n/a
161.5455	0.075	323091	keystroke	l	n/a
161.7705	0.045	323541	keystroke	i	n/a
161.9055	0.075	323811	keystroke	n	n/a
162.0405	0.075	324081	keystroke	g	n/a
162.2805	0.075	324561	keystroke	t	n/a
162.3855	0.06	324771	keystroke	o	n/a
162.5805	0.09	325161	keystroke	n	n/a
163.0155	0.075	326031	keystroke	Key.space	n/a
163.4055	0.075	326811	keystroke	n	n/a
163.6005	0.06	327201	keystroke	o	n/a
163.7055	0.12	327411	keystroke	t	n/a
163.8855	0.105	327771	keystroke	e	n/a
164.2005	0.09	328401	keystroke	d	n/a
164.7105	0.12	329421	keystroke	Key.enter	n/a
164.835	6.462	329670	prompt	n/a	television permissions liver skins\n
165.6405	0.09	331281	keystroke	t	n/a
165.7905	0.075	331581	keystroke	e	n/a
165.8805	0.075	331761	keystroke	l	n/a
166.0155	0.075	332031	keystroke	e	n/a
166.1805	0.075	332361	keystroke	v	n/a
166.4205	0.075	332841	keystroke	i	n/a
166.5855	0.06	333171	keystroke	s	n/a
166.7955	0.09	333591	keystroke	i	n/a
166.9755	0.06	333951	keystroke	o	n/a
167.1705	0.075	334341	keystroke	n	n/a
167.2905	0.09	334581	keystroke	Key.space	n/a
167.6505	0.045	335301	keystroke	p	n/a
167.7855	0.15	335571	keystroke	e	n/a
167.8905	0.105	335781	keystroke	r	n/a
168.0555	0.09	336111	keystroke	m	n/a
168.1905	0.105	336381	keystroke	i	n/a
168.3405	0.06	336681	keystroke	s	n/a
168.4755	0.09	336951	keystroke	s	n/a
168.6255	0.06	337251	keystroke	i	n/a
168.7905	0.045	337581	keystroke	o	n/a
168.9555	0.06	337911	keystroke	n	n/a
169.0605	0.105	338121	keystroke	s	n/a
169.1955	0.075	338391	keystroke	Key.space	n/a
169.4055	0.06	338811	keystroke	l	n/a
169.5855	0.075	339171	keystroke	i	n/a
169.6905	0.105	339381	keystroke	v	n/a
169.8705	0.09	339741	keystroke	e	n/a
169.9905	0.075	339981	keystroke	r	n/a
170.1555	0.075	340311	keystroke	Key.space	n/a
170.3055	0.075	340611	keystroke	s	n/a
170.4105	0.045	340821	keystroke	k	n/a
170.5455	0.06	341091	keystroke	i	n/a
170.6805	0.075	341361	keystroke	n	n/a
170.8155	0.09	341631	keystroke	s	n/a
171.1755	0.12	342351	keystroke	Key.enter	n/a
171.3	7.5725	342600	prompt	n/a	obvious specific daddy albert\n
171.8655	0.075	343731	keystroke	o	n/a
172.1355	0.09	344271	keystroke	b	n/a
172.4355	0.09	344871	keystroke	i	n/a
172.8405	0.075	345681	keystroke	Key.backspace	n/a
173.0205	0.06	346041	keystroke	v	n/a
173.2155	0.075	346431	keystroke	i	n/a
173.4255	0.075	346851	keystroke	o	n/a
173.5305	0.075	347061	keystroke	u	n/a
173.7555	0.075	347511	keystroke	s	n/a
173.9055	0.075	347811	keystroke	Key.space	n/a
174.0555	0.12	348111	keystroke	s	n/a
174.2205	0.075	348441	keystroke	p	n/a
174.3555	0.09	348711	keystroke	e	n/a
174.6105	0.105	349221	keystroke	c	n/a
174.7455	0.075	349491	keystroke	i	n/a
174.9105	0.075	349821	keystroke	f	n/a
175.0155	0.075	350031	keystroke	i	n/a
175.1955	0.075	350391	keystroke	c	n/a
175.3455	0.09	350691	keystroke	Key.space	n/a
175.5555	0.06	351111	keystroke	d	n/a
175.7055	0.09	351411	keystroke	a	n/a
175.9305	0.06	351861	keystroke	d	n/a
176.0655	0.09	352131	keystroke	d	n/a
176.1405	0.105	352281	keystroke	y	n/a
176.2605	0.075	352521	keystroke	Key.space	n/a
176.4255	0.09	352851	keystroke	a	n/a
176.5455	0.075	353091	keystroke	l	n/a
176.7255	0.075	353451	keystroke	b	n/a
177.0405	0.09	354081	keystroke	e	n/a
177.2355	0.09	354471	keystroke	t	n/a
177.6555	0.045	355311	keystroke	Key.backspace	n/a
177.8205	0.06	355641	keystroke	r	n/a
178.0305	0.06	356061	keystroke	t	n/a
178.7205	0.15	357441	keystroke	Key.enter	n/a
178.875	4.9775	357750	prompt	n/a	ballot clock taxi supports\n
179.5005	0.06	359001	keystroke	b	n/a
179.6355	0.09	359271	keystroke	a	n/a
179.7705	0.045	359541	keystroke	l	n/a
179.9055	0.06	359811	keystroke	l	n/a
180.0705	0.075	360141	keystroke	o	n/a
180.2055	0.09	360411	keystroke	t	n/a
180.3405	0.075	360681	keystroke	Key.space	n/a
180.5205	0.09	361041	keystroke	c	n/a
180.6255	0.06	361251	keystroke	l	n/a
180.7905	0.06	361581	keystroke	o	n/a
181.0305	0.015	362061	keystroke	c	n/a
181.0605	0.045	362121	keystroke	k	n/a
181.1205	0.075	362241	keystroke	Key.space	n/a
181.2855	0.09	362571	keystroke	t	n/a
181.6155	0.09	363231	keystroke	a	n/a
181.9155	0.075	363831	keystroke	x	n/a
181.9755	0.09	363951	keystroke	i	n/a
182.1855	0.075	364371	keystroke	Key.space	n/a
182.3505	0.075	364701	keystroke	s	n/a
182.4405	0.075	364881	keystroke	u	n/a
182.6355	0.075	365271	keystroke	p	n/a
182.7555	0.09	365511	keystroke	p	n/a
182.9505	0.06	365901	keystroke	o	n/a
183.0555	0.075	366111	keystroke	r	n/a
183.2355	0.06	366471	keystroke	t	n/a
183.4605	0.09	366921	keystroke	s	n/a
183.7755	0.075	367551	keystroke	Key.enter	n/a
183.856	5.0065	367712	prompt	n/a	i wedding damaged edited\n
184.6455	0.09	369291	keystroke	i	n/a
184.8105	0.09	369621	keystroke	Key.space	n/a
185.0365	0.089	370073	keystroke	w	n/a
185.1705	0.105	370341	keystroke	e	n/a
185.4105	0.06	370821	keystroke	d	n/a
185.5605	0.075	371121	keystroke	d	n/a
185.6205	0.06	371241	keystroke	i	n/a
185.7405	0.075	371481	keystroke	n	n/a
185.8455	0.09	371691	keystroke	g	n/a
185.9505	0.075	371901	keystroke	Key.space	n/a
186.1305	0.06	372261	keystroke	d	n/a
186.2655	0.075	372531	keystroke	a	n/a
186.3555	0.075	372711	keystroke	m	n/a
186.5365	0.074	373073	keystroke	a	n/a
187.0155	0.075	374031	keystroke	g	n/a
187.1955	0.075	374391	keystroke	e	n/a
187.4055	0.09	374811	keystroke	d	n/a
187.5405	0.075	375081	keystroke	Key.space	n/a
187.7355	0.075	375471	keystroke	e	n/a
187.9305	0.09	375861	keystroke	d	n/a
188.0355	0.075	376071	keystroke	i	n/a
188.1705	0.09	376341	keystroke	t	n/a
188.3355	0.09	376671	keystroke	e	n/a
188.5755	0.075	377151	keystroke	d	n/a
188.7705	0.09	377541	keystroke	Key.enter	n/a
188.8655	6.5825	377731	prompt	n/a	beast problem preferences holds\n
189.5515	0.074	379103	keystroke	b	n/a
189.6405	0.105	379281	keystroke	e	n/a
189.7905	0.105	379581	keystroke	a	n/a
190.0305	0.075	380061	keystroke	s	n/a
190.2255	0.06	380451	keystroke	t	n/a
190.3005	0.075	380601	keystroke	Key.space	n/a
190.4955	0.075	380991	keystroke	p	n/a
190.6455	0.06	381291	keystroke	r	n/a
190.7355	0.075	381471	keystroke	o	n/a
190.9755	0.061	381951	keystroke	b	n/a
191.2905	0.075	382581	keystroke	l	n/a
191.4255	0.075	382851	keystroke	e	n/a
191.5305	0.105	383061	keystroke	m	n/a
191.7255	0.06	383451	keystroke	Key.space	n/a
191.9205	0.076	383841	keystroke	p	n/a
192.3565	0.074	384713	keystroke	r	n/a
192.4455	0.105	384891	keystroke	e	n/a
192.6705	0.075	385341	keystroke	f	n/a
192.8205	0.12	385641	keystroke	e	n/a
192.9855	0.105	385971	keystroke	r	n/a
193.1055	0.091	386211	keystroke	e	n/a
193.2555	0.09	386511	keystroke	n	n/a
193.4055	0.105	386811	keystroke	c	n/a
193.5405	0.09	387081	keystroke	e	n/a
193.8105	0.09	387621	keystroke	s	n/a
194.1555	0.06	388311	keystroke	Key.space	n/a
194.3355	0.076	388671	keystroke	h	n/a
194.5455	0.061	389091	keystroke	o	n/a
194.7255	0.075	389451	keystroke	l	n/a
194.8305	0.135	389661	keystroke	d	n/a
194.9505	0.121	389901	keystroke	s	n/a
195.3405	0.105	390681	keystroke	Key.enter	n/a
195.4505	8.412	390901	prompt	n/a	ryan trustees she transition\n
196.1655	0.09	392331	keystroke	r	n/a
196.2705	0.075	392541	keystroke	y	n/a
196.4505	0.091	392901	keystroke	a	n/a
196.5715	0.089	393143	keystroke	n	n/a
196.7205	0.09	393441	keystroke	Key.space	n/a
196.9765	0.089	393953	keystroke	t	n/a
197.6965	0.149	395393	keystroke	r	n/a
198.0415	0.104	396083	keystroke	u	n/a
198.2215	0.104	396443	keystroke	s	n/a
198.4305	0.105	396861	keystroke	t	n/a
198.6855	0.046	397371	keystroke	e	n/a
198.9115	0.015	397823	keystroke	e	n/a
199.1205	0.106	398241	keystroke	s	n/a
199.6605	0.09	399321	keystroke	Key.space	n/a
199.8415	0.074	399683	keystroke	s	n/a
199.9165	0.089	399833	keystroke	h	n/a
200.0515	0.104	400103	keystroke	e	n/a
200.2005	0.075	400401	keystroke	Key.space	n/a
200.3805	0.075	400761	keystroke	t	n/a
200.5605	0.061	401121	keystroke	r	n/a
200.7105	0.12	401421	keystroke	a	n/a
200.8465	0.089	401693	keystroke	n	n/a
201.0255	0.075	402051	keystroke	s	n/a
201.2205	0.075	402441	keystroke	i	n/a
201.3865	0.075	402773	keystroke	t	n/a
201.4765	0.06	402953	keystroke	i	n/a
201.8065	0.119	403613	keystroke	n	n/a
201.9715	0.045	403943	keystroke	n	n/a
202.4505	0.03	404901	keystroke	Key.backspace	n/a
202.6005	0.06	405201	keystroke	Key.backspace	n/a
203.0055	0.076	406011	keystroke	o	n/a
203.2905	0.09	406581	keystroke	n	n/a
203.7705	0.09	407541	keystroke	Key.enter	n/a
203.8655	6.747	407731	prompt	n/a	sponsors available mess priced\n
204.6565	0.119	409313	keystroke	s	n/a
204.8215	0.075	409643	keystroke	p	n/a
205.0465	0.06	410093	keystroke	o	n/a
205.2405	0.076	410481	keystroke	n	n/a
205.3765	0.105	410753	keystroke	s	n/a
205.4965	0.06	410993	keystroke	o	n/a
205.7065	0.06	411413	keystroke	r	n/a
205.9305	0.075	411861	keystroke	s	n/a
206.0365	0.09	412073	keystroke	Key.space	n/a
206.3205	0.06	412641	keystroke	a	n/a
206.5765	0.045	413153	keystroke	v	n/a
206.8015	0.075	413603	keystroke	a	n/a
206.8915	0.075	413783	keystroke	i	n/a
207.0865	0.075	414173	keystroke	l	n/a
207.2805	0.091	414561	keystroke	a	n/a
207.4015	0.075	414803	keystroke	b	n/a
207.6265	0.06	415253	keystroke	l	n/a
207.7465	0.09	415493	keystroke	e	n/a
207.8665	0.06	415733	keystroke	Key.space	n/a
208.0165	0.105	416033	keystroke	m	n/a
208.1365	0.06	416273	keystroke	e	n/a
208.3765	0.03	416753	keystroke	s	n/a
208.5115	0.075	417023	keystroke	s	n/a
208.6465	0.074	417293	keystroke	Key.space	n/a
208.8265	0.06	417653	keystroke	p	n/a
208.9615	0.09	417923	keystroke	r	n/a
209.0815	0.09	418163	keystroke	i	n/a
209.3065	0.03	418613	keystroke	c	n/a
209.6965	0.075	419393	keystroke	e	n/a
210.0115	0.105	420023	keystroke	d	n/a
210.5215	0.09	421043	keystroke	Key.enter	n/a
210.617	4.7055	421234	prompt	n/a	linda burner jones brake\n
211.1815	0.075	422363	keystroke	l	n/a
211.3765	0.06	422753	keystroke	i	n/a
211.4965	0.105	422993	keystroke	n	n/a
211.6165	0.105	423233	keystroke	d	n/a
211.7365	0.134	423473	keystroke	a	n/a
211.8855	0.09	423771	keystroke	Key.space	n/a
212.0365	0.06	424073	keystroke	b	n/a
212.1415	0.09	424283	keystroke	u	n/a
212.3215	0.075	424643	keystroke	r	n/a
212.4265	0.075	424853	keystroke	n	n/a
212.5315	0.135	425063	keystroke	e	n/a
212.6815	0.12	425363	keystroke	r	n/a
213.0415	0.074	426083	keystroke	Key.space	n/a
213.2365	0.074	426473	keystroke	j	n/a
213.4315	0.074	426863	keystroke	o	n/a
213.6415	0.09	427283	keystroke	n	n/a
213.7465	0.06	427493	keystroke	e	n/a
213.8965	0.105	427793	keystroke	s	n/a
214.0165	0.09	428033	keystroke	Key.space	n/a
214.1965	0.06	428393	keystroke	b	n/a
214.2715	0.075	428543	keystroke	r	n/a
214.4965	0.06	428993	keystroke	a	n/a
214.5865	0.09	429173	keystroke	k	n/a
214.7515	0.06	429503	keystroke	e	n/a
215.2465	0.075	430493	keystroke	Key.enter	n/a
215.3255	5.622	430651	prompt	n/a	totals around tapes status\n
216.1315	0.075	432263	keystroke	t	n/a
216.2215	0.075	432443	keystroke	o	n/a
216.4015	0.075	432803	keystroke	t	n/a
216.6715	0.075	433343	keystroke	a	n/a
216.7915	0.075	433583	keystroke	l	n/a
216.9565	0.06	433913	keystroke	s	n/a
217.0765	0.09	434153	keystroke	Key.space	n/a
217.3165	0.075	434633	keystroke	a	n/a
217.4965	0.075	434993	keystroke	r	n/a
217.5865	0.105	435173	keystroke	o	n/a
217.6615	0.105	435323	keystroke	u	n/a
217.9015	0.075	435803	keystroke	n	n/a
218.0365	0.075	436073	keystroke	d	n/a
218.1865	0.09	436373	keystroke	Key.space	n/a
218.5915	0.09	437183	keystroke	t	n/a
218.8315	0.09	437663	keystroke	a	n/a
218.9365	0.075	437873	keystroke	p	n/a
219.1165	0.06	438233	keystroke	e	n/a
219.3265	0.075	438653	keystroke	s	n/a
219.4315	0.075	438863	keystroke	Key.space	n/a
219.5515	0.105	439103	keystroke	s	n/a
219.7615	0.09	439523	keystroke	t	n/a
219.9415	0.105	439883	keystroke	a	n/a
220.1515	0.09	440303	keystroke	t	n/a
220.2265	0.075	440453	keystroke	u	n/a
220.4365	0.075	440873	keystroke	s	n/a
220.8565	0.09	441713	keystroke	Key.enter	n/a
220.9505	4.827	441901	prompt	n/a	stomach export the lunch\n
221.6215	0.075	443243	keystroke	s	n/a
221.8315	0.075	443663	keystroke	t	n/a
221.9215	0.06	443843	keystroke	o	n/a
222.0715	0.09	444143	keystroke	m	n/a
222.2065	0.075	444413	keystroke	a	n/a
222.4165	0.09	444833	keystroke	c	n/a
222.5065	0.075	445013	keystroke	h	n/a
222.5965	0.09	445193	keystroke	Key.space	n/a
222.9565	0.06	445913	keystroke	e	n/a
223.1965	0.075	446393	keystroke	x	n/a
223.2865	0.075	446573	keystroke	p	n/a
223.4815	0.09	446963	keystroke	o	n/a
223.6015	0.075	447203	keystroke	r	n/a
223.7965	0.075	447593	keystroke	t	n/a
223.9165	0.09	447833	keystroke	Key.space	n/a
224.0365	0.075	448073	keystroke	t	n/a
224.1415	0.06	448283	keystroke	h	n/a
224.2315	0.06	448463	keystroke	e	n/a
224.3065	0.075	448613	keystroke	Key.space	n/a
224.5915	0.06	449183	keystroke	l	n/a
224.7565	0.075	449513	keystroke	u	n/a
224.9815	0.045	449963	keystroke	n	n/a
225.1015	0.075	450203	keystroke	c	n/a
225.1915	0.09	450383	keystroke	h	n/a
225.7015	0.075	451403	keystroke	Key.enter	n/a
225.7805	7.3775	451561	prompt	n/a	deeper ball residential diversity\n
226.4665	0.09	452933	keystroke	d	n/a
226.6915	0.06	453383	keystroke	e	n/a
226.8265	0.105	453653	keystroke	e	n/a
226.9465	0.06	453893	keystroke	p	n/a
226.9765	0.165	453953	keystroke	e	n/a
227.7565	0.105	455513	keystroke	r	n/a
227.9215	0.105	455843	keystroke	Key.space	n/a
228.1015	0.09	456203	keystroke	b	n/a
228.2515	0.09	456503	keystroke	a	n/a
228.3715	0.06	456743	keystroke	l	n/a
228.5065	0.06	457013	keystroke	l	n/a
228.5965	0.09	457193	keystroke	Key.space	n/a
228.7915	0.135	457583	keystroke	r	n/a
228.9115	0.075	457823	keystroke	e	n/a
229.1515	0.06	458303	keystroke	s	n/a
229.2265	0.09	458453	keystroke	i	n/a
229.3765	0.105	458753	keystroke	d	n/a
229.6315	0.09	459263	keystroke	e	n/a
229.7365	0.09	459473	keystroke	n	n/a
229.9765	0.06	459953	keystroke	t	n/a
230.1265	0.06	460253	keystroke	i	n/a
230.3215	0.09	460643	keystroke	a	n/a
230.4265	0.075	460853	keystroke	l	n/a
230.5915	0.06	461183	keystroke	Key.space	n/a
230.9815	0.075	461963	keystroke	d	n/a
231.0715	0.075	462143	keystroke	i	n/a
231.2515	0.06	462503	keystroke	v	n/a
231.4015	0.09	462803	keystroke	e	n/a
231.5215	0.075	463043	keystroke	r	n/a
231.7765	0.09	463553	keystroke	s	n/a
231.8815	0.06	463763	keystroke	i	n/a
232.0465	0.06	464093	keystroke	t	n/a
232.1365	0.09	464273	keystroke	y	n/a
233.0665	0.09	466133	keystroke	Key.enter	n/a
233.1605	7.8425	466321	prompt	n/a	latest appears isbn formats\n
234.7315	0.06	469463	keystroke	l	n/a
234.8665	0.09	469733	keystroke	a	n/a
235.3015	0.075	470603	keystroke	t	n/a
235.5115	0.075	471023	keystroke	e	n/a
235.7065	0.09	471413	keystroke	s	n/a
235.9465	0.075	471893	keystroke	t	n/a
236.2465	0.09	472493	keystroke	Key.space	n/a
236.5315	0.075	473063	keystroke	a	n/a
236.8315	0.06	473663	keystroke	p	n/a
236.9815	0.06	473963	keystroke	p	n/a
237.1615	0.06	474323	keystroke	e	n/a
237.3265	0.09	474653	keystroke	a	n/a
237.5065	0.09	475013	keystroke	r	n/a
237.7015	0.075	475403	keystroke	s	n/a
237.7915	0.09	475583	keystroke	Key.space	n/a
237.9715	0.09	475943	keystroke	i	n/a
238.1215	0.075	476243	keystroke	s	n/a
238.2415	0.075	476483	keystroke	b	n/a
238.5265	0.06	477053	keystroke	n	n/a
238.8415	0.09	477683	keystroke	Key.space	n/a
239.2915	0.075	478583	keystroke	f	n/a
239.3815	0.06	478763	keystroke	o	n/a
239.5015	0.075	479003	keystroke	r	n/a
239.6065	0.105	479213	keystroke	m	n/a
239.7565	0.09	479513	keystroke	a	n/a
240.0115	0.075	480023	keystroke	t	n/a
240.6715	0.105	481343	keystroke	s	n/a
240.9265	0.075	481853	keystroke	Key.enter	n/a
241.006	6.0265	482012	prompt	n/a	harley threat courier somebody\n
241.7965	0.075	483593	keystroke	h	n/a
241.8865	0.09	483773	keystroke	a	n/a
242.0815	0.075	484163	keystroke	r	n/a
242.1715	0.075	484343	keystroke	l	n/a
242.3065	0.09	484613	keystroke	e	n/a
242.4265	0.09	484853	keystroke	y	n/a
242.5315	0.09	485063	keystroke	Key.space	n/a
242.7565	0.09	485513	keystroke	t	n/a
242.8315	0.105	485663	keystroke	h	n/a
242.9665	0.09	485933	keystroke	r	n/a
243.0715	0.09	486143	keystroke	e	n/a
243.3265	0.075	486653	keystroke	a	n/a
243.7765	0.075	487553	keystroke	t	n/a
243.9415	0.09	487883	keystroke	Key.space	n/a
244.1815	0.09	488363	keystroke	c	n/a
244.2865	0.135	488573	keystroke	o	n/a
244.4065	0.09	488813	keystroke	u	n/a
244.5715	0.09	489143	keystroke	r	n/a
244.7365	0.075	489473	keystroke	i	n/a
244.9465	0.09	489893	keystroke	e	n/a
245.1115	0.09	490223	keystroke	r	n/a
245.2615	0.075	490523	keystroke	Key.space	n/a
245.5765	0.075	491153	keystroke	s	n/a
245.6515	0.075	491303	keystroke	o	n/a
245.8165	0.105	491633	keystroke	m	n/a
245.9515	0.06	491903	keystroke	e	n/a
246.0715	0.075	492143	keystroke	b	n/a
246.2665	0.06	492533	keystroke	o	n/a
246.4015	0.075	492803	keystroke	d	n/a
246.4615	0.105	492923	keystroke	y	n/a
246.9415	0.09	493883	keystroke	Key.enter	n/a
247.0355	5.7575	494071	prompt	n/a	lucky batteries mambo optimum\n
247.7965	0.06	495593	keystroke	l	n/a
247.9465	0.09	495893	keystroke	u	n/a
248.0665	0.075	496133	keystroke	c	n/a
248.1715	0.075	496343	keystroke	k	n/a
248.3215	0.09	496643	keystroke	y	n/a
248.4265	0.075	496853	keystroke	Key.space	n/a
248.5915	0.075	497183	keystroke	b	n/a
248.6815	0.075	497363	keystroke	a	n/a
248.8915	0.075	497783	keystroke	t	n/a
249.0265	0.075	498053	keystroke	t	n/a
249.1765	0.075	498353	keystroke	e	n/a
249.2815	0.075	498563	keystroke	r	n/a
249.8515	0.075	499703	keystroke	i	n/a
249.9565	0.105	499913	keystroke	e	n/a
250.1665	0.075	500333	keystroke	s	n/a
250.2565	0.09	500513	keystroke	Key.space	n/a
250.4215	0.105	500843	keystroke	m	n/a
250.5565	0.075	501113	keystroke	a	n/a
250.6615	0.075	501323	keystroke	m	n/a
250.8715	0.06	501743	keystroke	b	n/a
251.0815	0.045	502163	keystroke	o	n/a
251.1715	0.075	502343	keystroke	Key.space	n/a
251.3515	0.06	502703	keystroke	o	n/a
251.5315	0.06	503063	keystroke	p	n/a
251.6965	0.06	503393	keystroke	t	n/a
251.7865	0.075	503573	keystroke	i	n/a
251.9365	0.105	503873	keystroke	m	n/a
252.1165	0.075	504233	keystroke	u	n/a
252.2965	0.09	504593	keystroke	m	n/a
252.7015	0.09	505403	keystroke	Key.enter	n/a
252.796	6.057	505592	prompt	n/a	brown assembly shortcuts cinema\n
253.3765	0.09	506753	keystroke	b	n/a
253.5265	0.09	507053	keystroke	r	n/a
253.6315	0.06	507263	keystroke	o	n/a
253.7515	0.075	507503	keystroke	w	n/a
253.8415	0.09	507683	keystroke	n	n/a
253.9315	0.09	507863	keystroke	Key.space	n/a
254.0815	0.09	508163	keystroke	a	n/a
254.2915	0.06	508583	keystroke	s	n/a
254.4565	0.06	508913	keystroke	s	n/a
254.6365	0.06	509273	keystroke	e	n/a
254.7415	0.06	509483	keystroke	m	n/a
254.9665	0.06	509933	keystroke	b	n/a
255.3115	0.03	510623	keystroke	l	n/a
255.5215	0.06	511043	keystroke	y	n/a
255.6115	0.075	511223	keystroke	Key.space	n/a
255.9865	0.075	511973	keystroke	s	n/a
256.0465	0.075	512093	keystroke	h	n/a
256.2415	0.06	512483	keystroke	o	n/a
256.3465	0.075	512693	keystroke	r	n/a
256.5415	0.06	513083	keystroke	t	n/a
256.7815	0.105	513563	keystroke	c	n/a
256.9015	0.09	513803	keystroke	u	n/a
257.1265	0.06	514253	keystroke	t	n/a
257.3515	0.075	514703	keystroke	s	n/a
257.4565	0.075	514913	keystroke	Key.space	n/a
257.6065	0.075	515213	keystroke	c	n/a
257.6665	0.06	515333	keystroke	i	n/a
257.8465	0.06	515693	keystroke	n	n/a
257.9065	0.075	515813	keystroke	e	n/a
258.0715	0.09	516143	keystroke	m	n/a
258.2215	0.075	516443	keystroke	a	n/a
258.7765	0.075	517553	keystroke	Key.enter	n/a
258.8555	6.7325	517711	prompt	n/a	enrolled wings printers indicator\n
259.5715	0.06	519143	keystroke	e	n/a
259.6615	0.09	519323	keystroke	n	n/a
259.8115	0.09	519623	keystroke	r	n/a
259.9465	0.06	519893	keystroke	o	n/a
260.1565	0.06	520313	keystroke	l	n/a
260.2915	0.075	520583	keystroke	l	n/a
260.3965	0.105	520793	keystroke	e	n/a
260.6065	0.09	521213	keystroke	d	n/a
260.7115	0.09	521423	keystroke	Key.space	n/a
260.9665	0.09	521933	keystroke	w	n/a
261.0865	0.075	522173	keystroke	i	n/a
261.3265	0.06	522653	keystroke	n	n/a
261.4915	0.075	522983	keystroke	g	n/a
261.7165	0.09	523433	keystroke	s	n/a
261.8365	0.09	523673	keystroke	Key.space	n/a
262.0165	0.075	524033	keystroke	p	n/a
262.1965	0.06	524393	keystroke	r	n/a
262.2715	0.075	524543	keystroke	i	n/a
262.3915	0.105	524783	keystroke	n	n/a
262.5565	0.09	525113	keystroke	t	n/a
262.7665	0.135	525533	keystroke	e	n/a
262.8865	0.105	525773	keystroke	r	n/a
263.1865	0.075	526373	keystroke	s	n/a
263.3215	0.09	526643	keystroke	Key.space	n/a
263.5165	0.045	527033	keystroke	i	n/a
263.6665	0.075	527333	keystroke	n	n/a
263.8015	0.09	527603	keystroke	d	n/a
263.9215	0.06	527843	keystroke	i	n/a
264.1615	0.045	528323	keystroke	c	n/a
264.3265	0.075	528653	keystroke	a	n/a
264.5365	0.06	529073	keystroke	t	n/a
264.6115	0.075	529223	keystroke	o	n/a
264.7765	0.06	529553	keystroke	r	n/a
265.5115	0.075	531023	keystroke	Key.enter	n/a
265.59	5.863	531180	prompt	n/a	angry measurements wrote least\n
266.1865	0.09	532373	keystroke	a	n/a
266.3065	0.075	532613	keystroke	n	n/a
266.4715	0.06	532943	keystroke	g	n/a
266.6665	0.075	533333	keystroke	r	n/a
266.7715	0.075	533543	keystroke	y	n/a
266.8615	0.09	533723	keystroke	Key.space	n/a
267.0865	0.105	534173	keystroke	m	n/a
267.2215	0.075	534443	keystroke	e	n/a
267.3715	0.105	534743	keystroke	a	n/a
267.5965	0.09	535193	keystroke	s	n/a
267.7015	0.06	535403	keystroke	u	n/a
267.8365	0.09	535673	keystroke	r	n/a
267.9715	0.09	535943	keystroke	e	n/a
268.1365	0.09	536273	keystroke	m	n/a
268.3465	0.075	536693	keystroke	e	n/a
268.4365	0.09	536873	keystroke	n	n/a
268.6165	0.09	537233	keystroke	t	n/a
268.8715	0.075	537743	keystroke	s	n/a
268.9765	0.09	537953	keystroke	Key.space	n/a
269.0965	0.075	538193	keystroke	w	n/a
269.2615	0.09	538523	keystroke	r	n/a
269.3815	0.075	538763	keystroke	o	n/a
269.6215	0.075	539243	keystroke	t	n/a
269.7865	0.075	539573	keystroke	e	n/a
269.9065	0.09	539813	keystroke	Key.space	n/a
270.1015	0.09	540203	keystroke	l	n/a
270.2365	0.09	540473	keystroke	e	n/a
270.4165	0.075	540833	keystroke	a	n/a
270.5815	0.09	541163	keystroke	s	n/a
270.8365	0.06	541673	keystroke	t	n/a
271.3615	0.09	542723	keystroke	Key.enter	n/a
271.456	10.001	542912	prompt	n/a	porter packaging podcasts thailand\n
272.0815	0.105	544163	keystroke	p	n/a
272.291	0.075	544582	keystroke	o	n/a
272.396	0.075	544792	keystroke	r	n/a
272.546	0.075	545092	keystroke	t	n/a
272.711	0.0755	545422	keystroke	e	n/a
272.8315	0.075	545663	keystroke	r	n/a
272.9665	0.09	545933	keystroke	Key.space	n/a
273.1915	0.03	546383	keystroke	o	n/a
273.2955	0.045	546591	keystroke	a	n/a
274.6005	0.105	549201	keystroke	Key.backspace	n/a
274.8405	0.075	549681	keystroke	Key.backspace	n/a
275.1255	0.06	550251	keystroke	p	n/a
275.2455	0.105	550491	keystroke	a	n/a
275.5305	0.09	551061	keystroke	c	n/a
275.6805	0.09	551361	keystroke	k	n/a
275.8605	0.105	551721	keystroke	a	n/a
275.9955	0.075	551991	keystroke	g	n/a
276.1755	0.06	552351	keystroke	i	n/a
276.3405	0.06	552681	keystroke	n	n/a
276.4455	0.075	552891	keystroke	g	n/a
277.2105	0.09	554421	keystroke	Key.space	n/a
277.4205	0.06	554841	keystroke	p	n/a
277.6155	0.06	555231	keystroke	o	n/a
277.7355	0.105	555471	keystroke	d	n/a
277.9905	0.06	555981	keystroke	c	n/a
278.1405	0.09	556281	keystroke	a	n/a
278.2755	0.105	556551	keystroke	s	n/a
278.5005	0.075	557001	keystroke	t	n/a
278.6805	0.09	557361	keystroke	s	n/a
278.7855	0.075	557571	keystroke	Key.space	n/a
278.9355	0.09	557871	keystroke	t	n/a
279.0105	0.09	558021	keystroke	h	n/a
279.1755	0.09	558351	keystroke	a	n/a
279.3255	0.075	558651	keystroke	i	n/a
280.3755	0.06	560751	keystroke	l	n/a
280.4655	0.09	560931	keystroke	a	n/a
280.6005	0.09	561201	keystroke	n	n/a
280.7355	0.09	561471	keystroke	d	n/a
281.3805	0.075	562761	keystroke	Key.enter	n/a
281.4625	8.8745	562925	prompt	n/a	struck opinion listen prediction\n
282.1005	0.075	564201	keystroke	s	n/a
282.3105	0.09	564621	keystroke	t	n/a
282.4755	0.09	564951	keystroke	r	n/a
282.5805	0.075	565161	keystroke	u	n/a
282.7455	0.105	565491	keystroke	c	n/a
283.1505	0.075	566301	keystroke	k	n/a
283.3005	0.09	566601	keystroke	Key.space	n/a
283.7055	0.06	567411	keystroke	o	n/a
283.9005	0.075	567801	keystroke	p	n/a
284.2155	0.045	568431	keystroke	i	n/a
284.4105	0.06	568821	keystroke	n	n/a
284.5605	0.075	569121	keystroke	i	n/a
284.7555	0.06	569511	keystroke	o	n/a
284.9655	0.075	569931	keystroke	n	n/a
285.0705	0.09	570141	keystroke	Key.space	n/a
285.2805	0.045	570561	keystroke	l	n/a
285.4605	0.075	570921	keystroke	i	n/a
285.5655	0.045	571131	keystroke	s	n/a
285.7455	0.06	571491	keystroke	t	n/a
285.8655	0.105	571731	keystroke	e	n/a
285.9855	0.06	571971	keystroke	n	n/a
286.0605	0.075	572121	keystroke	Key.space	n/a
286.2705	0.075	572541	keystroke	p	n/a
286.4205	0.12	572841	keystroke	r	n/a
286.5555	0.09	573111	keystroke	e	n/a
286.8855	0.09	573771	keystroke	d	n/a
287.0205	0.09	574041	keystroke	i	n/a
287.2455	0.075	574491	keystroke	c	n/a
287.4705	0.075	574941	keystroke	t	n/a
287.6055	0.09	575211	keystroke	i	n/a
287.8455	0.03	575691	keystroke	o	n/a
287.9805	0.075	575961	keystroke	n	n/a
290.3075	0.028	580615	keystroke	Key.enter	n/a
290.34	8.2475	580680	prompt	n/a	struck mainstream citations evaluating\n
291.0705	0.06	582141	keystroke	s	n/a
291.2805	0.09	582561	keystroke	t	n/a
291.7305	0.06	583461	keystroke	r	n/a
291.8355	0.09	583671	keystroke	u	n/a
292.0605	0.09	584121	keystroke	c	n/a
292.1655	0.09	584331	keystroke	k	n/a
292.2855	0.09	584571	keystroke	Key.space	n/a
292.4805	0.09	584961	keystroke	m	n/a
292.6155	0.09	585231	keystroke	a	n/a
292.6905	0.075	585381	keystroke	i	n/a
292.8255	0.09	585651	keystroke	n	n/a
292.9455	0.09	585891	keystroke	s	n/a
293.1405	0.12	586281	keystroke	t	n/a
293.3055	0.09	586611	keystroke	r	n/a
293.4105	0.105	586821	keystroke	e	n/a
293.6655	0.075	587331	keystroke	a	n/a
293.8305	0.12	587661	keystroke	m	n/a
294.0405	0.075	588081	keystroke	Key.space	n/a
294.4005	0.09	588801	keystroke	c	n/a
294.5505	0.09	589101	keystroke	i	n/a
294.7305	0.09	589461	keystroke	t	n/a
294.9555	0.09	589911	keystroke	a	n/a
295.1655	0.075	590331	keystroke	t	n/a
295.2555	0.075	590511	keystroke	i	n/a
295.4355	0.06	590871	keystroke	o	n/a
295.6155	0.075	591231	keystroke	n	n/a
295.7355	0.09	591471	keystroke	s	n/a
295.8555	0.09	591711	keystroke	Key.space	n/a
296.0955	0.105	592191	keystroke	e	n/a
296.2305	0.075	592461	keystroke	l	n/a
296.6055	0.06	593211	keystroke	Key.backspace	n/a
296.7405	0.075	593481	keystroke	v	n/a
296.9955	0.075	593991	keystroke	a	n/a
297.0855	0.09	594171	keystroke	l	n/a
297.3105	0.105	594621	keystroke	u	n/a
297.5655	0.06	595131	keystroke	a	n/a
297.7605	0.06	595521	keystroke	t	n/a
297.8505	0.075	595701	keystroke	i	n/a
298.0155	0.091	596031	keystroke	n	n/a
298.1505	0.09	596301	keystroke	g	n/a
298.4955	0.09	596991	keystroke	Key.enter	n/a
298.59	5.832	597180	prompt	n/a	served jordan arrived robin\n
299.2005	0.09	598401	keystroke	s	n/a
299.4105	0.09	598821	keystroke	e	n/a
299.6055	0.075	599211	keystroke	r	n/a
299.7105	0.09	599421	keystroke	v	n/a
299.8605	0.075	599721	keystroke	e	n/a
300.0555	0.09	600111	keystroke	d	n/a
300.1755	0.09	600351	keystroke	Key.space	n/a
300.5055	0.075	601011	keystroke	j	n/a
300.7005	0.06	601401	keystroke	o	n/a
300.8205	0.09	601641	keystroke	r	n/a
301.0455	0.03	602091	keystroke	d	n/a
301.1505	0.075	602301	keystroke	a	n/a
301.2855	0.075	602571	keystroke	n	n/a
301.5255	0.09	603051	keystroke	Key.space	n/a
301.7505	0.075	603501	keystroke	a	n/a
301.9455	0.06	603891	keystroke	r	n/a
302.1105	0.06	604221	keystroke	r	n/a
302.2005	0.09	604401	keystroke	i	n/a
302.3355	0.075	604671	keystroke	v	n/a
302.5155	0.075	605031	keystroke	e	n/a
302.7105	0.09	605421	keystroke	d	n/a
302.8605	0.105	605721	keystroke	Key.space	n/a
303.2505	0.075	606501	keystroke	r	n/a
303.3405	0.045	606681	keystroke	o	n/a
303.5655	0.06	607131	keystroke	b	n/a
303.7605	0.075	607521	keystroke	i	n/a
303.9705	0.06	607941	keystroke	n	n/a
304.3605	0.06	608721	keystroke	Key.enter	n/a
304.425	7.6325	608850	prompt	n/a	demonstrate comics challenging sufficient\n
305.1555	0.075	610311	keystroke	d	n/a
305.3355	0.075	610671	keystroke	e	n/a
305.4255	0.045	610851	keystroke	m	n/a
305.5605	0.06	611121	keystroke	o	n/a
305.7255	0.06	611451	keystroke	n	n/a
305.8005	0.09	611601	keystroke	s	n/a
306.0105	0.075	612021	keystroke	t	n/a
306.1755	0.076	612351	keystroke	r	n/a
306.2955	0.06	612591	keystroke	e	n/a
306.6855	0.09	613371	keystroke	Key.backspace	n/a
306.8955	0.03	613791	keystroke	a	n/a
307.0305	0.075	614061	keystroke	t	n/a
307.1655	0.09	614331	keystroke	e	n/a
307.3455	0.09	614691	keystroke	Key.space	n/a
307.6005	0.09	615201	keystroke	c	n/a
307.8105	0.06	615621	keystroke	o	n/a
307.9605	0.075	615921	keystroke	m	n/a
308.0955	0.09	616191	keystroke	i	n/a
308.2155	0.09	616431	keystroke	c	n/a
308.4255	0.075	616851	keystroke	s	n/a
308.5755	0.075	617151	keystroke	Key.space	n/a
308.8305	0.075	617661	keystroke	c	n/a
308.9505	0.075	617901	keystroke	h	n/a
309.0855	0.09	618171	keystroke	a	n/a
309.2355	0.045	618471	keystroke	l	n/a
309.3555	0.06	618711	keystroke	l	n/a
309.4905	0.075	618981	keystroke	e	n/a
309.5955	0.09	619191	keystroke	n	n/a
309.7605	0.075	619521	keystroke	g	n/a
309.8505	0.06	619701	keystroke	i	n/a
309.9705	0.075	619941	keystroke	n	n/a
310.1055	0.075	620211	keystroke	g	n/a
310.1955	0.09	620391	keystroke	Key.space	n/a
310.3765	0.074	620753	keystroke	s	n/a
310.4655	0.075	620931	keystroke	u	n/a
310.6305	0.06	621261	keystroke	f	n/a
310.7805	0.09	621561	keystroke	f	n/a
310.9005	0.075	621801	keystroke	i	n/a
311.0355	0.075	622071	keystroke	c	n/a
311.1555	0.075	622311	keystroke	i	n/a
311.3205	0.09	622641	keystroke	e	n/a
311.4255	0.09	622851	keystroke	n	n/a
311.5605	0.075	623121	keystroke	t	n/a
311.9805	0.075	623961	keystroke	Key.enter	n/a
312.06	7.2575	624120	prompt	n/a	remembered areas teaches reporters\n
312.9255	0.105	625851	keystroke	r	n/a
313.0455	0.09	626091	keystroke	e	n/a
313.1815	0.089	626363	keystroke	m	n/a
313.3305	0.075	626661	keystroke	e	n/a
313.4205	0.105	626841	keystroke	m	n/a
313.6605	0.075	627321	keystroke	b	n/a
313.7655	0.12	627531	keystroke	e	n/a
313.9005	0.12	627801	keystroke	r	n/a
314.0805	0.075	628161	keystroke	e	n/a
314.2905	0.075	628581	keystroke	d	n/a
314.3805	0.09	628761	keystroke	Key.space	n/a
314.5005	0.09	629001	keystroke	a	n/a
314.6805	0.09	629361	keystroke	r	n/a
314.7405	0.105	629481	keystroke	e	n/a
314.9805	0.075	629961	keystroke	a	n/a
315.1755	0.076	630351	keystroke	s	n/a
315.2955	0.09	630591	keystroke	Key.space	n/a
315.4905	0.09	630981	keystroke	t	n/a
315.6555	0.105	631311	keystroke	e	n/a
315.8355	0.09	631671	keystroke	a	n/a
316.0455	0.091	632091	keystroke	c	n/a
316.1365	0.089	632273	keystroke	h	n/a
316.2855	0.075	632571	keystroke	e	n/a
316.5405	0.076	633081	keystroke	s	n/a
316.6755	0.075	633351	keystroke	Key.space	n/a
317.1105	0.091	634221	keystroke	r	n/a
317.2015	0.105	634403	keystroke	e	n/a
317.4255	0.06	634851	keystroke	p	n/a
317.6355	0.045	635271	keystroke	o	n/a
317.7405	0.09	635481	keystroke	r	n/a
317.9355	0.06	635871	keystroke	t	n/a
318.0715	0.105	636143	keystroke	e	n/a
318.2055	0.105	636411	keystroke	r	n/a
318.4605	0.075	636921	keystroke	s	n/a
319.2105	0.105	638421	keystroke	Key.enter	n/a
319.32	7.3775	638640	prompt	n/a	provision batteries terry cadillac\n
319.9615	0.075	639923	keystroke	p	n/a
320.1105	0.075	640221	keystroke	r	n/a
320.2005	0.09	640401	keystroke	o	n/a
320.5165	0.074	641033	keystroke	v	n/a
320.6055	0.091	641211	keystroke	i	n/a
320.8615	0.059	641723	keystroke	s	n/a
320.9505	0.076	641901	keystroke	i	n/a
321.1605	0.061	642321	keystroke	o	n/a
321.3705	0.076	642741	keystroke	n	n/a
321.5505	0.075	643101	keystroke	Key.space	n/a
321.7615	0.105	643523	keystroke	b	n/a
321.8505	0.075	643701	keystroke	a	n/a
322.0615	0.074	644123	keystroke	t	n/a
322.2105	0.076	644421	keystroke	t	n/a
322.3605	0.121	644721	keystroke	e	n/a
322.4505	0.135	644901	keystroke	r	n/a
322.6915	0.059	645383	keystroke	i	n/a
322.8255	0.105	645651	keystroke	e	n/a
323.0515	0.089	646103	keystroke	s	n/a
323.2005	0.06	646401	keystroke	Key.space	n/a
323.3355	0.09	646671	keystroke	t	n/a
323.5305	0.105	647061	keystroke	e	n/a
323.7865	0.044	647573	keystroke	r	n/a
323.9215	0.089	647843	keystroke	r	n/a
324.0405	0.075	648081	keystroke	y	n/a
324.1305	0.091	648261	keystroke	Key.space	n/a
324.2955	0.075	648591	keystroke	c	n/a
324.5055	0.09	649011	keystroke	a	n/a
325.0605	0.091	650121	keystroke	d	n/a
325.1355	0.091	650271	keystroke	i	n/a
325.4055	0.045	650811	keystroke	l	n/a
325.5265	0.074	651053	keystroke	l	n/a
325.6455	0.075	651291	keystroke	a	n/a
325.9165	0.074	651833	keystroke	c	n/a
326.6055	0.091	653211	keystroke	Key.enter	n/a
326.7	5.9075	653400	prompt	n/a	bang won't quad platforms\n
327.4765	0.075	654953	keystroke	b	n/a
327.5965	0.06	655193	keystroke	a	n/a
327.7015	0.074	655403	keystroke	n	n/a
327.8665	0.074	655733	keystroke	g	n/a
327.9855	0.09	655971	keystroke	Key.space	n/a
328.1965	0.059	656393	keystroke	w	n/a
328.2865	0.06	656573	keystroke	o	n/a
328.4505	0.061	656901	keystroke	n	n/a
328.6165	0.045	657233	keystroke	'	n/a
328.7655	0.061	657531	keystroke	t	n/a
328.9755	0.075	657951	keystroke	Key.space	n/a
329.3655	0.091	658731	keystroke	q	n/a
329.4405	0.106	658881	keystroke	u	n/a
329.6655	0.076	659331	keystroke	a	n/a
329.9515	0.075	659903	keystroke	d	n/a
330.0415	0.089	660083	keystroke	Key.space	n/a
330.6865	0.06	661373	keystroke	p	n/a
331.0915	0.074	662183	keystroke	l	n/a
331.2115	0.06	662423	keystroke	a	n/a
331.3915	0.075	662783	keystroke	t	n/a
331.5865	0.075	663173	keystroke	f	n/a
331.6765	0.06	663353	keystroke	o	n/a
331.8115	0.09	663623	keystroke	r	n/a
331.9015	0.09	663803	keystroke	m	n/a
332.0965	0.075	664193	keystroke	s	n/a
332.5165	0.09	665033	keystroke	Key.enter	n/a
332.61	6.4925	665220	prompt	n/a	directed naturally organic speakers\n
333.3415	0.075	666683	keystroke	d	n/a
333.4465	0.075	666893	keystroke	i	n/a
333.5515	0.105	667103	keystroke	r	n/a
333.6865	0.09	667373	keystroke	e	n/a
333.9265	0.09	667853	keystroke	c	n/a
334.1365	0.075	668273	keystroke	t	n/a
334.2715	0.075	668543	keystroke	e	n/a
334.4965	0.075	668993	keystroke	d	n/a
334.6005	0.076	669201	keystroke	Key.space	n/a
334.7515	0.089	669503	keystroke	n	n/a
334.8565	0.089	669713	keystroke	a	n/a
335.0815	0.09	670163	keystroke	t	n/a
335.2615	0.045	670523	keystroke	u	n/a
335.4565	0.075	670913	keystroke	r	n/a
335.6955	0.046	671391	keystroke	a	n/a
335.7715	0.06	671543	keystroke	l	n/a
335.9365	0.045	671873	keystroke	l	n/a
336.0865	0.12	672173	keystroke	y	n/a
336.1915	0.105	672383	keystroke	Key.space	n/a
336.4615	0.06	672923	keystroke	o	n/a
336.5815	0.09	673163	keystroke	r	n/a
336.7465	0.075	673493	keystroke	g	n/a
336.8665	0.075	673733	keystroke	a	n/a
336.9715	0.075	673943	keystroke	n	n/a
337.1215	0.089	674243	keystroke	i	n/a
337.2715	0.075	674543	keystroke	c	n/a
337.3755	0.091	674751	keystroke	Key.space	n/a
337.5265	0.09	675053	keystroke	s	n/a
337.6315	0.06	675263	keystroke	p	n/a
337.7505	0.091	675501	keystroke	e	n/a
337.9015	0.09	675803	keystroke	a	n/a
338.0065	0.075	676013	keystroke	k	n/a
338.2165	0.075	676433	keystroke	e	n/a
338.3215	0.09	676643	keystroke	r	n/a
338.6065	0.075	677213	keystroke	s	n/a
339.0265	0.075	678053	keystroke	Key.enter	n/a
339.105	7.0475	678210	prompt	n/a	blair verde massive managers\n
339.8065	0.075	679613	keystroke	b	n/a
340.0465	0.06	680093	keystroke	l	n/a
340.2115	0.075	680423	keystroke	a	n/a
340.3015	0.09	680603	keystroke	i	n/a
340.5415	0.075	681083	keystroke	r	n/a
340.6765	0.105	681353	keystroke	Key.space	n/a
340.9315	0.075	681863	keystroke	v	n/a
341.0815	0.12	682163	keystroke	e	n/a
341.2165	0.105	682433	keystroke	r	n/a
341.3815	0.09	682763	keystroke	e	n/a
341.7865	0.06	683573	keystroke	Key.backspace	n/a
342.0415	0.06	684083	keystroke	d	n/a
342.1315	0.105	684263	keystroke	e	n/a
342.6265	0.09	685253	keystroke	Key.space	n/a
342.8665	0.09	685733	keystroke	m	n/a
342.9715	0.105	685943	keystroke	a	n/a
343.1965	0.075	686393	keystroke	s	n/a
343.3465	0.105	686693	keystroke	s	n/a
343.4665	0.075	686933	keystroke	i	n/a
343.6165	0.06	687233	keystroke	v	n/a
343.7815	0.105	687563	keystroke	e	n/a
343.9765	0.09	687953	keystroke	Key.space	n/a
344.1715	0.105	688343	keystroke	m	n/a
344.3365	0.09	688673	keystroke	a	n/a
344.4865	0.12	688973	keystroke	n	n/a
344.6215	0.09	689243	keystroke	a	n/a
344.8165	0.075	689633	keystroke	g	n/a
344.9365	0.09	689873	keystroke	e	n/a
345.0565	0.105	690113	keystroke	r	n/a
345.3415	0.075	690683	keystroke	s	n/a
346.0765	0.075	692153	keystroke	Key.enter	n/a
346.1555	6.432	692311	prompt	n/a	clone ensures project prince\n
347.0665	0.075	694133	keystroke	c	n/a
347.1565	0.06	694313	keystroke	l	n/a
347.3215	0.06	694643	keystroke	o	n/a
347.5015	0.09	695003	keystroke	n	n/a
347.6215	0.075	695243	keystroke	e	n/a
347.7265	0.075	695453	keystroke	Key.space	n/a
347.9065	0.075	695813	keystroke	e	n/a
347.9815	0.09	695963	keystroke	n	n/a
348.4015	0.09	696803	keystroke	s	n/a
348.5065	0.075	697013	keystroke	u	n/a
348.7015	0.135	697403	keystroke	r	n/a
348.8065	0.105	697613	keystroke	e	n/a
349.0765	0.09	698153	keystroke	s	n/a
349.1815	0.105	698363	keystroke	Key.space	n/a
349.7515	0.075	699503	keystroke	p	n/a
349.9165	0.075	699833	keystroke	r	n/a
350.0215	0.09	700043	keystroke	o	n/a
350.2615	0.06	700523	keystroke	j	n/a
350.3515	0.09	700703	keystroke	e	n/a
350.5465	0.075	701093	keystroke	c	n/a
350.7715	0.075	701543	keystroke	t	n/a
350.8915	0.075	701783	keystroke	Key.space	n/a
351.1315	0.09	702263	keystroke	p	n/a
351.3565	0.075	702713	keystroke	r	n/a
351.4465	0.045	702893	keystroke	i	n/a
351.5815	0.09	703163	keystroke	n	n/a
351.7165	0.075	703433	keystroke	c	n/a
351.8665	0.075	703733	keystroke	e	n/a
352.4965	0.09	704993	keystroke	Key.enter	n/a
352.5905	7.107	705181	prompt	n/a	escorts handbook eyed departure\n
353.2015	0.09	706403	keystroke	e	n/a
353.3815	0.09	706763	keystroke	s	n/a
353.6065	0.09	707213	keystroke	c	n/a
353.7115	0.09	707423	keystroke	o	n/a
353.8465	0.105	707693	keystroke	r	n/a
354.0865	0.06	708173	keystroke	d	n/a
354.4615	0.06	708923	keystroke	Key.backspace	n/a
354.6415	0.075	709283	keystroke	t	n/a
354.8965	0.09	709793	keystroke	s	n/a
355.1215	0.09	710243	keystroke	Key.space	n/a
355.6765	0.105	711353	keystroke	h	n/a
355.8415	0.09	711683	keystroke	a	n/a
355.9765	0.09	711953	keystroke	n	n/a
356.1115	0.06	712223	keystroke	d	n/a
356.2465	0.075	712493	keystroke	b	n/a
356.5015	0.045	713003	keystroke	o	n/a
356.6365	0.075	713273	keystroke	o	n/a
356.7265	0.09	713453	keystroke	k	n/a
356.8765	0.09	713753	keystroke	Key.space	n/a
357.0565	0.045	714113	keystroke	e	n/a
357.1465	0.075	714293	keystroke	y	n/a
357.2965	0.09	714593	keystroke	e	n/a
357.7615	0.075	715523	keystroke	d	n/a
357.8815	0.09	715763	keystroke	Key.space	n/a
358.0765	0.06	716153	keystroke	d	n/a
358.2415	0.06	716483	keystroke	e	n/a
358.3315	0.09	716663	keystroke	p	n/a
358.4815	0.075	716963	keystroke	a	n/a
358.6765	0.075	717353	keystroke	r	n/a
358.8715	0.045	717743	keystroke	t	n/a
359.0515	0.075	718103	keystroke	u	n/a
359.2465	0.075	718493	keystroke	r	n/a
359.3365	0.075	718673	keystroke	e	n/a
359.6215	0.075	719243	keystroke	Key.enter	n/a
359.7015	6.221	719403	prompt	n/a	carmen header factory install\n
360.6415	0.09	721283	keystroke	c	n/a
360.8215	0.09	721643	keystroke	a	n/a
361.0015	0.075	722003	keystroke	r	n/a
361.0915	0.105	722183	keystroke	m	n/a
361.2265	0.105	722453	keystroke	e	n/a
361.3615	0.075	722723	keystroke	n	n/a
361.5265	0.06	723053	keystroke	Key.space	n/a
361.6765	0.075	723353	keystroke	h	n/a
361.8115	0.09	723623	keystroke	e	n/a
361.9465	0.09	723893	keystroke	a	n/a
362.1565	0.09	724313	keystroke	d	n/a
362.2915	0.105	724583	keystroke	e	n/a
362.4265	0.105	724853	keystroke	r	n/a
362.5765	0.09	725153	keystroke	Key.space	n/a
362.8615	0.06	725723	keystroke	f	n/a
362.9965	0.075	725993	keystroke	a	n/a
363.1915	0.06	726383	keystroke	c	n/a
363.4015	0.075	726803	keystroke	t	n/a
363.5065	0.03	727013	keystroke	o	n/a
363.6265	0.105	727253	keystroke	r	n/a
363.7465	0.06	727493	keystroke	y	n/a
363.8365	0.0595	727673	keystroke	Key.space	n/a
363.956	0.09	727912	keystroke	i	n/a
364.1215	0.075	728243	keystroke	n	n/a
364.5865	0.0745	729173	keystroke	s	n/a
364.7815	0.075	729563	keystroke	t	n/a
364.9765	0.09	729953	keystroke	a	n/a
365.0965	0.06	730193	keystroke	l	n/a
365.2165	0.105	730433	keystroke	l	n/a
365.831	0.09	731662	keystroke	Key.enter	n/a
365.925	6.793	731850	prompt	n/a	sitting occupations stake regards\n
366.566	0.075	733132	keystroke	s	n/a
366.656	0.06	733312	keystroke	i	n/a
366.836	0.075	733672	keystroke	t	n/a
366.986	0.075	733972	keystroke	t	n/a
367.076	0.045	734152	keystroke	i	n/a
367.196	0.075	734392	keystroke	n	n/a
367.301	0.075	734602	keystroke	g	n/a
367.361	0.105	734722	keystroke	Key.space	n/a
367.631	0.09	735262	keystroke	c	n/a
368.276	0.06	736552	keystroke	Key.backspace	n/a
368.501	0.075	737002	keystroke	o	n/a
368.726	0.075	737452	keystroke	c	n/a
368.876	0.09	737752	keystroke	c	n/a
368.981	0.0755	737962	keystroke	u	n/a
369.191	0.075	738382	keystroke	p	n/a
369.356	0.09	738712	keystroke	a	n/a
369.566	0.09	739132	keystroke	t	n/a
369.641	0.09	739282	keystroke	i	n/a
369.821	0.06	739642	keystroke	o	n/a
370.001	0.075	740002	keystroke	n	n/a
370.106	0.09	740212	keystroke	s	n/a
370.226	0.075	740452	keystroke	Key.space	n/a
370.466	0.075	740932	keystroke	s	n/a
370.661	0.075	741322	keystroke	t	n/a
370.856	0.075	741712	keystroke	a	n/a
370.976	0.06	741952	keystroke	k	n/a
371.081	0.09	742162	keystroke	e	n/a
371.186	0.105	742372	keystroke	Key.space	n/a
371.351	0.105	742702	keystroke	r	n/a
371.501	0.06	743002	keystroke	e	n/a
371.681	0.06	743362	keystroke	g	n/a
371.876	0.075	743752	keystroke	a	n/a
372.011	0.09	744022	keystroke	r	n/a
372.236	0.075	744472	keystroke	d	n/a
372.341	0.09	744682	keystroke	s	n/a
372.641	0.075	745282	keystroke	Key.enter	n/a
372.721	8.9665	745442	prompt	n/a	casting acknowledge divx queen\n
373.481	0.075	746962	keystroke	c	n/a
373.631	0.135	747262	keystroke	a	n/a
373.766	0.135	747532	keystroke	s	n/a
374.021	0.075	748042	keystroke	t	n/a
374.111	0.075	748222	keystroke	i	n/a
374.246	0.075	748492	keystroke	n	n/a
374.366	0.075	748732	keystroke	g	n/a
374.456	0.09	748912	keystroke	Key.space	n/a
374.606	0.09	749212	keystroke	a	n/a
374.816	0.075	749632	keystroke	c	n/a
374.921	0.075	749842	keystroke	k	n/a
375.851	0.075	751702	keystroke	n	n/a
376.046	0.06	752092	keystroke	o	n/a
376.286	0.09	752572	keystroke	w	n/a
376.661	0.075	753322	keystroke	l	n/a
376.856	0.075	753712	keystroke	e	n/a
377.321	0.075	754642	keystroke	d	n/a
377.531	0.045	755062	keystroke	g	n/a
377.651	0.09	755302	keystroke	e	n/a
378.491	0.09	756982	keystroke	Key.space	n/a
378.791	0.075	757582	keystroke	d	n/a
378.956	0.09	757912	keystroke	i	n/a
379.166	0.075	758332	keystroke	v	n/a
379.451	0.075	758902	keystroke	x	n/a
379.991	0.075	759982	keystroke	Key.space	n/a
380.501	0.105	761002	keystroke	q	n/a
380.546	0.075	761092	keystroke	u	n/a
380.831	0.075	761662	keystroke	e	n/a
380.981	0.075	761962	keystroke	e	n/a
381.116	0.09	762232	keystroke	n	n/a
381.596	0.09	763192	keystroke	Key.enter	n/a
381.6905	9.5525	763381	prompt	n/a	reynolds herein depends definitions\n
382.541	0.09	765082	keystroke	r	n/a
382.661	0.09	765322	keystroke	e	n/a
382.781	0.075	765562	keystroke	y	n/a
383.051	0.09	766102	keystroke	n	n/a
383.261	0.075	766522	keystroke	o	n/a
383.471	0.105	766942	keystroke	l	n/a
383.636	0.12	767272	keystroke	d	n/a
383.771	0.12	767542	keystroke	s	n/a
383.936	0.09	767872	keystroke	Key.space	n/a
384.116	0.075	768232	keystroke	h	n/a
384.221	0.105	768442	keystroke	e	n/a
384.401	0.105	768802	keystroke	r	n/a
384.611	0.09	769222	keystroke	i	n/a
384.836	0.105	769672	keystroke	n	n/a
385.421	0.06	770842	keystroke	Key.backspace	n/a
385.616	0.06	771232	keystroke	Key.backspace	n/a
385.796	0.075	771592	keystroke	e	n/a
386.006	0.075	772012	keystroke	i	n/a
386.186	0.105	772372	keystroke	n	n/a
386.591	0.075	773182	keystroke	Key.space	n/a
386.801	0.075	773602	keystroke	d	n/a
387.026	0.06	774052	keystroke	e	n/a
387.146	0.09	774292	keystroke	p	n/a
387.461	0.075	774922	keystroke	e	n/a
387.596	0.09	775192	keystroke	n	n/a
387.821	0.105	775642	keystroke	d	n/a
387.941	0.075	775882	keystroke	s	n/a
388.136	0.09	776272	keystroke	Key.space	n/a
388.571	0.09	777142	keystroke	d	n/a
388.751	0.075	777502	keystroke	e	n/a
388.931	0.105	777862	keystroke	f	n/a
389.051	0.075	778102	keystroke	i	n/a
389.201	0.12	778402	keystroke	n	n/a
390.056	0.075	780112	keystroke	i	n/a
390.161	0.09	780322	keystroke	t	n/a
390.266	0.06	780532	keystroke	i	n/a
390.431	0.06	780862	keystroke	o	n/a
390.611	0.09	781222	keystroke	n	n/a
390.761	0.075	781522	keystroke	s	n/a
391.136	0.105	782272	keystroke	Key.enter	n/a
391.2455	9.447	782491	prompt	n/a	richard advancement modems diseases\n
391.856	0.135	783712	keystroke	r	n/a
392.051	0.075	784102	keystroke	i	n/a
392.276	0.105	784552	keystroke	c	n/a
392.396	0.06	784792	keystroke	h	n/a
392.606	0.06	785212	keystroke	a	n/a
392.771	0.09	785542	keystroke	r	n/a
392.996	0.06	785992	keystroke	d	n/a
393.071	0.09	786142	keystroke	Key.space	n/a
393.266	0.09	786532	keystroke	a	n/a
393.446	0.09	786892	keystroke	d	n/a
393.671	0.075	787342	keystroke	v	n/a
393.851	0.06	787702	keystroke	a	n/a
393.986	0.075	787972	keystroke	n	n/a
394.196	0.075	788392	keystroke	c	n/a
395.786	0.0745	791572	keystroke	e	n/a
396.2805	0.075	792561	keystroke	m	n/a
396.4305	0.105	792861	keystroke	e	n/a
396.5505	0.09	793101	keystroke	n	n/a
396.7755	0.075	793551	keystroke	t	n/a
397.0155	0.09	794031	keystroke	Key.space	n/a
397.4205	0.075	794841	keystroke	m	n/a
397.5855	0.075	795171	keystroke	o	n/a
397.7205	0.075	795441	keystroke	d	n/a
397.8855	0.075	795771	keystroke	e	n/a
397.9905	0.075	795981	keystroke	m	n/a
398.1405	0.105	796281	keystroke	s	n/a
398.2905	0.105	796581	keystroke	Key.space	n/a
398.6505	0.075	797301	keystroke	d	n/a
398.7855	0.06	797571	keystroke	i	n/a
398.9055	0.09	797811	keystroke	s	n/a
399.1305	0.09	798261	keystroke	e	n/a
399.3255	0.09	798651	keystroke	a	n/a
399.5505	0.075	799101	keystroke	s	n/a
399.7455	0.075	799491	keystroke	e	n/a
399.9405	0.105	799881	keystroke	s	n/a
400.5855	0.105	801171	keystroke	Key.enter	n/a
400.6955	6.2065	801391	prompt	n/a	riverside catalyst diabetes bare\n
401.4265	0.089	802853	keystroke	r	n/a
401.5605	0.075	803121	keystroke	i	n/a
401.7105	0.075	803421	keystroke	v	n/a
401.8455	0.135	803691	keystroke	e	n/a
401.9655	0.09	803931	keystroke	r	n/a
402.1605	0.105	804321	keystroke	s	n/a
402.2805	0.09	804561	keystroke	i	n/a
402.3855	0.105	804771	keystroke	d	n/a
402.5355	0.105	805071	keystroke	e	n/a
402.6555	0.12	805311	keystroke	Key.space	n/a
402.8505	0.075	805701	keystroke	c	n/a
403.0005	0.09	806001	keystroke	a	n/a
403.1805	0.09	806361	keystroke	t	n/a
403.3905	0.075	806781	keystroke	a	n/a
403.5255	0.075	807051	keystroke	l	n/a
403.7355	0.075	807471	keystroke	y	n/a
403.8705	0.09	807741	keystroke	s	n/a
404.0955	0.075	808191	keystroke	t	n/a
404.2905	0.09	808581	keystroke	Key.space	n/a
404.6505	0.015	809301	keystroke	d	n/a
404.8305	0.09	809661	keystroke	i	n/a
404.9805	0.105	809961	keystroke	a	n/a
405.1005	0.09	810201	keystroke	b	n/a
405.2955	0.09	810591	keystroke	e	n/a
405.5205	0.075	811041	keystroke	t	n/a
405.6555	0.075	811311	keystroke	e	n/a
405.9405	0.045	811881	keystroke	s	n/a
406.0305	0.09	812061	keystroke	Key.space	n/a
406.2105	0.075	812421	keystroke	b	n/a
406.2705	0.09	812541	keystroke	a	n/a
406.4355	0.105	812871	keystroke	r	n/a
406.5255	0.105	813051	keystroke	e	n/a
406.7955	0.105	813591	keystroke	Key.enter	n/a
406.9055	7.392	813811	prompt	n/a	top bind transmit engineering\n
407.7405	0.06	815481	keystroke	t	n/a
407.7855	0.075	815571	keystroke	o	n/a
408.0105	0.06	816021	keystroke	p	n/a
408.1605	0.075	816321	keystroke	Key.space	n/a
408.3255	0.075	816651	keystroke	b	n/a
408.5055	0.06	817011	keystroke	i	n/a
408.6555	0.09	817311	keystroke	n	n/a
408.8055	0.09	817611	keystroke	d	n/a
408.8965	0.074	817793	keystroke	Key.space	n/a
409.1205	0.075	818241	keystroke	t	n/a
409.3155	0.045	818631	keystroke	r	n/a
409.9455	0.075	819891	keystroke	a	n/a
410.0805	0.12	820161	keystroke	n	n/a
410.2605	0.09	820521	keystroke	s	n/a
410.4705	0.06	820941	keystroke	m	n/a
410.5905	0.09	821181	keystroke	i	n/a
410.7405	0.12	821481	keystroke	t	n/a
411.5955	0.09	823191	keystroke	Key.space	n/a
411.9105	0.06	823821	keystroke	e	n/a
412.0005	0.09	824001	keystroke	n	n/a
412.1655	0.075	824331	keystroke	g	n/a
412.2705	0.075	824541	keystroke	i	n/a
412.4355	0.06	824871	keystroke	n	n/a
412.5405	0.3	825081	keystroke	e	n/a
413.0505	0.09	826101	keystroke	e	n/a
413.3505	0.09	826701	keystroke	r	n/a
413.4555	0.075	826911	keystroke	i	n/a
413.5905	0.075	827181	keystroke	n	n/a
413.7405	0.075	827481	keystroke	g	n/a
414.2055	0.09	828411	keystroke	Key.enter	n/a
414.3005	8.547	828601	prompt	n/a	daughters dept dramatically cement\n
415.0455	0.09	830091	keystroke	d	n/a
415.3455	0.075	830691	keystroke	a	n/a
415.4355	0.09	830871	keystroke	u	n/a
415.6155	0.075	831231	keystroke	g	n/a
415.7055	0.075	831411	keystroke	h	n/a
415.8405	0.09	831681	keystroke	t	n/a
416.0355	0.15	832071	keystroke	e	n/a
416.1705	0.12	832341	keystroke	r	n/a
416.6355	0.09	833271	keystroke	s	n/a
417.2205	0.105	834441	keystroke	Key.space	n/a
417.3265	0.089	834653	keystroke	d	n/a
417.4905	0.105	834981	keystroke	e	n/a
418.3455	0.045	836691	keystroke	p	n/a
418.5405	0.045	837081	keystroke	t	n/a
418.7955	0.09	837591	keystroke	Key.space	n/a
419.5305	0.09	839061	keystroke	d	n/a
419.7105	0.075	839421	keystroke	r	n/a
419.8755	0.09	839751	keystroke	a	n/a
419.9805	0.09	839961	keystroke	m	n/a
420.1155	0.09	840231	keystroke	a	n/a
420.3705	0.075	840741	keystroke	t	n/a
420.4905	0.075	840981	keystroke	i	n/a
420.6705	0.06	841341	keystroke	c	n/a
420.8505	0.06	841701	keystroke	a	n/a
420.9705	0.045	841941	keystroke	l	n/a
421.0905	0.06	842181	keystroke	l	n/a
421.2855	0.075	842571	keystroke	y	n/a
421.3755	0.09	842751	keystroke	Key.space	n/a
421.4805	0.09	842961	keystroke	c	n/a
421.6455	0.075	843291	keystroke	e	n/a
422.0205	0.09	844041	keystroke	m	n/a
422.1555	0.09	844311	keystroke	e	n/a
422.2605	0.075	844521	keystroke	n	n/a
422.4855	0.075	844971	keystroke	t	n/a
422.7555	0.09	845511	keystroke	Key.enter	n/a
422.8505	8.337	845701	prompt	n/a	accepting fact purple selected\n
423.4155	0.09	846831	keystroke	a	n/a
423.6405	0.075	847281	keystroke	c	n/a
423.7905	0.105	847581	keystroke	c	n/a
423.9405	0.105	847881	keystroke	e	n/a
424.0605	0.075	848121	keystroke	p	n/a
424.2105	0.09	848421	keystroke	t	n/a
424.3305	0.045	848661	keystroke	i	n/a
424.4355	0.075	848871	keystroke	n	n/a
424.5555	0.075	849111	keystroke	g	n/a
424.6315	0.074	849263	keystroke	Key.space	n/a
424.7655	0.075	849531	keystroke	f	n/a
424.9455	0.06	849891	keystroke	a	n/a
425.1105	0.075	850221	keystroke	c	n/a
425.3055	0.09	850611	keystroke	t	n/a
425.4105	0.075	850821	keystroke	Key.space	n/a
425.5905	0.06	851181	keystroke	p	n/a
425.7405	0.075	851481	keystroke	u	n/a
425.8605	0.075	851721	keystroke	r	n/a
425.9805	0.075	851961	keystroke	p	n/a
426.4305	0.03	852861	keystroke	e	n/a
426.7905	0.045	853581	keystroke	=	n/a
427.1055	0.045	854211	keystroke	Key.backspace	n/a
427.3005	0.06	854601	keystroke	Key.backspace	n/a
427.9155	0.075	855831	keystroke	l	n/a
428.3055	0.045	856611	keystroke	e	n/a
428.5005	0.09	857001	keystroke	Key.space	n/a
428.7255	0.09	857451	keystroke	s	n/a
428.9355	0.075	857871	keystroke	e	n/a
429.1755	0.075	858351	keystroke	l	n/a
429.3255	0.09	858651	keystroke	e	n/a
429.5805	0.075	859161	keystroke	c	n/a
429.7905	0.075	859581	keystroke	t	n/a
429.9105	0.09	859821	keystroke	e	n/a
430.0905	0.09	860181	keystroke	d	n/a
431.1105	0.075	862221	keystroke	Key.enter	n/a
431.1905	7.4365	862381	prompt	n/a	cole replace mens similarly\n
431.9955	0.09	863991	keystroke	c	n/a
432.0865	0.074	864173	keystroke	o	n/a
432.2805	0.075	864561	keystroke	l	n/a
432.4305	0.09	864861	keystroke	e	n/a
432.5505	0.09	865101	keystroke	Key.space	n/a
432.7305	0.105	865461	keystroke	r	n/a
432.8205	0.09	865641	keystroke	e	n/a
432.9705	0.09	865941	keystroke	p	n/a
433.1805	0.09	866361	keystroke	l	n/a
433.2855	0.09	866571	keystroke	a	n/a
433.5255	0.075	867051	keystroke	c	n/a
433.6455	0.105	867291	keystroke	e	n/a
433.7805	0.09	867561	keystroke	Key.space	n/a
433.9455	0.09	867891	keystroke	m	n/a
434.0805	0.075	868161	keystroke	e	n/a
434.1855	0.09	868371	keystroke	n	n/a
434.3205	0.09	868641	keystroke	s	n/a
434.4705	0.09	868941	keystroke	Key.space	n/a
434.7405	0.09	869481	keystroke	s	n/a
434.8605	0.075	869721	keystroke	i	n/a
435.0105	0.09	870021	keystroke	m	n/a
435.1755	0.09	870351	keystroke	i	n/a
436.0455	0.075	872091	keystroke	l	n/a
437.1705	0.165	874341	keystroke	a	n/a
437.3955	0.09	874791	keystroke	r	n/a
437.5755	0.06	875151	keystroke	l	n/a
437.7855	0.105	875571	keystroke	y	n/a
438.5505	0.075	877101	keystroke	Key.enter	n/a
438.63	8.0225	877260	prompt	n/a	realtors votes uzbekistan hills\n
439.5255	0.135	879051	keystroke	r	n/a
439.6455	0.075	879291	keystroke	e	n/a
439.8105	0.09	879621	keystroke	a	n/a
439.9155	0.06	879831	keystroke	l	n/a
440.1105	0.075	880221	keystroke	t	n/a
440.2005	0.06	880401	keystroke	o	n/a
440.3215	0.074	880643	keystroke	r	n/a
440.5605	0.09	881121	keystroke	s	n/a
440.6655	0.105	881331	keystroke	Key.space	n/a
440.9205	0.076	881841	keystroke	v	n/a
441.0405	0.075	882081	keystroke	o	n/a
441.2505	0.075	882501	keystroke	t	n/a
441.7005	0.06	883401	keystroke	e	n/a
441.9105	0.09	883821	keystroke	s	n/a
442.4505	0.075	884901	keystroke	Key.space	n/a
442.7055	0.09	885411	keystroke	u	n/a
443.2455	0.105	886491	keystroke	z	n/a
443.4855	0.09	886971	keystroke	b	n/a
443.6505	0.09	887301	keystroke	e	n/a
444.2805	0.075	888561	keystroke	k	n/a
444.4755	0.076	888951	keystroke	i	n/a
444.5805	0.105	889161	keystroke	s	n/a
444.7905	0.075	889581	keystroke	t	n/a
445.0155	0.075	890031	keystroke	a	n/a
445.1355	0.09	890271	keystroke	n	n/a
445.3455	0.075	890691	keystroke	Key.space	n/a
445.5405	0.09	891081	keystroke	h	n/a
445.7515	0.074	891503	keystroke	i	n/a
445.9755	0.061	891951	keystroke	l	n/a
446.1105	0.075	892221	keystroke	l	n/a
446.2165	0.074	892433	keystroke	s	n/a
446.5605	0.09	893121	keystroke	Key.enter	n/a
446.657	7.3005	893314	prompt	n/a	loans species suit utilities\n
447.3715	0.06	894743	keystroke	l	n/a
447.5955	0.045	895191	keystroke	o	n/a
447.7005	0.12	895401	keystroke	a	n/a
447.9855	0.106	895971	keystroke	n	n/a
448.1805	0.105	896361	keystroke	s	n/a
448.3005	0.075	896601	keystroke	Key.space	n/a
448.5565	0.074	897113	keystroke	s	n/a
448.6605	0.075	897321	keystroke	p	n/a
448.7955	0.075	897591	keystroke	e	n/a
449.0365	0.09	898073	keystroke	c	n/a
449.1405	0.075	898281	keystroke	i	n/a
449.2765	0.074	898553	keystroke	e	n/a
449.5005	0.075	899001	keystroke	s	n/a
449.6205	0.105	899241	keystroke	Key.space	n/a
449.7705	0.121	899541	keystroke	s	n/a
449.9055	0.061	899811	keystroke	u	n/a
450.0715	0.075	900143	keystroke	i	n/a
450.3405	0.061	900681	keystroke	t	n/a
450.5355	0.09	901071	keystroke	Key.space	n/a
450.9255	0.091	901851	keystroke	u	n/a
451.1505	0.046	902301	keystroke	t	n/a
451.2555	0.09	902511	keystroke	i	n/a
451.4805	0.09	902961	keystroke	l	n/a
451.6905	0.075	903381	keystroke	i	n/a
451.8415	0.059	903683	keystroke	t	n/a
451.9155	0.09	903831	keystroke	i	n/a
452.0505	0.106	904101	keystroke	e	n/a
452.3355	0.076	904671	keystroke	s	n/a
453.8805	0.076	907761	keystroke	Key.enter	n/a
453.9605	7.992	907921	prompt	n/a	textile thailand screenshot standings\n
454.6155	0.076	909231	keystroke	t	n/a
454.7215	0.06	909443	keystroke	h	n/a
455.0505	0.06	910101	keystroke	Key.backspace	n/a
455.3065	0.074	910613	keystroke	e	n/a
455.5305	0.075	911061	keystroke	x	n/a
455.7715	0.074	911543	keystroke	t	n/a
455.8605	0.075	911721	keystroke	i	n/a
456.1005	0.061	912201	keystroke	l	n/a
456.2815	0.06	912563	keystroke	e	n/a
456.3705	0.09	912741	keystroke	Key.space	n/a
456.5515	0.075	913103	keystroke	t	n/a
456.6405	0.076	913281	keystroke	h	n/a
456.8365	0.074	913673	keystroke	a	n/a
456.9265	0.09	913853	keystroke	i	n/a
457.2265	0.06	914453	keystroke	l	n/a
457.4065	0.075	914813	keystroke	a	n/a
457.5265	0.075	915053	keystroke	n	n/a
457.7065	0.075	915413	keystroke	d	n/a
457.9755	0.075	915951	keystroke	Key.space	n/a
458.2315	0.059	916463	keystroke	s	n/a
458.4565	0.075	916913	keystroke	c	n/a
458.6655	0.091	917331	keystroke	r	n/a
458.8615	0.075	917723	keystroke	e	n/a
459.0415	0.075	918083	keystroke	e	n/a
459.2215	0.074	918443	keystroke	n	n/a
459.4465	0.075	918893	keystroke	s	n/a
459.5365	0.059	919073	keystroke	h	n/a
459.7165	0.06	919433	keystroke	o	n/a
459.8515	0.074	919703	keystroke	t	n/a
459.9405	0.09	919881	keystroke	Key.space	n/a
460.0915	0.105	920183	keystroke	s	n/a
460.3015	0.075	920603	keystroke	t	n/a
460.4815	0.09	920963	keystroke	a	n/a
460.6005	0.091	921201	keystroke	n	n/a
460.7365	0.09	921473	keystroke	d	n/a
460.8415	0.045	921683	keystroke	i	n/a
460.9915	0.045	921983	keystroke	n	n/a
461.0965	0.075	922193	keystroke	g	n/a
461.4265	0.105	922853	keystroke	s	n/a
461.8615	0.09	923723	keystroke	Key.enter	n/a
461.9555	6.027	923911	prompt	n/a	agenda finishing clear aaron\n
462.5965	0.09	925193	keystroke	a	n/a
462.8065	0.06	925613	keystroke	g	n/a
462.9715	0.06	925943	keystroke	e	n/a
463.0455	0.106	926091	keystroke	n	n/a
463.1965	0.09	926393	keystroke	d	n/a
463.3315	0.104	926663	keystroke	a	n/a
463.9915	0.089	927983	keystroke	Key.space	n/a
464.2315	0.075	928463	keystroke	f	n/a
464.3665	0.075	928733	keystroke	i	n/a
464.5165	0.06	929033	keystroke	n	n/a
464.6665	0.06	929333	keystroke	i	n/a
464.8165	0.06	929633	keystroke	s	n/a
464.8615	0.06	929723	keystroke	h	n/a
465.0105	0.076	930021	keystroke	i	n/a
465.1465	0.06	930293	keystroke	n	n/a
465.2515	0.09	930503	keystroke	g	n/a
465.3565	0.075	930713	keystroke	Key.space	n/a
465.5815	0.09	931163	keystroke	c	n/a
465.7015	0.06	931403	keystroke	l	n/a
466.1215	0.06	932243	keystroke	e	n/a
466.3165	0.06	932633	keystroke	a	n/a
466.4965	0.09	932993	keystroke	r	n/a
466.6015	0.075	933203	keystroke	Key.space	n/a
466.7665	0.075	933533	keystroke	a	n/a
466.9315	0.09	933863	keystroke	a	n/a
467.1415	0.075	934283	keystroke	r	n/a
467.2315	0.045	934463	keystroke	o	n/a
467.3665	0.09	934733	keystroke	n	n/a
467.9065	0.075	935813	keystroke	Key.enter	n/a
467.985	13.5725	935970	prompt	n/a	phantom comfortable allows massachusetts\n
471.2385	0.028	942477	keystroke	p	n/a
471.4615	0.075	942923	keystroke	h	n/a
471.6415	0.105	943283	keystroke	a	n/a
471.7615	0.075	943523	keystroke	n	n/a
471.8965	0.075	943793	keystroke	t	n/a
472.0015	0.075	944003	keystroke	o	n/a
472.1515	0.105	944303	keystroke	m	n/a
472.2715	0.09	944543	keystroke	Key.space	n/a
472.4215	0.09	944843	keystroke	c	n/a
472.5115	0.06	945023	keystroke	o	n/a
472.6465	0.09	945293	keystroke	m	n/a
472.7965	0.075	945593	keystroke	f	n/a
472.9015	0.06	945803	keystroke	o	n/a
473.0215	0.075	946043	keystroke	r	n/a
473.2165	0.045	946433	keystroke	t	n/a
473.3965	0.06	946793	keystroke	a	n/a
473.4865	0.075	946973	keystroke	b	n/a
473.6815	0.075	947363	keystroke	l	n/a
473.8165	0.075	947633	keystroke	e	n/a
473.9065	0.075	947813	keystroke	Key.space	n/a
474.0715	0.06	948143	keystroke	a	n/a
474.1765	0.06	948353	keystroke	l	n/a
474.3115	0.06	948623	keystroke	l	n/a
474.4765	0.06	948953	keystroke	o	n/a
474.5815	0.075	949163	keystroke	w	n/a
474.7915	0.06	949583	keystroke	s	n/a
474.8665	0.09	949733	keystroke	Key.space	n/a
475.0765	0.075	950153	keystroke	m	n/a
475.1665	0.105	950333	keystroke	a	n/a
475.4065	0.06	950813	keystroke	s	n/a
475.5715	0.06	951143	keystroke	s	n/a
475.7365	0.03	951473	keystroke	a	n/a
475.9165	0.075	951833	keystroke	c	n/a
476.0065	0.075	952013	keystroke	h	n/a
476.1565	0.09	952313	keystroke	u	n/a
476.5165	0.045	953033	keystroke	s	n/a
476.6065	0.09	953213	keystroke	h	n/a
477.3265	0.06	954653	keystroke	Key.backspace	n/a
477.7915	0.075	955583	keystroke	e	n/a
478.2265	0.045	956453	keystroke	t	n/a
478.3615	0.06	956723	keystroke	t	n/a
478.6765	0.075	957353	keystroke	s	n/a
481.5285	0.028	963057	keystroke	Key.enter	n/a
481.5605	9.672	963121	prompt	n/a	pets racing champagne jonathan\n
483.2215	0.135	966443	keystroke	p	n/a
483.3865	0.075	966773	keystroke	e	n/a
483.5215	0.0895	967043	keystroke	t	n/a
483.656	0.075	967312	keystroke	s	n/a
483.761	0.09	967522	keystroke	Key.space	n/a
484.106	0.0755	968212	keystroke	r	n/a
484.421	0.09	968842	keystroke	a	n/a
484.691	0.06	969382	keystroke	c	n/a
485.231	0.06	970462	keystroke	i	n/a
485.366	0.09	970732	keystroke	n	n/a
485.501	0.09	971002	keystroke	g	n/a
485.621	0.09	971242	keystroke	Key.space	n/a
486.401	0.105	972802	keystroke	c	n/a
486.521	0.06	973042	keystroke	h	n/a
486.671	0.06	973342	keystroke	a	n/a
486.776	0.09	973552	keystroke	m	n/a
487.016	0.06	974032	keystroke	p	n/a
487.166	0.09	974332	keystroke	a	n/a
487.346	0.06	974692	keystroke	g	n/a
487.571	0.06	975142	keystroke	n	n/a
487.691	0.09	975382	keystroke	e	n/a
487.991	0.06	975982	keystroke	Key.space	n/a
488.216	0.045	976432	keystroke	j	n/a
488.846	0.045	977692	keystroke	o	n/a
489.221	0.06	978442	keystroke	h	n/a
489.506	0.075	979012	keystroke	n	n/a
489.686	0.075	979372	keystroke	a	n/a
489.926	0.09	979852	keystroke	t	n/a
490.106	0.09	980212	keystroke	h	n/a
490.2565	0.1195	980513	keystroke	a	n/a
490.496	0.075	980992	keystroke	n	n/a
491.0965	0.1345	982193	keystroke	Key.enter	n/a
491.235	6.7485	982470	prompt	n/a	podcasts belkin command lessons\n
492.146	0.045	984292	keystroke	p	n/a
492.356	0.075	984712	keystroke	o	n/a
492.476	0.09	984952	keystroke	d	n/a
492.716	0.09	985432	keystroke	c	n/a
492.896	0.105	985792	keystroke	a	n/a
493.076	0.09	986152	keystroke	s	n/a
493.286	0.075	986572	keystroke	t	n/a
493.496	0.075	986992	keystroke	s	n/a
493.631	0.075	987262	keystroke	Key.space	n/a
493.856	0.09	987712	keystroke	b	n/a
493.991	0.075	987982	keystroke	e	n/a
494.126	0.075	988252	keystroke	l	n/a
494.381	0.03	988762	keystroke	k	n/a
494.921	0.075	989842	keystroke	i	n/a
495.071	0.09	990142	keystroke	n	n/a
495.461	0.075	990922	keystroke	Key.space	n/a
495.686	0.075	991372	keystroke	c	n/a
495.776	0.06	991552	keystroke	o	n/a
495.956	0.09	991912	keystroke	m	n/a
496.091	0.06	992182	keystroke	m	n/a
496.211	0.09	992422	keystroke	a	n/a
496.316	0.075	992632	keystroke	n	n/a
496.481	0.075	992962	keystroke	d	n/a
496.586	0.09	993172	keystroke	Key.space	n/a
496.751	0.075	993502	keystroke	l	n/a
496.871	0.09	993742	keystroke	e	n/a
497.141	0.03	994282	keystroke	s	n/a
497.231	0.06	994462	keystroke	s	n/a
497.336	0.075	994672	keystroke	o	n/a
497.516	0.075	995032	keystroke	n	n/a
497.666	0.075	995332	keystroke	s	n/a
497.891	0.09	995782	keystroke	Key.enter	n/a
497.986	9.237	995972	prompt	n/a	luther midwest motivated returns\n
498.791	0.06	997582	keystroke	l	n/a
499.001	0.105	998002	keystroke	u	n/a
499.256	0.09	998512	keystroke	t	n/a
499.376	0.09	998752	keystroke	h	n/a
499.676	0.12	999352	keystroke	e	n/a
499.826	0.105	999652	keystroke	r	n/a
499.916	0.09	999832	keystroke	Key.space	n/a
500.066	0.105	1000132	keystroke	m	n/a
500.276	0.06	1000552	keystroke	i	n/a
500.396	0.075	1000792	keystroke	d	n/a
501.011	0.09	1002022	keystroke	w	n/a
501.131	0.105	1002262	keystroke	e	n/a
501.371	0.075	1002742	keystroke	s	n/a
501.596	0.075	1003192	keystroke	t	n/a
503.893	0.028	1007786	keystroke	Key.space	n/a
504.011	0.09	1008022	keystroke	m	n/a
504.191	0.075	1008382	keystroke	o	n/a
504.341	0.075	1008682	keystroke	t	n/a
504.431	0.09	1008862	keystroke	i	n/a
504.626	0.045	1009252	keystroke	v	n/a
504.821	0.09	1009642	keystroke	a	n/a
505.001	0.075	1010002	keystroke	t	n/a
505.136	0.09	1010272	keystroke	e	n/a
505.346	0.075	1010692	keystroke	d	n/a
505.436	0.09	1010872	keystroke	Key.space	n/a
505.586	0.105	1011172	keystroke	r	n/a
505.676	0.105	1011352	keystroke	e	n/a
505.886	0.09	1011772	keystroke	t	n/a
505.991	0.075	1011982	keystroke	u	n/a
506.096	0.09	1012192	keystroke	r	n/a
506.231	0.09	1012462	keystroke	n	n/a
506.396	0.075	1012792	keystroke	s	n/a
507.086	0.135	1014172	keystroke	Key.enter	n/a
507.226	8.532	1014452	prompt	n/a	retreat mexico summaries citation\n
507.941	0.12	1015882	keystroke	r	n/a
508.031	0.135	1016062	keystroke	e	n/a
508.226	0.105	1016452	keystroke	t	n/a
508.406	0.105	1016812	keystroke	r	n/a
508.526	0.105	1017052	keystroke	e	n/a
508.976	0.075	1017952	keystroke	a	n/a
509.201	0.09	1018402	keystroke	t	n/a
510.176	0.105	1020352	keystroke	Key.space	n/a
510.656	0.09	1021312	keystroke	m	n/a
510.866	0.105	1021732	keystroke	e	n/a
511.136	0.09	1022272	keystroke	x	n/a
511.241	0.075	1022482	keystroke	i	n/a
511.496	0.105	1022992	keystroke	c	n/a
511.616	0.06	1023232	keystroke	o	n/a
511.961	0.075	1023922	keystroke	Key.space	n/a
512.156	0.09	1024312	keystroke	s	n/a
512.261	0.075	1024522	keystroke	u	n/a
512.516	0.06	1025032	keystroke	m	n/a
512.636	0.09	1025272	keystroke	m	n/a
512.756	0.09	1025512	keystroke	a	n/a
512.951	0.105	1025902	keystroke	r	n/a
513.236	0.09	1026472	keystroke	i	n/a
513.416	0.06	1026832	keystroke	e	n/a
513.626	0.045	1027252	keystroke	s	n/a
513.716	0.09	1027432	keystroke	Key.space	n/a
513.866	0.09	1027732	keystroke	c	n/a
514.001	0.06	1028002	keystroke	i	n/a
514.121	0.075	1028242	keystroke	t	n/a
514.376	0.075	1028752	keystroke	a	n/a
514.571	0.075	1029142	keystroke	t	n/a
514.661	0.09	1029322	keystroke	i	n/a
514.856	0.045	1029712	keystroke	o	n/a
515.006	0.075	1030012	keystroke	n	n/a
515.651	0.105	1031302	keystroke	Key.enter	n/a
515.7605	8.2175	1031521	prompt	n/a	bite spending cities acre\n
519.24	0.012	1038480	keystroke	b	n/a
519.612	0.06	1039224	keystroke	i	n/a
519.732	0.089	1039464	keystroke	t	n/a
519.926	0.09	1039852	keystroke	e	n/a
520.076	0.12	1040152	keystroke	Key.space	n/a
520.211	0.105	1040422	keystroke	s	n/a
520.331	0.09	1040662	keystroke	p	n/a
520.496	0.09	1040992	keystroke	e	n/a
520.616	0.09	1041232	keystroke	n	n/a
520.766	0.105	1041532	keystroke	d	n/a
520.857	0.059	1041714	keystroke	i	n/a
520.976	0.09	1041952	keystroke	n	n/a
521.081	0.09	1042162	keystroke	g	n/a
521.216	0.09	1042432	keystroke	Key.space	n/a
521.336	0.105	1042672	keystroke	c	n/a
521.471	0.075	1042942	keystroke	i	n/a
521.681	0.1055	1043362	keystroke	t	n/a
521.8615	0.075	1043723	keystroke	i	n/a
522.2215	0.075	1044443	keystroke	e	n/a
522.4465	0.075	1044893	keystroke	s	n/a
522.5515	0.09	1045103	keystroke	Key.space	n/a
522.6865	0.09	1045373	keystroke	a	n/a
522.9265	0.06	1045853	keystroke	c	n/a
523.1065	0.09	1046213	keystroke	r	n/a
523.2115	0.075	1046423	keystroke	e	n/a
523.9015	0.075	1047803	keystroke	Key.enter	n/a
523.981	8.9965	1047962	prompt	n/a	billing wiley fist associations\n
524.7415	0.06	1049483	keystroke	b	n/a
524.9365	0.075	1049873	keystroke	i	n/a
525.1765	0.045	1050353	keystroke	l	n/a
525.2815	0.06	1050563	keystroke	l	n/a
525.4465	0.06	1050893	keystroke	i	n/a
525.5515	0.09	1051103	keystroke	n	n/a
525.6865	0.075	1051373	keystroke	g	n/a
525.7915	0.075	1051583	keystroke	Key.space	n/a
525.956	0.075	1051912	keystroke	w	n/a
526.046	0.075	1052092	keystroke	i	n/a
526.256	0.06	1052512	keystroke	l	n/a
526.391	0.075	1052782	keystroke	e	n/a
526.526	0.06	1053052	keystroke	y	n/a
526.616	0.09	1053232	keystroke	Key.space	n/a
526.841	0.075	1053682	keystroke	f	n/a
526.931	0.075	1053862	keystroke	i	n/a
527.156	0.075	1054312	keystroke	s	n/a
527.351	0.075	1054702	keystroke	t	n/a
530.5775	0.013	1061155	keystroke	Key.space	n/a
530.7705	0.105	1061541	keystroke	a	n/a
531.0855	0.045	1062171	keystroke	s	n/a
531.2205	0.075	1062441	keystroke	s	n/a
531.3555	0.06	1062711	keystroke	o	n/a
531.5205	0.06	1063041	keystroke	c	n/a
531.6255	0.09	1063251	keystroke	i	n/a
531.7755	0.075	1063551	keystroke	a	n/a
532.0005	0.075	1064001	keystroke	t	n/a
532.1205	0.09	1064241	keystroke	i	n/a
532.3005	0.06	1064601	keystroke	o	n/a
532.4655	0.075	1064931	keystroke	n	n/a
532.5705	0.09	1065141	keystroke	s	n/a
532.9155	0.06	1065831	keystroke	Key.enter	n/a
532.9305	0.03	1065861	keystroke	'	n/a
532.9805	10.992	1065961	prompt	n/a	baskets princeton respondents blank\n
533.6955	0.075	1067391	keystroke	b	n/a
533.8005	0.09	1067601	keystroke	a	n/a
533.9955	0.09	1067991	keystroke	s	n/a
534.1005	0.06	1068201	keystroke	k	n/a
534.6405	0.06	1069281	keystroke	e	n/a
534.8355	0.06	1069671	keystroke	t	n/a
535.0755	0.09	1070151	keystroke	s	n/a
535.1805	0.09	1070361	keystroke	Key.space	n/a
535.3905	0.06	1070781	keystroke	p	n/a
535.5405	0.075	1071081	keystroke	r	n/a
535.6305	0.06	1071261	keystroke	i	n/a
535.7655	0.09	1071531	keystroke	n	n/a
535.9005	0.105	1071801	keystroke	c	n/a
536.0655	0.09	1072131	keystroke	e	n/a
536.4255	0.075	1072851	keystroke	t	n/a
536.6805	0.075	1073361	keystroke	n	n/a
538.0315	0.045	1076063	keystroke	Key.backspace	n/a
538.3765	0.06	1076753	keystroke	o	n/a
538.5865	0.075	1077173	keystroke	n	n/a
538.8405	0.075	1077681	keystroke	Key.space	n/a
539.4555	0.121	1078911	keystroke	r	n/a
539.5915	0.089	1079183	keystroke	e	n/a
539.8465	0.089	1079693	keystroke	s	n/a
539.9815	0.075	1079963	keystroke	p	n/a
540.1755	0.075	1080351	keystroke	o	n/a
540.3855	0.075	1080771	keystroke	n	n/a
540.5205	0.091	1081041	keystroke	d	n/a
540.6855	0.075	1081371	keystroke	e	n/a
540.7755	0.075	1081551	keystroke	n	n/a
540.9555	0.075	1081911	keystroke	t	n/a
541.1655	0.075	1082331	keystroke	s	n/a
541.2555	0.09	1082511	keystroke	Key.space	n/a
541.4355	0.06	1082871	keystroke	b	n/a
541.6455	0.06	1083291	keystroke	l	n/a
541.7655	0.09	1083531	keystroke	a	n/a
541.8855	0.045	1083771	keystroke	n	n/a
542.0365	0.06	1084073	keystroke	k	n/a
543.8955	0.075	1087791	keystroke	Key.enter	n/a
543.976	7.0165	1087952	prompt	n/a	austin redhead rate committees\n
544.6605	0.06	1089321	keystroke	a	n/a
544.7505	0.09	1089501	keystroke	u	n/a
544.8715	0.0895	1089743	keystroke	s	n/a
545.1265	0.089	1090253	keystroke	t	n/a
545.3805	0.06	1090761	keystroke	i	n/a
545.5315	0.074	1091063	keystroke	n	n/a
545.6505	0.06	1091301	keystroke	Key.space	n/a
545.9355	0.09	1091871	keystroke	r	n/a
546.0105	0.105	1092021	keystroke	e	n/a
546.3555	0.075	1092711	keystroke	d	n/a
546.5205	0.075	1093041	keystroke	h	n/a
546.6405	0.09	1093281	keystroke	e	n/a
546.8205	0.09	1093641	keystroke	a	n/a
547.0755	0.06	1094151	keystroke	d	n/a
547.2105	0.06	1094421	keystroke	Key.space	n/a
547.3755	0.09	1094751	keystroke	r	n/a
547.5855	0.06	1095171	keystroke	a	n/a
547.7955	0.075	1095591	keystroke	t	n/a
547.9455	0.09	1095891	keystroke	e	n/a
548.0955	0.075	1096191	keystroke	Key.space	n/a
548.2155	0.105	1096431	keystroke	c	n/a
548.3355	0.075	1096671	keystroke	o	n/a
548.5455	0.045	1097091	keystroke	m	n/a
548.6655	0.06	1097331	keystroke	m	n/a
548.8605	0.075	1097721	keystroke	i	n/a
549.0705	0.06	1098141	keystroke	t	n/a
549.2355	0.06	1098471	keystroke	t	n/a
549.5655	0.075	1099131	keystroke	e	n/a
550.1055	0.06	1100211	keystroke	e	n/a
550.3755	0.075	1100751	keystroke	s	n/a
550.9155	0.075	1101831	keystroke	Key.enter	n/a
550.9975	5.89	1101995	prompt	n/a	paths steering amend arch\n
551.666	0.09	1103332	keystroke	p	n/a
551.831	0.09	1103662	keystroke	a	n/a
552.041	0.06	1104082	keystroke	t	n/a
552.071	0.12	1104142	keystroke	h	n/a
552.311	0.09	1104622	keystroke	s	n/a
552.506	0.09	1105012	keystroke	Key.space	n/a
552.926	0.09	1105852	keystroke	s	n/a
553.151	0.06	1106302	keystroke	t	n/a
553.316	0.075	1106632	keystroke	e	n/a
553.466	0.09	1106932	keystroke	e	n/a
553.631	0.09	1107262	keystroke	r	n/a
553.766	0.075	1107532	keystroke	i	n/a
553.916	0.06	1107832	keystroke	n	n/a
554.006	0.075	1108012	keystroke	g	n/a
554.111	0.075	1108222	keystroke	Key.space	n/a
554.336	0.075	1108672	keystroke	a	n/a
554.426	0.075	1108852	keystroke	m	n/a
554.576	0.09	1109152	keystroke	e	n/a
554.681	0.075	1109362	keystroke	n	n/a
554.831	0.09	1109662	keystroke	d	n/a
554.996	0.06	1109992	keystroke	Key.space	n/a
555.176	0.0905	1110352	keystroke	a	n/a
555.3415	0.075	1110683	keystroke	r	n/a
555.5665	0.075	1111133	keystroke	c	n/a
555.6565	0.105	1111313	keystroke	h	n/a
556.7965	0.09	1113593	keystroke	Key.enter	n/a
556.89	8.1425	1113780	prompt	n/a	regulations interested apparel assignment\n
557.8915	0.06	1115783	keystroke	r	n/a
557.9815	0.09	1115963	keystroke	e	n/a
558.2365	0.075	1116473	keystroke	g	n/a
558.3265	0.075	1116653	keystroke	u	n/a
558.5515	0.075	1117103	keystroke	l	n/a
558.6565	0.075	1117313	keystroke	a	n/a
558.8515	0.075	1117703	keystroke	t	n/a
558.9415	0.075	1117883	keystroke	i	n/a
559.0915	0.06	1118183	keystroke	o	n/a
559.2565	0.105	1118513	keystroke	n	n/a
559.3765	0.075	1118753	keystroke	s	n/a
559.4665	0.075	1118933	keystroke	Key.space	n/a
559.5865	0.075	1119173	keystroke	i	n/a
559.7365	0.075	1119473	keystroke	n	n/a
559.8715	0.09	1119743	keystroke	t	n/a
560.0815	0.075	1120163	keystroke	e	n/a
560.186	0.15	1120372	keystroke	r	n/a
560.336	0.09	1120672	keystroke	e	n/a
560.576	0.06	1121152	keystroke	s	n/a
560.756	0.06	1121512	keystroke	t	n/a
560.906	0.09	1121812	keystroke	e	n/a
561.086	0.075	1122172	keystroke	d	n/a
561.191	0.09	1122382	keystroke	Key.space	n/a
561.311	0.075	1122622	keystroke	a	n/a
561.461	0.045	1122922	keystroke	p	n/a
561.581	0.06	1123162	keystroke	p	n/a
561.686	0.09	1123372	keystroke	a	n/a
561.821	0.12	1123642	keystroke	r	n/a
561.896	0.12	1123792	keystroke	e	n/a
562.226	0.06	1124452	keystroke	l	n/a
562.361	0.075	1124722	keystroke	Key.space	n/a
562.586	0.075	1125172	keystroke	a	n/a
562.796	0.06	1125592	keystroke	s	n/a
562.916	0.075	1125832	keystroke	s	n/a
563.021	0.075	1126042	keystroke	i	n/a
563.156	0.09	1126312	keystroke	g	n/a
563.261	0.09	1126522	keystroke	n	n/a
563.471	0.075	1126942	keystroke	m	n/a
563.576	0.09	1127152	keystroke	e	n/a
563.681	0.09	1127362	keystroke	n	n/a
563.831	0.075	1127662	keystroke	t	n/a
564.056	0.09	1128112	keystroke	s	n/a
564.566	0.06	1129132	keystroke	Key.backspace	n/a
564.956	0.075	1129912	keystroke	Key.enter	n/a
565.0355	7.437	1130071	prompt	n/a	questionnaire hormone couples threatening\n
565.916	0.135	1131832	keystroke	q	n/a
566.036	0.09	1132072	keystroke	u	n/a
566.201	0.075	1132402	keystroke	e	n/a
566.381	0.09	1132762	keystroke	s	n/a
566.591	0.075	1133182	keystroke	t	n/a
566.681	0.075	1133362	keystroke	i	n/a
566.831	0.06	1133662	keystroke	o	n/a
567.026	0.06	1134052	keystroke	n	n/a
567.146	0.075	1134292	keystroke	n	n/a
567.296	0.075	1134592	keystroke	a	n/a
567.476	0.045	1134952	keystroke	i	n/a
567.611	0.09	1135222	keystroke	r	n/a
567.716	0.09	1135432	keystroke	e	n/a
567.971	0.09	1135942	keystroke	Key.space	n/a
568.256	0.06	1136512	keystroke	h	n/a
568.421	0.09	1136842	keystroke	o	n/a
568.526	0.09	1137052	keystroke	r	n/a
568.631	0.075	1137262	keystroke	m	n/a
568.796	0.06	1137592	keystroke	o	n/a
568.961	0.06	1137922	keystroke	n	n/a
569.066	0.06	1138132	keystroke	e	n/a
569.171	0.075	1138342	keystroke	Key.space	n/a
569.321	0.09	1138642	keystroke	c	n/a
569.426	0.105	1138852	keystroke	o	n/a
569.501	0.075	1139002	keystroke	u	n/a
569.666	0.075	1139332	keystroke	p	n/a
569.861	0.075	1139722	keystroke	l	n/a
569.936	0.075	1139872	keystroke	e	n/a
570.161	0.075	1140322	keystroke	s	n/a
570.311	0.105	1140622	keystroke	Key.space	n/a
570.626	0.06	1141252	keystroke	t	n/a
570.701	0.09	1141402	keystroke	h	n/a
570.821	0.09	1141642	keystroke	r	n/a
570.926	0.09	1141852	keystroke	e	n/a
571.136	0.06	1142272	keystroke	a	n/a
571.331	0.075	1142662	keystroke	t	n/a
571.496	0.075	1142992	keystroke	e	n/a
571.616	0.075	1143232	keystroke	n	n/a
571.781	0.075	1143562	keystroke	i	n/a
571.946	0.045	1143892	keystroke	n	n/a
572.036	0.075	1144072	keystroke	g	n/a
572.396	0.075	1144792	keystroke	Key.enter	n/a
572.4755	8.037	1144951	prompt	n/a	easily exclusively holds cover\n
573.1765	0.09	1146353	keystroke	e	n/a
573.3265	0.105	1146653	keystroke	a	n/a
573.5365	0.0895	1147073	keystroke	s	n/a
573.866	0.06	1147732	keystroke	i	n/a
574.061	0.06	1148122	keystroke	l	n/a
574.301	0.075	1148602	keystroke	y	n/a
574.421	0.09	1148842	keystroke	Key.space	n/a
574.736	0.06	1149472	keystroke	e	n/a
574.961	0.105	1149922	keystroke	x	n/a
575.096	0.075	1150192	keystroke	l	n/a
575.741	0.06	1151482	keystroke	Key.backspace	n/a
575.876	0.09	1151752	keystroke	c	n/a
576.116	0.03	1152232	keystroke	l	n/a
576.386	0.09	1152772	keystroke	u	n/a
577.346	0.09	1154692	keystroke	s	n/a
577.481	0.03	1154962	keystroke	i	n/a
577.616	0.075	1155232	keystroke	v	n/a
577.781	0.075	1155562	keystroke	e	n/a
577.886	0.075	1155772	keystroke	l	n/a
578.096	0.075	1156192	keystroke	y	n/a
578.186	0.075	1156372	keystroke	Key.space	n/a
578.351	0.06	1156702	keystroke	h	n/a
578.546	0.06	1157092	keystroke	o	n/a
578.726	0.06	1157452	keystroke	l	n/a
578.831	0.12	1157662	keystroke	d	n/a
578.921	0.12	1157842	keystroke	s	n/a
579.101	0.075	1158202	keystroke	Key.space	n/a
