onset	duration	sample	value	key	prompt_text
1.632	10.855	3264	prompt	n/a	the quick brown fox jumps over a lazy dog\n
4.8495	0.012	9699	keystroke	t	n/a
4.8775	0.1045	9755	keystroke	h	n/a
5.112	0.0805	10224	keystroke	e	n/a
5.174	0.0925	10348	keystroke	Key.space	n/a
5.583	0.0605	11166	keystroke	q	n/a
5.6735	0.09	11347	keystroke	u	n/a
5.8385	0.075	11677	keystroke	i	n/a
5.9735	0.105	11947	keystroke	c	n/a
6.0635	0.12	12127	keystroke	k	n/a
6.1985	0.105	12397	keystroke	Key.space	n/a
6.4085	0.105	12817	keystroke	b	n/a
6.5885	0.075	13177	keystroke	r	n/a
6.6785	0.09	13357	keystroke	o	n/a
6.7835	0.105	13567	keystroke	w	n/a
6.8585	0.09	13717	keystroke	n	n/a
7.022	0.0705	14044	keystroke	Key.space	n/a
7.1075	0.06	14215	keystroke	f	n/a
7.1525	0.12	14305	keystroke	o	n/a
7.3775	0.0455	14755	keystroke	x	n/a
7.437	0.06	14874	keystroke	Key.space	n/a
7.7585	0.09	15517	keystroke	j	n/a
8.0135	0.12	16027	keystroke	u	n/a
8.3285	0.105	16657	keystroke	m	n/a
8.5085	0.0895	17017	keystroke	p	n/a
8.643	0.1055	17286	keystroke	s	n/a
8.763	0.0755	17526	keystroke	Key.space	n/a
8.928	0.09	17856	keystroke	o	n/a
9.033	0.0595	18066	keystroke	v	n/a
9.1835	0.089	18367	keystroke	e	n/a
9.3185	0.09	18637	keystroke	r	n/a
9.4985	0.075	18997	keystroke	Key.space	n/a
9.6035	0.045	19207	keystroke	a	n/a
9.6785	0.075	19357	keystroke	Key.space	n/a
9.7685	0.075	19537	keystroke	a	n/a
10.5925	0.076	21185	keystroke	Key.backspace	n/a
11.2685	0.09	22537	keystroke	l	n/a
11.3435	0.075	22687	keystroke	a	n/a
11.5085	0.089	23017	keystroke	z	n/a
11.6285	0.089	23257	keystroke	y	n/a
11.8525	0.09	23705	keystroke	Key.space	n/a
11.9725	0.151	23945	keystroke	d	n/a
12.0625	0.121	24125	keystroke	o	n/a
12.2275	0.105	24455	keystroke	g	n/a
12.3925	0.09	24785	keystroke	Key.enter	n/a
12.4935	6.0815	24987	prompt	n/a	joint inquiries centres crazy\n
13.2775	0.09	26555	keystroke	j	n/a
13.4125	0.12	26825	keystroke	o	n/a
13.5925	0.15	27185	keystroke	i	n/a
13.6975	0.136	27395	keystroke	n	n/a
13.8475	0.09	27695	keystroke	t	n/a
13.9675	0.12	27935	keystroke	Key.space	n/a
14.1775	0.165	28355	keystroke	i	n/a
14.2835	0.12	28567	keystroke	n	n/a
14.5225	0.12	29045	keystroke	q	n/a
14.6575	0.076	29315	keystroke	u	n/a
14.8075	0.06	29615	keystroke	i	n/a
14.8525	0.091	29705	keystroke	r	n/a
14.9275	0.105	29855	keystroke	i	n/a
15.0775	0.106	30155	keystroke	e	n/a
15.3175	0.12	30635	keystroke	s	n/a
15.4525	0.1055	30905	keystroke	Key.space	n/a
15.543	0.09	31086	keystroke	c	n/a
15.723	0.1345	31446	keystroke	e	n/a
15.7975	0.09	31595	keystroke	n	n/a
15.948	0.105	31896	keystroke	t	n/a
16.173	0.135	32346	keystroke	r	n/a
16.293	0.06	32586	keystroke	e	n/a
16.473	0.135	32946	keystroke	s	n/a
16.623	0.09	33246	keystroke	Key.space	n/a
16.713	0.12	33426	keystroke	c	n/a
17.013	0.015	34026	keystroke	r	n/a
17.223	0.075	34446	keystroke	a	n/a
17.388	0.09	34776	keystroke	z	n/a
17.493	0.075	34986	keystroke	y	n/a
18.4975	0.075	36995	keystroke	Key.enter	n/a
18.5815	5.438	37163	prompt	n/a	bobby growth croatia table\n
19.293	0.09	38586	keystroke	b	n/a
19.758	0.105	39516	keystroke	o	n/a
19.998	0.059	39996	keystroke	b	n/a
20.133	0.059	40266	keystroke	b	n/a
20.313	0.105	40626	keystroke	y	n/a
20.538	0.105	41076	keystroke	Key.space	n/a
20.6575	0.075	41315	keystroke	g	n/a
20.7785	0.059	41557	keystroke	r	n/a
20.8225	0.0905	41645	keystroke	o	n/a
20.988	0.104	41976	keystroke	w	n/a
21.182	0.0765	42364	keystroke	t	n/a
21.272	0.0905	42544	keystroke	h	n/a
21.4825	0.075	42965	keystroke	Key.space	n/a
21.633	0.09	43266	keystroke	c	n/a
21.842	0.0755	43684	keystroke	r	n/a
21.9335	0.089	43867	keystroke	o	n/a
22.1285	0.104	44257	keystroke	a	n/a
22.4435	0.09	44887	keystroke	t	n/a
22.5475	0.091	45095	keystroke	i	n/a
22.908	0.1505	45816	keystroke	a	n/a
23.0585	0.089	46117	keystroke	Key.space	n/a
23.2235	0.089	46447	keystroke	t	n/a
23.4025	0.105	46805	keystroke	a	n/a
23.4785	0.074	46957	keystroke	b	n/a
23.6585	0.105	47317	keystroke	l	n/a
23.7785	0.104	47557	keystroke	e	n/a
23.913	0.1045	47826	keystroke	Key.enter	n/a
24.0245	5.0825	48049	prompt	n/a	heard focused destroyed unique\n
24.6935	0.089	49387	keystroke	h	n/a
24.7835	0.074	49567	keystroke	e	n/a
24.9625	0.105	49925	keystroke	a	n/a
25.1425	0.06	50285	keystroke	r	n/a
25.3375	0.06	50675	keystroke	d	n/a
25.4875	0.09	50975	keystroke	Key.space	n/a
25.6225	0.06	51245	keystroke	f	n/a
25.6975	0.105	51395	keystroke	o	n/a
25.8325	0.075	51665	keystroke	c	n/a
25.9375	0.075	51875	keystroke	u	n/a
25.9975	0.09	51995	keystroke	s	n/a
26.2075	0.06	52415	keystroke	e	n/a
26.3875	0.03	52775	keystroke	d	n/a
26.4625	0.075	52925	keystroke	Key.space	n/a
26.5525	0.105	53105	keystroke	d	n/a
26.6875	0.06	53375	keystroke	e	n/a
26.8375	0.09	53675	keystroke	s	n/a
27.0775	0.105	54155	keystroke	t	n/a
27.1675	0.09	54335	keystroke	r	n/a
27.2275	0.105	54455	keystroke	o	n/a
27.3175	0.06	54635	keystroke	y	n/a
27.4375	0.09	54875	keystroke	e	n/a
27.7375	0.09	55475	keystroke	d	n/a
27.9025	0.105	55805	keystroke	Key.space	n/a
28.2325	0.135	56465	keystroke	u	n/a
28.4275	0.06	56855	keystroke	n	n/a
28.5025	0.105	57005	keystroke	i	n/a
28.6225	0.075	57245	keystroke	q	n/a
28.7275	0.075	57455	keystroke	u	n/a
28.8325	0.09	57665	keystroke	e	n/a
29.0125	0.09	58025	keystroke	Key.enter	n/a
29.1125	6.233	58225	prompt	n/a	cabinets repository mark camcorders\n
29.7775	0.06	59555	keystroke	c	n/a
29.8825	0.09	59765	keystroke	a	n/a
30.0175	0.075	60035	keystroke	b	n/a
30.1525	0.18	60305	keystroke	i	n/a
30.2575	0.135	60515	keystroke	n	n/a
30.3475	0.09	60695	keystroke	e	n/a
30.4825	0.09	60965	keystroke	t	n/a
30.6625	0.105	61325	keystroke	s	n/a
30.7825	0.105	61565	keystroke	Key.space	n/a
30.9475	0.135	61895	keystroke	r	n/a
31.0375	0.1065	62075	keystroke	e	n/a
31.1575	0.075	62315	keystroke	p	n/a
31.3075	0.105	62615	keystroke	o	n/a
31.3675	0.09	62735	keystroke	s	n/a
31.4725	0.105	62945	keystroke	i	n/a
31.6225	0.09	63245	keystroke	t	n/a
31.7725	0.105	63545	keystroke	o	n/a
31.8925	0.06	63785	keystroke	r	n/a
32.4325	0.105	64865	keystroke	y	n/a
32.6725	0.09	65345	keystroke	Key.space	n/a
32.8825	0.105	65765	keystroke	m	n/a
33.2575	0.105	66515	keystroke	a	n/a
33.4075	0.09	66815	keystroke	r	n/a
33.5125	0.075	67025	keystroke	k	n/a
33.6775	0.105	67355	keystroke	Key.space	n/a
33.7675	0.06	67535	keystroke	c	n/a
33.8575	0.105	67715	keystroke	a	n/a
33.9925	0.09	67985	keystroke	m	n/a
34.0525	0.09	68105	keystroke	c	n/a
34.1725	0.075	68345	keystroke	o	n/a
34.2775	0.075	68555	keystroke	r	n/a
34.4725	0.06	68945	keystroke	d	n/a
34.6375	0.075	69275	keystroke	e	n/a
34.7875	0.075	69575	keystroke	r	n/a
34.9825	0.075	69965	keystroke	s	n/a
35.2675	0.075	70535	keystroke	Key.enter	n/a
35.351	7.434	70702	prompt	n/a	obvious jurisdiction throwing modern\n
36.0925	0.09	72185	keystroke	o	n/a
36.1675	0.075	72335	keystroke	b	n/a
36.3475	0.09	72695	keystroke	v	n/a
36.4225	0.075	72845	keystroke	i	n/a
36.5575	0.09	73115	keystroke	o	n/a
36.7375	0.105	73475	keystroke	u	n/a
36.8725	0.09	73745	keystroke	s	n/a
37.0225	0.075	74045	keystroke	Key.space	n/a
37.2025	0.105	74405	keystroke	j	n/a
37.3825	0.09	74765	keystroke	u	n/a
37.5475	0.06	75095	keystroke	i	n/a
37.9075	0.075	75815	keystroke	Key.backspace	n/a
38.0275	0.075	76055	keystroke	r	n/a
38.3575	0.075	76715	keystroke	i	n/a
38.4475	0.105	76895	keystroke	d	n/a
39.2575	0.075	78515	keystroke	Key.backspace	n/a
39.3485	0.089	78697	keystroke	s	n/a
39.6625	0.09	79325	keystroke	d	n/a
39.7975	0.09	79595	keystroke	i	n/a
39.9025	0.09	79805	keystroke	c	n/a
40.1125	0.075	80225	keystroke	t	n/a
40.2025	0.06	80405	keystroke	i	n/a
40.3375	0.135	80675	keystroke	o	n/a
40.4275	0.105	80855	keystroke	n	n/a
40.6075	0.12	81215	keystroke	Key.space	n/a
40.7135	0.089	81427	keystroke	t	n/a
40.8175	0.075	81635	keystroke	h	n/a
40.9075	0.06	81815	keystroke	r	n/a
41.0275	0.09	82055	keystroke	o	n/a
41.1325	0.09	82265	keystroke	w	n/a
41.2825	0.18	82565	keystroke	i	n/a
41.4175	0.105	82835	keystroke	n	n/a
41.5375	0.075	83075	keystroke	g	n/a
41.6725	0.105	83345	keystroke	Key.space	n/a
41.9125	0.09	83825	keystroke	m	n/a
42.0325	0.09	84065	keystroke	o	n/a
42.1375	0.09	84275	keystroke	d	n/a
42.2725	0.09	84545	keystroke	e	n/a
42.4375	0.06	84875	keystroke	r	n/a
42.5125	0.06	85025	keystroke	n	n/a
42.7225	0.06	85445	keystroke	Key.enter	n/a
42.7895	11.336	85579	prompt	n/a	georgia operators effectiveness pharmacy\n
44.0725	0.075	88145	keystroke	g	n/a
44.1925	0.105	88385	keystroke	e	n/a
44.5525	0.105	89105	keystroke	o	n/a
45.0775	0.06	90155	keystroke	r	n/a
45.2435	0.104	90487	keystroke	g	n/a
45.3325	0.09	90665	keystroke	i	n/a
45.5425	0.09	91085	keystroke	a	n/a
45.6475	0.09	91295	keystroke	Key.space	n/a
45.8425	0.075	91685	keystroke	o	n/a
45.9775	0.075	91955	keystroke	p	n/a
46.0375	0.12	92075	keystroke	e	n/a
46.1725	0.075	92345	keystroke	r	n/a
46.3075	0.045	92615	keystroke	a	n/a
47.0725	0.06	94145	keystroke	t	n/a
47.1775	0.135	94355	keystroke	o	n/a
47.3575	0.075	94715	keystroke	r	n/a
47.6425	0.075	95285	keystroke	Key.space	n/a
48.0175	0.075	96035	keystroke	Key.backspace	n/a
48.1225	0.09	96245	keystroke	s	n/a
48.3025	0.12	96605	keystroke	Key.space	n/a
48.4375	0.075	96875	keystroke	e	n/a
48.6475	0.075	97295	keystroke	f	n/a
48.7525	0.075	97505	keystroke	f	n/a
49.1425	0.091	98285	keystroke	e	n/a
49.3375	0.165	98675	keystroke	c	n/a
49.6675	0.03	99335	keystroke	t	n/a
49.7125	0.0755	99425	keystroke	i	n/a
49.848	0.12	99696	keystroke	v	n/a
49.998	0.09	99996	keystroke	e	n/a
50.133	0.105	100266	keystroke	n	n/a
50.253	0.075	100506	keystroke	e	n/a
50.448	0.06	100896	keystroke	s	n/a
50.568	0.09	101136	keystroke	s	n/a
50.958	0.09	101916	keystroke	Key.space	n/a
51.198	0.105	102396	keystroke	p	n/a
51.423	0.09	102846	keystroke	h	n/a
51.483	0.075	102966	keystroke	a	n/a
51.678	0.075	103356	keystroke	r	n/a
51.873	0.075	103746	keystroke	a	n/a
51.993	0.06	103986	keystroke	m	n/a
52.293	0.045	104586	keystroke	Key.backspace	n/a
52.818	0.09	105636	keystroke	Key.backspace	n/a
53.208	0.06	106416	keystroke	m	n/a
53.283	0.03	106566	keystroke	m	n/a
53.328	0.105	106656	keystroke	a	n/a
53.523	0.06	107046	keystroke	c	n/a
53.598	0.06	107196	keystroke	y	n/a
54.033	0.09	108066	keystroke	Key.enter	n/a
54.1335	7.7765	108267	prompt	n/a	notify cherry mention alabama\n
54.903	0.075	109806	keystroke	n	n/a
55.053	0.105	110106	keystroke	o	n/a
55.143	0.075	110286	keystroke	t	n/a
55.248	0.09	110496	keystroke	i	n/a
55.383	0.09	110766	keystroke	f	n/a
55.548	0.12	111096	keystroke	y	n/a
55.803	0.09	111606	keystroke	Key.space	n/a
55.953	0.09	111906	keystroke	c	n/a
56.044	0.089	112088	keystroke	h	n/a
56.163	0.075	112326	keystroke	e	n/a
56.373	0.03	112746	keystroke	r	n/a
56.478	0.06	112956	keystroke	r	n/a
56.583	0.06	113166	keystroke	y	n/a
56.808	0.075	113616	keystroke	Key.space	n/a
57.123	0.045	114246	keystroke	e	n/a
57.333	0.105	114666	keystroke	n	n/a
57.528	0.09	115056	keystroke	t	n/a
57.633	0.105	115266	keystroke	i	n/a
57.858	0.135	115716	keystroke	o	n/a
58.158	0.075	116316	keystroke	Key.backspace	n/a
58.308	0.06	116616	keystroke	Key.backspace	n/a
58.443	0.075	116886	keystroke	Key.backspace	n/a
58.563	0.075	117126	keystroke	Key.backspace	n/a
58.698	0.075	117396	keystroke	Key.backspace	n/a
59.073	0.075	118146	keystroke	m	n/a
59.163	0.075	118326	keystroke	e	n/a
59.239	0.089	118478	keystroke	n	n/a
59.388	0.075	118776	keystroke	t	n/a
59.433	0.09	118866	keystroke	i	n/a
59.613	0.18	119226	keystroke	o	n/a
59.733	0.105	119466	keystroke	n	n/a
60.198	0.105	120396	keystroke	Key.space	n/a
60.378	0.06	120756	keystroke	a	n/a
60.663	0.09	121326	keystroke	l	n/a
60.798	0.06	121596	keystroke	a	n/a
61.233	0.06	122466	keystroke	b	n/a
61.428	0.075	122856	keystroke	a	n/a
61.518	0.09	123036	keystroke	m	n/a
61.563	0.09	123126	keystroke	a	n/a
61.788	0.12	123576	keystroke	Key.enter	n/a
61.915	4.45	123830	prompt	n/a	stat steal albums lakes\n
62.553	0.105	125106	keystroke	s	n/a
62.733	0.06	125466	keystroke	t	n/a
62.898	0.105	125796	keystroke	a	n/a
63.138	0.075	126276	keystroke	t	n/a
63.348	0.09	126696	keystroke	Key.space	n/a
63.453	0.06	126906	keystroke	s	n/a
63.633	0.12	127266	keystroke	t	n/a
63.738	0.09	127476	keystroke	e	n/a
63.948	0.075	127896	keystroke	a	n/a
64.008	0.12	128016	keystroke	l	n/a
64.233	0.075	128466	keystroke	Key.space	n/a
64.353	0.09	128706	keystroke	a	n/a
64.503	0.075	129006	keystroke	l	n/a
64.788	0.09	129576	keystroke	b	n/a
64.908	0.105	129816	keystroke	u	n/a
65.133	0.105	130266	keystroke	m	n/a
65.253	0.105	130506	keystroke	s	n/a
65.373	0.09	130746	keystroke	Key.space	n/a
65.553	0.075	131106	keystroke	l	n/a
65.673	0.075	131346	keystroke	a	n/a
65.778	0.09	131556	keystroke	k	n/a
65.928	0.09	131856	keystroke	e	n/a
66.123	0.075	132246	keystroke	s	n/a
66.273	0.09	132546	keystroke	Key.enter	n/a
66.3695	4.5255	132739	prompt	n/a	wife drain just democratic\n
66.993	0.12	133986	keystroke	w	n/a
67.098	0.105	134196	keystroke	i	n/a
67.218	0.12	134436	keystroke	f	n/a
67.368	0.105	134736	keystroke	e	n/a
67.533	0.09	135066	keystroke	Key.space	n/a
67.653	0.075	135306	keystroke	d	n/a
67.833	0.075	135666	keystroke	r	n/a
68.043	0.075	136086	keystroke	a	n/a
68.088	0.12	136176	keystroke	i	n/a
68.178	0.105	136356	keystroke	n	n/a
68.418	0.105	136836	keystroke	Key.space	n/a
68.568	0.09	137136	keystroke	j	n/a
68.808	0.03	137616	keystroke	u	n/a
68.823	0.06	137646	keystroke	s	n/a
68.973	0.075	137946	keystroke	t	n/a
69.138	0.09	138276	keystroke	Key.space	n/a
69.258	0.105	138516	keystroke	d	n/a
69.393	0.105	138786	keystroke	e	n/a
69.468	0.105	138936	keystroke	m	n/a
69.603	0.105	139206	keystroke	o	n/a
69.693	0.09	139386	keystroke	c	n/a
69.843	0.105	139686	keystroke	r	n/a
70.098	0.105	140196	keystroke	a	n/a
70.308	0.075	140616	keystroke	t	n/a
70.398	0.09	140796	keystroke	i	n/a
70.563	0.12	141126	keystroke	c	n/a
70.788	0.105	141576	keystroke	Key.enter	n/a
70.9	5.905	141800	prompt	n/a	cathedral fetish cyprus portion\n
71.508	0.075	143016	keystroke	c	n/a
71.628	0.105	143256	keystroke	a	n/a
71.838	0.075	143676	keystroke	t	n/a
71.928	0.105	143856	keystroke	h	n/a
72.003	0.105	144006	keystroke	e	n/a
72.228	0.105	144456	keystroke	d	n/a
72.438	0.075	144876	keystroke	r	n/a
72.633	0.075	145266	keystroke	a	n/a
72.723	0.12	145446	keystroke	l	n/a
72.903	0.12	145806	keystroke	Key.space	n/a
73.038	0.12	146076	keystroke	f	n/a
73.203	0.105	146406	keystroke	e	n/a
73.503	0.075	147006	keystroke	t	n/a
73.608	0.09	147216	keystroke	i	n/a
73.743	0.09	147486	keystroke	s	n/a
73.848	0.09	147696	keystroke	h	n/a
74.043	0.105	148086	keystroke	Key.space	n/a
74.298	0.075	148596	keystroke	c	n/a
74.418	0.09	148836	keystroke	y	n/a
74.688	0.12	149376	keystroke	p	n/a
74.853	0.09	149706	keystroke	r	n/a
75.033	0.075	150066	keystroke	u	n/a
75.153	0.09	150306	keystroke	s	n/a
75.288	0.105	150576	keystroke	Key.space	n/a
75.603	0.075	151206	keystroke	p	n/a
75.783	0.09	151566	keystroke	o	n/a
75.888	0.075	151776	keystroke	r	n/a
76.038	0.09	152076	keystroke	t	n/a
76.113	0.105	152226	keystroke	i	n/a
76.263	0.18	152526	keystroke	o	n/a
76.383	0.12	152766	keystroke	n	n/a
76.653	0.15	153306	keystroke	Key.enter	n/a
76.81	5.74	153620	prompt	n/a	collections existence asked currently\n
77.463	0.075	154926	keystroke	c	n/a
77.583	0.12	155166	keystroke	o	n/a
77.808	0.045	155616	keystroke	l	n/a
77.913	0.09	155826	keystroke	l	n/a
77.988	0.075	155976	keystroke	e	n/a
78.168	0.135	156336	keystroke	c	n/a
78.408	0.105	156816	keystroke	t	n/a
78.498	0.045	156996	keystroke	i	n/a
78.633	0.15	157266	keystroke	o	n/a
78.753	0.105	157506	keystroke	n	n/a
78.873	0.075	157746	keystroke	s	n/a
78.963	0.09	157926	keystroke	Key.space	n/a
79.068	0.075	158136	keystroke	e	n/a
79.338	0.06	158676	keystroke	x	n/a
79.428	0.09	158856	keystroke	i	n/a
79.503	0.105	159006	keystroke	s	n/a
79.728	0.075	159456	keystroke	t	n/a
79.804	0.119	159608	keystroke	e	n/a
79.953	0.075	159906	keystroke	n	n/a
80.103	0.135	160206	keystroke	c	n/a
80.253	0.09	160506	keystroke	e	n/a
80.388	0.105	160776	keystroke	Key.space	n/a
80.523	0.09	161046	keystroke	a	n/a
80.718	0.045	161436	keystroke	s	n/a
80.778	0.09	161556	keystroke	k	n/a
80.883	0.075	161766	keystroke	e	n/a
81.078	0.06	162156	keystroke	d	n/a
81.153	0.105	162306	keystroke	Key.space	n/a
81.273	0.09	162546	keystroke	c	n/a
81.378	0.075	162756	keystroke	u	n/a
81.528	0.06	163056	keystroke	r	n/a
81.648	0.045	163296	keystroke	r	n/a
81.798	0.075	163596	keystroke	e	n/a
81.858	0.105	163716	keystroke	n	n/a
81.978	0.105	163956	keystroke	t	n/a
82.068	0.105	164136	keystroke	l	n/a
82.158	0.075	164316	keystroke	y	n/a
82.458	0.09	164916	keystroke	Key.enter	n/a
82.554	6.1615	165108	prompt	n/a	advisors halifax farms julian\n
83.193	0.12	166386	keystroke	a	n/a
83.358	0.09	166716	keystroke	d	n/a
83.583	0.06	167166	keystroke	v	n/a
83.658	0.075	167316	keystroke	i	n/a
83.733	0.105	167466	keystroke	s	n/a
83.853	0.045	167706	keystroke	o	n/a
84.018	0.075	168036	keystroke	r	n/a
84.228	0.06	168456	keystroke	s	n/a
84.408	0.075	168816	keystroke	Key.space	n/a
84.843	0.06	169686	keystroke	h	n/a
85.038	0.09	170076	keystroke	a	n/a
85.143	0.135	170286	keystroke	l	n/a
85.413	0.075	170826	keystroke	i	n/a
85.548	0.06	171096	keystroke	f	n/a
85.668	0.105	171336	keystroke	a	n/a
86.223	0.075	172446	keystroke	x	n/a
86.358	0.09	172716	keystroke	Key.space	n/a
86.568	0.06	173136	keystroke	f	n/a
86.703	0.09	173406	keystroke	a	n/a
86.883	0.075	173766	keystroke	r	n/a
86.973	0.09	173946	keystroke	m	n/a
87.093	0.105	174186	keystroke	s	n/a
87.213	0.12	174426	keystroke	Key.space	n/a
87.483	0.09	174966	keystroke	j	n/a
87.753	0.015	175506	keystroke	u	n/a
87.918	0.105	175836	keystroke	l	n/a
88.128	0.1055	176256	keystroke	i	n/a
88.2035	0.1045	176407	keystroke	a	n/a
88.338	0.105	176676	keystroke	n	n/a
88.623	0.09	177246	keystroke	Key.enter	n/a
88.721	12.879	177442	prompt	n/a	assumption restaurant productive develop\n
89.328	0.075	178656	keystroke	a	n/a
89.583	0.06	179166	keystroke	s	n/a
89.703	0.0755	179406	keystroke	s	n/a
89.793	0.0905	179586	keystroke	u	n/a
90.018	0.09	180036	keystroke	m	n/a
90.183	0.09	180366	keystroke	p	n/a
90.303	0.09	180606	keystroke	t	n/a
90.4085	0.1045	180817	keystroke	i	n/a
90.618	0.12	181236	keystroke	o	n/a
90.708	0.105	181416	keystroke	n	n/a
90.888	0.09	181776	keystroke	Key.space	n/a
91.0085	0.1345	182017	keystroke	r	n/a
91.083	0.075	182166	keystroke	e	n/a
91.2335	0.1195	182467	keystroke	s	n/a
91.473	0.075	182946	keystroke	t	n/a
91.668	0.075	183336	keystroke	a	n/a
91.863	0.0905	183726	keystroke	u	n/a
92.0585	0.1045	184117	keystroke	n	n/a
92.1485	0.075	184297	keystroke	r	n/a
92.313	0.0905	184626	keystroke	a	n/a
92.4635	0.09	184927	keystroke	n	n/a
92.5685	0.075	185137	keystroke	t	n/a
92.688	0.09	185376	keystroke	Key.space	n/a
92.928	0.0905	185856	keystroke	p	n/a
93.063	0.06	186126	keystroke	r	n/a
93.138	0.105	186276	keystroke	o	n/a
93.288	0.0455	186576	keystroke	d	n/a
93.363	0.0905	186726	keystroke	u	n/a
93.5285	0.0445	187057	keystroke	c	n/a
93.588	0.075	187176	keystroke	c	n/a
94.0385	0.075	188077	keystroke	t	n/a
94.1285	0.09	188257	keystroke	i	n/a
94.3385	0.105	188677	keystroke	v	n/a
94.638	0.06	189276	keystroke	Key.backspace	n/a
95.703	0.061	191406	keystroke	Key.backspace	n/a
95.884	0.044	191768	keystroke	Key.backspace	n/a
96.018	0.06	192036	keystroke	Key.backspace	n/a
96.198	0.06	192396	keystroke	Key.backspace	n/a
96.678	0.076	193356	keystroke	Key.backspace	n/a
97.9685	0.075	195937	keystroke	u	n/a
98.1335	0.0895	196267	keystroke	r	n/a
98.3735	0.104	196747	keystroke	a	n/a
98.4935	0.09	196987	keystroke	n	n/a
98.6725	0.076	197345	keystroke	t	n/a
98.8525	0.06	197705	keystroke	Key.space	n/a
99.0485	0.09	198097	keystroke	p	n/a
99.1685	0.06	198337	keystroke	r	n/a
99.2435	0.09	198487	keystroke	o	n/a
99.3785	0.075	198757	keystroke	d	n/a
99.4985	0.06	198997	keystroke	u	n/a
99.5735	0.105	199147	keystroke	c	n/a
99.7985	0.089	199597	keystroke	t	n/a
99.8735	0.09	199747	keystroke	i	n/a
99.9935	0.105	199987	keystroke	v	n/a
100.1435	0.09	200287	keystroke	e	n/a
100.2635	0.089	200527	keystroke	Key.space	n/a
100.4285	0.09	200857	keystroke	d	n/a
100.5335	0.09	201067	keystroke	e	n/a
100.6985	0.09	201397	keystroke	v	n/a
100.7735	0.089	201547	keystroke	e	n/a
100.8785	0.075	201757	keystroke	l	n/a
101.0735	0.09	202147	keystroke	o	n/a
101.2675	0.076	202535	keystroke	p	n/a
101.5085	0.089	203017	keystroke	Key.enter	n/a
101.605	6.7155	203210	prompt	n/a	perfect attractive ultram situated\n
102.3025	0.076	204605	keystroke	p	n/a
102.3635	0.075	204727	keystroke	e	n/a
102.5135	0.074	205027	keystroke	r	n/a
102.7375	0.15	205475	keystroke	f	n/a
102.9175	0.12	205835	keystroke	e	n/a
103.1275	0.105	206255	keystroke	c	n/a
103.3385	0.074	206677	keystroke	t	n/a
103.4575	0.105	206915	keystroke	Key.space	n/a
103.5925	0.105	207185	keystroke	a	n/a
103.8475	0.061	207695	keystroke	t	n/a
103.9675	0.075	207935	keystroke	t	n/a
104.0885	0.074	208177	keystroke	r	n/a
104.3125	0.076	208625	keystroke	a	n/a
104.5375	0.075	209075	keystroke	c	n/a
104.7625	0.09	209525	keystroke	t	n/a
104.8675	0.075	209735	keystroke	i	n/a
105.0035	0.105	210007	keystroke	v	n/a
105.1675	0.12	210335	keystroke	e	n/a
105.3775	0.09	210755	keystroke	Key.space	n/a
105.6785	0.105	211357	keystroke	u	n/a
105.9025	0.09	211805	keystroke	l	n/a
106.0225	0.061	212045	keystroke	t	n/a
106.1875	0.061	212375	keystroke	r	n/a
106.4275	0.091	212855	keystroke	a	n/a
106.5325	0.09	213065	keystroke	m	n/a
106.7425	0.075	213485	keystroke	Key.space	n/a
106.8625	0.106	213725	keystroke	s	n/a
107.0885	0.089	214177	keystroke	i	n/a
107.2375	0.076	214475	keystroke	t	n/a
107.3585	0.074	214717	keystroke	u	n/a
107.4625	0.12	214925	keystroke	a	n/a
107.7475	0.12	215495	keystroke	t	n/a
107.8375	0.076	215675	keystroke	e	n/a
108.0185	0.09	216037	keystroke	d	n/a
108.2425	0.075	216485	keystroke	Key.enter	n/a
108.326	4.255	216652	prompt	n/a	dayton buck intake make\n
108.9635	0.074	217927	keystroke	d	n/a
109.1285	0.089	218257	keystroke	a	n/a
109.2325	0.091	218465	keystroke	y	n/a
109.6835	0.104	219367	keystroke	t	n/a
109.7735	0.18	219547	keystroke	o	n/a
109.9085	0.104	219817	keystroke	n	n/a
110.0875	0.075	220175	keystroke	Key.space	n/a
110.2385	0.105	220477	keystroke	b	n/a
110.4025	0.091	220805	keystroke	u	n/a
110.5225	0.09	221045	keystroke	c	n/a
110.6585	0.089	221317	keystroke	k	n/a
110.8375	0.09	221675	keystroke	Key.space	n/a
111.0335	0.134	222067	keystroke	i	n/a
111.1375	0.105	222275	keystroke	n	n/a
111.2725	0.075	222545	keystroke	t	n/a
111.4975	0.106	222995	keystroke	a	n/a
111.5875	0.105	223175	keystroke	k	n/a
111.7085	0.119	223417	keystroke	e	n/a
111.8285	0.074	223657	keystroke	Key.space	n/a
112.0075	0.075	224015	keystroke	m	n/a
112.0975	0.075	224195	keystroke	a	n/a
112.1875	0.075	224375	keystroke	k	n/a
112.3075	0.105	224615	keystroke	e	n/a
112.5025	0.075	225005	keystroke	Key.enter	n/a
112.5865	8.3635	225173	prompt	n/a	jewelry parents therapeutic measurement\n
113.4335	0.09	226867	keystroke	j	n/a
113.5535	0.074	227107	keystroke	e	n/a
113.7485	0.059	227497	keystroke	w	n/a
115.4125	0.06	230825	keystroke	e	n/a
115.8175	0.091	231635	keystroke	l	n/a
116.0725	0.091	232145	keystroke	r	n/a
116.1775	0.105	232355	keystroke	y	n/a
116.4325	0.076	232865	keystroke	Key.space	n/a
116.6125	0.09	233225	keystroke	p	n/a
116.6885	0.09	233377	keystroke	a	n/a
116.8535	0.089	233707	keystroke	r	n/a
116.9135	0.089	233827	keystroke	e	n/a
117.0175	0.075	234035	keystroke	n	n/a
117.0635	0.089	234127	keystroke	t	n/a
117.2275	0.121	234455	keystroke	s	n/a
117.3925	0.09	234785	keystroke	Key.space	n/a
117.5425	0.061	235085	keystroke	t	n/a
117.6035	0.105	235207	keystroke	h	n/a
117.6485	0.104	235297	keystroke	e	n/a
117.8285	0.12	235657	keystroke	r	n/a
118.1735	0.09	236347	keystroke	a	n/a
118.3225	0.091	236645	keystroke	p	n/a
118.6085	0.09	237217	keystroke	e	n/a
118.7875	0.09	237575	keystroke	u	n/a
118.9525	0.105	237905	keystroke	t	n/a
119.1025	0.106	238205	keystroke	i	n/a
119.3135	0.104	238627	keystroke	c	n/a
119.4775	0.075	238955	keystroke	Key.space	n/a
119.6575	0.076	239315	keystroke	m	n/a
119.7175	0.061	239435	keystroke	e	n/a
119.8825	0.06	239765	keystroke	a	n/a
120.0335	0.074	240067	keystroke	s	n/a
120.0925	0.075	240185	keystroke	u	n/a
120.2135	0.12	240427	keystroke	r	n/a
120.2885	0.104	240577	keystroke	e	n/a
120.4085	0.075	240817	keystroke	m	n/a
120.4675	0.121	240935	keystroke	e	n/a
120.5585	0.089	241117	keystroke	n	n/a
120.6785	0.075	241357	keystroke	t	n/a
120.8585	0.089	241717	keystroke	Key.enter	n/a
120.9545	5.0205	241909	prompt	n/a	grill porter mouse apply\n
121.9525	0.076	243905	keystroke	g	n/a
122.0585	0.105	244117	keystroke	r	n/a
122.1475	0.091	244295	keystroke	i	n/a
122.3725	0.046	244745	keystroke	l	n/a
122.4935	0.075	244987	keystroke	l	n/a
122.6425	0.121	245285	keystroke	Key.space	n/a
122.8975	0.061	245795	keystroke	p	n/a
123.0335	0.075	246067	keystroke	o	n/a
123.1385	0.045	246277	keystroke	r	n/a
123.3025	0.076	246605	keystroke	t	n/a
123.4975	0.06	246995	keystroke	e	n/a
123.6475	0.061	247295	keystroke	r	n/a
123.7375	0.06	247475	keystroke	Key.space	n/a
123.9175	0.091	247835	keystroke	m	n/a
124.0535	0.089	248107	keystroke	o	n/a
124.2485	0.074	248497	keystroke	u	n/a
124.3385	0.075	248677	keystroke	s	n/a
124.5325	0.075	249065	keystroke	e	n/a
124.6525	0.09	249305	keystroke	Key.space	n/a
125.0585	0.105	250117	keystroke	a	n/a
125.2235	0.044	250447	keystroke	p	n/a
125.3435	0.15	250687	keystroke	p	n/a
125.4785	0.089	250957	keystroke	l	n/a
125.5975	0.105	251195	keystroke	y	n/a
125.8975	0.075	251795	keystroke	Key.enter	n/a
125.9825	6.398	251965	prompt	n/a	venezuela musician centuries acute\n
126.7085	0.105	253417	keystroke	v	n/a
126.9335	0.075	253867	keystroke	e	n/a
127.0535	0.09	254107	keystroke	n	n/a
127.1435	0.09	254287	keystroke	e	n/a
127.5925	0.091	255185	keystroke	x	n/a
127.7125	0.105	255425	keystroke	u	n/a
127.9535	0.12	255907	keystroke	e	n/a
128.0885	0.089	256177	keystroke	l	n/a
128.2975	0.075	256595	keystroke	a	n/a
128.5225	0.075	257045	keystroke	Key.space	n/a
128.733	0.135	257466	keystroke	m	n/a
128.943	0.09	257886	keystroke	u	n/a
129.048	0.06	258096	keystroke	s	n/a
129.153	0.06	258306	keystroke	i	n/a
129.228	0.06	258456	keystroke	c	n/a
129.303	0.075	258606	keystroke	i	n/a
129.393	0.09	258786	keystroke	a	n/a
129.558	0.09	259116	keystroke	n	n/a
129.948	0.075	259896	keystroke	Key.space	n/a
130.068	0.105	260136	keystroke	c	n/a
130.218	0.09	260436	keystroke	e	n/a
130.278	0.105	260556	keystroke	n	n/a
130.3985	0.1045	260797	keystroke	t	n/a
130.533	0.06	261066	keystroke	u	n/a
130.548	0.075	261096	keystroke	r	n/a
130.713	0.06	261426	keystroke	i	n/a
130.758	0.06	261516	keystroke	e	n/a
130.968	0.075	261936	keystroke	s	n/a
131.088	0.105	262176	keystroke	Key.space	n/a
131.238	0.105	262476	keystroke	a	n/a
131.448	0.09	262896	keystroke	c	n/a
131.793	0.09	263586	keystroke	u	n/a
131.928	0.105	263856	keystroke	t	n/a
132.034	0.104	264068	keystroke	e	n/a
132.288	0.09	264576	keystroke	Key.enter	n/a
132.385	6.145	264770	prompt	n/a	spirit panel tear nobody\n
133.038	0.075	266076	keystroke	s	n/a
133.158	0.09	266316	keystroke	p	n/a
133.368	0.075	266736	keystroke	i	n/a
133.428	0.09	266856	keystroke	r	n/a
133.519	0.059	267038	keystroke	i	n/a
133.743	0.06	267486	keystroke	t	n/a
133.923	0.105	267846	keystroke	Key.space	n/a
134.178	0.12	268356	keystroke	p	n/a
134.328	0.12	268656	keystroke	a	n/a
134.463	0.075	268926	keystroke	n	n/a
134.628	0.075	269256	keystroke	e	n/a
134.763	0.075	269526	keystroke	l	n/a
134.988	0.075	269976	keystroke	Key.space	n/a
135.168	0.135	270336	keystroke	t	n/a
135.273	0.075	270546	keystroke	e	n/a
135.468	0.12	270936	keystroke	a	n/a
135.663	0.09	271326	keystroke	r	n/a
135.738	0.09	271476	keystroke	Key.space	n/a
135.933	0.09	271866	keystroke	n	n/a
136.113	0.135	272226	keystroke	o	n/a
136.263	0.03	272526	keystroke	n	n/a
136.338	0.105	272676	keystroke	o	n/a
137.208	0.075	274416	keystroke	Key.backspace	n/a
137.343	0.075	274686	keystroke	Key.backspace	n/a
137.793	0.06	275586	keystroke	b	n/a
137.868	0.09	275736	keystroke	o	n/a
138.003	0.09	276006	keystroke	d	n/a
138.138	0.075	276276	keystroke	y	n/a
138.438	0.09	276876	keystroke	Key.enter	n/a
138.534	5.847	277068	prompt	n/a	dale computed refinance outlet\n
139.308	0.075	278616	keystroke	d	n/a
139.473	0.105	278946	keystroke	a	n/a
139.623	0.09	279246	keystroke	l	n/a
139.758	0.12	279516	keystroke	e	n/a
139.908	0.105	279816	keystroke	Key.space	n/a
140.118	0.075	280236	keystroke	c	n/a
140.163	0.15	280326	keystroke	o	n/a
140.328	0.075	280656	keystroke	m	n/a
140.478	0.09	280956	keystroke	p	n/a
140.688	0.09	281376	keystroke	u	n/a
140.823	0.12	281646	keystroke	t	n/a
140.988	0.075	281976	keystroke	e	n/a
141.198	0.075	282396	keystroke	d	n/a
141.378	0.075	282756	keystroke	Key.space	n/a
141.693	0.105	283386	keystroke	r	n/a
141.768	0.09	283536	keystroke	e	n/a
141.978	0.075	283956	keystroke	f	n/a
142.158	0.09	284316	keystroke	i	n/a
142.578	0.075	285156	keystroke	n	n/a
142.698	0.075	285396	keystroke	a	n/a
142.818	0.075	285636	keystroke	n	n/a
142.938	0.09	285876	keystroke	c	n/a
143.073	0.09	286146	keystroke	e	n/a
143.193	0.09	286386	keystroke	Key.space	n/a
143.388	0.09	286776	keystroke	o	n/a
143.583	0.075	287166	keystroke	u	n/a
143.703	0.06	287406	keystroke	t	n/a
143.838	0.105	287676	keystroke	l	n/a
143.958	0.06	287916	keystroke	e	n/a
144.123	0.09	288246	keystroke	t	n/a
144.288	0.09	288576	keystroke	Key.enter	n/a
144.3855	4.9445	288771	prompt	n/a	czech wood italy tall\n
145.413	0.075	290826	keystroke	c	n/a
145.713	0.105	291426	keystroke	z	n/a
146.013	0.105	292026	keystroke	e	n/a
146.208	0.075	292416	keystroke	c	n/a
146.418	0.105	292836	keystroke	h	n/a
146.643	0.06	293286	keystroke	Key.space	n/a
146.808	0.09	293616	keystroke	w	n/a
146.973	0.045	293946	keystroke	o	n/a
147.078	0.09	294156	keystroke	o	n/a
147.198	0.09	294396	keystroke	d	n/a
147.333	0.09	294666	keystroke	Key.space	n/a
147.498	0.09	294996	keystroke	i	n/a
147.648	0.135	295296	keystroke	t	n/a
148.008	0.075	296016	keystroke	a	n/a
148.143	0.09	296286	keystroke	l	n/a
148.308	0.06	296616	keystroke	y	n/a
148.413	0.09	296826	keystroke	Key.space	n/a
148.548	0.09	297096	keystroke	t	n/a
148.803	0.075	297606	keystroke	a	n/a
148.923	0.06	297846	keystroke	l	n/a
149.043	0.075	298086	keystroke	l	n/a
149.268	0.06	298536	keystroke	Key.enter	n/a
149.3335	7.2565	298667	prompt	n/a	fragrances compression dispatched volt\n
150.108	0.06	300216	keystroke	g	n/a
150.468	0.075	300936	keystroke	Key.backspace	n/a
150.633	0.075	301266	keystroke	f	n/a
150.738	0.075	301476	keystroke	r	n/a
150.978	0.09	301956	keystroke	a	n/a
151.233	0.06	302466	keystroke	g	n/a
151.473	0.075	302946	keystroke	r	n/a
151.638	0.075	303276	keystroke	a	n/a
151.743	0.12	303486	keystroke	n	n/a
151.848	0.075	303696	keystroke	c	n/a
151.998	0.09	303996	keystroke	e	n/a
152.178	0.06	304356	keystroke	s	n/a
152.268	0.09	304536	keystroke	Key.space	n/a
152.388	0.09	304776	keystroke	c	n/a
152.493	0.195	304986	keystroke	o	n/a
152.598	0.18	305196	keystroke	m	n/a
153.003	0.075	306006	keystroke	p	n/a
153.123	0.105	306246	keystroke	r	n/a
153.213	0.105	306426	keystroke	e	n/a
153.438	0.045	306876	keystroke	s	n/a
153.558	0.06	307116	keystroke	s	n/a
153.648	0.09	307296	keystroke	i	n/a
153.813	0.165	307626	keystroke	o	n/a
153.933	0.09	307866	keystroke	n	n/a
154.128	0.09	308256	keystroke	Key.space	n/a
154.323	0.045	308646	keystroke	d	n/a
154.443	0.075	308886	keystroke	i	n/a
154.519	0.074	309038	keystroke	s	n/a
154.653	0.09	309306	keystroke	p	n/a
154.758	0.105	309516	keystroke	a	n/a
154.998	0.075	309996	keystroke	t	n/a
155.268	0.105	310536	keystroke	c	n/a
155.358	0.09	310716	keystroke	h	n/a
155.493	0.075	310986	keystroke	e	n/a
155.643	0.06	311286	keystroke	d	n/a
155.778	0.09	311556	keystroke	Key.space	n/a
155.913	0.06	311826	keystroke	v	n/a
156.003	0.105	312006	keystroke	o	n/a
156.183	0.075	312366	keystroke	l	n/a
156.288	0.105	312576	keystroke	t	n/a
156.513	0.075	313026	keystroke	Key.enter	n/a
156.5945	5.9205	313189	prompt	n/a	instructor dating touched defend\n
157.248	0.12	314496	keystroke	i	n/a
157.369	0.134	314738	keystroke	n	n/a
157.443	0.105	314886	keystroke	s	n/a
157.653	0.105	315306	keystroke	t	n/a
157.743	0.075	315486	keystroke	r	n/a
157.833	0.075	315666	keystroke	u	n/a
158.028	0.105	316056	keystroke	c	n/a
158.238	0.075	316476	keystroke	t	n/a
158.328	0.075	316656	keystroke	o	n/a
158.523	0.03	317046	keystroke	r	n/a
158.838	0.075	317676	keystroke	Key.space	n/a
159.214	0.089	318428	keystroke	d	n/a
159.408	0.075	318816	keystroke	a	n/a
159.6025	0.09	319205	keystroke	t	n/a
159.6935	0.104	319387	keystroke	i	n/a
159.7825	0.105	319565	keystroke	n	n/a
159.9175	0.075	319835	keystroke	g	n/a
160.0675	0.075	320135	keystroke	Key.space	n/a
160.3225	0.075	320645	keystroke	t	n/a
160.4125	0.09	320825	keystroke	o	n/a
160.6075	0.075	321215	keystroke	u	n/a
160.7425	0.045	321485	keystroke	c	n/a
160.8025	0.09	321605	keystroke	h	n/a
161.0425	0.075	322085	keystroke	e	n/a
161.2225	0.06	322445	keystroke	d	n/a
161.3125	0.105	322625	keystroke	Key.space	n/a
161.5375	0.075	323075	keystroke	d	n/a
161.6425	0.09	323285	keystroke	e	n/a
161.8075	0.09	323615	keystroke	f	n/a
161.8825	0.105	323765	keystroke	e	n/a
162.0475	0.09	324095	keystroke	n	n/a
162.1975	0.09	324395	keystroke	d	n/a
162.4375	0.075	324875	keystroke	Key.enter	n/a
162.521	8.3185	325042	prompt	n/a	headline designated particular gardens\n
163.2625	0.12	326525	keystroke	h	n/a
163.3975	0.075	326795	keystroke	e	n/a
163.5775	0.075	327155	keystroke	a	n/a
163.6675	0.105	327335	keystroke	l	n/a
164.0125	0.15	328025	keystroke	i	n/a
164.1775	0.106	328355	keystroke	n	n/a
165.5575	0.076	331115	keystroke	e	n/a
165.8875	0.105	331775	keystroke	Key.space	n/a
166.1875	0.12	332375	keystroke	d	n/a
166.3675	0.06	332735	keystroke	e	n/a
166.5175	0.09	333035	keystroke	s	n/a
166.6675	0.09	333335	keystroke	i	n/a
166.8175	0.075	333635	keystroke	g	n/a
166.9525	0.105	333905	keystroke	n	n/a
167.1625	0.09	334325	keystroke	a	n/a
167.3875	0.135	334775	keystroke	t	n/a
167.4625	0.105	334925	keystroke	e	n/a
167.6725	0.105	335345	keystroke	d	n/a
167.8375	0.09	335675	keystroke	Key.space	n/a
168.0625	0.09	336125	keystroke	p	n/a
168.1675	0.075	336335	keystroke	a	n/a
168.3175	0.06	336635	keystroke	r	n/a
168.4675	0.075	336935	keystroke	t	n/a
168.5575	0.12	337115	keystroke	i	n/a
168.7075	0.105	337415	keystroke	c	n/a
168.8135	0.089	337627	keystroke	u	n/a
169.0525	0.09	338105	keystroke	l	n/a
169.1575	0.06	338315	keystroke	a	n/a
169.3225	0.075	338645	keystroke	r	n/a
169.4575	0.105	338915	keystroke	Key.space	n/a
169.5775	0.075	339155	keystroke	g	n/a
169.7425	0.09	339485	keystroke	a	n/a
169.9075	0.06	339815	keystroke	r	n/a
170.1485	0.089	340297	keystroke	d	n/a
170.2825	0.09	340565	keystroke	e	n/a
170.4175	0.075	340835	keystroke	n	n/a
170.5085	0.074	341017	keystroke	s	n/a
170.7475	0.09	341495	keystroke	Key.enter	n/a
170.8445	6.1755	341689	prompt	n/a	gregory apnic avoid mile\n
171.7975	0.06	343595	keystroke	g	n/a
172.0075	0.135	344015	keystroke	r	n/a
172.1125	0.06	344225	keystroke	e	n/a
172.2625	0.12	344525	keystroke	g	n/a
172.3675	0.09	344735	keystroke	o	n/a
172.4275	0.105	344855	keystroke	r	n/a
172.6075	0.105	345215	keystroke	y	n/a
172.8175	0.09	345635	keystroke	Key.space	n/a
173.1325	0.076	346265	keystroke	a	n/a
173.2825	0.106	346565	keystroke	p	n/a
173.4925	0.105	346985	keystroke	n	n/a
173.5225	0.09	347045	keystroke	s	n/a
173.6425	0.105	347285	keystroke	i	n/a
174.0775	0.075	348155	keystroke	Key.backspace	n/a
174.2275	0.09	348455	keystroke	Key.backspace	n/a
174.3925	0.075	348785	keystroke	Key.backspace	n/a
174.8425	0.06	349685	keystroke	n	n/a
174.9775	0.105	349955	keystroke	i	n/a
175.0975	0.075	350195	keystroke	c	n/a
175.2475	0.076	350495	keystroke	Key.space	n/a
175.3675	0.09	350735	keystroke	a	n/a
175.5325	0.09	351065	keystroke	v	n/a
175.6075	0.09	351215	keystroke	o	n/a
175.7575	0.105	351515	keystroke	i	n/a
175.9075	0.0905	351815	keystroke	d	n/a
176.0125	0.09	352025	keystroke	Key.space	n/a
176.2075	0.09	352415	keystroke	m	n/a
176.3725	0.09	352745	keystroke	i	n/a
176.5675	0.075	353135	keystroke	l	n/a
176.6575	0.105	353315	keystroke	e	n/a
176.9125	0.105	353825	keystroke	Key.enter	n/a
177.0245	4.6455	354049	prompt	n/a	will adjustable prompt lotus\n
177.6175	0.09	355235	keystroke	w	n/a
177.7525	0.106	355505	keystroke	i	n/a
177.9925	0.06	355985	keystroke	l	n/a
178.1125	0.09	356225	keystroke	l	n/a
178.2775	0.075	356555	keystroke	Key.space	n/a
178.3075	0.06	356615	keystroke	a	n/a
178.4575	0.06	356915	keystroke	d	n/a
178.5025	0.09	357005	keystroke	j	n/a
178.6375	0.09	357275	keystroke	u	n/a
178.6525	0.09	357305	keystroke	s	n/a
178.8475	0.06	357695	keystroke	t	n/a
178.9975	0.09	357995	keystroke	a	n/a
179.1025	0.075	358205	keystroke	b	n/a
179.2975	0.12	358595	keystroke	l	n/a
179.4325	0.075	358865	keystroke	e	n/a
179.5375	0.075	359075	keystroke	Key.space	n/a
179.7485	0.089	359497	keystroke	p	n/a
179.8525	0.076	359705	keystroke	r	n/a
179.9575	0.135	359915	keystroke	o	n/a
180.0775	0.09	360155	keystroke	m	n/a
180.2425	0.075	360485	keystroke	p	n/a
180.3325	0.09	360665	keystroke	t	n/a
180.5425	0.075	361085	keystroke	Key.space	n/a
180.7525	0.105	361505	keystroke	l	n/a
180.9325	0.105	361865	keystroke	o	n/a
181.0675	0.09	362135	keystroke	t	n/a
181.2175	0.09	362435	keystroke	u	n/a
181.3975	0.075	362795	keystroke	s	n/a
181.5925	0.075	363185	keystroke	Key.enter	n/a
181.6745	4.9765	363349	prompt	n/a	achievement nicole angeles nano\n
182.2985	0.044	364597	keystroke	a	n/a
182.4475	0.06	364895	keystroke	c	n/a
182.5675	0.09	365135	keystroke	h	n/a
182.7025	0.135	365405	keystroke	i	n/a
182.7475	0.075	365495	keystroke	e	n/a
182.8825	0.105	365765	keystroke	v	n/a
183.0025	0.045	366005	keystroke	e	n/a
183.0625	0.075	366125	keystroke	m	n/a
183.1525	0.09	366305	keystroke	e	n/a
183.2275	0.09	366455	keystroke	n	n/a
183.3925	0.09	366785	keystroke	t	n/a
183.4975	0.105	366995	keystroke	Key.space	n/a
183.6775	0.105	367355	keystroke	n	n/a
183.8125	0.09	367625	keystroke	i	n/a
183.9175	0.09	367835	keystroke	c	n/a
184.0225	0.075	368045	keystroke	o	n/a
184.1575	0.12	368315	keystroke	l	n/a
184.2475	0.09	368495	keystroke	e	n/a
184.3975	0.09	368795	keystroke	Key.space	n/a
184.5175	0.09	369035	keystroke	a	n/a
184.5775	0.12	369155	keystroke	n	n/a
184.7275	0.105	369455	keystroke	g	n/a
184.8625	0.06	369725	keystroke	e	n/a
184.9075	0.075	369815	keystroke	l	n/a
184.9975	0.075	369995	keystroke	e	n/a
185.1925	0.06	370385	keystroke	s	n/a
185.2675	0.075	370535	keystroke	Key.space	n/a
185.5375	0.06	371075	keystroke	n	n/a
185.6275	0.031	371255	keystroke	a	n/a
185.6875	0.06	371375	keystroke	n	n/a
185.7775	0.03	371555	keystroke	a	n/a
186.1375	0.105	372275	keystroke	o	n/a
186.5725	0.075	373145	keystroke	Key.enter	n/a
186.656	7.6135	373312	prompt	n/a	lookup appearing cake equity\n
187.5775	0.09	375155	keystroke	l	n/a
187.8025	0.06	375605	keystroke	o	n/a
187.8785	0.119	375757	keystroke	o	n/a
188.6885	0.104	377377	keystroke	k	n/a
188.9425	0.075	377885	keystroke	u	n/a
189.2875	0.105	378575	keystroke	p	n/a
189.6775	0.075	379355	keystroke	Key.space	n/a
189.8425	0.075	379685	keystroke	a	n/a
189.9925	0.06	379985	keystroke	p	n/a
190.1125	0.075	380225	keystroke	p	n/a
190.2325	0.06	380465	keystroke	e	n/a
190.3975	0.09	380795	keystroke	a	n/a
190.5625	0.09	381125	keystroke	r	n/a
190.6225	0.181	381245	keystroke	i	n/a
190.7425	0.15	381485	keystroke	n	n/a
190.9375	0.06	381875	keystroke	g	n/a
191.0575	0.105	382115	keystroke	Key.space	n/a
191.5675	0.075	383135	keystroke	c	n/a
191.6875	0.105	383375	keystroke	a	n/a
191.8085	0.089	383617	keystroke	k	n/a
191.9725	0.075	383945	keystroke	e	n/a
192.0625	0.09	384125	keystroke	Key.space	n/a
192.1825	0.091	384365	keystroke	q	n/a
192.5575	0.075	385115	keystroke	u	n/a
192.7675	0.06	385535	keystroke	i	n/a
192.9475	0.09	385895	keystroke	e	n/a
193.3975	0.075	386795	keystroke	t	n/a
193.8025	0.075	387605	keystroke	l	n/a
193.9075	0.075	387815	keystroke	y	n/a
194.2075	0.06	388415	keystroke	Key.enter	n/a
194.2735	5.681	388547	prompt	n/a	both airplane shipped consoles\n
194.9885	0.089	389977	keystroke	b	n/a
195.1375	0.09	390275	keystroke	o	n/a
195.2575	0.105	390515	keystroke	t	n/a
195.4985	0.089	390997	keystroke	h	n/a
195.8425	0.075	391685	keystroke	Key.space	n/a
196.0375	0.075	392075	keystroke	a	n/a
196.1575	0.075	392315	keystroke	i	n/a
196.3535	0.059	392707	keystroke	r	n/a
196.4575	0.135	392915	keystroke	p	n/a
196.5635	0.12	393127	keystroke	l	n/a
196.7575	0.06	393515	keystroke	a	n/a
196.8625	0.12	393725	keystroke	n	n/a
197.0735	0.06	394147	keystroke	e	n/a
197.1925	0.09	394385	keystroke	Key.space	n/a
197.3275	0.09	394655	keystroke	s	n/a
197.4325	0.075	394865	keystroke	h	n/a
197.6585	0.089	395317	keystroke	i	n/a
197.8975	0.075	395795	keystroke	p	n/a
198.0185	0.074	396037	keystroke	p	n/a
198.1975	0.06	396395	keystroke	e	n/a
198.3775	0.046	396755	keystroke	d	n/a
198.4675	0.09	396935	keystroke	Key.space	n/a
198.6025	0.091	397205	keystroke	c	n/a
198.7075	0.135	397415	keystroke	o	n/a
198.7975	0.105	397595	keystroke	n	n/a
198.9325	0.09	397865	keystroke	s	n/a
199.0235	0.089	398047	keystroke	o	n/a
199.2025	0.075	398405	keystroke	l	n/a
199.3075	0.075	398615	keystroke	e	n/a
199.7275	0.06	399455	keystroke	s	n/a
199.8775	0.075	399755	keystroke	Key.enter	n/a
199.9635	7.4165	399927	prompt	n/a	rating subscribers brighton museums\n
200.8975	0.06	401795	keystroke	r	n/a
201.1225	0.09	402245	keystroke	a	n/a
201.3635	0.09	402727	keystroke	t	n/a
201.5135	0.134	403027	keystroke	i	n/a
201.5875	0.12	403175	keystroke	n	n/a
201.7535	0.06	403507	keystroke	g	n/a
201.9025	0.12	403805	keystroke	Key.space	n/a
202.0535	0.074	404107	keystroke	s	n/a
202.1725	0.166	404345	keystroke	u	n/a
202.2775	0.135	404555	keystroke	b	n/a
202.3525	0.045	404705	keystroke	s	n/a
202.4885	0.09	404977	keystroke	c	n/a
202.6825	0.046	405365	keystroke	r	n/a
202.7285	0.089	405457	keystroke	i	n/a
202.8625	0.06	405725	keystroke	b	n/a
203.0275	0.075	406055	keystroke	e	n/a
203.2085	0.089	406417	keystroke	r	n/a
203.4635	0.059	406927	keystroke	s	n/a
203.6125	0.075	407225	keystroke	Key.space	n/a
203.9125	0.091	407825	keystroke	b	n/a
204.0185	0.059	408037	keystroke	r	n/a
204.0925	0.091	408185	keystroke	i	n/a
204.1985	0.06	408397	keystroke	g	n/a
204.2585	0.105	408517	keystroke	h	n/a
204.3785	0.074	408757	keystroke	t	n/a
204.5125	0.18	409025	keystroke	o	n/a
204.6335	0.104	409267	keystroke	n	n/a
204.8875	0.091	409775	keystroke	Key.space	n/a
205.0985	0.119	410197	keystroke	m	n/a
205.3085	0.074	410617	keystroke	u	n/a
205.3975	0.076	410795	keystroke	s	n/a
205.5625	0.091	411125	keystroke	e	n/a
205.6675	0.091	411335	keystroke	u	n/a
205.9225	0.076	411845	keystroke	m	n/a
206.0585	0.074	412117	keystroke	s	n/a
207.3025	0.076	414605	keystroke	Key.enter	n/a
207.3845	5.5305	414769	prompt	n/a	hired beans families space\n
208.0535	0.075	416107	keystroke	h	n/a
208.2185	0.09	416437	keystroke	i	n/a
208.3385	0.12	416677	keystroke	r	n/a
208.4425	0.06	416885	keystroke	e	n/a
208.6225	0.06	417245	keystroke	d	n/a
208.7425	0.105	417485	keystroke	Key.space	n/a
208.9535	0.089	417907	keystroke	b	n/a
209.0125	0.06	418025	keystroke	e	n/a
209.1935	0.06	418387	keystroke	a	n/a
209.2675	0.09	418535	keystroke	n	n/a
209.4035	0.09	418807	keystroke	s	n/a
209.5825	0.09	419165	keystroke	Key.space	n/a
209.7335	0.074	419467	keystroke	f	n/a
209.8825	0.105	419765	keystroke	a	n/a
210.3335	0.104	420667	keystroke	m	n/a
210.5135	0.134	421027	keystroke	i	n/a
210.7835	0.089	421567	keystroke	l	n/a
210.9785	0.075	421957	keystroke	i	n/a
210.9935	0.044	421987	keystroke	o	n/a
211.5625	0.075	423125	keystroke	Key.backspace	n/a
211.7875	0.076	423575	keystroke	e	n/a
211.9835	0.06	423967	keystroke	s	n/a
212.0885	0.104	424177	keystroke	Key.space	n/a
212.2085	0.059	424417	keystroke	s	n/a
212.2825	0.091	424565	keystroke	p	n/a
212.3585	0.059	424717	keystroke	a	n/a
212.5225	0.106	425045	keystroke	c	n/a
212.6425	0.136	425285	keystroke	e	n/a
212.8075	0.105	425615	keystroke	Key.enter	n/a
212.9195	14.1255	425839	prompt	n/a	spelling institutes holes alarm\n
213.5585	0.09	427117	keystroke	s	n/a
213.8275	0.045	427655	keystroke	e	n/a
214.2925	0.075	428585	keystroke	Key.backspace	n/a
214.8785	0.089	429757	keystroke	p	n/a
214.9825	0.076	429965	keystroke	e	n/a
215.1035	0.06	430207	keystroke	l	n/a
215.2085	0.105	430417	keystroke	l	n/a
215.8385	0.135	431677	keystroke	i	n/a
215.9585	0.135	431917	keystroke	n	n/a
216.1675	0.075	432335	keystroke	g	n/a
216.3175	0.09	432635	keystroke	Key.space	n/a
216.5435	0.135	433087	keystroke	i	n/a
216.6335	0.104	433267	keystroke	n	n/a
216.7685	0.089	433537	keystroke	s	n/a
216.9485	0.059	433897	keystroke	r	n/a
216.9935	0.06	433987	keystroke	i	n/a
217.0825	0.09	434165	keystroke	t	n/a
217.1585	0.06	434317	keystroke	u	n/a
217.2635	0.104	434527	keystroke	t	n/a
217.3685	0.089	434737	keystroke	e	n/a
217.6085	0.09	435217	keystroke	s	n/a
217.7725	0.106	435545	keystroke	Key.space	n/a
217.9975	0.106	435995	keystroke	h	n/a
218.2375	0.121	436475	keystroke	o	n/a
218.4175	0.091	436835	keystroke	l	n/a
218.5375	0.075	437075	keystroke	e	n/a
218.7025	0.076	437405	keystroke	Key.space	n/a
218.9135	0.074	437827	keystroke	a	n/a
220.6975	0.06	441395	keystroke	Key.backspace	n/a
221.3435	0.075	442687	keystroke	t	n/a
222.4535	0.0895	444907	keystroke	i	n/a
224.433	0.06	448866	keystroke	t	n/a
224.5525	0.075	449105	keystroke	u	n/a
224.6125	0.06	449225	keystroke	t	n/a
224.8225	0.075	449645	keystroke	e	n/a
225.0025	0.075	450005	keystroke	s	n/a
225.1225	0.12	450245	keystroke	Key.space	n/a
225.2875	0.09	450575	keystroke	h	n/a
225.5425	0.105	451085	keystroke	o	n/a
225.8275	0.015	451655	keystroke	l	n/a
225.8575	0.045	451715	keystroke	e	n/a
226.0075	0.105	452015	keystroke	s	n/a
226.1725	0.075	452345	keystroke	Key.space	n/a
226.2625	0.075	452525	keystroke	a	n/a
226.3225	0.075	452645	keystroke	l	n/a
226.4125	0.075	452825	keystroke	a	n/a
226.6525	0.075	453305	keystroke	r	n/a
226.7575	0.075	453515	keystroke	m	n/a
226.9675	0.075	453935	keystroke	Key.enter	n/a
227.049	6.926	454098	prompt	n/a	techno troubleshooting void cancellation\n
227.8075	0.105	455615	keystroke	t	n/a
227.9425	0.105	455885	keystroke	e	n/a
228.1825	0.09	456365	keystroke	c	n/a
228.2875	0.12	456575	keystroke	h	n/a
228.5125	0.09	457025	keystroke	n	n/a
228.6625	0.105	457325	keystroke	o	n/a
228.9025	0.075	457805	keystroke	Key.space	n/a
229.0075	0.09	458015	keystroke	t	n/a
229.1125	0.09	458225	keystroke	r	n/a
229.1725	0.105	458345	keystroke	o	n/a
229.3525	0.09	458705	keystroke	u	n/a
229.4575	0.09	458915	keystroke	b	n/a
229.6075	0.12	459215	keystroke	l	n/a
229.7425	0.075	459485	keystroke	e	n/a
229.8925	0.09	459785	keystroke	s	n/a
229.9675	0.105	459935	keystroke	h	n/a
230.2375	0.06	460475	keystroke	o	n/a
230.3575	0.09	460715	keystroke	o	n/a
230.4625	0.09	460925	keystroke	t	n/a
230.5675	0.15	461135	keystroke	i	n/a
230.6875	0.12	461375	keystroke	n	n/a
230.7925	0.09	461585	keystroke	g	n/a
231.0025	0.105	462005	keystroke	Key.space	n/a
231.1675	0.12	462335	keystroke	v	n/a
231.3175	0.06	462635	keystroke	o	n/a
231.4525	0.09	462905	keystroke	i	n/a
231.8725	0.075	463745	keystroke	d	n/a
231.9925	0.12	463985	keystroke	Key.space	n/a
232.0975	0.09	464195	keystroke	c	n/a
232.2775	0.09	464555	keystroke	a	n/a
232.4425	0.09	464885	keystroke	n	n/a
232.5925	0.09	465185	keystroke	c	n/a
232.7575	0.09	465515	keystroke	e	n/a
232.8925	0.06	465785	keystroke	l	n/a
233.0275	0.075	466055	keystroke	l	n/a
233.1475	0.105	466295	keystroke	a	n/a
233.3725	0.075	466745	keystroke	t	n/a
233.4325	0.09	466865	keystroke	i	n/a
233.5825	0.15	467165	keystroke	o	n/a
233.6875	0.135	467375	keystroke	n	n/a
233.8825	0.09	467765	keystroke	Key.enter	n/a
233.9805	4.764	467961	prompt	n/a	pass brain holdings slovenia\n
234.7075	0.075	469415	keystroke	p	n/a
234.8125	0.06	469625	keystroke	a	n/a
234.9925	0.045	469985	keystroke	s	n/a
235.1275	0.075	470255	keystroke	s	n/a
235.1875	0.06	470375	keystroke	Key.space	n/a
235.3375	0.09	470675	keystroke	b	n/a
235.4575	0.075	470915	keystroke	r	n/a
235.6375	0.075	471275	keystroke	a	n/a
235.6525	0.15	471305	keystroke	i	n/a
235.7725	0.105	471545	keystroke	n	n/a
235.9525	0.105	471905	keystroke	Key.space	n/a
236.1475	0.06	472295	keystroke	h	n/a
236.3725	0.105	472745	keystroke	o	n/a
236.6275	0.03	473255	keystroke	l	n/a
236.7025	0.105	473405	keystroke	d	n/a
236.8675	0.18	473735	keystroke	i	n/a
236.9875	0.12	473975	keystroke	n	n/a
237.0775	0.075	474155	keystroke	g	n/a
237.2425	0.075	474485	keystroke	s	n/a
237.3925	0.09	474785	keystroke	Key.space	n/a
237.5275	0.075	475055	keystroke	s	n/a
237.6035	0.104	475207	keystroke	l	n/a
237.7975	0.09	475595	keystroke	o	n/a
237.9175	0.09	475835	keystroke	v	n/a
238.0975	0.105	476195	keystroke	e	n/a
238.2175	0.09	476435	keystroke	n	n/a
238.3375	0.105	476675	keystroke	i	n/a
238.4575	0.09	476915	keystroke	a	n/a
238.6525	0.09	477305	keystroke	Key.enter	n/a
238.7495	5.815	477499	prompt	n/a	previous stretch symbol accompanied\n
239.4475	0.075	478895	keystroke	p	n/a
239.5525	0.105	479105	keystroke	r	n/a
239.6425	0.075	479285	keystroke	e	n/a
239.8375	0.075	479675	keystroke	v	n/a
239.9275	0.06	479855	keystroke	i	n/a
240.0775	0.09	480155	keystroke	o	n/a
240.2725	0.09	480545	keystroke	u	n/a
240.3775	0.06	480755	keystroke	s	n/a
240.5125	0.09	481025	keystroke	Key.space	n/a
240.5275	0.09	481055	keystroke	s	n/a
240.7075	0.075	481415	keystroke	t	n/a
240.9025	0.135	481805	keystroke	r	n/a
241.0075	0.09	482015	keystroke	e	n/a
241.1425	0.09	482285	keystroke	t	n/a
241.3825	0.12	482765	keystroke	c	n/a
241.4875	0.09	482975	keystroke	h	n/a
241.6525	0.105	483305	keystroke	Key.space	n/a
241.7875	0.075	483575	keystroke	s	n/a
241.9375	0.135	483875	keystroke	y	n/a
242.207	0.09	484414	keystroke	m	n/a
242.402	0.0755	484804	keystroke	b	n/a
242.4925	0.105	484985	keystroke	o	n/a
242.6875	0.09	485375	keystroke	l	n/a
242.8225	0.105	485645	keystroke	Key.space	n/a
242.9425	0.09	485885	keystroke	a	n/a
243.1525	0.045	486305	keystroke	c	n/a
243.2875	0.06	486575	keystroke	c	n/a
243.3775	0.12	486755	keystroke	o	n/a
243.4985	0.089	486997	keystroke	m	n/a
243.6625	0.105	487325	keystroke	p	n/a
243.7975	0.09	487595	keystroke	a	n/a
243.9025	0.075	487805	keystroke	n	n/a
244.0075	0.105	488015	keystroke	i	n/a
244.1275	0.06	488255	keystroke	e	n/a
244.2625	0.075	488525	keystroke	d	n/a
244.4725	0.09	488945	keystroke	Key.enter	n/a
244.5705	8.4545	489141	prompt	n/a	detected journalists hash publication\n
245.2225	0.045	490445	keystroke	d	n/a
245.2975	0.09	490595	keystroke	e	n/a
245.4625	0.105	490925	keystroke	t	n/a
245.5825	0.06	491165	keystroke	e	n/a
245.8075	0.06	491615	keystroke	c	n/a
246.0175	0.075	492035	keystroke	t	n/a
246.2125	0.06	492425	keystroke	e	n/a
246.3625	0.06	492725	keystroke	d	n/a
246.4675	0.12	492935	keystroke	Key.space	n/a
246.6475	0.09	493295	keystroke	j	n/a
246.8425	0.09	493685	keystroke	o	n/a
247.0375	0.075	494075	keystroke	u	n/a
247.1425	0.06	494285	keystroke	r	n/a
247.2175	0.105	494435	keystroke	n	n/a
247.5325	0.09	495065	keystroke	l	n/a
247.9225	0.06	495845	keystroke	Key.backspace	n/a
248.1475	0.06	496295	keystroke	a	n/a
248.3275	0.12	496655	keystroke	l	n/a
248.5525	0.075	497105	keystroke	i	n/a
248.6575	0.09	497315	keystroke	s	n/a
248.8675	0.06	497735	keystroke	t	n/a
249.0025	0.09	498005	keystroke	s	n/a
249.1225	0.09	498245	keystroke	Key.space	n/a
249.3025	0.06	498605	keystroke	h	n/a
249.3775	0.075	498755	keystroke	a	n/a
249.5425	0.075	499085	keystroke	s	n/a
249.8875	0.09	499775	keystroke	h	n/a
250.0825	0.09	500165	keystroke	Key.space	n/a
250.3375	0.075	500675	keystroke	p	n/a
250.6075	0.135	501215	keystroke	u	n/a
250.7725	0.09	501545	keystroke	b	n/a
250.9825	0.075	501965	keystroke	l	n/a
251.1625	0.09	502325	keystroke	i	n/a
251.3725	0.06	502745	keystroke	a	n/a
251.8075	0.075	503615	keystroke	Key.backspace	n/a
252.0925	0.06	504185	keystroke	c	n/a
252.1975	0.105	504395	keystroke	a	n/a
252.4075	0.06	504815	keystroke	t	n/a
252.4825	0.09	504965	keystroke	i	n/a
252.6325	0.135	505265	keystroke	o	n/a
252.7375	0.105	505475	keystroke	n	n/a
252.9475	0.075	505895	keystroke	Key.enter	n/a
253.03	7.5545	506060	prompt	n/a	gear realistic satisfy beyond\n
253.7575	0.045	507515	keystroke	g	n/a
253.7725	0.015	507545	keystroke	h	n/a
253.8625	0.06	507725	keystroke	e	n/a
254.0425	0.09	508085	keystroke	a	n/a
254.2975	0.075	508595	keystroke	r	n/a
254.7025	0.075	509405	keystroke	Key.backspace	n/a
254.8375	0.09	509675	keystroke	Key.backspace	n/a
255.0025	0.045	510005	keystroke	Key.backspace	n/a
255.1225	0.075	510245	keystroke	Key.backspace	n/a
255.5725	0.06	511145	keystroke	e	n/a
255.7525	0.075	511505	keystroke	a	n/a
255.9025	0.06	511805	keystroke	r	n/a
255.9925	0.105	511985	keystroke	Key.space	n/a
256.0985	0.119	512197	keystroke	r	n/a
256.2035	0.059	512407	keystroke	e	n/a
256.3975	0.09	512795	keystroke	a	n/a
256.7575	0.12	513515	keystroke	l	n/a
256.9825	0.09	513965	keystroke	i	n/a
257.0735	0.074	514147	keystroke	s	n/a
257.2075	0.075	514415	keystroke	t	n/a
257.2975	0.075	514595	keystroke	i	n/a
257.5525	0.075	515105	keystroke	c	n/a
257.6875	0.09	515375	keystroke	Key.space	n/a
257.8225	0.135	515645	keystroke	s	n/a
257.9275	0.075	515855	keystroke	a	n/a
258.1225	0.06	516245	keystroke	t	n/a
258.2125	0.105	516425	keystroke	i	n/a
258.3625	0.09	516725	keystroke	s	n/a
258.9325	0.09	517865	keystroke	f	n/a
259.0375	0.12	518075	keystroke	y	n/a
259.3675	0.09	518735	keystroke	Key.space	n/a
259.6825	0.09	519365	keystroke	b	n/a
259.7875	0.075	519575	keystroke	e	n/a
259.8925	0.105	519785	keystroke	y	n/a
260.1325	0.15	520265	keystroke	o	n/a
260.2225	0.135	520445	keystroke	n	n/a
260.3425	0.09	520685	keystroke	d	n/a
260.4925	0.09	520985	keystroke	Key.enter	n/a
260.5885	3.9565	521177	prompt	n/a	homeland berry buy tips\n
261.2575	0.09	522515	keystroke	h	n/a
261.4075	0.165	522815	keystroke	o	n/a
261.5425	0.105	523085	keystroke	m	n/a
261.6025	0.105	523205	keystroke	e	n/a
261.7675	0.12	523535	keystroke	l	n/a
261.9175	0.06	523835	keystroke	a	n/a
261.9925	0.075	523985	keystroke	n	n/a
262.0825	0.075	524165	keystroke	d	n/a
262.1725	0.09	524345	keystroke	Key.space	n/a
262.3225	0.105	524645	keystroke	b	n/a
262.4875	0.075	524975	keystroke	e	n/a
262.6975	0.03	525395	keystroke	r	n/a
262.8025	0.045	525605	keystroke	r	n/a
262.8775	0.105	525755	keystroke	y	n/a
263.1175	0.09	526235	keystroke	Key.space	n/a
263.2975	0.075	526595	keystroke	b	n/a
263.4025	0.12	526805	keystroke	u	n/a
263.5675	0.105	527135	keystroke	y	n/a
263.7025	0.075	527405	keystroke	Key.space	n/a
263.7925	0.075	527585	keystroke	t	n/a
263.8825	0.075	527765	keystroke	i	n/a
264.1225	0.076	528245	keystroke	p	n/a
264.2285	0.089	528457	keystroke	s	n/a
264.4675	0.075	528935	keystroke	Key.enter	n/a
264.5495	5.906	529099	prompt	n/a	sentence batteries tribes doctor\n
265.1125	0.06	530225	keystroke	s	n/a
265.2775	0.075	530555	keystroke	e	n/a
265.3975	0.06	530795	keystroke	n	n/a
265.5025	0.12	531005	keystroke	t	n/a
265.6375	0.105	531275	keystroke	e	n/a
266.3725	0.09	532745	keystroke	n	n/a
266.5075	0.105	533015	keystroke	c	n/a
266.6275	0.105	533255	keystroke	e	n/a
266.7475	0.075	533495	keystroke	Key.space	n/a
266.9125	0.105	533825	keystroke	b	n/a
267.0025	0.09	534005	keystroke	a	n/a
267.2435	0.059	534487	keystroke	t	n/a
267.3775	0.075	534755	keystroke	t	n/a
267.4675	0.105	534935	keystroke	e	n/a
267.6035	0.104	535207	keystroke	r	n/a
267.6925	0.09	535385	keystroke	i	n/a
267.7525	0.075	535505	keystroke	e	n/a
267.9475	0.09	535895	keystroke	s	n/a
268.0975	0.09	536195	keystroke	Key.space	n/a
268.2925	0.031	536585	keystroke	t	n/a
268.3075	0.12	536615	keystroke	r	n/a
268.4125	0.075	536825	keystroke	i	n/a
268.5325	0.076	537065	keystroke	b	n/a
268.6825	0.076	537365	keystroke	e	n/a
268.8625	0.09	537725	keystroke	s	n/a
268.9825	0.105	537965	keystroke	Key.space	n/a
269.0885	0.075	538177	keystroke	d	n/a
269.1925	0.09	538385	keystroke	o	n/a
269.3585	0.089	538717	keystroke	c	n/a
269.5835	0.074	539167	keystroke	t	n/a
269.6585	0.074	539317	keystroke	o	n/a
269.7625	0.076	539525	keystroke	r	n/a
270.3925	0.06	540785	keystroke	Key.enter	n/a
270.463	5.4965	540926	prompt	n/a	gratuit excess grows dying\n
271.1725	0.075	542345	keystroke	g	n/a
271.3225	0.075	542645	keystroke	r	n/a
271.6525	0.106	543305	keystroke	a	n/a
271.9075	0.075	543815	keystroke	t	n/a
272.0575	0.076	544115	keystroke	u	n/a
272.2085	0.089	544417	keystroke	i	n/a
272.2825	0.06	544565	keystroke	t	n/a
272.4625	0.09	544925	keystroke	Key.space	n/a
272.5675	0.06	545135	keystroke	e	n/a
272.8085	0.104	545617	keystroke	x	n/a
272.9575	0.09	545915	keystroke	c	n/a
273.1225	0.105	546245	keystroke	e	n/a
273.3475	0.06	546695	keystroke	s	n/a
273.4825	0.06	546965	keystroke	s	n/a
273.8875	0.105	547775	keystroke	Key.space	n/a
274.0975	0.09	548195	keystroke	g	n/a
274.2025	0.075	548405	keystroke	r	n/a
274.3375	0.09	548675	keystroke	o	n/a
274.4725	0.075	548945	keystroke	w	n/a
274.6675	0.09	549335	keystroke	s	n/a
274.8025	0.105	549605	keystroke	Key.space	n/a
274.9525	0.09	549905	keystroke	d	n/a
275.0575	0.075	550115	keystroke	y	n/a
275.2675	0.135	550535	keystroke	i	n/a
275.3425	0.135	550685	keystroke	n	n/a
275.4475	0.105	550895	keystroke	g	n/a
275.8825	0.075	551765	keystroke	Key.enter	n/a
275.966	5.634	551932	prompt	n/a	potato hitachi earth deliver\n
276.7075	0.076	553415	keystroke	p	n/a
276.8575	0.09	553715	keystroke	o	n/a
277.0075	0.06	554015	keystroke	t	n/a
277.2485	0.119	554497	keystroke	a	n/a
277.4875	0.09	554975	keystroke	t	n/a
277.5925	0.105	555185	keystroke	o	n/a
277.8025	0.105	555605	keystroke	Key.space	n/a
277.9825	0.091	555965	keystroke	h	n/a
278.1775	0.075	556355	keystroke	i	n/a
278.2975	0.076	556595	keystroke	t	n/a
278.5375	0.076	557075	keystroke	a	n/a
278.7325	0.06	557465	keystroke	c	n/a
278.8375	0.076	557675	keystroke	h	n/a
279.0175	0.091	558035	keystroke	i	n/a
279.2275	0.09	558455	keystroke	Key.space	n/a
279.3475	0.06	558695	keystroke	e	n/a
279.5275	0.076	559055	keystroke	a	n/a
279.7375	0.06	559475	keystroke	r	n/a
279.9025	0.046	559805	keystroke	t	n/a
279.9775	0.09	559955	keystroke	h	n/a
280.1575	0.075	560315	keystroke	Key.space	n/a
280.2785	0.089	560557	keystroke	d	n/a
280.4285	0.089	560857	keystroke	e	n/a
280.5475	0.12	561095	keystroke	l	n/a
280.7735	0.104	561547	keystroke	i	n/a
280.8935	0.09	561787	keystroke	v	n/a
281.0875	0.015	562175	keystroke	e	n/a
281.1925	0.061	562385	keystroke	r	n/a
281.5075	0.09	563015	keystroke	Key.enter	n/a
281.6045	7.841	563209	prompt	n/a	aluminium earthquake acquired bankruptcy\n
282.0915	0	564183	keystroke	Key.ctrl_l	n/a
282.3025	0.075	564605	keystroke	a	n/a
282.4675	0.09	564935	keystroke	l	n/a
282.6925	0.09	565385	keystroke	u	n/a
282.9025	0.121	565805	keystroke	m	n/a
283.0975	0.15	566195	keystroke	i	n/a
283.2325	0.121	566465	keystroke	n	n/a
283.4125	0.136	566825	keystroke	u	n/a
283.8925	0.076	567785	keystroke	m	n/a
284.0725	0.105	568145	keystroke	Key.space	n/a
284.3125	0.06	568625	keystroke	e	n/a
284.4485	0.105	568897	keystroke	a	n/a
284.5975	0.075	569195	keystroke	r	n/a
284.7485	0.059	569497	keystroke	t	n/a
284.8525	0.105	569705	keystroke	h	n/a
285.0025	0.076	570005	keystroke	q	n/a
285.1225	0.09	570245	keystroke	u	n/a
285.2435	0.089	570487	keystroke	a	n/a
285.4225	0.075	570845	keystroke	k	n/a
285.6475	0.06	571295	keystroke	e	n/a
285.7525	0.09	571505	keystroke	Key.space	n/a
285.8725	0.075	571745	keystroke	a	n/a
286.0675	0.06	572135	keystroke	c	n/a
286.2925	0.075	572585	keystroke	q	n/a
286.3825	0.075	572765	keystroke	u	n/a
286.5485	0.075	573097	keystroke	i	n/a
286.6075	0.12	573215	keystroke	r	n/a
286.7425	0.105	573485	keystroke	e	n/a
286.9525	0.061	573905	keystroke	d	n/a
287.0575	0.09	574115	keystroke	Key.space	n/a
287.2535	0.089	574507	keystroke	b	n/a
287.4185	0.074	574837	keystroke	a	n/a
287.6125	0.091	575225	keystroke	n	n/a
287.7785	0.105	575557	keystroke	k	n/a
287.9875	0.075	575975	keystroke	r	n/a
288.1075	0.106	576215	keystroke	u	n/a
288.3625	0.091	576725	keystroke	p	n/a
288.5725	0.076	577145	keystroke	t	n/a
288.8425	0.09	577685	keystroke	c	n/a
288.9475	0.106	577895	keystroke	y	n/a
289.3525	0.09	578705	keystroke	Key.enter	n/a
289.45	5.3205	578900	prompt	n/a	nursing side evolution falling\n
290.1485	0.105	580297	keystroke	n	n/a
290.2985	0.119	580597	keystroke	u	n/a
290.4025	0.06	580805	keystroke	r	n/a
290.5825	0.046	581165	keystroke	s	n/a
290.6125	0.135	581225	keystroke	i	n/a
290.7325	0.105	581465	keystroke	n	n/a
291.0625	0.09	582125	keystroke	g	n/a
291.2275	0.105	582455	keystroke	Key.space	n/a
291.3485	0.075	582697	keystroke	s	n/a
291.4235	0.075	582847	keystroke	i	n/a
291.5285	0.105	583057	keystroke	d	n/a
291.6775	0.105	583355	keystroke	e	n/a
291.8275	0.09	583655	keystroke	Key.space	n/a
291.9785	0.075	583957	keystroke	e	n/a
292.1575	0.106	584315	keystroke	v	n/a
292.2485	0.105	584497	keystroke	o	n/a
292.4275	0.106	584855	keystroke	l	n/a
292.6675	0.06	585335	keystroke	u	n/a
292.7585	0.09	585517	keystroke	t	n/a
292.8635	0.089	585727	keystroke	i	n/a
293.0285	0.165	586057	keystroke	o	n/a
293.1475	0.106	586295	keystroke	n	n/a
293.3575	0.09	586715	keystroke	Key.space	n/a
293.5385	0.059	587077	keystroke	f	n/a
293.8385	0.074	587677	keystroke	a	n/a
293.9585	0.059	587917	keystroke	l	n/a
294.0935	0.09	588187	keystroke	l	n/a
294.2885	0.165	588577	keystroke	i	n/a
294.4085	0.134	588817	keystroke	n	n/a
294.5275	0.076	589055	keystroke	g	n/a
294.7075	0.06	589415	keystroke	Key.enter	n/a
294.775	15.505	589550	prompt	n/a	reflects tissue blog achievement\n
295.4725	0.12	590945	keystroke	r	n/a
295.5935	0.06	591187	keystroke	e	n/a
296.2985	0.09	592597	keystroke	f	n/a
296.4025	0.09	592805	keystroke	l	n/a
296.4635	0.089	592927	keystroke	e	n/a
296.6875	0.106	593375	keystroke	c	n/a
296.9425	0.075	593885	keystroke	t	n/a
297.1975	0.076	594395	keystroke	s	n/a
297.3175	0.09	594635	keystroke	Key.space	n/a
297.6025	0.075	595205	keystroke	t	n/a
297.6935	0.09	595387	keystroke	i	n/a
297.8735	0.044	595747	keystroke	s	n/a
297.9925	0.061	595985	keystroke	s	n/a
298.0675	0.091	596135	keystroke	u	n/a
298.2035	0.09	596407	keystroke	e	n/a
298.3525	0.09	596705	keystroke	Key.space	n/a
298.5635	0.104	597127	keystroke	b	n/a
298.8635	0.06	597727	keystroke	l	n/a
298.8775	0.031	597755	keystroke	k	n/a
299.4475	0.09	598895	keystroke	Key.backspace	n/a
299.9285	0.104	599857	keystroke	o	n/a
300.3475	0.09	600695	keystroke	d	n/a
300.4675	0.105	600935	keystroke	Key.space	n/a
300.5735	0.059	601147	keystroke	a	n/a
300.7375	0.09	601475	keystroke	c	n/a
300.8435	0.075	601687	keystroke	h	n/a
301.0075	0.09	602015	keystroke	i	n/a
301.0675	0.106	602135	keystroke	e	n/a
301.2335	0.149	602467	keystroke	v	n/a
301.3975	0.076	602795	keystroke	e	n/a
301.5335	0.074	603067	keystroke	m	n/a
301.6375	0.106	603275	keystroke	e	n/a
301.7885	0.12	603577	keystroke	n	n/a
301.9225	0.106	603845	keystroke	t	n/a
302.4485	0.464	604897	keystroke	Key.backspace	n/a
303.0175	0.06	606035	keystroke	Key.backspace	n/a
303.1675	0.045	606335	keystroke	Key.backspace	n/a
303.2875	0.06	606575	keystroke	Key.backspace	n/a
303.4375	0.06	606875	keystroke	Key.backspace	n/a
303.5725	0.06	607145	keystroke	Key.backspace	n/a
303.7225	0.045	607445	keystroke	Key.backspace	n/a
303.8725	0.045	607745	keystroke	Key.backspace	n/a
304.0075	0.045	608015	keystroke	Key.backspace	n/a
304.1425	0.06	608285	keystroke	Key.backspace	n/a
304.2925	0.0605	608585	keystroke	Key.backspace	n/a
304.458	0.06	608916	keystroke	Key.backspace	n/a
304.653	0.105	609306	keystroke	Key.backspace	n/a
307.731	0	615462	keystroke	Key.backspace	n/a
307.908	0.075	615816	keystroke	Key.backspace	n/a
308.553	0.06	617106	keystroke	g	n/a
308.688	0.09	617376	keystroke	Key.space	n/a
308.838	0.075	617676	keystroke	a	n/a
309.003	0.075	618006	keystroke	c	n/a
309.108	0.075	618216	keystroke	h	n/a
309.213	0.09	618426	keystroke	e	n/a
309.333	0.09	618666	keystroke	i	n/a
309.483	0.09	618966	keystroke	v	n/a
309.633	0.075	619266	keystroke	e	n/a
309.723	0.105	619446	keystroke	m	n/a
309.813	0.06	619626	keystroke	e	n/a
309.933	0.09	619866	keystroke	n	n/a
310.068	0.09	620136	keystroke	t	n/a
310.218	0.06	620436	keystroke	Key.enter	n/a
310.2895	7.235	620579	prompt	n/a	devel horse employment bracelet\n
311.808	0.105	623616	keystroke	d	n/a
311.898	0.12	623796	keystroke	e	n/a
312.078	0.12	624156	keystroke	v	n/a
312.153	0.105	624306	keystroke	e	n/a
312.318	0.075	624636	keystroke	l	n/a
312.558	0.105	625116	keystroke	Key.space	n/a
312.963	0.09	625926	keystroke	h	n/a
313.173	0.105	626346	keystroke	o	n/a
313.293	0.075	626586	keystroke	r	n/a
313.503	0.075	627006	keystroke	s	n/a
313.683	0.075	627366	keystroke	e	n/a
313.803	0.105	627606	keystroke	Key.space	n/a
314.508	0.075	629016	keystroke	e	n/a
314.598	0.12	629196	keystroke	m	n/a
314.988	0.165	629976	keystroke	p	n/a
315.123	0.075	630246	keystroke	l	n/a
315.258	0.105	630516	keystroke	o	n/a
315.393	0.075	630786	keystroke	y	n/a
315.498	0.105	630996	keystroke	m	n/a
315.618	0.09	631236	keystroke	e	n/a
315.723	0.09	631446	keystroke	n	n/a
315.858	0.0895	631716	keystroke	t	n/a
316.0075	0.06	632015	keystroke	Key.space	n/a
316.1575	0.09	632315	keystroke	b	n/a
316.2775	0.06	632555	keystroke	r	n/a
316.5175	0.09	633035	keystroke	a	n/a
316.7275	0.075	633455	keystroke	c	n/a
316.8625	0.09	633725	keystroke	e	n/a
316.9675	0.075	633935	keystroke	l	n/a
317.0275	0.075	634055	keystroke	e	n/a
317.2675	0.105	634535	keystroke	t	n/a
317.4325	0.09	634865	keystroke	Key.enter	n/a
317.529	6.6405	635058	prompt	n/a	gerald items formats promo\n
318.3325	0.09	636665	keystroke	g	n/a
318.4675	0.09	636935	keystroke	e	n/a
318.6325	0.06	637265	keystroke	r	n/a
318.8275	0.075	637655	keystroke	a	n/a
319.0075	0.045	638015	keystroke	l	n/a
319.1575	0.09	638315	keystroke	d	n/a
319.3075	0.09	638615	keystroke	Key.space	n/a
319.5025	0.09	639005	keystroke	i	n/a
319.6075	0.06	639215	keystroke	t	n/a
319.7875	0.06	639575	keystroke	e	n/a
319.9075	0.09	639815	keystroke	m	n/a
320.0275	0.09	640055	keystroke	s	n/a
320.1475	0.105	640295	keystroke	Key.space	n/a
320.3125	0.09	640625	keystroke	f	n/a
320.4175	0.09	640835	keystroke	o	n/a
320.5525	0.075	641105	keystroke	r	n/a
320.7025	0.09	641405	keystroke	m	n/a
320.8225	0.075	641645	keystroke	a	n/a
321.0925	0.075	642185	keystroke	t	n/a
321.2875	0.075	642575	keystroke	s	n/a
321.4525	0.03	642905	keystroke	Key.space	n/a
321.6925	0.105	643385	keystroke	p	n/a
322.4275	0.075	644855	keystroke	r	n/a
322.5475	0.105	645095	keystroke	o	n/a
322.8625	0.045	645725	keystroke	o	n/a
322.9975	0.075	645995	keystroke	m	n/a
323.3275	0.06	646655	keystroke	Key.backspace	n/a
323.4625	0.045	646925	keystroke	Key.backspace	n/a
323.7625	0.075	647525	keystroke	m	n/a
323.8825	0.105	647765	keystroke	o	n/a
324.0925	0.075	648185	keystroke	Key.enter	n/a
324.1745	4.135	648349	prompt	n/a	futures ride emacs singer\n
324.7675	0.06	649535	keystroke	f	n/a
324.8725	0.09	649745	keystroke	u	n/a
325.0375	0.09	650075	keystroke	t	n/a
325.0975	0.0905	650195	keystroke	u	n/a
325.3225	0.105	650645	keystroke	r	n/a
325.4125	0.075	650825	keystroke	e	n/a
325.5925	0.075	651185	keystroke	s	n/a
325.6975	0.09	651395	keystroke	Key.space	n/a
325.8175	0.06	651635	keystroke	r	n/a
325.8925	0.075	651785	keystroke	i	n/a
326.0275	0.12	652055	keystroke	d	n/a
326.1625	0.105	652325	keystroke	e	n/a
326.4325	0.075	652865	keystroke	Key.space	n/a
326.5525	0.075	653105	keystroke	e	n/a
326.6725	0.105	653345	keystroke	m	n/a
326.7925	0.075	653585	keystroke	a	n/a
327.0025	0.09	654005	keystroke	c	n/a
327.1675	0.105	654335	keystroke	s	n/a
327.3775	0.09	654755	keystroke	Key.space	n/a
327.4825	0.09	654965	keystroke	s	n/a
327.5875	0.135	655175	keystroke	i	n/a
327.6475	0.15	655295	keystroke	n	n/a
327.7375	0.09	655475	keystroke	g	n/a
327.8875	0.105	655775	keystroke	e	n/a
328.0375	0.075	656075	keystroke	r	n/a
328.2175	0.09	656435	keystroke	Key.enter	n/a
328.315	4.15	656630	prompt	n/a	catch adam marcus suit\n
328.9075	0.075	657815	keystroke	c	n/a
329.0275	0.105	658055	keystroke	a	n/a
329.2375	0.09	658475	keystroke	t	n/a
329.4925	0.105	658985	keystroke	c	n/a
329.6125	0.105	659225	keystroke	h	n/a
329.7925	0.105	659585	keystroke	Key.space	n/a
329.9275	0.045	659855	keystroke	a	n/a
330.0025	0.12	660005	keystroke	d	n/a
330.1075	0.09	660215	keystroke	a	n/a
330.2275	0.09	660455	keystroke	m	n/a
330.4225	0.075	660845	keystroke	Key.space	n/a
330.5725	0.105	661145	keystroke	m	n/a
330.6175	0.075	661235	keystroke	a	n/a
330.7975	0.06	661595	keystroke	r	n/a
331.0225	0.09	662045	keystroke	c	n/a
331.1275	0.09	662255	keystroke	u	n/a
331.2625	0.075	662525	keystroke	s	n/a
331.3825	0.09	662765	keystroke	Key.space	n/a
331.5175	0.09	663035	keystroke	s	n/a
331.9375	0.075	663875	keystroke	u	n/a
332.1175	0.075	664235	keystroke	i	n/a
332.1775	0.105	664355	keystroke	t	n/a
332.3725	0.09	664745	keystroke	Key.enter	n/a
332.47	4.8995	664940	prompt	n/a	measured catch warnings trance\n
333.1075	0.075	666215	keystroke	m	n/a
333.2125	0.075	666425	keystroke	e	n/a
333.3625	0.075	666725	keystroke	a	n/a
333.5425	0.075	667085	keystroke	s	n/a
333.6325	0.075	667265	keystroke	u	n/a
333.7225	0.105	667445	keystroke	r	n/a
333.7975	0.09	667595	keystroke	e	n/a
333.9925	0.075	667985	keystroke	d	n/a
334.1125	0.09	668225	keystroke	Key.space	n/a
334.3375	0.075	668675	keystroke	c	n/a
334.5025	0.06	669005	keystroke	a	n/a
334.6825	0.075	669365	keystroke	t	n/a
334.8925	0.09	669785	keystroke	c	n/a
334.9975	0.075	669995	keystroke	h	n/a
335.1475	0.105	670295	keystroke	Key.space	n/a
335.2375	0.06	670475	keystroke	w	n/a
335.3875	0.09	670775	keystroke	a	n/a
335.5525	0.09	671105	keystroke	r	n/a
335.6875	0.075	671375	keystroke	n	n/a
335.8075	0.15	671615	keystroke	i	n/a
335.9125	0.105	671825	keystroke	n	n/a
335.9725	0.075	671945	keystroke	g	n/a
336.1225	0.09	672245	keystroke	s	n/a
336.2425	0.105	672485	keystroke	Key.space	n/a
336.4375	0.18	672875	keystroke	t	n/a
336.6025	0.075	673205	keystroke	r	n/a
336.7825	0.09	673565	keystroke	a	n/a
336.8875	0.075	673775	keystroke	n	n/a
336.9775	0.06	673955	keystroke	c	n/a
337.0975	0.12	674195	keystroke	e	n/a
337.2925	0.075	674585	keystroke	Key.enter	n/a
337.3745	7.2855	674749	prompt	n/a	highest initiative generates similarly\n
338.0425	0.09	676085	keystroke	h	n/a
338.2225	0.09	676445	keystroke	i	n/a
338.3125	0.06	676625	keystroke	g	n/a
338.4025	0.105	676805	keystroke	h	n/a
338.4925	0.075	676985	keystroke	e	n/a
338.6575	0.09	677315	keystroke	s	n/a
338.8675	0.075	677735	keystroke	t	n/a
339.0025	0.135	678005	keystroke	Key.space	n/a
339.2875	0.165	678575	keystroke	i	n/a
339.4075	0.135	678815	keystroke	n	n/a
339.6625	0.09	679325	keystroke	i	n/a
339.7975	0.09	679595	keystroke	t	n/a
339.9175	0.09	679835	keystroke	i	n/a
340.5775	0.09	681155	keystroke	a	n/a
340.8175	0.09	681635	keystroke	t	n/a
340.9675	0.09	681935	keystroke	i	n/a
341.1175	0.105	682235	keystroke	v	n/a
341.2525	0.12	682505	keystroke	e	n/a
341.4025	0.06	682805	keystroke	Key.space	n/a
341.5225	0.06	683045	keystroke	g	n/a
341.7025	0.075	683405	keystroke	e	n/a
341.9725	0.075	683945	keystroke	n	n/a
342.0625	0.105	684125	keystroke	e	n/a
342.1825	0.09	684365	keystroke	r	n/a
342.3475	0.075	684695	keystroke	a	n/a
342.5275	0.12	685055	keystroke	t	n/a
342.6025	0.105	685205	keystroke	e	n/a
342.8125	0.06	685625	keystroke	s	n/a
342.9325	0.075	685865	keystroke	Key.space	n/a
343.0225	0.09	686045	keystroke	s	n/a
343.1275	0.09	686255	keystroke	i	n/a
343.3225	0.09	686645	keystroke	m	n/a
343.5175	0.09	687035	keystroke	i	n/a
343.7425	0.09	687485	keystroke	l	n/a
343.8775	0.075	687755	keystroke	a	n/a
344.0275	0.09	688055	keystroke	r	n/a
344.1025	0.105	688205	keystroke	i	n/a
344.2085	0.104	688417	keystroke	t	n/a
344.3425	0.105	688685	keystroke	y	n/a
344.5825	0.075	689165	keystroke	Key.enter	n/a
344.6705	6.184	689341	prompt	n/a	shoppers manually we'd've bikes\n
345.2575	0.09	690515	keystroke	s	n/a
345.4525	0.075	690905	keystroke	h	n/a
345.6625	0.165	691325	keystroke	o	n/a
346.0225	0.045	692045	keystroke	p	n/a
346.1575	0.06	692315	keystroke	p	n/a
346.2475	0.09	692495	keystroke	e	n/a
346.3975	0.09	692795	keystroke	r	n/a
346.6225	0.03	693245	keystroke	s	n/a
346.6675	0.06	693335	keystroke	Key.space	n/a
347.1025	0.105	694205	keystroke	m	n/a
347.2525	0.075	694505	keystroke	a	n/a
347.3875	0.105	694775	keystroke	n	n/a
347.5825	0.09	695165	keystroke	u	n/a
347.6875	0.06	695375	keystroke	a	n/a
347.8525	0.075	695705	keystroke	l	n/a
348.0025	0.06	696005	keystroke	l	n/a
348.1675	0.075	696335	keystroke	y	n/a
348.3025	0.075	696605	keystroke	Key.space	n/a
348.4525	0.075	696905	keystroke	w	n/a
348.6025	0.045	697205	keystroke	e	n/a
349.1425	0.075	698285	keystroke	'	n/a
349.2625	0.09	698525	keystroke	d	n/a
349.5925	0.09	699185	keystroke	Key.space	n/a
349.8925	0.075	699785	keystroke	b	n/a
350.0875	0.09	700175	keystroke	i	n/a
350.2375	0.105	700475	keystroke	k	n/a
350.3575	0.105	700715	keystroke	e	n/a
350.5825	0.105	701165	keystroke	s	n/a
350.7625	0.09	701525	keystroke	Key.enter	n/a
350.8595	6.6395	701719	prompt	n/a	alternative portable frost antarctica\n
351.4825	0.075	702965	keystroke	a	n/a
351.5875	0.105	703175	keystroke	l	n/a
351.8125	0.075	703625	keystroke	t	n/a
351.9325	0.075	703865	keystroke	e	n/a
352.0375	0.09	704075	keystroke	r	n/a
352.1725	0.09	704345	keystroke	n	n/a
352.2175	0.06	704435	keystroke	a	n/a
352.3825	0.09	704765	keystroke	t	n/a
352.4875	0.09	704975	keystroke	i	n/a
352.6675	0.135	705335	keystroke	v	n/a
352.8325	0.09	705665	keystroke	e	n/a
352.9375	0.09	705875	keystroke	Key.space	n/a
353.1625	0.075	706325	keystroke	p	n/a
353.297	0.0905	706594	keystroke	o	n/a
353.4025	0.075	706805	keystroke	r	n/a
353.5975	0.075	707195	keystroke	t	n/a
353.7625	0.075	707525	keystroke	a	n/a
353.8525	0.075	707705	keystroke	b	n/a
354.0625	0.09	708125	keystroke	l	n/a
354.1675	0.09	708335	keystroke	e	n/a
354.3025	0.09	708605	keystroke	Key.space	n/a
354.4375	0.09	708875	keystroke	f	n/a
354.5725	0.075	709145	keystroke	r	n/a
354.6925	0.09	709385	keystroke	o	n/a
354.8125	0.09	709625	keystroke	s	n/a
354.9775	0.09	709955	keystroke	t	n/a
355.1125	0.09	710225	keystroke	Key.space	n/a
355.2625	0.075	710525	keystroke	a	n/a
355.5175	0.09	711035	keystroke	n	n/a
356.162	0.076	712324	keystroke	t	n/a
356.432	0.0755	712864	keystroke	a	n/a
356.6125	0.06	713225	keystroke	r	n/a
356.7475	0.075	713495	keystroke	t	n/a
356.9575	0.105	713915	keystroke	i	n/a
357.0925	0.0895	714185	keystroke	c	n/a
357.2125	0.09	714425	keystroke	a	n/a
357.3775	0.12	714755	keystroke	Key.enter	n/a
357.504	7.061	715008	prompt	n/a	whenever podcasts slot agricultural\n
358.1125	0.09	716225	keystroke	w	n/a
358.2325	0.12	716465	keystroke	h	n/a
358.337	0.0755	716674	keystroke	e	n/a
358.4575	0.105	716915	keystroke	n	n/a
358.5325	0.09	717065	keystroke	e	n/a
358.7425	0.12	717485	keystroke	v	n/a
359.4175	0.0595	718835	keystroke	v	n/a
359.807	0.0905	719614	keystroke	Key.backspace	n/a
359.898	0.074	719796	keystroke	e	n/a
360.0625	0.075	720125	keystroke	r	n/a
360.227	0.0905	720454	keystroke	Key.space	n/a
360.527	0.0905	721054	keystroke	p	n/a
360.722	0.105	721444	keystroke	o	n/a
360.857	0.075	721714	keystroke	d	n/a
361.052	0.075	722104	keystroke	c	n/a
361.1875	0.105	722375	keystroke	a	n/a
361.3675	0.1045	722735	keystroke	s	n/a
361.5625	0.0895	723125	keystroke	t	n/a
361.712	0.1055	723424	keystroke	s	n/a
361.847	0.09	723694	keystroke	Key.space	n/a
361.997	0.1055	723994	keystroke	s	n/a
362.0875	0.105	724175	keystroke	l	n/a
362.282	0.1055	724564	keystroke	o	n/a
362.4325	0.0895	724865	keystroke	t	n/a
362.597	0.09	725194	keystroke	Key.space	n/a
362.7175	0.09	725435	keystroke	a	n/a
362.882	0.09	725764	keystroke	g	n/a
363.0175	0.0895	726035	keystroke	r	n/a
363.122	0.1055	726244	keystroke	i	n/a
363.272	0.0905	726544	keystroke	c	n/a
363.392	0.09	726784	keystroke	u	n/a
363.587	0.105	727174	keystroke	l	n/a
363.737	0.09	727474	keystroke	t	n/a
363.872	0.075	727744	keystroke	u	n/a
363.902	0.075	727804	keystroke	r	n/a
364.127	0.09	728254	keystroke	a	n/a
364.232	0.09	728464	keystroke	l	n/a
364.472	0.09	728944	keystroke	Key.enter	n/a
364.57	8.125	729140	prompt	n/a	experiences delaware brilliant whom'st\n
365.147	0.06	730294	keystroke	e	n/a
365.342	0.105	730684	keystroke	x	n/a
365.507	0.09	731014	keystroke	p	n/a
365.627	0.075	731254	keystroke	e	n/a
365.807	0.03	731614	keystroke	r	n/a
365.822	0.105	731644	keystroke	i	n/a
365.9425	0.06	731885	keystroke	e	n/a
366.0175	0.1045	732035	keystroke	n	n/a
366.212	0.12	732424	keystroke	c	n/a
366.347	0.09	732694	keystroke	e	n/a
366.527	0.075	733054	keystroke	s	n/a
366.662	0.0755	733324	keystroke	Key.space	n/a
366.857	0.0605	733714	keystroke	d	n/a
367.157	0.0605	734314	keystroke	e	n/a
367.5325	0.0745	735065	keystroke	l	n/a
367.847	0.075	735694	keystroke	a	n/a
368.102	0.06	736204	keystroke	w	n/a
368.2675	0.075	736535	keystroke	a	n/a
368.5225	0.1045	737045	keystroke	r	n/a
368.6125	0.105	737225	keystroke	e	n/a
368.7925	0.0595	737585	keystroke	Key.space	n/a
368.957	0.09	737914	keystroke	b	n/a
369.0925	0.075	738185	keystroke	r	n/a
369.168	0.089	738336	keystroke	i	n/a
369.4525	0.0595	738905	keystroke	l	n/a
369.573	0.074	739146	keystroke	l	n/a
369.707	0.09	739414	keystroke	a	n/a
369.812	0.105	739624	keystroke	n	n/a
369.977	0.09	739954	keystroke	t	n/a
370.127	0.0905	740254	keystroke	Key.space	n/a
370.292	0.076	740584	keystroke	w	n/a
370.412	0.09	740824	keystroke	h	n/a
370.697	0.1205	741394	keystroke	o	n/a
370.832	0.105	741664	keystroke	m	n/a
372.032	0.09	744064	keystroke	'	n/a
372.152	0.1055	744304	keystroke	s	n/a
372.392	0.075	744784	keystroke	t	n/a
372.602	0.09	745204	keystroke	Key.enter	n/a
372.7005	6.699	745401	prompt	n/a	testing furnished screenshot container\n
373.517	0.075	747034	keystroke	t	n/a
373.622	0.09	747244	keystroke	e	n/a
373.802	0.105	747604	keystroke	s	n/a
373.982	0.105	747964	keystroke	t	n/a
374.072	0.121	748144	keystroke	i	n/a
374.162	0.12	748324	keystroke	n	n/a
374.297	0.075	748594	keystroke	g	n/a
374.492	0.075	748984	keystroke	Key.space	n/a
374.747	0.105	749494	keystroke	f	n/a
374.837	0.09	749674	keystroke	u	n/a
374.942	0.075	749884	keystroke	r	n/a
375.047	0.075	750094	keystroke	n	n/a
375.152	0.09	750304	keystroke	i	n/a
375.257	0.09	750514	keystroke	s	n/a
375.362	0.09	750724	keystroke	h	n/a
375.467	0.06	750934	keystroke	e	n/a
375.632	0.06	751264	keystroke	d	n/a
375.752	0.09	751504	keystroke	Key.space	n/a
375.857	0.06	751714	keystroke	s	n/a
376.307	0.105	752614	keystroke	c	n/a
376.517	0.105	753034	keystroke	r	n/a
376.757	0.06	753514	keystroke	e	n/a
376.877	0.06	753754	keystroke	e	n/a
376.967	0.105	753934	keystroke	n	n/a
377.102	0.09	754204	keystroke	s	n/a
377.222	0.105	754444	keystroke	h	n/a
377.402	0.105	754804	keystroke	o	n/a
377.522	0.09	755044	keystroke	t	n/a
377.792	0.15	755584	keystroke	Key.space	n/a
378.017	0.09	756034	keystroke	c	n/a
378.092	0.165	756184	keystroke	o	n/a
378.197	0.135	756394	keystroke	n	n/a
378.317	0.075	756634	keystroke	t	n/a
378.527	0.09	757054	keystroke	a	n/a
378.587	0.12	757174	keystroke	i	n/a
378.677	0.135	757354	keystroke	n	n/a
378.797	0.18	757594	keystroke	e	n/a
379.007	0.09	758014	keystroke	r	n/a
379.322	0.075	758644	keystroke	Key.enter	n/a
379.403	4.737	758806	prompt	n/a	nose rules cycling geneva\n
380.012	0.09	760024	keystroke	n	n/a
380.147	0.12	760294	keystroke	o	n/a
380.252	0.06	760504	keystroke	s	n/a
380.447	0.09	760894	keystroke	e	n/a
380.582	0.105	761164	keystroke	Key.space	n/a
380.702	0.075	761404	keystroke	r	n/a
380.792	0.105	761584	keystroke	u	n/a
381.002	0.075	762004	keystroke	l	n/a
381.122	0.075	762244	keystroke	e	n/a
381.303	0.089	762606	keystroke	s	n/a
381.407	0.105	762814	keystroke	Key.space	n/a
381.602	0.075	763204	keystroke	c	n/a
381.692	0.075	763384	keystroke	y	n/a
381.857	0.06	763714	keystroke	c	n/a
381.977	0.105	763954	keystroke	l	n/a
382.217	0.1355	764434	keystroke	i	n/a
382.3375	0.105	764675	keystroke	n	n/a
382.4725	0.06	764945	keystroke	g	n/a
382.5775	0.09	765155	keystroke	Key.space	n/a
382.7875	0.06	765575	keystroke	g	n/a
382.9825	0.06	765965	keystroke	e	n/a
383.0725	0.075	766145	keystroke	n	n/a
383.1325	0.06	766265	keystroke	e	n/a
383.7475	0.06	767495	keystroke	v	n/a
383.9275	0.075	767855	keystroke	a	n/a
384.0625	0.075	768125	keystroke	Key.enter	n/a
384.145	6.7145	768290	prompt	n/a	proportion institutions dolls touring\n
384.8125	0.075	769625	keystroke	p	n/a
384.9775	0.075	769955	keystroke	r	n/a
385.1125	0.09	770225	keystroke	o	n/a
385.3675	0.075	770735	keystroke	p	n/a
385.5625	0.075	771125	keystroke	o	n/a
385.7725	0.075	771545	keystroke	r	n/a
386.0275	0.075	772055	keystroke	t	n/a
386.3125	0.075	772625	keystroke	i	n/a
386.4625	0.15	772925	keystroke	o	n/a
386.5675	0.105	773135	keystroke	n	n/a
386.7775	0.09	773555	keystroke	Key.space	n/a
387.0025	0.135	774005	keystroke	i	n/a
387.1225	0.12	774245	keystroke	n	n/a
387.3775	0.09	774755	keystroke	s	n/a
387.5725	0.075	775145	keystroke	t	n/a
387.6625	0.075	775325	keystroke	i	n/a
387.7385	0.074	775477	keystroke	t	n/a
387.8575	0.075	775715	keystroke	u	n/a
388.1425	0.075	776285	keystroke	t	n/a
388.2475	0.09	776495	keystroke	i	n/a
388.4125	0.165	776825	keystroke	o	n/a
388.5325	0.09	777065	keystroke	n	n/a
388.6375	0.075	777275	keystroke	s	n/a
388.7575	0.105	777515	keystroke	Key.space	n/a
389.0425	0.105	778085	keystroke	d	n/a
389.1625	0.105	778325	keystroke	o	n/a
389.4325	0.015	778865	keystroke	l	n/a
389.4925	0.075	778985	keystroke	l	n/a
389.5825	0.09	779165	keystroke	s	n/a
389.7175	0.09	779435	keystroke	Key.space	n/a
389.9125	0.06	779825	keystroke	t	n/a
390.0025	0.105	780005	keystroke	o	n/a
390.2125	0.075	780425	keystroke	u	n/a
390.2725	0.075	780545	keystroke	r	n/a
390.3775	0.135	780755	keystroke	i	n/a
390.4825	0.105	780965	keystroke	n	n/a
390.5725	0.075	781145	keystroke	g	n/a
390.8125	0.045	781625	keystroke	Key.enter	n/a
390.864	4.7355	781728	prompt	n/a	oxide doors doug concerts\n
391.6675	0.075	783335	keystroke	o	n/a
391.7875	0.06	783575	keystroke	x	n/a
391.8775	0.09	783755	keystroke	i	n/a
392.0425	0.12	784085	keystroke	d	n/a
392.4325	0.165	784865	keystroke	e	n/a
392.6875	0.09	785375	keystroke	Key.space	n/a
392.8075	0.09	785615	keystroke	d	n/a
392.9575	0.075	785915	keystroke	o	n/a
393.0925	0.105	786185	keystroke	o	n/a
393.2125	0.075	786425	keystroke	r	n/a
393.3925	0.09	786785	keystroke	s	n/a
393.4975	0.09	786995	keystroke	Key.space	n/a
393.6175	0.075	787235	keystroke	d	n/a
393.7075	0.12	787415	keystroke	o	n/a
393.9325	0.12	787865	keystroke	u	n/a
394.0375	0.075	788075	keystroke	g	n/a
394.2325	0.09	788465	keystroke	Key.space	n/a
394.3825	0.075	788765	keystroke	c	n/a
394.4725	0.165	788945	keystroke	o	n/a
394.5775	0.12	789155	keystroke	n	n/a
394.6225	0.06	789245	keystroke	c	n/a
394.7875	0.075	789575	keystroke	e	n/a
394.9675	0.06	789935	keystroke	r	n/a
395.1175	0.09	790235	keystroke	t	n/a
395.3575	0.075	790715	keystroke	s	n/a
395.5375	0.06	791075	keystroke	Key.enter	n/a
395.606	5.723	791212	prompt	n/a	restored handles point columns\n
396.2725	0.075	792545	keystroke	r	n/a
396.4375	0.075	792875	keystroke	e	n/a
396.6175	0.09	793235	keystroke	s	n/a
396.8125	0.09	793625	keystroke	t	n/a
396.9475	0.105	793895	keystroke	o	n/a
397.0675	0.15	794135	keystroke	r	n/a
397.1575	0.09	794315	keystroke	e	n/a
397.5625	0.075	795125	keystroke	d	n/a
397.7275	0.075	795455	keystroke	Key.space	n/a
397.9075	0.09	795815	keystroke	h	n/a
397.9825	0.075	795965	keystroke	a	n/a
398.0725	0.12	796145	keystroke	n	n/a
398.1475	0.075	796295	keystroke	d	n/a
398.2975	0.105	796595	keystroke	l	n/a
398.4475	0.06	796895	keystroke	e	n/a
398.6275	0.06	797255	keystroke	s	n/a
398.7025	0.09	797405	keystroke	Key.space	n/a
398.9725	0.09	797945	keystroke	p	n/a
399.1825	0.09	798365	keystroke	o	n/a
399.3625	0.135	798725	keystroke	i	n/a
399.4375	0.135	798875	keystroke	n	n/a
399.6025	0.075	799205	keystroke	t	n/a
399.7375	0.09	799475	keystroke	Key.space	n/a
399.9625	0.09	799925	keystroke	c	n/a
400.1725	0.075	800345	keystroke	o	n/a
400.3675	0.09	800735	keystroke	l	n/a
400.6075	0.09	801215	keystroke	u	n/a
400.8025	0.075	801605	keystroke	m	n/a
400.9375	0.09	801875	keystroke	n	n/a
401.0275	0.12	802055	keystroke	s	n/a
401.2375	0.09	802475	keystroke	Key.enter	n/a
401.333	7.557	802666	prompt	n/a	highlighted that'll maritime cookies\n
401.9725	0.09	803945	keystroke	h	n/a
402.1525	0.075	804305	keystroke	i	n/a
402.2575	0.075	804515	keystroke	g	n/a
402.3475	0.09	804695	keystroke	h	n/a
402.6025	0.12	805205	keystroke	l	n/a
402.8425	0.075	805685	keystroke	i	n/a
402.9025	0.075	805805	keystroke	g	n/a
403.0225	0.09	806045	keystroke	h	n/a
403.1725	0.06	806345	keystroke	t	n/a
403.4875	0.075	806975	keystroke	e	n/a
403.7575	0.09	807515	keystroke	d	n/a
403.9525	0.075	807905	keystroke	Key.space	n/a
404.1625	0.075	808325	keystroke	t	n/a
404.2675	0.075	808535	keystroke	h	n/a
404.4175	0.105	808835	keystroke	a	n/a
405.1975	0.075	810395	keystroke	t	n/a
405.5725	0.075	811145	keystroke	'	n/a
405.9925	0.045	811985	keystroke	l	n/a
406.0975	0.075	812195	keystroke	l	n/a
406.4425	0.075	812885	keystroke	Key.space	n/a
406.6375	0.09	813275	keystroke	m	n/a
406.7875	0.075	813575	keystroke	a	n/a
406.9675	0.06	813935	keystroke	r	n/a
407.0425	0.075	814085	keystroke	i	n/a
407.1175	0.075	814235	keystroke	t	n/a
407.2075	0.09	814415	keystroke	i	n/a
407.4025	0.06	814805	keystroke	m	n/a
407.5075	0.105	815015	keystroke	e	n/a
407.6725	0.105	815345	keystroke	Key.space	n/a
407.8375	0.09	815675	keystroke	c	n/a
407.9575	0.06	815915	keystroke	o	n/a
408.0925	0.105	816185	keystroke	o	n/a
408.2425	0.09	816485	keystroke	k	n/a
408.3925	0.105	816785	keystroke	i	n/a
408.4825	0.075	816965	keystroke	e	n/a
408.6475	0.075	817295	keystroke	s	n/a
408.8275	0.06	817655	keystroke	Key.enter	n/a
408.8955	4.119	817791	prompt	n/a	flame both sleeve trial\n
409.7275	0.06	819455	keystroke	f	n/a
409.7875	0.12	819575	keystroke	l	n/a
409.8925	0.075	819785	keystroke	a	n/a
409.9685	0.104	819937	keystroke	m	n/a
410.1325	0.09	820265	keystroke	e	n/a
410.2375	0.075	820475	keystroke	Key.space	n/a
410.4175	0.105	820835	keystroke	b	n/a
410.5975	0.075	821195	keystroke	o	n/a
410.6875	0.075	821375	keystroke	t	n/a
410.8225	0.09	821645	keystroke	h	n/a
410.942	0.135	821884	keystroke	Key.space	n/a
411.0925	0.075	822185	keystroke	s	n/a
411.182	0.09	822364	keystroke	l	n/a
411.3175	0.06	822635	keystroke	e	n/a
411.4675	0.075	822935	keystroke	e	n/a
411.6625	0.1045	823325	keystroke	v	n/a
411.7975	0.105	823595	keystroke	e	n/a
411.9325	0.09	823865	keystroke	Key.space	n/a
412.0675	0.09	824135	keystroke	t	n/a
412.1575	0.0745	824315	keystroke	r	n/a
412.3375	0.09	824675	keystroke	i	n/a
412.487	0.075	824974	keystroke	a	n/a
412.577	0.105	825154	keystroke	l	n/a
412.937	0.075	825874	keystroke	Key.enter	n/a
413.0195	8.65	826039	prompt	n/a	interests unnecessary warehouse congratulations\n
413.867	0.105	827734	keystroke	i	n/a
414.017	0.105	828034	keystroke	n	n/a
414.092	0.075	828184	keystroke	t	n/a
414.1825	0.105	828365	keystroke	e	n/a
414.317	0.1355	828634	keystroke	r	n/a
414.422	0.06	828844	keystroke	e	n/a
414.587	0.075	829174	keystroke	s	n/a
414.782	0.09	829564	keystroke	t	n/a
415.172	0.0605	830344	keystroke	s	n/a
415.307	0.105	830614	keystroke	Key.space	n/a
415.547	0.0755	831094	keystroke	u	n/a
416.0875	0.0445	832175	keystroke	n	n/a
416.2525	0.075	832505	keystroke	n	n/a
416.5225	0.0745	833045	keystroke	e	n/a
416.7325	0.1045	833465	keystroke	c	n/a
416.912	0.0755	833824	keystroke	e	n/a
417.1075	0.0445	834215	keystroke	s	n/a
417.2275	0.06	834455	keystroke	s	n/a
417.392	0.06	834784	keystroke	a	n/a
417.542	0.075	835084	keystroke	r	n/a
417.632	0.105	835264	keystroke	y	n/a
417.857	0.105	835714	keystroke	Key.space	n/a
417.977	0.03	835954	keystroke	w	n/a
418.112	0.09	836224	keystroke	a	n/a
418.337	0.12	836674	keystroke	r	n/a
418.382	0.09	836764	keystroke	e	n/a
418.473	0.0895	836946	keystroke	h	n/a
418.697	0.09	837394	keystroke	o	n/a
418.907	0.105	837814	keystroke	u	n/a
418.967	0.06	837934	keystroke	s	n/a
419.132	0.09	838264	keystroke	e	n/a
419.267	0.105	838534	keystroke	Key.space	n/a
419.477	0.1055	838954	keystroke	c	n/a
419.567	0.12	839134	keystroke	o	n/a
419.627	0.135	839254	keystroke	n	n/a
419.747	0.09	839494	keystroke	g	n/a
419.838	0.089	839676	keystroke	r	n/a
420.032	0.105	840064	keystroke	a	n/a
420.227	0.105	840454	keystroke	t	n/a
420.407	0.09	840814	keystroke	u	n/a
420.647	0.105	841294	keystroke	l	n/a
420.767	0.075	841534	keystroke	a	n/a
420.947	0.09	841894	keystroke	t	n/a
421.007	0.105	842014	keystroke	i	n/a
421.157	0.165	842314	keystroke	o	n/a
421.262	0.12	842524	keystroke	n	n/a
421.412	0.075	842824	keystroke	s	n/a
421.562	0.105	843124	keystroke	Key.enter	n/a
421.678	5.376	843356	prompt	n/a	issn trying woods emerald\n
422.477	0.09	844954	keystroke	i	n/a
422.702	0.06	845404	keystroke	s	n/a
422.837	0.075	845674	keystroke	s	n/a
422.987	0.075	845974	keystroke	n	n/a
423.167	0.09	846334	keystroke	Key.space	n/a
423.347	0.09	846694	keystroke	t	n/a
423.452	0.105	846904	keystroke	r	n/a
423.512	0.105	847024	keystroke	y	n/a
423.737	0.12	847474	keystroke	i	n/a
423.827	0.12	847654	keystroke	n	n/a
424.052	0.045	848104	keystroke	Key.space	n/a
424.412	0.075	848824	keystroke	Key.backspace	n/a
424.772	0.075	849544	keystroke	g	n/a
424.892	0.09	849784	keystroke	Key.space	n/a
425.027	0.075	850054	keystroke	w	n/a
425.207	0.045	850414	keystroke	o	n/a
425.312	0.075	850624	keystroke	o	n/a
425.432	0.12	850864	keystroke	d	n/a
425.522	0.105	851044	keystroke	s	n/a
425.717	0.09	851434	keystroke	Key.space	n/a
425.957	0.06	851914	keystroke	e	n/a
426.062	0.105	852124	keystroke	m	n/a
426.122	0.075	852244	keystroke	e	n/a
426.302	0.06	852604	keystroke	r	n/a
426.482	0.075	852964	keystroke	a	n/a
426.572	0.075	853144	keystroke	l	n/a
426.677	0.075	853354	keystroke	d	n/a
426.977	0.075	853954	keystroke	Key.enter	n/a
427.0585	5.3505	854117	prompt	n/a	pale clearly training browsing\n
427.787	0.075	855574	keystroke	p	n/a
427.997	0.09	855994	keystroke	a	n/a
428.117	0.09	856234	keystroke	l	n/a
428.312	0.075	856624	keystroke	e	n/a
428.447	0.105	856894	keystroke	Key.space	n/a
428.657	0.06	857314	keystroke	c	n/a
428.747	0.09	857494	keystroke	l	n/a
428.852	0.045	857704	keystroke	e	n/a
429.002	0.09	858004	keystroke	a	n/a
429.152	0.075	858304	keystroke	r	n/a
429.272	0.06	858544	keystroke	l	n/a
429.422	0.09	858844	keystroke	y	n/a
429.647	0.075	859294	keystroke	Key.space	n/a
429.857	0.15	859714	keystroke	t	n/a
429.962	0.09	859924	keystroke	r	n/a
430.172	0.075	860344	keystroke	a	n/a
430.217	0.135	860434	keystroke	i	n/a
430.367	0.09	860734	keystroke	n	n/a
430.502	0.135	861004	keystroke	i	n/a
430.577	0.105	861154	keystroke	n	n/a
430.727	0.06	861454	keystroke	g	n/a
430.877	0.09	861754	keystroke	Key.space	n/a
431.072	0.09	862144	keystroke	b	n/a
431.177	0.075	862354	keystroke	r	n/a
431.267	0.12	862534	keystroke	o	n/a
431.402	0.105	862804	keystroke	w	n/a
431.627	0.09	863254	keystroke	s	n/a
431.702	0.15	863404	keystroke	i	n/a
431.807	0.105	863614	keystroke	n	n/a
431.927	0.075	863854	keystroke	g	n/a
432.332	0.075	864664	keystroke	Key.enter	n/a
432.4135	7.0155	864827	prompt	n/a	skip goto cancellation webmasters\n
433.067	0.06	866134	keystroke	s	n/a
433.187	0.06	866374	keystroke	k	n/a
433.352	0.075	866704	keystroke	i	n/a
433.547	0.075	867094	keystroke	p	n/a
433.952	0.0895	867904	keystroke	Key.space	n/a
434.1475	0.075	868295	keystroke	g	n/a
434.2375	0.074	868475	keystroke	o	n/a
434.3575	0.06	868715	keystroke	t	n/a
434.4315	0.09	868863	keystroke	o	n/a
434.6865	0.075	869373	keystroke	Key.space	n/a
435.0325	0.074	870065	keystroke	a	n/a
435.3915	0.075	870783	keystroke	Key.backspace	n/a
435.5265	0.091	871053	keystroke	c	n/a
435.6625	0.105	871325	keystroke	a	n/a
436.0075	0.105	872015	keystroke	n	n/a
436.2175	0.075	872435	keystroke	c	n/a
436.3975	0.089	872795	keystroke	e	n/a
436.6225	0.044	873245	keystroke	l	n/a
436.7275	0.09	873455	keystroke	l	n/a
436.8765	0.076	873753	keystroke	a	n/a
437.0565	0.091	874113	keystroke	t	n/a
437.1625	0.06	874325	keystroke	i	n/a
437.2975	0.134	874595	keystroke	o	n/a
437.4015	0.121	874803	keystroke	n	n/a
437.6565	0.09	875313	keystroke	Key.space	n/a
437.7775	0.09	875555	keystroke	w	n/a
437.9265	0.075	875853	keystroke	e	n/a
438.0315	0.061	876063	keystroke	b	n/a
438.2265	0.091	876453	keystroke	m	n/a
438.3025	0.075	876605	keystroke	a	n/a
438.4675	0.075	876935	keystroke	s	n/a
438.6625	0.09	877325	keystroke	t	n/a
438.7375	0.119	877475	keystroke	e	n/a
438.9015	0.09	877803	keystroke	r	n/a
439.0525	0.105	878105	keystroke	s	n/a
439.3365	0.09	878673	keystroke	Key.enter	n/a
439.4345	3.5795	878869	prompt	n/a	she goal henry slim\n
440.0125	0.075	880025	keystroke	s	n/a
440.1475	0.105	880295	keystroke	h	n/a
440.2815	0.076	880563	keystroke	e	n/a
440.4165	0.091	880833	keystroke	Key.space	n/a
440.5665	0.076	881133	keystroke	g	n/a
440.6565	0.121	881313	keystroke	o	n/a
440.8065	0.076	881613	keystroke	a	n/a
440.9115	0.09	881823	keystroke	l	n/a
441.0615	0.12	882123	keystroke	Key.space	n/a
441.2725	0.09	882545	keystroke	h	n/a
441.3625	0.06	882725	keystroke	e	n/a
441.4515	0.106	882903	keystroke	n	n/a
441.5725	0.089	883145	keystroke	r	n/a
441.6925	0.12	883385	keystroke	y	n/a
441.9315	0.09	883863	keystroke	Key.space	n/a
442.0815	0.061	884163	keystroke	s	n/a
442.1875	0.06	884375	keystroke	l	n/a
442.4575	0.044	884915	keystroke	i	n/a
442.7425	0.075	885485	keystroke	m	n/a
442.9375	0.075	885875	keystroke	Key.enter	n/a
443.02	6.161	886040	prompt	n/a	seriously duties resorts lincoln\n
443.5975	0.075	887195	keystroke	s	n/a
443.8215	0.06	887643	keystroke	e	n/a
444.0625	0.075	888125	keystroke	i	n/a
444.4065	0.075	888813	keystroke	Key.backspace	n/a
444.5425	0.075	889085	keystroke	r	n/a
444.7375	0.075	889475	keystroke	i	n/a
444.9025	0.075	889805	keystroke	o	n/a
445.0825	0.09	890165	keystroke	u	n/a
445.1875	0.09	890375	keystroke	s	n/a
445.3225	0.104	890645	keystroke	l	n/a
445.5015	0.09	891003	keystroke	y	n/a
445.6365	0.105	891273	keystroke	Key.space	n/a
445.7875	0.075	891575	keystroke	d	n/a
445.8775	0.105	891755	keystroke	u	n/a
445.9965	0.075	891993	keystroke	t	n/a
446.0875	0.09	892175	keystroke	i	n/a
446.2065	0.106	892413	keystroke	e	n/a
446.4325	0.09	892865	keystroke	s	n/a
446.5525	0.089	893105	keystroke	Key.space	n/a
446.7625	0.12	893525	keystroke	r	n/a
446.8375	0.06	893675	keystroke	e	n/a
447.0015	0.076	894003	keystroke	s	n/a
447.0925	0.104	894185	keystroke	o	n/a
447.2425	0.09	894485	keystroke	r	n/a
447.4215	0.091	894843	keystroke	t	n/a
447.6625	0.09	895325	keystroke	s	n/a
447.7825	0.104	895565	keystroke	Key.space	n/a
447.9475	0.105	895895	keystroke	l	n/a
448.1875	0.075	896375	keystroke	i	n/a
448.2765	0.091	896553	keystroke	n	n/a
448.3975	0.075	896795	keystroke	c	n/a
448.4875	0.075	896975	keystroke	o	n/a
448.6375	0.194	897275	keystroke	l	n/a
448.8175	0.105	897635	keystroke	n	n/a
449.0725	0.104	898145	keystroke	Key.enter	n/a
449.186	5.4525	898372	prompt	n/a	antonio fifth managers positive\n
449.7925	0.09	899585	keystroke	a	n/a
449.9125	0.089	899825	keystroke	n	n/a
450.1065	0.076	900213	keystroke	t	n/a
450.1975	0.104	900395	keystroke	o	n/a
450.3325	0.09	900665	keystroke	n	n/a
450.4675	0.104	900935	keystroke	i	n/a
451.0225	0.09	902045	keystroke	o	n/a
451.2475	0.075	902495	keystroke	Key.space	n/a
451.3825	0.075	902765	keystroke	f	n/a
451.4425	0.075	902885	keystroke	i	n/a
451.5475	0.09	903095	keystroke	f	n/a
451.6975	0.105	903395	keystroke	t	n/a
451.8325	0.09	903665	keystroke	h	n/a
452.0425	0.074	904085	keystroke	Key.space	n/a
452.2525	0.105	904505	keystroke	m	n/a
452.3715	0.031	904743	keystroke	a	n/a
452.4315	0.105	904863	keystroke	n	n/a
452.4925	0.06	904985	keystroke	a	n/a
452.6425	0.075	905285	keystroke	g	n/a
452.7775	0.075	905555	keystroke	e	n/a
452.9425	0.089	905885	keystroke	r	n/a
453.1525	0.075	906305	keystroke	s	n/a
453.2415	0.075	906483	keystroke	Key.space	n/a
453.4975	0.09	906995	keystroke	p	n/a
453.7065	0.076	907413	keystroke	o	n/a
453.7975	0.075	907595	keystroke	s	n/a
453.9175	0.09	907835	keystroke	i	n/a
454.0375	0.075	908075	keystroke	t	n/a
454.0975	0.075	908195	keystroke	i	n/a
454.2925	0.09	908585	keystroke	v	n/a
454.3975	0.105	908795	keystroke	e	n/a
454.5625	0.074	909125	keystroke	Key.enter	n/a
454.6435	6.76	909287	prompt	n/a	lookup genuine weed enlargement\n
455.2975	0.09	910595	keystroke	l	n/a
455.5075	0.06	911015	keystroke	o	n/a
455.6275	0.075	911255	keystroke	o	n/a
455.7775	0.105	911555	keystroke	k	n/a
455.9875	0.09	911975	keystroke	u	n/a
456.2425	0.1045	912485	keystroke	p	n/a
456.662	0.075	913324	keystroke	Key.space	n/a
456.857	0.045	913714	keystroke	g	n/a
456.962	0.06	913924	keystroke	e	n/a
457.172	0.09	914344	keystroke	n	n/a
457.337	0.09	914674	keystroke	u	n/a
457.517	0.15	915034	keystroke	i	n/a
457.622	0.09	915244	keystroke	n	n/a
457.877	0.015	915754	keystroke	e	n/a
457.937	0.074	915874	keystroke	Key.space	n/a
458.042	0.075	916084	keystroke	w	n/a
458.237	0.015	916474	keystroke	e	n/a
458.342	0.0605	916684	keystroke	e	n/a
458.552	0.0755	917104	keystroke	d	n/a
458.792	0.06	917584	keystroke	Key.space	n/a
458.987	0.105	917974	keystroke	e	n/a
459.182	0.09	918364	keystroke	n	n/a
459.392	0.09	918784	keystroke	l	n/a
459.512	0.075	919024	keystroke	a	n/a
459.647	0.075	919294	keystroke	r	n/a
459.872	0.045	919744	keystroke	g	n/a
459.962	0.09	919924	keystroke	e	n/a
460.112	0.075	920224	keystroke	m	n/a
460.202	0.09	920404	keystroke	e	n/a
460.277	0.09	920554	keystroke	n	n/a
460.427	0.105	920854	keystroke	t	n/a
461.327	0.075	922654	keystroke	Key.enter	n/a
461.419	8.4605	922838	prompt	n/a	springer holder disciplinary cnet\n
462.047	0.09	924094	keystroke	s	n/a
462.152	0.09	924304	keystroke	p	n/a
462.332	0.105	924664	keystroke	r	n/a
462.392	0.165	924784	keystroke	i	n/a
462.542	0.09	925084	keystroke	n	n/a
462.602	0.06	925204	keystroke	g	n/a
462.722	0.09	925444	keystroke	e	n/a
462.902	0.045	925804	keystroke	r	n/a
463.172	0.105	926344	keystroke	Key.space	n/a
463.577	0.075	927154	keystroke	h	n/a
463.802	0.075	927604	keystroke	o	n/a
463.997	0.075	927994	keystroke	l	n/a
464.102	0.075	928204	keystroke	d	n/a
464.237	0.06	928474	keystroke	e	n/a
464.387	0.075	928774	keystroke	r	n/a
464.612	0.09	929224	keystroke	Key.space	n/a
464.837	0.09	929674	keystroke	d	n/a
465.002	0.09	930004	keystroke	i	n/a
465.707	0.075	931414	keystroke	s	n/a
466.742	0.06	933484	keystroke	c	n/a
466.907	0.075	933814	keystroke	i	n/a
467.177	0.15	934354	keystroke	p	n/a
467.297	0.105	934594	keystroke	l	n/a
467.477	0.15	934954	keystroke	i	n/a
467.582	0.135	935164	keystroke	n	n/a
467.702	0.09	935404	keystroke	a	n/a
467.867	0.075	935734	keystroke	r	n/a
468.002	0.075	936004	keystroke	y	n/a
468.497	0.075	936994	keystroke	Key.space	n/a
468.647	0.09	937294	keystroke	c	n/a
468.812	0.09	937624	keystroke	n	n/a
469.067	0.06	938134	keystroke	e	n/a
469.262	0.09	938524	keystroke	t	n/a
469.817	0.06	939634	keystroke	Key.enter	n/a
469.884	8.515	939768	prompt	n/a	slideshow list awarded roughly\n
470.537	0.075	941074	keystroke	s	n/a
470.657	0.09	941314	keystroke	l	n/a
470.837	0.09	941674	keystroke	i	n/a
470.942	0.075	941884	keystroke	d	n/a
471.062	0.09	942124	keystroke	e	n/a
471.257	0.045	942514	keystroke	s	n/a
472.652	0.12	945304	keystroke	h	n/a
472.937	0.09	945874	keystroke	o	n/a
473.117	0.045	946234	keystroke	w	n/a
473.237	0.09	946474	keystroke	Key.space	n/a
473.417	0.075	946834	keystroke	l	n/a
473.597	0.075	947194	keystroke	i	n/a
473.657	0.09	947314	keystroke	s	n/a
473.822	0.075	947644	keystroke	t	n/a
473.927	0.09	947854	keystroke	Key.space	n/a
474.047	0.09	948094	keystroke	a	n/a
474.287	0.06	948574	keystroke	w	n/a
474.437	0.075	948874	keystroke	a	n/a
474.632	0.06	949264	keystroke	r	n/a
474.812	0.105	949624	keystroke	d	n/a
474.977	0.09	949954	keystroke	e	n/a
475.142	0.06	950284	keystroke	d	n/a
475.262	0.09	950524	keystroke	Key.space	n/a
475.682	0.06	951364	keystroke	r	n/a
475.772	0.105	951544	keystroke	o	n/a
475.982	0.075	951964	keystroke	u	n/a
476.102	0.075	952204	keystroke	g	n/a
476.222	0.09	952444	keystroke	h	n/a
476.417	0.09	952834	keystroke	t	n/a
476.837	0.06	953674	keystroke	Key.backspace	n/a
477.257	0.075	954514	keystroke	l	n/a
477.407	0.06	954814	keystroke	u	n/a
477.902	0.075	955804	keystroke	Key.backspace	n/a
477.992	0.06	955984	keystroke	y	n/a
478.322	0.075	956644	keystroke	Key.enter	n/a
478.403	8.6065	956806	prompt	n/a	desirable hydraulic complexity allocation\n
479.177	0.06	958354	keystroke	d	n/a
479.297	0.06	958594	keystroke	e	n/a
479.462	0.09	958924	keystroke	s	n/a
479.567	0.09	959134	keystroke	i	n/a
479.792	0.075	959584	keystroke	r	n/a
480.182	0.075	960364	keystroke	a	n/a
480.287	0.09	960574	keystroke	b	n/a
480.482	0.09	960964	keystroke	l	n/a
480.587	0.075	961174	keystroke	e	n/a
480.692	0.105	961384	keystroke	Key.space	n/a
480.902	0.105	961804	keystroke	h	n/a
481.067	0.09	962134	keystroke	y	n/a
481.172	0.075	962344	keystroke	d	n/a
481.382	0.06	962764	keystroke	r	n/a
481.547	0.075	963094	keystroke	a	n/a
481.637	0.09	963274	keystroke	u	n/a
481.877	0.105	963754	keystroke	l	n/a
482.102	0.105	964204	keystroke	i	n/a
482.222	0.06	964444	keystroke	c	n/a
482.402	0.06	964804	keystroke	Key.space	n/a
482.522	0.075	965044	keystroke	c	n/a
482.627	0.18	965254	keystroke	o	n/a
482.792	0.09	965584	keystroke	m	n/a
482.987	0.135	965974	keystroke	p	n/a
483.077	0.105	966154	keystroke	l	n/a
483.212	0.09	966424	keystroke	e	n/a
483.542	0.105	967084	keystroke	x	n/a
483.662	0.09	967324	keystroke	i	n/a
483.902	0.105	967804	keystroke	t	n/a
484.067	0.06	968134	keystroke	y	n/a
484.337	0.075	968674	keystroke	Key.space	n/a
484.487	0.09	968974	keystroke	a	n/a
484.667	0.045	969334	keystroke	l	n/a
484.787	0.09	969574	keystroke	l	n/a
484.952	0.09	969904	keystroke	o	n/a
485.072	0.06	970144	keystroke	c	n/a
485.207	0.09	970414	keystroke	a	n/a
485.387	0.09	970774	keystroke	t	n/a
485.447	0.135	970894	keystroke	i	n/a
485.597	0.135	971194	keystroke	i	n/a
486.122	0.075	972244	keystroke	Key.backspace	n/a
486.512	0.18	973024	keystroke	o	n/a
486.647	0.105	973294	keystroke	n	n/a
