onset	duration	sample	value	key	prompt_text
2.2085	15.667	4417	prompt	n/a	the quick brown fox jumps over a lazy dog\n
6.2635	0	12527	keystroke_t	t	n/a
6.3215	0.061	12643	keystroke_h	h	n/a
6.533	0.0595	13066	keystroke_i	i	n/a
6.818	0.045	13636	keystroke_e	e	n/a
7.326	0.0605	14652	keystroke_Key.backspace	Key.backspace	n/a
7.8225	0.0445	15645	keystroke_e	e	n/a
8.0615	0.061	16123	keystroke_Key.backspace	Key.backspace	n/a
8.272	0.0605	16544	keystroke_Key.backspace	Key.backspace	n/a
8.3625	0.06	16725	keystroke_e	e	n/a
8.557	0.0905	17114	keystroke_Key.space	Key.space	n/a
9.1425	0.06	18285	keystroke_q	q	n/a
9.232	0.0755	18464	keystroke_u	u	n/a
9.5175	0.0895	19035	keystroke_i	i	n/a
9.8325	0.045	19665	keystroke_c	c	n/a
9.9075	0.075	19815	keystroke_k	k	n/a
10.222	0.105	20444	keystroke_Key.space	Key.space	n/a
10.9575	0.0745	21915	keystroke_b	b	n/a
11.1675	0.0745	22335	keystroke_r	r	n/a
11.272	0.09	22544	keystroke_o	o	n/a
11.467	0.0755	22934	keystroke_w	w	n/a
11.588	0.074	23176	keystroke_n	n	n/a
11.8125	0.105	23625	keystroke_Key.space	Key.space	n/a
11.9775	0.0895	23955	keystroke_f	f	n/a
12.127	0.075	24254	keystroke_o	o	n/a
12.2775	0.09	24555	keystroke_x	x	n/a
12.487	0.12	24974	keystroke_Key.space	Key.space	n/a
12.9075	0.075	25815	keystroke_j	j	n/a
13.2075	0.1045	26415	keystroke_u	u	n/a
13.5525	0.074	27105	keystroke_m	m	n/a
13.7015	0.121	27403	keystroke_p	p	n/a
13.8965	0.105	27793	keystroke_s	s	n/a
14.257	0.12	28514	keystroke_Key.space	Key.space	n/a
14.4665	0.091	28933	keystroke_o	o	n/a
14.5725	0.105	29145	keystroke_v	v	n/a
14.7825	0.089	29565	keystroke_e	e	n/a
14.8415	0.09	29683	keystroke_r	r	n/a
14.977	0.105	29954	keystroke_Key.space	Key.space	n/a
15.143	0.1045	30286	keystroke_a	a	n/a
15.4715	0.136	30943	keystroke_Key.space	Key.space	n/a
15.6665	0.1355	31333	keystroke_l	l	n/a
15.907	0.1055	31814	keystroke_a	a	n/a
16.2375	0.105	32475	keystroke_z	z	n/a
16.4625	0.0445	32925	keystroke_y	y	n/a
16.717	0.075	33434	keystroke_Key.space	Key.space	n/a
16.897	0.0155	33794	keystroke_d	d	n/a
17.212	0.105	34424	keystroke_o	o	n/a
17.4225	0.0755	34845	keystroke_g	g	n/a
17.7975	0.0745	35595	keystroke_Key.enter	Key.enter	n/a
17.882	15.388	35764	prompt	n/a	rocks consultation capability seas\n
18.682	0.0605	37364	keystroke_r	r	n/a
18.7875	0.09	37575	keystroke_o	o	n/a
18.968	0.0595	37936	keystroke_c	c	n/a
19.0875	0.075	38175	keystroke_k	k	n/a
19.2375	0.075	38475	keystroke_s	s	n/a
19.4025	0.09	38805	keystroke_Key.space	Key.space	n/a
19.9125	0.075	39825	keystroke_c	c	n/a
20.0325	0.105	40065	keystroke_o	o	n/a
20.1825	0.0905	40365	keystroke_n	n	n/a
20.4075	0.045	40815	keystroke_s	s	n/a
20.5875	0.06	41175	keystroke_u	u	n/a
20.7825	0.105	41565	keystroke_l	l	n/a
20.9775	0.06	41955	keystroke_r	r	n/a
21.1125	0.09	42225	keystroke_a	a	n/a
21.308	0.0745	42616	keystroke_r	r	n/a
21.4125	0.089	42825	keystroke_i	i	n/a
21.4875	0.089	42975	keystroke_o	o	n/a
21.832	0.0595	43664	keystroke_Key.backspace	Key.backspace	n/a
22.0125	0.0595	44025	keystroke_Key.backspace	Key.backspace	n/a
22.1925	0.06	44385	keystroke_Key.backspace	Key.backspace	n/a
22.3725	0.06	44745	keystroke_Key.backspace	Key.backspace	n/a
22.672	0.0745	45344	keystroke_Key.backspace	Key.backspace	n/a
22.8975	0.0455	45795	keystroke_t	t	n/a
22.9125	0.015	45825	keystroke_r	r	n/a
23.0765	0.075	46153	keystroke_a	a	n/a
23.288	0.06	46576	keystroke_t	t	n/a
23.7365	0.046	47473	keystroke_Key.backspace	Key.backspace	n/a
23.9315	0.046	47863	keystroke_Key.backspace	Key.backspace	n/a
24.1125	0.075	48225	keystroke_Key.backspace	Key.backspace	n/a
24.3075	0.075	48615	keystroke_a	a	n/a
24.5025	0.06	49005	keystroke_t	t	n/a
24.6675	0.075	49335	keystroke_i	i	n/a
24.7875	0.12	49575	keystroke_o	o	n/a
24.9525	0.0895	49905	keystroke_n	n	n/a
25.522	0.1055	51044	keystroke_Key.space	Key.space	n/a
26.5115	0.0755	53023	keystroke_c	c	n/a
26.677	0.0905	53354	keystroke_a	a	n/a
26.9025	0.1345	53805	keystroke_p	p	n/a
27.2025	0.09	54405	keystroke_a	a	n/a
27.8925	0.075	55785	keystroke_b	b	n/a
28.0275	0.09	56055	keystroke_i	i	n/a
28.2225	0.15	56445	keystroke_l	l	n/a
28.432	0.1205	56864	keystroke_i	i	n/a
28.7175	0.075	57435	keystroke_t	t	n/a
28.8375	0.075	57675	keystroke_i	i	n/a
29.137	0.0755	58274	keystroke_e	e	n/a
29.3475	0.0595	58695	keystroke_s	s	n/a
29.5275	0.1045	59055	keystroke_Key.space	Key.space	n/a
29.8575	0.1045	59715	keystroke_s	s	n/a
30.0825	0.0745	60165	keystroke_e	e	n/a
30.2025	0.0895	60405	keystroke_a	a	n/a
30.7115	0.06	61423	keystroke_s	s	n/a
33.265	0.001	66530	keystroke_Key.enter	Key.enter	n/a
33.2755	8.0435	66551	prompt	n/a	freely thickness tones realize\n
34.1625	0.0745	68325	keystroke_f	f	n/a
34.357	0.06	68714	keystroke_r	r	n/a
34.8225	0.06	69645	keystroke_e	e	n/a
35.153	0.0445	70306	keystroke_e	e	n/a
35.317	0.0605	70634	keystroke_l	l	n/a
35.5575	0.0305	71115	keystroke_y	y	n/a
35.8125	0.075	71625	keystroke_Key.space	Key.space	n/a
36.1575	0.0745	72315	keystroke_t	t	n/a
36.247	0.075	72494	keystroke_h	h	n/a
36.427	0.0755	72854	keystroke_i	i	n/a
36.622	0.061	73244	keystroke_c	c	n/a
36.772	0.0755	73544	keystroke_k	k	n/a
37.2525	0.1045	74505	keystroke_n	n	n/a
37.522	0.09	75044	keystroke_e	e	n/a
37.7475	0.06	75495	keystroke_s	s	n/a
37.897	0.075	75794	keystroke_s	s	n/a
38.017	0.1205	76034	keystroke_Key.space	Key.space	n/a
38.2275	0.0595	76455	keystroke_t	t	n/a
38.332	0.105	76664	keystroke_o	o	n/a
38.482	0.105	76964	keystroke_n	n	n/a
38.7075	0.0595	77415	keystroke_e	e	n/a
38.9175	0.0745	77835	keystroke_s	s	n/a
39.112	0.0905	78224	keystroke_Key.space	Key.space	n/a
39.7425	0.09	79485	keystroke_r	r	n/a
39.8175	0.09	79635	keystroke_e	e	n/a
40.042	0.03	80084	keystroke_a	a	n/a
40.162	0.06	80324	keystroke_l	l	n/a
40.3865	0.0905	80773	keystroke_i	i	n/a
40.537	0.09	81074	keystroke_z	z	n/a
40.7775	0.075	81555	keystroke_e	e	n/a
41.242	0.0755	82484	keystroke_Key.enter	Key.enter	n/a
41.3245	11.05	82649	prompt	n/a	letting transport australia neither\n
42.217	0.105	84434	keystroke_l	l	n/a
42.337	0.075	84674	keystroke_e	e	n/a
42.5625	0.059	85125	keystroke_t	t	n/a
42.743	0.075	85486	keystroke_t	t	n/a
42.833	0.06	85666	keystroke_i	i	n/a
42.953	0.089	85906	keystroke_n	n	n/a
43.0875	0.0745	86175	keystroke_g	g	n/a
43.1775	0.12	86355	keystroke_Key.space	Key.space	n/a
43.522	0.0755	87044	keystroke_t	t	n/a
43.7025	0.075	87405	keystroke_r	r	n/a
43.853	0.09	87706	keystroke_a	a	n/a
43.988	0.075	87976	keystroke_n	n	n/a
44.182	0.0755	88364	keystroke_s	s	n/a
44.422	0.106	88844	keystroke_p	p	n/a
44.6475	0.075	89295	keystroke_o	o	n/a
44.7825	0.09	89565	keystroke_r	r	n/a
44.9925	0.0755	89985	keystroke_t	t	n/a
45.112	0.1355	90224	keystroke_Key.space	Key.space	n/a
45.2925	0.09	90585	keystroke_a	a	n/a
45.5025	0.075	91005	keystroke_u	u	n/a
46.0125	0.105	92025	keystroke_s	s	n/a
46.2365	0.061	92473	keystroke_t	t	n/a
46.4175	0.059	92835	keystroke_r	r	n/a
46.6265	0.0755	93253	keystroke_a	a	n/a
46.927	0.09	93854	keystroke_l	l	n/a
47.137	0.0755	94274	keystroke_i	i	n/a
47.542	0.0905	95084	keystroke_a	a	n/a
47.7975	0.105	95595	keystroke_Key.space	Key.space	n/a
48.1575	0.0755	96315	keystroke_n	n	n/a
48.337	0.0755	96674	keystroke_e	e	n/a
48.5025	0.06	97005	keystroke_i	i	n/a
48.728	0.0735	97456	keystroke_g	g	n/a
48.9225	0.045	97845	keystroke_h	h	n/a
49.4175	0.045	98835	keystroke_Key.backspace	Key.backspace	n/a
49.5975	0.075	99195	keystroke_Key.backspace	Key.backspace	n/a
49.7775	0.06	99555	keystroke_t	t	n/a
49.8975	0.075	99795	keystroke_h	h	n/a
50.078	0.0595	100156	keystroke_e	e	n/a
50.1525	0.1045	100305	keystroke_r	r	n/a
52.3595	0.0125	104719	keystroke_Key.enter	Key.enter	n/a
52.379	9.52	104758	prompt	n/a	floating word memorabilia cooler\n
53.212	0.09	106424	keystroke_f	f	n/a
53.347	0.0605	106694	keystroke_l	l	n/a
53.542	0.075	107084	keystroke_o	o	n/a
53.632	0.09	107264	keystroke_a	a	n/a
53.8275	0.075	107655	keystroke_t	t	n/a
53.9625	0.06	107925	keystroke_i	i	n/a
54.1125	0.0745	108225	keystroke_n	n	n/a
54.248	0.075	108496	keystroke_g	g	n/a
54.367	0.0905	108734	keystroke_Key.space	Key.space	n/a
54.7125	0.045	109425	keystroke_w	w	n/a
54.8165	0.0755	109633	keystroke_o	o	n/a
54.9975	0.0605	109995	keystroke_r	r	n/a
55.2075	0.074	110415	keystroke_d	d	n/a
55.3275	0.105	110655	keystroke_Key.space	Key.space	n/a
55.5375	0.105	111075	keystroke_m	m	n/a
55.717	0.075	111434	keystroke_e	e	n/a
55.883	0.09	111766	keystroke_m	m	n/a
56.093	0.074	112186	keystroke_o	o	n/a
56.303	0.09	112606	keystroke_r	r	n/a
57.5775	0.105	115155	keystroke_a	a	n/a
57.8915	0.075	115783	keystroke_b	b	n/a
58.012	0.0755	116024	keystroke_i	i	n/a
58.2375	0.105	116475	keystroke_l	l	n/a
58.418	0.1045	116836	keystroke_i	i	n/a
58.8675	0.09	117735	keystroke_a	a	n/a
59.2725	0.12	118545	keystroke_Key.space	Key.space	n/a
59.5725	0.0745	119145	keystroke_c	c	n/a
59.692	0.0905	119384	keystroke_o	o	n/a
59.932	0.075	119864	keystroke_o	o	n/a
60.187	0.076	120374	keystroke_l	l	n/a
60.3975	0.0595	120795	keystroke_e	e	n/a
60.487	0.0905	120974	keystroke_r	r	n/a
61.8225	0.075	123645	keystroke_Key.enter	Key.enter	n/a
61.904	6.9105	123808	prompt	n/a	identify cotton verify lime\n
62.6475	0.075	125295	keystroke_i	i	n/a
62.843	0.0745	125686	keystroke_d	d	n/a
63.0375	0.045	126075	keystroke_e	e	n/a
63.1875	0.0895	126375	keystroke_n	n	n/a
63.472	0.0755	126944	keystroke_t	t	n/a
63.6365	0.061	127273	keystroke_i	i	n/a
63.8025	0.09	127605	keystroke_f	f	n/a
64.0275	0.045	128055	keystroke_y	y	n/a
64.2965	0.076	128593	keystroke_Key.space	Key.space	n/a
64.6125	0.06	129225	keystroke_c	c	n/a
64.7025	0.075	129405	keystroke_o	o	n/a
65.0175	0.045	130035	keystroke_t	t	n/a
65.1825	0.075	130365	keystroke_t	t	n/a
65.6025	0.075	131205	keystroke_o	o	n/a
65.8275	0.075	131655	keystroke_n	n	n/a
66.0525	0.09	132105	keystroke_Key.space	Key.space	n/a
66.2775	0.074	132555	keystroke_v	v	n/a
66.4415	0.06	132883	keystroke_e	e	n/a
66.5025	0.0745	133005	keystroke_r	r	n/a
66.6965	0.076	133393	keystroke_i	i	n/a
66.877	0.0755	133754	keystroke_f	f	n/a
67.042	0.045	134084	keystroke_y	y	n/a
67.297	0.1055	134594	keystroke_Key.space	Key.space	n/a
67.7175	0.06	135435	keystroke_l	l	n/a
67.8675	0.09	135735	keystroke_i	i	n/a
68.0475	0.105	136095	keystroke_m	m	n/a
68.2425	0.06	136485	keystroke_e	e	n/a
68.7515	0.061	137503	keystroke_Key.enter	Key.enter	n/a
68.82	6.8635	137640	prompt	n/a	doing order upgrading saying\n
69.562	0.075	139124	keystroke_d	d	n/a
69.697	0.075	139394	keystroke_o	o	n/a
69.892	0.09	139784	keystroke_i	i	n/a
70.087	0.0755	140174	keystroke_n	n	n/a
70.1175	0.075	140235	keystroke_g	g	n/a
70.312	0.0905	140624	keystroke_Key.space	Key.space	n/a
70.4775	0.09	140955	keystroke_o	o	n/a
70.657	0.06	141314	keystroke_r	r	n/a
70.8825	0.0745	141765	keystroke_d	d	n/a
71.077	0.0445	142154	keystroke_e	e	n/a
71.1525	0.089	142305	keystroke_r	r	n/a
71.2565	0.1055	142513	keystroke_Key.space	Key.space	n/a
72.352	0.075	144704	keystroke_u	u	n/a
72.532	0.12	145064	keystroke_p	p	n/a
72.862	0.075	145724	keystroke_g	g	n/a
73.057	0.075	146114	keystroke_r	r	n/a
73.192	0.09	146384	keystroke_a	a	n/a
73.4325	0.0745	146865	keystroke_d	d	n/a
73.627	0.105	147254	keystroke_i	i	n/a
73.8075	0.09	147615	keystroke_n	n	n/a
73.9275	0.0745	147855	keystroke_g	g	n/a
74.107	0.105	148214	keystroke_Key.space	Key.space	n/a
74.452	0.076	148904	keystroke_s	s	n/a
74.587	0.105	149174	keystroke_a	a	n/a
74.783	0.059	149566	keystroke_y	y	n/a
75.007	0.0745	150014	keystroke_i	i	n/a
75.1715	0.0755	150343	keystroke_n	n	n/a
75.2165	0.075	150433	keystroke_g	g	n/a
75.6215	0.06	151243	keystroke_Key.enter	Key.enter	n/a
75.6905	7.103	151381	prompt	n/a	heavy relates huge fallen\n
76.447	0.075	152894	keystroke_h	h	n/a
76.597	0.045	153194	keystroke_e	e	n/a
76.717	0.075	153434	keystroke_a	a	n/a
76.9425	0.075	153885	keystroke_v	v	n/a
77.0775	0.06	154155	keystroke_y	y	n/a
77.332	0.06	154664	keystroke_Key.space	Key.space	n/a
77.752	0.0905	155504	keystroke_r	r	n/a
77.8565	0.151	155713	keystroke_e	e	n/a
78.1275	0.075	156255	keystroke_l	l	n/a
78.3975	0.09	156795	keystroke_a	a	n/a
78.6515	0.0605	157303	keystroke_t	t	n/a
78.787	0.105	157574	keystroke_e	e	n/a
79.072	0.09	158144	keystroke_s	s	n/a
79.356	0.091	158712	keystroke_Key.space	Key.space	n/a
79.7325	0.0895	159465	keystroke_h	h	n/a
80.032	0.06	160064	keystroke_u	u	n/a
80.392	0.075	160784	keystroke_g	g	n/a
80.617	0.06	161234	keystroke_e	e	n/a
80.797	0.09	161594	keystroke_Key.space	Key.space	n/a
81.037	0.0605	162074	keystroke_f	f	n/a
81.232	0.0745	162464	keystroke_a	a	n/a
81.3965	0.1065	162793	keystroke_l	l	n/a
81.5765	0.1505	163153	keystroke_l	l	n/a
81.862	0.06	163724	keystroke_e	e	n/a
82.012	0.0755	164024	keystroke_n	n	n/a
82.717	0.075	165434	keystroke_Key.enter	Key.enter	n/a
82.7985	15.58	165597	prompt	n/a	jamaica distributors presence gadgets\n
83.647	0.0605	167294	keystroke_j	j	n/a
83.827	0.0755	167654	keystroke_a	a	n/a
83.947	0.105	167894	keystroke_m	m	n/a
84.187	0.075	168374	keystroke_i	i	n/a
84.5175	0.074	169035	keystroke_c	c	n/a
84.622	0.1205	169244	keystroke_a	a	n/a
85.087	0.045	170174	keystroke_Key.backspace	Key.backspace	n/a
85.266	0.091	170532	keystroke_Key.backspace	Key.backspace	n/a
85.4615	0.0605	170923	keystroke_Key.backspace	Key.backspace	n/a
85.507	0.09	171014	keystroke_a	a	n/a
85.7625	0.0745	171525	keystroke_i	i	n/a
85.957	0.09	171914	keystroke_c	c	n/a
86.077	0.1055	172154	keystroke_a	a	n/a
86.362	0.1045	172724	keystroke_Key.space	Key.space	n/a
86.692	0.0745	173384	keystroke_d	d	n/a
86.8565	0.075	173713	keystroke_i	i	n/a
87.0365	0.075	174073	keystroke_s	s	n/a
87.232	0.06	174464	keystroke_t	t	n/a
87.397	0.075	174794	keystroke_r	r	n/a
87.487	0.09	174974	keystroke_i	i	n/a
87.757	0.06	175514	keystroke_c	c	n/a
88.402	0.06	176804	keystroke_Key.backspace	Key.backspace	n/a
88.5375	0.0745	177075	keystroke_b	b	n/a
88.702	0.0605	177404	keystroke_u	u	n/a
88.957	0.075	177914	keystroke_t	t	n/a
90.3065	0.091	180613	keystroke_o	o	n/a
90.4725	0.09	180945	keystroke_r	r	n/a
90.712	0.09	181424	keystroke_s	s	n/a
90.967	0.135	181934	keystroke_Key.space	Key.space	n/a
92.5725	0.074	185145	keystroke_r	r	n/a
92.976	0.076	185952	keystroke_Key.backspace	Key.backspace	n/a
93.2175	0.1345	186435	keystroke_p	p	n/a
93.3965	0.106	186793	keystroke_r	r	n/a
93.4865	0.06	186973	keystroke_e	e	n/a
94.3865	0.076	188773	keystroke_s	s	n/a
94.5525	0.0745	189105	keystroke_e	e	n/a
94.7185	0.059	189437	keystroke_n	n	n/a
95.047	0.0755	190094	keystroke_c	c	n/a
95.258	0.059	190516	keystroke_e	e	n/a
95.407	0.1195	190814	keystroke_Key.space	Key.space	n/a
95.752	0.075	191504	keystroke_g	g	n/a
95.917	0.075	191834	keystroke_a	a	n/a
96.262	0.075	192524	keystroke_d	d	n/a
96.8165	0.0755	193633	keystroke_g	g	n/a
96.9965	0.0455	193993	keystroke_e	e	n/a
97.117	0.105	194234	keystroke_t	t	n/a
97.372	0.075	194744	keystroke_s	s	n/a
98.302	0.075	196604	keystroke_Key.enter	Key.enter	n/a
98.3815	8.112	196763	prompt	n/a	deeply comic democrats define\n
99.3665	0.046	198733	keystroke_d	d	n/a
99.5315	0.0455	199063	keystroke_e	e	n/a
99.8475	0.074	199695	keystroke_e	e	n/a
100.1325	0.104	200265	keystroke_p	p	n/a
100.3715	0.105	200743	keystroke_l	l	n/a
100.6865	0.06	201373	keystroke_y	y	n/a
100.957	0.09	201914	keystroke_Key.space	Key.space	n/a
101.182	0.075	202364	keystroke_c	c	n/a
101.302	0.06	202604	keystroke_o	o	n/a
101.467	0.09	202934	keystroke_m	m	n/a
101.693	0.059	203386	keystroke_i	i	n/a
101.842	0.075	203684	keystroke_c	c	n/a
102.067	0.0895	204134	keystroke_Key.space	Key.space	n/a
102.3225	0.089	204645	keystroke_d	d	n/a
102.5315	0.046	205063	keystroke_e	e	n/a
102.7125	0.075	205425	keystroke_m	m	n/a
102.922	0.0745	205844	keystroke_o	o	n/a
103.3275	0.075	206655	keystroke_c	c	n/a
103.5225	0.089	207045	keystroke_r	r	n/a
103.7315	0.046	207463	keystroke_a	a	n/a
103.8675	0.09	207735	keystroke_t	t	n/a
104.137	0.0595	208274	keystroke_s	s	n/a
104.377	0.1045	208754	keystroke_Key.space	Key.space	n/a
104.647	0.09	209294	keystroke_d	d	n/a
104.857	0.0595	209714	keystroke_e	e	n/a
105.112	0.09	210224	keystroke_f	f	n/a
105.292	0.075	210584	keystroke_i	i	n/a
105.442	0.09	210884	keystroke_n	n	n/a
105.562	0.075	211124	keystroke_e	e	n/a
106.417	0.075	212834	keystroke_Key.enter	Key.enter	n/a
106.4985	4.8405	212997	prompt	n/a	no durable first body\n
107.242	0.075	214484	keystroke_n	n	n/a
107.392	0.09	214784	keystroke_o	o	n/a
107.617	0.15	215234	keystroke_Key.space	Key.space	n/a
107.902	0.075	215804	keystroke_d	d	n/a
108.022	0.06	216044	keystroke_u	u	n/a
108.157	0.0905	216314	keystroke_r	r	n/a
108.427	0.0745	216854	keystroke_a	a	n/a
108.6825	0.075	217365	keystroke_b	b	n/a
108.877	0.075	217754	keystroke_l	l	n/a
108.967	0.06	217934	keystroke_e	e	n/a
109.132	0.105	218264	keystroke_Key.space	Key.space	n/a
109.297	0.09	218594	keystroke_f	f	n/a
109.417	0.09	218834	keystroke_i	i	n/a
109.552	0.075	219104	keystroke_r	r	n/a
109.762	0.045	219524	keystroke_s	s	n/a
109.837	0.09	219674	keystroke_t	t	n/a
109.987	0.09	219974	keystroke_Key.space	Key.space	n/a
110.2125	0.0595	220425	keystroke_b	b	n/a
110.377	0.09	220754	keystroke_o	o	n/a
110.5275	0.0595	221055	keystroke_d	d	n/a
110.7225	0.029	221445	keystroke_y	y	n/a
111.2775	0.0595	222555	keystroke_Key.enter	Key.enter	n/a
111.343	9.3255	222686	prompt	n/a	happens scenes genuine poison\n
112.1625	0.045	224325	keystroke_h	h	n/a
112.297	0.09	224594	keystroke_a	a	n/a
112.477	0.105	224954	keystroke_p	p	n/a
112.6715	0.0905	225343	keystroke_p	p	n/a
112.807	0.06	225614	keystroke_e	e	n/a
113.002	0.075	226004	keystroke_n	n	n/a
113.197	0.09	226394	keystroke_s	s	n/a
113.557	0.0755	227114	keystroke_Key.space	Key.space	n/a
113.947	0.09	227894	keystroke_s	s	n/a
114.3825	0.075	228765	keystroke_c	c	n/a
114.637	0.075	229274	keystroke_e	e	n/a
114.877	0.015	229754	keystroke_n	n	n/a
115.027	0.0755	230054	keystroke_e	e	n/a
115.4015	0.06	230803	keystroke_s	s	n/a
115.597	0.09	231194	keystroke_Key.space	Key.space	n/a
116.317	0.09	232634	keystroke_g	g	n/a
116.632	0.06	233264	keystroke_e	e	n/a
116.797	0.076	233594	keystroke_n	n	n/a
117.202	0.0755	234404	keystroke_u	u	n/a
117.517	0.075	235034	keystroke_i	i	n/a
117.757	0.105	235514	keystroke_n	n	n/a
117.952	0.06	235904	keystroke_e	e	n/a
118.2365	0.075	236473	keystroke_Key.space	Key.space	n/a
118.4765	0.09	236953	keystroke_p	p	n/a
118.657	0.1045	237314	keystroke_o	o	n/a
118.867	0.105	237734	keystroke_i	i	n/a
119.197	0.09	238394	keystroke_s	s	n/a
119.527	0.0745	239054	keystroke_o	o	n/a
119.7375	0.045	239475	keystroke_n	n	n/a
120.607	0.06	241214	keystroke_Key.enter	Key.enter	n/a
120.6725	8.441	241345	prompt	n/a	history conclude runner wear\n
121.642	0.0595	243284	keystroke_h	h	n/a
121.837	0.0755	243674	keystroke_i	i	n/a
121.987	0.0745	243974	keystroke_s	s	n/a
122.1515	0.09	244303	keystroke_t	t	n/a
122.302	0.075	244604	keystroke_o	o	n/a
122.407	0.06	244814	keystroke_r	r	n/a
122.602	0.03	245204	keystroke_y	y	n/a
122.812	0.105	245624	keystroke_Key.space	Key.space	n/a
122.992	0.045	245984	keystroke_c	c	n/a
123.262	0.075	246524	keystroke_o	o	n/a
123.457	0.075	246914	keystroke_n	n	n/a
123.952	0.06	247904	keystroke_c	c	n/a
124.1015	0.09	248203	keystroke_l	l	n/a
124.3125	0.0595	248625	keystroke_u	u	n/a
124.522	0.0755	249044	keystroke_d	d	n/a
124.7175	0.045	249435	keystroke_e	e	n/a
124.8365	0.121	249673	keystroke_Key.space	Key.space	n/a
125.0615	0.061	250123	keystroke_r	r	n/a
125.182	0.06	250364	keystroke_u	u	n/a
125.4665	0.0755	250933	keystroke_n	n	n/a
125.6625	0.089	251325	keystroke_n	n	n/a
125.7965	0.0755	251593	keystroke_e	e	n/a
125.8865	0.105	251773	keystroke_r	r	n/a
126.0215	0.0905	252043	keystroke_Key.space	Key.space	n/a
126.3365	0.0455	252673	keystroke_e	e	n/a
126.817	0.06	253634	keystroke_Key.backspace	Key.backspace	n/a
126.952	0.09	253904	keystroke_w	w	n/a
127.117	0.09	254234	keystroke_e	e	n/a
127.2965	0.03	254593	keystroke_q	q	n/a
127.3865	0.09	254773	keystroke_r	r	n/a
127.942	0.06	255884	keystroke_Key.backspace	Key.backspace	n/a
128.151	0.06	256302	keystroke_Key.backspace	Key.backspace	n/a
128.2265	0.1205	256453	keystroke_a	a	n/a
128.362	0.09	256724	keystroke_r	r	n/a
129.052	0.0595	258104	keystroke_Key.enter	Key.enter	n/a
129.118	9.0705	258236	prompt	n/a	glass specification luxury spoken\n
130.0575	0.0745	260115	keystroke_g	g	n/a
130.192	0.09	260384	keystroke_l	l	n/a
130.327	0.075	260654	keystroke_a	a	n/a
130.492	0.0745	260984	keystroke_s	s	n/a
130.672	0.0745	261344	keystroke_s	s	n/a
130.7165	0.1345	261433	keystroke_Key.space	Key.space	n/a
131.0315	0.0755	262063	keystroke_s	s	n/a
131.3315	0.105	262663	keystroke_p	p	n/a
131.5725	0.075	263145	keystroke_e	e	n/a
131.7975	0.06	263595	keystroke_c	c	n/a
131.9915	0.061	263983	keystroke_i	i	n/a
132.0965	0.091	264193	keystroke_f	f	n/a
132.2925	0.059	264585	keystroke_i	i	n/a
132.4565	0.075	264913	keystroke_c	c	n/a
132.6065	0.0605	265213	keystroke_a	a	n/a
132.727	0.09	265454	keystroke_t	t	n/a
132.847	0.104	265694	keystroke_i	i	n/a
132.937	0.165	265874	keystroke_o	o	n/a
133.117	0.075	266234	keystroke_n	n	n/a
133.2815	0.12	266563	keystroke_Key.space	Key.space	n/a
133.4775	0.105	266955	keystroke_l	l	n/a
133.7175	0.0595	267435	keystroke_u	u	n/a
134.1675	0.0895	268335	keystroke_x	x	n/a
134.8415	0.091	269683	keystroke_u	u	n/a
135.5315	0.06	271063	keystroke_r	r	n/a
135.6975	0.0595	271395	keystroke_y	y	n/a
135.951	0.09	271902	keystroke_Key.space	Key.space	n/a
136.102	0.089	272204	keystroke_s	s	n/a
136.2525	0.1185	272505	keystroke_p	p	n/a
136.4315	0.106	272863	keystroke_o	o	n/a
136.852	0.075	273704	keystroke_k	k	n/a
137.062	0.075	274124	keystroke_e	e	n/a
137.1825	0.0745	274365	keystroke_n	n	n/a
138.1265	0.0605	276253	keystroke_Key.enter	Key.enter	n/a
138.193	15.1605	276386	prompt	n/a	financial articles robot mississippi\n
138.9375	0.0745	277875	keystroke_f	f	n/a
139.0265	0.0755	278053	keystroke_i	i	n/a
139.176	0.106	278352	keystroke_n	n	n/a
140.047	0.074	280094	keystroke_a	a	n/a
140.212	0.0745	280424	keystroke_n	n	n/a
140.482	0.059	280964	keystroke_c	c	n/a
140.602	0.09	281204	keystroke_i	i	n/a
140.827	0.06	281654	keystroke_a	a	n/a
140.977	0.0595	281954	keystroke_l	l	n/a
141.1715	0.09	282343	keystroke_Key.space	Key.space	n/a
141.5465	0.0755	283093	keystroke_a	a	n/a
141.727	0.09	283454	keystroke_r	r	n/a
141.9665	0.0755	283933	keystroke_t	t	n/a
142.372	0.105	284744	keystroke_i	i	n/a
142.7165	0.0605	285433	keystroke_c	c	n/a
142.942	0.06	285884	keystroke_l	l	n/a
143.182	0.075	286364	keystroke_e	e	n/a
143.392	0.075	286784	keystroke_s	s	n/a
143.527	0.1345	287054	keystroke_Key.space	Key.space	n/a
143.797	0.0745	287594	keystroke_r	r	n/a
143.9315	0.075	287863	keystroke_o	o	n/a
144.187	0.075	288374	keystroke_b	b	n/a
144.337	0.074	288674	keystroke_o	o	n/a
144.667	0.06	289334	keystroke_t	t	n/a
144.876	0.105	289752	keystroke_Key.space	Key.space	n/a
145.312	0.06	290624	keystroke_h	h	n/a
145.7465	0.0755	291493	keystroke_Key.backspace	Key.backspace	n/a
145.957	0.0895	291914	keystroke_m	m	n/a
146.1515	0.0755	292303	keystroke_i	i	n/a
146.4215	0.075	292843	keystroke_s	s	n/a
146.602	0.09	293204	keystroke_s	s	n/a
146.827	0.09	293654	keystroke_i	i	n/a
147.367	0.0745	294734	keystroke_s	s	n/a
147.5615	0.075	295123	keystroke_s	s	n/a
147.8465	0.12	295693	keystroke_i	i	n/a
148.1165	0.0755	296233	keystroke_p	p	n/a
148.341	0.1055	296682	keystroke_p	p	n/a
148.776	0.076	297552	keystroke_i	i	n/a
153.339	0.012	306678	keystroke_Key.enter	Key.enter	n/a
153.3585	11.605	306717	prompt	n/a	student suffered terrorists booth\n
154.297	0.1045	308594	keystroke_s	s	n/a
154.447	0.075	308894	keystroke_u	u	n/a
154.582	0.075	309164	keystroke_t	t	n/a
155.452	0.0745	310904	keystroke_Key.backspace	Key.backspace	n/a
155.6465	0.075	311293	keystroke_Key.backspace	Key.backspace	n/a
155.7975	0.074	311595	keystroke_t	t	n/a
155.9475	0.074	311895	keystroke_u	u	n/a
156.172	0.0595	312344	keystroke_d	d	n/a
156.3965	0.06	312793	keystroke_e	e	n/a
156.532	0.075	313064	keystroke_n	n	n/a
156.666	0.075	313332	keystroke_t	t	n/a
156.831	0.0905	313662	keystroke_Key.space	Key.space	n/a
157.0265	0.09	314053	keystroke_s	s	n/a
157.1915	0.06	314383	keystroke_u	u	n/a
157.4015	0.09	314803	keystroke_f	f	n/a
157.596	0.0755	315192	keystroke_f	f	n/a
157.792	0.045	315584	keystroke_e	e	n/a
157.852	0.09	315704	keystroke_r	r	n/a
158.302	0.06	316604	keystroke_e	e	n/a
158.5115	0.0605	317023	keystroke_d	d	n/a
158.691	0.1055	317382	keystroke_Key.space	Key.space	n/a
159.0525	0.06	318105	keystroke_t	t	n/a
159.262	0.059	318524	keystroke_r	r	n/a
159.862	0.06	319724	keystroke_Key.backspace	Key.backspace	n/a
159.952	0.075	319904	keystroke_e	e	n/a
160.147	0.0755	320294	keystroke_r	r	n/a
160.402	0.0745	320804	keystroke_r	r	n/a
160.5815	0.09	321163	keystroke_o	o	n/a
161.061	0.09	322122	keystroke_r	r	n/a
161.257	0.0745	322514	keystroke_i	i	n/a
161.467	0.0595	322934	keystroke_s	s	n/a
161.5865	0.09	323173	keystroke_t	t	n/a
162.322	0.075	324644	keystroke_s	s	n/a
162.5015	0.105	325003	keystroke_Key.space	Key.space	n/a
162.802	0.075	325604	keystroke_b	b	n/a
162.937	0.09	325874	keystroke_o	o	n/a
163.1465	0.09	326293	keystroke_o	o	n/a
163.297	0.075	326594	keystroke_t	t	n/a
163.822	0.06	327644	keystroke_h	h	n/a
164.9015	0.06	329803	keystroke_Key.enter	Key.enter	n/a
164.968	14.0805	329936	prompt	n/a	positions adipex conceptual lesbian\n
165.742	0.105	331484	keystroke_p	p	n/a
165.9515	0.075	331903	keystroke_o	o	n/a
166.1765	0.075	332353	keystroke_s	s	n/a
166.327	0.075	332654	keystroke_i	i	n/a
166.4315	0.0895	332863	keystroke_t	t	n/a
166.7015	0.09	333403	keystroke_i	i	n/a
166.7765	0.1505	333553	keystroke_o	o	n/a
167.017	0.075	334034	keystroke_n	n	n/a
167.272	0.075	334544	keystroke_s	s	n/a
167.841	0.1355	335682	keystroke_Key.space	Key.space	n/a
168.411	0.09	336822	keystroke_a	a	n/a
168.6815	0.0755	337363	keystroke_d	d	n/a
169.117	0.1045	338234	keystroke_i	i	n/a
169.5515	0.105	339103	keystroke_p	p	n/a
170.031	0.091	340062	keystroke_e	e	n/a
170.3015	0.09	340603	keystroke_x	x	n/a
170.8415	0.09	341683	keystroke_Key.space	Key.space	n/a
171.5165	0.0755	343033	keystroke_c	c	n/a
171.6665	0.1055	343333	keystroke_o	o	n/a
171.847	0.1045	343694	keystroke_n	n	n/a
172.252	0.075	344504	keystroke_c	c	n/a
172.462	0.045	344924	keystroke_e	e	n/a
172.597	0.105	345194	keystroke_p	p	n/a
172.792	0.074	345584	keystroke_t	t	n/a
173.227	0.06	346454	keystroke_u	u	n/a
173.422	0.089	346844	keystroke_a	a	n/a
173.557	0.075	347114	keystroke_l	l	n/a
173.766	0.106	347532	keystroke_Key.space	Key.space	n/a
174.202	0.0755	348404	keystroke_l	l	n/a
174.802	0.06	349604	keystroke_e	e	n/a
175.012	0.075	350024	keystroke_s	s	n/a
175.4465	0.0755	350893	keystroke_b	b	n/a
175.5665	0.0905	351133	keystroke_i	i	n/a
175.8215	0.0755	351643	keystroke_a	a	n/a
175.9565	0.0755	351913	keystroke_n	n	n/a
179.0335	0.013	358067	keystroke_Key.enter	Key.enter	n/a
179.054	10.3445	358108	prompt	n/a	base carlo o'clock evaluating\n
179.9015	0.075	359803	keystroke_b	b	n/a
180.067	0.0895	360134	keystroke_a	a	n/a
180.232	0.09	360464	keystroke_s	s	n/a
180.4265	0.075	360853	keystroke_e	e	n/a
180.652	0.0905	361304	keystroke_Key.space	Key.space	n/a
180.952	0.06	361904	keystroke_c	c	n/a
181.102	0.075	362204	keystroke_a	a	n/a
181.207	0.09	362414	keystroke_r	r	n/a
181.537	0.09	363074	keystroke_l	l	n/a
181.7475	0.0745	363495	keystroke_o	o	n/a
182.032	0.09	364064	keystroke_Key.space	Key.space	n/a
182.317	0.1045	364634	keystroke_o	o	n/a
182.7665	0.1055	365533	keystroke_'	'	n/a
183.1875	0.0745	366375	keystroke_c	c	n/a
183.337	0.09	366674	keystroke_l	l	n/a
183.592	0.1045	367184	keystroke_o	o	n/a
183.892	0.045	367784	keystroke_c	c	n/a
183.9665	0.0905	367933	keystroke_k	k	n/a
184.3115	0.0755	368623	keystroke_Key.space	Key.space	n/a
184.912	0.074	369824	keystroke_e	e	n/a
185.197	0.0745	370394	keystroke_v	v	n/a
185.407	0.0595	370814	keystroke_a	a	n/a
185.5415	0.09	371083	keystroke_l	l	n/a
185.782	0.0595	371564	keystroke_u	u	n/a
186.0525	0.074	372105	keystroke_a	a	n/a
186.2465	0.0755	372493	keystroke_t	t	n/a
186.3665	0.0755	372733	keystroke_i	i	n/a
187.537	0.1195	375074	keystroke_n	n	n/a
187.6865	0.0755	375373	keystroke_g	g	n/a
189.3665	0.03	378733	keystroke_Key.enter	Key.enter	n/a
189.4075	11.631	378815	prompt	n/a	problem helicopter barbara falls\n
190.297	0.0905	380594	keystroke_p	p	n/a
190.477	0.06	380954	keystroke_r	r	n/a
190.567	0.0745	381134	keystroke_o	o	n/a
191.077	0.03	382154	keystroke_l	l	n/a
191.646	0.06	383292	keystroke_Key.backspace	Key.backspace	n/a
191.7525	0.089	383505	keystroke_b	b	n/a
191.9015	0.105	383803	keystroke_l	l	n/a
192.1125	0.06	384225	keystroke_e	e	n/a
192.202	0.09	384404	keystroke_m	m	n/a
192.487	0.09	384974	keystroke_Key.space	Key.space	n/a
192.8775	0.0595	385755	keystroke_h	h	n/a
193.042	0.0755	386084	keystroke_e	e	n/a
193.1765	0.09	386353	keystroke_l	l	n/a
193.5365	0.105	387073	keystroke_i	i	n/a
194.047	0.075	388094	keystroke_c	c	n/a
194.212	0.09	388424	keystroke_o	o	n/a
194.497	0.1055	388994	keystroke_p	p	n/a
195.127	0.075	390254	keystroke_t	t	n/a
195.3065	0.0595	390613	keystroke_e	e	n/a
195.3515	0.09	390703	keystroke_r	r	n/a
195.5625	0.1035	391125	keystroke_Key.space	Key.space	n/a
195.9065	0.09	391813	keystroke_b	b	n/a
196.087	0.06	392174	keystroke_a	a	n/a
196.162	0.105	392324	keystroke_r	r	n/a
196.5515	0.0755	393103	keystroke_b	b	n/a
196.7015	0.0905	393403	keystroke_a	a	n/a
196.837	0.105	393674	keystroke_r	r	n/a
197.347	0.075	394694	keystroke_a	a	n/a
197.602	0.105	395204	keystroke_Key.space	Key.space	n/a
198.097	0.075	396194	keystroke_f	f	n/a
198.232	0.12	396464	keystroke_a	a	n/a
198.442	0.06	396884	keystroke_l	l	n/a
198.607	0.09	397214	keystroke_l	l	n/a
198.7865	0.09	397573	keystroke_s	s	n/a
201.0225	0.014	402045	keystroke_Key.enter	Key.enter	n/a
201.0425	8.2905	402085	prompt	n/a	represents garmin consisting status\n
201.8915	0.0455	403783	keystroke_r	r	n/a
202.132	0.1045	404264	keystroke_e	e	n/a
202.3865	0.1205	404773	keystroke_p	p	n/a
202.7465	0.09	405493	keystroke_r	r	n/a
202.8515	0.09	405703	keystroke_e	e	n/a
203.152	0.0895	406304	keystroke_s	s	n/a
203.3765	0.075	406753	keystroke_e	e	n/a
203.542	0.0595	407084	keystroke_n	n	n/a
203.662	0.0895	407324	keystroke_t	t	n/a
203.8715	0.075	407743	keystroke_s	s	n/a
203.9765	0.105	407953	keystroke_Key.space	Key.space	n/a
204.337	0.075	408674	keystroke_g	g	n/a
204.472	0.09	408944	keystroke_a	a	n/a
204.6215	0.105	409243	keystroke_r	r	n/a
204.847	0.1045	409694	keystroke_m	m	n/a
205.0865	0.0755	410173	keystroke_i	i	n/a
205.2365	0.1055	410473	keystroke_n	n	n/a
205.5065	0.0905	411013	keystroke_Key.space	Key.space	n/a
205.867	0.074	411734	keystroke_c	c	n/a
206.002	0.09	412004	keystroke_o	o	n/a
206.167	0.089	412334	keystroke_n	n	n/a
206.422	0.09	412844	keystroke_s	s	n/a
206.572	0.074	413144	keystroke_i	i	n/a
206.8265	0.105	413653	keystroke_s	s	n/a
207.0365	0.075	414073	keystroke_t	t	n/a
207.1715	0.0905	414343	keystroke_i	i	n/a
207.3665	0.0905	414733	keystroke_n	n	n/a
207.5165	0.075	415033	keystroke_g	g	n/a
207.6515	0.105	415303	keystroke_Key.space	Key.space	n/a
207.9375	0.089	415875	keystroke_s	s	n/a
208.1315	0.0755	416263	keystroke_t	t	n/a
208.252	0.0745	416504	keystroke_a	a	n/a
208.372	0.09	416744	keystroke_t	t	n/a
208.551	0.061	417102	keystroke_u	u	n/a
208.732	0.074	417464	keystroke_s	s	n/a
209.257	0.0745	418514	keystroke_Key.enter	Key.enter	n/a
209.3365	9.7765	418673	prompt	n/a	supreme angel treasury likelihood\n
210.277	0.059	420554	keystroke_s	s	n/a
210.366	0.06	420732	keystroke_u	u	n/a
210.577	0.1195	421154	keystroke_p	p	n/a
210.7415	0.135	421483	keystroke_r	r	n/a
210.8465	0.091	421693	keystroke_e	e	n/a
211.387	0.1205	422774	keystroke_m	m	n/a
211.5815	0.0755	423163	keystroke_e	e	n/a
212.511	0.076	425022	keystroke_Key.space	Key.space	n/a
212.827	0.1045	425654	keystroke_a	a	n/a
213.0215	0.06	426043	keystroke_n	n	n/a
213.1565	0.075	426313	keystroke_g	g	n/a
213.4715	0.06	426943	keystroke_e	e	n/a
213.637	0.059	427274	keystroke_l	l	n/a
213.832	0.104	427664	keystroke_Key.space	Key.space	n/a
214.146	0.0905	428292	keystroke_t	t	n/a
214.326	0.091	428652	keystroke_r	r	n/a
214.462	0.075	428924	keystroke_e	e	n/a
214.6715	0.045	429343	keystroke_a	a	n/a
214.8065	0.12	429613	keystroke_s	s	n/a
215.0915	0.06	430183	keystroke_u	u	n/a
215.257	0.0895	430514	keystroke_r	r	n/a
215.497	0.0445	430994	keystroke_y	y	n/a
215.7515	0.09	431503	keystroke_Key.space	Key.space	n/a
215.9915	0.075	431983	keystroke_l	l	n/a
216.1415	0.09	432283	keystroke_i	i	n/a
216.397	0.0895	432794	keystroke_k	k	n/a
216.712	0.0595	433424	keystroke_e	e	n/a
217.252	0.0745	434504	keystroke_l	l	n/a
217.432	0.0745	434864	keystroke_i	i	n/a
217.867	0.045	435734	keystroke_h	h	n/a
218.032	0.075	436064	keystroke_o	o	n/a
218.287	0.09	436574	keystroke_o	o	n/a
218.467	0.075	436934	keystroke_d	d	n/a
219.066	0.0455	438132	keystroke_Key.enter	Key.enter	n/a
219.118	12.9705	438236	prompt	n/a	renew indonesia isolated experimental\n
220.1015	0.075	440203	keystroke_r	r	n/a
220.162	0.0895	440324	keystroke_e	e	n/a
220.3415	0.09	440683	keystroke_n	n	n/a
220.552	0.1045	441104	keystroke_e	e	n/a
220.6715	0.09	441343	keystroke_w	w	n/a
220.9115	0.0905	441823	keystroke_Key.space	Key.space	n/a
221.4365	0.06	442873	keystroke_i	i	n/a
221.572	0.105	443144	keystroke_n	n	n/a
221.8565	0.075	443713	keystroke_d	d	n/a
222.0215	0.06	444043	keystroke_o	o	n/a
222.3215	0.1055	444643	keystroke_n	n	n/a
222.6215	0.06	445243	keystroke_i	i	n/a
223.2365	0.0605	446473	keystroke_Key.backspace	Key.backspace	n/a
223.326	0.075	446652	keystroke_e	e	n/a
223.642	0.044	447284	keystroke_s	s	n/a
223.762	0.089	447524	keystroke_i	i	n/a
224.0765	0.0895	448153	keystroke_a	a	n/a
224.4665	0.1195	448933	keystroke_Key.space	Key.space	n/a
224.887	0.075	449774	keystroke_i	i	n/a
225.081	0.105	450162	keystroke_s	s	n/a
225.6525	0.075	451305	keystroke_o	o	n/a
226.3565	0.1955	452713	keystroke_l	l	n/a
226.5815	0.0905	453163	keystroke_a	a	n/a
226.7615	0.09	453523	keystroke_t	t	n/a
226.8965	0.1055	453793	keystroke_e	e	n/a
227.4215	0.075	454843	keystroke_d	d	n/a
228.097	0.105	456194	keystroke_Key.space	Key.space	n/a
228.937	0.075	457874	keystroke_e	e	n/a
229.132	0.09	458264	keystroke_x	x	n/a
229.312	0.135	458624	keystroke_p	p	n/a
229.477	0.06	458954	keystroke_e	e	n/a
229.582	0.09	459164	keystroke_r	r	n/a
229.972	0.09	459944	keystroke_i	i	n/a
230.242	0.09	460484	keystroke_m	m	n/a
230.572	0.075	461144	keystroke_e	e	n/a
230.707	0.0745	461414	keystroke_n	n	n/a
230.8415	0.075	461683	keystroke_t	t	n/a
231.1265	0.075	462253	keystroke_a	a	n/a
231.366	0.09	462732	keystroke_l	l	n/a
232.0415	0.045	464083	keystroke_Key.enter	Key.enter	n/a
232.093	8.89	464186	prompt	n/a	thomas totals ships logistics\n
232.912	0.0745	465824	keystroke_t	t	n/a
233.0315	0.045	466063	keystroke_h	h	n/a
233.1665	0.09	466333	keystroke_o	o	n/a
233.4215	0.09	466843	keystroke_m	m	n/a
233.5715	0.105	467143	keystroke_a	a	n/a
233.7065	0.105	467413	keystroke_s	s	n/a
233.8565	0.12	467713	keystroke_Key.space	Key.space	n/a
234.652	0.075	469304	keystroke_t	t	n/a
235.072	0.09	470144	keystroke_o	o	n/a
235.252	0.089	470504	keystroke_t	t	n/a
235.446	0.091	470892	keystroke_a	a	n/a
235.6265	0.075	471253	keystroke_l	l	n/a
235.7915	0.0905	471583	keystroke_s	s	n/a
235.9715	0.09	471943	keystroke_Key.space	Key.space	n/a
236.2115	0.09	472423	keystroke_s	s	n/a
236.3465	0.0605	472693	keystroke_h	h	n/a
236.4965	0.1055	472993	keystroke_i	i	n/a
236.707	0.075	473414	keystroke_p	p	n/a
236.8565	0.1055	473713	keystroke_s	s	n/a
237.051	0.1205	474102	keystroke_Key.space	Key.space	n/a
237.3065	0.0895	474613	keystroke_l	l	n/a
237.516	0.091	475032	keystroke_o	o	n/a
237.727	0.075	475454	keystroke_g	g	n/a
237.907	0.09	475814	keystroke_i	i	n/a
238.2965	0.09	476593	keystroke_t	t	n/a
238.7015	0.075	477403	keystroke_Key.backspace	Key.backspace	n/a
238.8365	0.09	477673	keystroke_s	s	n/a
239.0015	0.0605	478003	keystroke_t	t	n/a
239.182	0.074	478364	keystroke_i	i	n/a
239.377	0.074	478754	keystroke_c	c	n/a
239.722	0.09	479444	keystroke_s	s	n/a
240.906	0.075	481812	keystroke_Key.enter	Key.enter	n/a
240.9875	8.2015	481975	prompt	n/a	duncan bills ball johnny\n
241.821	0.075	483642	keystroke_d	d	n/a
242.016	0.031	484032	keystroke_u	u	n/a
242.257	0.0745	484514	keystroke_n	n	n/a
242.647	0.074	485294	keystroke_c	c	n/a
242.796	0.091	485592	keystroke_a	a	n/a
242.961	0.075	485922	keystroke_n	n	n/a
243.2165	0.09	486433	keystroke_Key.space	Key.space	n/a
243.4415	0.09	486883	keystroke_b	b	n/a
243.562	0.059	487124	keystroke_i	i	n/a
243.7565	0.0755	487513	keystroke_l	l	n/a
243.9515	0.0745	487903	keystroke_l	l	n/a
244.087	0.089	488174	keystroke_s	s	n/a
244.2215	0.1195	488443	keystroke_Key.space	Key.space	n/a
244.551	0.076	489102	keystroke_b	b	n/a
244.7165	0.09	489433	keystroke_a	a	n/a
244.8815	0.075	489763	keystroke_l	l	n/a
245.062	0.09	490124	keystroke_l	l	n/a
245.2105	0.151	490421	keystroke_Key.space	Key.space	n/a
245.437	0.089	490874	keystroke_j	j	n/a
245.631	0.12	491262	keystroke_o	o	n/a
245.872	0.119	491744	keystroke_y	y	n/a
246.4415	0.0595	492883	keystroke_Key.backspace	Key.backspace	n/a
246.712	0.075	493424	keystroke_h	h	n/a
247.012	0.075	494024	keystroke_n	n	n/a
247.206	0.1055	494412	keystroke_n	n	n/a
247.4915	0.06	494983	keystroke_y	y	n/a
249.1265	0.06	498253	keystroke_Key.enter	Key.enter	n/a
249.192	14.261	498384	prompt	n/a	healthy sectors authentication proposal\n
250.0865	0.045	500173	keystroke_h	h	n/a
250.2965	0.045	500593	keystroke_e	e	n/a
250.387	0.0895	500774	keystroke_a	a	n/a
250.5215	0.075	501043	keystroke_l	l	n/a
250.717	0.06	501434	keystroke_t	t	n/a
250.806	0.0455	501612	keystroke_h	h	n/a
251.3015	0.0595	502603	keystroke_y	y	n/a
251.541	0.09	503082	keystroke_Key.space	Key.space	n/a
251.7815	0.0755	503563	keystroke_s	s	n/a
251.962	0.075	503924	keystroke_e	e	n/a
252.157	0.059	504314	keystroke_c	c	n/a
252.396	0.06	504792	keystroke_t	t	n/a
252.517	0.074	505034	keystroke_o	o	n/a
252.6365	0.0755	505273	keystroke_r	r	n/a
252.877	0.0745	505754	keystroke_s	s	n/a
253.0715	0.09	506143	keystroke_Key.space	Key.space	n/a
253.446	0.075	506892	keystroke_a	a	n/a
253.627	0.074	507254	keystroke_u	u	n/a
253.762	0.075	507524	keystroke_t	t	n/a
253.986	0.076	507972	keystroke_h	h	n/a
254.2115	0.0595	508423	keystroke_e	e	n/a
254.407	0.0595	508814	keystroke_b	b	n/a
254.407	0.0745	508814	keystroke_n	n	n/a
254.7065	0.075	509413	keystroke_t	t	n/a
254.9315	0.06	509863	keystroke_i	i	n/a
255.2615	0.045	510523	keystroke_Key.backspace	Key.backspace	n/a
255.4565	0.045	510913	keystroke_Key.backspace	Key.backspace	n/a
255.6365	0.06	511273	keystroke_Key.backspace	Key.backspace	n/a
255.832	0.0595	511664	keystroke_Key.backspace	Key.backspace	n/a
256.0565	0.0745	512113	keystroke_n	n	n/a
256.282	0.0745	512564	keystroke_t	t	n/a
256.5365	0.09	513073	keystroke_i	i	n/a
256.8665	0.09	513733	keystroke_c	c	n/a
257.0765	0.0905	514153	keystroke_a	a	n/a
257.392	0.075	514784	keystroke_i	i	n/a
257.9465	0.0895	515893	keystroke_Key.backspace	Key.backspace	n/a
258.2165	0.0745	516433	keystroke_t	t	n/a
258.456	0.136	516912	keystroke_i	i	n/a
258.682	0.1045	517364	keystroke_o	o	n/a
258.8915	0.075	517783	keystroke_n	n	n/a
259.4165	0.105	518833	keystroke_Key.space	Key.space	n/a
259.822	0.074	519644	keystroke_p	p	n/a
260.0015	0.059	520003	keystroke_r	r	n/a
260.0915	0.09	520183	keystroke_o	o	n/a
260.3765	0.12	520753	keystroke_p	p	n/a
260.6765	0.09	521353	keystroke_o	o	n/a
260.9465	0.1055	521893	keystroke_s	s	n/a
261.186	0.105	522372	keystroke_a	a	n/a
261.351	0.076	522702	keystroke_l	l	n/a
263.4065	0.045	526813	keystroke_Key.enter	Key.enter	n/a
263.4575	8.77	526915	prompt	n/a	evaluating sets award though\n
264.4865	0.075	528973	keystroke_e	e	n/a
264.757	0.0745	529514	keystroke_v	v	n/a
265.0265	0.015	530053	keystroke_a	a	n/a
265.2365	0.015	530473	keystroke_l	l	n/a
265.447	0.0145	530894	keystroke_u	u	n/a
265.6565	0.015	531313	keystroke_a	a	n/a
265.7615	0.09	531523	keystroke_t	t	n/a
265.9115	0.075	531823	keystroke_i	i	n/a
266.0915	0.1055	532183	keystroke_n	n	n/a
266.2565	0.045	532513	keystroke_g	g	n/a
266.3765	0.12	532753	keystroke_Key.space	Key.space	n/a
266.5715	0.09	533143	keystroke_s	s	n/a
266.7365	0.09	533473	keystroke_e	e	n/a
266.9315	0.09	533863	keystroke_t	t	n/a
267.156	0.09	534312	keystroke_s	s	n/a
267.306	0.12	534612	keystroke_Key.space	Key.space	n/a
267.561	0.09	535122	keystroke_a	a	n/a
267.7865	0.105	535573	keystroke_w	w	n/a
268.0405	0.09	536081	keystroke_a	a	n/a
268.686	0.075	537372	keystroke_r	r	n/a
269.001	0.075	538002	keystroke_d	d	n/a
269.286	0.105	538572	keystroke_Key.space	Key.space	n/a
269.511	0.075	539022	keystroke_t	t	n/a
269.646	0.061	539292	keystroke_h	h	n/a
270.0665	0.12	540133	keystroke_o	o	n/a
270.381	0.06	540762	keystroke_u	u	n/a
270.6065	0.075	541213	keystroke_g	g	n/a
270.7115	0.06	541423	keystroke_h	h	n/a
272.181	0.045	544362	keystroke_Key.enter	Key.enter	n/a
272.2305	6.237	544461	prompt	n/a	frank deck save reporting\n
272.991	0.09	545982	keystroke_f	f	n/a
273.171	0.075	546342	keystroke_r	r	n/a
273.336	0.075	546672	keystroke_a	a	n/a
273.517	0.0745	547034	keystroke_n	n	n/a
273.7415	0.0745	547483	keystroke_k	k	n/a
274.356	0.075	548712	keystroke_Key.space	Key.space	n/a
274.6705	0.0605	549341	keystroke_d	d	n/a
274.8515	0.0595	549703	keystroke_e	e	n/a
275.0915	0.0895	550183	keystroke_c	c	n/a
275.3315	0.0595	550663	keystroke_k	k	n/a
275.5865	0.0745	551173	keystroke_Key.space	Key.space	n/a
275.7965	0.1045	551593	keystroke_s	s	n/a
275.9605	0.091	551921	keystroke_a	a	n/a
276.1415	0.075	552283	keystroke_v	v	n/a
276.2915	0.105	552583	keystroke_e	e	n/a
276.4865	0.1195	552973	keystroke_Key.space	Key.space	n/a
276.861	0.075	553722	keystroke_r	r	n/a
276.952	0.089	553904	keystroke_e	e	n/a
277.117	0.104	554234	keystroke_p	p	n/a
277.3415	0.0755	554683	keystroke_o	o	n/a
277.477	0.0745	554954	keystroke_r	r	n/a
277.686	0.076	555372	keystroke_t	t	n/a
277.8815	0.0745	555763	keystroke_i	i	n/a
278.0465	0.075	556093	keystroke_n	n	n/a
278.137	0.059	556274	keystroke_g	g	n/a
278.3915	0.0745	556783	keystroke_Key.enter	Key.enter	n/a
278.471	11.277	556942	prompt	n/a	titled know discrete creative\n
279.1715	0.09	558343	keystroke_t	t	n/a
279.381	0.0605	558762	keystroke_i	i	n/a
279.637	0.0745	559274	keystroke_t	t	n/a
279.8915	0.045	559783	keystroke_t	t	n/a
279.9665	0.09	559933	keystroke_l	l	n/a
280.5515	0.06	561103	keystroke_Key.backspace	Key.backspace	n/a
280.7315	0.06	561463	keystroke_Key.backspace	Key.backspace	n/a
280.9715	0.0905	561943	keystroke_l	l	n/a
281.2415	0.075	562483	keystroke_e	e	n/a
281.8265	0.0605	563653	keystroke_d	d	n/a
282.2315	0.105	564463	keystroke_Key.space	Key.space	n/a
282.8165	0.0745	565633	keystroke_k	k	n/a
283.011	0.105	566022	keystroke_n	n	n/a
283.2215	0.06	566443	keystroke_w	w	n/a
283.2815	0.075	566563	keystroke_o	o	n/a
284.0165	0.045	568033	keystroke_Key.backspace	Key.backspace	n/a
284.1965	0.0745	568393	keystroke_Key.backspace	Key.backspace	n/a
284.4215	0.0755	568843	keystroke_o	o	n/a
284.5565	0.0895	569113	keystroke_w	w	n/a
284.7215	0.09	569443	keystroke_Key.space	Key.space	n/a
285.0815	0.075	570163	keystroke_d	d	n/a
285.2315	0.075	570463	keystroke_i	i	n/a
285.4115	0.075	570823	keystroke_s	s	n/a
285.7265	0.06	571453	keystroke_c	c	n/a
285.951	0.09	571902	keystroke_r	r	n/a
286.056	0.0905	572112	keystroke_e	e	n/a
286.4465	0.0595	572893	keystroke_t	t	n/a
286.5665	0.09	573133	keystroke_e	e	n/a
286.8055	0.106	573611	keystroke_Key.space	Key.space	n/a
287.061	0.06	574122	keystroke_c	c	n/a
287.241	0.135	574482	keystroke_r	r	n/a
287.391	0.076	574782	keystroke_e	e	n/a
287.4965	0.075	574993	keystroke_a	a	n/a
287.6915	0.09	575383	keystroke_t	t	n/a
287.9765	0.075	575953	keystroke_i	i	n/a
288.5765	0.0605	577153	keystroke_v	v	n/a
288.7415	0.06	577483	keystroke_e	e	n/a
289.6865	0.06	579373	keystroke_Key.enter	Key.enter	n/a
289.755	11.813	579510	prompt	n/a	for idle differently analysts\n
290.4665	0.0745	580933	keystroke_f	f	n/a
290.571	0.0755	581142	keystroke_o	o	n/a
290.6765	0.075	581353	keystroke_r	r	n/a
290.7965	0.09	581593	keystroke_Key.space	Key.space	n/a
291.0665	0.06	582133	keystroke_i	i	n/a
291.247	0.0595	582494	keystroke_d	d	n/a
291.5015	0.06	583003	keystroke_e	e	n/a
291.637	0.09	583274	keystroke_l	l	n/a
291.8615	0.105	583723	keystroke_Key.space	Key.space	n/a
292.1315	0.09	584263	keystroke_d	d	n/a
292.311	0.0755	584622	keystroke_i	i	n/a
292.5515	0.0755	585103	keystroke_f	f	n/a
292.7615	0.0905	585523	keystroke_f	f	n/a
293.106	0.045	586212	keystroke_Key.backspace	Key.backspace	n/a
293.2865	0.0445	586573	keystroke_Key.backspace	Key.backspace	n/a
293.451	0.0605	586902	keystroke_Key.backspace	Key.backspace	n/a
293.631	0.045	587262	keystroke_Key.backspace	Key.backspace	n/a
293.811	0.045	587622	keystroke_Key.backspace	Key.backspace	n/a
293.9765	0.09	587953	keystroke_Key.backspace	Key.backspace	n/a
294.2005	0.046	588401	keystroke_Key.backspace	Key.backspace	n/a
294.516	0.075	589032	keystroke_l	l	n/a
295.116	0.0455	590232	keystroke_e	e	n/a
295.311	0.1055	590622	keystroke_Key.space	Key.space	n/a
295.9115	0.075	591823	keystroke_d	d	n/a
296.0915	0.075	592183	keystroke_i	i	n/a
296.3305	0.061	592661	keystroke_f	f	n/a
296.5115	0.0745	593023	keystroke_f	f	n/a
297.037	0.029	594074	keystroke_e	e	n/a
297.1115	0.0895	594223	keystroke_r	r	n/a
297.787	0.074	595574	keystroke_e	e	n/a
297.9365	0.06	595873	keystroke_n	n	n/a
298.131	0.106	596262	keystroke_t	t	n/a
298.2655	0.106	596531	keystroke_l	l	n/a
298.5205	0.0455	597041	keystroke_y	y	n/a
298.7465	0.075	597493	keystroke_Key.space	Key.space	n/a
298.9115	0.09	597823	keystroke_a	a	n/a
299.0615	0.075	598123	keystroke_n	n	n/a
299.2865	0.075	598573	keystroke_a	a	n/a
299.6915	0.0895	599383	keystroke_l	l	n/a
299.9615	0.014	599923	keystroke_y	y	n/a
300.3065	0.12	600613	keystroke_s	s	n/a
300.5765	0.075	601153	keystroke_t	t	n/a
300.8015	0.0755	601603	keystroke_s	s	n/a
301.506	0.06	603012	keystroke_Key.enter	Key.enter	n/a
301.572	14.666	603144	prompt	n/a	arbitration encourages everywhere apparent\n
302.4965	0.075	604993	keystroke_a	a	n/a
302.7965	0.075	605593	keystroke_r	r	n/a
303.322	0.0745	606644	keystroke_b	b	n/a
303.577	0.0745	607154	keystroke_i	i	n/a
303.8615	0.0745	607723	keystroke_t	t	n/a
304.2065	0.074	608413	keystroke_r	r	n/a
304.431	0.09	608862	keystroke_a	a	n/a
304.6715	0.0745	609343	keystroke_t	t	n/a
304.8215	0.0745	609643	keystroke_i	i	n/a
304.911	0.15	609822	keystroke_o	o	n/a
305.121	0.09	610242	keystroke_n	n	n/a
305.3165	0.105	610633	keystroke_Key.space	Key.space	n/a
305.541	0.0755	611082	keystroke_e	e	n/a
305.661	0.0905	611322	keystroke_n	n	n/a
305.9915	0.0595	611983	keystroke_c	c	n/a
306.0965	0.1045	612193	keystroke_o	o	n/a
306.291	0.0605	612582	keystroke_u	u	n/a
306.471	0.0755	612942	keystroke_r	r	n/a
306.891	0.0755	613782	keystroke_a	a	n/a
307.161	0.06	614322	keystroke_g	g	n/a
307.296	0.075	614592	keystroke_e	e	n/a
307.507	0.09	615014	keystroke_s	s	n/a
307.6265	0.135	615253	keystroke_Key.space	Key.space	n/a
307.896	0.075	615792	keystroke_e	e	n/a
308.0915	0.075	616183	keystroke_v	v	n/a
308.271	0.06	616542	keystroke_e	e	n/a
308.346	0.0755	616692	keystroke_r	r	n/a
308.5715	0.0455	617143	keystroke_y	y	n/a
308.586	0.0155	617172	keystroke_t	t	n/a
308.902	0.089	617804	keystroke_w	w	n/a
309.0965	0.06	618193	keystroke_h	h	n/a
309.411	0.0605	618822	keystroke_Key.backspace	Key.backspace	n/a
309.5915	0.06	619183	keystroke_Key.backspace	Key.backspace	n/a
309.786	0.0445	619572	keystroke_Key.backspace	Key.backspace	n/a
309.951	0.0745	619902	keystroke_Key.backspace	Key.backspace	n/a
310.1015	0.09	620203	keystroke_w	w	n/a
310.2805	0.046	620561	keystroke_h	h	n/a
310.6715	0.0595	621343	keystroke_Key.backspace	Key.backspace	n/a
310.8515	0.0745	621703	keystroke_Key.backspace	Key.backspace	n/a
311.1215	0.075	622243	keystroke_y	y	n/a
311.586	0.0905	623172	keystroke_w	w	n/a
311.8115	0.075	623623	keystroke_h	h	n/a
311.9465	0.06	623893	keystroke_e	e	n/a
312.0515	0.09	624103	keystroke_r	r	n/a
312.1265	0.09	624253	keystroke_e	e	n/a
312.3515	0.105	624703	keystroke_Key.space	Key.space	n/a
312.6515	0.0895	625303	keystroke_a	a	n/a
312.8615	0.0745	625723	keystroke_p	p	n/a
313.026	0.105	626052	keystroke_p	p	n/a
313.1165	0.09	626233	keystroke_a	a	n/a
313.281	0.09	626562	keystroke_r	r	n/a
313.957	0.0745	627914	keystroke_e	e	n/a
314.1365	0.059	628273	keystroke_n	n	n/a
314.2115	0.06	628423	keystroke_t	t	n/a
316.1755	0.0605	632351	keystroke_Key.enter	Key.enter	n/a
316.243	10.18	632486	prompt	n/a	tuning restore buffalo tile\n
317.0165	0.0745	634033	keystroke_t	t	n/a
317.136	0.06	634272	keystroke_u	u	n/a
317.3765	0.0745	634753	keystroke_n	n	n/a
317.5865	0.0745	635173	keystroke_i	i	n/a
317.7065	0.1195	635413	keystroke_n	n	n/a
317.8565	0.0745	635713	keystroke_g	g	n/a
317.9915	0.0895	635983	keystroke_Key.space	Key.space	n/a
318.3215	0.0745	636643	keystroke_r	r	n/a
318.366	0.0755	636732	keystroke_e	e	n/a
318.9965	0.0895	637993	keystroke_s	s	n/a
319.206	0.0755	638412	keystroke_t	t	n/a
319.3715	0.075	638743	keystroke_o	o	n/a
319.4765	0.075	638953	keystroke_r	r	n/a
319.5965	0.0745	639193	keystroke_e	e	n/a
319.7615	0.0895	639523	keystroke_Key.space	Key.space	n/a
320.181	0.09	640362	keystroke_b	b	n/a
320.3765	0.06	640753	keystroke_u	u	n/a
320.6615	0.06	641323	keystroke_f	f	n/a
320.677	0.0295	641354	keystroke_g	g	n/a
320.8415	0.09	641683	keystroke_f	f	n/a
321.3505	0.046	642701	keystroke_Key.backspace	Key.backspace	n/a
321.531	0.0745	643062	keystroke_Key.backspace	Key.backspace	n/a
321.6215	0.1055	643243	keystroke_f	f	n/a
321.8765	0.0905	643753	keystroke_a	a	n/a
322.0405	0.106	644081	keystroke_l	l	n/a
322.2965	0.0745	644593	keystroke_o	o	n/a
323.076	0.12	646152	keystroke_Key.space	Key.space	n/a
323.346	0.075	646692	keystroke_t	t	n/a
323.481	0.075	646962	keystroke_i	i	n/a
323.631	0.046	647262	keystroke_t	t	n/a
323.7365	0.0745	647473	keystroke_l	l	n/a
325.0565	0.09	650113	keystroke_Key.backspace	Key.backspace	n/a
325.401	0.09	650802	keystroke_Key.backspace	Key.backspace	n/a
325.731	0.0745	651462	keystroke_l	l	n/a
325.9255	0.061	651851	keystroke_e	e	n/a
326.3605	0.06	652721	keystroke_Key.enter	Key.enter	n/a
326.429	10.6885	652858	prompt	n/a	opened governmental unlock validation\n
327.456	0.09	654912	keystroke_o	o	n/a
327.651	0.1055	655302	keystroke_p	p	n/a
327.817	0.074	655634	keystroke_e	e	n/a
328.011	0.0755	656022	keystroke_n	n	n/a
328.266	0.0755	656532	keystroke_e	e	n/a
328.506	0.061	657012	keystroke_d	d	n/a
328.7315	0.105	657463	keystroke_Key.space	Key.space	n/a
329.271	0.06	658542	keystroke_g	g	n/a
329.392	0.075	658784	keystroke_o	o	n/a
329.601	0.075	659202	keystroke_v	v	n/a
329.781	0.06	659562	keystroke_e	e	n/a
329.8265	0.09	659653	keystroke_r	r	n/a
330.051	0.0755	660102	keystroke_n	n	n/a
330.3215	0.105	660643	keystroke_m	m	n/a
330.5015	0.0595	661003	keystroke_e	e	n/a
330.651	0.06	661302	keystroke_n	n	n/a
330.7565	0.0745	661513	keystroke_t	t	n/a
331.1015	0.105	662203	keystroke_a	a	n/a
331.4315	0.075	662863	keystroke_l	l	n/a
331.6265	0.105	663253	keystroke_Key.space	Key.space	n/a
331.9715	0.06	663943	keystroke_u	u	n/a
332.1665	0.075	664333	keystroke_n	n	n/a
332.451	0.09	664902	keystroke_l	l	n/a
332.6765	0.09	665353	keystroke_o	o	n/a
332.871	0.0605	665742	keystroke_c	c	n/a
332.976	0.1055	665952	keystroke_a	a	n/a
333.216	0.075	666432	keystroke_l	l	n/a
333.666	0.03	667332	keystroke_Key.backspace	Key.backspace	n/a
333.831	0.075	667662	keystroke_Key.backspace	Key.backspace	n/a
334.101	0.09	668202	keystroke_k	k	n/a
334.4315	0.09	668863	keystroke_Key.space	Key.space	n/a
335.1505	0.091	670301	keystroke_v	v	n/a
335.2865	0.105	670573	keystroke_a	a	n/a
335.4065	0.09	670813	keystroke_l	l	n/a
335.6005	0.0905	671201	keystroke_i	i	n/a
335.737	0.09	671474	keystroke_d	d	n/a
335.8865	0.0595	671773	keystroke_a	a	n/a
336.0215	0.09	672043	keystroke_t	t	n/a
336.1555	0.076	672311	keystroke_i	i	n/a
336.2455	0.151	672491	keystroke_o	o	n/a
336.426	0.09	672852	keystroke_n	n	n/a
337.0715	0.045	674143	keystroke_Key.enter	Key.enter	n/a
337.1235	10.254	674247	prompt	n/a	civic given conjunction fiscal\n
338.121	0.0605	676242	keystroke_c	c	n/a
338.256	0.09	676512	keystroke_i	i	n/a
338.421	0.075	676842	keystroke_v	v	n/a
338.6305	0.075	677261	keystroke_i	i	n/a
338.886	0.0755	677772	keystroke_c	c	n/a
339.1555	0.0755	678311	keystroke_Key.space	Key.space	n/a
339.6365	0.0595	679273	keystroke_g	g	n/a
339.801	0.0755	679602	keystroke_i	i	n/a
340.041	0.06	680082	keystroke_v	v	n/a
340.506	0.06	681012	keystroke_e	e	n/a
340.641	0.0755	681282	keystroke_n	n	n/a
340.8665	0.075	681733	keystroke_Key.space	Key.space	n/a
341.2265	0.075	682453	keystroke_c	c	n/a
341.4665	0.105	682933	keystroke_o	o	n/a
341.6315	0.105	683263	keystroke_n	n	n/a
342.0505	0.0305	684101	keystroke_u	u	n/a
342.6205	0.075	685241	keystroke_Key.backspace	Key.backspace	n/a
343.0265	0.119	686053	keystroke_j	j	n/a
343.6405	0.09	687281	keystroke_u	u	n/a
344.0465	0.104	688093	keystroke_n	n	n/a
344.4055	0.075	688811	keystroke_c	c	n/a
344.631	0.0755	689262	keystroke_t	t	n/a
344.751	0.06	689502	keystroke_i	i	n/a
344.841	0.151	689682	keystroke_o	o	n/a
345.052	0.074	690104	keystroke_n	n	n/a
345.2605	0.121	690521	keystroke_Key.space	Key.space	n/a
345.531	0.1055	691062	keystroke_f	f	n/a
345.6505	0.09	691301	keystroke_i	i	n/a
345.861	0.0745	691722	keystroke_s	s	n/a
346.1765	0.074	692353	keystroke_c	c	n/a
346.3265	0.09	692653	keystroke_a	a	n/a
346.4455	0.075	692891	keystroke_l	l	n/a
347.316	0.06	694632	keystroke_Key.enter	Key.enter	n/a
347.3815	9.2665	694763	prompt	n/a	criteria testing reflect yours\n
348.3365	0.0595	696673	keystroke_c	c	n/a
348.5165	0.074	697033	keystroke_r	r	n/a
348.681	0.0605	697362	keystroke_i	i	n/a
349.0715	0.1045	698143	keystroke_t	t	n/a
349.341	0.075	698682	keystroke_e	e	n/a
349.4015	0.0895	698803	keystroke_r	r	n/a
349.7015	0.0895	699403	keystroke_i	i	n/a
349.851	0.0905	699702	keystroke_a	a	n/a
350.241	0.105	700482	keystroke_Key.space	Key.space	n/a
350.5105	0.076	701021	keystroke_t	t	n/a
350.781	0.075	701562	keystroke_e	e	n/a
350.962	0.059	701924	keystroke_s	s	n/a
351.0965	0.075	702193	keystroke_t	t	n/a
351.2315	0.0745	702463	keystroke_i	i	n/a
351.486	0.015	702972	keystroke_n	n	n/a
351.531	0.075	703062	keystroke_g	g	n/a
351.636	0.105	703272	keystroke_Key.space	Key.space	n/a
351.921	0.0755	703842	keystroke_f	f	n/a
352.1455	0.105	704291	keystroke_e	e	n/a
352.6565	0.0445	705313	keystroke_Key.backspace	Key.backspace	n/a
352.836	0.075	705672	keystroke_Key.backspace	Key.backspace	n/a
352.9415	0.0895	705883	keystroke_r	r	n/a
353.0455	0.076	706091	keystroke_e	e	n/a
353.496	0.0905	706992	keystroke_f	f	n/a
353.811	0.075	707622	keystroke_l	l	n/a
353.946	0.0895	707892	keystroke_e	e	n/a
354.1565	0.074	708313	keystroke_c	c	n/a
354.336	0.0745	708672	keystroke_t	t	n/a
354.4855	0.105	708971	keystroke_Key.space	Key.space	n/a
354.7565	0.045	709513	keystroke_y	y	n/a
354.8605	0.106	709721	keystroke_o	o	n/a
354.9955	0.076	709991	keystroke_u	u	n/a
355.1015	0.0895	710203	keystroke_r	r	n/a
355.341	0.09	710682	keystroke_s	s	n/a
356.5705	0.0755	713141	keystroke_Key.enter	Key.enter	n/a
356.652	9.9855	713304	prompt	n/a	bridges males women independent\n
357.4855	0.061	714971	keystroke_b	b	n/a
357.6965	0.059	715393	keystroke_r	r	n/a
357.8455	0.0605	715691	keystroke_i	i	n/a
358.0115	0.0745	716023	keystroke_d	d	n/a
358.341	0.09	716682	keystroke_g	g	n/a
358.536	0.075	717072	keystroke_e	e	n/a
358.716	0.075	717432	keystroke_s	s	n/a
358.851	0.105	717702	keystroke_Key.space	Key.space	n/a
359.421	0.09	718842	keystroke_m	m	n/a
359.556	0.121	719112	keystroke_a	a	n/a
359.721	0.09	719442	keystroke_l	l	n/a
359.931	0.0455	719862	keystroke_e	e	n/a
360.111	0.075	720222	keystroke_s	s	n/a
360.246	0.075	720492	keystroke_Key.space	Key.space	n/a
360.666	0.105	721332	keystroke_w	w	n/a
360.801	0.0895	721602	keystroke_o	o	n/a
361.566	0.105	723132	keystroke_m	m	n/a
361.806	0.0595	723612	keystroke_e	e	n/a
361.8955	0.075	723791	keystroke_n	n	n/a
362.1955	0.091	724391	keystroke_Key.space	Key.space	n/a
362.3915	0.059	724783	keystroke_i	i	n/a
362.5565	0.0895	725113	keystroke_n	n	n/a
362.766	0.06	725532	keystroke_d	d	n/a
362.961	0.045	725922	keystroke_e	e	n/a
363.141	0.09	726282	keystroke_p	p	n/a
363.426	0.075	726852	keystroke_e	e	n/a
363.561	0.075	727122	keystroke_n	n	n/a
363.756	0.075	727512	keystroke_d	d	n/a
363.981	0.075	727962	keystroke_e	e	n/a
364.206	0.09	728412	keystroke_n	n	n/a
364.476	0.03	728952	keystroke_t	t	n/a
366.6225	0.013	733245	keystroke_Key.enter	Key.enter	n/a
366.6505	7.307	733301	prompt	n/a	inside press connection checkout\n
367.4455	0.06	734891	keystroke_i	i	n/a
367.596	0.0905	735192	keystroke_n	n	n/a
367.8065	0.09	735613	keystroke_s	s	n/a
367.9415	0.075	735883	keystroke_i	i	n/a
368.0615	0.06	736123	keystroke_d	d	n/a
368.2715	0.015	736543	keystroke_e	e	n/a
368.3015	0.089	736603	keystroke_Key.space	Key.space	n/a
368.496	0.105	736992	keystroke_p	p	n/a
368.616	0.075	737232	keystroke_r	r	n/a
368.676	0.09	737352	keystroke_e	e	n/a
368.9165	0.075	737833	keystroke_s	s	n/a
369.1115	0.059	738223	keystroke_s	s	n/a
369.2605	0.0755	738521	keystroke_Key.space	Key.space	n/a
369.636	0.0605	739272	keystroke_c	c	n/a
369.7415	0.0895	739483	keystroke_o	o	n/a
369.9515	0.0745	739903	keystroke_n	n	n/a
370.176	0.0755	740352	keystroke_n	n	n/a
370.3565	0.0745	740713	keystroke_e	e	n/a
370.5365	0.075	741073	keystroke_c	c	n/a
370.7315	0.059	741463	keystroke_t	t	n/a
370.821	0.09	741642	keystroke_i	i	n/a
370.896	0.18	741792	keystroke_o	o	n/a
371.0915	0.0595	742183	keystroke_n	n	n/a
371.24	0.106	742480	keystroke_Key.space	Key.space	n/a
371.391	0.075	742782	keystroke_c	c	n/a
371.5265	0.0745	743053	keystroke_h	h	n/a
371.6755	0.075	743351	keystroke_e	e	n/a
371.856	0.0905	743712	keystroke_c	c	n/a
372.006	0.135	744012	keystroke_k	k	n/a
372.261	0.09	744522	keystroke_o	o	n/a
372.471	0.0755	744942	keystroke_u	u	n/a
372.666	0.09	745332	keystroke_t	t	n/a
373.881	0.075	747762	keystroke_Key.enter	Key.enter	n/a
373.9615	17.1855	747923	prompt	n/a	provision cologne jump specific\n
374.7655	0.1055	749531	keystroke_p	p	n/a
374.931	0.075	749862	keystroke_r	r	n/a
375.051	0.075	750102	keystroke_o	o	n/a
375.3205	0.0755	750641	keystroke_v	v	n/a
375.456	0.0745	750912	keystroke_i	i	n/a
375.6655	0.0755	751331	keystroke_s	s	n/a
375.98	0.106	751960	keystroke_i	i	n/a
376.28	0.121	752560	keystroke_o	o	n/a
376.491	0.09	752982	keystroke_n	n	n/a
376.7755	0.0905	753551	keystroke_Key.space	Key.space	n/a
377.091	0.09	754182	keystroke_c	c	n/a
377.2105	0.0755	754421	keystroke_o	o	n/a
377.481	0.09	754962	keystroke_l	l	n/a
378.0805	0.076	756161	keystroke_g	g	n/a
378.201	0.0905	756402	keystroke_n	n	n/a
378.7255	0.06	757451	keystroke_Key.backspace	Key.backspace	n/a
378.906	0.0595	757812	keystroke_Key.backspace	Key.backspace	n/a
379.116	0.075	758232	keystroke_o	o	n/a
379.5355	0.091	759071	keystroke_g	g	n/a
379.6705	0.076	759341	keystroke_n	n	n/a
380.241	0.06	760482	keystroke_e	e	n/a
380.406	0.075	760812	keystroke_Key.space	Key.space	n/a
380.7065	0.09	761413	keystroke_j	j	n/a
380.961	0.075	761922	keystroke_u	u	n/a
381.186	0.09	762372	keystroke_m	m	n/a
381.441	0.09	762882	keystroke_p	p	n/a
381.8755	0.09	763751	keystroke_Key.space	Key.space	n/a
382.2505	0.105	764501	keystroke_s	s	n/a
382.3855	0.09	764771	keystroke_p	p	n/a
382.6265	0.075	765253	keystroke_e	e	n/a
382.8515	0.0745	765703	keystroke_c	c	n/a
383.2105	0.075	766421	keystroke_f	f	n/a
383.3165	0.075	766633	keystroke_i	i	n/a
383.6615	0.074	767323	keystroke_c	c	n/a
386.152	0.028	772304	keystroke_Key.backspace	Key.backspace	n/a
386.2855	0.075	772571	keystroke_Key.backspace	Key.backspace	n/a
386.931	0.075	773862	keystroke_Key.backspace	Key.backspace	n/a
387.246	0.09	774492	keystroke_i	i	n/a
387.966	0.075	775932	keystroke_f	f	n/a
388.056	0.0605	776112	keystroke_i	i	n/a
388.9105	0.091	777821	keystroke_c	c	n/a
391.133	0.013	782266	keystroke_Key.enter	Key.enter	n/a
391.15	12.687	782300	prompt	n/a	housewives satisfaction workshop deputy\n
392.1365	0.029	784273	keystroke_h	h	n/a
392.241	0.105	784482	keystroke_o	o	n/a
392.421	0.075	784842	keystroke_u	u	n/a
392.691	0.0745	785382	keystroke_r	r	n/a
393.0505	0.075	786101	keystroke_Key.backspace	Key.backspace	n/a
393.141	0.1045	786282	keystroke_s	s	n/a
393.321	0.0745	786642	keystroke_e	e	n/a
393.741	0.0755	787482	keystroke_w	w	n/a
393.921	0.0605	787842	keystroke_i	i	n/a
394.311	0.06	788622	keystroke_v	v	n/a
394.4905	0.076	788981	keystroke_e	e	n/a
394.686	0.075	789372	keystroke_s	s	n/a
394.851	0.1045	789702	keystroke_Key.space	Key.space	n/a
395.076	0.0905	790152	keystroke_s	s	n/a
395.3305	0.075	790661	keystroke_a	a	n/a
395.5415	0.074	791083	keystroke_t	t	n/a
395.8265	0.0895	791653	keystroke_i	i	n/a
396.081	0.09	792162	keystroke_s	s	n/a
396.546	0.075	793092	keystroke_f	f	n/a
396.681	0.09	793362	keystroke_a	a	n/a
396.891	0.075	793782	keystroke_c	c	n/a
397.101	0.0745	794202	keystroke_t	t	n/a
397.191	0.0755	794382	keystroke_i	i	n/a
397.2805	0.135	794561	keystroke_o	o	n/a
397.4465	0.075	794893	keystroke_n	n	n/a
397.626	0.104	795252	keystroke_Key.space	Key.space	n/a
397.7765	0.0895	795553	keystroke_s	s	n/a
398.226	0.0745	796452	keystroke_Key.backspace	Key.backspace	n/a
398.3605	0.0755	796721	keystroke_w	w	n/a
398.4805	0.09	796961	keystroke_o	o	n/a
398.7055	0.0755	797411	keystroke_r	r	n/a
399.006	0.0895	798012	keystroke_k	k	n/a
399.4405	0.105	798881	keystroke_s	s	n/a
399.621	0.0755	799242	keystroke_h	h	n/a
400.401	0.105	800802	keystroke_o	o	n/a
400.731	0.1345	801462	keystroke_p	p	n/a
401.0305	0.105	802061	keystroke_Key.space	Key.space	n/a
401.3155	0.075	802631	keystroke_d	d	n/a
401.5105	0.06	803021	keystroke_e	e	n/a
401.766	0.12	803532	keystroke_p	p	n/a
402.3965	0.1035	804793	keystroke_u	u	n/a
402.681	0.0755	805362	keystroke_t	t	n/a
402.8465	0.045	805693	keystroke_y	y	n/a
403.776	0.0595	807552	keystroke_Key.enter	Key.enter	n/a
403.842	9.3405	807684	prompt	n/a	gardening dimension concord fred\n
404.6455	0.0605	809291	keystroke_g	g	n/a
404.796	0.075	809592	keystroke_a	a	n/a
404.9165	0.0895	809833	keystroke_r	r	n/a
405.201	0.06	810402	keystroke_d	d	n/a
405.486	0.06	810972	keystroke_e	e	n/a
405.606	0.0605	811212	keystroke_n	n	n/a
405.831	0.0745	811662	keystroke_i	i	n/a
405.9955	0.09	811991	keystroke_n	n	n/a
406.1155	0.075	812231	keystroke_g	g	n/a
406.251	0.09	812502	keystroke_Key.space	Key.space	n/a
406.521	0.075	813042	keystroke_d	d	n/a
406.7005	0.0755	813401	keystroke_i	i	n/a
406.881	0.075	813762	keystroke_m	m	n/a
407.5115	0.0595	815023	keystroke_e	e	n/a
407.6755	0.076	815351	keystroke_n	n	n/a
407.9015	0.09	815803	keystroke_s	s	n/a
408.0815	0.1045	816163	keystroke_i	i	n/a
408.201	0.15	816402	keystroke_o	o	n/a
408.381	0.0905	816762	keystroke_n	n	n/a
408.606	0.105	817212	keystroke_Key.space	Key.space	n/a
408.876	0.0755	817752	keystroke_c	c	n/a
409.011	0.0895	818022	keystroke_o	o	n/a
409.1905	0.09	818381	keystroke_n	n	n/a
409.6405	0.075	819281	keystroke_c	c	n/a
409.8655	0.0745	819731	keystroke_o	o	n/a
410.0765	0.0595	820153	keystroke_r	r	n/a
410.315	0.0915	820630	keystroke_d	d	n/a
410.5555	0.1045	821111	keystroke_Key.space	Key.space	n/a
410.841	0.0755	821682	keystroke_f	f	n/a
411.0065	0.104	822013	keystroke_r	r	n/a
411.291	0.105	822582	keystroke_e	e	n/a
411.726	0.06	823452	keystroke_d	d	n/a
413.106	0.075	826212	keystroke_Key.enter	Key.enter	n/a
413.187	8.0505	826374	prompt	n/a	surface waterproof corn limited\n
414.021	0.0895	828042	keystroke_s	s	n/a
414.1555	0.046	828311	keystroke_u	u	n/a
414.3055	0.061	828611	keystroke_r	r	n/a
414.6055	0.075	829211	keystroke_f	f	n/a
414.741	0.0905	829482	keystroke_a	a	n/a
414.936	0.075	829872	keystroke_c	c	n/a
415.1605	0.0455	830321	keystroke_e	e	n/a
415.416	0.075	830832	keystroke_Key.space	Key.space	n/a
415.896	0.09	831792	keystroke_w	w	n/a
416.076	0.0605	832152	keystroke_a	a	n/a
416.211	0.0895	832422	keystroke_t	t	n/a
416.346	0.0595	832692	keystroke_e	e	n/a
416.4205	0.076	832841	keystroke_r	r	n/a
416.706	0.1195	833412	keystroke_p	p	n/a
416.901	0.075	833802	keystroke_r	r	n/a
417.036	0.09	834072	keystroke_o	o	n/a
417.531	0.075	835062	keystroke_o	o	n/a
417.771	0.074	835542	keystroke_f	f	n/a
417.965	0.09	835930	keystroke_Key.space	Key.space	n/a
418.311	0.075	836622	keystroke_c	c	n/a
418.431	0.09	836862	keystroke_o	o	n/a
418.6405	0.0605	837281	keystroke_r	r	n/a
418.776	0.0755	837552	keystroke_n	n	n/a
419.046	0.075	838092	keystroke_Key.space	Key.space	n/a
419.361	0.09	838722	keystroke_l	l	n/a
419.5715	0.074	839143	keystroke_i	i	n/a
419.7815	0.09	839563	keystroke_m	m	n/a
420.0205	0.076	840041	keystroke_i	i	n/a
420.1865	0.074	840373	keystroke_t	t	n/a
420.3505	0.09	840701	keystroke_e	e	n/a
420.546	0.0905	841092	keystroke_d	d	n/a
421.1755	0.06	842351	keystroke_Key.enter	Key.enter	n/a
421.242	10.631	842484	prompt	n/a	scholarships losses thing sizes\n
421.9555	0.091	843911	keystroke_s	s	n/a
422.1205	0.045	844241	keystroke_h	h	n/a
422.6315	0.045	845263	keystroke_Key.backspace	Key.backspace	n/a
422.7515	0.06	845503	keystroke_c	c	n/a
422.9015	0.074	845803	keystroke_h	h	n/a
422.946	0.015	845892	keystroke_g	g	n/a
423.1555	0.0605	846311	keystroke_o	o	n/a
423.6655	0.0755	847331	keystroke_Key.backspace	Key.backspace	n/a
423.876	0.0445	847752	keystroke_Key.backspace	Key.backspace	n/a
424.101	0.0895	848202	keystroke_o	o	n/a
424.3415	0.0895	848683	keystroke_l	l	n/a
424.5355	0.09	849071	keystroke_a	a	n/a
424.6855	0.091	849371	keystroke_r	r	n/a
425.001	0.0905	850002	keystroke_s	s	n/a
425.1655	0.0755	850331	keystroke_h	h	n/a
425.331	0.105	850662	keystroke_i	i	n/a
425.526	0.1195	851052	keystroke_p	p	n/a
425.8255	0.09	851651	keystroke_s	s	n/a
426.0805	0.075	852161	keystroke_Key.space	Key.space	n/a
426.4855	0.09	852971	keystroke_l	l	n/a
426.696	0.075	853392	keystroke_o	o	n/a
426.936	0.09	853872	keystroke_s	s	n/a
427.146	0.1195	854292	keystroke_s	s	n/a
427.401	0.075	854802	keystroke_e	e	n/a
427.626	0.0745	855252	keystroke_s	s	n/a
427.8355	0.12	855671	keystroke_Key.space	Key.space	n/a
428.346	0.075	856692	keystroke_t	t	n/a
428.466	0.0605	856932	keystroke_h	h	n/a
428.6305	0.075	857261	keystroke_i	i	n/a
428.7805	0.09	857561	keystroke_n	n	n/a
428.9605	0.075	857921	keystroke_g	g	n/a
429.261	0.09	858522	keystroke_Key.space	Key.space	n/a
429.516	0.105	859032	keystroke_s	s	n/a
429.741	0.06	859482	keystroke_i	i	n/a
429.936	0.09	859872	keystroke_z	z	n/a
430.16	0.0765	860320	keystroke_e	e	n/a
430.4005	0.0755	860801	keystroke_s	s	n/a
431.81	0.0605	863620	keystroke_Key.enter	Key.enter	n/a
431.8775	13.765	863755	prompt	n/a	mixed paraguay consequences assessments\n
432.6805	0.0755	865361	keystroke_m	m	n/a
432.8615	0.074	865723	keystroke_i	i	n/a
433.056	0.1195	866112	keystroke_x	x	n/a
433.2955	0.0755	866591	keystroke_e	e	n/a
433.4755	0.09	866951	keystroke_d	d	n/a
433.6255	0.1055	867251	keystroke_Key.space	Key.space	n/a
434.166	0.09	868332	keystroke_p	p	n/a
434.346	0.105	868692	keystroke_a	a	n/a
434.4815	0.09	868963	keystroke_r	r	n/a
434.6765	0.089	869353	keystroke_a	a	n/a
435.2305	0.076	870461	keystroke_g	g	n/a
435.5615	0.0745	871123	keystroke_u	u	n/a
435.801	0.0895	871602	keystroke_a	a	n/a
436.385	0.0155	872770	keystroke_y	y	n/a
436.656	0.075	873312	keystroke_Key.space	Key.space	n/a
436.911	0.06	873822	keystroke_c	c	n/a
437.047	0.074	874094	keystroke_o	o	n/a
437.211	0.075	874422	keystroke_n	n	n/a
437.406	0.075	874812	keystroke_s	s	n/a
437.736	0.076	875472	keystroke_e	e	n/a
438.231	0.1045	876462	keystroke_q	q	n/a
438.3805	0.0605	876761	keystroke_u	u	n/a
438.6065	0.075	877213	keystroke_e	e	n/a
438.816	0.0745	877632	keystroke_n	n	n/a
439.131	0.075	878262	keystroke_c	c	n/a
439.356	0.075	878712	keystroke_e	e	n/a
439.5665	0.089	879133	keystroke_s	s	n/a
439.776	0.1345	879552	keystroke_Key.space	Key.space	n/a
440.436	0.09	880872	keystroke_a	a	n/a
440.631	0.0745	881262	keystroke_s	s	n/a
440.8265	0.075	881653	keystroke_s	s	n/a
441.0655	0.075	882131	keystroke_e	e	n/a
441.485	0.0765	882970	keystroke_s	s	n/a
441.6805	0.0745	883361	keystroke_s	s	n/a
442.566	0.12	885132	keystroke_m	m	n/a
442.7905	0.1205	885581	keystroke_e	e	n/a
442.9405	0.0755	885881	keystroke_n	n	n/a
443.1055	0.0605	886211	keystroke_t	t	n/a
443.286	0.0745	886572	keystroke_s	s	n/a
445.629	0.011	891258	keystroke_Key.enter	Key.enter	n/a
445.647	12.311	891294	prompt	n/a	challenging enormous municipality work\n
446.5415	0.0745	893083	keystroke_c	c	n/a
446.8105	0.061	893621	keystroke_h	h	n/a
447.0215	0.089	894043	keystroke_a	a	n/a
447.2465	0.074	894493	keystroke_l	l	n/a
447.4265	0.089	894853	keystroke_l	l	n/a
447.5765	0.074	895153	keystroke_e	e	n/a
447.7265	0.059	895453	keystroke_n	n	n/a
447.8905	0.09	895781	keystroke_g	g	n/a
448.236	0.0745	896472	keystroke_i	i	n/a
448.401	0.1055	896802	keystroke_n	n	n/a
448.566	0.09	897132	keystroke_g	g	n/a
448.701	0.1045	897402	keystroke_Key.space	Key.space	n/a
449.406	0.0745	898812	keystroke_e	e	n/a
449.5705	0.075	899141	keystroke_n	n	n/a
449.781	0.1055	899562	keystroke_o	o	n/a
450.4855	0.076	900971	keystroke_r	r	n/a
450.7265	0.0895	901453	keystroke_m	m	n/a
451.011	0.0905	902022	keystroke_o	o	n/a
451.206	0.0605	902412	keystroke_u	u	n/a
451.3565	0.0895	902713	keystroke_s	s	n/a
451.626	0.089	903252	keystroke_Key.space	Key.space	n/a
451.852	0.074	903704	keystroke_m	m	n/a
452.121	0.0745	904242	keystroke_u	u	n/a
452.3755	0.09	904751	keystroke_n	n	n/a
452.8265	0.089	905653	keystroke_i	i	n/a
453.9215	0.0895	907843	keystroke_c	c	n/a
454.056	0.075	908112	keystroke_i	i	n/a
454.266	0.1205	908532	keystroke_p	p	n/a
454.5965	0.1045	909193	keystroke_a	a	n/a
454.836	0.075	909672	keystroke_l	l	n/a
455.391	0.09	910782	keystroke_i	i	n/a
456.036	0.0745	912072	keystroke_t	t	n/a
456.486	0.06	912972	keystroke_y	y	n/a
456.801	0.09	913602	keystroke_Key.space	Key.space	n/a
457.0715	0.0745	914143	keystroke_w	w	n/a
457.146	0.075	914292	keystroke_o	o	n/a
457.326	0.06	914652	keystroke_r	r	n/a
457.401	0.06	914802	keystroke_k	k	n/a
457.881	0.075	915762	keystroke_Key.enter	Key.enter	n/a
457.9625	14.74	915925	prompt	n/a	india albert presidential week\n
459.0365	0.059	918073	keystroke_i	i	n/a
459.2005	0.075	918401	keystroke_n	n	n/a
459.366	0.09	918732	keystroke_d	d	n/a
459.5005	0.075	919001	keystroke_i	i	n/a
459.6665	0.0895	919333	keystroke_a	a	n/a
459.9815	0.0895	919963	keystroke_l	l	n/a
460.461	0.06	920922	keystroke_Key.backspace	Key.backspace	n/a
460.641	0.075	921282	keystroke_Key.space	Key.space	n/a
460.8655	0.105	921731	keystroke_a	a	n/a
461.0165	0.0745	922033	keystroke_l	l	n/a
461.3305	0.075	922661	keystroke_b	b	n/a
461.571	0.0745	923142	keystroke_e	e	n/a
461.676	0.0895	923352	keystroke_r	r	n/a
461.9605	0.06	923921	keystroke_Key.space	Key.space	n/a
462.3805	0.06	924761	keystroke_Key.backspace	Key.backspace	n/a
462.4855	0.0605	924971	keystroke_t	t	n/a
462.6055	0.1055	925211	keystroke_Key.space	Key.space	n/a
462.921	0.1355	925842	keystroke_p	p	n/a
463.2665	0.059	926533	keystroke_r	r	n/a
464.031	0.09	928062	keystroke_e	e	n/a
464.4205	0.09	928841	keystroke_s	s	n/a
464.7955	0.0905	929591	keystroke_i	i	n/a
465.051	0.09	930102	keystroke_d	d	n/a
465.261	0.0455	930522	keystroke_w	w	n/a
465.261	0.0595	930522	keystroke_e	e	n/a
465.3805	0.0605	930761	keystroke_n	n	n/a
465.576	0.0595	931152	keystroke_t	t	n/a
465.8005	0.0745	931601	keystroke_i	i	n/a
466.0565	0.089	932113	keystroke_a	a	n/a
466.206	0.075	932412	keystroke_l	l	n/a
466.941	0.135	933882	keystroke_Key.shift_r	Key.shift_r	n/a
467.4655	0.135	934931	keystroke_Key.left	Key.left	n/a
467.6905	0.09	935381	keystroke_Key.left	Key.left	n/a
467.856	0.09	935712	keystroke_Key.left	Key.left	n/a
468.0205	0.075	936041	keystroke_Key.left	Key.left	n/a
468.1705	0.1355	936341	keystroke_Key.left	Key.left	n/a
468.411	0.12	936822	keystroke_Key.left	Key.left	n/a
468.921	0.045	937842	keystroke_Key.backspace	Key.backspace	n/a
469.536	0.09	939072	keystroke_Key.right	Key.right	n/a
469.716	0.075	939432	keystroke_Key.right	Key.right	n/a
469.896	0.0745	939792	keystroke_Key.right	Key.right	n/a
470.076	0.075	940152	keystroke_Key.right	Key.right	n/a
470.2555	0.075	940511	keystroke_Key.right	Key.right	n/a
470.466	0.105	940932	keystroke_Key.right	Key.right	n/a
471.0055	0.075	942011	keystroke_Key.space	Key.space	n/a
471.381	0.075	942762	keystroke_w	w	n/a
471.621	0.06	943242	keystroke_e	e	n/a
471.801	0.045	943602	keystroke_e	e	n/a
471.861	0.06	943722	keystroke_k	k	n/a
472.626	0.075	945252	keystroke_Key.enter	Key.enter	n/a
472.7075	9.5945	945415	prompt	n/a	retention exploring claimed rebecca\n
473.586	0.075	947172	keystroke_r	r	n/a
473.676	0.105	947352	keystroke_e	e	n/a
474.0955	0.06	948191	keystroke_t	t	n/a
474.3355	0.075	948671	keystroke_e	e	n/a
474.471	0.105	948942	keystroke_n	n	n/a
474.816	0.06	949632	keystroke_t	t	n/a
474.966	0.075	949932	keystroke_i	i	n/a
475.1005	0.1055	950201	keystroke_o	o	n/a
475.2805	0.09	950561	keystroke_n	n	n/a
475.5655	0.12	951131	keystroke_Key.space	Key.space	n/a
475.776	0.0745	951552	keystroke_e	e	n/a
475.9705	0.0905	951941	keystroke_x	x	n/a
476.1055	0.105	952211	keystroke_p	p	n/a
476.3465	0.0895	952693	keystroke_l	l	n/a
476.5705	0.0905	953141	keystroke_o	o	n/a
476.916	0.074	953832	keystroke_r	r	n/a
477.066	0.089	954132	keystroke_i	i	n/a
477.291	0.089	954582	keystroke_n	n	n/a
477.411	0.075	954822	keystroke_g	g	n/a
477.59	0.1055	955180	keystroke_Key.space	Key.space	n/a
477.95	0.091	955900	keystroke_c	c	n/a
478.1155	0.0905	956231	keystroke_l	l	n/a
478.296	0.0895	956592	keystroke_a	a	n/a
478.4905	0.09	956981	keystroke_i	i	n/a
478.716	0.09	957432	keystroke_m	m	n/a
479.0155	0.0755	958031	keystroke_e	e	n/a
479.226	0.0745	958452	keystroke_d	d	n/a
479.4355	0.0905	958871	keystroke_Key.space	Key.space	n/a
479.736	0.074	959472	keystroke_r	r	n/a
479.796	0.105	959592	keystroke_e	e	n/a
480.216	0.075	960432	keystroke_b	b	n/a
480.4705	0.06	960941	keystroke_e	e	n/a
480.801	0.089	961602	keystroke_c	c	n/a
481.01	0.0905	962020	keystroke_c	c	n/a
481.2055	0.0895	962411	keystroke_a	a	n/a
482.241	0.0595	964482	keystroke_Key.enter	Key.enter	n/a
482.3055	10.2865	964611	prompt	n/a	treasure investigations financial tower\n
483.1105	0.0755	966221	keystroke_t	t	n/a
483.336	0.0895	966672	keystroke_r	r	n/a
483.456	0.0895	966912	keystroke_e	e	n/a
483.756	0.1045	967512	keystroke_a	a	n/a
483.95	0.091	967900	keystroke_s	s	n/a
484.1605	0.0455	968321	keystroke_u	u	n/a
484.2955	0.0905	968591	keystroke_r	r	n/a
484.371	0.104	968742	keystroke_e	e	n/a
484.58	0.105	969160	keystroke_Key.space	Key.space	n/a
485.046	0.0595	970092	keystroke_i	i	n/a
485.1805	0.1055	970361	keystroke_n	n	n/a
485.4805	0.06	970961	keystroke_v	v	n/a
485.661	0.0755	971322	keystroke_e	e	n/a
485.856	0.0595	971712	keystroke_s	s	n/a
485.961	0.0595	971922	keystroke_t	t	n/a
486.1265	0.0735	972253	keystroke_i	i	n/a
486.4855	0.06	972971	keystroke_g	g	n/a
486.666	0.075	973332	keystroke_a	a	n/a
486.831	0.075	973662	keystroke_t	t	n/a
486.966	0.09	973932	keystroke_i	i	n/a
487.071	0.135	974142	keystroke_o	o	n/a
487.251	0.105	974502	keystroke_n	n	n/a
487.416	0.09	974832	keystroke_s	s	n/a
487.5955	0.1055	975191	keystroke_Key.space	Key.space	n/a
487.986	0.045	975972	keystroke_f	f	n/a
488.106	0.075	976212	keystroke_i	i	n/a
488.271	0.1055	976542	keystroke_n	n	n/a
488.4665	0.089	976933	keystroke_a	a	n/a
488.6605	0.0905	977321	keystroke_n	n	n/a
489.0355	0.0455	978071	keystroke_c	c	n/a
489.1555	0.0755	978311	keystroke_i	i	n/a
489.3665	0.0745	978733	keystroke_a	a	n/a
489.4705	0.075	978941	keystroke_l	l	n/a
489.726	0.075	979452	keystroke_Key.space	Key.space	n/a
489.996	0.0745	979992	keystroke_t	t	n/a
490.1455	0.075	980291	keystroke_o	o	n/a
490.3105	0.09	980621	keystroke_w	w	n/a
490.581	0.075	981162	keystroke_e	e	n/a
491.376	0.0745	982752	keystroke_r	r	n/a
492.515	0.075	985030	keystroke_Key.enter	Key.enter	n/a
492.5965	9.3255	985193	prompt	n/a	zinc weekly toilet responded\n
493.491	0.09	986982	keystroke_z	z	n/a
493.6265	0.09	987253	keystroke_i	i	n/a
493.926	0.09	987852	keystroke_n	n	n/a
494.271	0.075	988542	keystroke_c	c	n/a
494.5105	0.09	989021	keystroke_Key.space	Key.space	n/a
494.9455	0.075	989891	keystroke_w	w	n/a
495.1555	0.0605	990311	keystroke_e	e	n/a
495.3355	0.075	990671	keystroke_e	e	n/a
495.4555	0.045	990911	keystroke_k	k	n/a
495.6055	0.12	991211	keystroke_l	l	n/a
495.8755	0.046	991751	keystroke_y	y	n/a
496.1155	0.105	992231	keystroke_Key.space	Key.space	n/a
496.4155	0.075	992831	keystroke_t	t	n/a
496.566	0.09	993132	keystroke_o	o	n/a
496.746	0.09	993492	keystroke_i	i	n/a
497.151	0.089	994302	keystroke_l	l	n/a
497.345	0.045	994690	keystroke_e	e	n/a
497.525	0.06	995050	keystroke_t	t	n/a
497.69	0.105	995380	keystroke_Key.space	Key.space	n/a
497.96	0.105	995920	keystroke_r	r	n/a
498.05	0.12	996100	keystroke_e	e	n/a
498.321	0.089	996642	keystroke_p	p	n/a
498.9665	0.029	997933	keystroke_o	o	n/a
499.326	0.06	998652	keystroke_Key.backspace	Key.backspace	n/a
499.5355	0.0455	999071	keystroke_Key.backspace	Key.backspace	n/a
499.566	0.0895	999132	keystroke_s	s	n/a
499.7755	0.12	999551	keystroke_p	p	n/a
500.031	0.09	1000062	keystroke_o	o	n/a
500.256	0.089	1000512	keystroke_n	n	n/a
500.406	0.09	1000812	keystroke_d	d	n/a
500.7505	0.06	1001501	keystroke_e	e	n/a
500.9315	0.089	1001863	keystroke_d	d	n/a
501.8605	0.0595	1003721	keystroke_Key.enter	Key.enter	n/a
501.927	15.79	1003854	prompt	n/a	headquarters geographic hispanic assessed\n
502.881	0.059	1005762	keystroke_h	h	n/a
503.061	0.0595	1006122	keystroke_e	e	n/a
503.1805	0.09	1006361	keystroke_a	a	n/a
503.391	0.0745	1006782	keystroke_d	d	n/a
503.6155	0.045	1007231	keystroke_e	e	n/a
504.065	0.076	1008130	keystroke_Key.backspace	Key.backspace	n/a
504.201	0.105	1008402	keystroke_q	q	n/a
504.365	0.061	1008730	keystroke_u	u	n/a
504.725	0.09	1009450	keystroke_a	a	n/a
504.9205	0.0745	1009841	keystroke_r	r	n/a
505.1755	0.0755	1010351	keystroke_t	t	n/a
505.355	0.0605	1010710	keystroke_e	e	n/a
505.401	0.0895	1010802	keystroke_r	r	n/a
505.716	0.0895	1011432	keystroke_s	s	n/a
506.2855	0.105	1012571	keystroke_Key.space	Key.space	n/a
506.8255	0.06	1013651	keystroke_g	g	n/a
507.021	0.059	1014042	keystroke_r	r	n/a
507.095	0.076	1014190	keystroke_e	e	n/a
507.5155	0.015	1015031	keystroke_o	o	n/a
507.786	0.06	1015572	keystroke_Key.backspace	Key.backspace	n/a
507.966	0.0895	1015932	keystroke_Key.backspace	Key.backspace	n/a
508.325	0.076	1016650	keystroke_Key.backspace	Key.backspace	n/a
508.49	0.075	1016980	keystroke_e	e	n/a
508.64	0.075	1017280	keystroke_o	o	n/a
509.165	0.0905	1018330	keystroke_g	g	n/a
509.3905	0.09	1018781	keystroke_r	r	n/a
509.5405	0.09	1019081	keystroke_a	a	n/a
509.6155	0.1205	1019231	keystroke_p	p	n/a
509.826	0.0595	1019652	keystroke_h	h	n/a
509.9905	0.09	1019981	keystroke_i	i	n/a
510.2455	0.0605	1020491	keystroke_c	c	n/a
510.4555	0.075	1020911	keystroke_Key.space	Key.space	n/a
510.936	0.074	1021872	keystroke_h	h	n/a
511.131	0.075	1022262	keystroke_i	i	n/a
511.31	0.091	1022620	keystroke_s	s	n/a
511.58	0.106	1023160	keystroke_p	p	n/a
511.791	0.105	1023582	keystroke_a	a	n/a
511.926	0.06	1023852	keystroke_n	n	n/a
512.195	0.061	1024390	keystroke_i	i	n/a
512.3755	0.0595	1024751	keystroke_c	c	n/a
512.54	0.076	1025080	keystroke_Key.space	Key.space	n/a
512.7805	0.075	1025561	keystroke_a	a	n/a
512.991	0.0595	1025982	keystroke_s	s	n/a
513.1555	0.0905	1026311	keystroke_s	s	n/a
513.426	0.075	1026852	keystroke_e	e	n/a
513.6805	0.09	1027361	keystroke_s	s	n/a
513.861	0.09	1027722	keystroke_s	s	n/a
515.511	0.0745	1031022	keystroke_e	e	n/a
515.7055	0.0755	1031411	keystroke_d	d	n/a
517.656	0.059	1035312	keystroke_Key.enter	Key.enter	n/a
517.722	15.026	1035444	prompt	n/a	miscellaneous wheels williams tapes\n
518.571	0.075	1037142	keystroke_m	m	n/a
518.7805	0.06	1037561	keystroke_i	i	n/a
518.9455	0.076	1037891	keystroke_s	s	n/a
519.1705	0.0905	1038341	keystroke_c	c	n/a
519.4255	0.045	1038851	keystroke_e	e	n/a
519.5305	0.0905	1039061	keystroke_l	l	n/a
519.726	0.0895	1039452	keystroke_l	l	n/a
519.8915	0.089	1039783	keystroke_a	a	n/a
520.0555	0.0755	1040111	keystroke_n	n	n/a
520.5665	0.059	1041133	keystroke_e	e	n/a
520.7605	0.06	1041521	keystroke_o	o	n/a
520.956	0.059	1041912	keystroke_u	u	n/a
521.331	0.075	1042662	keystroke_s	s	n/a
521.5705	0.09	1043141	keystroke_Key.space	Key.space	n/a
521.9005	0.09	1043801	keystroke_w	w	n/a
522.0655	0.06	1044131	keystroke_h	h	n/a
522.351	0.044	1044702	keystroke_e	e	n/a
522.501	0.075	1045002	keystroke_e	e	n/a
522.635	0.0905	1045270	keystroke_l	l	n/a
522.876	0.09	1045752	keystroke_s	s	n/a
523.0855	0.105	1046171	keystroke_Key.space	Key.space	n/a
523.3105	0.091	1046621	keystroke_w	w	n/a
523.4465	0.075	1046893	keystroke_i	i	n/a
523.671	0.0595	1047342	keystroke_l	l	n/a
523.8355	0.09	1047671	keystroke_l	l	n/a
524.0455	0.075	1048091	keystroke_i	i	n/a
524.2255	0.09	1048451	keystroke_a	a	n/a
524.4205	0.03	1048841	keystroke_n	n	n/a
524.901	0.059	1049802	keystroke_Key.backspace	Key.backspace	n/a
525.11	0.105	1050220	keystroke_m	m	n/a
525.231	0.105	1050462	keystroke_s	s	n/a
525.7255	0.105	1051451	keystroke_Key.space	Key.space	n/a
526.161	0.0745	1052322	keystroke_t	t	n/a
526.3555	0.09	1052711	keystroke_a	a	n/a
526.8805	0.12	1053761	keystroke_p	p	n/a
527.331	0.075	1054662	keystroke_l	l	n/a
528.126	0.0745	1056252	keystroke_Key.backspace	Key.backspace	n/a
528.2905	0.075	1056581	keystroke_e	e	n/a
528.4855	0.0905	1056971	keystroke_s	s	n/a
532.7015	0.044	1065403	keystroke_Key.enter	Key.enter	n/a
532.7525	10.9145	1065505	prompt	n/a	publishers poor journalists croatia\n
533.7655	0.105	1067531	keystroke_p	p	n/a
533.9605	0.0605	1067921	keystroke_u	u	n/a
534.2755	0.09	1068551	keystroke_b	b	n/a
534.4115	0.104	1068823	keystroke_l	l	n/a
534.576	0.0895	1069152	keystroke_i	i	n/a
534.7555	0.09	1069511	keystroke_s	s	n/a
534.936	0.0745	1069872	keystroke_h	h	n/a
535.1605	0.0605	1070321	keystroke_e	e	n/a
535.311	0.075	1070622	keystroke_r	r	n/a
535.521	0.0895	1071042	keystroke_s	s	n/a
535.686	0.105	1071372	keystroke_Key.space	Key.space	n/a
536.031	0.0895	1072062	keystroke_p	p	n/a
536.271	0.059	1072542	keystroke_o	o	n/a
536.421	0.1195	1072842	keystroke_o	o	n/a
536.826	0.09	1073652	keystroke_r	r	n/a
537.0355	0.1055	1074071	keystroke_Key.space	Key.space	n/a
537.546	0.09	1075092	keystroke_j	j	n/a
537.726	0.12	1075452	keystroke_o	o	n/a
537.906	0.104	1075812	keystroke_u	u	n/a
538.4455	0.0755	1076891	keystroke_r	r	n/a
538.7755	0.09	1077551	keystroke_n	n	n/a
539.0755	0.105	1078151	keystroke_a	a	n/a
539.2255	0.09	1078451	keystroke_l	l	n/a
539.4815	0.074	1078963	keystroke_i	i	n/a
539.6755	0.105	1079351	keystroke_s	s	n/a
539.946	0.0895	1079892	keystroke_t	t	n/a
540.1855	0.075	1080371	keystroke_s	s	n/a
540.3955	0.135	1080791	keystroke_Key.space	Key.space	n/a
540.831	0.1045	1081662	keystroke_c	c	n/a
541.2505	0.075	1082501	keystroke_r	r	n/a
541.6255	0.12	1083251	keystroke_o	o	n/a
541.9555	0.075	1083911	keystroke_a	a	n/a
542.3305	0.0595	1084661	keystroke_t	t	n/a
542.4805	0.0755	1084961	keystroke_i	i	n/a
542.87	0.091	1085740	keystroke_a	a	n/a
543.605	0.0605	1087210	keystroke_Key.enter	Key.enter	n/a
543.6715	7.6605	1087343	prompt	n/a	wake slideshow hits connection\n
544.461	0.1195	1088922	keystroke_w	w	n/a
544.64	0.09	1089280	keystroke_a	a	n/a
544.745	0.06	1089490	keystroke_k	k	n/a
545.1055	0.0605	1090211	keystroke_e	e	n/a
545.2705	0.09	1090541	keystroke_Key.space	Key.space	n/a
545.5405	0.0905	1091081	keystroke_s	s	n/a
546.14	0.09	1092280	keystroke_l	l	n/a
546.3495	0.076	1092699	keystroke_i	i	n/a
546.5755	0.075	1093151	keystroke_d	d	n/a
546.77	0.061	1093540	keystroke_e	e	n/a
547.0705	0.09	1094141	keystroke_s	s	n/a
547.2055	0.06	1094411	keystroke_h	h	n/a
547.3555	0.09	1094711	keystroke_o	o	n/a
547.521	0.075	1095042	keystroke_w	w	n/a
547.7005	0.09	1095401	keystroke_Key.space	Key.space	n/a
547.9255	0.045	1095851	keystroke_h	h	n/a
548.0755	0.105	1096151	keystroke_i	i	n/a
548.2555	0.0755	1096511	keystroke_t	t	n/a
548.465	0.076	1096930	keystroke_s	s	n/a
548.616	0.0895	1097232	keystroke_Key.space	Key.space	n/a
548.886	0.06	1097772	keystroke_c	c	n/a
548.9755	0.135	1097951	keystroke_o	o	n/a
549.2005	0.075	1098401	keystroke_n	n	n/a
549.4255	0.075	1098851	keystroke_n	n	n/a
549.6655	0.105	1099331	keystroke_e	e	n/a
549.9205	0.0605	1099841	keystroke_c	c	n/a
550.1155	0.075	1100231	keystroke_t	t	n/a
550.221	0.075	1100442	keystroke_i	i	n/a
550.311	0.1345	1100622	keystroke_o	o	n/a
550.4755	0.09	1100951	keystroke_n	n	n/a
551.2555	0.075	1102511	keystroke_Key.enter	Key.enter	n/a
551.335	9.942	1102670	prompt	n/a	henry metres configure essex\n
552.26	0.06	1104520	keystroke_h	h	n/a
552.455	0.0755	1104910	keystroke_e	e	n/a
552.6205	0.0595	1105241	keystroke_n	n	n/a
553.6555	0.0755	1107311	keystroke_r	r	n/a
553.8505	0.0455	1107701	keystroke_y	y	n/a
554.1355	0.09	1108271	keystroke_Key.space	Key.space	n/a
554.436	0.1045	1108872	keystroke_m	m	n/a
554.6605	0.0605	1109321	keystroke_e	e	n/a
554.886	0.0745	1109772	keystroke_t	t	n/a
555.096	0.075	1110192	keystroke_r	r	n/a
555.306	0.076	1110612	keystroke_e	e	n/a
555.681	0.075	1111362	keystroke_s	s	n/a
556.2205	0.0905	1112441	keystroke_Key.space	Key.space	n/a
556.641	0.074	1113282	keystroke_c	c	n/a
556.76	0.0905	1113520	keystroke_o	o	n/a
556.9405	0.09	1113881	keystroke_n	n	n/a
557.1805	0.075	1114361	keystroke_f	f	n/a
557.3165	0.059	1114633	keystroke_i	i	n/a
557.526	0.0745	1115052	keystroke_g	g	n/a
557.6905	0.06	1115381	keystroke_u	u	n/a
557.8105	0.165	1115621	keystroke_r	r	n/a
557.9005	0.09	1115801	keystroke_e	e	n/a
558.0655	0.105	1116131	keystroke_Key.space	Key.space	n/a
558.4555	0.09	1116911	keystroke_e	e	n/a
558.741	0.06	1117482	keystroke_s	s	n/a
558.905	0.0755	1117810	keystroke_s	s	n/a
559.145	0.075	1118290	keystroke_e	e	n/a
559.4305	0.075	1118861	keystroke_x	x	n/a
561.215	0.06	1122430	keystroke_Key.enter	Key.enter	n/a
561.2815	10.2855	1122563	prompt	n/a	camping moreover revolution knowledge\n
562.31	0.076	1124620	keystroke_c	c	n/a
562.446	0.089	1124892	keystroke_a	a	n/a
562.536	0.1045	1125072	keystroke_m	m	n/a
562.7755	0.15	1125551	keystroke_p	p	n/a
563.016	0.0895	1126032	keystroke_i	i	n/a
563.2255	0.105	1126451	keystroke_n	n	n/a
563.3605	0.075	1126721	keystroke_g	g	n/a
563.6455	0.075	1127291	keystroke_Key.space	Key.space	n/a
563.8705	0.09	1127741	keystroke_m	m	n/a
564.066	0.1045	1128132	keystroke_o	o	n/a
564.185	0.106	1128370	keystroke_r	r	n/a
564.276	0.12	1128552	keystroke_e	e	n/a
564.8755	0.0755	1129751	keystroke_o	o	n/a
565.04	0.075	1130080	keystroke_v	v	n/a
565.19	0.091	1130380	keystroke_e	e	n/a
565.281	0.0895	1130562	keystroke_r	r	n/a
565.4455	0.12	1130891	keystroke_Key.space	Key.space	n/a
565.8505	0.0905	1131701	keystroke_r	r	n/a
565.9255	0.09	1131851	keystroke_e	e	n/a
566.255	0.075	1132510	keystroke_v	v	n/a
566.406	0.074	1132812	keystroke_o	o	n/a
566.675	0.0905	1133350	keystroke_l	l	n/a
567.2005	0.06	1134401	keystroke_u	u	n/a
567.515	0.075	1135030	keystroke_t	t	n/a
567.711	0.074	1135422	keystroke_i	i	n/a
567.8005	0.165	1135601	keystroke_o	o	n/a
567.9805	0.09	1135961	keystroke_n	n	n/a
568.1755	0.105	1136351	keystroke_Key.space	Key.space	n/a
568.3855	0.09	1136771	keystroke_k	k	n/a
568.5805	0.105	1137161	keystroke_n	n	n/a
568.8205	0.075	1137641	keystroke_o	o	n/a
569.061	0.0745	1138122	keystroke_w	w	n/a
569.3455	0.075	1138691	keystroke_l	l	n/a
569.6155	0.075	1139231	keystroke_e	e	n/a
569.8255	0.0745	1139651	keystroke_d	d	n/a
569.9905	0.0745	1139981	keystroke_g	g	n/a
570.17	0.061	1140340	keystroke_e	e	n/a
571.505	0.0605	1143010	keystroke_Key.enter	Key.enter	n/a
571.57	8.8165	1143140	prompt	n/a	destroyed luck wendy bank\n
572.3455	0.0745	1144691	keystroke_d	d	n/a
572.541	0.06	1145082	keystroke_e	e	n/a
572.721	0.089	1145442	keystroke_s	s	n/a
572.96	0.045	1145920	keystroke_t	t	n/a
573.095	0.075	1146190	keystroke_r	r	n/a
573.26	0.09	1146520	keystroke_o	o	n/a
573.5305	0.045	1147061	keystroke_y	y	n/a
573.7255	0.075	1147451	keystroke_e	e	n/a
573.905	0.0905	1147810	keystroke_d	d	n/a
574.1005	0.105	1148201	keystroke_Key.space	Key.space	n/a
574.4905	0.0905	1148981	keystroke_l	l	n/a
574.7155	0.06	1149431	keystroke_u	u	n/a
574.9405	0.075	1149881	keystroke_c	c	n/a
575.0605	0.09	1150121	keystroke_k	k	n/a
575.3455	0.09	1150691	keystroke_Key.space	Key.space	n/a
575.8555	0.09	1151711	keystroke_w	w	n/a
576.08	0.075	1152160	keystroke_e	e	n/a
576.2755	0.0605	1152551	keystroke_n	n	n/a
576.53	0.061	1153060	keystroke_d	d	n/a
576.861	0.0305	1153722	keystroke_y	y	n/a
577.8805	0.105	1155761	keystroke_Key.space	Key.space	n/a
578.376	0.0595	1156752	keystroke_b	b	n/a
578.5105	0.1045	1157021	keystroke_a	a	n/a
578.675	0.046	1157350	keystroke_n	n	n/a
578.8555	0.09	1157711	keystroke_k	k	n/a
580.3105	0.075	1160621	keystroke_Key.enter	Key.enter	n/a
580.3895	7.0025	1160779	prompt	n/a	something beach stuart bikes\n
581.301	0.074	1162602	keystroke_s	s	n/a
581.4505	0.105	1162901	keystroke_o	o	n/a
581.646	0.1045	1163292	keystroke_m	m	n/a
581.766	0.044	1163532	keystroke_e	e	n/a
582.005	0.0755	1164010	keystroke_t	t	n/a
582.125	0.06	1164250	keystroke_h	h	n/a
582.275	0.0755	1164550	keystroke_i	i	n/a
582.3805	0.1195	1164761	keystroke_n	n	n/a
582.546	0.074	1165092	keystroke_g	g	n/a
582.8005	0.075	1165601	keystroke_Key.space	Key.space	n/a
583.1755	0.06	1166351	keystroke_b	b	n/a
583.3555	0.075	1166711	keystroke_e	e	n/a
583.4755	0.105	1166951	keystroke_a	a	n/a
583.8055	0.06	1167611	keystroke_c	c	n/a
583.9555	0.0605	1167911	keystroke_h	h	n/a
584.1505	0.09	1168301	keystroke_Key.space	Key.space	n/a
584.3605	0.09	1168721	keystroke_s	s	n/a
584.5555	0.0755	1169111	keystroke_t	t	n/a
584.691	0.075	1169382	keystroke_u	u	n/a
584.9005	0.075	1169801	keystroke_a	a	n/a
585.1855	0.075	1170371	keystroke_r	r	n/a
585.4705	0.075	1170941	keystroke_t	t	n/a
585.635	0.105	1171270	keystroke_Key.space	Key.space	n/a
586.1005	0.0605	1172201	keystroke_b	b	n/a
586.3405	0.09	1172681	keystroke_i	i	n/a
586.626	0.0745	1173252	keystroke_k	k	n/a
586.836	0.075	1173672	keystroke_e	e	n/a
587.046	0.0745	1174092	keystroke_s	s	n/a
587.3305	0.06	1174661	keystroke_Key.enter	Key.enter	n/a
587.3965	9.6255	1174793	prompt	n/a	achievement directed submitting trucks\n
588.1405	0.09	1176281	keystroke_a	a	n/a
588.4255	0.06	1176851	keystroke_c	c	n/a
588.591	0.0445	1177182	keystroke_h	h	n/a
588.7705	0.075	1177541	keystroke_i	i	n/a
589.025	0.075	1178050	keystroke_e	e	n/a
589.265	0.075	1178530	keystroke_v	v	n/a
589.4605	0.075	1178921	keystroke_e	e	n/a
589.686	0.0745	1179372	keystroke_m	m	n/a
589.866	0.0895	1179732	keystroke_e	e	n/a
590.0005	0.046	1180001	keystroke_n	n	n/a
590.1205	0.0755	1180241	keystroke_t	t	n/a
590.2705	0.075	1180541	keystroke_Key.space	Key.space	n/a
590.4505	0.0755	1180901	keystroke_d	d	n/a
590.6455	0.0605	1181291	keystroke_i	i	n/a
590.7355	0.12	1181471	keystroke_r	r	n/a
590.871	0.1045	1181742	keystroke_e	e	n/a
591.0955	0.09	1182191	keystroke_c	c	n/a
591.335	0.075	1182670	keystroke_t	t	n/a
591.5	0.075	1183000	keystroke_e	e	n/a
591.68	0.075	1183360	keystroke_d	d	n/a
591.845	0.091	1183690	keystroke_Key.space	Key.space	n/a
592.04	0.076	1184080	keystroke_s	s	n/a
592.191	0.059	1184382	keystroke_u	u	n/a
592.415	0.03	1184830	keystroke_b	b	n/a
592.596	0.119	1185192	keystroke_m	m	n/a
592.881	0.104	1185762	keystroke_i	i	n/a
593.121	0.075	1186242	keystroke_t	t	n/a
593.645	0.061	1187290	keystroke_t	t	n/a
593.81	0.0755	1187620	keystroke_i	i	n/a
593.946	0.104	1187892	keystroke_n	n	n/a
594.095	0.076	1188190	keystroke_g	g	n/a
594.3195	0.0755	1188639	keystroke_Key.space	Key.space	n/a
594.8005	0.061	1189601	keystroke_t	t	n/a
594.9655	0.075	1189931	keystroke_r	r	n/a
595.1005	0.06	1190201	keystroke_u	u	n/a
595.4455	0.075	1190891	keystroke_c	c	n/a
595.6105	0.075	1191221	keystroke_k	k	n/a
595.836	0.0595	1191672	keystroke_s	s	n/a
596.9455	0.075	1193891	keystroke_Key.enter	Key.enter	n/a
597.027	10.93	1194054	prompt	n/a	communications places gore paying\n
597.801	0.0745	1195602	keystroke_c	c	n/a
597.8905	0.1055	1195781	keystroke_o	o	n/a
598.0855	0.06	1196171	keystroke_m	m	n/a
598.25	0.105	1196500	keystroke_m	m	n/a
598.5205	0.045	1197041	keystroke_i	i	n/a
598.5205	0.06	1197041	keystroke_u	u	n/a
598.7155	0.0905	1197431	keystroke_n	n	n/a
598.955	0.0755	1197910	keystroke_i	i	n/a
599.36	0.046	1198720	keystroke_Key.backspace	Key.backspace	n/a
599.5555	0.045	1199111	keystroke_Key.backspace	Key.backspace	n/a
599.7655	0.044	1199531	keystroke_Key.backspace	Key.backspace	n/a
599.9765	0.104	1199953	keystroke_n	n	n/a
600.2765	0.059	1200553	keystroke_c	c	n/a
600.7855	0.06	1201571	keystroke_Key.backspace	Key.backspace	n/a
601.0255	0.075	1202051	keystroke_i	i	n/a
601.1605	0.0905	1202321	keystroke_c	c	n/a
601.311	0.0895	1202622	keystroke_a	a	n/a
601.461	0.09	1202922	keystroke_t	t	n/a
601.595	0.0745	1203190	keystroke_i	i	n/a
601.6855	0.15	1203371	keystroke_o	o	n/a
601.8645	0.105	1203729	keystroke_n	n	n/a
602.0455	0.075	1204091	keystroke_s	s	n/a
602.1955	0.09	1204391	keystroke_Key.space	Key.space	n/a
602.6305	0.105	1205261	keystroke_p	p	n/a
602.8705	0.0905	1205741	keystroke_l	l	n/a
602.9305	0.1055	1205861	keystroke_a	a	n/a
603.1705	0.0755	1206341	keystroke_c	c	n/a
603.396	0.059	1206792	keystroke_e	e	n/a
603.591	0.074	1207182	keystroke_s	s	n/a
603.725	0.1205	1207450	keystroke_Key.space	Key.space	n/a
604.1	0.0755	1208200	keystroke_g	g	n/a
604.25	0.0755	1208500	keystroke_o	o	n/a
604.431	0.0895	1208862	keystroke_r	r	n/a
604.5055	0.105	1209011	keystroke_e	e	n/a
604.7005	0.09	1209401	keystroke_Key.space	Key.space	n/a
604.911	0.119	1209822	keystroke_p	p	n/a
605.0755	0.104	1210151	keystroke_a	a	n/a
605.616	0.0735	1211232	keystroke_y	y	n/a
605.9	0.06	1211800	keystroke_i	i	n/a
606.02	0.1355	1212040	keystroke_n	n	n/a
606.1855	0.0605	1212371	keystroke_g	g	n/a
607.8655	0.09	1215731	keystroke_Key.enter	Key.enter	n/a
607.961	10.258	1215922	prompt	n/a	responded lender episodes ignore\n
608.706	0.074	1217412	keystroke_r	r	n/a
608.766	0.1345	1217532	keystroke_e	e	n/a
608.9905	0.1055	1217981	keystroke_p	p	n/a
609.5455	0.06	1219091	keystroke_Key.backspace	Key.backspace	n/a
609.6805	0.0895	1219361	keystroke_s	s	n/a
609.8155	0.135	1219631	keystroke_p	p	n/a
610.0705	0.09	1220141	keystroke_o	o	n/a
610.28	0.0905	1220560	keystroke_n	n	n/a
610.4755	0.06	1220951	keystroke_d	d	n/a
610.671	0.059	1221342	keystroke_e	e	n/a
610.85	0.075	1221700	keystroke_d	d	n/a
611.15	0.12	1222300	keystroke_Key.space	Key.space	n/a
611.57	0.0745	1223140	keystroke_l	l	n/a
611.7045	0.091	1223409	keystroke_e	e	n/a
611.885	0.06	1223770	keystroke_n	n	n/a
612.0805	0.075	1224161	keystroke_d	d	n/a
612.32	0.06	1224640	keystroke_e	e	n/a
612.4855	0.0595	1224971	keystroke_r	r	n/a
612.65	0.09	1225300	keystroke_Key.space	Key.space	n/a
613.1305	0.06	1226261	keystroke_s	s	n/a
613.505	0.0755	1227010	keystroke_Key.backspace	Key.backspace	n/a
613.64	0.0755	1227280	keystroke_e	e	n/a
613.8205	0.1345	1227641	keystroke_p	p	n/a
614.075	0.09	1228150	keystroke_i	i	n/a
614.4655	0.105	1228931	keystroke_s	s	n/a
614.6305	0.09	1229261	keystroke_o	o	n/a
614.9905	0.075	1229981	keystroke_d	d	n/a
615.185	0.075	1230370	keystroke_e	e	n/a
615.3655	0.09	1230731	keystroke_s	s	n/a
615.4405	0.15	1230881	keystroke_Key.space	Key.space	n/a
615.7255	0.0745	1231451	keystroke_i	i	n/a
616.265	0.075	1232530	keystroke_g	g	n/a
616.5805	0.0745	1233161	keystroke_n	n	n/a
616.82	0.0755	1233640	keystroke_o	o	n/a
616.9255	0.0895	1233851	keystroke_r	r	n/a
617.03	0.0755	1234060	keystroke_e	e	n/a
618.1255	0.089	1236251	keystroke_Key.enter	Key.enter	n/a
618.227	10.64	1236454	prompt	n/a	honest ranked cambodia rally\n
619.3255	0.0595	1238651	keystroke_h	h	n/a
619.625	0.09	1239250	keystroke_o	o	n/a
619.9405	0.0155	1239881	keystroke_n	n	n/a
620.1055	0.0745	1240211	keystroke_e	e	n/a
620.285	0.075	1240570	keystroke_s	s	n/a
620.4205	0.0745	1240841	keystroke_t	t	n/a
620.6155	0.09	1241231	keystroke_Key.space	Key.space	n/a
621.0655	0.075	1242131	keystroke_r	r	n/a
621.2155	0.09	1242431	keystroke_a	a	n/a
621.3205	0.075	1242641	keystroke_n	n	n/a
621.5605	0.0755	1243121	keystroke_k	k	n/a
621.86	0.0605	1243720	keystroke_e	e	n/a
622.0405	0.075	1244081	keystroke_d	d	n/a
622.2205	0.105	1244441	keystroke_Key.space	Key.space	n/a
622.61	0.075	1245220	keystroke_c	c	n/a
622.76	0.075	1245520	keystroke_o	o	n/a
622.865	0.1355	1245730	keystroke_m	m	n/a
623.99	0.0605	1247980	keystroke_Key.backspace	Key.backspace	n/a
624.2	0.075	1248400	keystroke_Key.backspace	Key.backspace	n/a
624.635	0.09	1249270	keystroke_a	a	n/a
624.7855	0.089	1249571	keystroke_m	m	n/a
625.296	0.0745	1250592	keystroke_b	b	n/a
625.4305	0.09	1250861	keystroke_o	o	n/a
626.4355	0.105	1252871	keystroke_d	d	n/a
626.6455	0.0895	1253291	keystroke_i	i	n/a
626.84	0.075	1253680	keystroke_a	a	n/a
627.0505	0.09	1254101	keystroke_Key.space	Key.space	n/a
627.4105	0.075	1254821	keystroke_r	r	n/a
627.5605	0.105	1255121	keystroke_a	a	n/a
627.7855	0.06	1255571	keystroke_l	l	n/a
627.9505	0.0745	1255901	keystroke_l	l	n/a
628.1905	0.0445	1256381	keystroke_y	y	n/a
628.8055	0.0595	1257611	keystroke_Key.enter	Key.enter	n/a
628.8715	10.4655	1257743	prompt	n/a	considerable freebsd docs agrees\n
629.8245	0.061	1259649	keystroke_c	c	n/a
629.9155	0.09	1259831	keystroke_o	o	n/a
630.0805	0.09	1260161	keystroke_n	n	n/a
630.2755	0.09	1260551	keystroke_s	s	n/a
630.9355	0.075	1261871	keystroke_i	i	n/a
631.1445	0.061	1262289	keystroke_d	d	n/a
631.3255	0.075	1262651	keystroke_e	e	n/a
631.4305	0.09	1262861	keystroke_r	r	n/a
631.6255	0.09	1263251	keystroke_a	a	n/a
631.8505	0.09	1263701	keystroke_b	b	n/a
632.0455	0.06	1264091	keystroke_l	l	n/a
632.1505	0.044	1264301	keystroke_e	e	n/a
632.2545	0.12	1264509	keystroke_Key.space	Key.space	n/a
632.525	0.0755	1265050	keystroke_f	f	n/a
632.7355	0.0745	1265471	keystroke_r	r	n/a
633.021	0.0445	1266042	keystroke_e	e	n/a
633.17	0.0605	1266340	keystroke_e	e	n/a
633.6655	0.0745	1267331	keystroke_b	b	n/a
634.1905	0.075	1268381	keystroke_s	s	n/a
634.5205	0.0745	1269041	keystroke_d	d	n/a
634.8345	0.091	1269669	keystroke_Key.space	Key.space	n/a
635.0755	0.075	1270151	keystroke_d	d	n/a
635.1955	0.09	1270391	keystroke_o	o	n/a
635.3455	0.075	1270691	keystroke_c	c	n/a
635.5555	0.075	1271111	keystroke_s	s	n/a
635.7205	0.09	1271441	keystroke_Key.space	Key.space	n/a
635.9605	0.09	1271921	keystroke_a	a	n/a
636.2155	0.074	1272431	keystroke_g	g	n/a
636.4105	0.06	1272821	keystroke_r	r	n/a
636.77	0.0595	1273540	keystroke_e	e	n/a
636.9655	0.059	1273931	keystroke_e	e	n/a
637.37	0.0755	1274740	keystroke_s	s	n/a
639.26	0.0745	1278520	keystroke_Key.enter	Key.enter	n/a
639.342	10.1195	1278684	prompt	n/a	dietary intranet profiles degrees\n
640.1305	0.0895	1280261	keystroke_d	d	n/a
640.2355	0.0745	1280471	keystroke_i	i	n/a
640.4905	0.075	1280981	keystroke_e	e	n/a
640.7005	0.075	1281401	keystroke_t	t	n/a
641.0905	0.0895	1282181	keystroke_a	a	n/a
641.21	0.09	1282420	keystroke_r	r	n/a
641.45	0.045	1282900	keystroke_y	y	n/a
641.6895	0.106	1283379	keystroke_Key.space	Key.space	n/a
641.9005	0.0745	1283801	keystroke_i	i	n/a
642.065	0.09	1284130	keystroke_n	n	n/a
642.425	0.0905	1284850	keystroke_t	t	n/a
642.665	0.0905	1285330	keystroke_r	r	n/a
642.86	0.0755	1285720	keystroke_a	a	n/a
643.265	0.0755	1286530	keystroke_n	n	n/a
643.415	0.06	1286830	keystroke_e	e	n/a
643.5805	0.0745	1287161	keystroke_t	t	n/a
643.73	0.0905	1287460	keystroke_Key.space	Key.space	n/a
644.0155	0.12	1288031	keystroke_p	p	n/a
644.1655	0.09	1288331	keystroke_r	r	n/a
644.3305	0.06	1288661	keystroke_o	o	n/a
644.6155	0.0745	1289231	keystroke_f	f	n/a
644.765	0.0755	1289530	keystroke_i	i	n/a
644.9455	0.09	1289891	keystroke_l	l	n/a
645.0655	0.074	1290131	keystroke_e	e	n/a
645.2605	0.105	1290521	keystroke_s	s	n/a
645.3495	0.106	1290699	keystroke_Key.space	Key.space	n/a
645.6355	0.06	1291271	keystroke_d	d	n/a
645.815	0.075	1291630	keystroke_e	e	n/a
646.1005	0.0595	1292201	keystroke_g	g	n/a
646.2955	0.09	1292591	keystroke_r	r	n/a
646.6545	0.061	1293309	keystroke_e	e	n/a
646.8345	0.0755	1293669	keystroke_e	e	n/a
647.0755	0.075	1294151	keystroke_s	s	n/a
649.447	0.013	1298894	keystroke_Key.enter	Key.enter	n/a
649.464	8.548	1298928	prompt	n/a	harm rotation towards five\n
650.3905	0.045	1300781	keystroke_h	h	n/a
650.5405	0.09	1301081	keystroke_a	a	n/a
650.6595	0.09	1301319	keystroke_r	r	n/a
650.7655	0.074	1301531	keystroke_m	m	n/a
651.0045	0.09	1302009	keystroke_Key.space	Key.space	n/a
651.3655	0.12	1302731	keystroke_t	t	n/a
651.3805	0.06	1302761	keystroke_r	r	n/a
651.9045	0.06	1303809	keystroke_Key.backspace	Key.backspace	n/a
652.1155	0.075	1304231	keystroke_Key.backspace	Key.backspace	n/a
652.2355	0.104	1304471	keystroke_r	r	n/a
652.3705	0.0895	1304741	keystroke_o	o	n/a
652.6555	0.09	1305311	keystroke_t	t	n/a
652.8655	0.09	1305731	keystroke_a	a	n/a
653.1205	0.075	1306241	keystroke_t	t	n/a
653.2255	0.075	1306451	keystroke_i	i	n/a
653.3155	0.15	1306631	keystroke_o	o	n/a
653.5105	0.075	1307021	keystroke_n	n	n/a
653.6895	0.091	1307379	keystroke_Key.space	Key.space	n/a
653.9455	0.0745	1307891	keystroke_t	t	n/a
654.081	0.089	1308162	keystroke_o	o	n/a
654.215	0.09	1308430	keystroke_w	w	n/a
654.56	0.0905	1309120	keystroke_a	a	n/a
654.7555	0.089	1309511	keystroke_r	r	n/a
654.9945	0.091	1309989	keystroke_d	d	n/a
655.2055	0.075	1310411	keystroke_s	s	n/a
655.3555	0.12	1310711	keystroke_Key.space	Key.space	n/a
655.595	0.0305	1311190	keystroke_t	t	n/a
656.2255	0.0895	1312451	keystroke_Key.backspace	Key.backspace	n/a
656.3755	0.0745	1312751	keystroke_f	f	n/a
656.6305	0.0745	1313261	keystroke_i	i	n/a
656.8555	0.074	1313711	keystroke_v	v	n/a
657.0195	0.076	1314039	keystroke_e	e	n/a
657.9655	0.045	1315931	keystroke_Key.enter	Key.enter	n/a
658.017	17.2	1316034	prompt	n/a	winning interviews saskatchewan creating\n
658.9255	0.075	1317851	keystroke_w	w	n/a
659.046	0.0745	1318092	keystroke_i	i	n/a
659.255	0.06	1318510	keystroke_n	n	n/a
659.45	0.09	1318900	keystroke_n	n	n/a
659.645	0.0605	1319290	keystroke_i	i	n/a
659.765	0.105	1319530	keystroke_n	n	n/a
