onset	duration	sample	value	key	prompt_text
7.098	11.804	14196	prompt	n/a	the quick brown fox jumps over a lazy dog\n
8.911	0.013	17822	keystroke_t	t	n/a
8.939	0.105	17878	keystroke_h	h	n/a
9.059	0.075	18118	keystroke_e	e	n/a
9.345	0.104	18690	keystroke_Key.space	Key.space	n/a
9.615	0.075	19230	keystroke_q	q	n/a
9.75	0.119	19500	keystroke_u	u	n/a
9.854	0.091	19708	keystroke_i	i	n/a
10.005	0.09	20010	keystroke_c	c	n/a
10.109	0.166	20218	keystroke_k	k	n/a
10.259	0.09	20518	keystroke_Key.space	Key.space	n/a
10.8895	0.075	21779	keystroke_b	b	n/a
10.9795	0.06	21959	keystroke_r	r	n/a
11.1145	0.0905	22229	keystroke_o	o	n/a
11.235	0.075	22470	keystroke_w	w	n/a
11.745	0.075	23490	keystroke_n	n	n/a
11.91	0.09	23820	keystroke_Key.space	Key.space	n/a
12.885	0.0445	25770	keystroke_f	f	n/a
13.4995	0.045	26999	keystroke_o	o	n/a
13.5595	0.09	27119	keystroke_x	x	n/a
13.6345	0.12	27269	keystroke_Key.space	Key.space	n/a
13.7995	0.06	27599	keystroke_j	j	n/a
13.9795	0.045	27959	keystroke_u	u	n/a
14.1595	0.09	28319	keystroke_m	m	n/a
14.2945	0.105	28589	keystroke_p	p	n/a
14.6995	0.06	29399	keystroke_s	s	n/a
14.775	0.1195	29550	keystroke_Key.space	Key.space	n/a
14.8795	0.09	29759	keystroke_o	o	n/a
14.9545	0.075	29909	keystroke_v	v	n/a
15.1045	0.15	30209	keystroke_e	e	n/a
15.2095	0.105	30419	keystroke_r	r	n/a
15.3295	0.105	30659	keystroke_Key.space	Key.space	n/a
15.4795	0.09	30959	keystroke_a	a	n/a
15.5845	0.09	31169	keystroke_Key.space	Key.space	n/a
15.7195	0.105	31439	keystroke_l	l	n/a
15.8395	0.045	31679	keystroke_a	a	n/a
16.1095	0.09	32219	keystroke_z	z	n/a
16.2895	0.075	32579	keystroke_t	t	n/a
16.5145	0.105	33029	keystroke_Key.space	Key.space	n/a
16.9945	0.045	33989	keystroke_Key.backspace	Key.backspace	n/a
17.1145	0.06	34229	keystroke_Key.backspace	Key.backspace	n/a
18.0145	0.06	36029	keystroke_y	y	n/a
18.1945	0.135	36389	keystroke_Key.space	Key.space	n/a
18.465	0.075	36930	keystroke_d	d	n/a
18.6	0.06	37200	keystroke_o	o	n/a
18.735	0.06	37470	keystroke_g	g	n/a
18.84	0.06	37680	keystroke_Key.enter	Key.enter	n/a
18.906	16.526	37812	prompt	n/a	pottery deal cadillac refuse\n
20.715	0.015	41430	keystroke_p	p	n/a
20.79	0.06	41580	keystroke_o	o	n/a
20.955	0.045	41910	keystroke_t	t	n/a
21.09	0.06	42180	keystroke_t	t	n/a
21.36	0.135	42720	keystroke_e	e	n/a
21.675	0.075	43350	keystroke_r	r	n/a
27.272	0.1025	54544	keystroke_y	y	n/a
27.36	0.1205	54720	keystroke_Key.space	Key.space	n/a
27.9905	0.105	55981	keystroke_d	d	n/a
28.1855	0.075	56371	keystroke_e	e	n/a
28.2455	0.105	56491	keystroke_a	a	n/a
28.4105	0.075	56821	keystroke_k	k	n/a
28.5455	0.135	57091	keystroke_Key.space	Key.space	n/a
29.0555	0.06	58111	keystroke_Key.backspace	Key.backspace	n/a
29.2055	0.045	58411	keystroke_Key.backspace	Key.backspace	n/a
30.0595	0.166	60119	keystroke_l	l	n/a
30.21	0.1195	60420	keystroke_Key.space	Key.space	n/a
31.1105	0.12	62221	keystroke_c	c	n/a
31.4105	0.1195	62821	keystroke_a	a	n/a
31.9355	0.06	63871	keystroke_d	d	n/a
32.1295	0.106	64259	keystroke_i	i	n/a
32.4005	0.044	64801	keystroke_l	l	n/a
32.5645	0.061	65129	keystroke_l	l	n/a
32.6405	0.12	65281	keystroke_a	a	n/a
32.8505	0.075	65701	keystroke_c	c	n/a
32.9705	0.105	65941	keystroke_Key.space	Key.space	n/a
33.2255	0.165	66451	keystroke_r	r	n/a
33.3755	0.045	66751	keystroke_e	e	n/a
34.0655	0.09	68131	keystroke_f	f	n/a
34.2155	0.09	68431	keystroke_u	u	n/a
34.3505	0.105	68701	keystroke_s	s	n/a
34.4405	0.09	68881	keystroke_e	e	n/a
35.3255	0.1045	70651	keystroke_Key.enter	Key.enter	n/a
35.4375	10.375	70875	prompt	n/a	reforms reserve intermediate forestry\n
36.2255	0.1195	72451	keystroke_r	r	n/a
36.33	0.0605	72660	keystroke_e	e	n/a
36.5855	0.12	73171	keystroke_o	o	n/a
37.0805	0.075	74161	keystroke_Key.backspace	Key.backspace	n/a
37.1855	0.075	74371	keystroke_f	f	n/a
37.3805	0.09	74761	keystroke_o	o	n/a
37.4855	0.1045	74971	keystroke_r	r	n/a
37.605	0.106	75210	keystroke_m	m	n/a
37.756	0.089	75512	keystroke_s	s	n/a
38.175	0.12	76350	keystroke_Key.space	Key.space	n/a
38.5505	0.15	77101	keystroke_r	r	n/a
38.6695	0.09	77339	keystroke_e	e	n/a
38.925	0.1355	77850	keystroke_s	s	n/a
39.0755	0.105	78151	keystroke_e	e	n/a
39.165	0.0305	78330	keystroke_r	r	n/a
39.3755	0.09	78751	keystroke_v	v	n/a
39.5555	0.0895	79111	keystroke_e	e	n/a
39.7055	0.105	79411	keystroke_Key.space	Key.space	n/a
39.8705	0.165	79741	keystroke_i	i	n/a
40.0205	0.18	80041	keystroke_n	n	n/a
40.29	0.09	80580	keystroke_t	t	n/a
40.44	0.15	80880	keystroke_e	e	n/a
40.5605	0.09	81121	keystroke_r	r	n/a
40.8005	0.0895	81601	keystroke_m	m	n/a
40.92	0.075	81840	keystroke_e	e	n/a
41.1	0.075	82200	keystroke_d	d	n/a
41.19	0.075	82380	keystroke_i	i	n/a
42.6155	0.1345	85231	keystroke_a	a	n/a
42.6755	0.075	85351	keystroke_t	t	n/a
42.9155	0.089	85831	keystroke_e	e	n/a
43.1555	0.105	86311	keystroke_Key.space	Key.space	n/a
43.8605	0.135	87721	keystroke_f	f	n/a
44.115	0.0755	88230	keystroke_o	o	n/a
44.3845	0.091	88769	keystroke_r	r	n/a
44.5055	0.105	89011	keystroke_e	e	n/a
44.7305	0.06	89461	keystroke_s	s	n/a
44.8955	0.0595	89791	keystroke_t	t	n/a
45.1655	0.06	90331	keystroke_r	r	n/a
45.4055	0.075	90811	keystroke_y	y	n/a
45.7355	0.075	91471	keystroke_Key.enter	Key.enter	n/a
45.817	12.415	91634	prompt	n/a	novelty portrait concentrations counseling\n
46.8605	0.1045	93721	keystroke_n	n	n/a
47.175	0.09	94350	keystroke_o	o	n/a
47.295	0.045	94590	keystroke_v	v	n/a
47.445	0.075	94890	keystroke_e	e	n/a
47.5805	0.0445	95161	keystroke_l	l	n/a
48.015	0.105	96030	keystroke_t	t	n/a
48.1805	0.0595	96361	keystroke_y	y	n/a
48.7355	0.1045	97471	keystroke_Key.space	Key.space	n/a
49.38	0.045	98760	keystroke_p	p	n/a
49.561	0.09	99122	keystroke_o	o	n/a
49.77	0.06	99540	keystroke_r	r	n/a
49.965	0.09	99930	keystroke_t	t	n/a
50.1	0.0905	100200	keystroke_a	a	n/a
50.6105	0.105	101221	keystroke_r	r	n/a
50.7605	0.09	101521	keystroke_a	a	n/a
51.3905	0.06	102781	keystroke_Key.backspace	Key.backspace	n/a
51.5405	0.06	103081	keystroke_Key.backspace	Key.backspace	n/a
51.9305	0.09	103861	keystroke_Key.backspace	Key.backspace	n/a
52.1705	0.12	104341	keystroke_r	r	n/a
52.306	0.0895	104612	keystroke_a	a	n/a
52.4555	0.075	104911	keystroke_i	i	n/a
52.5605	0.075	105121	keystroke_t	t	n/a
53.01	0.12	106020	keystroke_Key.space	Key.space	n/a
53.535	0.09	107070	keystroke_c	c	n/a
53.64	0.136	107280	keystroke_o	o	n/a
53.73	0.1205	107460	keystroke_n	n	n/a
53.8655	0.06	107731	keystroke_c	c	n/a
54.046	0.1045	108092	keystroke_e	e	n/a
54.165	0.046	108330	keystroke_r	r	n/a
54.9755	0.06	109951	keystroke_Key.backspace	Key.backspace	n/a
55.2005	0.075	110401	keystroke_n	n	n/a
55.2755	0.0895	110551	keystroke_t	t	n/a
55.4555	0.12	110911	keystroke_r	r	n/a
55.576	0.074	111152	keystroke_a	a	n/a
55.7255	0.0745	111451	keystroke_t	t	n/a
55.815	0.1355	111630	keystroke_i	i	n/a
55.9205	0.135	111841	keystroke_o	o	n/a
56.0105	0.09	112021	keystroke_n	n	n/a
56.0845	0.091	112169	keystroke_s	s	n/a
56.265	0.1205	112530	keystroke_Key.space	Key.space	n/a
56.445	0.1055	112890	keystroke_c	c	n/a
56.58	0.12	113160	keystroke_o	o	n/a
57.0005	0.0895	114001	keystroke_u	u	n/a
57.2855	0.06	114571	keystroke_n	n	n/a
57.4205	0.105	114841	keystroke_s	s	n/a
57.4955	0.105	114991	keystroke_e	e	n/a
57.6755	0.105	115351	keystroke_l	l	n/a
57.7805	0.1505	115561	keystroke_i	i	n/a
57.8855	0.12	115771	keystroke_n	n	n/a
57.9905	0.09	115981	keystroke_g	g	n/a
58.1705	0.06	116341	keystroke_Key.enter	Key.enter	n/a
58.2355	11.5775	116471	prompt	n/a	we jackets egyptian abilities\n
59.071	0.1345	118142	keystroke_w	w	n/a
59.1605	0.12	118321	keystroke_e	e	n/a
59.2955	0.165	118591	keystroke_Key.space	Key.space	n/a
60.0455	0.104	120091	keystroke_j	j	n/a
60.1655	0.075	120331	keystroke_a	a	n/a
60.3605	0.059	120721	keystroke_c	c	n/a
60.4355	0.075	120871	keystroke_k	k	n/a
60.5855	0.105	121171	keystroke_e	e	n/a
60.706	0.0595	121412	keystroke_t	t	n/a
60.8695	0.105	121739	keystroke_s	s	n/a
61.0195	0.135	122039	keystroke_Key.space	Key.space	n/a
61.9495	0.061	123899	keystroke_q	q	n/a
62.6405	0.06	125281	keystroke_Key.backspace	Key.backspace	n/a
62.8055	0.06	125611	keystroke_e	e	n/a
63.1805	0.075	126361	keystroke_q	q	n/a
63.8855	0.09	127771	keystroke_Key.backspace	Key.backspace	n/a
64.92	0.061	129840	keystroke_g	g	n/a
65.22	0.0905	130440	keystroke_y	y	n/a
65.6105	0.06	131221	keystroke_p	p	n/a
65.8055	0.1345	131611	keystroke_t	t	n/a
65.9255	0.1045	131851	keystroke_i	i	n/a
66.0605	0.09	132121	keystroke_a	a	n/a
66.195	0.105	132390	keystroke_n	n	n/a
66.9455	0.09	133891	keystroke_Key.space	Key.space	n/a
68.2505	0.0895	136501	keystroke_a	a	n/a
68.415	0.1205	136830	keystroke_b	b	n/a
68.5805	0.105	137161	keystroke_i	i	n/a
68.865	0.0905	137730	keystroke_l	l	n/a
68.97	0.1055	137940	keystroke_i	i	n/a
69.15	0.091	138300	keystroke_t	t	n/a
69.2555	0.105	138511	keystroke_i	i	n/a
69.3755	0.135	138751	keystroke_e	e	n/a
69.48	0.09	138960	keystroke_s	s	n/a
69.72	0.0905	139440	keystroke_Key.enter	Key.enter	n/a
69.817	9.835	139634	prompt	n/a	fantastic couldn't opinions carmen\n
70.531	0.119	141062	keystroke_f	f	n/a
70.7105	0.0895	141421	keystroke_a	a	n/a
70.845	0.1055	141690	keystroke_n	n	n/a
71.145	0.075	142290	keystroke_t	t	n/a
71.265	0.105	142530	keystroke_a	a	n/a
71.52	0.045	143040	keystroke_s	s	n/a
71.6105	0.0895	143221	keystroke_t	t	n/a
71.7455	0.105	143491	keystroke_i	i	n/a
71.8955	0.0895	143791	keystroke_c	c	n/a
72.0155	0.105	144031	keystroke_Key.space	Key.space	n/a
72.2555	0.06	144511	keystroke_c	c	n/a
72.331	0.134	144662	keystroke_o	o	n/a
72.42	0.075	144840	keystroke_u	u	n/a
72.615	0.1205	145230	keystroke_n	n	n/a
73.905	0.0905	147810	keystroke_Key.backspace	Key.backspace	n/a
74.3555	0.0745	148711	keystroke_l	l	n/a
74.505	0.09	149010	keystroke_d	d	n/a
74.655	0.1055	149310	keystroke_n	n	n/a
74.805	0.1205	149610	keystroke_'	'	n/a
74.9705	0.045	149941	keystroke_t	t	n/a
75.0895	0.136	150179	keystroke_Key.space	Key.space	n/a
76.1555	0.0595	152311	keystroke_o	o	n/a
76.921	0.0595	153842	keystroke_p	p	n/a
77.1005	0.09	154201	keystroke_i	i	n/a
77.2955	0.09	154591	keystroke_n	n	n/a
77.4755	0.075	154951	keystroke_i	i	n/a
77.581	0.164	155162	keystroke_o	o	n/a
77.7305	0.0905	155461	keystroke_n	n	n/a
77.8955	0.09	155791	keystroke_s	s	n/a
78.0005	0.1045	156001	keystroke_Key.space	Key.space	n/a
78.4505	0.1045	156901	keystroke_c	c	n/a
78.6005	0.18	157201	keystroke_a	a	n/a
78.765	0.105	157530	keystroke_r	r	n/a
78.915	0.0755	157830	keystroke_m	m	n/a
79.0355	0.075	158071	keystroke_e	e	n/a
79.2005	0.075	158401	keystroke_n	n	n/a
79.5755	0.075	159151	keystroke_Key.enter	Key.enter	n/a
79.6565	14.95	159313	prompt	n/a	expansion endless announced program\n
81.0905	0.075	162181	keystroke_e	e	n/a
81.5555	0.075	163111	keystroke_x	x	n/a
81.765	0.06	163530	keystroke_p	p	n/a
81.9755	0.075	163951	keystroke_a	a	n/a
82.1855	0.075	164371	keystroke_m	m	n/a
82.3505	0.0445	164701	keystroke_s	s	n/a
82.5155	0.0905	165031	keystroke_i	i	n/a
82.6505	0.09	165301	keystroke_o	o	n/a
82.7105	0.135	165421	keystroke_n	n	n/a
82.9205	0.1345	165841	keystroke_Key.space	Key.space	n/a
83.16	0.0755	166320	keystroke_e	e	n/a
83.3255	0.1045	166651	keystroke_n	n	n/a
83.55	0.045	167100	keystroke_d	d	n/a
83.79	0.0905	167580	keystroke_l	l	n/a
84.33	0.06	168660	keystroke_Key.backspace	Key.backspace	n/a
84.495	0.045	168990	keystroke_Key.backspace	Key.backspace	n/a
84.6455	0.0445	169291	keystroke_Key.backspace	Key.backspace	n/a
84.795	0.045	169590	keystroke_Key.backspace	Key.backspace	n/a
84.9605	0.045	169921	keystroke_Key.backspace	Key.backspace	n/a
85.11	0.045	170220	keystroke_Key.backspace	Key.backspace	n/a
85.26	0.045	170520	keystroke_Key.backspace	Key.backspace	n/a
85.4105	0.045	170821	keystroke_Key.backspace	Key.backspace	n/a
85.5605	0.0595	171121	keystroke_Key.backspace	Key.backspace	n/a
85.92	0.0905	171840	keystroke_Key.backspace	Key.backspace	n/a
86.76	0.105	173520	keystroke_n	n	n/a
87.1205	0.06	174241	keystroke_s	s	n/a
87.24	0.135	174480	keystroke_i	i	n/a
87.3605	0.165	174721	keystroke_o	o	n/a
87.51	0.21	175020	keystroke_n	n	n/a
87.721	0.074	175442	keystroke_Key.space	Key.space	n/a
87.84	0.075	175680	keystroke_e	e	n/a
87.96	0.15	175920	keystroke_n	n	n/a
88.2005	0.0745	176401	keystroke_d	d	n/a
88.335	0.061	176670	keystroke_l	l	n/a
88.4255	0.105	176851	keystroke_e	e	n/a
88.6055	0.06	177211	keystroke_s	s	n/a
88.7405	0.1055	177481	keystroke_s	s	n/a
88.8605	0.06	177721	keystroke_Key.space	Key.space	n/a
88.9805	0.075	177961	keystroke_a	a	n/a
89.1155	0.09	178231	keystroke_n	n	n/a
89.2655	0.18	178531	keystroke_o	o	n/a
89.4305	0.105	178861	keystroke_u	u	n/a
90.03	0.06	180060	keystroke_Key.backspace	Key.backspace	n/a
90.165	0.075	180330	keystroke_Key.backspace	Key.backspace	n/a
90.435	0.09	180870	keystroke_n	n	n/a
90.72	0.09	181440	keystroke_o	o	n/a
92.16	0.075	184320	keystroke_u	u	n/a
92.4005	0.075	184801	keystroke_n	n	n/a
92.6705	0.075	185341	keystroke_c	c	n/a
92.7905	0.075	185581	keystroke_e	e	n/a
92.9855	0.06	185971	keystroke_d	d	n/a
93.0905	0.135	186181	keystroke_Key.space	Key.space	n/a
93.4195	0.106	186839	keystroke_p	p	n/a
93.5995	0.075	187199	keystroke_r	r	n/a
93.6895	0.046	187379	keystroke_o	o	n/a
93.855	0.0755	187710	keystroke_g	g	n/a
94.08	0.1205	188160	keystroke_r	r	n/a
94.215	0.0605	188430	keystroke_a	a	n/a
94.32	0.105	188640	keystroke_m	m	n/a
94.545	0.06	189090	keystroke_Key.enter	Key.enter	n/a
94.6125	12.1595	189225	prompt	n/a	mills approved significantly martial\n
95.505	0.135	191010	keystroke_m	m	n/a
95.641	0.0895	191282	keystroke_i	i	n/a
95.865	0.03	191730	keystroke_l	l	n/a
96.015	0.06	192030	keystroke_l	l	n/a
96.195	0.06	192390	keystroke_s	s	n/a
96.315	0.0905	192630	keystroke_Key.space	Key.space	n/a
96.4355	0.09	192871	keystroke_a	a	n/a
96.5705	0.06	193141	keystroke_p	p	n/a
96.7505	0.045	193501	keystroke_p	p	n/a
96.9005	0.12	193801	keystroke_r	r	n/a
97.4705	0.09	194941	keystroke_o	o	n/a
97.62	0.0905	195240	keystroke_v	v	n/a
97.7705	0.075	195541	keystroke_e	e	n/a
97.9505	0.059	195901	keystroke_d	d	n/a
98.0395	0.1055	196079	keystroke_Key.space	Key.space	n/a
99.1645	0.075	198329	keystroke_s	s	n/a
99.2545	0.1215	198509	keystroke_i	i	n/a
99.885	0.0605	199770	keystroke_g	g	n/a
100.05	0.0755	200100	keystroke_n	n	n/a
100.1555	0.1045	200311	keystroke_i	i	n/a
100.4705	0.075	200941	keystroke_f	f	n/a
100.56	0.09	201120	keystroke_i	i	n/a
100.725	0.12	201450	keystroke_c	c	n/a
100.8305	0.0895	201661	keystroke_a	a	n/a
101.46	0.1205	202920	keystroke_n	n	n/a
101.985	0.105	203970	keystroke_t	t	n/a
102.5105	0.075	205021	keystroke_l	l	n/a
102.8855	0.09	205771	keystroke_t	t	n/a
103.74	0.075	207480	keystroke_Key.backspace	Key.backspace	n/a
104.5955	0.1795	209191	keystroke_y	y	n/a
104.745	0.105	209490	keystroke_Key.space	Key.space	n/a
105.06	0.105	210120	keystroke_m	m	n/a
105.21	0.105	210420	keystroke_a	a	n/a
105.945	0.0605	211890	keystroke_r	r	n/a
106.11	0.075	212220	keystroke_t	t	n/a
106.231	0.089	212462	keystroke_i	i	n/a
106.35	0.09	212700	keystroke_a	a	n/a
106.515	0.075	213030	keystroke_l	l	n/a
106.71	0.06	213420	keystroke_Key.enter	Key.enter	n/a
106.7765	10.495	213553	prompt	n/a	gospel rats losing hole\n
108.66	0.075	217320	keystroke_g	g	n/a
109.3645	0.061	218729	keystroke_o	o	n/a
109.86	0.075	219720	keystroke_s	s	n/a
110.055	0.0595	220110	keystroke_p	p	n/a
110.2055	0.0595	220411	keystroke_e	e	n/a
110.415	0.03	220830	keystroke_l	l	n/a
110.5055	0.0595	221011	keystroke_l	l	n/a
111.1205	0.075	222241	keystroke_Key.backspace	Key.backspace	n/a
111.33	0.105	222660	keystroke_Key.space	Key.space	n/a
111.42	0.165	222840	keystroke_r	r	n/a
111.54	0.105	223080	keystroke_a	a	n/a
111.7055	0.0745	223411	keystroke_t	t	n/a
112.26	0.075	224520	keystroke_s	s	n/a
112.44	0.12	224880	keystroke_Key.space	Key.space	n/a
112.665	0.0755	225330	keystroke_l	l	n/a
112.9505	0.0745	225901	keystroke_s	s	n/a
113.115	0.045	226230	keystroke_i	i	n/a
113.4455	0.075	226891	keystroke_Key.backspace	Key.backspace	n/a
113.6255	0.075	227251	keystroke_Key.backspace	Key.backspace	n/a
113.8955	0.09	227791	keystroke_o	o	n/a
114.0305	0.06	228061	keystroke_s	s	n/a
114.1205	0.18	228241	keystroke_i	i	n/a
114.2555	0.12	228511	keystroke_n	n	n/a
114.4055	0.105	228811	keystroke_g	g	n/a
114.5405	0.119	229081	keystroke_Key.space	Key.space	n/a
115.9055	0.1195	231811	keystroke_h	h	n/a
116.07	0.075	232140	keystroke_o	o	n/a
116.295	0.075	232590	keystroke_l	l	n/a
116.4005	0.075	232801	keystroke_e	e	n/a
117.2255	0.045	234451	keystroke_Key.enter	Key.enter	n/a
117.275	12.5215	234550	prompt	n/a	policy explaining guarantees dimension\n
118.56	0.0605	237120	keystroke_p	p	n/a
118.7705	0.045	237541	keystroke_o	o	n/a
118.9645	0.0755	237929	keystroke_l	l	n/a
119.1	0.0755	238200	keystroke_i	i	n/a
119.25	0.09	238500	keystroke_c	c	n/a
119.625	0.0905	239250	keystroke_y	y	n/a
119.8205	0.1195	239641	keystroke_Key.space	Key.space	n/a
120.06	0.0905	240120	keystroke_e	e	n/a
120.901	0.0585	241802	keystroke_x	x	n/a
121.3645	0.061	242729	keystroke_p	p	n/a
121.575	0.075	243150	keystroke_l	l	n/a
121.725	0.075	243450	keystroke_a	a	n/a
121.831	0.1035	243662	keystroke_i	i	n/a
121.891	0.1045	243782	keystroke_n	n	n/a
122.0395	0.1355	244079	keystroke_i	i	n/a
122.1455	0.1045	244291	keystroke_n	n	n/a
122.445	0.09	244890	keystroke_g	g	n/a
122.5955	0.119	245191	keystroke_Key.space	Key.space	n/a
123.9455	0.089	247891	keystroke_g	g	n/a
124.575	0.12	249150	keystroke_u	u	n/a
124.845	0.09	249690	keystroke_a	a	n/a
125.6405	0.1345	251281	keystroke_r	r	n/a
125.8055	0.075	251611	keystroke_a	a	n/a
125.91	0.1205	251820	keystroke_n	n	n/a
126.12	0.09	252240	keystroke_t	t	n/a
126.315	0.06	252630	keystroke_e	e	n/a
126.465	0.06	252930	keystroke_e	e	n/a
126.6305	0.09	253261	keystroke_s	s	n/a
126.75	0.12	253500	keystroke_Key.space	Key.space	n/a
127.665	0.075	255330	keystroke_d	d	n/a
127.9645	0.106	255929	keystroke_i	i	n/a
128.2205	0.0895	256441	keystroke_m	m	n/a
128.385	0.105	256770	keystroke_e	e	n/a
128.535	0.09	257070	keystroke_n	n	n/a
129.135	0.0605	258270	keystroke_s	s	n/a
129.2545	0.1205	258509	keystroke_i	i	n/a
129.3595	0.121	258719	keystroke_o	o	n/a
129.4345	0.121	258869	keystroke_n	n	n/a
129.705	0.0895	259410	keystroke_Key.enter	Key.enter	n/a
129.801	8.6655	259602	prompt	n/a	lauderdale watching reliable mounts\n
130.635	0.1055	261270	keystroke_l	l	n/a
130.7845	0.0905	261569	keystroke_a	a	n/a
130.9805	0.089	261961	keystroke_u	u	n/a
132.0305	0.0595	264061	keystroke_d	d	n/a
132.2405	0.18	264481	keystroke_e	e	n/a
132.405	0.09	264810	keystroke_r	r	n/a
132.795	0.0755	265590	keystroke_d	d	n/a
132.885	0.105	265770	keystroke_a	a	n/a
133.02	0.09	266040	keystroke_l	l	n/a
133.185	0.1055	266370	keystroke_e	e	n/a
133.695	0.1195	267390	keystroke_Key.space	Key.space	n/a
133.8305	0.1645	267661	keystroke_w	w	n/a
133.9805	0.09	267961	keystroke_a	a	n/a
134.2055	0.075	268411	keystroke_t	t	n/a
134.4755	0.0895	268951	keystroke_c	c	n/a
134.565	0.0905	269130	keystroke_h	h	n/a
134.67	0.135	269340	keystroke_i	i	n/a
134.775	0.1055	269550	keystroke_n	n	n/a
134.8645	0.075	269729	keystroke_g	g	n/a
134.985	0.135	269970	keystroke_Key.space	Key.space	n/a
135.165	0.15	270330	keystroke_r	r	n/a
135.2705	0.075	270541	keystroke_e	e	n/a
135.4055	0.1495	270811	keystroke_l	l	n/a
135.51	0.075	271020	keystroke_i	i	n/a
135.645	0.15	271290	keystroke_a	a	n/a
135.75	0.105	271500	keystroke_b	b	n/a
135.975	0.075	271950	keystroke_l	l	n/a
136.0805	0.0895	272161	keystroke_e	e	n/a
136.2145	0.1355	272429	keystroke_Key.space	Key.space	n/a
136.755	0.12	273510	keystroke_o	o	n/a
137.19	0.0905	274380	keystroke_Key.backspace	Key.backspace	n/a
137.445	0.105	274890	keystroke_m	m	n/a
137.5805	0.165	275161	keystroke_o	o	n/a
137.7305	0.0895	275461	keystroke_u	u	n/a
137.9555	0.075	275911	keystroke_n	n	n/a
138.075	0.09	276150	keystroke_t	t	n/a
138.225	0.09	276450	keystroke_s	s	n/a
138.3905	0.074	276781	keystroke_Key.enter	Key.enter	n/a
138.471	15.656	276942	prompt	n/a	pollution marilyn symposium flashers\n
139.3805	0.075	278761	keystroke_p	p	n/a
139.5905	0.06	279181	keystroke_o	o	n/a
139.7845	0.076	279569	keystroke_l	l	n/a
139.9355	0.105	279871	keystroke_l	l	n/a
140.1305	0.12	280261	keystroke_u	u	n/a
140.28	0.075	280560	keystroke_t	t	n/a
140.415	0.135	280830	keystroke_i	i	n/a
140.535	0.135	281070	keystroke_o	o	n/a
140.655	0.09	281310	keystroke_n	n	n/a
140.94	0.135	281880	keystroke_Key.space	Key.space	n/a
141.585	0.1055	283170	keystroke_m	m	n/a
141.735	0.105	283470	keystroke_a	a	n/a
141.9305	0.09	283861	keystroke_r	r	n/a
143.9105	0.06	287821	keystroke_i	i	n/a
144.1205	0.06	288241	keystroke_l	l	n/a
144.87	0.075	289740	keystroke_y	y	n/a
145.185	0.09	290370	keystroke_n	n	n/a
145.5005	0.105	291001	keystroke_Key.space	Key.space	n/a
146.22	0.075	292440	keystroke_s	s	n/a
148.608	0.001	297216	keystroke_y	y	n/a
148.785	0.0455	297570	keystroke_p	p	n/a
149.835	0.105	299670	keystroke_Key.backspace	Key.backspace	n/a
150.1505	0.0895	300301	keystroke_m	m	n/a
150.3755	0.045	300751	keystroke_p	p	n/a
150.5705	0.089	301141	keystroke_o	o	n/a
150.8095	0.091	301619	keystroke_s	s	n/a
150.9305	0.1645	301861	keystroke_i	i	n/a
151.0805	0.1045	302161	keystroke_u	u	n/a
151.365	0.06	302730	keystroke_m	m	n/a
151.695	0.09	303390	keystroke_Key.space	Key.space	n/a
152.1905	0.1345	304381	keystroke_f	f	n/a
152.835	0.1205	305670	keystroke_l	l	n/a
152.9695	0.061	305939	keystroke_a	a	n/a
153.1645	0.0755	306329	keystroke_s	s	n/a
153.3595	0.075	306719	keystroke_h	h	n/a
153.4945	0.135	306989	keystroke_e	e	n/a
153.5705	0.089	307141	keystroke_r	r	n/a
153.7345	0.075	307469	keystroke_s	s	n/a
154.05	0.075	308100	keystroke_Key.enter	Key.enter	n/a
154.131	10.4505	308262	prompt	n/a	safety ordered hostel reggae\n
155.0395	0.075	310079	keystroke_s	s	n/a
155.58	0.1045	311160	keystroke_a	a	n/a
155.7745	0.09	311549	keystroke_f	f	n/a
156.0305	0.0895	312061	keystroke_e	e	n/a
156.2845	0.0605	312569	keystroke_t	t	n/a
156.81	0.135	313620	keystroke_y	y	n/a
156.975	0.135	313950	keystroke_Key.space	Key.space	n/a
157.17	0.105	314340	keystroke_o	o	n/a
157.38	0.0755	314760	keystroke_r	r	n/a
157.56	0.09	315120	keystroke_d	d	n/a
157.7555	0.044	315511	keystroke_e	e	n/a
157.7845	0.196	315569	keystroke_r	r	n/a
157.9655	0.059	315931	keystroke_e	e	n/a
158.1445	0.09	316289	keystroke_d	d	n/a
158.22	0.1355	316440	keystroke_Key.space	Key.space	n/a
159.315	0.1355	318630	keystroke_h	h	n/a
159.5105	0.1195	319021	keystroke_o	o	n/a
159.78	0.0595	319560	keystroke_s	s	n/a
159.9895	0.0605	319979	keystroke_t	t	n/a
160.5905	0.075	321181	keystroke_e	e	n/a
160.7395	0.12	321479	keystroke_l	l	n/a
160.845	0.1345	321690	keystroke_Key.space	Key.space	n/a
161.1595	0.121	322319	keystroke_r	r	n/a
161.8345	0.075	323669	keystroke_e	e	n/a
162.99	0.075	325980	keystroke_g	g	n/a
163.08	0.03	326160	keystroke_g	g	n/a
163.17	0.15	326340	keystroke_a	a	n/a
164.37	0.06	328740	keystroke_e	e	n/a
164.52	0.06	329040	keystroke_Key.enter	Key.enter	n/a
164.585	9.117	329170	prompt	n/a	pierce active restricted gale\n
165.5255	0.09	331051	keystroke_p	p	n/a
165.9595	0.061	331919	keystroke_i	i	n/a
166.1105	0.06	332221	keystroke_e	e	n/a
166.575	0.0755	333150	keystroke_r	r	n/a
166.83	0.165	333660	keystroke_c	c	n/a
166.98	0.075	333960	keystroke_e	e	n/a
167.145	0.105	334290	keystroke_Key.space	Key.space	n/a
167.82	0.075	335640	keystroke_a	a	n/a
168	0.06	336000	keystroke_c	c	n/a
168.195	0.06	336390	keystroke_t	t	n/a
168.285	0.12	336570	keystroke_i	i	n/a
168.6	0.06	337200	keystroke_e	e	n/a
169.0195	0.09	338039	keystroke_Key.backspace	Key.backspace	n/a
169.125	0.0895	338250	keystroke_v	v	n/a
169.23	0.075	338460	keystroke_e	e	n/a
169.365	0.1195	338730	keystroke_Key.space	Key.space	n/a
169.59	0.165	339180	keystroke_r	r	n/a
169.7845	0.09	339569	keystroke_e	e	n/a
170.115	0.0755	340230	keystroke_s	s	n/a
170.324	0.061	340648	keystroke_t	t	n/a
170.505	0.09	341010	keystroke_r	r	n/a
170.685	0.09	341370	keystroke_i	i	n/a
170.834	0.061	341668	keystroke_c	c	n/a
171.03	0.059	342060	keystroke_t	t	n/a
171.165	0.06	342330	keystroke_e	e	n/a
171.359	0.046	342718	keystroke_d	d	n/a
171.4495	0.1345	342899	keystroke_Key.space	Key.space	n/a
172.875	0.075	345750	keystroke_g	g	n/a
172.98	0.105	345960	keystroke_a	a	n/a
173.13	0.105	346260	keystroke_l	l	n/a
173.25	0.075	346500	keystroke_e	e	n/a
173.58	0.12	347160	keystroke_Key.enter	Key.enter	n/a
173.706	9.521	347412	prompt	n/a	catering assuming gray calculators\n
174.45	0.1045	348900	keystroke_c	c	n/a
174.57	0.105	349140	keystroke_a	a	n/a
174.72	0.0895	349440	keystroke_t	t	n/a
174.9295	0.0905	349859	keystroke_e	e	n/a
175.005	0.075	350010	keystroke_r	r	n/a
175.1095	0.1205	350219	keystroke_i	i	n/a
175.1995	0.1205	350399	keystroke_n	n	n/a
175.2895	0.0755	350579	keystroke_g	g	n/a
175.38	0.1345	350760	keystroke_Key.space	Key.space	n/a
175.5595	0.1655	351119	keystroke_a	a	n/a
176.3245	0.06	352649	keystroke_s	s	n/a
176.4895	0.06	352979	keystroke_s	s	n/a
176.6095	0.075	353219	keystroke_u	u	n/a
176.955	0.09	353910	keystroke_i	i	n/a
177.435	0.06	354870	keystroke_Key.backspace	Key.backspace	n/a
177.675	0.1505	355350	keystroke_m	m	n/a
177.885	0.15	355770	keystroke_i	i	n/a
177.9905	0.1195	355981	keystroke_n	n	n/a
178.11	0.09	356220	keystroke_g	g	n/a
178.26	0.105	356520	keystroke_Key.space	Key.space	n/a
179.3095	0.075	358619	keystroke_g	g	n/a
179.5345	0.09	359069	keystroke_r	r	n/a
179.6395	0.0905	359279	keystroke_a	a	n/a
179.985	0.165	359970	keystroke_y	y	n/a
180.12	0.105	360240	keystroke_Key.space	Key.space	n/a
180.75	0.105	361500	keystroke_c	c	n/a
180.93	0.09	361860	keystroke_a	a	n/a
181.17	0.075	362340	keystroke_l	l	n/a
181.425	0.09	362850	keystroke_c	c	n/a
181.62	0.045	363240	keystroke_u	u	n/a
182.1755	0.0895	364351	keystroke_l	l	n/a
182.4005	0.0895	364801	keystroke_a	a	n/a
182.52	0.105	365040	keystroke_t	t	n/a
182.67	0.09	365340	keystroke_o	o	n/a
182.79	0.06	365580	keystroke_r	r	n/a
182.955	0.075	365910	keystroke_s	s	n/a
183.15	0.075	366300	keystroke_Key.enter	Key.enter	n/a
183.2315	13.165	366463	prompt	n/a	tough volkswagen couldn't juvenile\n
184.2155	0.0745	368431	keystroke_t	t	n/a
184.305	0.15	368610	keystroke_o	o	n/a
184.44	0.09	368880	keystroke_u	u	n/a
184.545	0.075	369090	keystroke_g	g	n/a
184.68	0.165	369360	keystroke_h	h	n/a
184.815	0.105	369630	keystroke_Key.space	Key.space	n/a
185.58	0.075	371160	keystroke_v	v	n/a
185.775	0.06	371550	keystroke_o	o	n/a
186.015	0.105	372030	keystroke_l	l	n/a
186.615	0.075	373230	keystroke_k	k	n/a
187.5295	0.09	375059	keystroke_s	s	n/a
188.4145	0.0155	376829	keystroke_w	w	n/a
188.5505	0.074	377101	keystroke_a	a	n/a
189.63	0.0445	379260	keystroke_g	g	n/a
189.7945	0.06	379589	keystroke_e	e	n/a
189.9745	0.135	379949	keystroke_n	n	n/a
190.17	0.0745	380340	keystroke_Key.space	Key.space	n/a
190.9505	0.104	381901	keystroke_c	c	n/a
191.0845	0.12	382169	keystroke_o	o	n/a
191.1745	0.1205	382349	keystroke_u	u	n/a
191.3995	0.135	382799	keystroke_l	l	n/a
191.5355	0.119	383071	keystroke_d	d	n/a
191.6695	0.1355	383339	keystroke_n	n	n/a
191.91	0.105	383820	keystroke_'	'	n/a
192.0445	0.09	384089	keystroke_t	t	n/a
192.1795	0.135	384359	keystroke_Key.space	Key.space	n/a
193.755	0.075	387510	keystroke_j	j	n/a
194.01	0.075	388020	keystroke_u	u	n/a
194.4	0.045	388800	keystroke_v	v	n/a
195.27	0.03	390540	keystroke_e	e	n/a
195.6155	0.1645	391231	keystroke_n	n	n/a
195.75	0.12	391500	keystroke_i	i	n/a
195.945	0.105	391890	keystroke_l	l	n/a
196.065	0.06	392130	keystroke_e	e	n/a
196.29	0.105	392580	keystroke_Key.enter	Key.enter	n/a
196.4	11.2915	392800	prompt	n/a	addition dual standing challenging\n
197.22	0.0895	394440	keystroke_a	a	n/a
197.3845	0.076	394769	keystroke_d	d	n/a
197.639	0.0905	395278	keystroke_i	i	n/a
198.1795	0.015	396359	keystroke_Key.backspace	Key.backspace	n/a
198.2105	0.105	396421	keystroke_d	d	n/a
198.4195	0.045	396839	keystroke_i	i	n/a
198.48	0.105	396960	keystroke_t	t	n/a
198.6755	0.1495	397351	keystroke_o	o	n/a
198.78	0.135	397560	keystroke_n	n	n/a
199.395	0.06	398790	keystroke_Key.backspace	Key.backspace	n/a
199.56	0.03	399120	keystroke_Key.backspace	Key.backspace	n/a
199.695	0.03	399390	keystroke_Key.backspace	Key.backspace	n/a
200.3555	0.03	400711	keystroke_i	i	n/a
200.8495	0.0755	401699	keystroke_Key.backspace	Key.backspace	n/a
201.825	0.0755	403650	keystroke_t	t	n/a
201.9295	0.165	403859	keystroke_i	i	n/a
202.0645	0.136	404129	keystroke_o	o	n/a
202.1545	0.165	404309	keystroke_n	n	n/a
202.4095	0.12	404819	keystroke_Key.space	Key.space	n/a
203.1	0.045	406200	keystroke_d	d	n/a
203.295	0.075	406590	keystroke_u	u	n/a
203.46	0.06	406920	keystroke_a	a	n/a
203.91	0.135	407820	keystroke_l	l	n/a
204.0455	0.1345	408091	keystroke_Key.space	Key.space	n/a
204.33	0.09	408660	keystroke_s	s	n/a
204.54	0.0745	409080	keystroke_t	t	n/a
204.6595	0.0605	409319	keystroke_a	a	n/a
204.7345	0.09	409469	keystroke_n	n	n/a
204.8545	0.0905	409709	keystroke_d	d	n/a
204.9295	0.12	409859	keystroke_i	i	n/a
205.0045	0.1355	410009	keystroke_n	n	n/a
205.1245	0.0905	410249	keystroke_g	g	n/a
205.2295	0.12	410459	keystroke_Key.space	Key.space	n/a
205.3945	0.105	410789	keystroke_c	c	n/a
205.7245	0.09	411449	keystroke_h	h	n/a
205.8445	0.075	411689	keystroke_a	a	n/a
206.0095	0.046	412019	keystroke_l	l	n/a
206.1755	0.045	412351	keystroke_l	l	n/a
206.2795	0.075	412559	keystroke_e	e	n/a
206.4445	0.06	412889	keystroke_n	n	n/a
206.925	0.0905	413850	keystroke_g	g	n/a
207.1795	0.1655	414359	keystroke_i	i	n/a
207.315	0.1495	414630	keystroke_n	n	n/a
207.4505	0.074	414901	keystroke_g	g	n/a
207.6	0.0895	415200	keystroke_Key.enter	Key.enter	n/a
207.6965	9.19	415393	prompt	n/a	feof panels denmark trunk\n
210.032	0.028	420064	keystroke_f	f	n/a
210.21	0.045	420420	keystroke_e	e	n/a
210.5395	0.09	421079	keystroke_o	o	n/a
211.1095	0.061	422219	keystroke_f	f	n/a
211.1845	0.12	422369	keystroke_Key.space	Key.space	n/a
211.4245	0.06	422849	keystroke_p	p	n/a
211.545	0.0595	423090	keystroke_a	a	n/a
211.665	0.075	423330	keystroke_n	n	n/a
211.8	0.075	423600	keystroke_e	e	n/a
211.935	0.075	423870	keystroke_l	l	n/a
212.445	0.06	424890	keystroke_s	s	n/a
212.58	0.15	425160	keystroke_Key.space	Key.space	n/a
212.79	0.09	425580	keystroke_d	d	n/a
213.045	0.105	426090	keystroke_e	e	n/a
213.195	0.075	426390	keystroke_n	n	n/a
213.465	0.12	426930	keystroke_m	m	n/a
213.5705	0.1645	427141	keystroke_a	a	n/a
213.7205	0.089	427441	keystroke_r	r	n/a
213.87	0.0745	427740	keystroke_k	k	n/a
214.3495	0.165	428699	keystroke_Key.space	Key.space	n/a
214.6645	0.075	429329	keystroke_t	t	n/a
214.9045	0.075	429809	keystroke_r	r	n/a
215.9845	0.075	431969	keystroke_u	u	n/a
216.375	0.1045	432750	keystroke_n	n	n/a
216.5095	0.0905	433019	keystroke_k	k	n/a
216.795	0.089	433590	keystroke_Key.enter	Key.enter	n/a
216.894	13.267	433788	prompt	n/a	demonstrate survivor waiver haven't\n
217.7395	0.0755	435479	keystroke_d	d	n/a
217.935	0.075	435870	keystroke_e	e	n/a
218.07	0.12	436140	keystroke_m	m	n/a
218.205	0.165	436410	keystroke_o	o	n/a
218.355	0.105	436710	keystroke_n	n	n/a
218.52	0.09	437040	keystroke_s	s	n/a
218.745	0.09	437490	keystroke_t	t	n/a
218.9545	0.0905	437909	keystroke_r	r	n/a
219.0745	0.1055	438149	keystroke_a	a	n/a
219.2245	0.06	438449	keystroke_t	t	n/a
219.39	0.075	438780	keystroke_e	e	n/a
219.5245	0.135	439049	keystroke_Key.space	Key.space	n/a
219.8845	0.1055	439769	keystroke_s	s	n/a
220.1095	0.12	440219	keystroke_r	r	n/a
220.3195	0.0755	440639	keystroke_u	u	n/a
220.8595	0.06	441719	keystroke_Key.backspace	Key.backspace	n/a
220.9795	0.06	441959	keystroke_Key.backspace	Key.backspace	n/a
221.2045	0.06	442409	keystroke_u	u	n/a
221.34	0.0895	442680	keystroke_r	r	n/a
221.775	0.1195	443550	keystroke_v	v	n/a
222.0295	0.06	444059	keystroke_i	i	n/a
223.185	0.12	446370	keystroke_v	v	n/a
223.35	0.105	446700	keystroke_o	o	n/a
223.53	0.104	447060	keystroke_r	r	n/a
223.679	0.105	447358	keystroke_Key.space	Key.space	n/a
224.31	0.09	448620	keystroke_w	w	n/a
224.43	0.1195	448860	keystroke_a	a	n/a
224.865	0.075	449730	keystroke_i	i	n/a
225	0.075	450000	keystroke_v	v	n/a
225.225	0.12	450450	keystroke_e	e	n/a
225.33	0.09	450660	keystroke_r	r	n/a
225.48	0.105	450960	keystroke_Key.space	Key.space	n/a
225.72	0.105	451440	keystroke_h	h	n/a
225.855	0.12	451710	keystroke_a	a	n/a
226.2145	0.0895	452429	keystroke_v	v	n/a
226.289	0.12	452578	keystroke_e	e	n/a
226.44	0.15	452880	keystroke_b	b	n/a
226.7545	0.09	453509	keystroke_'	'	n/a
227.2645	0.06	454529	keystroke_Key.backspace	Key.backspace	n/a
227.3995	0.045	454799	keystroke_Key.backspace	Key.backspace	n/a
228.735	0.09	457470	keystroke_n	n	n/a
229.26	0.1045	458520	keystroke_'	'	n/a
229.3655	0.0745	458731	keystroke_t	t	n/a
230.0695	0.09	460139	keystroke_Key.enter	Key.enter	n/a
230.1645	8.0825	460329	prompt	n/a	joke everyday objects evaluations\n
231.4345	0.15	462869	keystroke_j	j	n/a
231.6445	0.0755	463289	keystroke_o	o	n/a
231.9595	0.075	463919	keystroke_k	k	n/a
232.0945	0.0755	464189	keystroke_e	e	n/a
232.2	0.1045	464400	keystroke_Key.space	Key.space	n/a
232.3645	0.0605	464729	keystroke_e	e	n/a
232.56	0.075	465120	keystroke_v	v	n/a
232.829	0.0605	465658	keystroke_e	e	n/a
232.904	0.0605	465808	keystroke_r	r	n/a
233.0395	0.105	466079	keystroke_y	y	n/a
233.159	0.15	466318	keystroke_d	d	n/a
233.2945	0.12	466589	keystroke_a	a	n/a
233.7	0.12	467400	keystroke_y	y	n/a
233.85	0.12	467700	keystroke_Key.space	Key.space	n/a
234.075	0.0895	468150	keystroke_o	o	n/a
235.17	0.059	470340	keystroke_b	b	n/a
235.394	0.075	470788	keystroke_j	j	n/a
235.5145	0.0905	471029	keystroke_e	e	n/a
235.8	0.105	471600	keystroke_c	c	n/a
236.1	0.105	472200	keystroke_t	t	n/a
236.25	0.105	472500	keystroke_s	s	n/a
236.43	0.105	472860	keystroke_Key.space	Key.space	n/a
236.67	0.09	473340	keystroke_e	e	n/a
236.88	0.09	473760	keystroke_v	v	n/a
237.045	0.075	474090	keystroke_a	a	n/a
237.21	0.09	474420	keystroke_l	l	n/a
237.345	0.105	474690	keystroke_u	u	n/a
237.48	0.09	474960	keystroke_a	a	n/a
237.555	0.09	475110	keystroke_t	t	n/a
237.675	0.12	475350	keystroke_i	i	n/a
237.765	0.12	475530	keystroke_o	o	n/a
237.855	0.105	475710	keystroke_n	n	n/a
237.945	0.09	475890	keystroke_s	s	n/a
238.185	0.06	476370	keystroke_Key.enter	Key.enter	n/a
238.251	7.135	476502	prompt	n/a	factory rest istanbul promote\n
239.04	0.0895	478080	keystroke_f	f	n/a
239.1595	0.1055	478319	keystroke_a	a	n/a
239.3245	0.0755	478649	keystroke_c	c	n/a
239.535	0.0745	479070	keystroke_t	t	n/a
239.6545	0.105	479309	keystroke_o	o	n/a
239.775	0.075	479550	keystroke_r	r	n/a
239.8945	0.165	479789	keystroke_y	y	n/a
240.0295	0.0905	480059	keystroke_Key.space	Key.space	n/a
240.15	0.15	480300	keystroke_r	r	n/a
240.2845	0.09	480569	keystroke_e	e	n/a
240.3445	0.1495	480689	keystroke_s	s	n/a
240.54	0.119	481080	keystroke_t	t	n/a
240.72	0.134	481440	keystroke_Key.space	Key.space	n/a
241.125	0.06	482250	keystroke_i	i	n/a
241.259	0.091	482518	keystroke_s	s	n/a
241.47	0.089	482940	keystroke_t	t	n/a
241.59	0.0745	483180	keystroke_a	a	n/a
241.709	0.0765	483418	keystroke_n	n	n/a
243.2095	0.016	486419	keystroke_b	b	n/a
243.42	0.0745	486840	keystroke_u	u	n/a
243.6145	0.1655	487229	keystroke_l	l	n/a
243.765	0.1195	487530	keystroke_Key.space	Key.space	n/a
244.0195	0.075	488039	keystroke_p	p	n/a
244.1245	0.09	488249	keystroke_r	r	n/a
244.6045	0.09	489209	keystroke_o	o	n/a
244.7995	0.12	489599	keystroke_m	m	n/a
244.9345	0.0905	489869	keystroke_o	o	n/a
245.04	0.0745	490080	keystroke_t	t	n/a
245.1745	0.0755	490349	keystroke_e	e	n/a
245.309	0.075	490618	keystroke_Key.enter	Key.enter	n/a
245.389	8.6525	490778	prompt	n/a	colorado minor karl girlfriend\n
246.555	0.089	493110	keystroke_c	c	n/a
246.69	0.089	493380	keystroke_o	o	n/a
246.9	0.0745	493800	keystroke_l	l	n/a
247.064	0.0605	494128	keystroke_o	o	n/a
247.154	0.15	494308	keystroke_r	r	n/a
247.32	0.059	494640	keystroke_a	a	n/a
247.529	0.105	495058	keystroke_d	d	n/a
247.68	0.1645	495360	keystroke_o	o	n/a
247.815	0.119	495630	keystroke_Key.space	Key.space	n/a
247.995	0.075	495990	keystroke_m	m	n/a
248.295	0.134	496590	keystroke_i	i	n/a
248.444	0.1205	496888	keystroke_n	n	n/a
248.595	0.089	497190	keystroke_o	o	n/a
248.7445	0.0905	497489	keystroke_r	r	n/a
248.8495	0.1045	497699	keystroke_Key.space	Key.space	n/a
249.225	0.089	498450	keystroke_k	k	n/a
249.3445	0.18	498689	keystroke_a	a	n/a
249.51	0.0605	499020	keystroke_r	r	n/a
249.6295	0.165	499259	keystroke_l	l	n/a
249.7795	0.1355	499559	keystroke_Key.space	Key.space	n/a
250.5295	0.075	501059	keystroke_g	g	n/a
250.6645	0.09	501329	keystroke_i	i	n/a
250.7845	0.09	501569	keystroke_r	r	n/a
250.9345	0.075	501869	keystroke_l	l	n/a
251.1595	0.075	502319	keystroke_f	f	n/a
251.3545	0.09	502709	keystroke_i	i	n/a
251.415	0.12	502830	keystroke_r	r	n/a
251.5945	0.06	503189	keystroke_n	n	n/a
251.6095	0.075	503219	keystroke_e	e	n/a
252.164	0.0605	504328	keystroke_Key.backspace	Key.backspace	n/a
252.329	0.03	504658	keystroke_Key.backspace	Key.backspace	n/a
252.5995	0.06	505199	keystroke_Key.backspace	Key.backspace	n/a
252.8995	0.06	505799	keystroke_Key.backspace	Key.backspace	n/a
253.0345	0.1055	506069	keystroke_r	r	n/a
253.2445	0.0755	506489	keystroke_i	i	n/a
253.5145	0.0755	507029	keystroke_e	e	n/a
253.6195	0.0755	507239	keystroke_n	n	n/a
253.74	0.075	507480	keystroke_d	d	n/a
253.95	0.09	507900	keystroke_Key.enter	Key.enter	n/a
254.0455	9.7905	508091	prompt	n/a	station lonely wired seating\n
255.0295	0.075	510059	keystroke_s	s	n/a
255.2245	0.091	510449	keystroke_t	t	n/a
255.36	0.09	510720	keystroke_a	a	n/a
255.4645	0.075	510929	keystroke_t	t	n/a
255.5845	0.12	511169	keystroke_i	i	n/a
255.6895	0.1505	511379	keystroke_o	o	n/a
255.825	0.1195	511650	keystroke_n	n	n/a
255.9145	0.105	511829	keystroke_Key.space	Key.space	n/a
256.0795	0.0605	512159	keystroke_l	l	n/a
256.2455	0.119	512491	keystroke_o	o	n/a
256.335	0.1045	512670	keystroke_n	n	n/a
256.425	0.0745	512850	keystroke_e	e	n/a
256.575	0.075	513150	keystroke_l	l	n/a
256.6945	0.06	513389	keystroke_t	t	n/a
257.3995	0.075	514799	keystroke_Key.backspace	Key.backspace	n/a
257.67	0.0745	515340	keystroke_y	y	n/a
257.9395	0.1055	515879	keystroke_Key.space	Key.space	n/a
258.7345	0.105	517469	keystroke_w	w	n/a
258.8845	0.075	517769	keystroke_i	i	n/a
259.05	0.1645	518100	keystroke_r	r	n/a
259.4095	0.045	518819	keystroke_e	e	n/a
259.8295	0.0905	519659	keystroke_d	d	n/a
259.95	0.12	519900	keystroke_Key.space	Key.space	n/a
260.2945	0.1055	520589	keystroke_s	s	n/a
260.4595	0.1055	520919	keystroke_e	e	n/a
260.55	0.105	521100	keystroke_a	a	n/a
261.165	0.09	522330	keystroke_r	r	n/a
261.285	0.18	522570	keystroke_i	i	n/a
261.405	0.135	522810	keystroke_n	n	n/a
261.525	0.09	523050	keystroke_g	g	n/a
262.155	0.06	524310	keystroke_Key.backspace	Key.backspace	n/a
262.32	0.045	524640	keystroke_Key.backspace	Key.backspace	n/a
262.47	0.045	524940	keystroke_Key.backspace	Key.backspace	n/a
262.62	0.03	525240	keystroke_Key.backspace	Key.backspace	n/a
263.04	0.09	526080	keystroke_t	t	n/a
263.175	0.15	526350	keystroke_i	i	n/a
263.28	0.105	526560	keystroke_n	n	n/a
263.4	0.09	526800	keystroke_g	g	n/a
263.7445	0.09	527489	keystroke_Key.enter	Key.enter	n/a
263.8395	11.5615	527679	prompt	n/a	worcester batch bottom viewpicture\n
265.9515	0.043	531903	keystroke_w	w	n/a
266.07	0.1345	532140	keystroke_o	o	n/a
266.3545	0.09	532709	keystroke_r	r	n/a
267.3445	0.0905	534689	keystroke_c	c	n/a
267.84	0.074	535680	keystroke_e	e	n/a
268.064	0.0455	536128	keystroke_s	s	n/a
268.214	0.06	536428	keystroke_t	t	n/a
268.4245	0.0755	536849	keystroke_e	e	n/a
268.5	0.09	537000	keystroke_r	r	n/a
268.604	0.106	537208	keystroke_Key.space	Key.space	n/a
268.799	0.091	537598	keystroke_b	b	n/a
268.9345	0.12	537869	keystroke_a	a	n/a
269.07	0.09	538140	keystroke_t	t	n/a
269.5045	0.135	539009	keystroke_h	h	n/a
269.7295	0.09	539459	keystroke_Key.space	Key.space	n/a
270.3445	0.0905	540689	keystroke_b	b	n/a
270.8695	0.045	541739	keystroke_Key.backspace	Key.backspace	n/a
271.0195	0.03	542039	keystroke_Key.backspace	Key.backspace	n/a
271.1245	0.0595	542249	keystroke_Key.backspace	Key.backspace	n/a
271.455	0.074	542910	keystroke_c	c	n/a
271.5455	0.074	543091	keystroke_h	h	n/a
271.814	0.1355	543628	keystroke_Key.space	Key.space	n/a
271.964	0.1055	543928	keystroke_b	b	n/a
272.0995	0.0905	544199	keystroke_o	o	n/a
272.25	0.075	544500	keystroke_t	t	n/a
272.4	0.06	544800	keystroke_t	t	n/a
272.519	0.135	545038	keystroke_o	o	n/a
273.1345	0.1645	546269	keystroke_m	m	n/a
273.239	0.1205	546478	keystroke_Key.space	Key.space	n/a
273.5995	0.0895	547199	keystroke_v	v	n/a
273.704	0.1055	547408	keystroke_i	i	n/a
273.7945	0.165	547589	keystroke_e	e	n/a
273.9145	0.105	547829	keystroke_w	w	n/a
274.1845	0.0605	548369	keystroke_p	p	n/a
274.3645	0.075	548729	keystroke_i	i	n/a
274.5445	0.09	549089	keystroke_c	c	n/a
274.7995	0.105	549599	keystroke_t	t	n/a
274.95	0.0895	549900	keystroke_u	u	n/a
275.0695	0.1205	550139	keystroke_r	r	n/a
275.1745	0.075	550349	keystroke_e	e	n/a
275.3245	0.075	550649	keystroke_Key.enter	Key.enter	n/a
275.405	15.5065	550810	prompt	n/a	saskatchewan discussed sporting bonds\n
276.87	0.075	553740	keystroke_s	s	n/a
277.0945	0.15	554189	keystroke_a	a	n/a
278.04	0.0595	556080	keystroke_s	s	n/a
278.46	0.0145	556920	keystroke_k	k	n/a
278.8645	0.1055	557729	keystroke_a	a	n/a
279.12	0.09	558240	keystroke_t	t	n/a
279.5395	0.06	559079	keystroke_c	c	n/a
279.6595	0.09	559319	keystroke_h	h	n/a
282.091	0.013	564182	keystroke_e	e	n/a
282.179	0.1205	564358	keystroke_w	w	n/a
282.3145	0.1355	564629	keystroke_a	a	n/a
282.645	0.09	565290	keystroke_n	n	n/a
283.245	0.135	566490	keystroke_Key.space	Key.space	n/a
283.86	0.015	567720	keystroke_d	d	n/a
283.905	0.105	567810	keystroke_i	i	n/a
284.145	0.075	568290	keystroke_s	s	n/a
284.3395	0.1055	568679	keystroke_c	c	n/a
284.43	0.06	568860	keystroke_u	u	n/a
284.5945	0.076	569189	keystroke_s	s	n/a
284.744	0.1055	569488	keystroke_s	s	n/a
284.88	0.0745	569760	keystroke_e	e	n/a
285.0745	0.075	570149	keystroke_d	d	n/a
285.2545	0.1055	570509	keystroke_Key.space	Key.space	n/a
286.0945	0.0755	572189	keystroke_s	s	n/a
286.185	0.09	572370	keystroke_p	p	n/a
286.455	0.0895	572910	keystroke_o	o	n/a
287.1295	0.075	574259	keystroke_r	r	n/a
287.3695	0.0755	574739	keystroke_t	t	n/a
287.5045	0.1805	575009	keystroke_i	i	n/a
287.91	0.0595	575820	keystroke_g	g	n/a
288.3295	0.045	576659	keystroke_Key.backspace	Key.backspace	n/a
288.5395	0.09	577079	keystroke_n	n	n/a
288.6745	0.075	577349	keystroke_g	g	n/a
288.8245	0.0905	577649	keystroke_Key.space	Key.space	n/a
289.71	0.1045	579420	keystroke_b	b	n/a
289.9045	0.135	579809	keystroke_o	o	n/a
290.0995	0.1205	580199	keystroke_n	n	n/a
290.2955	0.1185	580591	keystroke_d	d	n/a
290.4	0.105	580800	keystroke_s	s	n/a
290.834	0.075	581668	keystroke_Key.enter	Key.enter	n/a
290.9155	10.2855	581831	prompt	n/a	effectively reader ranges typing\n
292.244	0.06	584488	keystroke_e	e	n/a
292.4845	0.06	584969	keystroke_f	f	n/a
292.6345	0.06	585269	keystroke_f	f	n/a
292.7545	0.12	585509	keystroke_e	e	n/a
293.3695	0.0745	586739	keystroke_c	c	n/a
293.58	0.134	587160	keystroke_t	t	n/a
293.745	0.119	587490	keystroke_i	i	n/a
293.849	0.091	587698	keystroke_v	v	n/a
293.984	0.105	587968	keystroke_e	e	n/a
294.1195	0.0905	588239	keystroke_l	l	n/a
294.345	0.1495	588690	keystroke_y	y	n/a
294.464	0.0905	588928	keystroke_Key.space	Key.space	n/a
294.585	0.1345	589170	keystroke_r	r	n/a
294.6745	0.105	589349	keystroke_e	e	n/a
294.765	0.105	589530	keystroke_a	a	n/a
294.9295	0.12	589859	keystroke_f	f	n/a
295.17	0.1795	590340	keystroke_e	e	n/a
295.3345	0.1055	590669	keystroke_r	r	n/a
295.4545	0.1355	590909	keystroke_Key.space	Key.space	n/a
295.9945	0.06	591989	keystroke_Key.backspace	Key.backspace	n/a
296.1445	0.045	592289	keystroke_Key.backspace	Key.backspace	n/a
296.2795	0.045	592559	keystroke_Key.backspace	Key.backspace	n/a
296.4145	0.0755	592829	keystroke_Key.backspace	Key.backspace	n/a
296.5045	0.06	593009	keystroke_d	d	n/a
296.6545	0.135	593309	keystroke_e	e	n/a
296.745	0.1045	593490	keystroke_r	r	n/a
296.97	0.1345	593940	keystroke_Key.space	Key.space	n/a
297.4345	0.105	594869	keystroke_r	r	n/a
297.5245	0.105	595049	keystroke_a	a	n/a
297.645	0.075	595290	keystroke_n	n	n/a
297.7645	0.09	595529	keystroke_g	g	n/a
297.9145	0.1055	595829	keystroke_e	e	n/a
298.035	0.0895	596070	keystroke_s	s	n/a
298.1695	0.105	596339	keystroke_Key.space	Key.space	n/a
299.0695	0.0605	598139	keystroke_t	t	n/a
299.534	0.0905	599068	keystroke_y	y	n/a
299.76	0.045	599520	keystroke_p	p	n/a
300.69	0.165	601380	keystroke_i	i	n/a
300.81	0.15	601620	keystroke_n	n	n/a
300.915	0.09	601830	keystroke_g	g	n/a
301.11	0.089	602220	keystroke_Key.enter	Key.enter	n/a
301.2055	7.8705	602411	prompt	n/a	sets hollywood movement taylor\n
302.04	0.089	604080	keystroke_s	s	n/a
302.25	0.1345	604500	keystroke_e	e	n/a
302.4145	0.0895	604829	keystroke_t	t	n/a
302.609	0.09	605218	keystroke_s	s	n/a
302.7145	0.1055	605429	keystroke_Key.space	Key.space	n/a
302.954	0.045	605908	keystroke_h	h	n/a
303.06	0.089	606120	keystroke_o	o	n/a
303.299	0.03	606598	keystroke_l	l	n/a
303.4345	0.0445	606869	keystroke_l	l	n/a
303.6445	0.0755	607289	keystroke_y	y	n/a
303.825	0.075	607650	keystroke_w	w	n/a
303.93	0.06	607860	keystroke_o	o	n/a
304.065	0.075	608130	keystroke_o	o	n/a
304.2	0.075	608400	keystroke_d	d	n/a
304.335	0.104	608670	keystroke_Key.space	Key.space	n/a
304.86	0.105	609720	keystroke_m	m	n/a
305.025	0.09	610050	keystroke_o	o	n/a
305.13	0.075	610260	keystroke_v	v	n/a
305.325	0.12	610650	keystroke_e	e	n/a
306.405	0.075	612810	keystroke_m	m	n/a
306.54	0.06	613080	keystroke_e	e	n/a
306.659	0.075	613318	keystroke_n	n	n/a
306.749	0.105	613498	keystroke_t	t	n/a
306.914	0.1055	613828	keystroke_Key.space	Key.space	n/a
308.009	0.09	616018	keystroke_t	t	n/a
308.114	0.105	616228	keystroke_a	a	n/a
308.34	0.0745	616680	keystroke_y	y	n/a
308.565	0.059	617130	keystroke_l	l	n/a
308.73	0.06	617460	keystroke_o	o	n/a
308.864	0.076	617728	keystroke_r	r	n/a
308.999	0.075	617998	keystroke_Key.enter	Key.enter	n/a
309.0795	8.7565	618159	prompt	n/a	tribute wouldn't impacts sara\n
309.974	0.075	619948	keystroke_t	t	n/a
310.2595	0.0595	620519	keystroke_r	r	n/a
310.44	0.0745	620880	keystroke_i	i	n/a
310.71	0.06	621420	keystroke_b	b	n/a
310.949	0.075	621898	keystroke_u	u	n/a
311.099	0.105	622198	keystroke_t	t	n/a
311.234	0.09	622468	keystroke_e	e	n/a
311.354	0.135	622708	keystroke_Key.space	Key.space	n/a
311.8345	0.075	623669	keystroke_w	w	n/a
311.9395	0.15	623879	keystroke_o	o	n/a
312.06	0.135	624120	keystroke_u	u	n/a
312.2245	0.1355	624449	keystroke_l	l	n/a
312.33	0.09	624660	keystroke_d	d	n/a
312.4645	0.12	624929	keystroke_n	n	n/a
312.57	0.1045	625140	keystroke_'	'	n/a
312.69	0.0895	625380	keystroke_t	t	n/a
312.945	0.149	625890	keystroke_Key.space	Key.space	n/a
314.01	0.0895	628020	keystroke_i	i	n/a
314.174	0.135	628348	keystroke_m	m	n/a
314.34	0.09	628680	keystroke_p	p	n/a
314.639	0.135	629278	keystroke_a	a	n/a
314.834	0.09	629668	keystroke_c	c	n/a
315.044	0.06	630088	keystroke_t	t	n/a
315.195	0.089	630390	keystroke_s	s	n/a
315.359	0.09	630718	keystroke_Key.space	Key.space	n/a
315.66	0.119	631320	keystroke_a	a	n/a
315.794	0.12	631588	keystroke_r	r	n/a
315.884	0.09	631768	keystroke_e	e	n/a
316.394	0.03	632788	keystroke_Key.backspace	Key.backspace	n/a
316.529	0.031	633058	keystroke_Key.backspace	Key.backspace	n/a
316.649	0.03	633298	keystroke_Key.backspace	Key.backspace	n/a
316.74	0.134	633480	keystroke_s	s	n/a
316.859	0.165	633718	keystroke_a	a	n/a
316.979	0.1055	633958	keystroke_r	r	n/a
317.129	0.06	634258	keystroke_a	a	n/a
317.759	0.0755	635518	keystroke_Key.enter	Key.enter	n/a
317.8395	11.1115	635679	prompt	n/a	annoying waiver industries examining\n
318.4945	0.135	636989	keystroke_a	a	n/a
318.7045	0.06	637409	keystroke_n	n	n/a
318.8695	0.0605	637739	keystroke_n	n	n/a
319.7695	0.0595	639539	keystroke_o	o	n/a
319.979	0.091	639958	keystroke_y	y	n/a
320.129	0.211	640258	keystroke_i	i	n/a
320.31	0.1045	640620	keystroke_n	n	n/a
320.475	0.09	640950	keystroke_g	g	n/a
320.594	0.12	641188	keystroke_Key.space	Key.space	n/a
321.3	0.06	642600	keystroke_w	w	n/a
321.479	0.076	642958	keystroke_a	a	n/a
321.6	0.105	643200	keystroke_i	i	n/a
321.72	0.09	643440	keystroke_v	v	n/a
321.959	0.121	643918	keystroke_e	e	n/a
322.065	0.105	644130	keystroke_r	r	n/a
322.185	0.119	644370	keystroke_Key.space	Key.space	n/a
322.29	0.195	644580	keystroke_i	i	n/a
322.455	0.105	644910	keystroke_n	n	n/a
322.8745	0.075	645749	keystroke_d	d	n/a
323.1145	0.09	646229	keystroke_u	u	n/a
323.5945	0.075	647189	keystroke_s	s	n/a
323.7745	0.075	647549	keystroke_t	t	n/a
324.39	0.0745	648780	keystroke_r	r	n/a
324.5245	0.0905	649049	keystroke_i	i	n/a
324.5995	0.1205	649199	keystroke_e	e	n/a
324.8545	0.06	649709	keystroke_s	s	n/a
324.9895	0.105	649979	keystroke_Key.space	Key.space	n/a
325.2895	0.075	650579	keystroke_e	e	n/a
326.16	0.105	652320	keystroke_x	x	n/a
326.8945	0.09	653789	keystroke_a	a	n/a
327.749	0.075	655498	keystroke_m	m	n/a
327.959	0.06	655918	keystroke_i	i	n/a
328.154	0.106	656308	keystroke_n	n	n/a
328.334	0.195	656668	keystroke_i	i	n/a
328.5145	0.15	657029	keystroke_n	n	n/a
328.71	0.0745	657420	keystroke_g	g	n/a
328.8745	0.075	657749	keystroke_Key.enter	Key.enter	n/a
328.959	11.212	657918	prompt	n/a	acknowledge intimate playback maine\n
329.775	0.089	659550	keystroke_a	a	n/a
330.345	0.089	660690	keystroke_c	c	n/a
330.4795	0.1055	660959	keystroke_k	k	n/a
331.1395	0.105	662279	keystroke_n	n	n/a
331.3045	0.105	662609	keystroke_o	o	n/a
332.3995	0.06	664799	keystroke_w	w	n/a
332.6095	0.0755	665219	keystroke_l	l	n/a
332.8345	0.09	665669	keystroke_e	e	n/a
333.6145	0.09	667229	keystroke_d	d	n/a
333.7645	0.0895	667529	keystroke_g	g	n/a
333.899	0.0905	667798	keystroke_e	e	n/a
334.485	0.089	668970	keystroke_Key.space	Key.space	n/a
334.724	0.09	669448	keystroke_i	i	n/a
334.874	0.105	669748	keystroke_n	n	n/a
335.085	0.0595	670170	keystroke_t	t	n/a
335.1745	0.135	670349	keystroke_i	i	n/a
335.2645	0.135	670529	keystroke_m	m	n/a
335.3845	0.12	670769	keystroke_a	a	n/a
335.5195	0.09	671039	keystroke_t	t	n/a
335.6845	0.09	671369	keystroke_e	e	n/a
335.8495	0.1055	671699	keystroke_Key.space	Key.space	n/a
335.985	0.075	671970	keystroke_p	p	n/a
336.2095	0.06	672419	keystroke_l	l	n/a
336.3145	0.075	672629	keystroke_a	a	n/a
336.4495	0.075	672899	keystroke_y	y	n/a
336.7945	0.105	673589	keystroke_a	a	n/a
337.26	0.0895	674520	keystroke_Key.backspace	Key.backspace	n/a
338.265	0.0145	676530	keystroke_b	b	n/a
338.3245	0.06	676649	keystroke_a	a	n/a
338.5345	0.12	677069	keystroke_c	c	n/a
338.6845	0.1355	677369	keystroke_k	k	n/a
338.835	0.09	677670	keystroke_Key.space	Key.space	n/a
339.06	0.09	678120	keystroke_m	m	n/a
339.165	0.06	678330	keystroke_a	a	n/a
339.285	0.15	678570	keystroke_i	i	n/a
339.39	0.12	678780	keystroke_n	n	n/a
339.524	0.06	679048	keystroke_e	e	n/a
340.064	0.1055	680128	keystroke_Key.enter	Key.enter	n/a
340.1745	6.237	680349	prompt	n/a	much romania connections issue\n
341.205	0.0745	682410	keystroke_m	m	n/a
341.4295	0.0605	682859	keystroke_u	u	n/a
341.52	0.119	683040	keystroke_c	c	n/a
341.6695	0.135	683339	keystroke_h	h	n/a
341.76	0.1195	683520	keystroke_Key.space	Key.space	n/a
342.0745	0.06	684149	keystroke_r	r	n/a
342.1645	0.12	684329	keystroke_o	o	n/a
342.39	0.1045	684780	keystroke_m	m	n/a
342.5545	0.0755	685109	keystroke_a	a	n/a
342.7645	0.105	685529	keystroke_n	n	n/a
342.9145	0.06	685829	keystroke_i	i	n/a
343.0045	0.15	686009	keystroke_a	a	n/a
343.1995	0.1045	686399	keystroke_Key.space	Key.space	n/a
343.365	0.0895	686730	keystroke_c	c	n/a
343.4695	0.09	686939	keystroke_o	o	n/a
343.589	0.075	687178	keystroke_n	n	n/a
343.7395	0.0895	687479	keystroke_n	n	n/a
344.114	0.12	688228	keystroke_e	e	n/a
344.2795	0.09	688559	keystroke_c	c	n/a
344.5195	0.0595	689039	keystroke_t	t	n/a
344.594	0.1355	689188	keystroke_i	i	n/a
344.699	0.15	689398	keystroke_o	o	n/a
344.774	0.1355	689548	keystroke_n	n	n/a
344.9395	0.075	689879	keystroke_s	s	n/a
345.074	0.09	690148	keystroke_Key.space	Key.space	n/a
345.224	0.075	690448	keystroke_i	i	n/a
345.3295	0.09	690659	keystroke_s	s	n/a
345.4945	0.105	690989	keystroke_s	s	n/a
345.8245	0.09	691649	keystroke_u	u	n/a
345.9445	0.06	691889	keystroke_e	e	n/a
346.3345	0.075	692669	keystroke_Key.enter	Key.enter	n/a
346.4155	6.4455	692831	prompt	n/a	behalf validation precision uses\n
347.5795	0.075	695159	keystroke_b	b	n/a
347.6995	0.09	695399	keystroke_e	e	n/a
347.8195	0.09	695639	keystroke_h	h	n/a
347.9245	0.09	695849	keystroke_a	a	n/a
348.0595	0.105	696119	keystroke_l	l	n/a
348.2695	0.075	696539	keystroke_f	f	n/a
348.4195	0.12	696839	keystroke_Key.space	Key.space	n/a
349.0495	0.135	698099	keystroke_v	v	n/a
349.2145	0.06	698429	keystroke_a	a	n/a
349.4245	0.105	698849	keystroke_l	l	n/a
349.5595	0.09	699119	keystroke_i	i	n/a
349.7095	0.075	699419	keystroke_d	d	n/a
349.7995	0.105	699599	keystroke_a	a	n/a
349.9345	0.09	699869	keystroke_t	t	n/a
350.0695	0.075	700139	keystroke_i	i	n/a
350.1295	0.165	700259	keystroke_o	o	n/a
350.2645	0.18	700529	keystroke_n	n	n/a
350.429	0.09	700858	keystroke_Key.space	Key.space	n/a
350.6845	0.0895	701369	keystroke_p	p	n/a
350.819	0.1205	701638	keystroke_r	r	n/a
350.9095	0.1045	701819	keystroke_e	e	n/a
351.149	0.12	702298	keystroke_c	c	n/a
351.284	0.0605	702568	keystroke_i	i	n/a
351.465	0.0745	702930	keystroke_s	s	n/a
351.5695	0.105	703139	keystroke_i	i	n/a
351.6745	0.135	703349	keystroke_o	o	n/a
351.7795	0.15	703559	keystroke_n	n	n/a
351.9445	0.075	703889	keystroke_Key.space	Key.space	n/a
352.1095	0.075	704219	keystroke_u	u	n/a
352.2745	0.105	704549	keystroke_s	s	n/a
352.3645	0.12	704729	keystroke_e	e	n/a
352.5295	0.09	705059	keystroke_s	s	n/a
352.7845	0.075	705569	keystroke_Key.enter	Key.enter	n/a
352.866	9.64	705732	prompt	n/a	oscar sites lobby spell\n
353.565	0.0145	707130	keystroke_o	o	n/a
353.7295	0.075	707459	keystroke_s	s	n/a
353.8945	0.105	707789	keystroke_c	c	n/a
354.0145	0.18	708029	keystroke_a	a	n/a
354.2095	0.09	708419	keystroke_r	r	n/a
354.2695	0.075	708539	keystroke_e	e	n/a
354.4045	0.105	708809	keystroke_Key.space	Key.space	n/a
354.5245	0.09	709049	keystroke_s	s	n/a
354.5995	0.09	709199	keystroke_i	i	n/a
354.7045	0.09	709409	keystroke_t	t	n/a
354.8095	0.075	709619	keystroke_e	e	n/a
355.3645	0.075	710729	keystroke_Key.backspace	Key.backspace	n/a
355.529	0.045	711058	keystroke_Key.backspace	Key.backspace	n/a
355.664	0.06	711328	keystroke_Key.backspace	Key.backspace	n/a
355.8145	0.0595	711629	keystroke_Key.backspace	Key.backspace	n/a
355.964	0.06	711928	keystroke_Key.backspace	Key.backspace	n/a
356.099	0.0605	712198	keystroke_Key.backspace	Key.backspace	n/a
359.356	0.058	718712	keystroke_Key.space	Key.space	n/a
359.429	0.0905	718858	keystroke_s	s	n/a
359.595	0.0745	719190	keystroke_i	i	n/a
359.685	0.074	719370	keystroke_t	t	n/a
359.8195	0.0895	719639	keystroke_e	e	n/a
359.954	0.106	719908	keystroke_s	s	n/a
360.1045	0.12	720209	keystroke_Key.space	Key.space	n/a
360.4795	0.075	720959	keystroke_l	l	n/a
360.6595	0.06	721319	keystroke_o	o	n/a
360.84	0.0745	721680	keystroke_b	b	n/a
360.9895	0.06	721979	keystroke_b	b	n/a
361.1695	0.0905	722339	keystroke_y	y	n/a
361.3495	0.09	722699	keystroke_Key.space	Key.space	n/a
361.71	0.0895	723420	keystroke_s	s	n/a
361.8445	0.075	723689	keystroke_p	p	n/a
361.9645	0.0755	723929	keystroke_e	e	n/a
362.0995	0.0605	724199	keystroke_l	l	n/a
362.2495	0.0605	724499	keystroke_l	l	n/a
362.4145	0.09	724829	keystroke_Key.enter	Key.enter	n/a
362.5095	13.5715	725019	prompt	n/a	enormous songs proud observations\n
367.1715	0.001	734343	keystroke_e	e	n/a
368.3695	0.075	736739	keystroke_n	n	n/a
368.52	0.12	737040	keystroke_o	o	n/a
368.715	0.06	737430	keystroke_r	r	n/a
368.865	0.12	737730	keystroke_m	m	n/a
369	0.18	738000	keystroke_o	o	n/a
369.165	0.09	738330	keystroke_u	u	n/a
369.3295	0.0605	738659	keystroke_s	s	n/a
369.4795	0.105	738959	keystroke_Key.space	Key.space	n/a
369.7495	0.075	739499	keystroke_s	s	n/a
369.8545	0.165	739709	keystroke_o	o	n/a
369.9745	0.1355	739949	keystroke_n	n	n/a
370.0945	0.075	740189	keystroke_g	g	n/a
370.23	0.075	740460	keystroke_s	s	n/a
370.319	0.136	740638	keystroke_Key.space	Key.space	n/a
370.53	0.12	741060	keystroke_p	p	n/a
371.145	0.09	742290	keystroke_r	r	n/a
371.265	0.1645	742530	keystroke_o	o	n/a
371.415	0.105	742830	keystroke_u	u	n/a
371.85	0.074	743700	keystroke_d	d	n/a
371.984	0.091	743968	keystroke_Key.space	Key.space	n/a
372.4045	0.09	744809	keystroke_o	o	n/a
372.54	0.1045	745080	keystroke_v	v	n/a
373.6345	0.015	747269	keystroke_Key.backspace	Key.backspace	n/a
374.3995	0.075	748799	keystroke_b	b	n/a
374.565	0.09	749130	keystroke_s	s	n/a
374.6995	0.0905	749399	keystroke_e	e	n/a
374.7445	0.09	749489	keystroke_r	r	n/a
374.9695	0.105	749939	keystroke_v	v	n/a
375.1345	0.1055	750269	keystroke_a	a	n/a
375.2545	0.075	750509	keystroke_t	t	n/a
375.3595	0.1055	750719	keystroke_i	i	n/a
375.435	0.18	750870	keystroke_o	o	n/a
375.5845	0.135	751169	keystroke_n	n	n/a
375.8395	0.075	751679	keystroke_s	s	n/a
376.0195	0.0605	752039	keystroke_Key.enter	Key.enter	n/a
376.0845	3.9125	752169	prompt	n/a	massive often rows the\n
376.7845	0.0905	753569	keystroke_m	m	n/a
376.8895	0.0605	753779	keystroke_a	a	n/a
377.0695	0.0455	754139	keystroke_s	s	n/a
377.2045	0.0605	754409	keystroke_s	s	n/a
377.2945	0.105	754589	keystroke_i	i	n/a
377.3845	0.1055	754769	keystroke_v	v	n/a
377.5045	0.1055	755009	keystroke_e	e	n/a
377.58	0.12	755160	keystroke_Key.space	Key.space	n/a
377.6845	0.1205	755369	keystroke_o	o	n/a
377.7895	0.0755	755579	keystroke_f	f	n/a
377.9845	0.06	755969	keystroke_t	t	n/a
378.1345	0.075	756269	keystroke_e	e	n/a
378.2695	0.1355	756539	keystroke_n	n	n/a
378.39	0.1045	756780	keystroke_Key.space	Key.space	n/a
378.6745	0.075	757349	keystroke_r	r	n/a
378.7945	0.105	757589	keystroke_o	o	n/a
378.915	0.075	757830	keystroke_w	w	n/a
379.3195	0.075	758639	keystroke_s	s	n/a
379.4245	0.0905	758849	keystroke_Key.space	Key.space	n/a
379.56	0.0445	759120	keystroke_t	t	n/a
379.6195	0.0905	759239	keystroke_h	h	n/a
379.7395	0.0905	759479	keystroke_e	e	n/a
379.9195	0.075	759839	keystroke_Key.enter	Key.enter	n/a
380.001	7.1655	760002	prompt	n/a	moments workers mystery creates\n
380.7595	0.09	761519	keystroke_m	m	n/a
381.165	0.1045	762330	keystroke_o	o	n/a
381.4045	0.09	762809	keystroke_m	m	n/a
381.555	0.075	763110	keystroke_e	e	n/a
381.6745	0.0905	763349	keystroke_n	n	n/a
381.7495	0.0755	763499	keystroke_t	t	n/a
381.8695	0.09	763739	keystroke_s	s	n/a
381.9745	0.0905	763949	keystroke_Key.space	Key.space	n/a
382.14	0.0445	764280	keystroke_o	o	n/a
382.5295	0.075	765059	keystroke_Key.backspace	Key.backspace	n/a
382.6495	0.075	765299	keystroke_w	w	n/a
382.7695	0.1205	765539	keystroke_o	o	n/a
382.9045	0.1055	765809	keystroke_r	r	n/a
383.0695	0.075	766139	keystroke_k	k	n/a
383.415	0.1045	766830	keystroke_e	e	n/a
383.49	0.09	766980	keystroke_r	r	n/a
383.73	0.1195	767460	keystroke_s	s	n/a
383.9695	0.1205	767939	keystroke_Key.space	Key.space	n/a
384.18	0.0895	768360	keystroke_m	m	n/a
384.4195	0.0745	768839	keystroke_y	y	n/a
384.584	0.09	769168	keystroke_s	s	n/a
384.765	0.075	769530	keystroke_t	t	n/a
384.915	0.149	769830	keystroke_e	e	n/a
385.065	0.075	770130	keystroke_r	r	n/a
385.259	0.136	770518	keystroke_y	y	n/a
385.6195	0.0905	771239	keystroke_Key.space	Key.space	n/a
385.935	0.074	771870	keystroke_c	c	n/a
386.129	0.151	772258	keystroke_r	r	n/a
386.25	0.104	772500	keystroke_e	e	n/a
386.34	0.104	772680	keystroke_a	a	n/a
386.445	0.1045	772890	keystroke_t	t	n/a
386.6095	0.1055	773219	keystroke_e	e	n/a
386.6995	0.105	773399	keystroke_s	s	n/a
387.074	0.09	774148	keystroke_Key.enter	Key.enter	n/a
387.17	9.056	774340	prompt	n/a	beverage frontier continued continent\n
387.99	0.09	775980	keystroke_b	b	n/a
388.125	0.075	776250	keystroke_e	e	n/a
388.29	0.0745	776580	keystroke_v	v	n/a
388.4545	0.1195	776909	keystroke_e	e	n/a
388.5295	0.105	777059	keystroke_r	r	n/a
388.6195	0.09	777239	keystroke_a	a	n/a
388.8145	0.075	777629	keystroke_g	g	n/a
388.965	0.09	777930	keystroke_e	e	n/a
389.1145	0.1045	778229	keystroke_Key.space	Key.space	n/a
389.2945	0.09	778589	keystroke_f	f	n/a
389.49	0.075	778980	keystroke_r	r	n/a
389.64	0.15	779280	keystroke_o	o	n/a
389.7745	0.1055	779549	keystroke_n	n	n/a
389.894	0.075	779788	keystroke_t	t	n/a
390.014	0.0905	780028	keystroke_i	i	n/a
390.119	0.1655	780238	keystroke_e	e	n/a
390.299	0.075	780598	keystroke_r	r	n/a
390.51	0.1195	781020	keystroke_Key.space	Key.space	n/a
390.794	0.091	781588	keystroke_c	c	n/a
390.899	0.136	781798	keystroke_o	o	n/a
391.0045	0.1055	782009	keystroke_n	n	n/a
391.6795	0.0755	783359	keystroke_t	t	n/a
391.7995	0.075	783599	keystroke_i	i	n/a
393.48	0.09	786960	keystroke_n	n	n/a
393.69	0.075	787380	keystroke_u	u	n/a
393.81	0.09	787620	keystroke_e	e	n/a
394.02	0.075	788040	keystroke_d	d	n/a
394.125	0.1495	788250	keystroke_Key.space	Key.space	n/a
394.4245	0.0755	788849	keystroke_c	c	n/a
394.5455	0.119	789091	keystroke_o	o	n/a
394.7545	0.105	789509	keystroke_n	n	n/a
395.025	0.06	790050	keystroke_t	t	n/a
395.115	0.09	790230	keystroke_i	i	n/a
395.31	0.075	790620	keystroke_n	n	n/a
395.415	0.09	790830	keystroke_e	e	n/a
395.58	0.075	791160	keystroke_n	n	n/a
395.73	0.075	791460	keystroke_t	t	n/a
396.15	0.0745	792300	keystroke_Key.enter	Key.enter	n/a
396.23	11.936	792460	prompt	n/a	committee capacity target developments\n
397.0345	0.09	794069	keystroke_c	c	n/a
397.1995	0.12	794399	keystroke_o	o	n/a
397.4245	0.075	794849	keystroke_m	m	n/a
397.62	0.045	795240	keystroke_m	m	n/a
397.74	0.06	795480	keystroke_i	i	n/a
397.89	0.06	795780	keystroke_t	t	n/a
398.024	0.06	796048	keystroke_t	t	n/a
398.235	0.06	796470	keystroke_e	e	n/a
398.3845	0.0595	796769	keystroke_e	e	n/a
398.5045	0.1045	797009	keystroke_Key.space	Key.space	n/a
399.059	0.121	798118	keystroke_c	c	n/a
399.165	0.1045	798330	keystroke_a	a	n/a
399.8995	0.105	799799	keystroke_p	p	n/a
400.0195	0.105	800039	keystroke_a	a	n/a
401.61	0.0905	803220	keystroke_c	c	n/a
401.7595	0.105	803519	keystroke_i	i	n/a
401.8495	0.0605	803699	keystroke_s	s	n/a
401.9845	0.075	803969	keystroke_t	t	n/a
402.555	0.059	805110	keystroke_Key.backspace	Key.backspace	n/a
402.704	0.045	805408	keystroke_Key.backspace	Key.backspace	n/a
403.38	0.0595	806760	keystroke_t	t	n/a
403.4845	0.0905	806969	keystroke_y	y	n/a
403.7545	0.105	807509	keystroke_Key.space	Key.space	n/a
404.159	0.091	808318	keystroke_t	t	n/a
404.459	0.135	808918	keystroke_a	a	n/a
404.624	0.076	809248	keystroke_r	r	n/a
404.8195	0.0605	809639	keystroke_g	g	n/a
405.0145	0.06	810029	keystroke_e	e	n/a
405.1045	0.075	810209	keystroke_t	t	n/a
405.3295	0.135	810659	keystroke_Key.space	Key.space	n/a
405.8095	0.075	811619	keystroke_d	d	n/a
406.2295	0.0305	812459	keystroke_e	e	n/a
406.455	0.0745	812910	keystroke_v	v	n/a
406.589	0.105	813178	keystroke_e	e	n/a
406.769	0.075	813538	keystroke_l	l	n/a
406.965	0.06	813930	keystroke_o	o	n/a
407.205	0.06	814410	keystroke_p	p	n/a
407.429	0.076	814858	keystroke_m	m	n/a
407.534	0.091	815068	keystroke_e	e	n/a
407.67	0.074	815340	keystroke_n	n	n/a
407.7295	0.0895	815459	keystroke_t	t	n/a
407.85	0.09	815700	keystroke_s	s	n/a
408.074	0.0905	816148	keystroke_Key.enter	Key.enter	n/a
408.169	9.357	816338	prompt	n/a	dependent director eleven blonde\n
411.5555	0.001	823111	keystroke_d	d	n/a
411.6745	0.03	823349	keystroke_e	e	n/a
412.5745	0.075	825149	keystroke_p	p	n/a
412.7095	0.06	825419	keystroke_e	e	n/a
412.8295	0.09	825659	keystroke_n	n	n/a
412.9945	0.06	825989	keystroke_d	d	n/a
413.1445	0.09	826289	keystroke_e	e	n/a
413.2645	0.075	826529	keystroke_n	n	n/a
413.5195	0.015	827039	keystroke_t	t	n/a
413.655	0.1195	827310	keystroke_Key.space	Key.space	n/a
414.1195	0.09	828239	keystroke_d	d	n/a
414.2695	0.105	828539	keystroke_i	i	n/a
414.3445	0.165	828689	keystroke_r	r	n/a
414.4645	0.105	828929	keystroke_e	e	n/a
414.66	0.0745	829320	keystroke_c	c	n/a
414.8545	0.075	829709	keystroke_t	t	n/a
414.9445	0.105	829889	keystroke_o	o	n/a
415.0645	0.075	830129	keystroke_r	r	n/a
415.1545	0.105	830309	keystroke_Key.space	Key.space	n/a
415.3195	0.06	830639	keystroke_e	e	n/a
415.4245	0.09	830849	keystroke_l	l	n/a
415.5445	0.09	831089	keystroke_e	e	n/a
415.7695	0.075	831539	keystroke_v	v	n/a
415.935	0.075	831870	keystroke_e	e	n/a
416.0395	0.15	832079	keystroke_n	n	n/a
416.1745	0.12	832349	keystroke_Key.space	Key.space	n/a
416.4295	0.0905	832859	keystroke_b	b	n/a
416.64	0.059	833280	keystroke_l	l	n/a
416.805	0.1195	833610	keystroke_o	o	n/a
416.9395	0.1205	833879	keystroke_n	n	n/a
417.1045	0.045	834209	keystroke_d	d	n/a
417.2545	0.06	834509	keystroke_e	e	n/a
417.4645	0.06	834929	keystroke_Key.enter	Key.enter	n/a
417.531	8.77	835062	prompt	n/a	republic blog said universe\n
418.394	0.1355	836788	keystroke_r	r	n/a
418.5595	0.0905	837119	keystroke_e	e	n/a
419.535	0.074	839070	keystroke_p	p	n/a
419.759	0.076	839518	keystroke_u	u	n/a
419.9995	0.06	839999	keystroke_b	b	n/a
420.1795	0.1355	840359	keystroke_l	l	n/a
420.33	0.075	840660	keystroke_i	i	n/a
420.51	0.105	841020	keystroke_c	c	n/a
420.63	0.12	841260	keystroke_Key.space	Key.space	n/a
420.96	0.06	841920	keystroke_b	b	n/a
421.1695	0.075	842339	keystroke_l	l	n/a
421.6645	0.105	843329	keystroke_o	o	n/a
421.8295	0.075	843659	keystroke_g	g	n/a
421.9945	0.105	843989	keystroke_Key.space	Key.space	n/a
422.8345	0.165	845669	keystroke_s	s	n/a
422.9845	0.09	845969	keystroke_a	a	n/a
423.1045	0.0895	846209	keystroke_i	i	n/a
423.2395	0.1055	846479	keystroke_d	d	n/a
423.33	0.09	846660	keystroke_Key.space	Key.space	n/a
423.435	0.165	846870	keystroke_i	i	n/a
423.555	0.12	847110	keystroke_n	n	n/a
423.929	0.046	847858	keystroke_Key.backspace	Key.backspace	n/a
424.094	0.0455	848188	keystroke_Key.backspace	Key.backspace	n/a
424.365	0.104	848730	keystroke_u	u	n/a
424.6045	0.1355	849209	keystroke_n	n	n/a
424.755	0.075	849510	keystroke_i	i	n/a
425.1895	0.075	850379	keystroke_v	v	n/a
425.3995	0.135	850799	keystroke_e	e	n/a
425.4745	0.105	850949	keystroke_r	r	n/a
425.6695	0.135	851339	keystroke_s	s	n/a
425.7895	0.12	851579	keystroke_e	e	n/a
426.1795	0.12	852359	keystroke_Key.enter	Key.enter	n/a
426.304	16.212	852608	prompt	n/a	swaziland graham faculty pharmaceuticals\n
427.8295	0.06	855659	keystroke_s	s	n/a
428.5645	0.075	857129	keystroke_w	w	n/a
428.76	0.0895	857520	keystroke_a	a	n/a
429.6745	0.0895	859349	keystroke_z	z	n/a
429.869	0.0605	859738	keystroke_i	i	n/a
430.035	0.1045	860070	keystroke_l	l	n/a
430.154	0.045	860308	keystroke_a	a	n/a
430.2295	0.0895	860459	keystroke_n	n	n/a
430.619	0.091	861238	keystroke_d	d	n/a
430.724	0.135	861448	keystroke_Key.space	Key.space	n/a
431.1295	0.075	862259	keystroke_g	g	n/a
431.3395	0.15	862679	keystroke_r	r	n/a
431.4745	0.0755	862949	keystroke_a	a	n/a
434.5965	0.028	869193	keystroke_h	h	n/a
434.7	0.075	869400	keystroke_a	a	n/a
434.8345	0.135	869669	keystroke_m	m	n/a
434.9995	0.09	869999	keystroke_Key.space	Key.space	n/a
435.4795	0.03	870959	keystroke_f	f	n/a
436.139	0.06	872278	keystroke_a	a	n/a
436.4095	0.0595	872819	keystroke_c	c	n/a
436.5895	0.0455	873179	keystroke_u	u	n/a
436.785	0.0595	873570	keystroke_l	l	n/a
436.8895	0.09	873779	keystroke_t	t	n/a
437.0395	0.105	874079	keystroke_y	y	n/a
437.2495	0.09	874499	keystroke_Key.space	Key.space	n/a
438.3	0.0895	876600	keystroke_p	p	n/a
438.6145	0.105	877229	keystroke_h	h	n/a
438.8245	0.15	877649	keystroke_a	a	n/a
439.2295	0.06	878459	keystroke_r	r	n/a
439.4545	0.075	878909	keystroke_m	m	n/a
439.6195	0.075	879239	keystroke_a	a	n/a
440.0395	0.09	880079	keystroke_c	c	n/a
440.9395	0.06	881879	keystroke_e	e	n/a
441.2395	0.09	882479	keystroke_u	u	n/a
441.419	0.091	882838	keystroke_t	t	n/a
441.5245	0.0895	883049	keystroke_i	i	n/a
441.659	0.105	883318	keystroke_c	c	n/a
441.7495	0.0895	883499	keystroke_a	a	n/a
441.869	0.1055	883738	keystroke_l	l	n/a
442.005	0.105	884010	keystroke_s	s	n/a
442.4545	0.0595	884909	keystroke_Key.enter	Key.enter	n/a
442.5195	10.4215	885039	prompt	n/a	bookings cingular sends contrast\n
443.31	0.1045	886620	keystroke_b	b	n/a
443.5045	0.075	887009	keystroke_o	o	n/a
443.6395	0.165	887279	keystroke_o	o	n/a
443.7895	0.075	887579	keystroke_k	k	n/a
443.9695	0.0905	887939	keystroke_i	i	n/a
444.0145	0.1205	888029	keystroke_n	n	n/a
444.15	0.06	888300	keystroke_g	g	n/a
444.269	0.075	888538	keystroke_s	s	n/a
444.404	0.105	888808	keystroke_Key.space	Key.space	n/a
445.08	0.0895	890160	keystroke_c	c	n/a
445.185	0.1645	890370	keystroke_i	i	n/a
445.2895	0.105	890579	keystroke_n	n	n/a
446.2945	0.06	892589	keystroke_g	g	n/a
446.4745	0.075	892949	keystroke_u	u	n/a
446.6095	0.105	893219	keystroke_l	l	n/a
446.7445	0.135	893489	keystroke_a	a	n/a
446.8945	0.0755	893789	keystroke_r	r	n/a
447.0895	0.12	894179	keystroke_Key.space	Key.space	n/a
447.5545	0.09	895109	keystroke_s	s	n/a
447.735	0.075	895470	keystroke_e	e	n/a
448.574	0.1055	897148	keystroke_n	n	n/a
448.694	0.1355	897388	keystroke_f	f	n/a
448.814	0.0905	897628	keystroke_s	s	n/a
449.444	0.1055	898888	keystroke_Key.space	Key.space	n/a
449.8045	0.03	899609	keystroke_Key.backspace	Key.backspace	n/a
449.924	0.045	899848	keystroke_Key.backspace	Key.backspace	n/a
450.059	0.06	900118	keystroke_Key.backspace	Key.backspace	n/a
450.134	0.0905	900268	keystroke_d	d	n/a
450.239	0.1205	900478	keystroke_s	s	n/a
450.4495	0.1495	900899	keystroke_Key.space	Key.space	n/a
450.675	0.075	901350	keystroke_c	c	n/a
450.824	0.165	901648	keystroke_o	o	n/a
450.944	0.12	901888	keystroke_n	n	n/a
451.17	0.074	902340	keystroke_t	t	n/a
451.349	0.091	902698	keystroke_r	r	n/a
452.1895	0.09	904379	keystroke_a	a	n/a
452.3245	0.09	904649	keystroke_s	s	n/a
452.4895	0.06	904979	keystroke_t	t	n/a
452.8345	0.105	905669	keystroke_Key.enter	Key.enter	n/a
452.945	9.881	905890	prompt	n/a	laptops an destiny organization\n
453.944	0.075	907888	keystroke_l	l	n/a
454.049	0.0755	908098	keystroke_a	a	n/a
454.1845	0.1045	908369	keystroke_p	p	n/a
454.5145	0.15	909029	keystroke_t	t	n/a
454.6795	0.06	909359	keystroke_o	o	n/a
454.8745	0.075	909749	keystroke_p	p	n/a
455.0395	0.075	910079	keystroke_s	s	n/a
455.1595	0.1195	910319	keystroke_Key.space	Key.space	n/a
455.325	0.0895	910650	keystroke_a	a	n/a
455.4445	0.12	910889	keystroke_n	n	n/a
455.6095	0.12	911219	keystroke_Key.space	Key.space	n/a
456.9595	0.0895	913919	keystroke_d	d	n/a
457.1545	0.075	914309	keystroke_e	e	n/a
457.3495	0.075	914699	keystroke_s	s	n/a
457.769	0.0755	915538	keystroke_t	t	n/a
457.934	0.105	915868	keystroke_i	i	n/a
458.085	0.104	916170	keystroke_n	n	n/a
458.489	0.0155	916978	keystroke_y	y	n/a
458.759	0.0905	917518	keystroke_Key.space	Key.space	n/a
459.45	0.089	918900	keystroke_o	o	n/a
459.585	0.1045	919170	keystroke_r	r	n/a
460.4245	0.0895	920849	keystroke_g	g	n/a
460.5745	0.0605	921149	keystroke_a	a	n/a
460.949	0.135	921898	keystroke_n	n	n/a
461.114	0.075	922228	keystroke_i	i	n/a
461.399	0.0605	922798	keystroke_z	z	n/a
461.565	0.104	923130	keystroke_a	a	n/a
461.6995	0.0895	923399	keystroke_t	t	n/a
461.8045	0.1195	923609	keystroke_i	i	n/a
461.864	0.1505	923728	keystroke_o	o	n/a
461.9695	0.12	923939	keystroke_n	n	n/a
462.7045	0.12	925409	keystroke_Key.enter	Key.enter	n/a
462.8295	10.8715	925659	prompt	n/a	quarters extensions chains forever\n
464.0695	0.0905	928139	keystroke_q	q	n/a
464.2495	0.075	928499	keystroke_u	u	n/a
464.3545	0.1505	928709	keystroke_a	a	n/a
464.5645	0.105	929129	keystroke_r	r	n/a
464.6545	0.045	929309	keystroke_a	a	n/a
465.419	0.075	930838	keystroke_Key.backspace	Key.backspace	n/a
465.5845	0.0445	931169	keystroke_Key.backspace	Key.backspace	n/a
466.1545	0.09	932309	keystroke_r	r	n/a
466.3645	0.06	932729	keystroke_t	t	n/a
466.5595	0.12	933119	keystroke_e	e	n/a
466.6645	0.075	933329	keystroke_r	r	n/a
466.8895	0.075	933779	keystroke_s	s	n/a
467.0845	0.09	934169	keystroke_Key.space	Key.space	n/a
467.8345	0.045	935669	keystroke_e	e	n/a
468.0895	0.06	936179	keystroke_x	x	n/a
468.3295	0.0595	936659	keystroke_t	t	n/a
468.5095	0.075	937019	keystroke_e	e	n/a
468.629	0.0905	937258	keystroke_n	n	n/a
469.364	0.075	938728	keystroke_s	s	n/a
470.114	0.105	940228	keystroke_i	i	n/a
470.204	0.165	940408	keystroke_o	o	n/a
470.325	0.089	940650	keystroke_n	n	n/a
470.4895	0.075	940979	keystroke_s	s	n/a
470.6685	0.106	941337	keystroke_Key.space	Key.space	n/a
471.1495	0.105	942299	keystroke_c	c	n/a
471.239	0.1205	942478	keystroke_h	h	n/a
471.3745	0.075	942749	keystroke_a	a	n/a
471.464	0.1505	942928	keystroke_i	i	n/a
471.5995	0.119	943199	keystroke_n	n	n/a
471.8395	0.0605	943679	keystroke_s	s	n/a
472.454	0.121	944908	keystroke_Key.space	Key.space	n/a
472.589	0.09	945178	keystroke_f	f	n/a
472.71	0.104	945420	keystroke_o	o	n/a
472.844	0.0605	945688	keystroke_r	r	n/a
472.995	0.074	945990	keystroke_e	e	n/a
473.144	0.105	946288	keystroke_v	v	n/a
473.385	0.09	946770	keystroke_e	e	n/a
473.489	0.061	946978	keystroke_r	r	n/a
473.624	0.0755	947248	keystroke_Key.enter	Key.enter	n/a
473.704	9.0575	947408	prompt	n/a	florists unsubscribe wider licensed\n
474.9595	0.0905	949919	keystroke_f	f	n/a
475.1695	0.0595	950339	keystroke_l	l	n/a
475.349	0.105	950698	keystroke_o	o	n/a
475.6045	0.075	951209	keystroke_r	r	n/a
475.7845	0.09	951569	keystroke_i	i	n/a
475.9345	0.075	951869	keystroke_s	s	n/a
476.0545	0.06	952109	keystroke_t	t	n/a
476.205	0.0445	952410	keystroke_s	s	n/a
476.3845	0.075	952769	keystroke_Key.space	Key.space	n/a
476.5945	0.075	953189	keystroke_u	u	n/a
476.8195	0.09	953639	keystroke_n	n	n/a
477.194	0.045	954388	keystroke_s	s	n/a
477.3595	0.075	954719	keystroke_u	u	n/a
477.614	0.0605	955228	keystroke_b	b	n/a
477.8845	0.0595	955769	keystroke_s	s	n/a
478.4245	0.12	956849	keystroke_c	c	n/a
478.844	0.075	957688	keystroke_r	r	n/a
478.95	0.119	957900	keystroke_i	i	n/a
479.114	0.106	958228	keystroke_b	b	n/a
479.2645	0.06	958529	keystroke_e	e	n/a
479.7295	0.12	959459	keystroke_Key.space	Key.space	n/a
480.1795	0.09	960359	keystroke_w	w	n/a
480.3145	0.1055	960629	keystroke_i	i	n/a
480.4345	0.075	960869	keystroke_d	d	n/a
480.6445	0.15	961289	keystroke_e	e	n/a
480.7645	0.09	961529	keystroke_r	r	n/a
480.9145	0.104	961829	keystroke_Key.space	Key.space	n/a
481.0935	0.121	962187	keystroke_l	l	n/a
481.2595	0.06	962519	keystroke_i	i	n/a
481.7545	0.0905	963509	keystroke_c	c	n/a
481.875	0.0895	963750	keystroke_e	e	n/a
481.995	0.0745	963990	keystroke_n	n	n/a
482.174	0.1205	964348	keystroke_s	s	n/a
482.2645	0.0895	964529	keystroke_e	e	n/a
482.474	0.0605	964948	keystroke_d	d	n/a
482.6845	0.075	965369	keystroke_Key.enter	Key.enter	n/a
482.766	12.445	965532	prompt	n/a	hardcover contractors motorola coordinated\n
483.7495	0.0305	967499	keystroke_h	h	n/a
483.8245	0.18	967649	keystroke_a	a	n/a
483.9895	0.089	967979	keystroke_r	r	n/a
484.1695	0.075	968339	keystroke_d	d	n/a
484.3185	0.106	968637	keystroke_o	o	n/a
484.3935	0.106	968787	keystroke_v	v	n/a
484.62	0.135	969240	keystroke_e	e	n/a
484.7695	0.105	969539	keystroke_r	r	n/a
484.9495	0.1195	969899	keystroke_Key.space	Key.space	n/a
485.1295	0.1045	970259	keystroke_c	c	n/a
485.249	0.1505	970498	keystroke_o	o	n/a
485.6545	0.06	971309	keystroke_Key.backspace	Key.backspace	n/a
485.8045	0.06	971609	keystroke_Key.backspace	Key.backspace	n/a
485.9545	0.06	971909	keystroke_Key.backspace	Key.backspace	n/a
486.1195	0.045	972239	keystroke_Key.backspace	Key.backspace	n/a
486.2695	0.045	972539	keystroke_Key.backspace	Key.backspace	n/a
486.4195	0.045	972839	keystroke_Key.backspace	Key.backspace	n/a
486.9895	0.06	973979	keystroke_Key.backspace	Key.backspace	n/a
487.1545	0.06	974309	keystroke_c	c	n/a
487.2595	0.09	974519	keystroke_o	o	n/a
487.5885	0.046	975177	keystroke_v	v	n/a
487.7695	0.1055	975539	keystroke_e	e	n/a
487.8595	0.075	975719	keystroke_r	r	n/a
487.9785	0.106	975957	keystroke_Key.space	Key.space	n/a
488.1295	0.09	976259	keystroke_c	c	n/a
488.2345	0.1355	976469	keystroke_o	o	n/a
488.3545	0.0905	976709	keystroke_n	n	n/a
488.5345	0.075	977069	keystroke_t	t	n/a
488.7435	0.046	977487	keystroke_r	r	n/a
488.88	0.1195	977760	keystroke_a	a	n/a
489.0145	0.09	978029	keystroke_c	c	n/a
489.254	0.0755	978508	keystroke_t	t	n/a
489.3445	0.09	978689	keystroke_o	o	n/a
489.4785	0.061	978957	keystroke_r	r	n/a
489.6295	0.1045	979259	keystroke_s	s	n/a
489.7495	0.149	979499	keystroke_Key.space	Key.space	n/a
490.0045	0.12	980009	keystroke_m	m	n/a
490.1395	0.0605	980279	keystroke_o	o	n/a
490.2595	0.0745	980519	keystroke_t	t	n/a
490.379	0.1055	980758	keystroke_o	o	n/a
490.5895	0.075	981179	keystroke_r	r	n/a
490.6795	0.105	981359	keystroke_o	o	n/a
491.0845	0.0605	982169	keystroke_l	l	n/a
491.2045	0.075	982409	keystroke_a	a	n/a
491.3545	0.105	982709	keystroke_Key.space	Key.space	n/a
491.5495	0.105	983099	keystroke_c	c	n/a
491.7	0.045	983400	keystroke_o	o	n/a
491.8495	0.075	983699	keystroke_o	o	n/a
491.9695	0.075	983939	keystroke_r	r	n/a
493.2595	0.09	986519	keystroke_d	d	n/a
493.379	0.1055	986758	keystroke_i	i	n/a
493.7995	0.06	987599	keystroke_n	n	n/a
493.9195	0.09	987839	keystroke_a	a	n/a
494.024	0.1205	988048	keystroke_t	t	n/a
494.654	0.075	989308	keystroke_e	e	n/a
494.909	0.0905	989818	keystroke_d	d	n/a
495.149	0.06	990298	keystroke_Key.enter	Key.enter	n/a
495.2145	8.6815	990429	prompt	n/a	been secured libraries arrangement\n
496.0795	0.075	992159	keystroke_b	b	n/a
496.2445	0.045	992489	keystroke_e	e	n/a
496.3495	0.075	992699	keystroke_e	e	n/a
496.4695	0.135	992939	keystroke_n	n	n/a
496.5745	0.12	993149	keystroke_Key.space	Key.space	n/a
496.7095	0.105	993419	keystroke_s	s	n/a
496.7995	0.09	993599	keystroke_e	e	n/a
497.055	0.0895	994110	keystroke_c	c	n/a
497.1595	0.105	994319	keystroke_u	u	n/a
497.355	0.164	994710	keystroke_r	r	n/a
497.4745	0.105	994949	keystroke_e	e	n/a
497.729	0.06	995458	keystroke_d	d	n/a
497.8045	0.1195	995609	keystroke_Key.space	Key.space	n/a
498.149	0.075	996298	keystroke_l	l	n/a
498.3295	0.0595	996659	keystroke_i	i	n/a
498.539	0.0605	997078	keystroke_n	n	n/a
499.424	0.06	998848	keystroke_Key.backspace	Key.backspace	n/a
500.13	0.0745	1000260	keystroke_b	b	n/a
500.2345	0.135	1000469	keystroke_r	r	n/a
500.3845	0.075	1000769	keystroke_a	a	n/a
500.7895	0.074	1001579	keystroke_r	r	n/a
500.9095	0.09	1001819	keystroke_i	i	n/a
501.0135	0.0905	1002027	keystroke_e	e	n/a
501.2095	0.075	1002419	keystroke_s	s	n/a
501.3145	0.119	1002629	keystroke_Key.space	Key.space	n/a
501.4935	0.091	1002987	keystroke_a	a	n/a
501.7045	0.0455	1003409	keystroke_r	r	n/a
501.8385	0.091	1003677	keystroke_r	r	n/a
501.9445	0.074	1003889	keystroke_a	a	n/a
502.0795	0.105	1004159	keystroke_n	n	n/a
502.1995	0.044	1004399	keystroke_g	g	n/a
502.3495	0.09	1004699	keystroke_e	e	n/a
502.5135	0.076	1005027	keystroke_m	m	n/a
502.6195	0.075	1005239	keystroke_e	e	n/a
502.7395	0.06	1005479	keystroke_n	n	n/a
502.7995	0.075	1005599	keystroke_t	t	n/a
502.9795	0.044	1005959	keystroke_s	s	n/a
503.5335	0.075	1007067	keystroke_Key.backspace	Key.backspace	n/a
503.8195	0.075	1007639	keystroke_Key.enter	Key.enter	n/a
503.9005	10.1515	1007801	prompt	n/a	routes sunday allowing updates\n
505.305	0.0445	1010610	keystroke_t	t	n/a
505.7245	0.09	1011449	keystroke_Key.backspace	Key.backspace	n/a
506.0695	0.075	1012139	keystroke_r	r	n/a
506.2045	0.135	1012409	keystroke_o	o	n/a
506.3245	0.105	1012649	keystroke_u	u	n/a
506.4745	0.0745	1012949	keystroke_t	t	n/a
506.655	0.12	1013310	keystroke_e	e	n/a
507.239	0.091	1014478	keystroke_s	s	n/a
507.389	0.15	1014778	keystroke_Key.space	Key.space	n/a
507.8245	0.0445	1015649	keystroke_s	s	n/a
508.244	0.075	1016488	keystroke_u	u	n/a
508.455	0.074	1016910	keystroke_n	n	n/a
508.574	0.105	1017148	keystroke_d	d	n/a
508.664	0.091	1017328	keystroke_a	a	n/a
508.994	0.09	1017988	keystroke_y	y	n/a
509.219	0.12	1018438	keystroke_Key.space	Key.space	n/a
509.399	0.105	1018798	keystroke_a	a	n/a
509.564	0.075	1019128	keystroke_l	l	n/a
509.729	0.076	1019458	keystroke_l	l	n/a
510.449	0.0455	1020898	keystroke_o	o	n/a
510.509	0.075	1021018	keystroke_w	w	n/a
510.614	0.165	1021228	keystroke_i	i	n/a
510.764	0.18	1021528	keystroke_n	n	n/a
511.004	0.0905	1022008	keystroke_g	g	n/a
511.1545	0.1195	1022309	keystroke_Key.space	Key.space	n/a
512.234	0.09	1024468	keystroke_u	u	n/a
512.414	0.091	1024828	keystroke_p	p	n/a
512.609	0.121	1025218	keystroke_d	d	n/a
512.759	0.061	1025518	keystroke_a	a	n/a
512.954	0.076	1025908	keystroke_t	t	n/a
513.074	0.09	1026148	keystroke_e	e	n/a
513.689	0.106	1027378	keystroke_s	s	n/a
513.974	0.075	1027948	keystroke_Key.enter	Key.enter	n/a
514.0555	11.726	1028111	prompt	n/a	snowboard minimize diploma stability\n
514.8895	0.09	1029779	keystroke_s	s	n/a
515.0395	0.12	1030079	keystroke_n	n	n/a
515.2195	0.074	1030439	keystroke_o	o	n/a
515.864	0.075	1031728	keystroke_w	w	n/a
516.194	0.09	1032388	keystroke_b	b	n/a
516.359	0.1055	1032718	keystroke_o	o	n/a
516.4495	0.164	1032899	keystroke_a	a	n/a
516.5845	0.09	1033169	keystroke_r	r	n/a
516.8385	0.106	1033677	keystroke_d	d	n/a
516.9895	0.1195	1033979	keystroke_Key.space	Key.space	n/a
517.829	0.105	1035658	keystroke_m	m	n/a
518.0095	0.09	1036019	keystroke_i	i	n/a
518.1885	0.091	1036377	keystroke_n	n	n/a
518.355	0.1045	1036710	keystroke_i	i	n/a
518.8795	0.045	1037759	keystroke_m	m	n/a
518.984	0.0905	1037968	keystroke_i	i	n/a
519.8385	0.09	1039677	keystroke_z	z	n/a
520.0945	0.0755	1040189	keystroke_e	e	n/a
520.9045	0.105	1041809	keystroke_Key.space	Key.space	n/a
521.834	0.075	1043668	keystroke_d	d	n/a
522.1045	0.0755	1044209	keystroke_i	i	n/a
522.314	0.075	1044628	keystroke_p	p	n/a
522.824	0.06	1045648	keystroke_l	l	n/a
523.019	0.1055	1046038	keystroke_o	o	n/a
523.2295	0.0895	1046459	keystroke_m	m	n/a
523.3945	0.0745	1046789	keystroke_a	a	n/a
523.499	0.135	1046998	keystroke_Key.space	Key.space	n/a
524.339	0.075	1048678	keystroke_s	s	n/a
524.4895	0.09	1048979	keystroke_t	t	n/a
524.6245	0.06	1049249	keystroke_a	a	n/a
524.7885	0.105	1049577	keystroke_b	b	n/a
524.9385	0.091	1049877	keystroke_i	i	n/a
525.149	0.0905	1050298	keystroke_l	l	n/a
525.2545	0.12	1050509	keystroke_i	i	n/a
525.3885	0.09	1050777	keystroke_t	t	n/a
525.5095	0.09	1051019	keystroke_y	y	n/a
525.7045	0.074	1051409	keystroke_Key.enter	Key.enter	n/a
525.787	8.1985	1051574	prompt	n/a	rate enabled minister animated\n
527.4285	0.106	1054857	keystroke_r	r	n/a
527.6095	0.12	1055219	keystroke_a	a	n/a
527.7595	0.104	1055519	keystroke_t	t	n/a
527.9395	0.075	1055879	keystroke_e	e	n/a
528.0595	0.134	1056119	keystroke_Key.space	Key.space	n/a
528.2685	0.075	1056537	keystroke_e	e	n/a
528.5995	0.0595	1057199	keystroke_b	b	n/a
529.304	0.075	1058608	keystroke_Key.backspace	Key.backspace	n/a
529.9795	0.0895	1059959	keystroke_n	n	n/a
530.1435	0.076	1060287	keystroke_a	a	n/a
530.2335	0.075	1060467	keystroke_b	b	n/a
530.3985	0.1055	1060797	keystroke_l	l	n/a
530.5495	0.0895	1061099	keystroke_e	e	n/a
530.759	0.0905	1061518	keystroke_d	d	n/a
530.894	0.1205	1061788	keystroke_Key.space	Key.space	n/a
531.1945	0.0745	1062389	keystroke_m	m	n/a
531.344	0.075	1062688	keystroke_i	i	n/a
531.494	0.105	1062988	keystroke_n	n	n/a
531.614	0.1055	1063228	keystroke_i	i	n/a
531.839	0.1055	1063678	keystroke_s	s	n/a
531.959	0.09	1063918	keystroke_t	t	n/a
532.124	0.1805	1064248	keystroke_e	e	n/a
532.2895	0.075	1064579	keystroke_r	r	n/a
532.394	0.1195	1064788	keystroke_Key.space	Key.space	n/a
532.7245	0.09	1065449	keystroke_a	a	n/a
532.8595	0.12	1065719	keystroke_n	n	n/a
532.9945	0.075	1065989	keystroke_i	i	n/a
533.1595	0.105	1066319	keystroke_m	m	n/a
533.3095	0.135	1066619	keystroke_a	a	n/a
533.4735	0.076	1066947	keystroke_t	t	n/a
533.5945	0.075	1067189	keystroke_e	e	n/a
533.7735	0.076	1067547	keystroke_d	d	n/a
533.909	0.075	1067818	keystroke_Key.enter	Key.enter	n/a
533.99	10.706	1067980	prompt	n/a	cakes farming disclaimer equivalent\n
534.764	0.1355	1069528	keystroke_c	c	n/a
534.914	0.075	1069828	keystroke_a	a	n/a
535.0045	0.075	1070009	keystroke_k	k	n/a
535.109	0.1205	1070218	keystroke_e	e	n/a
535.214	0.12	1070428	keystroke_s	s	n/a
535.394	0.09	1070788	keystroke_Key.space	Key.space	n/a
536.4445	0.0895	1072889	keystroke_f	f	n/a
536.5795	0.1195	1073159	keystroke_a	a	n/a
536.714	0.105	1073428	keystroke_r	r	n/a
536.834	0.105	1073668	keystroke_m	m	n/a
536.9695	0.1795	1073939	keystroke_i	i	n/a
537.1195	0.105	1074239	keystroke_n	n	n/a
537.254	0.09	1074508	keystroke_g	g	n/a
537.359	0.15	1074718	keystroke_Key.space	Key.space	n/a
537.854	0.06	1075708	keystroke_d	d	n/a
537.989	0.09	1075978	keystroke_i	i	n/a
538.139	0.075	1076278	keystroke_s	s	n/a
538.289	0.1055	1076578	keystroke_c	c	n/a
538.409	0.0895	1076818	keystroke_l	l	n/a
539.1585	0.03	1078317	keystroke_a	a	n/a
539.249	0.1505	1078498	keystroke_i	i	n/a
539.4885	0.091	1078977	keystroke_m	m	n/a
539.6395	0.12	1079279	keystroke_e	e	n/a
539.7295	0.09	1079459	keystroke_r	r	n/a
540.1195	0.075	1080239	keystroke_Key.space	Key.space	n/a
541.799	0.0755	1083598	keystroke_e	e	n/a
542.2195	0.06	1084439	keystroke_q	q	n/a
542.3695	0.105	1084739	keystroke_u	u	n/a
542.4895	0.105	1084979	keystroke_i	i	n/a
543.6145	0.105	1087229	keystroke_v	v	n/a
543.8395	0.015	1087679	keystroke_a	a	n/a
543.8995	0.075	1087799	keystroke_l	l	n/a
544.0045	0.105	1088009	keystroke_e	e	n/a
544.1395	0.12	1088279	keystroke_n	n	n/a
544.3045	0.09	1088609	keystroke_t	t	n/a
544.6345	0.06	1089269	keystroke_Key.enter	Key.enter	n/a
544.7045	11.8265	1089409	prompt	n/a	satisfaction surgical friday lion\n
545.5495	0.075	1091099	keystroke_s	s	n/a
546.2395	0.12	1092479	keystroke_a	a	n/a
546.449	0.0755	1092898	keystroke_t	t	n/a
546.6895	0.09	1093379	keystroke_i	i	n/a
547.6045	0.075	1095209	keystroke_s	s	n/a
547.7545	0.1045	1095509	keystroke_f	f	n/a
547.8745	0.0895	1095749	keystroke_a	a	n/a
548.414	0.0755	1096828	keystroke_c	c	n/a
548.609	0.075	1097218	keystroke_t	t	n/a
548.7145	0.105	1097429	keystroke_i	i	n/a
548.8045	0.1345	1097609	keystroke_o	o	n/a
548.909	0.165	1097818	keystroke_n	n	n/a
549.089	0.1055	1098178	keystroke_Key.space	Key.space	n/a
549.3295	0.075	1098659	keystroke_s	s	n/a
549.6445	0.075	1099289	keystroke_u	u	n/a
550.3335	0.061	1100667	keystroke_r	r	n/a
550.6795	0.059	1101359	keystroke_g	g	n/a
550.7985	0.106	1101597	keystroke_i	i	n/a
550.9045	0.1045	1101809	keystroke_c	c	n/a
551.0245	0.09	1102049	keystroke_a	a	n/a
551.1585	0.136	1102317	keystroke_l	l	n/a
551.3085	0.105	1102617	keystroke_Key.space	Key.space	n/a
551.9245	0.0905	1103849	keystroke_f	f	n/a
552.119	0.075	1104238	keystroke_i	i	n/a
552.8245	0.045	1105649	keystroke_Key.backspace	Key.backspace	n/a
552.9295	0.12	1105859	keystroke_r	r	n/a
553.064	0.0905	1106128	keystroke_i	i	n/a
553.184	0.1205	1106368	keystroke_d	d	n/a
553.3045	0.1045	1106609	keystroke_a	a	n/a
554.5495	0.15	1109099	keystroke_y	y	n/a
554.6835	0.105	1109367	keystroke_Key.space	Key.space	n/a
554.8785	0.105	1109757	keystroke_l	l	n/a
555.1045	0.134	1110209	keystroke_i	i	n/a
555.2545	0.15	1110509	keystroke_o	o	n/a
555.4185	0.09	1110837	keystroke_n	n	n/a
556.439	0.09	1112878	keystroke_Key.enter	Key.enter	n/a
556.535	8.906	1113070	prompt	n/a	lucas so theta american\n
558.1045	0.075	1116209	keystroke_l	l	n/a
558.2545	0.075	1116509	keystroke_u	u	n/a
558.404	0.12	1116808	keystroke_c	c	n/a
558.584	0.075	1117168	keystroke_a	a	n/a
558.839	0.075	1117678	keystroke_s	s	n/a
558.944	0.1505	1117888	keystroke_Key.space	Key.space	n/a
559.1995	0.0595	1118399	keystroke_s	s	n/a
559.319	0.18	1118638	keystroke_o	o	n/a
559.439	0.12	1118878	keystroke_Key.space	Key.space	n/a
559.634	0.09	1119268	keystroke_t	t	n/a
559.739	0.09	1119478	keystroke_h	h	n/a
560.2195	0.1195	1120439	keystroke_e	e	n/a
560.4745	0.0595	1120949	keystroke_t	t	n/a
560.6245	0.0595	1121249	keystroke_a	a	n/a
560.984	0.0905	1121968	keystroke_Key.space	Key.space	n/a
561.6595	0.0745	1123319	keystroke_a	a	n/a
561.8545	0.105	1123709	keystroke_m	m	n/a
562.004	0.06	1124008	keystroke_i	i	n/a
562.214	0.12	1124428	keystroke_e	e	n/a
562.3045	0.1045	1124609	keystroke_r	r	n/a
562.784	0.06	1125568	keystroke_Key.backspace	Key.backspace	n/a
562.949	0.03	1125898	keystroke_Key.backspace	Key.backspace	n/a
563.054	0.06	1126108	keystroke_Key.backspace	Key.backspace	n/a
563.144	0.12	1126288	keystroke_e	e	n/a
563.234	0.075	1126468	keystroke_r	r	n/a
563.369	0.105	1126738	keystroke_i	i	n/a
563.489	0.12	1126978	keystroke_c	c	n/a
563.5945	0.0895	1127189	keystroke_a	a	n/a
565.1395	0.09	1130279	keystroke_n	n	n/a
565.3495	0.089	1130699	keystroke_Key.enter	Key.enter	n/a
565.4455	8.74	1130891	prompt	n/a	petite bahrain massage voters\n
566.5335	0.0905	1133067	keystroke_p	p	n/a
566.6835	0.075	1133367	keystroke_e	e	n/a
566.8495	0.1045	1133699	keystroke_t	t	n/a
566.9395	0.0745	1133879	keystroke_i	i	n/a
567.104	0.045	1134208	keystroke_t	t	n/a
567.7795	0.075	1135559	keystroke_e	e	n/a
567.9745	0.104	1135949	keystroke_Key.space	Key.space	n/a
569.7285	0.0455	1139457	keystroke_b	b	n/a
569.8485	0.075	1139697	keystroke_a	a	n/a
571.0645	0.09	1142129	keystroke_h	h	n/a
571.2595	0.105	1142519	keystroke_r	r	n/a
571.3795	0.075	1142759	keystroke_a	a	n/a
571.4995	0.135	1142999	keystroke_i	i	n/a
571.6045	0.135	1143209	keystroke_n	n	n/a
571.799	0.1495	1143598	keystroke_Key.space	Key.space	n/a
571.9945	0.105	1143989	keystroke_m	m	n/a
572.1145	0.09	1144229	keystroke_a	a	n/a
572.309	0.06	1144618	keystroke_s	s	n/a
572.459	0.0895	1144918	keystroke_s	s	n/a
572.6095	0.09	1145219	keystroke_a	a	n/a
572.7145	0.09	1145429	keystroke_g	g	n/a
572.8945	0.075	1145789	keystroke_e	e	n/a
573.0135	0.12	1146027	keystroke_Key.space	Key.space	n/a
573.2995	0.075	1146599	keystroke_v	v	n/a
573.3895	0.105	1146779	keystroke_o	o	n/a
573.5385	0.076	1147077	keystroke_t	t	n/a
573.7195	0.12	1147439	keystroke_e	e	n/a
573.8245	0.059	1147649	keystroke_r	r	n/a
573.9445	0.089	1147889	keystroke_s	s	n/a
574.1385	0.045	1148277	keystroke_Key.enter	Key.enter	n/a
574.189	10.3765	1148378	prompt	n/a	reform text joined texts\n
575.009	0.1655	1150018	keystroke_r	r	n/a
575.144	0.105	1150288	keystroke_e	e	n/a
575.324	0.1055	1150648	keystroke_f	f	n/a
575.4745	0.105	1150949	keystroke_o	o	n/a
575.6085	0.09	1151217	keystroke_r	r	n/a
576.3885	0.136	1152777	keystroke_m	m	n/a
576.539	0.09	1153078	keystroke_Key.space	Key.space	n/a
576.674	0.075	1153348	keystroke_t	t	n/a
576.825	0.074	1153650	keystroke_e	e	n/a
577.079	0.0755	1154158	keystroke_x	x	n/a
577.2435	0.076	1154487	keystroke_t	t	n/a
577.3495	0.105	1154699	keystroke_Key.space	Key.space	n/a
577.679	0.105	1155358	keystroke_h	h	n/a
577.829	0.121	1155658	keystroke_o	o	n/a
578.009	0.2095	1156018	keystroke_i	i	n/a
578.204	0.1045	1156408	keystroke_n	n	n/a
578.5635	0.061	1157127	keystroke_Key.backspace	Key.backspace	n/a
578.699	0.0595	1157398	keystroke_Key.backspace	Key.backspace	n/a
578.8485	0.045	1157697	keystroke_Key.backspace	Key.backspace	n/a
578.9985	0.0305	1157997	keystroke_Key.backspace	Key.backspace	n/a
579.8835	0.105	1159767	keystroke_j	j	n/a
580.0195	0.164	1160039	keystroke_o	o	n/a
580.1995	0.1645	1160399	keystroke_i	i	n/a
580.394	0.12	1160788	keystroke_n	n	n/a
580.559	0.09	1161118	keystroke_e	e	n/a
580.754	0.0905	1161508	keystroke_d	d	n/a
580.874	0.09	1161748	keystroke_Key.space	Key.space	n/a
581.009	0.0745	1162018	keystroke_t	t	n/a
581.1585	0.091	1162317	keystroke_e	e	n/a
584.0105	0.001	1168021	keystroke_x	x	n/a
584.1585	0.091	1168317	keystroke_t	t	n/a
584.279	0.0755	1168558	keystroke_s	s	n/a
584.4885	0.0755	1168977	keystroke_Key.enter	Key.enter	n/a
584.5695	10.151	1169139	prompt	n/a	deposit males exclusion phantom\n
585.4645	0.075	1170929	keystroke_d	d	n/a
585.644	0.06	1171288	keystroke_e	e	n/a
585.7495	0.0745	1171499	keystroke_p	p	n/a
585.959	0.0905	1171918	keystroke_o	o	n/a
586.1695	0.0595	1172339	keystroke_s	s	n/a
586.274	0.0755	1172548	keystroke_i	i	n/a
587.039	0.075	1174078	keystroke_t	t	n/a
587.219	0.1055	1174438	keystroke_Key.space	Key.space	n/a
587.4295	0.075	1174859	keystroke_m	m	n/a
587.5645	0.045	1175129	keystroke_a	a	n/a
588.1645	0.075	1176329	keystroke_l	l	n/a
588.2695	0.15	1176539	keystroke_e	e	n/a
588.4045	0.075	1176809	keystroke_s	s	n/a
588.5395	0.12	1177079	keystroke_Key.space	Key.space	n/a
588.7495	0.0895	1177499	keystroke_e	e	n/a
590.099	0.0595	1180198	keystroke_x	x	n/a
590.549	0.075	1181098	keystroke_c	c	n/a
590.684	0.0905	1181368	keystroke_l	l	n/a
590.849	0.12	1181698	keystroke_u	u	n/a
590.984	0.075	1181968	keystroke_s	s	n/a
591.089	0.135	1182178	keystroke_i	i	n/a
591.179	0.15	1182358	keystroke_o	o	n/a
591.299	0.165	1182598	keystroke_n	n	n/a
591.449	0.105	1182898	keystroke_Key.space	Key.space	n/a
591.629	0.09	1183258	keystroke_p	p	n/a
591.854	0.0905	1183708	keystroke_h	h	n/a
592.004	0.0605	1184008	keystroke_a	a	n/a
592.109	0.105	1184218	keystroke_n	n	n/a
592.6195	0.075	1185239	keystroke_t	t	n/a
592.754	0.12	1185508	keystroke_o	o	n/a
592.859	0.0905	1185718	keystroke_n	n	n/a
594.104	0.0595	1188208	keystroke_Key.backspace	Key.backspace	n/a
594.4485	0.075	1188897	keystroke_m	m	n/a
594.6585	0.0605	1189317	keystroke_Key.enter	Key.enter	n/a
594.724	19.3615	1189448	prompt	n/a	saves substantial excuse indonesian\n
595.5895	0.074	1191179	keystroke_s	s	n/a
595.7385	0.0905	1191477	keystroke_a	a	n/a
595.9185	0.12	1191837	keystroke_v	v	n/a
596.0695	0.119	1192139	keystroke_e	e	n/a
596.1735	0.091	1192347	keystroke_s	s	n/a
596.279	0.1195	1192558	keystroke_Key.space	Key.space	n/a
596.4135	0.106	1192827	keystroke_s	s	n/a
596.5935	0.0755	1193187	keystroke_u	u	n/a
597.7635	0.0755	1195527	keystroke_b	b	n/a
597.899	0.0895	1195798	keystroke_s	s	n/a
598.0785	0.091	1196157	keystroke_t	t	n/a
598.1835	0.1205	1196367	keystroke_a	a	n/a
603.7665	0.013	1207533	keystroke_b	b	n/a
603.8845	0.1195	1207769	keystroke_t	t	n/a
604.0345	0.09	1208069	keystroke_a	a	n/a
604.14	0.0895	1208280	keystroke_i	i	n/a
604.679	0.0605	1209358	keystroke_Key.backspace	Key.backspace	n/a
604.829	0.0455	1209658	keystroke_Key.backspace	Key.backspace	n/a
604.949	0.06	1209898	keystroke_Key.backspace	Key.backspace	n/a
605.4295	0.059	1210859	keystroke_Key.backspace	Key.backspace	n/a
606.3445	0.075	1212689	keystroke_n	n	n/a
606.479	0.0905	1212958	keystroke_t	t	n/a
606.5995	0.09	1213199	keystroke_i	i	n/a
606.719	0.09	1213438	keystroke_a	a	n/a
606.854	0.1205	1213708	keystroke_l	l	n/a
607.019	0.1205	1214038	keystroke_Key.space	Key.space	n/a
608.609	0.075	1217218	keystroke_e	e	n/a
608.879	0.0605	1217758	keystroke_x	x	n/a
609.029	0.15	1218058	keystroke_c	c	n/a
609.2385	0.076	1218477	keystroke_u	u	n/a
609.3585	0.1655	1218717	keystroke_s	s	n/a
609.4935	0.09	1218987	keystroke_e	e	n/a
609.6135	0.165	1219227	keystroke_Key.space	Key.space	n/a
609.9135	0.1065	1219827	keystroke_i	i	n/a
610.0945	0.105	1220189	keystroke_n	n	n/a
610.2585	0.105	1220517	keystroke_d	d	n/a
610.3785	0.121	1220757	keystroke_o	o	n/a
610.7245	0.075	1221449	keystroke_n	n	n/a
610.904	0.0605	1221808	keystroke_e	e	n/a
611.8945	0.0445	1223789	keystroke_s	s	n/a
611.9835	0.091	1223967	keystroke_i	i	n/a
612.1195	0.0595	1224239	keystroke_a	a	n/a
613.7995	0.1045	1227599	keystroke_n	n	n/a
614.024	0.06	1228048	keystroke_Key.enter	Key.enter	n/a
614.089	18.597	1228178	prompt	n/a	bend casinos pathology answered\n
616.1705	0.001	1232341	keystroke_b	b	n/a
616.5295	0.075	1233059	keystroke_e	e	n/a
616.6935	0.106	1233387	keystroke_n	n	n/a
616.8445	0.0755	1233689	keystroke_d	d	n/a
616.9785	0.121	1233957	keystroke_Key.space	Key.space	n/a
617.2185	0.091	1234437	keystroke_c	c	n/a
617.3535	0.091	1234707	keystroke_a	a	n/a
617.5945	0.1345	1235189	keystroke_s	s	n/a
617.879	0.075	1235758	keystroke_i	i	n/a
618.4645	0.105	1236929	keystroke_n	n	n/a
618.599	0.09	1237198	keystroke_o	o	n/a
618.8395	0.0895	1237679	keystroke_s	s	n/a
618.9895	0.105	1237979	keystroke_Key.space	Key.space	n/a
619.1245	0.1345	1238249	keystroke_p	p	n/a
619.304	0.105	1238608	keystroke_a	a	n/a
619.905	0.0895	1239810	keystroke_t	t	n/a
620.0095	0.1645	1240019	keystroke_h	h	n/a
620.159	0.105	1240318	keystroke_i	i	n/a
621.419	0.0745	1242838	keystroke_Key.backspace	Key.backspace	n/a
621.9295	0.06	1243859	keystroke_l	l	n/a
622.3645	0.089	1244729	keystroke_Key.backspace	Key.backspace	n/a
623.339	0.06	1246678	keystroke_o	o	n/a
623.579	0.06	1247158	keystroke_l	l	n/a
623.7745	0.075	1247549	keystroke_o	o	n/a
624.0145	0.0595	1248029	keystroke_g	g	n/a
624.6135	0.091	1249227	keystroke_y	y	n/a
624.6435	0.15	1249287	keystroke_Key.space	Key.space	n/a
624.9585	0.196	1249917	keystroke_Key.caps_lock	Key.caps_lock	n/a
625.7245	0.074	1251449	keystroke_Key.caps_lock	Key.caps_lock	n/a
627.0295	0.12	1254059	keystroke_a	a	n/a
627.1945	0.09	1254389	keystroke_b	b	n/a
627.4195	0.06	1254839	keystroke_s	s	n/a
627.6445	0.12	1255289	keystroke_w	w	n/a
628.334	0.0605	1256668	keystroke_Key.backspace	Key.backspace	n/a
628.4685	0.0605	1256937	keystroke_Key.backspace	Key.backspace	n/a
628.6185	0.045	1257237	keystroke_Key.backspace	Key.backspace	n/a
629.384	0.0745	1258768	keystroke_n	n	n/a
629.5945	0.0755	1259189	keystroke_s	s	n/a
630.464	0.1055	1260928	keystroke_w	w	n/a
631.5445	0.1195	1263089	keystroke_e	e	n/a
631.7245	0.12	1263449	keystroke_r	r	n/a
631.979	0.105	1263958	keystroke_e	e	n/a
632.2045	0.09	1264409	keystroke_d	d	n/a
632.6395	0.0445	1265279	keystroke_Key.enter	Key.enter	n/a
632.69	6.4605	1265380	prompt	n/a	beliefs ottawa retired readers\n
633.389	0.0755	1266778	keystroke_b	b	n/a
633.509	0.075	1267018	keystroke_e	e	n/a
633.644	0.12	1267288	keystroke_l	l	n/a
633.779	0.075	1267558	keystroke_i	i	n/a
633.869	0.15	1267738	keystroke_e	e	n/a
634.0495	0.0895	1268099	keystroke_f	f	n/a
634.2895	0.0745	1268579	keystroke_s	s	n/a
634.439	0.1195	1268878	keystroke_Key.space	Key.space	n/a
634.6935	0.076	1269387	keystroke_o	o	n/a
634.9195	0.044	1269839	keystroke_t	t	n/a
635.0395	0.089	1270079	keystroke_t	t	n/a
635.489	0.0305	1270978	keystroke_a	a	n/a
635.7445	0.105	1271489	keystroke_w	w	n/a
635.8785	0.075	1271757	keystroke_a	a	n/a
636.3895	0.1195	1272779	keystroke_Key.space	Key.space	n/a
636.719	0.135	1273438	keystroke_r	r	n/a
636.855	0.105	1273710	keystroke_e	e	n/a
637.034	0.0905	1274068	keystroke_t	t	n/a
637.1395	0.105	1274279	keystroke_i	i	n/a
637.259	0.135	1274518	keystroke_r	r	n/a
637.364	0.09	1274728	keystroke_e	e	n/a
637.544	0.0755	1275088	keystroke_d	d	n/a
637.6345	0.1045	1275269	keystroke_Key.space	Key.space	n/a
637.769	0.1345	1275538	keystroke_r	r	n/a
637.874	0.1045	1275748	keystroke_e	e	n/a
637.9485	0.105	1275897	keystroke_a	a	n/a
638.1285	0.091	1276257	keystroke_d	d	n/a
638.609	0.135	1277218	keystroke_e	e	n/a
638.6985	0.091	1277397	keystroke_r	r	n/a
638.8335	0.09	1277667	keystroke_s	s	n/a
639.089	0.06	1278178	keystroke_Key.enter	Key.enter	n/a
639.155	13.1205	1278310	prompt	n/a	weight hydrocodone negotiation exit\n
640.499	0.075	1280998	keystroke_w	w	n/a
640.619	0.105	1281238	keystroke_i	i	n/a
640.739	0.09	1281478	keystroke_g	g	n/a
640.844	0.1205	1281688	keystroke_h	h	n/a
640.994	0.106	1281988	keystroke_t	t	n/a
641.129	0.12	1282258	keystroke_Key.space	Key.space	n/a
641.4745	0.075	1282949	keystroke_h	h	n/a
642.674	0.0745	1285348	keystroke_y	y	n/a
642.9135	0.09	1285827	keystroke_d	d	n/a
644.0535	0.075	1288107	keystroke_r	r	n/a
644.234	0.09	1288468	keystroke_o	o	n/a
644.4595	0.075	1288919	keystroke_c	c	n/a
644.624	0.105	1289248	keystroke_o	o	n/a
645.149	0.075	1290298	keystroke_d	d	n/a
645.2995	0.195	1290599	keystroke_o	o	n/a
645.4795	0.12	1290959	keystroke_n	n	n/a
645.6445	0.06	1291289	keystroke_e	e	n/a
645.8995	0.12	1291799	keystroke_Key.space	Key.space	n/a
646.949	0.105	1293898	keystroke_n	n	n/a
647.055	0.089	1294110	keystroke_e	e	n/a
647.219	0.105	1294438	keystroke_g	g	n/a
647.339	0.12	1294678	keystroke_o	o	n/a
648.299	0.075	1296598	keystroke_t	t	n/a
648.479	0.09	1296958	keystroke_i	i	n/a
648.629	0.105	1297258	keystroke_a	a	n/a
648.779	0.09	1297558	keystroke_t	t	n/a
648.884	0.12	1297768	keystroke_i	i	n/a
649.019	0.15	1298038	keystroke_o	o	n/a
649.154	0.195	1298308	keystroke_n	n	n/a
649.334	0.12	1298668	keystroke_Key.space	Key.space	n/a
649.994	0.075	1299988	keystroke_e	e	n/a
650.3695	0.059	1300739	keystroke_x	x	n/a
651.884	0.0755	1303768	keystroke_i	i	n/a
652.004	0.075	1304008	keystroke_t	t	n/a
652.199	0.0745	1304398	keystroke_Key.enter	Key.enter	n/a
652.2805	9.13	1304561	prompt	n/a	damage grows identifier mess\n
652.9645	0.0895	1305929	keystroke_d	d	n/a
653.129	0.075	1306258	keystroke_a	a	n/a
653.549	0.06	1307098	keystroke_m	m	n/a
653.669	0.09	1307338	keystroke_a	a	n/a
653.774	0.075	1307548	keystroke_g	g	n/a
653.984	0.06	1307968	keystroke_e	e	n/a
654.119	0.1045	1308238	keystroke_Key.space	Key.space	n/a
654.974	0.0745	1309948	keystroke_g	g	n/a
655.2145	0.0745	1310429	keystroke_r	r	n/a
655.439	0.09	1310878	keystroke_o	o	n/a
655.559	0.075	1311118	keystroke_w	w	n/a
655.7835	0.0905	1311567	keystroke_s	s	n/a
655.994	0.1045	1311988	keystroke_Key.space	Key.space	n/a
656.4285	0.06	1312857	keystroke_i	i	n/a
656.5635	0.0605	1313127	keystroke_d	d	n/a
656.7135	0.0755	1313427	keystroke_e	e	n/a
656.804	0.1045	1313608	keystroke_n	n	n/a
656.9385	0.0905	1313877	keystroke_t	t	n/a
657.0585	0.1055	1314117	keystroke_i	i	n/a
657.224	0.1045	1314448	keystroke_f	f	n/a
657.4035	0.105	1314807	keystroke_i	i	n/a
657.5385	0.09	1315077	keystroke_e	e	n/a
657.9735	0.0455	1315947	keystroke_r	r	n/a
658.139	0.0595	1316278	keystroke_s	s	n/a
659.7135	0.09	1319427	keystroke_Key.backspace	Key.backspace	n/a
660.539	0.135	1321078	keystroke_Key.space	Key.space	n/a
660.674	0.12	1321348	keystroke_m	m	n/a
660.7945	0.0895	1321589	keystroke_e	e	n/a
660.974	0.075	1321948	keystroke_s	s	n/a
661.1395	0.0595	1322279	keystroke_s	s	n/a
661.319	0.09	1322638	keystroke_Key.enter	Key.enter	n/a
661.414	11.637	1322828	prompt	n/a	molecules calculator risks o'clock\n
662.1145	0.1045	1324229	keystroke_m	m	n/a
662.339	0.06	1324678	keystroke_o	o	n/a
662.534	0.09	1325068	keystroke_l	l	n/a
662.639	0.06	1325278	keystroke_e	e	n/a
662.849	0.135	1325698	keystroke_c	c	n/a
662.954	0.09	1325908	keystroke_u	u	n/a
