onset	duration	sample	value	key	prompt_text
1.505	11.1245	3010	prompt	n/a	the quick brown fox jumps over a lazy dog\n
4.7415	0.0285	9483	keystroke_t	t	n/a
4.8455	0.0745	9691	keystroke_h	h	n/a
4.935	0.075	9870	keystroke_e	e	n/a
5.1	0.075	10200	keystroke_Key.space	Key.space	n/a
5.31	0.105	10620	keystroke_q	q	n/a
5.4605	0.0745	10921	keystroke_u	u	n/a
5.6555	0.059	11311	keystroke_i	i	n/a
5.82	0.1055	11640	keystroke_c	c	n/a
5.8945	0.061	11789	keystroke_k	k	n/a
6.0595	0.1055	12119	keystroke_Key.space	Key.space	n/a
6.27	0.0755	12540	keystroke_b	b	n/a
6.3895	0.0855	12779	keystroke_r	r	n/a
6.5195	0.1045	13039	keystroke_o	o	n/a
6.6845	0.075	13369	keystroke_w	w	n/a
6.775	0.09	13550	keystroke_n	n	n/a
6.9845	0.0755	13969	keystroke_Key.space	Key.space	n/a
7.33	0.0595	14660	keystroke_f	f	n/a
7.511	0.075	15022	keystroke_o	o	n/a
7.7515	0.12	15503	keystroke_x	x	n/a
7.916	0.09	15832	keystroke_Key.space	Key.space	n/a
8.171	0.06	16342	keystroke_j	j	n/a
8.3515	0.0745	16703	keystroke_u	u	n/a
8.546	0.105	17092	keystroke_m	m	n/a
8.741	0.105	17482	keystroke_p	p	n/a
8.891	0.12	17782	keystroke_s	s	n/a
9.071	0.105	18142	keystroke_Key.space	Key.space	n/a
10.181	0.105	20362	keystroke_o	o	n/a
10.3015	0.075	20603	keystroke_v	v	n/a
10.481	0.15	20962	keystroke_e	e	n/a
10.586	0.076	21172	keystroke_r	r	n/a
10.662	0.0895	21324	keystroke_Key.space	Key.space	n/a
10.796	0.1055	21592	keystroke_a	a	n/a
10.9165	0.0595	21833	keystroke_Key.space	Key.space	n/a
11.111	0.1055	22222	keystroke_l	l	n/a
11.2465	0.089	22493	keystroke_a	a	n/a
11.4705	0.121	22941	keystroke_z	z	n/a
11.606	0.0905	23212	keystroke_y	y	n/a
11.831	0.105	23662	keystroke_Key.space	Key.space	n/a
11.981	0.1355	23962	keystroke_d	d	n/a
12.131	0.1055	24262	keystroke_o	o	n/a
12.311	0.105	24622	keystroke_g	g	n/a
12.536	0.09	25072	keystroke_Key.enter	Key.enter	n/a
12.635	10.5685	25270	prompt	n/a	passport components newsletters loving\n
13.391	0.105	26782	keystroke_p	p	n/a
13.5105	0.1505	27021	keystroke_a	a	n/a
13.7515	0.03	27503	keystroke_s	s	n/a
13.8865	0.1355	27773	keystroke_s	s	n/a
14.036	0.1345	28072	keystroke_p	p	n/a
14.111	0.1495	28222	keystroke_o	o	n/a
14.2765	0.044	28553	keystroke_r	r	n/a
14.456	0.06	28912	keystroke_t	t	n/a
14.6215	0.0895	29243	keystroke_Key.space	Key.space	n/a
14.8765	0.075	29753	keystroke_c	c	n/a
14.981	0.0905	29962	keystroke_o	o	n/a
15.191	0.1055	30382	keystroke_m	m	n/a
15.4015	0.1045	30803	keystroke_p	p	n/a
15.6715	0.0895	31343	keystroke_o	o	n/a
16.1965	0.105	32393	keystroke_n	n	n/a
16.3615	0.1195	32723	keystroke_e	e	n/a
16.661	0.0905	33322	keystroke_n	n	n/a
16.856	0.075	33712	keystroke_t	t	n/a
17.111	0.1205	34222	keystroke_s	s	n/a
17.2015	0.089	34403	keystroke_Key.space	Key.space	n/a
17.4265	0.1045	34853	keystroke_n	n	n/a
17.4865	0.105	34973	keystroke_e	e	n/a
17.681	0.0905	35362	keystroke_w	w	n/a
17.906	0.1205	35812	keystroke_s	s	n/a
18.086	0.1355	36172	keystroke_l	l	n/a
18.236	0.105	36472	keystroke_e	e	n/a
18.416	0.0755	36832	keystroke_t	t	n/a
18.596	0.075	37192	keystroke_t	t	n/a
18.7465	0.1345	37493	keystroke_e	e	n/a
18.8665	0.075	37733	keystroke_r	r	n/a
19.046	0.135	38092	keystroke_s	s	n/a
19.1965	0.089	38393	keystroke_Key.space	Key.space	n/a
19.4665	0.0745	38933	keystroke_l	l	n/a
19.661	0.075	39322	keystroke_o	o	n/a
19.781	0.1205	39562	keystroke_v	v	n/a
19.931	0.165	39862	keystroke_i	i	n/a
20.0515	0.1495	40103	keystroke_n	n	n/a
20.156	0.12	40312	keystroke_g	g	n/a
23.128	0.0735	46256	keystroke_Key.enter	Key.enter	n/a
23.208	6.4905	46416	prompt	n/a	discounted were indie burner\n
24.236	0.0905	48472	keystroke_d	d	n/a
24.4165	0.1195	48833	keystroke_i	i	n/a
24.537	0.0895	49074	keystroke_s	s	n/a
24.7155	0.1665	49431	keystroke_c	c	n/a
24.836	0.255	49672	keystroke_o	o	n/a
24.9415	0.21	49883	keystroke_u	u	n/a
25.0765	0.165	50153	keystroke_n	n	n/a
25.1665	0.09	50333	keystroke_t	t	n/a
25.3915	0.075	50783	keystroke_e	e	n/a
25.617	0.089	51234	keystroke_d	d	n/a
25.736	0.1205	51472	keystroke_Key.space	Key.space	n/a
25.872	0.0745	51744	keystroke_w	w	n/a
26.0665	0.1645	52133	keystroke_e	e	n/a
26.1865	0.15	52373	keystroke_r	r	n/a
26.3215	0.105	52643	keystroke_e	e	n/a
26.9665	0.06	53933	keystroke_Key.space	Key.space	n/a
27.221	0.0755	54442	keystroke_i	i	n/a
27.582	0.104	55164	keystroke_n	n	n/a
27.8365	0.1205	55673	keystroke_d	d	n/a
28.031	0.105	56062	keystroke_i	i	n/a
28.152	0.1045	56304	keystroke_e	e	n/a
28.496	0.1055	56992	keystroke_Key.space	Key.space	n/a
28.7515	0.075	57503	keystroke_b	b	n/a
28.9015	0.1055	57803	keystroke_u	u	n/a
29.0215	0.075	58043	keystroke_r	r	n/a
29.141	0.1055	58282	keystroke_n	n	n/a
29.2765	0.195	58553	keystroke_e	e	n/a
29.411	0.105	58822	keystroke_r	r	n/a
29.5765	0.1195	59153	keystroke_Key.enter	Key.enter	n/a
29.703	12.2665	59406	prompt	n/a	hitting username adelaide hired\n
31.1965	0.105	62393	keystroke_h	h	n/a
31.4065	0.075	62813	keystroke_i	i	n/a
31.5115	0.075	63023	keystroke_t	t	n/a
31.6605	0.091	63321	keystroke_t	t	n/a
31.767	0.164	63534	keystroke_i	i	n/a
31.841	0.1355	63682	keystroke_n	n	n/a
31.991	0.075	63982	keystroke_g	g	n/a
32.1265	0.12	64253	keystroke_Key.space	Key.space	n/a
32.4265	0.1195	64853	keystroke_u	u	n/a
32.561	0.0905	65122	keystroke_s	s	n/a
32.7865	0.15	65573	keystroke_e	e	n/a
32.891	0.1205	65782	keystroke_r	r	n/a
33.0265	0.1045	66053	keystroke_n	n	n/a
33.2065	0.1355	66413	keystroke_a	a	n/a
33.342	0.104	66684	keystroke_m	m	n/a
33.4765	0.1045	66953	keystroke_e	e	n/a
33.6115	0.1045	67223	keystroke_Key.space	Key.space	n/a
36.433	0.0435	72866	keystroke_a	a	n/a
36.551	0.106	73102	keystroke_d	d	n/a
36.732	0.1035	73464	keystroke_e	e	n/a
36.866	0.105	73732	keystroke_l	l	n/a
37.017	0.119	74034	keystroke_a	a	n/a
37.182	0.09	74364	keystroke_i	i	n/a
37.287	0.104	74574	keystroke_d	d	n/a
37.511	0.076	75022	keystroke_e	e	n/a
38.606	0.105	77212	keystroke_Key.space	Key.space	n/a
41.0075	0.014	82015	keystroke_h	h	n/a
41.1265	0.105	82253	keystroke_i	i	n/a
41.2615	0.15	82523	keystroke_r	r	n/a
41.3815	0.12	82763	keystroke_e	e	n/a
41.6065	0.105	83213	keystroke_d	d	n/a
41.8465	0.12	83693	keystroke_Key.enter	Key.enter	n/a
41.9745	12.279	83949	prompt	n/a	tomorrow incorporate fees abandoned\n
47.5035	0.013	95007	keystroke_t	t	n/a
47.7565	0.105	95513	keystroke_o	o	n/a
47.9215	0.105	95843	keystroke_m	m	n/a
48.1015	0.105	96203	keystroke_o	o	n/a
48.222	0.0595	96444	keystroke_r	r	n/a
48.372	0.0895	96744	keystroke_r	r	n/a
48.4765	0.1055	96953	keystroke_o	o	n/a
48.597	0.0745	97194	keystroke_w	w	n/a
48.7315	0.1055	97463	keystroke_Key.space	Key.space	n/a
49.0015	0.075	98003	keystroke_i	i	n/a
49.1965	0.0905	98393	keystroke_n	n	n/a
49.3165	0.1205	98633	keystroke_c	c	n/a
49.4815	0.0905	98963	keystroke_o	o	n/a
49.722	0.1045	99444	keystroke_r	r	n/a
50.172	0.09	100344	keystroke_p	p	n/a
50.3515	0.1055	100703	keystroke_o	o	n/a
50.472	0.1045	100944	keystroke_r	r	n/a
50.682	0.18	101364	keystroke_a	a	n/a
50.8765	0.12	101753	keystroke_t	t	n/a
50.9815	0.1055	101963	keystroke_e	e	n/a
51.1315	0.1055	102263	keystroke_Key.space	Key.space	n/a
51.4015	0.075	102803	keystroke_f	f	n/a
51.597	0.075	103194	keystroke_e	e	n/a
51.7315	0.12	103463	keystroke_e	e	n/a
51.972	0.12	103944	keystroke_s	s	n/a
52.151	0.106	104302	keystroke_Key.space	Key.space	n/a
52.422	0.105	104844	keystroke_a	a	n/a
52.662	0.075	105324	keystroke_b	b	n/a
52.812	0.135	105624	keystroke_a	a	n/a
53.067	0.105	106134	keystroke_n	n	n/a
53.2465	0.1655	106493	keystroke_d	d	n/a
53.397	0.075	106794	keystroke_o	o	n/a
53.607	0.1195	107214	keystroke_n	n	n/a
53.757	0.09	107514	keystroke_e	e	n/a
53.9665	0.1055	107933	keystroke_d	d	n/a
54.1465	0.105	108293	keystroke_Key.enter	Key.enter	n/a
54.258	8.846	108516	prompt	n/a	marion attribute adjacent where've\n
55.167	0.074	110334	keystroke_m	m	n/a
55.2565	0.135	110513	keystroke_a	a	n/a
55.422	0.09	110844	keystroke_r	r	n/a
55.557	0.1945	111114	keystroke_i	i	n/a
55.692	0.1345	111384	keystroke_o	o	n/a
55.887	0.1195	111774	keystroke_n	n	n/a
56.322	0.104	112644	keystroke_Key.space	Key.space	n/a
56.517	0.105	113034	keystroke_a	a	n/a
56.787	0.075	113574	keystroke_t	t	n/a
56.967	0.045	113934	keystroke_t	t	n/a
57.132	0.06	114264	keystroke_r	r	n/a
57.327	0.1195	114654	keystroke_i	i	n/a
57.717	0.0745	115434	keystroke_b	b	n/a
57.942	0.1195	115884	keystroke_u	u	n/a
58.0465	0.105	116093	keystroke_t	t	n/a
58.2865	0.1055	116573	keystroke_e	e	n/a
58.4065	0.135	116813	keystroke_Key.space	Key.space	n/a
58.812	0.09	117624	keystroke_a	a	n/a
59.022	0.12	118044	keystroke_d	d	n/a
59.292	0.1055	118584	keystroke_j	j	n/a
59.472	0.1045	118944	keystroke_a	a	n/a
59.742	0.075	119484	keystroke_c	c	n/a
59.967	0.12	119934	keystroke_e	e	n/a
60.072	0.12	120144	keystroke_n	n	n/a
60.177	0.105	120354	keystroke_t	t	n/a
60.357	0.104	120714	keystroke_Key.space	Key.space	n/a
60.552	0.1345	121104	keystroke_w	w	n/a
60.702	0.1345	121404	keystroke_h	h	n/a
60.807	0.15	121614	keystroke_e	e	n/a
60.927	0.15	121854	keystroke_r	r	n/a
61.061	0.091	122122	keystroke_e	e	n/a
62.2765	0.12	124553	keystroke_'	'	n/a
62.6515	0.06	125303	keystroke_v	v	n/a
62.8325	0.104	125665	keystroke_e	e	n/a
63.012	0.09	126024	keystroke_Key.enter	Key.enter	n/a
63.1095	10.4645	126219	prompt	n/a	fabulous societies dealtime class\n
64.152	0.106	128304	keystroke_f	f	n/a
64.3175	0.1195	128635	keystroke_a	a	n/a
64.8415	0.0905	129683	keystroke_b	b	n/a
65.0975	0.0745	130195	keystroke_u	u	n/a
66.207	0.21	132414	keystroke_o	o	n/a
66.327	0.15	132654	keystroke_u	u	n/a
66.867	0.075	133734	keystroke_Key.backspace	Key.backspace	n/a
67.032	0.075	134064	keystroke_Key.backspace	Key.backspace	n/a
67.362	0.135	134724	keystroke_l	l	n/a
67.647	0.18	135294	keystroke_o	o	n/a
67.7525	0.1495	135505	keystroke_u	u	n/a
67.9465	0.1055	135893	keystroke_s	s	n/a
68.112	0.12	136224	keystroke_Key.space	Key.space	n/a
68.4115	0.136	136823	keystroke_s	s	n/a
68.5915	0.1045	137183	keystroke_o	o	n/a
68.757	0.105	137514	keystroke_c	c	n/a
68.892	0.09	137784	keystroke_i	i	n/a
69.0115	0.12	138023	keystroke_e	e	n/a
69.2515	0.075	138503	keystroke_t	t	n/a
69.4315	0.105	138863	keystroke_i	i	n/a
69.492	0.1045	138984	keystroke_e	e	n/a
69.747	0.1195	139494	keystroke_s	s	n/a
69.881	0.091	139762	keystroke_Key.space	Key.space	n/a
70.8125	0.0745	141625	keystroke_d	d	n/a
71.0065	0.091	142013	keystroke_e	e	n/a
71.172	0.1345	142344	keystroke_a	a	n/a
71.412	0.1195	142824	keystroke_l	l	n/a
71.8475	0.0745	143695	keystroke_t	t	n/a
71.997	0.1055	143994	keystroke_i	i	n/a
72.1615	0.12	144323	keystroke_m	m	n/a
72.267	0.105	144534	keystroke_e	e	n/a
72.4315	0.12	144863	keystroke_Key.space	Key.space	n/a
72.6265	0.1355	145253	keystroke_c	c	n/a
72.837	0.1195	145674	keystroke_l	l	n/a
72.942	0.1505	145884	keystroke_a	a	n/a
73.0775	0.1195	146155	keystroke_s	s	n/a
73.287	0.1195	146574	keystroke_s	s	n/a
73.4515	0.12	146903	keystroke_Key.enter	Key.enter	n/a
73.5775	8.367	147155	prompt	n/a	deborah overcome league ebooks\n
74.772	0.12	149544	keystroke_d	d	n/a
75.012	0.105	150024	keystroke_e	e	n/a
75.252	0.105	150504	keystroke_b	b	n/a
75.432	0.12	150864	keystroke_o	o	n/a
75.537	0.09	151074	keystroke_r	r	n/a
75.7625	0.1045	151525	keystroke_a	a	n/a
75.852	0.12	151704	keystroke_h	h	n/a
76.092	0.135	152184	keystroke_Key.space	Key.space	n/a
76.737	0.1055	153474	keystroke_o	o	n/a
77.622	0.09	155244	keystroke_v	v	n/a
77.847	0.18	155694	keystroke_e	e	n/a
77.967	0.12	155934	keystroke_r	r	n/a
78.237	0.1045	156474	keystroke_c	c	n/a
78.447	0.15	156894	keystroke_o	o	n/a
78.552	0.165	157104	keystroke_m	m	n/a
78.687	0.12	157374	keystroke_e	e	n/a
78.867	0.105	157734	keystroke_Key.space	Key.space	n/a
79.152	0.045	158304	keystroke_l	l	n/a
79.182	0.105	158364	keystroke_e	e	n/a
79.302	0.135	158604	keystroke_a	a	n/a
79.527	0.105	159054	keystroke_g	g	n/a
79.9015	0.075	159803	keystroke_u	u	n/a
80.007	0.1195	160014	keystroke_e	e	n/a
80.2615	0.1055	160523	keystroke_Key.space	Key.space	n/a
80.6075	0.1045	161215	keystroke_e	e	n/a
80.847	0.12	161694	keystroke_b	b	n/a
81.132	0.0445	162264	keystroke_o	o	n/a
81.282	0.1045	162564	keystroke_o	o	n/a
81.492	0.0895	162984	keystroke_k	k	n/a
81.642	0.135	163284	keystroke_s	s	n/a
81.821	0.121	163642	keystroke_Key.enter	Key.enter	n/a
81.948	10.871	163896	prompt	n/a	commented oxygen experiencing fifteen\n
82.797	0.135	165594	keystroke_c	c	n/a
82.977	0.09	165954	keystroke_o	o	n/a
83.142	0.09	166284	keystroke_m	m	n/a
83.337	0.105	166674	keystroke_m	m	n/a
83.412	0.135	166824	keystroke_e	e	n/a
83.592	0.135	167184	keystroke_n	n	n/a
83.682	0.135	167364	keystroke_t	t	n/a
83.847	0.12	167694	keystroke_e	e	n/a
84.072	0.105	168144	keystroke_d	d	n/a
84.251	0.106	168502	keystroke_Key.space	Key.space	n/a
84.402	0.105	168804	keystroke_e	e	n/a
85.362	0.0895	170724	keystroke_Key.backspace	Key.backspace	n/a
86.142	0.09	172284	keystroke_o	o	n/a
86.637	0.1645	173274	keystroke_x	x	n/a
86.967	0.1045	173934	keystroke_y	y	n/a
87.3115	0.0755	174623	keystroke_g	g	n/a
87.447	0.135	174894	keystroke_e	e	n/a
87.597	0.1055	175194	keystroke_n	n	n/a
87.8515	0.105	175703	keystroke_Key.space	Key.space	n/a
88.392	0.105	176784	keystroke_e	e	n/a
88.707	0.135	177414	keystroke_x	x	n/a
88.902	0.135	177804	keystroke_p	p	n/a
89.052	0.1495	178104	keystroke_e	e	n/a
89.187	0.1195	178374	keystroke_r	r	n/a
90.042	0.0895	180084	keystroke_i	i	n/a
90.1465	0.135	180293	keystroke_e	e	n/a
90.267	0.12	180534	keystroke_n	n	n/a
90.4165	0.1505	180833	keystroke_c	c	n/a
90.6875	0.164	181375	keystroke_i	i	n/a
90.8065	0.1355	181613	keystroke_n	n	n/a
90.9715	0.09	181943	keystroke_g	g	n/a
91.1665	0.105	182333	keystroke_Key.space	Key.space	n/a
91.632	0.0745	183264	keystroke_f	f	n/a
91.782	0.1205	183564	keystroke_i	i	n/a
91.9175	0.0595	183835	keystroke_f	f	n/a
92.112	0.09	184224	keystroke_t	t	n/a
92.322	0.045	184644	keystroke_e	e	n/a
92.442	0.12	184884	keystroke_e	e	n/a
92.532	0.1055	185064	keystroke_n	n	n/a
92.726	0.0905	185452	keystroke_Key.enter	Key.enter	n/a
92.822	8.1865	185644	prompt	n/a	instance shuttle wizard disable\n
93.687	0.0595	187374	keystroke_i	i	n/a
93.8215	0.15	187643	keystroke_n	n	n/a
93.9265	0.15	187853	keystroke_s	s	n/a
94.182	0.0745	188364	keystroke_t	t	n/a
94.317	0.1345	188634	keystroke_a	a	n/a
94.467	0.12	188934	keystroke_n	n	n/a
94.587	0.195	189174	keystroke_c	c	n/a
94.767	0.1205	189534	keystroke_e	e	n/a
94.917	0.12	189834	keystroke_Key.space	Key.space	n/a
95.4565	0.1355	190913	keystroke_s	s	n/a
95.682	0.0895	191364	keystroke_h	h	n/a
95.832	0.135	191664	keystroke_u	u	n/a
95.952	0.075	191904	keystroke_t	t	n/a
96.132	0.0745	192264	keystroke_t	t	n/a
96.3275	0.044	192655	keystroke_l	l	n/a
96.4015	0.12	192803	keystroke_e	e	n/a
96.5965	0.1355	193193	keystroke_Key.space	Key.space	n/a
97.317	0.105	194634	keystroke_w	w	n/a
97.497	0.045	194994	keystroke_i	i	n/a
97.857	0.12	195714	keystroke_z	z	n/a
98.112	0.1345	196224	keystroke_a	a	n/a
98.4715	0.09	196943	keystroke_r	r	n/a
98.7265	0.12	197453	keystroke_d	d	n/a
99.0265	0.1355	198053	keystroke_Key.space	Key.space	n/a
99.852	0.089	199704	keystroke_d	d	n/a
100.0015	0.12	200003	keystroke_i	i	n/a
100.0925	0.104	200185	keystroke_s	s	n/a
100.2865	0.12	200573	keystroke_a	a	n/a
100.392	0.09	200784	keystroke_b	b	n/a
100.5875	0.134	201175	keystroke_l	l	n/a
100.7375	0.09	201475	keystroke_e	e	n/a
100.9015	0.1055	201803	keystroke_Key.enter	Key.enter	n/a
101.0125	6.9565	202025	prompt	n/a	credits appraisal bone species\n
101.9675	0.0895	203935	keystroke_c	c	n/a
102.207	0.1645	204414	keystroke_r	r	n/a
102.312	0.1055	204624	keystroke_e	e	n/a
102.5515	0.12	205103	keystroke_d	d	n/a
102.6565	0.12	205313	keystroke_i	i	n/a
102.8215	0.0905	205643	keystroke_t	t	n/a
103.092	0.09	206184	keystroke_s	s	n/a
103.3315	0.1355	206663	keystroke_Key.space	Key.space	n/a
103.5565	0.0905	207113	keystroke_a	a	n/a
103.707	0.0895	207414	keystroke_p	p	n/a
103.9175	0.059	207835	keystroke_p	p	n/a
103.9915	0.09	207983	keystroke_r	r	n/a
104.187	0.09	208374	keystroke_a	a	n/a
104.337	0.12	208674	keystroke_i	i	n/a
104.472	0.15	208944	keystroke_s	s	n/a
105.132	0.0895	210264	keystroke_a	a	n/a
105.282	0.1045	210564	keystroke_l	l	n/a
105.506	0.1205	211012	keystroke_Key.space	Key.space	n/a
105.7765	0.1055	211553	keystroke_b	b	n/a
106.0015	0.075	212003	keystroke_o	o	n/a
106.1965	0.0905	212393	keystroke_n	n	n/a
106.3015	0.12	212603	keystroke_e	e	n/a
106.437	0.1045	212874	keystroke_Key.space	Key.space	n/a
106.812	0.135	213624	keystroke_s	s	n/a
106.9625	0.1195	213925	keystroke_p	p	n/a
107.067	0.075	214134	keystroke_e	e	n/a
107.232	0.1195	214464	keystroke_c	c	n/a
107.3815	0.106	214763	keystroke_i	i	n/a
107.4875	0.089	214975	keystroke_e	e	n/a
107.6965	0.121	215393	keystroke_s	s	n/a
107.862	0.105	215724	keystroke_Key.enter	Key.enter	n/a
107.9725	6.266	215945	prompt	n/a	metro amenities victory land\n
108.6715	0.09	217343	keystroke_m	m	n/a
108.7465	0.135	217493	keystroke_e	e	n/a
108.942	0.0895	217884	keystroke_t	t	n/a
109.1365	0.09	218273	keystroke_r	r	n/a
109.2715	0.075	218543	keystroke_o	o	n/a
109.6615	0.1055	219323	keystroke_Key.space	Key.space	n/a
109.932	0.105	219864	keystroke_a	a	n/a
110.097	0.12	220194	keystroke_m	m	n/a
110.1875	0.105	220375	keystroke_e	e	n/a
110.322	0.105	220644	keystroke_n	n	n/a
110.517	0.09	221034	keystroke_i	i	n/a
110.652	0.09	221304	keystroke_t	t	n/a
110.787	0.12	221574	keystroke_i	i	n/a
110.877	0.06	221754	keystroke_e	e	n/a
111.162	0.12	222324	keystroke_s	s	n/a
111.4165	0.121	222833	keystroke_Key.space	Key.space	n/a
112.0475	0.089	224095	keystroke_v	v	n/a
112.2115	0.136	224423	keystroke_i	i	n/a
112.3175	0.089	224635	keystroke_c	c	n/a
112.5725	0.104	225145	keystroke_t	t	n/a
112.7215	0.105	225443	keystroke_o	o	n/a
112.8115	0.09	225623	keystroke_r	r	n/a
113.1275	0.075	226255	keystroke_y	y	n/a
113.3965	0.1055	226793	keystroke_Key.space	Key.space	n/a
113.637	0.12	227274	keystroke_l	l	n/a
113.727	0.15	227454	keystroke_a	a	n/a
113.862	0.104	227724	keystroke_n	n	n/a
113.982	0.135	227964	keystroke_d	d	n/a
114.132	0.105	228264	keystroke_Key.enter	Key.enter	n/a
114.242	9.7465	228484	prompt	n/a	occasion exterior neither ecuador\n
115.092	0.09	230184	keystroke_o	o	n/a
115.2425	0.0745	230485	keystroke_c	c	n/a
115.4215	0.075	230843	keystroke_c	c	n/a
115.5715	0.1355	231143	keystroke_a	a	n/a
115.7215	0.135	231443	keystroke_s	s	n/a
115.8425	0.254	231685	keystroke_i	i	n/a
115.9165	0.195	231833	keystroke_o	o	n/a
116.007	0.1205	232014	keystroke_n	n	n/a
116.2315	0.1205	232463	keystroke_Key.space	Key.space	n/a
116.322	0.1055	232644	keystroke_e	e	n/a
116.577	0.135	233154	keystroke_x	x	n/a
116.922	0.105	233844	keystroke_t	t	n/a
117.312	0.1345	234624	keystroke_e	e	n/a
117.507	0.0895	235014	keystroke_r	r	n/a
117.7315	0.1205	235463	keystroke_i	i	n/a
117.912	0.1345	235824	keystroke_o	o	n/a
118.1515	0.12	236303	keystroke_r	r	n/a
118.407	0.105	236814	keystroke_Key.space	Key.space	n/a
119.1715	0.09	238343	keystroke_m	m	n/a
119.5465	0.105	239093	keystroke_Key.backspace	Key.backspace	n/a
119.8315	0.106	239663	keystroke_n	n	n/a
119.967	0.1345	239934	keystroke_e	e	n/a
120.387	0.09	240774	keystroke_i	i	n/a
120.552	0.105	241104	keystroke_t	t	n/a
120.6875	0.1195	241375	keystroke_h	h	n/a
120.792	0.15	241584	keystroke_e	e	n/a
120.882	0.135	241764	keystroke_r	r	n/a
121.062	0.135	242124	keystroke_Key.space	Key.space	n/a
121.782	0.0905	243564	keystroke_e	e	n/a
122.0815	0.0905	244163	keystroke_c	c	n/a
122.262	0.105	244524	keystroke_u	u	n/a
123.281	0.1055	246562	keystroke_a	a	n/a
123.462	0.105	246924	keystroke_d	d	n/a
123.582	0.1045	247164	keystroke_o	o	n/a
123.687	0.12	247374	keystroke_r	r	n/a
123.8965	0.0905	247793	keystroke_Key.enter	Key.enter	n/a
123.992	8.8315	247984	prompt	n/a	aboriginal headphones evaluating king\n
124.9025	0.119	249805	keystroke_a	a	n/a
125.1115	0.1055	250223	keystroke_b	b	n/a
125.3365	0.1055	250673	keystroke_o	o	n/a
125.457	0.1045	250914	keystroke_r	r	n/a
126.131	0.091	252262	keystroke_i	i	n/a
126.251	0.091	252502	keystroke_g	g	n/a
126.372	0.179	252744	keystroke_i	i	n/a
126.476	0.165	252952	keystroke_n	n	n/a
126.656	0.136	253312	keystroke_a	a	n/a
126.747	0.135	253494	keystroke_l	l	n/a
126.942	0.1195	253884	keystroke_Key.space	Key.space	n/a
127.857	0.12	255714	keystroke_h	h	n/a
127.947	0.075	255894	keystroke_e	e	n/a
128.082	0.104	256164	keystroke_a	a	n/a
128.442	0.075	256884	keystroke_d	d	n/a
128.7715	0.105	257543	keystroke_p	p	n/a
128.952	0.0755	257904	keystroke_h	h	n/a
129.117	0.075	258234	keystroke_o	o	n/a
129.297	0.135	258594	keystroke_n	n	n/a
129.401	0.121	258802	keystroke_e	e	n/a
129.687	0.0905	259374	keystroke_s	s	n/a
129.7925	0.119	259585	keystroke_Key.space	Key.space	n/a
130.107	0.0905	260214	keystroke_e	e	n/a
130.4065	0.0755	260813	keystroke_v	v	n/a
130.5725	0.1195	261145	keystroke_a	a	n/a
130.8265	0.0905	261653	keystroke_l	l	n/a
131.007	0.09	262014	keystroke_u	u	n/a
131.112	0.105	262224	keystroke_a	a	n/a
131.3215	0.09	262643	keystroke_t	t	n/a
131.382	0.1645	262764	keystroke_i	i	n/a
131.4715	0.135	262943	keystroke_n	n	n/a
131.6365	0.09	263273	keystroke_g	g	n/a
131.7865	0.1055	263573	keystroke_Key.space	Key.space	n/a
132.0575	0.104	264115	keystroke_k	k	n/a
132.252	0.135	264504	keystroke_i	i	n/a
132.357	0.135	264714	keystroke_n	n	n/a
132.507	0.09	265014	keystroke_g	g	n/a
132.717	0.105	265434	keystroke_Key.enter	Key.enter	n/a
132.8275	8.291	265655	prompt	n/a	hosts jewel yard necessarily\n
133.587	0.105	267174	keystroke_h	h	n/a
133.767	0.105	267534	keystroke_o	o	n/a
133.947	0.1345	267894	keystroke_s	s	n/a
134.307	0.06	268614	keystroke_t	t	n/a
134.5765	0.0755	269153	keystroke_s	s	n/a
134.682	0.135	269364	keystroke_Key.space	Key.space	n/a
135.042	0.1345	270084	keystroke_j	j	n/a
135.342	0.075	270684	keystroke_e	e	n/a
135.5215	0.0905	271043	keystroke_w	w	n/a
135.732	0.1045	271464	keystroke_e	e	n/a
135.8215	0.0905	271643	keystroke_l	l	n/a
136.032	0.105	272064	keystroke_Key.space	Key.space	n/a
136.4065	0.09	272813	keystroke_y	y	n/a
136.5715	0.225	273143	keystroke_a	a	n/a
136.782	0.075	273564	keystroke_r	r	n/a
137.1115	0.1055	274223	keystroke_d	d	n/a
137.5315	0.1355	275063	keystroke_Key.space	Key.space	n/a
138.297	0.179	276594	keystroke_n	n	n/a
138.492	0.1205	276984	keystroke_e	e	n/a
138.777	0.135	277554	keystroke_c	c	n/a
139.0325	0.0595	278065	keystroke_e	e	n/a
139.6165	0.105	279233	keystroke_s	s	n/a
139.8115	0.061	279623	keystroke_s	s	n/a
140.007	0.045	280014	keystroke_a	a	n/a
140.187	0.09	280374	keystroke_r	r	n/a
140.3065	0.1355	280613	keystroke_i	i	n/a
140.4265	0.15	280853	keystroke_l	l	n/a
140.6225	0.059	281245	keystroke_y	y	n/a
141.0265	0.09	282053	keystroke_Key.enter	Key.enter	n/a
141.1225	8.696	282245	prompt	n/a	venues you podcasts treasures\n
142.662	0.0295	285324	keystroke_v	v	n/a
142.812	0.1045	285624	keystroke_e	e	n/a
143.1715	0.1055	286343	keystroke_n	n	n/a
143.382	0.0895	286764	keystroke_u	u	n/a
143.4715	0.0905	286943	keystroke_e	e	n/a
143.712	0.06	287424	keystroke_s	s	n/a
143.862	0.089	287724	keystroke_Key.space	Key.space	n/a
144.416	0.091	288832	keystroke_y	y	n/a
144.597	0.18	289194	keystroke_o	o	n/a
144.686	0.136	289372	keystroke_u	u	n/a
144.9415	0.12	289883	keystroke_Key.space	Key.space	n/a
145.227	0.075	290454	keystroke_p	p	n/a
145.4215	0.135	290843	keystroke_o	o	n/a
145.5715	0.09	291143	keystroke_d	d	n/a
146.0215	0.1205	292043	keystroke_c	c	n/a
146.277	0.224	292554	keystroke_a	a	n/a
146.426	0.121	292852	keystroke_s	s	n/a
146.697	0.09	293394	keystroke_t	t	n/a
146.967	0.119	293934	keystroke_s	s	n/a
147.131	0.1055	294262	keystroke_Key.space	Key.space	n/a
147.522	0.09	295044	keystroke_t	t	n/a
147.732	0.09	295464	keystroke_r	r	n/a
147.927	0.09	295854	keystroke_a	a	n/a
148.572	0.09	297144	keystroke_Key.backspace	Key.backspace	n/a
148.632	0.105	297264	keystroke_e	e	n/a
148.827	0.15	297654	keystroke_a	a	n/a
148.962	0.1345	297924	keystroke_s	s	n/a
149.1415	0.105	298283	keystroke_u	u	n/a
149.2615	0.12	298523	keystroke_r	r	n/a
149.3365	0.105	298673	keystroke_e	e	n/a
149.5765	0.075	299153	keystroke_s	s	n/a
149.682	0.1345	299364	keystroke_Key.enter	Key.enter	n/a
149.8225	6.731	299645	prompt	n/a	giants chief stops travelers\n
150.8665	0.075	301733	keystroke_g	g	n/a
151.0315	0.09	302063	keystroke_i	i	n/a
151.1665	0.1505	302333	keystroke_a	a	n/a
151.301	0.1355	302602	keystroke_n	n	n/a
151.451	0.046	302902	keystroke_t	t	n/a
151.722	0.075	303444	keystroke_s	s	n/a
151.8415	0.1045	303683	keystroke_Key.space	Key.space	n/a
152.306	0.106	304612	keystroke_c	c	n/a
152.442	0.105	304884	keystroke_h	h	n/a
152.712	0.12	305424	keystroke_i	i	n/a
152.787	0.105	305574	keystroke_e	e	n/a
152.997	0.09	305994	keystroke_f	f	n/a
153.162	0.1045	306324	keystroke_Key.space	Key.space	n/a
153.357	0.1345	306714	keystroke_s	s	n/a
153.6865	0.075	307373	keystroke_t	t	n/a
153.8365	0.1655	307673	keystroke_o	o	n/a
153.987	0.1345	307974	keystroke_p	p	n/a
154.1965	0.105	308393	keystroke_s	s	n/a
154.3465	0.12	308693	keystroke_Key.space	Key.space	n/a
154.7965	0.075	309593	keystroke_t	t	n/a
154.9915	0.0605	309983	keystroke_r	r	n/a
155.142	0.105	310284	keystroke_a	a	n/a
155.3815	0.09	310763	keystroke_v	v	n/a
155.5915	0.1045	311183	keystroke_e	e	n/a
155.7125	0.134	311425	keystroke_l	l	n/a
155.787	0.1645	311574	keystroke_e	e	n/a
155.8915	0.121	311783	keystroke_r	r	n/a
156.1465	0.075	312293	keystroke_s	s	n/a
156.432	0.12	312864	keystroke_Key.enter	Key.enter	n/a
156.5585	7.96	313117	prompt	n/a	brazil circle bathrooms operational\n
157.2865	0.12	314573	keystroke_b	b	n/a
157.3915	0.09	314783	keystroke_r	r	n/a
157.587	0.0895	315174	keystroke_a	a	n/a
157.857	0.1345	315714	keystroke_z	z	n/a
157.962	0.165	315924	keystroke_i	i	n/a
158.0965	0.1655	316193	keystroke_l	l	n/a
158.427	0.105	316854	keystroke_Key.space	Key.space	n/a
159.2515	0.12	318503	keystroke_c	c	n/a
159.4165	0.1205	318833	keystroke_i	i	n/a
160.032	0.0895	320064	keystroke_r	r	n/a
160.437	0.135	320874	keystroke_c	c	n/a
160.6615	0.135	321323	keystroke_l	l	n/a
160.7665	0.106	321533	keystroke_e	e	n/a
160.902	0.1195	321804	keystroke_Key.space	Key.space	n/a
161.1415	0.1205	322283	keystroke_b	b	n/a
161.232	0.105	322464	keystroke_a	a	n/a
161.3815	0.1055	322763	keystroke_t	t	n/a
161.5015	0.09	323003	keystroke_h	h	n/a
161.607	0.0905	323214	keystroke_r	r	n/a
161.7265	0.09	323453	keystroke_o	o	n/a
161.9365	0.105	323873	keystroke_o	o	n/a
162.0265	0.105	324053	keystroke_m	m	n/a
162.162	0.1195	324324	keystroke_s	s	n/a
162.327	0.12	324654	keystroke_Key.space	Key.space	n/a
162.837	0.105	325674	keystroke_o	o	n/a
163.018	0.134	326036	keystroke_p	p	n/a
163.077	0.165	326154	keystroke_e	e	n/a
163.197	0.105	326394	keystroke_r	r	n/a
163.377	0.15	326754	keystroke_a	a	n/a
163.527	0.075	327054	keystroke_t	t	n/a
163.632	0.2405	327264	keystroke_i	i	n/a
163.722	0.195	327444	keystroke_o	o	n/a
163.827	0.15	327654	keystroke_n	n	n/a
164.022	0.1195	328044	keystroke_a	a	n/a
164.1265	0.135	328253	keystroke_l	l	n/a
164.4415	0.075	328883	keystroke_Key.enter	Key.enter	n/a
164.5215	7.407	329043	prompt	n/a	accordingly recent mileage simulation\n
165.207	0.1195	330414	keystroke_a	a	n/a
165.402	0.12	330804	keystroke_c	c	n/a
165.612	0.09	331224	keystroke_c	c	n/a
165.822	0.09	331644	keystroke_o	o	n/a
165.912	0.09	331824	keystroke_r	r	n/a
166.151	0.136	332302	keystroke_d	d	n/a
166.242	0.18	332484	keystroke_i	i	n/a
166.362	0.15	332724	keystroke_n	n	n/a
166.752	0.075	333504	keystroke_g	g	n/a
166.932	0.12	333864	keystroke_l	l	n/a
167.0815	0.06	334163	keystroke_y	y	n/a
167.2765	0.135	334553	keystroke_Key.space	Key.space	n/a
167.5465	0.135	335093	keystroke_r	r	n/a
167.7715	0.12	335543	keystroke_e	e	n/a
167.9665	0.1355	335933	keystroke_c	c	n/a
168.162	0.09	336324	keystroke_e	e	n/a
168.3115	0.0755	336623	keystroke_n	n	n/a
168.416	0.105	336832	keystroke_t	t	n/a
168.596	0.1205	337192	keystroke_Key.space	Key.space	n/a
168.927	0.074	337854	keystroke_m	m	n/a
169.107	0.1055	338214	keystroke_i	i	n/a
169.3015	0.12	338603	keystroke_l	l	n/a
169.3915	0.075	338783	keystroke_e	e	n/a
169.572	0.0745	339144	keystroke_a	a	n/a
169.707	0.12	339414	keystroke_g	g	n/a
169.8715	0.105	339743	keystroke_e	e	n/a
169.9915	0.105	339983	keystroke_Key.space	Key.space	n/a
170.1865	0.1205	340373	keystroke_s	s	n/a
170.397	0.15	340794	keystroke_i	i	n/a
170.532	0.15	341064	keystroke_m	m	n/a
170.877	0.09	341754	keystroke_u	u	n/a
171.102	0.09	342204	keystroke_l	l	n/a
171.147	0.12	342294	keystroke_a	a	n/a
171.282	0.105	342564	keystroke_t	t	n/a
171.357	0.21	342714	keystroke_i	i	n/a
171.447	0.165	342894	keystroke_o	o	n/a
171.507	0.165	343014	keystroke_n	n	n/a
171.807	0.12	343614	keystroke_Key.enter	Key.enter	n/a
171.932	6.9715	343864	prompt	n/a	employment consultancy resist need\n
172.797	0.1195	345594	keystroke_e	e	n/a
172.8875	0.119	345775	keystroke_m	m	n/a
173.0965	0.106	346193	keystroke_p	p	n/a
173.307	0.105	346614	keystroke_l	l	n/a
173.502	0.0895	347004	keystroke_o	o	n/a
173.6075	0.059	347215	keystroke_y	y	n/a
173.8615	0.061	347723	keystroke_m	m	n/a
173.9365	0.1345	347873	keystroke_e	e	n/a
174.087	0.1055	348174	keystroke_n	n	n/a
174.237	0.09	348474	keystroke_t	t	n/a
174.4165	0.1205	348833	keystroke_Key.space	Key.space	n/a
174.822	0.1045	349644	keystroke_c	c	n/a
174.957	0.09	349914	keystroke_o	o	n/a
175.152	0.1045	350304	keystroke_n	n	n/a
175.2715	0.1505	350543	keystroke_s	s	n/a
175.4515	0.106	350903	keystroke_u	u	n/a
175.6615	0.0755	351323	keystroke_l	l	n/a
175.7965	0.075	351593	keystroke_t	t	n/a
176.007	0.105	352014	keystroke_a	a	n/a
176.1275	0.135	352255	keystroke_n	n	n/a
176.277	0.1195	352554	keystroke_c	c	n/a
176.502	0.0905	353004	keystroke_y	y	n/a
176.7415	0.076	353483	keystroke_Key.space	Key.space	n/a
176.9375	0.1645	353875	keystroke_r	r	n/a
177.042	0.12	354084	keystroke_e	e	n/a
177.2965	0.0905	354593	keystroke_s	s	n/a
177.432	0.12	354864	keystroke_i	i	n/a
177.5225	0.1345	355045	keystroke_s	s	n/a
177.7915	0.075	355583	keystroke_t	t	n/a
177.927	0.0895	355854	keystroke_Key.space	Key.space	n/a
178.1665	0.1205	356333	keystroke_n	n	n/a
178.257	0.0595	356514	keystroke_e	e	n/a
178.422	0.074	356844	keystroke_e	e	n/a
178.646	0.075	357292	keystroke_d	d	n/a
178.796	0.106	357592	keystroke_Key.enter	Key.enter	n/a
178.9075	8.3065	357815	prompt	n/a	curtis power observation heart\n
180.1915	0.12	360383	keystroke_c	c	n/a
180.4165	0.105	360833	keystroke_u	u	n/a
180.5225	0.0895	361045	keystroke_r	r	n/a
180.7325	0.045	361465	keystroke_t	t	n/a
181.3765	0.1355	362753	keystroke_i	i	n/a
181.7215	0.105	363443	keystroke_s	s	n/a
181.902	0.105	363804	keystroke_Key.space	Key.space	n/a
182.202	0.105	364404	keystroke_p	p	n/a
182.322	0.15	364644	keystroke_o	o	n/a
182.397	0.09	364794	keystroke_w	w	n/a
182.592	0.15	365184	keystroke_e	e	n/a
182.727	0.105	365454	keystroke_r	r	n/a
182.937	0.09	365874	keystroke_Key.space	Key.space	n/a
183.327	0.1195	366654	keystroke_o	o	n/a
184.3615	0.0905	368723	keystroke_b	b	n/a
184.437	0.105	368874	keystroke_s	s	n/a
184.677	0.165	369354	keystroke_e	e	n/a
184.782	0.105	369564	keystroke_r	r	n/a
185.037	0.075	370074	keystroke_v	v	n/a
185.2165	0.1205	370433	keystroke_a	a	n/a
185.396	0.106	370792	keystroke_t	t	n/a
185.532	0.239	371064	keystroke_i	i	n/a
185.637	0.18	371274	keystroke_o	o	n/a
185.712	0.135	371424	keystroke_n	n	n/a
185.937	0.105	371874	keystroke_Key.space	Key.space	n/a
186.147	0.105	372294	keystroke_h	h	n/a
186.2065	0.0905	372413	keystroke_e	e	n/a
186.312	0.18	372624	keystroke_a	a	n/a
186.417	0.165	372834	keystroke_r	r	n/a
186.7915	0.105	373583	keystroke_t	t	n/a
187.0915	0.1205	374183	keystroke_Key.enter	Key.enter	n/a
187.218	8.171	374436	prompt	n/a	patches clinics afterwards pointer\n
187.992	0.12	375984	keystroke_p	p	n/a
188.096	0.076	376192	keystroke_a	a	n/a
188.232	0.105	376464	keystroke_t	t	n/a
188.996	0.121	377992	keystroke_c	c	n/a
189.2065	0.1055	378413	keystroke_h	h	n/a
189.2965	0.1055	378593	keystroke_e	e	n/a
189.612	0.09	379224	keystroke_s	s	n/a
189.777	0.1195	379554	keystroke_Key.space	Key.space	n/a
190.257	0.1495	380514	keystroke_c	c	n/a
190.3615	0.105	380723	keystroke_l	l	n/a
190.5265	0.15	381053	keystroke_i	i	n/a
190.6475	0.1345	381295	keystroke_n	n	n/a
190.8415	0.1205	381683	keystroke_i	i	n/a
190.9325	0.1045	381865	keystroke_c	c	n/a
191.187	0.1195	382374	keystroke_s	s	n/a
191.3365	0.1195	382673	keystroke_Key.space	Key.space	n/a
191.862	0.1195	383724	keystroke_a	a	n/a
192.132	0.015	384264	keystroke_f	f	n/a
192.2815	0.135	384563	keystroke_t	t	n/a
192.597	0.18	385194	keystroke_e	e	n/a
192.7465	0.0755	385493	keystroke_r	r	n/a
192.942	0.105	385884	keystroke_w	w	n/a
193.107	0.18	386214	keystroke_a	a	n/a
193.227	0.1195	386454	keystroke_r	r	n/a
193.4665	0.09	386933	keystroke_d	d	n/a
193.6765	0.091	387353	keystroke_s	s	n/a
193.812	0.105	387624	keystroke_Key.space	Key.space	n/a
194.097	0.135	388194	keystroke_p	p	n/a
194.187	0.135	388374	keystroke_o	o	n/a
194.4275	0.2095	388855	keystroke_i	i	n/a
194.5615	0.2105	389123	keystroke_n	n	n/a
194.667	0.09	389334	keystroke_t	t	n/a
194.862	0.18	389724	keystroke_e	e	n/a
194.967	0.15	389934	keystroke_r	r	n/a
195.267	0.1195	390534	keystroke_Key.enter	Key.enter	n/a
195.393	8.681	390786	prompt	n/a	raleigh fluid galleries question\n
196.1825	0.105	392365	keystroke_r	r	n/a
196.272	0.135	392544	keystroke_e	e	n/a
197.066	0.075	394132	keystroke_Key.backspace	Key.backspace	n/a
197.187	0.134	394374	keystroke_a	a	n/a
197.427	0.135	394854	keystroke_l	l	n/a
197.802	0.09	395604	keystroke_e	e	n/a
198.042	0.12	396084	keystroke_i	i	n/a
198.192	0.104	396384	keystroke_g	g	n/a
198.387	0.09	396774	keystroke_h	h	n/a
198.582	0.135	397164	keystroke_Key.space	Key.space	n/a
198.867	0.104	397734	keystroke_f	f	n/a
199.0015	0.105	398003	keystroke_l	l	n/a
199.227	0.105	398454	keystroke_u	u	n/a
199.437	0.09	398874	keystroke_i	i	n/a
199.5725	0.1045	399145	keystroke_d	d	n/a
199.812	0.105	399624	keystroke_Key.space	Key.space	n/a
200.817	0.06	401634	keystroke_g	g	n/a
200.982	0.105	401964	keystroke_a	a	n/a
201.087	0.1045	402174	keystroke_l	l	n/a
201.267	0.12	402534	keystroke_l	l	n/a
201.312	0.165	402624	keystroke_e	e	n/a
201.432	0.105	402864	keystroke_r	r	n/a
201.612	0.15	403224	keystroke_i	i	n/a
201.8515	0.09	403703	keystroke_e	e	n/a
202.0915	0.076	404183	keystroke_s	s	n/a
202.2415	0.1205	404483	keystroke_Key.space	Key.space	n/a
202.842	0.075	405684	keystroke_q	q	n/a
202.977	0.12	405954	keystroke_u	u	n/a
203.052	0.105	406104	keystroke_e	e	n/a
203.277	0.09	406554	keystroke_s	s	n/a
203.547	0.03	407094	keystroke_t	t	n/a
203.562	0.195	407124	keystroke_i	i	n/a
203.622	0.165	407244	keystroke_o	o	n/a
203.697	0.1355	407394	keystroke_n	n	n/a
203.982	0.0895	407964	keystroke_Key.enter	Key.enter	n/a
204.078	7.7205	408156	prompt	n/a	school increases tutorials infected\n
204.7165	0.1055	409433	keystroke_s	s	n/a
205.002	0.135	410004	keystroke_c	c	n/a
205.092	0.105	410184	keystroke_h	h	n/a
205.3175	0.104	410635	keystroke_o	o	n/a
205.5115	0.0755	411023	keystroke_o	o	n/a
205.722	0.0445	411444	keystroke_l	l	n/a
205.9165	0.1055	411833	keystroke_Key.space	Key.space	n/a
206.1715	0.1055	412343	keystroke_i	i	n/a
206.3365	0.1505	412673	keystroke_n	n	n/a
206.4265	0.0905	412853	keystroke_c	c	n/a
206.727	0.1505	413454	keystroke_r	r	n/a
206.787	0.15	413574	keystroke_e	e	n/a
206.952	0.225	413904	keystroke_a	a	n/a
207.117	0.12	414234	keystroke_s	s	n/a
207.3565	0.0895	414713	keystroke_e	e	n/a
207.567	0.06	415134	keystroke_s	s	n/a
207.701	0.106	415402	keystroke_Key.space	Key.space	n/a
207.972	0.09	415944	keystroke_t	t	n/a
208.122	0.105	416244	keystroke_u	u	n/a
208.287	0.1495	416574	keystroke_t	t	n/a
208.617	0.12	417234	keystroke_o	o	n/a
208.767	0.104	417534	keystroke_r	r	n/a
208.917	0.105	417834	keystroke_i	i	n/a
209.052	0.1195	418104	keystroke_a	a	n/a
209.187	0.12	418374	keystroke_l	l	n/a
209.382	0.105	418764	keystroke_s	s	n/a
209.502	0.1045	419004	keystroke_Key.space	Key.space	n/a
210.297	0.105	420594	keystroke_i	i	n/a
210.477	0.1345	420954	keystroke_n	n	n/a
210.5815	0.1055	421163	keystroke_f	f	n/a
210.747	0.105	421494	keystroke_e	e	n/a
210.927	0.0745	421854	keystroke_c	c	n/a
211.1815	0.1205	422363	keystroke_t	t	n/a
211.287	0.104	422574	keystroke_e	e	n/a
211.542	0.104	423084	keystroke_d	d	n/a
211.677	0.1195	423354	keystroke_Key.enter	Key.enter	n/a
211.802	7.482	423604	prompt	n/a	discussion golden mpeg damages\n
212.607	0.12	425214	keystroke_d	d	n/a
212.742	0.104	425484	keystroke_i	i	n/a
212.847	0.105	425694	keystroke_s	s	n/a
213.1175	0.089	426235	keystroke_c	c	n/a
213.1925	0.104	426385	keystroke_u	u	n/a
213.3415	0.075	426683	keystroke_s	s	n/a
213.537	0.1045	427074	keystroke_s	s	n/a
213.597	0.1955	427194	keystroke_i	i	n/a
213.672	0.18	427344	keystroke_o	o	n/a
213.747	0.1355	427494	keystroke_n	n	n/a
213.9565	0.1505	427913	keystroke_Key.space	Key.space	n/a
214.2725	0.0895	428545	keystroke_g	g	n/a
214.407	0.09	428814	keystroke_o	o	n/a
214.662	0.06	429324	keystroke_l	l	n/a
214.707	0.165	429414	keystroke_d	d	n/a
215.232	0.1045	430464	keystroke_e	e	n/a
215.367	0.09	430734	keystroke_n	n	n/a
215.592	0.075	431184	keystroke_Key.space	Key.space	n/a
216.042	0.03	432084	keystroke_m	m	n/a
216.7165	0.09	433433	keystroke_p	p	n/a
216.852	0.105	433704	keystroke_e	e	n/a
217.1365	0.0905	434273	keystroke_g	g	n/a
217.467	0.12	434934	keystroke_Key.space	Key.space	n/a
218.052	0.12	436104	keystroke_d	d	n/a
218.247	0.0895	436494	keystroke_a	a	n/a
218.382	0.0755	436764	keystroke_m	m	n/a
218.4865	0.0595	436973	keystroke_a	a	n/a
218.6365	0.0905	437273	keystroke_g	g	n/a
218.787	0.0905	437574	keystroke_e	e	n/a
218.9675	0.119	437935	keystroke_s	s	n/a
219.131	0.151	438262	keystroke_Key.enter	Key.enter	n/a
219.288	7.271	438576	prompt	n/a	dynamic contests marathon tips\n
220.287	0.105	440574	keystroke_d	d	n/a
220.542	0.06	441084	keystroke_y	y	n/a
220.707	0.105	441414	keystroke_n	n	n/a
220.857	0.135	441714	keystroke_a	a	n/a
221.007	0.105	442014	keystroke_m	m	n/a
221.247	0.105	442494	keystroke_i	i	n/a
221.3675	0.1495	442735	keystroke_c	c	n/a
221.531	0.105	443062	keystroke_Key.space	Key.space	n/a
221.862	0.15	443724	keystroke_c	c	n/a
221.967	0.074	443934	keystroke_o	o	n/a
222.162	0.12	444324	keystroke_n	n	n/a
222.311	0.091	444622	keystroke_t	t	n/a
222.4775	0.09	444955	keystroke_e	e	n/a
222.853	0.1045	445706	keystroke_s	s	n/a
223.152	0.1195	446304	keystroke_t	t	n/a
223.377	0.1345	446754	keystroke_s	s	n/a
223.5115	0.1055	447023	keystroke_Key.space	Key.space	n/a
223.7075	0.119	447415	keystroke_m	m	n/a
223.8115	0.135	447623	keystroke_a	a	n/a
223.962	0.1045	447924	keystroke_r	r	n/a
224.1115	0.091	448223	keystroke_a	a	n/a
224.2625	0.09	448525	keystroke_t	t	n/a
224.3675	0.09	448735	keystroke_h	h	n/a
224.5175	0.105	449035	keystroke_o	o	n/a
224.7425	0.09	449485	keystroke_n	n	n/a
224.9075	0.1195	449815	keystroke_Key.space	Key.space	n/a
225.132	0.12	450264	keystroke_t	t	n/a
225.9575	0.12	451915	keystroke_i	i	n/a
226.108	0.149	452216	keystroke_p	p	n/a
226.258	0.134	452516	keystroke_s	s	n/a
226.482	0.075	452964	keystroke_Key.enter	Key.enter	n/a
226.5625	8.4865	453125	prompt	n/a	connectivity lithuania memorial jobs\n
227.667	0.12	455334	keystroke_c	c	n/a
227.802	0.0755	455604	keystroke_o	o	n/a
227.997	0.0605	455994	keystroke_n	n	n/a
228.177	0.1055	456354	keystroke_n	n	n/a
228.2075	0.12	456415	keystroke_e	e	n/a
228.3715	0.15	456743	keystroke_c	c	n/a
228.7175	0.1345	457435	keystroke_t	t	n/a
228.8825	0.104	457765	keystroke_i	i	n/a
229.1365	0.1205	458273	keystroke_v	v	n/a
229.3475	0.105	458695	keystroke_i	i	n/a
229.4825	0.105	458965	keystroke_t	t	n/a
229.7375	0.045	459475	keystroke_y	y	n/a
229.857	0.1195	459714	keystroke_Key.space	Key.space	n/a
230.1415	0.075	460283	keystroke_l	l	n/a
230.3815	0.105	460763	keystroke_i	i	n/a
231.072	0.09	462144	keystroke_t	t	n/a
231.267	0.075	462534	keystroke_h	h	n/a
231.402	0.089	462804	keystroke_u	u	n/a
231.537	0.105	463074	keystroke_a	a	n/a
231.657	0.105	463314	keystroke_n	n	n/a
231.837	0.075	463674	keystroke_i	i	n/a
231.972	0.105	463944	keystroke_a	a	n/a
232.092	0.09	464184	keystroke_Key.space	Key.space	n/a
232.437	0.1055	464874	keystroke_m	m	n/a
232.527	0.135	465054	keystroke_e	e	n/a
232.647	0.075	465294	keystroke_m	m	n/a
232.827	0.105	465654	keystroke_o	o	n/a
232.902	0.105	465804	keystroke_r	r	n/a
233.247	0.105	466494	keystroke_i	i	n/a
233.397	0.09	466794	keystroke_a	a	n/a
233.532	0.12	467064	keystroke_l	l	n/a
233.7415	0.1045	467483	keystroke_Key.space	Key.space	n/a
234.2225	0.1045	468445	keystroke_j	j	n/a
234.402	0.135	468804	keystroke_o	o	n/a
234.567	0.0455	469134	keystroke_b	b	n/a
234.8075	0.074	469615	keystroke_s	s	n/a
234.9415	0.105	469883	keystroke_Key.enter	Key.enter	n/a
235.0545	8.5445	470109	prompt	n/a	modes federation boulder roads\n
235.7075	0.105	471415	keystroke_m	m	n/a
235.9015	0.135	471803	keystroke_o	o	n/a
236.217	0.074	472434	keystroke_d	d	n/a
236.3975	0.075	472795	keystroke_e	e	n/a
236.622	0.09	473244	keystroke_s	s	n/a
236.742	0.1195	473484	keystroke_Key.space	Key.space	n/a
237.132	0.105	474264	keystroke_f	f	n/a
237.477	0.09	474954	keystroke_e	e	n/a
237.687	0.12	475374	keystroke_d	d	n/a
237.927	0.165	475854	keystroke_e	e	n/a
238.077	0.104	476154	keystroke_r	r	n/a
238.287	0.12	476574	keystroke_a	a	n/a
238.512	0.09	477024	keystroke_t	t	n/a
238.662	0.27	477324	keystroke_i	i	n/a
238.782	0.165	477564	keystroke_o	o	n/a
238.8575	0.1345	477715	keystroke_n	n	n/a
239.3525	0.105	478705	keystroke_Key.space	Key.space	n/a
239.6075	0.0595	479215	keystroke_n	n	n/a
240.342	0.075	480684	keystroke_Key.backspace	Key.backspace	n/a
240.987	0.1055	481974	keystroke_b	b	n/a
241.228	0.209	482456	keystroke_o	o	n/a
241.363	0.104	482726	keystroke_u	u	n/a
241.587	0.105	483174	keystroke_l	l	n/a
241.6775	0.0895	483355	keystroke_d	d	n/a
241.8725	0.1345	483745	keystroke_e	e	n/a
241.962	0.12	483924	keystroke_r	r	n/a
242.187	0.105	484374	keystroke_Key.space	Key.space	n/a
242.547	0.0755	485094	keystroke_r	r	n/a
242.682	0.12	485364	keystroke_o	o	n/a
242.847	0.106	485694	keystroke_a	a	n/a
243.027	0.0895	486054	keystroke_d	d	n/a
243.2215	0.1355	486443	keystroke_s	s	n/a
243.507	0.0895	487014	keystroke_Key.enter	Key.enter	n/a
243.6025	9.116	487205	prompt	n/a	coordinate tight playstation tension\n
244.572	0.075	489144	keystroke_c	c	n/a
244.677	0.09	489354	keystroke_o	o	n/a
244.857	0.105	489714	keystroke_o	o	n/a
244.9465	0.106	489893	keystroke_r	r	n/a
245.577	0.09	491154	keystroke_d	d	n/a
245.712	0.21	491424	keystroke_i	i	n/a
245.817	0.165	491634	keystroke_n	n	n/a
245.937	0.135	491874	keystroke_a	a	n/a
246.117	0.135	492234	keystroke_t	t	n/a
246.282	0.12	492564	keystroke_e	e	n/a
246.446	0.106	492892	keystroke_Key.space	Key.space	n/a
246.942	0.09	493884	keystroke_t	t	n/a
247.047	0.12	494094	keystroke_i	i	n/a
247.197	0.09	494394	keystroke_g	g	n/a
247.332	0.12	494664	keystroke_h	h	n/a
247.437	0.105	494874	keystroke_t	t	n/a
247.692	0.074	495384	keystroke_Key.space	Key.space	n/a
247.992	0.105	495984	keystroke_p	p	n/a
248.202	0.1645	496404	keystroke_l	l	n/a
248.3215	0.1355	496643	keystroke_a	a	n/a
248.592	0.1195	497184	keystroke_y	y	n/a
248.832	0.1045	497664	keystroke_s	s	n/a
249.0415	0.0755	498083	keystroke_t	t	n/a
249.1615	0.1355	498323	keystroke_a	a	n/a
249.282	0.09	498564	keystroke_t	t	n/a
249.432	0.18	498864	keystroke_i	i	n/a
249.477	0.195	498954	keystroke_o	o	n/a
249.582	0.105	499164	keystroke_n	n	n/a
249.792	0.105	499584	keystroke_Key.space	Key.space	n/a
250.002	0.0895	500004	keystroke_t	t	n/a
250.1965	0.1055	500393	keystroke_e	e	n/a
250.2865	0.075	500573	keystroke_n	n	n/a
250.422	0.0895	500844	keystroke_t	t	n/a
250.572	0.225	501144	keystroke_i	i	n/a
250.6615	0.1955	501323	keystroke_o	o	n/a
250.7515	0.165	501503	keystroke_n	n	n/a
251.2915	0.0905	502583	keystroke_Key.backspace	Key.backspace	n/a
251.487	0.075	502974	keystroke_Key.backspace	Key.backspace	n/a
251.652	0.06	503304	keystroke_Key.backspace	Key.backspace	n/a
251.802	0.089	503604	keystroke_Key.backspace	Key.backspace	n/a
251.907	0.105	503814	keystroke_s	s	n/a
252.207	0.194	504414	keystroke_i	i	n/a
252.312	0.134	504624	keystroke_o	o	n/a
252.372	0.15	504744	keystroke_n	n	n/a
252.626	0.0905	505252	keystroke_Key.enter	Key.enter	n/a
252.722	8.4115	505444	prompt	n/a	complicated hourly interpretation highlighted\n
253.4665	0.105	506933	keystroke_c	c	n/a
253.602	0.105	507204	keystroke_o	o	n/a
253.797	0.105	507594	keystroke_m	m	n/a
254.007	0.09	508014	keystroke_p	p	n/a
254.217	0.075	508434	keystroke_l	l	n/a
254.412	0.12	508824	keystroke_i	i	n/a
254.547	0.06	509094	keystroke_c	c	n/a
254.682	0.12	509364	keystroke_a	a	n/a
254.862	0.089	509724	keystroke_t	t	n/a
255.012	0.119	510024	keystroke_e	e	n/a
255.237	0.089	510474	keystroke_d	d	n/a
255.342	0.105	510684	keystroke_Key.space	Key.space	n/a
256.0165	0.12	512033	keystroke_h	h	n/a
256.182	0.18	512364	keystroke_o	o	n/a
256.2725	0.149	512545	keystroke_u	u	n/a
256.4665	0.1055	512933	keystroke_r	r	n/a
256.6175	0.1045	513235	keystroke_l	l	n/a
256.752	0.0895	513504	keystroke_y	y	n/a
256.9615	0.0905	513923	keystroke_Key.space	Key.space	n/a
257.292	0.075	514584	keystroke_i	i	n/a
257.472	0.119	514944	keystroke_n	n	n/a
257.532	0.06	515064	keystroke_t	t	n/a
257.697	0.165	515394	keystroke_e	e	n/a
257.802	0.12	515604	keystroke_r	r	n/a
258.027	0.0895	516054	keystroke_p	p	n/a
258.1615	0.135	516323	keystroke_r	r	n/a
258.252	0.12	516504	keystroke_e	e	n/a
258.4475	0.075	516895	keystroke_t	t	n/a
258.5965	0.165	517193	keystroke_a	a	n/a
258.732	0.1045	517464	keystroke_t	t	n/a
258.8215	0.2105	517643	keystroke_i	i	n/a
258.882	0.1795	517764	keystroke_o	o	n/a
258.972	0.105	517944	keystroke_n	n	n/a
259.1665	0.136	518333	keystroke_Key.space	Key.space	n/a
259.4515	0.1195	518903	keystroke_h	h	n/a
259.601	0.1215	519202	keystroke_i	i	n/a
259.737	0.0755	519474	keystroke_g	g	n/a
259.8575	0.09	519715	keystroke_h	h	n/a
260.082	0.06	520164	keystroke_l	l	n/a
260.216	0.106	520432	keystroke_i	i	n/a
260.322	0.09	520644	keystroke_g	g	n/a
260.517	0.1345	521034	keystroke_h	h	n/a
260.637	0.0895	521274	keystroke_e	e	n/a
260.8475	0.105	521695	keystroke_d	d	n/a
261.057	0.075	522114	keystroke_Key.enter	Key.enter	n/a
261.1375	6.2965	522275	prompt	n/a	official revealed surgery corners\n
261.8965	0.1205	523793	keystroke_o	o	n/a
262.0315	0.0755	524063	keystroke_f	f	n/a
262.1825	0.089	524365	keystroke_f	f	n/a
262.3315	0.0905	524663	keystroke_i	i	n/a
262.4375	0.134	524875	keystroke_c	c	n/a
262.557	0.075	525114	keystroke_i	i	n/a
262.6765	0.165	525353	keystroke_a	a	n/a
262.7665	0.09	525533	keystroke_l	l	n/a
262.9915	0.12	525983	keystroke_Key.space	Key.space	n/a
263.097	0.105	526194	keystroke_r	r	n/a
263.1875	0.089	526375	keystroke_e	e	n/a
263.5165	0.0905	527033	keystroke_v	v	n/a
263.727	0.105	527454	keystroke_e	e	n/a
263.877	0.12	527754	keystroke_a	a	n/a
263.982	0.1195	527964	keystroke_l	l	n/a
264.0865	0.09	528173	keystroke_e	e	n/a
264.297	0.0895	528594	keystroke_d	d	n/a
264.4015	0.1055	528803	keystroke_Key.space	Key.space	n/a
264.597	0.135	529194	keystroke_s	s	n/a
264.747	0.12	529494	keystroke_u	u	n/a
264.852	0.075	529704	keystroke_r	r	n/a
265.077	0.045	530154	keystroke_g	g	n/a
265.197	0.12	530394	keystroke_e	e	n/a
265.302	0.105	530604	keystroke_r	r	n/a
265.452	0.105	530904	keystroke_y	y	n/a
265.692	0.12	531384	keystroke_Key.space	Key.space	n/a
265.962	0.12	531924	keystroke_c	c	n/a
266.127	0.075	532254	keystroke_o	o	n/a
266.547	0.09	533094	keystroke_r	r	n/a
266.682	0.1195	533364	keystroke_n	n	n/a
266.757	0.165	533514	keystroke_e	e	n/a
266.877	0.105	533754	keystroke_r	r	n/a
267.147	0.135	534294	keystroke_s	s	n/a
267.327	0.105	534654	keystroke_Key.enter	Key.enter	n/a
267.437	8.127	534874	prompt	n/a	blackjack investments string headed\n
268.5425	0.09	537085	keystroke_b	b	n/a
268.722	0.12	537444	keystroke_l	l	n/a
268.8425	0.059	537685	keystroke_a	a	n/a
268.9765	0.1195	537953	keystroke_c	c	n/a
269.112	0.09	538224	keystroke_k	k	n/a
269.352	0.1045	538704	keystroke_j	j	n/a
269.442	0.105	538884	keystroke_a	a	n/a
269.5765	0.1655	539153	keystroke_c	c	n/a
269.6965	0.06	539393	keystroke_k	k	n/a
269.877	0.1045	539754	keystroke_Key.space	Key.space	n/a
270.1315	0.105	540263	keystroke_i	i	n/a
270.297	0.15	540594	keystroke_n	n	n/a
270.747	0.075	541494	keystroke_v	v	n/a
270.927	0.089	541854	keystroke_e	e	n/a
271.107	0.12	542214	keystroke_s	s	n/a
271.392	0.06	542784	keystroke_t	t	n/a
271.542	0.0895	543084	keystroke_m	m	n/a
271.6165	0.12	543233	keystroke_e	e	n/a
271.767	0.135	543534	keystroke_n	n	n/a
271.827	0.105	543654	keystroke_t	t	n/a
272.067	0.105	544134	keystroke_s	s	n/a
272.1865	0.105	544373	keystroke_Key.space	Key.space	n/a
272.3665	0.0605	544733	keystroke_t	t	n/a
272.997	0.1045	545994	keystroke_Key.backspace	Key.backspace	n/a
273.1025	0.0885	546205	keystroke_s	s	n/a
273.297	0.06	546594	keystroke_t	t	n/a
273.4615	0.09	546923	keystroke_r	r	n/a
273.5665	0.135	547133	keystroke_i	i	n/a
273.7165	0.12	547433	keystroke_n	n	n/a
273.8515	0.09	547703	keystroke_g	g	n/a
274.017	0.12	548034	keystroke_Key.space	Key.space	n/a
274.272	0.105	548544	keystroke_h	h	n/a
274.317	0.09	548634	keystroke_e	e	n/a
274.452	0.1045	548904	keystroke_a	a	n/a
274.6465	0.0905	549293	keystroke_d	d	n/a
274.872	0.0905	549744	keystroke_e	e	n/a
275.097	0.06	550194	keystroke_d	d	n/a
275.427	0.1345	550854	keystroke_Key.enter	Key.enter	n/a
275.5685	9.7605	551137	prompt	n/a	links letters sunrise annually\n
276.507	0.1055	553014	keystroke_l	l	n/a
276.6725	0.1195	553345	keystroke_i	i	n/a
276.897	0.09	553794	keystroke_n	n	n/a
277.032	0.0905	554064	keystroke_k	k	n/a
277.167	0.1345	554334	keystroke_s	s	n/a
277.3465	0.1055	554693	keystroke_Key.space	Key.space	n/a
277.692	0.135	555384	keystroke_l	l	n/a
277.782	0.12	555564	keystroke_e	e	n/a
278.022	0.045	556044	keystroke_t	t	n/a
278.142	0.09	556284	keystroke_t	t	n/a
278.277	0.21	556554	keystroke_e	e	n/a
278.397	0.105	556794	keystroke_r	r	n/a
278.682	0.1205	557364	keystroke_s	s	n/a
278.832	0.15	557664	keystroke_Key.space	Key.space	n/a
279.132	0.15	558264	keystroke_s	s	n/a
279.267	0.105	558534	keystroke_u	u	n/a
279.432	0.105	558864	keystroke_n	n	n/a
280.2565	0.075	560513	keystroke_r	r	n/a
280.5125	0.09	561025	keystroke_u	u	n/a
280.6765	0.135	561353	keystroke_s	s	n/a
281.216	0.0755	562432	keystroke_Key.backspace	Key.backspace	n/a
281.3665	0.075	562733	keystroke_Key.backspace	Key.backspace	n/a
282.117	0.105	564234	keystroke_i	i	n/a
282.177	0.12	564354	keystroke_s	s	n/a
282.4025	0.0895	564805	keystroke_e	e	n/a
282.537	0.105	565074	keystroke_Key.space	Key.space	n/a
282.822	0.075	565644	keystroke_a	a	n/a
283.107	0.075	566214	keystroke_n	n	n/a
283.9615	0.0755	567923	keystroke_n	n	n/a
284.2175	0.1045	568435	keystroke_u	u	n/a
284.397	0.12	568794	keystroke_a	a	n/a
284.487	0.075	568974	keystroke_l	l	n/a
284.652	0.09	569304	keystroke_l	l	n/a
284.7865	0.015	569573	keystroke_y	y	n/a
285.2365	0.09	570473	keystroke_Key.enter	Key.enter	n/a
285.332	6.822	570664	prompt	n/a	nirvana only commander brisbane\n
286.377	0.0745	572754	keystroke_n	n	n/a
286.572	0.0745	573144	keystroke_i	i	n/a
286.6765	0.12	573353	keystroke_r	r	n/a
286.9465	0.106	573893	keystroke_v	v	n/a
287.1415	0.165	574283	keystroke_a	a	n/a
287.2315	0.121	574463	keystroke_n	n	n/a
287.3665	0.12	574733	keystroke_a	a	n/a
287.5765	0.09	575153	keystroke_Key.space	Key.space	n/a
288.1015	0.0905	576203	keystroke_o	o	n/a
288.297	0.09	576594	keystroke_n	n	n/a
288.417	0.135	576834	keystroke_l	l	n/a
288.507	0.075	577014	keystroke_y	y	n/a
288.702	0.12	577404	keystroke_Key.space	Key.space	n/a
289.182	0.075	578364	keystroke_c	c	n/a
289.272	0.09	578544	keystroke_o	o	n/a
289.452	0.075	578904	keystroke_m	m	n/a
289.587	0.1055	579174	keystroke_m	m	n/a
289.707	0.12	579414	keystroke_a	a	n/a
289.857	0.135	579714	keystroke_n	n	n/a
289.947	0.09	579894	keystroke_d	d	n/a
290.142	0.18	580284	keystroke_e	e	n/a
290.247	0.12	580494	keystroke_r	r	n/a
290.412	0.104	580824	keystroke_Key.space	Key.space	n/a
290.772	0.09	581544	keystroke_b	b	n/a
290.877	0.1045	581754	keystroke_r	r	n/a
291.0115	0.12	582023	keystroke_i	i	n/a
291.1465	0.1205	582293	keystroke_s	s	n/a
291.342	0.1045	582684	keystroke_b	b	n/a
291.522	0.0745	583044	keystroke_a	a	n/a
291.6275	0.1495	583255	keystroke_n	n	n/a
291.8365	0.1355	583673	keystroke_e	e	n/a
292.047	0.105	584094	keystroke_Key.enter	Key.enter	n/a
292.1575	9.1465	584315	prompt	n/a	pays trauma attempt constant\n
292.962	0.014	585924	keystroke_[	[	n/a
293.052	0.15	586104	keystroke_a	a	n/a
293.5315	0.075	587063	keystroke_Key.backspace	Key.backspace	n/a
293.682	0.09	587364	keystroke_Key.backspace	Key.backspace	n/a
294.222	0.105	588444	keystroke_p	p	n/a
294.447	0.09	588894	keystroke_a	a	n/a
294.642	0.09	589284	keystroke_y	y	n/a
294.777	0.1355	589554	keystroke_s	s	n/a
294.972	0.0895	589944	keystroke_Key.space	Key.space	n/a
295.5115	0.045	591023	keystroke_t	t	n/a
295.6615	0.091	591323	keystroke_r	r	n/a
295.8565	0.105	591713	keystroke_a	a	n/a
296.0065	0.1205	592013	keystroke_u	u	n/a
296.277	0.0745	592554	keystroke_m	m	n/a
296.442	0.12	592884	keystroke_a	a	n/a
296.577	0.12	593154	keystroke_Key.space	Key.space	n/a
297.2065	0.105	594413	keystroke_a	a	n/a
297.4175	0.089	594835	keystroke_t	t	n/a
297.567	0.09	595134	keystroke_t	t	n/a
297.732	0.105	595464	keystroke_e	e	n/a
297.912	0.104	595824	keystroke_m	m	n/a
298.077	0.119	596154	keystroke_p	p	n/a
298.2125	0.104	596425	keystroke_t	t	n/a
298.496	0.09	596992	keystroke_Key.space	Key.space	n/a
299.172	0.09	598344	keystroke_c	c	n/a
299.277	0.09	598554	keystroke_o	o	n/a
299.4725	0.1195	598945	keystroke_n	n	n/a
299.712	0.1055	599424	keystroke_s	s	n/a
299.937	0.06	599874	keystroke_t	t	n/a
300.072	0.1205	600144	keystroke_a	a	n/a
300.177	0.135	600354	keystroke_n	n	n/a
300.297	0.09	600594	keystroke_t	t	n/a
301.167	0.135	602334	keystroke_Key.enter	Key.enter	n/a
301.308	8.8305	602616	prompt	n/a	walnut pursue page commodity\n
302.322	0.0905	604644	keystroke_w	w	n/a
302.487	0.1195	604974	keystroke_a	a	n/a
302.577	0.105	605154	keystroke_l	l	n/a
302.892	0.135	605784	keystroke_n	n	n/a
303.132	0.12	606264	keystroke_u	u	n/a
303.282	0.075	606564	keystroke_t	t	n/a
303.477	0.12	606954	keystroke_Key.space	Key.space	n/a
303.987	0.105	607974	keystroke_p	p	n/a
304.227	0.135	608454	keystroke_u	u	n/a
304.857	0.09	609714	keystroke_r	r	n/a
305.111	0.121	610222	keystroke_s	s	n/a
305.2475	0.1345	610495	keystroke_u	u	n/a
305.5915	0.09	611183	keystroke_e	e	n/a
305.742	0.1045	611484	keystroke_Key.space	Key.space	n/a
306.177	0.075	612354	keystroke_p	p	n/a
306.2365	0.12	612473	keystroke_a	a	n/a
306.4315	0.106	612863	keystroke_g	g	n/a
306.597	0.1195	613194	keystroke_e	e	n/a
306.7315	0.09	613463	keystroke_Key.space	Key.space	n/a
307.4065	0.105	614813	keystroke_c	c	n/a
307.5415	0.0755	615083	keystroke_o	o	n/a
307.7365	0.0755	615473	keystroke_m	m	n/a
307.947	0.045	615894	keystroke_m	m	n/a
308.172	0.12	616344	keystroke_o	o	n/a
308.3215	0.1205	616643	keystroke_d	d	n/a
309.477	0.12	618954	keystroke_i	i	n/a
309.612	0.0595	619224	keystroke_t	t	n/a
309.7765	0.0755	619553	keystroke_y	y	n/a
310.062	0.0745	620124	keystroke_Key.enter	Key.enter	n/a
310.141	7.138	620282	prompt	n/a	signals seats animated namespace\n
310.8265	0.105	621653	keystroke_s	s	n/a
311.022	0.105	622044	keystroke_i	i	n/a
311.157	0.075	622314	keystroke_g	g	n/a
311.307	0.105	622614	keystroke_n	n	n/a
311.532	0.09	623064	keystroke_a	a	n/a
311.623	0.134	623246	keystroke_l	l	n/a
311.802	0.09	623604	keystroke_s	s	n/a
311.922	0.105	623844	keystroke_Key.space	Key.space	n/a
312.327	0.09	624654	keystroke_s	s	n/a
312.567	0.075	625134	keystroke_e	e	n/a
312.702	0.12	625404	keystroke_a	a	n/a
312.8815	0.0605	625763	keystroke_t	t	n/a
313.1515	0.1205	626303	keystroke_s	s	n/a
313.287	0.09	626574	keystroke_Key.space	Key.space	n/a
313.632	0.12	627264	keystroke_a	a	n/a
313.782	0.075	627564	keystroke_n	n	n/a
313.962	0.09	627924	keystroke_i	i	n/a
314.157	0.105	628314	keystroke_m	m	n/a
314.322	0.105	628644	keystroke_a	a	n/a
314.547	0.105	629094	keystroke_t	t	n/a
314.7265	0.09	629453	keystroke_e	e	n/a
314.952	0.0745	629904	keystroke_d	d	n/a
315.0415	0.09	630083	keystroke_Key.space	Key.space	n/a
315.3715	0.1055	630743	keystroke_n	n	n/a
315.4915	0.135	630983	keystroke_a	a	n/a
315.9415	0.121	631883	keystroke_m	m	n/a
316.047	0.0895	632094	keystroke_e	e	n/a
316.2725	0.1045	632545	keystroke_s	s	n/a
316.4075	0.1345	632815	keystroke_p	p	n/a
316.4825	0.134	632965	keystroke_a	a	n/a
316.722	0.09	633444	keystroke_c	c	n/a
316.932	0.135	633864	keystroke_e	e	n/a
317.172	0.105	634344	keystroke_Key.enter	Key.enter	n/a
317.283	7.9155	634566	prompt	n/a	confidentiality nationwide skating athens\n
318.2225	0.059	636445	keystroke_c	c	n/a
318.342	0.0745	636684	keystroke_o	o	n/a
318.537	0.105	637074	keystroke_n	n	n/a
318.7465	0.0755	637493	keystroke_f	f	n/a
318.8965	0.1055	637793	keystroke_i	i	n/a
319.0315	0.0605	638063	keystroke_d	d	n/a
319.2265	0.0905	638453	keystroke_e	e	n/a
319.362	0.1205	638724	keystroke_n	n	n/a
319.4965	0.091	638993	keystroke_t	t	n/a
319.6325	0.104	639265	keystroke_i	i	n/a
319.7665	0.12	639533	keystroke_a	a	n/a
319.8875	0.0895	639775	keystroke_l	l	n/a
320.0665	0.12	640133	keystroke_i	i	n/a
320.1265	0.106	640253	keystroke_t	t	n/a
320.3375	0.045	640675	keystroke_y	y	n/a
320.502	0.0895	641004	keystroke_Key.space	Key.space	n/a
320.7265	0.1205	641453	keystroke_n	n	n/a
320.8315	0.1205	641663	keystroke_a	a	n/a
321.012	0.09	642024	keystroke_t	t	n/a
321.162	0.2255	642324	keystroke_i	i	n/a
321.282	0.165	642564	keystroke_o	o	n/a
321.342	0.18	642684	keystroke_n	n	n/a
321.792	0.09	643584	keystroke_w	w	n/a
321.942	0.135	643884	keystroke_i	i	n/a
322.061	0.091	644122	keystroke_d	d	n/a
322.287	0.075	644574	keystroke_e	e	n/a
322.4665	0.1055	644933	keystroke_Key.space	Key.space	n/a
322.737	0.075	645474	keystroke_s	s	n/a
322.8875	0.12	645775	keystroke_k	k	n/a
322.9765	0.09	645953	keystroke_a	a	n/a
323.2765	0.105	646553	keystroke_t	t	n/a
323.517	0.1655	647034	keystroke_i	i	n/a
323.607	0.135	647214	keystroke_n	n	n/a
323.757	0.075	647514	keystroke_g	g	n/a
323.892	0.135	647784	keystroke_Key.space	Key.space	n/a
324.192	0.06	648384	keystroke_a	a	n/a
324.357	0.09	648714	keystroke_t	t	n/a
324.477	0.105	648954	keystroke_h	h	n/a
324.597	0.0745	649194	keystroke_e	e	n/a
324.7175	0.1195	649435	keystroke_n	n	n/a
324.8825	0.1045	649765	keystroke_s	s	n/a
325.0765	0.12	650153	keystroke_Key.enter	Key.enter	n/a
325.2035	6.746	650407	prompt	n/a	efforts releases surgery fare\n
325.857	0.105	651714	keystroke_e	e	n/a
326.112	0.06	652224	keystroke_f	f	n/a
326.232	0.09	652464	keystroke_f	f	n/a
326.502	0.0445	653004	keystroke_o	o	n/a
326.937	0.059	653874	keystroke_r	r	n/a
327.1765	0.0745	654353	keystroke_t	t	n/a
327.402	0.105	654804	keystroke_s	s	n/a
327.552	0.1195	655104	keystroke_Key.space	Key.space	n/a
327.882	0.1345	655764	keystroke_r	r	n/a
328.032	0.0905	656064	keystroke_e	e	n/a
328.166	0.166	656332	keystroke_l	l	n/a
328.257	0.09	656514	keystroke_e	e	n/a
328.407	0.135	656814	keystroke_a	a	n/a
328.512	0.135	657024	keystroke_s	s	n/a
328.767	0.075	657534	keystroke_e	e	n/a
328.977	0.09	657954	keystroke_s	s	n/a
329.112	0.12	658224	keystroke_Key.space	Key.space	n/a
329.382	0.12	658764	keystroke_s	s	n/a
329.532	0.12	659064	keystroke_u	u	n/a
329.607	0.09	659214	keystroke_r	r	n/a
329.8465	0.075	659693	keystroke_g	g	n/a
329.9975	0.1195	659995	keystroke_e	e	n/a
330.102	0.1205	660204	keystroke_r	r	n/a
330.237	0.1045	660474	keystroke_y	y	n/a
330.552	0.1345	661104	keystroke_Key.space	Key.space	n/a
331.227	0.09	662454	keystroke_f	f	n/a
331.362	0.15	662724	keystroke_a	a	n/a
331.497	0.18	662994	keystroke_r	r	n/a
331.602	0.15	663204	keystroke_e	e	n/a
331.8415	0.1055	663683	keystroke_Key.enter	Key.enter	n/a
331.9535	7.571	663907	prompt	n/a	behalf victory offshore clearance\n
333.537	0.1045	667074	keystroke_b	b	n/a
333.672	0.089	667344	keystroke_e	e	n/a
333.792	0.1045	667584	keystroke_h	h	n/a
333.882	0.1355	667764	keystroke_a	a	n/a
334.062	0.12	668124	keystroke_l	l	n/a
334.227	0.0895	668454	keystroke_f	f	n/a
334.436	0.106	668872	keystroke_Key.space	Key.space	n/a
335.067	0.09	670134	keystroke_v	v	n/a
335.2615	0.105	670523	keystroke_i	i	n/a
335.3815	0.1205	670763	keystroke_c	c	n/a
335.6665	0.075	671333	keystroke_t	t	n/a
335.7865	0.12	671573	keystroke_o	o	n/a
335.892	0.105	671784	keystroke_r	r	n/a
336.1315	0.105	672263	keystroke_y	y	n/a
336.4015	0.105	672803	keystroke_Key.space	Key.space	n/a
336.642	0.1045	673284	keystroke_o	o	n/a
336.792	0.0595	673584	keystroke_f	f	n/a
336.957	0.0595	673914	keystroke_f	f	n/a
337.077	0.165	674154	keystroke_s	s	n/a
337.242	0.09	674484	keystroke_h	h	n/a
337.437	0.12	674874	keystroke_o	o	n/a
337.527	0.135	675054	keystroke_r	r	n/a
337.632	0.12	675264	keystroke_e	e	n/a
337.8415	0.0905	675683	keystroke_Key.space	Key.space	n/a
338.112	0.12	676224	keystroke_c	c	n/a
338.247	0.15	676494	keystroke_l	l	n/a
338.382	0.075	676764	keystroke_e	e	n/a
338.502	0.165	677004	keystroke_a	a	n/a
338.622	0.12	677244	keystroke_r	r	n/a
338.8315	0.106	677663	keystroke_a	a	n/a
338.9825	0.119	677965	keystroke_n	n	n/a
339.0865	0.195	678173	keystroke_c	c	n/a
339.2365	0.1355	678473	keystroke_e	e	n/a
339.4015	0.12	678803	keystroke_Key.enter	Key.enter	n/a
339.5275	7.9305	679055	prompt	n/a	responsible detailed formats hazardous\n
340.212	0.105	680424	keystroke_r	r	n/a
340.287	0.12	680574	keystroke_e	e	n/a
341.307	0.12	682614	keystroke_s	s	n/a
341.457	0.075	682914	keystroke_p	p	n/a
341.547	0.09	683094	keystroke_o	o	n/a
341.772	0.12	683544	keystroke_n	n	n/a
341.922	0.135	683844	keystroke_s	s	n/a
342.011	0.1065	684022	keystroke_i	i	n/a
342.192	0.0895	684384	keystroke_b	b	n/a
342.3725	0.104	684745	keystroke_l	l	n/a
342.4465	0.105	684893	keystroke_e	e	n/a
342.5815	0.105	685163	keystroke_Key.space	Key.space	n/a
342.7915	0.105	685583	keystroke_d	d	n/a
342.9865	0.0905	685973	keystroke_e	e	n/a
343.1515	0.09	686303	keystroke_t	t	n/a
343.347	0.135	686694	keystroke_a	a	n/a
343.467	0.15	686934	keystroke_i	i	n/a
343.587	0.15	687174	keystroke_l	l	n/a
343.692	0.105	687384	keystroke_e	e	n/a
343.887	0.105	687774	keystroke_d	d	n/a
344.007	0.105	688014	keystroke_Key.space	Key.space	n/a
344.1725	0.0745	688345	keystroke_f	f	n/a
344.292	0.105	688584	keystroke_o	o	n/a
344.367	0.105	688734	keystroke_r	r	n/a
344.517	0.091	689034	keystroke_m	m	n/a
344.562	0.15	689124	keystroke_a	a	n/a
344.757	0.12	689514	keystroke_t	t	n/a
345.042	0.105	690084	keystroke_s	s	n/a
345.162	0.1045	690324	keystroke_Key.space	Key.space	n/a
345.7015	0.1055	691403	keystroke_h	h	n/a
345.776	0.106	691552	keystroke_a	a	n/a
346.062	0.0895	692124	keystroke_z	z	n/a
346.286	0.076	692572	keystroke_a	a	n/a
346.466	0.061	692932	keystroke_r	r	n/a
346.7065	0.06	693413	keystroke_d	d	n/a
346.8865	0.195	693773	keystroke_o	o	n/a
346.9765	0.15	693953	keystroke_u	u	n/a
347.187	0.1205	694374	keystroke_s	s	n/a
347.367	0.09	694734	keystroke_Key.enter	Key.enter	n/a
347.4615	7.1975	694923	prompt	n/a	memorial timely recall tract\n
348.132	0.104	696264	keystroke_m	m	n/a
348.282	0.12	696564	keystroke_e	e	n/a
348.417	0.09	696834	keystroke_m	m	n/a
348.672	0.1045	697344	keystroke_o	o	n/a
348.746	0.091	697492	keystroke_r	r	n/a
348.912	0.12	697824	keystroke_i	i	n/a
349.077	0.134	698154	keystroke_a	a	n/a
349.181	0.091	698362	keystroke_l	l	n/a
349.407	0.1195	698814	keystroke_Key.space	Key.space	n/a
349.887	0.0445	699774	keystroke_i	i	n/a
350.4865	0.09	700973	keystroke_Key.backspace	Key.backspace	n/a
350.6065	0.075	701213	keystroke_t	t	n/a
351.2815	0.0905	702563	keystroke_i	i	n/a
351.462	0.105	702924	keystroke_m	m	n/a
351.612	0.105	703224	keystroke_e	e	n/a
351.762	0.12	703524	keystroke_l	l	n/a
351.911	0.12	703822	keystroke_y	y	n/a
352.1365	0.1055	704273	keystroke_Key.space	Key.space	n/a
352.436	0.105	704872	keystroke_r	r	n/a
352.511	0.0905	705022	keystroke_e	e	n/a
352.706	0.106	705412	keystroke_c	c	n/a
352.902	0.135	705804	keystroke_a	a	n/a
352.9765	0.09	705953	keystroke_l	l	n/a
353.172	0.059	706344	keystroke_l	l	n/a
353.337	0.105	706674	keystroke_Key.space	Key.space	n/a
353.5015	0.1045	707003	keystroke_t	t	n/a
353.711	0.061	707422	keystroke_r	r	n/a
353.862	0.104	707724	keystroke_a	a	n/a
354.042	0.1055	708084	keystroke_c	c	n/a
354.311	0.105	708622	keystroke_t	t	n/a
354.521	0.135	709042	keystroke_Key.enter	Key.enter	n/a
354.6615	3.882	709323	prompt	n/a	that apps never game\n
355.272	0.075	710544	keystroke_t	t	n/a
355.407	0.12	710814	keystroke_h	h	n/a
355.497	0.166	710994	keystroke_a	a	n/a
355.647	0.075	711294	keystroke_t	t	n/a
355.782	0.12	711564	keystroke_Key.space	Key.space	n/a
355.977	0.105	711954	keystroke_a	a	n/a
356.067	0.09	712134	keystroke_p	p	n/a
356.232	0.12	712464	keystroke_p	p	n/a
356.397	0.09	712794	keystroke_s	s	n/a
356.532	0.105	713064	keystroke_Key.space	Key.space	n/a
356.802	0.12	713604	keystroke_n	n	n/a
356.877	0.075	713754	keystroke_e	e	n/a
357.072	0.06	714144	keystroke_v	v	n/a
357.237	0.135	714474	keystroke_e	e	n/a
357.327	0.12	714654	keystroke_r	r	n/a
357.507	0.135	715014	keystroke_Key.space	Key.space	n/a
357.822	0.075	715644	keystroke_g	g	n/a
358.002	0.09	716004	keystroke_a	a	n/a
358.122	0.12	716244	keystroke_m	m	n/a
358.272	0.105	716544	keystroke_e	e	n/a
358.452	0.09	716904	keystroke_Key.enter	Key.enter	n/a
358.5475	7.226	717095	prompt	n/a	monday veteran celebration trips\n
359.247	0.0895	718494	keystroke_m	m	n/a
359.412	0.0745	718824	keystroke_o	o	n/a
359.592	0.12	719184	keystroke_n	n	n/a
359.697	0.09	719394	keystroke_d	d	n/a
359.832	0.0895	719664	keystroke_a	a	n/a
359.9365	0.09	719873	keystroke_y	y	n/a
360.1315	0.12	720263	keystroke_Key.space	Key.space	n/a
360.2965	0.0905	720593	keystroke_v	v	n/a
360.492	0.12	720984	keystroke_e	e	n/a
360.687	0.105	721374	keystroke_t	t	n/a
360.867	0.135	721734	keystroke_e	e	n/a
360.957	0.09	721914	keystroke_r	r	n/a
361.152	0.075	722304	keystroke_a	a	n/a
361.347	0.105	722694	keystroke_n	n	n/a
361.572	0.12	723144	keystroke_Key.space	Key.space	n/a
361.752	0.135	723504	keystroke_c	c	n/a
361.992	0.105	723984	keystroke_e	e	n/a
362.127	0.105	724254	keystroke_l	l	n/a
362.742	0.135	725484	keystroke_e	e	n/a
363.507	0.09	727014	keystroke_b	b	n/a
363.597	0.105	727194	keystroke_r	r	n/a
363.762	0.105	727524	keystroke_a	a	n/a
363.912	0.09	727824	keystroke_t	t	n/a
364.017	0.195	728034	keystroke_i	i	n/a
364.077	0.18	728154	keystroke_o	o	n/a
364.167	0.12	728334	keystroke_n	n	n/a
364.392	0.135	728784	keystroke_Key.space	Key.space	n/a
364.722	0.09	729444	keystroke_t	t	n/a
364.947	0.09	729894	keystroke_r	r	n/a
365.142	0.0905	730284	keystroke_i	i	n/a
365.322	0.12	730644	keystroke_p	p	n/a
365.487	0.105	730974	keystroke_s	s	n/a
365.652	0.12	731304	keystroke_Key.enter	Key.enter	n/a
365.7765	6.2525	731553	prompt	n/a	thinking farming dealer tunes\n
366.4925	0.1195	732985	keystroke_t	t	n/a
366.6425	0.1035	733285	keystroke_h	h	n/a
366.732	0.1205	733464	keystroke_i	i	n/a
366.882	0.18	733764	keystroke_n	n	n/a
367.077	0.12	734154	keystroke_k	k	n/a
367.286	0.166	734572	keystroke_i	i	n/a
367.392	0.12	734784	keystroke_n	n	n/a
367.497	0.06	734994	keystroke_g	g	n/a
367.647	0.12	735294	keystroke_Key.space	Key.space	n/a
367.902	0.075	735804	keystroke_f	f	n/a
368.262	0.1045	736524	keystroke_a	a	n/a
368.4425	0.089	736885	keystroke_r	r	n/a
368.5765	0.075	737153	keystroke_m	m	n/a
368.7265	0.1955	737453	keystroke_i	i	n/a
368.8165	0.135	737633	keystroke_n	n	n/a
368.9815	0.075	737963	keystroke_g	g	n/a
369.1315	0.105	738263	keystroke_Key.space	Key.space	n/a
369.4165	0.0755	738833	keystroke_d	d	n/a
369.5975	0.104	739195	keystroke_e	e	n/a
369.7315	0.1345	739463	keystroke_a	a	n/a
369.837	0.12	739674	keystroke_l	l	n/a
369.972	0.15	739944	keystroke_e	e	n/a
370.092	0.135	740184	keystroke_r	r	n/a
370.301	0.09	740602	keystroke_Key.space	Key.space	n/a
371.156	0.0755	742312	keystroke_t	t	n/a
371.2915	0.135	742583	keystroke_u	u	n/a
371.4115	0.1355	742823	keystroke_n	n	n/a
371.4865	0.105	742973	keystroke_e	e	n/a
371.6815	0.12	743363	keystroke_s	s	n/a
371.8615	0.165	743723	keystroke_Key.enter	Key.enter	n/a
372.0315	8.5925	744063	prompt	n/a	passes portrait gourmet chevy\n
372.911	0.151	745822	keystroke_p	p	n/a
373.0465	0.12	746093	keystroke_a	a	n/a
373.227	0.0895	746454	keystroke_s	s	n/a
373.3915	0.1055	746783	keystroke_s	s	n/a
373.602	0.075	747204	keystroke_e	e	n/a
373.812	0.105	747624	keystroke_s	s	n/a
373.947	0.105	747894	keystroke_Key.space	Key.space	n/a
374.2465	0.105	748493	keystroke_p	p	n/a
374.4565	0.135	748913	keystroke_o	o	n/a
374.6215	0.0605	749243	keystroke_r	r	n/a
374.8165	0.0755	749633	keystroke_t	t	n/a
375.0265	0.075	750053	keystroke_r	r	n/a
375.1765	0.1495	750353	keystroke_a	a	n/a
375.281	0.196	750562	keystroke_i	i	n/a
375.687	0.075	751374	keystroke_t	t	n/a
375.912	0.089	751824	keystroke_Key.space	Key.space	n/a
376.632	0.074	753264	keystroke_g	g	n/a
376.842	0.075	753684	keystroke_r	r	n/a
376.947	0.15	753894	keystroke_o	o	n/a
377.022	0.105	754044	keystroke_u	u	n/a
377.277	0.1355	754554	keystroke_m	m	n/a
377.397	0.105	754794	keystroke_e	e	n/a
377.592	0.075	755184	keystroke_t	t	n/a
377.742	0.12	755484	keystroke_Key.space	Key.space	n/a
377.9515	0.1055	755903	keystroke_c	c	n/a
378.1015	0.135	756203	keystroke_h	h	n/a
378.372	0.0895	756744	keystroke_e	e	n/a
378.5665	0.136	757133	keystroke_c	c	n/a
378.6865	0.1055	757373	keystroke_y	y	n/a
379.122	0.0745	758244	keystroke_Key.backspace	Key.backspace	n/a
379.2865	0.076	758573	keystroke_Key.backspace	Key.backspace	n/a
380.0665	0.0905	760133	keystroke_v	v	n/a
380.2015	0.106	760403	keystroke_y	y	n/a
380.532	0.09	761064	keystroke_Key.enter	Key.enter	n/a
380.6275	6.552	761255	prompt	n/a	charming he've throat essays\n
381.3565	0.1055	762713	keystroke_c	c	n/a
381.492	0.105	762984	keystroke_h	h	n/a
381.597	0.105	763194	keystroke_a	a	n/a
381.731	0.105	763462	keystroke_r	r	n/a
381.8665	0.076	763733	keystroke_m	m	n/a
382.047	0.165	764094	keystroke_i	i	n/a
382.167	0.12	764334	keystroke_n	n	n/a
382.302	0.089	764604	keystroke_g	g	n/a
382.451	0.105	764902	keystroke_Key.space	Key.space	n/a
382.737	0.12	765474	keystroke_h	h	n/a
382.827	0.104	765654	keystroke_e	e	n/a
383.232	0.12	766464	keystroke_'	'	n/a
383.607	0.045	767214	keystroke_v	v	n/a
383.8015	0.1055	767603	keystroke_e	e	n/a
383.967	0.105	767934	keystroke_Key.space	Key.space	n/a
384.5815	0.09	769163	keystroke_t	t	n/a
384.6865	0.09	769373	keystroke_h	h	n/a
384.837	0.075	769674	keystroke_r	r	n/a
385.062	0.135	770124	keystroke_o	o	n/a
385.362	0.075	770724	keystroke_a	a	n/a
385.527	0.09	771054	keystroke_t	t	n/a
385.767	0.075	771534	keystroke_Key.space	Key.space	n/a
386.052	0.075	772104	keystroke_e	e	n/a
386.277	0.045	772554	keystroke_s	s	n/a
386.427	0.135	772854	keystroke_s	s	n/a
386.592	0.12	773184	keystroke_a	a	n/a
386.727	0.135	773454	keystroke_y	y	n/a
386.877	0.12	773754	keystroke_s	s	n/a
387.102	0.075	774204	keystroke_Key.enter	Key.enter	n/a
387.183	9.5075	774366	prompt	n/a	drinks tells forever mobiles\n
388.257	0.12	776514	keystroke_d	d	n/a
388.497	0.09	776994	keystroke_r	r	n/a
388.602	0.105	777204	keystroke_i	i	n/a
388.797	0.105	777594	keystroke_n	n	n/a
388.9765	0.1055	777953	keystroke_k	k	n/a
389.112	0.1205	778224	keystroke_s	s	n/a
389.277	0.12	778554	keystroke_Key.space	Key.space	n/a
389.847	0.0745	779694	keystroke_t	t	n/a
390.0265	0.09	780053	keystroke_e	e	n/a
390.1175	0.1045	780235	keystroke_l	l	n/a
390.282	0.075	780564	keystroke_l	l	n/a
390.402	0.0905	780804	keystroke_s	s	n/a
390.567	0.12	781134	keystroke_Key.space	Key.space	n/a
390.942	0.09	781884	keystroke_f	f	n/a
391.077	0.135	782154	keystroke_o	o	n/a
391.197	0.0905	782394	keystroke_r	r	n/a
391.392	0.075	782784	keystroke_e	e	n/a
391.572	0.09	783144	keystroke_v	v	n/a
391.737	0.12	783474	keystroke_e	e	n/a
392.322	0.06	784644	keystroke_r	r	n/a
392.531	0.106	785062	keystroke_Key.space	Key.space	n/a
392.847	0.09	785694	keystroke_m	m	n/a
393.072	0.0755	786144	keystroke_o	o	n/a
393.192	0.0745	786384	keystroke_v	v	n/a
393.3125	0.1045	786625	keystroke_i	i	n/a
393.462	0.15	786924	keystroke_l	l	n/a
393.5375	0.119	787075	keystroke_e	e	n/a
393.8065	0.1205	787613	keystroke_s	s	n/a
394.272	0.09	788544	keystroke_Key.backspace	Key.backspace	n/a
394.467	0.06	788934	keystroke_Key.backspace	Key.backspace	n/a
394.632	0.105	789264	keystroke_Key.backspace	Key.backspace	n/a
394.872	0.134	789744	keystroke_Key.backspace	Key.backspace	n/a
395.457	0.105	790914	keystroke_Key.backspace	Key.backspace	n/a
395.697	0.075	791394	keystroke_b	b	n/a
395.9225	0.09	791845	keystroke_i	i	n/a
396.087	0.1345	792174	keystroke_l	l	n/a
396.162	0.0905	792324	keystroke_e	e	n/a
396.3865	0.075	792773	keystroke_s	s	n/a
396.5815	0.106	793163	keystroke_Key.enter	Key.enter	n/a
396.6975	7.4765	793395	prompt	n/a	love cups bookings douglas\n
397.362	0.0895	794724	keystroke_l	l	n/a
397.572	0.1345	795144	keystroke_o	o	n/a
397.632	0.1205	795264	keystroke_v	v	n/a
397.857	0.0745	795714	keystroke_e	e	n/a
398.022	0.1045	796044	keystroke_Key.space	Key.space	n/a
398.397	0.09	796794	keystroke_c	c	n/a
398.502	0.135	797004	keystroke_u	u	n/a
398.8325	0.0145	797665	keystroke_p	p	n/a
398.862	0.09	797724	keystroke_s	s	n/a
399.102	0.105	798204	keystroke_Key.space	Key.space	n/a
400.077	0.09	800154	keystroke_b	b	n/a
400.227	0.09	800454	keystroke_o	o	n/a
400.392	0.105	800784	keystroke_o	o	n/a
400.587	0.09	801174	keystroke_k	k	n/a
400.797	0.075	801594	keystroke_i	i	n/a
400.902	0.15	801804	keystroke_n	n	n/a
400.992	0.075	801984	keystroke_g	g	n/a
401.217	0.135	802434	keystroke_s	s	n/a
401.472	0.105	802944	keystroke_Key.space	Key.space	n/a
401.787	0.12	803574	keystroke_d	d	n/a
402.072	0.195	804144	keystroke_o	o	n/a
402.147	0.135	804294	keystroke_u	u	n/a
403.077	0.06	806154	keystroke_g	g	n/a
403.272	0.105	806544	keystroke_l	l	n/a
403.4075	0.1795	806815	keystroke_a	a	n/a
403.542	0.12	807084	keystroke_s	s	n/a
404.0665	0.1055	808133	keystroke_Key.enter	Key.enter	n/a
404.178	8.0205	808356	prompt	n/a	duplicate specializing mentioned actually\n
405.6725	0.134	811345	keystroke_d	d	n/a
405.9265	0.075	811853	keystroke_u	u	n/a
406.107	0.0895	812214	keystroke_p	p	n/a
406.3015	0.12	812603	keystroke_l	l	n/a
406.482	0.1345	812964	keystroke_i	i	n/a
406.6165	0.12	813233	keystroke_c	c	n/a
406.812	0.075	813624	keystroke_a	a	n/a
407.0065	0.106	814013	keystroke_t	t	n/a
407.1415	0.1205	814283	keystroke_e	e	n/a
407.3515	0.09	814703	keystroke_Key.space	Key.space	n/a
407.517	0.1645	815034	keystroke_s	s	n/a
407.6965	0.12	815393	keystroke_p	p	n/a
407.787	0.075	815574	keystroke_e	e	n/a
407.9525	0.119	815905	keystroke_c	c	n/a
408.057	0.1205	816114	keystroke_i	i	n/a
408.207	0.135	816414	keystroke_a	a	n/a
408.3115	0.106	816623	keystroke_l	l	n/a
408.5065	0.12	817013	keystroke_i	i	n/a
408.732	0.1345	817464	keystroke_z	z	n/a
408.8215	0.1805	817643	keystroke_i	i	n/a
408.9415	0.121	817883	keystroke_n	n	n/a
409.0465	0.105	818093	keystroke_g	g	n/a
409.1825	0.119	818365	keystroke_Key.space	Key.space	n/a
409.4675	0.089	818935	keystroke_m	m	n/a
409.5575	0.089	819115	keystroke_e	e	n/a
409.7075	0.089	819415	keystroke_n	n	n/a
409.8265	0.0755	819653	keystroke_t	t	n/a
409.932	0.2105	819864	keystroke_i	i	n/a
410.022	0.15	820044	keystroke_o	o	n/a
410.0825	0.1345	820165	keystroke_n	n	n/a
410.157	0.1205	820314	keystroke_e	e	n/a
410.367	0.12	820734	keystroke_d	d	n/a
410.502	0.105	821004	keystroke_Key.space	Key.space	n/a
410.652	0.12	821304	keystroke_a	a	n/a
410.937	0.09	821874	keystroke_c	c	n/a
411.192	0.1045	822384	keystroke_t	t	n/a
411.342	0.09	822684	keystroke_u	u	n/a
411.4615	0.15	822923	keystroke_a	a	n/a
411.5675	0.059	823135	keystroke_l	l	n/a
411.717	0.1345	823434	keystroke_l	l	n/a
411.8375	0.089	823675	keystroke_y	y	n/a
412.0915	0.105	824183	keystroke_Key.enter	Key.enter	n/a
412.2025	6.1465	824405	prompt	n/a	wallpapers bell suffering ancient\n
412.8865	0.09	825773	keystroke_w	w	n/a
413.0815	0.105	826163	keystroke_a	a	n/a
413.1715	0.0755	826343	keystroke_l	l	n/a
413.3215	0.09	826643	keystroke_l	l	n/a
413.547	0.0745	827094	keystroke_p	p	n/a
413.652	0.12	827304	keystroke_a	a	n/a
413.7865	0.1045	827573	keystroke_p	p	n/a
413.8775	0.1345	827755	keystroke_e	e	n/a
413.9815	0.1045	827963	keystroke_r	r	n/a
414.2215	0.1055	828443	keystroke_s	s	n/a
414.3715	0.1055	828743	keystroke_Key.space	Key.space	n/a
414.612	0.0905	829224	keystroke_b	b	n/a
414.747	0.075	829494	keystroke_e	e	n/a
414.837	0.074	829674	keystroke_l	l	n/a
415.016	0.0765	830032	keystroke_l	l	n/a
415.226	0.105	830452	keystroke_Key.space	Key.space	n/a
415.436	0.091	830872	keystroke_s	s	n/a
415.6175	0.12	831235	keystroke_u	u	n/a
415.767	0.0605	831534	keystroke_f	f	n/a
415.917	0.105	831834	keystroke_f	f	n/a
416.066	0.1365	832132	keystroke_e	e	n/a
416.186	0.091	832372	keystroke_r	r	n/a
416.3215	0.196	832643	keystroke_i	i	n/a
416.4425	0.135	832885	keystroke_n	n	n/a
416.5615	0.091	833123	keystroke_g	g	n/a
416.876	0.016	833752	keystroke_Key.space	Key.space	n/a
416.9675	0.149	833935	keystroke_a	a	n/a
417.282	0.105	834564	keystroke_n	n	n/a
417.4175	0.1195	834835	keystroke_c	c	n/a
417.5965	0.0605	835193	keystroke_i	i	n/a
417.6425	0.1345	835285	keystroke_e	e	n/a
417.822	0.1205	835644	keystroke_n	n	n/a
417.957	0.105	835914	keystroke_t	t	n/a
418.242	0.1045	836484	keystroke_Key.enter	Key.enter	n/a
418.352	7.962	836704	prompt	n/a	dell tournament declined tasks\n
419.157	0.075	838314	keystroke_d	d	n/a
419.367	0.105	838734	keystroke_e	e	n/a
419.457	0.06	838914	keystroke_l	l	n/a
419.622	0.0605	839244	keystroke_l	l	n/a
419.8465	0.0905	839693	keystroke_Key.space	Key.space	n/a
420.252	0.075	840504	keystroke_t	t	n/a
420.432	0.1645	840864	keystroke_o	o	n/a
420.522	0.1495	841044	keystroke_u	u	n/a
420.612	0.0895	841224	keystroke_r	r	n/a
420.762	0.1045	841524	keystroke_n	n	n/a
420.912	0.105	841824	keystroke_a	a	n/a
421.062	0.0895	842124	keystroke_m	m	n/a
421.167	0.1045	842334	keystroke_e	e	n/a
421.3165	0.105	842633	keystroke_n	n	n/a
421.437	0.105	842874	keystroke_t	t	n/a
421.6165	0.105	843233	keystroke_Key.space	Key.space	n/a
422.2775	0.09	844555	keystroke_d	d	n/a
422.4865	0.106	844973	keystroke_e	e	n/a
422.682	0.0905	845364	keystroke_c	c	n/a
422.8325	0.12	845665	keystroke_l	l	n/a
422.9825	0.149	845965	keystroke_i	i	n/a
423.0425	0.21	846085	keystroke_n	n	n/a
423.1625	0.1195	846325	keystroke_e	e	n/a
423.432	0.0895	846864	keystroke_d	d	n/a
423.582	0.1195	847164	keystroke_Key.space	Key.space	n/a
423.732	0.1045	847464	keystroke_t	t	n/a
423.9565	0.121	847913	keystroke_a	a	n/a
424.1215	0.1205	848243	keystroke_k	k	n/a
424.3625	0.1045	848725	keystroke_s	s	n/a
425.352	0.105	850704	keystroke_Key.backspace	Key.backspace	n/a
425.547	0.06	851094	keystroke_Key.backspace	Key.backspace	n/a
425.727	0.075	851454	keystroke_s	s	n/a
425.862	0.105	851724	keystroke_k	k	n/a
426.087	0.075	852174	keystroke_s	s	n/a
426.207	0.105	852414	keystroke_Key.enter	Key.enter	n/a
426.3185	6.5055	852637	prompt	n/a	pendant attraction spot near\n
427.0925	0.1045	854185	keystroke_p	p	n/a
427.182	0.105	854364	keystroke_e	e	n/a
427.317	0.105	854634	keystroke_n	n	n/a
427.437	0.09	854874	keystroke_d	d	n/a
427.6175	0.1195	855235	keystroke_a	a	n/a
427.752	0.105	855504	keystroke_n	n	n/a
428.022	0.105	856044	keystroke_t	t	n/a
428.202	0.12	856404	keystroke_Key.space	Key.space	n/a
428.472	0.06	856944	keystroke_a	a	n/a
428.652	0.06	857304	keystroke_t	t	n/a
429.237	0.0905	858474	keystroke_t	t	n/a
429.477	0.09	858954	keystroke_r	r	n/a
429.642	0.105	859284	keystroke_a	a	n/a
429.8515	0.0605	859703	keystroke_c	c	n/a
430.062	0.075	860124	keystroke_t	t	n/a
430.197	0.21	860394	keystroke_i	i	n/a
430.317	0.15	860634	keystroke_o	o	n/a
430.362	0.12	860724	keystroke_n	n	n/a
430.572	0.1205	861144	keystroke_Key.space	Key.space	n/a
430.707	0.12	861414	keystroke_s	s	n/a
430.828	0.104	861656	keystroke_p	p	n/a
430.992	0.075	861984	keystroke_o	o	n/a
431.4875	0.0745	862975	keystroke_t	t	n/a
431.952	0.12	863904	keystroke_Key.space	Key.space	n/a
432.2375	0.1195	864475	keystroke_n	n	n/a
432.297	0.105	864594	keystroke_e	e	n/a
432.447	0.165	864894	keystroke_a	a	n/a
432.536	0.136	865072	keystroke_r	r	n/a
432.702	0.12	865404	keystroke_Key.enter	Key.enter	n/a
432.8275	7.301	865655	prompt	n/a	warning slight aqua burke\n
433.7215	0.076	867443	keystroke_w	w	n/a
433.8875	0.15	867775	keystroke_a	a	n/a
434.0375	0.105	868075	keystroke_r	r	n/a
434.2925	0.075	868585	keystroke_n	n	n/a
434.4725	0.18	868945	keystroke_i	i	n/a
434.5465	0.151	869093	keystroke_n	n	n/a
434.682	0.0905	869364	keystroke_g	g	n/a
434.8475	0.1195	869695	keystroke_Key.space	Key.space	n/a
435.102	0.135	870204	keystroke_s	s	n/a
435.717	0.105	871434	keystroke_l	l	n/a
435.9265	0.12	871853	keystroke_i	i	n/a
436.0315	0.09	872063	keystroke_g	g	n/a
436.2115	0.09	872423	keystroke_h	h	n/a
436.2715	0.105	872543	keystroke_t	t	n/a
436.587	0.105	873174	keystroke_Key.space	Key.space	n/a
437.562	0.1195	875124	keystroke_a	a	n/a
438.1015	0.091	876203	keystroke_q	q	n/a
438.3415	0.106	876683	keystroke_u	u	n/a
438.4325	0.1195	876865	keystroke_a	a	n/a
438.6865	0.1055	877373	keystroke_Key.space	Key.space	n/a
439.242	0.1055	878484	keystroke_b	b	n/a
439.4065	0.121	878813	keystroke_u	u	n/a
439.4975	0.06	878995	keystroke_r	r	n/a
439.6765	0.121	879353	keystroke_k	k	n/a
439.7815	0.091	879563	keystroke_e	e	n/a
440.0065	0.12	880013	keystroke_Key.enter	Key.enter	n/a
440.1315	7.6475	880263	prompt	n/a	steps on construct reservations\n
440.8765	0.106	881753	keystroke_s	s	n/a
441.1325	0.074	882265	keystroke_t	t	n/a
441.2815	0.091	882563	keystroke_e	e	n/a
441.4165	0.12	882833	keystroke_p	p	n/a
441.6115	0.091	883223	keystroke_s	s	n/a
441.732	0.12	883464	keystroke_Key.space	Key.space	n/a
442.032	0.0595	884064	keystroke_o	o	n/a
442.242	0.075	884484	keystroke_n	n	n/a
442.4215	0.1205	884843	keystroke_Key.space	Key.space	n/a
442.6465	0.105	885293	keystroke_c	c	n/a
442.767	0.075	885534	keystroke_o	o	n/a
442.947	0.12	885894	keystroke_n	n	n/a
443.052	0.09	886104	keystroke_s	s	n/a
443.292	0.09	886584	keystroke_t	t	n/a
444.492	0.09	888984	keystroke_r	r	n/a
444.6425	0.1345	889285	keystroke_u	u	n/a
444.792	0.105	889584	keystroke_c	c	n/a
445.077	0.075	890154	keystroke_t	t	n/a
445.272	0.12	890544	keystroke_Key.space	Key.space	n/a
445.602	0.1645	891204	keystroke_r	r	n/a
445.7515	0.09	891503	keystroke_e	e	n/a
445.9925	0.105	891985	keystroke_s	s	n/a
446.217	0.1505	892434	keystroke_e	e	n/a
446.322	0.15	892644	keystroke_r	r	n/a
446.667	0.09	893334	keystroke_v	v	n/a
446.832	0.15	893664	keystroke_a	a	n/a
447.012	0.09	894024	keystroke_t	t	n/a
447.117	0.21	894234	keystroke_i	i	n/a
447.192	0.18	894384	keystroke_o	o	n/a
447.297	0.15	894594	keystroke_n	n	n/a
447.477	0.135	894954	keystroke_s	s	n/a
447.672	0.105	895344	keystroke_Key.enter	Key.enter	n/a
447.7825	8.5615	895565	prompt	n/a	speeds charged mysql convention\n
448.362	0.0905	896724	keystroke_s	s	n/a
448.557	0.135	897114	keystroke_p	p	n/a
448.677	0.045	897354	keystroke_e	e	n/a
448.828	0.089	897656	keystroke_e	e	n/a
449.052	0.06	898104	keystroke_d	d	n/a
449.247	0.09	898494	keystroke_s	s	n/a
449.3965	0.12	898793	keystroke_Key.space	Key.space	n/a
449.6965	0.0905	899393	keystroke_c	c	n/a
449.8465	0.12	899693	keystroke_h	h	n/a
449.9065	0.225	899813	keystroke_a	a	n/a
450.042	0.1055	900084	keystroke_r	r	n/a
450.3125	0.0445	900625	keystroke_g	g	n/a
450.4175	0.1045	900835	keystroke_e	e	n/a
450.642	0.105	901284	keystroke_d	d	n/a
450.792	0.09	901584	keystroke_Key.space	Key.space	n/a
451.032	0.105	902064	keystroke_m	m	n/a
451.437	0.1055	902874	keystroke_y	y	n/a
451.7215	0.105	903443	keystroke_s	s	n/a
453.0125	0.1195	906025	keystroke_q	q	n/a
453.2065	0.12	906413	keystroke_l	l	n/a
453.5065	0.1055	907013	keystroke_Key.space	Key.space	n/a
454.092	0.105	908184	keystroke_c	c	n/a
454.182	0.075	908364	keystroke_o	o	n/a
454.362	0.12	908724	keystroke_n	n	n/a
455.2615	0.06	910523	keystroke_v	v	n/a
455.427	0.1205	910854	keystroke_e	e	n/a
455.5615	0.06	911123	keystroke_n	n	n/a
455.6525	0.0745	911305	keystroke_t	t	n/a
455.787	0.211	911574	keystroke_i	i	n/a
455.8625	0.1645	911725	keystroke_o	o	n/a
455.937	0.165	911874	keystroke_n	n	n/a
456.252	0.09	912504	keystroke_Key.enter	Key.enter	n/a
456.3475	8.217	912695	prompt	n/a	graduate here fact constitution\n
457.4665	0.0755	914933	keystroke_g	g	n/a
457.6475	0.074	915295	keystroke_r	r	n/a
457.827	0.09	915654	keystroke_a	a	n/a
457.992	0.0905	915984	keystroke_d	d	n/a
458.112	0.1205	916224	keystroke_u	u	n/a
458.187	0.0595	916374	keystroke_a	a	n/a
458.3665	0.1205	916733	keystroke_t	t	n/a
458.532	0.1195	917064	keystroke_e	e	n/a
458.742	0.12	917484	keystroke_Key.space	Key.space	n/a
459.012	0.1205	918024	keystroke_h	h	n/a
459.057	0.165	918114	keystroke_e	e	n/a
459.192	0.151	918384	keystroke_r	r	n/a
459.312	0.1045	918624	keystroke_e	e	n/a
459.492	0.12	918984	keystroke_Key.space	Key.space	n/a
460.2715	0.09	920543	keystroke_f	f	n/a
460.4215	0.12	920843	keystroke_a	a	n/a
460.6025	0.1195	921205	keystroke_c	c	n/a
460.917	0.1205	921834	keystroke_t	t	n/a
461.2025	0.105	922405	keystroke_Key.space	Key.space	n/a
461.7725	0.1195	923545	keystroke_c	c	n/a
461.9065	0.046	923813	keystroke_o	o	n/a
462.0875	0.105	924175	keystroke_n	n	n/a
462.2525	0.09	924505	keystroke_s	s	n/a
462.5075	0.09	925015	keystroke_t	t	n/a
463.0775	0.12	926155	keystroke_i	i	n/a
463.2425	0.0895	926485	keystroke_t	t	n/a
463.452	0.1055	926904	keystroke_u	u	n/a
463.767	0.105	927534	keystroke_t	t	n/a
463.9475	0.24	927895	keystroke_i	i	n/a
464.067	0.1805	928134	keystroke_o	o	n/a
464.1725	0.164	928345	keystroke_n	n	n/a
464.4415	0.12	928883	keystroke_Key.enter	Key.enter	n/a
464.5685	8.4555	929137	prompt	n/a	preserve diamond structural placement\n
465.5375	0.12	931075	keystroke_p	p	n/a
465.717	0.18	931434	keystroke_r	r	n/a
465.852	0.12	931704	keystroke_e	e	n/a
466.182	0.105	932364	keystroke_s	s	n/a
466.422	0.12	932844	keystroke_e	e	n/a
466.527	0.1055	933054	keystroke_r	r	n/a
466.812	0.0755	933624	keystroke_v	v	n/a
467.067	0.105	934134	keystroke_e	e	n/a
467.3065	0.1205	934613	keystroke_Key.space	Key.space	n/a
467.7875	0.134	935575	keystroke_d	d	n/a
468.0115	0.121	936023	keystroke_i	i	n/a
468.177	0.1055	936354	keystroke_a	a	n/a
468.3725	0.0895	936745	keystroke_m	m	n/a
468.5975	0.03	937195	keystroke_o	o	n/a
468.7615	0.1205	937523	keystroke_n	n	n/a
468.8965	0.121	937793	keystroke_d	d	n/a
469.1065	0.1355	938213	keystroke_Key.space	Key.space	n/a
469.3765	0.136	938753	keystroke_s	s	n/a
469.6475	0.074	939295	keystroke_t	t	n/a
469.8125	0.089	939625	keystroke_r	r	n/a
469.9775	0.105	939955	keystroke_u	u	n/a
470.1565	0.09	940313	keystroke_c	c	n/a
470.4115	0.0755	940823	keystroke_t	t	n/a
470.6225	0.104	941245	keystroke_u	u	n/a
470.742	0.0755	941484	keystroke_r	r	n/a
470.9525	0.12	941905	keystroke_a	a	n/a
471.0425	0.105	942085	keystroke_l	l	n/a
471.2515	0.105	942503	keystroke_Key.space	Key.space	n/a
471.5365	0.105	943073	keystroke_p	p	n/a
471.7915	0.136	943583	keystroke_l	l	n/a
471.8975	0.1045	943795	keystroke_a	a	n/a
472.062	0.18	944124	keystroke_c	c	n/a
472.257	0.09	944514	keystroke_e	e	n/a
472.377	0.105	944754	keystroke_m	m	n/a
472.4975	0.1195	944995	keystroke_e	e	n/a
472.632	0.105	945264	keystroke_n	n	n/a
472.722	0.12	945444	keystroke_t	t	n/a
472.917	0.105	945834	keystroke_Key.enter	Key.enter	n/a
473.0285	5.92	946057	prompt	n/a	jury delayed joan cite\n
474.042	0.1045	948084	keystroke_j	j	n/a
474.267	0.1205	948534	keystroke_u	u	n/a
474.372	0.09	948744	keystroke_r	r	n/a
474.642	0.09	949284	keystroke_y	y	n/a
474.942	0.12	949884	keystroke_Key.space	Key.space	n/a
475.3775	0.06	950755	keystroke_d	d	n/a
475.5575	0.1045	951115	keystroke_e	e	n/a
475.6465	0.106	951293	keystroke_l	l	n/a
475.767	0.0895	951534	keystroke_a	a	n/a
475.9625	0.119	951925	keystroke_y	y	n/a
476.0375	0.105	952075	keystroke_e	e	n/a
476.2625	0.104	952525	keystroke_d	d	n/a
476.3515	0.121	952703	keystroke_Key.space	Key.space	n/a
477.0125	0.09	954025	keystroke_j	j	n/a
477.1615	0.09	954323	keystroke_o	o	n/a
477.2825	0.105	954565	keystroke_a	a	n/a
477.4025	0.105	954805	keystroke_n	n	n/a
477.627	0.12	955254	keystroke_Key.space	Key.space	n/a
478.182	0.1205	956364	keystroke_c	c	n/a
478.332	0.075	956664	keystroke_i	i	n/a
478.512	0.0755	957024	keystroke_t	t	n/a
478.722	0.1055	957444	keystroke_e	e	n/a
478.857	0.0895	957714	keystroke_Key.enter	Key.enter	n/a
478.954	12.235	957908	prompt	n/a	atmospheric zoning theology respected\n
480.222	0.105	960444	keystroke_a	a	n/a
480.447	0.06	960894	keystroke_t	t	n/a
480.5975	0.089	961195	keystroke_m	m	n/a
480.8065	0.105	961613	keystroke_o	o	n/a
480.9265	0.181	961853	keystroke_s	s	n/a
481.6175	0.105	963235	keystroke_p	p	n/a
481.8115	0.105	963623	keystroke_h	h	n/a
481.8865	0.135	963773	keystroke_e	e	n/a
482.0225	0.135	964045	keystroke_r	r	n/a
482.1715	0.075	964343	keystroke_e	e	n/a
483.6125	0.089	967225	keystroke_Key.backspace	Key.backspace	n/a
483.8825	0.105	967765	keystroke_i	i	n/a
484.0325	0.104	968065	keystroke_c	c	n/a
484.2265	0.106	968453	keystroke_Key.space	Key.space	n/a
484.7965	0.076	969593	keystroke_z	z	n/a
484.9175	0.09	969835	keystroke_o	o	n/a
485.1275	0.09	970255	keystroke_n	n	n/a
485.3075	0.18	970615	keystroke_i	i	n/a
485.4275	0.135	970855	keystroke_n	n	n/a
485.667	0.0905	971334	keystroke_g	g	n/a
485.8625	0.09	971725	keystroke_Key.space	Key.space	n/a
486.9575	0.03	973915	keystroke_t	t	n/a
487.0475	0.09	974095	keystroke_h	h	n/a
487.2125	0.15	974425	keystroke_e	e	n/a
487.3625	0.105	974725	keystroke_o	o	n/a
487.767	0.1055	975534	keystroke_l	l	n/a
487.9625	0.12	975925	keystroke_o	o	n/a
488.1275	0.06	976255	keystroke_g	g	n/a
488.367	0.1205	976734	keystroke_y	y	n/a
488.982	0.135	977964	keystroke_Key.space	Key.space	n/a
489.432	0.12	978864	keystroke_r	r	n/a
489.567	0.12	979134	keystroke_e	e	n/a
489.822	0.12	979644	keystroke_s	s	n/a
489.9875	0.1345	979975	keystroke_p	p	n/a
490.107	0.1055	980214	keystroke_e	e	n/a
490.317	0.045	980634	keystroke_c	c	n/a
490.5575	0.089	981115	keystroke_t	t	n/a
490.7215	0.106	981443	keystroke_e	e	n/a
490.9475	0.105	981895	keystroke_d	d	n/a
491.0675	0.1195	982135	keystroke_Key.enter	Key.enter	n/a
491.193	10.6305	982386	prompt	n/a	walt citizen saskatchewan cubic\n
492.117	0.075	984234	keystroke_w	w	n/a
492.312	0.105	984624	keystroke_a	a	n/a
492.4475	0.1045	984895	keystroke_l	l	n/a
493.5725	0.0745	987145	keystroke_t	t	n/a
493.722	0.135	987444	keystroke_Key.space	Key.space	n/a
494.0065	0.105	988013	keystroke_c	c	n/a
494.1715	0.121	988343	keystroke_i	i	n/a
494.3375	0.06	988675	keystroke_t	t	n/a
494.5175	0.12	989035	keystroke_i	i	n/a
494.6975	0.12	989395	keystroke_z	z	n/a
494.9525	0.135	989905	keystroke_e	e	n/a
495.1025	0.09	990205	keystroke_n	n	n/a
495.3565	0.12	990713	keystroke_Key.space	Key.space	n/a
496.0325	0.09	992065	keystroke_s	s	n/a
496.182	0.18	992364	keystroke_a	a	n/a
496.3325	0.1335	992665	keystroke_s	s	n/a
496.556	0.121	993112	keystroke_k	k	n/a
496.767	0.135	993534	keystroke_a	a	n/a
496.962	0.09	993924	keystroke_t	t	n/a
497.247	0.15	994494	keystroke_c	c	n/a
497.457	0.09	994914	keystroke_h	h	n/a
497.592	0.12	995184	keystroke_e	e	n/a
498.2975	0.09	996595	keystroke_w	w	n/a
498.4765	0.105	996953	keystroke_a	a	n/a
498.627	0.135	997254	keystroke_n	n	n/a
498.897	0.075	997794	keystroke_Key.space	Key.space	n/a
500.412	0.1045	1000824	keystroke_c	c	n/a
500.6075	0.059	1001215	keystroke_u	u	n/a
500.9065	0.061	1001813	keystroke_b	b	n/a
501.0725	0.105	1002145	keystroke_i	i	n/a
501.3425	0.119	1002685	keystroke_c	c	n/a
501.7015	0.12	1003403	keystroke_Key.enter	Key.enter	n/a
501.8275	6.881	1003655	prompt	n/a	pmid flood dependent argument\n
503.022	0.015	1006044	keystroke_p	p	n/a
503.457	0.12	1006914	keystroke_m	m	n/a
503.6975	0.1195	1007395	keystroke_i	i	n/a
503.817	0.1195	1007634	keystroke_d	d	n/a
504.0115	0.105	1008023	keystroke_Key.space	Key.space	n/a
504.4915	0.076	1008983	keystroke_f	f	n/a
504.672	0.1055	1009344	keystroke_l	l	n/a
504.972	0.1045	1009944	keystroke_o	o	n/a
505.1515	0.121	1010303	keystroke_o	o	n/a
505.3025	0.075	1010605	keystroke_d	d	n/a
505.4665	0.091	1010933	keystroke_Key.space	Key.space	n/a
505.7225	0.09	1011445	keystroke_d	d	n/a
505.9175	0.105	1011835	keystroke_e	e	n/a
506.0075	0.105	1012015	keystroke_p	p	n/a
506.127	0.1055	1012254	keystroke_e	e	n/a
506.2465	0.106	1012493	keystroke_n	n	n/a
506.3975	0.1045	1012795	keystroke_d	d	n/a
506.592	0.12	1013184	keystroke_e	e	n/a
506.727	0.12	1013454	keystroke_n	n	n/a
506.832	0.105	1013664	keystroke_t	t	n/a
507.027	0.105	1014054	keystroke_Key.space	Key.space	n/a
507.1775	0.0895	1014355	keystroke_a	a	n/a
507.327	0.105	1014654	keystroke_r	r	n/a
507.5675	0.0895	1015135	keystroke_g	g	n/a
507.702	0.105	1015404	keystroke_u	u	n/a
507.957	0.1345	1015914	keystroke_m	m	n/a
508.1065	0.076	1016213	keystroke_e	e	n/a
508.2415	0.1205	1016483	keystroke_n	n	n/a
508.3765	0.106	1016753	keystroke_t	t	n/a
508.587	0.12	1017174	keystroke_Key.enter	Key.enter	n/a
508.7115	9.9575	1017423	prompt	n/a	attract careful locator programmes\n
509.3075	0.1045	1018615	keystroke_a	a	n/a
509.562	0.015	1019124	keystroke_t	t	n/a
509.6975	0.0895	1019395	keystroke_t	t	n/a
509.9075	0.0745	1019815	keystroke_r	r	n/a
510.042	0.1055	1020084	keystroke_a	a	n/a
510.2525	0.0895	1020505	keystroke_c	c	n/a
510.5075	0.0895	1021015	keystroke_t	t	n/a
510.777	0.105	1021554	keystroke_Key.space	Key.space	n/a
511.212	0.12	1022424	keystroke_c	c	n/a
511.392	0.195	1022784	keystroke_a	a	n/a
511.5425	0.15	1023085	keystroke_r	r	n/a
511.662	0.1345	1023324	keystroke_e	e	n/a
512.097	0.0745	1024194	keystroke_f	f	n/a
512.202	0.0895	1024404	keystroke_u	u	n/a
512.382	0.105	1024764	keystroke_l	l	n/a
512.5915	0.105	1025183	keystroke_Key.space	Key.space	n/a
512.8325	0.0595	1025665	keystroke_l	l	n/a
513.012	0.075	1026024	keystroke_o	o	n/a
513.132	0.1045	1026264	keystroke_c	c	n/a
513.387	0.12	1026774	keystroke_a	a	n/a
513.597	0.09	1027194	keystroke_t	t	n/a
513.732	0.21	1027464	keystroke_e	e	n/a
513.912	0.0905	1027824	keystroke_r	r	n/a
514.317	0.075	1028634	keystroke_Key.backspace	Key.backspace	n/a
514.482	0.075	1028964	keystroke_Key.backspace	Key.backspace	n/a
514.677	0.135	1029354	keystroke_o	o	n/a
514.827	0.06	1029654	keystroke_r	r	n/a
515.007	0.105	1030014	keystroke_Key.space	Key.space	n/a
516.1025	0.1495	1032205	keystroke_p	p	n/a
516.2825	0.0895	1032565	keystroke_r	r	n/a
517.257	0.12	1034514	keystroke_o	o	n/a
517.4975	0.0595	1034995	keystroke_g	g	n/a
517.6775	0.075	1035355	keystroke_r	r	n/a
517.872	0.09	1035744	keystroke_a	a	n/a
517.977	0.06	1035954	keystroke_m	m	n/a
518.1725	0.0895	1036345	keystroke_m	m	n/a
518.202	0.09	1036404	keystroke_e	e	n/a
518.412	0.12	1036824	keystroke_s	s	n/a
518.547	0.12	1037094	keystroke_Key.enter	Key.enter	n/a
518.6725	9.642	1037345	prompt	n/a	numerous withdrawal midwest politics\n
519.6575	0.12	1039315	keystroke_n	n	n/a
519.9115	0.045	1039823	keystroke_u	u	n/a
520.0765	0.1205	1040153	keystroke_m	m	n/a
520.1675	0.149	1040335	keystroke_e	e	n/a
520.287	0.0905	1040574	keystroke_r	r	n/a
520.512	0.2255	1041024	keystroke_o	o	n/a
520.6165	0.15	1041233	keystroke_u	u	n/a
520.9165	0.1205	1041833	keystroke_s	s	n/a
521.0665	0.1205	1042133	keystroke_Key.space	Key.space	n/a
521.6225	0.0745	1043245	keystroke_w	w	n/a
521.742	0.1055	1043484	keystroke_i	i	n/a
521.862	0.0905	1043724	keystroke_t	t	n/a
521.9975	0.1195	1043995	keystroke_h	h	n/a
522.612	0.1055	1045224	keystroke_d	d	n/a
522.8675	0.09	1045735	keystroke_r	r	n/a
523.048	0.0895	1046096	keystroke_a	a	n/a
523.2425	0.09	1046485	keystroke_w	w	n/a
523.8715	0.106	1047743	keystroke_a	a	n/a
523.9925	0.074	1047985	keystroke_l	l	n/a
524.187	0.1045	1048374	keystroke_Key.space	Key.space	n/a
524.4265	0.076	1048853	keystroke_m	m	n/a
524.608	0.12	1049216	keystroke_i	i	n/a
524.6965	0.076	1049393	keystroke_d	d	n/a
524.8925	0.104	1049785	keystroke_w	w	n/a
525.1015	0.075	1050203	keystroke_e	e	n/a
525.2965	0.136	1050593	keystroke_s	s	n/a
525.5665	0.091	1051133	keystroke_t	t	n/a
525.7015	0.1355	1051403	keystroke_Key.space	Key.space	n/a
526.0175	0.12	1052035	keystroke_p	p	n/a
526.7825	0.075	1053565	keystroke_o	o	n/a
526.9775	0.0895	1053955	keystroke_l	l	n/a
527.187	0.0905	1054374	keystroke_i	i	n/a
527.3225	0.074	1054645	keystroke_t	t	n/a
527.4425	0.12	1054885	keystroke_i	i	n/a
527.6815	0.121	1055363	keystroke_c	c	n/a
527.9075	0.12	1055815	keystroke_s	s	n/a
528.2215	0.09	1056443	keystroke_Key.enter	Key.enter	n/a
528.3185	6.956	1056637	prompt	n/a	electoral situated confidence my\n
529.0325	0.12	1058065	keystroke_e	e	n/a
529.1825	0.165	1058365	keystroke_l	l	n/a
529.2725	0.105	1058545	keystroke_e	e	n/a
529.498	0.089	1058996	keystroke_c	c	n/a
529.7525	0.0895	1059505	keystroke_t	t	n/a
529.902	0.1055	1059804	keystroke_o	o	n/a
529.9775	0.0745	1059955	keystroke_r	r	n/a
530.1715	0.1355	1060343	keystroke_a	a	n/a
530.2775	0.089	1060555	keystroke_l	l	n/a
530.487	0.1045	1060974	keystroke_Key.space	Key.space	n/a
531.117	0.1795	1062234	keystroke_s	s	n/a
531.3425	0.1355	1062685	keystroke_i	i	n/a
531.4925	0.104	1062985	keystroke_t	t	n/a
531.6575	0.105	1063315	keystroke_u	u	n/a
531.7925	0.1345	1063585	keystroke_a	a	n/a
531.9725	0.135	1063945	keystroke_t	t	n/a
532.1525	0.075	1064305	keystroke_e	e	n/a
532.392	0.0905	1064784	keystroke_d	d	n/a
532.632	0.135	1065264	keystroke_Key.space	Key.space	n/a
533.0975	0.1195	1066195	keystroke_c	c	n/a
533.2325	0.075	1066465	keystroke_o	o	n/a
533.4275	0.09	1066855	keystroke_n	n	n/a
533.5625	0.09	1067125	keystroke_f	f	n/a
533.6975	0.075	1067395	keystroke_i	i	n/a
533.8625	0.045	1067725	keystroke_d	d	n/a
534.0425	0.09	1068085	keystroke_e	e	n/a
534.1475	0.105	1068295	keystroke_n	n	n/a
534.2525	0.165	1068505	keystroke_c	c	n/a
534.4015	0.12	1068803	keystroke_e	e	n/a
534.5065	0.12	1069013	keystroke_Key.space	Key.space	n/a
534.7175	0.09	1069435	keystroke_m	m	n/a
534.9125	0.09	1069825	keystroke_y	y	n/a
535.137	0.1355	1070274	keystroke_Key.enter	Key.enter	n/a
535.278	6.041	1070556	prompt	n/a	pairs dutch knowing habitat\n
536.142	0.1055	1072284	keystroke_p	p	n/a
536.232	0.1205	1072464	keystroke_a	a	n/a
536.3825	0.12	1072765	keystroke_i	i	n/a
536.457	0.1205	1072914	keystroke_r	r	n/a
536.712	0.105	1073424	keystroke_s	s	n/a
536.832	0.09	1073664	keystroke_Key.space	Key.space	n/a
537.012	0.105	1074024	keystroke_d	d	n/a
537.162	0.1355	1074324	keystroke_u	u	n/a
537.3275	0.0595	1074655	keystroke_t	t	n/a
537.672	0.1655	1075344	keystroke_c	c	n/a
537.8525	0.1195	1075705	keystroke_h	h	n/a
538.0315	0.105	1076063	keystroke_Key.space	Key.space	n/a
538.3165	0.105	1076633	keystroke_k	k	n/a
538.4665	0.105	1076933	keystroke_n	n	n/a
538.662	0.1055	1077324	keystroke_o	o	n/a
538.7375	0.089	1077475	keystroke_w	w	n/a
538.917	0.1805	1077834	keystroke_i	i	n/a
539.0225	0.15	1078045	keystroke_n	n	n/a
539.1575	0.09	1078315	keystroke_g	g	n/a
539.3525	0.12	1078705	keystroke_Key.space	Key.space	n/a
540.1175	0.09	1080235	keystroke_h	h	n/a
540.2665	0.1055	1080533	keystroke_a	a	n/a
540.3425	0.1045	1080685	keystroke_b	b	n/a
540.552	0.12	1081104	keystroke_i	i	n/a
540.687	0.075	1081374	keystroke_t	t	n/a
540.883	0.1195	1081766	keystroke_a	a	n/a
541.032	0.091	1082064	keystroke_t	t	n/a
541.197	0.12	1082394	keystroke_Key.enter	Key.enter	n/a
541.3225	6.8215	1082645	prompt	n/a	flour anatomy formatting cradle\n
542.3225	0.09	1084645	keystroke_f	f	n/a
542.4575	0.12	1084915	keystroke_l	l	n/a
542.6825	0.195	1085365	keystroke_o	o	n/a
542.7725	0.135	1085545	keystroke_u	u	n/a
542.9225	0.0755	1085845	keystroke_r	r	n/a
543.0725	0.104	1086145	keystroke_Key.space	Key.space	n/a
543.3275	0.135	1086655	keystroke_a	a	n/a
543.7325	0.12	1087465	keystroke_n	n	n/a
543.8825	0.12	1087765	keystroke_a	a	n/a
544.0765	0.075	1088153	keystroke_t	t	n/a
544.1965	0.091	1088393	keystroke_o	o	n/a
544.3475	0.1495	1088695	keystroke_m	m	n/a
544.512	0.09	1089024	keystroke_y	y	n/a
544.7225	0.134	1089445	keystroke_Key.space	Key.space	n/a
545.3825	0.075	1090765	keystroke_f	f	n/a
545.517	0.105	1091034	keystroke_o	o	n/a
545.607	0.105	1091214	keystroke_r	r	n/a
545.742	0.1355	1091484	keystroke_m	m	n/a
545.8475	0.1205	1091695	keystroke_a	a	n/a
546.027	0.0755	1092054	keystroke_t	t	n/a
546.2075	0.1045	1092415	keystroke_t	t	n/a
546.2975	0.15	1092595	keystroke_i	i	n/a
546.3725	0.1195	1092745	keystroke_n	n	n/a
546.507	0.0755	1093014	keystroke_g	g	n/a
546.642	0.12	1093284	keystroke_Key.space	Key.space	n/a
546.912	0.0905	1093824	keystroke_c	c	n/a
547.1815	0.091	1094363	keystroke_r	r	n/a
547.3775	0.09	1094755	keystroke_a	a	n/a
547.5575	0.12	1095115	keystroke_d	d	n/a
547.7075	0.105	1095415	keystroke_l	l	n/a
547.8425	0.12	1095685	keystroke_e	e	n/a
548.0375	0.105	1096075	keystroke_Key.enter	Key.enter	n/a
548.1485	12.5955	1096297	prompt	n/a	joint alternatively hoped beach\n
549.1325	0.0895	1098265	keystroke_j	j	n/a
549.3415	0.075	1098683	keystroke_o	o	n/a
549.5375	0.0745	1099075	keystroke_i	i	n/a
550.572	0.1205	1101144	keystroke_n	n	n/a
550.723	0.0745	1101446	keystroke_t	t	n/a
550.8875	0.12	1101775	keystroke_Key.space	Key.space	n/a
551.0825	0.135	1102165	keystroke_a	a	n/a
551.4425	0.135	1102885	keystroke_l	l	n/a
551.592	0.1055	1103184	keystroke_t	t	n/a
551.787	0.1795	1103574	keystroke_e	e	n/a
551.9075	0.119	1103815	keystroke_r	r	n/a
552.1165	0.12	1104233	keystroke_n	n	n/a
552.2825	0.134	1104565	keystroke_a	a	n/a
552.4915	0.091	1104983	keystroke_t	t	n/a
552.6575	0.134	1105315	keystroke_e	e	n/a
553.902	0.1055	1107804	keystroke_Key.backspace	Key.backspace	n/a
556.2295	0.043	1112459	keystroke_i	i	n/a
556.4665	0.091	1112933	keystroke_v	v	n/a
556.6765	0.1505	1113353	keystroke_e	e	n/a
556.767	0.1055	1113534	keystroke_l	l	n/a
556.963	0.089	1113926	keystroke_y	y	n/a
557.1265	0.106	1114253	keystroke_Key.space	Key.space	n/a
558.2825	0.1045	1116565	keystroke_h	h	n/a
558.4925	0.165	1116985	keystroke_o	o	n/a
558.612	0.1655	1117224	keystroke_p	p	n/a
558.717	0.105	1117434	keystroke_e	e	n/a
558.927	0.105	1117854	keystroke_d	d	n/a
559.062	0.15	1118124	keystroke_Key.space	Key.space	n/a
559.6025	0.12	1119205	keystroke_b	b	n/a
559.797	0.105	1119594	keystroke_e	e	n/a
559.9925	0.1195	1119985	keystroke_a	a	n/a
