onset	duration	sample	value	key	prompt_text
3.313	9.233	6626	prompt	n/a	the quick brown fox jumps over a lazy dog\n
4.217	0.0285	8434	keystroke_t	t	n/a
4.291	0.0745	8582	keystroke_h	h	n/a
4.6205	0.2255	9241	keystroke_e	e	n/a
4.921	0.06	9842	keystroke_Key.space	Key.space	n/a
5.116	0.09	10232	keystroke_q	q	n/a
5.251	0.09	10502	keystroke_u	u	n/a
5.43	0.076	10860	keystroke_i	i	n/a
5.731	0.0445	11462	keystroke_c	c	n/a
5.819	0.06	11638	keystroke_j	j	n/a
6.013	0.075	12026	keystroke_Key.space	Key.space	n/a
6.164	0.059	12328	keystroke_b	b	n/a
6.345	0.06	12690	keystroke_Key.backspace	Key.backspace	n/a
6.465	0.075	12930	keystroke_Key.backspace	Key.backspace	n/a
6.615	0.06	13230	keystroke_Key.backspace	Key.backspace	n/a
6.794	0.075	13588	keystroke_k	k	n/a
6.9	0.074	13800	keystroke_b	b	n/a
7.004	0.075	14008	keystroke_Key.space	Key.space	n/a
7.124	0.0905	14248	keystroke_r	r	n/a
7.395	0.075	14790	keystroke_Key.backspace	Key.backspace	n/a
7.53	0.0755	15060	keystroke_Key.backspace	Key.backspace	n/a
7.665	0.105	15330	keystroke_Key.backspace	Key.backspace	n/a
7.7855	0.029	15571	keystroke_b	b	n/a
8.025	0.0445	16050	keystroke_Key.space	Key.space	n/a
8.0845	0.12	16169	keystroke_Key.backspace	Key.backspace	n/a
8.279	0.09	16558	keystroke_Key.backspace	Key.backspace	n/a
8.399	0.075	16798	keystroke_Key.space	Key.space	n/a
8.535	0.0745	17070	keystroke_b	b	n/a
8.7605	0.0745	17521	keystroke_r	r	n/a
8.865	0.075	17730	keystroke_o	o	n/a
8.97	0.09	17940	keystroke_w	w	n/a
9.0905	0.0595	18181	keystroke_n	n	n/a
9.225	0.075	18450	keystroke_Key.space	Key.space	n/a
9.285	0.09	18570	keystroke_f	f	n/a
9.465	0.045	18930	keystroke_o	o	n/a
9.54	0.09	19080	keystroke_x	x	n/a
9.645	0.06	19290	keystroke_Key.space	Key.space	n/a
9.825	0.03	19650	keystroke_j	j	n/a
9.9455	0.0745	19891	keystroke_u	u	n/a
10.14	0.0605	20280	keystroke_m	m	n/a
10.32	0.06	20640	keystroke_p	p	n/a
10.395	0.0895	20790	keystroke_s	s	n/a
10.5295	0.045	21059	keystroke_Key.space	Key.space	n/a
10.6945	0.075	21389	keystroke_o	o	n/a
10.74	0.0595	21480	keystroke_v	v	n/a
10.8145	0.151	21629	keystroke_e	e	n/a
10.9205	0.09	21841	keystroke_r	r	n/a
10.9955	0.075	21991	keystroke_Key.space	Key.space	n/a
11.131	0.0895	22262	keystroke_a	a	n/a
11.2055	0.075	22411	keystroke_Key.space	Key.space	n/a
11.5205	0.075	23041	keystroke_l	l	n/a
11.5955	0.0445	23191	keystroke_a	a	n/a
11.761	0.0745	23522	keystroke_z	z	n/a
11.8955	0.059	23791	keystroke_y	y	n/a
12	0.0755	24000	keystroke_Key.space	Key.space	n/a
12.12	0.0745	24240	keystroke_d	d	n/a
12.2555	0.0595	24511	keystroke_o	o	n/a
12.3305	0.089	24661	keystroke_g	g	n/a
12.4505	0.089	24901	keystroke_Key.enter	Key.enter	n/a
12.553	5.674	25106	prompt	n/a	officials dance settlement checkout\n
13.14	0.0605	26280	keystroke_o	o	n/a
13.245	0.075	26490	keystroke_f	f	n/a
13.38	0.076	26760	keystroke_f	f	n/a
13.515	0.06	27030	keystroke_i	i	n/a
13.59	0.075	27180	keystroke_c	c	n/a
13.695	0.06	27390	keystroke_i	i	n/a
13.815	0.0905	27630	keystroke_a	a	n/a
13.92	0.075	27840	keystroke_l	l	n/a
14.221	0.0745	28442	keystroke_s	s	n/a
14.3695	0.0755	28739	keystroke_Key.space	Key.space	n/a
14.6855	0.0895	29371	keystroke_d	d	n/a
14.805	0.09	29610	keystroke_a	a	n/a
14.8655	0.09	29731	keystroke_n	n	n/a
14.941	0.104	29882	keystroke_c	c	n/a
15.015	0.0905	30030	keystroke_e	e	n/a
15.0905	0.09	30181	keystroke_Key.space	Key.space	n/a
15.3005	0.075	30601	keystroke_s	s	n/a
15.4505	0.075	30901	keystroke_e	e	n/a
15.5855	0.105	31171	keystroke_t	t	n/a
15.811	0.029	31622	keystroke_t	t	n/a
15.825	0.0605	31650	keystroke_l	l	n/a
16.4555	0.029	32911	keystroke_e	e	n/a
16.6045	0.076	33209	keystroke_m	m	n/a
16.7255	0.0895	33451	keystroke_e	e	n/a
16.8	0.06	33600	keystroke_n	n	n/a
16.905	0.075	33810	keystroke_t	t	n/a
16.995	0.06	33990	keystroke_Key.space	Key.space	n/a
17.221	0.044	34442	keystroke_c	c	n/a
17.3555	0.075	34711	keystroke_h	h	n/a
17.4155	0.1045	34831	keystroke_e	e	n/a
17.5055	0.075	35011	keystroke_c	c	n/a
17.61	0.0755	35220	keystroke_k	k	n/a
17.82	0.0155	35640	keystroke_o	o	n/a
17.955	0.0755	35910	keystroke_u	u	n/a
18.045	0.06	36090	keystroke_t	t	n/a
18.135	0.0905	36270	keystroke_Key.enter	Key.enter	n/a
18.232	7.0005	36464	prompt	n/a	benefits kong registered protest\n
18.945	0.0605	37890	keystroke_n	n	n/a
19.02	0.09	38040	keystroke_e	e	n/a
19.395	0.045	38790	keystroke_Key.backspace	Key.backspace	n/a
19.5	0.0755	39000	keystroke_Key.backspace	Key.backspace	n/a
19.5605	0.09	39121	keystroke_b	b	n/a
19.6355	0.075	39271	keystroke_e	e	n/a
19.7555	0.075	39511	keystroke_n	n	n/a
19.8155	0.0895	39631	keystroke_e	e	n/a
20.0105	0.12	40021	keystroke_f	f	n/a
20.22	0.075	40440	keystroke_i	i	n/a
20.28	0.1355	40560	keystroke_t	t	n/a
20.4	0.1055	40800	keystroke_s	s	n/a
20.5055	0.0745	41011	keystroke_Key.space	Key.space	n/a
20.7005	0.06	41401	keystroke_k	k	n/a
20.8655	0.06	41731	keystroke_o	o	n/a
21.045	0.06	42090	keystroke_n	n	n/a
21.1205	0.0745	42241	keystroke_g	g	n/a
21.3455	0.0595	42691	keystroke_Key.space	Key.space	n/a
21.54	0.135	43080	keystroke_r	r	n/a
21.645	0.09	43290	keystroke_e	e	n/a
22.0805	0.0895	44161	keystroke_g	g	n/a
22.2455	0.06	44491	keystroke_i	i	n/a
22.3205	0.105	44641	keystroke_s	s	n/a
22.4555	0.105	44911	keystroke_t	t	n/a
22.606	0.119	45212	keystroke_e	e	n/a
22.9655	0.1345	45931	keystroke_r	r	n/a
23.085	0.0905	46170	keystroke_e	e	n/a
23.4305	0.09	46861	keystroke_d	d	n/a
23.6095	0.076	47219	keystroke_Key.space	Key.space	n/a
23.8955	0.03	47791	keystroke_r	r	n/a
24.0755	0.075	48151	keystroke_Key.backspace	Key.backspace	n/a
24.2255	0.09	48451	keystroke_p	p	n/a
24.3605	0.105	48721	keystroke_r	r	n/a
24.4655	0.075	48931	keystroke_o	o	n/a
24.5855	0.12	49171	keystroke_t	t	n/a
24.7205	0.09	49441	keystroke_e	e	n/a
24.9155	0.1045	49831	keystroke_s	s	n/a
25.005	0.105	50010	keystroke_t	t	n/a
25.1555	0.075	50311	keystroke_Key.enter	Key.enter	n/a
25.2375	5.74	50475	prompt	n/a	translated focusing cathedral guns\n
25.74	0.0905	51480	keystroke_t	t	n/a
25.9505	0.09	51901	keystroke_r	r	n/a
26.0855	0.0895	52171	keystroke_a	a	n/a
26.1905	0.075	52381	keystroke_n	n	n/a
26.31	0.0755	52620	keystroke_s	s	n/a
26.565	0.06	53130	keystroke_l	l	n/a
26.67	0.0905	53340	keystroke_a	a	n/a
26.79	0.12	53580	keystroke_t	t	n/a
26.865	0.09	53730	keystroke_e	e	n/a
27.09	0.075	54180	keystroke_d	d	n/a
27.24	0.0755	54480	keystroke_Key.space	Key.space	n/a
27.45	0.075	54900	keystroke_f	f	n/a
27.57	0.075	55140	keystroke_o	o	n/a
27.661	0.059	55322	keystroke_c	c	n/a
27.78	0.0605	55560	keystroke_u	u	n/a
27.855	0.0755	55710	keystroke_s	s	n/a
27.945	0.045	55890	keystroke_i	i	n/a
28.111	0.0595	56222	keystroke_n	n	n/a
28.185	0.0605	56370	keystroke_g	g	n/a
28.2605	0.075	56521	keystroke_Key.space	Key.space	n/a
28.44	0.0755	56880	keystroke_c	c	n/a
28.53	0.091	57060	keystroke_a	a	n/a
28.65	0.076	57300	keystroke_t	t	n/a
28.786	0.074	57572	keystroke_h	h	n/a
28.876	0.0895	57752	keystroke_e	e	n/a
29.086	0.104	58172	keystroke_d	d	n/a
29.895	0.136	59790	keystroke_r	r	n/a
30.015	0.105	60030	keystroke_a	a	n/a
30.0905	0.075	60181	keystroke_l	l	n/a
30.255	0.09	60510	keystroke_Key.space	Key.space	n/a
30.435	0.0605	60870	keystroke_g	g	n/a
30.5255	0.06	61051	keystroke_u	u	n/a
30.6755	0.0755	61351	keystroke_n	n	n/a
30.7355	0.09	61471	keystroke_s	s	n/a
30.8855	0.09	61771	keystroke_Key.enter	Key.enter	n/a
30.9815	4.346	61963	prompt	n/a	suites murder socket mounting\n
31.531	0.104	63062	keystroke_s	s	n/a
31.77	0.0455	63540	keystroke_u	u	n/a
31.92	0.075	63840	keystroke_i	i	n/a
32.011	0.0895	64022	keystroke_t	t	n/a
32.0855	0.0755	64171	keystroke_e	e	n/a
32.265	0.0755	64530	keystroke_s	s	n/a
32.3555	0.0895	64711	keystroke_Key.space	Key.space	n/a
32.565	0.06	65130	keystroke_m	m	n/a
32.73	0.075	65460	keystroke_u	u	n/a
32.79	0.091	65580	keystroke_r	r	n/a
32.9855	0.105	65971	keystroke_d	d	n/a
33.105	0.12	66210	keystroke_e	e	n/a
33.1805	0.0745	66361	keystroke_r	r	n/a
33.2555	0.075	66511	keystroke_Key.space	Key.space	n/a
33.3755	0.075	66751	keystroke_s	s	n/a
33.466	0.075	66932	keystroke_o	o	n/a
33.5255	0.075	67051	keystroke_c	c	n/a
33.6455	0.075	67291	keystroke_k	k	n/a
33.7055	0.15	67411	keystroke_e	e	n/a
33.8405	0.075	67681	keystroke_t	t	n/a
33.9445	0.0905	67889	keystroke_Key.space	Key.space	n/a
34.1255	0.075	68251	keystroke_m	m	n/a
34.3505	0.0605	68701	keystroke_o	o	n/a
34.5455	0.0595	69091	keystroke_u	u	n/a
34.7105	0.075	69421	keystroke_n	n	n/a
34.7865	0.074	69573	keystroke_t	t	n/a
34.9205	0.03	69841	keystroke_i	i	n/a
35.0555	0.0755	70111	keystroke_n	n	n/a
35.1455	0.045	70291	keystroke_g	g	n/a
35.2355	0.0895	70471	keystroke_Key.enter	Key.enter	n/a
35.3325	4.9155	70665	prompt	n/a	racial springer as discussions\n
35.76	0.06	71520	keystroke_s	s	n/a
35.9705	0.075	71941	keystroke_Key.backspace	Key.backspace	n/a
36.0605	0.1205	72121	keystroke_r	r	n/a
36.196	0.1045	72392	keystroke_a	a	n/a
36.3005	0.0755	72601	keystroke_c	c	n/a
36.466	0.0745	72932	keystroke_i	i	n/a
36.5855	0.075	73171	keystroke_a	a	n/a
36.6755	0.06	73351	keystroke_l	l	n/a
36.8705	0.0745	73741	keystroke_Key.space	Key.space	n/a
37.425	0.0905	74850	keystroke_s	s	n/a
37.486	0.0745	74972	keystroke_p	p	n/a
37.62	0.09	75240	keystroke_r	r	n/a
37.711	0.06	75422	keystroke_i	i	n/a
37.891	0.075	75782	keystroke_n	n	n/a
37.9195	0.0905	75839	keystroke_g	g	n/a
38.011	0.1345	76022	keystroke_e	e	n/a
38.1005	0.089	76201	keystroke_r	r	n/a
38.1905	0.0895	76381	keystroke_Key.space	Key.space	n/a
38.3855	0.12	76771	keystroke_a	a	n/a
38.4895	0.12	76979	keystroke_s	s	n/a
38.6245	0.0905	77249	keystroke_Key.space	Key.space	n/a
38.7605	0.09	77521	keystroke_d	d	n/a
38.8805	0.06	77761	keystroke_i	i	n/a
38.9705	0.105	77941	keystroke_s	s	n/a
39.1055	0.0905	78211	keystroke_c	c	n/a
39.2405	0.06	78481	keystroke_u	u	n/a
39.4205	0.06	78841	keystroke_s	s	n/a
39.5405	0.1055	79081	keystroke_s	s	n/a
39.6305	0.06	79261	keystroke_i	i	n/a
39.7805	0.06	79561	keystroke_o	o	n/a
39.8255	0.075	79651	keystroke_n	n	n/a
40.0205	0.06	80041	keystroke_s	s	n/a
40.1405	0.1045	80281	keystroke_Key.enter	Key.enter	n/a
40.254	7.088	80508	prompt	n/a	hook accessibility brown xanax\n
40.86	0.0755	81720	keystroke_h	h	n/a
40.9955	0.075	81991	keystroke_o	o	n/a
41.131	0.0585	82262	keystroke_o	o	n/a
41.2955	0.075	82591	keystroke_k	k	n/a
41.5045	0.06	83009	keystroke_Key.space	Key.space	n/a
41.6405	0.074	83281	keystroke_a	a	n/a
41.7455	0.075	83491	keystroke_c	c	n/a
41.8955	0.1195	83791	keystroke_c	c	n/a
42.001	0.089	84002	keystroke_e	e	n/a
42.18	0.045	84360	keystroke_s	s	n/a
42.2855	0.09	84571	keystroke_s	s	n/a
42.5255	0.045	85051	keystroke_i	i	n/a
42.931	0.09	85862	keystroke_b	b	n/a
43.0655	0.075	86131	keystroke_i	i	n/a
43.2455	0.075	86491	keystroke_l	l	n/a
43.4255	0.0605	86851	keystroke_i	i	n/a
43.4555	0.075	86911	keystroke_t	t	n/a
43.6355	0.09	87271	keystroke_y	y	n/a
43.77	0.0755	87540	keystroke_Key.space	Key.space	n/a
44.0105	0.0745	88021	keystroke_l	l	n/a
44.22	0.0755	88440	keystroke_Key.backspace	Key.backspace	n/a
44.311	0.059	88622	keystroke_b	b	n/a
44.475	0.075	88950	keystroke_o	o	n/a
44.4905	0.0745	88981	keystroke_r	r	n/a
44.7605	0.075	89521	keystroke_Key.backspace	Key.backspace	n/a
44.8955	0.09	89791	keystroke_Key.backspace	Key.backspace	n/a
44.9705	0.09	89941	keystroke_r	r	n/a
45.0005	0.09	90001	keystroke_o	o	n/a
45.1655	0.105	90331	keystroke_w	w	n/a
45.2255	0.075	90451	keystroke_n	n	n/a
45.4205	0.06	90841	keystroke_Key.space	Key.space	n/a
45.6005	0.074	91201	keystroke_n	n	n/a
45.6905	0.074	91381	keystroke_a	a	n/a
45.9	0.09	91800	keystroke_x	x	n/a
46.14	0.06	92280	keystroke_Key.backspace	Key.backspace	n/a
46.29	0.03	92580	keystroke_Key.backspace	Key.backspace	n/a
46.395	0.075	92790	keystroke_Key.backspace	Key.backspace	n/a
46.4405	0.1355	92881	keystroke_x	x	n/a
46.605	0.0755	93210	keystroke_a	a	n/a
46.7255	0.0745	93451	keystroke_n	n	n/a
46.86	0.0605	93720	keystroke_a	a	n/a
47.101	0.0895	94202	keystroke_x	x	n/a
47.25	0.0905	94500	keystroke_Key.enter	Key.enter	n/a
47.35	4.027	94700	prompt	n/a	short paxil boot services\n
47.971	0.0745	95942	keystroke_s	s	n/a
48.1355	0.0595	96271	keystroke_h	h	n/a
48.2405	0.075	96481	keystroke_o	o	n/a
48.3305	0.09	96661	keystroke_r	r	n/a
48.4955	0.06	96991	keystroke_t	t	n/a
48.5855	0.075	97171	keystroke_Key.space	Key.space	n/a
48.7955	0.075	97591	keystroke_p	p	n/a
48.8855	0.06	97771	keystroke_a	a	n/a
49.0655	0.09	98131	keystroke_x	x	n/a
49.1405	0.075	98281	keystroke_i	i	n/a
49.3055	0.09	98611	keystroke_l	l	n/a
49.4105	0.06	98821	keystroke_Key.space	Key.space	n/a
49.5605	0.06	99121	keystroke_b	b	n/a
49.6355	0.045	99271	keystroke_o	o	n/a
49.756	0.075	99512	keystroke_o	o	n/a
49.831	0.09	99662	keystroke_t	t	n/a
49.9955	0.0745	99991	keystroke_Key.space	Key.space	n/a
50.085	0.075	100170	keystroke_s	s	n/a
50.25	0.12	100500	keystroke_e	e	n/a
50.31	0.076	100620	keystroke_r	r	n/a
50.505	0.106	101010	keystroke_v	v	n/a
50.7755	0.045	101551	keystroke_i	i	n/a
50.8955	0.1345	101791	keystroke_c	c	n/a
50.985	0.075	101970	keystroke_e	e	n/a
51.166	0.075	102332	keystroke_s	s	n/a
51.285	0.09	102570	keystroke_Key.enter	Key.enter	n/a
51.381	6.371	102762	prompt	n/a	worth empty virtue aimed\n
51.901	0.0745	103802	keystroke_w	w	n/a
51.9755	0.045	103951	keystroke_o	o	n/a
52.2455	0.075	104491	keystroke_r	r	n/a
52.5455	0.09	105091	keystroke_t	t	n/a
52.621	0.0745	105242	keystroke_h	h	n/a
52.8005	0.075	105601	keystroke_Key.space	Key.space	n/a
52.8905	0.105	105781	keystroke_e	e	n/a
52.9805	0.075	105961	keystroke_m	m	n/a
53.5955	0.09	107191	keystroke_p	p	n/a
53.731	0.0745	107462	keystroke_t	t	n/a
53.9105	0.0745	107821	keystroke_y	y	n/a
54.1055	0.0745	108211	keystroke_Key.space	Key.space	n/a
54.4055	0.0595	108811	keystroke_v	v	n/a
54.54	0.0755	109080	keystroke_i	i	n/a
54.675	0.0455	109350	keystroke_r	r	n/a
54.8555	0.0445	109711	keystroke_t	t	n/a
55.1855	0.0895	110371	keystroke_u	u	n/a
55.305	0.1205	110610	keystroke_r	r	n/a
55.3955	0.0895	110791	keystroke_e	e	n/a
55.5	0.075	111000	keystroke_Key.space	Key.space	n/a
56.1155	0.059	112231	keystroke_Key.backspace	Key.backspace	n/a
56.25	0.0605	112500	keystroke_Key.backspace	Key.backspace	n/a
56.37	0.105	112740	keystroke_Key.backspace	Key.backspace	n/a
56.49	0.12	112980	keystroke_e	e	n/a
56.655	0.075	113310	keystroke_Key.space	Key.space	n/a
56.88	0.0905	113760	keystroke_a	a	n/a
57.18	0.061	114360	keystroke_i	i	n/a
57.3455	0.0745	114691	keystroke_m	m	n/a
57.4055	0.105	114811	keystroke_e	e	n/a
57.541	0.1045	115082	keystroke_d	d	n/a
57.63	0.1195	115260	keystroke_Key.enter	Key.enter	n/a
57.758	5.8445	115516	prompt	n/a	impossible consideration instantly alex\n
58.395	0.06	116790	keystroke_i	i	n/a
58.545	0.0905	117090	keystroke_m	m	n/a
58.77	0.06	117540	keystroke_p	p	n/a
58.9355	0.0755	117871	keystroke_o	o	n/a
59.0255	0.0305	118051	keystroke_s	s	n/a
59.145	0.075	118290	keystroke_s	s	n/a
59.235	0.061	118470	keystroke_i	i	n/a
59.34	0.061	118680	keystroke_b	b	n/a
59.416	0.075	118832	keystroke_l	l	n/a
59.5205	0.0745	119041	keystroke_e	e	n/a
59.625	0.075	119250	keystroke_Key.space	Key.space	n/a
59.731	0.074	119462	keystroke_c	c	n/a
59.836	0.0595	119672	keystroke_o	o	n/a
59.9855	0.0745	119971	keystroke_n	n	n/a
60.106	0.1045	120212	keystroke_s	s	n/a
60.196	0.0595	120392	keystroke_i	i	n/a
60.2705	0.105	120541	keystroke_d	d	n/a
60.3905	0.12	120781	keystroke_e	e	n/a
60.4655	0.0895	120931	keystroke_r	r	n/a
60.601	0.119	121202	keystroke_a	a	n/a
60.6755	0.1045	121351	keystroke_t	t	n/a
60.7505	0.0745	121501	keystroke_i	i	n/a
60.9	0.06	121800	keystroke_o	o	n/a
60.9755	0.06	121951	keystroke_n	n	n/a
61.0805	0.06	122161	keystroke_Key.space	Key.space	n/a
61.275	0.0455	122550	keystroke_i	i	n/a
61.4105	0.0745	122821	keystroke_n	n	n/a
61.53	0.09	123060	keystroke_s	s	n/a
61.71	0.091	123420	keystroke_t	t	n/a
61.9055	0.09	123811	keystroke_a	a	n/a
62.1005	0.06	124201	keystroke_n	n	n/a
62.2355	0.075	124471	keystroke_t	t	n/a
62.6405	0.0605	125281	keystroke_l	l	n/a
62.7155	0.0745	125431	keystroke_y	y	n/a
62.8505	0.0755	125701	keystroke_Key.space	Key.space	n/a
62.94	0.0905	125880	keystroke_a	a	n/a
63.0755	0.089	126151	keystroke_l	l	n/a
63.1795	0.075	126359	keystroke_e	e	n/a
63.391	0.074	126782	keystroke_x	x	n/a
63.5105	0.09	127021	keystroke_Key.enter	Key.enter	n/a
63.607	5.5005	127214	prompt	n/a	toolkit multiple cradle vocal\n
64.1405	0.0905	128281	keystroke_t	t	n/a
64.215	0.075	128430	keystroke_o	o	n/a
64.365	0.0455	128730	keystroke_o	o	n/a
64.6045	0.076	129209	keystroke_Key.backspace	Key.backspace	n/a
64.9505	0.06	129901	keystroke_o	o	n/a
65.115	0.1205	130230	keystroke_l	l	n/a
65.475	0.076	130950	keystroke_k	k	n/a
65.64	0.06	131280	keystroke_i	i	n/a
65.7155	0.075	131431	keystroke_t	t	n/a
65.8505	0.075	131701	keystroke_Key.space	Key.space	n/a
66.0455	0.045	132091	keystroke_m	m	n/a
66.1805	0.06	132361	keystroke_u	u	n/a
66.376	0.0895	132752	keystroke_l	l	n/a
66.4655	0.09	132931	keystroke_t	t	n/a
66.6005	0.075	133201	keystroke_i	i	n/a
66.9455	0.075	133891	keystroke_p	p	n/a
67.1255	0.075	134251	keystroke_l	l	n/a
67.2155	0.0755	134431	keystroke_e	e	n/a
67.305	0.09	134610	keystroke_Key.space	Key.space	n/a
67.455	0.0755	134910	keystroke_c	c	n/a
67.6205	0.0905	135241	keystroke_r	r	n/a
67.7255	0.135	135451	keystroke_a	a	n/a
67.8305	0.075	135661	keystroke_d	d	n/a
67.9505	0.06	135901	keystroke_l	l	n/a
68.0255	0.09	136051	keystroke_e	e	n/a
68.1305	0.074	136261	keystroke_Key.space	Key.space	n/a
68.266	0.0745	136532	keystroke_v	v	n/a
68.3855	0.06	136771	keystroke_o	o	n/a
68.6105	0.0745	137221	keystroke_c	c	n/a
68.7	0.0905	137400	keystroke_a	a	n/a
68.8205	0.0755	137641	keystroke_l	l	n/a
68.9855	0.12	137971	keystroke_Key.enter	Key.enter	n/a
69.111	6.5815	138222	prompt	n/a	reads wyoming event neighborhood\n
69.7805	0.0755	139561	keystroke_r	r	n/a
69.9605	0.105	139921	keystroke_e	e	n/a
70.051	0.1045	140102	keystroke_a	a	n/a
70.126	0.1345	140252	keystroke_d	d	n/a
70.231	0.1045	140462	keystroke_s	s	n/a
70.3355	0.075	140671	keystroke_Key.space	Key.space	n/a
70.591	0.0445	141182	keystroke_y	y	n/a
70.8005	0.075	141601	keystroke_Key.backspace	Key.backspace	n/a
70.8605	0.09	141721	keystroke_w	w	n/a
71.0405	0.0905	142081	keystroke_y	y	n/a
71.205	0.0605	142410	keystroke_m	m	n/a
71.4455	0.09	142891	keystroke_Key.backspace	Key.backspace	n/a
71.5955	0.0305	143191	keystroke_o	o	n/a
71.76	0.06	143520	keystroke_m	m	n/a
71.9255	0.0605	143851	keystroke_i	i	n/a
72.0005	0.1055	144001	keystroke_n	n	n/a
72.0755	0.0755	144151	keystroke_g	g	n/a
72.181	0.0745	144362	keystroke_Key.space	Key.space	n/a
72.3155	0.1195	144631	keystroke_e	e	n/a
72.4505	0.1195	144901	keystroke_v	v	n/a
72.5405	0.1195	145081	keystroke_e	e	n/a
72.615	0.075	145230	keystroke_n	n	n/a
72.7055	0.0905	145411	keystroke_t	t	n/a
72.81	0.075	145620	keystroke_Key.space	Key.space	n/a
72.9905	0.0595	145981	keystroke_n	n	n/a
73.081	0.03	146162	keystroke_a	a	n/a
73.41	0.0905	146820	keystroke_Key.backspace	Key.backspace	n/a
73.4855	0.09	146971	keystroke_e	e	n/a
73.6055	0.0905	147211	keystroke_i	i	n/a
73.7405	0.075	147481	keystroke_g	g	n/a
73.83	0.075	147660	keystroke_h	h	n/a
73.906	0.06	147812	keystroke_t	t	n/a
74.265	0.09	148530	keystroke_Key.backspace	Key.backspace	n/a
74.5805	0.0745	149161	keystroke_b	b	n/a
74.775	0.06	149550	keystroke_o	o	n/a
74.94	0.06	149880	keystroke_r	r	n/a
75.1655	0.0595	150331	keystroke_h	h	n/a
75.2705	0.0595	150541	keystroke_o	o	n/a
75.39	0.09	150780	keystroke_o	o	n/a
75.451	0.0595	150902	keystroke_d	d	n/a
75.6005	0.0895	151201	keystroke_Key.enter	Key.enter	n/a
75.698	5.394	151396	prompt	n/a	positive assisted ourselves soup\n
76.2155	0.0745	152431	keystroke_p	p	n/a
76.3955	0.075	152791	keystroke_o	o	n/a
76.4855	0.09	152971	keystroke_s	s	n/a
76.605	0.0605	153210	keystroke_i	i	n/a
76.6955	0.0745	153391	keystroke_t	t	n/a
76.785	0.091	153570	keystroke_i	i	n/a
76.9355	0.06	153871	keystroke_v	v	n/a
77.2505	0.075	154501	keystroke_e	e	n/a
77.3405	0.09	154681	keystroke_Key.space	Key.space	n/a
77.5055	0.075	155011	keystroke_a	a	n/a
77.6405	0.06	155281	keystroke_s	s	n/a
77.7605	0.0595	155521	keystroke_s	s	n/a
78.12	0.075	156240	keystroke_i	i	n/a
78.2405	0.0595	156481	keystroke_s	s	n/a
78.36	0.09	156720	keystroke_t	t	n/a
78.42	0.105	156840	keystroke_e	e	n/a
78.57	0.075	157140	keystroke_d	d	n/a
78.69	0.06	157380	keystroke_Key.space	Key.space	n/a
78.9	0.06	157800	keystroke_o	o	n/a
79.0805	0.0745	158161	keystroke_u	u	n/a
79.14	0.031	158280	keystroke_r	r	n/a
79.41	0.06	158820	keystroke_s	s	n/a
79.56	0.105	159120	keystroke_e	e	n/a
79.681	0.0895	159362	keystroke_l	l	n/a
79.8155	0.1195	159631	keystroke_v	v	n/a
79.875	0.105	159750	keystroke_e	e	n/a
80.0555	0.075	160111	keystroke_s	s	n/a
80.145	0.0755	160290	keystroke_Key.space	Key.space	n/a
80.3105	0.0745	160621	keystroke_s	s	n/a
80.355	0.0755	160710	keystroke_o	o	n/a
80.5655	0.045	161131	keystroke_u	u	n/a
80.79	0.0755	161580	keystroke_p	p	n/a
80.9555	0.135	161911	keystroke_Key.enter	Key.enter	n/a
81.0955	5.6365	162191	prompt	n/a	reload chat harold beautiful\n
81.66	0.1205	163320	keystroke_r	r	n/a
81.9	0.0755	163800	keystroke_e	e	n/a
82.185	0.0905	164370	keystroke_l	l	n/a
82.3655	0.059	164731	keystroke_o	o	n/a
82.4555	0.12	164911	keystroke_a	a	n/a
82.5295	0.106	165059	keystroke_d	d	n/a
82.6655	0.074	165331	keystroke_Key.space	Key.space	n/a
82.8455	0.06	165691	keystroke_c	c	n/a
82.9355	0.075	165871	keystroke_h	h	n/a
83.0255	0.105	166051	keystroke_a	a	n/a
83.2045	0.075	166409	keystroke_Key.space	Key.space	n/a
83.5345	0.075	167069	keystroke_Key.backspace	Key.backspace	n/a
83.6255	0.0895	167251	keystroke_t	t	n/a
83.79	0.075	167580	keystroke_Key.space	Key.space	n/a
83.8805	0.09	167761	keystroke_h	h	n/a
84.0305	0.105	168061	keystroke_a	a	n/a
84.4355	0.0905	168871	keystroke_r	r	n/a
84.6	0.09	169200	keystroke_o	o	n/a
84.765	0.075	169530	keystroke_l	l	n/a
84.855	0.0605	169710	keystroke_d	d	n/a
84.975	0.09	169950	keystroke_Key.space	Key.space	n/a
85.1855	0.075	170371	keystroke_b	b	n/a
85.3805	0.1045	170761	keystroke_e	e	n/a
85.4705	0.0895	170941	keystroke_a	a	n/a
85.59	0.06	171180	keystroke_u	u	n/a
85.6655	0.0745	171331	keystroke_t	t	n/a
85.9205	0.015	171841	keystroke_i	i	n/a
85.9955	0.09	171991	keystroke_f	f	n/a
86.2655	0.06	172531	keystroke_u	u	n/a
86.4605	0.0745	172921	keystroke_l	l	n/a
86.595	0.1355	173190	keystroke_Key.enter	Key.enter	n/a
86.737	6.7775	173474	prompt	n/a	jake driven evening groups\n
87.4505	0.075	174901	keystroke_j	j	n/a
87.5405	0.09	175081	keystroke_a	a	n/a
87.6155	0.0745	175231	keystroke_k	k	n/a
87.691	0.1045	175382	keystroke_e	e	n/a
87.81	0.0755	175620	keystroke_Key.space	Key.space	n/a
87.9305	0.06	175861	keystroke_d	d	n/a
88.1105	0.075	176221	keystroke_r	r	n/a
88.2305	0.075	176461	keystroke_i	i	n/a
88.4555	0.105	176911	keystroke_v	v	n/a
88.5605	0.075	177121	keystroke_e	e	n/a
88.8005	0.075	177601	keystroke_n	n	n/a
89.0255	0.075	178051	keystroke_Key.space	Key.space	n/a
89.6555	0.135	179311	keystroke_e	e	n/a
90.0155	0.105	180031	keystroke_v	v	n/a
90.1055	0.12	180211	keystroke_e	e	n/a
90.2405	0.075	180481	keystroke_n	n	n/a
90.4355	0.059	180871	keystroke_Key.space	Key.space	n/a
90.5705	0.075	181141	keystroke_g	g	n/a
90.7505	0.075	181501	keystroke_r	r	n/a
90.8105	0.09	181621	keystroke_o	o	n/a
91.0205	0.045	182041	keystroke_u	u	n/a
91.246	0.0295	182492	keystroke_p	p	n/a
91.6505	0.075	183301	keystroke_s	s	n/a
93.39	0.12	186780	keystroke_Key.enter	Key.enter	n/a
93.5195	6.3675	187039	prompt	n/a	donna enjoying russell trustee\n
94.4555	0.074	188911	keystroke_d	d	n/a
94.5595	0.105	189119	keystroke_o	o	n/a
95.1605	0.06	190321	keystroke_n	n	n/a
95.385	0.015	190770	keystroke_n	n	n/a
95.61	0.15	191220	keystroke_a	a	n/a
95.745	0.0895	191490	keystroke_Key.space	Key.space	n/a
95.8955	0.1345	191791	keystroke_e	e	n/a
96.015	0.0895	192030	keystroke_n	n	n/a
96.2105	0.074	192421	keystroke_j	j	n/a
96.4945	0.0755	192989	keystroke_o	o	n/a
96.5855	0.09	193171	keystroke_y	y	n/a
96.705	0.06	193410	keystroke_i	i	n/a
96.8705	0.0745	193741	keystroke_n	n	n/a
96.975	0.0605	193950	keystroke_g	g	n/a
97.0645	0.075	194129	keystroke_Key.space	Key.space	n/a
97.1845	0.106	194369	keystroke_r	r	n/a
97.3655	0.0745	194731	keystroke_u	u	n/a
97.47	0.06	194940	keystroke_s	s	n/a
97.59	0.09	195180	keystroke_s	s	n/a
97.755	0.0905	195510	keystroke_e	e	n/a
97.77	0.0755	195540	keystroke_l	l	n/a
98.0095	0.075	196019	keystroke_Key.space	Key.space	n/a
98.2195	0.075	196439	keystroke_t	t	n/a
98.4295	0.091	196859	keystroke_r	r	n/a
98.61	0.075	197220	keystroke_u	u	n/a
98.7155	0.075	197431	keystroke_s	s	n/a
98.8355	0.09	197671	keystroke_t	t	n/a
99.0005	0.09	198001	keystroke_e	e	n/a
99.1805	0.0895	198361	keystroke_e	e	n/a
99.7645	0.12	199529	keystroke_Key.enter	Key.enter	n/a
99.8925	6.1145	199785	prompt	n/a	nationally moon disc presence\n
100.4855	0.105	200971	keystroke_n	n	n/a
100.6055	0.105	201211	keystroke_a	a	n/a
100.6655	0.105	201331	keystroke_t	t	n/a
101.2195	0.076	202439	keystroke_i	i	n/a
101.385	0.09	202770	keystroke_o	o	n/a
101.46	0.06	202920	keystroke_n	n	n/a
101.64	0.0895	203280	keystroke_a	a	n/a
101.7	0.0895	203400	keystroke_l	l	n/a
101.8505	0.0895	203701	keystroke_l	l	n/a
101.955	0.1055	203910	keystroke_y	y	n/a
102.0905	0.075	204181	keystroke_Key.space	Key.space	n/a
102.2705	0.0595	204541	keystroke_m	m	n/a
102.45	0.06	204900	keystroke_o	o	n/a
102.5855	0.075	205171	keystroke_o	o	n/a
102.78	0.0755	205560	keystroke_n	n	n/a
102.9455	0.09	205891	keystroke_Key.space	Key.space	n/a
103.11	0.045	206220	keystroke_s	s	n/a
103.35	0.075	206700	keystroke_Key.backspace	Key.backspace	n/a
103.4255	0.104	206851	keystroke_d	d	n/a
103.5155	0.089	207031	keystroke_i	i	n/a
103.62	0.0905	207240	keystroke_s	s	n/a
103.7555	0.09	207511	keystroke_c	c	n/a
104.0555	0.09	208111	keystroke_Key.space	Key.space	n/a
104.3405	0.074	208681	keystroke_p	p	n/a
104.3845	0.1355	208769	keystroke_r	r	n/a
104.5045	0.046	209009	keystroke_e	e	n/a
105.2705	0.059	210541	keystroke_s	s	n/a
105.4805	0.0895	210961	keystroke_e	e	n/a
105.615	0.0905	211230	keystroke_n	n	n/a
105.69	0.1355	211380	keystroke_c	c	n/a
105.7655	0.0895	211531	keystroke_e	e	n/a
105.915	0.09	211830	keystroke_Key.enter	Key.enter	n/a
106.012	4.647	212024	prompt	n/a	allan dylan button such\n
106.635	0.09	213270	keystroke_a	a	n/a
106.74	0.045	213480	keystroke_l	l	n/a
106.86	0.075	213720	keystroke_l	l	n/a
107.13	0.045	214260	keystroke_n	n	n/a
107.145	0.075	214290	keystroke_a	a	n/a
107.3995	0.06	214799	keystroke_Key.backspace	Key.backspace	n/a
107.5195	0.106	215039	keystroke_Key.backspace	Key.backspace	n/a
107.6405	0.105	215281	keystroke_a	a	n/a
107.7455	0.075	215491	keystroke_n	n	n/a
107.91	0.075	215820	keystroke_Key.space	Key.space	n/a
108.045	0.075	216090	keystroke_d	d	n/a
108.315	0.09	216630	keystroke_y	y	n/a
108.435	0.0905	216870	keystroke_l	l	n/a
108.5705	0.089	217141	keystroke_a	a	n/a
108.6895	0.075	217379	keystroke_n	n	n/a
108.825	0.1045	217650	keystroke_Key.space	Key.space	n/a
109.0645	0.0755	218129	keystroke_b	b	n/a
109.1545	0.076	218309	keystroke_u	u	n/a
109.2595	0.061	218519	keystroke_t	t	n/a
109.38	0.0595	218760	keystroke_t	t	n/a
109.4855	0.075	218971	keystroke_o	o	n/a
109.68	0.075	219360	keystroke_n	n	n/a
109.845	0.075	219690	keystroke_Key.space	Key.space	n/a
109.965	0.1055	219930	keystroke_s	s	n/a
110.25	0.03	220500	keystroke_u	u	n/a
110.325	0.0905	220650	keystroke_c	c	n/a
110.4005	0.0745	220801	keystroke_h	h	n/a
110.595	0.06	221190	keystroke_Key.enter	Key.enter	n/a
110.6655	12.6365	221331	prompt	n/a	charleston composer sufficient fundamental\n
111.2395	0.061	222479	keystroke_c	c	n/a
111.72	0.075	223440	keystroke_h	h	n/a
111.81	0.1505	223620	keystroke_a	a	n/a
111.9005	0.09	223801	keystroke_r	r	n/a
112.0505	0.104	224101	keystroke_l	l	n/a
112.455	0.105	224910	keystroke_Key.backspace	Key.backspace	n/a
112.965	0.105	225930	keystroke_l	l	n/a
113.055	0.12	226110	keystroke_e	e	n/a
113.145	0.09	226290	keystroke_s	s	n/a
113.34	0.105	226680	keystroke_t	t	n/a
113.4305	0.059	226861	keystroke_o	o	n/a
113.6095	0.1055	227219	keystroke_n	n	n/a
113.7895	0.0605	227579	keystroke_Key.space	Key.space	n/a
114.4495	0.091	228899	keystroke_Key.backspace	Key.backspace	n/a
115.635	0.075	231270	keystroke_Key.space	Key.space	n/a
115.8455	0.09	231691	keystroke_c	c	n/a
115.9205	0.059	231841	keystroke_o	o	n/a
116.13	0.0755	232260	keystroke_m	m	n/a
116.385	0.0595	232770	keystroke_p	p	n/a
116.55	0.0745	233100	keystroke_o	o	n/a
116.5955	0.09	233191	keystroke_s	s	n/a
116.7755	0.105	233551	keystroke_e	e	n/a
116.8345	0.0905	233669	keystroke_r	r	n/a
116.955	0.1045	233910	keystroke_Key.space	Key.space	n/a
117.1945	0.105	234389	keystroke_s	s	n/a
117.3595	0.061	234719	keystroke_u	u	n/a
117.6595	0.046	235319	keystroke_f	f	n/a
117.7645	0.075	235529	keystroke_f	f	n/a
117.915	0.0755	235830	keystroke_i	i	n/a
117.975	0.0905	235950	keystroke_c	c	n/a
118.1395	0.075	236279	keystroke_i	i	n/a
121.2765	0.0585	242553	keystroke_e	e	n/a
121.3195	0.075	242639	keystroke_n	n	n/a
121.4095	0.09	242819	keystroke_t	t	n/a
121.5145	0.075	243029	keystroke_Key.space	Key.space	n/a
121.6795	0.075	243359	keystroke_f	f	n/a
121.7695	0.0605	243539	keystroke_u	u	n/a
121.9205	0.0895	243841	keystroke_n	n	n/a
121.995	0.1195	243990	keystroke_d	d	n/a
122.1	0.1195	244200	keystroke_a	a	n/a
122.2345	0.09	244469	keystroke_m	m	n/a
122.3405	0.0895	244681	keystroke_e	e	n/a
122.445	0.06	244890	keystroke_n	n	n/a
122.4905	0.09	244981	keystroke_t	t	n/a
122.6245	0.075	245249	keystroke_a	a	n/a
122.7445	0.075	245489	keystroke_l	l	n/a
123.1795	0.12	246359	keystroke_Key.enter	Key.enter	n/a
123.3065	4.7505	246613	prompt	n/a	treo sensor harold demands\n
124.1105	0.105	248221	keystroke_t	t	n/a
124.2305	0.105	248461	keystroke_e	e	n/a
124.515	0.09	249030	keystroke_Key.backspace	Key.backspace	n/a
124.59	0.12	249180	keystroke_r	r	n/a
124.68	0.09	249360	keystroke_e	e	n/a
124.785	0.1045	249570	keystroke_o	o	n/a
125.055	0.0155	250110	keystroke_Key.space	Key.space	n/a
125.1755	0.059	250351	keystroke_s	s	n/a
125.31	0.1195	250620	keystroke_e	e	n/a
125.3855	0.075	250771	keystroke_n	n	n/a
125.5205	0.089	251041	keystroke_s	s	n/a
125.6545	0.045	251309	keystroke_o	o	n/a
125.7305	0.0895	251461	keystroke_r	r	n/a
125.88	0.09	251760	keystroke_Key.space	Key.space	n/a
126.1355	0.09	252271	keystroke_h	h	n/a
126.2695	0.1205	252539	keystroke_a	a	n/a
126.3595	0.105	252719	keystroke_r	r	n/a
126.4495	0.075	252899	keystroke_o	o	n/a
126.78	0.06	253560	keystroke_l	l	n/a
126.9	0.0605	253800	keystroke_d	d	n/a
126.975	0.0895	253950	keystroke_Key.space	Key.space	n/a
127.1555	0.1345	254311	keystroke_d	d	n/a
127.2605	0.1045	254521	keystroke_e	e	n/a
127.32	0.09	254640	keystroke_m	m	n/a
127.47	0.105	254940	keystroke_a	a	n/a
127.5755	0.0745	255151	keystroke_n	n	n/a
127.635	0.105	255270	keystroke_d	d	n/a
127.695	0.12	255390	keystroke_s	s	n/a
127.92	0.135	255840	keystroke_Key.enter	Key.enter	n/a
128.0615	6.01	256123	prompt	n/a	scuba gallery completion particle\n
128.64	0.075	257280	keystroke_s	s	n/a
129	0.06	258000	keystroke_c	c	n/a
129.255	0.075	258510	keystroke_u	u	n/a
129.375	0.075	258750	keystroke_b	b	n/a
129.54	0.1045	259080	keystroke_a	a	n/a
129.66	0.09	259320	keystroke_Key.space	Key.space	n/a
129.885	0.0905	259770	keystroke_g	g	n/a
129.99	0.105	259980	keystroke_a	a	n/a
130.0505	0.06	260101	keystroke_l	l	n/a
130.17	0.0905	260340	keystroke_l	l	n/a
130.245	0.1205	260490	keystroke_e	e	n/a
130.3205	0.1345	260641	keystroke_r	r	n/a
130.455	0.09	260910	keystroke_a	a	n/a
130.8	0.09	261600	keystroke_Key.backspace	Key.backspace	n/a
130.875	0.09	261750	keystroke_y	y	n/a
131.235	0.075	262470	keystroke_Key.space	Key.space	n/a
131.5055	0.06	263011	keystroke_c	c	n/a
131.58	0.045	263160	keystroke_o	o	n/a
131.715	0.06	263430	keystroke_m	m	n/a
131.895	0.0455	263790	keystroke_p	p	n/a
132.0145	0.105	264029	keystroke_l	l	n/a
132.1055	0.089	264211	keystroke_e	e	n/a
132.2395	0.1055	264479	keystroke_t	t	n/a
132.51	0.075	265020	keystroke_i	i	n/a
132.6605	0.0745	265321	keystroke_o	o	n/a
132.72	0.075	265440	keystroke_n	n	n/a
132.9	0.06	265800	keystroke_Key.space	Key.space	n/a
133.125	0.06	266250	keystroke_p	p	n/a
133.1555	0.1495	266311	keystroke_a	a	n/a
133.275	0.09	266550	keystroke_r	r	n/a
133.455	0.06	266910	keystroke_t	t	n/a
133.5605	0.06	267121	keystroke_i	i	n/a
133.665	0.06	267330	keystroke_c	c	n/a
133.7555	0.09	267511	keystroke_l	l	n/a
133.86	0.0905	267720	keystroke_e	e	n/a
133.9345	0.1355	267869	keystroke_Key.enter	Key.enter	n/a
134.0765	5.8005	268153	prompt	n/a	politics correction hand song\n
134.655	0.03	269310	keystroke_o	o	n/a
134.94	0.105	269880	keystroke_Key.backspace	Key.backspace	n/a
135.075	0.0905	270150	keystroke_p	p	n/a
135.2555	0.0745	270511	keystroke_o	o	n/a
135.42	0.0605	270840	keystroke_l	l	n/a
135.6455	0.0145	271291	keystroke_i	i	n/a
135.675	0.075	271350	keystroke_t	t	n/a
135.78	0.075	271560	keystroke_i	i	n/a
135.93	0.12	271860	keystroke_c	c	n/a
136.0355	0.0745	272071	keystroke_s	s	n/a
136.155	0.09	272310	keystroke_Key.space	Key.space	n/a
136.41	0.075	272820	keystroke_c	c	n/a
136.5	0.0605	273000	keystroke_o	o	n/a
136.62	0.06	273240	keystroke_r	r	n/a
136.77	0.075	273540	keystroke_r	r	n/a
136.8145	0.166	273629	keystroke_e	e	n/a
136.9655	0.059	273931	keystroke_c	c	n/a
137.1295	0.0905	274259	keystroke_t	t	n/a
137.2345	0.046	274469	keystroke_i	i	n/a
137.3695	0.076	274739	keystroke_o	o	n/a
137.43	0.0595	274860	keystroke_n	n	n/a
137.5805	0.074	275161	keystroke_Key.space	Key.space	n/a
137.835	0.045	275670	keystroke_h	h	n/a
138.015	0.09	276030	keystroke_a	a	n/a
138.1655	0.045	276331	keystroke_d	d	n/a
138.18	0.06	276360	keystroke_n	n	n/a
138.72	0.06	277440	keystroke_Key.backspace	Key.backspace	n/a
138.855	0.06	277710	keystroke_Key.backspace	Key.backspace	n/a
139.065	0.0455	278130	keystroke_n	n	n/a
139.1255	0.0585	278251	keystroke_d	d	n/a
139.2	0.0745	278400	keystroke_Key.space	Key.space	n/a
139.3055	0.09	278611	keystroke_s	s	n/a
139.4255	0.045	278851	keystroke_o	o	n/a
139.5605	0.074	279121	keystroke_n	n	n/a
139.6045	0.091	279209	keystroke_g	g	n/a
139.755	0.1205	279510	keystroke_Key.enter	Key.enter	n/a
139.882	6.5345	279764	prompt	n/a	kids satellite nvidia portugal\n
140.475	0.09	280950	keystroke_k	k	n/a
140.64	0.0905	281280	keystroke_i	i	n/a
140.715	0.1205	281430	keystroke_d	d	n/a
140.79	0.1045	281580	keystroke_s	s	n/a
140.8795	0.0755	281759	keystroke_Key.space	Key.space	n/a
141.015	0.105	282030	keystroke_s	s	n/a
141.24	0.09	282480	keystroke_a	a	n/a
141.39	0.06	282780	keystroke_t	t	n/a
141.6	0.0605	283200	keystroke_e	e	n/a
141.7795	0.0905	283559	keystroke_l	l	n/a
142.065	0.0905	284130	keystroke_l	l	n/a
142.305	0.0605	284610	keystroke_i	i	n/a
142.3795	0.106	284759	keystroke_t	t	n/a
142.4555	0.089	284911	keystroke_e	e	n/a
142.6945	0.0905	285389	keystroke_Key.space	Key.space	n/a
143.2495	0.075	286499	keystroke_n	n	n/a
143.3695	0.0755	286739	keystroke_b	b	n/a
143.685	0.075	287370	keystroke_Key.backspace	Key.backspace	n/a
143.7755	0.0745	287551	keystroke_v	v	n/a
143.9545	0.061	287909	keystroke_i	i	n/a
144.1505	0.0745	288301	keystroke_d	d	n/a
144.3	0.075	288600	keystroke_i	i	n/a
144.435	0.09	288870	keystroke_a	a	n/a
144.57	0.09	289140	keystroke_Key.space	Key.space	n/a
144.855	0.06	289710	keystroke_p	p	n/a
145.02	0.0605	290040	keystroke_o	o	n/a
145.0955	0.044	290191	keystroke_r	r	n/a
145.2305	0.0745	290461	keystroke_t	t	n/a
145.3805	0.059	290761	keystroke_u	u	n/a
145.6805	0.0895	291361	keystroke_g	g	n/a
145.89	0.075	291780	keystroke_a	a	n/a
145.935	0.105	291870	keystroke_l	l	n/a
146.2945	0.1205	292589	keystroke_Key.enter	Key.enter	n/a
146.4215	5.5305	292843	prompt	n/a	allergy marie anniversary tray\n
146.9245	0.18	293849	keystroke_a	a	n/a
147.0755	0.0745	294151	keystroke_l	l	n/a
147.2095	0.1055	294419	keystroke_l	l	n/a
147.42	0.15	294840	keystroke_e	e	n/a
147.4955	0.1195	294991	keystroke_r	r	n/a
147.72	0.075	295440	keystroke_g	g	n/a
147.9	0.075	295800	keystroke_y	y	n/a
148.0045	0.0755	296009	keystroke_Key.space	Key.space	n/a
148.1845	0.0755	296369	keystroke_m	m	n/a
148.215	0.1345	296430	keystroke_a	a	n/a
148.3345	0.09	296669	keystroke_r	r	n/a
148.4555	0.074	296911	keystroke_i	i	n/a
148.5445	0.1055	297089	keystroke_e	e	n/a
148.6795	0.09	297359	keystroke_Key.space	Key.space	n/a
148.83	0.0895	297660	keystroke_a	a	n/a
148.9355	0.075	297871	keystroke_n	n	n/a
149.28	0.0895	298560	keystroke_n	n	n/a
149.5055	0.0445	299011	keystroke_i	i	n/a
149.565	0.1045	299130	keystroke_v	v	n/a
149.7295	0.1205	299459	keystroke_e	e	n/a
149.8195	0.1055	299639	keystroke_r	r	n/a
149.985	0.165	299970	keystroke_s	s	n/a
150.12	0.09	300240	keystroke_a	a	n/a
150.27	0.0605	300540	keystroke_y	y	n/a
150.54	0.075	301080	keystroke_Key.backspace	Key.backspace	n/a
150.6005	0.075	301201	keystroke_r	r	n/a
150.795	0.06	301590	keystroke_y	y	n/a
150.93	0.074	301860	keystroke_Key.space	Key.space	n/a
151.1405	0.0895	302281	keystroke_t	t	n/a
151.3655	0.1195	302731	keystroke_r	r	n/a
151.5	0.12	303000	keystroke_a	a	n/a
151.71	0.075	303420	keystroke_y	y	n/a
151.86	0.09	303720	keystroke_Key.enter	Key.enter	n/a
151.958	6.1605	303916	prompt	n/a	montgomery occasionally linking asset\n
152.61	0.06	305220	keystroke_m	m	n/a
152.789	0.046	305578	keystroke_o	o	n/a
152.955	0.0605	305910	keystroke_n	n	n/a
153.03	0.0745	306060	keystroke_t	t	n/a
153.33	0.0595	306660	keystroke_g	g	n/a
153.4045	0.06	306809	keystroke_o	o	n/a
153.6	0.075	307200	keystroke_m	m	n/a
153.8095	0.136	307619	keystroke_e	e	n/a
153.9005	0.09	307801	keystroke_r	r	n/a
154.11	0.0905	308220	keystroke_y	y	n/a
154.2455	0.09	308491	keystroke_Key.space	Key.space	n/a
154.4855	0.044	308971	keystroke_o	o	n/a
154.56	0.0605	309120	keystroke_c	c	n/a
154.6945	0.076	309389	keystroke_c	c	n/a
154.8005	0.1645	309601	keystroke_a	a	n/a
154.9205	0.0895	309841	keystroke_s	s	n/a
155.1905	0.089	310381	keystroke_o	o	n/a
155.2955	0.0595	310591	keystroke_n	n	n/a
155.4295	0.09	310859	keystroke_a	a	n/a
155.49	0.075	310980	keystroke_l	l	n/a
155.6245	0.0605	311249	keystroke_l	l	n/a
155.7	0.075	311400	keystroke_y	y	n/a
155.805	0.0745	311610	keystroke_Key.space	Key.space	n/a
155.9995	0.061	311999	keystroke_l	l	n/a
156.135	0.0595	312270	keystroke_i	i	n/a
156.3005	0.059	312601	keystroke_n	n	n/a
156.4495	0.0455	312899	keystroke_k	k	n/a
156.585	0.0745	313170	keystroke_i	i	n/a
156.6295	0.105	313259	keystroke_n	n	n/a
156.705	0.0745	313410	keystroke_g	g	n/a
156.8105	0.089	313621	keystroke_Key.space	Key.space	n/a
156.9295	0.061	313859	keystroke_a	a	n/a
156.945	0.09	313890	keystroke_s	s	n/a
157.5445	0.0755	315089	keystroke_s	s	n/a
157.7545	0.135	315509	keystroke_e	e	n/a
157.8745	0.09	315749	keystroke_t	t	n/a
157.995	0.12	315990	keystroke_Key.enter	Key.enter	n/a
158.1235	4.163	316247	prompt	n/a	taken tion masters tied\n
158.7905	0.09	317581	keystroke_t	t	n/a
158.8945	0.076	317789	keystroke_a	a	n/a
159.21	0.09	318420	keystroke_k	k	n/a
159.4805	0.119	318961	keystroke_e	e	n/a
159.6445	0.075	319289	keystroke_n	n	n/a
159.8095	0.0905	319619	keystroke_Key.space	Key.space	n/a
159.9745	0.091	319949	keystroke_t	t	n/a
160.0795	0.0605	320159	keystroke_i	i	n/a
160.2295	0.1055	320459	keystroke_o	o	n/a
160.3195	0.075	320639	keystroke_n	n	n/a
160.455	0.0595	320910	keystroke_Key.space	Key.space	n/a
160.6055	0.0745	321211	keystroke_m	m	n/a
160.6945	0.1055	321389	keystroke_a	a	n/a
160.74	0.1195	321480	keystroke_s	s	n/a
160.9055	0.104	321811	keystroke_t	t	n/a
160.9795	0.1205	321959	keystroke_e	e	n/a
161.0845	0.1205	322169	keystroke_r	r	n/a
161.25	0.09	322500	keystroke_s	s	n/a
161.3695	0.09	322739	keystroke_Key.space	Key.space	n/a
161.5045	0.09	323009	keystroke_t	t	n/a
161.64	0.0755	323280	keystroke_i	i	n/a
161.7745	0.105	323549	keystroke_e	e	n/a
162.045	0.075	324090	keystroke_d	d	n/a
162.18	0.105	324360	keystroke_Key.enter	Key.enter	n/a
162.29	5.577	324580	prompt	n/a	races enhance porter inflation\n
162.825	0.12	325650	keystroke_r	r	n/a
162.975	0.135	325950	keystroke_a	a	n/a
163.1255	0.1195	326251	keystroke_c	c	n/a
163.2	0.105	326400	keystroke_e	e	n/a
163.38	0.075	326760	keystroke_s	s	n/a
163.5	0.0905	327000	keystroke_Key.space	Key.space	n/a
163.62	0.105	327240	keystroke_e	e	n/a
163.74	0.075	327480	keystroke_n	n	n/a
163.92	0.06	327840	keystroke_a	a	n/a
164.0105	0.0895	328021	keystroke_h	h	n/a
164.2645	0.06	328529	keystroke_Key.backspace	Key.backspace	n/a
164.3695	0.0905	328739	keystroke_Key.backspace	Key.backspace	n/a
164.565	0.0755	329130	keystroke_h	h	n/a
164.655	0.12	329310	keystroke_a	a	n/a
164.7905	0.0745	329581	keystroke_n	n	n/a
164.88	0.12	329760	keystroke_c	c	n/a
164.985	0.105	329970	keystroke_e	e	n/a
165.48	0.045	330960	keystroke_Key.space	Key.space	n/a
165.7505	0.0445	331501	keystroke_p	p	n/a
165.915	0.06	331830	keystroke_o	o	n/a
165.9755	0.059	331951	keystroke_r	r	n/a
166.1245	0.076	332249	keystroke_t	t	n/a
166.1845	0.135	332369	keystroke_e	e	n/a
166.2745	0.105	332549	keystroke_r	r	n/a
166.395	0.0595	332790	keystroke_Key.space	Key.space	n/a
166.844	0.046	333688	keystroke_i	i	n/a
166.965	0.0755	333930	keystroke_n	n	n/a
167.025	0.09	334050	keystroke_f	f	n/a
167.16	0.09	334320	keystroke_l	l	n/a
167.2655	0.1045	334531	keystroke_a	a	n/a
167.34	0.0905	334680	keystroke_t	t	n/a
167.4	0.0595	334800	keystroke_i	i	n/a
167.5345	0.091	335069	keystroke_o	o	n/a
167.6255	0.075	335251	keystroke_n	n	n/a
167.7305	0.134	335461	keystroke_Key.enter	Key.enter	n/a
167.871	4.571	335742	prompt	n/a	annex simple wise except\n
168.375	0.0895	336750	keystroke_a	a	n/a
168.4955	0.074	336991	keystroke_n	n	n/a
168.6295	0.09	337259	keystroke_n	n	n/a
168.7045	0.0755	337409	keystroke_e	e	n/a
169.005	0.0745	338010	keystroke_Key.space	Key.space	n/a
169.2895	0.06	338579	keystroke_Key.backspace	Key.backspace	n/a
169.3795	0.09	338759	keystroke_x	x	n/a
169.485	0.0745	338970	keystroke_Key.space	Key.space	n/a
169.7845	0.0905	339569	keystroke_s	s	n/a
169.8605	0.0745	339721	keystroke_i	i	n/a
170.025	0.075	340050	keystroke_m	m	n/a
170.22	0.06	340440	keystroke_p	p	n/a
170.355	0.09	340710	keystroke_l	l	n/a
170.446	0.074	340892	keystroke_e	e	n/a
170.5495	0.0755	341099	keystroke_Key.space	Key.space	n/a
170.64	0.105	341280	keystroke_w	w	n/a
170.775	0.0605	341550	keystroke_i	i	n/a
170.91	0.1045	341820	keystroke_s	s	n/a
171.09	0.0895	342180	keystroke_e	e	n/a
171.2695	0.0755	342539	keystroke_Key.space	Key.space	n/a
171.4045	0.0755	342809	keystroke_e	e	n/a
171.585	0.0895	343170	keystroke_x	x	n/a
171.855	0.12	343710	keystroke_c	c	n/a
171.96	0.12	343920	keystroke_e	e	n/a
172.08	0.075	344160	keystroke_p	p	n/a
172.184	0.106	344368	keystroke_t	t	n/a
172.35	0.09	344700	keystroke_Key.enter	Key.enter	n/a
172.448	5.124	344896	prompt	n/a	preparing airport bronze upgrade\n
173.025	0.1195	346050	keystroke_p	p	n/a
173.0995	0.121	346199	keystroke_r	r	n/a
173.1905	0.09	346381	keystroke_e	e	n/a
173.3545	0.0905	346709	keystroke_p	p	n/a
173.4605	0.119	346921	keystroke_a	a	n/a
173.535	0.09	347070	keystroke_r	r	n/a
173.73	0.075	347460	keystroke_t	t	n/a
173.835	0.045	347670	keystroke_i	i	n/a
174.0005	0.0595	348001	keystroke_n	n	n/a
174.09	0.09	348180	keystroke_g	g	n/a
174.224	0.0755	348448	keystroke_Key.space	Key.space	n/a
174.4355	0.0745	348871	keystroke_a	a	n/a
174.63	0.06	349260	keystroke_i	i	n/a
174.705	0.075	349410	keystroke_r	r	n/a
174.855	0.0605	349710	keystroke_p	p	n/a
175.005	0.075	350010	keystroke_o	o	n/a
175.065	0.06	350130	keystroke_r	r	n/a
175.2005	0.075	350401	keystroke_t	t	n/a
175.29	0.105	350580	keystroke_Key.space	Key.space	n/a
175.455	0.09	350910	keystroke_b	b	n/a
175.635	0.105	351270	keystroke_r	r	n/a
175.755	0.06	351510	keystroke_o	o	n/a
175.935	0.06	351870	keystroke_n	n	n/a
176.01	0.135	352020	keystroke_z	z	n/a
176.1	0.075	352200	keystroke_e	e	n/a
176.19	0.075	352380	keystroke_Key.space	Key.space	n/a
176.49	0.045	352980	keystroke_u	u	n/a
176.6995	0.061	353399	keystroke_p	p	n/a
176.88	0.075	353760	keystroke_g	g	n/a
177.0605	0.089	354121	keystroke_r	r	n/a
177.18	0.135	354360	keystroke_a	a	n/a
177.27	0.15	354540	keystroke_d	d	n/a
177.375	0.12	354750	keystroke_e	e	n/a
177.435	0.135	354870	keystroke_Key.enter	Key.enter	n/a
177.582	6.2145	355164	prompt	n/a	decorating tribal stated abraham\n
178.1405	0.135	356281	keystroke_d	d	n/a
178.2455	0.105	356491	keystroke_e	e	n/a
178.41	0.0905	356820	keystroke_c	c	n/a
178.53	0.09	357060	keystroke_o	o	n/a
178.605	0.09	357210	keystroke_r	r	n/a
178.77	0.06	357540	keystroke_d	d	n/a
179.1	0.09	358200	keystroke_Key.backspace	Key.backspace	n/a
179.3245	0.105	358649	keystroke_a	a	n/a
179.505	0.06	359010	keystroke_t	t	n/a
179.775	0.0595	359550	keystroke_i	i	n/a
179.94	0.075	359880	keystroke_n	n	n/a
179.9995	0.0605	359999	keystroke_g	g	n/a
180.12	0.06	360240	keystroke_Key.space	Key.space	n/a
180.285	0.075	360570	keystroke_t	t	n/a
180.4795	0.0905	360959	keystroke_r	r	n/a
180.645	0.075	361290	keystroke_i	i	n/a
180.7645	0.0605	361529	keystroke_b	b	n/a
180.87	0.09	361740	keystroke_a	a	n/a
180.9305	0.075	361861	keystroke_l	l	n/a
181.1245	0.0905	362249	keystroke_Key.space	Key.space	n/a
181.2445	0.09	362489	keystroke_s	s	n/a
181.365	0.0905	362730	keystroke_t	t	n/a
181.47	0.105	362940	keystroke_a	a	n/a
181.5445	0.1055	363089	keystroke_t	t	n/a
181.62	0.105	363240	keystroke_e	e	n/a
181.77	0.09	363540	keystroke_d	d	n/a
181.89	0.06	363780	keystroke_Key.space	Key.space	n/a
182.1005	0.09	364201	keystroke_a	a	n/a
182.28	0.0595	364560	keystroke_b	b	n/a
182.49	0.0445	364980	keystroke_r	r	n/a
182.5805	0.104	365161	keystroke_a	a	n/a
183.21	0.0895	366420	keystroke_h	h	n/a
183.3445	0.105	366689	keystroke_a	a	n/a
183.4795	0.09	366959	keystroke_m	m	n/a
183.6595	0.135	367319	keystroke_Key.enter	Key.enter	n/a
183.801	4.2415	367602	prompt	n/a	unity posing auto parenting\n
184.4095	0.0605	368819	keystroke_u	u	n/a
184.56	0.075	369120	keystroke_n	n	n/a
184.71	0.105	369420	keystroke_i	i	n/a
184.799	0.061	369598	keystroke_t	t	n/a
184.95	0.0755	369900	keystroke_y	y	n/a
185.04	0.0745	370080	keystroke_Key.space	Key.space	n/a
185.2495	0.0605	370499	keystroke_p	p	n/a
185.4145	0.0755	370829	keystroke_o	o	n/a
185.4905	0.1045	370981	keystroke_s	s	n/a
185.6245	0.06	371249	keystroke_i	i	n/a
185.79	0.06	371580	keystroke_n	n	n/a
185.8805	0.074	371761	keystroke_g	g	n/a
185.97	0.0445	371940	keystroke_Key.space	Key.space	n/a
186.075	0.1045	372150	keystroke_a	a	n/a
186.1645	0.045	372329	keystroke_u	u	n/a
186.2695	0.075	372539	keystroke_t	t	n/a
186.3745	0.075	372749	keystroke_o	o	n/a
186.6	0.0595	373200	keystroke_Key.space	Key.space	n/a
186.809	0.0315	373618	keystroke_p	p	n/a
186.884	0.106	373768	keystroke_a	a	n/a
186.959	0.151	373918	keystroke_r	r	n/a
187.095	0.1195	374190	keystroke_e	e	n/a
187.26	0.0895	374520	keystroke_n	n	n/a
187.4095	0.061	374819	keystroke_t	t	n/a
187.5445	0.09	375089	keystroke_i	i	n/a
187.7395	0.09	375479	keystroke_n	n	n/a
187.8155	0.075	375631	keystroke_g	g	n/a
187.92	0.12	375840	keystroke_Key.enter	Key.enter	n/a
188.047	6.475	376094	prompt	n/a	royal statements aqua components\n
188.625	0.09	377250	keystroke_r	r	n/a
188.85	0.0905	377700	keystroke_o	o	n/a
188.955	0.075	377910	keystroke_y	y	n/a
189.3	0.1205	378600	keystroke_a	a	n/a
189.405	0.075	378810	keystroke_l	l	n/a
189.6	0.075	379200	keystroke_Key.space	Key.space	n/a
189.72	0.075	379440	keystroke_s	s	n/a
189.9	0.0895	379800	keystroke_t	t	n/a
190.0345	0.1205	380069	keystroke_a	a	n/a
190.14	0.105	380280	keystroke_t	t	n/a
190.4255	0.0895	380851	keystroke_e	e	n/a
190.845	0.0755	381690	keystroke_m	m	n/a
190.9495	0.09	381899	keystroke_e	e	n/a
191.0545	0.075	382109	keystroke_n	n	n/a
191.1145	0.0905	382229	keystroke_t	t	n/a
191.2645	0.06	382529	keystroke_s	s	n/a
191.355	0.0745	382710	keystroke_Key.space	Key.space	n/a
191.535	0.12	383070	keystroke_a	a	n/a
192.21	0.105	384420	keystroke_q	q	n/a
192.3595	0.0755	384719	keystroke_u	u	n/a
192.6595	0.1055	385319	keystroke_a	a	n/a
192.855	0.09	385710	keystroke_Key.space	Key.space	n/a
193.305	0.06	386610	keystroke_c	c	n/a
193.335	0.075	386670	keystroke_o	o	n/a
193.5005	0.0595	387001	keystroke_m	m	n/a
193.665	0.06	387330	keystroke_p	p	n/a
193.815	0.045	387630	keystroke_o	o	n/a
193.965	0.0745	387930	keystroke_n	n	n/a
194.0545	0.09	388109	keystroke_e	e	n/a
194.1595	0.075	388319	keystroke_n	n	n/a
194.2195	0.105	388439	keystroke_t	t	n/a
194.3395	0.09	388679	keystroke_s	s	n/a
194.4145	0.105	388829	keystroke_Key.enter	Key.enter	n/a
194.5265	5.605	389053	prompt	n/a	outlets hygiene entering gives\n
195.1495	0.091	390299	keystroke_o	o	n/a
195.3605	0.059	390721	keystroke_u	u	n/a
195.4045	0.105	390809	keystroke_t	t	n/a
195.5695	0.0905	391139	keystroke_l	l	n/a
195.66	0.09	391320	keystroke_e	e	n/a
195.735	0.09	391470	keystroke_t	t	n/a
195.855	0.09	391710	keystroke_s	s	n/a
195.93	0.09	391860	keystroke_Key.space	Key.space	n/a
196.125	0.075	392250	keystroke_h	h	n/a
196.305	0.075	392610	keystroke_y	y	n/a
196.605	0.105	393210	keystroke_g	g	n/a
196.785	0.0595	393570	keystroke_i	i	n/a
196.86	0.0745	393720	keystroke_e	e	n/a
197.0395	0.061	394079	keystroke_n	n	n/a
197.4305	0.074	394861	keystroke_e	e	n/a
197.535	0.1045	395070	keystroke_Key.space	Key.space	n/a
198.51	0.1045	397020	keystroke_e	e	n/a
198.6155	0.0895	397231	keystroke_n	n	n/a
198.705	0.0755	397410	keystroke_t	t	n/a
198.7805	0.12	397561	keystroke_e	e	n/a
198.8705	0.0895	397741	keystroke_r	r	n/a
198.9895	0.0605	397979	keystroke_i	i	n/a
199.1545	0.075	398309	keystroke_n	n	n/a
199.215	0.0745	398430	keystroke_g	g	n/a
199.334	0.076	398668	keystroke_Key.space	Key.space	n/a
199.47	0.0895	398940	keystroke_g	g	n/a
199.6055	0.0745	399211	keystroke_i	i	n/a
199.665	0.1195	399330	keystroke_v	v	n/a
199.7395	0.1205	399479	keystroke_e	e	n/a
199.9195	0.09	399839	keystroke_s	s	n/a
200.024	0.105	400048	keystroke_Key.enter	Key.enter	n/a
200.1355	3.536	400271	prompt	n/a	keeping grade congo beyond\n
200.7	0.105	401400	keystroke_k	k	n/a
200.8195	0.0605	401639	keystroke_e	e	n/a
200.9545	0.105	401909	keystroke_e	e	n/a
201.0445	0.0755	402089	keystroke_p	p	n/a
201.2245	0.0755	402449	keystroke_i	i	n/a
201.315	0.0595	402630	keystroke_n	n	n/a
201.3295	0.09	402659	keystroke_g	g	n/a
201.45	0.0895	402900	keystroke_Key.space	Key.space	n/a
201.5545	0.105	403109	keystroke_g	g	n/a
201.7495	0.1055	403499	keystroke_r	r	n/a
201.8705	0.119	403741	keystroke_a	a	n/a
201.96	0.12	403920	keystroke_d	d	n/a
202.05	0.105	404100	keystroke_e	e	n/a
202.14	0.0745	404280	keystroke_Key.space	Key.space	n/a
202.245	0.0595	404490	keystroke_c	c	n/a
202.3345	0.0605	404669	keystroke_o	o	n/a
202.4995	0.06	404999	keystroke_n	n	n/a
202.59	0.075	405180	keystroke_g	g	n/a
202.6945	0.045	405389	keystroke_o	o	n/a
202.8595	0.075	405719	keystroke_Key.space	Key.space	n/a
202.9045	0.105	405809	keystroke_b	b	n/a
203.0245	0.135	406049	keystroke_e	e	n/a
203.145	0.105	406290	keystroke_y	y	n/a
203.2345	0.06	406469	keystroke_o	o	n/a
203.3845	0.091	406769	keystroke_n	n	n/a
203.46	0.0745	406920	keystroke_d	d	n/a
203.5645	0.105	407129	keystroke_Key.enter	Key.enter	n/a
203.6755	5.0215	407351	prompt	n/a	restore park estimate allergy\n
204.21	0.075	408420	keystroke_r	r	n/a
204.555	0.075	409110	keystroke_e	e	n/a
204.689	0.09	409378	keystroke_s	s	n/a
204.84	0.075	409680	keystroke_o	o	n/a
204.9155	0.0745	409831	keystroke_t	t	n/a
205.2445	0.0605	410489	keystroke_Key.backspace	Key.backspace	n/a
205.365	0.075	410730	keystroke_Key.backspace	Key.backspace	n/a
205.425	0.06	410850	keystroke_t	t	n/a
205.485	0.09	410970	keystroke_o	o	n/a
205.5895	0.1355	411179	keystroke_r	r	n/a
205.68	0.09	411360	keystroke_e	e	n/a
205.77	0.075	411540	keystroke_Key.space	Key.space	n/a
206.009	0.046	412018	keystroke_p	p	n/a
206.115	0.12	412230	keystroke_a	a	n/a
206.4145	0.075	412829	keystroke_r	r	n/a
206.505	0.089	413010	keystroke_k	k	n/a
206.699	0.09	413398	keystroke_Key.space	Key.space	n/a
206.955	0.06	413910	keystroke_e	e	n/a
207.09	0.1195	414180	keystroke_s	s	n/a
207.1945	0.0755	414389	keystroke_t	t	n/a
207.24	0.059	414480	keystroke_i	i	n/a
207.404	0.076	414808	keystroke_m	m	n/a
207.45	0.105	414900	keystroke_a	a	n/a
207.509	0.106	415018	keystroke_t	t	n/a
207.5845	0.09	415169	keystroke_e	e	n/a
207.644	0.061	415288	keystroke_Key.space	Key.space	n/a
207.7795	0.09	415559	keystroke_a	a	n/a
207.8705	0.075	415741	keystroke_l	l	n/a
207.99	0.1045	415980	keystroke_l	l	n/a
208.0795	0.1355	416159	keystroke_e	e	n/a
208.1545	0.0755	416309	keystroke_r	r	n/a
208.32	0.09	416640	keystroke_g	g	n/a
208.485	0.09	416970	keystroke_y	y	n/a
208.56	0.135	417120	keystroke_Key.enter	Key.enter	n/a
208.7015	8.29	417403	prompt	n/a	afternoon myrtle investment icon\n
209.19	0.09	418380	keystroke_a	a	n/a
209.4295	0.03	418859	keystroke_f	f	n/a
209.7	0.09	419400	keystroke_t	t	n/a
209.805	0.105	419610	keystroke_e	e	n/a
209.865	0.09	419730	keystroke_r	r	n/a
210.165	0.075	420330	keystroke_n	n	n/a
210.375	0.0445	420750	keystroke_o	o	n/a
210.4795	0.0755	420959	keystroke_o	o	n/a
210.66	0.0595	421320	keystroke_n	n	n/a
210.8095	0.045	421619	keystroke_Key.space	Key.space	n/a
210.975	0.0895	421950	keystroke_m	m	n/a
211.2895	0.09	422579	keystroke_y	y	n/a
212.0095	0.0905	424019	keystroke_r	r	n/a
212.2495	0.09	424499	keystroke_t	t	n/a
212.43	0.0905	424860	keystroke_l	l	n/a
212.535	0.09	425070	keystroke_e	e	n/a
212.639	0.091	425278	keystroke_Key.space	Key.space	n/a
213.15	0.06	426300	keystroke_i	i	n/a
213.3	0.075	426600	keystroke_n	n	n/a
213.36	0.105	426720	keystroke_v	v	n/a
213.435	0.075	426870	keystroke_e	e	n/a
213.645	0.075	427290	keystroke_s	s	n/a
213.705	0.1205	427410	keystroke_t	t	n/a
213.826	0.089	427652	keystroke_e	e	n/a
213.9	0.075	427800	keystroke_m	m	n/a
214.05	0.105	428100	keystroke_e	e	n/a
214.0795	0.09	428159	keystroke_n	n	n/a
214.1845	0.0905	428369	keystroke_t	t	n/a
214.289	0.076	428578	keystroke_Key.space	Key.space	n/a
214.875	0.06	429750	keystroke_Key.backspace	Key.backspace	n/a
215.025	0.045	430050	keystroke_Key.backspace	Key.backspace	n/a
215.13	0.075	430260	keystroke_Key.backspace	Key.backspace	n/a
215.265	0.06	430530	keystroke_Key.backspace	Key.backspace	n/a
215.385	0.045	430770	keystroke_Key.backspace	Key.backspace	n/a
215.505	0.06	431010	keystroke_Key.backspace	Key.backspace	n/a
215.88	0.06	431760	keystroke_m	m	n/a
215.97	0.105	431940	keystroke_e	e	n/a
216.06	0.06	432120	keystroke_n	n	n/a
216.135	0.105	432270	keystroke_t	t	n/a
216.21	0.06	432420	keystroke_Key.space	Key.space	n/a
216.42	0.06	432840	keystroke_i	i	n/a
216.525	0.075	433050	keystroke_c	c	n/a
216.585	0.075	433170	keystroke_o	o	n/a
216.75	0.075	433500	keystroke_n	n	n/a
216.87	0.12	433740	keystroke_Key.enter	Key.enter	n/a
216.9975	4.4035	433995	prompt	n/a	short desired toolkit teen\n
217.605	0.075	435210	keystroke_s	s	n/a
217.74	0.075	435480	keystroke_h	h	n/a
217.845	0.0745	435690	keystroke_o	o	n/a
217.9345	0.075	435869	keystroke_r	r	n/a
218.1	0.0445	436200	keystroke_t	t	n/a
218.2045	0.075	436409	keystroke_Key.space	Key.space	n/a
218.475	0.0895	436950	keystroke_d	d	n/a
218.729	0.0755	437458	keystroke_e	e	n/a
218.8795	0.09	437759	keystroke_s	s	n/a
219.014	0.075	438028	keystroke_i	i	n/a
219.06	0.1195	438120	keystroke_r	r	n/a
219.15	0.104	438300	keystroke_e	e	n/a
219.2995	0.105	438599	keystroke_d	d	n/a
219.45	0.0895	438900	keystroke_Key.space	Key.space	n/a
219.7045	0.06	439409	keystroke_t	t	n/a
219.78	0.0745	439560	keystroke_o	o	n/a
219.915	0.0745	439830	keystroke_o	o	n/a
220.0645	0.09	440129	keystroke_l	l	n/a
220.275	0.075	440550	keystroke_k	k	n/a
220.4245	0.075	440849	keystroke_i	i	n/a
220.4995	0.105	440999	keystroke_t	t	n/a
220.6345	0.075	441269	keystroke_Key.space	Key.space	n/a
220.7545	0.0605	441509	keystroke_t	t	n/a
220.8745	0.075	441749	keystroke_e	e	n/a
221.0095	0.0905	442019	keystroke_e	e	n/a
221.0845	0.09	442169	keystroke_n	n	n/a
221.3245	0.075	442649	keystroke_Key.enter	Key.enter	n/a
221.406	10.946	442812	prompt	n/a	indirect fifth fitting berkeley\n
222.09	0.045	444180	keystroke_i	i	n/a
222.2395	0.075	444479	keystroke_n	n	n/a
222.3445	0.0905	444689	keystroke_d	d	n/a
222.51	0.0745	445020	keystroke_i	i	n/a
222.6295	0.0905	445259	keystroke_r	r	n/a
222.9295	0.075	445859	keystroke_e	e	n/a
223.0645	0.075	446129	keystroke_c	c	n/a
223.245	0.0595	446490	keystroke_t	t	n/a
223.3495	0.09	446699	keystroke_Key.space	Key.space	n/a
223.5145	0.075	447029	keystroke_f	f	n/a
223.6045	0.06	447209	keystroke_i	i	n/a
223.7095	0.1055	447419	keystroke_f	f	n/a
223.92	0.0745	447840	keystroke_t	t	n/a
224.175	0.059	448350	keystroke_h	h	n/a
224.355	0.0895	448710	keystroke_Key.space	Key.space	n/a
224.6095	0.09	449219	keystroke_f	f	n/a
224.7295	0.06	449459	keystroke_i	i	n/a
224.8195	0.06	449639	keystroke_t	t	n/a
224.94	0.075	449880	keystroke_t	t	n/a
225	0.06	450000	keystroke_i	i	n/a
225.1645	0.06	450329	keystroke_n	n	n/a
225.24	0.0745	450480	keystroke_g	g	n/a
225.3295	0.06	450659	keystroke_Key.space	Key.space	n/a
225.4945	0.06	450989	keystroke_k	k	n/a
225.704	0.075	451408	keystroke_Key.backspace	Key.backspace	n/a
225.7645	0.1055	451529	keystroke_b	b	n/a
225.8995	0.12	451799	keystroke_e	e	n/a
225.9895	0.1055	451979	keystroke_r	r	n/a
226.14	0.075	452280	keystroke_k	k	n/a
226.26	0.105	452520	keystroke_e	e	n/a
226.395	0.06	452790	keystroke_l	l	n/a
226.499	0.106	452998	keystroke_y	y	n/a
226.9795	0.0595	453959	keystroke_Key.backspace	Key.backspace	n/a
227.19	0.075	454380	keystroke_e	e	n/a
227.2795	0.0895	454559	keystroke_l	l	n/a
227.3845	0.0905	454769	keystroke_y	y	n/a
228.7045	0.0605	457409	keystroke_Key.backspace	Key.backspace	n/a
228.8545	0.0745	457709	keystroke_Key.backspace	Key.backspace	n/a
229.4695	0.075	458939	keystroke_Key.backspace	Key.backspace	n/a
229.6795	0.075	459359	keystroke_Key.backspace	Key.backspace	n/a
230.7895	0.0895	461579	keystroke_l	l	n/a
230.8495	0.1355	461699	keystroke_e	e	n/a
230.9695	0.12	461939	keystroke_y	y	n/a
232.1845	0.1655	464369	keystroke_Key.enter	Key.enter	n/a
232.3565	4.8405	464713	prompt	n/a	height pokemon blonde develop\n
233.01	0.09	466020	keystroke_h	h	n/a
233.204	0.12	466408	keystroke_e	e	n/a
233.249	0.121	466498	keystroke_i	i	n/a
233.6245	0.0905	467249	keystroke_g	g	n/a
233.745	0.09	467490	keystroke_h	h	n/a
233.85	0.075	467700	keystroke_t	t	n/a
233.97	0.074	467940	keystroke_Key.space	Key.space	n/a
234.195	0.06	468390	keystroke_p	p	n/a
234.33	0.089	468660	keystroke_o	o	n/a
234.525	0.0745	469050	keystroke_k	k	n/a
234.6595	0.06	469319	keystroke_e	e	n/a
234.7345	0.0755	469469	keystroke_m	m	n/a
234.9145	0.0445	469829	keystroke_o	o	n/a
235.05	0.09	470100	keystroke_n	n	n/a
235.199	0.075	470398	keystroke_Key.space	Key.space	n/a
235.32	0.075	470640	keystroke_b	b	n/a
235.41	0.06	470820	keystroke_l	l	n/a
235.545	0.045	471090	keystroke_o	o	n/a
235.695	0.075	471390	keystroke_n	n	n/a
235.74	0.134	471480	keystroke_d	d	n/a
235.8895	0.075	471779	keystroke_e	e	n/a
235.934	0.09	471868	keystroke_Key.space	Key.space	n/a
236.099	0.105	472198	keystroke_d	d	n/a
236.22	0.0745	472440	keystroke_e	e	n/a
236.3245	0.1205	472649	keystroke_v	v	n/a
236.414	0.075	472828	keystroke_e	e	n/a
236.4595	0.0605	472919	keystroke_l	l	n/a
236.5945	0.06	473189	keystroke_o	o	n/a
236.7445	0.075	473489	keystroke_p	p	n/a
237.0745	0.12	474149	keystroke_Key.enter	Key.enter	n/a
237.2045	9.757	474409	prompt	n/a	direction administration preparation indian\n
237.7795	0.0905	475559	keystroke_a	a	n/a
237.959	0.09	475918	keystroke_Key.backspace	Key.backspace	n/a
238.065	0.104	476130	keystroke_d	d	n/a
238.185	0.074	476370	keystroke_i	i	n/a
238.2445	0.1195	476489	keystroke_r	r	n/a
238.335	0.119	476670	keystroke_e	e	n/a
238.5	0.075	477000	keystroke_c	c	n/a
238.665	0.074	477330	keystroke_t	t	n/a
238.725	0.059	477450	keystroke_i	i	n/a
238.935	0.059	477870	keystroke_o	o	n/a
238.95	0.059	477900	keystroke_n	n	n/a
239.0545	0.075	478109	keystroke_Key.space	Key.space	n/a
239.2195	0.09	478439	keystroke_a	a	n/a
239.355	0.0905	478710	keystroke_d	d	n/a
239.46	0.0595	478920	keystroke_m	m	n/a
239.625	0.06	479250	keystroke_i	i	n/a
239.7595	0.075	479519	keystroke_n	n	n/a
239.9245	0.06	479849	keystroke_i	i	n/a
239.9995	0.105	479999	keystroke_s	s	n/a
240.1055	0.089	480211	keystroke_t	t	n/a
240.3	0.09	480600	keystroke_r	r	n/a
240.3145	0.09	480629	keystroke_a	a	n/a
240.719	0.046	481438	keystroke_Key.backspace	Key.backspace	n/a
240.884	0.03	481768	keystroke_Key.backspace	Key.backspace	n/a
241.9195	0.1345	483839	keystroke_r	r	n/a
242.099	0.18	484198	keystroke_a	a	n/a
242.2195	0.1045	484439	keystroke_t	t	n/a
242.355	0.074	484710	keystroke_i	i	n/a
242.535	0.0745	485070	keystroke_o	o	n/a
242.6245	0.06	485249	keystroke_n	n	n/a
242.7895	0.075	485579	keystroke_Key.space	Key.space	n/a
244.77	0.09	489540	keystroke_p	p	n/a
244.845	0.1345	489690	keystroke_r	r	n/a
244.935	0.089	489870	keystroke_e	e	n/a
245.055	0.09	490110	keystroke_p	p	n/a
245.16	0.119	490320	keystroke_a	a	n/a
245.235	0.089	490470	keystroke_r	r	n/a
245.415	0.0745	490830	keystroke_t	t	n/a
245.5045	0.0605	491009	keystroke_i	i	n/a
245.6395	0.075	491279	keystroke_o	o	n/a
245.7	0.0745	491400	keystroke_n	n	n/a
245.835	0.075	491670	keystroke_Key.space	Key.space	n/a
246.014	0.061	492028	keystroke_i	i	n/a
246.18	0.09	492360	keystroke_n	n	n/a
246.2845	0.0745	492569	keystroke_d	d	n/a
246.405	0.074	492810	keystroke_i	i	n/a
246.5095	0.1055	493019	keystroke_a	a	n/a
246.629	0.076	493258	keystroke_n	n	n/a
246.8545	0.105	493709	keystroke_Key.enter	Key.enter	n/a
246.966	5.6215	493932	prompt	n/a	commons adverse garden costs\n
248.4445	0.045	496889	keystroke_c	c	n/a
248.475	0.0745	496950	keystroke_o	o	n/a
248.64	0.075	497280	keystroke_m	m	n/a
248.775	0.059	497550	keystroke_m	m	n/a
248.939	0.0605	497878	keystroke_o	o	n/a
249.0895	0.075	498179	keystroke_n	n	n/a
249.18	0.1045	498360	keystroke_s	s	n/a
249.2695	0.075	498539	keystroke_Key.space	Key.space	n/a
249.3595	0.2095	498719	keystroke_a	a	n/a
249.479	0.105	498958	keystroke_d	d	n/a
249.66	0.12	499320	keystroke_v	v	n/a
249.764	0.121	499528	keystroke_e	e	n/a
249.854	0.0905	499708	keystroke_r	r	n/a
250.0345	0.09	500069	keystroke_s	s	n/a
250.2895	0.09	500579	keystroke_e	e	n/a
250.6645	0.075	501329	keystroke_Key.space	Key.space	n/a
251.0245	0.0905	502049	keystroke_g	g	n/a
251.1445	0.1655	502289	keystroke_a	a	n/a
251.235	0.075	502470	keystroke_r	r	n/a
251.4145	0.09	502829	keystroke_d	d	n/a
251.5345	0.09	503069	keystroke_e	e	n/a
251.6395	0.075	503279	keystroke_n	n	n/a
251.8045	0.0745	503609	keystroke_Key.space	Key.space	n/a
251.9545	0.09	503909	keystroke_c	c	n/a
252.0595	0.075	504119	keystroke_o	o	n/a
252.1495	0.09	504299	keystroke_s	s	n/a
252.2545	0.1205	504509	keystroke_t	t	n/a
252.36	0.09	504720	keystroke_s	s	n/a
252.479	0.106	504958	keystroke_Key.enter	Key.enter	n/a
252.5915	7.435	505183	prompt	n/a	series yacht extraordinary basement\n
253.1845	0.075	506369	keystroke_s	s	n/a
253.35	0.12	506700	keystroke_e	e	n/a
253.4245	0.12	506849	keystroke_r	r	n/a
253.5895	0.0755	507179	keystroke_i	i	n/a
253.6495	0.075	507299	keystroke_e	e	n/a
253.8145	0.09	507629	keystroke_s	s	n/a
253.8895	0.09	507779	keystroke_Key.space	Key.space	n/a
254.0695	0.105	508139	keystroke_y	y	n/a
254.205	0.1045	508410	keystroke_a	a	n/a
254.37	0.075	508740	keystroke_c	c	n/a
254.55	0.075	509100	keystroke_h	h	n/a
254.64	0.105	509280	keystroke_t	t	n/a
255.044	0.091	510088	keystroke_Key.space	Key.space	n/a
255.33	0.06	510660	keystroke_e	e	n/a
255.51	0.09	511020	keystroke_x	x	n/a
255.66	0.105	511320	keystroke_r	r	n/a
256.499	0.09	512998	keystroke_Key.backspace	Key.backspace	n/a
256.575	0.075	513150	keystroke_t	t	n/a
256.739	0.106	513478	keystroke_r	r	n/a
256.86	0.09	513720	keystroke_a	a	n/a
257.055	0.105	514110	keystroke_o	o	n/a
257.175	0.075	514350	keystroke_r	r	n/a
257.339	0.0755	514678	keystroke_d	d	n/a
257.4595	0.0745	514919	keystroke_i	i	n/a
257.6845	0.0895	515369	keystroke_n	n	n/a
257.91	0.1345	515820	keystroke_a	a	n/a
258.0145	0.105	516029	keystroke_r	r	n/a
258.1945	0.105	516389	keystroke_y	y	n/a
258.4045	0.075	516809	keystroke_Key.space	Key.space	n/a
258.9585	0.0905	517917	keystroke_b	b	n/a
259.079	0.12	518158	keystroke_a	a	n/a
259.124	0.091	518248	keystroke_s	s	n/a
259.304	0.075	518608	keystroke_e	e	n/a
259.515	0.09	519030	keystroke_m	m	n/a
259.635	0.0745	519270	keystroke_e	e	n/a
259.7095	0.075	519419	keystroke_n	n	n/a
259.77	0.0895	519540	keystroke_t	t	n/a
259.9045	0.12	519809	keystroke_Key.enter	Key.enter	n/a
260.032	6.099	520064	prompt	n/a	ne'er where treo bedrooms\n
260.699	0.0755	521398	keystroke_n	n	n/a
260.789	0.1055	521578	keystroke_e	e	n/a
261.0595	0.0755	522119	keystroke_'	'	n/a
261.1495	0.135	522299	keystroke_r	r	n/a
261.2395	0.0905	522479	keystroke_e	e	n/a
261.5095	0.0895	523019	keystroke_Key.space	Key.space	n/a
262.08	0.119	524160	keystroke_w	w	n/a
262.1545	0.06	524309	keystroke_e	e	n/a
262.574	0.0455	525148	keystroke_Key.backspace	Key.backspace	n/a
262.7095	0.06	525419	keystroke_Key.backspace	Key.backspace	n/a
263.0245	0.0905	526049	keystroke_w	w	n/a
263.13	0.075	526260	keystroke_h	h	n/a
263.22	0.1195	526440	keystroke_e	e	n/a
263.3545	0.12	526709	keystroke_r	r	n/a
263.4445	0.1195	526889	keystroke_e	e	n/a
263.564	0.075	527128	keystroke_Key.space	Key.space	n/a
263.76	0.09	527520	keystroke_t	t	n/a
263.955	0.075	527910	keystroke_r	r	n/a
264.2995	0.1055	528599	keystroke_e	e	n/a
264.3895	0.0755	528779	keystroke_o	o	n/a
264.5845	0.09	529169	keystroke_Key.space	Key.space	n/a
264.7195	0.0905	529439	keystroke_b	b	n/a
264.7945	0.1055	529589	keystroke_e	e	n/a
264.9895	0.06	529979	keystroke_d	d	n/a
265.4695	0.06	530939	keystroke_r	r	n/a
265.53	0.0595	531060	keystroke_o	o	n/a
265.6495	0.06	531299	keystroke_o	o	n/a
265.8	0.09	531600	keystroke_m	m	n/a
265.8745	0.0905	531749	keystroke_s	s	n/a
266.01	0.119	532020	keystroke_Key.enter	Key.enter	n/a
266.137	5.0045	532274	prompt	n/a	courier users pittsburgh buys\n
266.655	0.0595	533310	keystroke_n	n	n/a
266.8795	0.06	533759	keystroke_Key.backspace	Key.backspace	n/a
266.9695	0.075	533939	keystroke_c	c	n/a
267.0595	0.0455	534119	keystroke_o	o	n/a
267.225	0.06	534450	keystroke_u	u	n/a
267.2995	0.0755	534599	keystroke_r	r	n/a
267.42	0.059	534840	keystroke_i	i	n/a
267.5095	0.1045	535019	keystroke_e	e	n/a
267.5995	0.1045	535199	keystroke_r	r	n/a
267.6895	0.09	535379	keystroke_Key.space	Key.space	n/a
268.05	0.06	536100	keystroke_u	u	n/a
268.14	0.0745	536280	keystroke_s	s	n/a
268.32	0.105	536640	keystroke_e	e	n/a
268.41	0.105	536820	keystroke_r	r	n/a
268.544	0.09	537088	keystroke_s	s	n/a
268.604	0.0755	537208	keystroke_Key.space	Key.space	n/a
268.829	0.046	537658	keystroke_p	p	n/a
269.009	0.0455	538018	keystroke_i	i	n/a
269.04	0.074	538080	keystroke_t	t	n/a
269.1745	0.09	538349	keystroke_t	t	n/a
269.309	0.09	538618	keystroke_s	s	n/a
269.505	0.0745	539010	keystroke_b	b	n/a
269.625	0.089	539250	keystroke_u	u	n/a
269.699	0.06	539398	keystroke_r	r	n/a
269.88	0.074	539760	keystroke_g	g	n/a
270.105	0.074	540210	keystroke_h	h	n/a
270.299	0.09	540598	keystroke_Key.space	Key.space	n/a
270.54	0.074	541080	keystroke_b	b	n/a
270.645	0.059	541290	keystroke_u	u	n/a
270.7345	0.0755	541469	keystroke_y	y	n/a
270.899	0.09	541798	keystroke_s	s	n/a
271.0195	0.1195	542039	keystroke_Key.enter	Key.enter	n/a
271.1465	7.03	542293	prompt	n/a	competition announcement closest agent\n
271.709	0.0755	543418	keystroke_c	c	n/a
271.77	0.0745	543540	keystroke_o	o	n/a
271.92	0.074	543840	keystroke_m	m	n/a
272.07	0.075	544140	keystroke_e	e	n/a
272.115	0.075	544230	keystroke_p	p	n/a
272.4595	0.075	544919	keystroke_Key.backspace	Key.backspace	n/a
272.5945	0.075	545189	keystroke_Key.backspace	Key.backspace	n/a
272.6545	0.105	545309	keystroke_p	p	n/a
272.7745	0.1055	545549	keystroke_e	e	n/a
272.9395	0.09	545879	keystroke_t	t	n/a
273.1195	0.075	546239	keystroke_i	i	n/a
273.2095	0.0755	546419	keystroke_t	t	n/a
273.3	0.0595	546600	keystroke_i	i	n/a
273.4495	0.0755	546899	keystroke_o	o	n/a
273.5395	0.06	547079	keystroke_n	n	n/a
273.6745	0.075	547349	keystroke_Key.space	Key.space	n/a
273.7795	0.105	547559	keystroke_a	a	n/a
273.93	0.0745	547860	keystroke_n	n	n/a
274.064	0.076	548128	keystroke_n	n	n/a
274.244	0.0605	548488	keystroke_o	o	n/a
274.41	0.059	548820	keystroke_u	u	n/a
274.5595	0.0905	549119	keystroke_n	n	n/a
274.6045	0.0895	549209	keystroke_c	c	n/a
274.814	0.076	549628	keystroke_e	e	n/a
275.1445	0.0905	550289	keystroke_m	m	n/a
275.279	0.135	550558	keystroke_e	e	n/a
275.369	0.0905	550738	keystroke_n	n	n/a
275.4745	0.105	550949	keystroke_t	t	n/a
275.5645	0.09	551129	keystroke_Key.space	Key.space	n/a
276.195	0.0595	552390	keystroke_c	c	n/a
276.2695	0.075	552539	keystroke_l	l	n/a
276.4345	0.075	552869	keystroke_o	o	n/a
276.5695	0.0755	553139	keystroke_s	s	n/a
276.9895	0.045	553979	keystroke_e	e	n/a
277.1395	0.09	554279	keystroke_s	s	n/a
277.275	0.104	554550	keystroke_t	t	n/a
277.409	0.0905	554818	keystroke_Key.space	Key.space	n/a
277.5745	0.1205	555149	keystroke_a	a	n/a
277.6955	0.1335	555391	keystroke_g	g	n/a
277.8145	0.075	555629	keystroke_e	e	n/a
277.8745	0.1055	555749	keystroke_n	n	n/a
277.964	0.091	555928	keystroke_t	t	n/a
278.0695	0.1045	556139	keystroke_Key.enter	Key.enter	n/a
278.1815	6.4445	556363	prompt	n/a	james invision family pakistan\n
278.8195	0.0755	557639	keystroke_j	j	n/a
278.91	0.1195	557820	keystroke_a	a	n/a
279	0.0895	558000	keystroke_m	m	n/a
279.0745	0.1055	558149	keystroke_e	e	n/a
279.2695	0.075	558539	keystroke_s	s	n/a
279.599	0.12	559198	keystroke_Key.space	Key.space	n/a
279.854	0.06	559708	keystroke_i	i	n/a
280.0195	0.075	560039	keystroke_n	n	n/a
280.109	0.076	560218	keystroke_v	v	n/a
280.244	0.06	560488	keystroke_i	i	n/a
280.395	0.06	560790	keystroke_s	s	n/a
280.9345	0.0595	561869	keystroke_i	i	n/a
281.13	0.074	562260	keystroke_o	o	n/a
281.264	0.076	562528	keystroke_n	n	n/a
281.3995	0.09	562799	keystroke_Key.space	Key.space	n/a
281.6545	0.1205	563309	keystroke_f	f	n/a
281.7595	0.1055	563519	keystroke_a	a	n/a
281.76	0.089	563520	keystroke_m	m	n/a
281.9845	0.0295	563969	keystroke_i	i	n/a
282.1345	0.0745	564269	keystroke_l	l	n/a
282.179	0.1055	564358	keystroke_y	y	n/a
282.3745	0.09	564749	keystroke_Key.space	Key.space	n/a
282.8545	0.06	565709	keystroke_p	p	n/a
282.9745	0.105	565949	keystroke_a	a	n/a
283.1695	0.075	566339	keystroke_k	k	n/a
283.3495	0.06	566699	keystroke_i	i	n/a
283.4395	0.105	566879	keystroke_s	s	n/a
283.65	0.0145	567300	keystroke_t	t	n/a
284.249	0.09	568498	keystroke_a	a	n/a
284.34	0.0745	568680	keystroke_n	n	n/a
284.534	0.0905	569068	keystroke_Key.enter	Key.enter	n/a
284.631	5.425	569262	prompt	n/a	cancel quoted republic junction\n
285.2545	0.09	570509	keystroke_c	c	n/a
285.374	0.1055	570748	keystroke_a	a	n/a
285.4805	0.1195	570961	keystroke_n	n	n/a
285.554	0.1355	571108	keystroke_c	c	n/a
285.6445	0.1045	571289	keystroke_e	e	n/a
285.7645	0.06	571529	keystroke_l	l	n/a
285.9145	0.0895	571829	keystroke_Key.space	Key.space	n/a
286.034	0.1355	572068	keystroke_q	q	n/a
286.154	0.0755	572308	keystroke_u	u	n/a
286.3345	0.075	572669	keystroke_o	o	n/a
286.4395	0.1195	572879	keystroke_t	t	n/a
286.5295	0.105	573059	keystroke_e	e	n/a
286.694	0.09	573388	keystroke_d	d	n/a
286.814	0.1055	573628	keystroke_Key.space	Key.space	n/a
287.009	0.105	574018	keystroke_r	r	n/a
287.0845	0.1045	574169	keystroke_e	e	n/a
287.2645	0.0745	574529	keystroke_b	b	n/a
287.6095	0.09	575219	keystroke_Key.backspace	Key.backspace	n/a
287.76	0.1045	575520	keystroke_p	p	n/a
288.015	0.0445	576030	keystroke_u	u	n/a
288.0745	0.06	576149	keystroke_b	b	n/a
288.225	0.0745	576450	keystroke_l	l	n/a
288.404	0.06	576808	keystroke_i	i	n/a
288.495	0.0895	576990	keystroke_c	c	n/a
288.644	0.09	577288	keystroke_Key.space	Key.space	n/a
288.8845	0.0755	577769	keystroke_j	j	n/a
289.0645	0.0445	578129	keystroke_u	u	n/a
289.214	0.0755	578428	keystroke_n	n	n/a
289.304	0.0605	578608	keystroke_c	c	n/a
289.484	0.09	578968	keystroke_t	t	n/a
289.589	0.046	579178	keystroke_i	i	n/a
289.7245	0.09	579449	keystroke_o	o	n/a
289.799	0.0905	579598	keystroke_n	n	n/a
289.919	0.1355	579838	keystroke_Key.enter	Key.enter	n/a
290.06	4.946	580120	prompt	n/a	arch brush funding dancing\n
290.6395	0.135	581279	keystroke_a	a	n/a
290.7445	0.09	581489	keystroke_r	r	n/a
290.954	0.0605	581908	keystroke_c	c	n/a
290.999	0.09	581998	keystroke_h	h	n/a
291.179	0.09	582358	keystroke_Key.space	Key.space	n/a
291.299	0.03	582598	keystroke_b	b	n/a
291.539	0.015	583078	keystroke_r	r	n/a
291.5695	0.0745	583139	keystroke_u	u	n/a
291.689	0.0755	583378	keystroke_s	s	n/a
291.78	0.044	583560	keystroke_h	h	n/a
291.9285	0.09	583857	keystroke_Key.space	Key.space	n/a
292.0495	0.059	584099	keystroke_f	f	n/a
292.289	0.0755	584578	keystroke_u	u	n/a
292.499	0.075	584998	keystroke_n	n	n/a
292.964	0.0755	585928	keystroke_d	d	n/a
293.07	0.0595	586140	keystroke_i	i	n/a
293.2195	0.075	586439	keystroke_n	n	n/a
293.2795	0.075	586559	keystroke_g	g	n/a
293.3845	0.075	586769	keystroke_Key.space	Key.space	n/a
293.8195	0.09	587639	keystroke_d	d	n/a
293.955	0.1195	587910	keystroke_a	a	n/a
294.0295	0.06	588059	keystroke_n	n	n/a
294.0445	0.075	588089	keystroke_c	c	n/a
294.5695	0.0595	589139	keystroke_i	i	n/a
294.7045	0.105	589409	keystroke_n	n	n/a
294.7645	0.0895	589529	keystroke_g	g	n/a
294.884	0.12	589768	keystroke_Key.enter	Key.enter	n/a
295.0105	6.8055	590021	prompt	n/a	northern equation shortcuts concrete\n
296.0545	0.06	592109	keystroke_n	n	n/a
296.25	0.074	592500	keystroke_o	o	n/a
296.339	0.031	592678	keystroke_r	r	n/a
296.4745	0.0745	592949	keystroke_t	t	n/a
296.579	0.075	593158	keystroke_h	h	n/a
296.774	0.136	593548	keystroke_e	e	n/a
296.864	0.105	593728	keystroke_r	r	n/a
296.984	0.075	593968	keystroke_n	n	n/a
297.1345	0.09	594269	keystroke_Key.space	Key.space	n/a
297.344	0.1355	594688	keystroke_e	e	n/a
297.4645	0.09	594929	keystroke_q	q	n/a
297.5845	0.0745	595169	keystroke_u	u	n/a
297.7045	0.12	595409	keystroke_a	a	n/a
297.8545	0.09	595709	keystroke_t	t	n/a
297.914	0.0755	595828	keystroke_i	i	n/a
298.079	0.0755	596158	keystroke_o	o	n/a
298.169	0.0455	596338	keystroke_n	n	n/a
298.274	0.075	596548	keystroke_Key.space	Key.space	n/a
298.395	0.0595	596790	keystroke_s	s	n/a
298.559	0.061	597118	keystroke_h	h	n/a
298.739	0.0755	597478	keystroke_o	o	n/a
298.86	0.1045	597720	keystroke_r	r	n/a
299.085	0.0745	598170	keystroke_t	t	n/a
299.609	0.09	599218	keystroke_c	c	n/a
299.729	0.06	599458	keystroke_u	u	n/a
299.82	0.1045	599640	keystroke_t	t	n/a
299.925	0.0745	599850	keystroke_s	s	n/a
300.0145	0.074	600029	keystroke_Key.space	Key.space	n/a
300.1495	0.06	600299	keystroke_c	c	n/a
300.2535	0.06	600507	keystroke_o	o	n/a
300.4035	0.09	600807	keystroke_n	n	n/a
300.495	0.1195	600990	keystroke_c	c	n/a
300.8845	0.105	601769	keystroke_r	r	n/a
300.9745	0.12	601949	keystroke_e	e	n/a
301.1095	0.09	602219	keystroke_t	t	n/a
301.575	0.089	603150	keystroke_e	e	n/a
301.709	0.105	603418	keystroke_Key.enter	Key.enter	n/a
301.8195	6.9565	603639	prompt	n/a	pharmacology peers vulnerability engines\n
302.4445	0.09	604889	keystroke_p	p	n/a
302.6845	0.0895	605369	keystroke_h	h	n/a
302.8345	0.1045	605669	keystroke_a	a	n/a
302.939	0.09	605878	keystroke_r	r	n/a
303.059	0.09	606118	keystroke_m	m	n/a
303.314	0.046	606628	keystroke_a	a	n/a
303.6895	0.06	607379	keystroke_c	c	n/a
303.765	0.0595	607530	keystroke_o	o	n/a
303.914	0.045	607828	keystroke_l	l	n/a
304.035	0.0745	608070	keystroke_o	o	n/a
304.094	0.075	608188	keystroke_g	g	n/a
304.259	0.0905	608518	keystroke_y	y	n/a
304.3345	0.075	608669	keystroke_Key.space	Key.space	n/a
304.559	0.045	609118	keystroke_p	p	n/a
304.6195	0.045	609239	keystroke_e	e	n/a
304.7545	0.105	609509	keystroke_e	e	n/a
304.8595	0.12	609719	keystroke_r	r	n/a
305.009	0.046	610018	keystroke_e	e	n/a
305.3545	0.075	610709	keystroke_Key.backspace	Key.backspace	n/a
305.4595	0.1195	610919	keystroke_s	s	n/a
305.579	0.0755	611158	keystroke_Key.space	Key.space	n/a
305.849	0.0905	611698	keystroke_v	v	n/a
305.9695	0.0745	611939	keystroke_u	u	n/a
306.1795	0.06	612359	keystroke_l	l	n/a
306.3745	0.0745	612749	keystroke_n	n	n/a
306.509	0.1505	613018	keystroke_e	e	n/a
306.644	0.1205	613288	keystroke_r	r	n/a
306.854	0.09	613708	keystroke_a	a	n/a
306.989	0.075	613978	keystroke_b	b	n/a
307.0945	0.06	614189	keystroke_i	i	n/a
307.244	0.076	614488	keystroke_l	l	n/a
307.3785	0.091	614757	keystroke_i	i	n/a
307.454	0.061	614908	keystroke_t	t	n/a
307.605	0.09	615210	keystroke_y	y	n/a
307.695	0.0745	615390	keystroke_Key.space	Key.space	n/a
307.8	0.089	615600	keystroke_e	e	n/a
307.904	0.076	615808	keystroke_n	n	n/a
307.994	0.075	615988	keystroke_g	g	n/a
308.1145	0.06	616229	keystroke_i	i	n/a
308.265	0.075	616530	keystroke_n	n	n/a
308.355	0.089	616710	keystroke_e	e	n/a
308.5195	0.074	617039	keystroke_s	s	n/a
308.6245	0.15	617249	keystroke_Key.enter	Key.enter	n/a
308.784	10.028	617568	prompt	n/a	personally accreditation prepared dental\n
309.509	0.09	619018	keystroke_p	p	n/a
309.569	0.12	619138	keystroke_e	e	n/a
309.644	0.1205	619288	keystroke_r	r	n/a
310.1395	0.0745	620279	keystroke_s	s	n/a
310.2295	0.0755	620459	keystroke_o	o	n/a
310.395	0.074	620790	keystroke_n	n	n/a
310.484	0.1055	620968	keystroke_a	a	n/a
310.6045	0.0745	621209	keystroke_l	l	n/a
310.694	0.105	621388	keystroke_l	l	n/a
311.3545	0.09	622709	keystroke_y	y	n/a
311.4745	0.075	622949	keystroke_Key.space	Key.space	n/a
311.6395	0.105	623279	keystroke_a	a	n/a
311.8195	0.0755	623639	keystroke_c	c	n/a
311.9385	0.09	623877	keystroke_c	c	n/a
312.1185	0.1215	624237	keystroke_r	r	n/a
312.2085	0.106	624417	keystroke_e	e	n/a
312.389	0.12	624778	keystroke_d	d	n/a
312.494	0.1655	624988	keystroke_a	a	n/a
312.6295	0.075	625259	keystroke_t	t	n/a
314.669	0.0905	629338	keystroke_Key.backspace	Key.backspace	n/a
315.0595	0.0595	630119	keystroke_Key.backspace	Key.backspace	n/a
315.7045	0.045	631409	keystroke_i	i	n/a
315.794	0.1045	631588	keystroke_t	t	n/a
315.974	0.1955	631948	keystroke_a	a	n/a
316.0645	0.12	632129	keystroke_t	t	n/a
316.1545	0.075	632309	keystroke_i	i	n/a
316.3195	0.075	632639	keystroke_o	o	n/a
316.4095	0.045	632819	keystroke_n	n	n/a
316.5445	0.0745	633089	keystroke_Key.space	Key.space	n/a
316.665	0.0745	633330	keystroke_r	r	n/a
317.009	0.075	634018	keystroke_Key.backspace	Key.backspace	n/a
317.129	0.1195	634258	keystroke_p	p	n/a
317.2045	0.135	634409	keystroke_r	r	n/a
317.2795	0.12	634559	keystroke_e	e	n/a
317.5185	0.09	635037	keystroke_p	p	n/a
317.6395	0.15	635279	keystroke_a	a	n/a
317.6995	0.119	635399	keystroke_r	r	n/a
317.7595	0.12	635519	keystroke_e	e	n/a
317.909	0.105	635818	keystroke_d	d	n/a
318.0285	0.061	636057	keystroke_Key.space	Key.space	n/a
318.1185	0.106	636237	keystroke_d	d	n/a
318.2085	0.121	636417	keystroke_e	e	n/a
318.2985	0.0755	636597	keystroke_n	n	n/a
318.3885	0.0755	636777	keystroke_t	t	n/a
318.4785	0.09	636957	keystroke_a	a	n/a
318.5395	0.105	637079	keystroke_l	l	n/a
318.6735	0.135	637347	keystroke_Key.enter	Key.enter	n/a
318.8165	5.4695	637633	prompt	n/a	mono institution hitachi sweet\n
319.364	0.075	638728	keystroke_m	m	n/a
319.56	0.0595	639120	keystroke_o	o	n/a
319.7395	0.074	639479	keystroke_n	n	n/a
319.9495	0.015	639899	keystroke_o	o	n/a
319.9495	0.074	639899	keystroke_Key.space	Key.space	n/a
320.4445	0.06	640889	keystroke_i	i	n/a
320.6095	0.075	641219	keystroke_n	n	n/a
320.7295	0.09	641459	keystroke_s	s	n/a
320.9245	0.06	641849	keystroke_t	t	n/a
321.014	0.075	642028	keystroke_i	i	n/a
321.1645	0.075	642329	keystroke_t	t	n/a
321.329	0.0605	642658	keystroke_u	u	n/a
321.449	0.0905	642898	keystroke_t	t	n/a
321.554	0.0755	643108	keystroke_i	i	n/a
321.705	0.0745	643410	keystroke_o	o	n/a
321.7945	0.0595	643589	keystroke_n	n	n/a
321.929	0.0755	643858	keystroke_Key.space	Key.space	n/a
322.3195	0.045	644639	keystroke_h	h	n/a
322.4095	0.075	644819	keystroke_i	i	n/a
322.5145	0.105	645029	keystroke_t	t	n/a
322.7245	0.12	645449	keystroke_a	a	n/a
322.859	0.0605	645718	keystroke_c	c	n/a
322.9495	0.075	645899	keystroke_h	h	n/a
323.13	0.0595	646260	keystroke_i	i	n/a
323.234	0.06	646468	keystroke_Key.space	Key.space	n/a
323.384	0.09	646768	keystroke_s	s	n/a
323.5495	0.1345	647099	keystroke_w	w	n/a
323.699	0.0905	647398	keystroke_e	e	n/a
323.8795	0.075	647759	keystroke_e	e	n/a
324.074	0.1045	648148	keystroke_t	t	n/a
324.1935	0.09	648387	keystroke_Key.enter	Key.enter	n/a
324.291	8.1555	648582	prompt	n/a	florida workers finger students\n
324.854	0.1055	649708	keystroke_f	f	n/a
324.974	0.06	649948	keystroke_l	l	n/a
325.1095	0.0895	650219	keystroke_o	o	n/a
325.1545	0.1195	650309	keystroke_r	r	n/a
325.304	0.0755	650608	keystroke_i	i	n/a
325.3945	0.105	650789	keystroke_a	a	n/a
325.544	0.09	651088	keystroke_Key.space	Key.space	n/a
325.8445	0.09	651689	keystroke_w	w	n/a
325.949	0.0755	651898	keystroke_o	o	n/a
326.2795	0.0595	652559	keystroke_Key.backspace	Key.backspace	n/a
326.4145	0.06	652829	keystroke_Key.backspace	Key.backspace	n/a
326.5495	0.075	653099	keystroke_Key.backspace	Key.backspace	n/a
326.6845	0.119	653369	keystroke_Key.backspace	Key.backspace	n/a
326.7895	0.09	653579	keystroke_d	d	n/a
327.0135	0.06	654027	keystroke_Key.space	Key.space	n/a
327.0885	0.121	654177	keystroke_w	w	n/a
327.449	0.06	654898	keystroke_Key.backspace	Key.backspace	n/a
327.569	0.0745	655138	keystroke_Key.backspace	Key.backspace	n/a
327.7045	0.09	655409	keystroke_a	a	n/a
327.8095	0.074	655619	keystroke_Key.space	Key.space	n/a
327.9135	0.136	655827	keystroke_w	w	n/a
328.064	0.06	656128	keystroke_o	o	n/a
328.154	0.09	656308	keystroke_r	r	n/a
328.229	0.105	656458	keystroke_k	k	n/a
328.349	0.1345	656698	keystroke_e	e	n/a
328.4545	0.105	656909	keystroke_r	r	n/a
328.6195	0.06	657239	keystroke_s	s	n/a
328.7835	0.075	657567	keystroke_Key.space	Key.space	n/a
329.0245	0.09	658049	keystroke_f	f	n/a
329.129	0.06	658258	keystroke_i	i	n/a
329.2645	0.0895	658529	keystroke_n	n	n/a
329.429	0.075	658858	keystroke_g	g	n/a
329.5345	0.135	659069	keystroke_e	e	n/a
329.624	0.0895	659248	keystroke_r	r	n/a
329.729	0.105	659458	keystroke_Key.space	Key.space	n/a
329.8945	0.0745	659789	keystroke_s	s	n/a
329.984	0.09	659968	keystroke_t	t	n/a
330.104	0.06	660208	keystroke_u	u	n/a
330.1945	0.135	660389	keystroke_d	d	n/a
330.3445	0.105	660689	keystroke_e	e	n/a
330.4045	0.075	660809	keystroke_n	n	n/a
330.4945	0.105	660989	keystroke_t	t	n/a
332.294	0.1505	664588	keystroke_Key.enter	Key.enter	n/a
332.4515	6.4295	664903	prompt	n/a	barbados taxation ugly representatives\n
333.0735	0.1055	666147	keystroke_b	b	n/a
333.254	0.165	666508	keystroke_a	a	n/a
333.3595	0.0895	666719	keystroke_r	r	n/a
333.569	0.0755	667138	keystroke_b	b	n/a
333.719	0.1205	667438	keystroke_a	a	n/a
333.8395	0.09	667679	keystroke_d	d	n/a
334.0195	0.09	668039	keystroke_o	o	n/a
334.1395	0.1045	668279	keystroke_s	s	n/a
334.259	0.0905	668518	keystroke_Key.space	Key.space	n/a
334.439	0.12	668878	keystroke_t	t	n/a
334.5745	0.1045	669149	keystroke_a	a	n/a
334.9945	0.1195	669989	keystroke_x	x	n/a
335.174	0.1805	670348	keystroke_a	a	n/a
335.399	0.09	670798	keystroke_t	t	n/a
335.519	0.06	671038	keystroke_i	i	n/a
335.6395	0.0895	671279	keystroke_o	o	n/a
335.699	0.075	671398	keystroke_n	n	n/a
335.864	0.0755	671728	keystroke_Key.space	Key.space	n/a
336.089	0.045	672178	keystroke_u	u	n/a
336.164	0.075	672328	keystroke_g	g	n/a
336.284	0.075	672568	keystroke_l	l	n/a
336.374	0.06	672748	keystroke_y	y	n/a
336.479	0.075	672958	keystroke_Key.space	Key.space	n/a
336.9445	0.1345	673889	keystroke_r	r	n/a
337.0345	0.12	674069	keystroke_e	e	n/a
337.1685	0.0905	674337	keystroke_p	p	n/a
337.319	0.12	674638	keystroke_r	r	n/a
337.3945	0.0895	674789	keystroke_e	e	n/a
337.574	0.075	675148	keystroke_s	s	n/a
337.739	0.075	675478	keystroke_e	e	n/a
337.8595	0.074	675719	keystroke_n	n	n/a
337.9185	0.0755	675837	keystroke_t	t	n/a
338.0235	0.106	676047	keystroke_a	a	n/a
338.099	0.1045	676198	keystroke_t	t	n/a
338.2495	0.059	676499	keystroke_i	i	n/a
338.339	0.1045	676678	keystroke_v	v	n/a
338.4295	0.1045	676859	keystroke_e	e	n/a
338.6395	0.075	677279	keystroke_s	s	n/a
338.759	0.12	677518	keystroke_Key.enter	Key.enter	n/a
338.8865	6.1895	677773	prompt	n/a	cheats multimedia snapshot joyce\n
339.404	0.0745	678808	keystroke_c	c	n/a
339.5545	0.059	679109	keystroke_h	h	n/a
339.6295	0.09	679259	keystroke_e	e	n/a
339.7035	0.0905	679407	keystroke_a	a	n/a
339.8095	0.105	679619	keystroke_t	t	n/a
339.929	0.0755	679858	keystroke_s	s	n/a
339.989	0.09	679978	keystroke_Key.space	Key.space	n/a
340.184	0.0605	680368	keystroke_m	m	n/a
340.3345	0.075	680669	keystroke_u	u	n/a
340.529	0.09	681058	keystroke_l	l	n/a
340.604	0.09	681208	keystroke_t	t	n/a
340.724	0.06	681448	keystroke_i	i	n/a
341.024	0.075	682048	keystroke_m	m	n/a
341.1135	0.09	682227	keystroke_e	e	n/a
341.264	0.045	682528	keystroke_d	d	n/a
341.354	0.0605	682708	keystroke_i	i	n/a
341.444	0.1055	682888	keystroke_a	a	n/a
341.579	0.09	683158	keystroke_Key.space	Key.space	n/a
341.8795	0.09	683759	keystroke_s	s	n/a
342.0745	0.075	684149	keystroke_n	n	n/a
342.1795	0.09	684359	keystroke_a	a	n/a
342.344	0.0755	684688	keystroke_p	p	n/a
342.464	0.105	684928	keystroke_s	s	n/a
342.6745	0.09	685349	keystroke_h	h	n/a
342.779	0.0605	685558	keystroke_o	o	n/a
342.944	0.075	685888	keystroke_p	p	n/a
343.049	0.075	686098	keystroke_Key.space	Key.space	n/a
343.379	0.06	686758	keystroke_Key.backspace	Key.backspace	n/a
343.4995	0.0895	686999	keystroke_Key.backspace	Key.backspace	n/a
343.574	0.0755	687148	keystroke_t	t	n/a
343.709	0.09	687418	keystroke_Key.space	Key.space	n/a
343.829	0.075	687658	keystroke_s	s	n/a
344.099	0.0605	688198	keystroke_Key.backspace	Key.backspace	n/a
344.264	0.075	688528	keystroke_j	j	n/a
344.459	0.09	688918	keystroke_o	o	n/a
344.534	0.09	689068	keystroke_y	y	n/a
344.7445	0.135	689489	keystroke_c	c	n/a
344.8495	0.105	689699	keystroke_e	e	n/a
344.9395	0.134	689879	keystroke_Key.enter	Key.enter	n/a
345.0805	7.182	690161	prompt	n/a	capital security broadband somewhere\n
345.584	0.12	691168	keystroke_c	c	n/a
345.719	0.105	691438	keystroke_a	a	n/a
345.764	0.09	691528	keystroke_p	p	n/a
346.034	0.015	692068	keystroke_i	i	n/a
346.2895	0.134	692579	keystroke_t	t	n/a
346.3945	0.09	692789	keystroke_a	a	n/a
346.469	0.09	692938	keystroke_l	l	n/a
346.6185	0.09	693237	keystroke_Key.space	Key.space	n/a
346.889	0.0605	693778	keystroke_s	s	n/a
347.025	0.074	694050	keystroke_e	e	n/a
347.159	0.09	694318	keystroke_c	c	n/a
347.339	0.0605	694678	keystroke_u	u	n/a
347.414	0.1355	694828	keystroke_r	r	n/a
347.5645	0.075	695129	keystroke_i	i	n/a
347.6845	0.075	695369	keystroke_t	t	n/a
347.8335	0.09	695667	keystroke_y	y	n/a
347.9535	0.09	695907	keystroke_Key.space	Key.space	n/a
348.179	0.0905	696358	keystroke_b	b	n/a
348.4045	0.15	696809	keystroke_r	r	n/a
348.5995	0.06	697199	keystroke_o	o	n/a
348.6745	0.105	697349	keystroke_a	a	n/a
348.809	0.075	697618	keystroke_d	d	n/a
349.034	0.0605	698068	keystroke_b	b	n/a
349.1535	0.12	698307	keystroke_a	a	n/a
349.2585	0.0755	698517	keystroke_n	n	n/a
349.349	0.06	698698	keystroke_d	d	n/a
349.454	0.075	698908	keystroke_Key.space	Key.space	n/a
349.619	0.12	699238	keystroke_s	s	n/a
349.694	0.0755	699388	keystroke_o	o	n/a
349.8445	0.089	699689	keystroke_m	m	n/a
349.9485	0.03	699897	keystroke_w	w	n/a
350.009	0.0455	700018	keystroke_e	e	n/a
350.3685	0.03	700737	keystroke_Key.backspace	Key.backspace	n/a
350.5485	0.105	701097	keystroke_Key.backspace	Key.backspace	n/a
350.6845	0.075	701369	keystroke_e	e	n/a
350.909	0.03	701818	keystroke_h	h	n/a
350.969	0.105	701938	keystroke_w	w	n/a
351.449	0.045	702898	keystroke_Key.backspace	Key.backspace	n/a
351.554	0.075	703108	keystroke_Key.backspace	Key.backspace	n/a
351.6445	0.06	703289	keystroke_w	w	n/a
351.749	0.0755	703498	keystroke_h	h	n/a
351.8095	0.12	703619	keystroke_e	e	n/a
351.9145	0.135	703829	keystroke_r	r	n/a
352.0045	0.12	704009	keystroke_e	e	n/a
352.1095	0.15	704219	keystroke_Key.enter	Key.enter	n/a
352.2655	6.3255	704531	prompt	n/a	varied finished ambient outcomes\n
352.7695	0.0745	705539	keystroke_c	c	n/a
352.994	0.075	705988	keystroke_Key.backspace	Key.backspace	n/a
353.084	0.0905	706168	keystroke_v	v	n/a
353.189	0.12	706378	keystroke_a	a	n/a
353.339	0.105	706678	keystroke_r	r	n/a
353.474	0.0905	706948	keystroke_i	i	n/a
353.5795	0.105	707159	keystroke_e	e	n/a
353.7435	0.0755	707487	keystroke_d	d	n/a
353.834	0.075	707668	keystroke_Key.space	Key.space	n/a
354.104	0.045	708208	keystroke_i	i	n/a
354.299	0.06	708598	keystroke_Key.backspace	Key.backspace	n/a
354.389	0.09	708778	keystroke_f	f	n/a
354.464	0.045	708928	keystroke_i	i	n/a
354.614	0.0605	709228	keystroke_n	n	n/a
354.7945	0.06	709589	keystroke_i	i	n/a
354.974	0.06	709948	keystroke_h	h	n/a
354.989	0.0905	709978	keystroke_s	s	n/a
355.484	0.015	710968	keystroke_Key.backspace	Key.backspace	n/a
355.5745	0.0745	711149	keystroke_Key.backspace	Key.backspace	n/a
355.769	0.075	711538	keystroke_s	s	n/a
355.874	0.06	711748	keystroke_h	h	n/a
355.949	0.09	711898	keystroke_e	e	n/a
356.1145	0.0745	712229	keystroke_d	d	n/a
356.2045	0.075	712409	keystroke_Key.space	Key.space	n/a
356.4145	0.0745	712829	keystroke_a	a	n/a
356.504	0.0905	713008	keystroke_m	m	n/a
356.609	0.0755	713218	keystroke_b	b	n/a
356.729	0.09	713458	keystroke_i	i	n/a
356.909	0.12	713818	keystroke_e	e	n/a
357.014	0.075	714028	keystroke_n	n	n/a
357.104	0.075	714208	keystroke_t	t	n/a
357.194	0.09	714388	keystroke_Key.space	Key.space	n/a
357.464	0.06	714928	keystroke_o	o	n/a
357.6435	0.0755	715287	keystroke_u	u	n/a
357.7035	0.061	715407	keystroke_t	t	n/a
357.899	0.0445	715798	keystroke_c	c	n/a
357.93	0.0745	715860	keystroke_o	o	n/a
358.1245	0.06	716249	keystroke_m	m	n/a
358.1685	0.09	716337	keystroke_e	e	n/a
358.349	0.0755	716698	keystroke_s	s	n/a
358.4535	0.135	716907	keystroke_Key.enter	Key.enter	n/a
358.5955	5.0955	717191	prompt	n/a	inquiry dose reasoning writing\n
359.1595	0.074	718319	keystroke_i	i	n/a
359.3245	0.105	718649	keystroke_n	n	n/a
359.414	0.1045	718828	keystroke_q	q	n/a
359.5485	0.06	719097	keystroke_u	u	n/a
359.714	0.09	719428	keystroke_i	i	n/a
360.014	0.015	720028	keystroke_r	r	n/a
360.2395	0.0895	720479	keystroke_y	y	n/a
360.3585	0.09	720717	keystroke_Key.space	Key.space	n/a
360.5545	0.06	721109	keystroke_d	d	n/a
360.629	0.0595	721258	keystroke_o	o	n/a
360.7195	0.09	721439	keystroke_s	s	n/a
360.8995	0.09	721799	keystroke_e	e	n/a
360.9735	0.09	721947	keystroke_Key.space	Key.space	n/a
361.1085	0.136	722217	keystroke_r	r	n/a
361.2885	0.136	722577	keystroke_e	e	n/a
361.4395	0.149	722879	keystroke_a	a	n/a
361.5295	0.105	723059	keystroke_s	s	n/a
361.6495	0.09	723299	keystroke_o	o	n/a
361.8295	0.09	723659	keystroke_n	n	n/a
362.054	0.0605	724108	keystroke_i	i	n/a
362.219	0.0745	724438	keystroke_n	n	n/a
362.309	0.045	724618	keystroke_g	g	n/a
362.399	0.09	724798	keystroke_Key.space	Key.space	n/a
362.564	0.105	725128	keystroke_w	w	n/a
362.684	0.09	725368	keystroke_r	r	n/a
362.849	0.06	725698	keystroke_i	i	n/a
362.894	0.09	725788	keystroke_t	t	n/a
363.2995	0.075	726599	keystroke_n	n	n/a
363.4045	0.09	726809	keystroke_g	g	n/a
363.5995	0.09	727199	keystroke_Key.enter	Key.enter	n/a
363.6955	7.9005	727391	prompt	n/a	conclusion visibility shops lambda\n
364.2445	0.06	728489	keystroke_c	c	n/a
364.3345	0.06	728669	keystroke_o	o	n/a
364.4995	0.0745	728999	keystroke_n	n	n/a
364.589	0.06	729178	keystroke_c	c	n/a
364.694	0.045	729388	keystroke_l	l	n/a
364.859	0.06	729718	keystroke_u	u	n/a
364.949	0.075	729898	keystroke_s	s	n/a
365.0695	0.045	730139	keystroke_i	i	n/a
365.249	0.045	730498	keystroke_o	o	n/a
365.6845	0.06	731369	keystroke_Key.backspace	Key.backspace	n/a
366.1045	0.075	732209	keystroke_o	o	n/a
366.2095	0.075	732419	keystroke_n	n	n/a
366.3585	0.09	732717	keystroke_Key.space	Key.space	n/a
366.5845	0.089	733169	keystroke_v	v	n/a
366.7185	0.076	733437	keystroke_i	i	n/a
366.8095	0.104	733619	keystroke_s	s	n/a
366.9885	0.061	733977	keystroke_i	i	n/a
367.0645	0.075	734129	keystroke_b	b	n/a
367.7385	0.0605	735477	keystroke_i	i	n/a
367.9045	0.075	735809	keystroke_l	l	n/a
367.994	0.09	735988	keystroke_t	t	n/a
368.069	0.0905	736138	keystroke_i	i	n/a
368.2945	0.045	736589	keystroke_y	y	n/a
368.7595	0.0895	737519	keystroke_Key.space	Key.space	n/a
369.404	0.09	738808	keystroke_s	s	n/a
369.569	0.075	739138	keystroke_h	h	n/a
369.629	0.06	739258	keystroke_o	o	n/a
369.794	0.0755	739588	keystroke_p	p	n/a
369.8845	0.09	739769	keystroke_s	s	n/a
369.9895	0.075	739979	keystroke_Key.space	Key.space	n/a
370.1845	0.06	740369	keystroke_l	l	n/a
370.3045	0.105	740609	keystroke_a	a	n/a
370.5585	0.061	741117	keystroke_m	m	n/a
371.0245	0.06	742049	keystroke_b	b	n/a
371.294	0.105	742588	keystroke_d	d	n/a
371.3695	0.1195	742739	keystroke_a	a	n/a
371.459	0.135	742918	keystroke_Key.enter	Key.enter	n/a
371.6	4.332	743200	prompt	n/a	treating promises out rounds\n
372.1645	0.075	744329	keystroke_t	t	n/a
372.3435	0.061	744687	keystroke_r	r	n/a
372.5085	0.105	745017	keystroke_e	e	n/a
372.5985	0.105	745197	keystroke_a	a	n/a
372.7195	0.074	745439	keystroke_t	t	n/a
372.8085	0.061	745617	keystroke_i	i	n/a
372.9735	0.076	745947	keystroke_n	n	n/a
373.064	0.0895	746128	keystroke_g	g	n/a
373.1385	0.075	746277	keystroke_Key.space	Key.space	n/a
373.379	0.06	746758	keystroke_p	p	n/a
373.4845	0.059	746969	keystroke_r	r	n/a
373.6645	0.074	747329	keystroke_o	o	n/a
373.8445	0.09	747689	keystroke_m	m	n/a
374.0395	0.0595	748079	keystroke_i	i	n/a
374.1445	0.09	748289	keystroke_s	s	n/a
374.294	0.1355	748588	keystroke_e	e	n/a
374.414	0.09	748828	keystroke_s	s	n/a
374.534	0.075	749068	keystroke_Key.space	Key.space	n/a
374.744	0.0455	749488	keystroke_o	o	n/a
374.9095	0.0445	749819	keystroke_u	u	n/a
374.9845	0.0895	749969	keystroke_t	t	n/a
375.089	0.075	750178	keystroke_Key.space	Key.space	n/a
375.179	0.09	750358	keystroke_r	r	n/a
375.299	0.0745	750598	keystroke_o	o	n/a
375.464	0.045	750928	keystroke_u	u	n/a
375.599	0.0905	751198	keystroke_n	n	n/a
375.6595	0.12	751319	keystroke_d	d	n/a
375.7345	0.1045	751469	keystroke_s	s	n/a
375.8235	0.1055	751647	keystroke_Key.enter	Key.enter	n/a
375.9385	6.789	751877	prompt	n/a	sentences hero potentially avatar\n
376.4995	0.06	752999	keystroke_s	s	n/a
376.6645	0.0745	753329	keystroke_e	e	n/a
376.7235	0.031	753447	keystroke_n	n	n/a
376.859	0.0445	753718	keystroke_n	n	n/a
377.234	0.0755	754468	keystroke_Key.backspace	Key.backspace	n/a
377.3245	0.1045	754649	keystroke_t	t	n/a
377.414	0.12	754828	keystroke_e	e	n/a
377.549	0.0755	755098	keystroke_n	n	n/a
377.654	0.1205	755308	keystroke_c	c	n/a
377.714	0.0905	755428	keystroke_e	e	n/a
377.909	0.09	755818	keystroke_s	s	n/a
377.984	0.075	755968	keystroke_Key.space	Key.space	n/a
378.119	0.105	756238	keystroke_h	h	n/a
378.239	0.135	756478	keystroke_e	e	n/a
378.3445	0.0895	756689	keystroke_r	r	n/a
378.419	0.0605	756838	keystroke_o	o	n/a
378.584	0.09	757168	keystroke_Key.space	Key.space	n/a
378.824	0.06	757648	keystroke_p	p	n/a
379.004	0.06	758008	keystroke_o	o	n/a
379.0795	0.105	758159	keystroke_t	t	n/a
379.2895	0.0745	758579	keystroke_e	e	n/a
379.4095	0.09	758819	keystroke_n	n	n/a
379.5145	0.1045	759029	keystroke_t	t	n/a
379.649	0.06	759298	keystroke_i	i	n/a
379.799	0.0905	759598	keystroke_a	a	n/a
379.8595	0.075	759719	keystroke_l	l	n/a
379.9945	0.09	759989	keystroke_l	l	n/a
380.0995	0.075	760199	keystroke_y	y	n/a
380.2185	0.061	760437	keystroke_Key.space	Key.space	n/a
380.3395	0.105	760679	keystroke_a	a	n/a
380.5045	0.105	761009	keystroke_v	v	n/a
380.6245	0.15	761249	keystroke_a	a	n/a
380.7595	0.105	761519	keystroke_t	t	n/a
380.9695	0.09	761939	keystroke_r	r	n/a
381.164	0.12	762328	keystroke_a	a	n/a
381.2695	0.0745	762539	keystroke_r	r	n/a
381.524	0.045	763048	keystroke_Key.backspace	Key.backspace	n/a
381.645	0.0895	763290	keystroke_Key.backspace	Key.backspace	n/a
381.779	0.1205	763558	keystroke_a	a	n/a
381.944	0.0755	763888	keystroke_Key.backspace	Key.backspace	n/a
382.079	0.0905	764158	keystroke_Key.backspace	Key.backspace	n/a
382.2145	0.135	764429	keystroke_a	a	n/a
382.2895	0.1045	764579	keystroke_r	r	n/a
382.6195	0.1045	765239	keystroke_Key.enter	Key.enter	n/a
382.733	5.6325	765466	prompt	n/a	bruce floor angela scan\n
383.294	0.045	766588	keystroke_b	b	n/a
383.954	0.0905	767908	keystroke_r	r	n/a
384.0735	0.076	768147	keystroke_u	u	n/a
384.164	0.1345	768328	keystroke_c	c	n/a
384.2535	0.091	768507	keystroke_e	e	n/a
384.329	0.09	768658	keystroke_Key.space	Key.space	n/a
384.4945	0.104	768989	keystroke_f	f	n/a
384.6145	0.059	769229	keystroke_l	l	n/a
384.7345	0.06	769469	keystroke_l	l	n/a
384.9145	0.12	769829	keystroke_o	o	n/a
385.0795	0.06	770159	keystroke_r	r	n/a
385.2445	0.0745	770489	keystroke_Key.backspace	Key.backspace	n/a
385.394	0.0755	770788	keystroke_Key.backspace	Key.backspace	n/a
385.529	0.105	771058	keystroke_Key.backspace	Key.backspace	n/a
385.709	0.075	771418	keystroke_o	o	n/a
385.859	0.0755	771718	keystroke_o	o	n/a
385.994	0.09	771988	keystroke_r	r	n/a
386.1445	0.075	772289	keystroke_Key.space	Key.space	n/a
386.5195	0.06	773039	keystroke_a	a	n/a
386.714	0.0755	773428	keystroke_n	n	n/a
386.804	0.105	773608	keystroke_g	g	n/a
386.8795	0.1195	773759	keystroke_e	e	n/a
386.999	0.075	773998	keystroke_l	l	n/a
387.434	0.0755	774868	keystroke_a	a	n/a
387.5695	0.0895	775139	keystroke_Key.space	Key.space	n/a
387.809	0.09	775618	keystroke_s	s	n/a
387.9435	0.09	775887	keystroke_c	c	n/a
388.0495	0.105	776099	keystroke_n	n	n/a
388.079	0.0595	776158	keystroke_a	a	n/a
388.2735	0.09	776547	keystroke_Key.enter	Key.enter	n/a
388.37	5.773	776740	prompt	n/a	regards liable caroline darwin\n
389.2045	0.12	778409	keystroke_r	r	n/a
389.2635	0.105	778527	keystroke_e	e	n/a
389.4595	0.06	778919	keystroke_g	g	n/a
389.5045	0.195	779009	keystroke_a	a	n/a
389.6395	0.075	779279	keystroke_r	r	n/a
389.8195	0.104	779639	keystroke_d	d	n/a
389.9395	0.075	779879	keystroke_s	s	n/a
390.5095	0.0895	781019	keystroke_Key.space	Key.space	n/a
390.734	0.105	781468	keystroke_l	l	n/a
391.2745	0.06	782549	keystroke_i	i	n/a
391.3935	0.0905	782787	keystroke_a	a	n/a
391.5445	0.06	783089	keystroke_b	b	n/a
391.6195	0.09	783239	keystroke_l	l	n/a
391.724	0.09	783448	keystroke_e	e	n/a
391.799	0.0905	783598	keystroke_Key.space	Key.space	n/a
392.024	0.075	784048	keystroke_c	c	n/a
392.1745	0.15	784349	keystroke_a	a	n/a
392.294	0.0755	784588	keystroke_r	r	n/a
392.3995	0.06	784799	keystroke_o	o	n/a
392.5495	0.06	785099	keystroke_l	l	n/a
392.6845	0.06	785369	keystroke_i	i	n/a
392.8345	0.06	785669	keystroke_n	n	n/a
392.9085	0.106	785817	keystroke_e	e	n/a
393.0295	0.075	786059	keystroke_Key.space	Key.space	n/a
393.1495	0.1045	786299	keystroke_d	d	n/a
393.269	0.165	786538	keystroke_a	a	n/a
393.419	0.075	786838	keystroke_r	r	n/a
393.629	0.09	787258	keystroke_w	w	n/a
393.734	0.0605	787468	keystroke_i	i	n/a
393.8695	0.075	787739	keystroke_n	n	n/a
394.0345	0.1045	788069	keystroke_Key.enter	Key.enter	n/a
394.1475	4.208	788295	prompt	n/a	film light singer clause\n
394.844	0.1045	789688	keystroke_f	f	n/a
394.934	0.0755	789868	keystroke_i	i	n/a
395.1145	0.0595	790229	keystroke_l	l	n/a
395.264	0.075	790528	keystroke_m	m	n/a
395.519	0.015	791038	keystroke_Key.space	Key.space	n/a
395.609	0.06	791218	keystroke_l	l	n/a
395.7885	0.0605	791577	keystroke_i	i	n/a
395.8935	0.09	791787	keystroke_g	g	n/a
396.044	0.0745	792088	keystroke_h	h	n/a
396.104	0.0895	792208	keystroke_t	t	n/a
396.2985	0.06	792597	keystroke_Key.space	Key.space	n/a
396.6435	0.106	793287	keystroke_s	s	n/a
396.7495	0.074	793499	keystroke_i	i	n/a
396.899	0.0895	793798	keystroke_n	n	n/a
396.9435	0.121	793887	keystroke_g	g	n/a
397.0485	0.15	794097	keystroke_e	e	n/a
397.139	0.0895	794278	keystroke_r	r	n/a
397.2295	0.0745	794459	keystroke_Key.space	Key.space	n/a
397.3645	0.0745	794729	keystroke_c	c	n/a
397.484	0.075	794968	keystroke_l	l	n/a
397.649	0.06	795298	keystroke_a	a	n/a
397.724	0.0605	795448	keystroke_u	u	n/a
397.8885	0.091	795777	keystroke_s	s	n/a
398.1895	0.045	796379	keystroke_e	e	n/a
398.2495	0.104	796499	keystroke_Key.enter	Key.enter	n/a
398.3695	6.8115	796739	prompt	n/a	seafood gentleman demands forwarding\n
399.134	0.075	798268	keystroke_s	s	n/a
399.2995	0.1195	798599	keystroke_e	e	n/a
399.404	0.165	798808	keystroke_a	a	n/a
399.584	0.075	799168	keystroke_f	f	n/a
399.704	0.061	799408	keystroke_o	o	n/a
399.824	0.075	799648	keystroke_o	o	n/a
399.914	0.0895	799828	keystroke_d	d	n/a
400.0185	0.075	800037	keystroke_Key.space	Key.space	n/a
400.139	0.1205	800278	keystroke_g	g	n/a
400.2145	0.1045	800429	keystroke_e	e	n/a
400.2885	0.09	800577	keystroke_n	n	n/a
400.454	0.0595	800908	keystroke_e	e	n/a
400.8135	0.09	801627	keystroke_Key.backspace	Key.backspace	n/a
400.919	0.1045	801838	keystroke_t	t	n/a
401.009	0.1045	802018	keystroke_e	e	n/a
401.099	0.09	802198	keystroke_l	l	n/a
401.339	0.0455	802678	keystroke_Key.backspace	Key.backspace	n/a
401.459	0.09	802918	keystroke_Key.backspace	Key.backspace	n/a
401.5645	0.1045	803129	keystroke_l	l	n/a
401.624	0.105	803248	keystroke_e	e	n/a
401.849	0.06	803698	keystroke_m	m	n/a
402.149	0.09	804298	keystroke_a	a	n/a
402.254	0.06	804508	keystroke_n	n	n/a
402.419	0.075	804838	keystroke_Key.space	Key.space	n/a
402.509	0.1195	805018	keystroke_d	d	n/a
402.6135	0.105	805227	keystroke_e	e	n/a
402.7045	0.075	805409	keystroke_m	m	n/a
402.824	0.0895	805648	keystroke_a	a	n/a
402.8985	0.075	805797	keystroke_n	n	n/a
402.9895	0.104	805979	keystroke_d	d	n/a
403.0645	0.09	806129	keystroke_s	s	n/a
403.124	0.0745	806248	keystroke_Key.space	Key.space	n/a
403.319	0.1205	806638	keystroke_f	f	n/a
403.4845	0.045	806969	keystroke_o	o	n/a
403.5445	0.105	807089	keystroke_r	r	n/a
403.7095	0.164	807419	keystroke_w	w	n/a
403.829	0.1195	807658	keystroke_a	a	n/a
403.9045	0.105	807809	keystroke_r	r	n/a
404.0845	0.12	808169	keystroke_d	d	n/a
404.159	0.1055	808318	keystroke_s	s	n/a
404.5185	0.075	809037	keystroke_Key.backspace	Key.backspace	n/a
404.7145	0.059	809429	keystroke_i	i	n/a
404.8635	0.091	809727	keystroke_n	n	n/a
404.9395	0.06	809879	keystroke_g	g	n/a
405.0885	0.0905	810177	keystroke_Key.enter	Key.enter	n/a
