onset	duration	sample	value	key	prompt_text
8.225	0.1185	16450	keystroke	a	n/a
8.314	0.105	16628	keystroke	d	n/a
8.4035	0.1205	16807	keystroke	a	n/a
8.539	0.045	17078	keystroke	m	n/a
8.7495	0.0745	17499	keystroke	b	n/a
12.9795	0.18	25959	keystroke	Key.cmd	n/a
13.0845	0.0895	26169	keystroke	v	n/a
19.089	8.848	38178	prompt	n/a	the quick brown fox jumps over a lazy dog\n
22.4595	0.09	44919	keystroke	t	n/a
22.5645	0.06	45129	keystroke	h	n/a
22.6395	0.075	45279	keystroke	e	n/a
22.7445	0.105	45489	keystroke	Key.space	n/a
22.8645	0.09	45729	keystroke	q	n/a
22.9695	0.1195	45939	keystroke	u	n/a
23.0445	0.0745	46089	keystroke	i	n/a
23.1495	0.135	46299	keystroke	c	n/a
23.2545	0.1195	46509	keystroke	k	n/a
23.36	0.1345	46720	keystroke	Key.space	n/a
23.4645	0.09	46929	keystroke	b	n/a
23.6295	0.1045	47259	keystroke	r	n/a
23.719	0.0905	47438	keystroke	o	n/a
23.8245	0.09	47649	keystroke	w	n/a
23.9295	0.12	47859	keystroke	n	n/a
24.0195	0.135	48039	keystroke	Key.space	n/a
24.245	0.059	48490	keystroke	f	n/a
24.3345	0.075	48669	keystroke	o	n/a
24.4545	0.045	48909	keystroke	x	n/a
24.5295	0.1195	49059	keystroke	Key.space	n/a
24.979	0.0455	49958	keystroke	j	n/a
25.0845	0.075	50169	keystroke	u	n/a
25.2795	0.105	50559	keystroke	m	n/a
25.3695	0.1345	50739	keystroke	p	n/a
25.4595	0.09	50919	keystroke	s	n/a
25.5645	0.12	51129	keystroke	Key.space	n/a
25.7595	0.09	51519	keystroke	o	n/a
25.8195	0.105	51639	keystroke	v	n/a
25.9845	0.1195	51969	keystroke	e	n/a
26.074	0.09	52148	keystroke	r	n/a
26.1495	0.105	52299	keystroke	Key.space	n/a
26.269	0.105	52538	keystroke	a	n/a
26.389	0.1055	52778	keystroke	Key.space	n/a
26.5395	0.09	53079	keystroke	l	n/a
26.6145	0.0595	53229	keystroke	a	n/a
26.8095	0.1045	53619	keystroke	z	n/a
26.93	0.0895	53860	keystroke	y	n/a
27.0345	0.105	54069	keystroke	Key.space	n/a
27.1995	0.1045	54399	keystroke	d	n/a
27.304	0.0905	54608	keystroke	o	n/a
27.4395	0.091	54879	keystroke	g	n/a
27.8295	0.105	55659	keystroke	Key.enter	n/a
27.941	6.945	55882	prompt	n/a	automatic suggest accidents dodge\n
28.5945	0.075	57189	keystroke	a	n/a
28.9245	0.09	57849	keystroke	u	n/a
29.0295	0.0745	58059	keystroke	t	n/a
29.104	0.0905	58208	keystroke	o	n/a
29.2995	0.0895	58599	keystroke	m	n/a
29.374	0.1205	58748	keystroke	a	n/a
29.464	0.0905	58928	keystroke	t	n/a
29.6445	0.105	59289	keystroke	i	n/a
29.7795	0.12	59559	keystroke	c	n/a
29.9295	0.135	59859	keystroke	Key.space	n/a
30.215	0.074	60430	keystroke	s	n/a
30.3345	0.075	60669	keystroke	u	n/a
30.4395	0.06	60879	keystroke	g	n/a
30.589	0.0755	61178	keystroke	g	n/a
30.7095	0.075	61419	keystroke	e	n/a
30.8445	0.09	61689	keystroke	s	n/a
31.0395	0.12	62079	keystroke	Key.space	n/a
31.174	0.1055	62348	keystroke	a	n/a
31.3095	0.0895	62619	keystroke	c	n/a
31.474	0.0905	62948	keystroke	c	n/a
31.6995	0.045	63399	keystroke	Key.backspace	n/a
31.804	0.0605	63608	keystroke	Key.backspace	n/a
31.9545	0.0455	63909	keystroke	Key.backspace	n/a
32.074	0.0605	64148	keystroke	Key.backspace	n/a
32.1495	0.075	64299	keystroke	t	n/a
32.2395	0.105	64479	keystroke	Key.space	n/a
32.404	0.0905	64808	keystroke	a	n/a
32.659	0.0755	65318	keystroke	c	n/a
32.8095	0.12	65619	keystroke	c	n/a
32.9445	0.0595	65889	keystroke	i	n/a
33.0345	0.09	66069	keystroke	d	n/a
33.1845	0.0895	66369	keystroke	e	n/a
33.289	0.0905	66578	keystroke	n	n/a
33.3945	0.0755	66789	keystroke	t	n/a
33.574	0.0755	67148	keystroke	s	n/a
33.6945	0.105	67389	keystroke	Key.space	n/a
33.9645	0.075	67929	keystroke	d	n/a
34.085	0.0745	68170	keystroke	o	n/a
34.3695	0.09	68739	keystroke	d	n/a
34.52	0.1195	69040	keystroke	g	n/a
34.6095	0.09	69219	keystroke	e	n/a
34.789	0.0905	69578	keystroke	Key.enter	n/a
34.887	4.4785	69774	prompt	n/a	lenses handed amounts query\n
35.4495	0.075	70899	keystroke	l	n/a
35.5545	0.075	71109	keystroke	e	n/a
35.689	0.0905	71378	keystroke	n	n/a
35.8095	0.0745	71619	keystroke	s	n/a
35.959	0.0905	71918	keystroke	e	n/a
36.1545	0.06	72309	keystroke	s	n/a
36.2445	0.0755	72489	keystroke	Key.space	n/a
36.3945	0.0755	72789	keystroke	h	n/a
36.4245	0.0895	72849	keystroke	a	n/a
37.0545	0.1195	74109	keystroke	n	n/a
37.189	0.0905	74378	keystroke	d	n/a
37.3545	0.075	74709	keystroke	e	n/a
37.5345	0.105	75069	keystroke	d	n/a
37.6545	0.1195	75309	keystroke	Key.space	n/a
37.7445	0.105	75489	keystroke	a	n/a
37.8945	0.09	75789	keystroke	m	n/a
38.0145	0.18	76029	keystroke	o	n/a
38.089	0.0905	76178	keystroke	u	n/a
38.2395	0.12	76479	keystroke	n	n/a
38.3145	0.09	76629	keystroke	t	n/a
38.4795	0.105	76959	keystroke	s	n/a
38.5545	0.1195	77109	keystroke	Key.space	n/a
38.6595	0.105	77319	keystroke	q	n/a
38.7645	0.075	77529	keystroke	u	n/a
38.8695	0.1195	77739	keystroke	e	n/a
38.9595	0.1195	77919	keystroke	r	n/a
39.0945	0.075	78189	keystroke	y	n/a
39.289	0.0755	78578	keystroke	Key.enter	n/a
39.368	5.0525	78736	prompt	n/a	cookies affected harrison night\n
40.0095	0.105	80019	keystroke	c	n/a
40.0845	0.075	80169	keystroke	o	n/a
40.2495	0.09	80499	keystroke	o	n/a
40.3695	0.075	80739	keystroke	k	n/a
40.5345	0.0905	81069	keystroke	i	n/a
40.5945	0.06	81189	keystroke	e	n/a
40.7445	0.0595	81489	keystroke	s	n/a
40.8195	0.105	81639	keystroke	Key.space	n/a
40.94	0.0745	81880	keystroke	a	n/a
41.0295	0.06	82059	keystroke	f	n/a
41.1645	0.12	82329	keystroke	f	n/a
41.2545	0.105	82509	keystroke	e	n/a
41.404	0.0755	82808	keystroke	c	n/a
41.5395	0.12	83079	keystroke	t	n/a
41.6595	0.06	83319	keystroke	e	n/a
41.8995	0.0895	83799	keystroke	d	n/a
42.0345	0.09	84069	keystroke	Key.space	n/a
42.1845	0.0895	84369	keystroke	h	n/a
42.289	0.1355	84578	keystroke	a	n/a
42.4095	0.06	84819	keystroke	r	n/a
42.5445	0.09	85089	keystroke	r	n/a
42.6795	0.075	85359	keystroke	i	n/a
42.8145	0.1045	85629	keystroke	s	n/a
42.9645	0.15	85929	keystroke	o	n/a
43.0695	0.105	86139	keystroke	n	n/a
43.175	0.0895	86350	keystroke	Key.space	n/a
43.6095	0.12	87219	keystroke	n	n/a
43.7445	0.135	87489	keystroke	i	n/a
43.9095	0.105	87819	keystroke	g	n/a
44.0595	0.105	88119	keystroke	h	n/a
44.1645	0.075	88329	keystroke	t	n/a
44.3445	0.075	88689	keystroke	Key.enter	n/a
44.4245	4.796	88849	prompt	n/a	amateur discuss view faced\n
45.0495	0.0755	90099	keystroke	a	n/a
45.1545	0.105	90309	keystroke	m	n/a
45.2295	0.105	90459	keystroke	a	n/a
45.4545	0.075	90909	keystroke	t	n/a
45.6345	0.0755	91269	keystroke	e	n/a
45.8605	0.089	91721	keystroke	u	n/a
45.9945	0.075	91989	keystroke	r	n/a
46.099	0.1655	92198	keystroke	Key.space	n/a
46.2495	0.075	92499	keystroke	d	n/a
46.3395	0.09	92679	keystroke	i	n/a
46.4145	0.12	92829	keystroke	s	n/a
46.5195	0.12	93039	keystroke	c	n/a
46.6245	0.075	93249	keystroke	u	n/a
46.7295	0.09	93459	keystroke	s	n/a
46.9095	0.09	93819	keystroke	s	n/a
47.0595	0.15	94119	keystroke	Key.space	n/a
47.419	0.061	94838	keystroke	w	n/a
47.689	0.0755	95378	keystroke	Key.backspace	n/a
47.8545	0.0905	95709	keystroke	v	n/a
47.9295	0.09	95859	keystroke	i	n/a
48.0795	0.1505	96159	keystroke	e	n/a
48.1845	0.105	96369	keystroke	w	n/a
48.335	0.1045	96670	keystroke	Key.space	n/a
48.4995	0.12	96999	keystroke	f	n/a
48.604	0.1655	97208	keystroke	a	n/a
48.7245	0.1645	97449	keystroke	c	n/a
48.845	0.0895	97690	keystroke	e	n/a
49.0245	0.09	98049	keystroke	d	n/a
49.1445	0.075	98289	keystroke	Key.enter	n/a
49.2235	6.822	98447	prompt	n/a	amendments joyce chase stephen\n
50.7945	0.06	101589	keystroke	a	n/a
50.9295	0.0445	101859	keystroke	m	n/a
50.989	0.0605	101978	keystroke	e	n/a
51.0945	0.075	102189	keystroke	n	n/a
51.229	0.0905	102458	keystroke	d	n/a
51.4995	0.0895	102999	keystroke	m	n/a
51.6495	0.06	103299	keystroke	e	n/a
51.6945	0.09	103389	keystroke	n	n/a
51.8	0.074	103600	keystroke	t	n/a
51.9345	0.075	103869	keystroke	s	n/a
52.0095	0.1055	104019	keystroke	Key.space	n/a
52.1295	0.0595	104259	keystroke	j	n/a
52.2945	0.12	104589	keystroke	o	n/a
52.355	0.0745	104710	keystroke	y	n/a
52.6245	0.12	105249	keystroke	c	n/a
52.9245	0.075	105849	keystroke	e	n/a
53.074	0.1205	106148	keystroke	Key.space	n/a
53.4795	0.135	106959	keystroke	c	n/a
53.585	0.104	107170	keystroke	h	n/a
53.6595	0.12	107319	keystroke	a	n/a
53.9145	0.105	107829	keystroke	s	n/a
53.989	0.1055	107978	keystroke	e	n/a
54.2445	0.135	108489	keystroke	Key.space	n/a
54.604	0.1055	109208	keystroke	s	n/a
54.7245	0.09	109449	keystroke	t	n/a
54.8595	0.075	109719	keystroke	e	n/a
55.16	0.014	110320	keystroke	p	n/a
55.5345	0.105	111069	keystroke	h	n/a
55.6545	0.075	111309	keystroke	e	n/a
55.7595	0.0755	111519	keystroke	n	n/a
55.9545	0.09	111909	keystroke	Key.enter	n/a
56.0505	4.571	112101	prompt	n/a	integer aviation cite pentium\n
56.6445	0.135	113289	keystroke	i	n/a
56.735	0.1045	113470	keystroke	n	n/a
56.7795	0.106	113559	keystroke	t	n/a
56.8695	0.0905	113739	keystroke	e	n/a
57.0195	0.09	114039	keystroke	g	n/a
57.1995	0.105	114399	keystroke	e	n/a
57.3195	0.105	114639	keystroke	r	n/a
57.4995	0.12	114999	keystroke	Key.space	n/a
57.6045	0.1355	115209	keystroke	a	n/a
57.74	0.1045	115480	keystroke	v	n/a
57.8745	0.1055	115749	keystroke	i	n/a
58.01	0.1195	116020	keystroke	a	n/a
58.115	0.0595	116230	keystroke	t	n/a
58.25	0.2095	116500	keystroke	i	n/a
58.31	0.164	116620	keystroke	o	n/a
58.4145	0.135	116829	keystroke	n	n/a
58.5645	0.1205	117129	keystroke	Key.space	n/a
58.895	0.09	117790	keystroke	c	n/a
59.0145	0.0745	118029	keystroke	i	n/a
59.104	0.0605	118208	keystroke	t	n/a
59.2395	0.075	118479	keystroke	e	n/a
59.3445	0.105	118689	keystroke	Key.space	n/a
59.4645	0.12	118929	keystroke	p	n/a
59.66	0.0895	119320	keystroke	e	n/a
59.7345	0.105	119469	keystroke	n	n/a
59.8845	0.0895	119769	keystroke	t	n/a
60.0195	0.15	120039	keystroke	i	n/a
60.1545	0.06	120309	keystroke	u	n/a
60.3645	0.09	120729	keystroke	m	n/a
60.5295	0.09	121059	keystroke	Key.enter	n/a
60.6245	8.0655	121249	prompt	n/a	capability strongly remember negotiation\n
61.2495	0.12	122499	keystroke	c	n/a
61.3555	0.089	122711	keystroke	a	n/a
61.459	0.1055	122918	keystroke	p	n/a
61.55	0.105	123100	keystroke	a	n/a
61.6995	0.09	123399	keystroke	b	n/a
61.804	0.0755	123608	keystroke	i	n/a
61.955	0.105	123910	keystroke	l	n/a
62.015	0.1195	124030	keystroke	i	n/a
62.15	0.0745	124300	keystroke	t	n/a
62.24	0.075	124480	keystroke	y	n/a
62.345	0.1195	124690	keystroke	Key.space	n/a
62.435	0.09	124870	keystroke	s	n/a
62.585	0.06	125170	keystroke	t	n/a
62.735	0.0745	125470	keystroke	r	n/a
62.8405	0.1195	125681	keystroke	o	n/a
62.93	0.09	125860	keystroke	n	n/a
63.02	0.0895	126040	keystroke	g	n/a
63.1245	0.21	126249	keystroke	l	n/a
63.2295	0.0595	126459	keystroke	y	n/a
63.3195	0.09	126639	keystroke	Key.space	n/a
65.9145	0.105	131829	keystroke	r	n/a
65.9895	0.075	131979	keystroke	e	n/a
66.0795	0.09	132159	keystroke	m	n/a
66.155	0.105	132310	keystroke	e	n/a
66.2445	0.09	132489	keystroke	m	n/a
66.3645	0.075	132729	keystroke	b	n/a
66.5145	0.1195	133029	keystroke	e	n/a
66.6045	0.09	133209	keystroke	r	n/a
66.8895	0.12	133779	keystroke	Key.space	n/a
67.3545	0.0905	134709	keystroke	n	n/a
67.4745	0.06	134949	keystroke	e	n/a
67.595	0.0745	135190	keystroke	g	n/a
67.6995	0.0895	135399	keystroke	o	n/a
67.8045	0.09	135609	keystroke	t	n/a
67.91	0.1045	135820	keystroke	i	n/a
68.0445	0.15	136089	keystroke	a	n/a
68.1345	0.09	136269	keystroke	t	n/a
68.2545	0.195	136509	keystroke	i	n/a
68.3295	0.15	136659	keystroke	o	n/a
68.404	0.105	136808	keystroke	n	n/a
68.6145	0.0745	137229	keystroke	Key.enter	n/a
68.693	8.3525	137386	prompt	n/a	mongolia publishing brussels modems\n
69.3045	0.075	138609	keystroke	m	n/a
69.4695	0.15	138939	keystroke	o	n/a
69.5895	0.09	139179	keystroke	n	n/a
69.7095	0.09	139419	keystroke	g	n/a
69.8455	0.0895	139691	keystroke	o	n/a
70.0245	0.1355	140049	keystroke	l	n/a
70.145	0.1345	140290	keystroke	i	n/a
70.2645	0.09	140529	keystroke	a	n/a
70.355	0.1195	140710	keystroke	Key.space	n/a
70.5045	0.135	141009	keystroke	p	n/a
70.595	0.0745	141190	keystroke	u	n/a
70.6545	0.0905	141309	keystroke	b	n/a
70.7745	0.1355	141549	keystroke	l	n/a
70.8645	0.105	141729	keystroke	i	n/a
70.9545	0.105	141909	keystroke	s	n/a
71.0445	0.09	142089	keystroke	h	n/a
71.1195	0.18	142239	keystroke	i	n/a
71.24	0.1195	142480	keystroke	n	n/a
71.3455	0.074	142691	keystroke	g	n/a
71.42	0.1195	142840	keystroke	Key.space	n/a
74.45	0.0595	148900	keystroke	b	n/a
74.6155	0.0735	149231	keystroke	r	n/a
74.704	0.0755	149408	keystroke	u	n/a
74.7945	0.105	149589	keystroke	s	n/a
75.0345	0.075	150069	keystroke	s	n/a
75.5595	0.06	151119	keystroke	e	n/a
75.7395	0.075	151479	keystroke	l	n/a
75.935	0.0745	151870	keystroke	s	n/a
76.0545	0.135	152109	keystroke	Key.space	n/a
76.3245	0.09	152649	keystroke	m	n/a
76.4445	0.075	152889	keystroke	o	n/a
76.535	0.0745	153070	keystroke	d	n/a
76.6695	0.075	153339	keystroke	e	n/a
76.76	0.1045	153520	keystroke	m	n/a
76.8795	0.09	153759	keystroke	s	n/a
76.9545	0.09	153909	keystroke	Key.enter	n/a
77.0485	8.533	154097	prompt	n/a	flex pens citizens carol\n
77.7045	0.06	155409	keystroke	f	n/a
77.8395	0.09	155679	keystroke	e	n/a
77.945	0.0895	155890	keystroke	l	n/a
78.095	0.1195	156190	keystroke	x	n/a
78.2745	0.105	156549	keystroke	Key.space	n/a
78.41	0.1195	156820	keystroke	p	n/a
78.7095	0.0605	157419	keystroke	Key.backspace	n/a
78.815	0.0745	157630	keystroke	Key.backspace	n/a
78.9795	0.06	157959	keystroke	Key.backspace	n/a
79.1445	0.045	158289	keystroke	Key.backspace	n/a
79.4145	0.0305	158829	keystroke	Key.backspace	n/a
79.64	0.0595	159280	keystroke	l	n/a
79.76	0.06	159520	keystroke	e	n/a
79.97	0.09	159940	keystroke	x	n/a
80.1045	0.1055	160209	keystroke	Key.space	n/a
80.255	0.105	160510	keystroke	p	n/a
80.42	0.0745	160840	keystroke	e	n/a
80.54	0.105	161080	keystroke	n	n/a
80.6595	0.075	161319	keystroke	s	n/a
80.7645	0.12	161529	keystroke	Key.space	n/a
82.73	0.09	165460	keystroke	c	n/a
82.85	0.06	165700	keystroke	i	n/a
82.925	0.075	165850	keystroke	t	n/a
83.51	0.06	167020	keystroke	i	n/a
83.7945	0.1205	167589	keystroke	z	n/a
84.095	0.075	168190	keystroke	e	n/a
84.185	0.1195	168370	keystroke	n	n/a
84.2745	0.1205	168549	keystroke	s	n/a
84.4405	0.1045	168881	keystroke	Key.space	n/a
84.695	0.09	169390	keystroke	c	n/a
84.83	0.135	169660	keystroke	a	n/a
84.935	0.105	169870	keystroke	r	n/a
85.1895	0.0755	170379	keystroke	o	n/a
85.355	0.06	170710	keystroke	l	n/a
85.5045	0.0755	171009	keystroke	Key.enter	n/a
85.584	7.527	171168	prompt	n/a	always thinkpad zone documentary\n
86.4045	0.0905	172809	keystroke	a	n/a
86.525	0.09	173050	keystroke	l	n/a
86.6	0.0745	173200	keystroke	w	n/a
86.735	0.12	173470	keystroke	a	n/a
86.84	0.09	173680	keystroke	y	n/a
86.96	0.09	173920	keystroke	s	n/a
87.035	0.12	174070	keystroke	Key.space	n/a
87.2	0.0745	174400	keystroke	t	n/a
87.23	0.105	174460	keystroke	h	n/a
87.3045	0.0755	174609	keystroke	i	n/a
87.44	0.09	174880	keystroke	n	n/a
87.5	0.0745	175000	keystroke	k	n/a
87.68	0.1055	175360	keystroke	p	n/a
87.7705	0.1065	175541	keystroke	a	n/a
87.867	0.098	175734	keystroke	d	n/a
87.995	0.135	175990	keystroke	Key.space	n/a
88.415	0.06	176830	keystroke	z	n/a
88.58	0.105	177160	keystroke	o	n/a
88.64	0.105	177280	keystroke	n	n/a
88.73	0.0595	177460	keystroke	e	n/a
88.82	0.075	177640	keystroke	Key.space	n/a
91.5495	0.0605	183099	keystroke	d	n/a
91.64	0.075	183280	keystroke	o	n/a
91.745	0.09	183490	keystroke	c	n/a
91.82	0.06	183640	keystroke	u	n/a
92	0.0745	184000	keystroke	m	n/a
92.315	0.0745	184630	keystroke	e	n/a
92.4045	0.0905	184809	keystroke	n	n/a
92.51	0.075	185020	keystroke	t	n/a
92.6745	0.1355	185349	keystroke	a	n/a
92.765	0.09	185530	keystroke	r	n/a
92.885	0.062	185770	keystroke	y	n/a
93.05	0.06	186100	keystroke	Key.enter	n/a
93.114	11.5765	186228	prompt	n/a	overcome james infrastructure czech\n
93.74	0.075	187480	keystroke	o	n/a
93.83	0.0595	187660	keystroke	v	n/a
93.95	0.12	187900	keystroke	e	n/a
94.055	0.0595	188110	keystroke	r	n/a
94.2045	0.1055	188409	keystroke	c	n/a
94.295	0.09	188590	keystroke	o	n/a
94.4	0.135	188800	keystroke	m	n/a
94.4895	0.06	188979	keystroke	e	n/a
94.595	0.105	189190	keystroke	Key.space	n/a
94.7445	0.1055	189489	keystroke	j	n/a
94.85	0.09	189700	keystroke	a	n/a
94.955	0.09	189910	keystroke	m	n/a
95.03	0.0595	190060	keystroke	e	n/a
95.165	0.075	190330	keystroke	s	n/a
95.285	0.1195	190570	keystroke	Key.space	n/a
95.885	0.1195	191770	keystroke	i	n/a
95.9745	0.0905	191949	keystroke	n	n/a
96.0195	0.0755	192039	keystroke	f	n/a
96.23	0.12	192460	keystroke	r	n/a
96.365	0.12	192730	keystroke	a	n/a
96.44	0.075	192880	keystroke	s	n/a
96.5745	0.0755	193149	keystroke	t	n/a
96.725	0.06	193450	keystroke	r	n/a
96.845	0.09	193690	keystroke	u	n/a
96.92	0.105	193840	keystroke	c	n/a
97.085	0.075	194170	keystroke	t	n/a
97.1745	0.0755	194349	keystroke	u	n/a
97.265	0.09	194530	keystroke	r	n/a
97.3245	0.091	194649	keystroke	e	n/a
97.43	0.1045	194860	keystroke	Key.space	n/a
103.235	0.12	206470	keystroke	c	n/a
103.985	0.0895	207970	keystroke	z	n/a
104.21	0.06	208420	keystroke	e	n/a
104.3745	0.1055	208749	keystroke	c	n/a
104.465	0.075	208930	keystroke	h	n/a
104.6	0.0895	209200	keystroke	Key.enter	n/a
104.693	9.238	209386	prompt	n/a	jade stayed ericsson reliance\n
105.32	0.105	210640	keystroke	j	n/a
105.41	0.09	210820	keystroke	a	n/a
105.53	0.0895	211060	keystroke	d	n/a
105.68	0.075	211360	keystroke	e	n/a
105.785	0.1195	211570	keystroke	Key.space	n/a
105.8745	0.0755	211749	keystroke	s	n/a
105.98	0.075	211960	keystroke	t	n/a
106.1	0.0895	212200	keystroke	a	n/a
106.22	0.075	212440	keystroke	y	n/a
106.31	0.06	212620	keystroke	e	n/a
106.46	0.09	212920	keystroke	d	n/a
106.58	0.1195	213160	keystroke	Key.space	n/a
106.88	0.06	213760	keystroke	e	n/a
106.985	0.075	213970	keystroke	r	n/a
107.165	0.0905	214330	keystroke	i	n/a
107.27	0.075	214540	keystroke	c	n/a
107.3895	0.1055	214779	keystroke	s	n/a
107.615	0.0895	215230	keystroke	s	n/a
107.735	0.135	215470	keystroke	o	n/a
107.855	0.105	215710	keystroke	n	n/a
111.62	0.075	223240	keystroke	Key.space	n/a
112.6695	0.0755	225339	keystroke	r	n/a
112.73	0.0745	225460	keystroke	e	n/a
112.835	0.12	225670	keystroke	l	n/a
112.94	0.075	225880	keystroke	i	n/a
112.97	0.075	225940	keystroke	a	n/a
113.6	0.0745	227200	keystroke	n	n/a
113.645	0.15	227290	keystroke	c	n/a
113.75	0.075	227500	keystroke	e	n/a
113.84	0.09	227680	keystroke	Key.enter	n/a
113.934	9.3415	227868	prompt	n/a	oclc colony starsmerchant populations\n
114.815	0.0745	229630	keystroke	o	n/a
114.965	0.09	229930	keystroke	c	n/a
115.1	0.0745	230200	keystroke	l	n/a
115.1895	0.1055	230379	keystroke	c	n/a
115.7	0.12	231400	keystroke	Key.space	n/a
116.15	0.12	232300	keystroke	c	n/a
116.225	0.06	232450	keystroke	o	n/a
116.36	0.06	232720	keystroke	l	n/a
116.5245	0.15	233049	keystroke	o	n/a
116.6895	0.075	233379	keystroke	n	n/a
116.885	0.0895	233770	keystroke	y	n/a
117.005	0.12	234010	keystroke	Key.space	n/a
117.62	0.06	235240	keystroke	s	n/a
117.7255	0.0895	235451	keystroke	t	n/a
117.831	0.1345	235662	keystroke	a	n/a
117.9355	0.09	235871	keystroke	r	n/a
118.1455	0.0895	236291	keystroke	s	n/a
118.4605	0.075	236921	keystroke	m	n/a
118.5505	0.0895	237101	keystroke	e	n/a
118.6255	0.0595	237251	keystroke	r	n/a
118.82	0.045	237640	keystroke	c	n/a
118.895	0.06	237790	keystroke	h	n/a
118.97	0.06	237940	keystroke	a	n/a
119.0745	0.0605	238149	keystroke	n	n/a
119.75	0.06	239500	keystroke	n	n/a
120.08	0.075	240160	keystroke	Key.backspace	n/a
120.14	0.06	240280	keystroke	t	n/a
120.335	0.105	240670	keystroke	Key.space	n/a
120.8	0.135	241600	keystroke	p	n/a
120.92	0.21	241840	keystroke	o	n/a
121.085	0.195	242170	keystroke	p	n/a
121.685	0.045	243370	keystroke	l	n/a
121.7745	0.0905	243549	keystroke	u	n/a
122.0745	0.0605	244149	keystroke	Key.backspace	n/a
122.195	0.06	244390	keystroke	Key.backspace	n/a
122.3605	0.1045	244721	keystroke	u	n/a
122.4505	0.1645	244901	keystroke	l	n/a
122.585	0.1195	245170	keystroke	a	n/a
122.6895	0.0755	245379	keystroke	t	n/a
122.795	0.1795	245590	keystroke	i	n/a
122.87	0.1195	245740	keystroke	o	n/a
122.93	0.12	245860	keystroke	n	n/a
123.035	0.105	246070	keystroke	s	n/a
123.17	0.1045	246340	keystroke	Key.enter	n/a
123.2785	6.718	246557	prompt	n/a	technician prot i canon\n
124.055	0.09	248110	keystroke	t	n/a
124.22	0.105	248440	keystroke	e	n/a
124.61	0.105	249220	keystroke	c	n/a
124.655	0.09	249310	keystroke	h	n/a
124.805	0.12	249610	keystroke	n	n/a
124.895	0.12	249790	keystroke	i	n/a
124.97	0.1195	249940	keystroke	c	n/a
125.1045	0.0905	250209	keystroke	i	n/a
125.165	0.105	250330	keystroke	a	n/a
125.285	0.1195	250570	keystroke	n	n/a
125.436	0.0435	250872	keystroke	Key.space	n/a
125.645	0.15	251290	keystroke	p	n/a
125.825	0.075	251650	keystroke	r	n/a
125.9445	0.1205	251889	keystroke	o	n/a
126.095	0.075	252190	keystroke	t	n/a
126.621	0.104	253242	keystroke	Key.space	n/a
126.7545	0.0755	253509	keystroke	i	n/a
127.025	0.06	254050	keystroke	Key.space	n/a
129.3195	0.1055	258639	keystroke	c	n/a
129.41	0.09	258820	keystroke	a	n/a
129.515	0.0895	259030	keystroke	n	n/a
129.62	0.12	259240	keystroke	o	n/a
129.755	0.075	259510	keystroke	n	n/a
129.92	0.0755	259840	keystroke	Key.enter	n/a
130	9.101	260000	prompt	n/a	clear bits calculations network\n
130.6855	0.104	261371	keystroke	c	n/a
130.805	0.0755	261610	keystroke	l	n/a
130.91	0.135	261820	keystroke	e	n/a
131.015	0.135	262030	keystroke	a	n/a
131.105	0.1055	262210	keystroke	r	n/a
131.2105	0.135	262421	keystroke	Key.space	n/a
131.3605	0.0745	262721	keystroke	b	n/a
131.4505	0.075	262901	keystroke	i	n/a
131.541	0.0745	263082	keystroke	t	n/a
131.705	0.075	263410	keystroke	s	n/a
131.795	0.135	263590	keystroke	Key.space	n/a
131.945	0.135	263890	keystroke	c	n/a
132.02	0.12	264040	keystroke	a	n/a
132.1705	0.1195	264341	keystroke	l	n/a
132.32	0.12	264640	keystroke	c	n/a
132.4555	0.105	264911	keystroke	u	n/a
132.545	0.105	265090	keystroke	l	n/a
132.62	0.09	265240	keystroke	a	n/a
132.695	0.075	265390	keystroke	t	n/a
132.8	0.2255	265600	keystroke	i	n/a
132.905	0.1505	265810	keystroke	o	n/a
132.98	0.1505	265960	keystroke	n	n/a
133.1005	0.104	266201	keystroke	s	n/a
133.19	0.1355	266380	keystroke	Key.space	n/a
133.4755	0.0895	266951	keystroke	n	n/a
133.535	0.135	267070	keystroke	e	n/a
133.655	0.06	267310	keystroke	t	n/a
133.7605	0.0895	267521	keystroke	w	n/a
133.865	0.105	267730	keystroke	o	n/a
133.955	0.1055	267910	keystroke	r	n/a
134.045	0.12	268090	keystroke	k	n/a
134.27	0.135	268540	keystroke	Key.space	n/a
138.785	0.045	277570	keystroke	Key.backspace	n/a
139.0405	0.0595	278081	keystroke	Key.enter	n/a
139.104	6.598	278208	prompt	n/a	bedford boundaries yard chapters\n
139.8655	0.045	279731	keystroke	b	n/a
139.9855	0.075	279971	keystroke	e	n/a
140.1505	0.09	280301	keystroke	d	n/a
140.2705	0.1045	280541	keystroke	o	n/a
140.3605	0.09	280721	keystroke	r	n/a
141.0205	0.06	282041	keystroke	Key.backspace	n/a
141.1405	0.06	282281	keystroke	Key.backspace	n/a
141.2155	0.105	282431	keystroke	f	n/a
141.4405	0.075	282881	keystroke	o	n/a
141.575	0.0755	283150	keystroke	r	n/a
141.755	0.1055	283510	keystroke	d	n/a
141.8455	0.09	283691	keystroke	Key.space	n/a
142.0855	0.1045	284171	keystroke	b	n/a
142.1605	0.12	284321	keystroke	o	n/a
142.2205	0.075	284441	keystroke	u	n/a
142.3705	0.1195	284741	keystroke	n	n/a
142.416	0.1195	284832	keystroke	d	n/a
142.5505	0.12	285101	keystroke	a	n/a
142.6555	0.0895	285311	keystroke	r	n/a
142.76	0.0905	285520	keystroke	i	n/a
142.8205	0.09	285641	keystroke	e	n/a
142.9855	0.0895	285971	keystroke	s	n/a
143.09	0.076	286180	keystroke	Key.space	n/a
143.315	0.06	286630	keystroke	y	n/a
143.39	0.1055	286780	keystroke	a	n/a
143.435	0.1055	286870	keystroke	r	n/a
143.6455	0.09	287291	keystroke	d	n/a
143.7655	0.12	287531	keystroke	Key.space	n/a
144.305	0.1055	288610	keystroke	c	n/a
144.3655	0.105	288731	keystroke	h	n/a
144.4705	0.09	288941	keystroke	a	n/a
144.575	0.0755	289150	keystroke	p	n/a
144.7105	0.075	289421	keystroke	t	n/a
144.89	0.0905	289780	keystroke	e	n/a
145.2655	0.075	290531	keystroke	r	n/a
145.475	0.0605	290950	keystroke	s	n/a
145.6255	0.0755	291251	keystroke	Key.enter	n/a
145.7065	4.93	291413	prompt	n/a	over inspector describing fancy\n
146.345	0.0905	292690	keystroke	o	n/a
146.4355	0.09	292871	keystroke	v	n/a
146.5855	0.1045	293171	keystroke	e	n/a
146.6605	0.105	293321	keystroke	r	n/a
146.7805	0.075	293561	keystroke	Key.space	n/a
146.8715	0.149	293743	keystroke	i	n/a
146.9605	0.09	293921	keystroke	n	n/a
147.036	0.0745	294072	keystroke	s	n/a
147.1255	0.1045	294251	keystroke	p	n/a
147.2605	0.0445	294521	keystroke	e	n/a
147.3655	0.12	294731	keystroke	c	n/a
147.6505	0.015	295301	keystroke	t	n/a
147.7105	0.105	295421	keystroke	o	n/a
147.8005	0.0895	295601	keystroke	r	n/a
147.905	0.15	295810	keystroke	Key.space	n/a
148.1305	0.0745	296261	keystroke	d	n/a
148.2805	0.075	296561	keystroke	e	n/a
148.4155	0.1195	296831	keystroke	s	n/a
148.49	0.1055	296980	keystroke	c	n/a
148.671	0.0895	297342	keystroke	r	n/a
148.79	0.0905	297580	keystroke	i	n/a
148.9255	0.0455	297851	keystroke	b	n/a
149.0455	0.1195	298091	keystroke	i	n/a
149.1805	0.12	298361	keystroke	n	n/a
149.3155	0.0745	298631	keystroke	g	n/a
149.4805	0.135	298961	keystroke	Key.space	n/a
149.78	0.091	299560	keystroke	f	n/a
149.9155	0.0895	299831	keystroke	a	n/a
150.0355	0.09	300071	keystroke	n	n/a
150.2155	0.0895	300431	keystroke	c	n/a
150.3505	0.06	300701	keystroke	y	n/a
150.5455	0.09	301091	keystroke	Key.enter	n/a
150.64	9.4465	301280	prompt	n/a	enemies rochester clerk soldiers\n
151.3555	0.045	302711	keystroke	e	n/a
151.4455	0.0445	302891	keystroke	m	n/a
151.5505	0.06	303101	keystroke	e	n/a
151.79	0.1355	303580	keystroke	m	n/a
151.8955	0.09	303791	keystroke	i	n/a
152.0155	0.0595	304031	keystroke	e	n/a
152.2105	0.06	304421	keystroke	s	n/a
152.7355	0.06	305471	keystroke	Key.backspace	n/a
152.9605	0.0595	305921	keystroke	Key.backspace	n/a
153.1405	0.045	306281	keystroke	Key.backspace	n/a
153.4105	0.075	306821	keystroke	Key.backspace	n/a
153.8455	0.045	307691	keystroke	Key.backspace	n/a
154.0555	0.045	308111	keystroke	Key.backspace	n/a
154.3255	0.0155	308651	keystroke	n	n/a
154.775	0.0605	309550	keystroke	e	n/a
154.9255	0.06	309851	keystroke	m	n/a
155.2405	0.06	310481	keystroke	i	n/a
155.3455	0.0595	310691	keystroke	e	n/a
155.5105	0.075	311021	keystroke	s	n/a
155.6155	0.0895	311231	keystroke	Key.space	n/a
155.8555	0.06	311711	keystroke	r	n/a
155.9605	0.105	311921	keystroke	o	n/a
156.1105	0.12	312221	keystroke	c	n/a
156.2155	0.0745	312431	keystroke	h	n/a
156.3505	0.105	312701	keystroke	e	n/a
157.0555	0.105	314111	keystroke	s	n/a
157.2205	0.075	314441	keystroke	t	n/a
157.4005	0.1195	314801	keystroke	e	n/a
157.4755	0.09	314951	keystroke	r	n/a
157.6105	0.135	315221	keystroke	Key.space	n/a
157.775	0.136	315550	keystroke	c	n/a
157.9705	0.1045	315941	keystroke	l	n/a
158.135	0.1355	316270	keystroke	e	n/a
158.2555	0.106	316511	keystroke	r	n/a
158.3615	0.15	316723	keystroke	k	n/a
158.4655	0.1505	316931	keystroke	Key.space	n/a
158.931	0.09	317862	keystroke	s	n/a
159.021	0.0595	318042	keystroke	o	n/a
159.1705	0.105	318341	keystroke	l	n/a
159.216	0.089	318432	keystroke	d	n/a
159.3955	0.09	318791	keystroke	i	n/a
159.5005	0.135	319001	keystroke	e	n/a
159.6055	0.1205	319211	keystroke	r	n/a
159.8155	0.135	319631	keystroke	s	n/a
159.9805	0.105	319961	keystroke	Key.enter	n/a
160.09	5.3065	320180	prompt	n/a	matched charts exclusively add\n
160.7305	0.105	321461	keystroke	m	n/a
160.79	0.106	321580	keystroke	a	n/a
160.896	0.0895	321792	keystroke	t	n/a
161.121	0.1045	322242	keystroke	c	n/a
161.226	0.0745	322452	keystroke	h	n/a
161.3	0.075	322600	keystroke	e	n/a
161.4805	0.09	322961	keystroke	d	n/a
161.5855	0.1045	323171	keystroke	Key.space	n/a
161.945	0.1205	323890	keystroke	c	n/a
162.0205	0.12	324041	keystroke	h	n/a
162.1255	0.12	324251	keystroke	a	n/a
162.2155	0.0895	324431	keystroke	r	n/a
162.381	0.0895	324762	keystroke	t	n/a
162.561	0.1045	325122	keystroke	s	n/a
162.695	0.091	325390	keystroke	Key.space	n/a
163.1755	0.0445	326351	keystroke	e	n/a
163.3405	0.1345	326681	keystroke	x	n/a
163.505	0.1205	327010	keystroke	c	n/a
163.5955	0.15	327191	keystroke	l	n/a
163.6705	0.09	327341	keystroke	u	n/a
163.731	0.0895	327462	keystroke	s	n/a
163.851	0.0895	327702	keystroke	i	n/a
163.941	0.149	327882	keystroke	v	n/a
164.105	0.1055	328210	keystroke	e	n/a
164.225	0.15	328450	keystroke	l	n/a
164.316	0.074	328632	keystroke	y	n/a
164.5855	0.135	329171	keystroke	Key.space	n/a
164.9005	0.0895	329801	keystroke	a	n/a
165.0355	0.105	330071	keystroke	d	n/a
165.2005	0.0895	330401	keystroke	d	n/a
165.305	0.0905	330610	keystroke	Key.enter	n/a
165.4	8.5165	330800	prompt	n/a	derived processes instructor elevation\n
166.0855	0.0455	332171	keystroke	d	n/a
166.205	0.061	332410	keystroke	e	n/a
166.3555	0.09	332711	keystroke	r	n/a
166.5205	0.075	333041	keystroke	i	n/a
166.6255	0.09	333251	keystroke	v	n/a
166.8055	0.06	333611	keystroke	e	n/a
166.9705	0.075	333941	keystroke	d	n/a
167.09	0.0905	334180	keystroke	Key.space	n/a
167.3605	0.0445	334721	keystroke	p	n/a
167.466	0.045	334932	keystroke	r	n/a
167.5105	0.105	335021	keystroke	o	n/a
167.6455	0.135	335291	keystroke	c	n/a
167.7055	0.105	335411	keystroke	e	n/a
167.901	0.0595	335802	keystroke	s	n/a
168.0655	0.06	336131	keystroke	s	n/a
168.1555	0.09	336311	keystroke	e	n/a
168.321	0.1045	336642	keystroke	s	n/a
168.486	0.119	336972	keystroke	Key.space	n/a
168.861	0.1195	337722	keystroke	i	n/a
168.9505	0.105	337901	keystroke	n	n/a
169.0405	0.075	338081	keystroke	s	n/a
169.1455	0.09	338291	keystroke	t	n/a
169.2805	0.0755	338561	keystroke	u	n/a
169.3555	0.0905	338711	keystroke	r	n/a
169.5505	0.0895	339101	keystroke	c	n/a
169.7005	0.1045	339401	keystroke	t	n/a
170.1205	0.06	340241	keystroke	Key.backspace	n/a
170.2405	0.075	340481	keystroke	Key.backspace	n/a
170.405	0.0305	340810	keystroke	Key.backspace	n/a
170.5105	0.076	341021	keystroke	Key.backspace	n/a
170.571	0.0745	341142	keystroke	r	n/a
170.675	0.0755	341350	keystroke	u	n/a
170.7655	0.09	341531	keystroke	c	n/a
171.0055	0.015	342011	keystroke	t	n/a
171.0355	0.09	342071	keystroke	o	n/a
171.1705	0.075	342341	keystroke	r	n/a
171.6355	0.105	343271	keystroke	Key.space	n/a
172.0405	0.06	344081	keystroke	e	n/a
172.1455	0.1205	344291	keystroke	l	n/a
172.2205	0.075	344441	keystroke	e	n/a
172.4005	0.105	344801	keystroke	v	n/a
172.521	0.0895	345042	keystroke	a	n/a
172.656	0.0745	345312	keystroke	n	n/a
172.8055	0.075	345611	keystroke	t	n/a
173.122	0.0585	346244	keystroke	Key.backspace	n/a
173.2405	0.075	346481	keystroke	Key.backspace	n/a
173.3455	0.09	346691	keystroke	t	n/a
173.451	0.224	346902	keystroke	i	n/a
173.556	0.1345	347112	keystroke	o	n/a
173.6455	0.105	347291	keystroke	n	n/a
173.8255	0.09	347651	keystroke	Key.enter	n/a
173.9205	6.0855	347841	prompt	n/a	celebrate disturbed realm title\n
174.531	0.1645	349062	keystroke	c	n/a
175.0705	0.045	350141	keystroke	e	n/a
175.1455	0.105	350291	keystroke	l	n/a
175.2355	0.06	350471	keystroke	e	n/a
175.461	0.075	350922	keystroke	b	n/a
175.6565	0.1045	351313	keystroke	r	n/a
175.7905	0.18	351581	keystroke	a	n/a
175.896	0.1045	351792	keystroke	t	n/a
175.971	0.1045	351942	keystroke	e	n/a
176.1355	0.135	352271	keystroke	Key.space	n/a
176.4655	0.06	352931	keystroke	d	n/a
176.541	0.0895	353082	keystroke	i	n/a
176.601	0.0895	353202	keystroke	s	n/a
176.7205	0.1055	353441	keystroke	t	n/a
177.1105	0.0905	354221	keystroke	u	n/a
177.216	0.0745	354432	keystroke	r	n/a
177.411	0.09	354822	keystroke	b	n/a
177.5905	0.0605	355181	keystroke	e	n/a
177.771	0.075	355542	keystroke	d	n/a
177.8905	0.1055	355781	keystroke	Key.space	n/a
178.326	0.1195	356652	keystroke	r	n/a
178.416	0.0745	356832	keystroke	e	n/a
178.536	0.0905	357072	keystroke	a	n/a
178.641	0.12	357282	keystroke	l	n/a
178.7755	0.1505	357551	keystroke	m	n/a
178.941	0.1495	357882	keystroke	Key.space	n/a
179.4505	0.0755	358901	keystroke	t	n/a
179.5105	0.09	359021	keystroke	i	n/a
179.6155	0.06	359231	keystroke	t	n/a
179.7205	0.0755	359441	keystroke	l	n/a
179.781	0.0895	359562	keystroke	e	n/a
179.9305	0.075	359861	keystroke	Key.enter	n/a
180.009	5.818	360018	prompt	n/a	lexington occasional compile didn't\n
180.8755	0.1355	361751	keystroke	l	n/a
180.936	0.06	361872	keystroke	e	n/a
181.116	0.0595	362232	keystroke	x	n/a
181.2205	0.1355	362441	keystroke	i	n/a
181.296	0.09	362592	keystroke	n	n/a
181.371	0.0595	362742	keystroke	g	n/a
181.746	0.0745	363492	keystroke	t	n/a
181.8355	0.15	363671	keystroke	o	n/a
181.941	0.105	363882	keystroke	n	n/a
182.0755	0.1205	364151	keystroke	Key.space	n/a
182.4205	0.105	364841	keystroke	o	n/a
182.511	0.075	365022	keystroke	c	n/a
182.647	0.119	365294	keystroke	c	n/a
182.736	0.12	365472	keystroke	a	n/a
182.826	0.12	365652	keystroke	s	n/a
182.9905	0.1955	365981	keystroke	i	n/a
183.0805	0.1505	366161	keystroke	o	n/a
183.171	0.1195	366342	keystroke	n	n/a
183.246	0.12	366492	keystroke	a	n/a
183.381	0.135	366762	keystroke	l	n/a
183.486	0.1195	366972	keystroke	Key.space	n/a
183.7105	0.1505	367421	keystroke	c	n/a
183.816	0.1805	367632	keystroke	o	n/a
183.9055	0.1205	367811	keystroke	m	n/a
183.981	0.1655	367962	keystroke	p	n/a
184.266	0.12	368532	keystroke	i	n/a
184.4905	0.1205	368981	keystroke	l	n/a
184.626	0.045	369252	keystroke	e	n/a
184.731	0.135	369462	keystroke	Key.space	n/a
184.941	0.09	369882	keystroke	d	n/a
185.031	0.105	370062	keystroke	i	n/a
185.1055	0.1055	370211	keystroke	d	n/a
185.226	0.09	370452	keystroke	n	n/a
185.3755	0.0755	370751	keystroke	'	n/a
185.5555	0.09	371111	keystroke	t	n/a
185.721	0.105	371442	keystroke	Key.enter	n/a
185.8295	6.1615	371659	prompt	n/a	competition missile nascar exercise\n
186.426	0.135	372852	keystroke	c	n/a
186.501	0.165	373002	keystroke	o	n/a
186.5905	0.1205	373181	keystroke	m	n/a
186.681	0.135	373362	keystroke	p	n/a
186.786	0.06	373572	keystroke	e	n/a
186.966	0.06	373932	keystroke	t	n/a
186.996	0.0895	373992	keystroke	i	n/a
187.1755	0.0755	374351	keystroke	t	n/a
187.236	0.2545	374472	keystroke	i	n/a
187.341	0.1645	374682	keystroke	o	n/a
187.461	0.1045	374922	keystroke	n	n/a
187.581	0.135	375162	keystroke	Key.space	n/a
188.136	0.12	376272	keystroke	m	n/a
188.331	0.105	376662	keystroke	i	n/a
188.4055	0.0905	376811	keystroke	s	n/a
188.571	0.075	377142	keystroke	s	n/a
188.6905	0.1055	377381	keystroke	i	n/a
188.886	0.1045	377772	keystroke	l	n/a
189.036	0.06	378072	keystroke	e	n/a
189.126	0.12	378252	keystroke	Key.space	n/a
189.456	0.09	378912	keystroke	n	n/a
189.5905	0.1205	379181	keystroke	a	n/a
189.726	0.135	379452	keystroke	s	n/a
189.936	0.135	379872	keystroke	c	n/a
190.1155	0.1655	380231	keystroke	a	n/a
190.236	0.105	380472	keystroke	r	n/a
190.4755	0.1055	380951	keystroke	Key.space	n/a
190.851	0.06	381702	keystroke	e	n/a
191.0755	0.0905	382151	keystroke	x	n/a
191.226	0.12	382452	keystroke	e	n/a
191.316	0.0745	382632	keystroke	r	n/a
191.496	0.105	382992	keystroke	c	n/a
191.616	0.0745	383232	keystroke	i	n/a
191.7055	0.1055	383411	keystroke	s	n/a
191.781	0.105	383562	keystroke	e	n/a
191.916	0.0745	383832	keystroke	Key.enter	n/a
191.994	5.0975	383988	prompt	n/a	sharp wave device mill\n
192.726	0.075	385452	keystroke	s	n/a
192.786	0.0895	385572	keystroke	h	n/a
192.8905	0.1355	385781	keystroke	a	n/a
192.996	0.09	385992	keystroke	r	n/a
193.1905	0.12	386381	keystroke	p	n/a
193.3255	0.1055	386651	keystroke	Key.space	n/a
193.566	0.03	387132	keystroke	w	n/a
193.746	0.135	387492	keystroke	a	n/a
193.851	0.165	387702	keystroke	v	n/a
193.986	0.1045	387972	keystroke	e	n/a
194.1055	0.1205	388211	keystroke	Key.space	n/a
194.256	0.075	388512	keystroke	d	n/a
194.3905	0.0605	388781	keystroke	e	n/a
194.511	0.12	389022	keystroke	i	n/a
194.6005	0.12	389201	keystroke	v	n/a
194.901	0.06	389802	keystroke	Key.backspace	n/a
195.021	0.075	390042	keystroke	Key.backspace	n/a
195.126	0.06	390252	keystroke	v	n/a
195.216	0.0895	390432	keystroke	i	n/a
195.336	0.165	390672	keystroke	c	n/a
195.441	0.105	390882	keystroke	e	n/a
195.5905	0.1355	391181	keystroke	Key.space	n/a
196.326	0.12	392652	keystroke	m	n/a
196.5205	0.0905	393041	keystroke	i	n/a
196.701	0.06	393402	keystroke	l	n/a
196.866	0.03	393732	keystroke	l	n/a
197.016	0.0745	394032	keystroke	Key.enter	n/a
197.0945	10.123	394189	prompt	n/a	pepper authentic competitions concrete\n
200.3755	0.105	400751	keystroke	p	n/a
200.466	0.0755	400932	keystroke	e	n/a
200.6755	0.0605	401351	keystroke	p	n/a
200.811	0.09	401622	keystroke	p	n/a
200.916	0.0895	401832	keystroke	e	n/a
200.9755	0.0905	401951	keystroke	r	n/a
201.096	0.12	402192	keystroke	Key.space	n/a
201.366	0.075	402732	keystroke	a	n/a
201.456	0.075	402912	keystroke	u	n/a
201.516	0.0895	403032	keystroke	t	n/a
201.6205	0.0605	403241	keystroke	h	n/a
201.681	0.09	403362	keystroke	e	n/a
201.786	0.09	403572	keystroke	n	n/a
201.8905	0.0905	403781	keystroke	t	n/a
201.996	0.09	403992	keystroke	i	n/a
202.146	0.1195	404292	keystroke	c	n/a
202.296	0.105	404592	keystroke	Key.space	n/a
203.166	0.105	406332	keystroke	c	n/a
203.256	0.1495	406512	keystroke	o	n/a
203.346	0.15	406692	keystroke	m	n/a
203.421	0.165	406842	keystroke	p	n/a
203.601	0.1045	407202	keystroke	e	n/a
203.781	0.09	407562	keystroke	t	n/a
203.856	0.075	407712	keystroke	i	n/a
204.291	0.075	408582	keystroke	t	n/a
204.381	0.165	408762	keystroke	i	n/a
204.456	0.1195	408912	keystroke	o	n/a
204.501	0.12	409002	keystroke	n	n/a
204.6055	0.106	409211	keystroke	Key.space	n/a
204.741	0.075	409482	keystroke	s	n/a
205.0855	0.0605	410171	keystroke	Key.backspace	n/a
205.2055	0.0755	410411	keystroke	Key.backspace	n/a
205.281	0.075	410562	keystroke	s	n/a
205.371	0.1045	410742	keystroke	Key.space	n/a
206.196	0.105	412392	keystroke	c	n/a
206.286	0.0895	412572	keystroke	o	n/a
206.3465	0.104	412693	keystroke	n	n/a
206.571	0.1195	413142	keystroke	r	n/a
206.6905	0.1355	413381	keystroke	e	n/a
206.901	0.135	413802	keystroke	t	n/a
206.9905	0.0755	413981	keystroke	e	n/a
207.126	0.09	414252	keystroke	Key.enter	n/a
207.2205	9.3415	414441	prompt	n/a	entrance chemical oldest specific\n
207.846	0.075	415692	keystroke	e	n/a
207.936	0.1045	415872	keystroke	n	n/a
208.0115	0.0595	416023	keystroke	t	n/a
208.1315	0.105	416263	keystroke	r	n/a
208.221	0.12	416442	keystroke	a	n/a
208.356	0.165	416712	keystroke	c	n/a
208.461	0.105	416922	keystroke	e	n/a
208.626	0.1055	417252	keystroke	Key.space	n/a
209.646	0.0445	419292	keystroke	Key.backspace	n/a
209.781	0.045	419562	keystroke	Key.backspace	n/a
209.9305	0.06	419861	keystroke	Key.backspace	n/a
210.081	0.06	420162	keystroke	Key.backspace	n/a
210.741	0.105	421482	keystroke	a	n/a
210.8905	0.0905	421781	keystroke	n	n/a
211.026	0.135	422052	keystroke	c	n/a
211.1165	0.074	422233	keystroke	e	n/a
211.251	0.105	422502	keystroke	Key.space	n/a
211.536	0.12	423072	keystroke	c	n/a
211.596	0.09	423192	keystroke	h	n/a
211.731	0.075	423462	keystroke	e	n/a
211.851	0.1505	423702	keystroke	m	n/a
211.973	0.133	423946	keystroke	i	n/a
212.106	0.15	424212	keystroke	c	n/a
212.226	0.12	424452	keystroke	a	n/a
212.646	0.06	425292	keystroke	l	n/a
212.6755	0.0905	425351	keystroke	Key.space	n/a
213.2755	0.0605	426551	keystroke	o	n/a
213.456	0.075	426912	keystroke	l	n/a
213.5015	0.089	427003	keystroke	d	n/a
213.6515	0.0745	427303	keystroke	e	n/a
213.7855	0.105	427571	keystroke	s	n/a
213.8755	0.0905	427751	keystroke	t	n/a
213.981	0.105	427962	keystroke	Key.space	n/a
214.147	0.104	428294	keystroke	s	n/a
214.236	0.12	428472	keystroke	p	n/a
214.341	0.0455	428682	keystroke	e	n/a
214.461	0.105	428922	keystroke	c	n/a
214.536	0.075	429072	keystroke	i	n/a
214.671	0.06	429342	keystroke	f	n/a
214.746	0.06	429492	keystroke	i	n/a
215.0605	0.0755	430121	keystroke	e	n/a
216.051	0.045	432102	keystroke	Key.backspace	n/a
216.171	0.09	432342	keystroke	c	n/a
216.471	0.09	432942	keystroke	Key.enter	n/a
216.565	4.032	433130	prompt	n/a	with mirror formed treaty\n
217.221	0.09	434442	keystroke	w	n/a
217.326	0.075	434652	keystroke	i	n/a
217.4015	0.0895	434803	keystroke	t	n/a
217.4755	0.1055	434951	keystroke	h	n/a
217.596	0.075	435192	keystroke	Key.space	n/a
217.701	0.105	435402	keystroke	m	n/a
217.761	0.12	435522	keystroke	i	n/a
217.851	0.075	435702	keystroke	r	n/a
218.001	0.09	436002	keystroke	r	n/a
218.076	0.09	436152	keystroke	o	n/a
218.1965	0.0745	436393	keystroke	r	n/a
218.301	0.135	436602	keystroke	Key.space	n/a
218.781	0.075	437562	keystroke	f	n/a
218.8715	0.1045	437743	keystroke	o	n/a
218.9615	0.0895	437923	keystroke	r	n/a
219.0665	0.1195	438133	keystroke	m	n/a
219.141	0.09	438282	keystroke	e	n/a
219.321	0.105	438642	keystroke	d	n/a
219.411	0.105	438822	keystroke	Key.space	n/a
219.531	0.0755	439062	keystroke	t	n/a
219.666	0.135	439332	keystroke	r	n/a
219.726	0.225	439452	keystroke	e	n/a
219.981	0.15	439962	keystroke	a	n/a
220.1005	0.105	440201	keystroke	t	n/a
220.311	0.06	440622	keystroke	y	n/a
220.5065	0.0895	441013	keystroke	Key.enter	n/a
220.6	7.7975	441200	prompt	n/a	holly johnson procedure wishlist\n
221.241	0.09	442482	keystroke	h	n/a
221.316	0.0595	442632	keystroke	o	n/a
221.4805	0.0455	442961	keystroke	l	n/a
221.616	0.15	443232	keystroke	l	n/a
221.721	0.075	443442	keystroke	y	n/a
221.811	0.1205	443622	keystroke	Key.space	n/a
221.976	0.105	443952	keystroke	j	n/a
222.0955	0.1205	444191	keystroke	o	n/a
222.186	0.06	444372	keystroke	h	n/a
222.366	0.0755	444732	keystroke	n	n/a
222.711	0.09	445422	keystroke	s	n/a
222.8755	0.1505	445751	keystroke	o	n/a
222.996	0.105	445992	keystroke	n	n/a
223.116	0.105	446232	keystroke	Key.space	n/a
223.4615	0.0895	446923	keystroke	p	n/a
223.566	0.0755	447132	keystroke	r	n/a
223.6565	0.12	447313	keystroke	o	n/a
223.9415	0.1495	447883	keystroke	c	n/a
224.031	0.1205	448062	keystroke	e	n/a
224.3315	0.105	448663	keystroke	d	n/a
224.4665	0.0745	448933	keystroke	u	n/a
224.5715	0.1645	449143	keystroke	r	n/a
224.721	0.12	449442	keystroke	e	n/a
224.946	0.12	449892	keystroke	Key.space	n/a
225.231	0.0745	450462	keystroke	w	n/a
225.336	0.075	450672	keystroke	i	n/a
225.4265	0.1045	450853	keystroke	s	n/a
225.501	0.0895	451002	keystroke	h	n/a
225.666	0.09	451332	keystroke	l	n/a
225.741	0.09	451482	keystroke	e	n/a
226.176	0.075	452352	keystroke	i	n/a
226.4165	0.015	452833	keystroke	Key.backspace	n/a
226.716	0.075	453432	keystroke	i	n/a
226.8215	0.0905	453643	keystroke	s	n/a
226.9265	0.06	453853	keystroke	t	n/a
227.0315	0.0595	454063	keystroke	Key.backspace	n/a
227.181	0.06	454362	keystroke	Key.backspace	n/a
227.316	0.06	454632	keystroke	Key.backspace	n/a
227.4515	0.0605	454903	keystroke	Key.backspace	n/a
227.7065	0.0595	455413	keystroke	i	n/a
227.9315	0.1045	455863	keystroke	s	n/a
228.0215	0.105	456043	keystroke	t	n/a
228.3065	0.09	456613	keystroke	Key.enter	n/a
228.402	6.5195	456804	prompt	n/a	marilyn confidential upgrades against\n
229.0415	0.1045	458083	keystroke	m	n/a
229.491	0.0605	458982	keystroke	r	n/a
229.791	0.06	459582	keystroke	Key.backspace	n/a
229.821	0.0905	459642	keystroke	a	n/a
229.866	0.09	459732	keystroke	r	n/a
230.0015	0.0895	460003	keystroke	i	n/a
230.2115	0.1045	460423	keystroke	l	n/a
230.3615	0.0895	460723	keystroke	y	n/a
230.571	0.105	461142	keystroke	n	n/a
230.676	0.12	461352	keystroke	Key.space	n/a
230.886	0.12	461772	keystroke	c	n/a
230.9615	0.1345	461923	keystroke	o	n/a
231.036	0.09	462072	keystroke	n	n/a
231.1115	0.0745	462223	keystroke	f	n/a
231.2165	0.1045	462433	keystroke	i	n/a
231.3365	0.0445	462673	keystroke	d	n/a
231.4565	0.105	462913	keystroke	e	n/a
231.576	0.1055	463152	keystroke	n	n/a
231.6815	0.0745	463363	keystroke	t	n/a
231.8015	0.1495	463603	keystroke	i	n/a
232.0865	0.1045	464173	keystroke	a	n/a
232.221	0.135	464442	keystroke	l	n/a
232.356	0.12	464712	keystroke	Key.space	n/a
232.7165	0.105	465433	keystroke	u	n/a
232.8815	0.1045	465763	keystroke	p	n/a
233.032	0.0745	466064	keystroke	g	n/a
233.1815	0.12	466363	keystroke	r	n/a
233.286	0.105	466572	keystroke	a	n/a
233.421	0.1055	466842	keystroke	d	n/a
233.6015	0.0745	467203	keystroke	e	n/a
233.7515	0.09	467503	keystroke	s	n/a
233.9015	0.0895	467803	keystroke	Key.space	n/a
233.9465	0.1195	467893	keystroke	a	n/a
234.0815	0.1045	468163	keystroke	g	n/a
234.1715	0.1045	468343	keystroke	a	n/a
234.306	0.1505	468612	keystroke	i	n/a
234.4115	0.15	468823	keystroke	n	n/a
234.5015	0.1495	469003	keystroke	s	n/a
234.6365	0.1195	469273	keystroke	t	n/a
234.8315	0.0895	469663	keystroke	Key.enter	n/a
234.9245	5.067	469849	prompt	n/a	loud iraqi mrna fact\n
235.5665	0.2095	471133	keystroke	o	n/a
236.1365	0.0595	472273	keystroke	Key.backspace	n/a
236.3315	0.0595	472663	keystroke	l	n/a
236.4965	0.1795	472993	keystroke	o	n/a
236.5865	0.1045	473173	keystroke	u	n/a
236.7365	0.075	473473	keystroke	d	n/a
236.841	0.135	473682	keystroke	Key.space	n/a
237.0665	0.0595	474133	keystroke	i	n/a
237.1565	0.105	474313	keystroke	r	n/a
237.291	0.0905	474582	keystroke	a	n/a
237.5165	0.1205	475033	keystroke	q	n/a
237.9215	0.105	475843	keystroke	i	n/a
238.0875	0.149	476175	keystroke	Key.space	n/a
238.5815	0.09	477163	keystroke	m	n/a
238.7015	0.1045	477403	keystroke	r	n/a
238.8365	0.105	477673	keystroke	n	n/a
239.0015	0.06	478003	keystroke	a	n/a
239.1215	0.135	478243	keystroke	Key.space	n/a
239.3615	0.075	478723	keystroke	f	n/a
239.4815	0.15	478963	keystroke	a	n/a
239.5865	0.1045	479173	keystroke	c	n/a
239.7665	0.105	479533	keystroke	t	n/a
239.9015	0.0895	479803	keystroke	Key.enter	n/a
239.9945	6.0575	479989	prompt	n/a	lounge gate troubleshooting catalog\n
240.7415	0.06	481483	keystroke	l	n/a
240.876	0.1205	481752	keystroke	o	n/a
240.9515	0.06	481903	keystroke	u	n/a
241.1165	0.105	482233	keystroke	n	n/a
241.2065	0.12	482413	keystroke	g	n/a
241.296	0.0755	482592	keystroke	e	n/a
241.4315	0.1195	482863	keystroke	Key.space	n/a
241.5365	0.12	483073	keystroke	g	n/a
241.7165	0.135	483433	keystroke	a	n/a
241.8215	0.135	483643	keystroke	t	n/a
241.941	0.0905	483882	keystroke	e	n/a
242.076	0.1055	484152	keystroke	Key.space	n/a
242.1965	0.09	484393	keystroke	t	n/a
242.3615	0.075	484723	keystroke	r	n/a
242.451	0.1205	484902	keystroke	o	n/a
242.5265	0.135	485053	keystroke	u	n/a
242.6165	0.105	485233	keystroke	b	n/a
242.7515	0.135	485503	keystroke	l	n/a
242.8865	0.06	485773	keystroke	e	n/a
243.0515	0.105	486103	keystroke	s	n/a
243.1715	0.1045	486343	keystroke	h	n/a
243.2465	0.075	486493	keystroke	i	n/a
243.6965	0.06	487393	keystroke	Key.backspace	n/a
243.906	0.0605	487812	keystroke	o	n/a
244.0565	0.075	488113	keystroke	o	n/a
244.176	0.0905	488352	keystroke	t	n/a
244.2815	0.15	488563	keystroke	i	n/a
244.3865	0.0895	488773	keystroke	n	n/a
244.4465	0.105	488893	keystroke	g	n/a
244.5815	0.105	489163	keystroke	Key.space	n/a
244.9715	0.1045	489943	keystroke	c	n/a
245.1215	0.15	490243	keystroke	a	n/a
245.2715	0.09	490543	keystroke	t	n/a
245.376	0.1205	490752	keystroke	a	n/a
245.6465	0.06	491293	keystroke	l	n/a
245.781	0.0905	491562	keystroke	o	n/a
245.842	0.1045	491684	keystroke	g	n/a
245.991	0.0605	491982	keystroke	Key.enter	n/a
246.055	5.052	492110	prompt	n/a	thehun entry ought massage\n
246.6815	0.09	493363	keystroke	t	n/a
246.7565	0.0895	493513	keystroke	h	n/a
246.8765	0.075	493753	keystroke	e	n/a
247.2815	0.075	494563	keystroke	h	n/a
247.4465	0.06	494893	keystroke	u	n/a
247.6415	0.105	495283	keystroke	n	n/a
247.776	0.1055	495552	keystroke	Key.space	n/a
248.391	0.0455	496782	keystroke	e	n/a
248.4515	0.075	496903	keystroke	n	n/a
248.5415	0.045	497083	keystroke	t	n/a
248.6615	0.105	497323	keystroke	r	n/a
248.7515	0.09	497503	keystroke	y	n/a
248.8715	0.09	497743	keystroke	Key.space	n/a
249.1115	0.1645	498223	keystroke	o	n/a
249.1865	0.075	498373	keystroke	u	n/a
249.3215	0.075	498643	keystroke	g	n/a
249.4115	0.12	498823	keystroke	h	n/a
249.5315	0.0745	499063	keystroke	t	n/a
249.636	0.0765	499272	keystroke	Key.space	n/a
249.7865	0.1195	499573	keystroke	m	n/a
249.8615	0.12	499723	keystroke	a	n/a
250.0265	0.12	500053	keystroke	s	n/a
250.2065	0.18	500413	keystroke	s	n/a
250.3715	0.1195	500743	keystroke	a	n/a
250.4315	0.15	500863	keystroke	g	n/a
250.5365	0.09	501073	keystroke	e	n/a
251.0165	0.09	502033	keystroke	Key.enter	n/a
251.11	6.162	502220	prompt	n/a	apollo done secrets campaign\n
251.811	0.0755	503622	keystroke	a	n/a
252.1715	0.09	504343	keystroke	p	n/a
252.3365	0.105	504673	keystroke	o	n/a
252.7415	0.045	505483	keystroke	l	n/a
252.876	0.0755	505752	keystroke	l	n/a
253.0265	0.105	506053	keystroke	o	n/a
253.1465	0.105	506293	keystroke	Key.space	n/a
253.3115	0.09	506623	keystroke	d	n/a
253.3865	0.1345	506773	keystroke	o	n/a
253.491	0.1205	506982	keystroke	n	n/a
253.5965	0.09	507193	keystroke	e	n/a
253.7015	0.105	507403	keystroke	Key.space	n/a
253.8665	0.135	507733	keystroke	s	n/a
253.9865	0.0895	507973	keystroke	e	n/a
254.1515	0.09	508303	keystroke	c	n/a
254.3015	0.135	508603	keystroke	r	n/a
254.4065	0.12	508813	keystroke	e	n/a
254.6465	0.1045	509293	keystroke	t	n/a
254.8715	0.09	509743	keystroke	s	n/a
255.1865	0.1045	510373	keystroke	Key.space	n/a
255.6365	0.135	511273	keystroke	c	n/a
255.7115	0.12	511423	keystroke	a	n/a
256.1015	0.12	512203	keystroke	m	n/a
256.2215	0.06	512443	keystroke	p	n/a
256.581	0.09	513162	keystroke	a	n/a
256.7015	0.15	513403	keystroke	i	n/a
256.867	0.1045	513734	keystroke	g	n/a
256.9565	0.1195	513913	keystroke	n	n/a
257.2115	0.06	514423	keystroke	Key.enter	n/a
257.2755	8.112	514551	prompt	n/a	rehabilitation security cached reserved\n
259.2065	0.09	518413	keystroke	r	n/a
259.2665	0.075	518533	keystroke	e	n/a
259.4015	0.0895	518803	keystroke	h	n/a
259.506	0.1055	519012	keystroke	a	n/a
259.6415	0.09	519283	keystroke	v	n/a
260.1065	0.075	520213	keystroke	Key.backspace	n/a
260.1965	0.06	520393	keystroke	b	n/a
260.2865	0.075	520573	keystroke	i	n/a
260.4365	0.135	520873	keystroke	l	n/a
260.5265	0.09	521053	keystroke	i	n/a
260.6465	0.075	521293	keystroke	t	n/a
260.8115	0.09	521623	keystroke	a	n/a
261.0365	0.09	522073	keystroke	t	n/a
261.1265	0.18	522253	keystroke	i	n/a
261.187	0.1345	522374	keystroke	o	n/a
261.2615	0.12	522523	keystroke	n	n/a
261.3665	0.135	522733	keystroke	Key.space	n/a
261.6215	0.105	523243	keystroke	s	n/a
261.7115	0.0895	523423	keystroke	e	n/a
261.876	0.1055	523752	keystroke	c	n/a
262.0115	0.06	524023	keystroke	u	n/a
262.1165	0.105	524233	keystroke	r	n/a
262.2215	0.135	524443	keystroke	i	n/a
262.3415	0.0895	524683	keystroke	t	n/a
262.4465	0.09	524893	keystroke	y	n/a
262.5665	0.12	525133	keystroke	Key.space	n/a
262.8365	0.105	525673	keystroke	c	n/a
263.0165	0.1195	526033	keystroke	a	n/a
263.6165	0.1045	527233	keystroke	c	n/a
263.691	0.105	527382	keystroke	h	n/a
263.8115	0.0605	527623	keystroke	e	n/a
263.976	0.0755	527952	keystroke	d	n/a
264.0665	0.105	528133	keystroke	Key.space	n/a
264.351	0.106	528702	keystroke	r	n/a
264.4265	0.06	528853	keystroke	e	n/a
264.5615	0.105	529123	keystroke	s	n/a
264.651	0.0605	529302	keystroke	e	n/a
264.6815	0.0755	529363	keystroke	r	n/a
264.891	0.105	529782	keystroke	v	n/a
265.0565	0.075	530113	keystroke	e	n/a
265.2215	0.09	530443	keystroke	d	n/a
265.2965	0.09	530593	keystroke	Key.enter	n/a
265.3905	8.337	530781	prompt	n/a	clerk many taylor argument\n
267.7425	0.1335	535485	keystroke	c	n/a
267.9365	0.075	535873	keystroke	l	n/a
267.9965	0.165	535993	keystroke	e	n/a
268.1465	0.12	536293	keystroke	a	n/a
268.2365	0.12	536473	keystroke	r	n/a
268.3415	0.12	536683	keystroke	k	n/a
268.4465	0.105	536893	keystroke	Key.space	n/a
268.6715	0.075	537343	keystroke	m	n/a
268.762	0.1195	537524	keystroke	a	n/a
268.836	0.091	537672	keystroke	n	n/a
269.2265	0.06	538453	keystroke	Key.backspace	n/a
269.527	0.0295	539054	keystroke	Key.backspace	n/a
269.6765	0.06	539353	keystroke	Key.backspace	n/a
269.8415	0.06	539683	keystroke	Key.backspace	n/a
270.0065	0.075	540013	keystroke	Key.backspace	n/a
270.1865	0.06	540373	keystroke	Key.backspace	n/a
270.3515	0.06	540703	keystroke	Key.backspace	n/a
270.5015	0.06	541003	keystroke	r	n/a
270.5765	0.1645	541153	keystroke	k	n/a
270.727	0.1795	541454	keystroke	Key.space	n/a
271.0265	0.09	542053	keystroke	m	n/a
271.1315	0.105	542263	keystroke	a	n/a
271.2215	0.06	542443	keystroke	n	n/a
271.401	0.075	542802	keystroke	y	n/a
271.5215	0.09	543043	keystroke	Key.space	n/a
271.6415	0.09	543283	keystroke	t	n/a
271.8365	0.045	543673	keystroke	a	n/a
272.016	0.06	544032	keystroke	y	n/a
272.2265	0.06	544453	keystroke	l	n/a
272.391	0.0605	544782	keystroke	o	n/a
272.4665	0.09	544933	keystroke	r	n/a
272.5415	0.1345	545083	keystroke	Key.space	n/a
272.7365	0.09	545473	keystroke	a	n/a
272.8115	0.075	545623	keystroke	r	n/a
272.991	0.0905	545982	keystroke	g	n/a
273.0665	0.045	546133	keystroke	u	n/a
273.2315	0.0745	546463	keystroke	m	n/a
273.321	0.1055	546642	keystroke	e	n/a
273.4115	0.075	546823	keystroke	n	n/a
273.5315	0.09	547063	keystroke	t	n/a
273.6665	0.06	547333	keystroke	Key.enter	n/a
273.7305	5.307	547461	prompt	n/a	plains fashion heard example\n
274.4315	0.075	548863	keystroke	p	n/a
274.6115	0.06	549223	keystroke	l	n/a
274.6715	0.1045	549343	keystroke	a	n/a
274.791	0.1505	549582	keystroke	i	n/a
274.8815	0.09	549763	keystroke	n	n/a
274.9865	0.1045	549973	keystroke	s	n/a
275.1065	0.1195	550213	keystroke	Key.space	n/a
275.226	0.121	550452	keystroke	f	n/a
275.3615	0.15	550723	keystroke	a	n/a
275.497	0.1345	550994	keystroke	s	n/a
275.7065	0.105	551413	keystroke	h	n/a
275.8865	0.33	551773	keystroke	i	n/a
276.0065	0.18	552013	keystroke	o	n/a
276.1715	0.18	552343	keystroke	n	n/a
276.3365	0.12	552673	keystroke	Key.space	n/a
276.576	0.0305	553152	keystroke	h	n/a
276.891	0.1505	553782	keystroke	e	n/a
277.057	0.119	554114	keystroke	a	n/a
277.1165	0.12	554233	keystroke	r	n/a
277.3415	0.105	554683	keystroke	d	n/a
277.476	0.1205	554952	keystroke	Key.space	n/a
277.6565	0.06	555313	keystroke	e	n/a
277.821	0.1205	555642	keystroke	x	n/a
277.9565	0.09	555913	keystroke	a	n/a
278.091	0.1505	556182	keystroke	m	n/a
278.1965	0.135	556393	keystroke	p	n/a
278.6175	0.119	557235	keystroke	l	n/a
278.8115	0.1055	557623	keystroke	e	n/a
278.9465	0.09	557893	keystroke	Key.enter	n/a
279.0405	10.0025	558081	prompt	n/a	anything memorial assessment featured\n
279.8465	0.075	559693	keystroke	a	n/a
279.9365	0.06	559873	keystroke	n	n/a
280.0715	0.075	560143	keystroke	y	n/a
280.1615	0.105	560323	keystroke	t	n/a
280.2515	0.0895	560503	keystroke	h	n/a
280.3865	0.15	560773	keystroke	i	n/a
280.462	0.1345	560924	keystroke	n	n/a
280.5515	0.075	561103	keystroke	g	n/a
280.6415	0.105	561283	keystroke	Key.space	n/a
280.7915	0.105	561583	keystroke	m	n/a
280.9115	0.075	561823	keystroke	e	n/a
281.0165	0.15	562033	keystroke	m	n/a
281.152	0.1195	562304	keystroke	o	n/a
281.302	0.089	562604	keystroke	r	n/a
281.4215	0.09	562843	keystroke	i	n/a
281.5415	0.075	563083	keystroke	a	n/a
281.647	0.1495	563294	keystroke	l	n/a
281.752	0.1345	563504	keystroke	Key.space	n/a
281.9015	0.12	563803	keystroke	a	n/a
282.067	0.09	564134	keystroke	s	n/a
282.2615	0.0755	564523	keystroke	s	n/a
282.367	0.0775	564734	keystroke	e	n/a
282.532	0.0595	565064	keystroke	s	n/a
282.682	0.09	565364	keystroke	s	n/a
282.817	0.0895	565634	keystroke	m	n/a
282.937	0.0745	565874	keystroke	e	n/a
283.027	0.09	566054	keystroke	n	n/a
283.162	0.075	566324	keystroke	t	n/a
283.267	0.1195	566534	keystroke	Key.space	n/a
288.157	0.09	576314	keystroke	f	n/a
288.232	0.105	576464	keystroke	e	n/a
288.352	0.105	576704	keystroke	a	n/a
288.457	0.09	576914	keystroke	t	n/a
288.5915	0.09	577183	keystroke	u	n/a
288.6665	0.1205	577333	keystroke	r	n/a
288.742	0.06	577484	keystroke	e	n/a
288.8765	0.1055	577753	keystroke	s	n/a
288.982	0.06	577964	keystroke	Key.enter	n/a
289.047	5.141	578094	prompt	n/a	labeled kids herald special\n
290.1215	0.1055	580243	keystroke	l	n/a
290.332	0.12	580664	keystroke	a	n/a
290.482	0.075	580964	keystroke	b	n/a
290.662	0.075	581324	keystroke	e	n/a
290.782	0.09	581564	keystroke	l	n/a
290.8425	0.0745	581685	keystroke	e	n/a
291.007	0.09	582014	keystroke	d	n/a
291.112	0.1045	582224	keystroke	Key.space	n/a
291.247	0.075	582494	keystroke	k	n/a
291.382	0.075	582764	keystroke	i	n/a
291.427	0.09	582854	keystroke	d	n/a
291.532	0.12	583064	keystroke	s	n/a
291.652	0.105	583304	keystroke	Key.space	n/a
291.787	0.0745	583574	keystroke	h	n/a
291.847	0.27	583694	keystroke	e	n/a
292.132	0.12	584264	keystroke	r	n/a
292.297	0.09	584594	keystroke	a	n/a
292.402	0.1345	584804	keystroke	l	n/a
292.5215	0.106	585043	keystroke	d	n/a
292.672	0.1195	585344	keystroke	Key.space	n/a
292.942	0.075	585884	keystroke	s	n/a
293.1365	0.1205	586273	keystroke	p	n/a
293.242	0.06	586484	keystroke	e	n/a
293.587	0.1045	587174	keystroke	c	n/a
293.707	0.045	587414	keystroke	i	n/a
293.752	0.105	587504	keystroke	a	n/a
293.917	0.0745	587834	keystroke	l	n/a
294.097	0.09	588194	keystroke	Key.enter	n/a
294.192	5.936	588384	prompt	n/a	considerable accepts synthesis variables\n
294.712	0.09	589424	keystroke	a	n/a
295.027	0.06	590054	keystroke	Key.backspace	n/a
295.117	0.12	590234	keystroke	c	n/a
295.222	0.12	590444	keystroke	o	n/a
295.312	0.12	590624	keystroke	n	n/a
295.462	0.12	590924	keystroke	s	n/a
295.672	0.075	591344	keystroke	i	n/a
295.7165	0.0905	591433	keystroke	d	n/a
295.897	0.135	591794	keystroke	e	n/a
295.987	0.1045	591974	keystroke	r	n/a
296.152	0.105	592304	keystroke	a	n/a
296.287	0.0895	592574	keystroke	b	n/a
296.3915	0.1205	592783	keystroke	l	n/a
296.542	0.06	593084	keystroke	e	n/a
296.617	0.135	593234	keystroke	Key.space	n/a
296.722	0.135	593444	keystroke	a	n/a
296.872	0.1195	593744	keystroke	c	n/a
297.052	0.18	594104	keystroke	c	n/a
297.157	0.15	594314	keystroke	e	n/a
297.352	0.09	594704	keystroke	p	n/a
297.487	0.075	594974	keystroke	t	n/a
297.652	0.09	595304	keystroke	s	n/a
297.772	0.1045	595544	keystroke	Key.space	n/a
297.848	0.104	595696	keystroke	s	n/a
297.967	0.06	595934	keystroke	y	n/a
298.132	0.0595	596264	keystroke	n	n/a
298.207	0.0595	596414	keystroke	t	n/a
298.2665	0.0905	596533	keystroke	h	n/a
298.342	0.0905	596684	keystroke	e	n/a
298.5065	0.1055	597013	keystroke	s	n/a
298.627	0.09	597254	keystroke	i	n/a
298.7325	0.0895	597465	keystroke	s	n/a
298.837	0.12	597674	keystroke	Key.space	n/a
299.002	0.12	598004	keystroke	v	n/a
299.152	0.12	598304	keystroke	a	n/a
299.257	0.105	598514	keystroke	r	n/a
299.3765	0.0905	598753	keystroke	i	n/a
299.452	0.1045	598904	keystroke	a	n/a
299.572	0.1195	599144	keystroke	b	n/a
299.707	0.105	599414	keystroke	l	n/a
299.827	0.045	599654	keystroke	e	n/a
299.962	0.09	599924	keystroke	s	n/a
300.037	0.09	600074	keystroke	Key.enter	n/a
300.1305	6.9875	600261	prompt	n/a	decorating back banks republic\n
300.697	0.075	601394	keystroke	d	n/a
300.862	0.045	601724	keystroke	e	n/a
300.967	0.135	601934	keystroke	c	n/a
301.087	0.1045	602174	keystroke	o	n/a
301.147	0.135	602294	keystroke	a	n/a
301.237	0.12	602474	keystroke	r	n/a
301.402	0.1045	602804	keystroke	a	n/a
301.4915	0.09	602983	keystroke	t	n/a
301.597	0.15	603194	keystroke	i	n/a
301.672	0.1195	603344	keystroke	n	n/a
301.7765	0.0755	603553	keystroke	g	n/a
302.287	0.045	604574	keystroke	Key.backspace	n/a
302.422	0.06	604844	keystroke	Key.backspace	n/a
302.587	0.06	605174	keystroke	Key.backspace	n/a
302.7365	0.0605	605473	keystroke	Key.backspace	n/a
302.902	0.06	605804	keystroke	Key.backspace	n/a
303.037	0.06	606074	keystroke	Key.backspace	n/a
303.172	0.09	606344	keystroke	Key.backspace	n/a
303.232	0.09	606464	keystroke	r	n/a
303.354	0.133	606708	keystroke	a	n/a
303.442	0.105	606884	keystroke	t	n/a
303.5765	0.1355	607153	keystroke	i	n/a
303.667	0.105	607334	keystroke	n	n/a
303.742	0.09	607484	keystroke	g	n/a
303.847	0.135	607694	keystroke	Key.space	n/a
304.072	0.075	608144	keystroke	b	n/a
304.2065	0.1055	608413	keystroke	a	n/a
304.4765	0.1355	608953	keystroke	c	n/a
304.597	0.165	609194	keystroke	k	n/a
304.717	0.135	609434	keystroke	Key.space	n/a
304.957	0.09	609914	keystroke	b	n/a
305.0765	0.1055	610153	keystroke	a	n/a
305.212	0.12	610424	keystroke	n	n/a
305.3015	0.1355	610603	keystroke	k	n/a
305.422	0.09	610844	keystroke	s	n/a
305.527	0.135	611054	keystroke	Key.space	n/a
305.6915	0.0905	611383	keystroke	r	n/a
305.752	0.075	611504	keystroke	e	n/a
305.9915	0.196	611983	keystroke	p	n/a
306.112	0.105	612224	keystroke	u	n/a
306.2915	0.0605	612583	keystroke	b	n/a
306.457	0.1495	612914	keystroke	l	n/a
306.562	0.12	613124	keystroke	i	n/a
306.667	0.15	613334	keystroke	c	n/a
307.027	0.09	614054	keystroke	Key.enter	n/a
307.123	5.4845	614246	prompt	n/a	shakira push brothers expanding\n
307.852	0.045	615704	keystroke	s	n/a
307.927	0.12	615854	keystroke	h	n/a
308.032	0.09	616064	keystroke	a	n/a
308.557	0.045	617114	keystroke	k	n/a
308.6915	0.0755	617383	keystroke	i	n/a
308.752	0.105	617504	keystroke	r	n/a
308.887	0.0895	617774	keystroke	a	n/a
309.007	0.1345	618014	keystroke	Key.space	n/a
309.367	0.165	618734	keystroke	p	n/a
309.937	0.06	619874	keystroke	u	n/a
310.042	0.075	620084	keystroke	s	n/a
310.132	0.135	620264	keystroke	h	n/a
310.237	0.12	620474	keystroke	Key.space	n/a
310.402	0.0895	620804	keystroke	b	n/a
310.582	0.09	621164	keystroke	r	n/a
310.6575	0.0895	621315	keystroke	o	n/a
310.762	0.09	621524	keystroke	t	n/a
310.867	0.105	621734	keystroke	h	n/a
310.942	0.1195	621884	keystroke	e	n/a
311.017	0.0895	622034	keystroke	r	n/a
311.182	0.105	622364	keystroke	s	n/a
311.317	0.105	622634	keystroke	Key.space	n/a
311.497	0.0745	622994	keystroke	e	n/a
311.647	0.105	623294	keystroke	x	n/a
311.752	0.12	623504	keystroke	p	n/a
311.872	0.09	623744	keystroke	a	n/a
311.9915	0.1055	623983	keystroke	n	n/a
312.112	0.105	624224	keystroke	d	n/a
312.232	0.135	624464	keystroke	i	n/a
312.307	0.105	624614	keystroke	n	n/a
312.427	0.075	624854	keystroke	g	n/a
312.532	0.0745	625064	keystroke	Key.enter	n/a
312.6105	8.5175	625221	prompt	n/a	hello courts rows quest\n
313.1925	0.0895	626385	keystroke	h	n/a
313.2965	0.046	626593	keystroke	e	n/a
313.372	0.06	626744	keystroke	l	n/a
313.507	0.06	627014	keystroke	l	n/a
313.672	0.15	627344	keystroke	o	n/a
313.7765	0.0905	627553	keystroke	Key.space	n/a
314.197	0.12	628394	keystroke	c	n/a
314.302	0.1195	628604	keystroke	o	n/a
314.362	0.09	628724	keystroke	u	n/a
314.467	0.045	628934	keystroke	r	n/a
314.572	0.105	629144	keystroke	t	n/a
314.737	0.091	629474	keystroke	s	n/a
314.857	0.0445	629714	keystroke	Key.space	n/a
319.732	0.075	639464	keystroke	r	n/a
319.837	0.09	639674	keystroke	o	n/a
319.942	0.06	639884	keystroke	w	n/a
320.1065	0.0905	640213	keystroke	s	n/a
320.212	0.09	640424	keystroke	Key.space	n/a
320.542	0.075	641084	keystroke	q	n/a
320.632	0.0745	641264	keystroke	u	n/a
320.6915	0.0755	641383	keystroke	e	n/a
320.812	0.1355	641624	keystroke	s	n/a
320.932	0.09	641864	keystroke	t	n/a
321.037	0.09	642074	keystroke	Key.enter	n/a
321.131	5.0375	642262	prompt	n/a	summit womens cohen dean\n
321.742	0.06	643484	keystroke	s	n/a
321.817	0.0595	643634	keystroke	u	n/a
321.997	0.045	643994	keystroke	m	n/a
322.117	0.0895	644234	keystroke	m	n/a
322.222	0.075	644444	keystroke	i	n/a
322.312	0.045	644624	keystroke	t	n/a
322.387	0.135	644774	keystroke	Key.space	n/a
322.552	0.09	645104	keystroke	w	n/a
322.627	0.09	645254	keystroke	o	n/a
322.762	0.121	645524	keystroke	m	n/a
322.852	0.105	645704	keystroke	e	n/a
323.0915	0.1055	646183	keystroke	n	n/a
323.212	0.09	646424	keystroke	s	n/a
323.317	0.105	646634	keystroke	Key.space	n/a
323.482	0.12	646964	keystroke	c	n/a
323.572	0.06	647144	keystroke	h	n/a
323.6175	0.105	647235	keystroke	o	n/a
324.2475	0.0445	648495	keystroke	Key.backspace	n/a
324.3825	0.03	648765	keystroke	Key.backspace	n/a
324.5475	0.0595	649095	keystroke	o	n/a
324.6525	0.0895	649305	keystroke	h	n/a
324.8325	0.0595	649665	keystroke	e	n/a
324.9525	0.1045	649905	keystroke	n	n/a
325.177	0.091	650354	keystroke	Key.space	n/a
325.492	0.076	650984	keystroke	d	n/a
325.6275	0.075	651255	keystroke	e	n/a
325.7475	0.1045	651495	keystroke	a	n/a
325.9125	0.09	651825	keystroke	n	n/a
326.0915	0.0755	652183	keystroke	Key.enter	n/a
326.1715	6.837	652343	prompt	n/a	ongoing sleeps medicare integrated\n
326.8725	0.06	653745	keystroke	o	n/a
327.1575	0.0895	654315	keystroke	n	n/a
327.292	0.075	654584	keystroke	g	n/a
327.502	0.075	655004	keystroke	o	n/a
327.5325	0.1645	655065	keystroke	i	n/a
327.6375	0.09	655275	keystroke	n	n/a
327.697	0.0605	655394	keystroke	g	n/a
327.7725	0.1345	655545	keystroke	Key.space	n/a
328.192	0.0455	656384	keystroke	s	n/a
328.2675	0.105	656535	keystroke	l	n/a
328.388	0.0595	656776	keystroke	e	n/a
328.538	0.0595	657076	keystroke	e	n/a
328.6275	0.12	657255	keystroke	p	n/a
328.7325	0.1055	657465	keystroke	s	n/a
328.852	0.1205	657704	keystroke	Key.space	n/a
329.092	0.0905	658184	keystroke	m	n/a
329.182	0.06	658364	keystroke	e	n/a
329.332	0.09	658664	keystroke	d	n/a
329.437	0.075	658874	keystroke	i	n/a
329.527	0.075	659054	keystroke	a	n/a
330.037	0.06	660074	keystroke	Key.backspace	n/a
330.142	0.135	660284	keystroke	c	n/a
330.3675	0.1195	660735	keystroke	a	n/a
330.667	0.09	661334	keystroke	e	n/a
330.847	0.15	661694	keystroke	Key.space	n/a
331.312	0.045	662624	keystroke	Key.backspace	n/a
331.447	0.045	662894	keystroke	Key.backspace	n/a
331.492	0.105	662984	keystroke	r	n/a
331.567	0.075	663134	keystroke	e	n/a
331.6425	0.1045	663285	keystroke	Key.space	n/a
331.7915	0.1205	663583	keystroke	i	n/a
331.8675	0.1045	663735	keystroke	n	n/a
331.897	0.105	663794	keystroke	t	n/a
331.987	0.06	663974	keystroke	e	n/a
332.123	0.089	664246	keystroke	g	n/a
332.3175	0.12	664635	keystroke	r	n/a
332.452	0.165	664904	keystroke	a	n/a
332.5425	0.1045	665085	keystroke	t	n/a
332.6325	0.0745	665265	keystroke	e	n/a
332.8125	0.09	665625	keystroke	d	n/a
332.9025	0.1045	665805	keystroke	Key.enter	n/a
333.0115	7.0165	666023	prompt	n/a	official asus corruption optimum\n
333.817	0.1055	667634	keystroke	o	n/a
333.877	0.09	667754	keystroke	f	n/a
334.042	0.09	668084	keystroke	f	n/a
334.147	0.0755	668294	keystroke	i	n/a
334.2225	0.135	668445	keystroke	c	n/a
334.3425	0.09	668685	keystroke	i	n/a
334.4475	0.09	668895	keystroke	a	n/a
334.5375	0.15	669075	keystroke	l	n/a
334.6275	0.1345	669255	keystroke	Key.space	n/a
334.8225	0.1045	669645	keystroke	a	n/a
334.9425	0.0895	669885	keystroke	s	n/a
335.2725	0.09	670545	keystroke	s	n/a
335.5575	0.0745	671115	keystroke	Key.backspace	n/a
335.7225	0.0745	671445	keystroke	u	n/a
335.812	0.0905	671624	keystroke	s	n/a
335.9175	0.135	671835	keystroke	Key.space	n/a
336.1575	0.105	672315	keystroke	c	n/a
336.277	0.0455	672554	keystroke	o	n/a
336.382	0.0605	672764	keystroke	r	n/a
336.517	0.105	673034	keystroke	r	n/a
336.6075	0.1195	673215	keystroke	u	n/a
336.7125	0.105	673425	keystroke	p	n/a
336.832	0.0905	673664	keystroke	t	n/a
336.937	0.1805	673874	keystroke	i	n/a
337.192	0.1505	674384	keystroke	o	n/a
337.297	0.105	674594	keystroke	n	n/a
337.3875	0.1195	674775	keystroke	Key.space	n/a
338.9325	0.09	677865	keystroke	o	n/a
338.977	0.1655	677954	keystroke	p	n/a
339.1575	0.0745	678315	keystroke	t	n/a
339.247	0.0755	678494	keystroke	i	n/a
339.4875	0.075	678975	keystroke	m	n/a
339.6525	0.06	679305	keystroke	u	n/a
339.8325	0.0445	679665	keystroke	m	n/a
339.9825	0.045	679965	keystroke	Key.enter	n/a
340.031	6.642	680062	prompt	n/a	friendship gordon cartridges last\n
340.6275	0.075	681255	keystroke	f	n/a
341.0175	0.09	682035	keystroke	r	n/a
341.092	0.0905	682184	keystroke	i	n/a
341.1975	0.075	682395	keystroke	e	n/a
341.2875	0.12	682575	keystroke	n	n/a
341.377	0.0755	682754	keystroke	d	n/a
341.6175	0.09	683235	keystroke	s	n/a
341.677	0.0905	683354	keystroke	h	n/a
341.9025	0.12	683805	keystroke	i	n/a
342.2025	0.06	684405	keystroke	p	n/a
342.7125	0.105	685425	keystroke	Key.space	n/a
343.0875	0.075	686175	keystroke	g	n/a
343.177	0.1055	686354	keystroke	o	n/a
343.2525	0.075	686505	keystroke	r	n/a
343.4175	0.09	686835	keystroke	d	n/a
343.748	0.1195	687496	keystroke	o	n/a
343.8375	0.105	687675	keystroke	n	n/a
343.9275	0.12	687855	keystroke	Key.space	n/a
344.377	0.1055	688754	keystroke	c	n/a
344.5125	0.15	689025	keystroke	a	n/a
344.6325	0.0445	689265	keystroke	r	n/a
344.7525	0.09	689505	keystroke	t	n/a
344.933	0.1045	689866	keystroke	i	n/a
345.0375	0.075	690075	keystroke	d	n/a
345.1725	0.1195	690345	keystroke	g	n/a
345.2625	0.09	690525	keystroke	e	n/a
345.4725	0.09	690945	keystroke	s	n/a
345.683	0.1195	691366	keystroke	Key.space	n/a
345.892	0.1055	691784	keystroke	l	n/a
346.0125	0.12	692025	keystroke	a	n/a
346.177	0.1355	692354	keystroke	s	n/a
346.3425	0.105	692685	keystroke	t	n/a
346.567	0.1055	693134	keystroke	Key.enter	n/a
346.676	4.8725	693352	prompt	n/a	arthur arguments forgot haven't\n
347.4375	0.1195	694875	keystroke	a	n/a
347.5875	0.075	695175	keystroke	r	n/a
347.7525	0.09	695505	keystroke	t	n/a
347.8275	0.06	695655	keystroke	h	n/a
347.977	0.0455	695954	keystroke	u	n/a
348.0525	0.075	696105	keystroke	r	n/a
348.187	0.105	696374	keystroke	Key.space	n/a
348.4425	0.105	696885	keystroke	a	n/a
348.5175	0.0595	697035	keystroke	r	n/a
348.6825	0.09	697365	keystroke	g	n/a
348.7425	0.06	697485	keystroke	u	n/a
348.9225	0.06	697845	keystroke	m	n/a
348.9975	0.09	697995	keystroke	e	n/a
349.0725	0.1045	698145	keystroke	n	n/a
349.1625	0.075	698325	keystroke	t	n/a
349.3275	0.105	698655	keystroke	s	n/a
349.4325	0.135	698865	keystroke	Key.space	n/a
349.7325	0.075	699465	keystroke	f	n/a
349.8225	0.06	699645	keystroke	o	n/a
349.8825	0.06	699765	keystroke	r	n/a
350.0325	0.0895	700065	keystroke	g	n/a
350.153	0.0595	700306	keystroke	o	n/a
350.2275	0.0755	700455	keystroke	t	n/a
350.3175	0.12	700635	keystroke	Key.space	n/a
350.5275	0.09	701055	keystroke	h	n/a
350.6025	0.105	701205	keystroke	a	n/a
350.7225	0.105	701445	keystroke	v	n/a
350.8425	0.12	701685	keystroke	e	n/a
350.9475	0.075	701895	keystroke	n	n/a
351.0975	0.075	702195	keystroke	'	n/a
351.2025	0.0745	702405	keystroke	t	n/a
351.4725	0.075	702945	keystroke	Key.enter	n/a
351.551	3.927	703102	prompt	n/a	turning family clock hired\n
352.238	0.0595	704476	keystroke	t	n/a
352.3125	0.045	704625	keystroke	u	n/a
352.5225	0.075	705045	keystroke	r	n/a
352.6425	0.075	705285	keystroke	n	n/a
352.7475	0.135	705495	keystroke	i	n/a
352.8375	0.105	705675	keystroke	n	n/a
352.8825	0.09	705765	keystroke	g	n/a
353.0025	0.12	706005	keystroke	Key.space	n/a
353.1675	0.105	706335	keystroke	f	n/a
353.2575	0.105	706515	keystroke	a	n/a
353.4375	0.195	706875	keystroke	m	n/a
353.5875	0.18	707175	keystroke	i	n/a
353.7825	0.1945	707565	keystroke	l	n/a
353.9025	0.105	707805	keystroke	y	n/a
354.0235	0.104	708047	keystroke	Key.space	n/a
354.1575	0.1195	708315	keystroke	c	n/a
354.2625	0.0605	708525	keystroke	l	n/a
354.3825	0.09	708765	keystroke	o	n/a
354.4425	0.1495	708885	keystroke	c	n/a
354.577	0.1355	709154	keystroke	k	n/a
354.6975	0.12	709395	keystroke	Key.space	n/a
354.877	0.0905	709754	keystroke	h	n/a
354.9975	0.105	709995	keystroke	i	n/a
355.0875	0.1045	710175	keystroke	r	n/a
355.1625	0.0745	710325	keystroke	e	n/a
355.3425	0.075	710685	keystroke	d	n/a
355.4025	0.0745	710805	keystroke	Key.enter	n/a
355.481	8.1725	710962	prompt	n/a	lady appreciated cuisine organisation\n
356.1225	0.105	712245	keystroke	l	n/a
356.1825	0.09	712365	keystroke	a	n/a
356.3325	0.12	712665	keystroke	d	n/a
356.4675	0.075	712935	keystroke	y	n/a
356.558	0.119	713116	keystroke	Key.space	n/a
356.7675	0.075	713535	keystroke	a	n/a
356.8875	0.06	713775	keystroke	p	n/a
357.0225	0.105	714045	keystroke	p	n/a
357.1125	0.15	714225	keystroke	r	n/a
357.2325	0.105	714465	keystroke	e	n/a
357.488	0.104	714976	keystroke	c	n/a
357.6075	0.075	715215	keystroke	i	n/a
357.6675	0.165	715335	keystroke	a	n/a
357.802	0.1355	715604	keystroke	t	n/a
357.9075	0.075	715815	keystroke	e	n/a
358.0875	0.075	716175	keystroke	d	n/a
358.163	0.1045	716326	keystroke	Key.space	n/a
358.3875	0.135	716775	keystroke	c	n/a
358.477	0.1355	716954	keystroke	u	n/a
358.5675	0.105	717135	keystroke	i	n/a
358.6575	0.09	717315	keystroke	s	n/a
358.8075	0.15	717615	keystroke	i	n/a
358.9125	0.135	717825	keystroke	n	n/a
359.1825	0.075	718365	keystroke	e	n/a
359.2725	0.1045	718545	keystroke	Key.space	n/a
359.722	0.1505	719444	keystroke	a	n/a
360.1725	0.06	720345	keystroke	Key.backspace	n/a
360.3975	0.075	720795	keystroke	o	n/a
360.5025	0.0745	721005	keystroke	r	n/a
360.6675	0.09	721335	keystroke	g	n/a
360.8325	0.09	721665	keystroke	a	n/a
360.9375	0.12	721875	keystroke	n	n/a
361.0425	0.075	722085	keystroke	i	n/a
361.1625	0.12	722325	keystroke	z	n/a
361.7175	0.12	723435	keystroke	a	n/a
361.8525	0.075	723705	keystroke	t	n/a
362.4675	0.075	724935	keystroke	Key.backspace	n/a
362.6025	0.0605	725205	keystroke	Key.backspace	n/a
362.7375	0.075	725475	keystroke	Key.backspace	n/a
362.7975	0.045	725595	keystroke	s	n/a
362.9325	0.075	725865	keystroke	a	n/a
363.1575	0.09	726315	keystroke	t	n/a
363.2325	0.195	726465	keystroke	i	n/a
363.3225	0.135	726645	keystroke	o	n/a
363.4125	0.075	726825	keystroke	n	n/a
363.562	0.0905	727124	keystroke	Key.enter	n/a
363.656	6.2075	727312	prompt	n/a	occasional reservoir soviet allowance\n
364.2975	0.09	728595	keystroke	o	n/a
364.4025	0.0745	728805	keystroke	c	n/a
364.5225	0.105	729045	keystroke	c	n/a
364.5975	0.135	729195	keystroke	a	n/a
364.7025	0.1045	729405	keystroke	s	n/a
364.8525	0.21	729705	keystroke	i	n/a
364.9425	0.1345	729885	keystroke	o	n/a
365.0325	0.12	730065	keystroke	n	n/a
365.1225	0.12	730245	keystroke	a	n/a
365.2575	0.1345	730515	keystroke	l	n/a
365.3325	0.1495	730665	keystroke	Key.space	n/a
365.498	0.1195	730996	keystroke	r	n/a
365.6025	0.06	731205	keystroke	e	n/a
366.1275	0.075	732255	keystroke	Key.backspace	n/a
366.2625	0.045	732525	keystroke	Key.backspace	n/a
366.6075	0.12	733215	keystroke	r	n/a
366.7125	0.12	733425	keystroke	e	n/a
366.9825	0.06	733965	keystroke	s	n/a
366.9975	0.105	733995	keystroke	e	n/a
367.0575	0.075	734115	keystroke	r	n/a
367.2375	0.09	734475	keystroke	v	n/a
367.5525	0.09	735105	keystroke	o	n/a
367.6125	0.1205	735225	keystroke	i	n/a
367.6725	0.075	735345	keystroke	r	n/a
367.7625	0.135	735525	keystroke	Key.space	n/a
367.9575	0.0745	735915	keystroke	s	n/a
368.0625	0.105	736125	keystroke	o	n/a
368.1825	0.075	736365	keystroke	v	n/a
368.3475	0.075	736695	keystroke	i	n/a
368.4675	0.105	736935	keystroke	e	n/a
368.5425	0.09	737085	keystroke	t	n/a
368.633	0.1195	737266	keystroke	Key.space	n/a
368.7675	0.09	737535	keystroke	a	n/a
368.8875	0.06	737775	keystroke	l	n/a
369.0375	0.06	738075	keystroke	l	n/a
369.1725	0.09	738345	keystroke	o	n/a
369.2185	0.0735	738437	keystroke	w	n/a
369.368	0.1045	738736	keystroke	a	n/a
369.5025	0.105	739005	keystroke	n	n/a
369.6375	0.12	739275	keystroke	c	n/a
369.7275	0.06	739455	keystroke	e	n/a
369.7875	0.075	739575	keystroke	Key.enter	n/a
369.8665	8.502	739733	prompt	n/a	infections what physically comes\n
374.4075	0.105	748815	keystroke	i	n/a
374.4825	0.075	748965	keystroke	n	n/a
374.5725	0.09	749145	keystroke	f	n/a
374.692	0.0755	749384	keystroke	e	n/a
374.977	0.0755	749954	keystroke	c	n/a
375.1575	0.06	750315	keystroke	t	n/a
375.277	0.1655	750554	keystroke	i	n/a
375.3975	0.15	750795	keystroke	o	n/a
375.4725	0.03	750945	keystroke	i	n/a
375.4875	0.12	750975	keystroke	n	n/a
375.577	0.0905	751154	keystroke	s	n/a
375.697	0.1205	751394	keystroke	Key.space	n/a
375.877	0.0905	751754	keystroke	w	n/a
375.9825	0.075	751965	keystroke	h	n/a
376.0725	0.1045	752145	keystroke	a	n/a
376.1475	0.075	752295	keystroke	t	n/a
376.2375	0.135	752475	keystroke	Key.space	n/a
376.477	0.1055	752954	keystroke	p	n/a
376.5525	0.09	753105	keystroke	h	n/a
376.7175	0.045	753435	keystroke	y	n/a
376.777	0.1355	753554	keystroke	s	n/a
376.8825	0.1045	753765	keystroke	i	n/a
377.002	0.105	754004	keystroke	c	n/a
377.0625	0.12	754125	keystroke	a	n/a
377.1675	0.045	754335	keystroke	l	n/a
377.2875	0.18	754575	keystroke	l	n/a
377.4375	0.06	754875	keystroke	y	n/a
377.5425	0.105	755085	keystroke	Key.space	n/a
377.7975	0.09	755595	keystroke	c	n/a
377.8725	0.09	755745	keystroke	o	n/a
377.977	0.0755	755954	keystroke	m	n/a
378.0375	0.06	756075	keystroke	e	n/a
378.1875	0.1045	756375	keystroke	s	n/a
378.307	0.0605	756614	keystroke	Key.enter	n/a
378.3715	4.9175	756743	prompt	n/a	word mongolia ports hairy\n
378.9525	0.09	757905	keystroke	w	n/a
379.0575	0.105	758115	keystroke	o	n/a
379.1325	0.09	758265	keystroke	r	n/a
379.3125	0.09	758625	keystroke	d	n/a
379.4025	0.0895	758805	keystroke	Key.space	n/a
379.5675	0.105	759135	keystroke	m	n/a
379.6725	0.15	759345	keystroke	o	n/a
379.792	0.1055	759584	keystroke	n	n/a
379.8825	0.06	759765	keystroke	g	n/a
380.1525	0.075	760305	keystroke	o	n/a
380.542	0.1505	761084	keystroke	l	n/a
380.6175	0.12	761235	keystroke	i	n/a
380.6925	0.075	761385	keystroke	a	n/a
380.7825	0.12	761565	keystroke	Key.space	n/a
381.0975	0.09	762195	keystroke	p	n/a
381.2025	0.135	762405	keystroke	o	n/a
381.3075	0.075	762615	keystroke	r	n/a
381.5175	0.0455	763035	keystroke	t	n/a
381.5625	0.12	763125	keystroke	s	n/a
381.7575	0.09	763515	keystroke	Key.space	n/a
382.2375	0.105	764475	keystroke	h	n/a
382.3275	0.075	764655	keystroke	a	n/a
382.4475	0.105	764895	keystroke	i	n/a
382.5675	0.105	765135	keystroke	r	n/a
383.0175	0.06	766035	keystroke	y	n/a
383.2125	0.075	766425	keystroke	Key.enter	n/a
383.2915	5.2475	766583	prompt	n/a	stuart sailing width surface\n
383.9025	0.045	767805	keystroke	s	n/a
384.0075	0.09	768015	keystroke	t	n/a
384.1425	0.105	768285	keystroke	u	n/a
384.2175	0.135	768435	keystroke	a	n/a
384.3375	0.105	768675	keystroke	r	n/a
384.5925	0.0895	769185	keystroke	t	n/a
384.7275	0.1355	769455	keystroke	Key.space	n/a
384.9675	0.0745	769935	keystroke	s	n/a
385.0875	0.045	770175	keystroke	i	n/a
385.192	0.0755	770384	keystroke	a	n/a
385.4475	0.0445	770895	keystroke	Key.backspace	n/a
385.5525	0.075	771105	keystroke	Key.backspace	n/a
385.6425	0.075	771285	keystroke	a	n/a
385.7475	0.12	771495	keystroke	i	n/a
385.928	0.149	771856	keystroke	l	n/a
386.063	0.1505	772126	keystroke	i	n/a
386.153	0.1195	772306	keystroke	n	n/a
386.2575	0.105	772515	keystroke	g	n/a
386.3475	0.105	772695	keystroke	Key.space	n/a
386.513	0.0595	773026	keystroke	w	n/a
386.602	0.0905	773204	keystroke	i	n/a
386.7225	0.091	773445	keystroke	d	n/a
386.903	0.105	773806	keystroke	t	n/a
387.053	0.105	774106	keystroke	h	n/a
387.203	0.1195	774406	keystroke	Key.space	n/a
387.458	0.075	774916	keystroke	s	n/a
387.563	0.045	775126	keystroke	u	n/a
387.638	0.075	775276	keystroke	r	n/a
387.803	0.1195	775606	keystroke	f	n/a
387.9075	0.285	775815	keystroke	a	n/a
388.2075	0.1805	776415	keystroke	c	n/a
388.313	0.1045	776626	keystroke	e	n/a
388.433	0.1045	776866	keystroke	Key.enter	n/a
388.544	6.115	777088	prompt	n/a	chad drive guitar skype\n
389.1675	0.12	778335	keystroke	c	n/a
389.258	0.09	778516	keystroke	h	n/a
389.333	0.1195	778666	keystroke	a	n/a
389.513	0.0445	779026	keystroke	d	n/a
390.173	0.061	780346	keystroke	Key.backspace	n/a
390.218	0.09	780436	keystroke	d	n/a
390.3525	0.105	780705	keystroke	Key.space	n/a
391.238	0.045	782476	keystroke	s	n/a
391.568	0.045	783136	keystroke	Key.backspace	n/a
391.598	0.075	783196	keystroke	d	n/a
391.733	0.075	783466	keystroke	r	n/a
391.823	0.075	783646	keystroke	i	n/a
391.943	0.105	783886	keystroke	v	n/a
392.063	0.09	784126	keystroke	e	n/a
392.258	0.075	784516	keystroke	Key.space	n/a
392.3925	0.0905	784785	keystroke	g	n/a
392.468	0.0895	784936	keystroke	u	n/a
392.528	0.075	785056	keystroke	i	n/a
392.6175	0.09	785235	keystroke	t	n/a
392.783	0.1195	785566	keystroke	a	n/a
392.873	0.1195	785746	keystroke	r	n/a
393.098	0.105	786196	keystroke	Key.space	n/a
393.3535	0.0895	786707	keystroke	s	n/a
393.458	0.09	786916	keystroke	k	n/a
394.103	0.135	788206	keystroke	y	n/a
394.253	0.1505	788506	keystroke	p	n/a
394.4175	0.0905	788835	keystroke	e	n/a
394.554	0.104	789108	keystroke	Key.enter	n/a
394.6635	7.8705	789327	prompt	n/a	newark listprice jungle spank\n
395.513	0.105	791026	keystroke	n	n/a
395.6025	0.1055	791205	keystroke	e	n/a
395.6925	0.09	791385	keystroke	r	n/a
395.798	0.105	791596	keystroke	w	n/a
396.623	0.06	793246	keystroke	Key.backspace	n/a
396.758	0.0745	793516	keystroke	Key.backspace	n/a
396.848	0.105	793696	keystroke	w	n/a
397.088	0.195	794176	keystroke	a	n/a
397.253	0.105	794506	keystroke	r	n/a
397.388	0.1045	794776	keystroke	k	n/a
397.5525	0.1655	795105	keystroke	Key.space	n/a
398.243	0.1345	796486	keystroke	l	n/a
398.318	0.09	796636	keystroke	i	n/a
398.3925	0.06	796785	keystroke	s	n/a
398.468	0.06	796936	keystroke	t	n/a
398.663	0.0745	797326	keystroke	p	n/a
398.723	0.09	797446	keystroke	r	n/a
398.843	0.105	797686	keystroke	i	n/a
398.948	0.165	797896	keystroke	c	n/a
399.053	0.15	798106	keystroke	e	n/a
399.308	0.12	798616	keystroke	Key.space	n/a
399.743	0.075	799486	keystroke	j	n/a
399.8775	0.0755	799755	keystroke	u	n/a
399.998	0.09	799996	keystroke	g	n/a
400.073	0.09	800146	keystroke	n	n/a
400.208	0.0895	800416	keystroke	l	n/a
400.283	0.075	800566	keystroke	e	n/a
400.388	0.15	800776	keystroke	Key.space	n/a
400.508	0.12	801016	keystroke	s	n/a
400.853	0.075	801706	keystroke	a	n/a
401.273	0.0445	802546	keystroke	Key.backspace	n/a
401.798	0.105	803596	keystroke	p	n/a
402.053	0.1055	804106	keystroke	a	n/a
402.143	0.105	804286	keystroke	n	n/a
402.2775	0.0905	804555	keystroke	k	n/a
402.458	0.075	804916	keystroke	Key.enter	n/a
402.537	4.7965	805074	prompt	n/a	techniques crash altered patient\n
403.328	0.075	806656	keystroke	t	n/a
403.493	0.075	806986	keystroke	e	n/a
403.583	0.12	807166	keystroke	c	n/a
403.658	0.075	807316	keystroke	h	n/a
403.838	0.1055	807676	keystroke	n	n/a
403.913	0.09	807826	keystroke	i	n/a
403.988	0.0895	807976	keystroke	q	n/a
404.0925	0.0905	808185	keystroke	u	n/a
404.153	0.09	808306	keystroke	e	n/a
404.36	0.093	808720	keystroke	s	n/a
404.468	0.12	808936	keystroke	Key.space	n/a
404.633	0.075	809266	keystroke	c	n/a
404.813	0.09	809626	keystroke	r	n/a
404.918	0.15	809836	keystroke	a	n/a
405.053	0.0895	810106	keystroke	s	n/a
405.173	0.1045	810346	keystroke	h	n/a
405.263	0.09	810526	keystroke	Key.space	n/a
405.458	0.075	810916	keystroke	a	n/a
405.518	0.09	811036	keystroke	l	n/a
405.623	0.105	811246	keystroke	t	n/a
405.833	0.0595	811666	keystroke	e	n/a
405.878	0.15	811756	keystroke	r	n/a
405.983	0.09	811966	keystroke	e	n/a
406.1775	0.0905	812355	keystroke	d	n/a
406.298	0.09	812596	keystroke	Key.space	n/a
406.448	0.12	812896	keystroke	p	n/a
406.538	0.09	813076	keystroke	a	n/a
406.658	0.105	813316	keystroke	t	n/a
406.7775	0.1055	813555	keystroke	i	n/a
406.913	0.105	813826	keystroke	e	n/a
407.033	0.0895	814066	keystroke	n	n/a
407.138	0.075	814276	keystroke	t	n/a
407.2285	0.1045	814457	keystroke	Key.enter	n/a
407.3365	10.0025	814673	prompt	n/a	slope smart kills decent\n
408.023	0.105	816046	keystroke	s	n/a
408.113	0.0595	816226	keystroke	l	n/a
408.2925	0.1215	816585	keystroke	o	n/a
408.383	0.165	816766	keystroke	p	n/a
408.533	0.0595	817066	keystroke	e	n/a
408.638	0.105	817276	keystroke	Key.space	n/a
408.803	0.105	817606	keystroke	s	n/a
408.923	0.0745	817846	keystroke	m	n/a
409.0135	0.1345	818027	keystroke	a	n/a
409.103	0.105	818206	keystroke	r	n/a
409.298	0.06	818596	keystroke	t	n/a
409.388	0.1045	818776	keystroke	Key.space	n/a
409.6275	0.0305	819255	keystroke	k	n/a
409.748	0.06	819496	keystroke	i	n/a
409.898	0.09	819796	keystroke	s	n/a
410.063	0.06	820126	keystroke	s	n/a
410.348	0.06	820696	keystroke	Key.backspace	n/a
410.498	0.06	820996	keystroke	Key.backspace	n/a
411.728	0.045	823456	keystroke	l	n/a
412.103	0.0745	824206	keystroke	l	n/a
412.163	0.105	824326	keystroke	s	n/a
412.313	0.09	824626	keystroke	Key.space	n/a
415.268	0.06	830536	keystroke	d	n/a
415.4025	0.0605	830805	keystroke	e	n/a
415.538	0.12	831076	keystroke	c	n/a
415.9875	0.0605	831975	keystroke	e	n/a
417.083	0.075	834166	keystroke	n	n/a
417.173	0.06	834346	keystroke	t	n/a
417.263	0.0745	834526	keystroke	Key.enter	n/a
417.3425	30.432	834685	prompt	n/a	fujitsu univ paragraphs duration\n
419.363	0.09	838726	keystroke	f	n/a
419.468	0.06	838936	keystroke	u	n/a
419.603	0.0745	839206	keystroke	j	n/a
420.3535	0.0895	840707	keystroke	i	n/a
420.428	0.0895	840856	keystroke	t	n/a
420.713	0.0755	841426	keystroke	s	n/a
420.8325	0.0755	841665	keystroke	u	n/a
421.2075	0.0905	842415	keystroke	Key.space	n/a
421.3885	0.089	842777	keystroke	u	n/a
421.568	0.105	843136	keystroke	n	n/a
421.628	0.12	843256	keystroke	i	n/a
421.733	0.09	843466	keystroke	v	n/a
444.833	0.12	889666	keystroke	Key.space	n/a
445.178	0.0755	890356	keystroke	p	n/a
445.2385	0.09	890477	keystroke	a	n/a
445.3135	0.06	890627	keystroke	r	n/a
445.4035	0.1045	890807	keystroke	a	n/a
445.5235	0.105	891047	keystroke	g	n/a
445.7185	0.135	891437	keystroke	r	n/a
445.8385	0.09	891677	keystroke	a	n/a
445.9135	0.135	891827	keystroke	p	n/a
445.9885	0.1045	891977	keystroke	h	n/a
446.4835	0.09	892967	keystroke	s	n/a
446.6035	0.12	893207	keystroke	Key.space	n/a
446.9185	0.0595	893837	keystroke	d	n/a
447.0385	0.075	894077	keystroke	u	n/a
447.1285	0.09	894257	keystroke	r	n/a
447.2485	0.12	894497	keystroke	a	n/a
447.3385	0.105	894677	keystroke	t	n/a
447.4285	0.135	894857	keystroke	i	n/a
447.474	0.104	894948	keystroke	o	n/a
447.5485	0.0605	895097	keystroke	n	n/a
447.6685	0.105	895337	keystroke	Key.enter	n/a
447.779	5.5755	895558	prompt	n/a	outlet how's reducing attempt\n
448.4335	0.12	896867	keystroke	o	n/a
448.509	0.1045	897018	keystroke	u	n/a
448.6285	0.0445	897257	keystroke	t	n/a
448.7035	0.09	897407	keystroke	l	n/a
448.8085	0.135	897617	keystroke	e	n/a
448.9285	0.09	897857	keystroke	t	n/a
449.0485	0.105	898097	keystroke	Key.space	n/a
449.1685	0.12	898337	keystroke	h	n/a
449.2585	0.09	898517	keystroke	o	n/a
449.3335	0.075	898667	keystroke	w	n/a
449.4685	0.105	898937	keystroke	'	n/a
449.618	0.06	899236	keystroke	s	n/a
449.7235	0.12	899447	keystroke	Key.space	n/a
450.2185	0.0755	900437	keystroke	r	n/a
450.2635	0.075	900527	keystroke	e	n/a
450.4285	0.105	900857	keystroke	d	n/a
450.5185	0.0595	901037	keystroke	u	n/a
450.6385	0.12	901277	keystroke	c	n/a
450.8485	0.15	901697	keystroke	i	n/a
450.9385	0.12	901877	keystroke	n	n/a
451.0285	0.075	902057	keystroke	g	n/a
451.148	0.1055	902296	keystroke	Key.space	n/a
451.5085	0.09	903017	keystroke	a	n/a
451.6585	0.255	903317	keystroke	t	n/a
451.883	0.1205	903766	keystroke	e	n/a
452.4685	0.0605	904937	keystroke	Key.backspace	n/a
452.5885	0.1045	905177	keystroke	t	n/a
452.663	0.0905	905326	keystroke	e	n/a
452.7835	0.135	905567	keystroke	m	n/a
452.8885	0.135	905777	keystroke	p	n/a
453.0985	0.0905	906197	keystroke	t	n/a
453.2635	0.09	906527	keystroke	Key.enter	n/a
453.357	6.7775	906714	prompt	n/a	operators bucks antonio caribbean\n
454.1185	0.12	908237	keystroke	o	n/a
454.2235	0.06	908447	keystroke	p	n/a
454.8535	0.15	909707	keystroke	e	n/a
454.9735	0.1345	909947	keystroke	r	n/a
455.108	0.1355	910216	keystroke	a	n/a
455.214	0.0895	910428	keystroke	t	n/a
455.3185	0.105	910637	keystroke	o	n/a
455.4085	0.105	910817	keystroke	r	n/a
455.5585	0.105	911117	keystroke	s	n/a
455.678	0.1205	911356	keystroke	Key.space	n/a
455.8585	0.075	911717	keystroke	b	n/a
455.9185	0.0905	911837	keystroke	u	n/a
456.099	0.1195	912198	keystroke	c	n/a
456.2335	0.075	912467	keystroke	k	n/a
456.3085	0.105	912617	keystroke	s	n/a
456.4435	0.12	912887	keystroke	Key.space	n/a
456.7435	0.09	913487	keystroke	a	n/a
456.819	0.0895	913638	keystroke	n	n/a
457.0885	0.0605	914177	keystroke	t	n/a
457.178	0.0605	914356	keystroke	o	n/a
457.6735	0.1045	915347	keystroke	n	n/a
457.7635	0.12	915527	keystroke	i	n/a
458.0185	0.135	916037	keystroke	o	n/a
458.273	0.105	916546	keystroke	Key.space	n/a
458.5735	0.1045	917147	keystroke	c	n/a
458.693	0.1055	917386	keystroke	a	n/a
458.7685	0.075	917537	keystroke	r	n/a
458.903	0.075	917806	keystroke	i	n/a
459.0235	0.06	918047	keystroke	b	n/a
459.459	0.089	918918	keystroke	b	n/a
459.6535	0.075	919307	keystroke	e	n/a
459.7735	0.1045	919547	keystroke	a	n/a
459.893	0.0605	919786	keystroke	n	n/a
460.0285	0.105	920057	keystroke	Key.enter	n/a
460.1375	7.3165	920275	prompt	n/a	allocation training holocaust republican\n
460.809	0.0745	921618	keystroke	a	n/a
460.9285	0.06	921857	keystroke	l	n/a
461.078	0.0455	922156	keystroke	l	n/a
461.1985	0.075	922397	keystroke	o	n/a
461.2435	0.1345	922487	keystroke	c	n/a
461.393	0.1205	922786	keystroke	a	n/a
461.4985	0.075	922997	keystroke	t	n/a
461.6485	0.121	923297	keystroke	i	n/a
461.7835	0.15	923567	keystroke	o	n/a
461.8735	0.1195	923747	keystroke	n	n/a
461.978	0.1505	923956	keystroke	Key.space	n/a
462.2185	0.0745	924437	keystroke	t	n/a
462.3685	0.105	924737	keystroke	r	n/a
462.4435	0.075	924887	keystroke	a	n/a
462.534	0.12	925068	keystroke	i	n/a
462.6235	0.1195	925247	keystroke	n	n/a
462.758	0.1055	925516	keystroke	i	n/a
462.834	0.1195	925668	keystroke	n	n/a
462.9685	0.06	925937	keystroke	g	n/a
463.0435	0.105	926087	keystroke	Key.space	n/a
463.3885	0.0895	926777	keystroke	h	n/a
463.4485	0.09	926897	keystroke	o	n/a
463.6585	0.015	927317	keystroke	l	n/a
463.8085	0.0305	927617	keystroke	o	n/a
464.4835	0.105	928967	keystroke	c	n/a
464.5585	0.105	929117	keystroke	a	n/a
464.708	0.0905	929416	keystroke	u	n/a
464.8135	0.105	929627	keystroke	s	n/a
464.904	0.1045	929808	keystroke	t	n/a
465.609	0.1045	931218	keystroke	Key.space	n/a
466.0885	0.075	932177	keystroke	r	n/a
466.1335	0.106	932267	keystroke	e	n/a
466.3135	0.1505	932627	keystroke	p	n/a
466.478	0.105	932956	keystroke	u	n/a
466.5985	0.075	933197	keystroke	b	n/a
466.7335	0.21	933467	keystroke	l	n/a
466.8535	0.1205	933707	keystroke	i	n/a
466.974	0.1195	933948	keystroke	c	n/a
467.064	0.1195	934128	keystroke	a	n/a
467.199	0.09	934398	keystroke	n	n/a
467.364	0.089	934728	keystroke	Key.enter	n/a
467.457	5.3525	934914	prompt	n/a	harvest dated privileges mere\n
468.084	0.06	936168	keystroke	h	n/a
468.144	0.0895	936288	keystroke	a	n/a
468.219	0.0745	936438	keystroke	r	n/a
468.4135	0.09	936827	keystroke	v	n/a
468.5335	0.12	937067	keystroke	e	n/a
468.699	0.105	937398	keystroke	s	n/a
468.789	0.075	937578	keystroke	t	n/a
468.8785	0.105	937757	keystroke	Key.space	n/a
469.029	0.105	938058	keystroke	d	n/a
469.1785	0.1205	938357	keystroke	a	n/a
469.284	0.1195	938568	keystroke	t	n/a
469.4185	0.075	938837	keystroke	e	n/a
469.584	0.0895	939168	keystroke	d	n/a
469.6885	0.105	939377	keystroke	Key.space	n/a
469.899	0.1195	939798	keystroke	p	n/a
469.989	0.0595	939978	keystroke	r	n/a
470.0935	0.0905	940187	keystroke	i	n/a
470.2435	0.105	940487	keystroke	v	n/a
470.319	0.0905	940638	keystroke	i	n/a
470.5735	0.105	941147	keystroke	l	n/a
470.6935	0.09	941387	keystroke	e	n/a
470.949	0.1195	941898	keystroke	g	n/a
471.0835	0.12	942167	keystroke	e	n/a
471.324	0.075	942648	keystroke	s	n/a
471.564	0.105	943128	keystroke	Key.space	n/a
472.074	0.1045	944148	keystroke	m	n/a
472.389	0.0895	944778	keystroke	e	n/a
472.464	0.135	944928	keystroke	r	n/a
472.569	0.09	945138	keystroke	e	n/a
472.719	0.09	945438	keystroke	Key.enter	n/a
472.8125	8.0525	945625	prompt	n/a	voluntary insects completing threads\n
473.529	0.075	947058	keystroke	v	n/a
473.574	0.075	947148	keystroke	o	n/a
473.739	0.12	947478	keystroke	l	n/a
473.784	0.09	947568	keystroke	u	n/a
473.964	0.075	947928	keystroke	n	n/a
474.024	0.09	948048	keystroke	t	n/a
474.189	0.1045	948378	keystroke	a	n/a
474.2635	0.1205	948527	keystroke	r	n/a
474.414	0.09	948828	keystroke	y	n/a
474.564	0.105	949128	keystroke	Key.space	n/a
475.059	0.03	950118	keystroke	n	n/a
475.164	0.135	950328	keystroke	i	n/a
475.254	0.09	950508	keystroke	n	n/a
475.524	0.06	951048	keystroke	Key.backspace	n/a
475.644	0.075	951288	keystroke	Key.backspace	n/a
476.0935	0.0605	952187	keystroke	Key.backspace	n/a
476.304	0.0895	952608	keystroke	i	n/a
476.439	0.105	952878	keystroke	n	n/a
476.619	0.135	953238	keystroke	s	n/a
476.724	0.075	953448	keystroke	e	n/a
477.069	0.09	954138	keystroke	c	n/a
477.249	0.075	954498	keystroke	t	n/a
477.399	0.09	954798	keystroke	s	n/a
477.534	0.09	955068	keystroke	Key.space	n/a
477.834	0.0595	955668	keystroke	s	n/a
478.329	0.06	956658	keystroke	Key.backspace	n/a
478.404	0.105	956808	keystroke	c	n/a
478.524	0.15	957048	keystroke	o	n/a
478.629	0.1345	957258	keystroke	m	n/a
478.734	0.12	957468	keystroke	p	n/a
478.914	0.12	957828	keystroke	l	n/a
479.004	0.12	958008	keystroke	e	n/a
479.154	0.105	958308	keystroke	t	n/a
479.274	0.1345	958548	keystroke	i	n/a
479.364	0.105	958728	keystroke	n	n/a
479.4235	0.0905	958847	keystroke	g	n/a
479.5435	0.1205	959087	keystroke	Key.space	n/a
479.844	0.06	959688	keystroke	t	n/a
479.919	0.09	959838	keystroke	h	n/a
480.0235	0.1055	960047	keystroke	r	n/a
480.084	0.1045	960168	keystroke	e	n/a
480.219	0.15	960438	keystroke	a	n/a
480.459	0.075	960918	keystroke	d	n/a
480.5935	0.09	961187	keystroke	s	n/a
480.774	0.09	961548	keystroke	Key.enter	n/a
480.868	7.7665	961736	prompt	n/a	seconds sterling postage monsters\n
481.599	0.06	963198	keystroke	e	n/a
481.989	0.06	963978	keystroke	Key.backspace	n/a
482.064	0.075	964128	keystroke	s	n/a
482.109	0.075	964218	keystroke	e	n/a
482.274	0.1045	964548	keystroke	c	n/a
482.3935	0.1055	964787	keystroke	o	n/a
482.469	0.09	964938	keystroke	n	n/a
482.6035	0.1205	965207	keystroke	d	n/a
483.039	0.075	966078	keystroke	s	n/a
483.144	0.0895	966288	keystroke	Key.space	n/a
483.354	0.045	966708	keystroke	s	n/a
483.504	0.12	967008	keystroke	t	n/a
483.819	0.03	967638	keystroke	e	n/a
483.834	0.0745	967668	keystroke	r	n/a
483.999	0.12	967998	keystroke	l	n/a
484.1335	0.1655	968267	keystroke	i	n/a
484.239	0.12	968478	keystroke	n	n/a
484.344	0.0755	968688	keystroke	g	n/a
484.449	0.0595	968898	keystroke	Key.space	n/a
486.519	0.105	973038	keystroke	p	n/a
486.639	0.105	973278	keystroke	o	n/a
486.714	0.075	973428	keystroke	s	n/a
486.8045	0.1045	973609	keystroke	t	n/a
486.9545	0.0895	973909	keystroke	a	n/a
487.149	0.0895	974298	keystroke	g	n/a
487.2535	0.0755	974507	keystroke	e	n/a
487.419	0.105	974838	keystroke	Key.space	n/a
487.614	0.045	975228	keystroke	m	n/a
487.6735	0.1355	975347	keystroke	o	n/a
487.7785	0.1055	975557	keystroke	n	n/a
487.839	0.06	975678	keystroke	s	n/a
487.914	0.06	975828	keystroke	t	n/a
488.199	0.12	976398	keystroke	e	n/a
488.304	0.0745	976608	keystroke	r	n/a
488.439	0.09	976878	keystroke	s	n/a
488.544	0.09	977088	keystroke	Key.enter	n/a
488.639	4.466	977278	prompt	n/a	guard self autos diagram\n
489.309	0.105	978618	keystroke	g	n/a
489.429	0.09	978858	keystroke	u	n/a
489.504	0.12	979008	keystroke	a	n/a
489.5785	0.0755	979157	keystroke	r	n/a
489.759	0.09	979518	keystroke	d	n/a
489.8785	0.1205	979757	keystroke	Key.space	n/a
490.089	0.0895	980178	keystroke	s	n/a
490.149	0.09	980298	keystroke	e	n/a
490.224	0.105	980448	keystroke	l	n/a
490.344	0.105	980688	keystroke	f	n/a
490.4935	0.1055	980987	keystroke	Key.space	n/a
490.734	0.075	981468	keystroke	a	n/a
490.7935	0.0755	981587	keystroke	u	n/a
490.959	0.075	981918	keystroke	t	n/a
491.0935	0.1055	982187	keystroke	o	n/a
491.244	0.105	982488	keystroke	s	n/a
491.409	0.12	982818	keystroke	Key.space	n/a
492.069	0.06	984138	keystroke	d	n/a
492.144	0.105	984288	keystroke	i	n/a
492.234	0.105	984468	keystroke	a	n/a
492.489	0.075	984978	keystroke	g	n/a
492.639	0.12	985278	keystroke	r	n/a
492.729	0.1045	985458	keystroke	a	n/a
492.8185	0.1205	985637	keystroke	m	n/a
493.014	0.09	986028	keystroke	Key.enter	n/a
493.1085	7.0315	986217	prompt	n/a	ranging gross anatomy combination\n
493.824	0.09	987648	keystroke	r	n/a
493.929	0.075	987858	keystroke	a	n/a
494.019	0.1045	988038	keystroke	n	n/a
494.484	0.06	988968	keystroke	g	n/a
494.559	0.105	989118	keystroke	i	n/a
494.634	0.1045	989268	keystroke	n	n/a
494.724	0.06	989448	keystroke	g	n/a
494.844	0.105	989688	keystroke	Key.space	n/a
495.414	0.09	990828	keystroke	g	n/a
495.549	0.06	991098	keystroke	o	n/a
495.654	0.0905	991308	keystroke	r	n/a
495.909	0.105	991818	keystroke	s	n/a
496.269	0.045	992538	keystroke	Key.backspace	n/a
496.404	0.03	992808	keystroke	Key.backspace	n/a
496.5085	0.0305	993017	keystroke	Key.backspace	n/a
496.554	0.045	993108	keystroke	r	n/a
496.7935	0.0605	993587	keystroke	o	n/a
496.869	0.075	993738	keystroke	s	n/a
497.034	0.09	994068	keystroke	s	n/a
497.169	0.12	994338	keystroke	Key.space	n/a
497.439	0.105	994878	keystroke	a	n/a
497.529	0.09	995058	keystroke	n	n/a
497.634	0.075	995268	keystroke	a	n/a
497.9485	0.06	995897	keystroke	t	n/a
498.024	0.105	996048	keystroke	o	n/a
498.144	0.075	996288	keystroke	m	n/a
498.369	0.06	996738	keystroke	y	n/a
498.669	0.09	997338	keystroke	Key.space	n/a
499.014	0.105	998028	keystroke	c	n/a
499.074	0.135	998148	keystroke	o	n/a
499.1785	0.0905	998357	keystroke	m	n/a
499.254	0.105	998508	keystroke	b	n/a
499.419	0.105	998838	keystroke	i	n/a
499.4785	0.1055	998957	keystroke	n	n/a
499.569	0.135	999138	keystroke	a	n/a
499.674	0.075	999348	keystroke	t	n/a
499.809	0.135	999618	keystroke	i	n/a
499.854	0.105	999708	keystroke	o	n/a
499.9145	0.0745	999829	keystroke	n	n/a
500.049	0.09	1000098	keystroke	Key.enter	n/a
500.143	4.4225	1000286	prompt	n/a	adjust as enemies challenging\n
500.829	0.075	1001658	keystroke	a	n/a
500.949	0.12	1001898	keystroke	d	n/a
501.054	0.06	1002108	keystroke	j	n/a
501.189	0.0915	1002378	keystroke	u	n/a
501.249	0.09	1002498	keystroke	s	n/a
501.354	0.06	1002708	keystroke	t	n/a
501.444	0.1345	1002888	keystroke	Key.space	n/a
501.699	0.0895	1003398	keystroke	a	n/a
501.819	0.105	1003638	keystroke	s	n/a
501.969	0.105	1003938	keystroke	Key.space	n/a
502.1045	0.074	1004209	keystroke	e	n/a
502.1935	0.0905	1004387	keystroke	n	n/a
502.269	0.075	1004538	keystroke	e	n/a
502.389	0.0605	1004778	keystroke	m	n/a
502.689	0.1045	1005378	keystroke	i	n/a
502.809	0.0755	1005618	keystroke	e	n/a
502.959	0.1045	1005918	keystroke	s	n/a
503.1085	0.1055	1006217	keystroke	Key.space	n/a
503.3785	0.1205	1006757	keystroke	c	n/a
503.469	0.06	1006938	keystroke	h	n/a
503.544	0.091	1007088	keystroke	a	n/a
503.649	0.06	1007298	keystroke	l	n/a
503.7845	0.0745	1007569	keystroke	l	n/a
503.874	0.061	1007748	keystroke	e	n/a
503.949	0.105	1007898	keystroke	n	n/a
504.069	0.09	1008138	keystroke	g	n/a
504.174	0.15	1008348	keystroke	i	n/a
504.264	0.0895	1008528	keystroke	n	n/a
504.3385	0.061	1008677	keystroke	g	n/a
504.4745	0.0895	1008949	keystroke	Key.enter	n/a
504.569	5.4715	1009138	prompt	n/a	caroline sent owners cosmetics\n
505.149	0.12	1010298	keystroke	c	n/a
505.254	0.12	1010508	keystroke	a	n/a
505.344	0.105	1010688	keystroke	r	n/a
505.554	0.075	1011108	keystroke	o	n/a
505.749	0.15	1011498	keystroke	l	n/a
505.929	0.1495	1011858	keystroke	i	n/a
506.034	0.1045	1012068	keystroke	n	n/a
506.124	0.06	1012248	keystroke	e	n/a
506.229	0.12	1012458	keystroke	Key.space	n/a
506.319	0.1505	1012638	keystroke	s	n/a
506.439	0.09	1012878	keystroke	e	n/a
506.62	0.089	1013240	keystroke	n	n/a
506.724	0.09	1013448	keystroke	t	n/a
506.9935	0.0905	1013987	keystroke	Key.space	n/a
507.339	0.09	1014678	keystroke	o	n/a
507.444	0.06	1014888	keystroke	w	n/a
507.549	0.09	1015098	keystroke	n	n/a
507.6545	0.1345	1015309	keystroke	e	n/a
507.759	0.1345	1015518	keystroke	r	n/a
507.939	0.1055	1015878	keystroke	s	n/a
508.119	0.0895	1016238	keystroke	Key.space	n/a
508.4045	0.1195	1016809	keystroke	c	n/a
508.5095	0.1045	1017019	keystroke	o	n/a
508.599	0.106	1017198	keystroke	s	n/a
508.944	0.105	1017888	keystroke	m	n/a
509.214	0.135	1018428	keystroke	e	n/a
509.334	0.075	1018668	keystroke	t	n/a
509.589	0.1045	1019178	keystroke	i	n/a
509.664	0.12	1019328	keystroke	c	n/a
509.799	0.105	1019598	keystroke	s	n/a
509.919	0.12	1019838	keystroke	Key.enter	n/a
510.0435	5.4565	1020087	prompt	n/a	alfred farmers matters jewish\n
510.789	0.0895	1021578	keystroke	a	n/a
510.8935	0.106	1021787	keystroke	l	n/a
511.044	0.075	1022088	keystroke	f	n/a
511.224	0.12	1022448	keystroke	r	n/a
511.299	0.1045	1022598	keystroke	e	n/a
511.494	0.09	1022988	keystroke	d	n/a
511.734	0.0595	1023468	keystroke	f	n/a
512.1395	0.0745	1024279	keystroke	Key.backspace	n/a
512.244	0.1055	1024488	keystroke	Key.space	n/a
512.334	0.0755	1024668	keystroke	f	n/a
512.439	0.135	1024878	keystroke	a	n/a
512.5445	0.1195	1025089	keystroke	r	n/a
512.679	0.12	1025358	keystroke	m	n/a
513.069	0.075	1026138	keystroke	e	n/a
513.099	0.09	1026198	keystroke	r	n/a
513.2785	0.121	1026557	keystroke	s	n/a
513.429	0.1055	1026858	keystroke	Key.space	n/a
513.625	0.1045	1027250	keystroke	m	n/a
513.6995	0.06	1027399	keystroke	a	n/a
513.8045	0.0745	1027609	keystroke	t	n/a
513.954	0.0755	1027908	keystroke	t	n/a
514.0895	0.0895	1028179	keystroke	e	n/a
514.1495	0.075	1028299	keystroke	r	n/a
514.2845	0.075	1028569	keystroke	s	n/a
514.374	0.0905	1028748	keystroke	Key.space	n/a
514.6595	0.0745	1029319	keystroke	j	n/a
514.749	0.105	1029498	keystroke	e	n/a
514.809	0.105	1029618	keystroke	w	n/a
515.004	0.12	1030008	keystroke	i	n/a
515.139	0.1045	1030278	keystroke	s	n/a
515.229	0.075	1030458	keystroke	h	n/a
515.4095	0.0895	1030819	keystroke	Key.enter	n/a
515.5025	4.4525	1031005	prompt	n/a	mobility remainder irish doubt\n
516.0845	0.1045	1032169	keystroke	m	n/a
516.1595	0.1195	1032319	keystroke	o	n/a
516.324	0.105	1032648	keystroke	b	n/a
516.414	0.075	1032828	keystroke	i	n/a
516.534	0.12	1033068	keystroke	l	n/a
516.6245	0.0895	1033249	keystroke	i	n/a
516.759	0.075	1033518	keystroke	t	n/a
516.8345	0.0895	1033669	keystroke	y	n/a
516.969	0.12	1033938	keystroke	Key.space	n/a
517.1945	0.1045	1034389	keystroke	r	n/a
517.2695	0.075	1034539	keystroke	e	n/a
517.374	0.105	1034748	keystroke	m	n/a
517.4945	0.105	1034989	keystroke	a	n/a
517.6145	0.15	1035229	keystroke	i	n/a
517.689	0.12	1035378	keystroke	n	n/a
517.869	0.0905	1035738	keystroke	d	n/a
518.049	0.105	1036098	keystroke	e	n/a
518.1245	0.135	1036249	keystroke	r	n/a
518.274	0.0905	1036548	keystroke	Key.space	n/a
518.469	0.0755	1036938	keystroke	i	n/a
518.5895	0.075	1037179	keystroke	r	n/a
518.679	0.12	1037358	keystroke	i	n/a
518.8145	0.1045	1037629	keystroke	s	n/a
518.934	0.1205	1037868	keystroke	h	n/a
519.069	0.1205	1038138	keystroke	Key.space	n/a
519.279	0.0755	1038558	keystroke	d	n/a
519.369	0.1655	1038738	keystroke	o	n/a
519.459	0.09	1038918	keystroke	u	n/a
519.5645	0.0745	1039129	keystroke	b	n/a
