onset	duration	sample	value	key	prompt_text
1.3525	8.0915	2705	prompt	n/a	the quick brown fox jumps over a lazy dog\n
2.911	0.013	5822	keystroke_t	t	n/a
2.924	0.075	5848	keystroke_h	h	n/a
3.074	0.09	6148	keystroke_e	e	n/a
4.154	0.06	8308	keystroke_Key.space	Key.space	n/a
4.7165	0.1045	9433	keystroke_q	q	n/a
4.806	0.105	9612	keystroke_u	u	n/a
4.941	0.09	9882	keystroke_i	i	n/a
5.046	0.1055	10092	keystroke_c	c	n/a
5.1815	0.105	10363	keystroke_k	k	n/a
5.2565	0.12	10513	keystroke_Key.space	Key.space	n/a
5.4065	0.075	10813	keystroke_b	b	n/a
5.4665	0.105	10933	keystroke_r	r	n/a
5.6015	0.09	11203	keystroke_o	o	n/a
5.7365	0.075	11473	keystroke_w	w	n/a
5.8415	0.12	11683	keystroke_n	n	n/a
5.9475	0.089	11895	keystroke_Key.space	Key.space	n/a
6.0665	0.09	12133	keystroke_f	f	n/a
6.1715	0.09	12343	keystroke_o	o	n/a
6.2915	0.12	12583	keystroke_x	x	n/a
6.3665	0.135	12733	keystroke_Key.space	Key.space	n/a
6.5165	0.09	13033	keystroke_j	j	n/a
6.6815	0.06	13363	keystroke_u	u	n/a
6.8765	0.06	13753	keystroke_m	m	n/a
7.0565	0.075	14113	keystroke_p	p	n/a
7.1915	0.135	14383	keystroke_s	s	n/a
7.3275	0.089	14655	keystroke_Key.space	Key.space	n/a
7.4015	0.106	14803	keystroke_o	o	n/a
7.522	0.09	15044	keystroke_v	v	n/a
7.657	0.1355	15314	keystroke_e	e	n/a
7.7475	0.105	15495	keystroke_r	r	n/a
7.8375	0.0745	15675	keystroke_Key.space	Key.space	n/a
7.957	0.0895	15914	keystroke_a	a	n/a
8.077	0.1345	16154	keystroke_Key.space	Key.space	n/a
8.1825	0.104	16365	keystroke_l	l	n/a
8.2575	0.09	16515	keystroke_a	a	n/a
8.4815	0.09	16963	keystroke_z	z	n/a
8.5865	0.061	17173	keystroke_y	y	n/a
8.6915	0.075	17383	keystroke_Key.space	Key.space	n/a
8.8565	0.09	17713	keystroke_d	d	n/a
9.0215	0.0755	18043	keystroke_o	o	n/a
9.142	0.075	18284	keystroke_g	g	n/a
9.367	0.075	18734	keystroke_Key.enter	Key.enter	n/a
9.448	7.9305	18896	prompt	n/a	expectations determining society workforce\n
10.0565	0.1055	20113	keystroke_e	e	n/a
10.4165	0.045	20833	keystroke_p	p	n/a
10.702	0.045	21404	keystroke_Key.backspace	Key.backspace	n/a
10.777	0.105	21554	keystroke_x	x	n/a
10.942	0.09	21884	keystroke_p	p	n/a
11.077	0.075	22154	keystroke_e	e	n/a
11.272	0.06	22544	keystroke_c	c	n/a
11.452	0.06	22904	keystroke_t	t	n/a
11.6315	0.105	23263	keystroke_a	a	n/a
11.8415	0.075	23683	keystroke_t	t	n/a
11.9315	0.135	23863	keystroke_i	i	n/a
12.0215	0.105	24043	keystroke_o	o	n/a
12.0515	0.135	24103	keystroke_n	n	n/a
12.2015	0.105	24403	keystroke_s	s	n/a
12.3215	0.09	24643	keystroke_Key.space	Key.space	n/a
12.4265	0.075	24853	keystroke_d	d	n/a
12.5765	0.09	25153	keystroke_e	e	n/a
13.1765	0.06	26353	keystroke_t	t	n/a
13.3265	0.06	26653	keystroke_e	e	n/a
13.3715	0.075	26743	keystroke_r	r	n/a
13.4615	0.075	26923	keystroke_m	m	n/a
13.6865	0.09	27373	keystroke_i	i	n/a
13.7615	0.105	27523	keystroke_n	n	n/a
13.9265	0.0905	27853	keystroke_i	i	n/a
13.987	0.09	27974	keystroke_n	n	n/a
14.092	0.075	28184	keystroke_g	g	n/a
14.182	0.09	28364	keystroke_Key.space	Key.space	n/a
14.647	0.0905	29294	keystroke_s	s	n/a
14.7525	0.075	29505	keystroke_o	o	n/a
14.8425	0.09	29685	keystroke_c	c	n/a
14.9925	0.075	29985	keystroke_i	i	n/a
15.2925	0.06	30585	keystroke_e	e	n/a
15.4875	0.075	30975	keystroke_t	t	n/a
15.6225	0.119	31245	keystroke_y	y	n/a
15.7575	0.104	31515	keystroke_Key.space	Key.space	n/a
15.9215	0.105	31843	keystroke_w	w	n/a
16.0115	0.0755	32023	keystroke_o	o	n/a
16.102	0.09	32204	keystroke_r	r	n/a
16.222	0.105	32444	keystroke_k	k	n/a
16.492	0.075	32984	keystroke_f	f	n/a
16.582	0.075	33164	keystroke_o	o	n/a
16.672	0.075	33344	keystroke_r	r	n/a
16.927	0.09	33854	keystroke_c	c	n/a
17.077	0.1205	34154	keystroke_e	e	n/a
17.332	0.045	34664	keystroke_Key.enter	Key.enter	n/a
17.3845	6.759	34769	prompt	n/a	earning bishop moldova speeches\n
18.0075	0.089	36015	keystroke_e	e	n/a
18.172	0.1045	36344	keystroke_a	a	n/a
18.3515	0.0755	36703	keystroke_r	r	n/a
18.6665	0.0755	37333	keystroke_n	n	n/a
18.8025	0.0895	37605	keystroke_i	i	n/a
18.877	0.105	37754	keystroke_n	n	n/a
18.967	0.09	37934	keystroke_g	g	n/a
19.042	0.135	38084	keystroke_Key.space	Key.space	n/a
19.312	0.075	38624	keystroke_b	b	n/a
19.477	0.09	38954	keystroke_i	i	n/a
19.612	0.12	39224	keystroke_s	s	n/a
19.717	0.075	39434	keystroke_h	h	n/a
19.957	0.09	39914	keystroke_o	o	n/a
20.107	0.09	40214	keystroke_p	p	n/a
20.212	0.105	40424	keystroke_Key.space	Key.space	n/a
20.8875	0.074	41775	keystroke_m	m	n/a
21.0965	0.06	42193	keystroke_o	o	n/a
21.2765	0.0755	42553	keystroke_l	l	n/a
21.322	0.1045	42644	keystroke_d	d	n/a
21.5475	0.045	43095	keystroke_o	o	n/a
21.6375	0.12	43275	keystroke_v	v	n/a
21.8775	0.09	43755	keystroke_a	a	n/a
22.0425	0.09	44085	keystroke_Key.space	Key.space	n/a
22.1775	0.105	44355	keystroke_s	s	n/a
22.2675	0.09	44535	keystroke_p	p	n/a
22.4925	0.06	44985	keystroke_e	e	n/a
22.6275	0.075	45255	keystroke_e	e	n/a
22.852	0.09	45704	keystroke_c	c	n/a
22.972	0.075	45944	keystroke_h	h	n/a
23.092	0.075	46184	keystroke_e	e	n/a
23.587	0.03	47174	keystroke_s	s	n/a
24.0815	0.06	48163	keystroke_Key.enter	Key.enter	n/a
24.1465	7.002	48293	prompt	n/a	walnut samoa replaced yields\n
25.252	0.075	50504	keystroke_w	w	n/a
25.402	0.12	50804	keystroke_a	a	n/a
25.507	0.075	51014	keystroke_l	l	n/a
25.777	0.075	51554	keystroke_n	n	n/a
26.062	0.06	52124	keystroke_u	u	n/a
26.137	0.105	52274	keystroke_t	t	n/a
26.272	0.1205	52544	keystroke_Key.space	Key.space	n/a
26.4075	0.06	52815	keystroke_s	s	n/a
26.5725	0.06	53145	keystroke_a	a	n/a
26.6015	0.075	53203	keystroke_m	m	n/a
26.7515	0.076	53503	keystroke_o	o	n/a
26.8575	0.09	53715	keystroke_a	a	n/a
26.9775	0.09	53955	keystroke_Key.space	Key.space	n/a
27.1725	0.06	54345	keystroke_r	r	n/a
27.3215	0.06	54643	keystroke_e	e	n/a
27.4875	0.12	54975	keystroke_p	p	n/a
27.5775	0.09	55155	keystroke_l	l	n/a
27.6825	0.075	55365	keystroke_a	a	n/a
27.8775	0.074	55755	keystroke_c	c	n/a
28.0275	0.075	56055	keystroke_e	e	n/a
28.1915	0.076	56383	keystroke_d	d	n/a
28.297	0.105	56594	keystroke_Key.space	Key.space	n/a
28.597	0.105	57194	keystroke_y	y	n/a
28.762	0.0755	57524	keystroke_u	u	n/a
28.8815	0.12	57763	keystroke_e	e	n/a
29.0915	0.045	58183	keystroke_l	l	n/a
29.4215	0.06	58843	keystroke_Key.backspace	Key.backspace	n/a
29.5415	0.045	59083	keystroke_Key.backspace	Key.backspace	n/a
29.6765	0.03	59353	keystroke_Key.backspace	Key.backspace	n/a
29.9025	0.0595	59805	keystroke_i	i	n/a
30.442	0.09	60884	keystroke_e	e	n/a
30.547	0.075	61094	keystroke_l	l	n/a
30.667	0.09	61334	keystroke_d	d	n/a
30.877	0.045	61754	keystroke_s	s	n/a
31.0575	0.09	62115	keystroke_Key.enter	Key.enter	n/a
31.153	8.681	62306	prompt	n/a	contacts cambridge expand acquisitions\n
31.8525	0.105	63705	keystroke_c	c	n/a
32.002	0.135	64004	keystroke_o	o	n/a
32.107	0.105	64214	keystroke_n	n	n/a
32.3775	0.105	64755	keystroke_t	t	n/a
32.632	0.12	65264	keystroke_a	a	n/a
32.887	0.12	65774	keystroke_c	c	n/a
33.142	0.09	66284	keystroke_t	t	n/a
33.367	0.09	66734	keystroke_s	s	n/a
33.532	0.09	67064	keystroke_Key.space	Key.space	n/a
33.787	0.075	67574	keystroke_c	c	n/a
33.937	0.09	67874	keystroke_a	a	n/a
34.042	0.0755	68084	keystroke_m	m	n/a
34.2825	0.06	68565	keystroke_b	b	n/a
34.3575	0.12	68715	keystroke_r	r	n/a
34.4925	0.105	68985	keystroke_i	i	n/a
34.6575	0.06	69315	keystroke_f	f	n/a
35.167	0.09	70334	keystroke_Key.backspace	Key.backspace	n/a
35.212	0.12	70424	keystroke_d	d	n/a
35.4515	0.121	70903	keystroke_g	g	n/a
35.6925	0.104	71385	keystroke_e	e	n/a
35.8715	0.09	71743	keystroke_Key.space	Key.space	n/a
36.4865	0.045	72973	keystroke_e	e	n/a
36.652	0.09	73304	keystroke_x	x	n/a
36.757	0.0745	73514	keystroke_p	p	n/a
36.8465	0.09	73693	keystroke_a	a	n/a
36.9815	0.076	73963	keystroke_n	n	n/a
37.1465	0.121	74293	keystroke_d	d	n/a
37.2525	0.104	74505	keystroke_Key.space	Key.space	n/a
37.5215	0.105	75043	keystroke_a	a	n/a
37.837	0.075	75674	keystroke_c	c	n/a
38.107	0.105	76214	keystroke_q	q	n/a
38.257	0.135	76514	keystroke_u	u	n/a
38.377	0.105	76754	keystroke_i	i	n/a
38.632	0.09	77264	keystroke_s	s	n/a
38.737	0.09	77474	keystroke_i	i	n/a
38.842	0.12	77684	keystroke_t	t	n/a
38.947	0.075	77894	keystroke_i	i	n/a
39.172	0.18	78344	keystroke_o	o	n/a
39.337	0.1045	78674	keystroke_n	n	n/a
39.457	0.0745	78914	keystroke_s	s	n/a
39.757	0.075	79514	keystroke_Key.enter	Key.enter	n/a
39.8375	6.4165	79675	prompt	n/a	heritage safari taxes conclusion\n
40.5225	0.09	81045	keystroke_h	h	n/a
40.6125	0.09	81225	keystroke_e	e	n/a
40.7775	0.105	81555	keystroke_r	r	n/a
40.8975	0.06	81795	keystroke_i	i	n/a
40.9875	0.075	81975	keystroke_t	t	n/a
41.1825	0.105	82365	keystroke_a	a	n/a
41.4075	0.09	82815	keystroke_g	g	n/a
41.5125	0.09	83025	keystroke_e	e	n/a
41.6315	0.12	83263	keystroke_Key.space	Key.space	n/a
41.7975	0.09	83595	keystroke_s	s	n/a
41.977	0.06	83954	keystroke_a	a	n/a
42.097	0.075	84194	keystroke_f	f	n/a
42.262	0.12	84524	keystroke_a	a	n/a
42.532	0.075	85064	keystroke_r	r	n/a
42.712	0.105	85424	keystroke_i	i	n/a
42.967	0.105	85934	keystroke_Key.space	Key.space	n/a
43.3125	0.075	86625	keystroke_t	t	n/a
43.5215	0.03	87043	keystroke_a	a	n/a
43.7465	0.1205	87493	keystroke_x	x	n/a
44.062	0.06	88124	keystroke_e	e	n/a
44.227	0.09	88454	keystroke_s	s	n/a
44.3475	0.1045	88695	keystroke_Key.space	Key.space	n/a
44.632	0.075	89264	keystroke_c	c	n/a
44.767	0.135	89534	keystroke_o	o	n/a
44.872	0.105	89744	keystroke_n	n	n/a
44.992	0.075	89984	keystroke_c	c	n/a
45.127	0.075	90254	keystroke_l	l	n/a
45.352	0.015	90704	keystroke_u	u	n/a
45.562	0.09	91124	keystroke_s	s	n/a
45.682	0.15	91364	keystroke_i	i	n/a
45.772	0.135	91544	keystroke_o	o	n/a
45.847	0.09	91694	keystroke_n	n	n/a
46.1915	0.06	92383	keystroke_Key.enter	Key.enter	n/a
46.257	5.8315	92514	prompt	n/a	huntington jump advised into\n
47.017	0.06	94034	keystroke_h	h	n/a
47.167	0.06	94334	keystroke_u	u	n/a
47.3775	0.075	94755	keystroke_n	n	n/a
47.4975	0.09	94995	keystroke_t	t	n/a
47.6325	0.135	95265	keystroke_i	i	n/a
47.7375	0.09	95475	keystroke_n	n	n/a
47.9925	0.135	95985	keystroke_g	g	n/a
48.3225	0.105	96645	keystroke_t	t	n/a
48.4425	0.045	96885	keystroke_o	o	n/a
48.6225	0.09	97245	keystroke_n	n	n/a
48.7875	0.105	97575	keystroke_Key.space	Key.space	n/a
48.9825	0.075	97965	keystroke_j	j	n/a
49.1925	0.045	98385	keystroke_u	u	n/a
49.4175	0.06	98835	keystroke_m	m	n/a
49.5825	0.06	99165	keystroke_p	p	n/a
49.7025	0.075	99405	keystroke_Key.space	Key.space	n/a
50.0025	0.09	100005	keystroke_a	a	n/a
50.167	0.075	100334	keystroke_d	d	n/a
50.377	0.105	100754	keystroke_v	v	n/a
50.497	0.075	100994	keystroke_i	i	n/a
50.632	0.135	101264	keystroke_s	s	n/a
50.737	0.0895	101474	keystroke_e	e	n/a
50.902	0.1195	101804	keystroke_d	d	n/a
51.0065	0.06	102013	keystroke_Key.space	Key.space	n/a
51.2165	0.135	102433	keystroke_i	i	n/a
51.3065	0.1055	102613	keystroke_n	n	n/a
51.4565	0.091	102913	keystroke_t	t	n/a
51.5315	0.06	103063	keystroke_o	o	n/a
51.9965	0.0905	103993	keystroke_Key.enter	Key.enter	n/a
52.093	6.506	104186	prompt	n/a	martial myspace harry addition\n
52.762	0.045	105524	keystroke_m	m	n/a
52.808	0.104	105616	keystroke_a	a	n/a
53.122	0.105	106244	keystroke_r	r	n/a
53.362	0.09	106724	keystroke_t	t	n/a
53.512	0.075	107024	keystroke_i	i	n/a
53.677	0.09	107354	keystroke_a	a	n/a
53.827	0.12	107654	keystroke_l	l	n/a
53.932	0.075	107864	keystroke_Key.space	Key.space	n/a
54.187	0.075	108374	keystroke_m	m	n/a
54.442	0.06	108884	keystroke_y	y	n/a
54.517	0.09	109034	keystroke_s	s	n/a
54.712	0.09	109424	keystroke_t	t	n/a
54.922	0.075	109844	keystroke_a	a	n/a
55.147	0.06	110294	keystroke_c	c	n/a
55.447	0.0595	110894	keystroke_Key.backspace	Key.backspace	n/a
55.5825	0.045	111165	keystroke_Key.backspace	Key.backspace	n/a
55.6875	0.075	111375	keystroke_Key.backspace	Key.backspace	n/a
55.8375	0.075	111675	keystroke_p	p	n/a
55.9275	0.045	111855	keystroke_a	a	n/a
56.0925	0.075	112185	keystroke_c	c	n/a
56.2425	0.105	112485	keystroke_e	e	n/a
56.3775	0.075	112755	keystroke_Key.space	Key.space	n/a
56.6025	0.12	113205	keystroke_h	h	n/a
56.6925	0.075	113385	keystroke_a	a	n/a
56.872	0.0605	113744	keystroke_r	r	n/a
57.0075	0.105	114015	keystroke_r	r	n/a
57.1275	0.075	114255	keystroke_y	y	n/a
57.1875	0.105	114375	keystroke_Key.space	Key.space	n/a
57.2775	0.09	114555	keystroke_a	a	n/a
57.4575	0.045	114915	keystroke_d	d	n/a
57.5775	0.075	115155	keystroke_d	d	n/a
57.6675	0.09	115335	keystroke_i	i	n/a
57.8175	0.09	115635	keystroke_t	t	n/a
57.8925	0.165	115785	keystroke_i	i	n/a
57.9825	0.1495	115965	keystroke_o	o	n/a
58.0425	0.1195	116085	keystroke_n	n	n/a
58.5675	0.03	117135	keystroke_Key.enter	Key.enter	n/a
58.604	8.9795	117208	prompt	n/a	academic structured connecticut periodic\n
59.2125	0.074	118425	keystroke_a	a	n/a
59.4375	0.0895	118875	keystroke_c	c	n/a
59.827	0.09	119654	keystroke_a	a	n/a
60.022	0.046	120044	keystroke_d	d	n/a
60.2025	0.075	120405	keystroke_e	e	n/a
60.3075	0.09	120615	keystroke_m	m	n/a
60.5025	0.06	121005	keystroke_i	i	n/a
60.6525	0.06	121305	keystroke_c	c	n/a
60.877	0.09	121754	keystroke_Key.space	Key.space	n/a
61.012	0.105	122024	keystroke_s	s	n/a
61.462	0.075	122924	keystroke_t	t	n/a
61.642	0.075	123284	keystroke_r	r	n/a
61.792	0.075	123584	keystroke_u	u	n/a
62.047	0.09	124094	keystroke_c	c	n/a
62.287	0.06	124574	keystroke_t	t	n/a
62.437	0.09	124874	keystroke_u	u	n/a
62.557	0.09	125114	keystroke_r	r	n/a
62.917	0.09	125834	keystroke_e	e	n/a
63.142	0.075	126284	keystroke_d	d	n/a
63.427	0.105	126854	keystroke_Key.space	Key.space	n/a
63.712	0.105	127424	keystroke_c	c	n/a
63.772	0.09	127544	keystroke_o	o	n/a
63.922	0.06	127844	keystroke_n	n	n/a
64.057	0.1055	128114	keystroke_n	n	n/a
64.132	0.075	128264	keystroke_e	e	n/a
64.3275	0.075	128655	keystroke_c	c	n/a
64.5375	0.075	129075	keystroke_t	t	n/a
64.6725	0.09	129345	keystroke_i	i	n/a
64.8975	0.06	129795	keystroke_c	c	n/a
65.1825	0.075	130365	keystroke_u	u	n/a
65.3175	0.09	130635	keystroke_t	t	n/a
65.4825	0.09	130965	keystroke_Key.space	Key.space	n/a
65.7225	0.09	131445	keystroke_p	p	n/a
65.8425	0.075	131685	keystroke_e	e	n/a
66.0225	0.075	132045	keystroke_r	r	n/a
66.0825	0.09	132165	keystroke_i	i	n/a
66.2625	0.09	132525	keystroke_o	o	n/a
66.3675	0.075	132735	keystroke_d	d	n/a
66.4875	0.075	132975	keystroke_o	o	n/a
66.8775	0.06	133755	keystroke_Key.backspace	Key.backspace	n/a
67.0875	0.09	134175	keystroke_i	i	n/a
67.1625	0.105	134325	keystroke_c	c	n/a
67.492	0.09	134984	keystroke_Key.enter	Key.enter	n/a
67.5875	5.5615	135175	prompt	n/a	article bind wallpapers smaller\n
68.182	0.135	136364	keystroke_a	a	n/a
68.407	0.045	136814	keystroke_r	r	n/a
68.662	0.075	137324	keystroke_t	t	n/a
68.752	0.06	137504	keystroke_i	i	n/a
68.947	0.075	137894	keystroke_c	c	n/a
69.067	0.075	138134	keystroke_l	l	n/a
69.157	0.06	138314	keystroke_e	e	n/a
69.262	0.105	138524	keystroke_Key.space	Key.space	n/a
69.907	0.06	139814	keystroke_b	b	n/a
70.042	0.1205	140084	keystroke_i	i	n/a
70.2075	0.09	140415	keystroke_n	n	n/a
70.3275	0.12	140655	keystroke_d	d	n/a
70.4325	0.075	140865	keystroke_Key.space	Key.space	n/a
70.7175	0.06	141435	keystroke_w	w	n/a
70.8675	0.09	141735	keystroke_a	a	n/a
70.9125	0.06	141825	keystroke_l	l	n/a
71.0625	0.06	142125	keystroke_l	l	n/a
71.2725	0.09	142545	keystroke_p	p	n/a
71.3475	0.105	142695	keystroke_a	a	n/a
71.5575	0.105	143115	keystroke_p	p	n/a
71.6925	0.12	143385	keystroke_e	e	n/a
71.7675	0.09	143535	keystroke_r	r	n/a
71.977	0.09	143954	keystroke_s	s	n/a
72.0975	0.075	144195	keystroke_Key.space	Key.space	n/a
72.2175	0.09	144435	keystroke_s	s	n/a
72.3675	0.105	144735	keystroke_m	m	n/a
72.4575	0.09	144915	keystroke_a	a	n/a
72.5625	0.06	145125	keystroke_l	l	n/a
72.6975	0.09	145395	keystroke_l	l	n/a
72.8175	0.09	145635	keystroke_e	e	n/a
72.8775	0.09	145755	keystroke_r	r	n/a
73.0725	0.075	146145	keystroke_Key.enter	Key.enter	n/a
73.1535	6.775	146307	prompt	n/a	brilliant serves links pound\n
73.822	0.03	147644	keystroke_b	b	n/a
73.837	0.09	147674	keystroke_r	r	n/a
73.942	0.0745	147884	keystroke_i	i	n/a
74.2125	0.03	148425	keystroke_l	l	n/a
74.3475	0.06	148695	keystroke_l	l	n/a
74.4825	0.09	148965	keystroke_i	i	n/a
74.7075	0.105	149415	keystroke_a	a	n/a
74.8125	0.045	149625	keystroke_n	n	n/a
74.9475	0.06	149895	keystroke_t	t	n/a
75.0225	0.09	150045	keystroke_Key.space	Key.space	n/a
75.1575	0.12	150315	keystroke_s	s	n/a
75.3225	0.075	150645	keystroke_e	e	n/a
75.4725	0.075	150945	keystroke_r	r	n/a
75.6675	0.075	151335	keystroke_v	v	n/a
75.8325	0.075	151665	keystroke_e	e	n/a
76.0725	0.105	152145	keystroke_s	s	n/a
76.2525	0.105	152505	keystroke_Key.space	Key.space	n/a
76.4325	0.12	152865	keystroke_l	l	n/a
76.5225	0.06	153045	keystroke_i	i	n/a
76.7025	0.12	153405	keystroke_n	n	n/a
76.7775	0.105	153555	keystroke_k	k	n/a
76.8825	0.105	153765	keystroke_s	s	n/a
77.5875	0.09	155175	keystroke_Key.space	Key.space	n/a
78.1125	0.12	156225	keystroke_p	p	n/a
78.3075	0.09	156615	keystroke_o	o	n/a
78.5325	0.06	157065	keystroke_i	i	n/a
79.0115	0.075	158023	keystroke_Key.backspace	Key.backspace	n/a
79.282	0.045	158564	keystroke_u	u	n/a
79.462	0.06	158924	keystroke_n	n	n/a
79.567	0.076	159134	keystroke_d	d	n/a
79.8525	0.075	159705	keystroke_Key.enter	Key.enter	n/a
79.931	7.1825	159862	prompt	n/a	regulation zimbabwe throws marcus\n
80.6475	0.06	161295	keystroke_r	r	n/a
80.8425	0.06	161685	keystroke_e	e	n/a
81.0525	0.135	162105	keystroke_g	g	n/a
81.1425	0.06	162285	keystroke_u	u	n/a
81.3365	0.09	162673	keystroke_l	l	n/a
81.4115	0.075	162823	keystroke_a	a	n/a
81.6215	0.076	163243	keystroke_t	t	n/a
81.7115	0.12	163423	keystroke_i	i	n/a
81.7865	0.18	163573	keystroke_o	o	n/a
81.9065	0.136	163813	keystroke_n	n	n/a
82.0265	0.0905	164053	keystroke_Key.space	Key.space	n/a
82.327	0.15	164654	keystroke_z	z	n/a
82.627	0.0745	165254	keystroke_i	i	n/a
82.9265	0.046	165853	keystroke_m	m	n/a
83.1365	0.06	166273	keystroke_b	b	n/a
83.2425	0.089	166485	keystroke_a	a	n/a
83.4665	0.09	166933	keystroke_b	b	n/a
83.8715	0.091	167743	keystroke_w	w	n/a
84.1425	0.075	168285	keystroke_e	e	n/a
84.487	0.105	168974	keystroke_Key.space	Key.space	n/a
84.787	0.075	169574	keystroke_t	t	n/a
84.877	0.06	169754	keystroke_h	h	n/a
84.967	0.09	169934	keystroke_r	r	n/a
85.147	0.075	170294	keystroke_o	o	n/a
85.327	0.12	170654	keystroke_w	w	n/a
85.5965	0.091	171193	keystroke_s	s	n/a
85.7465	0.106	171493	keystroke_Key.space	Key.space	n/a
86.1515	0.075	172303	keystroke_m	m	n/a
86.1815	0.09	172363	keystroke_a	a	n/a
86.3465	0.06	172693	keystroke_r	r	n/a
86.6025	0.089	173205	keystroke_c	c	n/a
86.7215	0.06	173443	keystroke_u	u	n/a
86.7975	0.089	173595	keystroke_s	s	n/a
87.0365	0.0755	174073	keystroke_Key.enter	Key.enter	n/a
87.1175	6.011	174235	prompt	n/a	earning polls seminars posing\n
87.952	0.015	175904	keystroke_a	a	n/a
88.3425	0.06	176685	keystroke_Key.backspace	Key.backspace	n/a
88.3875	0.075	176775	keystroke_e	e	n/a
88.5225	0.105	177045	keystroke_a	a	n/a
88.7025	0.105	177405	keystroke_r	r	n/a
88.8675	0.074	177735	keystroke_n	n	n/a
89.0465	0.135	178093	keystroke_i	i	n/a
89.1515	0.12	178303	keystroke_n	n	n/a
89.2265	0.106	178453	keystroke_g	g	n/a
89.3165	0.105	178633	keystroke_Key.space	Key.space	n/a
89.4665	0.151	178933	keystroke_p	p	n/a
89.6025	0.09	179205	keystroke_o	o	n/a
89.8125	0.06	179625	keystroke_l	l	n/a
89.9325	0.105	179865	keystroke_l	l	n/a
90.0075	0.1195	180015	keystroke_s	s	n/a
90.247	0.09	180494	keystroke_Key.space	Key.space	n/a
90.607	0.135	181214	keystroke_s	s	n/a
90.757	0.09	181514	keystroke_e	e	n/a
90.877	0.09	181754	keystroke_m	m	n/a
91.087	0.075	182174	keystroke_i	i	n/a
91.177	0.105	182354	keystroke_n	n	n/a
91.312	0.075	182624	keystroke_a	a	n/a
91.702	0.075	183404	keystroke_r	r	n/a
91.897	0.09	183794	keystroke_s	s	n/a
92.047	0.105	184094	keystroke_Key.space	Key.space	n/a
92.1975	0.12	184395	keystroke_p	p	n/a
92.3325	0.09	184665	keystroke_o	o	n/a
92.4375	0.105	184875	keystroke_s	s	n/a
92.5875	0.135	185175	keystroke_i	i	n/a
92.7075	0.09	185415	keystroke_n	n	n/a
92.7985	0.089	185597	keystroke_g	g	n/a
93.0675	0.06	186135	keystroke_Key.enter	Key.enter	n/a
93.1365	7.057	186273	prompt	n/a	town necessarily visibility tuner\n
93.772	0.075	187544	keystroke_t	t	n/a
93.907	0.105	187814	keystroke_o	o	n/a
93.982	0.045	187964	keystroke_w	w	n/a
94.087	0.03	188174	keystroke_w	w	n/a
94.897	0.06	189794	keystroke_Key.backspace	Key.backspace	n/a
95.137	0.105	190274	keystroke_n	n	n/a
95.257	0.06	190514	keystroke_Key.space	Key.space	n/a
95.452	0.075	190904	keystroke_n	n	n/a
95.572	0.06	191144	keystroke_e	e	n/a
95.782	0.09	191564	keystroke_c	c	n/a
95.932	0.105	191864	keystroke_e	e	n/a
96.157	0.045	192314	keystroke_s	s	n/a
96.262	0.0745	192524	keystroke_s	s	n/a
96.5015	0.015	193003	keystroke_a	a	n/a
96.5915	0.09	193183	keystroke_r	r	n/a
96.7115	0.105	193423	keystroke_i	i	n/a
97.0565	0.075	194113	keystroke_l	l	n/a
97.2815	0.12	194563	keystroke_y	y	n/a
97.4165	0.075	194833	keystroke_Key.space	Key.space	n/a
97.6865	0.105	195373	keystroke_v	v	n/a
97.822	0.06	195644	keystroke_i	i	n/a
97.942	0.09	195884	keystroke_s	s	n/a
98.017	0.0745	196034	keystroke_i	i	n/a
98.2125	0.059	196425	keystroke_b	b	n/a
98.3465	0.076	196693	keystroke_i	i	n/a
98.5125	0.059	197025	keystroke_l	l	n/a
98.6625	0.089	197325	keystroke_i	i	n/a
98.7675	0.09	197535	keystroke_t	t	n/a
98.9165	0.076	197833	keystroke_y	y	n/a
99.0665	0.09	198133	keystroke_Key.space	Key.space	n/a
99.322	0.09	198644	keystroke_t	t	n/a
99.397	0.06	198794	keystroke_u	u	n/a
99.562	0.075	199124	keystroke_n	n	n/a
99.622	0.135	199244	keystroke_e	e	n/a
99.742	0.075	199484	keystroke_r	r	n/a
100.102	0.09	200204	keystroke_Key.enter	Key.enter	n/a
100.2045	5.854	200409	prompt	n/a	pathology guests sweet accused\n
100.9725	0.06	201945	keystroke_p	p	n/a
101.0475	0.12	202095	keystroke_a	a	n/a
101.3025	0.075	202605	keystroke_t	t	n/a
101.3475	0.09	202695	keystroke_h	h	n/a
101.4525	0.105	202905	keystroke_o	o	n/a
101.6775	0.06	203355	keystroke_l	l	n/a
101.8275	0.06	203655	keystroke_o	o	n/a
101.947	0.105	203894	keystroke_g	g	n/a
102.202	0.09	204404	keystroke_y	y	n/a
102.352	0.105	204704	keystroke_Key.space	Key.space	n/a
102.7125	0.105	205425	keystroke_g	g	n/a
102.8325	0.075	205665	keystroke_u	u	n/a
102.9375	0.09	205875	keystroke_e	e	n/a
103.1325	0.09	206265	keystroke_s	s	n/a
103.4165	0.06	206833	keystroke_t	t	n/a
103.6115	0.09	207223	keystroke_s	s	n/a
103.7175	0.074	207435	keystroke_Key.space	Key.space	n/a
103.9725	0.12	207945	keystroke_s	s	n/a
104.1975	0.074	208395	keystroke_w	w	n/a
104.3775	0.03	208755	keystroke_e	e	n/a
104.4815	0.061	208963	keystroke_e	e	n/a
104.677	0.075	209354	keystroke_t	t	n/a
104.782	0.105	209564	keystroke_Key.space	Key.space	n/a
104.902	0.06	209804	keystroke_a	a	n/a
105.052	0.06	210104	keystroke_c	c	n/a
105.187	0.075	210374	keystroke_c	c	n/a
105.307	0.075	210614	keystroke_u	u	n/a
105.397	0.105	210794	keystroke_s	s	n/a
105.547	0.06	211094	keystroke_e	e	n/a
105.712	0.105	211424	keystroke_d	d	n/a
105.9825	0.074	211965	keystroke_Key.enter	Key.enter	n/a
106.0615	5.172	212123	prompt	n/a	shops hotels nickname matrix\n
106.5815	0.136	213163	keystroke_s	s	n/a
106.7475	0.074	213495	keystroke_h	h	n/a
106.9115	0.075	213823	keystroke_o	o	n/a
107.1075	0.059	214215	keystroke_p	p	n/a
107.1675	0.119	214335	keystroke_s	s	n/a
107.3015	0.075	214603	keystroke_Key.space	Key.space	n/a
107.4965	0.091	214993	keystroke_h	h	n/a
107.6165	0.121	215233	keystroke_o	o	n/a
107.7965	0.06	215593	keystroke_t	t	n/a
108.0225	0.014	216045	keystroke_e	e	n/a
108.0515	0.075	216103	keystroke_l	l	n/a
108.1715	0.105	216343	keystroke_s	s	n/a
108.3215	0.075	216643	keystroke_Key.space	Key.space	n/a
108.8915	0.0605	217783	keystroke_n	n	n/a
109.012	0.09	218024	keystroke_i	i	n/a
109.1175	0.1195	218235	keystroke_c	c	n/a
109.222	0.0605	218444	keystroke_k	k	n/a
109.4015	0.075	218803	keystroke_n	n	n/a
109.5065	0.09	219013	keystroke_a	a	n/a
109.7025	0.089	219405	keystroke_m	m	n/a
109.8075	0.074	219615	keystroke_e	e	n/a
109.9565	0.075	219913	keystroke_Key.space	Key.space	n/a
110.2115	0.105	220423	keystroke_m	m	n/a
110.302	0.0745	220604	keystroke_a	a	n/a
110.527	0.06	221054	keystroke_t	t	n/a
110.692	0.075	221384	keystroke_r	r	n/a
110.7515	0.09	221503	keystroke_i	i	n/a
110.947	0.1045	221894	keystroke_x	x	n/a
111.1715	0.06	222343	keystroke_Key.enter	Key.enter	n/a
111.236	5.6375	222472	prompt	n/a	lucas replace suggestion tiles\n
111.832	0.06	223664	keystroke_l	l	n/a
112.072	0.0745	224144	keystroke_u	u	n/a
112.1915	0.105	224383	keystroke_c	c	n/a
112.327	0.09	224654	keystroke_a	a	n/a
112.5215	0.075	225043	keystroke_s	s	n/a
112.6115	0.075	225223	keystroke_Key.space	Key.space	n/a
112.8075	0.06	225615	keystroke_r	r	n/a
113.0325	0.075	226065	keystroke_p	p	n/a
113.3325	0.03	226665	keystroke_Key.backspace	Key.backspace	n/a
113.3925	0.09	226785	keystroke_e	e	n/a
113.5425	0.105	227085	keystroke_p	p	n/a
113.6175	0.105	227235	keystroke_l	l	n/a
113.6925	0.09	227385	keystroke_a	a	n/a
113.9025	0.0895	227805	keystroke_c	c	n/a
114.082	0.075	228164	keystroke_e	e	n/a
114.1875	0.089	228375	keystroke_Key.space	Key.space	n/a
114.2915	0.105	228583	keystroke_s	s	n/a
114.4115	0.091	228823	keystroke_u	u	n/a
114.7265	0.045	229453	keystroke_g	g	n/a
114.8475	0.075	229695	keystroke_g	g	n/a
115.0875	0.059	230175	keystroke_e	e	n/a
115.2515	0.075	230503	keystroke_s	s	n/a
115.4315	0.091	230863	keystroke_t	t	n/a
115.5075	0.1795	231015	keystroke_i	i	n/a
115.627	0.135	231254	keystroke_o	o	n/a
115.702	0.105	231404	keystroke_n	n	n/a
115.882	0.105	231764	keystroke_Key.space	Key.space	n/a
116.092	0.06	232184	keystroke_t	t	n/a
116.167	0.045	232334	keystroke_i	i	n/a
116.302	0.12	232604	keystroke_l	l	n/a
116.347	0.09	232694	keystroke_e	e	n/a
116.5115	0.135	233023	keystroke_s	s	n/a
116.7815	0.09	233563	keystroke_Key.enter	Key.enter	n/a
116.877	7.3915	233754	prompt	n/a	delaware parties investigator wrist\n
117.997	0.0905	235994	keystroke_d	d	n/a
118.1775	0.089	236355	keystroke_e	e	n/a
118.3115	0.06	236623	keystroke_l	l	n/a
118.4025	0.089	236805	keystroke_a	a	n/a
118.5215	0.106	237043	keystroke_w	w	n/a
118.6565	0.105	237313	keystroke_a	a	n/a
118.8675	0.059	237735	keystroke_r	r	n/a
119.032	0.12	238064	keystroke_e	e	n/a
119.272	0.09	238544	keystroke_Key.space	Key.space	n/a
119.557	0.075	239114	keystroke_p	p	n/a
119.587	0.075	239174	keystroke_a	a	n/a
119.767	0.06	239534	keystroke_r	r	n/a
119.932	0.06	239864	keystroke_t	t	n/a
120.007	0.06	240014	keystroke_i	i	n/a
120.097	0.06	240194	keystroke_e	e	n/a
120.247	0.105	240494	keystroke_s	s	n/a
120.337	0.09	240674	keystroke_Key.space	Key.space	n/a
120.532	0.12	241064	keystroke_i	i	n/a
120.607	0.105	241214	keystroke_n	n	n/a
120.802	0.09	241604	keystroke_v	v	n/a
120.982	0.09	241964	keystroke_e	e	n/a
121.177	0.09	242354	keystroke_s	s	n/a
121.342	0.09	242684	keystroke_t	t	n/a
121.462	0.09	242924	keystroke_i	i	n/a
122.017	0.06	244034	keystroke_g	g	n/a
122.182	0.075	244364	keystroke_a	a	n/a
122.6165	0.106	245233	keystroke_t	t	n/a
122.7665	0.09	245533	keystroke_o	o	n/a
122.8725	0.105	245745	keystroke_r	r	n/a
123.0215	0.105	246043	keystroke_Key.space	Key.space	n/a
123.3075	0.045	246615	keystroke_w	w	n/a
123.4725	0.105	246945	keystroke_r	r	n/a
123.5925	0.089	247185	keystroke_i	i	n/a
123.757	0.06	247514	keystroke_s	s	n/a
123.892	0.0905	247784	keystroke_t	t	n/a
124.207	0.06	248414	keystroke_Key.enter	Key.enter	n/a
124.273	6.461	248546	prompt	n/a	norway electro australian suggests\n
124.972	0.075	249944	keystroke_n	n	n/a
125.1065	0.09	250213	keystroke_o	o	n/a
125.1665	0.09	250333	keystroke_r	r	n/a
125.3615	0.06	250723	keystroke_w	w	n/a
125.5115	0.12	251023	keystroke_a	a	n/a
125.6615	0.105	251323	keystroke_y	y	n/a
125.7815	0.09	251563	keystroke_Key.space	Key.space	n/a
125.9015	0.075	251803	keystroke_e	e	n/a
126.0065	0.1055	252013	keystroke_l	l	n/a
126.0675	0.0745	252135	keystroke_e	e	n/a
126.277	0.075	252554	keystroke_c	c	n/a
126.5025	0.045	253005	keystroke_t	t	n/a
126.6525	0.105	253305	keystroke_r	r	n/a
126.7425	0.09	253485	keystroke_o	o	n/a
126.8025	0.09	253605	keystroke_Key.space	Key.space	n/a
127.2675	0.105	254535	keystroke_a	a	n/a
127.4325	0.09	254865	keystroke_u	u	n/a
127.6575	0.105	255315	keystroke_s	s	n/a
127.852	0.06	255704	keystroke_t	t	n/a
128.2725	0.105	256545	keystroke_r	r	n/a
128.5125	0.09	257025	keystroke_a	a	n/a
128.647	0.075	257294	keystroke_l	l	n/a
128.812	0.075	257624	keystroke_i	i	n/a
128.902	0.0895	257804	keystroke_a	a	n/a
129.0375	0.104	258075	keystroke_n	n	n/a
129.2015	0.075	258403	keystroke_Key.space	Key.space	n/a
129.3365	0.105	258673	keystroke_s	s	n/a
129.4565	0.09	258913	keystroke_u	u	n/a
129.5915	0.045	259183	keystroke_g	g	n/a
129.7115	0.075	259423	keystroke_g	g	n/a
129.8615	0.075	259723	keystroke_e	e	n/a
130.0265	0.09	260053	keystroke_s	s	n/a
130.2065	0.06	260413	keystroke_t	t	n/a
130.3865	0.075	260773	keystroke_s	s	n/a
130.6115	0.12	261223	keystroke_Key.enter	Key.enter	n/a
130.737	9.5515	261474	prompt	n/a	null diana informative depends\n
131.9315	0.09	263863	keystroke_n	n	n/a
132.127	0.09	264254	keystroke_u	u	n/a
132.307	0.045	264614	keystroke_l	l	n/a
132.382	0.105	264764	keystroke_l	l	n/a
132.502	0.06	265004	keystroke_l	l	n/a
133.102	0.045	266204	keystroke_Key.backspace	Key.backspace	n/a
133.2815	0.09	266563	keystroke_Key.space	Key.space	n/a
133.4765	0.105	266953	keystroke_d	d	n/a
133.5965	0.045	267193	keystroke_i	i	n/a
133.7015	0.075	267403	keystroke_a	a	n/a
133.7915	0.045	267583	keystroke_n	n	n/a
133.8815	0.09	267763	keystroke_a	a	n/a
133.9865	0.075	267973	keystroke_Key.space	Key.space	n/a
134.1815	0.075	268363	keystroke_i	i	n/a
134.3015	0.1055	268603	keystroke_n	n	n/a
135.4715	0.1055	270943	keystroke_f	f	n/a
135.6365	0.105	271273	keystroke_o	o	n/a
135.7715	0.09	271543	keystroke_r	r	n/a
136.0125	0.075	272025	keystroke_m	m	n/a
136.207	0.045	272414	keystroke_a	a	n/a
136.387	0.09	272774	keystroke_t	t	n/a
136.522	0.09	273044	keystroke_i	i	n/a
137.002	0.06	274004	keystroke_v	v	n/a
137.4365	0.076	274873	keystroke_e	e	n/a
137.5865	0.09	275173	keystroke_Key.space	Key.space	n/a
137.7815	0.0905	275563	keystroke_d	d	n/a
137.977	0.1495	275954	keystroke_e	e	n/a
138.1415	0.075	276283	keystroke_e	e	n/a
138.2915	0.06	276583	keystroke_p	p	n/a
138.7265	0.075	277453	keystroke_Key.backspace	Key.backspace	n/a
138.8615	0.075	277723	keystroke_Key.backspace	Key.backspace	n/a
139.0865	0.0905	278173	keystroke_p	p	n/a
139.222	0.105	278444	keystroke_e	e	n/a
139.567	0.06	279134	keystroke_n	n	n/a
139.672	0.105	279344	keystroke_d	d	n/a
139.837	0.135	279674	keystroke_s	s	n/a
140.2115	0.075	280423	keystroke_Key.enter	Key.enter	n/a
140.291	6.7625	280582	prompt	n/a	vessel rice spare prints\n
140.9015	0.135	281803	keystroke_v	v	n/a
141.0965	0.105	282193	keystroke_e	e	n/a
141.3065	0.045	282613	keystroke_s	s	n/a
141.457	0.075	282914	keystroke_s	s	n/a
141.607	0.09	283214	keystroke_e	e	n/a
141.772	0.075	283544	keystroke_l	l	n/a
142.1315	0.105	284263	keystroke_Key.space	Key.space	n/a
142.2515	0.105	284503	keystroke_r	r	n/a
142.4015	0.075	284803	keystroke_i	i	n/a
142.6115	0.135	285223	keystroke_c	c	n/a
142.8515	0.075	285703	keystroke_e	e	n/a
143.0165	0.105	286033	keystroke_Key.space	Key.space	n/a
143.3165	0.105	286633	keystroke_s	s	n/a
143.4065	0.105	286813	keystroke_p	p	n/a
143.5865	0.105	287173	keystroke_a	a	n/a
143.9615	0.165	287923	keystroke_c	c	n/a
144.547	0.09	289094	keystroke_Key.backspace	Key.backspace	n/a
144.622	0.105	289244	keystroke_r	r	n/a
144.772	0.105	289544	keystroke_e	e	n/a
144.997	0.09	289994	keystroke_Key.space	Key.space	n/a
145.7325	0.09	291465	keystroke_p	p	n/a
145.8375	0.12	291675	keystroke_r	r	n/a
146.0025	0.135	292005	keystroke_i	i	n/a
146.1525	0.105	292305	keystroke_n	n	n/a
146.2275	0.15	292455	keystroke_t	t	n/a
146.6325	0.09	293265	keystroke_s	s	n/a
146.962	0.09	293924	keystroke_Key.enter	Key.enter	n/a
147.0565	6.762	294113	prompt	n/a	louis limit threatened vendor\n
147.682	0.09	295364	keystroke_l	l	n/a
147.967	0.09	295934	keystroke_o	o	n/a
148.207	0.0745	296414	keystroke_u	u	n/a
148.3865	0.075	296773	keystroke_i	i	n/a
148.4915	0.12	296983	keystroke_s	s	n/a
148.7465	0.09	297493	keystroke_Key.space	Key.space	n/a
149.0465	0.105	298093	keystroke_l	l	n/a
149.1965	0.075	298393	keystroke_i	i	n/a
149.4075	0.09	298815	keystroke_m	m	n/a
149.5575	0.09	299115	keystroke_i	i	n/a
149.7525	0.105	299505	keystroke_t	t	n/a
149.8875	0.074	299775	keystroke_Key.space	Key.space	n/a
150.0825	0.09	300165	keystroke_t	t	n/a
150.1575	0.09	300315	keystroke_h	h	n/a
150.2925	0.09	300585	keystroke_r	r	n/a
150.5175	0.09	301035	keystroke_e	e	n/a
150.6975	0.075	301395	keystroke_a	a	n/a
150.9075	0.0895	301815	keystroke_t	t	n/a
151.027	0.105	302054	keystroke_e	e	n/a
151.207	0.075	302414	keystroke_n	n	n/a
151.267	0.045	302534	keystroke_e	e	n/a
151.432	0.105	302864	keystroke_d	d	n/a
151.597	0.09	303194	keystroke_Key.space	Key.space	n/a
151.837	0.06	303674	keystroke_v	v	n/a
152.2415	0.046	304483	keystroke_n	n	n/a
152.5865	0.06	305173	keystroke_Key.backspace	Key.backspace	n/a
152.6615	0.136	305323	keystroke_e	e	n/a
152.8265	0.09	305653	keystroke_n	n	n/a
153.0825	0.09	306165	keystroke_d	d	n/a
153.1875	0.09	306375	keystroke_o	o	n/a
153.2915	0.09	306583	keystroke_r	r	n/a
153.7715	0.045	307543	keystroke_Key.enter	Key.enter	n/a
153.821	5.5025	307642	prompt	n/a	routing he's plugins momentum\n
154.3865	0.09	308773	keystroke_r	r	n/a
154.5965	0.105	309193	keystroke_o	o	n/a
154.6725	0.074	309345	keystroke_u	u	n/a
154.8375	0.104	309675	keystroke_t	t	n/a
154.9575	0.134	309915	keystroke_i	i	n/a
155.0765	0.06	310153	keystroke_n	n	n/a
155.1665	0.12	310333	keystroke_g	g	n/a
155.3015	0.06	310603	keystroke_Key.space	Key.space	n/a
155.5265	0.075	311053	keystroke_h	h	n/a
155.5865	0.105	311173	keystroke_e	e	n/a
155.7065	0.12	311413	keystroke_'	'	n/a
155.8415	0.1055	311683	keystroke_s	s	n/a
155.962	0.075	311924	keystroke_Key.space	Key.space	n/a
156.337	0.075	312674	keystroke_p	p	n/a
156.6665	0.045	313333	keystroke_l	l	n/a
156.8925	0.089	313785	keystroke_u	u	n/a
157.0125	0.104	314025	keystroke_g	g	n/a
157.2065	0.105	314413	keystroke_i	i	n/a
157.2965	0.06	314593	keystroke_n	n	n/a
157.5065	0.09	315013	keystroke_s	s	n/a
157.6715	0.06	315343	keystroke_Key.space	Key.space	n/a
157.9715	0.091	315943	keystroke_m	m	n/a
158.122	0.135	316244	keystroke_o	o	n/a
158.212	0.09	316424	keystroke_m	m	n/a
158.362	0.045	316724	keystroke_e	e	n/a
158.467	0.09	316934	keystroke_n	n	n/a
158.632	0.105	317264	keystroke_t	t	n/a
158.767	0.06	317534	keystroke_u	u	n/a
159.022	0.075	318044	keystroke_m	m	n/a
159.2915	0.03	318583	keystroke_Key.enter	Key.enter	n/a
159.3275	9.791	318655	prompt	n/a	divided discovery trails theory\n
159.8475	0.059	319695	keystroke_f	f	n/a
159.9215	0.045	319843	keystroke_d	d	n/a
160.222	0.03	320444	keystroke_Key.backspace	Key.backspace	n/a
160.327	0.06	320654	keystroke_Key.backspace	Key.backspace	n/a
160.477	0.0895	320954	keystroke_d	d	n/a
160.6415	0.075	321283	keystroke_i	i	n/a
160.8365	0.075	321673	keystroke_v	v	n/a
161.1815	0.075	322363	keystroke_i	i	n/a
161.362	0.075	322724	keystroke_d	d	n/a
161.557	0.06	323114	keystroke_e	e	n/a
161.722	0.09	323444	keystroke_d	d	n/a
161.797	0.09	323594	keystroke_Key.space	Key.space	n/a
161.947	0.09	323894	keystroke_d	d	n/a
161.992	0.09	323984	keystroke_i	i	n/a
162.1415	0.09	324283	keystroke_s	s	n/a
162.3215	0.075	324643	keystroke_c	c	n/a
162.517	0.06	325034	keystroke_o	o	n/a
162.727	0.075	325454	keystroke_v	v	n/a
162.937	0.12	325874	keystroke_e	e	n/a
163.447	0.105	326894	keystroke_r	r	n/a
163.627	0.045	327254	keystroke_y	y	n/a
163.807	0.09	327614	keystroke_Key.space	Key.space	n/a
164.032	0.09	328064	keystroke_t	t	n/a
164.407	0.09	328814	keystroke_r	r	n/a
164.7075	0.089	329415	keystroke_a	a	n/a
165.0075	0.059	330015	keystroke_u	u	n/a
165.2925	0.074	330585	keystroke_s	s	n/a
165.3825	0.045	330765	keystroke_l	l	n/a
165.6515	0.045	331303	keystroke_Key.backspace	Key.backspace	n/a
165.7875	0.045	331575	keystroke_Key.backspace	Key.backspace	n/a
165.9975	0.059	331995	keystroke_l	l	n/a
166.2365	0.045	332473	keystroke_Key.backspace	Key.backspace	n/a
166.3415	0.075	332683	keystroke_Key.backspace	Key.backspace	n/a
166.5815	0.076	333163	keystroke_i	i	n/a
166.7465	0.06	333493	keystroke_l	l	n/a
166.8225	0.104	333645	keystroke_s	s	n/a
167.0165	0.045	334033	keystroke_Key.space	Key.space	n/a
167.4965	0.06	334993	keystroke_t	t	n/a
167.5715	0.06	335143	keystroke_h	h	n/a
167.7965	0.135	335593	keystroke_e	e	n/a
168.0515	0.0455	336103	keystroke_o	o	n/a
168.217	0.105	336434	keystroke_r	r	n/a
168.562	0.105	337124	keystroke_y	y	n/a
169.042	0.075	338084	keystroke_Key.enter	Key.enter	n/a
169.121	7.437	338242	prompt	n/a	earrings heater condos oclc\n
169.927	0.105	339854	keystroke_e	e	n/a
170.1215	0.09	340243	keystroke_a	a	n/a
170.4815	0.03	340963	keystroke_t	t	n/a
170.6165	0.09	341233	keystroke_t	t	n/a
170.9915	0.06	341983	keystroke_Key.backspace	Key.backspace	n/a
171.1115	0.075	342223	keystroke_Key.backspace	Key.backspace	n/a
171.1415	0.09	342283	keystroke_r	r	n/a
171.2915	0.09	342583	keystroke_r	r	n/a
171.3965	0.12	342793	keystroke_i	i	n/a
171.4865	0.09	342973	keystroke_n	n	n/a
171.5615	0.075	343123	keystroke_g	g	n/a
171.7715	0.12	343543	keystroke_s	s	n/a
171.9815	0.075	343963	keystroke_Key.space	Key.space	n/a
172.297	0.105	344594	keystroke_h	h	n/a
172.372	0.09	344744	keystroke_e	e	n/a
172.567	0.09	345134	keystroke_a	a	n/a
172.672	0.06	345344	keystroke_l	l	n/a
173.032	0.045	346064	keystroke_Key.backspace	Key.backspace	n/a
173.092	0.075	346184	keystroke_t	t	n/a
173.242	0.09	346484	keystroke_e	e	n/a
173.302	0.075	346604	keystroke_r	r	n/a
173.482	0.0895	346964	keystroke_Key.space	Key.space	n/a
173.7965	0.105	347593	keystroke_c	c	n/a
173.8865	0.09	347773	keystroke_o	o	n/a
173.9315	0.12	347863	keystroke_n	n	n/a
174.4415	0.09	348883	keystroke_d	d	n/a
174.5465	0.045	349093	keystroke_o	o	n/a
174.7115	0.09	349423	keystroke_s	s	n/a
174.8615	0.06	349723	keystroke_Key.space	Key.space	n/a
175.417	0.09	350834	keystroke_o	o	n/a
175.8675	0.06	351735	keystroke_c	c	n/a
176.1375	0.075	352275	keystroke_l	l	n/a
176.2425	0.06	352485	keystroke_c	c	n/a
176.4975	0.06	352995	keystroke_Key.enter	Key.enter	n/a
176.561	5.593	353122	prompt	n/a	kinds sanyo possess card\n
177.3825	0.09	354765	keystroke_k	k	n/a
177.5925	0.12	355185	keystroke_i	i	n/a
177.6375	0.135	355275	keystroke_n	n	n/a
177.7575	0.09	355515	keystroke_d	d	n/a
177.9375	0.09	355875	keystroke_s	s	n/a
178.0725	0.09	356145	keystroke_Key.space	Key.space	n/a
178.4325	0.06	356865	keystroke_s	s	n/a
178.5675	0.09	357135	keystroke_a	a	n/a
178.6725	0.075	357345	keystroke_n	n	n/a
179.0025	0.06	358005	keystroke_y	y	n/a
179.227	0.06	358454	keystroke_o	o	n/a
179.392	0.075	358784	keystroke_Key.space	Key.space	n/a
179.6475	0.075	359295	keystroke_p	p	n/a
179.8875	0.06	359775	keystroke_o	o	n/a
180.0525	0.059	360105	keystroke_s	s	n/a
180.2025	0.06	360405	keystroke_s	s	n/a
180.4725	0.075	360945	keystroke_e	e	n/a
180.7125	0.044	361425	keystroke_s	s	n/a
180.8475	0.075	361695	keystroke_s	s	n/a
181.117	0.09	362234	keystroke_Key.space	Key.space	n/a
181.222	0.09	362444	keystroke_c	c	n/a
181.387	0.12	362774	keystroke_a	a	n/a
181.612	0.09	363224	keystroke_r	r	n/a
181.807	0.09	363614	keystroke_d	d	n/a
182.047	0.1045	364094	keystroke_Key.enter	Key.enter	n/a
182.1575	9.2515	364315	prompt	n/a	algebra scout vegetables utilization\n
183.067	0.12	366134	keystroke_a	a	n/a
183.172	0.09	366344	keystroke_l	l	n/a
183.547	0.105	367094	keystroke_g	g	n/a
183.7565	0.06	367513	keystroke_e	e	n/a
184.0115	0.0905	368023	keystroke_b	b	n/a
184.297	0.1055	368594	keystroke_r	r	n/a
184.9115	0.075	369823	keystroke_a	a	n/a
185.062	0.09	370124	keystroke_Key.space	Key.space	n/a
185.287	0.075	370574	keystroke_s	s	n/a
185.497	0.09	370994	keystroke_c	c	n/a
185.632	0.105	371264	keystroke_o	o	n/a
185.692	0.06	371384	keystroke_u	u	n/a
185.932	0.09	371864	keystroke_t	t	n/a
186.187	0.045	372374	keystroke_Key.space	Key.space	n/a
186.742	0.105	373484	keystroke_v	v	n/a
186.862	0.105	373724	keystroke_e	e	n/a
187.162	0.075	374324	keystroke_g	g	n/a
187.342	0.075	374684	keystroke_e	e	n/a
187.522	0.06	375044	keystroke_t	t	n/a
187.702	0.0895	375404	keystroke_a	a	n/a
187.8515	0.075	375703	keystroke_b	b	n/a
188.0165	0.09	376033	keystroke_l	l	n/a
188.0915	0.075	376183	keystroke_e	e	n/a
188.3765	0.075	376753	keystroke_s	s	n/a
188.5865	0.09	377173	keystroke_Key.space	Key.space	n/a
189.202	0.075	378404	keystroke_u	u	n/a
189.367	0.075	378734	keystroke_t	t	n/a
189.457	0.075	378914	keystroke_i	i	n/a
189.7115	0.075	379423	keystroke_l	l	n/a
189.817	0.0895	379634	keystroke_i	i	n/a
190.042	0.075	380084	keystroke_z	z	n/a
190.312	0.0895	380624	keystroke_a	a	n/a
190.567	0.06	381134	keystroke_t	t	n/a
190.792	0.135	381584	keystroke_i	i	n/a
190.912	0.09	381824	keystroke_o	o	n/a
190.957	0.09	381914	keystroke_n	n	n/a
191.347	0.06	382694	keystroke_Key.enter	Key.enter	n/a
191.412	6.9715	382824	prompt	n/a	rising debt pillow brokers\n
192.487	0.075	384974	keystroke_r	r	n/a
192.6675	0.06	385335	keystroke_i	i	n/a
193.342	0.075	386684	keystroke_s	s	n/a
193.447	0.06	386894	keystroke_i	i	n/a
193.777	0.06	387554	keystroke_n	n	n/a
193.957	0.075	387914	keystroke_g	g	n/a
194.1665	0.075	388333	keystroke_Key.space	Key.space	n/a
194.4815	0.075	388963	keystroke_d	d	n/a
194.6765	0.0605	389353	keystroke_e	e	n/a
194.782	0.06	389564	keystroke_b	b	n/a
194.962	0.075	389924	keystroke_t	t	n/a
195.172	0.06	390344	keystroke_Key.space	Key.space	n/a
195.577	0.075	391154	keystroke_p	p	n/a
195.802	0.075	391604	keystroke_i	i	n/a
196.0115	0.03	392023	keystroke_l	l	n/a
196.1315	0.06	392263	keystroke_l	l	n/a
196.3115	0.045	392623	keystroke_o	o	n/a
196.7015	0.06	393403	keystroke_w	w	n/a
196.8665	0.075	393733	keystroke_Key.space	Key.space	n/a
197.1665	0.075	394333	keystroke_b	b	n/a
197.272	0.09	394544	keystroke_r	r	n/a
197.392	0.06	394784	keystroke_o	o	n/a
197.617	0.06	395234	keystroke_k	k	n/a
197.722	0.15	395444	keystroke_e	e	n/a
197.827	0.09	395654	keystroke_r	r	n/a
198.127	0.06	396254	keystroke_s	s	n/a
198.307	0.075	396614	keystroke_Key.enter	Key.enter	n/a
198.388	6.0255	396776	prompt	n/a	shipping racks disputes script\n
199.102	0.105	398204	keystroke_s	s	n/a
199.252	0.075	398504	keystroke_h	h	n/a
199.387	0.105	398774	keystroke_i	i	n/a
199.627	0.045	399254	keystroke_p	p	n/a
199.747	0.075	399494	keystroke_p	p	n/a
199.987	0.1205	399974	keystroke_i	i	n/a
200.077	0.0905	400154	keystroke_n	n	n/a
200.2725	0.06	400545	keystroke_g	g	n/a
200.4675	0.06	400935	keystroke_Key.space	Key.space	n/a
200.6025	0.09	401205	keystroke_r	r	n/a
200.8275	0.06	401655	keystroke_a	a	n/a
201.0225	0.075	402045	keystroke_c	c	n/a
201.1125	0.075	402225	keystroke_k	k	n/a
201.2475	0.09	402495	keystroke_s	s	n/a
201.667	0.105	403334	keystroke_Key.space	Key.space	n/a
201.847	0.075	403694	keystroke_d	d	n/a
201.952	0.09	403904	keystroke_i	i	n/a
202.1015	0.09	404203	keystroke_s	s	n/a
202.2965	0.06	404593	keystroke_p	p	n/a
202.5515	0.076	405103	keystroke_u	u	n/a
202.6725	0.074	405345	keystroke_t	t	n/a
202.8515	0.061	405703	keystroke_e	e	n/a
203.0315	0.09	406063	keystroke_s	s	n/a
203.1365	0.09	406273	keystroke_Key.space	Key.space	n/a
203.2415	0.075	406483	keystroke_s	s	n/a
203.4215	0.06	406843	keystroke_c	c	n/a
203.6165	0.075	407233	keystroke_r	r	n/a
203.7665	0.06	407533	keystroke_i	i	n/a
203.9315	0.075	407863	keystroke_p	p	n/a
204.0375	0.059	408075	keystroke_t	t	n/a
204.3815	0.03	408763	keystroke_Key.enter	Key.enter	n/a
204.4155	6.808	408831	prompt	n/a	existence posted spectacular ruled\n
205.0565	0.075	410113	keystroke_e	e	n/a
205.2675	0.104	410535	keystroke_x	x	n/a
205.4315	0.0905	410863	keystroke_i	i	n/a
205.552	0.12	411104	keystroke_s	s	n/a
205.852	0.075	411704	keystroke_t	t	n/a
206.017	0.075	412034	keystroke_e	e	n/a
206.227	0.06	412454	keystroke_n	n	n/a
206.347	0.0895	412694	keystroke_c	c	n/a
206.4815	0.105	412963	keystroke_e	e	n/a
206.6465	0.075	413293	keystroke_Key.space	Key.space	n/a
206.9165	0.075	413833	keystroke_p	p	n/a
207.0665	0.105	414133	keystroke_o	o	n/a
207.1415	0.09	414283	keystroke_s	s	n/a
207.3365	0.045	414673	keystroke_t	t	n/a
207.4415	0.075	414883	keystroke_e	e	n/a
207.6365	0.105	415273	keystroke_d	d	n/a
207.8615	0.0605	415723	keystroke_Key.space	Key.space	n/a
207.937	0.12	415874	keystroke_s	s	n/a
208.072	0.0895	416144	keystroke_p	p	n/a
208.1625	0.0745	416325	keystroke_e	e	n/a
208.357	0.075	416714	keystroke_c	c	n/a
208.6715	0.075	417343	keystroke_t	t	n/a
208.8665	0.075	417733	keystroke_a	a	n/a
209.2715	0.12	418543	keystroke_c	c	n/a
209.4065	0.06	418813	keystroke_u	u	n/a
209.632	0.06	419264	keystroke_l	l	n/a
209.677	0.0745	419354	keystroke_a	a	n/a
209.9625	0.105	419925	keystroke_r	r	n/a
210.1875	0.075	420375	keystroke_Key.space	Key.space	n/a
210.3225	0.09	420645	keystroke_r	r	n/a
210.4575	0.075	420915	keystroke_u	u	n/a
210.6525	0.105	421305	keystroke_l	l	n/a
210.7275	0.075	421455	keystroke_e	e	n/a
210.937	0.105	421874	keystroke_s	s	n/a
211.147	0.075	422294	keystroke_Key.enter	Key.enter	n/a
211.2345	5.794	422469	prompt	n/a	growth computation purse nancy\n
212.0025	0.104	424005	keystroke_g	g	n/a
212.332	0.12	424664	keystroke_r	r	n/a
212.512	0.09	425024	keystroke_o	o	n/a
212.662	0.105	425324	keystroke_w	w	n/a
212.977	0.105	425954	keystroke_t	t	n/a
213.097	0.105	426194	keystroke_h	h	n/a
213.217	0.09	426434	keystroke_Key.space	Key.space	n/a
213.472	0.105	426944	keystroke_c	c	n/a
213.592	0.105	427184	keystroke_o	o	n/a
213.712	0.09	427424	keystroke_m	m	n/a
213.907	0.06	427814	keystroke_p	p	n/a
214.0865	0.075	428173	keystroke_u	u	n/a
214.1915	0.075	428383	keystroke_t	t	n/a
214.3865	0.075	428773	keystroke_a	a	n/a
214.5975	0.059	429195	keystroke_t	t	n/a
214.6865	0.135	429373	keystroke_i	i	n/a
214.8515	0.105	429703	keystroke_o	o	n/a
214.9265	0.0905	429853	keystroke_n	n	n/a
215.1215	0.075	430243	keystroke_Key.space	Key.space	n/a
215.2115	0.09	430423	keystroke_p	p	n/a
215.3915	0.045	430783	keystroke_u	u	n/a
215.4815	0.06	430963	keystroke_r	r	n/a
215.6765	0.105	431353	keystroke_s	s	n/a
215.7515	0.075	431503	keystroke_e	e	n/a
215.9315	0.06	431863	keystroke_Key.space	Key.space	n/a
216.157	0.06	432314	keystroke_n	n	n/a
216.232	0.09	432464	keystroke_a	a	n/a
216.337	0.09	432674	keystroke_n	n	n/a
216.592	0.075	433184	keystroke_c	c	n/a
216.697	0.06	433394	keystroke_y	y	n/a
216.982	0.045	433964	keystroke_Key.enter	Key.enter	n/a
217.031	5.0825	434062	prompt	n/a	navy bills hopefully what\n
217.642	0.105	435284	keystroke_n	n	n/a
217.7765	0.105	435553	keystroke_a	a	n/a
217.9115	0.075	435823	keystroke_b	b	n/a
218.2715	0.06	436543	keystroke_Key.backspace	Key.backspace	n/a
218.3165	0.09	436633	keystroke_v	v	n/a
218.5415	0.06	437083	keystroke_y	y	n/a
218.6915	0.06	437383	keystroke_Key.space	Key.space	n/a
219.0225	0.075	438045	keystroke_b	b	n/a
219.172	0.12	438344	keystroke_i	i	n/a
219.412	0.03	438824	keystroke_l	l	n/a
219.532	0.09	439064	keystroke_l	l	n/a
219.667	0.0595	439334	keystroke_s	s	n/a
219.8015	0.075	439603	keystroke_Key.space	Key.space	n/a
220.0715	0.0905	440143	keystroke_h	h	n/a
220.207	0.09	440414	keystroke_o	o	n/a
220.417	0.075	440834	keystroke_p	p	n/a
220.507	0.075	441014	keystroke_e	e	n/a
220.717	0.105	441434	keystroke_f	f	n/a
220.807	0.075	441614	keystroke_u	u	n/a
221.017	0.03	442034	keystroke_l	l	n/a
221.122	0.105	442244	keystroke_l	l	n/a
221.242	0.09	442484	keystroke_y	y	n/a
221.407	0.06	442814	keystroke_Key.space	Key.space	n/a
221.512	0.075	443024	keystroke_w	w	n/a
221.587	0.06	443174	keystroke_h	h	n/a
221.707	0.075	443414	keystroke_a	a	n/a
221.812	0.06	443624	keystroke_t	t	n/a
222.052	0.06	444104	keystroke_Key.enter	Key.enter	n/a
222.1165	4.362	444233	prompt	n/a	class combo clark tape\n
222.742	0.09	445484	keystroke_c	c	n/a
222.847	0.09	445694	keystroke_l	l	n/a
222.922	0.075	445844	keystroke_a	a	n/a
223.102	0.06	446204	keystroke_s	s	n/a
223.2225	0.0895	446445	keystroke_s	s	n/a
223.357	0.09	446714	keystroke_Key.space	Key.space	n/a
223.507	0.09	447014	keystroke_c	c	n/a
223.627	0.12	447254	keystroke_o	o	n/a
223.717	0.075	447434	keystroke_m	m	n/a
223.942	0.045	447884	keystroke_b	b	n/a
224.107	0.06	448214	keystroke_o	o	n/a
224.302	0.045	448604	keystroke_Key.space	Key.space	n/a
224.467	0.075	448934	keystroke_c	c	n/a
224.572	0.0595	449144	keystroke_l	l	n/a
224.6465	0.1055	449293	keystroke_a	a	n/a
224.827	0.0905	449654	keystroke_r	r	n/a
225.006	0.061	450012	keystroke_k	k	n/a
225.186	0.0605	450372	keystroke_Key.space	Key.space	n/a
225.5025	0.0595	451005	keystroke_t	t	n/a
225.697	0.09	451394	keystroke_a	a	n/a
226.012	0.06	452024	keystroke_p	p	n/a
226.1315	0.061	452263	keystroke_e	e	n/a
226.4015	0.075	452803	keystroke_Key.enter	Key.enter	n/a
226.4805	5.143	452961	prompt	n/a	sell physically tied actors\n
227.0165	0.09	454033	keystroke_s	s	n/a
227.1815	0.06	454363	keystroke_e	e	n/a
227.3015	0.045	454603	keystroke_l	l	n/a
227.4215	0.12	454843	keystroke_l	l	n/a
227.5115	0.075	455023	keystroke_Key.space	Key.space	n/a
227.7065	0.061	455413	keystroke_p	p	n/a
227.9015	0.075	455803	keystroke_h	h	n/a
228.1415	0.03	456283	keystroke_y	y	n/a
228.2165	0.105	456433	keystroke_s	s	n/a
228.3815	0.061	456763	keystroke_i	i	n/a
228.5015	0.075	457003	keystroke_c	c	n/a
228.6525	0.089	457305	keystroke_a	a	n/a
228.7725	0.044	457545	keystroke_l	l	n/a
228.8915	0.09	457783	keystroke_l	l	n/a
229.1315	0.105	458263	keystroke_y	y	n/a
229.2065	0.09	458413	keystroke_Key.space	Key.space	n/a
229.4915	0.06	458983	keystroke_t	t	n/a
229.5815	0.09	459163	keystroke_i	i	n/a
229.6875	0.06	459375	keystroke_e	e	n/a
229.9265	0.075	459853	keystroke_d	d	n/a
230.227	0.06	460454	keystroke_Key.space	Key.space	n/a
230.332	0.06	460664	keystroke_a	a	n/a
230.527	0.075	461054	keystroke_c	c	n/a
230.737	0.045	461474	keystroke_t	t	n/a
230.827	0.045	461654	keystroke_o	o	n/a
230.917	0.06	461834	keystroke_r	r	n/a
231.2915	0.1055	462583	keystroke_s	s	n/a
231.517	0.105	463034	keystroke_Key.enter	Key.enter	n/a
231.626	8.5325	463252	prompt	n/a	its precipitation hdtv wash\n
232.312	0.06	464624	keystroke_i	i	n/a
232.492	0.09	464984	keystroke_t	t	n/a
232.702	0.075	465404	keystroke_s	s	n/a
232.807	0.06	465614	keystroke_Key.space	Key.space	n/a
232.9565	0.09	465913	keystroke_p	p	n/a
233.0315	0.075	466063	keystroke_r	r	n/a
233.1965	0.06	466393	keystroke_e	e	n/a
233.3915	0.12	466783	keystroke_c	c	n/a
233.542	0.045	467084	keystroke_i	i	n/a
234.4865	0.075	468973	keystroke_p	p	n/a
234.6965	0.075	469393	keystroke_i	i	n/a
234.8315	0.075	469663	keystroke_t	t	n/a
235.027	0.075	470054	keystroke_a	a	n/a
235.237	0.06	470474	keystroke_t	t	n/a
235.432	0.135	470864	keystroke_i	i	n/a
235.597	0.105	471194	keystroke_o	o	n/a
235.867	0.06	471734	keystroke_n	n	n/a
236.062	0.0595	472124	keystroke_Key.space	Key.space	n/a
236.4665	0.075	472933	keystroke_h	h	n/a
236.5865	0.0755	473173	keystroke_d	d	n/a
236.827	0.09	473654	keystroke_c	c	n/a
237.412	0.045	474824	keystroke_Key.backspace	Key.backspace	n/a
237.667	0.06	475334	keystroke_t	t	n/a
237.802	0.09	475604	keystroke_c	c	n/a
237.937	0.075	475874	keystroke_Key.space	Key.space	n/a
238.237	0.09	476474	keystroke_w	w	n/a
238.567	0.06	477134	keystroke_Key.backspace	Key.backspace	n/a
238.702	0.075	477404	keystroke_Key.backspace	Key.backspace	n/a
238.942	0.06	477884	keystroke_Key.backspace	Key.backspace	n/a
239.047	0.09	478094	keystroke_v	v	n/a
239.242	0.09	478484	keystroke_Key.space	Key.space	n/a
239.317	0.075	478634	keystroke_w	w	n/a
239.482	0.0755	478964	keystroke_a	a	n/a
239.692	0.075	479384	keystroke_s	s	n/a
239.782	0.09	479564	keystroke_h	h	n/a
240.082	0.075	480164	keystroke_Key.enter	Key.enter	n/a
240.1635	6.115	480327	prompt	n/a	alone spanish dividend joyce\n
240.667	0.105	481334	keystroke_a	a	n/a
240.787	0.045	481574	keystroke_l	l	n/a
240.967	0.12	481934	keystroke_o	o	n/a
241.027	0.105	482054	keystroke_n	n	n/a
241.117	0.105	482234	keystroke_e	e	n/a
241.252	0.06	482504	keystroke_Key.space	Key.space	n/a
241.447	0.105	482894	keystroke_s	s	n/a
241.567	0.105	483134	keystroke_p	p	n/a
241.7315	0.121	483463	keystroke_a	a	n/a
241.8975	0.0745	483795	keystroke_n	n	n/a
242.077	0.075	484154	keystroke_i	i	n/a
242.212	0.1045	484424	keystroke_s	s	n/a
242.3175	0.089	484635	keystroke_h	h	n/a
242.3915	0.075	484783	keystroke_Key.space	Key.space	n/a
242.722	0.03	485444	keystroke_d	d	n/a
242.962	0.075	485924	keystroke_i	i	n/a
243.052	0.075	486104	keystroke_v	v	n/a
243.172	0.075	486344	keystroke_i	i	n/a
243.472	0.075	486944	keystroke_d	d	n/a
243.6825	0.074	487365	keystroke_e	e	n/a
243.7865	0.09	487573	keystroke_n	n	n/a
243.9815	0.09	487963	keystroke_d	d	n/a
244.2215	0.06	488443	keystroke_Key.space	Key.space	n/a
244.4165	0.06	488833	keystroke_d	d	n/a
244.7615	0.0755	489523	keystroke_Key.backspace	Key.backspace	n/a
245.0615	0.075	490123	keystroke_j	j	n/a
245.2865	0.1055	490573	keystroke_o	o	n/a
245.482	0.075	490964	keystroke_y	y	n/a
245.587	0.12	491174	keystroke_c	c	n/a
245.872	0.105	491744	keystroke_e	e	n/a
246.217	0.06	492434	keystroke_Key.enter	Key.enter	n/a
246.281	7.5125	492562	prompt	n/a	finnish phantom engineer rover\n
247.177	0.075	494354	keystroke_n	n	n/a
247.5065	0.06	495013	keystroke_Key.backspace	Key.backspace	n/a
247.7165	0.105	495433	keystroke_f	f	n/a
247.8965	0.075	495793	keystroke_i	i	n/a
248.0915	0.06	496183	keystroke_n	n	n/a
248.2115	0.09	496423	keystroke_n	n	n/a
248.3315	0.105	496663	keystroke_i	i	n/a
248.4665	0.105	496933	keystroke_s	s	n/a
248.5415	0.075	497083	keystroke_h	h	n/a
248.8715	0.105	497743	keystroke_Key.space	Key.space	n/a
249.4265	0.075	498853	keystroke_p	p	n/a
249.6065	0.06	499213	keystroke_h	h	n/a
249.7715	0.105	499543	keystroke_a	a	n/a
249.8465	0.09	499693	keystroke_n	n	n/a
250.0565	0.0755	500113	keystroke_t	t	n/a
250.162	0.075	500324	keystroke_o	o	n/a
250.372	0.09	500744	keystroke_m	m	n/a
250.447	0.105	500894	keystroke_Key.space	Key.space	n/a
250.642	0.075	501284	keystroke_e	e	n/a
250.732	0.075	501464	keystroke_n	n	n/a
250.927	0.135	501854	keystroke_g	g	n/a
251.077	0.09	502154	keystroke_i	i	n/a
251.227	0.09	502454	keystroke_n	n	n/a
251.332	0.075	502664	keystroke_e	e	n/a
251.497	0.09	502994	keystroke_e	e	n/a
251.617	0.09	503234	keystroke_r	r	n/a
251.782	0.06	503564	keystroke_Key.space	Key.space	n/a
252.2015	0.09	504403	keystroke_r	r	n/a
252.3065	0.0905	504613	keystroke_o	o	n/a
252.532	0.06	505064	keystroke_b	b	n/a
252.622	0.135	505244	keystroke_e	e	n/a
252.727	0.075	505454	keystroke_r	r	n/a
253.072	0.015	506144	keystroke_Key.backspace	Key.backspace	n/a
253.192	0.045	506384	keystroke_Key.backspace	Key.backspace	n/a
253.327	0.06	506654	keystroke_Key.backspace	Key.backspace	n/a
253.372	0.06	506744	keystroke_v	v	n/a
253.477	0.135	506954	keystroke_e	e	n/a
253.552	0.09	507104	keystroke_r	r	n/a
253.762	0.0295	507524	keystroke_Key.enter	Key.enter	n/a
253.8105	6.373	507621	prompt	n/a	batch granted every indirect\n
254.6165	0.06	509233	keystroke_b	b	n/a
254.7365	0.0905	509473	keystroke_a	a	n/a
254.947	0.075	509894	keystroke_t	t	n/a
255.157	0.105	510314	keystroke_c	c	n/a
255.277	0.09	510554	keystroke_h	h	n/a
255.367	0.09	510734	keystroke_Key.space	Key.space	n/a
255.622	0.09	511244	keystroke_g	g	n/a
255.817	0.06	511634	keystroke_r	r	n/a
255.9965	0.045	511993	keystroke_a	a	n/a
256.0715	0.0755	512143	keystroke_n	n	n/a
256.162	0.075	512324	keystroke_d	d	n/a
256.522	0.06	513044	keystroke_Key.backspace	Key.backspace	n/a
256.552	0.075	513104	keystroke_t	t	n/a
256.687	0.075	513374	keystroke_e	e	n/a
256.867	0.105	513734	keystroke_d	d	n/a
257.182	0.06	514364	keystroke_Key.space	Key.space	n/a
257.3015	0.105	514603	keystroke_e	e	n/a
257.5115	0.075	515023	keystroke_v	v	n/a
257.6465	0.12	515293	keystroke_e	e	n/a
257.7215	0.121	515443	keystroke_r	r	n/a
257.8265	0.105	515653	keystroke_y	y	n/a
258.0965	0.09	516193	keystroke_Key.space	Key.space	n/a
258.517	0.075	517034	keystroke_i	i	n/a
258.637	0.1045	517274	keystroke_n	n	n/a
258.7865	0.105	517573	keystroke_d	d	n/a
258.9815	0.045	517963	keystroke_i	i	n/a
259.2665	0.06	518533	keystroke_r	r	n/a
259.5365	0.06	519073	keystroke_e	e	n/a
259.7165	0.075	519433	keystroke_c	c	n/a
259.942	0.09	519884	keystroke_t	t	n/a
260.092	0.0895	520184	keystroke_Key.enter	Key.enter	n/a
260.1875	5.261	520375	prompt	n/a	carolina cool catch wants\n
260.8565	0.075	521713	keystroke_c	c	n/a
260.9765	0.075	521953	keystroke_a	a	n/a
261.1565	0.09	522313	keystroke_r	r	n/a
261.2165	0.075	522433	keystroke_o	o	n/a
261.457	0.045	522914	keystroke_l	l	n/a
261.607	0.075	523214	keystroke_i	i	n/a
261.757	0.09	523514	keystroke_n	n	n/a
261.862	0.105	523724	keystroke_a	a	n/a
262.012	0.09	524024	keystroke_Key.space	Key.space	n/a
262.162	0.09	524324	keystroke_c	c	n/a
262.267	0.06	524534	keystroke_o	o	n/a
262.402	0.06	524804	keystroke_o	o	n/a
262.582	0.135	525164	keystroke_l	l	n/a
262.732	0.074	525464	keystroke_Key.space	Key.space	n/a
262.9715	0.0605	525943	keystroke_c	c	n/a
263.121	0.09	526242	keystroke_a	a	n/a
263.332	0.075	526664	keystroke_t	t	n/a
263.542	0.075	527084	keystroke_c	c	n/a
263.662	0.06	527324	keystroke_h	h	n/a
263.722	0.105	527444	keystroke_Key.space	Key.space	n/a
263.917	0.06	527834	keystroke_w	w	n/a
264.097	0.075	528194	keystroke_a	a	n/a
264.322	0.06	528644	keystroke_n	n	n/a
264.472	0.075	528944	keystroke_t	t	n/a
264.8015	0.045	529603	keystroke_c	c	n/a
265.1765	0.06	530353	keystroke_Key.backspace	Key.backspace	n/a
265.2515	0.045	530503	keystroke_s	s	n/a
265.4015	0.045	530803	keystroke_Key.enter	Key.enter	n/a
265.4515	8.1415	530903	prompt	n/a	waves gender ferrari testimonials\n
266.1665	0.03	532333	keystroke_w	w	n/a
266.2865	0.075	532573	keystroke_a	a	n/a
266.4815	0.135	532963	keystroke_v	v	n/a
266.6615	0.075	533323	keystroke_e	e	n/a
266.887	0.045	533774	keystroke_s	s	n/a
267.022	0.075	534044	keystroke_Key.space	Key.space	n/a
267.427	0.03	534854	keystroke_e	e	n/a
267.877	0.06	535754	keystroke_Key.backspace	Key.backspace	n/a
267.997	0.045	535994	keystroke_g	g	n/a
268.177	0.09	536354	keystroke_e	e	n/a
268.372	0.06	536744	keystroke_n	n	n/a
268.537	0.09	537074	keystroke_d	d	n/a
268.776	0.091	537552	keystroke_e	e	n/a
268.942	0.075	537884	keystroke_r	r	n/a
269.077	0.09	538154	keystroke_Key.space	Key.space	n/a
269.287	0.105	538574	keystroke_f	f	n/a
269.437	0.1345	538874	keystroke_e	e	n/a
269.6615	0.075	539323	keystroke_r	r	n/a
269.8415	0.06	539683	keystroke_r	r	n/a
270.0215	0.09	540043	keystroke_a	a	n/a
270.2915	0.121	540583	keystroke_r	r	n/a
270.4565	0.09	540913	keystroke_i	i	n/a
270.7565	0.075	541513	keystroke_Key.space	Key.space	n/a
271.237	0.075	542474	keystroke_t	t	n/a
271.432	0.06	542864	keystroke_e	e	n/a
271.627	0.06	543254	keystroke_s	s	n/a
271.777	0.09	543554	keystroke_t	t	n/a
271.912	0.06	543824	keystroke_i	i	n/a
272.1675	0.089	544335	keystroke_m	m	n/a
272.3925	0.09	544785	keystroke_o	o	n/a
272.5415	0.09	545083	keystroke_n	n	n/a
272.7065	0.075	545413	keystroke_i	i	n/a
272.8715	0.106	545743	keystroke_a	a	n/a
273.0065	0.075	546013	keystroke_l	l	n/a
273.2015	0.06	546403	keystroke_s	s	n/a
273.5315	0.06	547063	keystroke_Key.enter	Key.enter	n/a
273.5955	8.263	547191	prompt	n/a	directories you'll least symphony\n
274.177	0.06	548354	keystroke_d	d	n/a
274.357	0.045	548714	keystroke_e	e	n/a
274.762	0.03	549524	keystroke_Key.backspace	Key.backspace	n/a
274.942	0.06	549884	keystroke_i	i	n/a
275.167	0.06	550334	keystroke_r	r	n/a
275.347	0.06	550694	keystroke_e	e	n/a
275.572	0.075	551144	keystroke_c	c	n/a
275.797	0.06	551594	keystroke_t	t	n/a
276.292	0.075	552584	keystroke_o	o	n/a
276.397	0.105	552794	keystroke_r	r	n/a
276.532	0.075	553064	keystroke_i	i	n/a
276.697	0.075	553394	keystroke_e	e	n/a
276.967	0.09	553934	keystroke_s	s	n/a
277.102	0.075	554204	keystroke_Key.space	Key.space	n/a
277.297	0.12	554594	keystroke_y	y	n/a
277.387	0.135	554774	keystroke_o	o	n/a
277.477	0.12	554954	keystroke_u	u	n/a
277.657	0.09	555314	keystroke_'	'	n/a
278.017	0.03	556034	keystroke_l	l	n/a
278.1365	0.045	556273	keystroke_l	l	n/a
278.4515	0.075	556903	keystroke_Key.space	Key.space	n/a
278.6165	0.09	557233	keystroke_l	l	n/a
278.6915	0.09	557383	keystroke_e	e	n/a
278.8865	0.0605	557773	keystroke_a	a	n/a
279.067	0.0895	558134	keystroke_s	s	n/a
279.2615	0.075	558523	keystroke_t	t	n/a
279.3665	0.09	558733	keystroke_Key.space	Key.space	n/a
279.5015	0.105	559003	keystroke_s	s	n/a
279.6965	0.075	559393	keystroke_y	y	n/a
280.432	0.1195	560864	keystroke_m	m	n/a
280.7165	0.075	561433	keystroke_p	p	n/a
280.9565	0.09	561913	keystroke_h	h	n/a
281.152	0.075	562304	keystroke_o	o	n/a
281.287	0.09	562574	keystroke_n	n	n/a
281.527	0.06	563054	keystroke_y	y	n/a
281.812	0.0445	563624	keystroke_Key.enter	Key.enter	n/a
281.861	6.1775	563722	prompt	n/a	across now cellular trigger\n
282.4865	0.075	564973	keystroke_a	a	n/a
282.6965	0.105	565393	keystroke_c	c	n/a
282.9215	0.075	565843	keystroke_r	r	n/a
283.0565	0.075	566113	keystroke_o	o	n/a
283.1765	0.075	566353	keystroke_s	s	n/a
283.3115	0.09	566623	keystroke_s	s	n/a
283.4315	0.09	566863	keystroke_Key.space	Key.space	n/a
283.5365	0.105	567073	keystroke_n	n	n/a
283.6715	0.09	567343	keystroke_o	o	n/a
283.7465	0.075	567493	keystroke_w	w	n/a
283.8965	0.045	567793	keystroke_Key.space	Key.space	n/a
283.9715	0.09	567943	keystroke_c	c	n/a
284.197	0.045	568394	keystroke_e	e	n/a
284.362	0.06	568724	keystroke_l	l	n/a
284.482	0.1045	568964	keystroke_l	l	n/a
284.6915	0.075	569383	keystroke_u	u	n/a
284.8865	0.12	569773	keystroke_l	l	n/a
284.9915	0.075	569983	keystroke_a	a	n/a
285.1715	0.06	570343	keystroke_r	r	n/a
285.2765	0.075	570553	keystroke_Key.space	Key.space	n/a
285.4265	0.06	570853	keystroke_t	t	n/a
285.5765	0.075	571153	keystroke_r	r	n/a
285.6665	0.09	571333	keystroke_i	i	n/a
285.8165	0.045	571633	keystroke_v	v	n/a
286.192	0.06	572384	keystroke_Key.backspace	Key.backspace	n/a
286.582	0.06	573164	keystroke_g	g	n/a
286.717	0.0745	573434	keystroke_g	g	n/a
286.9115	0.09	573823	keystroke_e	e	n/a
287.1065	0.075	574213	keystroke_r	r	n/a
287.1215	0.015	574243	keystroke_e	e	n/a
287.7365	0.03	575473	keystroke_=	=	n/a
287.9465	0.09	575893	keystroke_Key.enter	Key.enter	n/a
288.0415	8.4865	576083	prompt	n/a	specific voted dogs marcus\n
290.017	0.1195	580034	keystroke_s	s	n/a
290.1515	0.105	580303	keystroke_p	p	n/a
290.2865	0.09	580573	keystroke_e	e	n/a
290.962	0.12	581924	keystroke_c	c	n/a
291.067	0.06	582134	keystroke_i	i	n/a
291.4265	0.09	582853	keystroke_f	f	n/a
291.5465	0.105	583093	keystroke_i	i	n/a
291.6815	0.09	583363	keystroke_c	c	n/a
291.8765	0.105	583753	keystroke_Key.space	Key.space	n/a
292.2215	0.09	584443	keystroke_v	v	n/a
292.3115	0.09	584623	keystroke_o	o	n/a
292.5815	0.075	585163	keystroke_t	t	n/a
292.7615	0.075	585523	keystroke_e	e	n/a
292.9415	0.105	585883	keystroke_d	d	n/a
293.0615	0.09	586123	keystroke_Key.space	Key.space	n/a
293.2265	0.105	586453	keystroke_d	d	n/a
293.3465	0.09	586693	keystroke_o	o	n/a
293.5115	0.135	587023	keystroke_g	g	n/a
293.797	0.09	587594	keystroke_s	s	n/a
294.067	0.1045	588134	keystroke_Key.space	Key.space	n/a
294.4265	0.045	588853	keystroke_a	a	n/a
294.4565	0.09	588913	keystroke_m	m	n/a
294.7715	0.045	589543	keystroke_Key.backspace	Key.backspace	n/a
294.9065	0.06	589813	keystroke_Key.backspace	Key.backspace	n/a
295.147	0.075	590294	keystroke_m	m	n/a
295.282	0.12	590564	keystroke_a	a	n/a
295.507	0.09	591014	keystroke_r	r	n/a
295.807	0.105	591614	keystroke_c	c	n/a
295.927	0.09	591854	keystroke_u	u	n/a
296.077	0.1045	592154	keystroke_s	s	n/a
296.4665	0.06	592933	keystroke_Key.enter	Key.enter	n/a
296.5305	7.9175	593061	prompt	n/a	optimization constitutes nelson lycos\n
297.442	0.12	594884	keystroke_o	o	n/a
297.712	0.09	595424	keystroke_p	p	n/a
297.997	0.12	595994	keystroke_t	t	n/a
298.147	0.0595	596294	keystroke_i	i	n/a
298.3715	0.075	596743	keystroke_m	m	n/a
298.5365	0.075	597073	keystroke_i	i	n/a
298.6565	0.09	597313	keystroke_z	z	n/a
298.8515	0.09	597703	keystroke_a	a	n/a
299.0915	0.105	598183	keystroke_t	t	n/a
299.2265	0.135	598453	keystroke_i	i	n/a
299.3625	0.149	598725	keystroke_o	o	n/a
299.4665	0.135	598933	keystroke_n	n	n/a
299.6025	0.089	599205	keystroke_Key.space	Key.space	n/a
299.7515	0.12	599503	keystroke_c	c	n/a
299.8565	0.0905	599713	keystroke_o	o	n/a
299.902	0.105	599804	keystroke_n	n	n/a
300.022	0.1195	600044	keystroke_s	s	n/a
300.2615	0.075	600523	keystroke_t	t	n/a
300.3515	0.06	600703	keystroke_i	i	n/a
300.6215	0.09	601243	keystroke_t	t	n/a
300.7265	0.075	601453	keystroke_u	u	n/a
301.462	0.075	602924	keystroke_t	t	n/a
301.672	0.075	603344	keystroke_e	e	n/a
301.882	0.105	603764	keystroke_s	s	n/a
302.017	0.0895	604034	keystroke_Key.space	Key.space	n/a
302.3315	0.09	604663	keystroke_n	n	n/a
302.4365	0.06	604873	keystroke_e	e	n/a
302.5565	0.075	605113	keystroke_l	l	n/a
302.722	0.105	605444	keystroke_s	s	n/a
302.962	0.105	605924	keystroke_o	o	n/a
303.157	0.075	606314	keystroke_n	n	n/a
303.292	0.075	606584	keystroke_Key.space	Key.space	n/a
303.442	0.075	606884	keystroke_l	l	n/a
303.637	0.06	607274	keystroke_y	y	n/a
303.832	0.075	607664	keystroke_c	c	n/a
304.027	0.0895	608054	keystroke_o	o	n/a
304.1765	0.105	608353	keystroke_s	s	n/a
304.4025	0.044	608805	keystroke_Key.enter	Key.enter	n/a
304.4585	6.1695	608917	prompt	n/a	audio price titans creativity\n
305.017	0.09	610034	keystroke_a	a	n/a
305.197	0.075	610394	keystroke_u	u	n/a
305.302	0.075	610604	keystroke_d	d	n/a
305.422	0.09	610844	keystroke_i	i	n/a
306.052	0.0895	612104	keystroke_o	o	n/a
306.247	0.0595	612494	keystroke_Key.space	Key.space	n/a
306.4565	0.09	612913	keystroke_p	p	n/a
306.6215	0.09	613243	keystroke_r	r	n/a
306.7715	0.105	613543	keystroke_i	i	n/a
306.9365	0.075	613873	keystroke_c	c	n/a
307.0865	0.135	614173	keystroke_e	e	n/a
307.2065	0.09	614413	keystroke_Key.space	Key.space	n/a
307.3415	0.09	614683	keystroke_t	t	n/a
307.4465	0.0905	614893	keystroke_i	i	n/a
307.522	0.075	615044	keystroke_t	t	n/a
307.7315	0.09	615463	keystroke_a	a	n/a
307.8365	0.09	615673	keystroke_n	n	n/a
307.9865	0.09	615973	keystroke_s	s	n/a
308.1215	0.045	616243	keystroke_Key.space	Key.space	n/a
308.4515	0.06	616903	keystroke_c	c	n/a
308.6315	0.06	617263	keystroke_r	r	n/a
308.7965	0.075	617593	keystroke_e	e	n/a
308.9465	0.075	617893	keystroke_a	a	n/a
309.1415	0.09	618283	keystroke_t	t	n/a
309.2765	0.06	618553	keystroke_i	i	n/a
309.8015	0.09	619603	keystroke_v	v	n/a
309.9515	0.09	619903	keystroke_i	i	n/a
310.0865	0.075	620173	keystroke_t	t	n/a
310.2665	0.06	620533	keystroke_y	y	n/a
310.5665	0.06	621133	keystroke_Key.enter	Key.enter	n/a
310.6305	6.5975	621261	prompt	n/a	humidity greg route killed\n
311.2265	0.09	622453	keystroke_h	h	n/a
311.4215	0.075	622843	keystroke_u	u	n/a
311.6465	0.09	623293	keystroke_m	m	n/a
311.7965	0.0605	623593	keystroke_i	i	n/a
311.932	0.105	623864	keystroke_t	t	n/a
312.3965	0.06	624793	keystroke_Key.backspace	Key.backspace	n/a
312.5165	0.09	625033	keystroke_d	d	n/a
312.6215	0.105	625243	keystroke_i	i	n/a
312.8315	0.09	625663	keystroke_t	t	n/a
312.9515	0.09	625903	keystroke_y	y	n/a
313.1615	0.0755	626323	keystroke_Key.space	Key.space	n/a
313.687	0.075	627374	keystroke_g	g	n/a
313.882	0.075	627764	keystroke_r	r	n/a
314.077	0.06	628154	keystroke_e	e	n/a
314.272	0.045	628544	keystroke_g	g	n/a
314.362	0.105	628724	keystroke_Key.space	Key.space	n/a
315.2615	0.075	630523	keystroke_r	r	n/a
315.4265	0.105	630853	keystroke_o	o	n/a
315.4865	0.075	630973	keystroke_u	u	n/a
315.6065	0.06	631213	keystroke_t	t	n/a
315.7865	0.105	631573	keystroke_e	e	n/a
315.9515	0.075	631903	keystroke_Key.space	Key.space	n/a
316.177	0.075	632354	keystroke_k	k	n/a
316.372	0.06	632744	keystroke_i	i	n/a
316.567	0.045	633134	keystroke_l	l	n/a
316.687	0.09	633374	keystroke_l	l	n/a
316.792	0.06	633584	keystroke_e	e	n/a
316.957	0.105	633914	keystroke_d	d	n/a
317.152	0.075	634304	keystroke_Key.enter	Key.enter	n/a
317.2325	8.2755	634465	prompt	n/a	nike passes indication advertisers\n
317.9465	0.075	635893	keystroke_n	n	n/a
318.097	0.06	636194	keystroke_i	i	n/a
318.352	0.105	636704	keystroke_k	k	n/a
318.487	0.09	636974	keystroke_e	e	n/a
318.637	0.045	637274	keystroke_Key.space	Key.space	n/a
318.742	0.09	637484	keystroke_p	p	n/a
318.817	0.09	637634	keystroke_a	a	n/a
319.042	0.06	638084	keystroke_s	s	n/a
319.177	0.075	638354	keystroke_s	s	n/a
319.357	0.06	638714	keystroke_e	e	n/a
319.522	0.09	639044	keystroke_s	s	n/a
319.627	0.09	639254	keystroke_Key.space	Key.space	n/a
319.807	0.15	639614	keystroke_i	i	n/a
319.912	0.105	639824	keystroke_n	n	n/a
320.032	0.104	640064	keystroke_d	d	n/a
320.167	0.089	640334	keystroke_i	i	n/a
320.272	0.075	640544	keystroke_c	c	n/a
320.451	0.091	640902	keystroke_a	a	n/a
320.677	0.074	641354	keystroke_t	t	n/a
320.796	0.135	641592	keystroke_i	i	n/a
320.902	0.135	641804	keystroke_o	o	n/a
320.976	0.106	641952	keystroke_n	n	n/a
321.1565	0.1055	642313	keystroke_Key.space	Key.space	n/a
321.277	0.0745	642554	keystroke_a	a	n/a
321.4865	0.075	642973	keystroke_d	d	n/a
321.6965	0.06	643393	keystroke_v	v	n/a
321.9215	0.1655	643843	keystroke_s	s	n/a
322.0715	0.0895	644143	keystroke_e	e	n/a
322.7915	0.03	645583	keystroke_Key.backspace	Key.backspace	n/a
323.0465	0.06	646093	keystroke_Key.backspace	Key.backspace	n/a
323.2715	0.105	646543	keystroke_e	e	n/a
323.4215	0.12	646843	keystroke_r	r	n/a
323.7065	0.09	647413	keystroke_t	t	n/a
323.8715	0.09	647743	keystroke_i	i	n/a
324.292	0.105	648584	keystroke_s	s	n/a
324.592	0.135	649184	keystroke_e	e	n/a
324.667	0.12	649334	keystroke_r	r	n/a
324.9815	0.06	649963	keystroke_s	s	n/a
325.446	0.06	650892	keystroke_Key.enter	Key.enter	n/a
325.5105	8.9375	651021	prompt	n/a	hewlett shield cleared indicators\n
326.677	0.075	653354	keystroke_h	h	n/a
326.8565	0.075	653713	keystroke_e	e	n/a
327.052	0.075	654104	keystroke_w	w	n/a
327.292	0.06	654584	keystroke_l	l	n/a
327.367	0.09	654734	keystroke_e	e	n/a
327.637	0.075	655274	keystroke_t	t	n/a
327.802	0.09	655604	keystroke_t	t	n/a
327.937	0.09	655874	keystroke_Key.space	Key.space	n/a
328.087	0.12	656174	keystroke_s	s	n/a
328.222	0.075	656444	keystroke_h	h	n/a
328.387	0.09	656774	keystroke_i	i	n/a
328.507	0.105	657014	keystroke_e	e	n/a
328.642	0.089	657284	keystroke_l	l	n/a
328.851	0.0905	657702	keystroke_d	d	n/a
329.0015	0.09	658003	keystroke_Key.space	Key.space	n/a
329.2265	0.03	658453	keystroke_s	s	n/a
329.5865	0.06	659173	keystroke_Key.backspace	Key.backspace	n/a
329.6915	0.105	659383	keystroke_c	c	n/a
329.8415	0.06	659683	keystroke_l	l	n/a
329.962	0.075	659924	keystroke_e	e	n/a
330.1565	0.06	660313	keystroke_a	a	n/a
330.3665	0.075	660733	keystroke_r	r	n/a
330.5465	0.06	661093	keystroke_e	e	n/a
330.7265	0.075	661453	keystroke_d	d	n/a
330.8315	0.09	661663	keystroke_Key.space	Key.space	n/a
331.0265	0.12	662053	keystroke_i	i	n/a
331.0715	0.12	662143	keystroke_n	n	n/a
331.2815	0.075	662563	keystroke_d	d	n/a
331.3715	0.09	662743	keystroke_i	i	n/a
331.5215	0.075	663043	keystroke_c	c	n/a
331.6865	0.105	663373	keystroke_a	a	n/a
331.9265	0.075	663853	keystroke_t	t	n/a
332.0465	0.09	664093	keystroke_i	i	n/a
332.436	0.03	664872	keystroke_Key.backspace	Key.backspace	n/a
332.616	0.061	665232	keystroke_o	o	n/a
332.677	0.089	665354	keystroke_s	s	n/a
332.932	0.09	665864	keystroke_s	s	n/a
333.337	0.029	666674	keystroke_Key.backspace	Key.backspace	n/a
333.457	0.089	666914	keystroke_Key.backspace	Key.backspace	n/a
333.591	0.121	667182	keystroke_r	r	n/a
334.237	0.135	668474	keystroke_s	s	n/a
334.417	0.03	668834	keystroke_Key.enter	Key.enter	n/a
334.4535	13.9595	668907	prompt	n/a	transportation employer obligations featured\n
336.412	0.09	672824	keystroke_t	t	n/a
336.577	0.09	673154	keystroke_r	r	n/a
336.832	0.075	673664	keystroke_a	a	n/a
336.922	0.09	673844	keystroke_n	n	n/a
337.192	0.105	674384	keystroke_s	s	n/a
337.9415	0.075	675883	keystroke_p	p	n/a
338.0465	0.0755	676093	keystroke_o	o	n/a
338.242	0.09	676484	keystroke_r	r	n/a
338.452	0.06	676904	keystroke_t	t	n/a
338.632	0.105	677264	keystroke_a	a	n/a
338.872	0.09	677744	keystroke_t	t	n/a
339.067	0.135	678134	keystroke_i	i	n/a
339.157	0.135	678314	keystroke_o	o	n/a
339.307	0.0595	678614	keystroke_n	n	n/a
340.2215	0.09	680443	keystroke_Key.space	Key.space	n/a
340.4465	0.09	680893	keystroke_e	e	n/a
340.5665	0.12	681133	keystroke_m	m	n/a
340.8065	0.135	681613	keystroke_p	p	n/a
340.9265	0.075	681853	keystroke_o	o	n/a
341.4515	0.075	682903	keystroke_y	y	n/a
341.7815	0.0905	683563	keystroke_e	e	n/a
341.842	0.09	683684	keystroke_r	r	n/a
342.082	0.09	684164	keystroke_Key.space	Key.space	n/a
342.502	0.105	685004	keystroke_o	o	n/a
342.7115	0.06	685423	keystroke_b	b	n/a
342.9065	0.0605	685813	keystroke_l	l	n/a
343.027	0.1045	686054	keystroke_i	i	n/a
343.327	0.09	686654	keystroke_g	g	n/a
343.522	0.09	687044	keystroke_a	a	n/a
343.732	0.075	687464	keystroke_t	t	n/a
343.837	0.225	687674	keystroke_i	i	n/a
344.047	0.075	688094	keystroke_n	n	n/a
344.092	0.075	688184	keystroke_o	o	n/a
345.067	0.045	690134	keystroke_Key.backspace	Key.backspace	n/a
345.187	0.075	690374	keystroke_Key.backspace	Key.backspace	n/a
345.4565	0.09	690913	keystroke_o	o	n/a
345.5465	0.09	691093	keystroke_n	n	n/a
345.7265	0.09	691453	keystroke_s	s	n/a
345.981	0.045	691962	keystroke_Key.space	Key.space	n/a
346.462	0.105	692924	keystroke_f	f	n/a
346.867	0.09	693734	keystroke_e	e	n/a
347.032	0.09	694064	keystroke_a	a	n/a
347.257	0.075	694514	keystroke_t	t	n/a
347.347	0.06	694694	keystroke_u	u	n/a
347.422	0.075	694844	keystroke_r	r	n/a
347.587	0.06	695174	keystroke_e	e	n/a
347.737	0.0895	695474	keystroke_d	d	n/a
348.3365	0.075	696673	keystroke_Key.enter	Key.enter	n/a
348.4165	6.6115	696833	prompt	n/a	received charlotte return manuals\n
349.147	0.09	698294	keystroke_r	r	n/a
349.342	0.06	698684	keystroke_e	e	n/a
349.5515	0.09	699103	keystroke_c	c	n/a
349.7165	0.105	699433	keystroke_e	e	n/a
349.8815	0.075	699763	keystroke_i	i	n/a
350.0165	0.0745	700033	keystroke_v	v	n/a
350.181	0.06	700362	keystroke_e	e	n/a
350.361	0.06	700722	keystroke_d	d	n/a
350.451	0.075	700902	keystroke_Key.space	Key.space	n/a
350.586	0.075	701172	keystroke_c	c	n/a
350.691	0.0755	701382	keystroke_h	h	n/a
350.7815	0.075	701563	keystroke_a	a	n/a
350.9465	0.075	701893	keystroke_r	r	n/a
351.0365	0.06	702073	keystroke_l	l	n/a
351.1865	0.075	702373	keystroke_o	o	n/a
351.2915	0.0595	702583	keystroke_t	t	n/a
351.5015	0.015	703003	keystroke_t	t	n/a
351.5915	0.09	703183	keystroke_e	e	n/a
351.7415	0.075	703483	keystroke_Key.space	Key.space	n/a
351.8765	0.075	703753	keystroke_r	r	n/a
352.0415	0.06	704083	keystroke_e	e	n/a
352.2065	0.075	704413	keystroke_t	t	n/a
352.2965	0.0605	704593	keystroke_u	u	n/a
352.402	0.09	704804	keystroke_r	r	n/a
352.522	0.075	705044	keystroke_n	n	n/a
352.612	0.105	705224	keystroke_Key.space	Key.space	n/a
352.747	0.0745	705494	keystroke_m	m	n/a
352.8515	0.105	705703	keystroke_a	a	n/a
352.9415	0.075	705883	keystroke_n	n	n/a
353.2565	0.0905	706513	keystroke_a	a	n/a
353.407	0.06	706814	keystroke_l	l	n/a
353.797	0.0445	707594	keystroke_Key.backspace	Key.backspace	n/a
353.8865	0.075	707773	keystroke_Key.backspace	Key.backspace	n/a
354.097	0.06	708194	keystroke_u	u	n/a
354.202	0.075	708404	keystroke_a	a	n/a
354.262	0.075	708524	keystroke_l	l	n/a
354.817	0.06	709634	keystroke_s	s	n/a
355.012	0.015	710024	keystroke_Key.enter	Key.enter	n/a
355.0305	8.458	710061	prompt	n/a	oman dancing adjustment scholars\n
356.001	0.0905	712002	keystroke_o	o	n/a
356.1665	0.075	712333	keystroke_m	m	n/a
356.2565	0.09	712513	keystroke_a	a	n/a
356.3615	0.03	712723	keystroke_n	n	n/a
356.4815	0.0755	712963	keystroke_Key.space	Key.space	n/a
356.8115	0.075	713623	keystroke_d	d	n/a
356.9465	0.09	713893	keystroke_a	a	n/a
357.0515	0.045	714103	keystroke_n	n	n/a
357.4265	0.015	714853	keystroke_g	g	n/a
357.8015	0.045	715603	keystroke_Key.backspace	Key.backspace	n/a
357.8475	0.104	715695	keystroke_c	c	n/a
358.0865	0.0905	716173	keystroke_i	i	n/a
358.1465	0.1055	716293	keystroke_n	n	n/a
358.222	0.075	716444	keystroke_g	g	n/a
358.567	0.06	717134	keystroke_Key.space	Key.space	n/a
359.167	0.075	718334	keystroke_a	a	n/a
359.317	0.09	718634	keystroke_d	d	n/a
359.602	0.09	719204	keystroke_j	j	n/a
359.812	0.075	719624	keystroke_u	u	n/a
360.052	0.0295	720104	keystroke_c	c	n/a
360.3965	0.075	720793	keystroke_Key.backspace	Key.backspace	n/a
360.4265	0.105	720853	keystroke_s	s	n/a
360.6665	0.09	721333	keystroke_t	t	n/a
361.042	0.075	722084	keystroke_m	m	n/a
361.132	0.075	722264	keystroke_e	e	n/a
361.237	0.075	722474	keystroke_n	n	n/a
361.327	0.06	722654	keystroke_t	t	n/a
361.477	0.09	722954	keystroke_Key.space	Key.space	n/a
362.001	0.075	724002	keystroke_s	s	n/a
362.212	0.105	724424	keystroke_c	c	n/a
362.332	0.045	724664	keystroke_h	h	n/a
362.437	0.09	724874	keystroke_o	o	n/a
362.662	0.075	725324	keystroke_l	l	n/a
362.752	0.09	725504	keystroke_a	a	n/a
362.977	0.075	725954	keystroke_r	r	n/a
363.202	0.075	726404	keystroke_s	s	n/a
363.427	0.06	726854	keystroke_Key.enter	Key.enter	n/a
363.4915	7.047	726983	prompt	n/a	carey indexed promptly adaptation\n
364.116	0.076	728232	keystroke_c	c	n/a
364.296	0.091	728592	keystroke_a	a	n/a
364.506	0.075	729012	keystroke_r	r	n/a
364.686	0.09	729372	keystroke_e	e	n/a
364.911	0.1055	729822	keystroke_y	y	n/a
365.0315	0.06	730063	keystroke_Key.space	Key.space	n/a
365.2265	0.135	730453	keystroke_i	i	n/a
365.3315	0.09	730663	keystroke_n	n	n/a
365.4665	0.075	730933	keystroke_d	d	n/a
365.647	0.06	731294	keystroke_e	e	n/a
365.887	0.09	731774	keystroke_x	x	n/a
366.0965	0.06	732193	keystroke_e	e	n/a
366.3065	0.0755	732613	keystroke_d	d	n/a
366.412	0.09	732824	keystroke_Key.space	Key.space	n/a
366.592	0.12	733184	keystroke_p	p	n/a
366.742	0.12	733484	keystroke_r	r	n/a
366.847	0.075	733694	keystroke_o	o	n/a
367.162	0.075	734324	keystroke_m	m	n/a
367.402	0.03	734804	keystroke_p	p	n/a
367.612	0.09	735224	keystroke_t	t	n/a
367.762	0.09	735524	keystroke_l	l	n/a
367.897	0.074	735794	keystroke_y	y	n/a
368.331	0.075	736662	keystroke_Key.space	Key.space	n/a
368.511	0.09	737022	keystroke_a	a	n/a
368.707	0.045	737414	keystroke_d	d	n/a
368.842	0.059	737684	keystroke_a	a	n/a
369.171	0.075	738342	keystroke_p	p	n/a
369.351	0.1055	738702	keystroke_t	t	n/a
369.5915	0.075	739183	keystroke_a	a	n/a
369.8015	0.0745	739603	keystroke_t	t	n/a
369.892	0.164	739784	keystroke_i	i	n/a
369.9665	0.135	739933	keystroke_o	o	n/a
370.041	0.1355	740082	keystroke_n	n	n/a
370.5065	0.03	741013	keystroke_Key.enter	Key.enter	n/a
370.541	7.0775	741082	prompt	n/a	holocaust bare imagination ignore\n
371.197	0.09	742394	keystroke_h	h	n/a
371.317	0.075	742634	keystroke_o	o	n/a
371.497	0.059	742994	keystroke_l	l	n/a
371.647	0.06	743294	keystroke_o	o	n/a
371.887	0.074	743774	keystroke_c	c	n/a
372.081	0.06	744162	keystroke_a	a	n/a
372.232	0.059	744464	keystroke_u	u	n/a
372.396	0.135	744792	keystroke_s	s	n/a
372.501	0.09	745002	keystroke_e	e	n/a
373.026	0.03	746052	keystroke_Key.backspace	Key.backspace	n/a
373.057	0.074	746114	keystroke_t	t	n/a
373.2965	0.075	746593	keystroke_Key.space	Key.space	n/a
373.8815	0.06	747763	keystroke_b	b	n/a
374.0015	0.0755	748003	keystroke_a	a	n/a
374.181	0.075	748362	keystroke_r	r	n/a
374.362	0.074	748724	keystroke_e	e	n/a
374.451	0.09	748902	keystroke_Key.space	Key.space	n/a
374.856	0.075	749712	keystroke_i	i	n/a
375.037	0.075	750074	keystroke_m	m	n/a
375.127	0.059	750254	keystroke_a	a	n/a
375.366	0.105	750732	keystroke_g	g	n/a
375.486	0.075	750972	keystroke_i	i	n/a
375.607	0.09	751214	keystroke_n	n	n/a
375.712	0.075	751424	keystroke_a	a	n/a
375.907	0.09	751814	keystroke_t	t	n/a
376.012	0.15	752024	keystroke_i	i	n/a
376.102	0.15	752204	keystroke_o	o	n/a
376.192	0.12	752384	keystroke_n	n	n/a
376.342	0.075	752684	keystroke_Key.space	Key.space	n/a
376.672	0.075	753344	keystroke_i	i	n/a
376.837	0.075	753674	keystroke_g	g	n/a
377.002	0.06	754004	keystroke_n	n	n/a
377.137	0.09	754274	keystroke_o	o	n/a
377.212	0.0745	754424	keystroke_r	r	n/a
377.3765	0.075	754753	keystroke_e	e	n/a
377.5565	0.06	755113	keystroke_Key.enter	Key.enter	n/a
377.6215	8.6815	755243	prompt	n/a	projectors belts desktops handed\n
378.427	0.075	756854	keystroke_p	p	n/a
378.592	0.0895	757184	keystroke_r	r	n/a
378.7115	0.06	757423	keystroke_o	o	n/a
379.0415	0.09	758083	keystroke_j	j	n/a
379.1615	0.075	758323	keystroke_e	e	n/a
379.3565	0.09	758713	keystroke_c	c	n/a
379.6115	0.06	759223	keystroke_t	t	n/a
379.7015	0.06	759403	keystroke_o	o	n/a
379.8215	0.075	759643	keystroke_r	r	n/a
380.032	0.075	760064	keystroke_s	s	n/a
380.167	0.075	760334	keystroke_Key.space	Key.space	n/a
380.347	0.089	760694	keystroke_b	b	n/a
380.406	0.106	760812	keystroke_e	e	n/a
380.5865	0.075	761173	keystroke_l	l	n/a
380.7215	0.075	761443	keystroke_t	t	n/a
380.9165	0.09	761833	keystroke_s	s	n/a
381.0515	0.09	762103	keystroke_Key.space	Key.space	n/a
381.2765	0.06	762553	keystroke_d	d	n/a
381.4265	0.075	762853	keystroke_e	e	n/a
381.6215	0.105	763243	keystroke_s	s	n/a
381.7715	0.06	763543	keystroke_k	k	n/a
382.0115	0.015	764023	keystroke_p	p	n/a
382.432	0.03	764864	keystroke_Key.backspace	Key.backspace	n/a
382.492	0.105	764984	keystroke_t	t	n/a
382.702	0.105	765404	keystroke_o	o	n/a
382.867	0.06	765734	keystroke_p	p	n/a
383.062	0.045	766124	keystroke_a	a	n/a
383.497	0.06	766994	keystroke_Key.backspace	Key.backspace	n/a
383.542	0.0595	767084	keystroke_s	s	n/a
383.7515	0.06	767503	keystroke_Key.space	Key.space	n/a
384.4265	0.075	768853	keystroke_h	h	n/a
384.5765	0.03	769153	keystroke_a	a	n/a
384.8165	0.075	769633	keystroke_n	n	n/a
384.9665	0.135	769933	keystroke_d	d	n/a
385.6715	0.09	771343	keystroke_e	e	n/a
385.8815	0.09	771763	keystroke_d	d	n/a
386.2265	0.075	772453	keystroke_Key.enter	Key.enter	n/a
386.3105	8.8275	772621	prompt	n/a	lenders registration acrobat rankings\n
388.6295	0.0275	777259	keystroke_l	l	n/a
388.762	0.105	777524	keystroke_e	e	n/a
388.897	0.075	777794	keystroke_n	n	n/a
389.017	0.075	778034	keystroke_d	d	n/a
389.227	0.075	778454	keystroke_e	e	n/a
389.392	0.075	778784	keystroke_r	r	n/a
389.587	0.089	779174	keystroke_s	s	n/a
389.721	0.106	779442	keystroke_Key.space	Key.space	n/a
389.976	0.061	779952	keystroke_r	r	n/a
390.1265	0.0595	780253	keystroke_e	e	n/a
390.3365	0.0895	780673	keystroke_g	g	n/a
390.471	0.0755	780942	keystroke_i	i	n/a
390.6065	0.09	781213	keystroke_s	s	n/a
390.7865	0.075	781573	keystroke_t	t	n/a
390.9665	0.06	781933	keystroke_r	r	n/a
391.1615	0.06	782323	keystroke_a	a	n/a
391.4915	0.105	782983	keystroke_t	t	n/a
391.7465	0.1505	783493	keystroke_i	i	n/a
391.8365	0.135	783673	keystroke_o	o	n/a
391.9265	0.105	783853	keystroke_n	n	n/a
392.1665	0.045	784333	keystroke_Key.space	Key.space	n/a
392.4665	0.06	784933	keystroke_a	a	n/a
392.6915	0.075	785383	keystroke_c	c	n/a
392.9165	0.12	785833	keystroke_r	r	n/a
393.0515	0.075	786103	keystroke_o	o	n/a
393.2015	0.075	786403	keystroke_b	b	n/a
393.2915	0.075	786583	keystroke_a	a	n/a
393.5765	0.0905	787153	keystroke_t	t	n/a
393.727	0.105	787454	keystroke_Key.space	Key.space	n/a
393.922	0.075	787844	keystroke_r	r	n/a
394.1015	0.09	788203	keystroke_a	a	n/a
394.2065	0.075	788413	keystroke_n	n	n/a
394.2965	0.0905	788593	keystroke_k	k	n/a
394.491	0.076	788982	keystroke_i	i	n/a
394.536	0.09	789072	keystroke_n	n	n/a
394.641	0.045	789282	keystroke_g	g	n/a
394.852	0.06	789704	keystroke_s	s	n/a
395.0915	0.0445	790183	keystroke_Key.enter	Key.enter	n/a
395.141	5.457	790282	prompt	n/a	please quality farms northern\n
395.9615	0.12	791923	keystroke_p	p	n/a
396.0365	0.09	792073	keystroke_l	l	n/a
396.1415	0.06	792283	keystroke_e	e	n/a
396.2915	0.06	792583	keystroke_a	a	n/a
396.4715	0.12	792943	keystroke_s	s	n/a
396.5465	0.12	793093	keystroke_e	e	n/a
396.7565	0.075	793513	keystroke_Key.space	Key.space	n/a
397.1315	0.105	794263	keystroke_q	q	n/a
397.3265	0.06	794653	keystroke_u	u	n/a
397.4315	0.105	794863	keystroke_a	a	n/a
397.5815	0.075	795163	keystroke_l	l	n/a
397.732	0.09	795464	keystroke_i	i	n/a
397.852	0.075	795704	keystroke_t	t	n/a
398.002	0.09	796004	keystroke_y	y	n/a
398.107	0.105	796214	keystroke_Key.space	Key.space	n/a
398.347	0.06	796694	keystroke_f	f	n/a
398.542	0.075	797084	keystroke_a	a	n/a
398.692	0.075	797384	keystroke_r	r	n/a
398.782	0.09	797564	keystroke_m	m	n/a
398.902	0.09	797804	keystroke_s	s	n/a
399.022	0.075	798044	keystroke_Key.space	Key.space	n/a
399.232	0.06	798464	keystroke_n	n	n/a
399.367	0.105	798734	keystroke_o	o	n/a
399.487	0.09	798974	keystroke_r	r	n/a
399.697	0.06	799394	keystroke_t	t	n/a
399.772	0.06	799544	keystroke_h	h	n/a
399.877	0.075	799754	keystroke_e	e	n/a
399.907	0.09	799814	keystroke_r	r	n/a
400.162	0.09	800324	keystroke_n	n	n/a
400.5365	0.06	801073	keystroke_Key.enter	Key.enter	n/a
400.601	6.4775	801202	prompt	n/a	valium information eternal construct\n
401.3615	0.09	802723	keystroke_v	v	n/a
401.5115	0.12	803023	keystroke_a	a	n/a
401.6015	0.075	803203	keystroke_l	l	n/a
401.812	0.075	803624	keystroke_i	i	n/a
402.037	0.045	804074	keystroke_u	u	n/a
402.277	0.06	804554	keystroke_m	m	n/a
402.382	0.075	804764	keystroke_Key.space	Key.space	n/a
402.8765	0.045	805753	keystroke_i	i	n/a
403.0565	0.075	806113	keystroke_n	n	n/a
403.327	0.09	806654	keystroke_f	f	n/a
403.432	0.06	806864	keystroke_o	o	n/a
403.5365	0.06	807073	keystroke_r	r	n/a
403.6265	0.06	807253	keystroke_m	m	n/a
403.7315	0.075	807463	keystroke_a	a	n/a
403.9115	0.09	807823	keystroke_t	t	n/a
403.9565	0.165	807913	keystroke_i	i	n/a
404.0465	0.165	808093	keystroke_o	o	n/a
404.1225	0.134	808245	keystroke_n	n	n/a
404.2715	0.075	808543	keystroke_Key.space	Key.space	n/a
404.5115	0.075	809023	keystroke_e	e	n/a
404.706	0.061	809412	keystroke_t	t	n/a
404.8715	0.075	809743	keystroke_e	e	n/a
404.9165	0.09	809833	keystroke_r	r	n/a
405.0365	0.075	810073	keystroke_n	n	n/a
405.1565	0.12	810313	keystroke_a	a	n/a
405.2765	0.09	810553	keystroke_l	l	n/a
405.3815	0.06	810763	keystroke_Key.space	Key.space	n/a
405.5615	0.0895	811123	keystroke_c	c	n/a
405.666	0.136	811332	keystroke_o	o	n/a
405.756	0.09	811512	keystroke_n	n	n/a
405.9815	0.0905	811963	keystroke_s	s	n/a
406.177	0.06	812354	keystroke_t	t	n/a
406.327	0.12	812654	keystroke_r	r	n/a
406.492	0.06	812984	keystroke_u	u	n/a
406.612	0.075	813224	keystroke_c	c	n/a
406.807	0.06	813614	keystroke_t	t	n/a
407.032	0.045	814064	keystroke_Key.enter	Key.enter	n/a
407.0815	7.677	814163	prompt	n/a	comparing nudist formerly influence\n
407.6315	0.105	815263	keystroke_c	c	n/a
407.7965	0.12	815593	keystroke_o	o	n/a
407.8865	0.09	815773	keystroke_m	m	n/a
408.2765	0.06	816553	keystroke_p	p	n/a
408.3515	0.105	816703	keystroke_a	a	n/a
408.5765	0.09	817153	keystroke_r	r	n/a
408.6815	0.135	817363	keystroke_i	i	n/a
408.7865	0.105	817573	keystroke_n	n	n/a
408.8925	0.089	817785	keystroke_g	g	n/a
408.9825	0.074	817965	keystroke_Key.space	Key.space	n/a
409.1915	0.06	818383	keystroke_n	n	n/a
409.3565	0.0455	818713	keystroke_u	u	n/a
409.537	0.06	819074	keystroke_d	d	n/a
409.612	0.075	819224	keystroke_i	i	n/a
409.942	0.0595	819884	keystroke_s	s	n/a
410.1365	0.06	820273	keystroke_t	t	n/a
410.2865	0.075	820573	keystroke_Key.space	Key.space	n/a
410.782	0.09	821564	keystroke_f	f	n/a
410.917	0.06	821834	keystroke_o	o	n/a
410.992	0.075	821984	keystroke_r	r	n/a
411.217	0.06	822434	keystroke_m	m	n/a
411.397	0.105	822794	keystroke_e	e	n/a
411.487	0.09	822974	keystroke_r	r	n/a
411.682	0.06	823364	keystroke_l	l	n/a
411.802	0.06	823604	keystroke_y	y	n/a
411.9515	0.075	823903	keystroke_Key.space	Key.space	n/a
412.2215	0.165	824443	keystroke_i	i	n/a
412.3265	0.106	824653	keystroke_n	n	n/a
412.5665	0.09	825133	keystroke_c	c	n/a
412.6715	0.075	825343	keystroke_l	l	n/a
412.9865	0.045	825973	keystroke_Key.backspace	Key.backspace	n/a
413.0915	0.06	826183	keystroke_Key.backspace	Key.backspace	n/a
413.1525	0.119	826305	keystroke_f	f	n/a
413.3165	0.075	826633	keystroke_l	l	n/a
413.5115	0.075	827023	keystroke_u	u	n/a
413.6765	0.09	827353	keystroke_e	e	n/a
413.7965	0.06	827593	keystroke_n	n	n/a
413.9465	0.075	827893	keystroke_d	d	n/a
414.262	0.045	828524	keystroke_Key.backspace	Key.backspace	n/a
414.322	0.06	828644	keystroke_c	c	n/a
414.502	0.06	829004	keystroke_e	e	n/a
414.742	0.015	829484	keystroke_Key.enter	Key.enter	n/a
414.7635	9.13	829527	prompt	n/a	guarantee microphone synthesis movers\n
415.522	0.105	831044	keystroke_g	g	n/a
415.762	0.045	831524	keystroke_u	u	n/a
415.837	0.119	831674	keystroke_a	a	n/a
416.017	0.075	832034	keystroke_r	r	n/a
416.197	0.075	832394	keystroke_a	a	n/a
416.287	0.06	832574	keystroke_n	n	n/a
416.422	0.09	832844	keystroke_t	t	n/a
416.587	0.105	833174	keystroke_e	e	n/a
416.766	0.1055	833532	keystroke_e	e	n/a
416.9015	0.0895	833803	keystroke_Key.space	Key.space	n/a
417.2175	0.074	834435	keystroke_m	m	n/a
417.3515	0.075	834703	keystroke_i	i	n/a
417.4565	0.09	834913	keystroke_c	c	n/a
417.6965	0.061	835393	keystroke_t	t	n/a
418.2665	0.045	836533	keystroke_Key.backspace	Key.backspace	n/a
418.3265	0.09	836653	keystroke_r	r	n/a
418.702	0.09	837404	keystroke_o	o	n/a
418.987	0.09	837974	keystroke_p	p	n/a
419.2415	0.105	838483	keystroke_h	h	n/a
419.3915	0.135	838783	keystroke_o	o	n/a
419.5715	0.09	839143	keystroke_n	n	n/a
419.7215	0.075	839443	keystroke_e	e	n/a
420.0815	0.09	840163	keystroke_Key.space	Key.space	n/a
420.2615	0.105	840523	keystroke_s	s	n/a
420.3815	0.06	840763	keystroke_y	y	n/a
420.6365	0.06	841273	keystroke_n	n	n/a
420.9665	0.12	841933	keystroke_t	t	n/a
421.1315	0.06	842263	keystroke_h	h	n/a
421.2215	0.075	842443	keystroke_e	e	n/a
421.4465	0.09	842893	keystroke_s	s	n/a
421.6565	0.045	843313	keystroke_s	s	n/a
421.9415	0.045	843883	keystroke_Key.backspace	Key.backspace	n/a
422.152	0.059	844304	keystroke_i	i	n/a
422.242	0.074	844484	keystroke_s	s	n/a
422.332	0.0745	844664	keystroke_Key.space	Key.space	n/a
422.512	0.074	845024	keystroke_m	m	n/a
422.632	0.0895	845264	keystroke_o	o	n/a
422.7815	0.0905	845563	keystroke_t	t	n/a
423.1415	0.0305	846283	keystroke_Key.backspace	Key.backspace	n/a
423.187	0.0595	846374	keystroke_v	v	n/a
423.307	0.135	846614	keystroke_e	e	n/a
423.382	0.12	846764	keystroke_r	r	n/a
423.6215	0.1055	847243	keystroke_s	s	n/a
423.8015	0.09	847603	keystroke_Key.enter	Key.enter	n/a
423.9	8.453	847800	prompt	n/a	fatty brings viewed what'd\n
424.852	0.12	849704	keystroke_f	f	n/a
425.107	0.09	850214	keystroke_a	a	n/a
425.362	0.06	850724	keystroke_t	t	n/a
425.482	0.09	850964	keystroke_t	t	n/a
425.662	0.09	851324	keystroke_y	y	n/a
425.752	0.105	851504	keystroke_Key.space	Key.space	n/a
425.962	0.09	851924	keystroke_b	b	n/a
426.067	0.105	852134	keystroke_r	r	n/a
426.202	0.135	852404	keystroke_i	i	n/a
426.292	0.075	852584	keystroke_n	n	n/a
426.382	0.09	852764	keystroke_g	g	n/a
426.757	0.09	853514	keystroke_s	s	n/a
426.937	0.075	853874	keystroke_Key.space	Key.space	n/a
427.312	0.105	854624	keystroke_v	v	n/a
427.492	0.06	854984	keystroke_i	i	n/a
427.642	0.105	855284	keystroke_e	e	n/a
427.882	0.12	855764	keystroke_w	w	n/a
428.1665	0.075	856333	keystroke_e	e	n/a
428.5265	0.105	857053	keystroke_d	d	n/a
428.6915	0.09	857383	keystroke_Key.space	Key.space	n/a
428.9765	0.045	857953	keystroke_w	w	n/a
429.0965	0.09	858193	keystroke_a	a	n/a
429.3215	0.09	858643	keystroke_t	t	n/a
429.7865	0.045	859573	keystroke_Key.backspace	Key.backspace	n/a
429.9065	0.06	859813	keystroke_Key.backspace	Key.backspace	n/a
430.1465	0.0605	860293	keystroke_h	h	n/a
430.222	0.075	860444	keystroke_a	a	n/a
430.4315	0.09	860863	keystroke_t	t	n/a
430.6415	0.1055	861283	keystroke_'	'	n/a
430.882	0.09	861764	keystroke_s	s	n/a
431.317	0.03	862634	keystroke_Key.backspace	Key.backspace	n/a
431.347	0.06	862694	keystroke_d	d	n/a
431.8115	0.045	863623	keystroke_Key.space	Key.space	n/a
432.307	0.045	864614	keystroke_Key.enter	Key.enter	n/a
432.3555	6.7175	864711	prompt	n/a	mode joseph trainer constraints\n
433.087	0.09	866174	keystroke_m	m	n/a
433.207	0.105	866414	keystroke_o	o	n/a
433.297	0.105	866594	keystroke_d	d	n/a
433.582	0.06	867164	keystroke_e	e	n/a
433.717	0.09	867434	keystroke_Key.space	Key.space	n/a
433.912	0.09	867824	keystroke_j	j	n/a
434.0915	0.12	868183	keystroke_o	o	n/a
434.2265	0.15	868453	keystroke_s	s	n/a
434.3465	0.075	868693	keystroke_e	e	n/a
434.7665	0.075	869533	keystroke_p	p	n/a
434.9015	0.06	869803	keystroke_h	h	n/a
435.1115	0.06	870223	keystroke_Key.space	Key.space	n/a
435.3515	0.075	870703	keystroke_t	t	n/a
435.5015	0.06	871003	keystroke_r	r	n/a
435.6665	0.0905	871333	keystroke_a	a	n/a
435.772	0.105	871544	keystroke_i	i	n/a
435.817	0.12	871634	keystroke_n	n	n/a
436.3865	0.075	872773	keystroke_e	e	n/a
436.4315	0.075	872863	keystroke_r	r	n/a
436.5665	0.105	873133	keystroke_Key.space	Key.space	n/a
436.762	0.105	873524	keystroke_c	c	n/a
436.852	0.135	873704	keystroke_o	o	n/a
436.927	0.105	873854	keystroke_n	n	n/a
437.167	0.105	874334	keystroke_s	s	n/a
437.377	0.105	874754	keystroke_t	t	n/a
437.572	0.075	875144	keystroke_r	r	n/a
437.797	0.165	875594	keystroke_a	a	n/a
437.977	0.06	875954	keystroke_i	i	n/a
438.007	0.1045	876014	keystroke_n	n	n/a
438.2915	0.03	876583	keystroke_t	t	n/a
438.457	0.075	876914	keystroke_s	s	n/a
439.0115	0.06	878023	keystroke_Key.enter	Key.enter	n/a
439.076	6.927	878152	prompt	n/a	witnesses watch retailer bizrate\n
439.6415	0.09	879283	keystroke_w	w	n/a
439.8515	0.09	879703	keystroke_i	i	n/a
440.0015	0.09	880003	keystroke_t	t	n/a
440.2415	0.075	880483	keystroke_n	n	n/a
440.4065	0.09	880813	keystroke_e	e	n/a
440.6465	0.03	881293	keystroke_s	s	n/a
440.7665	0.06	881533	keystroke_s	s	n/a
440.9465	0.045	881893	keystroke_e	e	n/a
441.0965	0.075	882193	keystroke_s	s	n/a
441.2315	0.0905	882463	keystroke_Key.space	Key.space	n/a
441.472	0.075	882944	keystroke_w	w	n/a
441.622	0.09	883244	keystroke_a	a	n/a
441.892	0.09	883784	keystroke_t	t	n/a
442.117	0.09	884234	keystroke_c	c	n/a
442.267	0.075	884534	keystroke_h	h	n/a
442.342	0.105	884684	keystroke_Key.space	Key.space	n/a
442.552	0.075	885104	keystroke_r	r	n/a
442.7465	0.105	885493	keystroke_e	e	n/a
442.9715	0.0755	885943	keystroke_t	t	n/a
443.182	0.1045	886364	keystroke_a	a	n/a
443.6315	0.045	887263	keystroke_i	i	n/a
443.7965	0.06	887593	keystroke_l	l	n/a
443.9315	0.105	887863	keystroke_e	e	n/a
443.9915	0.1055	887983	keystroke_r	r	n/a
444.112	0.06	888224	keystroke_Key.space	Key.space	n/a
444.292	0.06	888584	keystroke_b	b	n/a
444.427	0.09	888854	keystroke_i	i	n/a
444.577	0.15	889154	keystroke_z	z	n/a
445.162	0.09	890324	keystroke_r	r	n/a
445.387	0.09	890774	keystroke_a	a	n/a
445.612	0.045	891224	keystroke_t	t	n/a
445.7165	0.105	891433	keystroke_e	e	n/a
445.9265	0.075	891853	keystroke_Key.enter	Key.enter	n/a
446.007	8.8465	892014	prompt	n/a	hampton dealing brunei mediawiki\n
446.647	0.059	893294	keystroke_h	h	n/a
446.736	0.12	893472	keystroke_a	a	n/a
446.871	0.075	893742	keystroke_m	m	n/a
447.021	0.091	894042	keystroke_p	p	n/a
447.171	0.09	894342	keystroke_t	t	n/a
447.516	0.061	895032	keystroke_o	o	n/a
447.711	0.09	895422	keystroke_n	n	n/a
447.816	0.09	895632	keystroke_Key.space	Key.space	n/a
448.0865	0.06	896173	keystroke_d	d	n/a
448.252	0.045	896504	keystroke_e	e	n/a
448.402	0.09	896804	keystroke_a	a	n/a
448.522	0.075	897044	keystroke_l	l	n/a
448.762	0.105	897524	keystroke_n	n	n/a
449.227	0.075	898454	keystroke_Key.backspace	Key.backspace	n/a
449.482	0.105	898964	keystroke_i	i	n/a
449.542	0.105	899084	keystroke_n	n	n/a
449.647	0.105	899294	keystroke_g	g	n/a
449.752	0.105	899504	keystroke_Key.space	Key.space	n/a
449.902	0.105	899804	keystroke_b	b	n/a
450.022	0.15	900044	keystroke_r	r	n/a
450.142	0.075	900284	keystroke_u	u	n/a
450.487	0.075	900974	keystroke_n	n	n/a
450.607	0.09	901214	keystroke_e	e	n/a
450.7415	0.12	901483	keystroke_i	i	n/a
451.2065	0.045	902413	keystroke_Key.space	Key.space	n/a
451.3415	0.09	902683	keystroke_m	m	n/a
451.4465	0.09	902893	keystroke_e	e	n/a
452.331	0.061	904662	keystroke_i	i	n/a
453.337	0.104	906674	keystroke_Key.backspace	Key.backspace	n/a
453.547	0.1195	907094	keystroke_d	d	n/a
453.6815	0.09	907363	keystroke_i	i	n/a
453.8315	0.105	907663	keystroke_a	a	n/a
454.087	0.075	908174	keystroke_w	w	n/a
454.177	0.045	908354	keystroke_i	i	n/a
454.342	0.06	908684	keystroke_k	k	n/a
454.537	0.06	909074	keystroke_i	i	n/a
454.792	0.06	909584	keystroke_Key.enter	Key.enter	n/a
454.858	4.675	909716	prompt	n/a	bowling several yahoo from\n
455.527	0.09	911054	keystroke_b	b	n/a
455.677	0.09	911354	keystroke_o	o	n/a
455.782	0.105	911564	keystroke_w	w	n/a
455.917	0.045	911834	keystroke_l	l	n/a
456.097	0.104	912194	keystroke_i	i	n/a
456.156	0.105	912312	keystroke_n	n	n/a
456.276	0.076	912552	keystroke_g	g	n/a
456.3665	0.0755	912733	keystroke_Key.space	Key.space	n/a
456.4715	0.15	912943	keystroke_s	s	n/a
456.5615	0.09	913123	keystroke_e	e	n/a
456.7865	0.105	913573	keystroke_v	v	n/a
456.9665	0.12	913933	keystroke_e	e	n/a
457.0415	0.075	914083	keystroke_r	r	n/a
457.5365	0.075	915073	keystroke_a	a	n/a
457.6565	0.1055	915313	keystroke_l	l	n/a
457.762	0.105	915524	keystroke_Key.space	Key.space	n/a
458.047	0.06	916094	keystroke_y	y	n/a
458.137	0.105	916274	keystroke_a	a	n/a
458.227	0.09	916454	keystroke_h	h	n/a
458.362	0.06	916724	keystroke_o	o	n/a
458.512	0.09	917024	keystroke_o	o	n/a
458.617	0.12	917234	keystroke_Key.space	Key.space	n/a
458.722	0.075	917444	keystroke_f	f	n/a
458.902	0.06	917804	keystroke_r	r	n/a
458.977	0.1495	917954	keystroke_o	o	n/a
459.1115	0.075	918223	keystroke_m	m	n/a
459.4715	0.06	918943	keystroke_Key.enter	Key.enter	n/a
459.536	9.687	919072	prompt	n/a	sufficient investments distribution footwear\n
460.2215	0.105	920443	keystroke_s	s	n/a
460.3565	0.09	920713	keystroke_u	u	n/a
460.5965	0.045	921193	keystroke_f	f	n/a
460.7165	0.105	921433	keystroke_f	f	n/a
460.8365	0.09	921673	keystroke_i	i	n/a
461.1965	0.09	922393	keystroke_c	c	n/a
461.3165	0.075	922633	keystroke_i	i	n/a
461.5565	0.075	923113	keystroke_e	e	n/a
461.7065	0.0755	923413	keystroke_n	n	n/a
461.797	0.09	923594	keystroke_t	t	n/a
462.052	0.105	924104	keystroke_Key.space	Key.space	n/a
462.276	0.135	924552	keystroke_i	i	n/a
462.381	0.12	924762	keystroke_n	n	n/a
462.561	0.076	925122	keystroke_v	v	n/a
462.756	0.06	925512	keystroke_e	e	n/a
462.936	0.0755	925872	keystroke_s	s	n/a
463.116	0.06	926232	keystroke_t	t	n/a
463.296	0.075	926592	keystroke_m	m	n/a
463.401	0.075	926802	keystroke_e	e	n/a
463.491	0.09	926982	keystroke_n	n	n/a
463.596	0.06	927192	keystroke_t	t	n/a
463.806	0.1055	927612	keystroke_s	s	n/a
463.987	0.0745	927974	keystroke_Key.space	Key.space	n/a
464.2115	0.0895	928423	keystroke_d	d	n/a
464.511	0.075	929022	keystroke_s	s	n/a
464.871	0.0755	929742	keystroke_Key.backspace	Key.backspace	n/a
465.126	0.0755	930252	keystroke_i	i	n/a
465.2465	0.0745	930493	keystroke_s	s	n/a
465.6515	0.06	931303	keystroke_t	t	n/a
465.8165	0.09	931633	keystroke_r	r	n/a
465.9215	0.06	931843	keystroke_i	i	n/a
466.1615	0.045	932323	keystroke_b	b	n/a
466.2515	0.09	932503	keystroke_u	u	n/a
466.4165	0.06	932833	keystroke_t	t	n/a
466.5215	0.165	933043	keystroke_i	i	n/a
466.6565	0.1645	933313	keystroke_o	o	n/a
466.731	0.12	933462	keystroke_n	n	n/a
467.556	0.075	935112	keystroke_Key.space	Key.space	n/a
467.767	0.134	935534	keystroke_f	f	n/a
467.902	0.029	935804	keystroke_o	o	n/a
468.0965	0.03	936193	keystroke_o	o	n/a
468.1115	0.045	936223	keystroke_t	t	n/a
468.3215	0.09	936643	keystroke_w	w	n/a
468.531	0.0755	937062	keystroke_e	e	n/a
468.7115	0.06	937423	keystroke_a	a	n/a
468.8765	0.075	937753	keystroke_r	r	n/a
469.1165	0.105	938233	keystroke_Key.enter	Key.enter	n/a
469.226	6.267	938452	prompt	n/a	surgery lovers gothic website\n
469.7465	0.09	939493	keystroke_s	s	n/a
469.8665	0.0895	939733	keystroke_u	u	n/a
469.986	0.06	939972	keystroke_r	r	n/a
470.496	0.12	940992	keystroke_g	g	n/a
470.8265	0.105	941653	keystroke_e	e	n/a
470.8715	0.105	941743	keystroke_r	r	n/a
471.3665	0.075	942733	keystroke_y	y	n/a
471.696	0.0905	943392	keystroke_Key.space	Key.space	n/a
471.8315	0.06	943663	keystroke_l	l	n/a
471.9815	0.075	943963	keystroke_o	o	n/a
472.0715	0.135	944143	keystroke_v	v	n/a
472.1915	0.12	944383	keystroke_e	e	n/a
472.2665	0.0905	944533	keystroke_r	r	n/a
472.477	0.134	944954	keystroke_s	s	n/a
472.596	0.06	945192	keystroke_Key.space	Key.space	n/a
472.8965	0.06	945793	keystroke_g	g	n/a
473.3765	0.0905	946753	keystroke_o	o	n/a
473.631	0.061	947262	keystroke_t	t	n/a
473.707	0.06	947414	keystroke_h	h	n/a
473.826	0.091	947652	keystroke_i	i	n/a
474.082	0.09	948164	keystroke_c	c	n/a
474.217	0.104	948434	keystroke_Key.space	Key.space	n/a
474.4415	0.0745	948883	keystroke_w	w	n/a
474.4715	0.1345	948943	keystroke_e	e	n/a
474.621	0.075	949242	keystroke_b	b	n/a
474.7565	0.1045	949513	keystroke_s	s	n/a
474.891	0.06	949782	keystroke_i	i	n/a
475.011	0.075	950022	keystroke_t	t	n/a
475.191	0.09	950382	keystroke_e	e	n/a
475.416	0.075	950832	keystroke_Key.enter	Key.enter	n/a
475.4955	5.7125	950991	prompt	n/a	keep hire punishment opera\n
476.061	0.091	952122	keystroke_k	k	n/a
476.1965	0.0605	952393	keystroke_e	e	n/a
476.347	0.0895	952694	keystroke_e	e	n/a
476.4515	0.1055	952903	keystroke_p	p	n/a
476.5415	0.09	953083	keystroke_Key.space	Key.space	n/a
476.782	0.075	953564	keystroke_h	h	n/a
477.157	0.1045	954314	keystroke_i	i	n/a
477.3365	0.075	954673	keystroke_t	t	n/a
477.8165	0.06	955633	keystroke_Key.backspace	Key.backspace	n/a
477.8615	0.09	955723	keystroke_r	r	n/a
477.9965	0.105	955993	keystroke_e	e	n/a
478.1165	0.0755	956233	keystroke_Key.space	Key.space	n/a
478.5515	0.09	957103	keystroke_p	p	n/a
478.7465	0.06	957493	keystroke_u	u	n/a
478.9715	0.075	957943	keystroke_n	n	n/a
479.1965	0.06	958393	keystroke_i	i	n/a
479.3315	0.135	958663	keystroke_s	s	n/a
479.4215	0.06	958843	keystroke_h	h	n/a
479.661	0.06	959322	keystroke_m	m	n/a
479.737	0.089	959474	keystroke_e	e	n/a
479.841	0.09	959682	keystroke_n	n	n/a
479.976	0.075	959952	keystroke_t	t	n/a
480.0965	0.105	960193	keystroke_Key.space	Key.space	n/a
480.2915	0.135	960583	keystroke_o	o	n/a
480.3965	0.105	960793	keystroke_p	p	n/a
