onset	duration	sample	value	key	prompt_text
1.516	12.539	3032	prompt	n/a	the quick brown fox jumps over a lazy dog\n
5.253	0.087	10506	keystroke_t	t	n/a
5.4045	0.128	10809	keystroke_h	h	n/a
5.5245	0.08	11049	keystroke_e	e	n/a
5.6845	0.104	11369	keystroke_Key.space	Key.space	n/a
6.5	0.08	13000	keystroke_q	q	n/a
6.9005	0.104	13801	keystroke_u	u	n/a
6.9645	0.08	13929	keystroke_i	i	n/a
7.205	0.072	14410	keystroke_c	c	n/a
7.309	0.088	14618	keystroke_k	k	n/a
7.484	0.097	14968	keystroke_Key.space	Key.space	n/a
8.053	0.112	16106	keystroke_b	b	n/a
8.165	0.096	16330	keystroke_r	r	n/a
8.293	0.088	16586	keystroke_o	o	n/a
8.437	0.056	16874	keystroke_w	w	n/a
8.525	0.095	17050	keystroke_n	n	n/a
8.613	0.111	17226	keystroke_Key.space	Key.space	n/a
8.773	0.072	17546	keystroke_f	f	n/a
8.877	0.087	17754	keystroke_o	o	n/a
9.012	0.072	18024	keystroke_x	x	n/a
9.1565	0.112	18313	keystroke_Key.space	Key.space	n/a
9.7645	0.088	19529	keystroke_j	j	n/a
9.956	0.072	19912	keystroke_u	u	n/a
10.148	0.16	20296	keystroke_m	m	n/a
10.276	0.088	20552	keystroke_p	p	n/a
10.492	0.096	20984	keystroke_s	s	n/a
10.66	0.112	21320	keystroke_Key.space	Key.space	n/a
10.8925	0.096	21785	keystroke_o	o	n/a
11.0125	0.08	22025	keystroke_v	v	n/a
11.2365	0.184	22473	keystroke_e	e	n/a
11.3565	0.096	22713	keystroke_r	r	n/a
11.4285	0.096	22857	keystroke_Key.space	Key.space	n/a
11.5645	0.112	23129	keystroke_a	a	n/a
11.6685	0.104	23337	keystroke_Key.space	Key.space	n/a
11.7805	0.088	23561	keystroke_l	l	n/a
11.9165	0.08	23833	keystroke_a	a	n/a
12.1165	0.096	24233	keystroke_z	z	n/a
12.3085	0.072	24617	keystroke_y	y	n/a
12.4445	0.136	24889	keystroke_Key.space	Key.space	n/a
12.6125	0.088	25225	keystroke_d	d	n/a
12.7245	0.104	25449	keystroke_o	o	n/a
12.8765	0.096	25753	keystroke_g	g	n/a
13.9485	0.104	27897	keystroke_Key.enter	Key.enter	n/a
14.0585	5.4995	28117	prompt	n/a	who'll para we kenya\n
15.0445	0.08	30089	keystroke_w	w	n/a
15.1885	0.128	30377	keystroke_h	h	n/a
15.2605	0.08	30521	keystroke_o	o	n/a
15.5005	0.136	31001	keystroke_'	'	n/a
15.7725	0.056	31545	keystroke_l	l	n/a
15.9325	0.072	31865	keystroke_l	l	n/a
16.1405	0.096	32281	keystroke_Key.space	Key.space	n/a
16.5885	0.096	33177	keystroke_p	p	n/a
16.7245	0.064	33449	keystroke_a	a	n/a
17.341	0.111	34682	keystroke_r	r	n/a
17.557	0.08	35114	keystroke_a	a	n/a
17.772	0.089	35544	keystroke_Key.space	Key.space	n/a
18.061	0.127	36122	keystroke_w	w	n/a
18.165	0.056	36330	keystroke_e	e	n/a
18.292	0.081	36584	keystroke_Key.space	Key.space	n/a
18.525	0.087	37050	keystroke_k	k	n/a
18.66	0.056	37320	keystroke_e	e	n/a
18.772	0.088	37544	keystroke_n	n	n/a
19.093	0.088	38186	keystroke_y	y	n/a
19.22	0.08	38440	keystroke_a	a	n/a
19.492	0.065	38984	keystroke_Key.enter	Key.enter	n/a
19.563	9.363	39126	prompt	n/a	attribute symphony belle rebate\n
20.332	0.064	40664	keystroke_a	a	n/a
20.492	0.088	40984	keystroke_t	t	n/a
20.7005	0.0795	41401	keystroke_t	t	n/a
20.852	0.121	41704	keystroke_r	r	n/a
20.964	0.08	41928	keystroke_i	i	n/a
21.5405	0.088	43081	keystroke_b	b	n/a
21.756	0.1125	43512	keystroke_u	u	n/a
21.8605	0.128	43721	keystroke_t	t	n/a
21.9245	0.088	43849	keystroke_e	e	n/a
22.092	0.1045	44184	keystroke_Key.space	Key.space	n/a
22.6765	0.064	45353	keystroke_s	s	n/a
22.8205	0.0485	45641	keystroke_y	y	n/a
23.021	0.135	46042	keystroke_m	m	n/a
23.124	0.113	46248	keystroke_p	p	n/a
23.356	0.105	46712	keystroke_n	n	n/a
23.876	0.056	47752	keystroke_Key.backspace	Key.backspace	n/a
23.981	0.055	47962	keystroke_t	t	n/a
24.444	0.064	48888	keystroke_Key.backspace	Key.backspace	n/a
24.701	0.063	49402	keystroke_h	h	n/a
25.5965	0.088	51193	keystroke_o	o	n/a
25.7965	0.08	51593	keystroke_n	n	n/a
26.004	0.072	52008	keystroke_y	y	n/a
26.132	0.112	52264	keystroke_Key.space	Key.space	n/a
26.9805	0.096	53961	keystroke_b	b	n/a
27.1085	0.064	54217	keystroke_e	e	n/a
27.2125	0.0805	54425	keystroke_l	l	n/a
27.381	0.08	54762	keystroke_l	l	n/a
27.541	0.072	55082	keystroke_e	e	n/a
27.613	0.1035	55226	keystroke_Key.space	Key.space	n/a
27.957	0.144	55914	keystroke_r	r	n/a
28.037	0.088	56074	keystroke_e	e	n/a
28.229	0.12	56458	keystroke_b	b	n/a
28.381	0.088	56762	keystroke_a	a	n/a
28.437	0.176	56874	keystroke_t	t	n/a
28.549	0.088	57098	keystroke_e	e	n/a
28.821	0.103	57642	keystroke_Key.enter	Key.enter	n/a
28.9295	10.2285	57859	prompt	n/a	hungarian bryan ensures director\n
30.716	0.072	61432	keystroke_h	h	n/a
30.9005	0.08	61801	keystroke_u	u	n/a
31.092	0.104	62184	keystroke_n	n	n/a
31.204	0.088	62408	keystroke_g	g	n/a
31.397	0.095	62794	keystroke_a	a	n/a
31.452	0.129	62904	keystroke_r	r	n/a
31.612	0.088	63224	keystroke_i	i	n/a
31.74	0.088	63480	keystroke_a	a	n/a
31.844	0.072	63688	keystroke_n	n	n/a
31.996	0.112	63992	keystroke_Key.space	Key.space	n/a
33.3965	0.152	66793	keystroke_b	b	n/a
33.7405	0.096	67481	keystroke_y	y	n/a
34.2205	0.112	68441	keystroke_r	r	n/a
34.5165	0.064	69033	keystroke_Key.backspace	Key.backspace	n/a
34.6765	0.048	69353	keystroke_Key.backspace	Key.backspace	n/a
34.7085	0.112	69417	keystroke_r	r	n/a
34.94	0.08	69880	keystroke_y	y	n/a
35.4285	0.088	70857	keystroke_a	a	n/a
35.5405	0.08	71081	keystroke_n	n	n/a
35.6685	0.096	71337	keystroke_Key.space	Key.space	n/a
36.2605	0.064	72521	keystroke_e	e	n/a
36.4125	0.096	72825	keystroke_n	n	n/a
36.5325	0.104	73065	keystroke_s	s	n/a
36.7405	0.136	73481	keystroke_u	u	n/a
36.885	0.128	73770	keystroke_r	r	n/a
36.933	0.072	73866	keystroke_e	e	n/a
37.108	0.0725	74216	keystroke_s	s	n/a
37.1965	0.128	74393	keystroke_Key.space	Key.space	n/a
37.6445	0.096	75289	keystroke_d	d	n/a
37.7805	0.104	75561	keystroke_i	i	n/a
38.1805	0.144	76361	keystroke_r	r	n/a
38.2845	0.072	76569	keystroke_e	e	n/a
38.4845	0.064	76969	keystroke_c	c	n/a
38.6925	0.08	77385	keystroke_t	t	n/a
38.7885	0.088	77577	keystroke_o	o	n/a
38.9005	0.088	77801	keystroke_r	r	n/a
39.0765	0.0795	78153	keystroke_Key.enter	Key.enter	n/a
39.1605	7.9815	78321	prompt	n/a	airlines charge allan instrumentation\n
39.949	0.064	79898	keystroke_a	a	n/a
40.237	0.088	80474	keystroke_i	i	n/a
40.349	0.072	80698	keystroke_r	r	n/a
40.453	0.072	80906	keystroke_l	l	n/a
40.629	0.056	81258	keystroke_i	i	n/a
40.757	0.12	81514	keystroke_n	n	n/a
40.861	0.071	81722	keystroke_e	e	n/a
41.02	0.088	82040	keystroke_s	s	n/a
41.116	0.136	82232	keystroke_Key.space	Key.space	n/a
41.268	0.104	82536	keystroke_c	c	n/a
41.412	0.104	82824	keystroke_h	h	n/a
41.517	0.119	83034	keystroke_a	a	n/a
41.604	0.088	83208	keystroke_r	r	n/a
41.852	0.128	83704	keystroke_g	g	n/a
41.924	0.104	83848	keystroke_e	e	n/a
42.02	0.128	84040	keystroke_Key.space	Key.space	n/a
42.156	0.104	84312	keystroke_a	a	n/a
42.276	0.064	84552	keystroke_l	l	n/a
42.436	0.08	84872	keystroke_l	l	n/a
42.572	0.072	85144	keystroke_a	a	n/a
42.66	0.112	85320	keystroke_n	n	n/a
42.764	0.104	85528	keystroke_Key.space	Key.space	n/a
43.0685	0.064	86137	keystroke_i	i	n/a
43.4525	0.096	86905	keystroke_n	n	n/a
43.6445	0.088	87289	keystroke_s	s	n/a
43.8365	0.104	87673	keystroke_t	t	n/a
44.0125	0.12	88025	keystroke_r	r	n/a
44.9325	0.08	89865	keystroke_u	u	n/a
45.1725	0.072	90345	keystroke_m	m	n/a
45.3085	0.096	90617	keystroke_e	e	n/a
45.3965	0.088	90793	keystroke_n	n	n/a
45.5805	0.12	91161	keystroke_t	t	n/a
46.3405	0.048	92681	keystroke_a	a	n/a
46.4925	0.112	92985	keystroke_t	t	n/a
46.6125	0.104	93225	keystroke_i	i	n/a
46.6765	0.08	93353	keystroke_o	o	n/a
46.8445	0.096	93689	keystroke_n	n	n/a
47.0685	0.072	94137	keystroke_Key.enter	Key.enter	n/a
47.145	7.645	94290	prompt	n/a	steam witnesses informed impossible\n
47.9405	0.08	95881	keystroke_s	s	n/a
48.1325	0.144	96265	keystroke_t	t	n/a
48.2365	0.104	96473	keystroke_e	e	n/a
48.4525	0.104	96905	keystroke_a	a	n/a
48.5485	0.136	97097	keystroke_m	m	n/a
48.6765	0.104	97353	keystroke_Key.space	Key.space	n/a
48.8605	0.08	97721	keystroke_w	w	n/a
48.98	0.104	97960	keystroke_i	i	n/a
49.1	0.112	98200	keystroke_t	t	n/a
49.316	0.12	98632	keystroke_n	n	n/a
49.492	0.08	98984	keystroke_e	e	n/a
49.732	0.041	99464	keystroke_s	s	n/a
49.8925	0.072	99785	keystroke_s	s	n/a
50.0765	0.04	100153	keystroke_e	e	n/a
50.2445	0.096	100489	keystroke_s	s	n/a
50.3565	0.112	100713	keystroke_Key.space	Key.space	n/a
50.5725	0.088	101145	keystroke_i	i	n/a
50.7485	0.096	101497	keystroke_n	n	n/a
50.8365	0.112	101673	keystroke_f	f	n/a
51.028	0.16	102056	keystroke_r	r	n/a
51.3	0.088	102600	keystroke_o	o	n/a
51.82	0.048	103640	keystroke_Key.backspace	Key.backspace	n/a
51.972	0.072	103944	keystroke_Key.backspace	Key.backspace	n/a
52.204	0.104	104408	keystroke_o	o	n/a
52.356	0.096	104712	keystroke_r	r	n/a
52.46	0.096	104920	keystroke_m	m	n/a
52.612	0.048	105224	keystroke_e	e	n/a
52.764	0.112	105528	keystroke_d	d	n/a
52.868	0.112	105736	keystroke_Key.space	Key.space	n/a
53.18	0.088	106360	keystroke_i	i	n/a
53.364	0.144	106728	keystroke_m	m	n/a
53.444	0.112	106888	keystroke_p	p	n/a
53.676	0.08	107352	keystroke_o	o	n/a
53.804	0.048	107608	keystroke_s	s	n/a
53.94	0.088	107880	keystroke_s	s	n/a
54.012	0.0885	108024	keystroke_i	i	n/a
54.1875	0.072	108375	keystroke_b	b	n/a
54.3475	0.089	108695	keystroke_l	l	n/a
54.4765	0.079	108953	keystroke_e	e	n/a
54.7075	0.08	109415	keystroke_Key.enter	Key.enter	n/a
54.793	7.742	109586	prompt	n/a	echo dictionaries carmen unsigned\n
55.5965	0.072	111193	keystroke_e	e	n/a
55.8285	0.088	111657	keystroke_c	c	n/a
55.9645	0.12	111929	keystroke_h	h	n/a
56.0365	0.08	112073	keystroke_o	o	n/a
56.2125	0.112	112425	keystroke_Key.space	Key.space	n/a
56.7485	0.096	113497	keystroke_d	d	n/a
56.8685	0.096	113737	keystroke_i	i	n/a
57.0045	0.096	114009	keystroke_c	c	n/a
57.2525	0.136	114505	keystroke_t	t	n/a
57.3965	0.112	114793	keystroke_i	i	n/a
57.4445	0.088	114889	keystroke_o	o	n/a
57.6445	0.096	115289	keystroke_n	n	n/a
57.7885	0.096	115577	keystroke_a	a	n/a
57.8525	0.112	115705	keystroke_r	r	n/a
57.9565	0.096	115913	keystroke_i	i	n/a
58.4125	0.056	116825	keystroke_e	e	n/a
58.5805	0.064	117161	keystroke_s	s	n/a
58.7075	0.105	117415	keystroke_Key.space	Key.space	n/a
59.332	0.048	118664	keystroke_a	a	n/a
59.676	0.072	119352	keystroke_Key.backspace	Key.backspace	n/a
59.716	0.096	119432	keystroke_c	c	n/a
59.8845	0.12	119769	keystroke_a	a	n/a
59.9565	0.12	119913	keystroke_r	r	n/a
60.0685	0.072	120137	keystroke_m	m	n/a
60.3405	0.08	120681	keystroke_e	e	n/a
60.4925	0.048	120985	keystroke_n	n	n/a
60.6045	0.088	121209	keystroke_Key.space	Key.space	n/a
61.308	0.08	122616	keystroke_u	u	n/a
61.516	0.08	123032	keystroke_n	n	n/a
61.652	0.08	123304	keystroke_s	s	n/a
61.756	0.088	123512	keystroke_i	i	n/a
61.884	0.088	123768	keystroke_g	g	n/a
62.028	0.12	124056	keystroke_n	n	n/a
62.14	0.064	124280	keystroke_e	e	n/a
62.3	0.088	124600	keystroke_d	d	n/a
62.436	0.096	124872	keystroke_Key.enter	Key.enter	n/a
62.54	9.1215	125080	prompt	n/a	scheduling effectiveness sees danger\n
63.2605	0.088	126521	keystroke_s	s	n/a
63.4765	0.096	126953	keystroke_c	c	n/a
63.6205	0.079	127241	keystroke_h	h	n/a
64.0285	0.064	128057	keystroke_e	e	n/a
64.2205	0.064	128441	keystroke_d	d	n/a
64.3405	0.08	128681	keystroke_u	u	n/a
64.5005	0.072	129001	keystroke_l	l	n/a
64.6925	0.056	129385	keystroke_i	i	n/a
64.8605	0.0955	129721	keystroke_n	n	n/a
64.98	0.08	129960	keystroke_g	g	n/a
65.06	0.136	130120	keystroke_Key.space	Key.space	n/a
65.188	0.064	130376	keystroke_e	e	n/a
65.364	0.072	130728	keystroke_f	f	n/a
65.556	0.104	131112	keystroke_f	f	n/a
65.74	0.168	131480	keystroke_e	e	n/a
65.828	0.12	131656	keystroke_c	c	n/a
66.068	0.088	132136	keystroke_t	t	n/a
66.196	0.104	132392	keystroke_i	i	n/a
66.34	0.088	132680	keystroke_v	v	n/a
66.804	0.064	133608	keystroke_e	e	n/a
66.996	0.1125	133992	keystroke_n	n	n/a
67.164	0.072	134328	keystroke_e	e	n/a
67.668	0.048	135336	keystroke_e	e	n/a
67.852	0.04	135704	keystroke_s	s	n/a
68.124	0.048	136248	keystroke_Key.backspace	Key.backspace	n/a
68.268	0.064	136536	keystroke_Key.backspace	Key.backspace	n/a
68.348	0.04	136696	keystroke_s	s	n/a
68.5	0.064	137000	keystroke_s	s	n/a
68.772	0.12	137544	keystroke_Key.space	Key.space	n/a
69.2835	0.096	138567	keystroke_s	s	n/a
69.4915	0.048	138983	keystroke_e	e	n/a
69.6755	0.056	139351	keystroke_e	e	n/a
69.8435	0.0805	139687	keystroke_s	s	n/a
69.98	0.104	139960	keystroke_Key.space	Key.space	n/a
70.492	0.104	140984	keystroke_d	d	n/a
70.716	0.096	141432	keystroke_a	a	n/a
70.868	0.096	141736	keystroke_n	n	n/a
71.004	0.1515	142008	keystroke_g	g	n/a
71.2595	0.136	142519	keystroke_e	e	n/a
71.3475	0.104	142695	keystroke_r	r	n/a
71.5555	0.104	143111	keystroke_Key.enter	Key.enter	n/a
71.664	8.045	143328	prompt	n/a	vegetable possess query manual\n
72.4515	0.12	144903	keystroke_v	v	n/a
72.6755	0.072	145351	keystroke_e	e	n/a
72.9315	0.1205	145863	keystroke_g	g	n/a
73.244	0.087	146488	keystroke_e	e	n/a
73.499	0.104	146998	keystroke_t	t	n/a
73.707	0.096	147414	keystroke_a	a	n/a
73.811	0.08	147622	keystroke_b	b	n/a
73.972	0.096	147944	keystroke_l	l	n/a
74.092	0.087	148184	keystroke_e	e	n/a
74.172	0.143	148344	keystroke_Key.space	Key.space	n/a
74.308	0.096	148616	keystroke_p	p	n/a
74.516	0.087	149032	keystroke_o	o	n/a
74.972	0.136	149944	keystroke_o	o	n/a
75.42	0.048	150840	keystroke_Key.backspace	Key.backspace	n/a
75.508	0.048	151016	keystroke_s	s	n/a
75.66	0.08	151320	keystroke_s	s	n/a
75.836	0.096	151672	keystroke_e	e	n/a
76.012	0.088	152024	keystroke_s	s	n/a
76.18	0.072	152360	keystroke_s	s	n/a
76.26	0.128	152520	keystroke_Key.space	Key.space	n/a
76.876	0.08	153752	keystroke_q	q	n/a
77.267	0.104	154534	keystroke_u	u	n/a
77.595	0.137	155190	keystroke_e	e	n/a
77.699	0.12	155398	keystroke_r	r	n/a
77.9	0.096	155800	keystroke_y	y	n/a
78.091	0.104	156182	keystroke_Key.space	Key.space	n/a
78.66	0.095	157320	keystroke_m	m	n/a
78.819	0.081	157638	keystroke_a	a	n/a
78.932	0.056	157864	keystroke_n	n	n/a
79.1235	0.104	158247	keystroke_u	u	n/a
79.2835	0.072	158567	keystroke_a	a	n/a
79.3955	0.088	158791	keystroke_l	l	n/a
79.6035	0.104	159207	keystroke_Key.enter	Key.enter	n/a
79.712	16.669	159424	prompt	n/a	poker fitting jimmy brooklyn\n
80.444	0.088	160888	keystroke_p	p	n/a
80.692	0.088	161384	keystroke_o	o	n/a
80.94	0.104	161880	keystroke_k	k	n/a
81.092	0.144	162184	keystroke_e	e	n/a
81.188	0.096	162376	keystroke_r	r	n/a
81.268	0.112	162536	keystroke_Key.space	Key.space	n/a
81.612	0.112	163224	keystroke_f	f	n/a
81.732	0.08	163464	keystroke_i	i	n/a
81.86	0.064	163720	keystroke_t	t	n/a
82.019	0.105	164038	keystroke_t	t	n/a
82.132	0.072	164264	keystroke_i	i	n/a
82.284	0.128	164568	keystroke_n	n	n/a
82.436	0.072	164872	keystroke_g	g	n/a
82.524	0.104	165048	keystroke_Key.space	Key.space	n/a
85.948	0.064	171896	keystroke_j	j	n/a
86.356	0.088	172712	keystroke_i	i	n/a
86.612	0.064	173224	keystroke_m	m	n/a
86.772	0.064	173544	keystroke_m	m	n/a
86.98	0.072	173960	keystroke_y	y	n/a
87.116	0.096	174232	keystroke_Key.space	Key.space	n/a
88.371	0.056	176742	keystroke_g	g	n/a
88.8195	0.048	177639	keystroke_Key.f12	Key.f12	n/a
89.4355	0.072	178871	keystroke_Key.f12	Key.f12	n/a
91.3235	0.096	182647	keystroke_Key.backspace	Key.backspace	n/a
91.9555	0.088	183911	keystroke_b	b	n/a
92.1395	0.08	184279	keystroke_r	r	n/a
92.3395	0.096	184679	keystroke_r	r	n/a
92.4675	0.08	184935	keystroke_o	o	n/a
92.6595	0.088	185319	keystroke_k	k	n/a
92.8515	0.072	185703	keystroke_l	l	n/a
93.2275	0.048	186455	keystroke_Key.backspace	Key.backspace	n/a
93.3955	0.056	186791	keystroke_Key.backspace	Key.backspace	n/a
93.5635	0.08	187127	keystroke_Key.backspace	Key.backspace	n/a
93.7475	0.088	187495	keystroke_Key.backspace	Key.backspace	n/a
94.7075	0.072	189415	keystroke_o	o	n/a
94.891	0.0645	189782	keystroke_o	o	n/a
95.0675	0.088	190135	keystroke_k	k	n/a
95.228	0.0795	190456	keystroke_l	l	n/a
95.4275	0.064	190855	keystroke_y	y	n/a
95.6115	0.096	191223	keystroke_n	n	n/a
96.2835	0.096	192567	keystroke_Key.enter	Key.enter	n/a
96.3845	6.733	192769	prompt	n/a	education bias someone's expo\n
97.2355	0.064	194471	keystroke_e	e	n/a
97.4515	0.096	194903	keystroke_d	d	n/a
97.6355	0.088	195271	keystroke_u	u	n/a
97.7315	0.08	195463	keystroke_c	c	n/a
97.9235	0.112	195847	keystroke_a	a	n/a
98.0035	0.104	196007	keystroke_t	t	n/a
98.0595	0.112	196119	keystroke_i	i	n/a
98.1395	0.088	196279	keystroke_o	o	n/a
98.3395	0.088	196679	keystroke_n	n	n/a
98.4675	0.104	196935	keystroke_Key.space	Key.space	n/a
98.8835	0.04	197767	keystroke_b	b	n/a
99.0515	0.0965	198103	keystroke_i	i	n/a
99.212	0.12	198424	keystroke_a	a	n/a
99.276	0.088	198552	keystroke_s	s	n/a
99.38	0.112	198760	keystroke_Key.space	Key.space	n/a
100.0195	0.104	200039	keystroke_s	s	n/a
100.1635	0.08	200327	keystroke_o	o	n/a
100.3235	0.104	200647	keystroke_m	m	n/a
100.4675	0.096	200935	keystroke_e	e	n/a
100.5795	0.072	201159	keystroke_o	o	n/a
100.7395	0.104	201479	keystroke_n	n	n/a
100.9555	0.088	201911	keystroke_e	e	n/a
101.0835	0.104	202167	keystroke_'	'	n/a
101.2115	0.08	202423	keystroke_s	s	n/a
101.3635	0.072	202727	keystroke_Key.space	Key.space	n/a
102.251	0.08	204502	keystroke_e	e	n/a
102.459	0.088	204918	keystroke_x	x	n/a
102.587	0.088	205174	keystroke_p	p	n/a
102.771	0.072	205542	keystroke_o	o	n/a
103.027	0.088	206054	keystroke_Key.enter	Key.enter	n/a
103.12	6.437	206240	prompt	n/a	price allow swimming earlier\n
103.9475	0.152	207895	keystroke_p	p	n/a
104.1475	0.096	208295	keystroke_r	r	n/a
104.2835	0.104	208567	keystroke_i	i	n/a
104.3885	0.159	208777	keystroke_c	c	n/a
104.4835	0.112	208967	keystroke_e	e	n/a
104.5715	0.104	209143	keystroke_Key.space	Key.space	n/a
104.7235	0.112	209447	keystroke_a	a	n/a
104.8115	0.0805	209623	keystroke_l	l	n/a
104.988	0.072	209976	keystroke_l	l	n/a
105.323	0.04	210646	keystroke_w	w	n/a
105.827	0.072	211654	keystroke_Key.backspace	Key.backspace	n/a
106.115	0.056	212230	keystroke_o	o	n/a
106.275	0.08	212550	keystroke_w	w	n/a
106.451	0.112	212902	keystroke_Key.space	Key.space	n/a
106.923	0.096	213846	keystroke_s	s	n/a
107.179	0.08	214358	keystroke_w	w	n/a
107.299	0.072	214598	keystroke_i	i	n/a
107.491	0.064	214982	keystroke_m	m	n/a
107.667	0.112	215334	keystroke_m	m	n/a
107.851	0.08	215702	keystroke_i	i	n/a
108.027	0.104	216054	keystroke_n	n	n/a
108.155	0.096	216310	keystroke_g	g	n/a
108.275	0.104	216550	keystroke_Key.space	Key.space	n/a
108.515	0.088	217030	keystroke_e	e	n/a
108.731	0.072	217462	keystroke_a	a	n/a
108.795	0.104	217590	keystroke_r	r	n/a
108.875	0.08	217750	keystroke_l	l	n/a
109.099	0.0805	218198	keystroke_i	i	n/a
109.107	0.1205	218214	keystroke_e	e	n/a
109.2035	0.144	218407	keystroke_r	r	n/a
109.4515	0.104	218903	keystroke_Key.enter	Key.enter	n/a
109.56	9.245	219120	prompt	n/a	redeem vocals shop cable\n
110.571	0.168	221142	keystroke_r	r	n/a
110.667	0.096	221334	keystroke_e	e	n/a
110.923	0.096	221846	keystroke_d	d	n/a
111.7875	0.064	223575	keystroke_e	e	n/a
111.9555	0.072	223911	keystroke_e	e	n/a
112.6115	0.048	225223	keystroke_n	n	n/a
112.9795	0.064	225959	keystroke_Key.backspace	Key.backspace	n/a
113.8755	0.072	227751	keystroke_m	m	n/a
114.0435	0.08	228087	keystroke_Key.space	Key.space	n/a
115.059	0.072	230118	keystroke_v	v	n/a
115.2275	0.096	230455	keystroke_o	o	n/a
115.3635	0.112	230727	keystroke_c	c	n/a
115.4915	0.112	230983	keystroke_a	a	n/a
115.5555	0.096	231111	keystroke_l	l	n/a
115.7155	0.088	231431	keystroke_s	s	n/a
115.8995	0.088	231799	keystroke_Key.space	Key.space	n/a
116.4035	0.072	232807	keystroke_s	s	n/a
116.5875	0.08	233175	keystroke_h	h	n/a
116.8035	0.168	233607	keystroke_o	o	n/a
116.8915	0.104	233783	keystroke_p	p	n/a
117.0275	0.12	234055	keystroke_Key.space	Key.space	n/a
117.1315	0.1285	234263	keystroke_c	c	n/a
117.307	0.08	234614	keystroke_o	o	n/a
117.443	0.065	234886	keystroke_a	a	n/a
117.739	0.048	235478	keystroke_Key.backspace	Key.backspace	n/a
117.915	0.064	235830	keystroke_Key.backspace	Key.backspace	n/a
118.091	0.104	236182	keystroke_a	a	n/a
118.283	0.08	236566	keystroke_b	b	n/a
118.46	0.079	236920	keystroke_l	l	n/a
118.579	0.072	237158	keystroke_e	e	n/a
118.715	0.088	237430	keystroke_Key.enter	Key.enter	n/a
118.808	7.357	237616	prompt	n/a	adjacent poetry dead buttons\n
119.619	0.088	239238	keystroke_a	a	n/a
119.787	0.152	239574	keystroke_d	d	n/a
120.011	0.16	240022	keystroke_j	j	n/a
120.331	0.088	240662	keystroke_a	a	n/a
120.539	0.129	241078	keystroke_c	c	n/a
120.699	0.104	241398	keystroke_e	e	n/a
120.963	0.0965	241926	keystroke_t	t	n/a
121.7715	0.064	243543	keystroke_Key.backspace	Key.backspace	n/a
122.0115	0.096	244023	keystroke_n	n	n/a
122.1395	0.104	244279	keystroke_t	t	n/a
122.2355	0.096	244471	keystroke_Key.space	Key.space	n/a
122.8355	0.096	245671	keystroke_p	p	n/a
123.0435	0.104	246087	keystroke_o	o	n/a
123.1315	0.096	246263	keystroke_e	e	n/a
123.2675	0.104	246535	keystroke_t	t	n/a
123.4595	0.088	246919	keystroke_r	r	n/a
123.5635	0.104	247127	keystroke_y	y	n/a
123.6505	0.12	247301	keystroke_Key.space	Key.space	n/a
124.3475	0.096	248695	keystroke_d	d	n/a
124.5715	0.064	249143	keystroke_e	e	n/a
124.7235	0.12	249447	keystroke_a	a	n/a
124.7875	0.1205	249575	keystroke_d	d	n/a
124.915	0.096	249830	keystroke_Key.space	Key.space	n/a
125.099	0.072	250198	keystroke_b	b	n/a
125.3075	0.064	250615	keystroke_u	u	n/a
125.3955	0.032	250791	keystroke_t	t	n/a
125.5395	0.096	251079	keystroke_t	t	n/a
125.6515	0.08	251303	keystroke_o	o	n/a
125.8115	0.096	251623	keystroke_n	n	n/a
125.9155	0.088	251831	keystroke_s	s	n/a
126.0675	0.096	252135	keystroke_Key.enter	Key.enter	n/a
126.1685	8.02	252337	prompt	n/a	network model physically boolean\n
126.859	0.104	253718	keystroke_n	n	n/a
127.003	0.104	254006	keystroke_e	e	n/a
127.443	0.128	254886	keystroke_t	t	n/a
127.675	0.088	255350	keystroke_w	w	n/a
127.803	0.104	255606	keystroke_o	o	n/a
127.971	0.104	255942	keystroke_r	r	n/a
128.067	0.104	256134	keystroke_k	k	n/a
128.211	0.104	256422	keystroke_Key.space	Key.space	n/a
128.427	0.112	256854	keystroke_m	m	n/a
128.523	0.128	257046	keystroke_o	o	n/a
128.659	0.072	257318	keystroke_d	d	n/a
128.843	0.056	257686	keystroke_e	e	n/a
128.971	0.08	257942	keystroke_l	l	n/a
129.123	0.08	258246	keystroke_Key.space	Key.space	n/a
129.227	0.088	258454	keystroke_p	p	n/a
129.763	0.1195	259526	keystroke_h	h	n/a
130.1155	0.104	260231	keystroke_y	y	n/a
130.3395	0.088	260679	keystroke_s	s	n/a
130.5875	0.112	261175	keystroke_i	i	n/a
130.7075	0.136	261415	keystroke_c	c	n/a
130.8825	0.121	261765	keystroke_a	a	n/a
130.9705	0.088	261941	keystroke_l	l	n/a
131.1385	0.08	262277	keystroke_l	l	n/a
131.4905	0.104	262981	keystroke_y	y	n/a
131.683	0.0955	263366	keystroke_Key.space	Key.space	n/a
132.0905	0.08	264181	keystroke_b	b	n/a
132.4425	0.064	264885	keystroke_o	o	n/a
132.6025	0.072	265205	keystroke_o	o	n/a
132.7785	0.12	265557	keystroke_l	l	n/a
132.8995	0.071	265799	keystroke_e	e	n/a
133.0825	0.096	266165	keystroke_a	a	n/a
133.1795	0.079	266359	keystroke_n	n	n/a
134.0985	0.088	268197	keystroke_Key.enter	Key.enter	n/a
134.1915	8.621	268383	prompt	n/a	realize launch bullet donation\n
136.3705	0.16	272741	keystroke_r	r	n/a
136.4505	0.088	272901	keystroke_e	e	n/a
136.6425	0.088	273285	keystroke_a	a	n/a
136.7225	0.064	273445	keystroke_l	l	n/a
136.8985	0.12	273797	keystroke_i	i	n/a
137.0105	0.064	274021	keystroke_z	z	n/a
137.347	0.088	274694	keystroke_e	e	n/a
137.459	0.104	274918	keystroke_Key.space	Key.space	n/a
138.227	0.08	276454	keystroke_l	l	n/a
138.443	0.072	276886	keystroke_a	a	n/a
138.603	0.08	277206	keystroke_u	u	n/a
138.875	0.112	277750	keystroke_n	n	n/a
139.067	0.104	278134	keystroke_c	c	n/a
139.235	0.0875	278470	keystroke_h	h	n/a
139.3625	0.104	278725	keystroke_Key.space	Key.space	n/a
140.027	0.08	280054	keystroke_b	b	n/a
140.243	0.08	280486	keystroke_u	u	n/a
140.427	0.088	280854	keystroke_l	l	n/a
140.603	0.104	281206	keystroke_l	l	n/a
140.747	0.088	281494	keystroke_e	e	n/a
140.931	0.08	281862	keystroke_t	t	n/a
140.987	0.104	281974	keystroke_Key.space	Key.space	n/a
141.6425	0.112	283285	keystroke_d	d	n/a
141.7785	0.096	283557	keystroke_o	o	n/a
141.9545	0.096	283909	keystroke_n	n	n/a
142.0825	0.096	284165	keystroke_a	a	n/a
142.1625	0.112	284325	keystroke_t	t	n/a
142.2345	0.112	284469	keystroke_i	i	n/a
142.3145	0.08	284629	keystroke_o	o	n/a
142.4985	0.081	284997	keystroke_n	n	n/a
142.7305	0.08	285461	keystroke_Key.enter	Key.enter	n/a
142.816	8.34	285632	prompt	n/a	mouse occasion cancellation caution\n
143.5225	0.096	287045	keystroke_m	m	n/a
143.6985	0.152	287397	keystroke_o	o	n/a
143.7865	0.128	287573	keystroke_u	u	n/a
143.9225	0.16	287845	keystroke_s	s	n/a
143.9945	0.096	287989	keystroke_e	e	n/a
144.0665	0.12	288133	keystroke_Key.space	Key.space	n/a
144.2585	0.112	288517	keystroke_o	o	n/a
144.3945	0.064	288789	keystroke_c	c	n/a
144.5545	0.128	289109	keystroke_c	c	n/a
144.7465	0.128	289493	keystroke_a	a	n/a
144.8105	0.1365	289621	keystroke_s	s	n/a
145.043	0.136	290086	keystroke_i	i	n/a
145.139	0.088	290278	keystroke_o	o	n/a
145.339	0.072	290678	keystroke_n	n	n/a
145.507	0.128	291014	keystroke_Key.space	Key.space	n/a
146.051	0.136	292102	keystroke_c	c	n/a
146.227	0.112	292454	keystroke_a	a	n/a
146.363	0.088	292726	keystroke_n	n	n/a
146.507	0.088	293014	keystroke_e	e	n/a
147.258	0.073	294516	keystroke_Key.backspace	Key.backspace	n/a
147.323	0.1195	294646	keystroke_c	c	n/a
147.3945	0.112	294789	keystroke_e	e	n/a
147.5465	0.064	295093	keystroke_l	l	n/a
147.7225	0.088	295445	keystroke_l	l	n/a
148.2425	0.152	296485	keystroke_a	a	n/a
148.3635	0.127	296727	keystroke_t	t	n/a
148.4505	0.12	296901	keystroke_i	i	n/a
148.5305	0.08	297061	keystroke_o	o	n/a
148.7225	0.072	297445	keystroke_n	n	n/a
148.8585	0.12	297717	keystroke_Key.space	Key.space	n/a
149.579	0.136	299158	keystroke_c	c	n/a
149.747	0.12	299494	keystroke_a	a	n/a
149.8905	0.096	299781	keystroke_u	u	n/a
150.3065	0.08	300613	keystroke_t	t	n/a
150.5625	0.12	301125	keystroke_i	i	n/a
150.6505	0.088	301301	keystroke_o	o	n/a
150.8265	0.088	301653	keystroke_n	n	n/a
151.0905	0.064	302181	keystroke_Key.enter	Key.enter	n/a
151.162	8.578	302324	prompt	n/a	naked concrete horse bruce\n
152.211	0.08	304422	keystroke_n	n	n/a
152.467	0.096	304934	keystroke_a	a	n/a
152.691	0.112	305382	keystroke_k	k	n/a
152.883	0.08	305766	keystroke_e	e	n/a
153.179	0.088	306358	keystroke_d	d	n/a
153.323	0.1195	306646	keystroke_Key.space	Key.space	n/a
153.9065	0.12	307813	keystroke_c	c	n/a
154.0105	0.072	308021	keystroke_o	o	n/a
154.1945	0.096	308389	keystroke_n	n	n/a
154.2745	0.112	308549	keystroke_c	c	n/a
154.5145	0.152	309029	keystroke_r	r	n/a
154.6185	0.128	309237	keystroke_e	e	n/a
154.8745	0.1925	309749	keystroke_t	t	n/a
154.987	0.104	309974	keystroke_e	e	n/a
155.571	0.112	311142	keystroke_Key.space	Key.space	n/a
156.131	0.08	312262	keystroke_h	h	n/a
156.315	0.136	312630	keystroke_o	o	n/a
156.515	0.096	313030	keystroke_r	r	n/a
156.723	0.192	313446	keystroke_s	s	n/a
156.827	0.104	313654	keystroke_e	e	n/a
156.979	0.128	313958	keystroke_Key.space	Key.space	n/a
157.715	0.096	315430	keystroke_r	r	n/a
158.235	0.072	316470	keystroke_Key.backspace	Key.backspace	n/a
158.435	0.096	316870	keystroke_b	b	n/a
158.7945	0.112	317589	keystroke_r	r	n/a
158.9465	0.104	317893	keystroke_u	u	n/a
159.0905	0.1685	318181	keystroke_c	c	n/a
159.219	0.104	318438	keystroke_e	e	n/a
159.634	0.104	319268	keystroke_Key.enter	Key.enter	n/a
159.7445	9.1235	319489	prompt	n/a	animal elsewhere service disorder\n
161.507	0.136	323014	keystroke_a	a	n/a
161.682	0.089	323364	keystroke_n	n	n/a
161.867	0.072	323734	keystroke_i	i	n/a
162.027	0.12	324054	keystroke_m	m	n/a
162.203	0.111	324406	keystroke_a	a	n/a
162.323	0.096	324646	keystroke_l	l	n/a
162.531	0.088	325062	keystroke_Key.space	Key.space	n/a
163.219	0.088	326438	keystroke_e	e	n/a
163.4345	0.12	326869	keystroke_l	l	n/a
163.6825	0.128	327365	keystroke_s	s	n/a
163.8905	0.128	327781	keystroke_e	e	n/a
164.3065	0.096	328613	keystroke_w	w	n/a
164.4905	0.088	328981	keystroke_h	h	n/a
164.5865	0.128	329173	keystroke_e	e	n/a
164.7305	0.152	329461	keystroke_r	r	n/a
164.8265	0.0645	329653	keystroke_e	e	n/a
165.027	0.12	330054	keystroke_Key.space	Key.space	n/a
165.747	0.16	331494	keystroke_s	s	n/a
165.842	0.176	331684	keystroke_e	e	n/a
165.963	0.08	331926	keystroke_r	r	n/a
166.235	0.064	332470	keystroke_v	v	n/a
166.347	0.111	332694	keystroke_i	i	n/a
166.467	0.128	332934	keystroke_c	c	n/a
166.53	0.112	333060	keystroke_e	e	n/a
166.722	0.136	333444	keystroke_Key.space	Key.space	n/a
167.267	0.104	334534	keystroke_d	d	n/a
167.394	0.1045	334788	keystroke_i	i	n/a
167.5705	0.088	335141	keystroke_s	s	n/a
167.7305	0.128	335461	keystroke_o	o	n/a
167.8745	0.096	335749	keystroke_r	r	n/a
168.0985	0.096	336197	keystroke_d	d	n/a
168.2985	0.128	336597	keystroke_e	e	n/a
168.3785	0.104	336757	keystroke_r	r	n/a
168.7705	0.096	337541	keystroke_Key.enter	Key.enter	n/a
168.8735	8.2265	337747	prompt	n/a	guitars jungle weapon adults\n
169.867	0.0955	339734	keystroke_g	g	n/a
170.0425	0.16	340085	keystroke_u	u	n/a
170.1385	0.12	340277	keystroke_i	i	n/a
170.5945	0.128	341189	keystroke_t	t	n/a
170.8425	0.104	341685	keystroke_a	a	n/a
170.9145	0.104	341829	keystroke_r	r	n/a
171.1225	0.096	342245	keystroke_s	s	n/a
171.7385	0.096	343477	keystroke_Key.space	Key.space	n/a
172.0265	0.096	344053	keystroke_j	j	n/a
172.2425	0.04	344485	keystroke_u	u	n/a
172.4025	0.096	344805	keystroke_n	n	n/a
172.5145	0.096	345029	keystroke_g	g	n/a
172.7385	0.088	345477	keystroke_l	l	n/a
172.8665	0.096	345733	keystroke_e	e	n/a
172.9945	0.088	345989	keystroke_Key.space	Key.space	n/a
173.6985	0.176	347397	keystroke_w	w	n/a
173.8265	0.096	347653	keystroke_e	e	n/a
174.0345	0.104	348069	keystroke_a	a	n/a
174.1065	0.096	348213	keystroke_p	p	n/a
174.3145	0.072	348629	keystroke_o	o	n/a
174.5065	0.088	349013	keystroke_n	n	n/a
174.7145	0.088	349429	keystroke_Key.space	Key.space	n/a
174.978	0.048	349956	keystroke_a	a	n/a
174.994	0.144	349988	keystroke_d	d	n/a
175.242	0.08	350484	keystroke_u	u	n/a
175.4665	0.08	350933	keystroke_l	l	n/a
175.6345	0.08	351269	keystroke_t	t	n/a
175.8665	0.088	351733	keystroke_s	s	n/a
176.9945	0.104	353989	keystroke_Key.enter	Key.enter	n/a
177.1025	13.8295	354205	prompt	n/a	nervous lite accreditation thriller\n
177.947	0.103	355894	keystroke_n	n	n/a
178.098	0.216	356196	keystroke_e	e	n/a
178.258	0.096	356516	keystroke_r	r	n/a
178.53	0.104	357060	keystroke_g	g	n/a
179.0345	0.112	358069	keystroke_Key.backspace	Key.backspace	n/a
179.2825	0.08	358565	keystroke_v	v	n/a
179.69	0.152	359380	keystroke_o	o	n/a
179.786	0.1045	359572	keystroke_u	u	n/a
179.9465	0.08	359893	keystroke_s	s	n/a
180.1225	0.088	360245	keystroke_Key.space	Key.space	n/a
180.6185	0.096	361237	keystroke_l	l	n/a
180.8345	0.096	361669	keystroke_i	i	n/a
180.9865	0.16	361973	keystroke_t	t	n/a
181.1065	0.112	362213	keystroke_e	e	n/a
181.2825	0.096	362565	keystroke_Key.space	Key.space	n/a
182.154	0.064	364308	keystroke_a	a	n/a
182.33	0.104	364660	keystroke_c	c	n/a
182.578	0.104	365156	keystroke_c	c	n/a
183.2745	0.136	366549	keystroke_r	r	n/a
183.506	0.048	367012	keystroke_e	e	n/a
183.682	0.104	367364	keystroke_d	d	n/a
183.81	0.104	367620	keystroke_i	i	n/a
184.37	0.128	368740	keystroke_a	a	n/a
184.442	0.112	368884	keystroke_t	t	n/a
184.802	0.1365	369604	keystroke_i	i	n/a
184.8985	0.088	369797	keystroke_o	o	n/a
185.7465	0.064	371493	keystroke_Key.backspace	Key.backspace	n/a
185.9225	0.064	371845	keystroke_Key.backspace	Key.backspace	n/a
186.0985	0.08	372197	keystroke_Key.backspace	Key.backspace	n/a
186.5465	0.064	373093	keystroke_Key.backspace	Key.backspace	n/a
187.298	0.104	374596	keystroke_t	t	n/a
187.658	0.104	375316	keystroke_a	a	n/a
187.738	0.088	375476	keystroke_t	t	n/a
187.914	0.12	375828	keystroke_i	i	n/a
188.018	0.112	376036	keystroke_o	o	n/a
188.362	0.088	376724	keystroke_n	n	n/a
188.946	0.096	377892	keystroke_Key.space	Key.space	n/a
189.3545	0.12	378709	keystroke_t	t	n/a
189.4825	0.1115	378965	keystroke_h	h	n/a
189.634	0.104	379268	keystroke_r	r	n/a
189.746	0.08	379492	keystroke_i	i	n/a
189.9785	0.072	379957	keystroke_l	l	n/a
190.1305	0.096	380261	keystroke_l	l	n/a
190.2665	0.128	380533	keystroke_e	e	n/a
190.3305	0.096	380661	keystroke_r	r	n/a
190.8265	0.104	381653	keystroke_Key.enter	Key.enter	n/a
190.939	13.1205	381878	prompt	n/a	croatia carefully downloading global\n
191.8185	0.12	383637	keystroke_c	c	n/a
191.9695	0.104	383939	keystroke_o	o	n/a
192.1305	0.119	384261	keystroke_r	r	n/a
192.3695	0.112	384739	keystroke_a	a	n/a
193.0495	0.072	386099	keystroke_Key.backspace	Key.backspace	n/a
193.2335	0.072	386467	keystroke_Key.backspace	Key.backspace	n/a
193.4015	0.08	386803	keystroke_Key.backspace	Key.backspace	n/a
193.4985	0.1035	386997	keystroke_r	r	n/a
193.834	0.096	387668	keystroke_o	o	n/a
194.058	0.104	388116	keystroke_a	a	n/a
194.298	0.12	388596	keystroke_t	t	n/a
194.434	0.088	388868	keystroke_i	i	n/a
194.594	0.096	389188	keystroke_a	a	n/a
194.73	0.112	389460	keystroke_Key.space	Key.space	n/a
195.4425	0.112	390885	keystroke_c	c	n/a
196.0655	0.096	392131	keystroke_a	a	n/a
196.3615	0.16	392723	keystroke_r	r	n/a
196.4575	0.089	392915	keystroke_e	e	n/a
197.0905	0.119	394181	keystroke_f	f	n/a
197.2335	0.088	394467	keystroke_u	u	n/a
197.4495	0.065	394899	keystroke_l	l	n/a
197.5945	0.096	395189	keystroke_l	l	n/a
198.0425	0.112	396085	keystroke_y	y	n/a
198.2265	0.104	396453	keystroke_Key.space	Key.space	n/a
198.6345	0.128	397269	keystroke_d	d	n/a
198.7785	0.096	397557	keystroke_o	o	n/a
199.1945	0.048	398389	keystroke_w	w	n/a
199.3305	0.08	398661	keystroke_n	n	n/a
199.6895	0.104	399379	keystroke_l	l	n/a
199.93	0.12	399860	keystroke_o	o	n/a
200.17	0.128	400340	keystroke_a	a	n/a
200.266	0.12	400532	keystroke_d	d	n/a
200.402	0.08	400804	keystroke_i	i	n/a
200.602	0.088	401204	keystroke_n	n	n/a
200.714	0.088	401428	keystroke_g	g	n/a
200.906	0.088	401812	keystroke_Key.space	Key.space	n/a
201.6105	0.136	403221	keystroke_g	g	n/a
201.7305	0.104	403461	keystroke_l	l	n/a
202.2345	0.096	404469	keystroke_o	o	n/a
202.4985	0.104	404997	keystroke_b	b	n/a
202.6825	0.104	405365	keystroke_a	a	n/a
202.8985	0.08	405797	keystroke_l	l	n/a
203.9535	0.104	407907	keystroke_Key.enter	Key.enter	n/a
204.063	8.5085	408126	prompt	n/a	walks counsel lectures talk\n
205.6905	0.12	411381	keystroke_e	e	n/a
206.3225	0.088	412645	keystroke_Key.backspace	Key.backspace	n/a
206.4985	0.088	412997	keystroke_w	w	n/a
206.6905	0.112	413381	keystroke_a	a	n/a
206.8105	0.16	413621	keystroke_l	l	n/a
206.8745	0.088	413749	keystroke_k	k	n/a
207.0345	0.096	414069	keystroke_s	s	n/a
207.6255	0.12	415251	keystroke_Key.space	Key.space	n/a
207.7945	0.119	415589	keystroke_c	c	n/a
207.9705	0.215	415941	keystroke_o	o	n/a
208.1625	0.104	416325	keystroke_u	u	n/a
208.4105	0.112	416821	keystroke_n	n	n/a
208.5305	0.096	417061	keystroke_s	s	n/a
208.7145	0.08	417429	keystroke_e	e	n/a
208.8425	0.088	417685	keystroke_l	l	n/a
209.0585	0.08	418117	keystroke_Key.space	Key.space	n/a
209.4905	0.127	418981	keystroke_l	l	n/a
209.6255	0.08	419251	keystroke_e	e	n/a
209.7935	0.1285	419587	keystroke_c	c	n/a
210.13	0.112	420260	keystroke_t	t	n/a
210.378	0.144	420756	keystroke_r	r	n/a
210.506	0.096	421012	keystroke_u	u	n/a
210.938	0.04	421876	keystroke_Key.backspace	Key.backspace	n/a
211.09	0.056	422180	keystroke_Key.backspace	Key.backspace	n/a
211.33	0.112	422660	keystroke_u	u	n/a
211.426	0.112	422852	keystroke_r	r	n/a
211.466	0.072	422932	keystroke_e	e	n/a
211.6255	0.112	423251	keystroke_s	s	n/a
211.7295	0.128	423459	keystroke_Key.space	Key.space	n/a
211.9055	0.104	423811	keystroke_t	t	n/a
212.0735	0.12	424147	keystroke_a	a	n/a
212.1855	0.176	424371	keystroke_l	l	n/a
212.2735	0.096	424547	keystroke_k	k	n/a
212.4975	0.072	424995	keystroke_Key.enter	Key.enter	n/a
212.574	8.6695	425148	prompt	n/a	vehicle feedback surgeons cities\n
213.53	0.12	427060	keystroke_v	v	n/a
213.562	0.04	427124	keystroke_b	b	n/a
214.122	0.08	428244	keystroke_Key.backspace	Key.backspace	n/a
214.258	0.088	428516	keystroke_e	e	n/a
214.426	0.088	428852	keystroke_h	h	n/a
214.586	0.088	429172	keystroke_i	i	n/a
214.706	0.112	429412	keystroke_c	c	n/a
214.834	0.0875	429668	keystroke_l	l	n/a
214.9375	0.088	429875	keystroke_e	e	n/a
215.0495	0.088	430099	keystroke_Key.space	Key.space	n/a
215.874	0.088	431748	keystroke_d	d	n/a
216.186	0.096	432372	keystroke_Key.backspace	Key.backspace	n/a
216.338	0.104	432676	keystroke_f	f	n/a
216.562	0.072	433124	keystroke_e	e	n/a
216.73	0.072	433460	keystroke_e	e	n/a
216.906	0.128	433812	keystroke_d	d	n/a
217.058	0.0875	434116	keystroke_b	b	n/a
217.2095	0.12	434419	keystroke_a	a	n/a
217.2495	0.112	434499	keystroke_c	c	n/a
217.3305	0.103	434661	keystroke_k	k	n/a
217.4975	0.1045	434995	keystroke_Key.space	Key.space	n/a
218.106	0.072	436212	keystroke_s	s	n/a
218.234	0.112	436468	keystroke_u	u	n/a
218.45	0.088	436900	keystroke_r	r	n/a
218.674	0.072	437348	keystroke_g	g	n/a
218.826	0.088	437652	keystroke_e	e	n/a
218.962	0.088	437924	keystroke_o	o	n/a
219.1375	0.088	438275	keystroke_n	n	n/a
219.2975	0.072	438595	keystroke_s	s	n/a
219.3855	0.12	438771	keystroke_Key.space	Key.space	n/a
219.8495	0.104	439699	keystroke_o	o	n/a
220.1855	0.064	440371	keystroke_Key.backspace	Key.backspace	n/a
220.3055	0.12	440611	keystroke_c	c	n/a
220.4575	0.096	440915	keystroke_i	i	n/a
220.6095	0.112	441219	keystroke_t	t	n/a
220.6895	0.088	441379	keystroke_i	i	n/a
220.8095	0.08	441619	keystroke_e	e	n/a
220.9615	0.112	441923	keystroke_s	s	n/a
221.1375	0.104	442275	keystroke_Key.enter	Key.enter	n/a
221.2465	11.5565	442493	prompt	n/a	norfolk strength delays floppy\n
222.0495	0.072	444099	keystroke_n	n	n/a
222.1935	0.096	444387	keystroke_o	o	n/a
222.3215	0.096	444643	keystroke_r	r	n/a
222.4735	0.072	444947	keystroke_k	k	n/a
222.7455	0.128	445491	keystroke_f	f	n/a
223.3295	0.08	446659	keystroke_Key.backspace	Key.backspace	n/a
223.5135	0.048	447027	keystroke_Key.backspace	Key.backspace	n/a
223.6175	0.112	447235	keystroke_f	f	n/a
224.6655	0.08	449331	keystroke_o	o	n/a
224.89	0.152	449780	keystroke_l	l	n/a
224.978	0.055	449956	keystroke_k	k	n/a
225.162	0.087	450324	keystroke_Key.space	Key.space	n/a
226.4895	0.096	452979	keystroke_s	s	n/a
226.6975	0.096	453395	keystroke_t	t	n/a
226.8735	0.12	453747	keystroke_r	r	n/a
226.9295	0.128	453859	keystroke_e	e	n/a
227.1215	0.096	454243	keystroke_n	n	n/a
227.2415	0.112	454483	keystroke_g	g	n/a
227.5375	0.1205	455075	keystroke_t	t	n/a
227.882	0.096	455764	keystroke_h	h	n/a
228.042	0.112	456084	keystroke_Key.space	Key.space	n/a
228.834	0.104	457668	keystroke_d	d	n/a
229.018	0.104	458036	keystroke_e	e	n/a
229.146	0.104	458292	keystroke_l	l	n/a
229.306	0.088	458612	keystroke_a	a	n/a
229.418	0.096	458836	keystroke_y	y	n/a
229.53	0.104	459060	keystroke_s	s	n/a
229.65	0.112	459300	keystroke_Key.space	Key.space	n/a
230.0655	0.128	460131	keystroke_f	f	n/a
230.1615	0.072	460323	keystroke_l	l	n/a
230.3295	0.08	460659	keystroke_o	o	n/a
230.5055	0.088	461011	keystroke_b	b	n/a
231.0975	0.064	462195	keystroke_Key.backspace	Key.backspace	n/a
231.3695	0.056	462739	keystroke_p	p	n/a
231.5135	0.072	463027	keystroke_p	p	n/a
231.7055	0.104	463411	keystroke_y	y	n/a
232.7055	0.096	465411	keystroke_Key.enter	Key.enter	n/a
232.807	6.628	465614	prompt	n/a	engine seek adobe myspace\n
233.6735	0.088	467347	keystroke_s	s	n/a
234.0415	0.064	468083	keystroke_Key.backspace	Key.backspace	n/a
234.1295	0.104	468259	keystroke_e	e	n/a
234.3055	0.08	468611	keystroke_n	n	n/a
234.4015	0.096	468803	keystroke_g	g	n/a
234.6575	0.072	469315	keystroke_i	i	n/a
234.8735	0.0725	469747	keystroke_n	n	n/a
235.026	0.072	470052	keystroke_e	e	n/a
235.162	0.088	470324	keystroke_Key.space	Key.space	n/a
235.69	0.0715	471380	keystroke_s	s	n/a
235.8415	0.064	471683	keystroke_e	e	n/a
235.9935	0.104	471987	keystroke_e	e	n/a
236.1535	0.096	472307	keystroke_k	k	n/a
236.2975	0.112	472595	keystroke_Key.space	Key.space	n/a
236.5935	0.096	473187	keystroke_a	a	n/a
236.6815	0.096	473363	keystroke_d	d	n/a
236.8495	0.112	473699	keystroke_o	o	n/a
237.3615	0.12	474723	keystroke_b	b	n/a
237.6415	0.12	475283	keystroke_e	e	n/a
237.7855	0.104	475571	keystroke_Key.space	Key.space	n/a
238.2575	0.096	476515	keystroke_m	m	n/a
238.4735	0.096	476947	keystroke_y	y	n/a
238.6015	0.104	477203	keystroke_s	s	n/a
238.7615	0.12	477523	keystroke_p	p	n/a
238.9375	0.1035	477875	keystroke_a	a	n/a
239.0015	0.1595	478003	keystroke_c	c	n/a
239.113	0.112	478226	keystroke_e	e	n/a
239.353	0.08	478706	keystroke_Key.enter	Key.enter	n/a
239.439	7.964	478878	prompt	n/a	discount helpful operational yemen\n
240.17	0.104	480340	keystroke_d	d	n/a
240.402	0.12	480804	keystroke_i	i	n/a
240.65	0.088	481300	keystroke_s	s	n/a
240.85	0.112	481700	keystroke_c	c	n/a
240.97	0.1435	481940	keystroke_o	o	n/a
241.0495	0.072	482099	keystroke_u	u	n/a
241.2575	0.104	482515	keystroke_n	n	n/a
241.3935	0.112	482787	keystroke_t	t	n/a
241.5375	0.088	483075	keystroke_Key.space	Key.space	n/a
241.826	0.087	483652	keystroke_h	h	n/a
241.985	0.121	483970	keystroke_e	e	n/a
242.09	0.072	484180	keystroke_l	l	n/a
242.29	0.096	484580	keystroke_p	p	n/a
242.393	0.113	484786	keystroke_f	f	n/a
242.538	0.08	485076	keystroke_u	u	n/a
242.737	0.081	485474	keystroke_l	l	n/a
242.857	0.12	485714	keystroke_Key.space	Key.space	n/a
243.5935	0.08	487187	keystroke_o	o	n/a
243.7935	0.104	487587	keystroke_p	p	n/a
243.9135	0.128	487827	keystroke_e	e	n/a
243.9775	0.096	487955	keystroke_r	r	n/a
244.2015	0.12	488403	keystroke_a	a	n/a
244.2895	0.12	488579	keystroke_t	t	n/a
244.3695	0.104	488739	keystroke_i	i	n/a
244.4495	0.08	488899	keystroke_o	o	n/a
244.6415	0.08	489283	keystroke_n	n	n/a
244.8255	0.1035	489651	keystroke_a	a	n/a
244.961	0.1205	489922	keystroke_l	l	n/a
245.0895	0.1115	490179	keystroke_Key.space	Key.space	n/a
245.9295	0.096	491859	keystroke_y	y	n/a
246.3535	0.128	492707	keystroke_e	e	n/a
246.5775	0.104	493155	keystroke_m	m	n/a
246.8655	0.112	493731	keystroke_e	e	n/a
247.0495	0.0875	494099	keystroke_n	n	n/a
247.313	0.088	494626	keystroke_Key.enter	Key.enter	n/a
247.4085	6.938	494817	prompt	n/a	cellular legend mothers replaced\n
248.193	0.12	496386	keystroke_c	c	n/a
248.417	0.104	496834	keystroke_e	e	n/a
248.577	0.064	497154	keystroke_l	l	n/a
248.745	0.072	497490	keystroke_l	l	n/a
248.961	0.08	497922	keystroke_u	u	n/a
249.2335	0.08	498467	keystroke_l	l	n/a
249.3935	0.128	498787	keystroke_a	a	n/a
249.4735	0.12	498947	keystroke_r	r	n/a
249.6095	0.112	499219	keystroke_Key.space	Key.space	n/a
250.0575	0.12	500115	keystroke_l	l	n/a
250.1535	0.104	500307	keystroke_e	e	n/a
250.3215	0.112	500643	keystroke_g	g	n/a
250.4895	0.064	500979	keystroke_e	e	n/a
250.7295	0.096	501459	keystroke_n	n	n/a
250.8735	0.104	501747	keystroke_d	d	n/a
250.9695	0.104	501939	keystroke_Key.space	Key.space	n/a
252.0095	0.104	504019	keystroke_m	m	n/a
252.1775	0.144	504355	keystroke_o	o	n/a
252.3455	0.104	504691	keystroke_t	t	n/a
252.4415	0.104	504883	keystroke_h	h	n/a
252.4975	0.168	504995	keystroke_e	e	n/a
252.6015	0.128	505203	keystroke_r	r	n/a
252.7215	0.12	505443	keystroke_s	s	n/a
252.9695	0.128	505939	keystroke_Key.space	Key.space	n/a
253.2015	0.144	506403	keystroke_r	r	n/a
253.2655	0.104	506531	keystroke_e	e	n/a
253.4095	0.08	506819	keystroke_p	p	n/a
253.6255	0.112	507251	keystroke_l	l	n/a
253.6975	0.0805	507395	keystroke_a	a	n/a
253.7295	0.1685	507459	keystroke_c	c	n/a
253.849	0.105	507698	keystroke_e	e	n/a
254.034	0.12	508068	keystroke_d	d	n/a
254.242	0.104	508484	keystroke_Key.enter	Key.enter	n/a
254.3505	9.612	508701	prompt	n/a	fantastic resistant genuine commission\n
255.1455	0.12	510291	keystroke_f	f	n/a
255.3295	0.104	510659	keystroke_a	a	n/a
255.4415	0.096	510883	keystroke_n	n	n/a
255.5855	0.112	511171	keystroke_t	t	n/a
255.7775	0.16	511555	keystroke_a	a	n/a
255.8495	0.12	511699	keystroke_s	s	n/a
256.1135	0.088	512227	keystroke_i	i	n/a
256.3455	0.056	512691	keystroke_t	t	n/a
256.6575	0.072	513315	keystroke_Key.backspace	Key.backspace	n/a
256.8255	0.064	513651	keystroke_Key.backspace	Key.backspace	n/a
256.9295	0.08	513859	keystroke_t	t	n/a
257.1055	0.064	514211	keystroke_i	i	n/a
257.1775	0.088	514355	keystroke_c	c	n/a
257.3295	0.08	514659	keystroke_Key.space	Key.space	n/a
258.081	0.169	516162	keystroke_r	r	n/a
258.154	0.104	516308	keystroke_e	e	n/a
258.345	0.096	516690	keystroke_s	s	n/a
258.482	0.071	516964	keystroke_i	i	n/a
258.562	0.104	517124	keystroke_s	s	n/a
258.769	0.096	517538	keystroke_t	t	n/a
258.922	0.112	517844	keystroke_a	a	n/a
259.05	0.072	518100	keystroke_n	n	n/a
259.169	0.096	518338	keystroke_t	t	n/a
259.274	0.104	518548	keystroke_Key.space	Key.space	n/a
260.0255	0.12	520051	keystroke_g	g	n/a
260.2895	0.08	520579	keystroke_e	e	n/a
260.4655	0.072	520931	keystroke_n	n	n/a
260.7535	0.128	521507	keystroke_u	u	n/a
260.8655	0.08	521731	keystroke_i	i	n/a
261.0415	0.088	522083	keystroke_n	n	n/a
261.1695	0.08	522339	keystroke_e	e	n/a
261.3055	0.096	522611	keystroke_Key.space	Key.space	n/a
261.8815	0.136	523763	keystroke_c	c	n/a
261.9855	0.088	523971	keystroke_o	o	n/a
262.1935	0.048	524387	keystroke_m	m	n/a
262.3535	0.072	524707	keystroke_m	m	n/a
262.5455	0.08	525091	keystroke_i	i	n/a
262.6895	0.04	525379	keystroke_s	s	n/a
262.8255	0.088	525651	keystroke_s	s	n/a
263.1775	0.104	526355	keystroke_i	i	n/a
263.2495	0.088	526499	keystroke_o	o	n/a
263.4095	0.104	526819	keystroke_n	n	n/a
263.8975	0.064	527795	keystroke_Key.enter	Key.enter	n/a
263.966	10.9725	527932	prompt	n/a	happening belongs recommendation worker\n
264.953	0.096	529906	keystroke_h	h	n/a
265.257	0.08	530514	keystroke_a	a	n/a
265.393	0.048	530786	keystroke_p	p	n/a
265.529	0.088	531058	keystroke_p	p	n/a
265.737	0.1125	531474	keystroke_e	e	n/a
265.8895	0.072	531779	keystroke_n	n	n/a
266.0495	0.072	532099	keystroke_i	i	n/a
266.2175	0.12	532435	keystroke_n	n	n/a
266.4655	0.12	532931	keystroke_g	g	n/a
266.6895	0.104	533379	keystroke_Key.space	Key.space	n/a
267.0015	0.056	534003	keystroke_b	b	n/a
267.1535	0.104	534307	keystroke_e	e	n/a
267.2815	0.096	534563	keystroke_l	l	n/a
267.4815	0.048	534963	keystroke_o	o	n/a
267.6415	0.08	535283	keystroke_n	n	n/a
267.7775	0.176	535555	keystroke_g	g	n/a
267.9055	0.104	535811	keystroke_s	s	n/a
268.5135	0.12	537027	keystroke_Key.space	Key.space	n/a
268.9855	0.1195	537971	keystroke_r	r	n/a
269.057	0.08	538114	keystroke_e	e	n/a
269.233	0.144	538466	keystroke_c	c	n/a
269.369	0.0635	538738	keystroke_o	o	n/a
269.5365	0.0965	539073	keystroke_m	m	n/a
269.7925	0.1205	539585	keystroke_n	n	n/a
270.529	0.112	541058	keystroke_Key.backspace	Key.backspace	n/a
270.865	0.088	541730	keystroke_m	m	n/a
271.017	0.104	542034	keystroke_e	e	n/a
271.145	0.072	542290	keystroke_n	n	n/a
271.241	0.104	542482	keystroke_d	d	n/a
271.449	0.104	542898	keystroke_a	a	n/a
271.521	0.128	543042	keystroke_t	t	n/a
271.601	0.12	543202	keystroke_i	i	n/a
271.697	0.064	543394	keystroke_o	o	n/a
272.0495	0.064	544099	keystroke_Key.space	Key.space	n/a
272.4175	0.072	544835	keystroke_Key.backspace	Key.backspace	n/a
272.7135	0.048	545427	keystroke_n	n	n/a
272.8575	0.056	545715	keystroke_Key.space	Key.space	n/a
273.697	0.088	547394	keystroke_w	w	n/a
273.809	0.112	547618	keystroke_o	o	n/a
273.993	0.112	547986	keystroke_r	r	n/a
274.321	0.088	548642	keystroke_k	k	n/a
274.481	0.144	548962	keystroke_e	e	n/a
274.545	0.112	549090	keystroke_r	r	n/a
274.825	0.1115	549650	keystroke_Key.enter	Key.enter	n/a
274.941	7.5255	549882	prompt	n/a	week iran excess parties\n
275.713	0.104	551426	keystroke_w	w	n/a
275.8415	0.056	551683	keystroke_e	e	n/a
275.9935	0.128	551987	keystroke_e	e	n/a
276.1295	0.104	552259	keystroke_k	k	n/a
276.2895	0.032	552579	keystroke_Key.space	Key.space	n/a
276.4255	0.128	552851	keystroke_r	r	n/a
276.6095	0.096	553219	keystroke_i	i	n/a
276.7935	0.08	553587	keystroke_a	a	n/a
276.9295	0.104	553859	keystroke_n	n	n/a
277.121	0.032	554242	keystroke_Key.space	Key.space	n/a
277.409	0.056	554818	keystroke_Key.backspace	Key.backspace	n/a
277.601	0.048	555202	keystroke_Key.backspace	Key.backspace	n/a
277.761	0.056	555522	keystroke_Key.backspace	Key.backspace	n/a
277.921	0.072	555842	keystroke_Key.backspace	Key.backspace	n/a
278.073	0.072	556146	keystroke_Key.backspace	Key.backspace	n/a
278.345	0.088	556690	keystroke_i	i	n/a
278.513	0.088	557026	keystroke_r	r	n/a
278.689	0.12	557378	keystroke_a	a	n/a
278.801	0.072	557602	keystroke_n	n	n/a
278.977	0.104	557954	keystroke_Key.space	Key.space	n/a
279.7605	0.072	559521	keystroke_e	e	n/a
279.9455	0.1195	559891	keystroke_x	x	n/a
280.217	0.128	560434	keystroke_c	c	n/a
280.441	0.088	560882	keystroke_e	e	n/a
280.625	0.104	561250	keystroke_s	s	n/a
280.809	0.088	561618	keystroke_s	s	n/a
281.041	0.112	562082	keystroke_Key.space	Key.space	n/a
281.361	0.096	562722	keystroke_p	p	n/a
281.521	0.128	563042	keystroke_a	a	n/a
281.601	0.096	563202	keystroke_r	r	n/a
281.785	0.12	563570	keystroke_t	t	n/a
281.897	0.08	563794	keystroke_i	i	n/a
281.985	0.096	563970	keystroke_e	e	n/a
282.161	0.112	564322	keystroke_s	s	n/a
282.361	0.104	564722	keystroke_Key.enter	Key.enter	n/a
282.4695	9.1325	564939	prompt	n/a	nicholas loaded cycling athletic\n
283.481	0.064	566962	keystroke_n	n	n/a
283.673	0.104	567346	keystroke_i	i	n/a
283.809	0.104	567618	keystroke_c	c	n/a
284.545	0.064	569090	keystroke_h	h	n/a
284.721	0.096	569442	keystroke_o	o	n/a
284.9285	0.088	569857	keystroke_l	l	n/a
285.1445	0.153	570289	keystroke_a	a	n/a
285.2335	0.095	570467	keystroke_s	s	n/a
285.3295	0.111	570659	keystroke_Key.space	Key.space	n/a
286.0245	0.088	572049	keystroke_l	l	n/a
286.3525	0.112	572705	keystroke_o	o	n/a
286.5525	0.112	573105	keystroke_a	a	n/a
286.6165	0.12	573233	keystroke_d	d	n/a
286.8485	0.072	573697	keystroke_e	e	n/a
287.0245	0.12	574049	keystroke_d	d	n/a
287.1365	0.12	574273	keystroke_Key.space	Key.space	n/a
287.8245	0.1205	575649	keystroke_c	c	n/a
288.009	0.08	576018	keystroke_y	y	n/a
288.121	0.128	576242	keystroke_c	c	n/a
288.281	0.096	576562	keystroke_l	l	n/a
288.497	0.056	576994	keystroke_i	i	n/a
288.657	0.096	577314	keystroke_n	n	n/a
288.825	0.088	577650	keystroke_g	g	n/a
288.937	0.112	577874	keystroke_Key.space	Key.space	n/a
289.665	0.072	579330	keystroke_a	a	n/a
289.849	0.112	579698	keystroke_t	t	n/a
289.962	0.063	579924	keystroke_h	h	n/a
290.185	0.12	580370	keystroke_l	l	n/a
290.345	0.072	580690	keystroke_e	e	n/a
290.553	0.088	581106	keystroke_t	t	n/a
290.705	0.096	581410	keystroke_i	i	n/a
291.185	0.144	582370	keystroke_c	c	n/a
291.489	0.112	582978	keystroke_Key.enter	Key.enter	n/a
291.6055	10.3245	583211	prompt	n/a	regions bulletin rhythm restoration\n
292.553	0.136	585106	keystroke_r	r	n/a
292.632	0.097	585264	keystroke_e	e	n/a
292.841	0.1275	585682	keystroke_g	g	n/a
292.9695	0.087	585939	keystroke_i	i	n/a
293.0245	0.12	586049	keystroke_o	o	n/a
293.4565	0.128	586913	keystroke_n	n	n/a
293.6405	0.064	587281	keystroke_s	s	n/a
293.7605	0.104	587521	keystroke_Key.space	Key.space	n/a
294.625	0.128	589250	keystroke_b	b	n/a
294.785	0.0955	589570	keystroke_u	u	n/a
295.1045	0.08	590209	keystroke_l	l	n/a
295.2885	0.104	590577	keystroke_l	l	n/a
295.3935	0.127	590787	keystroke_e	e	n/a
295.5525	0.12	591105	keystroke_t	t	n/a
295.6805	0.088	591361	keystroke_i	i	n/a
295.8485	0.0965	591697	keystroke_n	n	n/a
296.016	0.088	592032	keystroke_Key.space	Key.space	n/a
297.473	0.096	594946	keystroke_r	r	n/a
298.465	0.096	596930	keystroke_h	h	n/a
298.873	0.1125	597746	keystroke_y	y	n/a
299.1845	0.12	598369	keystroke_t	t	n/a
299.3365	0.072	598673	keystroke_h	h	n/a
299.5285	0.104	599057	keystroke_m	m	n/a
299.7685	0.1125	599537	keystroke_Key.space	Key.space	n/a
300.393	0.151	600786	keystroke_r	r	n/a
300.464	0.072	600928	keystroke_e	e	n/a
300.64	0.081	601280	keystroke_s	s	n/a
300.777	0.127	601554	keystroke_t	t	n/a
300.897	0.079	601794	keystroke_o	o	n/a
301	0.1125	602000	keystroke_r	r	n/a
301.2165	0.096	602433	keystroke_a	a	n/a
301.2805	0.12	602561	keystroke_t	t	n/a
301.3445	0.112	602689	keystroke_i	i	n/a
301.4245	0.088	602849	keystroke_o	o	n/a
301.6245	0.064	603249	keystroke_n	n	n/a
301.8405	0.088	603681	keystroke_Key.enter	Key.enter	n/a
301.934	7.356	603868	prompt	n/a	revolution maintaining apple spotlight\n
302.7925	0.144	605585	keystroke_r	r	n/a
302.8805	0.096	605761	keystroke_e	e	n/a
303.081	0.136	606162	keystroke_v	v	n/a
303.169	0.056	606338	keystroke_o	o	n/a
303.328	0.089	606656	keystroke_l	l	n/a
303.521	0.08	607042	keystroke_u	u	n/a
303.665	0.104	607330	keystroke_t	t	n/a
303.777	0.128	607554	keystroke_i	i	n/a
303.881	0.079	607762	keystroke_o	o	n/a
304.0885	0.072	608177	keystroke_n	n	n/a
304.2245	0.104	608449	keystroke_Key.space	Key.space	n/a
304.5605	0.104	609121	keystroke_m	m	n/a
304.7685	0.096	609537	keystroke_a	a	n/a
304.8645	0.072	609729	keystroke_i	i	n/a
305.0245	0.0965	610049	keystroke_n	n	n/a
305.193	0.112	610386	keystroke_t	t	n/a
305.385	0.088	610770	keystroke_a	a	n/a
305.441	0.096	610882	keystroke_i	i	n/a
305.625	0.056	611250	keystroke_n	n	n/a
305.7845	0.0645	611569	keystroke_i	i	n/a
305.985	0.088	611970	keystroke_n	n	n/a
306.121	0.12	612242	keystroke_g	g	n/a
306.225	0.08	612450	keystroke_Key.space	Key.space	n/a
306.881	0.08	613762	keystroke_a	a	n/a
306.961	0.088	613922	keystroke_p	p	n/a
307.12	0.096	614240	keystroke_p	p	n/a
307.32	0.104	614640	keystroke_l	l	n/a
307.4645	0.0795	614929	keystroke_e	e	n/a
307.592	0.096	615184	keystroke_Key.space	Key.space	n/a
307.752	0.096	615504	keystroke_s	s	n/a
307.872	0.072	615744	keystroke_p	p	n/a
308.065	0.104	616130	keystroke_o	o	n/a
308.217	0.104	616434	keystroke_t	t	n/a
308.361	0.088	616722	keystroke_l	l	n/a
308.569	0.096	617138	keystroke_i	i	n/a
308.721	0.104	617442	keystroke_g	g	n/a
308.809	0.104	617618	keystroke_h	h	n/a
308.961	0.111	617922	keystroke_t	t	n/a
309.2005	0.088	618401	keystroke_Key.enter	Key.enter	n/a
309.293	9.077	618586	prompt	n/a	percent deployment sucking flags\n
310.113	0.12	620226	keystroke_r	r	n/a
310.169	0.104	620338	keystroke_e	e	n/a
310.521	0.072	621042	keystroke_Key.backspace	Key.backspace	n/a
310.689	0.072	621378	keystroke_Key.backspace	Key.backspace	n/a
311.481	0.064	622962	keystroke_p	p	n/a
311.641	0.2	623282	keystroke_e	e	n/a
311.737	0.128	623474	keystroke_r	r	n/a
312.089	0.128	624178	keystroke_c	c	n/a
312.217	0.128	624434	keystroke_e	e	n/a
312.537	0.12	625074	keystroke_n	n	n/a
312.689	0.08	625378	keystroke_t	t	n/a
312.793	0.088	625586	keystroke_Key.space	Key.space	n/a
314.136	0.088	628272	keystroke_d	d	n/a
314.32	0.096	628640	keystroke_e	e	n/a
314.4	0.056	628800	keystroke_p	p	n/a
314.568	0.08	629136	keystroke_l	l	n/a
314.752	0.064	629504	keystroke_o	o	n/a
314.937	0.088	629874	keystroke_y	y	n/a
315.153	0.08	630306	keystroke_m	m	n/a
315.305	0.12	630610	keystroke_e	e	n/a
315.377	0.096	630754	keystroke_n	n	n/a
315.569	0.112	631138	keystroke_t	t	n/a
315.657	0.096	631314	keystroke_Key.space	Key.space	n/a
316.0805	0.072	632161	keystroke_s	s	n/a
316.1925	0.08	632385	keystroke_u	u	n/a
316.3205	0.096	632641	keystroke_c	c	n/a
316.4885	0.088	632977	keystroke_k	k	n/a
316.6965	0.056	633393	keystroke_i	i	n/a
316.8645	0.12	633729	keystroke_n	n	n/a
316.9765	0.0725	633953	keystroke_g	g	n/a
317.08	0.08	634160	keystroke_Key.space	Key.space	n/a
317.177	0.143	634354	keystroke_f	f	n/a
317.336	0.104	634672	keystroke_l	l	n/a
317.745	0.143	635490	keystroke_a	a	n/a
317.824	0.16	635648	keystroke_g	g	n/a
317.953	0.119	635906	keystroke_s	s	n/a
318.28	0.088	636560	keystroke_Key.enter	Key.enter	n/a
318.3745	6.259	636749	prompt	n/a	aircraft actor step she'd\n
319.104	0.128	638208	keystroke_a	a	n/a
319.352	0.112	638704	keystroke_i	i	n/a
319.472	0.064	638944	keystroke_r	r	n/a
319.68	0.112	639360	keystroke_c	c	n/a
319.9205	0.112	639841	keystroke_r	r	n/a
320.1845	0.112	640369	keystroke_a	a	n/a
320.2085	0.128	640417	keystroke_f	f	n/a
320.4485	0.104	640897	keystroke_t	t	n/a
320.5845	0.088	641169	keystroke_Key.space	Key.space	n/a
321.3285	0.144	642657	keystroke_a	a	n/a
321.4645	0.088	642929	keystroke_c	c	n/a
321.6885	0.096	643377	keystroke_t	t	n/a
321.8005	0.096	643601	keystroke_o	o	n/a
321.9285	0.12	643857	keystroke_r	r	n/a
322.0405	0.088	644081	keystroke_Key.space	Key.space	n/a
322.5765	0.112	645153	keystroke_s	s	n/a
322.9285	0.12	645857	keystroke_t	t	n/a
323.0405	0.112	646081	keystroke_e	e	n/a
323.1605	0.112	646321	keystroke_p	p	n/a
323.3605	0.104	646721	keystroke_Key.space	Key.space	n/a
323.7605	0.096	647521	keystroke_s	s	n/a
323.9285	0.1035	647857	keystroke_h	h	n/a
324.048	0.072	648096	keystroke_e	e	n/a
324.184	0.112	648368	keystroke_'	'	n/a
324.336	0.112	648672	keystroke_d	d	n/a
324.576	0.056	649152	keystroke_Key.enter	Key.enter	n/a
324.637	11.709	649274	prompt	n/a	tent particle confidentiality integration\n
325.5125	0.12	651025	keystroke_t	t	n/a
325.5765	0.152	651153	keystroke_e	e	n/a
325.7125	0.104	651425	keystroke_n	n	n/a
325.8805	0.104	651761	keystroke_t	t	n/a
325.8885	0.12	651777	keystroke_Key.space	Key.space	n/a
326.2565	0.112	652513	keystroke_p	p	n/a
326.3845	0.104	652769	keystroke_a	a	n/a
326.4245	0.096	652849	keystroke_r	r	n/a
326.6325	0.08	653265	keystroke_t	t	n/a
326.7285	0.104	653457	keystroke_i	i	n/a
326.8725	0.128	653745	keystroke_c	c	n/a
327.3445	0.12	654689	keystroke_l	l	n/a
327.4645	0.088	654929	keystroke_e	e	n/a
327.5685	0.096	655137	keystroke_Key.space	Key.space	n/a
328.2965	0.136	656593	keystroke_c	c	n/a
328.4165	0.096	656833	keystroke_o	o	n/a
328.6085	0.096	657217	keystroke_n	n	n/a
328.7525	0.112	657505	keystroke_f	f	n/a
328.8965	0.104	657793	keystroke_i	i	n/a
329.0245	0.072	658049	keystroke_d	d	n/a
329.2085	0.104	658417	keystroke_e	e	n/a
329.3285	0.096	658657	keystroke_n	n	n/a
329.4885	0.104	658977	keystroke_t	t	n/a
329.6085	0.088	659217	keystroke_i	i	n/a
329.7765	0.096	659553	keystroke_a	a	n/a
329.904	0.072	659808	keystroke_l	l	n/a
330.1205	0.096	660241	keystroke_i	i	n/a
330.3125	0.104	660625	keystroke_t	t	n/a
330.5525	0.056	661105	keystroke_Key.space	Key.space	n/a
330.9685	0.072	661937	keystroke_Key.backspace	Key.backspace	n/a
331.4	0.072	662800	keystroke_Key.space	Key.space	n/a
332.272	0.072	664544	keystroke_Key.backspace	Key.backspace	n/a
332.768	0.08	665536	keystroke_y	y	n/a
332.896	0.104	665792	keystroke_Key.space	Key.space	n/a
334.176	0.073	668352	keystroke_i	i	n/a
334.345	0.119	668690	keystroke_n	n	n/a
334.664	0.144	669328	keystroke_t	t	n/a
334.9045	0.104	669809	keystroke_e	e	n/a
335.1765	0.0795	670353	keystroke_g	g	n/a
335.36	0.12	670720	keystroke_r	r	n/a
335.576	0.096	671152	keystroke_a	a	n/a
335.624	0.12	671248	keystroke_t	t	n/a
335.728	0.048	671456	keystroke_i	i	n/a
335.76	0.072	671520	keystroke_o	o	n/a
335.96	0.072	671920	keystroke_n	n	n/a
336.2805	0.064	672561	keystroke_Key.enter	Key.enter	n/a
336.348	9.2295	672696	prompt	n/a	licensed shareware claire headphones\n
337.0965	0.079	674193	keystroke_l	l	n/a
337.3125	0.088	674625	keystroke_i	i	n/a
337.4165	0.136	674833	keystroke_c	c	n/a
337.6965	0.096	675393	keystroke_e	e	n/a
337.8555	0.089	675711	keystroke_n	n	n/a
338.0405	0.1835	676081	keystroke_s	s	n/a
338.176	0.16	676352	keystroke_e	e	n/a
338.392	0.12	676784	keystroke_s	s	n/a
338.552	0.072	677104	keystroke_Key.space	Key.space	n/a
338.896	0.064	677792	keystroke_Key.backspace	Key.backspace	n/a
339.064	0.064	678128	keystroke_Key.backspace	Key.backspace	n/a
339.136	0.088	678272	keystroke_d	d	n/a
339.272	0.072	678544	keystroke_Key.space	Key.space	n/a
340.096	0.112	680192	keystroke_s	s	n/a
340.248	0.104	680496	keystroke_h	h	n/a
340.368	0.128	680736	keystroke_a	a	n/a
340.472	0.16	680944	keystroke_r	r	n/a
340.536	0.12	681072	keystroke_e	e	n/a
340.768	0.088	681536	keystroke_w	w	n/a
340.976	0.112	681952	keystroke_a	a	n/a
341.048	0.16	682096	keystroke_r	r	n/a
341.12	0.128	682240	keystroke_e	e	n/a
341.288	0.088	682576	keystroke_Key.space	Key.space	n/a
341.936	0.136	683872	keystroke_c	c	n/a
342.064	0.0965	684128	keystroke_l	l	n/a
342.2245	0.08	684449	keystroke_a	a	n/a
342.3445	0.088	684689	keystroke_i	i	n/a
342.4565	0.08	684913	keystroke_r	r	n/a
342.5605	0.08	685121	keystroke_Key.space	Key.space	n/a
343.1765	0.056	686353	keystroke_Key.backspace	Key.backspace	n/a
343.2805	0.072	686561	keystroke_e	e	n/a
343.3925	0.08	686785	keystroke_Key.space	Key.space	n/a
344.1045	0.104	688209	keystroke_h	h	n/a
344.2325	0.088	688465	keystroke_e	e	n/a
344.4005	0.112	688801	keystroke_a	a	n/a
344.4565	0.136	688913	keystroke_d	d	n/a
344.5765	0.08	689153	keystroke_p	p	n/a
344.7845	0.088	689569	keystroke_h	h	n/a
344.88	0.072	689760	keystroke_o	o	n/a
345	0.112	690000	keystroke_n	n	n/a
345.104	0.08	690208	keystroke_e	e	n/a
345.24	0.112	690480	keystroke_s	s	n/a
345.472	0.104	690944	keystroke_Key.enter	Key.enter	n/a
345.5825	1.891	691165	prompt	n/a	myspace dozen header alloy\n
346.272	0.08	692544	keystroke_m	m	n/a
346.504	0.072	693008	keystroke_y	y	n/a
346.672	0.088	693344	keystroke_s	s	n/a
346.824	0.128	693648	keystroke_p	p	n/a
346.976	0.096	693952	keystroke_a	a	n/a
347.04	0.168	694080	keystroke_c	c	n/a
347.152	0.12	694304	keystroke_e	e	n/a
347.416	0.0555	694832	keystroke_Key.enter	Key.enter	n/a
347.483	8.5505	694966	prompt	n/a	hung cultures compounds wiki\n
348.328	0.096	696656	keystroke_j	j	n/a
348.528	0.088	697056	keystroke_u	u	n/a
348.776	0.096	697552	keystroke_n	n	n/a
349.096	0.064	698192	keystroke_Key.backspace	Key.backspace	n/a
349.272	0.064	698544	keystroke_Key.backspace	Key.backspace	n/a
349.448	0.064	698896	keystroke_Key.backspace	Key.backspace	n/a
349.704	0.064	699408	keystroke_h	h	n/a
349.872	0.0715	699744	keystroke_u	u	n/a
350.0555	0.0805	700111	keystroke_n	n	n/a
350.192	0.104	700384	keystroke_g	g	n/a
350.28	0.104	700560	keystroke_Key.space	Key.space	n/a
350.472	0.113	700944	keystroke_c	c	n/a
350.585	0.071	701170	keystroke_u	u	n/a
350.752	0.088	701504	keystroke_l	l	n/a
350.88	0.08	701760	keystroke_t	t	n/a
351.056	0.104	702112	keystroke_u	u	n/a
351.216	0.16	702432	keystroke_r	r	n/a
351.448	0.112	702896	keystroke_e	e	n/a
351.672	0.096	703344	keystroke_s	s	n/a
351.808	0.088	703616	keystroke_Key.space	Key.space	n/a
352.56	0.128	705120	keystroke_c	c	n/a
352.752	0.088	705504	keystroke_o	o	n/a
352.928	0.144	705856	keystroke_m	m	n/a
353.08	0.104	706160	keystroke_p	p	n/a
353.296	0.112	706592	keystroke_o	o	n/a
353.368	0.064	706736	keystroke_u	u	n/a
353.56	0.096	707120	keystroke_n	n	n/a
353.688	0.176	707376	keystroke_d	d	n/a
353.736	0.136	707472	keystroke_s	s	n/a
353.92	0.08	707840	keystroke_Key.space	Key.space	n/a
354.304	0.096	708608	keystroke_w	w	n/a
354.424	0.064	708848	keystroke_k	k	n/a
354.608	0.096	709216	keystroke_i	i	n/a
354.9915	0.064	709983	keystroke_Key.backspace	Key.backspace	n/a
355.1515	0.064	710303	keystroke_Key.backspace	Key.backspace	n/a
355.3675	0.056	710735	keystroke_i	i	n/a
355.5435	0.048	711087	keystroke_k	k	n/a
355.7035	0.056	711407	keystroke_i	i	n/a
355.9605	0.071	711921	keystroke_Key.enter	Key.enter	n/a
356.0365	9.581	712073	prompt	n/a	budgets chicken profit malpractice\n
357.6475	0.121	715295	keystroke_b	b	n/a
357.8075	0.073	715615	keystroke_u	u	n/a
358.184	0.12	716368	keystroke_d	d	n/a
358.392	0.096	716784	keystroke_g	g	n/a
358.544	0.112	717088	keystroke_e	e	n/a
358.728	0.056	717456	keystroke_n	n	n/a
359.1355	0.096	718271	keystroke_Key.backspace	Key.backspace	n/a
359.2645	0.159	718529	keystroke_t	t	n/a
359.3275	0.104	718655	keystroke_s	s	n/a
359.4475	0.088	718895	keystroke_Key.space	Key.space	n/a
360.2	0.136	720400	keystroke_c	c	n/a
360.352	0.096	720704	keystroke_h	h	n/a
360.536	0.088	721072	keystroke_i	i	n/a
360.664	0.144	721328	keystroke_c	c	n/a
361.1445	0.096	722289	keystroke_k	k	n/a
361.3365	0.088	722673	keystroke_e	e	n/a
361.4725	0.088	722945	keystroke_n	n	n/a
361.6325	0.104	723265	keystroke_Key.space	Key.space	n/a
361.8645	0.096	723729	keystroke_p	p	n/a
362.0245	0.104	724049	keystroke_r	r	n/a
362.1205	0.111	724241	keystroke_o	o	n/a
362.2475	0.128	724495	keystroke_f	f	n/a
362.3915	0.088	724783	keystroke_i	i	n/a
362.5035	0.104	725007	keystroke_t	t	n/a
362.6315	0.064	725263	keystroke_Key.space	Key.space	n/a
362.7995	0.12	725599	keystroke_m	m	n/a
362.9835	0.1285	725967	keystroke_a	a	n/a
363.0315	0.1125	726063	keystroke_r	r	n/a
363.64	0.072	727280	keystroke_Key.backspace	Key.backspace	n/a
363.92	0.088	727840	keystroke_l	l	n/a
364.168	0.096	728336	keystroke_p	p	n/a
364.336	0.088	728672	keystroke_r	r	n/a
364.52	0.12	729040	keystroke_a	a	n/a
364.592	0.128	729184	keystroke_c	c	n/a
364.824	0.0955	729648	keystroke_t	t	n/a
364.9675	0.081	729935	keystroke_i	i	n/a
365.056	0.1675	730112	keystroke_c	c	n/a
365.1595	0.12	730319	keystroke_e	e	n/a
365.5275	0.088	731055	keystroke_Key.enter	Key.enter	n/a
365.62	9.2055	731240	prompt	n/a	would've derek wallpapers latitude\n
366.3995	0.08	732799	keystroke_w	w	n/a
366.7435	0.112	733487	keystroke_o	o	n/a
366.8075	0.096	733615	keystroke_u	u	n/a
366.9915	0.08	733983	keystroke_l	l	n/a
367.0635	0.0885	734127	keystroke_d	d	n/a
367.232	0.112	734464	keystroke_'	'	n/a
367.392	0.088	734784	keystroke_v	v	n/a
367.656	0.104	735312	keystroke_e	e	n/a
367.784	0.096	735568	keystroke_Key.space	Key.space	n/a
368.1515	0.113	736303	keystroke_c	c	n/a
368.6085	0.063	737217	keystroke_Key.backspace	Key.backspace	n/a
368.7045	0.072	737409	keystroke_d	d	n/a
368.8805	0.088	737761	keystroke_e	e	n/a
369.1125	0.1115	738225	keystroke_r	r	n/a
369.296	0.112	738592	keystroke_e	e	n/a
369.416	0.088	738832	keystroke_k	k	n/a
369.664	0.072	739328	keystroke_Key.space	Key.space	n/a
370.7035	0.088	741407	keystroke_w	w	n/a
370.9195	0.12	741839	keystroke_a	a	n/a
371.2555	0.08	742511	keystroke_l	l	n/a
371.4235	0.08	742847	keystroke_l	l	n/a
371.6555	0.08	743311	keystroke_p	p	n/a
371.8795	0.072	743759	keystroke_a	a	n/a
372.0235	0.08	744047	keystroke_p	p	n/a
372.1995	0.1445	744399	keystroke_e	e	n/a
372.2795	0.168	744559	keystroke_r	r	n/a
372.408	0.1115	744816	keystroke_s	s	n/a
372.5835	0.104	745167	keystroke_Key.space	Key.space	n/a
373.2635	0.12	746527	keystroke_l	l	n/a
373.4075	0.056	746815	keystroke_a	a	n/a
373.5595	0.0965	747119	keystroke_t	t	n/a
373.728	0.088	747456	keystroke_i	i	n/a
373.9835	0.112	747967	keystroke_t	t	n/a
374.1755	0.1045	748351	keystroke_u	u	n/a
374.312	0.096	748624	keystroke_d	d	n/a
374.52	0.104	749040	keystroke_e	e	n/a
374.736	0.088	749472	keystroke_Key.enter	Key.enter	n/a
374.828	7.109	749656	prompt	n/a	debate piece jazz writer\n
375.9195	0.144	751839	keystroke_d	d	n/a
376.576	0.088	753152	keystroke_e	e	n/a
376.776	0.104	753552	keystroke_b	b	n/a
376.984	0.088	753968	keystroke_a	a	n/a
377.04	0.16	754080	keystroke_t	t	n/a
377.136	0.112	754272	keystroke_e	e	n/a
377.24	0.096	754480	keystroke_Key.space	Key.space	n/a
377.792	0.072	755584	keystroke_p	p	n/a
377.992	0.104	755984	keystroke_i	i	n/a
378.104	0.16	756208	keystroke_e	e	n/a
378.176	0.168	756352	keystroke_c	c	n/a
378.352	0.112	756704	keystroke_Key.space	Key.space	n/a
378.688	0.12	757376	keystroke_j	j	n/a
379.024	0.064	758048	keystroke_Key.backspace	Key.backspace	n/a
379.199	0.057	758398	keystroke_Key.backspace	Key.backspace	n/a
379.304	0.096	758608	keystroke_e	e	n/a
379.416	0.072	758832	keystroke_Key.space	Key.space	n/a
379.528	0.096	759056	keystroke_j	j	n/a
379.656	0.056	759312	keystroke_a	a	n/a
379.864	0.048	759728	keystroke_z	z	n/a
380.016	0.072	760032	keystroke_z	z	n/a
380.152	0.088	760304	keystroke_Key.space	Key.space	n/a
380.6635	0.096	761327	keystroke_w	w	n/a
380.8715	0.096	761743	keystroke_r	r	n/a
381.0075	0.064	762015	keystroke_i	i	n/a
381.1355	0.12	762271	keystroke_t	t	n/a
381.3675	0.16	762735	keystroke_e	e	n/a
381.4555	0.112	762911	keystroke_r	r	n/a
381.8555	0.08	763711	keystroke_Key.enter	Key.enter	n/a
381.9395	5.5095	763879	prompt	n/a	foto reached stands spend\n
382.8235	0.112	765647	keystroke_f	f	n/a
382.9995	0.096	765999	keystroke_o	o	n/a
383.1515	0.088	766303	keystroke_t	t	n/a
383.2405	0.079	766481	keystroke_o	o	n/a
383.3835	0.096	766767	keystroke_Key.space	Key.space	n/a
384.0475	0.136	768095	keystroke_r	r	n/a
384.1195	0.08	768239	keystroke_e	e	n/a
384.296	0.112	768592	keystroke_a	a	n/a
384.352	0.136	768704	keystroke_c	c	n/a
384.536	0.088	769072	keystroke_h	h	n/a
384.712	0.08	769424	keystroke_e	e	n/a
384.9115	0.104	769823	keystroke_d	d	n/a
385.0555	0.104	770111	keystroke_Key.space	Key.space	n/a
385.6075	0.072	771215	keystroke_s	s	n/a
385.7835	0.104	771567	keystroke_t	t	n/a
385.9435	0.096	771887	keystroke_a	a	n/a
386.0555	0.088	772111	keystroke_n	n	n/a
386.1275	0.224	772255	keystroke_d	d	n/a
386.2395	0.128	772479	keystroke_s	s	n/a
386.3995	0.088	772799	keystroke_Key.space	Key.space	n/a
386.6155	0.104	773231	keystroke_s	s	n/a
386.7355	0.128	773471	keystroke_p	p	n/a
386.8555	0.104	773711	keystroke_e	e	n/a
386.9995	0.088	773999	keystroke_n	n	n/a
387.1115	0.136	774223	keystroke_d	d	n/a
387.3675	0.08	774735	keystroke_Key.enter	Key.enter	n/a
387.4545	12.0185	774909	prompt	n/a	intimate controlling scope adobe\n
388.2315	0.0725	776463	keystroke_i	i	n/a
388.472	0.088	776944	keystroke_n	n	n/a
388.752	0.096	777504	keystroke_t	t	n/a
388.936	0.064	777872	keystroke_i	i	n/a
389.1035	0.104	778207	keystroke_m	m	n/a
389.2795	0.096	778559	keystroke_a	a	n/a
389.3355	0.128	778671	keystroke_t	t	n/a
389.4875	0.112	778975	keystroke_e	e	n/a
389.6475	0.1045	779295	keystroke_Key.space	Key.space	n/a
390.096	0.104	780192	keystroke_c	c	n/a
390.184	0.072	780368	keystroke_o	o	n/a
390.343	0.104	780686	keystroke_n	n	n/a
390.463	0.089	780926	keystroke_t	t	n/a
390.615	0.137	781230	keystroke_r	r	n/a
390.775	0.088	781550	keystroke_o	o	n/a
391.152	0.08	782304	keystroke_l	l	n/a
391.312	0.08	782624	keystroke_l	l	n/a
391.52	0.047	783040	keystroke_i	i	n/a
391.695	0.073	783390	keystroke_n	n	n/a
391.864	0.119	783728	keystroke_g	g	n/a
391.991	0.088	783982	keystroke_Key.space	Key.space	n/a
392.216	0.087	784432	keystroke_s	s	n/a
392.551	0.081	785102	keystroke_o	o	n/a
392.967	0.081	785934	keystroke_Key.backspace	Key.backspace	n/a
393.023	0.089	786046	keystroke_c	c	n/a
393.24	0.064	786480	keystroke_p	p	n/a
393.448	0.064	786896	keystroke_[	[	n/a
393.616	0.088	787232	keystroke_e	e	n/a
393.976	0.072	787952	keystroke_Key.backspace	Key.backspace	n/a
394.16	0.072	788320	keystroke_Key.backspace	Key.backspace	n/a
394.336	0.08	788672	keystroke_Key.backspace	Key.backspace	n/a
394.7595	0.096	789519	keystroke_[	[	n/a
395.3675	0.08	790735	keystroke_Key.backspace	Key.backspace	n/a
395.8075	0.136	791615	keystroke_o	o	n/a
395.9835	0.072	791967	keystroke_e	e	n/a
396.503	0.08	793006	keystroke_Key.backspace	Key.backspace	n/a
397.055	0.0725	794110	keystroke_p	p	n/a
397.1675	0.072	794335	keystroke_e	e	n/a
397.3035	0.088	794607	keystroke_Key.space	Key.space	n/a
397.8395	0.104	795679	keystroke_a	a	n/a
397.9195	0.104	795839	keystroke_d	d	n/a
398.424	0.104	796848	keystroke_o	o	n/a
398.704	0.104	797408	keystroke_b	b	n/a
398.928	0.112	797856	keystroke_e	e	n/a
399.3755	0.096	798751	keystroke_Key.enter	Key.enter	n/a
399.4765	9.892	798953	prompt	n/a	control nutrition dumb directions\n
400.223	0.1205	800446	keystroke_c	c	n/a
400.295	0.0645	800590	keystroke_o	o	n/a
400.4555	0.088	800911	keystroke_n	n	n/a
400.5595	0.08	801119	keystroke_t	t	n/a
400.6955	0.112	801391	keystroke_r	r	n/a
400.8315	0.08	801663	keystroke_o	o	n/a
401.0075	0.096	802015	keystroke_l	l	n/a
401.1595	0.072	802319	keystroke_Key.space	Key.space	n/a
401.3515	0.064	802703	keystroke_n	n	n/a
401.5515	0.096	803103	keystroke_u	u	n/a
401.7275	0.104	803455	keystroke_t	t	n/a
402.0955	0.08	804191	keystroke_u	u	n/a
402.6315	0.064	805263	keystroke_Key.backspace	Key.backspace	n/a
402.7595	0.104	805519	keystroke_r	r	n/a
403.0395	0.12	806079	keystroke_t	t	n/a
403.7515	0.066	807503	keystroke_Key.backspace	Key.backspace	n/a
404.0395	0.08	808079	keystroke_i	i	n/a
404.1835	0.096	808367	keystroke_t	t	n/a
404.9035	0.128	809807	keystroke_i	i	n/a
404.9995	0.064	809999	keystroke_o	o	n/a
405.1995	0.056	810399	keystroke_n	n	n/a
405.3435	0.08	810687	keystroke_Key.space	Key.space	n/a
406.0955	0.12	812191	keystroke_d	d	n/a
406.2315	0.08	812463	keystroke_u	u	n/a
406.431	0.08	812862	keystroke_m	m	n/a
406.656	0.056	813312	keystroke_b	b	n/a
406.815	0.08	813630	keystroke_Key.space	Key.space	n/a
407.528	0.112	815056	keystroke_d	d	n/a
407.687	0.113	815374	keystroke_i	i	n/a
407.807	0.12	815614	keystroke_r	r	n/a
407.879	0.072	815758	keystroke_e	e	n/a
408.072	0.096	816144	keystroke_c	c	n/a
408.296	0.111	816592	keystroke_t	t	n/a
408.415	0.088	816830	keystroke_i	i	n/a
408.463	0.073	816926	keystroke_o	o	n/a
408.663	0.096	817326	keystroke_n	n	n/a
408.775	0.072	817550	keystroke_s	s	n/a
409.271	0.096	818542	keystroke_Key.enter	Key.enter	n/a
409.3715	10.349	818743	prompt	n/a	textiles dash educational reproduce\n
410.2235	0.1525	820447	keystroke_t	t	n/a
410.3275	0.1035	820655	keystroke_e	e	n/a
410.536	0.08	821072	keystroke_x	x	n/a
410.736	0.128	821472	keystroke_t	t	n/a
410.959	0.112	821918	keystroke_t	t	n/a
411.488	0.063	822976	keystroke_Key.backspace	Key.backspace	n/a
411.76	0.064	823520	keystroke_o	o	n/a
412.599	0.088	825198	keystroke_Key.backspace	Key.backspace	n/a
412.975	0.056	825950	keystroke_i	i	n/a
413.159	0.08	826318	keystroke_l	l	n/a
413.247	0.072	826494	keystroke_e	e	n/a
413.415	0.096	826830	keystroke_s	s	n/a
413.575	0.08	827150	keystroke_Key.space	Key.space	n/a
413.903	0.096	827806	keystroke_d	d	n/a
414.103	0.144	828206	keystroke_a	a	n/a
414.16	0.135	828320	keystroke_s	s	n/a
414.439	0.104	828878	keystroke_h	h	n/a
414.639	0.08	829278	keystroke_Key.space	Key.space	n/a
415.0955	0.048	830191	keystroke_e	e	n/a
415.2395	0.096	830479	keystroke_d	d	n/a
415.3915	0.08	830783	keystroke_u	u	n/a
415.4635	0.12	830927	keystroke_c	c	n/a
415.6875	0.096	831375	keystroke_a	a	n/a
415.7435	0.136	831487	keystroke_t	t	n/a
415.8235	0.12	831647	keystroke_i	i	n/a
415.9195	0.072	831839	keystroke_o	o	n/a
416.1035	0.08	832207	keystroke_n	n	n/a
416.2635	0.104	832527	keystroke_a	a	n/a
416.3915	0.0725	832783	keystroke_l	l	n/a
416.543	0.057	833086	keystroke_Key.space	Key.space	n/a
417.08	0.12	834160	keystroke_r	r	n/a
417.144	0.088	834288	keystroke_e	e	n/a
417.512	0.1195	835024	keystroke_p	p	n/a
417.832	0.104	835664	keystroke_r	r	n/a
418.048	0.088	836096	keystroke_o	o	n/a
418.288	0.135	836576	keystroke_d	d	n/a
418.463	0.112	836926	keystroke_u	u	n/a
418.615	0.104	837230	keystroke_c	c	n/a
419.104	0.08	838208	keystroke_e	e	n/a
419.615	0.105	839230	keystroke_Key.enter	Key.enter	n/a
419.724	7.3405	839448	prompt	n/a	feature identify demands legendary\n
420.599	0.112	841198	keystroke_f	f	n/a
420.759	0.088	841518	keystroke_e	e	n/a
420.943	0.0965	841886	keystroke_a	a	n/a
421.007	0.1205	842014	keystroke_t	t	n/a
421.1755	0.112	842351	keystroke_u	u	n/a
421.3515	0.144	842703	keystroke_r	r	n/a
421.4235	0.104	842847	keystroke_e	e	n/a
421.5835	0.104	843167	keystroke_Key.space	Key.space	n/a
422.1515	0.072	844303	keystroke_i	i	n/a
422.3115	0.104	844623	keystroke_d	d	n/a
422.4955	0.12	844991	keystroke_e	e	n/a
422.6165	0.095	845233	keystroke_n	n	n/a
422.7755	0.088	845551	keystroke_t	t	n/a
422.9835	0.064	845967	keystroke_i	i	n/a
423.567	0.088	847134	keystroke_f	f	n/a
423.751	0.088	847502	keystroke_y	y	n/a
423.895	0.088	847790	keystroke_Key.space	Key.space	n/a
424.5275	0.08	849055	keystroke_d	d	n/a
424.6955	0.096	849391	keystroke_e	e	n/a
424.8155	0.0715	849631	keystroke_m	m	n/a
424.927	0.072	849854	keystroke_a	a	n/a
425.039	0.0885	850078	keystroke_n	n	n/a
425.0875	0.224	850175	keystroke_d	d	n/a
425.1915	0.128	850383	keystroke_s	s	n/a
425.3275	0.08	850655	keystroke_Key.space	Key.space	n/a
425.4635	0.112	850927	keystroke_l	l	n/a
425.5765	0.0945	851153	keystroke_e	e	n/a
425.751	0.104	851502	keystroke_g	g	n/a
425.895	0.088	851790	keystroke_e	e	n/a
426.079	0.104	852158	keystroke_n	n	n/a
426.199	0.128	852398	keystroke_d	d	n/a
426.4315	0.096	852863	keystroke_a	a	n/a
426.4875	0.112	852975	keystroke_r	r	n/a
426.6635	0.096	853327	keystroke_y	y	n/a
426.9985	0.064	853997	keystroke_Key.enter	Key.enter	n/a
427.0705	6.162	854141	prompt	n/a	league machines complex surge\n
427.8785	0.112	855757	keystroke_l	l	n/a
427.9915	0.103	855983	keystroke_e	e	n/a
428.1745	0.088	856349	keystroke_a	a	n/a
428.2385	0.12	856477	keystroke_g	g	n/a
428.3505	0.097	856701	keystroke_u	u	n/a
428.4715	0.12	856943	keystroke_e	e	n/a
428.6315	0.088	857263	keystroke_Key.space	Key.space	n/a
428.8875	0.12	857775	keystroke_m	m	n/a
429.0395	0.1275	858079	keystroke_a	a	n/a
429.1115	0.1355	858223	keystroke_c	c	n/a
429.24	0.103	858480	keystroke_h	h	n/a
429.335	0.072	858670	keystroke_i	i	n/a
429.503	0.112	859006	keystroke_n	n	n/a
429.575	0.104	859150	keystroke_e	e	n/a
429.759	0.08	859518	keystroke_s	s	n/a
429.8875	0.088	859775	keystroke_Key.space	Key.space	n/a
430.3435	0.1595	860687	keystroke_c	c	n/a
430.511	0.08	861022	keystroke_o	o	n/a
430.695	0.112	861390	keystroke_m	m	n/a
430.775	0.088	861550	keystroke_p	p	n/a
431.015	0.128	862030	keystroke_l	l	n/a
431.167	0.072	862334	keystroke_e	e	n/a
431.359	0.096	862718	keystroke_x	x	n/a
431.783	0.12	863566	keystroke_Key.space	Key.space	n/a
432.151	0.104	864302	keystroke_s	s	n/a
432.311	0.104	864622	keystroke_u	u	n/a
432.391	0.0805	864782	keystroke_r	r	n/a
432.6075	0.112	865215	keystroke_g	g	n/a
432.7035	0.088	865407	keystroke_e	e	n/a
433.1355	0.096	866271	keystroke_Key.enter	Key.enter	n/a
433.236	11.8045	866472	prompt	n/a	prayer madagascar spaces prominent\n
434.0315	0.12	868063	keystroke_p	p	n/a
434.1915	0.096	868383	keystroke_r	r	n/a
434.3915	0.128	868783	keystroke_a	a	n/a
434.5675	0.104	869135	keystroke_y	y	n/a
434.7025	0.129	869405	keystroke_e	e	n/a
434.7665	0.113	869533	keystroke_r	r	n/a
434.8705	0.1045	869741	keystroke_Key.space	Key.space	n/a
435.431	0.104	870862	keystroke_m	m	n/a
435.567	0.096	871134	keystroke_a	a	n/a
435.655	0.16	871310	keystroke_d	d	n/a
435.855	0.072	871710	keystroke_a	a	n/a
436.8305	0.056	873661	keystroke_g	g	n/a
437.9355	0.127	875871	keystroke_s	s	n/a
438.0065	0.088	876013	keystroke_a	a	n/a
438.735	0.072	877470	keystroke_Key.backspace	Key.backspace	n/a
438.895	0.08	877790	keystroke_Key.backspace	Key.backspace	n/a
439.015	0.104	878030	keystroke_a	a	n/a
439.055	0.096	878110	keystroke_s	s	n/a
439.287	0.128	878574	keystroke_c	c	n/a
439.575	0.096	879150	keystroke_a	a	n/a
439.615	0.136	879230	keystroke_r	r	n/a
440.4635	0.0795	880927	keystroke_Key.space	Key.space	n/a
440.647	0.112	881294	keystroke_s	s	n/a
440.783	0.072	881566	keystroke_p	p	n/a
440.887	0.104	881774	keystroke_a	a	n/a
440.935	0.168	881870	keystroke_c	c	n/a
441.087	0.072	882174	keystroke_e	e	n/a
441.575	0.088	883150	keystroke_s	s	n/a
442.783	0.096	885566	keystroke_Key.space	Key.space	n/a
443.135	0.104	886270	keystroke_p	p	n/a
443.279	0.12	886558	keystroke_r	r	n/a
443.375	0.096	886750	keystroke_o	o	n/a
443.567	0.144	887134	keystroke_m	m	n/a
443.703	0.08	887406	keystroke_i	i	n/a
443.879	0.112	887758	keystroke_n	n	n/a
444.103	0.104	888206	keystroke_e	e	n/a
444.239	0.104	888478	keystroke_n	n	n/a
444.375	0.104	888750	keystroke_t	t	n/a
444.951	0.088	889902	keystroke_Key.enter	Key.enter	n/a
445.0445	14.4835	890089	prompt	n/a	referrals extending broker raised\n
445.823	0.144	891646	keystroke_r	r	n/a
445.943	0.088	891886	keystroke_e	e	n/a
446.159	0.136	892318	keystroke_f	f	n/a
446.423	0.088	892846	keystroke_e	e	n/a
446.903	0.096	893806	keystroke_r	r	n/a
447.103	0.104	894206	keystroke_r	r	n/a
447.311	0.112	894622	keystroke_a	a	n/a
447.431	0.096	894862	keystroke_l	l	n/a
447.551	0.096	895102	keystroke_s	s	n/a
447.663	0.112	895326	keystroke_Key.space	Key.space	n/a
448.391	0.064	896782	keystroke_e	e	n/a
448.591	0.048	897182	keystroke_x	x	n/a
448.807	0.128	897614	keystroke_t	t	n/a
449.0465	0.112	898093	keystroke_e	e	n/a
449.2305	0.08	898461	keystroke_n	n	n/a
449.3425	0.12	898685	keystroke_d	d	n/a
449.4545	0.064	898909	keystroke_i	i	n/a
449.6305	0.088	899261	keystroke_n	n	n/a
449.7425	0.112	899485	keystroke_g	g	n/a
449.879	0.096	899758	keystroke_Key.space	Key.space	n/a
450.479	0.0965	900958	keystroke_b	b	n/a
450.6225	0.112	901245	keystroke_r	r	n/a
450.7425	0.08	901485	keystroke_o	o	n/a
450.9505	0.08	901901	keystroke_k	k	n/a
451.0545	0.136	902109	keystroke_e	e	n/a
451.1185	0.096	902237	keystroke_r	r	n/a
451.2625	0.104	902525	keystroke_Key.space	Key.space	n/a
451.7185	0.152	903437	keystroke_r	r	n/a
451.7905	0.096	903581	keystroke_e	e	n/a
452.2785	0.08	904557	keystroke_Key.backspace	Key.backspace	n/a
452.4465	0.088	904893	keystroke_a	a	n/a
452.567	0.088	905134	keystroke_o	o	n/a
452.656	0.079	905312	keystroke_s	s	n/a
452.847	0.08	905694	keystroke_e	e	n/a
453.1745	0.072	906349	keystroke_Key.backspace	Key.backspace	n/a
453.3505	0.04	906701	keystroke_Key.backspace	Key.backspace	n/a
453.4945	0.048	906989	keystroke_Key.backspace	Key.backspace	n/a
453.7905	0.088	907581	keystroke_o	o	n/a
454.0865	0.088	908173	keystroke_s	s	n/a
454.5905	0.088	909181	keystroke_Key.backspace	Key.backspace	n/a
454.7745	0.072	909549	keystroke_Key.backspace	Key.backspace	n/a
455.1425	0.096	910285	keystroke_i	i	n/a
455.4945	0.064	910989	keystroke_s	s	n/a
455.7345	0.064	911469	keystroke_d	d	n/a
455.9185	0.064	911837	keystroke_e	e	n/a
456.0945	0.072	912189	keystroke_d	d	n/a
456.871	0.056	913742	keystroke_Key.backspace	Key.backspace	n/a
457.1985	0.072	914397	keystroke_Key.backspace	Key.backspace	n/a
457.3745	0.096	914749	keystroke_Key.backspace	Key.backspace	n/a
457.5025	0.112	915005	keystroke_d	d	n/a
457.7585	0.144	915517	keystroke_e	e	n/a
458.2785	0.08	916557	keystroke_Key.backspace	Key.backspace	n/a
458.4465	0.096	916893	keystroke_Key.backspace	Key.backspace	n/a
458.8065	0.08	917613	keystroke_e	e	n/a
458.9745	0.112	917949	keystroke_d	d	n/a
459.4225	0.104	918845	keystroke_Key.enter	Key.enter	n/a
459.5305	9.3175	919061	prompt	n/a	rebound cottages aboriginal lesser\n
460.311	0.168	920622	keystroke_r	r	n/a
460.431	0.08	920862	keystroke_e	e	n/a
460.6625	0.064	921325	keystroke_b	b	n/a
460.8625	0.136	921725	keystroke_o	o	n/a
460.9265	0.088	921853	keystroke_u	u	n/a
461.1425	0.072	922285	keystroke_n	n	n/a
461.2545	0.096	922509	keystroke_d	d	n/a
461.3665	0.104	922733	keystroke_Key.space	Key.space	n/a
461.6705	0.128	923341	keystroke_c	c	n/a
461.8065	0.08	923613	keystroke_o	o	n/a
461.9905	0.08	923981	keystroke_t	t	n/a
462.1985	0.112	924397	keystroke_t	t	n/a
462.3985	0.104	924797	keystroke_a	a	n/a
462.4545	0.096	924909	keystroke_g	g	n/a
462.599	0.064	925198	keystroke_e	e	n/a
462.767	0.096	925534	keystroke_s	s	n/a
463.391	0.088	926782	keystroke_Key.space	Key.space	n/a
463.711	0.064	927422	keystroke_a	a	n/a
464.079	0.072	928158	keystroke_b	b	n/a
464.399	0.112	928798	keystroke_o	o	n/a
464.575	0.1035	929150	keystroke_r	r	n/a
465.3185	0.104	930637	keystroke_i	i	n/a
465.75	0.128	931500	keystroke_g	g	n/a
465.958	0.08	931916	keystroke_i	i	n/a
466.1425	0.0955	932285	keystroke_n	n	n/a
466.687	0.088	933374	keystroke_a	a	n/a
466.823	0.104	933646	keystroke_l	l	n/a
466.999	0.096	933998	keystroke_Key.space	Key.space	n/a
467.583	0.12	935166	keystroke_l	l	n/a
467.719	0.088	935438	keystroke_e	e	n/a
467.967	0.016	935934	keystroke_s	s	n/a
468.111	0.088	936222	keystroke_s	s	n/a
468.303	0.152	936606	keystroke_e	e	n/a
468.391	0.12	936782	keystroke_r	r	n/a
468.766	0.08	937532	keystroke_Key.enter	Key.enter	n/a
468.8505	5.4855	937701	prompt	n/a	norm lips routine engaged\n
470.2305	0.072	940461	keystroke_n	n	n/a
470.3905	0.08	940781	keystroke_o	o	n/a
470.5185	0.112	941037	keystroke_r	r	n/a
470.647	0.0875	941294	keystroke_m	m	n/a
470.7985	0.08	941597	keystroke_Key.space	Key.space	n/a
470.9265	0.088	941853	keystroke_l	l	n/a
471.1505	0.048	942301	keystroke_i	i	n/a
471.3265	0.08	942653	keystroke_p	p	n/a
471.4625	0.08	942925	keystroke_s	s	n/a
471.5745	0.112	943149	keystroke_Key.space	Key.space	n/a
471.8385	0.128	943677	keystroke_r	r	n/a
471.9585	0.136	943917	keystroke_o	o	n/a
472.0465	0.096	944093	keystroke_u	u	n/a
472.1825	0.112	944365	keystroke_t	t	n/a
472.2785	0.072	944557	keystroke_i	i	n/a
472.4465	0.096	944893	keystroke_n	n	n/a
472.5905	0.088	945181	keystroke_e	e	n/a
472.7665	0.096	945533	keystroke_Key.space	Key.space	n/a
472.9345	0.08	945869	keystroke_e	e	n/a
473.0865	0.104	946173	keystroke_n	n	n/a
473.2865	0.096	946573	keystroke_g	g	n/a
473.4705	0.096	946941	keystroke_a	a	n/a
473.5585	0.12	947117	keystroke_g	g	n/a
473.7265	0.112	947453	keystroke_e	e	n/a
473.9105	0.136	947821	keystroke_d	d	n/a
474.2465	0.088	948493	keystroke_Key.enter	Key.enter	n/a
474.339	7.525	948678	prompt	n/a	firms hello pollution male\n
475.118	0.096	950236	keystroke_f	f	n/a
475.238	0.0725	950476	keystroke_i	i	n/a
475.358	0.129	950716	keystroke_r	r	n/a
475.462	0.104	950924	keystroke_m	m	n/a
475.662	0.112	951324	keystroke_s	s	n/a
475.79	0.024	951580	keystroke_Key.space	Key.space	n/a
476.054	0.104	952108	keystroke_h	h	n/a
476.174	0.104	952348	keystroke_e	e	n/a
476.326	0.064	952652	keystroke_l	l	n/a
476.494	0.08	952988	keystroke_l	l	n/a
476.6945	0.072	953389	keystroke_o	o	n/a
476.9425	0.072	953885	keystroke_Key.space	Key.space	n/a
477.1985	0.112	954397	keystroke_p	p	n/a
477.6225	0.088	955245	keystroke_o	o	n/a
477.8305	0.072	955661	keystroke_l	l	n/a
478.0545	0.08	956109	keystroke_u	u	n/a
478.2705	0.096	956541	keystroke_t	t	n/a
478.671	0.055	957342	keystroke_Key.backspace	Key.backspace	n/a
478.831	0.056	957662	keystroke_Key.backspace	Key.backspace	n/a
479.03	0.064	958060	keystroke_l	l	n/a
479.23	0.08	958460	keystroke_u	u	n/a
479.374	0.088	958748	keystroke_t	t	n/a
479.582	0.152	959164	keystroke_i	i	n/a
479.694	0.072	959388	keystroke_o	o	n/a
479.895	0.072	959790	keystroke_n	n	n/a
480.479	0.072	960958	keystroke_Key.space	Key.space	n/a
480.7265	0.12	961453	keystroke_m	m	n/a
480.9105	0.08	961821	keystroke_a	a	n/a
480.9985	0.1035	961997	keystroke_l	l	n/a
481.11	0.128	962220	keystroke_e	e	n/a
481.758	0.104	963516	keystroke_Key.enter	Key.enter	n/a
481.867	8.797	963734	prompt	n/a	hide deeper collector horrible\n
482.7185	0.08	965437	keystroke_h	h	n/a
482.9105	0.096	965821	keystroke_i	i	n/a
483.0065	0.088	966013	keystroke_d	d	n/a
483.1905	0.112	966381	keystroke_e	e	n/a
483.3265	0.096	966653	keystroke_Key.space	Key.space	n/a
483.6945	0.12	967389	keystroke_d	d	n/a
484.1265	0.088	968253	keystroke_e	e	n/a
484.5425	0.088	969085	keystroke_e	e	n/a
484.7265	0.096	969453	keystroke_p	p	n/a
484.8705	0.0715	969741	keystroke_d	d	n/a
485.3265	0.08	970653	keystroke_Key.backspace	Key.backspace	n/a
485.5745	0.152	971149	keystroke_e	e	n/a
485.6465	0.112	971293	keystroke_r	r	n/a
485.8465	0.096	971693	keystroke_Key.space	Key.space	n/a
486.1825	0.128	972365	keystroke_c	c	n/a
486.2785	0.056	972557	keystroke_o	o	n/a
486.4705	0.056	972941	keystroke_l	l	n/a
486.6385	0.1115	973277	keystroke_l	l	n/a
486.758	0.1445	973516	keystroke_e	e	n/a
486.79	0.1285	973580	keystroke_c	c	n/a
487.3025	0.104	974605	keystroke_t	t	n/a
487.6305	0.12	975261	keystroke_o	o	n/a
487.7745	0.096	975549	keystroke_r	r	n/a
487.9105	0.096	975821	keystroke_Key.space	Key.space	n/a
488.1425	0.064	976285	keystroke_h	h	n/a
488.2545	0.064	976509	keystroke_o	o	n/a
488.3665	0.096	976733	keystroke_f	f	n/a
488.5505	0.128	977101	keystroke_f	f	n/a
488.6305	0.0715	977261	keystroke_i	i	n/a
488.815	0.079	977630	keystroke_b	b	n/a
489.102	0.072	978204	keystroke_Key.backspace	Key.backspace	n/a
489.262	0.072	978524	keystroke_Key.backspace	Key.backspace	n/a
489.43	0.08	978860	keystroke_Key.backspace	Key.backspace	n/a
489.614	0.072	979228	keystroke_Key.backspace	Key.backspace	n/a
489.703	0.079	979406	keystroke_r	r	n/a
489.87	0.1125	979740	keystroke_r	r	n/a
490.0065	0.064	980013	keystroke_i	i	n/a
490.1745	0.056	980349	keystroke_b	b	n/a
490.3345	0.08	980669	keystroke_l	l	n/a
490.4385	0.088	980877	keystroke_e	e	n/a
490.5745	0.088	981149	keystroke_Key.enter	Key.enter	n/a
490.6715	9.44	981343	prompt	n/a	casinos electronics coleman ballot\n
491.3985	0.112	982797	keystroke_c	c	n/a
491.7825	0.168	983565	keystroke_a	a	n/a
491.8465	0.136	983693	keystroke_s	s	n/a
492.0065	0.088	984013	keystroke_i	i	n/a
492.3105	0.072	984621	keystroke_o	o	n/a
492.8465	0.055	985693	keystroke_Key.backspace	Key.backspace	n/a
493.0865	0.1045	986173	keystroke_n	n	n/a
493.1585	0.0795	986317	keystroke_o	o	n/a
493.2855	0.049	986571	keystroke_s	s	n/a
493.3985	0.08	986797	keystroke_Key.space	Key.space	n/a
494.0385	0.079	988077	keystroke_e	e	n/a
494.2705	0.072	988541	keystroke_l	l	n/a
494.726	0.1765	989452	keystroke_e	e	n/a
494.846	0.1285	989692	keystroke_c	c	n/a
495.1025	0.08	990205	keystroke_t	t	n/a
495.2465	0.12	990493	keystroke_r	r	n/a
495.3425	0.072	990685	keystroke_o	o	n/a
495.5025	0.072	991005	keystroke_n	n	n/a
495.6225	0.096	991245	keystroke_i	i	n/a
495.7025	0.128	991405	keystroke_c	c	n/a
495.7825	0.136	991565	keystroke_s	s	n/a
495.9905	0.088	991981	keystroke_Key.space	Key.space	n/a
496.758	0.144	993516	keystroke_c	c	n/a
496.918	0.056	993836	keystroke_o	o	n/a
497.07	0.096	994140	keystroke_l	l	n/a
497.214	0.104	994428	keystroke_e	e	n/a
497.358	0.056	994716	keystroke_m	m	n/a
497.566	0.088	995132	keystroke_a	a	n/a
497.582	0.096	995164	keystroke_n	n	n/a
498.23	0.056	996460	keystroke_Key.space	Key.space	n/a
498.47	0.096	996940	keystroke_b	b	n/a
499.022	0.112	998044	keystroke_a	a	n/a
499.15	0.056	998300	keystroke_l	l	n/a
499.294	0.088	998588	keystroke_l	l	n/a
499.598	0.104	999196	keystroke_o	o	n/a
499.742	0.104	999484	keystroke_t	t	n/a
500.0295	0.08	1000059	keystroke_Key.enter	Key.enter	n/a
500.1155	6.9	1000231	prompt	n/a	soundtrack hospitals redhead broken\n
500.886	0.104	1001772	keystroke_s	s	n/a
500.998	0.152	1001996	keystroke_o	o	n/a
501.102	0.064	1002204	keystroke_u	u	n/a
501.294	0.088	1002588	keystroke_n	n	n/a
501.39	0.128	1002780	keystroke_d	d	n/a
501.702	0.088	1003404	keystroke_t	t	n/a
501.878	0.112	1003756	keystroke_r	r	n/a
502.078	0.168	1004156	keystroke_a	a	n/a
502.15	0.144	1004300	keystroke_c	c	n/a
502.286	0.088	1004572	keystroke_k	k	n/a
502.4625	0.104	1004925	keystroke_Key.space	Key.space	n/a
503.0055	0.072	1006011	keystroke_h	h	n/a
503.2615	0.105	1006523	keystroke_o	o	n/a
503.4305	0.071	1006861	keystroke_s	s	n/a
503.5655	0.08	1007131	keystroke_p	p	n/a
503.7735	0.088	1007547	keystroke_i	i	n/a
503.8935	0.097	1007787	keystroke_t	t	n/a
504.0695	0.112	1008139	keystroke_a	a	n/a
504.2055	0.096	1008411	keystroke_l	l	n/a
504.3335	0.096	1008667	keystroke_s	s	n/a
504.5175	0.088	1009035	keystroke_Key.space	Key.space	n/a
504.9345	0.136	1009869	keystroke_r	r	n/a
505.0145	0.096	1010029	keystroke_e	e	n/a
505.2065	0.136	1010413	keystroke_d	d	n/a
505.4145	0.096	1010829	keystroke_h	h	n/a
505.5185	0.104	1011037	keystroke_e	e	n/a
505.7105	0.072	1011421	keystroke_a	a	n/a
505.7425	0.136	1011485	keystroke_d	d	n/a
505.9025	0.056	1011805	keystroke_Key.space	Key.space	n/a
506.0785	0.08	1012157	keystroke_b	b	n/a
506.1985	0.136	1012397	keystroke_r	r	n/a
506.3025	0.072	1012605	keystroke_o	o	n/a
506.4945	0.088	1012989	keystroke_k	k	n/a
506.6225	0.104	1013245	keystroke_e	e	n/a
506.7345	0.0555	1013469	keystroke_n	n	n/a
506.926	0.088	1013852	keystroke_Key.enter	Key.enter	n/a
507.018	8.6935	1014036	prompt	n/a	amber injection mating generally\n
507.854	0.104	1015708	keystroke_a	a	n/a
507.974	0.064	1015948	keystroke_m	m	n/a
508.198	0.072	1016396	keystroke_b	b	n/a
508.302	0.144	1016604	keystroke_e	e	n/a
508.374	0.112	1016748	keystroke_r	r	n/a
508.51	0.088	1017020	keystroke_Key.space	Key.space	n/a
508.654	0.072	1017308	keystroke_i	i	n/a
508.83	0.064	1017660	keystroke_n	n	n/a
509.022	0.1125	1018044	keystroke_j	j	n/a
509.1425	0.16	1018285	keystroke_e	e	n/a
509.2065	0.104	1018413	keystroke_c	c	n/a
509.4385	0.104	1018877	keystroke_t	t	n/a
509.5345	0.112	1019069	keystroke_i	i	n/a
509.6225	0.088	1019245	keystroke_o	o	n/a
509.8225	0.0875	1019645	keystroke_n	n	n/a
509.934	0.048	1019868	keystroke_Key.space	Key.space	n/a
510.054	0.104	1020108	keystroke_m	m	n/a
510.198	0.08	1020396	keystroke_a	a	n/a
510.326	0.12	1020652	keystroke_t	t	n/a
510.43	0.072	1020860	keystroke_i	i	n/a
510.59	0.104	1021180	keystroke_n	n	n/a
510.726	0.104	1021452	keystroke_g	g	n/a
510.79	0.104	1021580	keystroke_Key.space	Key.space	n/a
511.126	0.112	1022252	keystroke_e	e	n/a
511.27	0.096	1022540	keystroke_n	n	n/a
511.367	0.143	1022734	keystroke_e	e	n/a
511.454	0.112	1022908	keystroke_r	r	n/a
511.63	0.104	1023260	keystroke_a	a	n/a
511.774	0.04	1023548	keystroke_l	l	n/a
511.91	0.088	1023820	keystroke_l	l	n/a
512.134	0.072	1024268	keystroke_y	y	n/a
513.446	0.016	1026892	keystroke_Key.left	Key.left	n/a
513.574	0.072	1027148	keystroke_Key.left	Key.left	n/a
513.75	0.072	1027500	keystroke_Key.left	Key.left	n/a
513.918	0.072	1027836	keystroke_Key.left	Key.left	n/a
514.094	0.064	1028188	keystroke_Key.left	Key.left	n/a
514.254	0.08	1028508	keystroke_Key.left	Key.left	n/a
514.414	0.088	1028828	keystroke_Key.left	Key.left	n/a
514.59	0.072	1029180	keystroke_Key.left	Key.left	n/a
515.294	0.096	1030588	keystroke_g	g	n/a
515.63	0.08	1031260	keystroke_Key.enter	Key.enter	n/a
515.714	7.4695	1031428	prompt	n/a	gender consistency colored lamp\n
516.726	0.0805	1033452	keystroke_g	g	n/a
516.8865	0.088	1033773	keystroke_e	e	n/a
516.9905	0.072	1033981	keystroke_n	n	n/a
517.15	0.056	1034300	keystroke_e	e	n/a
517.598	0.08	1035196	keystroke_Key.backspace	Key.backspace	n/a
517.71	0.096	1035420	keystroke_d	d	n/a
517.886	0.136	1035772	keystroke_e	e	n/a
517.958	0.112	1035916	keystroke_r	r	n/a
518.014	0.104	1036028	keystroke_Key.space	Key.space	n/a
518.774	0.12	1037548	keystroke_c	c	n/a
518.87	0.064	1037740	keystroke_o	o	n/a
519.03	0.088	1038060	keystroke_n	n	n/a
519.158	0.072	1038316	keystroke_s	s	n/a
519.271	0.063	1038542	keystroke_i	i	n/a
519.382	0.08	1038764	keystroke_s	s	n/a
519.614	0.08	1039228	keystroke_t	t	n/a
519.766	0.1115	1039532	keystroke_e	e	n/a
519.9095	0.072	1039819	keystroke_n	n	n/a
520.0295	0.136	1040059	keystroke_c	c	n/a
520.1825	0.087	1040365	keystroke_y	y	n/a
520.3175	0.112	1040635	keystroke_Key.space	Key.space	n/a
521.0375	0.128	1042075	keystroke_c	c	n/a
521.1335	0.072	1042267	keystroke_o	o	n/a
521.3175	0.072	1042635	keystroke_l	l	n/a
521.5015	0.096	1043003	keystroke_o	o	n/a
521.6135	0.128	1043227	keystroke_r	r	n/a
521.7255	0.096	1043451	keystroke_e	e	n/a
521.8855	0.136	1043771	keystroke_d	d	n/a
522.0295	0.088	1044059	keystroke_Key.space	Key.space	n/a
522.5255	0.08	1045051	keystroke_l	l	n/a
522.6775	0.104	1045355	keystroke_a	a	n/a
522.7495	0.1445	1045499	keystroke_m	m	n/a
522.878	0.072	1045756	keystroke_p	p	n/a
523.094	0.088	1046188	keystroke_Key.enter	Key.enter	n/a
523.1875	10.6115	1046375	prompt	n/a	periodic andrew sans eliminate\n
523.966	0.088	1047932	keystroke_p	p	n/a
524.11	0.16	1048220	keystroke_e	e	n/a
524.23	0.096	1048460	keystroke_r	r	n/a
524.334	0.08	1048668	keystroke_i	i	n/a
524.606	0.16	1049212	keystroke_o	o	n/a
524.9175	0.088	1049835	keystroke_d	d	n/a
525.1255	0.096	1050251	keystroke_i	i	n/a
525.2455	0.12	1050491	keystroke_c	c	n/a
525.3735	0.096	1050747	keystroke_Key.space	Key.space	n/a
526.1095	0.096	1052219	keystroke_a	a	n/a
526.2215	0.096	1052443	keystroke_n	n	n/a
526.3655	0.08	1052731	keystroke_d	d	n/a
526.5735	0.208	1053147	keystroke_r	r	n/a
526.7175	0.088	1053435	keystroke_e	e	n/a
526.7495	0.097	1053499	keystroke_w	w	n/a
527.054	0.08	1054108	keystroke_Key.space	Key.space	n/a
527.518	0.088	1055036	keystroke_s	s	n/a
527.726	0.12	1055452	keystroke_a	a	n/a
527.846	0.08	1055692	keystroke_n	n	n/a
527.958	0.104	1055916	keystroke_s	s	n/a
528.134	0.08	1056268	keystroke_Key.space	Key.space	n/a
528.326	0.104	1056652	keystroke_e	e	n/a
528.454	0.088	1056908	keystroke_l	l	n/a
528.558	0.112	1057116	keystroke_e	e	n/a
528.702	0.088	1057404	keystroke_i	i	n/a
528.9585	0.015	1057917	keystroke_m	m	n/a
529.2055	0.064	1058411	keystroke_Key.backspace	Key.backspace	n/a
529.3895	0.072	1058779	keystroke_Key.backspace	Key.backspace	n/a
529.7255	0.08	1059451	keystroke_Key.backspace	Key.backspace	n/a
530.55	0.056	1061100	keystroke_m	m	n/a
531.6775	0.08	1063355	keystroke_Key.backspace	Key.backspace	n/a
532.0535	0.08	1064107	keystroke_i	i	n/a
532.2935	0.096	1064587	keystroke_m	m	n/a
532.5255	0.064	1065051	keystroke_i	i	n/a
532.7095	0.096	1065419	keystroke_n	n	n/a
532.9415	0.12	1065883	keystroke_a	a	n/a
533.1415	0.2165	1066283	keystroke_t	t	n/a
533.278	0.1115	1066556	keystroke_e	e	n/a
533.7095	0.088	1067419	keystroke_Key.enter	Key.enter	n/a
533.802	7.069	1067604	prompt	n/a	bulgaria serial spray inflation\n
534.6855	0.056	1069371	keystroke_b	b	n/a
534.8855	0.064	1069771	keystroke_u	u	n/a
535.1015	0.096	1070203	keystroke_l	l	n/a
535.3655	0.096	1070731	keystroke_g	g	n/a
535.5655	0.128	1071131	keystroke_a	a	n/a
535.6455	0.112	1071291	keystroke_r	r	n/a
535.7735	0.064	1071547	keystroke_i	i	n/a
536.0135	0.12	1072027	keystroke_a	a	n/a
536.1575	0.072	1072315	keystroke_Key.space	Key.space	n/a
536.8215	0.08	1073643	keystroke_s	s	n/a
537.0215	0.136	1074043	keystroke_e	e	n/a
537.1015	0.12	1074203	keystroke_r	r	n/a
537.2135	0.056	1074427	keystroke_i	i	n/a
537.4535	0.136	1074907	keystroke_a	a	n/a
537.6055	0.072	1075211	keystroke_l	l	n/a
537.7415	0.088	1075483	keystroke_Key.space	Key.space	n/a
538.3655	0.12	1076731	keystroke_s	s	n/a
538.5015	0.096	1077003	keystroke_p	p	n/a
538.6295	0.104	1077259	keystroke_r	r	n/a
538.7895	0.112	1077579	keystroke_a	a	n/a
538.9495	0.12	1077899	keystroke_y	y	n/a
539.0855	0.096	1078171	keystroke_Key.space	Key.space	n/a
539.3735	0.064	1078747	keystroke_i	i	n/a
539.5575	0.104	1079115	keystroke_n	n	n/a
539.7015	0.12	1079403	keystroke_f	f	n/a
539.8455	0.0805	1079691	keystroke_l	l	n/a
539.99	0.128	1079980	keystroke_a	a	n/a
540.126	0.104	1080252	keystroke_t	t	n/a
540.262	0.088	1080524	keystroke_i	i	n/a
540.342	0.056	1080684	keystroke_o	o	n/a
540.526	0.096	1081052	keystroke_n	n	n/a
540.806	0.064	1081612	keystroke_Key.enter	Key.enter	n/a
540.875	7.14	1081750	prompt	n/a	marriage riding funk customized\n
541.701	0.105	1083402	keystroke_m	m	n/a
541.854	0.127	1083708	keystroke_a	a	n/a
541.934	0.103	1083868	keystroke_r	r	n/a
542.109	0.12	1084218	keystroke_r	r	n/a
542.189	0.088	1084378	keystroke_i	i	n/a
542.317	0.112	1084634	keystroke_a	a	n/a
542.382	0.159	1084764	keystroke_g	g	n/a
542.533	0.105	1085066	keystroke_e	e	n/a
542.629	0.096	1085258	keystroke_Key.space	Key.space	n/a
543.2775	0.128	1086555	keystroke_r	r	n/a
543.5095	0.088	1087019	keystroke_i	i	n/a
543.6535	0.096	1087307	keystroke_d	d	n/a
543.7575	0.088	1087515	keystroke_i	i	n/a
543.9815	0.088	1087963	keystroke_n	n	n/a
544.1095	0.12	1088219	keystroke_g	g	n/a
544.2695	0.096	1088539	keystroke_Key.space	Key.space	n/a
544.8615	0.1195	1089723	keystroke_f	f	n/a
545.021	0.0725	1090042	keystroke_u	u	n/a
545.238	0.088	1090476	keystroke_n	n	n/a
545.334	0.08	1090668	keystroke_k	k	n/a
545.526	0.088	1091052	keystroke_Key.space	Key.space	n/a
546.078	0.136	1092156	keystroke_c	c	n/a
546.254	0.08	1092508	keystroke_u	u	n/a
546.406	0.096	1092812	keystroke_s	s	n/a
546.598	0.12	1093196	keystroke_t	t	n/a
546.686	0.064	1093372	keystroke_o	o	n/a
546.862	0.088	1093724	keystroke_m	m	n/a
547.1495	0.112	1094299	keystroke_i	i	n/a
547.3335	0.072	1094667	keystroke_z	z	n/a
547.5335	0.088	1095067	keystroke_e	e	n/a
547.7095	0.104	1095419	keystroke_d	d	n/a
547.9255	0.088	1095851	keystroke_Key.enter	Key.enter	n/a
548.0185	4.524	1096037	prompt	n/a	smell single formal period\n
548.7095	0.112	1097419	keystroke_s	s	n/a
548.8455	0.096	1097691	keystroke_m	m	n/a
548.934	0.0795	1097868	keystroke_e	e	n/a
549.0695	0.0645	1098139	keystroke_l	l	n/a
549.221	0.08	1098442	keystroke_l	l	n/a
549.326	0.111	1098652	keystroke_Key.space	Key.space	n/a
549.43	0.096	1098860	keystroke_s	s	n/a
549.486	0.064	1098972	keystroke_i	i	n/a
549.638	0.079	1099276	keystroke_n	n	n/a
549.749	0.097	1099498	keystroke_g	g	n/a
549.854	0.0875	1099708	keystroke_l	l	n/a
549.9895	0.112	1099979	keystroke_e	e	n/a
550.1335	0.0955	1100267	keystroke_Key.space	Key.space	n/a
550.605	0.128	1101210	keystroke_f	f	n/a
550.741	0.064	1101482	keystroke_o	o	n/a
550.861	0.1125	1101722	keystroke_r	r	n/a
550.9495	0.088	1101899	keystroke_m	m	n/a
551.1575	0.088	1102315	keystroke_a	a	n/a
551.2375	0.072	1102475	keystroke_l	l	n/a
551.3495	0.104	1102699	keystroke_Key.space	Key.space	n/a
551.4695	0.112	1102939	keystroke_p	p	n/a
551.5975	0.136	1103195	keystroke_e	e	n/a
551.6775	0.112	1103355	keystroke_r	r	n/a
552.0215	0.168	1104043	keystroke_i	i	n/a
552.1175	0.128	1104235	keystroke_o	o	n/a
552.2615	0.12	1104523	keystroke_d	d	n/a
552.4695	0.072	1104939	keystroke_Key.enter	Key.enter	n/a
552.5455	7.5735	1105091	prompt	n/a	bottles anaheim optimum kiss\n
553.3495	0.056	1106699	keystroke_b	b	n/a
553.4935	0.096	1106987	keystroke_o	o	n/a
553.6135	0.08	1107227	keystroke_t	t	n/a
553.7815	0.104	1107563	keystroke_t	t	n/a
553.9335	0.096	1107867	keystroke_l	l	n/a
554.0935	0.096	1108187	keystroke_e	e	n/a
554.2775	0.08	1108555	keystroke_s	s	n/a
554.4535	0.088	1108907	keystroke_Key.space	Key.space	n/a
554.8215	0.1115	1109643	keystroke_a	a	n/a
555.189	0.096	1110378	keystroke_n	n	n/a
555.365	0.088	1110730	keystroke_a	a	n/a
555.549	0.08	1111098	keystroke_h	h	n/a
555.781	0.112	1111562	keystroke_e	e	n/a
556.085	0.072	1112170	keystroke_i	i	n/a
556.293	0.088	1112586	keystroke_m	m	n/a
556.493	0.112	1112986	keystroke_Key.space	Key.space	n/a
557.613	0.072	1115226	keystroke_o	o	n/a
557.813	0.104	1115626	keystroke_p	p	n/a
557.981	0.112	1115962	keystroke_t	t	n/a
558.109	0.056	1116218	keystroke_i	i	n/a
558.293	0.08	1116586	keystroke_m	m	n/a
558.509	0.088	1117018	keystroke_u	u	n/a
558.757	0.072	1117514	keystroke_m	m	n/a
559.021	0.072	1118042	keystroke_Key.space	Key.space	n/a
559.406	0.072	1118812	keystroke_k	k	n/a
559.598	0.08	1119196	keystroke_i	i	n/a
559.694	0.072	1119388	keystroke_s	s	n/a
559.862	0.1115	1119724	keystroke_s	s	n/a
560.0135	0.104	1120027	keystroke_Key.enter	Key.enter	n/a
560.1215	6.357	1120243	prompt	n/a	cents plant backgrounds jimmy\n
560.8295	0.144	1121659	keystroke_c	c	n/a
561.0295	0.096	1122059	keystroke_e	e	n/a
561.1335	0.08	1122267	keystroke_n	n	n/a
561.2455	0.16	1122491	keystroke_t	t	n/a
