onset	duration	sample	value	key	prompt_text
1.8955	12.917	3791	prompt	n/a	the quick brown fox jumps over a lazy dog\n
3.321	0.058	6642	keystroke_t	t	n/a
3.3935	0.0905	6787	keystroke_h	h	n/a
3.544	0.1495	7088	keystroke_e	e	n/a
3.6785	0.1205	7357	keystroke_Key.space	Key.space	n/a
4.999	0.09	9998	keystroke_q	q	n/a
5.1645	0.075	10329	keystroke_u	u	n/a
5.3595	0.0755	10719	keystroke_i	i	n/a
5.7795	0.105	11559	keystroke_c	c	n/a
5.9295	0.075	11859	keystroke_k	k	n/a
6.2295	0.135	12459	keystroke_Key.space	Key.space	n/a
6.5895	0.075	13179	keystroke_b	b	n/a
6.7845	0.12	13569	keystroke_r	r	n/a
6.8895	0.12	13779	keystroke_o	o	n/a
7.3395	0.09	14679	keystroke_w	w	n/a
7.4445	0.09	14889	keystroke_n	n	n/a
7.5645	0.105	15129	keystroke_Key.space	Key.space	n/a
7.715	0.0895	15430	keystroke_f	f	n/a
7.8195	0.0895	15639	keystroke_o	o	n/a
8.06	0.1345	16120	keystroke_x	x	n/a
8.1795	0.105	16359	keystroke_Key.space	Key.space	n/a
8.8095	0.075	17619	keystroke_j	j	n/a
8.9895	0.0755	17979	keystroke_u	u	n/a
9.2145	0.075	18429	keystroke_m	m	n/a
9.6645	0.1045	19329	keystroke_p	p	n/a
9.8595	0.09	19719	keystroke_s	s	n/a
10.2045	0.12	20409	keystroke_Key.space	Key.space	n/a
10.384	0.1205	20768	keystroke_o	o	n/a
10.534	0.075	21068	keystroke_f	f	n/a
10.8945	0.0895	21789	keystroke_Key.backspace	Key.backspace	n/a
10.925	0.104	21850	keystroke_v	v	n/a
11.074	0.1505	22148	keystroke_e	e	n/a
11.194	0.12	22388	keystroke_r	r	n/a
11.2695	0.12	22539	keystroke_Key.space	Key.space	n/a
11.4645	0.12	22929	keystroke_a	a	n/a
11.539	0.09	23078	keystroke_Key.space	Key.space	n/a
11.914	0.091	23828	keystroke_l	l	n/a
12.0195	0.09	24039	keystroke_a	a	n/a
12.394	0.1355	24788	keystroke_z	z	n/a
12.4995	0.15	24999	keystroke_y	y	n/a
12.6645	0.12	25329	keystroke_Key.space	Key.space	n/a
13.1755	0.104	26351	keystroke_g	g	n/a
13.2645	0.075	26529	keystroke_o	o	n/a
13.699	0.0605	27398	keystroke_Key.backspace	Key.backspace	n/a
13.8345	0.075	27669	keystroke_Key.backspace	Key.backspace	n/a
13.8945	0.105	27789	keystroke_d	d	n/a
14.0145	0.1045	28029	keystroke_o	o	n/a
14.1795	0.105	28359	keystroke_g	g	n/a
14.7345	0.075	29469	keystroke_Key.enter	Key.enter	n/a
14.8195	10.342	29639	prompt	n/a	murphy biography julia surrey\n
15.605	0.044	31210	keystroke_n	n	n/a
15.904	0.0755	31808	keystroke_Key.backspace	Key.backspace	n/a
16.1595	0.09	32319	keystroke_m	m	n/a
16.3845	0.075	32769	keystroke_u	u	n/a
16.5495	0.105	33099	keystroke_r	r	n/a
16.7295	0.1045	33459	keystroke_p	p	n/a
16.9695	0.075	33939	keystroke_h	h	n/a
17.1645	0.105	34329	keystroke_y	y	n/a
17.2845	0.165	34569	keystroke_Key.space	Key.space	n/a
17.5545	0.061	35109	keystroke_b	b	n/a
17.7645	0.1055	35529	keystroke_o	o	n/a
18.1995	0.09	36399	keystroke_Key.backspace	Key.backspace	n/a
18.485	0.0745	36970	keystroke_i	i	n/a
18.6645	0.105	37329	keystroke_o	o	n/a
19.0095	0.105	38019	keystroke_g	g	n/a
19.3245	0.075	38649	keystroke_r	r	n/a
19.655	0.1045	39310	keystroke_a	a	n/a
20.3445	0.0895	40689	keystroke_p	p	n/a
20.5845	0.105	41169	keystroke_h	h	n/a
20.8245	0.09	41649	keystroke_y	y	n/a
20.9295	0.105	41859	keystroke_Key.space	Key.space	n/a
21.3045	0.06	42609	keystroke_j	j	n/a
21.5295	0.076	43059	keystroke_u	u	n/a
21.8745	0.076	43749	keystroke_l	l	n/a
22.069	0.0905	44138	keystroke_i	i	n/a
22.1895	0.105	44379	keystroke_a	a	n/a
22.655	0.1045	45310	keystroke_Key.space	Key.space	n/a
22.955	0.1045	45910	keystroke_r	r	n/a
23.3745	0.1045	46749	keystroke_Key.backspace	Key.backspace	n/a
23.509	0.0765	47018	keystroke_s	s	n/a
23.7045	0.0605	47409	keystroke_u	u	n/a
24.0345	0.09	48069	keystroke_r	r	n/a
24.1995	0.12	48399	keystroke_r	r	n/a
24.6055	0.12	49211	keystroke_e	e	n/a
24.68	0.0895	49360	keystroke_y	y	n/a
25.0395	0.12	50079	keystroke_Key.enter	Key.enter	n/a
25.1675	8.2	50335	prompt	n/a	celebs cycling distance platform\n
25.8645	0.1055	51729	keystroke_c	c	n/a
26.03	0.1495	52060	keystroke_e	e	n/a
26.1655	0.12	52331	keystroke_l	l	n/a
26.4055	0.089	52811	keystroke_e	e	n/a
27.3945	0.1055	54789	keystroke_b	b	n/a
27.53	0.1195	55060	keystroke_s	s	n/a
27.6195	0.09	55239	keystroke_Key.space	Key.space	n/a
28.31	0.1345	56620	keystroke_c	c	n/a
28.4895	0.105	56979	keystroke_y	y	n/a
28.985	0.15	57970	keystroke_c	c	n/a
29.0745	0.045	58149	keystroke_l	l	n/a
29.2555	0.074	58511	keystroke_i	i	n/a
29.4045	0.12	58809	keystroke_n	n	n/a
29.5255	0.104	59051	keystroke_g	g	n/a
29.6145	0.12	59229	keystroke_Key.space	Key.space	n/a
29.93	0.1195	59860	keystroke_d	d	n/a
30.0505	0.104	60101	keystroke_i	i	n/a
30.185	0.12	60370	keystroke_s	s	n/a
30.4095	0.075	60819	keystroke_t	t	n/a
30.6495	0.121	61299	keystroke_a	a	n/a
30.7545	0.0905	61509	keystroke_n	n	n/a
30.8745	0.0905	61749	keystroke_c	c	n/a
31.01	0.149	62020	keystroke_e	e	n/a
31.1295	0.1355	62259	keystroke_Key.space	Key.space	n/a
31.3845	0.075	62769	keystroke_p	p	n/a
31.5495	0.1055	63099	keystroke_l	l	n/a
31.6395	0.09	63279	keystroke_a	a	n/a
31.879	0.151	63758	keystroke_t	t	n/a
32.555	0.105	65110	keystroke_f	f	n/a
32.675	0.089	65350	keystroke_o	o	n/a
32.8095	0.1355	65619	keystroke_r	r	n/a
32.93	0.09	65860	keystroke_m	m	n/a
33.23	0.135	66460	keystroke_Key.enter	Key.enter	n/a
33.372	6.4895	66744	prompt	n/a	gras voting introduce venture\n
34.115	0.12	68230	keystroke_g	g	n/a
34.28	0.1495	68560	keystroke_r	r	n/a
34.5795	0.1055	69159	keystroke_a	a	n/a
35.06	0.1195	70120	keystroke_s	s	n/a
35.1645	0.15	70329	keystroke_Key.space	Key.space	n/a
35.4495	0.12	70899	keystroke_v	v	n/a
35.5545	0.075	71109	keystroke_o	o	n/a
35.78	0.164	71560	keystroke_t	t	n/a
35.93	0.075	71860	keystroke_i	i	n/a
36.095	0.12	72190	keystroke_n	n	n/a
36.23	0.074	72460	keystroke_g	g	n/a
36.29	0.105	72580	keystroke_Key.space	Key.space	n/a
36.59	0.075	73180	keystroke_i	i	n/a
36.754	0.091	73508	keystroke_n	n	n/a
36.83	0.104	73660	keystroke_t	t	n/a
37.04	0.105	74080	keystroke_r	r	n/a
37.1	0.105	74200	keystroke_o	o	n/a
37.43	0.105	74860	keystroke_d	d	n/a
37.52	0.105	75040	keystroke_u	u	n/a
37.67	0.09	75340	keystroke_c	c	n/a
37.835	0.15	75670	keystroke_e	e	n/a
37.94	0.1345	75880	keystroke_Key.space	Key.space	n/a
38.284	0.106	76568	keystroke_v	v	n/a
38.4205	0.1645	76841	keystroke_e	e	n/a
38.54	0.1195	77080	keystroke_n	n	n/a
38.72	0.1045	77440	keystroke_t	t	n/a
38.884	0.121	77768	keystroke_u	u	n/a
39.02	0.194	78040	keystroke_r	r	n/a
39.185	0.179	78370	keystroke_e	e	n/a
39.74	0.119	79480	keystroke_Key.enter	Key.enter	n/a
39.866	11.516	79732	prompt	n/a	client quarter web receiver\n
41.8395	0.12	83679	keystroke_c	c	n/a
41.9745	0.075	83949	keystroke_l	l	n/a
42.185	0.09	84370	keystroke_i	i	n/a
42.32	0.12	84640	keystroke_e	e	n/a
42.425	0.105	84850	keystroke_n	n	n/a
42.575	0.135	85150	keystroke_t	t	n/a
42.724	0.09	85448	keystroke_Key.space	Key.space	n/a
43.129	0.121	86258	keystroke_q	q	n/a
43.22	0.1045	86440	keystroke_u	u	n/a
43.3695	0.105	86739	keystroke_a	a	n/a
43.55	0.105	87100	keystroke_r	r	n/a
43.94	0.105	87880	keystroke_Key.backspace	Key.backspace	n/a
44	0.1055	88000	keystroke_t	t	n/a
44.18	0.18	88360	keystroke_e	e	n/a
44.315	0.12	88630	keystroke_r	r	n/a
44.405	0.12	88810	keystroke_Key.space	Key.space	n/a
44.69	0.105	89380	keystroke_w	w	n/a
46.987	0.043	93974	keystroke_e	e	n/a
47	0.12	94000	keystroke_b	b	n/a
47.134	0.1055	94268	keystroke_Key.space	Key.space	n/a
47.6145	0.15	95229	keystroke_r	r	n/a
47.7355	0.1495	95471	keystroke_e	e	n/a
48.0795	0.1055	96159	keystroke_c	c	n/a
48.1995	0.165	96399	keystroke_e	e	n/a
48.305	0.1345	96610	keystroke_i	i	n/a
48.6495	0.15	97299	keystroke_b	b	n/a
48.8145	0.225	97629	keystroke_e	e	n/a
49.2195	0.045	98439	keystroke_Key.backspace	Key.backspace	n/a
49.34	0.0745	98680	keystroke_Key.backspace	Key.backspace	n/a
49.46	0.134	98920	keystroke_v	v	n/a
49.579	0.181	99158	keystroke_e	e	n/a
49.715	0.225	99430	keystroke_r	r	n/a
51.244	0.1355	102488	keystroke_Key.enter	Key.enter	n/a
51.3895	7.867	102779	prompt	n/a	resources reforms nationally reel\n
52.04	0.1645	104080	keystroke_r	r	n/a
52.16	0.1345	104320	keystroke_e	e	n/a
52.4445	0.106	104889	keystroke_s	s	n/a
52.4895	0.091	104979	keystroke_o	o	n/a
52.7	0.0905	105400	keystroke_u	u	n/a
52.7445	0.105	105489	keystroke_r	r	n/a
52.999	0.151	105998	keystroke_c	c	n/a
53.165	0.09	106330	keystroke_e	e	n/a
53.375	0.134	106750	keystroke_s	s	n/a
53.494	0.1205	106988	keystroke_Key.space	Key.space	n/a
54.0345	0.18	108069	keystroke_r	r	n/a
54.185	0.1805	108370	keystroke_e	e	n/a
54.3805	0.1785	108761	keystroke_f	f	n/a
54.5745	0.0905	109149	keystroke_o	o	n/a
54.679	0.1355	109358	keystroke_r	r	n/a
54.86	0.105	109720	keystroke_m	m	n/a
55.04	0.12	110080	keystroke_s	s	n/a
55.115	0.12	110230	keystroke_Key.space	Key.space	n/a
55.6095	0.091	111219	keystroke_n	n	n/a
55.7305	0.1045	111461	keystroke_a	a	n/a
56.029	0.0455	112058	keystroke_t	t	n/a
56.3005	0.06	112601	keystroke_i	i	n/a
56.48	0.06	112960	keystroke_o	o	n/a
56.6595	0.0905	113319	keystroke_n	n	n/a
56.7645	0.0895	113529	keystroke_a	a	n/a
56.9005	0.0735	113801	keystroke_l	l	n/a
57.035	0.089	114070	keystroke_l	l	n/a
57.1695	0.0905	114339	keystroke_y	y	n/a
57.3345	0.135	114669	keystroke_Key.space	Key.space	n/a
57.755	0.1495	115510	keystroke_r	r	n/a
58.43	0.0745	116860	keystroke_e	e	n/a
58.5945	0.0905	117189	keystroke_e	e	n/a
58.6695	0.1055	117339	keystroke_l	l	n/a
59.1495	0.1045	118299	keystroke_Key.enter	Key.enter	n/a
59.2615	8.3955	118523	prompt	n/a	fraction freebsd printed night\n
59.9445	0.12	119889	keystroke_f	f	n/a
60.1245	0.1345	120249	keystroke_r	r	n/a
60.38	0.135	120760	keystroke_a	a	n/a
60.575	0.105	121150	keystroke_c	c	n/a
60.7995	0.105	121599	keystroke_t	t	n/a
60.9055	0.074	121811	keystroke_i	i	n/a
61.0845	0.0755	122169	keystroke_o	o	n/a
61.25	0.1045	122500	keystroke_n	n	n/a
61.3395	0.1055	122679	keystroke_Key.space	Key.space	n/a
61.49	0.149	122980	keystroke_f	f	n/a
61.654	0.1805	123308	keystroke_r	r	n/a
61.8495	0.106	123699	keystroke_e	e	n/a
62.03	0.1045	124060	keystroke_e	e	n/a
62.434	0.06	124868	keystroke_b	b	n/a
63.005	0.1645	126010	keystroke_s	s	n/a
63.6505	0.135	127301	keystroke_d	d	n/a
63.8445	0.12	127689	keystroke_Key.space	Key.space	n/a
64.0995	0.0905	128199	keystroke_p	p	n/a
64.2195	0.0755	128439	keystroke_r	r	n/a
64.3695	0.075	128739	keystroke_i	i	n/a
64.534	0.105	129068	keystroke_n	n	n/a
64.684	0.151	129368	keystroke_e	e	n/a
65.045	0.09	130090	keystroke_Key.backspace	Key.backspace	n/a
65.1505	0.075	130301	keystroke_t	t	n/a
65.3595	0.121	130719	keystroke_e	e	n/a
65.4505	0.149	130901	keystroke_d	d	n/a
65.5545	0.12	131109	keystroke_Key.space	Key.space	n/a
66.275	0.0895	132550	keystroke_n	n	n/a
66.4545	0.075	132909	keystroke_i	i	n/a
66.545	0.1195	133090	keystroke_g	g	n/a
66.6495	0.105	133299	keystroke_h	h	n/a
66.77	0.135	133540	keystroke_t	t	n/a
67.52	0.134	135040	keystroke_Key.enter	Key.enter	n/a
67.6635	8.3325	135327	prompt	n/a	nasty illustration attempts belarus\n
68.555	0.075	137110	keystroke_n	n	n/a
68.661	0.089	137322	keystroke_a	a	n/a
68.87	0.105	137740	keystroke_s	s	n/a
69.05	0.12	138100	keystroke_t	t	n/a
69.1555	0.1345	138311	keystroke_y	y	n/a
69.4995	0.015	138999	keystroke_Key.space	Key.space	n/a
69.6195	0.075	139239	keystroke_i	i	n/a
69.995	0.0745	139990	keystroke_l	l	n/a
70.1445	0.0755	140289	keystroke_l	l	n/a
70.3995	0.075	140799	keystroke_u	u	n/a
70.5495	0.09	141099	keystroke_s	s	n/a
70.7445	0.12	141489	keystroke_t	t	n/a
70.9545	0.0755	141909	keystroke_r	r	n/a
71.135	0.1195	142270	keystroke_a	a	n/a
71.4045	0.1505	142809	keystroke_t	t	n/a
71.54	0.06	143080	keystroke_i	i	n/a
71.704	0.075	143408	keystroke_o	o	n/a
71.885	0.105	143770	keystroke_n	n	n/a
71.99	0.119	143980	keystroke_Key.space	Key.space	n/a
72.1545	0.0905	144309	keystroke_a	a	n/a
72.394	0.0765	144788	keystroke_t	t	n/a
72.53	0.119	145060	keystroke_t	t	n/a
72.7255	0.1195	145451	keystroke_e	e	n/a
72.8745	0.09	145749	keystroke_m	m	n/a
73.0545	0.105	146109	keystroke_p	p	n/a
73.4445	0.1055	146889	keystroke_t	t	n/a
73.7	0.119	147400	keystroke_s	s	n/a
73.804	0.12	147608	keystroke_Key.space	Key.space	n/a
74.5695	0.09	149139	keystroke_b	b	n/a
74.7795	0.09	149559	keystroke_e	e	n/a
75.0345	0.09	150069	keystroke_l	l	n/a
75.1395	0.105	150279	keystroke_a	a	n/a
75.394	0.1205	150788	keystroke_r	r	n/a
75.5295	0.105	151059	keystroke_u	u	n/a
75.6795	0.1055	151359	keystroke_s	s	n/a
75.8595	0.135	151719	keystroke_Key.enter	Key.enter	n/a
76.0015	9.2795	152003	prompt	n/a	arms advertise percentage treated\n
76.6095	0.1045	153219	keystroke_a	a	n/a
76.8045	0.1055	153609	keystroke_r	r	n/a
77.209	0.0905	154418	keystroke_m	m	n/a
77.45	0.104	154900	keystroke_s	s	n/a
77.584	0.135	155168	keystroke_Key.space	Key.space	n/a
78.035	0.1195	156070	keystroke_a	a	n/a
78.1845	0.135	156369	keystroke_d	d	n/a
78.605	0.119	157210	keystroke_v	v	n/a
78.74	0.194	157480	keystroke_e	e	n/a
78.8745	0.1345	157749	keystroke_r	r	n/a
79.114	0.09	158228	keystroke_s	s	n/a
79.519	0.09	159038	keystroke_Key.backspace	Key.backspace	n/a
79.5955	0.0885	159191	keystroke_t	t	n/a
79.7605	0.0885	159521	keystroke_i	i	n/a
79.9395	0.2105	159879	keystroke_s	s	n/a
80.089	0.1815	160178	keystroke_e	e	n/a
80.2245	0.12	160449	keystroke_Key.space	Key.space	n/a
80.555	0.1045	161110	keystroke_p	p	n/a
80.675	0.0895	161350	keystroke_r	r	n/a
80.9145	0.0755	161829	keystroke_Key.backspace	Key.backspace	n/a
81.0495	0.165	162099	keystroke_e	e	n/a
81.1695	0.135	162339	keystroke_r	r	n/a
81.6345	0.135	163269	keystroke_c	c	n/a
81.7845	0.15	163569	keystroke_e	e	n/a
81.9345	0.09	163869	keystroke_n	n	n/a
82.0545	0.09	164109	keystroke_t	t	n/a
82.3395	0.1055	164679	keystroke_a	a	n/a
82.4595	0.15	164919	keystroke_g	g	n/a
82.5795	0.15	165159	keystroke_e	e	n/a
82.6845	0.1205	165369	keystroke_Key.space	Key.space	n/a
83.345	0.1495	166690	keystroke_t	t	n/a
83.6895	0.165	167379	keystroke_r	r	n/a
83.8095	0.1655	167619	keystroke_e	e	n/a
84.2295	0.09	168459	keystroke_a	a	n/a
84.425	0.1195	168850	keystroke_t	t	n/a
84.6495	0.15	169299	keystroke_e	e	n/a
84.7845	0.135	169569	keystroke_d	d	n/a
85.1445	0.135	170289	keystroke_Key.enter	Key.enter	n/a
85.2855	8.83	170571	prompt	n/a	scary pulse praise tomatoes\n
85.7895	0.075	171579	keystroke_a	a	n/a
86.0895	0.075	172179	keystroke_Key.backspace	Key.backspace	n/a
86.3595	0.105	172719	keystroke_s	s	n/a
86.5245	0.1205	173049	keystroke_c	c	n/a
86.7345	0.1205	173469	keystroke_a	a	n/a
86.96	0.1045	173920	keystroke_r	r	n/a
87.095	0.135	174190	keystroke_y	y	n/a
87.2595	0.09	174519	keystroke_Key.space	Key.space	n/a
87.53	0.06	175060	keystroke_p	p	n/a
87.755	0.075	175510	keystroke_u	u	n/a
87.98	0.09	175960	keystroke_l	l	n/a
88.1295	0.195	176259	keystroke_s	s	n/a
88.2945	0.1505	176589	keystroke_e	e	n/a
88.3995	0.1195	176799	keystroke_Key.space	Key.space	n/a
88.7	0.09	177400	keystroke_p	p	n/a
88.895	0.0895	177790	keystroke_r	r	n/a
89.1345	0.1055	178269	keystroke_a	a	n/a
89.2245	0.12	178449	keystroke_i	i	n/a
89.4045	0.1805	178809	keystroke_s	s	n/a
89.554	0.135	179108	keystroke_e	e	n/a
89.749	0.1505	179498	keystroke_Key.space	Key.space	n/a
90.41	0.12	180820	keystroke_t	t	n/a
90.575	0.0745	181150	keystroke_m	m	n/a
90.77	0.0895	181540	keystroke_a	a	n/a
91.7745	0.06	183549	keystroke_Key.backspace	Key.backspace	n/a
91.925	0.0595	183850	keystroke_Key.backspace	Key.backspace	n/a
92.1645	0.045	184329	keystroke_o	o	n/a
92.4945	0.09	184989	keystroke_m	m	n/a
92.5995	0.12	185199	keystroke_a	a	n/a
93.0945	0.1055	186189	keystroke_t	t	n/a
93.2435	0.046	186487	keystroke_o	o	n/a
93.62	0.06	187240	keystroke_e	e	n/a
93.815	0.119	187630	keystroke_s	s	n/a
94.024	0.09	188048	keystroke_Key.enter	Key.enter	n/a
94.119	9.837	188238	prompt	n/a	negotiation heather locate description\n
94.9395	0.09	189879	keystroke_n	n	n/a
95.2395	0.0605	190479	keystroke_e	e	n/a
95.4795	0.121	190959	keystroke_g	g	n/a
95.63	0.0895	191260	keystroke_o	o	n/a
95.75	0.1205	191500	keystroke_t	t	n/a
95.9595	0.09	191919	keystroke_i	i	n/a
96.1095	0.091	192219	keystroke_a	a	n/a
96.3195	0.12	192639	keystroke_t	t	n/a
96.4245	0.075	192849	keystroke_i	i	n/a
96.5895	0.075	193179	keystroke_o	o	n/a
96.7695	0.12	193539	keystroke_n	n	n/a
96.9045	0.105	193809	keystroke_Key.space	Key.space	n/a
97.0245	0.0895	194049	keystroke_h	h	n/a
97.1445	0.09	194289	keystroke_e	e	n/a
97.3845	0.0745	194769	keystroke_a	a	n/a
97.625	0.0595	195250	keystroke_l	l	n/a
97.894	0.076	195788	keystroke_Key.backspace	Key.backspace	n/a
97.985	0.104	195970	keystroke_t	t	n/a
98.149	0.091	196298	keystroke_h	h	n/a
98.255	0.1645	196510	keystroke_e	e	n/a
98.3745	0.165	196749	keystroke_r	r	n/a
98.4945	0.1345	196989	keystroke_Key.space	Key.space	n/a
99.139	0.06	198278	keystroke_l	l	n/a
99.304	0.09	198608	keystroke_o	o	n/a
99.424	0.1055	198848	keystroke_c	c	n/a
99.5895	0.12	199179	keystroke_a	a	n/a
99.845	0.0445	199690	keystroke_r	r	n/a
100.4895	0.075	200979	keystroke_Key.backspace	Key.backspace	n/a
100.5795	0.09	201159	keystroke_t	t	n/a
100.8195	0.12	201639	keystroke_e	e	n/a
100.9245	0.105	201849	keystroke_Key.space	Key.space	n/a
101.749	0.1515	203498	keystroke_d	d	n/a
101.901	0.103	203802	keystroke_e	e	n/a
102.109	0.105	204218	keystroke_s	s	n/a
102.38	0.1045	204760	keystroke_c	c	n/a
102.589	0.136	205178	keystroke_r	r	n/a
102.71	0.089	205420	keystroke_i	i	n/a
102.8895	0.105	205779	keystroke_p	p	n/a
103.22	0.105	206440	keystroke_t	t	n/a
103.264	0.106	206528	keystroke_i	i	n/a
103.429	0.1055	206858	keystroke_o	o	n/a
103.6245	0.105	207249	keystroke_n	n	n/a
103.8345	0.12	207669	keystroke_Key.enter	Key.enter	n/a
103.9605	6.9255	207921	prompt	n/a	extend road density sounds\n
104.6895	0.06	209379	keystroke_e	e	n/a
105.0645	0.1205	210129	keystroke_x	x	n/a
105.3945	0.105	210789	keystroke_t	t	n/a
105.6795	0.165	211359	keystroke_e	e	n/a
105.8595	0.12	211719	keystroke_n	n	n/a
105.9645	0.12	211929	keystroke_d	d	n/a
106.1445	0.12	212289	keystroke_Key.space	Key.space	n/a
106.8795	0.135	213759	keystroke_r	r	n/a
107.044	0.121	214088	keystroke_o	o	n/a
107.2095	0.105	214419	keystroke_a	a	n/a
107.464	0.1205	214928	keystroke_d	d	n/a
107.749	0.165	215498	keystroke_Key.space	Key.space	n/a
107.974	0.1205	215948	keystroke_d	d	n/a
108.1695	0.09	216339	keystroke_e	e	n/a
108.2895	0.105	216579	keystroke_n	n	n/a
108.4695	0.09	216939	keystroke_s	s	n/a
108.5445	0.105	217089	keystroke_i	i	n/a
108.7095	0.165	217419	keystroke_t	t	n/a
108.89	0.1355	217780	keystroke_y	y	n/a
109.0255	0.119	218051	keystroke_Key.space	Key.space	n/a
109.3995	0.105	218799	keystroke_s	s	n/a
109.4595	0.06	218919	keystroke_o	o	n/a
109.6545	0.06	219309	keystroke_u	u	n/a
109.8045	0.105	219609	keystroke_n	n	n/a
109.879	0.151	219758	keystroke_d	d	n/a
110.015	0.165	220030	keystroke_s	s	n/a
110.7495	0.1345	221499	keystroke_Key.enter	Key.enter	n/a
110.891	11.065	221782	prompt	n/a	martin optional breathing egypt\n
111.65	0.075	223300	keystroke_m	m	n/a
111.71	0.105	223420	keystroke_a	a	n/a
111.935	0.15	223870	keystroke_r	r	n/a
112.4745	0.135	224949	keystroke_t	t	n/a
112.565	0.0745	225130	keystroke_i	i	n/a
112.7145	0.105	225429	keystroke_n	n	n/a
112.8195	0.105	225639	keystroke_Key.space	Key.space	n/a
113.0145	0.09	226029	keystroke_o	o	n/a
113.2245	0.075	226449	keystroke_p	p	n/a
113.749	0.105	227498	keystroke_t	t	n/a
113.8395	0.1505	227679	keystroke_i	i	n/a
114.0645	0.0745	228129	keystroke_o	o	n/a
114.215	0.135	228430	keystroke_n	n	n/a
114.364	0.121	228728	keystroke_a	a	n/a
114.485	0.134	228970	keystroke_l	l	n/a
114.604	0.135	229208	keystroke_Key.space	Key.space	n/a
115.0995	0.091	230199	keystroke_b	b	n/a
115.2345	0.1955	230469	keystroke_r	r	n/a
115.3995	0.104	230799	keystroke_e	e	n/a
115.6395	0.1055	231279	keystroke_a	a	n/a
116.3595	0.1345	232719	keystroke_t	t	n/a
116.4645	0.1195	232929	keystroke_h	h	n/a
116.6	0.104	233200	keystroke_i	i	n/a
116.764	0.121	233528	keystroke_n	n	n/a
116.8395	0.0745	233679	keystroke_g	g	n/a
116.944	0.1955	233888	keystroke_Key.space	Key.space	n/a
118.8045	0.12	237609	keystroke_e	e	n/a
119.495	0.1045	238990	keystroke_f	f	n/a
119.6295	0.1205	239259	keystroke_y	y	n/a
120.049	0.045	240098	keystroke_Key.backspace	Key.backspace	n/a
120.17	0.089	240340	keystroke_Key.backspace	Key.backspace	n/a
120.23	0.0895	240460	keystroke_g	g	n/a
120.4685	0.076	240937	keystroke_y	y	n/a
120.8	0.0895	241600	keystroke_p	p	n/a
120.9495	0.089	241899	keystroke_e	e	n/a
121.3395	0.104	242679	keystroke_Key.backspace	Key.backspace	n/a
121.3995	0.1205	242799	keystroke_t	t	n/a
121.8635	0.09	243727	keystroke_Key.enter	Key.enter	n/a
121.962	11.784	243924	prompt	n/a	highlight february frames self\n
122.8995	0.0745	245799	keystroke_h	h	n/a
123.05	0.1045	246100	keystroke_i	i	n/a
123.1395	0.119	246279	keystroke_g	g	n/a
123.2445	0.075	246489	keystroke_h	h	n/a
123.5295	0.075	247059	keystroke_l	l	n/a
123.7245	0.06	247449	keystroke_i	i	n/a
123.9045	0.09	247809	keystroke_g	g	n/a
124.0995	0.09	248199	keystroke_h	h	n/a
124.2045	0.12	248409	keystroke_t	t	n/a
124.2495	0.135	248499	keystroke_Key.space	Key.space	n/a
124.6545	0.1205	249309	keystroke_f	f	n/a
124.8495	0.105	249699	keystroke_r	r	n/a
125.2995	0.09	250599	keystroke_Key.backspace	Key.backspace	n/a
125.3745	0.1355	250749	keystroke_e	e	n/a
125.614	0.106	251228	keystroke_b	b	n/a
126.1545	0.1205	252309	keystroke_r	r	n/a
127.13	0.105	254260	keystroke_u	u	n/a
127.2495	0.0755	254499	keystroke_a	a	n/a
127.445	0.119	254890	keystroke_r	r	n/a
127.549	0.09	255098	keystroke_y	y	n/a
127.684	0.105	255368	keystroke_Key.space	Key.space	n/a
129.0045	0.1205	258009	keystroke_f	f	n/a
129.139	0.121	258278	keystroke_r	r	n/a
129.4395	0.1345	258879	keystroke_a	a	n/a
129.56	0.0895	259120	keystroke_m	m	n/a
129.694	0.0905	259388	keystroke_e	e	n/a
129.9045	0.1045	259809	keystroke_s	s	n/a
131.7345	0.135	263469	keystroke_Key.space	Key.space	n/a
132.2445	0.15	264489	keystroke_s	s	n/a
132.4845	0.1355	264969	keystroke_e	e	n/a
132.6045	0.12	265209	keystroke_l	l	n/a
132.7995	0.12	265599	keystroke_f	f	n/a
133.6695	0.075	267339	keystroke_Key.enter	Key.enter	n/a
133.7505	16.3755	267501	prompt	n/a	gorgeous richards reforms complimentary\n
134.9295	0.06	269859	keystroke_g	g	n/a
135.1685	0.0915	270337	keystroke_o	o	n/a
135.499	0.091	270998	keystroke_r	r	n/a
136.099	0.105	272198	keystroke_g	g	n/a
136.2945	0.1655	272589	keystroke_e	e	n/a
136.804	0.075	273608	keystroke_o	o	n/a
137.089	0.076	274178	keystroke_u	u	n/a
137.179	0.1205	274358	keystroke_s	s	n/a
137.2695	0.1195	274539	keystroke_Key.space	Key.space	n/a
137.9595	0.1205	275919	keystroke_r	r	n/a
138.139	0.121	276278	keystroke_i	i	n/a
138.3945	0.105	276789	keystroke_c	c	n/a
138.4845	0.075	276969	keystroke_h	h	n/a
138.934	0.076	277868	keystroke_a	a	n/a
139.114	0.09	278228	keystroke_r	r	n/a
139.339	0.166	278678	keystroke_d	d	n/a
139.4895	0.135	278979	keystroke_s	s	n/a
139.5645	0.135	279129	keystroke_Key.space	Key.space	n/a
139.8495	0.165	279699	keystroke_r	r	n/a
140	0.1345	280000	keystroke_e	e	n/a
140.3895	0.09	280779	keystroke_f	f	n/a
140.5095	0.075	281019	keystroke_o	o	n/a
140.6	0.0745	281200	keystroke_r	r	n/a
140.899	0.1055	281798	keystroke_m	m	n/a
141.0495	0.1055	282099	keystroke_s	s	n/a
141.109	0.1205	282218	keystroke_Key.space	Key.space	n/a
141.965	0.1195	283930	keystroke_c	c	n/a
142.1	0.1045	284200	keystroke_o	o	n/a
142.3245	0.06	284649	keystroke_m	m	n/a
142.5045	0.06	285009	keystroke_p	p	n/a
142.67	0.0595	285340	keystroke_l	l	n/a
142.9395	0.09	285879	keystroke_i	i	n/a
143.2545	0.09	286509	keystroke_m	m	n/a
143.3295	0.105	286659	keystroke_e	e	n/a
143.4645	0.0895	286929	keystroke_n	n	n/a
143.794	0.12	287588	keystroke_t	t	n/a
144.139	0.09	288278	keystroke_a	a	n/a
144.334	0.135	288668	keystroke_r	r	n/a
144.455	0.09	288910	keystroke_y	y	n/a
150.112	0.012	300224	keystroke_Key.enter	Key.enter	n/a
150.1315	11.0815	300263	prompt	n/a	impressed circumstances consciousness forty\n
150.9795	0.0605	301959	keystroke_i	i	n/a
151.1445	0.0905	302289	keystroke_m	m	n/a
151.3245	0.09	302649	keystroke_p	p	n/a
151.46	0.195	302920	keystroke_r	r	n/a
151.625	0.1045	303250	keystroke_e	e	n/a
151.865	0.075	303730	keystroke_s	s	n/a
152.0005	0.164	304001	keystroke_s	s	n/a
152.149	0.1655	304298	keystroke_e	e	n/a
152.2695	0.1495	304539	keystroke_d	d	n/a
152.3895	0.105	304779	keystroke_Key.space	Key.space	n/a
152.704	0.1205	305408	keystroke_c	c	n/a
152.795	0.104	305590	keystroke_i	i	n/a
152.9295	0.1205	305859	keystroke_r	r	n/a
153.2145	0.12	306429	keystroke_c	c	n/a
153.2745	0.075	306549	keystroke_u	u	n/a
153.5145	0.075	307029	keystroke_m	m	n/a
153.7545	0.09	307509	keystroke_s	s	n/a
153.995	0.075	307990	keystroke_t	t	n/a
154.2945	0.09	308589	keystroke_a	a	n/a
154.4	0.0895	308800	keystroke_n	n	n/a
154.5195	0.09	309039	keystroke_c	c	n/a
154.6545	0.1355	309309	keystroke_e	e	n/a
154.8655	0.164	309731	keystroke_s	s	n/a
154.984	0.1205	309968	keystroke_Key.space	Key.space	n/a
155.3	0.12	310600	keystroke_c	c	n/a
155.36	0.075	310720	keystroke_o	o	n/a
155.57	0.09	311140	keystroke_n	n	n/a
155.689	0.1055	311378	keystroke_s	s	n/a
156.1845	0.12	312369	keystroke_c	c	n/a
156.4845	0.105	312969	keystroke_i	i	n/a
156.65	0.09	313300	keystroke_o	o	n/a
157.25	0.075	314500	keystroke_y	y	n/a
157.4595	0.09	314919	keystroke_s	s	n/a
157.7145	0.06	315429	keystroke_Key.backspace	Key.backspace	n/a
157.864	0.045	315728	keystroke_Key.backspace	Key.backspace	n/a
158.195	0.09	316390	keystroke_s	s	n/a
158.5545	0.09	317109	keystroke_Key.backspace	Key.backspace	n/a
159.0495	0.075	318099	keystroke_u	u	n/a
159.185	0.1345	318370	keystroke_s	s	n/a
159.305	0.075	318610	keystroke_n	n	n/a
159.4095	0.1055	318819	keystroke_e	e	n/a
159.6795	0.045	319359	keystroke_s	s	n/a
159.785	0.105	319570	keystroke_s	s	n/a
159.8595	0.09	319719	keystroke_Key.space	Key.space	n/a
160.0095	0.1355	320019	keystroke_f	f	n/a
160.1145	0.0905	320229	keystroke_o	o	n/a
160.1895	0.1205	320379	keystroke_r	r	n/a
160.5345	0.1055	321069	keystroke_t	t	n/a
160.6245	0.105	321249	keystroke_y	y	n/a
161.0745	0.135	322149	keystroke_Key.enter	Key.enter	n/a
161.225	17.221	322450	prompt	n/a	frequency ceremony polyphonic theoretical\n
161.8395	0.15	323679	keystroke_f	f	n/a
161.9745	0.03	323949	keystroke_o	o	n/a
162.2895	0.09	324579	keystroke_Key.backspace	Key.backspace	n/a
162.3645	0.1645	324729	keystroke_r	r	n/a
162.485	0.149	324970	keystroke_e	e	n/a
163.174	0.12	326348	keystroke_q	q	n/a
163.264	0.105	326528	keystroke_u	u	n/a
163.4295	0.1055	326859	keystroke_e	e	n/a
163.55	0.044	327100	keystroke_n	n	n/a
163.744	0.1205	327488	keystroke_c	c	n/a
163.8495	0.135	327699	keystroke_y	y	n/a
163.9545	0.1645	327909	keystroke_Key.space	Key.space	n/a
164.479	0.1205	328958	keystroke_c	c	n/a
164.689	0.165	329378	keystroke_e	e	n/a
164.8245	0.21	329649	keystroke_r	r	n/a
164.9895	0.12	329979	keystroke_e	e	n/a
165.1695	0.09	330339	keystroke_m	m	n/a
165.395	0.03	330790	keystroke_o	o	n/a
165.634	0.076	331268	keystroke_n	n	n/a
166.114	0.121	332228	keystroke_y	y	n/a
166.235	0.119	332470	keystroke_Key.space	Key.space	n/a
166.7445	0.0605	333489	keystroke_o	o	n/a
167.1945	0.09	334389	keystroke_i	i	n/a
167.914	0.0605	335828	keystroke_Key.backspace	Key.backspace	n/a
168.034	0.0905	336068	keystroke_Key.backspace	Key.backspace	n/a
169.49	0.06	338980	keystroke_p	p	n/a
169.7	0.0745	339400	keystroke_o	o	n/a
169.88	0.074	339760	keystroke_l	l	n/a
170.449	0.12	340898	keystroke_y	y	n/a
172.1445	0.075	344289	keystroke_p	p	n/a
172.4	0.0745	344800	keystroke_h	h	n/a
172.5495	0.09	345099	keystroke_o	o	n/a
172.8645	0.0755	345729	keystroke_n	n	n/a
172.9995	0.105	345999	keystroke_i	i	n/a
173.1195	0.12	346239	keystroke_c	c	n/a
173.1945	0.105	346389	keystroke_Key.space	Key.space	n/a
173.5395	0.1205	347079	keystroke_t	t	n/a
173.7795	0.0745	347559	keystroke_h	h	n/a
174.034	0.1205	348068	keystroke_r	r	n/a
174.6195	0.075	349239	keystroke_Key.backspace	Key.backspace	n/a
174.7095	0.1205	349419	keystroke_e	e	n/a
175.0545	0.075	350109	keystroke_i	i	n/a
175.2195	0.1805	350439	keystroke_r	r	n/a
175.6245	0.089	351249	keystroke_Key.backspace	Key.backspace	n/a
175.7595	0.06	351519	keystroke_Key.backspace	Key.backspace	n/a
175.8945	0.105	351789	keystroke_o	o	n/a
176.644	0.2105	353288	keystroke_r	r	n/a
176.779	0.15	353558	keystroke_e	e	n/a
177.0495	0.1055	354099	keystroke_t	t	n/a
177.14	0.0895	354280	keystroke_i	i	n/a
177.335	0.1195	354670	keystroke_c	c	n/a
177.4995	0.15	354999	keystroke_a	a	n/a
177.6195	0.105	355239	keystroke_l	l	n/a
178.3245	0.12	356649	keystroke_Key.enter	Key.enter	n/a
178.4555	10.6105	356911	prompt	n/a	angels january driven sussex\n
179.1495	0.105	358299	keystroke_a	a	n/a
179.2555	0.059	358511	keystroke_n	n	n/a
179.5395	0.135	359079	keystroke_g	g	n/a
179.6895	0.135	359379	keystroke_e	e	n/a
179.8545	0.135	359709	keystroke_l	l	n/a
180.0045	0.105	360009	keystroke_s	s	n/a
180.0945	0.12	360189	keystroke_Key.space	Key.space	n/a
181.3695	0.0905	362739	keystroke_j	j	n/a
181.4895	0.135	362979	keystroke_a	a	n/a
181.6095	0.105	363219	keystroke_n	n	n/a
181.9395	0.105	363879	keystroke_u	u	n/a
182.135	0.0895	364270	keystroke_a	a	n/a
182.3295	0.135	364659	keystroke_r	r	n/a
182.4495	0.1505	364899	keystroke_y	y	n/a
182.6145	0.12	365229	keystroke_Key.space	Key.space	n/a
183.1105	0.1035	366221	keystroke_d	d	n/a
183.4395	0.105	366879	keystroke_r	r	n/a
183.6945	0.0905	367389	keystroke_v	v	n/a
183.7095	0.1205	367419	keystroke_i	i	n/a
184.159	0.06	368318	keystroke_Key.backspace	Key.backspace	n/a
184.279	0.075	368558	keystroke_Key.backspace	Key.backspace	n/a
184.4595	0.09	368919	keystroke_i	i	n/a
184.5645	0.1805	369129	keystroke_v	v	n/a
184.6995	0.15	369399	keystroke_e	e	n/a
184.7745	0.1205	369549	keystroke_n	n	n/a
184.9695	0.105	369939	keystroke_Key.space	Key.space	n/a
185.5995	0.0905	371199	keystroke_s	s	n/a
185.6745	0.09	371349	keystroke_u	u	n/a
185.8395	0.075	371679	keystroke_s	s	n/a
186.3795	0.075	372759	keystroke_s	s	n/a
186.5445	0.12	373089	keystroke_e	e	n/a
187.039	0.1355	374078	keystroke_x	x	n/a
188.9295	0.1345	377859	keystroke_Key.enter	Key.enter	n/a
189.071	15.7	378142	prompt	n/a	arkansas ralph fighters banned\n
190.0395	0.09	380079	keystroke_a	a	n/a
190.3395	0.12	380679	keystroke_r	r	n/a
191.09	0.09	382180	keystroke_k	k	n/a
191.239	0.1055	382478	keystroke_a	a	n/a
191.3595	0.09	382719	keystroke_n	n	n/a
191.6895	0.0755	383379	keystroke_s	s	n/a
191.9145	0.0905	383829	keystroke_a	a	n/a
192.1395	0.105	384279	keystroke_s	s	n/a
192.2895	0.12	384579	keystroke_Key.space	Key.space	n/a
193.76	0.104	387520	keystroke_r	r	n/a
194.0595	0.105	388119	keystroke_a	a	n/a
194.899	0.0755	389798	keystroke_l	l	n/a
195.109	0.091	390218	keystroke_o	o	n/a
195.5145	0.09	391029	keystroke_h	h	n/a
195.6495	0.105	391299	keystroke_Key.space	Key.space	n/a
195.9645	0.12	391929	keystroke_f	f	n/a
196.0695	0.0905	392139	keystroke_i	i	n/a
196.2945	0.075	392589	keystroke_g	g	n/a
196.4745	0.09	392949	keystroke_h	h	n/a
196.5495	0.09	393099	keystroke_t	t	n/a
196.8945	0.06	393789	keystroke_Key.backspace	Key.backspace	n/a
197.0295	0.09	394059	keystroke_Key.backspace	Key.backspace	n/a
197.1795	0.045	394359	keystroke_Key.backspace	Key.backspace	n/a
197.2995	0.0755	394599	keystroke_Key.backspace	Key.backspace	n/a
197.449	0.06	394898	keystroke_Key.backspace	Key.backspace	n/a
197.584	0.06	395168	keystroke_Key.backspace	Key.backspace	n/a
197.7195	0.075	395439	keystroke_Key.backspace	Key.backspace	n/a
197.959	0.0755	395918	keystroke_Key.backspace	Key.backspace	n/a
199.145	0.0895	398290	keystroke_p	p	n/a
199.43	0.074	398860	keystroke_h	h	n/a
199.5795	0.1195	399159	keystroke_Key.space	Key.space	n/a
200.209	0.18	400418	keystroke_f	f	n/a
200.374	0.075	400748	keystroke_i	i	n/a
200.7195	0.0755	401439	keystroke_g	g	n/a
201.319	0.061	402638	keystroke_h	h	n/a
201.4845	0.0895	402969	keystroke_t	t	n/a
201.739	0.0905	403478	keystroke_e	e	n/a
201.9195	0.0895	403839	keystroke_r	r	n/a
202.129	0.12	404258	keystroke_s	s	n/a
202.264	0.12	404528	keystroke_Key.space	Key.space	n/a
202.669	0.0905	405338	keystroke_b	b	n/a
202.91	0.089	405820	keystroke_a	a	n/a
203.029	0.06	406058	keystroke_n	n	n/a
203.165	0.1045	406330	keystroke_n	n	n/a
203.299	0.165	406598	keystroke_e	e	n/a
203.45	0.1645	406900	keystroke_d	d	n/a
204.679	0.09	409358	keystroke_Key.enter	Key.enter	n/a
204.7775	9.3085	409555	prompt	n/a	fuji adobe mardi wanting\n
205.4895	0.1045	410979	keystroke_f	f	n/a
205.579	0.0755	411158	keystroke_u	u	n/a
206.5095	0.09	413019	keystroke_j	j	n/a
206.6595	0.12	413319	keystroke_i	i	n/a
206.7945	0.134	413589	keystroke_Key.space	Key.space	n/a
207.2005	0.104	414401	keystroke_a	a	n/a
207.6335	0.06	415267	keystroke_d	d	n/a
207.7095	0.09	415419	keystroke_o	o	n/a
207.9485	0.121	415897	keystroke_b	b	n/a
208.085	0.1045	416170	keystroke_e	e	n/a
208.1595	0.105	416319	keystroke_Key.space	Key.space	n/a
209.765	0.119	419530	keystroke_m	m	n/a
209.914	0.12	419828	keystroke_a	a	n/a
210.2295	0.12	420459	keystroke_r	r	n/a
210.545	0.0595	421090	keystroke_i	i	n/a
210.6645	0.09	421329	keystroke_f	f	n/a
210.9195	0.18	421839	keystroke_Key.backspace	Key.backspace	n/a
211.0845	0.12	422169	keystroke_d	d	n/a
211.414	0.0305	422828	keystroke_Key.backspace	Key.backspace	n/a
211.534	0.075	423068	keystroke_Key.backspace	Key.backspace	n/a
211.624	0.1055	423248	keystroke_d	d	n/a
211.7595	0.135	423519	keystroke_i	i	n/a
211.879	0.135	423758	keystroke_Key.space	Key.space	n/a
212.6745	0.09	425349	keystroke_w	w	n/a
212.9295	0.03	425859	keystroke_a	a	n/a
212.9445	0.0895	425889	keystroke_n	n	n/a
213.124	0.136	426248	keystroke_t	t	n/a
213.229	0.075	426458	keystroke_i	i	n/a
213.365	0.12	426730	keystroke_n	n	n/a
213.439	0.106	426878	keystroke_g	g	n/a
213.9645	0.12	427929	keystroke_Key.enter	Key.enter	n/a
214.0905	8.1415	428181	prompt	n/a	soul islamic hero blowing\n
214.7445	0.104	429489	keystroke_s	s	n/a
214.7885	0.0755	429577	keystroke_o	o	n/a
214.9695	0.104	429939	keystroke_u	u	n/a
215.18	0.135	430360	keystroke_l	l	n/a
215.2985	0.1505	430597	keystroke_Key.space	Key.space	n/a
215.734	0.0905	431468	keystroke_i	i	n/a
215.884	0.0755	431768	keystroke_s	s	n/a
216.049	0.091	432098	keystroke_l	l	n/a
216.154	0.1055	432308	keystroke_a	a	n/a
216.289	0.1355	432578	keystroke_n	n	n/a
216.754	0.09	433508	keystroke_Key.backspace	Key.backspace	n/a
216.995	0.089	433990	keystroke_m	m	n/a
217.1745	0.104	434349	keystroke_i	i	n/a
217.3245	0.1645	434649	keystroke_c	c	n/a
217.4595	0.1195	434919	keystroke_Key.space	Key.space	n/a
218.044	0.105	436088	keystroke_h	h	n/a
218.164	0.105	436328	keystroke_e	e	n/a
218.4645	0.105	436929	keystroke_r	r	n/a
218.5545	0.1045	437109	keystroke_o	o	n/a
218.839	0.105	437678	keystroke_Key.space	Key.space	n/a
219.259	0.0755	438518	keystroke_b	b	n/a
219.469	0.0905	438938	keystroke_l	l	n/a
219.889	0.0905	439778	keystroke_o	o	n/a
219.9945	0.135	439989	keystroke_w	w	n/a
220.1145	0.075	440229	keystroke_i	i	n/a
220.2645	0.105	440529	keystroke_n	n	n/a
220.3545	0.09	440709	keystroke_g	g	n/a
222.0945	0.135	444189	keystroke_Key.enter	Key.enter	n/a
222.237	10.8985	444474	prompt	n/a	promise extreme depression canadian\n
223.159	0.105	446318	keystroke_p	p	n/a
223.279	0.12	446558	keystroke_r	r	n/a
223.384	0.0905	446768	keystroke_o	o	n/a
223.7745	0.075	447549	keystroke_m	m	n/a
223.969	0.09	447938	keystroke_i	i	n/a
224.0895	0.165	448179	keystroke_s	s	n/a
224.6145	0.1195	449229	keystroke_e	e	n/a
224.749	0.09	449498	keystroke_Key.space	Key.space	n/a
225.1245	0.1495	450249	keystroke_e	e	n/a
225.484	0.1055	450968	keystroke_x	x	n/a
225.859	0.15	451718	keystroke_r	r	n/a
226.1295	0.12	452259	keystroke_e	e	n/a
226.264	0.105	452528	keystroke_m	m	n/a
226.459	0.105	452918	keystroke_e	e	n/a
226.7895	0.105	453579	keystroke_Key.space	Key.space	n/a
227.1195	0.06	454239	keystroke_Key.backspace	Key.backspace	n/a
227.2695	0.045	454539	keystroke_Key.backspace	Key.backspace	n/a
227.3895	0.06	454779	keystroke_Key.backspace	Key.backspace	n/a
227.5395	0.045	455079	keystroke_Key.backspace	Key.backspace	n/a
227.6595	0.075	455319	keystroke_Key.backspace	Key.backspace	n/a
227.9295	0.015	455859	keystroke_t	t	n/a
228.0645	0.18	456129	keystroke_r	r	n/a
228.1845	0.165	456369	keystroke_e	e	n/a
228.3195	0.09	456639	keystroke_m	m	n/a
228.4395	0.15	456879	keystroke_e	e	n/a
228.6795	0.18	457359	keystroke_Key.space	Key.space	n/a
229.3395	0.12	458679	keystroke_d	d	n/a
229.4745	0.135	458949	keystroke_e	e	n/a
229.8795	0.104	459759	keystroke_p	p	n/a
229.999	0.2105	459998	keystroke_r	r	n/a
230.1495	0.1055	460299	keystroke_e	e	n/a
230.4035	0.061	460807	keystroke_s	s	n/a
230.5535	0.076	461107	keystroke_s	s	n/a
230.6145	0.105	461229	keystroke_i	i	n/a
230.779	0.075	461558	keystroke_o	o	n/a
230.959	0.1205	461918	keystroke_n	n	n/a
231.154	0.165	462308	keystroke_Key.space	Key.space	n/a
231.9645	0.1045	463929	keystroke_c	c	n/a
232.1	0.1045	464200	keystroke_a	a	n/a
232.19	0.105	464380	keystroke_n	n	n/a
232.3395	0.075	464679	keystroke_a	a	n/a
232.4585	0.1215	464917	keystroke_d	d	n/a
232.5495	0.105	465099	keystroke_i	i	n/a
232.685	0.1195	465370	keystroke_a	a	n/a
232.7885	0.076	465577	keystroke_n	n	n/a
233.029	0.105	466058	keystroke_Key.enter	Key.enter	n/a
233.148	10.818	466296	prompt	n/a	documents vertical carter manufacturing\n
233.8245	0.1055	467649	keystroke_d	d	n/a
233.974	0.106	467948	keystroke_o	o	n/a
234.139	0.1055	468278	keystroke_c	c	n/a
234.26	0.059	468520	keystroke_u	u	n/a
234.4845	0.0895	468969	keystroke_m	m	n/a
235.6395	0.09	471279	keystroke_e	e	n/a
235.7595	0.09	471519	keystroke_n	n	n/a
236.1945	0.0895	472389	keystroke_t	t	n/a
236.434	0.15	472868	keystroke_s	s	n/a
236.5545	0.1045	473109	keystroke_Key.space	Key.space	n/a
236.929	0.1355	473858	keystroke_v	v	n/a
237.08	0.179	474160	keystroke_e	e	n/a
237.199	0.1505	474398	keystroke_r	r	n/a
237.47	0.1185	474940	keystroke_t	t	n/a
237.6035	0.106	475207	keystroke_i	i	n/a
237.949	0.105	475898	keystroke_c	c	n/a
238.5495	0.119	477099	keystroke_a	a	n/a
238.6535	0.1065	477307	keystroke_l	l	n/a
238.744	0.165	477488	keystroke_Key.space	Key.space	n/a
238.894	0.1205	477788	keystroke_c	c	n/a
239.0295	0.1955	478059	keystroke_e	e	n/a
239.1795	0.12	478359	keystroke_r	r	n/a
239.4045	0.105	478809	keystroke_t	t	n/a
239.6	0.1645	479200	keystroke_e	e	n/a
239.6895	0.165	479379	keystroke_r	r	n/a
239.7945	0.12	479589	keystroke_Key.space	Key.space	n/a
239.9895	0.105	479979	keystroke_n	n	n/a
240.334	0.09	480668	keystroke_a	a	n/a
240.619	0.06	481238	keystroke_Key.backspace	Key.backspace	n/a
240.7545	0.0895	481509	keystroke_Key.backspace	Key.backspace	n/a
241.0695	0.105	482139	keystroke_m	m	n/a
241.2495	0.0755	482499	keystroke_a	a	n/a
241.34	0.0745	482680	keystroke_n	n	n/a
241.534	0.09	483068	keystroke_u	u	n/a
241.8645	0.105	483729	keystroke_f	f	n/a
242.045	0.1195	484090	keystroke_a	a	n/a
242.2095	0.105	484419	keystroke_c	c	n/a
242.405	0.1195	484810	keystroke_t	t	n/a
242.5845	0.1195	485169	keystroke_u	u	n/a
243.0795	0.1195	486159	keystroke_r	r	n/a
243.185	0.074	486370	keystroke_i	i	n/a
243.32	0.12	486640	keystroke_n	n	n/a
243.395	0.105	486790	keystroke_g	g	n/a
243.859	0.105	487718	keystroke_Key.enter	Key.enter	n/a
243.97	10.271	487940	prompt	n/a	contracting processed receiving sharon\n
244.849	0.135	489698	keystroke_c	c	n/a
244.999	0.06	489998	keystroke_o	o	n/a
245.1795	0.1045	490359	keystroke_n	n	n/a
245.269	0.105	490538	keystroke_t	t	n/a
245.479	0.0905	490958	keystroke_r	r	n/a
245.6735	0.121	491347	keystroke_a	a	n/a
245.869	0.0905	491738	keystroke_c	c	n/a
246.0345	0.165	492069	keystroke_t	t	n/a
246.1545	0.075	492309	keystroke_i	i	n/a
246.32	0.105	492640	keystroke_n	n	n/a
246.3945	0.1205	492789	keystroke_g	g	n/a
246.6495	0.104	493299	keystroke_Key.space	Key.space	n/a
246.8595	0.1045	493719	keystroke_p	p	n/a
247.0095	0.2095	494019	keystroke_r	r	n/a
247.475	0.09	494950	keystroke_o	o	n/a
247.835	0.0895	495670	keystroke_c	c	n/a
248.0145	0.1345	496029	keystroke_e	e	n/a
248.254	0.0605	496508	keystroke_s	s	n/a
248.389	0.1805	496778	keystroke_s	s	n/a
248.5395	0.15	497079	keystroke_e	e	n/a
248.6745	0.1655	497349	keystroke_d	d	n/a
248.8245	0.12	497649	keystroke_Key.space	Key.space	n/a
249.0045	0.195	498009	keystroke_r	r	n/a
249.1545	0.15	498309	keystroke_e	e	n/a
249.424	0.1355	498848	keystroke_c	c	n/a
249.5745	0.15	499149	keystroke_e	e	n/a
249.6945	0.135	499389	keystroke_i	i	n/a
249.8745	0.15	499749	keystroke_v	v	n/a
250.04	0.1045	500080	keystroke_e	e	n/a
250.1295	0.105	500259	keystroke_i	i	n/a
250.2945	0.15	500589	keystroke_n	n	n/a
250.6995	0.075	501399	keystroke_Key.backspace	Key.backspace	n/a
250.8495	0.195	501699	keystroke_Key.backspace	Key.backspace	n/a
251.2385	0.076	502477	keystroke_Key.backspace	Key.backspace	n/a
251.4945	0.104	502989	keystroke_i	i	n/a
251.659	0.1355	503318	keystroke_n	n	n/a
251.8245	0.09	503649	keystroke_g	g	n/a
251.8395	0.15	503679	keystroke_Key.space	Key.space	n/a
252.244	0.091	504488	keystroke_s	s	n/a
252.32	0.0895	504640	keystroke_h	h	n/a
252.515	0.0895	505030	keystroke_a	a	n/a
252.7245	0.135	505449	keystroke_r	r	n/a
253.009	0.0905	506018	keystroke_o	o	n/a
253.204	0.1055	506408	keystroke_n	n	n/a
254.1195	0.12	508239	keystroke_Key.enter	Key.enter	n/a
254.2445	6.4915	508489	prompt	n/a	shore brick it'll specials\n
255.275	0.1195	510550	keystroke_s	s	n/a
255.3645	0.0895	510729	keystroke_h	h	n/a
255.53	0.135	511060	keystroke_o	o	n/a
255.695	0.179	511390	keystroke_r	r	n/a
255.829	0.15	511658	keystroke_e	e	n/a
255.964	0.12	511928	keystroke_Key.space	Key.space	n/a
256.22	0.074	512440	keystroke_b	b	n/a
256.354	0.105	512708	keystroke_r	r	n/a
256.4295	0.075	512859	keystroke_i	i	n/a
256.7745	0.09	513549	keystroke_c	c	n/a
257.1205	0.089	514241	keystroke_k	k	n/a
257.2395	0.135	514479	keystroke_Key.space	Key.space	n/a
257.405	0.1195	514810	keystroke_i	i	n/a
257.5695	0.135	515139	keystroke_t	t	n/a
258.0645	0.09	516129	keystroke_'	'	n/a
258.3495	0.09	516699	keystroke_l	l	n/a
258.515	0.0895	517030	keystroke_l	l	n/a
258.6795	0.135	517359	keystroke_Key.space	Key.space	n/a
259.0845	0.1055	518169	keystroke_s	s	n/a
259.175	0.149	518350	keystroke_p	p	n/a
259.34	0.089	518680	keystroke_e	e	n/a
259.579	0.1055	519158	keystroke_c	c	n/a
259.685	0.104	519370	keystroke_i	i	n/a
259.864	0.09	519728	keystroke_a	a	n/a
259.969	0.1055	519938	keystroke_l	l	n/a
260.1495	0.1045	520299	keystroke_s	s	n/a
260.6135	0.121	521227	keystroke_Key.enter	Key.enter	n/a
260.7425	8.2885	521485	prompt	n/a	expressions allowance cheque neil\n
261.3795	0.1055	522759	keystroke_e	e	n/a
261.634	0.1205	523268	keystroke_x	x	n/a
261.724	0.121	523448	keystroke_p	p	n/a
261.8745	0.195	523749	keystroke_r	r	n/a
262.054	0.121	524108	keystroke_e	e	n/a
262.309	0.06	524618	keystroke_s	s	n/a
262.444	0.0905	524888	keystroke_s	s	n/a
262.549	0.0905	525098	keystroke_i	i	n/a
262.7145	0.075	525429	keystroke_o	o	n/a
262.8495	0.15	525699	keystroke_n	n	n/a
262.9845	0.1345	525969	keystroke_s	s	n/a
263.074	0.09	526148	keystroke_Key.space	Key.space	n/a
263.4945	0.089	526989	keystroke_a	a	n/a
263.555	0.075	527110	keystroke_l	l	n/a
263.704	0.091	527408	keystroke_l	l	n/a
264.2435	0.091	528487	keystroke_o	o	n/a
264.365	0.1045	528730	keystroke_w	w	n/a
264.6195	0.09	529239	keystroke_a	a	n/a
264.7545	0.1055	529509	keystroke_n	n	n/a
264.9045	0.1195	529809	keystroke_c	c	n/a
265.04	0.18	530080	keystroke_e	e	n/a
265.174	0.106	530348	keystroke_Key.space	Key.space	n/a
266.0145	0.09	532029	keystroke_c	c	n/a
266.1195	0.09	532239	keystroke_h	h	n/a
266.24	0.119	532480	keystroke_e	e	n/a
266.51	0.119	533020	keystroke_q	q	n/a
266.585	0.119	533170	keystroke_u	u	n/a
266.764	0.15	533528	keystroke_e	e	n/a
267.349	0.1055	534698	keystroke_Key.space	Key.space	n/a
267.9195	0.075	535839	keystroke_n	n	n/a
268.264	0.06	536528	keystroke_e	e	n/a
268.354	0.0755	536708	keystroke_i	i	n/a
268.684	0.09	537368	keystroke_l	l	n/a
268.9545	0.075	537909	keystroke_Key.enter	Key.enter	n/a
269.0435	9.5425	538087	prompt	n/a	i'd meters refused namibia\n
269.6735	0.09	539347	keystroke_i	i	n/a
270.304	0.12	540608	keystroke_'	'	n/a
270.6495	0.1345	541299	keystroke_d	d	n/a
270.814	0.1205	541628	keystroke_Key.space	Key.space	n/a
271.3095	0.1045	542619	keystroke_m	m	n/a
271.399	0.0905	542798	keystroke_e	e	n/a
271.6545	0.1045	543309	keystroke_t	t	n/a
271.849	0.165	543698	keystroke_e	e	n/a
271.969	0.12	543938	keystroke_r	r	n/a
272.2095	0.105	544419	keystroke_s	s	n/a
272.284	0.12	544568	keystroke_Key.space	Key.space	n/a
272.554	0.1655	545108	keystroke_r	r	n/a
272.7045	0.12	545409	keystroke_e	e	n/a
273.1995	0.15	546399	keystroke_d	d	n/a
273.335	0.1045	546670	keystroke_u	u	n/a
273.8145	0.0445	547629	keystroke_Key.backspace	Key.backspace	n/a
273.9345	0.09	547869	keystroke_Key.backspace	Key.backspace	n/a
274.639	0.09	549278	keystroke_f	f	n/a
274.744	0.09	549488	keystroke_u	u	n/a
274.8645	0.15	549729	keystroke_e	e	n/a
275.719	0.0905	551438	keystroke_Key.backspace	Key.backspace	n/a
275.9	0.239	551800	keystroke_s	s	n/a
276.0945	0.2095	552189	keystroke_e	e	n/a
276.259	0.18	552518	keystroke_d	d	n/a
276.409	0.1205	552818	keystroke_Key.space	Key.space	n/a
277.0695	0.09	554139	keystroke_n	n	n/a
277.2645	0.105	554529	keystroke_a	a	n/a
277.3995	0.075	554799	keystroke_m	m	n/a
277.6095	0.03	555219	keystroke_i	i	n/a
277.8495	0.075	555699	keystroke_b	b	n/a
278.0595	0.1045	556119	keystroke_i	i	n/a
278.179	0.1205	556358	keystroke_a	a	n/a
278.4485	0.1355	556897	keystroke_Key.enter	Key.enter	n/a
278.592	8.334	557184	prompt	n/a	marine folder learners cause\n
279.2595	0.06	558519	keystroke_m	m	n/a
279.439	0.09	558878	keystroke_a	a	n/a
279.6195	0.104	559239	keystroke_r	r	n/a
279.7695	0.044	559539	keystroke_i	i	n/a
279.92	0.1035	559840	keystroke_n	n	n/a
280.0095	0.18	560019	keystroke_e	e	n/a
280.1285	0.09	560257	keystroke_Key.space	Key.space	n/a
280.4295	0.075	560859	keystroke_f	f	n/a
280.5185	0.091	561037	keystroke_o	o	n/a
280.7135	0.106	561427	keystroke_l	l	n/a
280.8345	0.135	561669	keystroke_d	d	n/a
281.0285	0.09	562057	keystroke_e	e	n/a
281.224	0.09	562448	keystroke_r	r	n/a
281.344	0.1205	562688	keystroke_Key.space	Key.space	n/a
281.5845	0.1055	563169	keystroke_l	l	n/a
281.6745	0.105	563349	keystroke_e	e	n/a
281.9135	0.075	563827	keystroke_a	a	n/a
282.0945	0.105	564189	keystroke_r	r	n/a
282.215	0.0895	564430	keystroke_n	n	n/a
282.335	0.1485	564670	keystroke_e	e	n/a
282.4685	0.121	564937	keystroke_r	r	n/a
282.724	0.0755	565448	keystroke_s	s	n/a
285.307	0.0875	570614	keystroke_Key.space	Key.space	n/a
285.649	0.105	571298	keystroke_c	c	n/a
285.7995	0.1195	571599	keystroke_a	a	n/a
285.949	0.1205	571898	keystroke_u	u	n/a
286.114	0.165	572228	keystroke_s	s	n/a
286.234	0.165	572468	keystroke_e	e	n/a
286.7895	0.1345	573579	keystroke_Key.enter	Key.enter	n/a
286.9315	8.9645	573863	prompt	n/a	y'all treasure rubber monte\n
287.674	0.12	575348	keystroke_y	y	n/a
288.3645	0.105	576729	keystroke_'	'	n/a
288.6795	0.09	577359	keystroke_a	a	n/a
288.874	0.061	577748	keystroke_k	k	n/a
289.0245	0.06	578049	keystroke_k	k	n/a
289.3085	0.045	578617	keystroke_Key.backspace	Key.backspace	n/a
289.4285	0.076	578857	keystroke_Key.backspace	Key.backspace	n/a
289.6385	0.0755	579277	keystroke_l	l	n/a
289.7735	0.1055	579547	keystroke_l	l	n/a
289.939	0.135	579878	keystroke_Key.space	Key.space	n/a
290.6885	0.121	581377	keystroke_t	t	n/a
290.914	0.18	581828	keystroke_r	r	n/a
291.0495	0.1645	582099	keystroke_e	e	n/a
291.5435	0.075	583087	keystroke_a	a	n/a
291.7845	0.09	583569	keystroke_s	s	n/a
291.8895	0.12	583779	keystroke_u	u	n/a
291.9795	0.2095	583959	keystroke_r	r	n/a
292.144	0.166	584288	keystroke_e	e	n/a
292.279	0.135	584558	keystroke_Key.space	Key.space	n/a
292.729	0.105	585458	keystroke_r	r	n/a
292.7895	0.1045	585579	keystroke_u	u	n/a
293.014	0.06	586028	keystroke_b	b	n/a
293.134	0.1055	586268	keystroke_b	b	n/a
293.224	0.21	586448	keystroke_e	e	n/a
293.344	0.165	586688	keystroke_r	r	n/a
293.434	0.1505	586868	keystroke_Key.space	Key.space	n/a
294.409	0.09	588818	keystroke_m	m	n/a
294.62	0.075	589240	keystroke_o	o	n/a
294.799	0.105	589598	keystroke_n	n	n/a
295.024	0.135	590048	keystroke_t	t	n/a
295.324	0.135	590648	keystroke_e	e	n/a
295.699	0.1945	591398	keystroke_Key.enter	Key.enter	n/a
295.903	7.5075	591806	prompt	n/a	wheel dennis mime generally\n
296.5245	0.104	593049	keystroke_w	w	n/a
296.6735	0.091	593347	keystroke_h	h	n/a
296.8545	0.06	593709	keystroke_e	e	n/a
297.0195	0.089	594039	keystroke_e	e	n/a
297.124	0.105	594248	keystroke_l	l	n/a
297.2895	0.1045	594579	keystroke_Key.space	Key.space	n/a
297.4995	0.1495	594999	keystroke_d	d	n/a
297.664	0.09	595328	keystroke_e	e	n/a
297.799	0.09	595598	keystroke_n	n	n/a
297.949	0.1055	595898	keystroke_n	n	n/a
298.099	0.1355	596198	keystroke_i	i	n/a
298.2195	0.1045	596439	keystroke_s	s	n/a
298.325	0.119	596650	keystroke_Key.space	Key.space	n/a
298.9395	0.075	597879	keystroke_m	m	n/a
299.134	0.06	598268	keystroke_i	i	n/a
299.48	0.045	598960	keystroke_m	m	n/a
299.704	0.075	599408	keystroke_e	e	n/a
299.929	0.165	599858	keystroke_Key.space	Key.space	n/a
300.7395	0.1195	601479	keystroke_g	g	n/a
300.9195	0.164	601839	keystroke_e	e	n/a
301.0685	0.1355	602137	keystroke_r	r	n/a
301.505	0.1045	603010	keystroke_Key.backspace	Key.backspace	n/a
301.759	0.075	603518	keystroke_n	n	n/a
301.879	0.195	603758	keystroke_e	e	n/a
302.059	0.12	604118	keystroke_r	r	n/a
302.314	0.105	604628	keystroke_a	a	n/a
302.374	0.075	604748	keystroke_l	l	n/a
302.509	0.105	605018	keystroke_l	l	n/a
302.674	0.09	605348	keystroke_y	y	n/a
303.289	0.12	606578	keystroke_Key.enter	Key.enter	n/a
303.416	10.015	606832	prompt	n/a	grade petition seating heavily\n
304.1	0.164	608200	keystroke_f	f	n/a
304.2795	0.166	608559	keystroke_r	r	n/a
304.6545	0.045	609309	keystroke_Key.backspace	Key.backspace	n/a
304.7745	0.075	609549	keystroke_Key.backspace	Key.backspace	n/a
304.9245	0.045	609849	keystroke_Key.backspace	Key.backspace	n/a
305.1345	0.105	610269	keystroke_g	g	n/a
305.2845	0.104	610569	keystroke_r	r	n/a
305.5095	0.165	611019	keystroke_a	a	n/a
305.6445	0.165	611289	keystroke_d	d	n/a
305.7795	0.1345	611559	keystroke_e	e	n/a
305.8995	0.089	611799	keystroke_Key.space	Key.space	n/a
306.0945	0.09	612189	keystroke_p	p	n/a
306.1995	0.075	612399	keystroke_e	e	n/a
306.4095	0.12	612819	keystroke_t	t	n/a
306.5145	0.09	613029	keystroke_i	i	n/a
306.6945	0.1045	613389	keystroke_t	t	n/a
306.74	0.0745	613480	keystroke_i	i	n/a
306.904	0.106	613808	keystroke_o	o	n/a
307.2195	0.015	614439	keystroke_n	n	n/a
307.2495	0.074	614499	keystroke_Key.space	Key.space	n/a
307.5935	0.166	615187	keystroke_s	s	n/a
307.7445	0.105	615489	keystroke_e	e	n/a
307.9395	0.0895	615879	keystroke_a	a	n/a
308.1785	0.1205	616357	keystroke_t	t	n/a
308.2245	0.089	616449	keystroke_i	i	n/a
308.584	0.1055	617168	keystroke_n	n	n/a
308.674	0.1205	617348	keystroke_g	g	n/a
308.7795	0.075	617559	keystroke_Key.space	Key.space	n/a
309.769	0.0905	619538	keystroke_h	h	n/a
309.8745	0.09	619749	keystroke_e	e	n/a
310.0695	0.09	620139	keystroke_a	a	n/a
310.3695	0.12	620739	keystroke_v	v	n/a
310.4595	0.09	620919	keystroke_i	i	n/a
310.6695	0.135	621339	keystroke_t	t	n/a
311.4035	0.0455	622807	keystroke_Key.backspace	Key.backspace	n/a
311.5695	0.105	623139	keystroke_l	l	n/a
311.659	0.12	623318	keystroke_y	y	n/a
313.324	0.1055	626648	keystroke_Key.enter	Key.enter	n/a
313.4375	10.6885	626875	prompt	n/a	drawings calculators womens device\n
315.1695	0.119	630339	keystroke_d	d	n/a
315.3495	0.12	630699	keystroke_r	r	n/a
315.5735	0.211	631147	keystroke_a	a	n/a
315.7695	0.135	631539	keystroke_w	w	n/a
315.8895	0.09	631779	keystroke_i	i	n/a
316.0385	0.136	632077	keystroke_n	n	n/a
316.159	0.135	632318	keystroke_g	g	n/a
316.6695	0.1195	633339	keystroke_s	s	n/a
316.744	0.12	633488	keystroke_Key.space	Key.space	n/a
317.134	0.075	634268	keystroke_c	c	n/a
317.239	0.135	634478	keystroke_a	a	n/a
317.329	0.09	634658	keystroke_l	l	n/a
317.944	0.105	635888	keystroke_c	c	n/a
318.019	0.075	636038	keystroke_u	u	n/a
318.2295	0.1045	636459	keystroke_l	l	n/a
318.304	0.09	636608	keystroke_a	a	n/a
318.784	0.09	637568	keystroke_r	r	n/a
318.949	0.135	637898	keystroke_o	o	n/a
319.474	0.225	638948	keystroke_Key.backspace	Key.backspace	n/a
319.804	0.105	639608	keystroke_Key.backspace	Key.backspace	n/a
319.939	0.136	639878	keystroke_t	t	n/a
320.06	0.104	640120	keystroke_o	o	n/a
320.434	0.106	640868	keystroke_r	r	n/a
320.645	0.149	641290	keystroke_s	s	n/a
320.749	0.105	641498	keystroke_Key.space	Key.space	n/a
321.019	0.12	642038	keystroke_w	w	n/a
321.11	0.0745	642220	keystroke_o	o	n/a
321.304	0.0755	642608	keystroke_m	m	n/a
321.424	0.1055	642848	keystroke_e	e	n/a
321.544	0.1195	643088	keystroke_n	n	n/a
321.7085	0.121	643417	keystroke_s	s	n/a
321.8145	0.09	643629	keystroke_Key.space	Key.space	n/a
322.054	0.151	644108	keystroke_d	d	n/a
322.219	0.09	644438	keystroke_e	e	n/a
322.414	0.12	644828	keystroke_v	v	n/a
322.504	0.105	645008	keystroke_i	i	n/a
322.669	0.105	645338	keystroke_c	c	n/a
322.789	0.2105	645578	keystroke_e	e	n/a
323.9895	0.135	647979	keystroke_Key.enter	Key.enter	n/a
324.1325	9.5335	648265	prompt	n/a	entertainment freedom arrived displays\n
324.8595	0.09	649719	keystroke_e	e	n/a
324.9945	0.09	649989	keystroke_n	n	n/a
325.1445	0.089	650289	keystroke_t	t	n/a
325.3245	0.165	650649	keystroke_e	e	n/a
325.4285	0.136	650857	keystroke_r	r	n/a
325.6845	0.105	651369	keystroke_t	t	n/a
325.954	0.0745	651908	keystroke_r	r	n/a
326.419	0.075	652838	keystroke_Key.backspace	Key.backspace	n/a
326.524	0.09	653048	keystroke_a	a	n/a
326.704	0.0605	653408	keystroke_i	i	n/a
326.8545	0.0895	653709	keystroke_n	n	n/a
327.244	0.075	654488	keystroke_m	m	n/a
327.334	0.105	654668	keystroke_e	e	n/a
327.4695	0.0895	654939	keystroke_n	n	n/a
327.589	0.105	655178	keystroke_t	t	n/a
327.6945	0.1045	655389	keystroke_Key.space	Key.space	n/a
327.8595	0.1355	655719	keystroke_f	f	n/a
328.01	0.104	656020	keystroke_r	r	n/a
328.219	0.075	656438	keystroke_e	e	n/a
328.369	0.09	656738	keystroke_e	e	n/a
328.6095	0.09	657219	keystroke_d	d	n/a
328.6695	0.06	657339	keystroke_o	o	n/a
329.029	0.0755	658058	keystroke_m	m	n/a
329.134	0.135	658268	keystroke_Key.space	Key.space	n/a
329.404	0.076	658808	keystroke_a	a	n/a
329.584	0.09	659168	keystroke_r	r	n/a
329.749	0.1055	659498	keystroke_r	r	n/a
329.899	0.06	659798	keystroke_i	i	n/a
329.989	0.135	659978	keystroke_v	v	n/a
330.154	0.09	660308	keystroke_e	e	n/a
330.4535	0.1365	660907	keystroke_d	d	n/a
330.574	0.0895	661148	keystroke_Key.space	Key.space	n/a
330.9935	0.121	661987	keystroke_d	d	n/a
331.0845	0.105	662169	keystroke_i	i	n/a
331.264	0.106	662528	keystroke_s	s	n/a
331.6685	0.0905	663337	keystroke_p	p	n/a
331.8795	0.09	663759	keystroke_l	l	n/a
332.0145	0.09	664029	keystroke_a	a	n/a
332.1795	0.0745	664359	keystroke_y	y	n/a
332.9295	0.09	665859	keystroke_s	s	n/a
333.5285	0.1355	667057	keystroke_Key.enter	Key.enter	n/a
333.672	8.694	667344	prompt	n/a	microphone edward mainland under\n
334.534	0.1045	669068	keystroke_m	m	n/a
334.7145	0.0895	669429	keystroke_i	i	n/a
334.8185	0.1215	669637	keystroke_c	c	n/a
335.044	0.1195	670088	keystroke_r	r	n/a
335.18	0.074	670360	keystroke_o	o	n/a
335.4795	0.09	670959	keystroke_p	p	n/a
336.064	0.0905	672128	keystroke_h	h	n/a
336.244	0.09	672488	keystroke_o	o	n/a
336.454	0.075	672908	keystroke_n	n	n/a
336.694	0.105	673388	keystroke_e	e	n/a
337.219	0.105	674438	keystroke_Key.space	Key.space	n/a
337.5045	0.045	675009	keystroke_e	e	n/a
337.7295	0.09	675459	keystroke_d	d	n/a
338.269	0.1055	676538	keystroke_w	w	n/a
338.479	0.105	676958	keystroke_a	a	n/a
338.7345	0.1345	677469	keystroke_r	r	n/a
339.0045	0.1195	678009	keystroke_d	d	n/a
339.14	0.089	678280	keystroke_Key.space	Key.space	n/a
339.3645	0.0745	678729	keystroke_m	m	n/a
339.47	0.12	678940	keystroke_a	a	n/a
339.575	0.059	679150	keystroke_i	i	n/a
339.7095	0.09	679419	keystroke_n	n	n/a
339.9045	0.1055	679809	keystroke_l	l	n/a
339.9795	0.12	679959	keystroke_a	a	n/a
340.1145	0.105	680229	keystroke_n	n	n/a
340.2045	0.135	680409	keystroke_d	d	n/a
340.3245	0.119	680649	keystroke_Key.space	Key.space	n/a
340.7145	0.089	681429	keystroke_u	u	n/a
340.864	0.135	681728	keystroke_n	n	n/a
340.984	0.1205	681968	keystroke_d	d	n/a
341.1195	0.105	682239	keystroke_e	e	n/a
341.3	0.1335	682600	keystroke_r	r	n/a
342.259	0.105	684518	keystroke_Key.enter	Key.enter	n/a
342.3705	6.6105	684741	prompt	n/a	heat soil casino vaccine\n
343.205	0.089	686410	keystroke_h	h	n/a
343.34	0.105	686680	keystroke_e	e	n/a
343.5495	0.0895	687099	keystroke_a	a	n/a
343.744	0.1355	687488	keystroke_t	t	n/a
343.924	0.1345	687848	keystroke_Key.space	Key.space	n/a
344.435	0.1195	688870	keystroke_s	s	n/a
344.5095	0.0745	689019	keystroke_o	o	n/a
344.6895	0.09	689379	keystroke_i	i	n/a
344.8985	0.136	689797	keystroke_l	l	n/a
345.0495	0.12	690099	keystroke_Key.space	Key.space	n/a
345.1995	0.09	690399	keystroke_c	c	n/a
345.425	0.089	690850	keystroke_a	a	n/a
345.86	0.104	691720	keystroke_s	s	n/a
345.95	0.059	691900	keystroke_i	i	n/a
346.114	0.075	692228	keystroke_n	n	n/a
346.279	0.135	692558	keystroke_o	o	n/a
346.8795	0.12	693759	keystroke_Key.space	Key.space	n/a
347.1795	0.12	694359	keystroke_v	v	n/a
347.4195	0.1195	694839	keystroke_a	a	n/a
347.705	0.029	695410	keystroke_c	c	n/a
347.84	0.06	695680	keystroke_c	c	n/a
347.884	0.0605	695768	keystroke_i	i	n/a
348.065	0.09	696130	keystroke_n	n	n/a
348.0795	0.1045	696159	keystroke_e	e	n/a
348.889	0.09	697778	keystroke_Key.enter	Key.enter	n/a
348.9875	9.878	697975	prompt	n/a	obituaries installations ownership mailed\n
350.014	0.09	700028	keystroke_o	o	n/a
350.239	0.076	700478	keystroke_b	b	n/a
350.4195	0.104	700839	keystroke_i	i	n/a
350.5385	0.105	701077	keystroke_t	t	n/a
350.7635	0.105	701527	keystroke_u	u	n/a
350.989	0.0745	701978	keystroke_a	a	n/a
351.1695	0.119	702339	keystroke_r	r	n/a
351.2735	0.106	702547	keystroke_i	i	n/a
351.604	0.09	703208	keystroke_e	e	n/a
351.77	0.149	703540	keystroke_s	s	n/a
351.859	0.15	703718	keystroke_Key.space	Key.space	n/a
352.4445	0.0745	704889	keystroke_i	i	n/a
352.654	0.0305	705308	keystroke_n	n	n/a
352.729	0.1055	705458	keystroke_s	s	n/a
352.969	0.1055	705938	keystroke_t	t	n/a
353.194	0.105	706388	keystroke_a	a	n/a
353.284	0.045	706568	keystroke_l	l	n/a
353.419	0.0755	706838	keystroke_l	l	n/a
353.5545	0.1055	707109	keystroke_a	a	n/a
353.7635	0.12	707527	keystroke_t	t	n/a
353.8395	0.1045	707679	keystroke_i	i	n/a
354.0045	0.089	708009	keystroke_o	o	n/a
354.17	0.1345	708340	keystroke_n	n	n/a
354.3065	0.118	708613	keystroke_s	s	n/a
354.4695	0.119	708939	keystroke_Key.space	Key.space	n/a
354.7695	0.1195	709539	keystroke_o	o	n/a
355.1445	0.1205	710289	keystroke_w	w	n/a
355.5495	0.09	711099	keystroke_n	n	n/a
355.6995	0.0895	711399	keystroke_e	e	n/a
355.9685	0.076	711937	keystroke_r	r	n/a
356.1785	0.106	712357	keystroke_s	s	n/a
356.2535	0.09	712507	keystroke_h	h	n/a
356.4185	0.09	712837	keystroke_i	i	n/a
356.6135	0.09	713227	keystroke_p	p	n/a
356.8085	0.121	713617	keystroke_Key.space	Key.space	n/a
357.1685	0.076	714337	keystroke_m	m	n/a
357.3345	0.0895	714669	keystroke_a	a	n/a
357.5145	0.0595	715029	keystroke_i	i	n/a
357.709	0.12	715418	keystroke_l	l	n/a
357.814	0.135	715628	keystroke_e	e	n/a
357.934	0.165	715868	keystroke_d	d	n/a
358.7435	0.12	717487	keystroke_Key.enter	Key.enter	n/a
358.87	8.0965	717740	prompt	n/a	contracting isolation paso joint\n
360.319	0.105	720638	keystroke_c	c	n/a
360.395	0.074	720790	keystroke_o	o	n/a
360.604	0.076	721208	keystroke_n	n	n/a
360.994	0.105	721988	keystroke_t	t	n/a
361.204	0.075	722408	keystroke_r	r	n/a
361.3835	0.09	722767	keystroke_a	a	n/a
361.55	0.0895	723100	keystroke_c	c	n/a
361.7445	0.105	723489	keystroke_t	t	n/a
362.0295	0.105	724059	keystroke_i	i	n/a
362.2095	0.135	724419	keystroke_n	n	n/a
362.2995	0.12	724599	keystroke_g	g	n/a
362.4045	0.09	724809	keystroke_Key.space	Key.space	n/a
362.5845	0.09	725169	keystroke_i	i	n/a
363.169	0.09	726338	keystroke_s	s	n/a
363.3045	0.06	726609	keystroke_o	o	n/a
363.469	0.0905	726938	keystroke_l	l	n/a
363.544	0.09	727088	keystroke_a	a	n/a
363.724	0.135	727448	keystroke_t	t	n/a
363.814	0.09	727628	keystroke_i	i	n/a
363.9945	0.075	727989	keystroke_o	o	n/a
364.1895	0.105	728379	keystroke_n	n	n/a
364.2795	0.12	728559	keystroke_Key.space	Key.space	n/a
364.4895	0.105	728979	keystroke_p	p	n/a
364.6695	0.09	729339	keystroke_a	a	n/a
364.8795	0.074	729759	keystroke_s	s	n/a
364.9245	0.105	729849	keystroke_o	o	n/a
365.0595	0.12	730119	keystroke_Key.space	Key.space	n/a
365.5695	0.104	731139	keystroke_j	j	n/a
365.779	0.09	731558	keystroke_o	o	n/a
365.9745	0.0745	731949	keystroke_i	i	n/a
366.109	0.12	732218	keystroke_n	n	n/a
366.289	0.135	732578	keystroke_t	t	n/a
366.844	0.12	733688	keystroke_Key.enter	Key.enter	n/a
366.971	7.2395	733942	prompt	n/a	alex asked eternal kenny\n
367.7	0.12	735400	keystroke_a	a	n/a
367.835	0.1035	735670	keystroke_l	l	n/a
367.9695	0.09	735939	keystroke_e	e	n/a
368.344	0.1205	736688	keystroke_x	x	n/a
368.479	0.12	736958	keystroke_Key.space	Key.space	n/a
369.124	0.105	738248	keystroke_a	a	n/a
369.289	0.165	738578	keystroke_s	s	n/a
369.4395	0.0895	738879	keystroke_k	k	n/a
369.5445	0.1645	739089	keystroke_e	e	n/a
369.694	0.135	739388	keystroke_d	d	n/a
369.784	0.1205	739568	keystroke_Key.space	Key.space	n/a
370.849	0.105	741698	keystroke_e	e	n/a
371.1345	0.1195	742269	keystroke_t	t	n/a
371.329	0.1495	742658	keystroke_e	e	n/a
371.434	0.1055	742868	keystroke_r	r	n/a
371.5395	0.089	743079	keystroke_n	n	n/a
371.7045	0.12	743409	keystroke_a	a	n/a
371.8085	0.166	743617	keystroke_l	l	n/a
371.9885	0.121	743977	keystroke_Key.space	Key.space	n/a
372.7545	0.089	745509	keystroke_k	k	n/a
372.8885	0.09	745777	keystroke_e	e	n/a
372.9935	0.076	745987	keystroke_n	n	n/a
373.144	0.0905	746288	keystroke_n	n	n/a
373.354	0.105	746708	keystroke_y	y	n/a
374.089	0.1195	748178	keystroke_Key.enter	Key.enter	n/a
374.2255	9.918	748451	prompt	n/a	organic minimal stockholm coat\n
374.884	0.1205	749768	keystroke_o	o	n/a
374.9735	0.121	749947	keystroke_r	r	n/a
375.424	0.09	750848	keystroke_g	g	n/a
375.649	0.12	751298	keystroke_a	a	n/a
375.814	0.0755	751628	keystroke_n	n	n/a
376.009	0.105	752018	keystroke_i	i	n/a
376.339	0.1505	752678	keystroke_c	c	n/a
376.459	0.0905	752918	keystroke_Key.space	Key.space	n/a
376.684	0.075	753368	keystroke_m	m	n/a
376.909	0.09	753818	keystroke_i	i	n/a
377.089	0.105	754178	keystroke_n	n	n/a
377.6585	0.091	755317	keystroke_i	i	n/a
377.885	0.075	755770	keystroke_m	m	n/a
377.9895	0.1195	755979	keystroke_a	a	n/a
378.319	0.0745	756638	keystroke_Key.space	Key.space	n/a
378.4545	0.105	756909	keystroke_l	l	n/a
378.769	0.045	757538	keystroke_Key.backspace	Key.backspace	n/a
378.8885	0.075	757777	keystroke_Key.backspace	Key.backspace	n/a
379.0685	0.12	758137	keystroke_l	l	n/a
379.2635	0.091	758527	keystroke_Key.space	Key.space	n/a
379.5045	0.09	759009	keystroke_s	s	n/a
379.7595	0.06	759519	keystroke_o	o	n/a
379.7745	0.09	759549	keystroke_t	t	n/a
380.0895	0.045	760179	keystroke_Key.backspace	Key.backspace	n/a
380.1935	0.106	760387	keystroke_Key.backspace	Key.backspace	n/a
380.3295	0.105	760659	keystroke_t	t	n/a
380.4645	0.135	760929	keystroke_o	o	n/a
380.6735	0.09	761347	keystroke_c	c	n/a
380.7485	0.1055	761497	keystroke_k	k	n/a
381.184	0.0755	762368	keystroke_h	h	n/a
381.3785	0.0605	762757	keystroke_o	o	n/a
381.5595	0.1345	763119	keystroke_l	l	n/a
381.709	0.09	763418	keystroke_d	d	n/a
382.009	0.075	764018	keystroke_Key.backspace	Key.backspace	n/a
382.249	0.1055	764498	keystroke_m	m	n/a
382.3845	0.119	764769	keystroke_Key.space	Key.space	n/a
382.7145	0.089	765429	keystroke_o	o	n/a
383.0295	0.075	766059	keystroke_Key.backspace	Key.backspace	n/a
383.1345	0.09	766269	keystroke_c	c	n/a
383.2535	0.076	766507	keystroke_o	o	n/a
383.3745	0.0895	766749	keystroke_a	a	n/a
383.614	0.135	767228	keystroke_t	t	n/a
384.019	0.1205	768038	keystroke_Key.enter	Key.enter	n/a
384.1555	12.39	768311	prompt	n/a	appearance delight retirement acquired\n
384.724	0.12	769448	keystroke_a	a	n/a
384.9045	0.075	769809	keystroke_p	p	n/a
385.054	0.105	770108	keystroke_p	p	n/a
385.204	0.0895	770408	keystroke_e	e	n/a
385.4285	0.091	770857	keystroke_a	a	n/a
385.6095	0.105	771219	keystroke_r	r	n/a
385.8495	0.12	771699	keystroke_a	a	n/a
385.9545	0.074	771909	keystroke_n	n	n/a
386.0745	0.1195	772149	keystroke_c	c	n/a
386.209	0.105	772418	keystroke_e	e	n/a
386.284	0.09	772568	keystroke_Key.space	Key.space	n/a
386.449	0.18	772898	keystroke_d	d	n/a
386.659	0.075	773318	keystroke_e	e	n/a
386.885	0.105	773770	keystroke_l	l	n/a
387.109	0.0905	774218	keystroke_i	i	n/a
387.334	0.075	774668	keystroke_g	g	n/a
387.4845	0.105	774969	keystroke_h	h	n/a
387.6345	0.135	775269	keystroke_t	t	n/a
387.7385	0.121	775477	keystroke_Key.space	Key.space	n/a
388.2045	0.164	776409	keystroke_r	r	n/a
388.3395	0.149	776679	keystroke_e	e	n/a
388.6235	0.15	777247	keystroke_t	t	n/a
388.7895	0.1045	777579	keystroke_u	u	n/a
388.924	0.18	777848	keystroke_r	r	n/a
389.044	0.15	778088	keystroke_e	e	n/a
389.764	0.0605	779528	keystroke_Key.backspace	Key.backspace	n/a
389.899	0.06	779798	keystroke_Key.backspace	Key.backspace	n/a
390.004	0.075	780008	keystroke_Key.backspace	Key.backspace	n/a
390.2445	0.09	780489	keystroke_i	i	n/a
390.3645	0.165	780729	keystroke_r	r	n/a
390.4845	0.165	780969	keystroke_e	e	n/a
390.6645	0.09	781329	keystroke_m	m	n/a
390.8	0.1195	781600	keystroke_e	e	n/a
390.9045	0.09	781809	keystroke_n	n	n/a
390.9945	0.135	781989	keystroke_t	t	n/a
391.1595	0.09	782319	keystroke_Key.space	Key.space	n/a
392.0145	0.09	784029	keystroke_a	a	n/a
392.2845	0.075	784569	keystroke_c	c	n/a
392.434	0.105	784868	keystroke_c	c	n/a
393.1995	0.03	786399	keystroke_Key.backspace	Key.backspace	n/a
395.0145	0.1345	790029	keystroke_q	q	n/a
395.2095	0.0895	790419	keystroke_u	u	n/a
395.344	0.105	790688	keystroke_i	i	n/a
395.419	0.12	790838	keystroke_r	r	n/a
395.6445	0.119	791289	keystroke_e	e	n/a
395.7495	0.15	791499	keystroke_d	d	n/a
396.4385	0.105	792877	keystroke_Key.enter	Key.enter	n/a
396.5505	8.32	793101	prompt	n/a	breed denmark fitting assumed\n
397.2495	0.045	794499	keystroke_b	b	n/a
397.4145	0.105	794829	keystroke_r	r	n/a
397.625	0.164	795250	keystroke_e	e	n/a
398.014	0.12	796028	keystroke_e	e	n/a
398.284	0.1345	796568	keystroke_d	d	n/a
398.6135	0.15	797227	keystroke_Key.space	Key.space	n/a
399.0645	0.135	798129	keystroke_d	d	n/a
399.2145	0.119	798429	keystroke_e	e	n/a
399.3935	0.061	798787	keystroke_m	m	n/a
399.949	0.075	799898	keystroke_Key.backspace	Key.backspace	n/a
400.219	0.075	800438	keystroke_n	n	n/a
400.594	0.091	801188	keystroke_m	m	n/a
400.759	0.09	801518	keystroke_a	a	n/a
400.954	0.1355	801908	keystroke_r	r	n/a
401.134	0.135	802268	keystroke_k	k	n/a
401.284	0.135	802568	keystroke_Key.space	Key.space	n/a
401.5085	0.12	803017	keystroke_f	f	n/a
401.6435	0.075	803287	keystroke_i	i	n/a
401.8085	0.0905	803617	keystroke_t	t	n/a
401.9735	0.106	803947	keystroke_t	t	n/a
402.0635	0.09	804127	keystroke_i	i	n/a
402.2295	0.119	804459	keystroke_n	n	n/a
402.3335	0.106	804667	keystroke_g	g	n/a
402.4245	0.104	804849	keystroke_Key.space	Key.space	n/a
402.6335	0.091	805267	keystroke_a	a	n/a
402.874	0.0595	805748	keystroke_s	s	n/a
403.0095	0.105	806019	keystroke_s	s	n/a
403.0845	0.09	806169	keystroke_u	u	n/a
403.3245	0.089	806649	keystroke_m	m	n/a
403.4595	0.105	806919	keystroke_e	e	n/a
403.9985	0.1055	807997	keystroke_d	d	n/a
404.779	0.09	809558	keystroke_Key.enter	Key.enter	n/a
404.878	5.8275	809756	prompt	n/a	beth showtimes dominant ruth\n
405.559	0.12	811118	keystroke_b	b	n/a
405.664	0.091	811328	keystroke_e	e	n/a
405.889	0.091	811778	keystroke_t	t	n/a
405.994	0.12	811988	keystroke_h	h	n/a
406.129	0.0905	812258	keystroke_Key.space	Key.space	n/a
406.324	0.09	812648	keystroke_s	s	n/a
406.399	0.075	812798	keystroke_h	h	n/a
406.5945	0.105	813189	keystroke_o	o	n/a
406.6845	0.12	813369	keystroke_w	w	n/a
407.075	0.1045	814150	keystroke_t	t	n/a
407.1945	0.09	814389	keystroke_i	i	n/a
407.3885	0.106	814777	keystroke_m	m	n/a
407.495	0.089	814990	keystroke_e	e	n/a
407.719	0.091	815438	keystroke_s	s	n/a
407.794	0.0595	815588	keystroke_Key.space	Key.space	n/a
408.0185	0.12	816037	keystroke_d	d	n/a
408.0935	0.09	816187	keystroke_o	o	n/a
408.2895	0.089	816579	keystroke_m	m	n/a
408.4695	0.06	816939	keystroke_i	i	n/a
408.6195	0.089	817239	keystroke_n	n	n/a
408.7235	0.076	817447	keystroke_a	a	n/a
408.8285	0.106	817657	keystroke_n	n	n/a
408.9495	0.1195	817899	keystroke_t	t	n/a
409.0995	0.074	818199	keystroke_Key.space	Key.space	n/a
409.5945	0.075	819189	keystroke_r	r	n/a
409.7445	0.105	819489	keystroke_u	u	n/a
409.9095	0.1195	819819	keystroke_t	t	n/a
410.1945	0.105	820389	keystroke_h	h	n/a
410.5845	0.1195	821169	keystroke_Key.enter	Key.enter	n/a
410.7105	8.0525	821421	prompt	n/a	attacks undefined conservative wash\n
411.3645	0.074	822729	keystroke_a	a	n/a
411.5595	0.0745	823119	keystroke_t	t	n/a
411.694	0.105	823388	keystroke_t	t	n/a
411.919	0.105	823838	keystroke_a	a	n/a
412.054	0.136	824108	keystroke_c	c	n/a
412.2045	0.1045	824409	keystroke_k	k	n/a
412.354	0.105	824708	keystroke_s	s	n/a
412.399	0.12	824798	keystroke_Key.space	Key.space	n/a
413.419	0.0755	826838	keystroke_u	u	n/a
413.614	0.0905	827228	keystroke_n	n	n/a
413.719	0.135	827438	keystroke_d	d	n/a
413.8695	0.105	827739	keystroke_e	e	n/a
414.064	0.135	828128	keystroke_f	f	n/a
414.139	0.0905	828278	keystroke_i	i	n/a
414.3045	0.12	828609	keystroke_n	n	n/a
414.379	0.15	828758	keystroke_e	e	n/a
414.514	0.1945	829028	keystroke_d	d	n/a
414.6495	0.1195	829299	keystroke_Key.space	Key.space	n/a
415.309	0.091	830618	keystroke_c	c	n/a
415.355	0.089	830710	keystroke_o	o	n/a
415.534	0.1055	831068	keystroke_n	n	n/a
415.864	0.195	831728	keystroke_s	s	n/a
416.0295	0.1195	832059	keystroke_e	e	n/a
416.209	0.09	832418	keystroke_r	r	n/a
416.524	0.015	833048	keystroke_v	v	n/a
416.614	0.12	833228	keystroke_a	a	n/a
416.809	0.12	833618	keystroke_t	t	n/a
416.944	0.09	833888	keystroke_i	i	n/a
417.154	0.135	834308	keystroke_v	v	n/a
417.3045	0.135	834609	keystroke_e	e	n/a
417.334	0.135	834668	keystroke_Key.space	Key.space	n/a
417.83	0.1185	835660	keystroke_w	w	n/a
418.055	0.104	836110	keystroke_a	a	n/a
418.144	0.18	836288	keystroke_s	s	n/a
418.279	0.135	836558	keystroke_h	h	n/a
418.639	0.1205	837278	keystroke_Key.enter	Key.enter	n/a
418.7725	7.1735	837545	prompt	n/a	laboratory batman baker binding\n
419.3895	0.09	838779	keystroke_l	l	n/a
419.465	0.1035	838930	keystroke_a	a	n/a
419.9295	0.104	839859	keystroke_b	b	n/a
420.019	0.1055	840038	keystroke_o	o	n/a
420.2285	0.09	840457	keystroke_r	r	n/a
420.4395	0.0905	840879	keystroke_a	a	n/a
420.634	0.1205	841268	keystroke_t	t	n/a
420.7995	0.12	841599	keystroke_o	o	n/a
420.965	0.104	841930	keystroke_r	r	n/a
421.1135	0.1505	842227	keystroke_y	y	n/a
421.2785	0.1205	842557	keystroke_Key.space	Key.space	n/a
421.4595	0.119	842919	keystroke_b	b	n/a
421.609	0.0905	843218	keystroke_a	a	n/a
421.8035	0.1055	843607	keystroke_t	t	n/a
422.224	0.075	844448	keystroke_m	m	n/a
422.3595	0.0895	844719	keystroke_a	a	n/a
422.4345	0.1045	844869	keystroke_n	n	n/a
422.569	0.12	845138	keystroke_Key.space	Key.space	n/a
422.839	0.09	845678	keystroke_b	b	n/a
422.914	0.1205	845828	keystroke_a	a	n/a
423.1395	0.075	846279	keystroke_c	c	n/a
423.2595	0.0895	846519	keystroke_k	k	n/a
423.6335	0.0455	847267	keystroke_Key.backspace	Key.backspace	n/a
423.739	0.0745	847478	keystroke_Key.backspace	Key.backspace	n/a
423.9335	0.106	847867	keystroke_k	k	n/a
424.069	0.195	848138	keystroke_e	e	n/a
424.2035	0.1505	848407	keystroke_r	r	n/a
424.294	0.105	848588	keystroke_Key.space	Key.space	n/a
424.849	0.075	849698	keystroke_b	b	n/a
425.014	0.1055	850028	keystroke_i	i	n/a
425.1795	0.0895	850359	keystroke_n	n	n/a
425.254	0.106	850508	keystroke_d	d	n/a
425.375	0.0745	850750	keystroke_i	i	n/a
425.5095	0.0895	851019	keystroke_n	n	n/a
425.6135	0.091	851227	keystroke_g	g	n/a
425.8235	0.1205	851647	keystroke_Key.enter	Key.enter	n/a
425.9525	10.958	851905	prompt	n/a	adventures physically volunteer jump\n
426.6495	0.165	853299	keystroke_a	a	n/a
426.8445	0.105	853689	keystroke_d	d	n/a
427.2335	0.136	854467	keystroke_v	v	n/a
427.384	0.1355	854768	keystroke_e	e	n/a
427.4595	0.12	854919	keystroke_n	n	n/a
427.6845	0.135	855369	keystroke_t	t	n/a
427.8645	0.1195	855729	keystroke_u	u	n/a
427.9995	0.165	855999	keystroke_r	r	n/a
428.1195	0.105	856239	keystroke_e	e	n/a
428.3585	0.12	856717	keystroke_s	s	n/a
428.3885	0.135	856777	keystroke_Key.space	Key.space	n/a
429.1395	0.059	858279	keystroke_p	p	n/a
429.679	0.0895	859358	keystroke_j	j	n/a
429.9045	0.09	859809	keystroke_y	y	n/a
430.2935	0.045	860587	keystroke_Key.backspace	Key.backspace	n/a
430.4135	0.075	860827	keystroke_Key.backspace	Key.backspace	n/a
430.669	0.0895	861338	keystroke_h	h	n/a
430.8935	0.076	861787	keystroke_y	y	n/a
431.314	0.1345	862628	keystroke_s	s	n/a
431.434	0.0745	862868	keystroke_i	i	n/a
431.5695	0.089	863139	keystroke_c	c	n/a
431.7335	0.105	863467	keystroke_a	a	n/a
431.8995	0.075	863799	keystroke_l	l	n/a
432.049	0.075	864098	keystroke_l	l	n/a
432.2135	0.09	864427	keystroke_y	y	n/a
432.3335	0.121	864667	keystroke_Key.space	Key.space	n/a
432.6195	0.105	865239	keystroke_v	v	n/a
432.7085	0.076	865417	keystroke_o	o	n/a
432.9195	0.074	865839	keystroke_l	l	n/a
433.1295	0.075	866259	keystroke_u	u	n/a
433.804	0.06	867608	keystroke_n	n	n/a
433.9995	0.12	867999	keystroke_t	t	n/a
434.2395	0.105	868479	keystroke_e	e	n/a
434.4495	0.134	868899	keystroke_e	e	n/a
434.6135	0.121	869227	keystroke_r	r	n/a
434.764	0.12	869528	keystroke_Key.space	Key.space	n/a
435.139	0.09	870278	keystroke_j	j	n/a
435.394	0.12	870788	keystroke_u	u	n/a
435.6795	0.0895	871359	keystroke_m	m	n/a
436.069	0.06	872138	keystroke_p	p	n/a
436.834	0.075	873668	keystroke_Key.enter	Key.enter	n/a
436.9155	11.41	873831	prompt	n/a	bristol discovered comparable finish\n
437.584	0.076	875168	keystroke_b	b	n/a
437.704	0.1055	875408	keystroke_r	r	n/a
437.824	0.09	875648	keystroke_i	i	n/a
437.9745	0.089	875949	keystroke_s	s	n/a
438.4095	0.105	876819	keystroke_t	t	n/a
438.5295	0.0895	877059	keystroke_o	o	n/a
438.7245	0.105	877449	keystroke_l	l	n/a
438.8745	0.1195	877749	keystroke_Key.space	Key.space	n/a
439.0245	0.12	878049	keystroke_d	d	n/a
439.1295	0.09	878259	keystroke_i	i	n/a
439.264	0.105	878528	keystroke_s	s	n/a
440.269	0.1195	880538	keystroke_c	c	n/a
440.404	0.0755	880808	keystroke_p	p	n/a
440.5245	0.119	881049	keystroke_v	v	n/a
440.6735	0.1805	881347	keystroke_e	e	n/a
440.809	0.18	881618	keystroke_r	r	n/a
440.974	0.195	881948	keystroke_e	e	n/a
441.3195	0.0445	882639	keystroke_Key.backspace	Key.backspace	n/a
441.4685	0.0455	882937	keystroke_Key.backspace	Key.backspace	n/a
441.6035	0.045	883207	keystroke_Key.backspace	Key.backspace	n/a
441.7235	0.06	883447	keystroke_Key.backspace	Key.backspace	n/a
441.859	0.0605	883718	keystroke_Key.backspace	Key.backspace	n/a
442.0085	0.0605	884017	keystroke_Key.backspace	Key.backspace	n/a
442.774	0.0905	885548	keystroke_c	c	n/a
442.834	0.1055	885668	keystroke_o	o	n/a
442.9995	0.12	885999	keystroke_v	v	n/a
443.1645	0.1495	886329	keystroke_e	e	n/a
443.3445	0.2095	886689	keystroke_r	r	n/a
443.57	0.179	887140	keystroke_e	e	n/a
443.9885	0.135	887977	keystroke_d	d	n/a
444.1835	0.121	888367	keystroke_Key.space	Key.space	n/a
444.4695	0.12	888939	keystroke_c	c	n/a
444.5435	0.09	889087	keystroke_o	o	n/a
444.7235	0.0755	889447	keystroke_m	m	n/a
445.099	0.105	890198	keystroke_p	p	n/a
445.264	0.105	890528	keystroke_a	a	n/a
445.489	0.09	890978	keystroke_r	r	n/a
445.714	0.106	891428	keystroke_a	a	n/a
445.9545	0.0745	891909	keystroke_b	b	n/a
446.164	0.105	892328	keystroke_l	l	n/a
446.254	0.12	892508	keystroke_e	e	n/a
446.314	0.15	892628	keystroke_Key.space	Key.space	n/a
447.169	0.1055	894338	keystroke_f	f	n/a
447.244	0.09	894488	keystroke_i	i	n/a
447.559	0.075	895118	keystroke_n	n	n/a
447.694	0.105	895388	keystroke_i	i	n/a
447.814	0.12	895628	keystroke_s	s	n/a
447.904	0.075	895808	keystroke_h	h	n/a
448.189	0.135	896378	keystroke_Key.enter	Key.enter	n/a
448.331	8.4545	896662	prompt	n/a	stage significant consultant superb\n
448.9395	0.105	897879	keystroke_s	s	n/a
449.2235	0.12	898447	keystroke_t	t	n/a
449.3895	0.105	898779	keystroke_a	a	n/a
449.4785	0.121	898957	keystroke_g	g	n/a
449.6145	0.135	899229	keystroke_e	e	n/a
449.7345	0.1495	899469	keystroke_Key.space	Key.space	n/a
450.2735	0.105	900547	keystroke_s	s	n/a
450.319	0.1055	900638	keystroke_i	i	n/a
450.4845	0.12	900969	keystroke_g	g	n/a
450.6195	0.075	901239	keystroke_n	n	n/a
450.874	0.105	901748	keystroke_i	i	n/a
451.2795	0.135	902559	keystroke_f	f	n/a
451.5185	0.045	903037	keystroke_i	i	n/a
451.7595	0.089	903519	keystroke_c	c	n/a
451.954	0.0455	903908	keystroke_a	a	n/a
451.9835	0.076	903967	keystroke_n	n	n/a
452.1945	0.105	904389	keystroke_t	t	n/a
452.3135	0.09	904627	keystroke_Key.space	Key.space	n/a
452.51	0.104	905020	keystroke_s	s	n/a
453.019	0.075	906038	keystroke_Key.backspace	Key.backspace	n/a
453.124	0.12	906248	keystroke_c	c	n/a
453.2595	0.075	906519	keystroke_o	o	n/a
453.454	0.075	906908	keystroke_n	n	n/a
453.559	0.12	907118	keystroke_s	s	n/a
453.6645	0.0745	907329	keystroke_u	u	n/a
453.874	0.12	907748	keystroke_l	l	n/a
454.0095	0.09	908019	keystroke_t	t	n/a
454.279	0.0905	908558	keystroke_a	a	n/a
454.3545	0.09	908709	keystroke_n	n	n/a
454.5345	0.1495	909069	keystroke_t	t	n/a
454.669	0.105	909338	keystroke_Key.space	Key.space	n/a
454.999	0.12	909998	keystroke_s	s	n/a
455.104	0.075	910208	keystroke_u	u	n/a
455.7795	0.1045	911559	keystroke_p	p	n/a
455.959	0.225	911918	keystroke_e	e	n/a
456.1395	0.1795	912279	keystroke_r	r	n/a
456.379	0.106	912758	keystroke_b	b	n/a
456.649	0.135	913298	keystroke_Key.enter	Key.enter	n/a
456.794	11.9015	913588	prompt	n/a	printer tuition mesa evaluating\n
457.429	0.0755	914858	keystroke_p	p	n/a
458.224	0.075	916448	keystroke_r	r	n/a
458.329	0.0755	916658	keystroke_i	i	n/a
458.4945	0.119	916989	keystroke_n	n	n/a
458.5985	0.09	917197	keystroke_t	t	n/a
458.989	0.0745	917978	keystroke_Key.backspace	Key.backspace	n/a
459.6635	0.1205	919327	keystroke_t	t	n/a
459.859	0.165	919718	keystroke_e	e	n/a
459.9645	0.1495	919929	keystroke_r	r	n/a
460.069	0.105	920138	keystroke_Key.space	Key.space	n/a
460.264	0.075	920528	keystroke_t	t	n/a
460.354	0.075	920708	keystroke_u	u	n/a
460.534	0.075	921068	keystroke_i	i	n/a
460.654	0.121	921308	keystroke_t	t	n/a
460.76	0.0745	921520	keystroke_i	i	n/a
460.939	0.0755	921878	keystroke_o	o	n/a
461.119	0.105	922238	keystroke_n	n	n/a
461.194	0.12	922388	keystroke_Key.space	Key.space	n/a
461.389	0.09	922778	keystroke_m	m	n/a
461.494	0.09	922988	keystroke_e	e	n/a
461.734	0.06	923468	keystroke_s	s	n/a
461.929	0.045	923858	keystroke_a	a	n/a
461.989	0.0905	923978	keystroke_Key.space	Key.space	n/a
462.274	0.0905	924548	keystroke_e	e	n/a
462.5745	0.12	925149	keystroke_c	c	n/a
463.0545	0.075	926109	keystroke_Key.backspace	Key.backspace	n/a
463.1445	0.105	926289	keystroke_v	v	n/a
463.6395	0.09	927279	keystroke_a	a	n/a
463.9535	0.09	927907	keystroke_l	l	n/a
464.2845	0.105	928569	keystroke_a	a	n/a
464.614	0.0745	929228	keystroke_Key.backspace	Key.backspace	n/a
464.8695	0.089	929739	keystroke_u	u	n/a
464.9735	0.0755	929947	keystroke_a	a	n/a
465.1995	0.1045	930399	keystroke_t	t	n/a
465.5145	0.0595	931029	keystroke_i	i	n/a
465.6645	0.0895	931329	keystroke_o	o	n/a
465.9045	0.0745	931809	keystroke_n	n	n/a
466.4585	0.075	932917	keystroke_g	g	n/a
466.7435	0.046	933487	keystroke_Key.backspace	Key.backspace	n/a
466.8785	0.06	933757	keystroke_Key.backspace	Key.backspace	n/a
467.029	0.0445	934058	keystroke_Key.backspace	Key.backspace	n/a
467.254	0.0455	934508	keystroke_n	n	n/a
467.2845	0.12	934569	keystroke_g	g	n/a
468.574	0.1195	937148	keystroke_Key.enter	Key.enter	n/a
468.702	6.4135	937404	prompt	n/a	task randy he karaoke\n
469.9235	0.1055	939847	keystroke_t	t	n/a
470.1485	0.211	940297	keystroke_a	a	n/a
470.315	0.1635	940630	keystroke_s	s	n/a
470.3895	0.12	940779	keystroke_k	k	n/a
470.539	0.165	941078	keystroke_Key.space	Key.space	n/a
470.9745	0.1045	941949	keystroke_r	r	n/a
471.1845	0.119	942369	keystroke_a	a	n/a
471.2445	0.105	942489	keystroke_n	n	n/a
471.3495	0.149	942699	keystroke_d	d	n/a
471.4995	0.134	942999	keystroke_y	y	n/a
471.6185	0.135	943237	keystroke_Key.space	Key.space	n/a
472.114	0.075	944228	keystroke_h	h	n/a
472.204	0.15	944408	keystroke_e	e	n/a
472.339	0.12	944678	keystroke_Key.space	Key.space	n/a
473.2985	0.06	946597	keystroke_k	k	n/a
473.3735	0.121	946747	keystroke_a	a	n/a
473.989	0.09	947978	keystroke_r	r	n/a
474.199	0.105	948398	keystroke_a	a	n/a
474.394	0.075	948788	keystroke_o	o	n/a
474.649	0.075	949298	keystroke_k	k	n/a
474.739	0.1205	949478	keystroke_e	e	n/a
474.9785	0.135	949957	keystroke_Key.enter	Key.enter	n/a
475.1205	10.2555	950241	prompt	n/a	disturbed academic fought shortly\n
475.834	0.1195	951668	keystroke_d	d	n/a
475.9245	0.104	951849	keystroke_i	i	n/a
476.0745	0.104	952149	keystroke_s	s	n/a
476.2385	0.121	952477	keystroke_t	t	n/a
476.5535	0.106	953107	keystroke_u	u	n/a
476.7185	0.075	953437	keystroke_r	r	n/a
476.854	0.045	953708	keystroke_n	n	n/a
477.274	0.075	954548	keystroke_Key.backspace	Key.backspace	n/a
477.574	0.045	955148	keystroke_b	b	n/a
477.664	0.135	955328	keystroke_e	e	n/a
477.769	0.165	955538	keystroke_d	d	n/a
477.889	0.135	955778	keystroke_Key.space	Key.space	n/a
478.5495	0.1045	957099	keystroke_a	a	n/a
478.714	0.1355	957428	keystroke_c	c	n/a
478.9085	0.1205	957817	keystroke_a	a	n/a
479.1335	0.1205	958267	keystroke_d	d	n/a
479.2985	0.105	958597	keystroke_e	e	n/a
479.8095	0.0895	959619	keystroke_m	m	n/a
480.004	0.09	960008	keystroke_i	i	n/a
480.109	0.105	960218	keystroke_c	c	n/a
480.229	0.075	960458	keystroke_Key.space	Key.space	n/a
480.499	0.105	960998	keystroke_f	f	n/a
480.829	0.075	961658	keystroke_o	o	n/a
481.054	0.045	962108	keystroke_u	u	n/a
482.299	0.075	964598	keystroke_g	g	n/a
482.42	0.104	964840	keystroke_h	h	n/a
482.5835	0.091	965167	keystroke_t	t	n/a
482.6135	0.15	965227	keystroke_Key.space	Key.space	n/a
483.9335	0.121	967867	keystroke_s	s	n/a
484.0385	0.075	968077	keystroke_h	h	n/a
484.204	0.105	968408	keystroke_o	o	n/a
484.279	0.09	968558	keystroke_r	r	n/a
484.474	0.1055	968948	keystroke_t	t	n/a
484.7135	0.1205	969427	keystroke_l	l	n/a
484.849	0.075	969698	keystroke_y	y	n/a
485.254	0.12	970508	keystroke_Key.enter	Key.enter	n/a
485.382	8.544	970764	prompt	n/a	portland vast launched corner\n
485.9595	0.104	971919	keystroke_p	p	n/a
486.169	0.0445	972338	keystroke_r	r	n/a
486.3185	0.06	972637	keystroke_o	o	n/a
486.679	0.0445	973358	keystroke_Key.backspace	Key.backspace	n/a
486.7985	0.06	973597	keystroke_Key.backspace	Key.backspace	n/a
486.9795	0.09	973959	keystroke_o	o	n/a
487.0545	0.105	974109	keystroke_r	r	n/a
487.2635	0.09	974527	keystroke_t	t	n/a
488.404	0.09	976808	keystroke_l	l	n/a
488.539	0.135	977078	keystroke_a	a	n/a
488.689	0.075	977378	keystroke_n	n	n/a
488.734	0.15	977468	keystroke_d	d	n/a
488.869	0.075	977738	keystroke_Key.space	Key.space	n/a
489.169	0.105	978338	keystroke_v	v	n/a
489.424	0.075	978848	keystroke_a	a	n/a
489.7095	0.1195	979419	keystroke_s	s	n/a
489.919	0.12	979838	keystroke_t	t	n/a
490.024	0.105	980048	keystroke_Key.space	Key.space	n/a
491.104	0.15	982208	keystroke_l	l	n/a
491.284	0.135	982568	keystroke_a	a	n/a
491.449	0.091	982898	keystroke_u	u	n/a
491.674	0.09	983348	keystroke_n	n	n/a
491.869	0.06	983738	keystroke_c	c	n/a
491.914	0.09	983828	keystroke_h	h	n/a
492.109	0.1355	984218	keystroke_e	e	n/a
492.2145	0.1495	984429	keystroke_d	d	n/a
492.304	0.12	984608	keystroke_Key.space	Key.space	n/a
492.859	0.09	985718	keystroke_c	c	n/a
492.919	0.075	985838	keystroke_o	o	n/a
493.159	0.12	986318	keystroke_r	r	n/a
493.264	0.09	986528	keystroke_n	n	n/a
493.4735	0.106	986947	keystroke_e	e	n/a
493.6545	0.134	987309	keystroke_r	r	n/a
493.8035	0.1205	987607	keystroke_Key.enter	Key.enter	n/a
493.9325	14.4845	987865	prompt	n/a	mortgage distributor bhutan reservations\n
494.734	0.06	989468	keystroke_m	m	n/a
495.199	0.12	990398	keystroke_o	o	n/a
495.3195	0.119	990639	keystroke_r	r	n/a
495.5735	0.1055	991147	keystroke_t	t	n/a
496.0085	0.135	992017	keystroke_a	a	n/a
496.129	0.0745	992258	keystroke_g	g	n/a
496.3235	0.09	992647	keystroke_e	e	n/a
496.6845	0.045	993369	keystroke_Key.backspace	Key.backspace	n/a
496.8045	0.0585	993609	keystroke_Key.backspace	Key.backspace	n/a
496.924	0.0745	993848	keystroke_Key.backspace	Key.backspace	n/a
497.5995	0.104	995199	keystroke_g	g	n/a
497.6885	0.09	995377	keystroke_a	a	n/a
497.824	0.105	995648	keystroke_g	g	n/a
497.899	0.105	995798	keystroke_e	e	n/a
498.2135	0.1355	996427	keystroke_Key.space	Key.space	n/a
498.8135	0.1205	997627	keystroke_d	d	n/a
498.9185	0.1055	997837	keystroke_i	i	n/a
499.0695	0.119	998139	keystroke_s	s	n/a
499.2485	0.135	998497	keystroke_t	t	n/a
499.594	0.029	999188	keystroke_r	r	n/a
499.609	0.0755	999218	keystroke_i	i	n/a
499.939	0.075	999878	keystroke_b	b	n/a
500.269	0.105	1000538	keystroke_u	u	n/a
500.404	0.1195	1000808	keystroke_t	t	n/a
500.5395	0.044	1001079	keystroke_i	i	n/a
500.8385	0.0455	1001677	keystroke_Key.backspace	Key.backspace	n/a
501.0045	0.1045	1002009	keystroke_o	o	n/a
501.094	0.105	1002188	keystroke_r	r	n/a
501.2585	0.105	1002517	keystroke_Key.space	Key.space	n/a
503.104	0.1045	1006208	keystroke_b	b	n/a
503.4495	0.045	1006899	keystroke_h	h	n/a
503.974	0.1055	1007948	keystroke_u	u	n/a
504.3935	0.106	1008787	keystroke_t	t	n/a
504.6495	0.149	1009299	keystroke_a	a	n/a
504.7695	0.104	1009539	keystroke_n	n	n/a
504.8745	0.119	1009749	keystroke_Key.space	Key.space	n/a
505.1885	0.181	1010377	keystroke_r	r	n/a
505.324	0.15	1010648	keystroke_e	e	n/a
505.6235	0.1805	1011247	keystroke_s	s	n/a
505.759	0.1495	1011518	keystroke_e	e	n/a
505.954	0.12	1011908	keystroke_r	r	n/a
506.164	0.135	1012328	keystroke_v	v	n/a
506.404	0.12	1012808	keystroke_a	a	n/a
506.614	0.135	1013228	keystroke_t	t	n/a
506.719	0.12	1013438	keystroke_i	i	n/a
506.854	0.1355	1013708	keystroke_o	o	n/a
507.049	0.1055	1014098	keystroke_n	n	n/a
507.124	0.12	1014248	keystroke_s	s	n/a
508.2785	0.135	1016557	keystroke_Key.enter	Key.enter	n/a
508.4265	18.0485	1016853	prompt	n/a	glasses delivered cedar isolated\n
509.2535	0.12	1018507	keystroke_g	g	n/a
509.389	0.09	1018778	keystroke_l	l	n/a
509.539	0.075	1019078	keystroke_a	a	n/a
509.7345	0.074	1019469	keystroke_s	s	n/a
509.899	0.18	1019798	keystroke_s	s	n/a
510.064	0.15	1020128	keystroke_e	e	n/a
510.229	0.1505	1020458	keystroke_s	s	n/a
510.334	0.15	1020668	keystroke_Key.space	Key.space	n/a
510.589	0.135	1021178	keystroke_f	f	n/a
511.069	0.09	1022138	keystroke_Key.backspace	Key.backspace	n/a
511.144	0.1355	1022288	keystroke_d	d	n/a
511.28	0.119	1022560	keystroke_e	e	n/a
511.3545	0.105	1022709	keystroke_l	l	n/a
511.5945	0.0895	1023189	keystroke_i	i	n/a
511.669	0.12	1023338	keystroke_e	e	n/a
511.879	0.165	1023758	keystroke_v	v	n/a
512.059	0.21	1024118	keystroke_e	e	n/a
512.209	0.1955	1024418	keystroke_r	r	n/a
512.554	0.135	1025108	keystroke_e	e	n/a
512.674	0.165	1025348	keystroke_d	d	n/a
512.794	0.105	1025588	keystroke_Key.space	Key.space	n/a
513.634	0.09	1027268	keystroke_c	c	n/a
513.799	0.135	1027598	keystroke_e	e	n/a
514.3085	0.06	1028617	keystroke_g	g	n/a
514.5195	0.1045	1029039	keystroke_a	a	n/a
514.6985	0.076	1029397	keystroke_r	r	n/a
514.909	0.0445	1029818	keystroke_Key.backspace	Key.backspace	n/a
515.0435	0.06	1030087	keystroke_Key.backspace	Key.backspace	n/a
515.1635	0.0755	1030327	keystroke_Key.backspace	Key.backspace	n/a
515.2835	0.1055	1030567	keystroke_d	d	n/a
515.494	0.0905	1030988	keystroke_a	a	n/a
515.6745	0.1345	1031349	keystroke_r	r	n/a
515.913	0.121	1031826	keystroke_Key.space	Key.space	n/a
517.9835	0.0755	1035967	keystroke_Key.left	Key.left	n/a
518.179	0.0445	1036358	keystroke_Key.left	Key.left	n/a
518.3135	0.0605	1036627	keystroke_Key.left	Key.left	n/a
518.479	0.045	1036958	keystroke_Key.left	Key.left	n/a
518.629	0.06	1037258	keystroke_Key.left	Key.left	n/a
518.7785	0.0605	1037557	keystroke_Key.left	Key.left	n/a
518.929	0.06	1037858	keystroke_Key.left	Key.left	n/a
519.079	0.075	1038158	keystroke_Key.left	Key.left	n/a
519.229	0.075	1038458	keystroke_Key.left	Key.left	n/a
519.378	0.076	1038756	keystroke_Key.left	Key.left	n/a
519.543	0.076	1039086	keystroke_Key.left	Key.left	n/a
519.694	0.075	1039388	keystroke_Key.left	Key.left	n/a
520.2035	0.105	1040407	keystroke_Key.backspace	Key.backspace	n/a
520.8485	0.045	1041697	keystroke_Key.right	Key.right	n/a
521.0135	0.045	1042027	keystroke_Key.right	Key.right	n/a
521.1785	0.045	1042357	keystroke_Key.right	Key.right	n/a
521.3285	0.061	1042657	keystroke_Key.right	Key.right	n/a
521.4935	0.045	1042987	keystroke_Key.right	Key.right	n/a
521.6735	0.06	1043347	keystroke_Key.right	Key.right	n/a
521.8385	0.075	1043677	keystroke_Key.right	Key.right	n/a
522.0035	0.075	1044007	keystroke_Key.right	Key.right	n/a
522.1685	0.0755	1044337	keystroke_Key.right	Key.right	n/a
522.349	0.075	1044698	keystroke_Key.right	Key.right	n/a
522.5145	0.0745	1045029	keystroke_Key.right	Key.right	n/a
523.849	0.18	1047698	keystroke_Key.space	Key.space	n/a
524.824	0.0745	1049648	keystroke_i	i	n/a
525.0185	0.0755	1050037	keystroke_s	s	n/a
525.1385	0.0755	1050277	keystroke_o	o	n/a
525.319	0.09	1050638	keystroke_l	l	n/a
525.364	0.0745	1050728	keystroke_a	a	n/a
525.5735	0.1055	1051147	keystroke_t	t	n/a
525.7985	0.1505	1051597	keystroke_e	e	n/a
525.9185	0.1355	1051837	keystroke_d	d	n/a
526.3835	0.09	1052767	keystroke_Key.enter	Key.enter	n/a
526.4785	7.542	1052957	prompt	n/a	touched exact wesley mercury\n
527.119	0.105	1054238	keystroke_t	t	n/a
527.254	0.075	1054508	keystroke_o	o	n/a
527.464	0.105	1054928	keystroke_u	u	n/a
527.554	0.135	1055108	keystroke_c	c	n/a
527.719	0.105	1055438	keystroke_h	h	n/a
527.7795	0.1645	1055559	keystroke_e	e	n/a
527.884	0.1655	1055768	keystroke_d	d	n/a
527.989	0.135	1055978	keystroke_Key.space	Key.space	n/a
528.694	0.09	1057388	keystroke_e	e	n/a
528.934	0.075	1057868	keystroke_x	x	n/a
529.084	0.15	1058168	keystroke_a	a	n/a
529.339	0.1195	1058678	keystroke_c	c	n/a
529.5495	0.134	1059099	keystroke_t	t	n/a
529.7285	0.12	1059457	keystroke_Key.space	Key.space	n/a
530.3285	0.151	1060657	keystroke_w	w	n/a
530.4345	0.134	1060869	keystroke_e	e	n/a
530.7185	0.12	1061437	keystroke_s	s	n/a
530.8395	0.089	1061679	keystroke_l	l	n/a
531.0485	0.12	1062097	keystroke_e	e	n/a
531.1985	0.135	1062397	keystroke_y	y	n/a
531.3485	0.1205	1062697	keystroke_Key.space	Key.space	n/a
532.0835	0.0755	1064167	keystroke_m	m	n/a
532.189	0.165	1064378	keystroke_e	e	n/a
532.3235	0.121	1064647	keystroke_r	r	n/a
532.594	0.075	1065188	keystroke_c	c	n/a
532.6385	0.105	1065277	keystroke_u	u	n/a
532.8785	0.15	1065757	keystroke_r	r	n/a
532.9695	0.1345	1065939	keystroke_y	y	n/a
533.944	0.0745	1067888	keystroke_Key.enter	Key.enter	n/a
534.0295	9.051	1068059	prompt	n/a	thee template trash reveal\n
534.724	0.105	1069448	keystroke_t	t	n/a
534.859	0.09	1069718	keystroke_h	h	n/a
535.009	0.06	1070018	keystroke_e	e	n/a
535.159	0.105	1070318	keystroke_e	e	n/a
535.249	0.12	1070498	keystroke_Key.space	Key.space	n/a
535.8785	0.121	1071757	keystroke_t	t	n/a
536.074	0.135	1072148	keystroke_e	e	n/a
536.164	0.0745	1072328	keystroke_m	m	n/a
536.3435	0.0905	1072687	keystroke_p	p	n/a
536.494	0.1055	1072988	keystroke_l	l	n/a
536.5835	0.09	1073167	keystroke_e	e	n/a
536.719	0.1345	1073438	keystroke_t	t	n/a
536.9285	0.1355	1073857	keystroke_e	e	n/a
537.1985	0.03	1074397	keystroke_Key.backspace	Key.backspace	n/a
537.3035	0.09	1074607	keystroke_Key.backspace	Key.backspace	n/a
537.439	0.074	1074878	keystroke_Key.backspace	Key.backspace	n/a
537.544	0.09	1075088	keystroke_a	a	n/a
537.784	0.075	1075568	keystroke_l	l	n/a
537.934	0.105	1075868	keystroke_t	t	n/a
538.174	0.045	1076348	keystroke_Key.backspace	Key.backspace	n/a
538.293	0.0905	1076586	keystroke_Key.backspace	Key.backspace	n/a
538.353	0.1655	1076706	keystroke_t	t	n/a
538.5335	0.105	1077067	keystroke_e	e	n/a
538.6235	0.121	1077247	keystroke_Key.space	Key.space	n/a
539.314	0.075	1078628	keystroke_t	t	n/a
539.704	0.045	1079408	keystroke_e	e	n/a
540.079	0.09	1080158	keystroke_Key.backspace	Key.backspace	n/a
540.154	0.105	1080308	keystroke_r	r	n/a
540.3645	0.134	1080729	keystroke_a	a	n/a
540.6185	0.105	1081237	keystroke_s	s	n/a
540.679	0.0745	1081358	keystroke_h	h	n/a
540.7685	0.135	1081537	keystroke_Key.space	Key.space	n/a
541.4435	0.1655	1082887	keystroke_r	r	n/a
541.5935	0.136	1083187	keystroke_e	e	n/a
541.7895	0.15	1083579	keystroke_v	v	n/a
541.9245	0.164	1083849	keystroke_e	e	n/a
542.449	0.1045	1084898	keystroke_a	a	n/a
542.5385	0.0905	1085077	keystroke_l	l	n/a
542.944	0.135	1085888	keystroke_Key.enter	Key.enter	n/a
543.085	9.94	1086170	prompt	n/a	tags artwork indexed factor\n
544.144	0.105	1088288	keystroke_t	t	n/a
544.4285	0.1205	1088857	keystroke_a	a	n/a
544.6095	0.1345	1089219	keystroke_g	g	n/a
544.8485	0.12	1089697	keystroke_s	s	n/a
544.9085	0.15	1089817	keystroke_Key.space	Key.space	n/a
545.7035	0.105	1091407	keystroke_a	a	n/a
545.8985	0.105	1091797	keystroke_r	r	n/a
546.0945	0.104	1092189	keystroke_t	t	n/a
546.4095	0.104	1092819	keystroke_w	w	n/a
546.5145	0.089	1093029	keystroke_o	o	n/a
546.6035	0.1505	1093207	keystroke_r	r	n/a
546.724	0.105	1093448	keystroke_k	k	n/a
546.873	0.106	1093746	keystroke_Key.space	Key.space	n/a
547.039	0.09	1094078	keystroke_i	i	n/a
547.219	0.1195	1094438	keystroke_n	n	n/a
547.8035	0.1055	1095607	keystroke_d	d	n/a
547.9835	0.105	1095967	keystroke_e	e	n/a
548.509	0.09	1097018	keystroke_x	x	n/a
548.734	0.18	1097468	keystroke_e	e	n/a
548.899	0.18	1097798	keystroke_d	d	n/a
549.109	0.09	1098218	keystroke_Key.space	Key.space	n/a
549.4095	0.0895	1098819	keystroke_f	f	n/a
549.5895	0.0895	1099179	keystroke_a	a	n/a
549.889	0.015	1099778	keystroke_c	c	n/a
549.979	0.045	1099958	keystroke_r	r	n/a
550.039	0.015	1100078	keystroke_r	r	n/a
550.4885	0.0595	1100977	keystroke_Key.backspace	Key.backspace	n/a
550.699	0.105	1101398	keystroke_t	t	n/a
550.834	0.075	1101668	keystroke_o	o	n/a
551.119	0.0445	1102238	keystroke_Key.backspace	Key.backspace	n/a
551.239	0.0745	1102478	keystroke_Key.backspace	Key.backspace	n/a
551.674	0.09	1103348	keystroke_Key.backspace	Key.backspace	n/a
551.809	0.12	1103618	keystroke_t	t	n/a
551.944	0.075	1103888	keystroke_o	o	n/a
552.064	0.135	1104128	keystroke_r	r	n/a
552.9485	0.075	1105897	keystroke_Key.enter	Key.enter	n/a
553.031	10.256	1106062	prompt	n/a	conversion qualifying passport claim\n
553.729	0.0895	1107458	keystroke_c	c	n/a
553.864	0.1055	1107728	keystroke_o	o	n/a
554.089	0.09	1108178	keystroke_n	n	n/a
554.149	0.12	1108298	keystroke_v	v	n/a
554.298	0.181	1108596	keystroke_e	e	n/a
554.434	0.135	1108868	keystroke_r	r	n/a
554.674	0.09	1109348	keystroke_s	s	n/a
554.704	0.09	1109408	keystroke_i	i	n/a
554.869	0.09	1109738	keystroke_o	o	n/a
555.034	0.1045	1110068	keystroke_n	n	n/a
555.1535	0.1055	1110307	keystroke_Key.space	Key.space	n/a
555.334	0.1345	1110668	keystroke_q	q	n/a
555.4695	0.0745	1110939	keystroke_u	u	n/a
555.679	0.09	1111358	keystroke_a	a	n/a
555.799	0.09	1111598	keystroke_l	l	n/a
555.949	0.12	1111898	keystroke_i	i	n/a
556.234	0.09	1112468	keystroke_f	f	n/a
556.52	0.074	1113040	keystroke_y	y	n/a
556.714	0.074	1113428	keystroke_i	i	n/a
556.878	0.106	1113756	keystroke_n	n	n/a
556.969	0.12	1113938	keystroke_g	g	n/a
557.014	0.12	1114028	keystroke_Key.space	Key.space	n/a
557.224	0.0905	1114448	keystroke_p	p	n/a
557.2995	0.0885	1114599	keystroke_a	a	n/a
557.5085	0.0605	1115017	keystroke_s	s	n/a
557.6595	0.0745	1115319	keystroke_s	s	n/a
558.0645	0.074	1116129	keystroke_p	p	n/a
558.244	0.0745	1116488	keystroke_o	o	n/a
558.304	0.09	1116608	keystroke_r	r	n/a
558.529	0.0895	1117058	keystroke_t	t	n/a
558.664	0.1195	1117328	keystroke_Key.space	Key.space	n/a
560.703	0.135	1121406	keystroke_c	c	n/a
561.034	0.0905	1122068	keystroke_l	l	n/a
561.258	0.121	1122516	keystroke_a	a	n/a
561.394	0.075	1122788	keystroke_i	i	n/a
561.619	0.1045	1123238	keystroke_m	m	n/a
563.1635	0.12	1126327	keystroke_Key.enter	Key.enter	n/a
563.2965	9.049	1126593	prompt	n/a	ecology printable array cabinets\n
563.9735	0.075	1127947	keystroke_e	e	n/a
564.1685	0.135	1128337	keystroke_c	c	n/a
564.2585	0.09	1128517	keystroke_o	o	n/a
564.664	0.0595	1129328	keystroke_l	l	n/a
564.8135	0.09	1129627	keystroke_o	o	n/a
565.0245	0.119	1130049	keystroke_g	g	n/a
565.264	0.12	1130528	keystroke_y	y	n/a
565.369	0.195	1130738	keystroke_Key.space	Key.space	n/a
566.149	0.09	1132298	keystroke_o	o	n/a
566.2535	0.151	1132507	keystroke_r	r	n/a
566.4195	0.03	1132839	keystroke_i	i	n/a
566.524	0.09	1133048	keystroke_n	n	n/a
566.899	0.0445	1133798	keystroke_Key.backspace	Key.backspace	n/a
567.0485	0.03	1134097	keystroke_Key.backspace	Key.backspace	n/a
567.1685	0.0455	1134337	keystroke_Key.backspace	Key.backspace	n/a
567.2885	0.075	1134577	keystroke_Key.backspace	Key.backspace	n/a
567.574	0.045	1135148	keystroke_p	p	n/a
567.948	0.076	1135896	keystroke_i	i	n/a
568.248	0.076	1136496	keystroke_Key.backspace	Key.backspace	n/a
568.3535	0.12	1136707	keystroke_r	r	n/a
568.5185	0.075	1137037	keystroke_i	i	n/a
568.6685	0.1055	1137337	keystroke_n	n	n/a
568.8185	0.0905	1137637	keystroke_t	t	n/a
569.074	0.12	1138148	keystroke_a	a	n/a
569.209	0.074	1138418	keystroke_b	b	n/a
569.419	0.1195	1138838	keystroke_l	l	n/a
569.554	0.09	1139108	keystroke_e	e	n/a
569.599	0.1195	1139198	keystroke_Key.space	Key.space	n/a
569.914	0.09	1139828	keystroke_a	a	n/a
570.124	0.075	1140248	keystroke_r	r	n/a
570.259	0.074	1140518	keystroke_r	r	n/a
570.469	0.12	1140938	keystroke_a	a	n/a
570.5585	0.15	1141117	keystroke_y	y	n/a
570.6935	0.1195	1141387	keystroke_Key.space	Key.space	n/a
570.904	0.105	1141808	keystroke_c	c	n/a
571.039	0.15	1142078	keystroke_a	a	n/a
571.264	0.089	1142528	keystroke_b	b	n/a
571.429	0.104	1142858	keystroke_i	i	n/a
571.624	0.105	1143248	keystroke_n	n	n/a
571.744	0.135	1143488	keystroke_e	e	n/a
571.908	0.12	1143816	keystroke_t	t	n/a
572.164	0.105	1144328	keystroke_s	s	n/a
572.254	0.09	1144508	keystroke_Key.enter	Key.enter	n/a
572.352	14.577	1144704	prompt	n/a	activities spirits presentations breakfast\n
573.0335	0.09	1146067	keystroke_a	a	n/a
573.229	0.0895	1146458	keystroke_c	c	n/a
573.439	0.06	1146878	keystroke_t	t	n/a
573.484	0.12	1146968	keystroke_i	i	n/a
573.7395	0.1195	1147479	keystroke_v	v	n/a
573.874	0.075	1147748	keystroke_i	i	n/a
574.068	0.136	1148136	keystroke_t	t	n/a
574.3235	0.12	1148647	keystroke_i	i	n/a
574.459	0.09	1148918	keystroke_e	e	n/a
574.639	0.12	1149278	keystroke_s	s	n/a
575.0435	0.0905	1150087	keystroke_Key.space	Key.space	n/a
575.2985	0.12	1150597	keystroke_s	s	n/a
575.3885	0.0745	1150777	keystroke_p	p	n/a
575.584	0.0905	1151168	keystroke_i	i	n/a
575.7185	0.091	1151437	keystroke_r	r	n/a
576.3785	0.1055	1152757	keystroke_Key.backspace	Key.backspace	n/a
576.814	0.075	1153628	keystroke_r	r	n/a
577.234	0.06	1154468	keystroke_i	i	n/a
577.3835	0.0905	1154767	keystroke_t	t	n/a
578.1785	0.105	1156357	keystroke_s	s	n/a
578.2985	0.1055	1156597	keystroke_Key.space	Key.space	n/a
578.5385	0.091	1157077	keystroke_p	p	n/a
578.6135	0.195	1157227	keystroke_r	r	n/a
578.764	0.15	1157528	keystroke_e	e	n/a
579.124	0.135	1158248	keystroke_s	s	n/a
579.229	0.12	1158458	keystroke_e	e	n/a
579.334	0.105	1158668	keystroke_n	n	n/a
579.469	0.0905	1158938	keystroke_t	t	n/a
579.709	0.1045	1159418	keystroke_a	a	n/a
579.934	0.09	1159868	keystroke_t	t	n/a
580.009	0.075	1160018	keystroke_i	i	n/a
580.203	0.061	1160406	keystroke_o	o	n/a
580.5635	0.0895	1161127	keystroke_n	n	n/a
580.759	0.105	1161518	keystroke_s	s	n/a
580.9095	0.0735	1161819	keystroke_Key.space	Key.space	n/a
581.119	0.0745	1162238	keystroke_b	b	n/a
581.1785	0.105	1162357	keystroke_r	r	n/a
581.4335	0.0905	1162867	keystroke_w	w	n/a
581.659	0.105	1163318	keystroke_a	a	n/a
581.719	0.09	1163438	keystroke_k	k	n/a
582.124	0.06	1164248	keystroke_Key.backspace	Key.backspace	n/a
582.274	0.03	1164548	keystroke_Key.backspace	Key.backspace	n/a
582.379	0.075	1164758	keystroke_Key.backspace	Key.backspace	n/a
582.514	0.09	1165028	keystroke_e	e	n/a
582.724	0.135	1165448	keystroke_a	a	n/a
582.7845	0.0895	1165569	keystroke_k	k	n/a
583.5935	0.0445	1167187	keystroke_f	f	n/a
583.7135	0.1955	1167427	keystroke_a	a	n/a
583.9235	0.0755	1167847	keystroke_s	s	n/a
584.0885	0.09	1168177	keystroke_t	t	n/a
586.926	0.001	1173852	keystroke_Key.enter	Key.enter	n/a
586.937	20.553	1173874	prompt	n/a	somerset accommodation roots mysterious\n
588.034	0.1045	1176068	keystroke_s	s	n/a
588.124	0.0745	1176248	keystroke_o	o	n/a
588.304	0.1055	1176608	keystroke_m	m	n/a
588.4235	0.091	1176847	keystroke_e	e	n/a
589.879	0.0745	1179758	keystroke_r	r	n/a
590.104	0.1645	1180208	keystroke_s	s	n/a
590.2535	0.105	1180507	keystroke_e	e	n/a
590.5685	0.1055	1181137	keystroke_t	t	n/a
590.719	0.105	1181438	keystroke_Key.space	Key.space	n/a
591.094	0.06	1182188	keystroke_a	a	n/a
591.274	0.0595	1182548	keystroke_c	c	n/a
591.439	0.0595	1182878	keystroke_c	c	n/a
591.4535	0.075	1182907	keystroke_o	o	n/a
592.099	0.09	1184198	keystroke_m	m	n/a
592.354	0.06	1184708	keystroke_o	o	n/a
592.8185	0.1055	1185637	keystroke_d	d	n/a
592.984	0.1195	1185968	keystroke_a	a	n/a
593.2095	0.104	1186419	keystroke_t	t	n/a
593.3285	0.0605	1186657	keystroke_i	i	n/a
593.5085	0.06	1187017	keystroke_o	o	n/a
593.6885	0.105	1187377	keystroke_n	n	n/a
593.809	0.12	1187618	keystroke_Key.space	Key.space	n/a
594.049	0.09	1188098	keystroke_r	r	n/a
594.169	0.06	1188338	keystroke_o	o	n/a
594.319	0.075	1188638	keystroke_o	o	n/a
594.424	0.1345	1188848	keystroke_t	t	n/a
596.4035	0.1205	1192807	keystroke_s	s	n/a
596.479	0.15	1192958	keystroke_Key.space	Key.space	n/a
597.1985	0.09	1194397	keystroke_n	n	n/a
597.6635	0.075	1195327	keystroke_Key.backspace	Key.backspace	n/a
597.9335	0.0905	1195867	keystroke_m	m	n/a
598.2335	0.045	1196467	keystroke_y	y	n/a
598.399	0.09	1196798	keystroke_s	s	n/a
