onset	duration	sample	value	key	prompt_text
13.6765	9.9185	27353	prompt	n/a	the quick brown fox jumps over a lazy dog\n
14.2195	0.013	28439	keystroke	t	n/a
14.3525	0.075	28705	keystroke	h	n/a
14.4575	0.119	28915	keystroke	e	n/a
14.5475	0.135	29095	keystroke	Key.space	n/a
14.7575	0.12	29515	keystroke	q	n/a
14.9065	0.076	29813	keystroke	u	n/a
15.0865	0.091	30173	keystroke	i	n/a
15.2225	0.09	30445	keystroke	c	n/a
15.3575	0.09	30715	keystroke	k	n/a
15.5065	0.121	31013	keystroke	Key.space	n/a
16.152	0.06	32304	keystroke	b	n/a
16.4515	0.06	32903	keystroke	r	n/a
16.5575	0.075	33115	keystroke	o	n/a
16.6625	0.105	33325	keystroke	w	n/a
16.8115	0.106	33623	keystroke	n	n/a
16.9315	0.12	33863	keystroke	Key.space	n/a
17.757	0.06	35514	keystroke	f	n/a
17.847	0.075	35694	keystroke	o	n/a
18.102	0.15	36204	keystroke	x	n/a
18.237	0.105	36474	keystroke	Key.space	n/a
18.4315	0.075	36863	keystroke	j	n/a
18.5975	0.0745	37195	keystroke	u	n/a
18.7775	0.074	37555	keystroke	m	n/a
18.9425	0.075	37885	keystroke	p	n/a
19.0615	0.136	38123	keystroke	s	n/a
19.1815	0.12	38363	keystroke	Key.space	n/a
19.4075	0.074	38815	keystroke	o	n/a
19.7515	0.075	39503	keystroke	v	n/a
19.8425	0.089	39685	keystroke	e	n/a
20.0525	0.105	40105	keystroke	r	n/a
20.1265	0.12	40253	keystroke	Key.space	n/a
20.3665	0.106	40733	keystroke	a	n/a
20.4115	0.136	40823	keystroke	Key.space	n/a
20.6815	0.076	41363	keystroke	l	n/a
20.7725	0.135	41545	keystroke	a	n/a
20.8615	0.076	41723	keystroke	Key.space	n/a
21.1625	0.075	42325	keystroke	Key.backspace	n/a
21.657	0.09	43314	keystroke	z	n/a
21.792	0.09	43584	keystroke	y	n/a
21.957	0.105	43914	keystroke	Key.space	n/a
22.437	0.09	44874	keystroke	d	n/a
22.542	0.075	45084	keystroke	o	n/a
22.797	0.075	45594	keystroke	g	n/a
23.547	0.045	47094	keystroke	Key.enter	n/a
23.5995	9.4295	47199	prompt	n/a	before devices licensed reporters\n
24.507	0.06	49014	keystroke	b	n/a
24.627	0.075	49254	keystroke	e	n/a
24.837	0.09	49674	keystroke	f	n/a
24.957	0.075	49914	keystroke	o	n/a
25.137	0.09	50274	keystroke	r	n/a
25.362	0.165	50724	keystroke	e	n/a
25.497	0.12	50994	keystroke	Key.space	n/a
25.827	0.03	51654	keystroke	d	n/a
25.977	0.045	51954	keystroke	d	n/a
26.172	0.0755	52344	keystroke	e	n/a
26.502	0.045	53004	keystroke	Key.backspace	n/a
26.637	0.105	53274	keystroke	Key.backspace	n/a
26.667	0.09	53334	keystroke	e	n/a
27.2075	0.075	54415	keystroke	v	n/a
27.2975	0.075	54595	keystroke	i	n/a
27.6575	0.075	55315	keystroke	c	n/a
27.7475	0.075	55495	keystroke	e	n/a
27.9725	0.18	55945	keystroke	s	n/a
28.1375	0.075	56275	keystroke	Key.space	n/a
28.3925	0.105	56785	keystroke	l	n/a
28.6325	0.06	57265	keystroke	i	n/a
28.7225	0.105	57445	keystroke	c	n/a
28.9775	0.06	57955	keystroke	e	n/a
29.1725	0.09	58345	keystroke	n	n/a
29.5025	0.075	59005	keystroke	s	n/a
29.7725	0.075	59545	keystroke	e	n/a
29.9675	0.15	59935	keystroke	d	n/a
30.0575	0.12	60115	keystroke	Key.space	n/a
30.2975	0.09	60595	keystroke	r	n/a
30.4925	0.09	60985	keystroke	e	n/a
31.2875	0.075	62575	keystroke	p	n/a
31.4375	0.06	62875	keystroke	o	n/a
31.7375	0.06	63475	keystroke	r	n/a
31.8875	0.09	63775	keystroke	t	n/a
32.0075	0.09	64015	keystroke	e	n/a
32.262	0.015	64524	keystroke	r	n/a
32.427	0.09	64854	keystroke	s	n/a
32.967	0.06	65934	keystroke	Key.enter	n/a
33.032	7.1825	66064	prompt	n/a	easily inspector against juan\n
33.7925	0.06	67585	keystroke	e	n/a
33.9875	0.105	67975	keystroke	a	n/a
34.4825	0.09	68965	keystroke	s	n/a
34.6025	0.075	69205	keystroke	i	n/a
34.8125	0.1055	69625	keystroke	l	n/a
35.098	0.059	70196	keystroke	y	n/a
35.232	0.091	70464	keystroke	Key.space	n/a
35.548	0.059	71096	keystroke	i	n/a
35.683	0.105	71366	keystroke	n	n/a
35.773	0.105	71546	keystroke	s	n/a
35.952	0.075	71904	keystroke	p	n/a
36.103	0.089	72206	keystroke	e	n/a
36.433	0.09	72866	keystroke	c	n/a
36.718	0.06	73436	keystroke	t	n/a
36.823	0.09	73646	keystroke	o	n/a
36.928	0.09	73856	keystroke	r	n/a
37.138	0.06	74276	keystroke	Key.space	n/a
37.573	0.075	75146	keystroke	a	n/a
37.783	0.075	75566	keystroke	g	n/a
37.918	0.105	75836	keystroke	a	n/a
38.188	0.09	76376	keystroke	i	n/a
38.353	0.12	76706	keystroke	n	n/a
38.458	0.09	76916	keystroke	s	n/a
38.788	0.09	77576	keystroke	t	n/a
38.907	0.106	77814	keystroke	Key.space	n/a
39.403	0.075	78806	keystroke	j	n/a
39.583	0.075	79166	keystroke	u	n/a
39.673	0.105	79346	keystroke	a	n/a
39.793	0.09	79586	keystroke	n	n/a
40.168	0.045	80336	keystroke	Key.enter	n/a
40.22	10.075	80440	prompt	n/a	plenty chips coordinate desktop\n
41.638	0.045	83276	keystroke	p	n/a
41.7575	0.09	83515	keystroke	l	n/a
41.8625	0.09	83725	keystroke	e	n/a
42.0275	0.045	84055	keystroke	n	n/a
42.1625	0.075	84325	keystroke	t	n/a
42.4625	0.03	84925	keystroke	y	n/a
42.5675	0.105	85135	keystroke	Key.space	n/a
43.2125	0.075	86425	keystroke	c	n/a
43.5575	0.075	87115	keystroke	h	n/a
43.7075	0.075	87415	keystroke	i	n/a
43.9325	0.06	87865	keystroke	p	n/a
44.1125	0.12	88225	keystroke	s	n/a
44.2475	0.09	88495	keystroke	Key.space	n/a
44.5025	0.075	89005	keystroke	c	n/a
44.6225	0.09	89245	keystroke	o	n/a
44.8025	0.075	89605	keystroke	o	n/a
44.9075	0.09	89815	keystroke	r	n/a
45.2075	0.045	90415	keystroke	d	n/a
45.3425	0.075	90685	keystroke	i	n/a
45.5075	0.09	91015	keystroke	n	n/a
45.5975	0.105	91195	keystroke	a	n/a
45.9725	0.075	91945	keystroke	t	n/a
46.0925	0.135	92185	keystroke	e	n/a
46.2125	0.105	92425	keystroke	Key.space	n/a
46.7825	0.075	93565	keystroke	d	n/a
46.8875	0.06	93775	keystroke	e	n/a
47.0975	0.075	94195	keystroke	s	n/a
47.3375	0.09	94675	keystroke	k	n/a
48.5675	0.06	97135	keystroke	t	n/a
48.7025	0.075	97405	keystroke	p	n/a
49.1675	0.06	98335	keystroke	Key.backspace	n/a
49.3475	0.075	98695	keystroke	o	n/a
49.5125	0.075	99025	keystroke	p	n/a
50.2475	0.045	100495	keystroke	Key.enter	n/a
50.3	14.9195	100600	prompt	n/a	port mystery quarterly atlantic\n
50.9975	0.075	101995	keystroke	p	n/a
51.1775	0.06	102355	keystroke	o	n/a
51.2525	0.135	102505	keystroke	r	n/a
51.3725	0.09	102745	keystroke	Key.space	n/a
51.8375	0.075	103675	keystroke	Key.backspace	n/a
51.9425	0.105	103885	keystroke	t	n/a
52.0325	0.09	104065	keystroke	Key.space	n/a
52.1975	0.09	104395	keystroke	m	n/a
52.5725	0.075	105145	keystroke	y	n/a
52.6625	0.105	105325	keystroke	s	n/a
53.0375	0.075	106075	keystroke	t	n/a
53.1275	0.075	106255	keystroke	e	n/a
53.2925	0.075	106585	keystroke	r	n/a
53.5475	0.075	107095	keystroke	y	n/a
54.1475	0.105	108295	keystroke	Key.space	n/a
54.3125	0.105	108625	keystroke	q	n/a
54.4325	0.09	108865	keystroke	u	n/a
55.3925	0.075	110785	keystroke	a	n/a
55.4975	0.105	110995	keystroke	n	n/a
56.2025	0.09	112405	keystroke	Key.backspace	n/a
56.3525	0.075	112705	keystroke	t	n/a
56.6525	0.06	113305	keystroke	e	n/a
56.7875	0.075	113575	keystroke	l	n/a
57.0725	0.09	114145	keystroke	Key.backspace	n/a
57.1325	0.105	114265	keystroke	r	n/a
57.2825	0.12	114565	keystroke	l	n/a
57.9575	0.075	115915	keystroke	Key.backspace	n/a
58.1075	0.06	116215	keystroke	Key.backspace	n/a
58.2575	0.06	116515	keystroke	Key.backspace	n/a
58.4075	0.075	116815	keystroke	Key.backspace	n/a
59.0975	0.06	118195	keystroke	r	n/a
59.1725	0.075	118345	keystroke	l	n/a
59.5475	0.09	119095	keystroke	Key.backspace	n/a
59.6225	0.075	119245	keystroke	t	n/a
60.5975	0.15	121195	keystroke	w	n/a
60.7025	0.135	121405	keystroke	e	n/a
61.3625	0.045	122725	keystroke	Key.backspace	n/a
61.4225	0.015	122845	keystroke	Key.backspace	n/a
61.6475	0.165	123295	keystroke	e	n/a
61.7675	0.12	123535	keystroke	r	n/a
62.1875	0.09	124375	keystroke	l	n/a
62.4875	0.075	124975	keystroke	y	n/a
62.6225	0.12	125245	keystroke	Key.space	n/a
63.0125	0.075	126025	keystroke	a	n/a
63.1175	0.09	126235	keystroke	l	n/a
63.5225	0.075	127045	keystroke	Key.backspace	n/a
63.5675	0.075	127135	keystroke	t	n/a
63.7475	0.105	127495	keystroke	l	n/a
63.8825	0.105	127765	keystroke	a	n/a
64.0175	0.105	128035	keystroke	n	n/a
64.4825	0.045	128965	keystroke	t	n/a
64.5725	0.075	129145	keystroke	i	n/a
64.7225	0.09	129445	keystroke	c	n/a
65.1575	0.06	130315	keystroke	Key.enter	n/a
65.223	9.582	130446	prompt	n/a	mostly bulletin purchasing shop\n
66.3425	0.075	132685	keystroke	m	n/a
66.5075	0.075	133015	keystroke	o	n/a
66.5835	0.089	133167	keystroke	s	n/a
66.8525	0.075	133705	keystroke	t	n/a
67.0325	0.075	134065	keystroke	l	n/a
67.3175	0.09	134635	keystroke	y	n/a
67.5575	0.12	135115	keystroke	Key.space	n/a
68.3075	0.09	136615	keystroke	b	n/a
68.4425	0.09	136885	keystroke	u	n/a
68.6675	0.06	137335	keystroke	l	n/a
68.8175	0.09	137635	keystroke	l	n/a
68.8925	0.09	137785	keystroke	e	n/a
69.1175	0.075	138235	keystroke	t	n/a
69.3425	0.09	138685	keystroke	i	n/a
69.5825	0.075	139165	keystroke	n	n/a
69.7025	0.12	139405	keystroke	Key.space	n/a
69.9425	0.09	139885	keystroke	p	n/a
70.0775	0.075	140155	keystroke	r	n/a
70.4225	0.075	140845	keystroke	Key.backspace	n/a
70.6175	0.075	141235	keystroke	u	n/a
70.8425	0.06	141685	keystroke	r	n/a
71.1875	0.06	142375	keystroke	c	n/a
71.2925	0.105	142585	keystroke	h	n/a
71.4275	0.09	142855	keystroke	a	n/a
71.5775	0.105	143155	keystroke	s	n/a
71.7725	0.06	143545	keystroke	i	n/a
71.9225	0.105	143845	keystroke	n	n/a
72.0425	0.075	144085	keystroke	g	n/a
72.8375	0.12	145675	keystroke	Key.space	n/a
73.1975	0.09	146395	keystroke	s	n/a
73.3635	0.059	146727	keystroke	h	n/a
73.5575	0.075	147115	keystroke	o	n/a
74.1275	0.075	148255	keystroke	p	n/a
74.7125	0.09	149425	keystroke	Key.enter	n/a
74.8115	9.503	149623	prompt	n/a	loss pottery build satisfaction\n
75.4775	0.09	150955	keystroke	l	n/a
75.6875	0.045	151375	keystroke	o	n/a
75.7635	0.075	151527	keystroke	s	n/a
75.9275	0.105	151855	keystroke	s	n/a
76.0175	0.105	152035	keystroke	Key.space	n/a
76.2135	0.089	152427	keystroke	p	n/a
76.3775	0.09	152755	keystroke	o	n/a
76.7525	0.061	153505	keystroke	t	n/a
76.9325	0.09	153865	keystroke	t	n/a
77.2925	0.075	154585	keystroke	e	n/a
77.4725	0.075	154945	keystroke	r	n/a
77.7575	0.09	155515	keystroke	y	n/a
77.8925	0.09	155785	keystroke	Key.space	n/a
78.2375	0.076	156475	keystroke	n	n/a
78.4475	0.03	156895	keystroke	u	n/a
78.9575	0.045	157915	keystroke	Key.backspace	n/a
79.1675	0.015	158335	keystroke	Key.backspace	n/a
79.3175	0.075	158635	keystroke	b	n/a
79.4525	0.091	158905	keystroke	u	n/a
79.6185	0.089	159237	keystroke	i	n/a
79.8885	0.059	159777	keystroke	l	n/a
80.1425	0.106	160285	keystroke	d	n/a
80.2635	0.089	160527	keystroke	Key.space	n/a
80.622	0.091	161244	keystroke	s	n/a
80.758	0.135	161516	keystroke	a	n/a
81.073	0.06	162146	keystroke	t	n/a
81.163	0.09	162326	keystroke	i	n/a
81.3575	0.1055	162715	keystroke	s	n/a
81.658	0.03	163316	keystroke	f	n/a
82.122	0.061	164244	keystroke	a	n/a
82.363	0.06	164726	keystroke	c	n/a
82.618	0.06	165236	keystroke	t	n/a
82.723	0.075	165446	keystroke	i	n/a
82.903	0.06	165806	keystroke	o	n/a
83.098	0.06	166196	keystroke	n	n/a
84.2525	0.06	168505	keystroke	Key.enter	n/a
84.318	15.596	168636	prompt	n/a	kinda competitive character approve\n
85.2135	0.075	170427	keystroke	k	n/a
85.3475	0.075	170695	keystroke	i	n/a
85.4975	0.104	170995	keystroke	n	n/a
85.6165	0.09	171233	keystroke	f	n/a
85.8875	0.119	171775	keystroke	a	n/a
85.9915	0.105	171983	keystroke	Key.space	n/a
86.3515	0.03	172703	keystroke	Key.backspace	n/a
86.4715	0.075	172943	keystroke	Key.backspace	n/a
86.6215	0.105	173243	keystroke	Key.backspace	n/a
86.7115	0.106	173423	keystroke	d	n/a
86.9375	0.119	173875	keystroke	a	n/a
87.0415	0.09	174083	keystroke	Key.space	n/a
87.2515	0.105	174503	keystroke	c	n/a
87.3875	0.075	174775	keystroke	o	n/a
87.5665	0.075	175133	keystroke	m	n/a
88.5875	0.059	177175	keystroke	p	n/a
88.6915	0.105	177383	keystroke	e	n/a
89.4415	0.06	178883	keystroke	t	n/a
89.5465	0.075	179093	keystroke	i	n/a
89.6515	0.075	179303	keystroke	t	n/a
90.0125	0.089	180025	keystroke	i	n/a
90.1915	0.075	180383	keystroke	t	n/a
90.8965	0.075	181793	keystroke	Key.backspace	n/a
91.1975	0.029	182395	keystroke	b	n/a
91.2715	0.091	182543	keystroke	e	n/a
91.6165	0.06	183233	keystroke	Key.backspace	n/a
91.7515	0.12	183503	keystroke	Key.backspace	n/a
91.8275	0.105	183655	keystroke	v	n/a
92.0825	0.105	184165	keystroke	e	n/a
93.7165	0.09	187433	keystroke	Key.space	n/a
94.0315	0.09	188063	keystroke	c	n/a
94.2125	0.075	188425	keystroke	h	n/a
94.3025	0.105	188605	keystroke	a	n/a
94.4975	0.09	188995	keystroke	c	n/a
94.5875	0.105	189175	keystroke	a	n/a
94.9625	0.075	189925	keystroke	Key.backspace	n/a
95.1425	0.06	190285	keystroke	Key.backspace	n/a
95.1875	0.06	190375	keystroke	r	n/a
95.4275	0.105	190855	keystroke	a	n/a
95.6375	0.09	191275	keystroke	c	n/a
95.8325	0.09	191665	keystroke	t	n/a
95.9675	0.075	191935	keystroke	e	n/a
96.1475	0.12	192295	keystroke	r	n/a
96.2225	0.12	192445	keystroke	Key.space	n/a
96.5075	0.12	193015	keystroke	a	n/a
96.6425	0.09	193285	keystroke	o	n/a
97.1075	0.09	194215	keystroke	o	n/a
97.2575	0.075	194515	keystroke	r	n/a
97.5275	0.06	195055	keystroke	Key.backspace	n/a
97.6775	0.075	195355	keystroke	Key.backspace	n/a
97.9175	0.045	195835	keystroke	p	n/a
97.9475	0.06	195895	keystroke	Key.backspace	n/a
98.2775	0.06	196555	keystroke	Key.backspace	n/a
98.4725	0.075	196945	keystroke	p	n/a
98.6225	0.075	197245	keystroke	p	n/a
98.8475	0.09	197695	keystroke	r	n/a
98.9825	0.09	197965	keystroke	o	n/a
99.3425	0.09	198685	keystroke	v	n/a
99.4475	0.09	198895	keystroke	e	n/a
99.8375	0.075	199675	keystroke	Key.enter	n/a
99.9175	7.826	199835	prompt	n/a	velocity allows several pregnant\n
100.7225	0.075	201445	keystroke	v	n/a
100.8125	0.06	201625	keystroke	e	n/a
100.9625	0.09	201925	keystroke	l	n/a
101.1575	0.06	202315	keystroke	o	n/a
101.5025	0.09	203005	keystroke	c	n/a
101.6225	0.09	203245	keystroke	i	n/a
101.8175	0.045	203635	keystroke	t	n/a
101.9975	0.075	203995	keystroke	y	n/a
102.1325	0.09	204265	keystroke	Key.space	n/a
102.3425	0.105	204685	keystroke	a	n/a
102.4625	0.06	204925	keystroke	l	n/a
102.5825	0.09	205165	keystroke	l	n/a
102.7625	0.075	205525	keystroke	o	n/a
102.8825	0.075	205765	keystroke	e	n/a
103.2125	0.06	206425	keystroke	s	n/a
103.4075	0.06	206815	keystroke	Key.backspace	n/a
103.5425	0.105	207085	keystroke	Key.backspace	n/a
103.6325	0.105	207265	keystroke	w	n/a
103.8425	0.165	207685	keystroke	s	n/a
103.9625	0.105	207925	keystroke	Key.space	n/a
104.2325	0.105	208465	keystroke	a	n/a
104.5775	0.075	209155	keystroke	Key.backspace	n/a
104.6375	0.09	209275	keystroke	s	n/a
104.8325	0.075	209665	keystroke	e	n/a
105.0875	0.075	210175	keystroke	v	n/a
105.1775	0.09	210355	keystroke	e	n/a
105.3725	0.09	210745	keystroke	r	n/a
105.5825	0.12	211165	keystroke	a	n/a
105.7175	0.074	211435	keystroke	l	n/a
105.8215	0.091	211643	keystroke	Key.space	n/a
106.1375	0.075	212275	keystroke	p	n/a
106.2425	0.075	212485	keystroke	r	n/a
106.4075	0.09	212815	keystroke	e	n/a
106.6475	0.09	213295	keystroke	g	n/a
106.9025	0.075	213805	keystroke	n	n/a
107.0375	0.135	214075	keystroke	a	n/a
107.2025	0.09	214405	keystroke	n	n/a
107.3825	0.09	214765	keystroke	t	n/a
107.7125	0.03	215425	keystroke	Key.enter	n/a
107.747	15.072	215494	prompt	n/a	cruises lessons hypothetical formal\n
108.8075	0.075	217615	keystroke	c	n/a
109.0325	0.06	218065	keystroke	r	n/a
109.1225	0.075	218245	keystroke	u	n/a
109.2725	0.12	218545	keystroke	i	n/a
109.7525	0.105	219505	keystroke	s	n/a
110.0825	0.09	220165	keystroke	e	n/a
110.3375	0.135	220675	keystroke	s	n/a
110.5325	0.105	221065	keystroke	Key.space	n/a
110.9975	0.09	221995	keystroke	l	n/a
111.1325	0.045	222265	keystroke	e	n/a
111.4025	0.075	222805	keystroke	s	n/a
111.5375	0.075	223075	keystroke	s	n/a
111.6725	0.045	223345	keystroke	s	n/a
111.7325	0.09	223465	keystroke	o	n/a
111.9275	0.105	223855	keystroke	n	n/a
112.5575	0.09	225115	keystroke	s	n/a
112.7675	0.09	225535	keystroke	Key.space	n/a
113.9075	0.06	227815	keystroke	Key.backspace	n/a
114.0875	0.075	228175	keystroke	Key.backspace	n/a
116.8495	0.043	233699	keystroke	s	n/a
116.9375	0.09	233875	keystroke	Key.space	n/a
118.0325	0.075	236065	keystroke	h	n/a
118.1975	0.075	236395	keystroke	y	n/a
118.7975	0.06	237595	keystroke	p	n/a
119.0225	0.075	238045	keystroke	o	n/a
119.5475	0.075	239095	keystroke	t	n/a
119.6975	0.09	239395	keystroke	h	n/a
119.8625	0.075	239725	keystroke	e	n/a
120.4325	0.06	240865	keystroke	t	n/a
120.5375	0.09	241075	keystroke	i	n/a
120.7325	0.075	241465	keystroke	c	n/a
120.9275	0.105	241855	keystroke	a	n/a
121.0475	0.09	242095	keystroke	l	n/a
121.1825	0.105	242365	keystroke	Key.space	n/a
121.8875	0.075	243775	keystroke	f	n/a
121.9925	0.09	243985	keystroke	o	n/a
122.0675	0.075	244135	keystroke	r	n/a
122.2175	0.105	244435	keystroke	m	n/a
122.3525	0.105	244705	keystroke	a	n/a
122.4725	0.045	244945	keystroke	l	n/a
122.7725	0.045	245545	keystroke	Key.enter	n/a
122.8225	11.5615	245645	prompt	n/a	chief automotive perfectly hoped\n
123.6125	0.075	247225	keystroke	c	n/a
123.7025	0.075	247405	keystroke	h	n/a
123.8525	0.105	247705	keystroke	i	n/a
123.9575	0.06	247915	keystroke	e	n/a
124.1825	0.135	248365	keystroke	d	n/a
124.6025	0.075	249205	keystroke	Key.backspace	n/a
124.6625	0.09	249325	keystroke	f	n/a
124.8275	0.105	249655	keystroke	Key.space	n/a
125.4725	0.12	250945	keystroke	a	n/a
125.6675	0.09	251335	keystroke	u	n/a
125.8775	0.075	251755	keystroke	t	n/a
126.0425	0.075	252085	keystroke	o	n/a
126.2375	0.09	252475	keystroke	m	n/a
126.4025	0.12	252805	keystroke	a	n/a
127.0175	0.075	254035	keystroke	Key.backspace	n/a
127.1675	0.075	254335	keystroke	o	n/a
127.6625	0.06	255325	keystroke	t	n/a
127.7825	0.075	255565	keystroke	i	n/a
128.0675	0.075	256135	keystroke	v	n/a
128.1875	0.15	256375	keystroke	e	n/a
128.3225	0.105	256645	keystroke	Key.space	n/a
128.7125	0.075	257425	keystroke	p	n/a
128.7735	0.074	257547	keystroke	e	n/a
128.9375	0.09	257875	keystroke	r	n/a
129.2375	0.075	258475	keystroke	f	n/a
129.3875	0.075	258775	keystroke	e	n/a
129.6425	0.03	259285	keystroke	c	n/a
130.3925	0.06	260785	keystroke	t	n/a
130.5125	0.09	261025	keystroke	k	n/a
131.1125	0.06	262225	keystroke	Key.backspace	n/a
131.2925	0.09	262585	keystroke	l	n/a
131.8475	0.015	263695	keystroke	y	n/a
132.5225	0.12	265045	keystroke	Key.space	n/a
132.8825	0.075	265765	keystroke	h	n/a
133.0775	0.09	266155	keystroke	o	n/a
133.2725	0.075	266545	keystroke	p	n/a
133.4225	0.09	266845	keystroke	e	n/a
133.6925	0.12	267385	keystroke	d	n/a
134.3075	0.075	268615	keystroke	Key.enter	n/a
134.387	12.507	268774	prompt	n/a	carry divx antibody electron\n
135.2675	0.06	270535	keystroke	c	n/a
135.3725	0.075	270745	keystroke	a	n/a
135.5975	0.075	271195	keystroke	r	n/a
135.7775	0.06	271555	keystroke	r	n/a
135.8835	0.104	271767	keystroke	y	n/a
135.9725	0.105	271945	keystroke	Key.space	n/a
136.1975	0.09	272395	keystroke	d	n/a
136.4825	0.075	272965	keystroke	i	n/a
137.0975	0.09	274195	keystroke	v	n/a
138.823	0.03	277646	keystroke	x	n/a
139.077	0.105	278154	keystroke	Key.space	n/a
139.257	0.12	278514	keystroke	a	n/a
139.3925	0.075	278785	keystroke	n	n/a
139.572	0.075	279144	keystroke	t	n/a
139.7375	0.0905	279475	keystroke	i	n/a
140.4425	0.0745	280885	keystroke	b	n/a
140.592	0.1205	281184	keystroke	o	n/a
140.728	0.089	281456	keystroke	d	n/a
140.892	0.09	281784	keystroke	y	n/a
141.087	0.105	282174	keystroke	Key.space	n/a
141.942	0.061	283884	keystroke	e	n/a
142.062	0.105	284124	keystroke	l	n/a
142.183	0.059	284366	keystroke	e	n/a
142.392	0.045	284784	keystroke	v	n/a
142.423	0.03	284846	keystroke	c	n/a
142.587	0.075	285174	keystroke	t	n/a
142.857	0.075	285714	keystroke	Key.backspace	n/a
143.007	0.075	286014	keystroke	Key.backspace	n/a
143.157	0.105	286314	keystroke	Key.backspace	n/a
143.203	0.104	286406	keystroke	c	n/a
143.502	0.076	287004	keystroke	t	n/a
143.682	0.09	287364	keystroke	r	n/a
143.877	0.076	287754	keystroke	i	n/a
144.192	0.09	288384	keystroke	Key.backspace	n/a
144.732	0.06	289464	keystroke	o	n/a
144.958	0.074	289916	keystroke	n	n/a
145.5875	0.09	291175	keystroke	Key.space	n/a
146.8175	0.075	293635	keystroke	Key.enter	n/a
146.8975	8.5765	293795	prompt	n/a	induction adidas signs papua\n
147.9425	0.06	295885	keystroke	u	n/a
148.2275	0.075	296455	keystroke	Key.backspace	n/a
148.3925	0.075	296785	keystroke	i	n/a
148.5725	0.105	297145	keystroke	n	n/a
148.6785	0.104	297357	keystroke	d	n/a
148.8575	0.105	297715	keystroke	u	n/a
149.0675	0.09	298135	keystroke	c	n/a
149.3075	0.075	298615	keystroke	t	n/a
149.3975	0.075	298795	keystroke	i	n/a
149.5325	0.09	299065	keystroke	o	n/a
149.697	0.09	299394	keystroke	n	n/a
149.757	0.105	299514	keystroke	Key.space	n/a
149.907	0.105	299814	keystroke	a	n/a
150.087	0.09	300174	keystroke	d	n/a
150.192	0.075	300384	keystroke	u	n/a
150.312	0.105	300624	keystroke	d	n/a
150.642	0.045	301284	keystroke	Key.backspace	n/a
150.762	0.105	301524	keystroke	Key.backspace	n/a
150.972	0.09	301944	keystroke	i	n/a
150.987	0.06	301974	keystroke	u	n/a
151.032	0.105	302064	keystroke	d	n/a
151.347	0.045	302694	keystroke	Key.backspace	n/a
151.467	0.09	302934	keystroke	Key.backspace	n/a
151.572	0.135	303144	keystroke	d	n/a
151.722	0.24	303444	keystroke	a	n/a
151.917	0.18	303834	keystroke	s	n/a
152.082	0.105	304164	keystroke	Key.space	n/a
153.192	0.09	306384	keystroke	s	n/a
153.312	0.09	306624	keystroke	i	n/a
153.522	0.075	307044	keystroke	g	n/a
153.672	0.09	307344	keystroke	n	n/a
153.867	0.15	307734	keystroke	s	n/a
154.032	0.12	308064	keystroke	Key.space	n/a
154.227	0.075	308454	keystroke	p	n/a
154.362	0.105	308724	keystroke	a	n/a
154.467	0.09	308934	keystroke	p	n/a
154.707	0.09	309414	keystroke	u	n/a
154.842	0.09	309684	keystroke	a	n/a
155.412	0.06	310824	keystroke	Key.enter	n/a
155.4765	28.4675	310953	prompt	n/a	possibilities awarded government kevin\n
156.327	0.09	312654	keystroke	p	n/a
156.612	0.015	313224	keystroke	o	n/a
156.672	0.075	313344	keystroke	s	n/a
156.867	0.09	313734	keystroke	s	n/a
156.987	0.12	313974	keystroke	i	n/a
157.272	0.09	314544	keystroke	b	n/a
157.482	0.105	314964	keystroke	l	n/a
157.692	0.09	315384	keystroke	i	n/a
157.857	0.075	315714	keystroke	t	n/a
157.992	0.09	315984	keystroke	i	n/a
158.652	0.075	317304	keystroke	e	n/a
158.9065	0.1355	317813	keystroke	s	n/a
159.0115	0.1055	318023	keystroke	Key.space	n/a
159.2365	0.105	318473	keystroke	a	n/a
159.462	0.105	318924	keystroke	w	n/a
166.0195	0.043	332039	keystroke	a	n/a
166.6775	0.06	333355	keystroke	r	n/a
166.8575	0.075	333715	keystroke	d	n/a
166.9475	0.075	333895	keystroke	e	n/a
167.1425	0.12	334285	keystroke	d	n/a
167.2475	0.105	334495	keystroke	Key.space	n/a
168.4025	0.06	336805	keystroke	f	n/a
168.4925	0.075	336985	keystroke	o	n/a
168.7325	0.09	337465	keystroke	v	n/a
169.0475	0.06	338095	keystroke	=	n/a
169.2125	0.045	338425	keystroke	Key.backspace	n/a
169.3475	0.09	338695	keystroke	Key.backspace	n/a
169.5275	0.12	339055	keystroke	Key.backspace	n/a
169.9625	0.105	339925	keystroke	Key.backspace	n/a
170.0825	0.075	340165	keystroke	g	n/a
170.1875	0.105	340375	keystroke	o	n/a
170.7125	0.09	341425	keystroke	v	n/a
170.7875	0.075	341575	keystroke	e	n/a
170.9525	0.09	341905	keystroke	r	n/a
171.0875	0.075	342175	keystroke	m	n/a
171.1775	0.105	342355	keystroke	e	n/a
171.3125	0.09	342625	keystroke	n	n/a
171.4325	0.105	342865	keystroke	t	n/a
171.5675	0.09	343135	keystroke	Key.space	n/a
171.8225	0.09	343645	keystroke	k	n/a
171.9275	0.075	343855	keystroke	e	n/a
172.3775	0.075	344755	keystroke	Key.backspace	n/a
172.5125	0.09	345025	keystroke	Key.backspace	n/a
172.6925	0.09	345385	keystroke	Key.backspace	n/a
172.8575	0.09	345715	keystroke	Key.backspace	n/a
173.0525	0.09	346105	keystroke	Key.backspace	n/a
173.2775	0.12	346555	keystroke	Key.backspace	n/a
173.5925	0.06	347185	keystroke	m	n/a
173.6075	0.015	347215	keystroke	j	n/a
173.6675	0.09	347335	keystroke	e	n/a
174.1625	0.045	348325	keystroke	Key.backspace	n/a
175.4975	0.075	350995	keystroke	Key.backspace	n/a
175.7975	0.075	351595	keystroke	e	n/a
175.8725	0.09	351745	keystroke	n	n/a
176.0375	0.135	352075	keystroke	t	n/a
176.1425	0.12	352285	keystroke	Key.space	n/a
179.4595	0.043	358919	keystroke	Key.backspace	n/a
179.6075	0.045	359215	keystroke	Key.backspace	n/a
179.7725	0.06	359545	keystroke	Key.backspace	n/a
179.9375	0.06	359875	keystroke	Key.backspace	n/a
180.1025	0.075	360205	keystroke	Key.backspace	n/a
180.2675	0.075	360535	keystroke	Key.backspace	n/a
181.1975	0.06	362395	keystroke	n	n/a
181.3625	0.09	362725	keystroke	m	n/a
181.4825	0.12	362965	keystroke	e	n/a
181.7075	0.075	363415	keystroke	n	n/a
181.8575	0.165	363715	keystroke	t	n/a
181.9925	0.15	363985	keystroke	Key.space	n/a
182.3975	0.09	364795	keystroke	k	n/a
182.5025	0.09	365005	keystroke	e	n/a
183.1325	0.075	366265	keystroke	v	n/a
183.2825	0.09	366565	keystroke	i	n/a
183.4625	0.075	366925	keystroke	n	n/a
183.8825	0.06	367765	keystroke	Key.enter	n/a
183.947	8.142	367894	prompt	n/a	ethics showtimes stack barely\n
184.7225	0.075	369445	keystroke	e	n/a
184.9925	0.06	369985	keystroke	t	n/a
185.1275	0.09	370255	keystroke	i	n/a
185.5325	0.045	371065	keystroke	Key.backspace	n/a
185.7125	0.09	371425	keystroke	h	n/a
185.8475	0.12	371695	keystroke	i	n/a
185.9525	0.09	371905	keystroke	c	n/a
186.1925	0.15	372385	keystroke	s	n/a
186.3425	0.12	372685	keystroke	Key.space	n/a
186.7025	0.09	373405	keystroke	s	n/a
186.9275	0.075	373855	keystroke	h	n/a
187.0925	0.105	374185	keystroke	o	n/a
187.5875	0.09	375175	keystroke	w	n/a
187.8425	0.075	375685	keystroke	t	n/a
187.9325	0.075	375865	keystroke	i	n/a
188.1125	0.105	376225	keystroke	m	n/a
188.1875	0.09	376375	keystroke	e	n/a
188.4125	0.105	376825	keystroke	s	n/a
188.5025	0.12	377005	keystroke	Key.space	n/a
188.6975	0.12	377395	keystroke	a	n/a
189.0725	0.09	378145	keystroke	Key.backspace	n/a
189.177	0.12	378354	keystroke	s	n/a
189.402	0.105	378804	keystroke	t	n/a
189.522	0.09	379044	keystroke	a	n/a
189.732	0.1055	379464	keystroke	c	n/a
189.897	0.0905	379794	keystroke	k	n/a
190.077	0.09	380154	keystroke	Key.space	n/a
190.467	0.075	380934	keystroke	b	n/a
190.557	0.12	381114	keystroke	a	n/a
190.902	0.06	381804	keystroke	r	n/a
191.052	0.075	382104	keystroke	e	n/a
191.142	0.12	382284	keystroke	l	n/a
191.412	0.075	382824	keystroke	y	n/a
192.027	0.06	384054	keystroke	Key.enter	n/a
192.0925	9.8215	384185	prompt	n/a	configurations reliable wanting pages\n
192.927	0.075	385854	keystroke	c	n/a
192.987	0.075	385974	keystroke	o	n/a
193.152	0.12	386304	keystroke	n	n/a
193.362	0.105	386724	keystroke	f	n/a
193.482	0.075	386964	keystroke	i	n/a
193.797	0.09	387594	keystroke	g	n/a
193.993	0.089	387986	keystroke	u	n/a
194.097	0.09	388194	keystroke	r	n/a
194.337	0.105	388674	keystroke	a	n/a
194.607	0.09	389214	keystroke	t	n/a
194.712	0.075	389424	keystroke	i	n/a
194.832	0.09	389664	keystroke	o	n/a
194.997	0.105	389994	keystroke	n	n/a
195.147	0.135	390294	keystroke	s	n/a
195.237	0.09	390474	keystroke	Key.space	n/a
195.477	0.06	390954	keystroke	r	n/a
195.762	0.09	391524	keystroke	e	n/a
195.942	0.075	391884	keystroke	l	n/a
196.137	0.075	392274	keystroke	i	n/a
196.227	0.105	392454	keystroke	a	n/a
196.392	0.09	392784	keystroke	b	n/a
196.602	0.09	393204	keystroke	l	n/a
196.707	0.105	393414	keystroke	e	n/a
196.797	0.12	393594	keystroke	Key.space	n/a
197.307	0.12	394614	keystroke	w	n/a
197.517	0.12	395034	keystroke	a	n/a
197.607	0.12	395214	keystroke	n	n/a
197.832	0.06	395664	keystroke	t	n/a
197.907	0.061	395814	keystroke	u	n/a
198.507	0.075	397014	keystroke	Key.backspace	n/a
199.137	0.06	398274	keystroke	i	n/a
199.318	0.075	398636	keystroke	n	n/a
199.422	0.135	398844	keystroke	g	n/a
199.527	0.105	399054	keystroke	Key.space	n/a
199.752	0.075	399504	keystroke	p	n/a
199.857	0.165	399714	keystroke	a	n/a
200.443	0.075	400886	keystroke	f	n/a
200.533	0.074	401066	keystroke	e	n/a
200.757	0.061	401514	keystroke	Key.backspace	n/a
200.892	0.12	401784	keystroke	Key.backspace	n/a
201.402	0.091	402804	keystroke	g	n/a
201.478	0.074	402956	keystroke	e	n/a
201.673	0.075	403346	keystroke	s	n/a
201.868	0.044	403736	keystroke	Key.enter	n/a
201.9195	10.3145	403839	prompt	n/a	distributor refined librarian minor\n
204.645	0.001	409290	keystroke	d	n/a
204.688	0.075	409376	keystroke	i	n/a
204.793	0.09	409586	keystroke	s	n/a
205.393	0.045	410786	keystroke	t	n/a
205.528	0.105	411056	keystroke	r	n/a
205.648	0.06	411296	keystroke	i	n/a
205.828	0.09	411656	keystroke	b	n/a
206.008	0.09	412016	keystroke	u	n/a
206.143	0.09	412286	keystroke	t	n/a
206.368	0.075	412736	keystroke	o	n/a
206.533	0.105	413066	keystroke	r	n/a
206.653	0.165	413306	keystroke	Key.space	n/a
206.968	0.075	413936	keystroke	r	n/a
207.148	0.105	414296	keystroke	e	n/a
207.613	0.09	415226	keystroke	f	n/a
207.718	0.09	415436	keystroke	i	n/a
207.973	0.09	415946	keystroke	n	n/a
208.078	0.06	416156	keystroke	e	n/a
208.288	0.15	416576	keystroke	d	n/a
208.408	0.12	416816	keystroke	Key.space	n/a
208.798	0.06	417596	keystroke	l	n/a
209.053	0.03	418106	keystroke	u	n/a
209.473	0.045	418946	keystroke	Key.backspace	n/a
209.653	0.075	419306	keystroke	i	n/a
209.893	0.09	419786	keystroke	b	n/a
209.983	0.09	419966	keystroke	r	n/a
210.178	0.105	420356	keystroke	a	n/a
210.388	0.09	420776	keystroke	r	n/a
210.463	0.09	420926	keystroke	i	n/a
210.598	0.135	421196	keystroke	a	n/a
210.763	0.09	421526	keystroke	n	n/a
210.868	0.09	421736	keystroke	Key.space	n/a
211.003	0.09	422006	keystroke	m	n/a
211.183	0.06	422366	keystroke	i	n/a
211.348	0.105	422696	keystroke	n	n/a
211.678	0.0745	423356	keystroke	o	n/a
211.768	0.0895	423536	keystroke	r	n/a
212.1875	0.045	424375	keystroke	Key.enter	n/a
212.237	14.847	424474	prompt	n/a	branches studios outdoor summit\n
213.1625	0.075	426325	keystroke	b	n/a
213.3875	0.075	426775	keystroke	r	n/a
213.508	0.1195	427016	keystroke	a	n/a
213.6725	0.075	427345	keystroke	m	n/a
214.2575	0.06	428515	keystroke	Key.backspace	n/a
214.4675	0.09	428935	keystroke	n	n/a
214.7675	0.06	429535	keystroke	c	n/a
214.9625	0.075	429925	keystroke	j	n/a
215.0825	0.09	430165	keystroke	e	n/a
215.2925	0.12	430585	keystroke	s	n/a
215.5175	0.06	431035	keystroke	Key.backspace	n/a
215.6675	0.06	431335	keystroke	Key.backspace	n/a
215.8025	0.09	431605	keystroke	Key.backspace	n/a
216.0275	0.075	432055	keystroke	h	n/a
216.0875	0.09	432175	keystroke	e	n/a
216.2825	0.12	432565	keystroke	s	n/a
216.3425	0.12	432685	keystroke	Key.space	n/a
217.2275	0.09	434455	keystroke	s	n/a
217.4825	0.075	434965	keystroke	t	n/a
217.5725	0.09	435145	keystroke	u	n/a
217.7375	0.105	435475	keystroke	d	n/a
217.8575	0.075	435715	keystroke	i	n/a
218.0075	0.105	436015	keystroke	o	n/a
218.1575	0.105	436315	keystroke	s	n/a
218.2475	0.12	436495	keystroke	Key.space	n/a
218.6525	0.09	437305	keystroke	o	n/a
218.9825	0.075	437965	keystroke	u	n/a
219.0875	0.075	438175	keystroke	t	n/a
219.4775	0.09	438955	keystroke	d	n/a
219.6275	0.06	439255	keystroke	o	n/a
219.7625	0.09	439525	keystroke	o	n/a
220.5725	0.075	441145	keystroke	t	n/a
221.0225	0.075	442045	keystroke	Key.space	n/a
221.8025	0.12	443605	keystroke	Key.backspace	n/a
221.9375	0.03	443875	keystroke	Key.backspace	n/a
221.9525	0.105	443905	keystroke	r	n/a
222.6575	0.075	445315	keystroke	Key.space	n/a
222.7925	0.105	445585	keystroke	d	n/a
222.9125	0.09	445825	keystroke	u	n/a
223.1225	0.075	446245	keystroke	m	n/a
223.3175	0.015	446635	keystroke	m	n/a
223.6475	0.075	447295	keystroke	i	n/a
223.8125	0.06	447625	keystroke	t	n/a
224.1425	0.06	448285	keystroke	Key.backspace	n/a
224.2625	0.105	448525	keystroke	Key.backspace	n/a
224.4275	0.09	448855	keystroke	Key.backspace	n/a
224.5925	0.09	449185	keystroke	Key.backspace	n/a
224.7725	0.09	449545	keystroke	Key.backspace	n/a
224.9675	0.12	449935	keystroke	Key.backspace	n/a
225.6275	0.075	451255	keystroke	s	n/a
225.7175	0.09	451435	keystroke	u	n/a
225.9875	0.075	451975	keystroke	m	n/a
226.1225	0.09	452245	keystroke	m	n/a
226.3025	0.075	452605	keystroke	i	n/a
226.5425	0.09	453085	keystroke	t	n/a
227.0375	0.045	454075	keystroke	Key.enter	n/a
227.087	6.4475	454174	prompt	n/a	tahoe closed restored chan\n
227.968	0.075	455936	keystroke	t	n/a
228.088	0.105	456176	keystroke	a	n/a
228.163	0.075	456326	keystroke	h	n/a
228.373	0.09	456746	keystroke	o	n/a
228.493	0.105	456986	keystroke	e	n/a
228.613	0.105	457226	keystroke	Key.space	n/a
228.883	0.09	457766	keystroke	c	n/a
228.988	0.09	457976	keystroke	l	n/a
229.183	0.09	458366	keystroke	o	n/a
229.303	0.09	458606	keystroke	s	n/a
229.512	0.106	459024	keystroke	e	n/a
230.203	0.12	460406	keystroke	d	n/a
230.3975	0.12	460795	keystroke	Key.space	n/a
230.8175	0.09	461635	keystroke	r	n/a
231.0125	0.045	462025	keystroke	e	n/a
231.1625	0.09	462325	keystroke	s	n/a
231.4475	0.06	462895	keystroke	t	n/a
231.5375	0.09	463075	keystroke	o	n/a
231.7775	0.06	463555	keystroke	r	n/a
231.9575	0.06	463915	keystroke	e	n/a
232.1525	0.075	464305	keystroke	d	n/a
232.3325	0.105	464665	keystroke	Key.space	n/a
232.7825	0.075	465565	keystroke	c	n/a
232.8725	0.09	465745	keystroke	h	n/a
233.0225	0.105	466045	keystroke	a	n/a
233.1125	0.09	466225	keystroke	n	n/a
233.4725	0.06	466945	keystroke	Key.enter	n/a
233.537	10.962	467074	prompt	n/a	resorts fragrances company but\n
234.4475	0.09	468895	keystroke	r	n/a
234.5525	0.075	469105	keystroke	e	n/a
234.7625	0.075	469525	keystroke	s	n/a
235.2725	0.06	470545	keystroke	o	n/a
235.3625	0.075	470725	keystroke	r	n/a
235.5575	0.075	471115	keystroke	t	n/a
235.7675	0.105	471535	keystroke	s	n/a
235.8575	0.12	471715	keystroke	Key.space	n/a
236.3675	0.09	472735	keystroke	g	n/a
236.5625	0.09	473125	keystroke	r	n/a
236.6975	0.105	473395	keystroke	a	n/a
237.2075	0.06	474415	keystroke	n	n/a
237.4775	0.075	474955	keystroke	Key.backspace	n/a
237.6125	0.09	475225	keystroke	Key.backspace	n/a
237.7925	0.075	475585	keystroke	Key.backspace	n/a
237.9875	0.075	475975	keystroke	Key.backspace	n/a
238.4375	0.06	476875	keystroke	g	n/a
238.7825	0.075	477565	keystroke	Key.backspace	n/a
238.8875	0.075	477775	keystroke	f	n/a
239.1125	0.09	478225	keystroke	r	n/a
239.2175	0.105	478435	keystroke	a	n/a
240.5675	0.09	481135	keystroke	g	n/a
240.7625	0.075	481525	keystroke	r	n/a
240.8975	0.105	481795	keystroke	a	n/a
241.0625	0.09	482125	keystroke	n	n/a
241.5575	0.06	483115	keystroke	c	n/a
241.6325	0.105	483265	keystroke	e	n/a
241.8725	0.105	483745	keystroke	s	n/a
241.9475	0.12	483895	keystroke	Key.space	n/a
242.2925	0.105	484585	keystroke	c	n/a
242.4725	0.09	484945	keystroke	o	n/a
242.6825	0.075	485365	keystroke	m	n/a
242.8475	0.09	485695	keystroke	p	n/a
242.9675	0.09	485935	keystroke	a	n/a
243.1025	0.105	486205	keystroke	n	n/a
243.3875	0.075	486775	keystroke	y	n/a
243.4775	0.105	486955	keystroke	Key.space	n/a
243.7475	0.09	487495	keystroke	b	n/a
243.9275	0.09	487855	keystroke	u	n/a
244.0625	0.075	488125	keystroke	t	n/a
244.4375	0.06	488875	keystroke	Key.enter	n/a
244.502	9.537	489004	prompt	n/a	gentle holy ensures outlets\n
245.3075	0.06	490615	keystroke	g	n/a
245.6375	0.045	491275	keystroke	e	n/a
245.7725	0.09	491545	keystroke	n	n/a
245.9225	0.075	491845	keystroke	t	n/a
246.1175	0.075	492235	keystroke	l	n/a
246.2225	0.15	492445	keystroke	e	n/a
246.3425	0.105	492685	keystroke	Key.space	n/a
246.6575	0.045	493315	keystroke	g	n/a
246.8375	0.09	493675	keystroke	o	n/a
247.2425	0.075	494485	keystroke	Key.backspace	n/a
247.3775	0.105	494755	keystroke	Key.backspace	n/a
247.8875	0.06	495775	keystroke	h	n/a
248.0225	0.105	496045	keystroke	o	n/a
248.4575	0.09	496915	keystroke	l	n/a
248.7275	0.075	497455	keystroke	y	n/a
248.8475	0.105	497695	keystroke	Key.space	n/a
249.3275	0.075	498655	keystroke	e	n/a
249.4475	0.09	498895	keystroke	n	n/a
249.5825	0.105	499165	keystroke	s	n/a
249.7025	0.075	499405	keystroke	u	n/a
250.0175	0.09	500035	keystroke	r	n/a
250.1825	0.09	500365	keystroke	e	n/a
250.3925	0.09	500785	keystroke	s	n/a
250.4375	0.105	500875	keystroke	Key.space	n/a
251.1425	0.075	502285	keystroke	o	n/a
251.3525	0.075	502705	keystroke	u	n/a
251.5025	0.06	503005	keystroke	t	n/a
251.6975	0.075	503395	keystroke	l	n/a
252.0275	0.105	504055	keystroke	e	n/a
252.7025	0.09	505405	keystroke	t	n/a
252.8825	0.09	505765	keystroke	s	n/a
253.9625	0.075	507925	keystroke	Key.enter	n/a
254.043	8.3665	508086	prompt	n/a	creativity anyone fate wars\n
255.0875	0.075	510175	keystroke	c	n/a
255.2675	0.075	510535	keystroke	r	n/a
255.3575	0.09	510715	keystroke	e	n/a
255.5825	0.12	511165	keystroke	a	n/a
255.9725	0.075	511945	keystroke	t	n/a
256.0775	0.09	512155	keystroke	i	n/a
257.022	0.09	514044	keystroke	v	n/a
257.127	0.105	514254	keystroke	i	n/a
257.322	0.06	514644	keystroke	t	n/a
257.532	0.105	515064	keystroke	y	n/a
257.667	0.105	515334	keystroke	Key.space	n/a
257.908	0.089	515816	keystroke	a	n/a
258.013	0.089	516026	keystroke	n	n/a
258.238	0.075	516476	keystroke	u	n/a
258.672	0.091	517344	keystroke	Key.backspace	n/a
258.972	0.075	517944	keystroke	y	n/a
259.153	0.105	518306	keystroke	o	n/a
259.347	0.091	518694	keystroke	n	n/a
259.468	0.12	518936	keystroke	e	n/a
259.557	0.12	519114	keystroke	Key.space	n/a
259.992	0.091	519984	keystroke	f	n/a
260.247	0.105	520494	keystroke	a	n/a
260.367	0.105	520734	keystroke	t	n/a
260.547	0.121	521094	keystroke	e	n/a
260.637	0.12	521274	keystroke	Key.space	n/a
260.878	0.09	521756	keystroke	w	n/a
261.117	0.105	522234	keystroke	a	n/a
261.313	0.09	522626	keystroke	t	n/a
261.478	0.09	522956	keystroke	s	n/a
261.733	0.059	523466	keystroke	Key.backspace	n/a
261.882	0.09	523764	keystroke	Key.backspace	n/a
261.928	0.105	523856	keystroke	r	n/a
262.183	0.105	524366	keystroke	s	n/a
262.348	0.06	524696	keystroke	Key.enter	n/a
262.4125	15.3715	524825	prompt	n/a	jason largely interim chief\n
263.368	0.075	526736	keystroke	j	n/a
263.458	0.12	526916	keystroke	a	n/a
263.593	0.105	527186	keystroke	s	n/a
263.743	0.09	527486	keystroke	o	n/a
263.938	0.105	527876	keystroke	n	n/a
264.058	0.105	528116	keystroke	Key.space	n/a
264.538	0.075	529076	keystroke	l	n/a
264.658	0.105	529316	keystroke	a	n/a
264.898	0.06	529796	keystroke	r	n/a
265.003	0.09	530006	keystroke	g	n/a
265.138	0.09	530276	keystroke	e	n/a
265.348	0.105	530696	keystroke	r	n/a
265.468	0.09	530936	keystroke	l	n/a
265.843	0.06	531686	keystroke	y	n/a
266.248	0.06	532496	keystroke	Key.backspace	n/a
266.398	0.075	532796	keystroke	Key.backspace	n/a
266.563	0.09	533126	keystroke	Key.backspace	n/a
266.818	0.09	533636	keystroke	l	n/a
267.178	0.045	534356	keystroke	y	n/a
267.343	0.105	534686	keystroke	Key.space	n/a
267.778	0.045	535556	keystroke	i	n/a
268.408	0.0445	536816	keystroke	n	n/a
268.6175	0.06	537235	keystroke	t	n/a
268.6925	0.075	537385	keystroke	e	n/a
268.8575	0.12	537715	keystroke	r	n/a
268.9625	0.075	537925	keystroke	i	n/a
269.1125	0.105	538225	keystroke	n	n/a
269.2025	0.09	538405	keystroke	Key.space	n/a
269.4125	0.105	538825	keystroke	c	n/a
269.5025	0.105	539005	keystroke	h	n/a
269.6825	0.12	539365	keystroke	i	n/a
269.8325	0.09	539665	keystroke	e	n/a
270.8675	0.06	541735	keystroke	g	n/a
271.3625	0.09	542725	keystroke	Key.backspace	n/a
271.4375	0.06	542875	keystroke	f	n/a
273.402	0.06	546804	keystroke	Key.backspace	n/a
273.552	0.09	547104	keystroke	Key.backspace	n/a
273.912	0.075	547824	keystroke	Key.backspace	n/a
274.077	0.06	548154	keystroke	Key.backspace	n/a
274.302	0.06	548604	keystroke	Key.backspace	n/a
274.467	0.06	548934	keystroke	Key.backspace	n/a
274.602	0.105	549204	keystroke	Key.backspace	n/a
275.217	0.075	550434	keystroke	m	n/a
275.307	0.12	550614	keystroke	Key.space	n/a
275.683	0.089	551366	keystroke	c	n/a
275.758	0.075	551516	keystroke	h	n/a
275.877	0.12	551754	keystroke	i	n/a
275.982	0.076	551964	keystroke	e	n/a
276.312	0.09	552624	keystroke	g	n/a
276.822	0.045	553644	keystroke	Key.backspace	n/a
276.897	0.075	553794	keystroke	f	n/a
277.722	0.06	555444	keystroke	Key.enter	n/a
277.788	10.3915	555576	prompt	n/a	receptor trees boulder detect\n
278.742	0.06	557484	keystroke	r	n/a
278.847	0.09	557694	keystroke	e	n/a
278.923	0.104	557846	keystroke	c	n/a
279.117	0.075	558234	keystroke	e	n/a
279.267	0.091	558534	keystroke	p	n/a
279.447	0.075	558894	keystroke	t	n/a
279.912	0.046	559824	keystroke	o	n/a
280.677	0.12	561354	keystroke	r	n/a
280.798	0.104	561596	keystroke	Key.space	n/a
281.548	0.135	563096	keystroke	t	n/a
281.712	0.09	563424	keystroke	r	n/a
281.803	0.089	563606	keystroke	e	n/a
282.058	0.075	564116	keystroke	s	n/a
282.238	0.074	564476	keystroke	s	n/a
283.108	0.059	566216	keystroke	Key.backspace	n/a
283.227	0.12	566454	keystroke	Key.backspace	n/a
283.317	0.076	566634	keystroke	e	n/a
283.528	0.119	567056	keystroke	s	n/a
283.617	0.105	567234	keystroke	Key.space	n/a
284.698	0.075	569396	keystroke	b	n/a
284.848	0.12	569696	keystroke	o	n/a
285.028	0.09	570056	keystroke	u	n/a
285.238	0.09	570476	keystroke	l	n/a
285.343	0.09	570686	keystroke	d	n/a
285.538	0.075	571076	keystroke	e	n/a
285.703	0.105	571406	keystroke	r	n/a
285.763	0.105	571526	keystroke	Key.space	n/a
286.333	0.075	572666	keystroke	d	n/a
286.423	0.09	572846	keystroke	e	n/a
286.708	0.09	573416	keystroke	l	n/a
286.783	0.075	573566	keystroke	e	n/a
287.008	0.075	574016	keystroke	c	n/a
287.173	0.075	574346	keystroke	t	n/a
287.338	0.105	574676	keystroke	Key.space	n/a
287.713	0.09	575426	keystroke	Key.backspace	n/a
288.118	0.06	576236	keystroke	Key.enter	n/a
288.1825	10.873	576365	prompt	n/a	mysql leaf cnet reviewing\n
290.714	0.013	581428	keystroke	m	n/a
290.907	0.075	581814	keystroke	y	n/a
291.042	0.105	582084	keystroke	s	n/a
291.312	0.12	582624	keystroke	q	n/a
291.717	0.03	583434	keystroke	l	n/a
292.707	0.075	585414	keystroke	Key.space	n/a
292.842	0.09	585684	keystroke	l	n/a
292.962	0.105	585924	keystroke	e	n/a
293.187	0.135	586374	keystroke	a	n/a
293.412	0.09	586824	keystroke	f	n/a
293.577	0.09	587154	keystroke	Key.space	n/a
294.762	0.075	589524	keystroke	c	n/a
294.882	0.09	589764	keystroke	n	n/a
295.017	0.075	590034	keystroke	e	n/a
295.197	0.075	590394	keystroke	t	n/a
295.332	0.105	590664	keystroke	Key.space	n/a
295.962	0.091	591924	keystroke	r	n/a
296.083	0.119	592166	keystroke	e	n/a
296.562	0.015	593124	keystroke	v	n/a
296.682	0.09	593364	keystroke	i	n/a
296.787	0.091	593574	keystroke	e	n/a
297.837	0.075	595674	keystroke	w	n/a
297.987	0.09	595974	keystroke	i	n/a
298.227	0.075	596454	keystroke	n	n/a
298.362	0.091	596724	keystroke	g	n/a
298.992	0.061	597984	keystroke	Key.enter	n/a
299.0585	7.405	598117	prompt	n/a	cradle duties houses chart\n
300.073	0.089	600146	keystroke	c	n/a
300.312	0.091	600624	keystroke	r	n/a
300.462	0.105	600924	keystroke	a	n/a
300.552	0.09	601104	keystroke	d	n/a
301.392	0.09	602784	keystroke	l	n/a
301.512	0.135	603024	keystroke	e	n/a
301.632	0.105	603264	keystroke	Key.space	n/a
301.887	0.091	603774	keystroke	d	n/a
302.037	0.091	604074	keystroke	u	n/a
302.217	0.105	604434	keystroke	t	n/a
302.367	0.12	604734	keystroke	i	n/a
302.532	0.09	605064	keystroke	e	n/a
302.787	0.15	605574	keystroke	s	n/a
302.907	0.105	605814	keystroke	Key.space	n/a
303.147	0.075	606294	keystroke	h	n/a
303.342	0.105	606684	keystroke	o	n/a
303.567	0.075	607134	keystroke	u	n/a
303.672	0.06	607344	keystroke	e	n/a
303.957	0.075	607914	keystroke	Key.backspace	n/a
304.048	0.059	608096	keystroke	s	n/a
304.212	0.075	608424	keystroke	e	n/a
304.407	0.135	608814	keystroke	s	n/a
304.512	0.12	609024	keystroke	Key.space	n/a
304.798	0.074	609596	keystroke	c	n/a
304.918	0.089	609836	keystroke	h	n/a
305.053	0.119	610106	keystroke	a	n/a
305.217	0.076	610434	keystroke	t	n/a
305.592	0.075	611184	keystroke	Key.backspace	n/a
305.623	0.105	611246	keystroke	r	n/a
305.847	0.075	611694	keystroke	t	n/a
306.387	0.075	612774	keystroke	Key.enter	n/a
306.4675	8.6815	612935	prompt	n/a	let's unwrap posters valuable\n
307.4675	0.0745	614935	keystroke	l	n/a
307.5875	0.075	615175	keystroke	e	n/a
307.7825	0.06	615565	keystroke	t	n/a
308.3075	0.06	616615	keystroke	'	n/a
308.4875	0.119	616975	keystroke	s	n/a
308.6215	0.076	617243	keystroke	Key.space	n/a
309.5225	0.045	619045	keystroke	u	n/a
309.6875	0.09	619375	keystroke	n	n/a
309.8525	0.09	619705	keystroke	w	n/a
310.1675	0.09	620335	keystroke	r	n/a
310.3025	0.105	620605	keystroke	a	n/a
310.4825	0.09	620965	keystroke	p	n/a
310.6315	0.106	621263	keystroke	Key.space	n/a
310.9925	0.075	621985	keystroke	p	n/a
311.1275	0.09	622255	keystroke	o	n/a
311.2325	0.09	622465	keystroke	s	n/a
311.5175	0.075	623035	keystroke	t	n/a
312.2075	0.075	624415	keystroke	e	n/a
312.3725	0.075	624745	keystroke	r	n/a
312.7325	0.105	625465	keystroke	s	n/a
312.9575	0.09	625915	keystroke	Key.space	n/a
313.4225	0.075	626845	keystroke	v	n/a
313.5425	0.09	627085	keystroke	a	n/a
313.6625	0.105	627325	keystroke	l	n/a
313.8875	0.075	627775	keystroke	u	n/a
313.9475	0.12	627895	keystroke	a	n/a
314.1725	0.09	628345	keystroke	b	n/a
314.3975	0.075	628795	keystroke	l	n/a
314.5025	0.09	629005	keystroke	e	n/a
315.0575	0.09	630115	keystroke	Key.enter	n/a
315.1535	9.1755	630307	prompt	n/a	candles came incorporate width\n
316.1525	0.075	632305	keystroke	c	n/a
316.4975	0.09	632995	keystroke	a	n/a
316.6175	0.075	633235	keystroke	n	n/a
316.7525	0.075	633505	keystroke	d	n/a
316.9475	0.075	633895	keystroke	l	n/a
317.0375	0.075	634075	keystroke	e	n/a
317.2475	0.12	634495	keystroke	s	n/a
317.3225	0.105	634645	keystroke	Key.space	n/a
317.5475	0.09	635095	keystroke	c	n/a
317.7425	0.105	635485	keystroke	a	n/a
317.8625	0.06	635725	keystroke	m	n/a
317.9675	0.12	635935	keystroke	e	n/a
318.0575	0.135	636115	keystroke	Key.space	n/a
318.2375	0.075	636475	keystroke	i	n/a
318.4325	0.09	636865	keystroke	n	n/a
318.7325	0.09	637465	keystroke	c	n/a
318.8825	0.09	637765	keystroke	o	n/a
319.6175	0.045	639235	keystroke	r	n/a
319.7825	0.075	639565	keystroke	m	n/a
320.0975	0.045	640195	keystroke	Key.backspace	n/a
320.2025	0.09	640405	keystroke	p	n/a
320.3825	0.105	640765	keystroke	o	n/a
320.4725	0.09	640945	keystroke	r	n/a
320.9225	0.12	641845	keystroke	a	n/a
321.3125	0.09	642625	keystroke	t	n/a
321.4175	0.105	642835	keystroke	e	n/a
321.4925	0.12	642985	keystroke	Key.space	n/a
321.8375	0.105	643675	keystroke	w	n/a
321.9575	0.09	643915	keystroke	i	n/a
323.2625	0.06	646525	keystroke	d	n/a
323.3675	0.075	646735	keystroke	t	n/a
323.5775	0.075	647155	keystroke	h	n/a
324.2825	0.045	648565	keystroke	Key.enter	n/a
324.3325	8.2765	648665	prompt	n/a	degree showed precious mating\n
325.5575	0.075	651115	keystroke	d	n/a
325.6925	0.075	651385	keystroke	e	n/a
325.8125	0.075	651625	keystroke	g	n/a
326.0225	0.06	652045	keystroke	r	n/a
326.1275	0.06	652255	keystroke	e	n/a
326.2775	0.12	652555	keystroke	e	n/a
326.3825	0.105	652765	keystroke	Key.space	n/a
326.6825	0.09	653365	keystroke	s	n/a
326.8175	0.09	653635	keystroke	h	n/a
327.0125	0.075	654025	keystroke	o	n/a
327.1475	0.09	654295	keystroke	w	n/a
327.3575	0.075	654715	keystroke	e	n/a
327.5825	0.105	655165	keystroke	d	n/a
327.6575	0.12	655315	keystroke	Key.space	n/a
328.5275	0.075	657055	keystroke	p	n/a
328.7075	0.045	657415	keystroke	e	n/a
329.0225	0.09	658045	keystroke	Key.backspace	n/a
329.0975	0.1345	658195	keystroke	r	n/a
329.218	0.074	658436	keystroke	e	n/a
329.442	0.09	658884	keystroke	c	n/a
329.548	0.075	659096	keystroke	i	n/a
330.432	0.06	660864	keystroke	o	n/a
330.627	0.075	661254	keystroke	u	n/a
330.748	0.12	661496	keystroke	s	n/a
330.852	0.121	661704	keystroke	Key.space	n/a
331.257	0.0905	662514	keystroke	m	n/a
331.3775	0.09	662755	keystroke	a	n/a
331.6475	0.06	663295	keystroke	t	n/a
331.7225	0.075	663445	keystroke	i	n/a
331.8875	0.09	663775	keystroke	n	n/a
332.0075	0.06	664015	keystroke	g	n/a
332.5625	0.045	665125	keystroke	Key.enter	n/a
332.6125	15.8675	665225	prompt	n/a	happened jonathan characteristics hypothetical\n
333.4775	0.075	666955	keystroke	h	n/a
333.6125	0.12	667225	keystroke	a	n/a
333.7925	0.075	667585	keystroke	p	n/a
334.2875	0.045	668575	keystroke	Key.backspace	n/a
334.7975	0.045	669595	keystroke	p	n/a
334.9175	0.09	669835	keystroke	p	n/a
335.0375	0.075	670075	keystroke	e	n/a
335.1735	0.074	670347	keystroke	n	n/a
335.2625	0.09	670525	keystroke	e	n/a
335.5325	0.135	671065	keystroke	d	n/a
335.6375	0.12	671275	keystroke	Key.space	n/a
336.1175	0.075	672235	keystroke	j	n/a
336.2375	0.105	672475	keystroke	o	n/a
336.5525	0.105	673105	keystroke	a	n/a
336.6725	0.075	673345	keystroke	n	n/a
337.0025	0.06	674005	keystroke	Key.backspace	n/a
337.1375	0.075	674275	keystroke	Key.backspace	n/a
337.3475	0.075	674695	keystroke	n	n/a
337.4375	0.09	674875	keystroke	a	n/a
337.6025	0.09	675205	keystroke	t	n/a
337.8125	0.0755	675625	keystroke	h	n/a
337.9175	0.09	675835	keystroke	a	n/a
338.038	0.0745	676076	keystroke	n	n/a
338.2025	0.09	676405	keystroke	Key.space	n/a
339.358	0.075	678716	keystroke	c	n/a
339.478	0.09	678956	keystroke	h	n/a
339.613	0.09	679226	keystroke	a	n/a
340.558	0.075	681116	keystroke	r	n/a
340.678	0.09	681356	keystroke	a	n/a
340.753	0.09	681506	keystroke	c	n/a
341.098	0.06	682196	keystroke	t	n/a
341.188	0.09	682376	keystroke	e	n/a
341.398	0.075	682796	keystroke	r	n/a
341.758	0.105	683516	keystroke	i	n/a
342.133	0.09	684266	keystroke	s	n/a
342.508	0.075	685016	keystroke	t	n/a
342.643	0.09	685286	keystroke	i	n/a
342.838	0.105	685676	keystroke	c	n/a
343.093	0.12	686186	keystroke	s	n/a
343.273	0.09	686546	keystroke	Key.space	n/a
344.083	0.09	688166	keystroke	h	n/a
344.278	0.09	688556	keystroke	y	n/a
344.578	0.06	689156	keystroke	t	n/a
344.878	0.06	689756	keystroke	Key.backspace	n/a
345.043	0.09	690086	keystroke	p	n/a
345.238	0.075	690476	keystroke	o	n/a
345.883	0.075	691766	keystroke	t	n/a
345.988	0.09	691976	keystroke	h	n/a
346.153	0.09	692306	keystroke	e	n/a
346.543	0.06	693086	keystroke	t	n/a
346.678	0.075	693356	keystroke	i	n/a
346.933	0.091	693866	keystroke	c	n/a
347.233	0.09	694466	keystroke	a	n/a
347.353	0.06	694706	keystroke	l	n/a
348.418	0.06	696836	keystroke	Key.enter	n/a
348.4835	10.512	696967	prompt	n/a	newfoundland raid floral stolen\n
349.768	0.06	699536	keystroke	n	n/a
349.993	0.06	699986	keystroke	e	n/a
350.188	0.105	700376	keystroke	w	n/a
351.163	0.075	702326	keystroke	f	n/a
351.284	0.074	702568	keystroke	o	n/a
351.478	0.075	702956	keystroke	u	n/a
351.674	0.089	703348	keystroke	n	n/a
351.928	0.075	703856	keystroke	d	n/a
352.124	0.075	704248	keystroke	l	n/a
352.768	0.075	705536	keystroke	a	n/a
352.903	0.075	705806	keystroke	n	n/a
353.008	0.135	706016	keystroke	d	n/a
353.683	0.091	707366	keystroke	Key.space	n/a
353.893	0.091	707786	keystroke	r	n/a
353.999	0.105	707998	keystroke	a	n/a
354.194	0.074	708388	keystroke	i	n/a
354.328	0.121	708656	keystroke	d	n/a
354.463	0.12	708926	keystroke	Key.space	n/a
355.529	0.059	711058	keystroke	f	n/a
355.618	0.091	711236	keystroke	l	n/a
355.799	0.075	711598	keystroke	o	n/a
355.889	0.074	711778	keystroke	r	n/a
356.114	0.12	712228	keystroke	a	n/a
356.264	0.075	712528	keystroke	l	n/a
356.383	0.091	712766	keystroke	Key.space	n/a
356.624	0.09	713248	keystroke	s	n/a
356.759	0.06	713518	keystroke	o	n/a
357.224	0.075	714448	keystroke	t	n/a
357.433	0.075	714866	keystroke	Key.backspace	n/a
357.583	0.091	715166	keystroke	Key.backspace	n/a
357.689	0.06	715378	keystroke	t	n/a
357.779	0.09	715558	keystroke	o	n/a
357.989	0.075	715978	keystroke	l	n/a
358.079	0.074	716158	keystroke	e	n/a
358.349	0.06	716698	keystroke	n	n/a
358.933	0.061	717866	keystroke	Key.enter	n/a
358.9985	8.4565	717997	prompt	n/a	testament mentor config violin\n
359.924	0.09	719848	keystroke	t	n/a
360.044	0.075	720088	keystroke	e	n/a
360.434	0.075	720868	keystroke	s	n/a
360.584	0.09	721168	keystroke	t	n/a
360.689	0.09	721378	keystroke	a	n/a
361.784	0.075	723568	keystroke	m	n/a
361.904	0.09	723808	keystroke	e	n/a
362.009	0.075	724018	keystroke	n	n/a
362.159	0.12	724318	keystroke	t	n/a
362.249	0.09	724498	keystroke	Key.space	n/a
362.414	0.09	724828	keystroke	m	n/a
362.519	0.105	725038	keystroke	e	n/a
362.639	0.09	725278	keystroke	n	n/a
362.789	0.075	725578	keystroke	t	n/a
362.924	0.075	725848	keystroke	o	n/a
363.029	0.135	726058	keystroke	r	n/a
363.134	0.105	726268	keystroke	Key.space	n/a
363.404	0.09	726808	keystroke	c	n/a
363.509	0.075	727018	keystroke	o	n/a
363.659	0.105	727318	keystroke	n	n/a
364.184	0.09	728368	keystroke	f	n/a
364.289	0.075	728578	keystroke	i	n/a
364.439	0.12	728878	keystroke	g	n/a
364.574	0.12	729148	keystroke	Key.space	n/a
364.919	0.105	729838	keystroke	c	n/a
365.039	0.075	730078	keystroke	i	n/a
365.219	0.075	730438	keystroke	o	n/a
365.474	0.06	730948	keystroke	Key.backspace	n/a
365.6235	0.165	731247	keystroke	Key.backspace	n/a
365.8935	0.09	731787	keystroke	Key.backspace	n/a
365.9835	0.105	731967	keystroke	v	n/a
366.1935	0.09	732387	keystroke	i	n/a
366.3585	0.075	732717	keystroke	o	n/a
366.6135	0.075	733227	keystroke	l	n/a
366.8535	0.075	733707	keystroke	i	n/a
367.0485	0.09	734097	keystroke	n	n/a
367.3935	0.06	734787	keystroke	Key.enter	n/a
367.4585	10.107	734917	prompt	n/a	figure banner patents restored\n
368.4735	0.06	736947	keystroke	f	n/a
368.5635	0.105	737127	keystroke	i	n/a
368.8035	0.09	737607	keystroke	g	n/a
368.9535	0.105	737907	keystroke	u	n/a
369.0735	0.045	738147	keystroke	r	n/a
369.2235	0.135	738447	keystroke	e	n/a
369.3135	0.105	738627	keystroke	Key.space	n/a
369.7945	0.074	739589	keystroke	b	n/a
369.9135	0.105	739827	keystroke	a	n/a
370.0335	0.075	740067	keystroke	n	n/a
370.1835	0.09	740367	keystroke	n	n/a
370.2885	0.075	740577	keystroke	e	n/a
370.4695	0.104	740939	keystroke	r	n/a
370.5435	0.105	741087	keystroke	Key.space	n/a
370.8435	0.09	741687	keystroke	p	n/a
370.9485	0.12	741897	keystroke	a	n/a
371.2485	0.09	742497	keystroke	t	n/a
371.3685	0.09	742737	keystroke	e	n/a
371.6085	0.061	743217	keystroke	b	n/a
372.0735	0.075	744147	keystroke	Key.backspace	n/a
372.3885	0.075	744777	keystroke	n	n/a
372.6135	0.075	745227	keystroke	t	n/a
372.7035	0.091	745407	keystroke	e	n/a
372.9135	0.106	745827	keystroke	s	n/a
373.0195	0.074	746039	keystroke	Key.space	n/a
373.3635	0.075	746727	keystroke	r	n/a
373.558	0.075	747116	keystroke	e	n/a
373.753	0.1055	747506	keystroke	s	n/a
374.0085	0.075	748017	keystroke	Key.backspace	n/a
374.143	0.0905	748286	keystroke	Key.backspace	n/a
374.293	0.105	748586	keystroke	Key.backspace	n/a
374.473	0.105	748946	keystroke	Key.backspace	n/a
374.638	0.105	749276	keystroke	Key.backspace	n/a
374.908	0.075	749816	keystroke	s	n/a
375.028	0.075	750056	keystroke	Key.backspace	n/a
375.193	0.09	750386	keystroke	Key.backspace	n/a
375.239	0.119	750478	keystroke	s	n/a
375.328	0.105	750656	keystroke	Key.space	n/a
375.583	0.061	751166	keystroke	r	n/a
375.748	0.075	751496	keystroke	e	n/a
375.928	0.075	751856	keystroke	s	n/a
376.169	0.059	752338	keystroke	t	n/a
376.258	0.075	752516	keystroke	o	n/a
376.394	0.075	752788	keystroke	r	n/a
376.589	0.089	753178	keystroke	e	n/a
376.873	0.09	753746	keystroke	d	n/a
377.428	0.135	754856	keystroke	Key.enter	n/a
377.5685	8.8615	755137	prompt	n/a	peas discover urban ahead\n
378.328	0.0745	756656	keystroke	p	n/a
378.4625	0.091	756925	keystroke	e	n/a
378.7185	0.15	757437	keystroke	a	n/a
378.8525	0.15	757705	keystroke	s	n/a
379.0185	0.119	758037	keystroke	Key.space	n/a
379.6635	0.1195	759327	keystroke	d	n/a
379.8125	0.106	759625	keystroke	e	n/a
380.1725	0.075	760345	keystroke	Key.backspace	n/a
380.3385	0.105	760677	keystroke	i	n/a
380.4435	0.104	760887	keystroke	s	n/a
380.6535	0.119	761307	keystroke	c	n/a
381.2225	0.075	762445	keystroke	o	n/a
381.7185	0.03	763437	keystroke	v	n/a
381.7935	0.15	763587	keystroke	e	n/a
382.3185	0.105	764637	keystroke	r	n/a
382.4385	0.119	764877	keystroke	Key.space	n/a
382.7685	0.075	765537	keystroke	u	n/a
382.9035	0.105	765807	keystroke	r	n/a
383.1285	0.09	766257	keystroke	b	n/a
383.2785	0.09	766557	keystroke	a	n/a
383.3835	0.09	766767	keystroke	n	n/a
383.5485	0.134	767097	keystroke	Key.space	n/a
384.1635	0.12	768327	keystroke	a	n/a
384.3435	0.09	768687	keystroke	h	n/a
384.4785	0.06	768957	keystroke	e	n/a
384.6135	0.075	769227	keystroke	r	n/a
384.9435	0.075	769887	keystroke	Key.backspace	n/a
385.0485	0.12	770097	keystroke	a	n/a
385.2435	0.075	770487	keystroke	d	n/a
386.3835	0.045	772767	keystroke	Key.enter	n/a
386.433	7.902	772866	prompt	n/a	spin salad automatic heading\n
387.3135	0.09	774627	keystroke	s	n/a
387.5085	0.09	775017	keystroke	p	n/a
387.7185	0.075	775437	keystroke	i	n/a
387.8985	0.105	775797	keystroke	n	n/a
388.0485	0.105	776097	keystroke	Key.space	n/a
388.5135	0.09	777027	keystroke	s	n/a
388.7085	0.105	777417	keystroke	a	n/a
388.8285	0.09	777657	keystroke	l	n/a
389.1285	0.105	778257	keystroke	a	n/a
389.3235	0.135	778647	keystroke	d	n/a
389.5785	0.105	779157	keystroke	Key.space	n/a
390.1335	0.12	780267	keystroke	a	n/a
390.3735	0.06	780747	keystroke	u	n/a
390.4785	0.075	780957	keystroke	t	n/a
390.6885	0.06	781377	keystroke	o	n/a
390.8535	0.09	781707	keystroke	m	n/a
390.9885	0.12	781977	keystroke	a	n/a
391.3035	0.06	782607	keystroke	t	n/a
391.3935	0.09	782787	keystroke	i	n/a
391.5735	0.105	783147	keystroke	c	n/a
392.1435	0.09	784287	keystroke	Key.space	n/a
392.3535	0.075	784707	keystroke	h	n/a
392.4435	0.12	784887	keystroke	e	n/a
392.7435	0.135	785487	keystroke	a	n/a
393.0135	0.09	786027	keystroke	d	n/a
393.2085	0.09	786417	keystroke	i	n/a
393.4185	0.105	786837	keystroke	n	n/a
393.5535	0.105	787107	keystroke	g	n/a
394.2735	0.06	788547	keystroke	Key.enter	n/a
394.338	9.432	788676	prompt	n/a	invited lectures facility kirk\n
395.2185	0.075	790437	keystroke	i	n/a
395.3685	0.105	790737	keystroke	n	n/a
395.8335	0.09	791667	keystroke	v	n/a
395.9085	0.09	791817	keystroke	i	n/a
396.1335	0.09	792267	keystroke	t	n/a
396.2535	0.075	792507	keystroke	e	n/a
396.5235	0.12	793047	keystroke	d	n/a
396.6135	0.105	793227	keystroke	Key.space	n/a
397.2885	0.075	794577	keystroke	l	n/a
397.3785	0.06	794757	keystroke	e	n/a
397.7235	0.09	795447	keystroke	c	n/a
397.9785	0.075	795957	keystroke	t	n/a
398.0985	0.105	796197	keystroke	u	n/a
398.1885	0.09	796377	keystroke	r	n/a
398.3835	0.06	796767	keystroke	e	n/a
398.6385	0.12	797277	keystroke	s	n/a
398.7735	0.105	797547	keystroke	Key.space	n/a
399.2685	0.09	798537	keystroke	f	n/a
399.4785	0.09	798957	keystroke	a	n/a
400.0035	0.03	800007	keystroke	v	n/a
400.0935	0.075	800187	keystroke	i	n/a
400.4985	0.06	800997	keystroke	Key.backspace	n/a
400.6185	0.12	801237	keystroke	Key.backspace	n/a
400.7835	0.075	801567	keystroke	c	n/a
400.8885	0.09	801777	keystroke	i	n/a
401.1135	0.09	802227	keystroke	l	n/a
401.3385	0.09	802677	keystroke	i	n/a
401.4735	0.09	802947	keystroke	t	n/a
401.6535	0.09	803307	keystroke	y	n/a
401.8185	0.09	803637	keystroke	Key.space	n/a
402.4185	0.045	804837	keystroke	k	n/a
402.6735	0.075	805347	keystroke	i	n/a
402.8835	0.09	805767	keystroke	r	n/a
402.9885	0.09	805977	keystroke	k	n/a
403.7235	0.045	807447	keystroke	Key.enter	n/a
403.773	11.937	807546	prompt	n/a	tribute bent prepaid astrology\n
404.9535	0.075	809907	keystroke	t	n/a
405.0585	0.075	810117	keystroke	r	n/a
405.1935	0.105	810387	keystroke	i	n/a
405.5835	0.075	811167	keystroke	b	n/a
405.7185	0.09	811437	keystroke	u	n/a
405.9285	0.075	811857	keystroke	t	n/a
406.0485	0.12	812097	keystroke	e	n/a
406.1385	0.12	812277	keystroke	Key.space	n/a
406.8135	0.045	813627	keystroke	e	n/a
406.9185	0.075	813837	keystroke	b	n/a
407.158	0.075	814316	keystroke	Key.backspace	n/a
407.308	0.075	814616	keystroke	Key.backspace	n/a
407.533	0.09	815066	keystroke	b	n/a
407.638	0.075	815276	keystroke	e	n/a
407.758	0.105	815516	keystroke	n	n/a
408.148	0.075	816296	keystroke	t	n/a
408.283	0.135	816566	keystroke	Key.space	n/a
408.733	0.06	817466	keystroke	o	n/a
408.823	0.12	817646	keystroke	r	n/a
409.108	0.045	818216	keystroke	Key.backspace	n/a
409.2575	0.09	818515	keystroke	Key.backspace	n/a
409.3475	0.09	818695	keystroke	p	n/a
409.453	0.1195	818906	keystroke	r	n/a
409.5575	0.09	819115	keystroke	e	n/a
409.7975	0.075	819595	keystroke	p	n/a
409.9175	0.105	819835	keystroke	a	n/a
410.233	0.0895	820466	keystroke	i	n/a
410.4425	0.1055	820885	keystroke	d	n/a
410.653	0.1045	821306	keystroke	Key.space	n/a
411.5975	0.12	823195	keystroke	a	n/a
411.658	0.1345	823316	keystroke	s	n/a
411.8385	0.0895	823677	keystroke	t	n/a
412.0625	0.045	824125	keystroke	t	n/a
412.2275	0.075	824455	keystroke	o	n/a
412.4375	0.09	824875	keystroke	l	n/a
412.7225	0.06	825445	keystroke	Key.backspace	n/a
412.8575	0.09	825715	keystroke	Key.backspace	n/a
413.0075	0.135	826015	keystroke	Key.backspace	n/a
413.1725	0.105	826345	keystroke	r	n/a
413.3075	0.075	826615	keystroke	o	n/a
413.9975	0.075	827995	keystroke	l	n/a
414.1625	0.09	828325	keystroke	o	n/a
414.4925	0.046	828985	keystroke	g	n/a
414.6425	0.06	829285	keystroke	y	n/a
415.6625	0.045	831325	keystroke	Key.enter	n/a
415.714	12.1605	831428	prompt	n/a	cookie explosion scared ecommerce\n
416.728	0.06	833456	keystroke	c	n/a
416.848	0.075	833696	keystroke	o	n/a
416.998	0.09	833996	keystroke	o	n/a
417.148	0.105	834296	keystroke	k	n/a
417.403	0.09	834806	keystroke	i	n/a
417.553	0.075	835106	keystroke	e	n/a
417.823	0.105	835646	keystroke	Key.space	n/a
418.288	0.075	836576	keystroke	e	n/a
419.323	0.075	838646	keystroke	x	n/a
419.4275	0.075	838855	keystroke	p	n/a
419.5925	0.09	839185	keystroke	l	n/a
419.7725	0.075	839545	keystroke	o	n/a
419.8775	0.09	839755	keystroke	s	n/a
420.0885	0.075	840177	keystroke	i	n/a
420.2975	0.091	840595	keystroke	o	n/a
420.4925	0.09	840985	keystroke	n	n/a
420.6125	0.105	841225	keystroke	Key.space	n/a
420.8525	0.075	841705	keystroke	s	n/a
421.0775	0.09	842155	keystroke	c	n/a
421.3025	0.105	842605	keystroke	a	n/a
421.933	0.03	843866	keystroke	r	n/a
422.053	0.075	844106	keystroke	e	n/a
422.398	0.09	844796	keystroke	d	n/a
422.578	0.075	845156	keystroke	Key.space	n/a
423.7185	0.09	847437	keystroke	e	n/a
423.9585	0.09	847917	keystroke	c	n/a
424.0635	0.09	848127	keystroke	o	n/a
424.2435	0.09	848487	keystroke	n	n/a
424.5285	0.075	849057	keystroke	Key.backspace	n/a
424.7985	0.09	849597	keystroke	m	n/a
424.9335	0.09	849867	keystroke	e	n/a
425.2785	0.075	850557	keystroke	Key.backspace	n/a
425.4435	0.075	850887	keystroke	Key.backspace	n/a
425.7885	0.06	851577	keystroke	m	n/a
426.0285	0.015	852057	keystroke	m	n/a
426.1185	0.09	852237	keystroke	e	n/a
426.5985	0.045	853197	keystroke	r	n/a
426.9285	0.06	853857	keystroke	c	n/a
427.0335	0.06	854067	keystroke	e	n/a
427.8285	0.045	855657	keystroke	Key.enter	n/a
427.8805	9.5195	855761	prompt	n/a	electrical cakes gimme interior\n
428.8035	0.06	857607	keystroke	e	n/a
428.8935	0.09	857787	keystroke	l	n/a
429.0135	0.075	858027	keystroke	e	n/a
429.2085	0.09	858417	keystroke	c	n/a
429.4785	0.09	858957	keystroke	t	n/a
429.6285	0.03	859257	keystroke	t	n/a
429.6435	0.03	859287	keystroke	r	n/a
429.8685	0.09	859737	keystroke	i	n/a
430.2885	0.045	860577	keystroke	Key.backspace	n/a
430.4385	0.075	860877	keystroke	Key.backspace	n/a
430.5735	0.12	861147	keystroke	Key.backspace	n/a
430.6635	0.09	861327	keystroke	r	n/a
430.8135	0.09	861627	keystroke	i	n/a
430.9785	0.09	861957	keystroke	c	n/a
431.2035	0.105	862407	keystroke	a	n/a
431.3235	0.06	862647	keystroke	l	n/a
431.4585	0.105	862917	keystroke	Key.space	n/a
432.3735	0.09	864747	keystroke	c	n/a
432.5685	0.09	865137	keystroke	a	n/a
432.6735	0.075	865347	keystroke	k	n/a
432.8085	0.075	865617	keystroke	e	n/a
433.0185	0.165	866037	keystroke	s	n/a
433.1535	0.12	866307	keystroke	Key.space	n/a
433.3935	0.135	866787	keystroke	f	n/a
433.5585	0.09	867117	keystroke	i	n/a
433.9335	0.06	867867	keystroke	Key.backspace	n/a
434.0985	0.075	868197	keystroke	Key.backspace	n/a
434.2035	0.09	868407	keystroke	g	n/a
434.3085	0.075	868617	keystroke	i	n/a
434.5185	0.075	869037	keystroke	m	n/a
434.6685	0.105	869337	keystroke	m	n/a
434.7585	0.12	869517	keystroke	e	n/a
434.8335	0.135	869667	keystroke	Key.space	n/a
435.2985	0.045	870597	keystroke	i	n/a
435.4485	0.09	870897	keystroke	n	n/a
435.7485	0.105	871497	keystroke	t	n/a
435.8385	0.09	871677	keystroke	e	n/a
436.0035	0.12	872007	keystroke	r	n/a
436.1385	0.075	872277	keystroke	i	n/a
436.3335	0.09	872667	keystroke	o	n/a
436.4385	0.09	872877	keystroke	r	n/a
437.2635	0.135	874527	keystroke	Key.enter	n/a
437.4045	10.9005	874809	prompt	n/a	development religious diamonds seemed\n
438.7035	0.09	877407	keystroke	d	n/a
438.8385	0.105	877677	keystroke	e	n/a
439.1535	0.075	878307	keystroke	v	n/a
439.2735	0.075	878547	keystroke	e	n/a
439.4385	0.106	878877	keystroke	l	n/a
439.6635	0.06	879327	keystroke	o	n/a
439.8885	0.075	879777	keystroke	p	n/a
440.1285	0.075	880257	keystroke	m	n/a
440.2335	0.09	880467	keystroke	e	n/a
440.3985	0.09	880797	keystroke	n	n/a
440.5185	0.12	881037	keystroke	t	n/a
440.6385	0.12	881277	keystroke	Key.space	n/a
441.3285	0.09	882657	keystroke	r	n/a
441.4635	0.105	882927	keystroke	e	n/a
441.6135	0.09	883227	keystroke	l	n/a
441.8385	0.09	883677	keystroke	i	n/a
442.2285	0.06	884457	keystroke	g	n/a
442.3335	0.045	884667	keystroke	i	n/a
442.4985	0.075	884997	keystroke	o	n/a
443.2185	0.075	886437	keystroke	u	n/a
443.3085	0.15	886617	keystroke	s	n/a
443.4435	0.12	886887	keystroke	Key.space	n/a
443.6535	0.12	887307	keystroke	d	n/a
443.8185	0.09	887637	keystroke	i	n/a
443.9685	0.09	887937	keystroke	a	n/a
444.1035	0.09	888207	keystroke	m	n/a
444.2685	0.09	888537	keystroke	o	n/a
444.4935	0.075	888987	keystroke	n	n/a
444.5985	0.09	889197	keystroke	d	n/a
444.8235	0.15	889647	keystroke	s	n/a
444.9585	0.105	889917	keystroke	Key.space	n/a
445.2735	0.075	890547	keystroke	s	n/a
445.4535	0.0745	890907	keystroke	e	n/a
445.558	0.06	891116	keystroke	m	n/a
445.723	0.09	891446	keystroke	m	n/a
446.068	0.06	892136	keystroke	Key.backspace	n/a
446.203	0.09	892406	keystroke	Key.backspace	n/a
446.488	0.09	892976	keystroke	e	n/a
446.653	0.09	893306	keystroke	m	n/a
446.818	0.06	893636	keystroke	e	n/a
447.013	0.075	894026	keystroke	d	n/a
448.243	0.06	896486	keystroke	Key.enter	n/a
448.3075	8.3525	896615	prompt	n/a	controllers franchise iceland may\n
449.128	0.06	898256	keystroke	c	n/a
449.203	0.075	898406	keystroke	o	n/a
449.368	0.105	898736	keystroke	n	n/a
449.5625	0.045	899125	keystroke	t	n/a
449.7125	0.075	899425	keystroke	r	n/a
449.8175	0.075	899635	keystroke	o	n/a
450.0125	0.075	900025	keystroke	l	n/a
450.163	0.0745	900326	keystroke	l	n/a
450.223	0.0895	900446	keystroke	e	n/a
450.3875	0.105	900775	keystroke	r	n/a
450.7025	0.165	901405	keystroke	s	n/a
450.8825	0.075	901765	keystroke	Key.space	n/a
451.5875	0.06	903175	keystroke	f	n/a
451.7525	0.075	903505	keystroke	r	n/a
451.8575	0.09	903715	keystroke	a	n/a
452.0525	0.06	904105	keystroke	n	n/a
452.1725	0.09	904345	keystroke	c	n/a
452.2775	0.075	904555	keystroke	h	n/a
452.4275	0.09	904855	keystroke	i	n/a
452.5475	0.09	905095	keystroke	s	n/a
452.7725	0.105	905545	keystroke	e	n/a
454.0625	0.06	908125	keystroke	Key.space	n/a
454.6025	0.075	909205	keystroke	i	n/a
454.7075	0.075	909415	keystroke	c	n/a
454.9175	0.075	909835	keystroke	e	n/a
455.3375	0.075	910675	keystroke	l	n/a
455.4575	0.09	910915	keystroke	a	n/a
455.5925	0.09	911185	keystroke	n	n/a
455.6975	0.136	911395	keystroke	d	n/a
455.8475	0.075	911695	keystroke	Key.space	n/a
455.9675	0.09	911935	keystroke	m	n/a
456.0875	0.075	912175	keystroke	a	n/a
456.2525	0.09	912505	keystroke	y	n/a
456.5975	0.06	913195	keystroke	Key.enter	n/a
456.665	9.9995	913330	prompt	n/a	lesbian bracket sound platform\n
457.3925	0.09	914785	keystroke	l	n/a
457.5125	0.075	915025	keystroke	e	n/a
457.723	0.09	915446	keystroke	s	n/a
458.173	0.06	916346	keystroke	b	n/a
458.308	0.09	916616	keystroke	i	n/a
458.413	0.075	916826	keystroke	a	n/a
458.533	0.105	917066	keystroke	n	n/a
458.668	0.075	917336	keystroke	Key.space	n/a
459.313	0.075	918626	keystroke	b	n/a
459.433	0.105	918866	keystroke	a	n/a
459.718	0.075	919436	keystroke	c	n/a
459.823	0.075	919646	keystroke	k	n/a
460.183	0.06	920366	keystroke	Key.backspace	n/a
460.333	0.105	920666	keystroke	Key.backspace	n/a
460.468	0.06	920936	keystroke	r	n/a
460.693	0.075	921386	keystroke	Key.backspace	n/a
460.858	0.105	921716	keystroke	Key.backspace	n/a
460.933	0.075	921866	keystroke	r	n/a
461.128	0.09	922256	keystroke	a	n/a
461.368	0.09	922736	keystroke	c	n/a
461.473	0.1055	922946	keystroke	k	n/a
461.7285	0.105	923457	keystroke	e	n/a
462.1335	0.12	924267	keystroke	t	n/a
462.2835	0.104	924567	keystroke	Key.space	n/a
462.7935	0.075	925587	keystroke	s	n/a
462.9135	0.12	925827	keystroke	o	n/a
463.1385	0.09	926277	keystroke	u	n/a
463.3785	0.09	926757	keystroke	n	n/a
463.4835	0.15	926967	keystroke	d	n/a
463.6035	0.105	927207	keystroke	Key.space	n/a
463.8135	0.06	927627	keystroke	p	n/a
463.9485	0.105	927897	keystroke	l	n/a
464.1135	0.12	928227	keystroke	a	n/a
464.3535	0.075	928707	keystroke	t	n/a
464.9985	0.09	929997	keystroke	f	n/a
465.1335	0.075	930267	keystroke	o	n/a
465.6735	0.06	931347	keystroke	r	n/a
465.7935	0.09	931587	keystroke	m	n/a
466.6035	0.059	933207	keystroke	Key.enter	n/a
466.6675	6.3575	933335	prompt	n/a	barbie in sharing capture\n
467.7135	0.075	935427	keystroke	b	n/a
467.8185	0.105	935637	keystroke	a	n/a
468.0435	0.06	936087	keystroke	r	n/a
468.1185	0.09	936237	keystroke	b	n/a
468.2535	0.105	936507	keystroke	i	n/a
468.3735	0.105	936747	keystroke	e	n/a
468.4635	0.105	936927	keystroke	Key.space	n/a
468.7785	0.06	937557	keystroke	i	n/a
468.9135	0.1195	937827	keystroke	n	n/a
469.0185	0.0745	938037	keystroke	Key.space	n/a
469.528	0.06	939056	keystroke	s	n/a
469.603	0.09	939206	keystroke	h	n/a
469.723	0.12	939446	keystroke	a	n/a
470.353	0.075	940706	keystroke	r	n/a
470.428	0.075	940856	keystroke	i	n/a
470.593	0.12	941186	keystroke	n	n/a
470.923	0.09	941846	keystroke	g	n/a
471.118	0.09	942236	keystroke	Key.space	n/a
471.418	0.09	942836	keystroke	c	n/a
471.613	0.105	943226	keystroke	a	n/a
471.718	0.105	943436	keystroke	p	n/a
471.958	0.06	943916	keystroke	t	n/a
472.123	0.09	944246	keystroke	u	n/a
472.273	0.09	944546	keystroke	r	n/a
472.483	0.075	944966	keystroke	e	n/a
472.963	0.06	945926	keystroke	Key.enter	n/a
473.0275	12.627	946055	prompt	n/a	saskatchewan tuning them opened\n
473.788	0.06	947576	keystroke	s	n/a
474.313	0.12	948626	keystroke	a	n/a
474.538	0.075	949076	keystroke	s	n/a
474.673	0.075	949346	keystroke	k	n/a
476.158	0.075	952316	keystroke	a	n/a
477.5375	0.06	955075	keystroke	t	n/a
478.2875	0.06	956575	keystroke	c	n/a
478.4225	0.075	956845	keystroke	h	n/a
478.5425	0.075	957085	keystroke	e	n/a
479.2035	0.044	958407	keystroke	w	n/a
479.5325	0.105	959065	keystroke	a	n/a
479.6535	0.075	959307	keystroke	n	n/a
479.8025	0.105	959605	keystroke	Key.space	n/a
480.1175	0.075	960235	keystroke	t	n/a
481.0325	0.06	962065	keystroke	u	n/a
481.1685	0.104	962337	keystroke	n	n/a
481.3475	0.075	962695	keystroke	i	n/a
481.6485	0.075	963297	keystroke	n	n/a
481.7375	0.091	963475	keystroke	g	n/a
481.9325	0.09	963865	keystroke	Key.space	n/a
482.7735	0.075	965547	keystroke	t	n/a
482.9825	0.09	965965	keystroke	h	n/a
483.0885	0.074	966177	keystroke	e	n/a
483.2825	0.076	966565	keystroke	m	n/a
483.373	0.1055	966746	keystroke	Key.space	n/a
483.5375	0.075	967075	keystroke	p	n/a
483.8525	0.076	967705	keystroke	Key.backspace	n/a
484.0185	0.089	968037	keystroke	o	n/a
484.1975	0.106	968395	keystroke	p	n/a
484.3335	0.089	968667	keystroke	e	n/a
484.6175	0.09	969235	keystroke	n	n/a
484.7375	0.075	969475	keystroke	e	n/a
484.9625	0.076	969925	keystroke	d	n/a
485.5925	0.061	971185	keystroke	Key.enter	n/a
485.6585	11.186	971317	prompt	n/a	complex estate funky anyway\n
486.3585	0.075	972717	keystroke	c	n/a
486.4625	0.091	972925	keystroke	o	n/a
486.6285	0.105	973257	keystroke	m	n/a
486.8235	0.075	973647	keystroke	p	n/a
486.9735	0.105	973947	keystroke	l	n/a
487.1085	0.075	974217	keystroke	e	n/a
487.4385	0.09	974877	keystroke	c	n/a
487.8575	0.09	975715	keystroke	Key.backspace	n/a
487.9485	0.09	975897	keystroke	x	n/a
488.1885	0.09	976377	keystroke	Key.space	n/a
488.7735	0.075	977547	keystroke	s	n/a
488.9535	0.075	977907	keystroke	t	n/a
489.0435	0.09	978087	keystroke	a	n/a
489.1785	0.09	978357	keystroke	t	n/a
489.5085	0.074	979017	keystroke	Key.backspace	n/a
489.6585	0.075	979317	keystroke	Key.backspace	n/a
489.8375	0.076	979675	keystroke	Key.backspace	n/a
490.0185	0.075	980037	keystroke	Key.backspace	n/a
490.1235	0.06	980247	keystroke	e	n/a
490.3335	0.06	980667	keystroke	s	n/a
490.4535	0.105	980907	keystroke	t	n/a
490.5435	0.12	981087	keystroke	a	n/a
490.6935	0.105	981387	keystroke	t	n/a
490.8285	0.105	981657	keystroke	e	n/a
491.0685	0.105	982137	keystroke	Key.space	n/a
491.8785	0.06	983757	keystroke	f	n/a
491.9835	0.06	983967	keystroke	u	n/a
492.1485	0.09	984297	keystroke	n	n/a
492.7185	0.06	985437	keystroke	k	n/a
493.0035	0.06	986007	keystroke	y	n/a
493.1235	0.105	986247	keystroke	Key.space	n/a
493.7685	0.075	987537	keystroke	a	n/a
493.8585	0.12	987717	keystroke	n	n/a
494.0985	0.075	988197	keystroke	y	n/a
494.6385	0.06	989277	keystroke	m	n/a
494.9235	0.06	989847	keystroke	Key.backspace	n/a
495.3135	0.06	990627	keystroke	w	n/a
495.988	0.0895	991976	keystroke	a	n/a
496.0925	0.09	992185	keystroke	y	n/a
496.7675	0.075	993535	keystroke	Key.enter	n/a
496.847	11.4155	993694	prompt	n/a	accordance salvador word logged\n
497.8775	0.09	995755	keystroke	a	n/a
498.0275	0.06	996055	keystroke	c	n/a
498.1775	0.06	996355	keystroke	c	n/a
498.3875	0.12	996775	keystroke	o	n/a
498.4925	0.09	996985	keystroke	d	n/a
498.7035	0.059	997407	keystroke	r	n/a
499.3025	0.075	998605	keystroke	Key.backspace	n/a
499.4525	0.09	998905	keystroke	Key.backspace	n/a
499.8735	0.075	999747	keystroke	r	n/a
500.0825	0.075	1000165	keystroke	d	n/a
500.2035	0.134	1000407	keystroke	a	n/a
500.3235	0.089	1000647	keystroke	n	n/a
500.6235	0.089	1001247	keystroke	c	n/a
500.7285	0.12	1001457	keystroke	e	n/a
500.8625	0.09	1001725	keystroke	Key.space	n/a
501.1175	0.045	1002235	keystroke	c	n/a
501.4175	0.06	1002835	keystroke	Key.backspace	n/a
501.4785	0.149	1002957	keystroke	s	n/a
501.6125	0.12	1003225	keystroke	a	n/a
501.7025	0.075	1003405	keystroke	l	n/a
502.2575	0.06	1004515	keystroke	v	n/a
502.3185	0.089	1004637	keystroke	a	n/a
502.4825	0.105	1004965	keystroke	d	n/a
502.6325	0.09	1005265	keystroke	o	n/a
502.7675	0.135	1005535	keystroke	r	n/a
502.8725	0.12	1005745	keystroke	Key.space	n/a
504.1925	0.106	1008385	keystroke	w	n/a
504.3275	0.075	1008655	keystroke	o	n/a
504.4635	0.044	1008927	keystroke	e	n/a
504.8985	0.074	1009797	keystroke	Key.backspace	n/a
505.4525	0.06	1010905	keystroke	r	n/a
505.6485	0.119	1011297	keystroke	d	n/a
505.7525	0.12	1011505	keystroke	Key.space	n/a
506.6825	0.075	1013365	keystroke	l	n/a
506.8325	0.075	1013665	keystroke	o	n/a
507.1035	0.045	1014207	keystroke	g	n/a
507.2235	0.104	1014447	keystroke	g	n/a
507.3425	0.06	1014685	keystroke	e	n/a
507.5075	0.09	1015015	keystroke	d	n/a
508.1985	0.059	1016397	keystroke	Key.enter	n/a
508.2625	12.837	1016525	prompt	n/a	andy netherlands participating charitable\n
509.1285	0.09	1018257	keystroke	a	n/a
509.2635	0.075	1018527	keystroke	n	n/a
509.3825	0.091	1018765	keystroke	d	n/a
509.5635	0.06	1019127	keystroke	y	n/a
509.6675	0.09	1019335	keystroke	Key.space	n/a
510.5835	0.074	1021167	keystroke	n	n/a
510.6885	0.089	1021377	keystroke	e	n/a
511.1685	0.075	1022337	keystroke	t	n/a
511.3935	0.075	1022787	keystroke	h	n/a
511.5135	0.135	1023027	keystroke	e	n/a
511.6635	0.1045	1023327	keystroke	r	n/a
512.1135	0.0595	1024227	keystroke	l	n/a
512.218	0.09	1024436	keystroke	a	n/a
512.413	0.075	1024826	keystroke	n	n/a
512.503	0.075	1025006	keystroke	d	n/a
513.058	0.135	1026116	keystroke	s	n/a
513.178	0.12	1026356	keystroke	Key.space	n/a
513.403	0.06	1026806	keystroke	p	n/a
513.478	0.12	1026956	keystroke	a	n/a
513.703	0.12	1027406	keystroke	r	n/a
514.453	0.09	1028906	keystroke	t	n/a
514.603	0.105	1029206	keystroke	r	n/a
515.308	0.075	1030616	keystroke	i	n/a
515.398	0.075	1030796	keystroke	c	n/a
515.593	0.09	1031186	keystroke	i	n/a
515.923	0.075	1031846	keystroke	Key.backspace	n/a
516.088	0.075	1032176	keystroke	Key.backspace	n/a
516.268	0.105	1032536	keystroke	Key.backspace	n/a
516.778	0.075	1033556	keystroke	Key.backspace	n/a
516.973	0.105	1033946	keystroke	i	n/a
517.063	0.09	1034126	keystroke	c	n/a
517.198	0.09	1034396	keystroke	i	n/a
517.468	0.09	1034936	keystroke	p	n/a
517.603	0.09	1035206	keystroke	a	n/a
517.903	0.06	1035806	keystroke	t	n/a
518.038	0.075	1036076	keystroke	i	n/a
518.218	0.075	1036436	keystroke	n	n/a
518.323	0.075	1036646	keystroke	g	n/a
518.593	0.075	1037186	keystroke	Key.space	n/a
518.818	0.09	1037636	keystroke	c	n/a
518.923	0.09	1037846	keystroke	h	n/a
519.058	0.105	1038116	keystroke	a	n/a
519.298	0.105	1038596	keystroke	r	n/a
519.433	0.09	1038866	keystroke	i	n/a
519.748	0.075	1039496	keystroke	t	n/a
519.868	0.105	1039736	keystroke	a	n/a
520.018	0.09	1040036	keystroke	b	n/a
520.273	0.045	1040546	keystroke	l	n/a
520.318	0.09	1040636	keystroke	e	n/a
521.038	0.06	1042076	keystroke	Key.enter	n/a
521.1025	10.737	1042205	prompt	n/a	candidates ward safari moderators\n
522.193	0.03	1044386	keystroke	c	n/a
522.283	0.09	1044566	keystroke	a	n/a
522.403	0.09	1044806	keystroke	n	n/a
522.523	0.09	1045046	keystroke	d	n/a
522.643	0.075	1045286	keystroke	i	n/a
522.868	0.09	1045736	keystroke	d	n/a
523.003	0.105	1046006	keystroke	a	n/a
523.123	0.09	1046246	keystroke	t	n/a
523.243	0.0895	1046486	keystroke	e	n/a
523.513	0.1195	1047026	keystroke	s	n/a
523.6625	0.075	1047325	keystroke	Key.space	n/a
524.0675	0.075	1048135	keystroke	w	n/a
524.2925	0.12	1048585	keystroke	a	n/a
524.6225	0.076	1049245	keystroke	r	n/a
524.7425	0.1055	1049485	keystroke	d	n/a
524.892	0.105	1049784	keystroke	Key.space	n/a
527.265	0.012	1054530	keystroke	s	n/a
527.398	0.089	1054796	keystroke	a	n/a
527.473	0.104	1054946	keystroke	f	n/a
527.607	0.091	1055214	keystroke	a	n/a
527.712	0.075	1055424	keystroke	r	n/a
528.027	0.06	1056054	keystroke	i	n/a
528.612	0.075	1057224	keystroke	Key.space	n/a
528.732	0.091	1057464	keystroke	m	n/a
528.882	0.091	1057764	keystroke	o	n/a
528.957	0.091	1057914	keystroke	d	n/a
529.137	0.075	1058274	keystroke	e	n/a
529.318	0.089	1058636	keystroke	r	n/a
529.527	0.121	1059054	keystroke	a	n/a
530.023	0.059	1060046	keystroke	t	n/a
530.143	0.075	1060286	keystroke	o	n/a
530.337	0.061	1060674	keystroke	d	n/a
530.802	0.06	1061604	keystroke	Key.backspace	n/a
530.908	0.105	1061816	keystroke	r	n/a
531.268	0.075	1062536	keystroke	s	n/a
531.777	0.06	1063554	keystroke	Key.enter	n/a
531.8445	10.7345	1063689	prompt	n/a	stayed staffing spell researcher\n
532.723	0.075	1065446	keystroke	s	n/a
532.888	0.06	1065776	keystroke	t	n/a
532.977	0.106	1065954	keystroke	a	n/a
533.5775	0.075	1067155	keystroke	y	n/a
533.6825	0.075	1067365	keystroke	e	n/a
533.8775	0.15	1067755	keystroke	d	n/a
533.9975	0.09	1067995	keystroke	Key.space	n/a
534.4625	0.135	1068925	keystroke	s	n/a
534.7025	0.045	1069405	keystroke	t	n/a
534.8075	0.105	1069615	keystroke	a	n/a
535.1225	0.105	1070245	keystroke	f	n/a
535.3175	0.075	1070635	keystroke	f	n/a
535.4225	0.09	1070845	keystroke	o	n/a
535.6325	0.09	1071265	keystroke	m	n/a
536.1125	0.06	1072225	keystroke	\	n/a
536.2925	0.075	1072585	keystroke	Key.backspace	n/a
536.4725	0.06	1072945	keystroke	Key.backspace	n/a
536.6225	0.075	1073245	keystroke	Key.backspace	n/a
536.7725	0.12	1073545	keystroke	Key.backspace	n/a
537.7475	0.045	1075495	keystroke	f	n/a
537.8225	0.075	1075645	keystroke	i	n/a
538.0175	0.105	1076035	keystroke	n	n/a
538.1375	0.075	1076275	keystroke	g	n/a
538.3775	0.105	1076755	keystroke	Key.space	n/a
538.6475	0.09	1077295	keystroke	s	n/a
538.8875	0.06	1077775	keystroke	p	n/a
539.0225	0.045	1078045	keystroke	e	n/a
539.1575	0.075	1078315	keystroke	e	n/a
539.5175	0.075	1079035	keystroke	Key.backspace	n/a
539.7275	0.075	1079455	keystroke	l	n/a
539.8775	0.105	1079755	keystroke	l	n/a
539.9975	0.075	1079995	keystroke	Key.space	n/a
540.2225	0.075	1080445	keystroke	r	n/a
540.3875	0.09	1080775	keystroke	e	n/a
540.7175	0.09	1081435	keystroke	s	n/a
540.9275	0.06	1081855	keystroke	e	n/a
541.1225	0.135	1082245	keystroke	a	n/a
541.4225	0.06	1082845	keystroke	r	n/a
541.6775	0.075	1083355	keystroke	c	n/a
541.7685	0.089	1083537	keystroke	h	n/a
541.9185	0.074	1083837	keystroke	e	n/a
542.0975	0.075	1084195	keystroke	r	n/a
542.5025	0.075	1085005	keystroke	Key.enter	n/a
542.582	14.9975	1085164	prompt	n/a	adipex powerpoint alien podcasts\n
543.3435	0.089	1086687	keystroke	a	n/a
543.5975	0.06	1087195	keystroke	d	n/a
543.7025	0.06	1087405	keystroke	i	n/a
543.9125	0.075	1087825	keystroke	p	n/a
544.0025	0.075	1088005	keystroke	e	n/a
544.3185	0.089	1088637	keystroke	x	n/a
544.5725	0.105	1089145	keystroke	Key.space	n/a
545.1725	0.075	1090345	keystroke	p	n/a
545.4275	0.06	1090855	keystroke	o	n/a
545.5775	0.091	1091155	keystroke	w	n/a
546.0275	0.105	1092055	keystroke	w	n/a
546.1185	0.134	1092237	keystroke	e	n/a
546.6125	0.045	1093225	keystroke	Key.backspace	n/a
546.7475	0.105	1093495	keystroke	Key.backspace	n/a
546.8535	0.165	1093707	keystroke	e	n/a
547.0025	0.091	1094005	keystroke	r	n/a
547.7975	0.075	1095595	keystroke	p	n/a
547.9625	0.075	1095925	keystroke	o	n/a
548.2025	0.075	1096405	keystroke	i	n/a
548.4275	0.091	1096855	keystroke	n	n/a
548.6375	0.09	1097275	keystroke	t	n/a
548.8025	0.075	1097605	keystroke	Key.space	n/a
553.575	0.028	1107150	keystroke	a	n/a
553.648	0.09	1107296	keystroke	l	n/a
553.963	0.09	1107926	keystroke	i	n/a
554.098	0.09	1108196	keystroke	e	n/a
554.353	0.09	1108706	keystroke	Key.space	n/a
554.623	0.075	1109246	keystroke	Key.backspace	n/a
554.833	0.105	1109666	keystroke	n	n/a
554.938	0.09	1109876	keystroke	Key.space	n/a
555.208	0.075	1110416	keystroke	p	n/a
555.358	0.09	1110716	keystroke	o	n/a
555.463	0.09	1110926	keystroke	d	n/a
556.438	0.0745	1112876	keystroke	c	n/a
556.5275	0.12	1113055	keystroke	a	n/a
556.6175	0.105	1113235	keystroke	s	n/a
556.7975	0.075	1113595	keystroke	t	n/a
556.9175	0.09	1113835	keystroke	s	n/a
557.5025	0.075	1115005	keystroke	Key.enter	n/a
557.583	8.861	1115166	prompt	n/a	surprising bubble foods she's\n
558.4175	0.105	1116835	keystroke	s	n/a
558.5525	0.075	1117105	keystroke	u	n/a
558.7325	0.06	1117465	keystroke	r	n/a
558.9275	0.075	1117855	keystroke	p	n/a
559.2275	0.06	1118455	keystroke	r	n/a
559.2885	0.104	1118577	keystroke	i	n/a
559.5125	0.09	1119025	keystroke	s	n/a
559.6325	0.075	1119265	keystroke	i	n/a
559.8275	0.09	1119655	keystroke	n	n/a
559.9325	0.075	1119865	keystroke	g	n/a
560.6375	0.105	1121275	keystroke	Key.space	n/a
560.8625	0.075	1121725	keystroke	b	n/a
561.0125	0.09	1122025	keystroke	u	n/a
561.3725	0.06	1122745	keystroke	b	n/a
561.5525	0.045	1123105	keystroke	b	n/a
561.9875	0.045	1123975	keystroke	l	n/a
562.1075	0.105	1124215	keystroke	e	n/a
562.2425	0.105	1124485	keystroke	Key.space	n/a
563.0075	0.075	1126015	keystroke	f	n/a
563.1275	0.075	1126255	keystroke	o	n/a
563.2925	0.09	1126585	keystroke	o	n/a
563.3675	0.12	1126735	keystroke	d	n/a
563.5175	0.105	1127035	keystroke	Key.space	n/a
563.8475	0.09	1127695	keystroke	s	n/a
564.0425	0.09	1128085	keystroke	h	n/a
564.1475	0.09	1128295	keystroke	e	n/a
565.2575	0.06	1130515	keystroke	'	n/a
565.3925	0.09	1130785	keystroke	s	n/a
566.3975	0.045	1132795	keystroke	Key.enter	n/a
566.448	14.937	1132896	prompt	n/a	span porsche obviously conflict\n
567.3885	0.059	1134777	keystroke	s	n/a
567.5525	0.075	1135105	keystroke	p	n/a
567.6885	0.089	1135377	keystroke	a	n/a
567.8385	0.089	1135677	keystroke	n	n/a
567.9725	0.105	1135945	keystroke	Key.space	n/a
568.6025	0.09	1137205	keystroke	p	n/a
568.7825	0.075	1137565	keystroke	o	n/a
568.9325	0.075	1137865	keystroke	r	n/a
569.2475	0.09	1138495	keystroke	s	n/a
569.4725	0.091	1138945	keystroke	h	n/a
569.7725	0.075	1139545	keystroke	e	n/a
569.9525	0.105	1139905	keystroke	Key.space	n/a
570.4325	0.075	1140865	keystroke	Key.backspace	n/a
570.5825	0.075	1141165	keystroke	Key.backspace	n/a
570.7325	0.12	1141465	keystroke	Key.backspace	n/a
570.8975	0.105	1141795	keystroke	c	n/a
571.0775	0.091	1142155	keystroke	h	n/a
571.1975	0.135	1142395	keystroke	e	n/a
571.3025	0.12	1142605	keystroke	Key.space	n/a
575.385	0.001	1150770	keystroke	o	n/a
575.518	0.09	1151036	keystroke	b	n/a
575.758	0.075	1151516	keystroke	v	n/a
575.878	0.045	1151756	keystroke	u	n/a
576.343	0.075	1152686	keystroke	Key.backspace	n/a
576.539	0.089	1153078	keystroke	i	n/a
577.198	0.09	1154396	keystroke	o	n/a
577.513	0.075	1155026	keystroke	u	n/a
577.603	0.09	1155206	keystroke	s	n/a
577.858	0.045	1155716	keystroke	l	n/a
578.218	0.075	1156436	keystroke	y	n/a
578.353	0.12	1156706	keystroke	Key.space	n/a
578.803	0.105	1157606	keystroke	c	n/a
578.923	0.045	1157846	keystroke	o	n/a
579.073	0.075	1158146	keystroke	n	n/a
579.7775	0.0755	1159555	keystroke	f	n/a
579.883	0.0745	1159766	keystroke	l	n/a
580.1975	0.061	1160395	keystroke	i	n/a
580.3025	0.075	1160605	keystroke	c	n/a
580.5725	0.075	1161145	keystroke	t	n/a
581.3375	0.0455	1162675	keystroke	Key.enter	n/a
581.3885	8.456	1162777	prompt	n/a	essence specific sorted tomatoes\n
582.2385	0.045	1164477	keystroke	e	n/a
582.4335	0.06	1164867	keystroke	s	n/a
582.5685	0.09	1165137	keystroke	s	n/a
582.7785	0.06	1165557	keystroke	e	n/a
582.8685	0.09	1165737	keystroke	n	n/a
583.0185	0.105	1166037	keystroke	s	n/a
583.6035	0.09	1167207	keystroke	Key.backspace	n/a
583.7235	0.045	1167447	keystroke	c	n/a
583.9185	0.165	1167837	keystroke	e	n/a
584.0385	0.12	1168077	keystroke	Key.space	n/a
584.5935	0.105	1169187	keystroke	s	n/a
584.728	0.0905	1169456	keystroke	p	n/a
584.863	0.0905	1169726	keystroke	e	n/a
585.148	0.0905	1170296	keystroke	c	n/a
585.253	0.105	1170506	keystroke	i	n/a
585.418	0.105	1170836	keystroke	f	n/a
586.063	0.09	1172126	keystroke	i	n/a
586.213	0.105	1172426	keystroke	c	n/a
586.378	0.105	1172756	keystroke	Key.space	n/a
586.693	0.03	1173386	keystroke	s	n/a
586.768	0.075	1173536	keystroke	o	n/a
587.473	0.045	1174946	keystroke	r	n/a
587.533	0.045	1175066	keystroke	t	n/a
587.608	0.09	1175216	keystroke	e	n/a
587.833	0.105	1175666	keystroke	d	n/a
587.908	0.105	1175816	keystroke	Key.space	n/a
588.538	0.075	1177076	keystroke	t	n/a
588.628	0.0145	1177256	keystroke	o	n/a
588.673	0.1045	1177346	keystroke	m	n/a
588.7775	0.09	1177555	keystroke	a	n/a
589.0475	0.075	1178095	keystroke	t	n/a
589.1375	0.09	1178275	keystroke	o	n/a
589.303	0.0895	1178606	keystroke	e	n/a
589.5125	0.09	1179025	keystroke	s	n/a
589.7825	0.06	1179565	keystroke	Key.enter	n/a
589.8475	10.077	1179695	prompt	n/a	madonna threads consideration arrival\n
590.7125	0.075	1181425	keystroke	m	n/a
590.8475	0.075	1181695	keystroke	a	n/a
591.0875	0.06	1182175	keystroke	d	n/a
591.2375	0.06	1182475	keystroke	o	n/a
591.7625	0.046	1183525	keystroke	n	n/a
591.9275	0.06	1183855	keystroke	n	n/a
592.0325	0.12	1184065	keystroke	a	n/a
592.1375	0.105	1184275	keystroke	Key.space	n/a
592.4975	0.075	1184995	keystroke	t	n/a
592.7675	0.06	1185535	keystroke	h	n/a
593.0085	0.075	1186017	keystroke	e	n/a
593.2025	0.09	1186405	keystroke	r	n/a
593.6525	0.015	1187305	keystroke	Key.backspace	n/a
593.7275	0.105	1187455	keystroke	Key.backspace	n/a
593.7885	0.089	1187577	keystroke	r	n/a
593.9675	0.12	1187935	keystroke	e	n/a
594.2375	0.12	1188475	keystroke	a	n/a
594.4325	0.105	1188865	keystroke	d	n/a
594.7025	0.136	1189405	keystroke	s	n/a
594.8225	0.12	1189645	keystroke	Key.space	n/a
595.1225	0.075	1190245	keystroke	c	n/a
595.2275	0.075	1190455	keystroke	o	n/a
595.4085	0.104	1190817	keystroke	n	n/a
595.5585	0.059	1191117	keystroke	d	n/a
595.9475	0.09	1191895	keystroke	Key.backspace	n/a
596.0525	0.075	1192105	keystroke	s	n/a
596.1725	0.09	1192345	keystroke	i	n/a
596.3225	0.075	1192645	keystroke	d	n/a
596.5175	0.105	1193035	keystroke	e	n/a
597.1925	0.06	1194385	keystroke	r	n/a
597.4035	0.089	1194807	keystroke	a	n/a
597.6585	0.074	1195317	keystroke	t	n/a
597.7335	0.089	1195467	keystroke	i	n/a
597.8835	0.104	1195767	keystroke	o	n/a
598.0625	0.105	1196125	keystroke	n	n/a
598.1375	0.09	1196275	keystroke	Key.space	n/a
598.3035	0.105	1196607	keystroke	a	n/a
598.5425	0.06	1197085	keystroke	r	n/a
598.6925	0.075	1197385	keystroke	r	n/a
598.7685	0.074	1197537	keystroke	i	n/a
598.9925	0.091	1197985	keystroke	v	n/a
599.0975	0.091	1198195	keystroke	a	n/a
599.2775	0.075	1198555	keystroke	l	n/a
599.8475	0.075	1199695	keystroke	Key.enter	n/a
599.9275	8.892	1199855	prompt	n/a	mandatory doctrine words papers\n
600.6585	0.06	1201317	keystroke	m	n/a
600.7185	0.09	1201437	keystroke	a	n/a
600.8535	0.074	1201707	keystroke	n	n/a
600.9585	0.089	1201917	keystroke	d	n/a
601.1535	0.12	1202307	keystroke	a	n/a
601.5735	0.09	1203147	keystroke	o	n/a
601.9625	0.105	1203925	keystroke	Key.backspace	n/a
602.0835	0.075	1204167	keystroke	t	n/a
602.1435	0.12	1204287	keystroke	o	n/a
602.5785	0.045	1205157	keystroke	r	n/a
602.6685	0.09	1205337	keystroke	y	n/a
602.7885	0.089	1205577	keystroke	Key.space	n/a
603.6735	0.075	1207347	keystroke	d	n/a
603.7635	0.09	1207527	keystroke	o	n/a
603.9135	0.09	1207827	keystroke	c	n/a
604.1985	0.06	1208397	keystroke	t	n/a
604.4235	0.06	1208847	keystroke	r	n/a
604.5435	0.075	1209087	keystroke	i	n/a
604.7085	0.09	1209417	keystroke	n	n/a
604.9035	0.12	1209807	keystroke	e	n/a
605.0385	0.105	1210077	keystroke	Key.space	n/a
605.3535	0.105	1210707	keystroke	w	n/a
605.4885	0.075	1210977	keystroke	o	n/a
605.8335	0.09	1211667	keystroke	r	n/a
606.1485	0.06	1212297	keystroke	d	n/a
606.3285	0.03	1212657	keystroke	k	n/a
606.6585	0.045	1213317	keystroke	Key.backspace	n/a
606.7635	0.12	1213527	keystroke	s	n/a
606.8835	0.06	1213767	keystroke	Key.space	n/a
607.5585	0.015	1215117	keystroke	p	n/a
607.6185	0.105	1215237	keystroke	a	n/a
607.8435	0.075	1215687	keystroke	p	n/a
607.9935	0.075	1215987	keystroke	e	n/a
608.1885	0.075	1216377	keystroke	r	n/a
608.4585	0.06	1216917	keystroke	s	n/a
608.7435	0.075	1217487	keystroke	Key.enter	n/a
608.8235	10.091	1217647	prompt	n/a	somewhere closed circulation bush\n
609.823	0.075	1219646	keystroke	s	n/a
609.928	0.075	1219856	keystroke	o	n/a
610.123	0.09	1220246	keystroke	m	n/a
610.183	0.09	1220366	keystroke	e	n/a
610.618	0.09	1221236	keystroke	w	n/a
610.768	0.09	1221536	keystroke	h	n/a
610.918	0.105	1221836	keystroke	e	n/a
611.203	0.105	1222406	keystroke	r	n/a
611.863	0.09	1223726	keystroke	e	n/a
612.148	0.09	1224296	keystroke	Key.space	n/a
612.658	0.06	1225316	keystroke	o	n/a
612.898	0.075	1225796	keystroke	Key.backspace	n/a
612.988	0.105	1225976	keystroke	c	n/a
613.123	0.105	1226246	keystroke	l	n/a
613.333	0.075	1226666	keystroke	o	n/a
613.423	0.075	1226846	keystroke	s	n/a
613.603	0.105	1227206	keystroke	e	n/a
613.843	0.12	1227686	keystroke	d	n/a
613.948	0.105	1227896	keystroke	Key.space	n/a
614.353	0.06	1228706	keystroke	c	n/a
614.458	0.09	1228916	keystroke	i	n/a
614.608	0.105	1229216	keystroke	r	n/a
614.968	0.06	1229936	keystroke	c	n/a
615.043	0.06	1230086	keystroke	u	n/a
615.223	0.12	1230446	keystroke	a	n/a
615.298	0.09	1230596	keystroke	l	n/a
615.733	0.06	1231466	keystroke	Key.backspace	n/a
615.868	0.09	1231736	keystroke	Key.backspace	n/a
616.033	0.105	1232066	keystroke	l	n/a
616.123	0.12	1232246	keystroke	a	n/a
616.363	0.09	1232726	keystroke	t	n/a
616.438	0.09	1232876	keystroke	i	n/a
616.588	0.09	1233176	keystroke	o	n/a
616.783	0.09	1233566	keystroke	n	n/a
616.933	0.105	1233866	keystroke	Key.space	n/a
617.203	0.075	1234406	keystroke	b	n/a
617.368	0.105	1234736	keystroke	u	n/a
617.488	0.09	1234976	keystroke	s	n/a
618.328	0.075	1236656	keystroke	h	n/a
618.838	0.075	1237676	keystroke	Key.enter	n/a
618.918	11.6215	1237836	prompt	n/a	story amended prohibited bundle\n
619.693	0.075	1239386	keystroke	s	n/a
619.948	0.06	1239896	keystroke	t	n/a
620.098	0.075	1240196	keystroke	o	n/a
620.218	0.075	1240436	keystroke	r	n/a
620.458	0.06	1240916	keystroke	y	n/a
620.638	0.075	1241276	keystroke	Key.space	n/a
621.058	0.12	1242116	keystroke	a	n/a
621.193	0.075	1242386	keystroke	m	n/a
621.433	0.075	1242866	keystroke	e	n/a
621.628	0.09	1243256	keystroke	n	n/a
622.033	0.06	1244066	keystroke	d	n/a
622.213	0.075	1244426	keystroke	e	n/a
622.543	0.09	1245086	keystroke	d	n/a
622.663	0.105	1245326	keystroke	Key.space	n/a
622.948	0.09	1245896	keystroke	p	n/a
623.308	0.075	1246616	keystroke	r	n/a
623.413	0.09	1246826	keystroke	o	n/a
623.698	0.09	1247396	keystroke	h	n/a
623.848	0.105	1247696	keystroke	i	n/a
624.433	0.06	1248866	keystroke	n	n/a
624.448	0.06	1248896	keystroke	b	n/a
624.583	0.09	1249166	keystroke	i	n/a
624.958	0.06	1249916	keystroke	Key.backspace	n/a
625.108	0.075	1250216	keystroke	Key.backspace	n/a
625.273	0.09	1250546	keystroke	Key.backspace	n/a
625.543	0.075	1251086	keystroke	n	n/a
625.678	0.105	1251356	keystroke	i	n/a
625.798	0.075	1251596	keystroke	t	n/a
626.2625	0.075	1252525	keystroke	Key.backspace	n/a
626.4275	0.075	1252855	keystroke	Key.backspace	n/a
626.5925	0.105	1253185	keystroke	Key.backspace	n/a
627.1175	0.075	1254235	keystroke	n	n/a
627.3875	0.09	1254775	keystroke	Key.backspace	n/a
627.5525	0.06	1255105	keystroke	b	n/a
627.6725	0.06	1255345	keystroke	i	n/a
627.9275	0.075	1255855	keystroke	t	n/a
628.1675	0.09	1256335	keystroke	e	n/a
628.3925	0.15	1256785	keystroke	d	n/a
628.5435	0.104	1257087	keystroke	Key.space	n/a
629.0375	0.09	1258075	keystroke	b	n/a
629.2175	0.09	1258435	keystroke	u	n/a
629.4425	0.09	1258885	keystroke	n	n/a
629.6525	0.075	1259305	keystroke	d	n/a
629.7575	0.075	1259515	keystroke	l	n/a
629.8775	0.075	1259755	keystroke	e	n/a
630.4475	0.09	1260895	keystroke	Key.enter	n/a
630.5425	8.7265	1261085	prompt	n/a	case tomato anyone anaheim\n
633.8415	0.012	1267683	keystroke	c	n/a
633.8675	0.105	1267735	keystroke	a	n/a
633.9875	0.091	1267975	keystroke	s	n/a
634.1825	0.105	1268365	keystroke	e	n/a
634.2425	0.105	1268485	keystroke	Key.space	n/a
634.4375	0.075	1268875	keystroke	t	n/a
634.5135	0.074	1269027	keystroke	o	n/a
634.6775	0.105	1269355	keystroke	m	n/a
634.7535	0.104	1269507	keystroke	a	n/a
635.0375	0.075	1270075	keystroke	t	n/a
635.1575	0.09	1270315	keystroke	o	n/a
635.2625	0.09	1270525	keystroke	Key.space	n/a
635.5175	0.09	1271035	keystroke	a	n/a
635.6225	0.09	1271245	keystroke	n	n/a
635.8625	0.075	1271725	keystroke	y	n/a
636.282	0.075	1272564	keystroke	o	n/a
636.447	0.0905	1272894	keystroke	n	n/a
636.507	0.121	1273014	keystroke	e	n/a
636.597	0.105	1273194	keystroke	Key.space	n/a
636.822	0.09	1273644	keystroke	a	n/a
636.957	0.075	1273914	keystroke	n	n/a
637.317	0.12	1274634	keystroke	a	n/a
637.542	0.09	1275084	keystroke	h	n/a
637.662	0.075	1275324	keystroke	e	n/a
637.812	0.091	1275624	keystroke	i	n/a
637.978	0.104	1275956	keystroke	m	n/a
639.207	0.06	1278414	keystroke	Key.enter	n/a
639.2765	10.5075	1278553	prompt	n/a	chancellor leaves calculation creatures\n
640.257	0.06	1280514	keystroke	c	n/a
640.392	0.075	1280784	keystroke	h	n/a
640.483	0.089	1280966	keystroke	a	n/a
640.722	0.075	1281444	keystroke	c	n/a
640.947	0.06	1281894	keystroke	e	n/a
641.262	0.075	1282524	keystroke	Key.backspace	n/a
641.787	0.06	1283574	keystroke	Key.backspace	n/a
641.967	0.09	1283934	keystroke	n	n/a
642.103	0.075	1284206	keystroke	c	n/a
642.538	0.06	1285076	keystroke	e	n/a
642.688	0.09	1285376	keystroke	l	n/a
642.853	0.075	1285706	keystroke	l	n/a
643.003	0.075	1286006	keystroke	o	n/a
643.107	0.121	1286214	keystroke	r	n/a
643.198	0.089	1286396	keystroke	Key.space	n/a
643.332	0.091	1286664	keystroke	l	n/a
643.423	0.09	1286846	keystroke	e	n/a
643.648	0.105	1287296	keystroke	a	n/a
643.828	0.06	1287656	keystroke	v	n/a
643.948	0.09	1287896	keystroke	e	n/a
644.188	0.09	1288376	keystroke	s	n/a
644.247	0.09	1288494	keystroke	Key.space	n/a
644.458	0.09	1288916	keystroke	c	n/a
644.683	0.105	1289366	keystroke	a	n/a
644.803	0.075	1289606	keystroke	l	n/a
645.523	0.075	1291046	keystroke	c	n/a
645.703	0.09	1291406	keystroke	u	n/a
645.928	0.12	1291856	keystroke	l	n/a
646.048	0.075	1292096	keystroke	a	n/a
646.288	0.06	1292576	keystroke	t	n/a
646.363	0.09	1292726	keystroke	i	n/a
646.528	0.09	1293056	keystroke	o	n/a
646.693	0.09	1293386	keystroke	n	n/a
646.753	0.09	1293506	keystroke	Key.space	n/a
646.963	0.09	1293926	keystroke	c	n/a
647.188	0.0895	1294376	keystroke	r	n/a
647.2925	0.075	1294585	keystroke	e	n/a
647.4875	0.09	1294975	keystroke	a	n/a
647.7575	0.06	1295515	keystroke	t	n/a
647.8475	0.105	1295695	keystroke	u	n/a
648.0875	0.06	1296175	keystroke	r	n/a
648.2525	0.06	1296505	keystroke	e	n/a
648.4475	0.06	1296895	keystroke	s	n/a
649.7375	0.045	1299475	keystroke	Key.enter	n/a
649.787	7.932	1299574	prompt	n/a	meets taxi manager panasonic\n
650.7275	0.075	1301455	keystroke	m	n/a
650.8625	0.09	1301725	keystroke	e	n/a
651.0125	0.06	1302025	keystroke	t	n/a
651.1475	0.105	1302295	keystroke	t	n/a
651.4775	0.075	1302955	keystroke	Key.backspace	n/a
651.6425	0.06	1303285	keystroke	Key.backspace	n/a
651.7175	0.09	1303435	keystroke	e	n/a
651.8825	0.09	1303765	keystroke	t	n/a
652.0025	0.12	1304005	keystroke	s	n/a
652.0925	0.12	1304185	keystroke	Key.space	n/a
652.3475	0.09	1304695	keystroke	t	n/a
652.4225	0.12	1304845	keystroke	a	n/a
652.8725	0.09	1305745	keystroke	c	n/a
653.0075	0.09	1306015	keystroke	y	n/a
653.8325	0.06	1307665	keystroke	Key.backspace	n/a
653.9675	0.09	1307935	keystroke	Key.backspace	n/a
654.0425	0.105	1308085	keystroke	x	n/a
654.1775	0.09	1308355	keystroke	i	n/a
654.2975	0.105	1308595	keystroke	Key.space	n/a
654.9275	0.09	1309855	keystroke	m	n/a
655.0025	0.105	1310005	keystroke	a	n/a
655.1225	0.105	1310245	keystroke	n	n/a
655.2425	0.09	1310485	keystroke	a	n/a
655.3775	0.105	1310755	keystroke	g	n/a
655.5125	0.12	1311025	keystroke	e	n/a
655.7225	0.15	1311445	keystroke	r	n/a
655.8125	0.135	1311625	keystroke	Key.space	n/a
656.1875	0.075	1312375	keystroke	p	n/a
656.3225	0.09	1312645	keystroke	a	n/a
656.5325	0.09	1313065	keystroke	n	n/a
656.6375	0.09	1313275	keystroke	a	n/a
656.7875	0.09	1313575	keystroke	s	n/a
656.9225	0.09	1313845	keystroke	o	n/a
657.1325	0.09	1314265	keystroke	n	n/a
657.2975	0.075	1314595	keystroke	i	n/a
657.3575	0.09	1314715	keystroke	c	n/a
657.6725	0.045	1315345	keystroke	Key.enter	n/a
657.722	8.825	1315444	prompt	n/a	mine left perspectives swingers\n
658.5125	0.0745	1317025	keystroke	m	n/a
658.8275	0.1045	1317655	keystroke	i	n/a
659.007	0.105	1318014	keystroke	n	n/a
659.142	0.105	1318284	keystroke	e	n/a
659.217	0.12	1318434	keystroke	Key.space	n/a
659.5325	0.0595	1319065	keystroke	l	n/a
659.637	0.075	1319274	keystroke	e	n/a
659.907	0.105	1319814	keystroke	f	n/a
660.117	0.03	1320234	keystroke	t	n/a
660.252	0.09	1320504	keystroke	Key.space	n/a
661.062	0.075	1322124	keystroke	p	n/a
661.122	0.15	1322244	keystroke	e	n/a
661.257	0.09	1322514	keystroke	r	n/a
661.512	0.105	1323024	keystroke	s	n/a
661.707	0.09	1323414	keystroke	p	n/a
661.872	0.12	1323744	keystroke	e	n/a
662.697	0.045	1325394	keystroke	c	n/a
662.847	0.045	1325694	keystroke	t	n/a
662.952	0.075	1325904	keystroke	i	n/a
663.192	0.09	1326384	keystroke	v	n/a
663.297	0.075	1326594	keystroke	e	n/a
663.492	0.12	1326984	keystroke	s	n/a
663.597	0.075	1327194	keystroke	Key.space	n/a
663.957	0.09	1327914	keystroke	s	n/a
664.167	0.105	1328334	keystroke	w	n/a
664.482	0.09	1328964	keystroke	i	n/a
664.707	0.09	1329414	keystroke	n	n/a
665.037	0.075	1330074	keystroke	g	n/a
665.127	0.075	1330254	keystroke	e	n/a
665.382	0.09	1330764	keystroke	r	n/a
665.742	0.09	1331484	keystroke	s	n/a
666.477	0.06	1332954	keystroke	Key.enter	n/a
666.5505	8.3135	1333101	prompt	n/a	boards amazon momentum trunk\n
667.452	0.06	1334904	keystroke	b	n/a
667.587	0.105	1335174	keystroke	o	n/a
667.737	0.105	1335474	keystroke	a	n/a
667.902	0.075	1335804	keystroke	r	n/a
668.127	0.075	1336254	keystroke	d	n/a
668.382	0.15	1336764	keystroke	s	n/a
668.502	0.075	1337004	keystroke	Key.space	n/a
668.697	0.09	1337394	keystroke	m	n/a
668.712	0.076	1337424	keystroke	a	n/a
669.117	0.075	1338234	keystroke	Key.backspace	n/a
669.267	0.12	1338534	keystroke	Key.backspace	n/a
669.372	0.12	1338744	keystroke	a	n/a
669.507	0.09	1339014	keystroke	m	n/a
669.612	0.09	1339224	keystroke	a	n/a
669.912	0.075	1339824	keystroke	z	n/a
670.002	0.075	1340004	keystroke	o	n/a
670.182	0.09	1340364	keystroke	n	n/a
670.332	0.12	1340664	keystroke	Key.space	n/a
670.647	0.105	1341294	keystroke	m	n/a
670.827	0.075	1341654	keystroke	o	n/a
671.007	0.09	1342014	keystroke	m	n/a
671.037	0.09	1342074	keystroke	e	n/a
671.187	0.09	1342374	keystroke	m	n/a
671.742	0.075	1343484	keystroke	Key.backspace	n/a
671.937	0.075	1343874	keystroke	n	n/a
672.012	0.06	1344024	keystroke	t	n/a
672.267	0.09	1344534	keystroke	u	n/a
672.507	0.09	1345014	keystroke	m	n/a
672.612	0.105	1345224	keystroke	Key.space	n/a
672.777	0.09	1345554	keystroke	m	n/a
673.107	0.09	1346214	keystroke	Key.backspace	n/a
673.212	0.045	1346424	keystroke	t	n/a
673.377	0.075	1346754	keystroke	r	n/a
673.542	0.09	1347084	keystroke	u	n/a
673.767	0.06	1347534	keystroke	n	n/a
673.947	0.06	1347894	keystroke	c	n/a
674.247	0.06	1348494	keystroke	Key.backspace	n/a
674.427	0.075	1348854	keystroke	k	n/a
674.832	0.03	1349664	keystroke	Key.enter	n/a
674.8665	7.2275	1349733	prompt	n/a	chart tank roads safety\n
675.672	0.075	1351344	keystroke	c	n/a
675.777	0.075	1351554	keystroke	h	n/a
675.897	0.105	1351794	keystroke	a	n/a
676.047	0.09	1352094	keystroke	r	n/a
676.257	0.091	1352514	keystroke	t	n/a
676.392	0.09	1352784	keystroke	Key.space	n/a
676.902	0.075	1353804	keystroke	t	n/a
677.023	0.119	1354046	keystroke	a	n/a
677.562	0.06	1355124	keystroke	n	n/a
677.727	0.09	1355454	keystroke	k	n/a
677.862	0.105	1355724	keystroke	Key.space	n/a
678.387	0.075	1356774	keystroke	r	n/a
678.492	0.1055	1356984	keystroke	o	n/a
678.6415	0.12	1357283	keystroke	a	n/a
678.8665	0.015	1357733	keystroke	d	n/a
679.6315	0.12	1359263	keystroke	s	n/a
679.8115	0.12	1359623	keystroke	Key.space	n/a
680.4565	0.105	1360913	keystroke	s	n/a
680.6065	0.135	1361213	keystroke	a	n/a
680.7725	0.089	1361545	keystroke	f	n/a
680.8765	0.09	1361753	keystroke	e	n/a
681.0725	0.075	1362145	keystroke	t	n/a
681.2815	0.075	1362563	keystroke	y	n/a
682.0015	0.09	1364003	keystroke	Key.enter	n/a
682.0965	8.8175	1364193	prompt	n/a	tags basin neighborhood name\n
683.0065	0.075	1366013	keystroke	t	n/a
