onset	duration	sample	value	key	prompt_text
3.0635	10.165	6127	prompt	n/a	the quick brown fox jumps over a lazy dog\n
4.9915	0.029	9983	keystroke_t	t	n/a
5.0495	0.091	10099	keystroke_h	h	n/a
5.1255	0.106	10251	keystroke_e	e	n/a
5.2765	0.15	10553	keystroke_Key.space	Key.space	n/a
5.5615	0.135	11123	keystroke_q	q	n/a
5.6365	0.12	11273	keystroke_u	u	n/a
6.0265	0.1045	12053	keystroke_i	i	n/a
6.161	0.105	12322	keystroke_c	c	n/a
6.236	0.135	12472	keystroke_k	k	n/a
6.6565	0.1495	13313	keystroke_Key.space	Key.space	n/a
7.046	0.09	14092	keystroke_b	b	n/a
7.391	0.105	14782	keystroke_r	r	n/a
7.556	0.135	15112	keystroke_o	o	n/a
7.721	0.135	15442	keystroke_w	w	n/a
7.796	0.15	15592	keystroke_n	n	n/a
8.1115	0.135	16223	keystroke_Key.space	Key.space	n/a
8.3065	0.12	16613	keystroke_f	f	n/a
8.3965	0.12	16793	keystroke_o	o	n/a
8.5615	0.15	17123	keystroke_x	x	n/a
8.8765	0.135	17753	keystroke_Key.space	Key.space	n/a
9.0715	0.075	18143	keystroke_j	j	n/a
9.2365	0.09	18473	keystroke_u	u	n/a
9.4315	0.09	18863	keystroke_m	m	n/a
9.6265	0.12	19253	keystroke_p	p	n/a
9.7165	0.15	19433	keystroke_s	s	n/a
10.0165	0.12	20033	keystroke_Key.space	Key.space	n/a
10.1965	0.135	20393	keystroke_o	o	n/a
10.2565	0.09	20513	keystroke_v	v	n/a
10.4065	0.119	20813	keystroke_e	e	n/a
10.4815	0.1345	20963	keystroke_r	r	n/a
10.586	0.12	21172	keystroke_Key.space	Key.space	n/a
10.736	0.1355	21472	keystroke_a	a	n/a
10.8555	0.12	21711	keystroke_Key.space	Key.space	n/a
11.261	0.135	22522	keystroke_l	l	n/a
11.321	0.135	22642	keystroke_a	a	n/a
11.576	0.15	23152	keystroke_z	z	n/a
11.711	0.165	23422	keystroke_y	y	n/a
11.801	0.135	23602	keystroke_Key.space	Key.space	n/a
12.311	0.135	24622	keystroke_d	d	n/a
12.431	0.12	24862	keystroke_o	o	n/a
12.716	0.09	25432	keystroke_g	g	n/a
13.061	0.165	26122	keystroke_Key.enter	Key.enter	n/a
13.2325	10.4955	26465	prompt	n/a	training vitamin nicaragua bears\n
14.051	0.075	28102	keystroke_t	t	n/a
14.231	0.091	28462	keystroke_r	r	n/a
14.382	0.1195	28764	keystroke_a	a	n/a
14.5305	0.15	29061	keystroke_i	i	n/a
14.921	0.1205	29842	keystroke_n	n	n/a
15.0715	0.1645	30143	keystroke_i	i	n/a
15.146	0.12	30292	keystroke_n	n	n/a
15.281	0.12	30562	keystroke_g	g	n/a
15.581	0.15	31162	keystroke_Key.space	Key.space	n/a
15.791	0.12	31582	keystroke_v	v	n/a
15.926	0.135	31852	keystroke_i	i	n/a
16.076	0.105	32152	keystroke_t	t	n/a
16.2415	0.1195	32483	keystroke_a	a	n/a
17.156	0.09	34312	keystroke_m	m	n/a
17.396	0.1955	34792	keystroke_i	i	n/a
17.486	0.18	34972	keystroke_n	n	n/a
17.636	0.1655	35272	keystroke_Key.space	Key.space	n/a
18.5215	0.105	37043	keystroke_n	n	n/a
18.7465	0.12	37493	keystroke_i	i	n/a
18.9265	0.1195	37853	keystroke_c	c	n/a
19.0615	0.135	38123	keystroke_a	a	n/a
19.3165	0.135	38633	keystroke_r	r	n/a
19.526	0.135	39052	keystroke_a	a	n/a
19.766	0.105	39532	keystroke_g	g	n/a
20.426	0.135	40852	keystroke_u	u	n/a
20.516	0.1955	41032	keystroke_a	a	n/a
21.191	0.12	42382	keystroke_Key.space	Key.space	n/a
21.476	0.09	42952	keystroke_b	b	n/a
21.776	0.1355	43552	keystroke_r	r	n/a
21.8965	0.135	43793	keystroke_e	e	n/a
22.0615	0.15	44123	keystroke_a	a	n/a
22.4215	0.075	44843	keystroke_Key.backspace	Key.backspace	n/a
22.6165	0.045	45233	keystroke_Key.backspace	Key.backspace	n/a
22.7515	0.105	45503	keystroke_Key.backspace	Key.backspace	n/a
22.7965	0.165	45593	keystroke_e	e	n/a
22.9465	0.1795	45893	keystroke_a	a	n/a
23.051	0.15	46102	keystroke_r	r	n/a
23.261	0.135	46522	keystroke_s	s	n/a
23.606	0.12	47212	keystroke_Key.enter	Key.enter	n/a
23.7315	12.881	47463	prompt	n/a	succeed lakes bali leasing\n
25.9185	0.088	51837	keystroke_s	s	n/a
26.0815	0.135	52163	keystroke_u	u	n/a
26.2915	0.105	52583	keystroke_c	c	n/a
27.311	0.075	54622	keystroke_c	c	n/a
27.506	0.12	55012	keystroke_e	e	n/a
28.301	0.135	56602	keystroke_e	e	n/a
28.5415	0.15	57083	keystroke_d	d	n/a
28.8115	0.135	57623	keystroke_Key.space	Key.space	n/a
29.0365	0.164	58073	keystroke_l	l	n/a
29.1715	0.165	58343	keystroke_a	a	n/a
29.5015	0.134	59003	keystroke_k	k	n/a
30.7465	0.105	61493	keystroke_e	e	n/a
30.956	0.135	61912	keystroke_s	s	n/a
31.541	0.165	63082	keystroke_Key.space	Key.space	n/a
31.826	0.1505	63652	keystroke_a	a	n/a
31.9165	0.09	63833	keystroke_b	b	n/a
32.4715	0.06	64943	keystroke_Key.backspace	Key.backspace	n/a
32.6365	0.09	65273	keystroke_Key.backspace	Key.backspace	n/a
32.9215	0.045	65843	keystroke_b	b	n/a
32.9815	0.15	65963	keystroke_a	a	n/a
33.446	0.09	66892	keystroke_l	l	n/a
33.671	0.105	67342	keystroke_i	i	n/a
34.6915	0.15	69383	keystroke_Key.space	Key.space	n/a
35.2915	0.1195	70583	keystroke_l	l	n/a
35.381	0.09	70762	keystroke_e	e	n/a
35.546	0.15	71092	keystroke_a	a	n/a
35.666	0.24	71332	keystroke_s	s	n/a
35.981	0.165	71962	keystroke_i	i	n/a
36.0415	0.1645	72083	keystroke_n	n	n/a
36.161	0.105	72322	keystroke_g	g	n/a
36.491	0.1205	72982	keystroke_Key.enter	Key.enter	n/a
36.616	11.817	73232	prompt	n/a	broad well telephony refine\n
37.542	0.119	75084	keystroke_b	b	n/a
37.751	0.12	75502	keystroke_r	r	n/a
37.886	0.12	75772	keystroke_o	o	n/a
38.1565	0.195	76313	keystroke_a	a	n/a
38.3215	0.18	76643	keystroke_d	d	n/a
38.7265	0.135	77453	keystroke_Key.space	Key.space	n/a
38.9365	0.165	77873	keystroke_w	w	n/a
39.0265	0.135	78053	keystroke_e	e	n/a
39.2665	0.045	78533	keystroke_l	l	n/a
39.4015	0.21	78803	keystroke_l	l	n/a
39.5215	0.15	79043	keystroke_Key.space	Key.space	n/a
39.9265	0.075	79853	keystroke_t	t	n/a
40.0615	0.135	80123	keystroke_e	e	n/a
40.2265	0.09	80453	keystroke_l	l	n/a
40.3915	0.12	80783	keystroke_l	l	n/a
40.8115	0.12	81623	keystroke_Key.backspace	Key.backspace	n/a
41.2765	0.15	82553	keystroke_e	e	n/a
41.6215	0.135	83243	keystroke_p	p	n/a
41.8165	0.1045	83633	keystroke_h	h	n/a
41.936	0.195	83872	keystroke_o	o	n/a
42.056	0.135	84112	keystroke_n	n	n/a
42.7015	0.12	85403	keystroke_y	y	n/a
43.0615	0.1495	86123	keystroke_Key.space	Key.space	n/a
43.226	0.15	86452	keystroke_r	r	n/a
43.331	0.09	86662	keystroke_e	e	n/a
43.556	0.165	87112	keystroke_i	i	n/a
43.631	0.18	87262	keystroke_n	n	n/a
43.976	0.075	87952	keystroke_f	f	n/a
43.991	0.015	87982	keystroke_g	g	n/a
44.246	0.09	88492	keystroke_Key.backspace	Key.backspace	n/a
44.456	0.06	88912	keystroke_Key.backspace	Key.backspace	n/a
44.606	0.105	89212	keystroke_Key.backspace	Key.backspace	n/a
44.786	0.12	89572	keystroke_Key.backspace	Key.backspace	n/a
45.026	0.03	90052	keystroke_f	f	n/a
46.421	0.135	92842	keystroke_i	i	n/a
46.496	0.15	92992	keystroke_n	n	n/a
46.557	0.134	93114	keystroke_e	e	n/a
46.751	0.15	93502	keystroke_s	s	n/a
47.3515	0.135	94703	keystroke_Key.backspace	Key.backspace	n/a
48.326	0.105	96652	keystroke_Key.enter	Key.enter	n/a
48.436	7.857	96872	prompt	n/a	courses apps folk survive\n
49.1965	0.1195	98393	keystroke_c	c	n/a
49.3315	0.1495	98663	keystroke_o	o	n/a
49.406	0.15	98812	keystroke_u	u	n/a
49.496	0.09	98992	keystroke_r	r	n/a
49.676	0.165	99352	keystroke_s	s	n/a
49.751	0.165	99502	keystroke_e	e	n/a
50.801	0.12	101602	keystroke_s	s	n/a
51.116	0.15	102232	keystroke_Key.space	Key.space	n/a
51.326	0.135	102652	keystroke_a	a	n/a
51.506	0.09	103012	keystroke_p	p	n/a
51.686	0.1205	103372	keystroke_p	p	n/a
52.061	0.135	104122	keystroke_s	s	n/a
52.421	0.105	104842	keystroke_Key.space	Key.space	n/a
52.556	0.15	105112	keystroke_f	f	n/a
52.721	0.135	105442	keystroke_o	o	n/a
52.946	0.1805	105892	keystroke_k	k	n/a
53.3815	0.12	106763	keystroke_Key.backspace	Key.backspace	n/a
53.6965	0.09	107393	keystroke_l	l	n/a
53.8315	0.135	107663	keystroke_k	k	n/a
54.401	0.135	108802	keystroke_Key.space	Key.space	n/a
54.596	0.15	109192	keystroke_s	s	n/a
54.731	0.135	109462	keystroke_u	u	n/a
54.791	0.12	109582	keystroke_r	r	n/a
55.031	0.06	110062	keystroke_v	v	n/a
55.376	0.15	110752	keystroke_i	i	n/a
55.421	0.09	110842	keystroke_v	v	n/a
55.646	0.135	111292	keystroke_e	e	n/a
56.171	0.12	112342	keystroke_Key.enter	Key.enter	n/a
56.2965	8.0665	112593	prompt	n/a	interview recorders blend freebsd\n
57.192	0.15	114384	keystroke_i	i	n/a
57.282	0.15	114564	keystroke_n	n	n/a
57.402	0.06	114804	keystroke_t	t	n/a
57.522	0.15	115044	keystroke_e	e	n/a
57.611	0.106	115222	keystroke_r	r	n/a
57.852	0.105	115704	keystroke_v	v	n/a
57.987	0.134	115974	keystroke_i	i	n/a
58.076	0.21	116152	keystroke_e	e	n/a
58.181	0.165	116362	keystroke_w	w	n/a
58.5115	0.12	117023	keystroke_Key.space	Key.space	n/a
58.7065	0.135	117413	keystroke_r	r	n/a
59.0365	0.135	118073	keystroke_e	e	n/a
59.2765	0.105	118553	keystroke_c	c	n/a
59.4115	0.15	118823	keystroke_o	o	n/a
59.5165	0.105	119033	keystroke_r	r	n/a
59.726	0.1205	119452	keystroke_d	d	n/a
59.9215	0.1345	119843	keystroke_s	s	n/a
60.2215	0.12	120443	keystroke_Key.space	Key.space	n/a
60.4615	0.075	120923	keystroke_b	b	n/a
60.6715	0.135	121343	keystroke_l	l	n/a
60.7915	0.135	121583	keystroke_e	e	n/a
60.8965	0.15	121793	keystroke_n	n	n/a
61.4515	0.135	122903	keystroke_d	d	n/a
61.7965	0.105	123593	keystroke_Key.space	Key.space	n/a
62.2015	0.075	124403	keystroke_f	f	n/a
62.4265	0.135	124853	keystroke_r	r	n/a
62.5315	0.1495	125063	keystroke_e	e	n/a
62.7715	0.135	125543	keystroke_e	e	n/a
63.342	0.105	126684	keystroke_b	b	n/a
63.612	0.149	127224	keystroke_s	s	n/a
63.912	0.119	127824	keystroke_d	d	n/a
64.226	0.135	128452	keystroke_Key.enter	Key.enter	n/a
64.366	8.5775	128732	prompt	n/a	moral consists consoles suitable\n
65.561	0.12	131122	keystroke_m	m	n/a
65.756	0.165	131512	keystroke_o	o	n/a
65.846	0.12	131692	keystroke_r	r	n/a
66.041	0.135	132082	keystroke_a	a	n/a
66.131	0.135	132262	keystroke_l	l	n/a
66.791	0.135	133582	keystroke_Key.space	Key.space	n/a
67.0165	0.135	134033	keystroke_c	c	n/a
67.1065	0.1955	134213	keystroke_o	o	n/a
67.182	0.195	134364	keystroke_n	n	n/a
67.646	0.121	135292	keystroke_s	s	n/a
67.752	0.15	135504	keystroke_i	i	n/a
67.857	0.119	135714	keystroke_s	s	n/a
68.0815	0.1345	136163	keystroke_t	t	n/a
68.351	0.12	136702	keystroke_s	s	n/a
68.726	0.12	137452	keystroke_Key.space	Key.space	n/a
68.921	0.12	137842	keystroke_c	c	n/a
69.026	0.18	138052	keystroke_o	o	n/a
69.101	0.15	138202	keystroke_n	n	n/a
69.702	0.149	139404	keystroke_s	s	n/a
69.836	0.12	139672	keystroke_o	o	n/a
70.062	0.149	140124	keystroke_l	l	n/a
70.197	0.12	140394	keystroke_e	e	n/a
70.392	0.1495	140784	keystroke_s	s	n/a
70.886	0.165	141772	keystroke_Key.space	Key.space	n/a
71.111	0.1655	142222	keystroke_s	s	n/a
71.2465	0.135	142493	keystroke_u	u	n/a
71.3215	0.18	142643	keystroke_i	i	n/a
71.6365	0.105	143273	keystroke_t	t	n/a
71.9365	0.15	143873	keystroke_a	a	n/a
72.1615	0.105	144323	keystroke_b	b	n/a
72.3715	0.15	144743	keystroke_l	l	n/a
72.4465	0.165	144893	keystroke_e	e	n/a
72.8215	0.12	145643	keystroke_Key.enter	Key.enter	n/a
72.9485	9.3095	145897	prompt	n/a	accident coordinates para ncaa\n
73.9915	0.12	147983	keystroke_a	a	n/a
74.1715	0.09	148343	keystroke_c	c	n/a
74.3515	0.105	148703	keystroke_c	c	n/a
74.8165	0.1345	149633	keystroke_i	i	n/a
75.056	0.015	150112	keystroke_d	d	n/a
75.176	0.135	150352	keystroke_e	e	n/a
75.281	0.12	150562	keystroke_n	n	n/a
75.402	0.134	150804	keystroke_t	t	n/a
75.686	0.135	151372	keystroke_Key.space	Key.space	n/a
75.911	0.09	151822	keystroke_c	c	n/a
76.046	0.09	152092	keystroke_o	o	n/a
76.2715	0.135	152543	keystroke_o	o	n/a
76.4215	0.105	152843	keystroke_r	r	n/a
76.6465	0.15	153293	keystroke_d	d	n/a
76.7665	0.09	153533	keystroke_i	i	n/a
76.9165	0.135	153833	keystroke_n	n	n/a
77.0215	0.1955	154043	keystroke_a	a	n/a
77.1265	0.1505	154253	keystroke_t	t	n/a
77.307	0.12	154614	keystroke_e	e	n/a
77.547	0.104	155094	keystroke_s	s	n/a
78.102	0.149	156204	keystroke_Key.space	Key.space	n/a
78.5065	0.135	157013	keystroke_p	p	n/a
78.6115	0.135	157223	keystroke_a	a	n/a
78.7315	0.1795	157463	keystroke_r	r	n/a
78.942	0.149	157884	keystroke_a	a	n/a
79.4065	0.135	158813	keystroke_Key.space	Key.space	n/a
79.7065	0.15	159413	keystroke_n	n	n/a
79.9765	0.09	159953	keystroke_c	c	n/a
80.7115	0.06	161423	keystroke_c	c	n/a
81.2365	0.135	162473	keystroke_Key.backspace	Key.backspace	n/a
81.3865	0.15	162773	keystroke_a	a	n/a
81.5965	0.15	163193	keystroke_a	a	n/a
82.151	0.106	164302	keystroke_Key.enter	Key.enter	n/a
82.266	15.532	164532	prompt	n/a	afghanistan dependence revision multiple\n
83.382	0.15	166764	keystroke_a	a	n/a
83.442	0.18	166884	keystroke_f	f	n/a
84.252	0.1195	168504	keystroke_g	g	n/a
85.362	0.1345	170724	keystroke_h	h	n/a
85.7215	0.1645	171443	keystroke_a	a	n/a
86.126	0.105	172252	keystroke_n	n	n/a
86.441	0.12	172882	keystroke_i	i	n/a
86.576	0.135	173152	keystroke_s	s	n/a
86.786	0.105	173572	keystroke_t	t	n/a
86.951	0.15	173902	keystroke_a	a	n/a
87.102	0.134	174204	keystroke_n	n	n/a
87.326	0.135	174652	keystroke_Key.space	Key.space	n/a
87.491	0.105	174982	keystroke_d	d	n/a
87.686	0.12	175372	keystroke_e	e	n/a
87.851	0.166	175702	keystroke_p	p	n/a
88.032	0.119	176064	keystroke_e	e	n/a
88.107	0.134	176214	keystroke_n	n	n/a
88.736	0.091	177472	keystroke_d	d	n/a
88.931	0.136	177862	keystroke_e	e	n/a
89.036	0.1655	178072	keystroke_n	n	n/a
89.1715	0.195	178343	keystroke_c	c	n/a
89.3365	0.135	178673	keystroke_e	e	n/a
92.7585	0.103	185517	keystroke_Key.space	Key.space	n/a
92.832	0.15	185664	keystroke_r	r	n/a
92.907	0.12	185814	keystroke_e	e	n/a
93.132	0.12	186264	keystroke_v	v	n/a
93.267	0.09	186534	keystroke_i	i	n/a
93.372	0.15	186744	keystroke_s	s	n/a
93.462	0.15	186924	keystroke_i	i	n/a
93.567	0.21	187134	keystroke_o	o	n/a
93.657	0.195	187314	keystroke_n	n	n/a
94.3465	0.165	188693	keystroke_Key.space	Key.space	n/a
95.727	0.135	191454	keystroke_m	m	n/a
96.042	0.104	192084	keystroke_u	u	n/a
96.251	0.165	192502	keystroke_l	l	n/a
96.536	0.105	193072	keystroke_t	t	n/a
96.596	0.105	193192	keystroke_i	i	n/a
96.761	0.105	193522	keystroke_p	p	n/a
96.971	0.135	193942	keystroke_l	l	n/a
97.091	0.165	194182	keystroke_e	e	n/a
97.661	0.135	195322	keystroke_Key.enter	Key.enter	n/a
97.8015	8.0515	195603	prompt	n/a	tubes rich singapore quite\n
98.7115	0.105	197423	keystroke_t	t	n/a
98.8015	0.06	197603	keystroke_u	u	n/a
98.9965	0.105	197993	keystroke_b	b	n/a
99.1465	0.105	198293	keystroke_e	e	n/a
99.3415	0.1505	198683	keystroke_s	s	n/a
99.7915	0.15	199583	keystroke_Key.space	Key.space	n/a
100.0615	0.105	200123	keystroke_r	r	n/a
100.1365	0.12	200273	keystroke_i	i	n/a
100.2715	0.12	200543	keystroke_c	c	n/a
100.3765	0.18	200753	keystroke_h	h	n/a
100.4815	0.15	200963	keystroke_Key.space	Key.space	n/a
100.8115	0.15	201623	keystroke_s	s	n/a
100.9165	0.12	201833	keystroke_i	i	n/a
100.9915	0.135	201983	keystroke_n	n	n/a
101.0965	0.1195	202193	keystroke_g	g	n/a
101.261	0.15	202522	keystroke_a	a	n/a
101.906	0.151	203812	keystroke_p	p	n/a
102.176	0.135	204352	keystroke_o	o	n/a
102.267	0.164	204534	keystroke_r	r	n/a
102.341	0.165	204682	keystroke_e	e	n/a
102.671	0.12	205342	keystroke_Key.space	Key.space	n/a
102.941	0.12	205882	keystroke_q	q	n/a
103.001	0.15	206002	keystroke_u	u	n/a
103.076	0.1505	206152	keystroke_i	i	n/a
103.1965	0.12	206393	keystroke_t	t	n/a
103.3315	0.1495	206663	keystroke_e	e	n/a
105.779	0.072	211558	keystroke_Key.enter	Key.enter	n/a
105.856	11.6365	211712	prompt	n/a	validation peru source conditioning\n
106.8115	0.135	213623	keystroke_v	v	n/a
107.0965	0.1495	214193	keystroke_a	a	n/a
107.306	0.135	214612	keystroke_l	l	n/a
107.576	0.135	215152	keystroke_i	i	n/a
107.726	0.135	215452	keystroke_d	d	n/a
107.846	0.18	215692	keystroke_a	a	n/a
107.981	0.15	215962	keystroke_t	t	n/a
108.071	0.12	216142	keystroke_i	i	n/a
108.146	0.21	216292	keystroke_o	o	n/a
108.251	0.195	216502	keystroke_n	n	n/a
108.476	0.15	216952	keystroke_Key.space	Key.space	n/a
108.716	0.135	217432	keystroke_p	p	n/a
108.821	0.15	217642	keystroke_r	r	n/a
109.076	0.15	218152	keystroke_e	e	n/a
109.451	0.075	218902	keystroke_Key.backspace	Key.backspace	n/a
109.616	0.105	219232	keystroke_Key.backspace	Key.backspace	n/a
109.646	0.15	219292	keystroke_e	e	n/a
109.781	0.15	219562	keystroke_r	r	n/a
109.946	0.135	219892	keystroke_u	u	n/a
110.561	0.135	221122	keystroke_Key.space	Key.space	n/a
110.771	0.15	221542	keystroke_s	s	n/a
110.861	0.195	221722	keystroke_o	o	n/a
110.951	0.15	221902	keystroke_u	u	n/a
111.041	0.135	222082	keystroke_r	r	n/a
111.296	0.18	222592	keystroke_c	c	n/a
111.416	0.165	222832	keystroke_e	e	n/a
112.136	0.1505	224272	keystroke_Key.space	Key.space	n/a
112.4215	0.1505	224843	keystroke_d	d	n/a
112.587	0.135	225174	keystroke_o	o	n/a
112.902	0.135	225804	keystroke_n	n	n/a
113.472	0.075	226944	keystroke_Key.backspace	Key.backspace	n/a
113.6365	0.075	227273	keystroke_Key.backspace	Key.backspace	n/a
113.7865	0.12	227573	keystroke_Key.backspace	Key.backspace	n/a
113.9215	0.1355	227843	keystroke_c	c	n/a
114.072	0.165	228144	keystroke_o	o	n/a
114.1315	0.1645	228263	keystroke_n	n	n/a
114.327	0.164	228654	keystroke_d	d	n/a
114.416	0.1355	228832	keystroke_i	i	n/a
114.6265	0.12	229253	keystroke_t	t	n/a
114.6715	0.15	229343	keystroke_i	i	n/a
114.7765	0.21	229553	keystroke_o	o	n/a
114.8665	0.195	229733	keystroke_n	n	n/a
115.0165	0.165	230033	keystroke_a	a	n/a
115.4965	0.135	230993	keystroke_Key.backspace	Key.backspace	n/a
115.781	0.165	231562	keystroke_i	i	n/a
115.841	0.21	231682	keystroke_n	n	n/a
115.976	0.12	231952	keystroke_g	g	n/a
117.341	0.15	234682	keystroke_Key.enter	Key.enter	n/a
117.4955	9.9875	234991	prompt	n/a	rational subjects metro performances\n
120.704	0.087	241408	keystroke_r	r	n/a
120.821	0.136	241642	keystroke_a	a	n/a
121.002	0.12	242004	keystroke_t	t	n/a
121.107	0.1195	242214	keystroke_i	i	n/a
121.1815	0.195	242363	keystroke_o	o	n/a
121.2865	0.165	242573	keystroke_n	n	n/a
121.4065	0.135	242813	keystroke_a	a	n/a
121.5265	0.21	243053	keystroke_l	l	n/a
121.6315	0.15	243263	keystroke_Key.space	Key.space	n/a
121.8865	0.135	243773	keystroke_s	s	n/a
122.0065	0.075	244013	keystroke_u	u	n/a
122.1865	0.105	244373	keystroke_b	b	n/a
122.592	0.164	245184	keystroke_j	j	n/a
122.697	0.12	245394	keystroke_e	e	n/a
122.907	0.09	245814	keystroke_c	c	n/a
123.117	0.09	246234	keystroke_t	t	n/a
123.327	0.12	246654	keystroke_s	s	n/a
123.522	0.15	247044	keystroke_Key.space	Key.space	n/a
123.777	0.1345	247554	keystroke_m	m	n/a
123.897	0.1345	247794	keystroke_e	e	n/a
124.167	0.075	248334	keystroke_t	t	n/a
124.3465	0.09	248693	keystroke_r	r	n/a
124.4515	0.135	248903	keystroke_o	o	n/a
124.8415	0.135	249683	keystroke_Key.space	Key.space	n/a
125.021	0.135	250042	keystroke_p	p	n/a
125.1415	0.1355	250283	keystroke_e	e	n/a
125.2015	0.1355	250403	keystroke_r	r	n/a
125.442	0.089	250884	keystroke_f	f	n/a
125.516	0.151	251032	keystroke_o	o	n/a
125.636	0.121	251272	keystroke_r	r	n/a
125.982	0.1195	251964	keystroke_m	m	n/a
126.0715	0.15	252143	keystroke_a	a	n/a
126.2065	0.135	252413	keystroke_n	n	n/a
126.3115	0.225	252623	keystroke_c	c	n/a
126.4465	0.135	252893	keystroke_e	e	n/a
127.0615	0.15	254123	keystroke_s	s	n/a
127.3615	0.12	254723	keystroke_Key.enter	Key.enter	n/a
127.4865	8.5015	254973	prompt	n/a	conducted lexus implications suite\n
128.1865	0.12	256373	keystroke_c	c	n/a
128.3065	0.15	256613	keystroke_o	o	n/a
128.3815	0.12	256763	keystroke_n	n	n/a
128.4715	0.15	256943	keystroke_d	d	n/a
128.6515	0.12	257303	keystroke_u	u	n/a
128.7565	0.105	257513	keystroke_c	c	n/a
129.0115	0.105	258023	keystroke_t	t	n/a
129.192	0.105	258384	keystroke_e	e	n/a
129.4015	0.12	258803	keystroke_d	d	n/a
129.7615	0.135	259523	keystroke_Key.space	Key.space	n/a
130.0165	0.135	260033	keystroke_l	l	n/a
130.0765	0.135	260153	keystroke_e	e	n/a
130.4515	0.12	260903	keystroke_x	x	n/a
130.6015	0.135	261203	keystroke_u	u	n/a
130.7365	0.165	261473	keystroke_s	s	n/a
131.5315	0.1355	263063	keystroke_Key.space	Key.space	n/a
131.742	0.1195	263484	keystroke_i	i	n/a
131.9965	0.075	263993	keystroke_m	m	n/a
132.206	0.121	264412	keystroke_p	p	n/a
132.537	0.134	265074	keystroke_l	l	n/a
133.301	0.121	266602	keystroke_i	i	n/a
133.4665	0.105	266933	keystroke_c	c	n/a
133.5415	0.135	267083	keystroke_a	a	n/a
133.7815	0.12	267563	keystroke_t	t	n/a
133.8415	0.165	267683	keystroke_i	i	n/a
133.9465	0.21	267893	keystroke_o	o	n/a
134.0665	0.18	268133	keystroke_n	n	n/a
134.2015	0.15	268403	keystroke_s	s	n/a
134.4265	0.195	268853	keystroke_Key.space	Key.space	n/a
134.6515	0.18	269303	keystroke_s	s	n/a
134.6815	0.165	269363	keystroke_u	u	n/a
135.266	0.151	270532	keystroke_i	i	n/a
135.341	0.105	270682	keystroke_t	t	n/a
135.507	0.104	271014	keystroke_e	e	n/a
135.851	0.135	271702	keystroke_Key.enter	Key.enter	n/a
135.991	6.981	271982	prompt	n/a	enquiry treatment ruled deeply\n
136.827	0.134	273654	keystroke_e	e	n/a
136.976	0.166	273952	keystroke_n	n	n/a
137.2315	0.15	274463	keystroke_q	q	n/a
137.3665	0.165	274733	keystroke_u	u	n/a
137.4565	0.1795	274913	keystroke_i	i	n/a
137.711	0.15	275422	keystroke_r	r	n/a
137.876	0.18	275752	keystroke_y	y	n/a
138.011	0.15	276022	keystroke_Key.space	Key.space	n/a
138.2965	0.09	276593	keystroke_t	t	n/a
138.4615	0.1495	276923	keystroke_r	r	n/a
138.551	0.1645	277102	keystroke_e	e	n/a
138.7305	0.194	277461	keystroke_a	a	n/a
138.835	0.149	277670	keystroke_t	t	n/a
139.2385	0.1195	278477	keystroke_m	m	n/a
139.3135	0.1345	278627	keystroke_e	e	n/a
139.463	0.1045	278926	keystroke_n	n	n/a
139.5225	0.165	279045	keystroke_t	t	n/a
139.8965	0.1345	279793	keystroke_Key.space	Key.space	n/a
140.0615	0.1495	280123	keystroke_r	r	n/a
140.212	0.088	280424	keystroke_u	u	n/a
140.42	0.151	280840	keystroke_l	l	n/a
140.586	0.1195	281172	keystroke_e	e	n/a
140.9465	0.015	281893	keystroke_d	d	n/a
141.111	0.1345	282222	keystroke_Key.space	Key.space	n/a
141.441	0.105	282882	keystroke_d	d	n/a
141.6355	0.105	283271	keystroke_e	e	n/a
141.831	0.135	283662	keystroke_e	e	n/a
141.951	0.1195	283902	keystroke_p	p	n/a
142.19	0.1365	284380	keystroke_l	l	n/a
142.461	0.1195	284922	keystroke_y	y	n/a
142.836	0.1345	285672	keystroke_Key.enter	Key.enter	n/a
142.9765	9.431	285953	prompt	n/a	clocks sunday prairie pics\n
143.796	0.1495	287592	keystroke_c	c	n/a
143.9305	0.106	287861	keystroke_l	l	n/a
144.1565	0.1645	288313	keystroke_o	o	n/a
144.412	0.1345	288824	keystroke_c	c	n/a
144.5165	0.1495	289033	keystroke_k	k	n/a
144.8005	0.1505	289601	keystroke_s	s	n/a
145.1455	0.151	290291	keystroke_Key.space	Key.space	n/a
145.446	0.1795	290892	keystroke_s	s	n/a
145.5505	0.1045	291101	keystroke_u	u	n/a
145.777	0.1045	291554	keystroke_n	n	n/a
145.8515	0.1345	291703	keystroke_d	d	n/a
145.971	0.1655	291942	keystroke_a	a	n/a
146.1055	0.136	292211	keystroke_y	y	n/a
146.7365	0.1495	293473	keystroke_Key.space	Key.space	n/a
147.007	0.1495	294014	keystroke_p	p	n/a
147.127	0.1195	294254	keystroke_r	r	n/a
147.6065	0.15	295213	keystroke_a	a	n/a
148.821	0.1195	297642	keystroke_i	i	n/a
149.0605	0.151	298121	keystroke_r	r	n/a
149.6915	0.15	299383	keystroke_i	i	n/a
149.992	0.15	299984	keystroke_e	e	n/a
150.4275	0.1495	300855	keystroke_Key.space	Key.space	n/a
150.801	0.121	301602	keystroke_p	p	n/a
151.0265	0.12	302053	keystroke_i	i	n/a
151.1015	0.1195	302203	keystroke_c	c	n/a
151.327	0.135	302654	keystroke_s	s	n/a
152.271	0.1345	304542	keystroke_Key.enter	Key.enter	n/a
152.413	6.3105	304826	prompt	n/a	industry ordered hoping olive\n
153.171	0.1355	306342	keystroke_i	i	n/a
153.2465	0.1345	306493	keystroke_n	n	n/a
153.396	0.151	306792	keystroke_d	d	n/a
153.532	0.1195	307064	keystroke_u	u	n/a
153.607	0.134	307214	keystroke_s	s	n/a
153.846	0.106	307692	keystroke_t	t	n/a
154.056	0.09	308112	keystroke_r	r	n/a
154.117	0.1345	308234	keystroke_y	y	n/a
154.461	0.1345	308922	keystroke_Key.space	Key.space	n/a
154.7305	0.151	309461	keystroke_o	o	n/a
154.8065	0.12	309613	keystroke_r	r	n/a
155.061	0.1205	310122	keystroke_d	d	n/a
155.2565	0.15	310513	keystroke_e	e	n/a
155.3315	0.1495	310663	keystroke_r	r	n/a
155.556	0.106	311112	keystroke_e	e	n/a
155.7665	0.105	311533	keystroke_d	d	n/a
156.1115	0.1345	312223	keystroke_Key.space	Key.space	n/a
156.351	0.1045	312702	keystroke_h	h	n/a
156.471	0.15	312942	keystroke_o	o	n/a
156.681	0.1345	313362	keystroke_p	p	n/a
156.8755	0.166	313751	keystroke_i	i	n/a
156.9965	0.1195	313993	keystroke_n	n	n/a
157.086	0.105	314172	keystroke_g	g	n/a
157.251	0.1355	314502	keystroke_Key.space	Key.space	n/a
157.656	0.1205	315312	keystroke_o	o	n/a
157.8515	0.1045	315703	keystroke_l	l	n/a
158.001	0.15	316002	keystroke_i	i	n/a
158.1065	0.0895	316213	keystroke_v	v	n/a
158.242	0.15	316484	keystroke_e	e	n/a
158.5865	0.1355	317173	keystroke_Key.enter	Key.enter	n/a
158.726	9.6875	317452	prompt	n/a	site accessory installations bhutan\n
159.426	0.1205	318852	keystroke_s	s	n/a
159.592	0.135	319184	keystroke_i	i	n/a
159.607	0.105	319214	keystroke_t	t	n/a
159.772	0.1195	319544	keystroke_e	e	n/a
160.311	0.15	320622	keystroke_Key.space	Key.space	n/a
160.507	0.1495	321014	keystroke_a	a	n/a
160.6715	0.09	321343	keystroke_c	c	n/a
160.8375	0.1495	321675	keystroke_c	c	n/a
160.941	0.121	321882	keystroke_e	e	n/a
161.3165	0.12	322633	keystroke_s	s	n/a
161.5115	0.1805	323023	keystroke_s	s	n/a
161.9615	0.165	323923	keystroke_o	o	n/a
162.1115	0.165	324223	keystroke_r	r	n/a
162.2615	0.1345	324523	keystroke_y	y	n/a
162.441	0.166	324882	keystroke_Key.space	Key.space	n/a
162.6815	0.15	325363	keystroke_i	i	n/a
162.7565	0.165	325513	keystroke_n	n	n/a
163.2965	0.1505	326593	keystroke_s	s	n/a
163.492	0.1345	326984	keystroke_t	t	n/a
163.6565	0.1345	327313	keystroke_a	a	n/a
163.8965	0.09	327793	keystroke_l	l	n/a
164.0465	0.1495	328093	keystroke_l	l	n/a
164.151	0.1355	328302	keystroke_a	a	n/a
164.3015	0.15	328603	keystroke_t	t	n/a
164.4065	0.1645	328813	keystroke_i	i	n/a
164.496	0.211	328992	keystroke_o	o	n/a
164.601	0.2105	329202	keystroke_n	n	n/a
165.096	0.1505	330192	keystroke_s	s	n/a
165.591	0.1205	331182	keystroke_Key.space	Key.space	n/a
165.846	0.09	331692	keystroke_b	b	n/a
166.3115	0.1505	332623	keystroke_h	h	n/a
166.9565	0.135	333913	keystroke_u	u	n/a
167.302	0.1045	334604	keystroke_t	t	n/a
167.4815	0.1495	334963	keystroke_a	a	n/a
167.616	0.1355	335232	keystroke_n	n	n/a
168.261	0.15	336522	keystroke_Key.enter	Key.enter	n/a
168.4235	9.7695	336847	prompt	n/a	reflection coming samples anticipated\n
169.237	0.1495	338474	keystroke_r	r	n/a
169.3415	0.1505	338683	keystroke_e	e	n/a
169.6115	0.135	339223	keystroke_f	f	n/a
169.7915	0.1495	339583	keystroke_l	l	n/a
169.897	0.0745	339794	keystroke_e	e	n/a
170.0015	0.135	340003	keystroke_c	c	n/a
170.271	0.1205	340542	keystroke_t	t	n/a
170.3465	0.135	340693	keystroke_i	i	n/a
170.4365	0.2095	340873	keystroke_o	o	n/a
170.5415	0.2105	341083	keystroke_n	n	n/a
170.676	0.165	341352	keystroke_Key.space	Key.space	n/a
170.931	0.12	341862	keystroke_c	c	n/a
170.991	0.1345	341982	keystroke_o	o	n/a
171.2165	0.1345	342433	keystroke_m	m	n/a
172.027	0.12	344054	keystroke_i	i	n/a
172.2215	0.1345	344443	keystroke_n	n	n/a
172.386	0.1205	344772	keystroke_g	g	n/a
172.4915	0.105	344983	keystroke_Key.space	Key.space	n/a
172.6415	0.1345	345283	keystroke_s	s	n/a
172.806	0.1655	345612	keystroke_m	m	n/a
172.9725	0.1345	345945	keystroke_a	a	n/a
173.092	0.1645	346184	keystroke_p	p	n/a
173.572	0.09	347144	keystroke_Key.backspace	Key.backspace	n/a
173.7375	0.1195	347475	keystroke_Key.backspace	Key.backspace	n/a
173.887	0.15	347774	keystroke_Key.backspace	Key.backspace	n/a
174.1875	0.164	348375	keystroke_a	a	n/a
174.3965	0.135	348793	keystroke_m	m	n/a
174.622	0.1195	349244	keystroke_p	p	n/a
174.9215	0.045	349843	keystroke_l	l	n/a
174.9365	0.0755	349873	keystroke_e	e	n/a
175.1165	0.12	350233	keystroke_s	s	n/a
175.552	0.18	351104	keystroke_Key.space	Key.space	n/a
175.8665	0.1355	351733	keystroke_a	a	n/a
175.9725	0.1345	351945	keystroke_n	n	n/a
176.167	0.12	352334	keystroke_t	t	n/a
176.272	0.12	352544	keystroke_i	i	n/a
176.452	0.12	352904	keystroke_c	c	n/a
176.542	0.135	353084	keystroke_i	i	n/a
176.977	0.135	353954	keystroke_p	p	n/a
177.082	0.135	354164	keystroke_a	a	n/a
177.277	0.1195	354554	keystroke_t	t	n/a
177.4865	0.1045	354973	keystroke_e	e	n/a
177.6965	0.12	355393	keystroke_d	d	n/a
178.0575	0.1345	356115	keystroke_Key.enter	Key.enter	n/a
178.198	7.9455	356396	prompt	n/a	arbor ordering lobby sudan\n
179.0615	0.1505	358123	keystroke_a	a	n/a
179.1665	0.1355	358333	keystroke_r	r	n/a
179.3765	0.12	358753	keystroke_b	b	n/a
179.5565	0.165	359113	keystroke_o	o	n/a
179.6165	0.165	359233	keystroke_r	r	n/a
180.1265	0.136	360253	keystroke_Key.space	Key.space	n/a
180.412	0.135	360824	keystroke_o	o	n/a
180.487	0.12	360974	keystroke_r	r	n/a
180.6975	0.1195	361395	keystroke_d	d	n/a
180.877	0.1955	361754	keystroke_e	e	n/a
180.982	0.1655	361964	keystroke_r	r	n/a
181.1025	0.1495	362205	keystroke_i	i	n/a
181.177	0.165	362354	keystroke_n	n	n/a
181.3115	0.0905	362623	keystroke_g	g	n/a
181.762	0.12	363524	keystroke_Key.space	Key.space	n/a
181.972	0.09	363944	keystroke_l	l	n/a
182.1815	0.12	364363	keystroke_o	o	n/a
182.452	0.075	364904	keystroke_b	b	n/a
182.602	0.1195	365204	keystroke_b	b	n/a
182.827	0.1345	365654	keystroke_y	y	n/a
183.292	0.135	366584	keystroke_Key.space	Key.space	n/a
183.457	0.165	366914	keystroke_s	s	n/a
183.742	0.12	367484	keystroke_u	u	n/a
183.9965	0.12	367993	keystroke_n	n	n/a
184.7465	0.15	369493	keystroke_Key.backspace	Key.backspace	n/a
185.377	0.12	370754	keystroke_d	d	n/a
185.557	0.1345	371114	keystroke_a	a	n/a
185.6315	0.12	371263	keystroke_n	n	n/a
186.0065	0.1355	372013	keystroke_Key.enter	Key.enter	n/a
186.1465	8.877	372293	prompt	n/a	swimming farmers superb calculated\n
186.9675	0.12	373935	keystroke_s	s	n/a
187.1775	0.12	374355	keystroke_w	w	n/a
187.4175	0.1045	374835	keystroke_i	i	n/a
187.6575	0.075	375315	keystroke_m	m	n/a
188.617	0.1045	377234	keystroke_m	m	n/a
188.872	0.135	377744	keystroke_i	i	n/a
188.932	0.15	377864	keystroke_n	n	n/a
189.097	0.09	378194	keystroke_g	g	n/a
189.307	0.1505	378614	keystroke_Key.space	Key.space	n/a
189.5625	0.1195	379125	keystroke_f	f	n/a
189.742	0.165	379484	keystroke_a	a	n/a
189.817	0.15	379634	keystroke_r	r	n/a
190.072	0.135	380144	keystroke_m	m	n/a
190.147	0.135	380294	keystroke_e	e	n/a
190.222	0.135	380444	keystroke_r	r	n/a
190.432	0.15	380864	keystroke_s	s	n/a
190.7165	0.135	381433	keystroke_Key.space	Key.space	n/a
190.8665	0.1655	381733	keystroke_s	s	n/a
191.017	0.1195	382034	keystroke_u	u	n/a
191.2415	0.1355	382483	keystroke_p	p	n/a
191.452	0.165	382904	keystroke_e	e	n/a
191.557	0.15	383114	keystroke_r	r	n/a
191.827	0.105	383654	keystroke_b	b	n/a
192.3225	0.1495	384645	keystroke_Key.space	Key.space	n/a
192.577	0.15	385154	keystroke_c	c	n/a
192.7115	0.135	385423	keystroke_a	a	n/a
192.8765	0.135	385753	keystroke_l	l	n/a
193.4915	0.1205	386983	keystroke_u	u	n/a
193.8665	0.135	387733	keystroke_l	l	n/a
194.0025	0.1345	388005	keystroke_a	a	n/a
194.077	0.1495	388154	keystroke_t	t	n/a
194.2565	0.135	388513	keystroke_e	e	n/a
194.527	0.1195	389054	keystroke_d	d	n/a
194.8865	0.135	389773	keystroke_Key.enter	Key.enter	n/a
195.0265	12.9875	390053	prompt	n/a	practitioners stake missed mile\n
195.922	0.135	391844	keystroke_p	p	n/a
196.042	0.09	392084	keystroke_r	r	n/a
196.1765	0.15	392353	keystroke_a	a	n/a
196.2675	0.164	392535	keystroke_c	c	n/a
196.6425	0.119	393285	keystroke_t	t	n/a
196.8665	0.165	393733	keystroke_i	i	n/a
197.302	0.045	394604	keystroke_v	v	n/a
197.362	0.03	394724	keystroke_c	c	n/a
197.7965	0.1655	395593	keystroke_Key.backspace	Key.backspace	n/a
198.127	0.1345	396254	keystroke_Key.backspace	Key.backspace	n/a
200.424	0.058	400848	keystroke_t	t	n/a
200.452	0.165	400904	keystroke_i	i	n/a
200.557	0.225	401114	keystroke_o	o	n/a
200.677	0.165	401354	keystroke_n	n	n/a
200.947	0.165	401894	keystroke_e	e	n/a
201.067	0.1655	402134	keystroke_r	r	n/a
201.3375	0.1345	402675	keystroke_s	s	n/a
201.6075	0.135	403215	keystroke_Key.space	Key.space	n/a
201.8475	0.12	403695	keystroke_t	t	n/a
202.0125	0.15	404025	keystroke_a	a	n/a
202.5075	0.09	405015	keystroke_Key.backspace	Key.backspace	n/a
202.6725	0.165	405345	keystroke_Key.backspace	Key.backspace	n/a
202.7775	0.165	405555	keystroke_s	s	n/a
202.8675	0.1345	405735	keystroke_t	t	n/a
203.003	0.194	406006	keystroke_a	a	n/a
203.152	0.15	406304	keystroke_k	k	n/a
203.647	0.15	407294	keystroke_e	e	n/a
204.2925	0.1655	408585	keystroke_Key.space	Key.space	n/a
204.7125	0.09	409425	keystroke_m	m	n/a
204.9075	0.135	409815	keystroke_i	i	n/a
205.0575	0.12	410115	keystroke_s	s	n/a
205.2675	0.1795	410535	keystroke_s	s	n/a
205.3575	0.1645	410715	keystroke_e	e	n/a
206.077	0.1505	412154	keystroke_d	d	n/a
206.407	0.1355	412814	keystroke_Key.space	Key.space	n/a
206.602	0.105	413204	keystroke_m	m	n/a
206.812	0.105	413624	keystroke_i	i	n/a
206.9925	0.1495	413985	keystroke_l	l	n/a
207.112	0.135	414224	keystroke_e	e	n/a
207.8475	0.165	415695	keystroke_Key.enter	Key.enter	n/a
208.0175	10.1215	416035	prompt	n/a	sandwich rarely submit species\n
208.777	0.105	417554	keystroke_s	s	n/a
208.987	0.135	417974	keystroke_a	a	n/a
209.047	0.135	418094	keystroke_n	n	n/a
209.167	0.135	418334	keystroke_d	d	n/a
209.752	0.12	419504	keystroke_w	w	n/a
209.887	0.121	419774	keystroke_i	i	n/a
210.0225	0.09	420045	keystroke_s	s	n/a
210.443	0.09	420886	keystroke_Key.backspace	Key.backspace	n/a
210.563	0.135	421126	keystroke_c	c	n/a
210.683	0.105	421366	keystroke_h	h	n/a
211.103	0.1495	422206	keystroke_Key.space	Key.space	n/a
211.313	0.1795	422626	keystroke_r	r	n/a
211.4775	0.135	422955	keystroke_e	e	n/a
212.047	0.12	424094	keystroke_Key.backspace	Key.backspace	n/a
212.152	0.15	424304	keystroke_a	a	n/a
212.197	0.2255	424394	keystroke_r	r	n/a
212.347	0.1505	424694	keystroke_e	e	n/a
212.7525	0.135	425505	keystroke_l	l	n/a
213.0225	0.165	426045	keystroke_y	y	n/a
213.1125	0.15	426225	keystroke_Key.space	Key.space	n/a
213.4425	0.15	426885	keystroke_s	s	n/a
213.5775	0.105	427155	keystroke_u	u	n/a
213.8025	0.105	427605	keystroke_b	b	n/a
214.072	0.105	428144	keystroke_m	m	n/a
214.297	0.135	428594	keystroke_i	i	n/a
214.552	0.12	429104	keystroke_t	t	n/a
214.792	0.15	429584	keystroke_Key.space	Key.space	n/a
214.987	0.135	429974	keystroke_s	s	n/a
215.107	0.135	430214	keystroke_p	p	n/a
215.212	0.135	430424	keystroke_e	e	n/a
215.482	0.135	430964	keystroke_c	c	n/a
215.602	0.135	431204	keystroke_i	i	n/a
216.968	0.119	433936	keystroke_e	e	n/a
217.177	0.15	434354	keystroke_s	s	n/a
218.002	0.1355	436004	keystroke_Key.enter	Key.enter	n/a
218.1435	9.056	436287	prompt	n/a	tongue threatened islamic google\n
218.8725	0.1195	437745	keystroke_t	t	n/a
219.007	0.195	438014	keystroke_o	o	n/a
219.097	0.135	438194	keystroke_n	n	n/a
219.187	0.09	438374	keystroke_g	g	n/a
219.3525	0.135	438705	keystroke_u	u	n/a
219.4125	0.135	438825	keystroke_e	e	n/a
219.8325	0.15	439665	keystroke_Key.space	Key.space	n/a
220.1025	0.075	440205	keystroke_t	t	n/a
220.1625	0.12	440325	keystroke_h	h	n/a
220.3875	0.18	440775	keystroke_r	r	n/a
220.5525	0.15	441105	keystroke_e	e	n/a
220.6875	0.195	441375	keystroke_a	a	n/a
220.8225	0.12	441645	keystroke_t	t	n/a
220.9875	0.135	441975	keystroke_e	e	n/a
221.1075	0.135	442215	keystroke_n	n	n/a
222.082	0.09	444164	keystroke_e	e	n/a
222.262	0.135	444524	keystroke_d	d	n/a
222.7275	0.15	445455	keystroke_Key.space	Key.space	n/a
222.9975	0.12	445995	keystroke_i	i	n/a
223.0725	0.135	446145	keystroke_s	s	n/a
223.2525	0.135	446505	keystroke_l	l	n/a
223.3575	0.1505	446715	keystroke_a	a	n/a
223.7175	0.105	447435	keystroke_m	m	n/a
223.9575	0.135	447915	keystroke_i	i	n/a
224.0625	0.135	448125	keystroke_c	c	n/a
224.2875	0.135	448575	keystroke_Key.space	Key.space	n/a
224.5425	0.12	449085	keystroke_g	g	n/a
224.6775	0.09	449355	keystroke_o	o	n/a
224.8425	0.135	449685	keystroke_o	o	n/a
224.9925	0.09	449985	keystroke_g	g	n/a
225.0675	0.15	450135	keystroke_l	l	n/a
225.2025	0.15	450405	keystroke_e	e	n/a
227.048	0.15	454096	keystroke_Key.enter	Key.enter	n/a
227.2065	6.3225	454413	prompt	n/a	okay pond worse numeric\n
227.9325	0.12	455865	keystroke_o	o	n/a
228.1125	0.15	456225	keystroke_k	k	n/a
228.2175	0.18	456435	keystroke_a	a	n/a
228.3675	0.18	456735	keystroke_y	y	n/a
228.4875	0.135	456975	keystroke_Key.space	Key.space	n/a
228.8325	0.12	457665	keystroke_p	p	n/a
229.1025	0.165	458205	keystroke_o	o	n/a
229.2225	0.165	458445	keystroke_n	n	n/a
229.4475	0.18	458895	keystroke_d	d	n/a
229.7025	0.15	459405	keystroke_Key.space	Key.space	n/a
230.2275	0.09	460455	keystroke_w	w	n/a
230.3475	0.165	460695	keystroke_o	o	n/a
230.5275	0.105	461055	keystroke_r	r	n/a
230.753	0.18	461506	keystroke_s	s	n/a
230.858	0.15	461716	keystroke_e	e	n/a
231.218	0.135	462436	keystroke_Key.space	Key.space	n/a
231.443	0.09	462886	keystroke_n	n	n/a
231.668	0.09	463336	keystroke_u	u	n/a
231.863	0.135	463726	keystroke_m	m	n/a
231.923	0.18	463846	keystroke_e	e	n/a
232.058	0.135	464116	keystroke_r	r	n/a
232.208	0.105	464416	keystroke_i	i	n/a
232.313	0.15	464626	keystroke_c	c	n/a
233.3775	0.15	466755	keystroke_Key.enter	Key.enter	n/a
233.532	13.0485	467064	prompt	n/a	recovered surveys informative simplified\n
234.3975	0.15	468795	keystroke_r	r	n/a
234.5025	0.12	469005	keystroke_e	e	n/a
234.6825	0.165	469365	keystroke_c	c	n/a
234.8625	0.135	469725	keystroke_o	o	n/a
234.9825	0.105	469965	keystroke_v	v	n/a
235.1775	0.15	470355	keystroke_e	e	n/a
235.2525	0.135	470505	keystroke_r	r	n/a
235.568	0.119	471136	keystroke_e	e	n/a
235.7775	0.12	471555	keystroke_d	d	n/a
236.1675	0.15	472335	keystroke_Key.space	Key.space	n/a
236.4375	0.15	472875	keystroke_s	s	n/a
237.248	0.09	474496	keystroke_r	r	n/a
237.593	0.09	475186	keystroke_Key.backspace	Key.backspace	n/a
237.803	0.135	475606	keystroke_u	u	n/a
237.908	0.12	475816	keystroke_r	r	n/a
238.148	0.105	476296	keystroke_v	v	n/a
238.372	0.151	476744	keystroke_e	e	n/a
238.507	0.151	477014	keystroke_y	y	n/a
238.928	0.195	477856	keystroke_s	s	n/a
239.453	0.1495	478906	keystroke_Key.space	Key.space	n/a
239.7375	0.1355	479475	keystroke_i	i	n/a
239.798	0.15	479596	keystroke_n	n	n/a
239.963	0.0595	479926	keystroke_f	f	n/a
240.0375	0.12	480075	keystroke_o	o	n/a
240.1275	0.12	480255	keystroke_r	r	n/a
240.3225	0.12	480645	keystroke_m	m	n/a
240.4575	0.18	480915	keystroke_a	a	n/a
240.5475	0.135	481095	keystroke_t	t	n/a
240.6975	0.135	481395	keystroke_i	i	n/a
240.8175	0.12	481635	keystroke_v	v	n/a
241.0275	0.105	482055	keystroke_e	e	n/a
241.2075	0.15	482415	keystroke_s	s	n/a
242.0325	0.18	484065	keystroke_Key.space	Key.space	n/a
243.1435	0.1195	486287	keystroke_Key.backspace	Key.backspace	n/a
243.3685	0.09	486737	keystroke_Key.backspace	Key.backspace	n/a
243.9375	0.1355	487875	keystroke_Key.space	Key.space	n/a
244.103	0.165	488206	keystroke_s	s	n/a
244.193	0.09	488386	keystroke_i	i	n/a
244.388	0.09	488776	keystroke_m	m	n/a
244.673	0.015	489346	keystroke_p	p	n/a
244.763	0.18	489526	keystroke_l	l	n/a
245.4075	0.135	490815	keystroke_i	i	n/a
245.6475	0.135	491295	keystroke_f	f	n/a
245.7675	0.1355	491535	keystroke_i	i	n/a
245.8725	0.1205	491745	keystroke_e	e	n/a
246.053	0.1345	492106	keystroke_d	d	n/a
246.443	0.135	492886	keystroke_Key.enter	Key.enter	n/a
246.5825	11.157	493165	prompt	n/a	rocket glance athens conventions\n
247.4035	0.105	494807	keystroke_r	r	n/a
247.5085	0.1195	495017	keystroke_o	o	n/a
247.613	0.105	495226	keystroke_c	c	n/a
247.733	0.135	495466	keystroke_k	k	n/a
247.808	0.15	495616	keystroke_e	e	n/a
247.913	0.1495	495826	keystroke_t	t	n/a
248.1375	0.135	496275	keystroke_Key.space	Key.space	n/a
248.4375	0.075	496875	keystroke_g	g	n/a
248.8425	0.135	497685	keystroke_l	l	n/a
248.9325	0.15	497865	keystroke_a	a	n/a
249.0685	0.1335	498137	keystroke_n	n	n/a
249.1575	0.18	498315	keystroke_c	c	n/a
249.2785	0.134	498557	keystroke_e	e	n/a
249.5175	0.1505	499035	keystroke_Key.space	Key.space	n/a
249.788	0.15	499576	keystroke_a	a	n/a
249.953	0.12	499906	keystroke_n	n	n/a
250.253	0.135	500506	keystroke_t	t	n/a
250.373	0.105	500746	keystroke_h	h	n/a
250.748	0.09	501496	keystroke_Key.backspace	Key.backspace	n/a
250.928	0.075	501856	keystroke_Key.backspace	Key.backspace	n/a
251.078	0.09	502156	keystroke_Key.backspace	Key.backspace	n/a
251.198	0.105	502396	keystroke_t	t	n/a
251.318	0.09	502636	keystroke_h	h	n/a
251.438	0.12	502876	keystroke_e	e	n/a
251.513	0.1345	503026	keystroke_n	n	n/a
251.6625	0.15	503325	keystroke_s	s	n/a
252.2025	0.15	504405	keystroke_Key.space	Key.space	n/a
252.4875	0.15	504975	keystroke_o	o	n/a
252.6675	0.105	505335	keystroke_v	v	n/a
252.8625	0.135	505725	keystroke_e	e	n/a
252.968	0.1495	505936	keystroke_n	n	n/a
253.6575	0.06	507315	keystroke_Key.backspace	Key.backspace	n/a
253.8375	0.09	507675	keystroke_Key.backspace	Key.backspace	n/a
254.0025	0.135	508005	keystroke_Key.backspace	Key.backspace	n/a
254.2125	0.12	508425	keystroke_Key.backspace	Key.backspace	n/a
254.603	0.15	509206	keystroke_c	c	n/a
254.948	0.18	509896	keystroke_o	o	n/a
255.023	0.165	510046	keystroke_n	n	n/a
255.158	0.105	510316	keystroke_v	v	n/a
255.338	0.15	510676	keystroke_e	e	n/a
255.473	0.1495	510946	keystroke_n	n	n/a
255.6375	0.135	511275	keystroke_t	t	n/a
255.7575	0.1805	511515	keystroke_i	i	n/a
255.848	0.18	511696	keystroke_o	o	n/a
255.953	0.15	511906	keystroke_n	n	n/a
256.088	0.1795	512176	keystroke_s	s	n/a
257.588	0.15	515176	keystroke_Key.enter	Key.enter	n/a
257.7425	15.2975	515485	prompt	n/a	ireland sample workers boat\n
258.758	0.1345	517516	keystroke_i	i	n/a
258.8625	0.18	517725	keystroke_r	r	n/a
258.9525	0.18	517905	keystroke_e	e	n/a
259.1925	0.135	518385	keystroke_l	l	n/a
259.3125	0.15	518625	keystroke_a	a	n/a
259.4025	0.165	518805	keystroke_n	n	n/a
259.5375	0.135	519075	keystroke_d	d	n/a
259.8225	0.15	519645	keystroke_Key.space	Key.space	n/a
260.0475	0.166	520095	keystroke_s	s	n/a
260.1825	0.1055	520365	keystroke_m	m	n/a
260.303	0.135	520606	keystroke_a	a	n/a
260.409	0.104	520818	keystroke_p	p	n/a
260.6185	0.119	521237	keystroke_l	l	n/a
260.6935	0.134	521387	keystroke_e	e	n/a
262.2075	0.165	524415	keystroke_Key.space	Key.space	n/a
262.4925	0.12	524985	keystroke_w	w	n/a
262.5825	0.135	525165	keystroke_o	o	n/a
262.6725	0.105	525345	keystroke_r	r	n/a
262.9275	0.15	525855	keystroke_k	k	n/a
263.0475	0.1505	526095	keystroke_e	e	n/a
263.1225	0.135	526245	keystroke_r	r	n/a
263.3925	0.15	526785	keystroke_s	s	n/a
263.8425	0.135	527685	keystroke_Key.space	Key.space	n/a
264.113	0.075	528226	keystroke_b	b	n/a
264.248	0.1505	528496	keystroke_o	o	n/a
264.818	0.165	529636	keystroke_a	a	n/a
265.223	0.135	530446	keystroke_t	t	n/a
266.9335	0.075	533867	keystroke_Key.backspace	Key.backspace	n/a
267.1285	0.045	534257	keystroke_Key.backspace	Key.backspace	n/a
267.2935	0.045	534587	keystroke_Key.backspace	Key.backspace	n/a
267.4435	0.06	534887	keystroke_Key.backspace	Key.backspace	n/a
267.6235	0.045	535247	keystroke_Key.backspace	Key.backspace	n/a
267.7585	0.075	535517	keystroke_Key.backspace	Key.backspace	n/a
267.9385	0.06	535877	keystroke_Key.backspace	Key.backspace	n/a
268.1185	0.045	536237	keystroke_Key.backspace	Key.backspace	n/a
268.2385	0.105	536477	keystroke_Key.backspace	Key.backspace	n/a
268.4335	0.075	536867	keystroke_Key.backspace	Key.backspace	n/a
268.5985	0.06	537197	keystroke_Key.backspace	Key.backspace	n/a
268.7635	0.075	537527	keystroke_Key.backspace	Key.backspace	n/a
268.9285	0.12	537857	keystroke_Key.backspace	Key.backspace	n/a
269.3935	0.135	538787	keystroke_a	a	n/a
269.4835	0.09	538967	keystroke_m	m	n/a
269.6635	0.105	539327	keystroke_p	p	n/a
269.8435	0.165	539687	keystroke_l	l	n/a
269.9335	0.1345	539867	keystroke_e	e	n/a
270.098	0.135	540196	keystroke_Key.space	Key.space	n/a
270.203	0.15	540406	keystroke_w	w	n/a
270.278	0.135	540556	keystroke_o	o	n/a
270.398	0.105	540796	keystroke_r	r	n/a
270.488	0.135	540976	keystroke_k	k	n/a
270.623	0.15	541246	keystroke_e	e	n/a
270.728	0.15	541456	keystroke_r	r	n/a
270.968	0.1505	541936	keystroke_s	s	n/a
271.2385	0.135	542477	keystroke_Key.space	Key.space	n/a
271.523	0.075	543046	keystroke_b	b	n/a
271.643	0.18	543286	keystroke_o	o	n/a
271.958	0.1805	543916	keystroke_a	a	n/a
272.1685	0.1495	544337	keystroke_t	t	n/a
272.888	0.15	545776	keystroke_Key.enter	Key.enter	n/a
273.0435	11.9665	546087	prompt	n/a	presence movement clocks tool\n
273.908	0.1355	547816	keystroke_p	p	n/a
273.923	0.03	547846	keystroke_[	[	n/a
273.968	0.1505	547936	keystroke_r	r	n/a
274.028	0.1355	548056	keystroke_e	e	n/a
274.3135	0.225	548627	keystroke_s	s	n/a
274.4335	0.09	548867	keystroke_e	e	n/a
274.7185	0.075	549437	keystroke_Key.backspace	Key.backspace	n/a
274.8835	0.075	549767	keystroke_Key.backspace	Key.backspace	n/a
275.0485	0.06	550097	keystroke_Key.backspace	Key.backspace	n/a
275.1985	0.135	550397	keystroke_Key.backspace	Key.backspace	n/a
275.5885	0.105	551177	keystroke_Key.backspace	Key.backspace	n/a
275.6935	0.15	551387	keystroke_r	r	n/a
275.7685	0.15	551537	keystroke_e	e	n/a
276.5475	0.1805	553095	keystroke_s	s	n/a
276.638	0.165	553276	keystroke_e	e	n/a
276.8185	0.09	553637	keystroke_n	n	n/a
276.9235	0.164	553847	keystroke_s	s	n/a
276.983	0.1795	553966	keystroke_e	e	n/a
277.493	0.075	554986	keystroke_Key.backspace	Key.backspace	n/a
277.673	0.105	555346	keystroke_Key.backspace	Key.backspace	n/a
277.748	0.21	555496	keystroke_c	c	n/a
277.868	0.165	555736	keystroke_e	e	n/a
278.3785	0.165	556757	keystroke_Key.space	Key.space	n/a
278.7535	0.105	557507	keystroke_m	m	n/a
278.9185	0.165	557837	keystroke_o	o	n/a
279.5035	0.105	559007	keystroke_v	v	n/a
279.713	0.165	559426	keystroke_e	e	n/a
280.028	0.12	560056	keystroke_m	m	n/a
280.118	0.165	560236	keystroke_e	e	n/a
280.253	0.15	560506	keystroke_n	n	n/a
280.388	0.105	560776	keystroke_t	t	n/a
280.523	0.135	561046	keystroke_Key.space	Key.space	n/a
281.1085	0.1645	562217	keystroke_c	c	n/a
281.288	0.1055	562576	keystroke_l	l	n/a
281.498	0.1055	562996	keystroke_o	o	n/a
281.6185	0.12	563237	keystroke_c	c	n/a
281.694	0.1495	563388	keystroke_k	k	n/a
281.8285	0.15	563657	keystroke_s	s	n/a
282.368	0.135	564736	keystroke_Key.space	Key.space	n/a
282.593	0.105	565186	keystroke_t	t	n/a
282.683	0.076	565366	keystroke_o	o	n/a
282.848	0.12	565696	keystroke_o	o	n/a
283.028	0.106	566056	keystroke_o	o	n/a
283.193	0.18	566386	keystroke_l	l	n/a
284.0185	0.075	568037	keystroke_Key.backspace	Key.backspace	n/a
284.1985	0.0895	568397	keystroke_Key.backspace	Key.backspace	n/a
284.5135	0.15	569027	keystroke_l	l	n/a
284.888	0.1205	569776	keystroke_Key.enter	Key.enter	n/a
285.0165	9.0985	570033	prompt	n/a	reduced specialty brochure picture\n
285.8335	0.135	571667	keystroke_r	r	n/a
285.9085	0.1345	571817	keystroke_e	e	n/a
286.133	0.12	572266	keystroke_d	d	n/a
286.268	0.135	572536	keystroke_u	u	n/a
286.343	0.195	572686	keystroke_c	c	n/a
286.478	0.135	572956	keystroke_e	e	n/a
286.688	0.15	573376	keystroke_d	d	n/a
286.988	0.12	573976	keystroke_Key.space	Key.space	n/a
287.183	0.135	574366	keystroke_s	s	n/a
287.273	0.1505	574546	keystroke_p	p	n/a
287.3635	0.1195	574727	keystroke_e	e	n/a
287.603	0.12	575206	keystroke_c	c	n/a
287.693	0.105	575386	keystroke_i	i	n/a
287.813	0.135	575626	keystroke_a	a	n/a
287.963	0.12	575926	keystroke_l	l	n/a
288.248	0.135	576496	keystroke_t	t	n/a
288.368	0.1205	576736	keystroke_y	y	n/a
288.9385	0.135	577877	keystroke_Key.space	Key.space	n/a
289.2085	0.09	578417	keystroke_b	b	n/a
289.3285	0.12	578657	keystroke_r	r	n/a
289.4335	0.165	578867	keystroke_o	o	n/a
289.794	0.105	579588	keystroke_c	c	n/a
289.929	0.09	579858	keystroke_h	h	n/a
290.2135	0.1345	580427	keystroke_u	u	n/a
290.5735	0.1805	581147	keystroke_r	r	n/a
290.6785	0.1655	581357	keystroke_e	e	n/a
291.354	0.135	582708	keystroke_Key.space	Key.space	n/a
291.518	0.121	583036	keystroke_p	p	n/a
291.7435	0.12	583487	keystroke_i	i	n/a
291.8335	0.09	583667	keystroke_c	c	n/a
292.1035	0.09	584207	keystroke_t	t	n/a
292.2085	0.1205	584417	keystroke_u	u	n/a
292.2985	0.165	584597	keystroke_r	r	n/a
292.3885	0.165	584777	keystroke_e	e	n/a
293.9785	0.135	587957	keystroke_Key.enter	Key.enter	n/a
294.118	11.262	588236	prompt	n/a	timothy rescue recorders decisions\n
295.0735	0.135	590147	keystroke_t	t	n/a
295.6135	0.12	591227	keystroke_i	i	n/a
295.8845	0.074	591769	keystroke_m	m	n/a
296.0785	0.12	592157	keystroke_o	o	n/a
296.2435	0.135	592487	keystroke_t	t	n/a
296.7385	0.12	593477	keystroke_h	h	n/a
297.0085	0.135	594017	keystroke_y	y	n/a
298.0435	0.15	596087	keystroke_Key.space	Key.space	n/a
298.2085	0.165	596417	keystroke_r	r	n/a
298.2835	0.135	596567	keystroke_e	e	n/a
298.4935	0.165	596987	keystroke_s	s	n/a
299.244	0.105	598488	keystroke_c	c	n/a
299.4235	0.1355	598847	keystroke_u	u	n/a
299.574	0.15	599148	keystroke_e	e	n/a
300.129	0.1345	600258	keystroke_Key.space	Key.space	n/a
300.3835	0.165	600767	keystroke_r	r	n/a
300.4735	0.135	600947	keystroke_e	e	n/a
300.774	0.12	601548	keystroke_c	c	n/a
300.924	0.165	601848	keystroke_o	o	n/a
301.044	0.1195	602088	keystroke_r	r	n/a
301.2385	0.1205	602477	keystroke_d	d	n/a
301.449	0.1345	602898	keystroke_e	e	n/a
301.509	0.1495	603018	keystroke_r	r	n/a
301.719	0.1495	603438	keystroke_s	s	n/a
302.1385	0.1655	604277	keystroke_Key.space	Key.space	n/a
302.319	0.105	604638	keystroke_d	d	n/a
302.499	0.105	604998	keystroke_e	e	n/a
302.724	0.135	605448	keystroke_c	c	n/a
303.099	0.135	606198	keystroke_i	i	n/a
303.354	0.15	606708	keystroke_s	s	n/a
303.444	0.18	606888	keystroke_i	i	n/a
303.579	0.255	607158	keystroke_o	o	n/a
303.744	0.21	607488	keystroke_n	n	n/a
304.029	0.1495	608058	keystroke_s	s	n/a
305.213	0.165	610426	keystroke_Key.enter	Key.enter	n/a
305.383	10.8725	610766	prompt	n/a	foundation flood attempting continuously\n
306.1885	0.135	612377	keystroke_f	f	n/a
306.3385	0.15	612677	keystroke_o	o	n/a
306.4135	0.135	612827	keystroke_u	u	n/a
306.6385	0.12	613277	keystroke_n	n	n/a
306.6985	0.18	613397	keystroke_d	d	n/a
306.9085	0.12	613817	keystroke_a	a	n/a
306.9985	0.1355	613997	keystroke_t	t	n/a
307.1345	0.119	614269	keystroke_i	i	n/a
307.1785	0.195	614357	keystroke_o	o	n/a
307.2685	0.21	614537	keystroke_n	n	n/a
307.4485	0.1345	614897	keystroke_Key.space	Key.space	n/a
307.643	0.15	615286	keystroke_f	f	n/a
307.808	0.1505	615616	keystroke_l	l	n/a
308.228	0.046	616456	keystroke_o	o	n/a
308.363	0.15	616726	keystroke_o	o	n/a
308.498	0.135	616996	keystroke_d	d	n/a
308.7235	0.15	617447	keystroke_Key.space	Key.space	n/a
308.903	0.12	617806	keystroke_a	a	n/a
309.143	0.09	618286	keystroke_t	t	n/a
309.3685	0.045	618737	keystroke_t	t	n/a
309.4735	0.135	618947	keystroke_e	e	n/a
309.5785	0.135	619157	keystroke_m	m	n/a
310.029	0.15	620058	keystroke_p	p	n/a
310.314	0.12	620628	keystroke_t	t	n/a
310.449	0.165	620898	keystroke_i	i	n/a
310.524	0.1645	621048	keystroke_n	n	n/a
310.6435	0.12	621287	keystroke_g	g	n/a
310.8235	0.105	621647	keystroke_Key.space	Key.space	n/a
311.0335	0.135	622067	keystroke_c	c	n/a
311.1385	0.165	622277	keystroke_o	o	n/a
311.2135	0.135	622427	keystroke_n	n	n/a
311.3785	0.105	622757	keystroke_t	t	n/a
311.4985	0.1045	622997	keystroke_i	i	n/a
311.738	0.0755	623476	keystroke_b	b	n/a
312.3535	0.135	624707	keystroke_Key.backspace	Key.backspace	n/a
312.6835	0.12	625367	keystroke_n	n	n/a
313.1935	0.15	626387	keystroke_o	o	n/a
313.839	0.105	627678	keystroke_Key.backspace	Key.backspace	n/a
314.109	0.12	628218	keystroke_u	u	n/a
314.394	0.21	628788	keystroke_o	o	n/a
314.484	0.18	628968	keystroke_u	u	n/a
314.874	0.165	629748	keystroke_s	s	n/a
315.234	0.135	630468	keystroke_l	l	n/a
315.579	0.135	631158	keystroke_y	y	n/a
316.104	0.15	632208	keystroke_Key.enter	Key.enter	n/a
316.2585	10.617	632517	prompt	n/a	nathan friendly hospital complaint\n
317.0495	0.119	634099	keystroke_n	n	n/a
317.1235	0.09	634247	keystroke_a	a	n/a
317.3035	0.105	634607	keystroke_t	t	n/a
317.3935	0.09	634787	keystroke_h	h	n/a
317.559	0.135	635118	keystroke_a	a	n/a
317.6635	0.1805	635327	keystroke_n	n	n/a
317.814	0.12	635628	keystroke_Key.space	Key.space	n/a
319.164	0.09	638328	keystroke_f	f	n/a
319.419	0.105	638838	keystroke_r	r	n/a
319.5545	0.12	639109	keystroke_i	i	n/a
319.6595	0.1195	639319	keystroke_e	e	n/a
319.794	0.135	639588	keystroke_n	n	n/a
320.2735	0.15	640547	keystroke_d	d	n/a
320.4085	0.135	640817	keystroke_l	l	n/a
320.694	0.18	641388	keystroke_y	y	n/a
320.814	0.135	641628	keystroke_Key.space	Key.space	n/a
321.1285	0.105	642257	keystroke_h	h	n/a
321.2485	0.15	642497	keystroke_o	o	n/a
321.3535	0.165	642707	keystroke_s	s	n/a
321.5635	0.135	643127	keystroke_p	p	n/a
321.8335	0.12	643667	keystroke_i	i	n/a
321.9685	0.105	643937	keystroke_t	t	n/a
322.1335	0.135	644267	keystroke_a	a	n/a
322.2385	0.1955	644477	keystroke_l	l	n/a
322.3435	0.1505	644687	keystroke_Key.space	Key.space	n/a
322.674	0.15	645348	keystroke_c	c	n/a
322.764	0.12	645528	keystroke_o	o	n/a
322.9435	0.091	645887	keystroke_m	m	n/a
323.1245	0.1495	646249	keystroke_p	p	n/a
324.114	0.12	648228	keystroke_l	l	n/a
324.249	0.1655	648498	keystroke_a	a	n/a
324.3995	0.18	648799	keystroke_i	i	n/a
324.474	0.1955	648948	keystroke_n	n	n/a
324.879	0.1345	649758	keystroke_t	t	n/a
326.7085	0.165	653417	keystroke_Key.enter	Key.enter	n/a
326.8805	15.25	653761	prompt	n/a	cellular amateur recipient supporting\n
327.6235	0.135	655247	keystroke_c	c	n/a
327.7735	0.1205	655547	keystroke_e	e	n/a
327.909	0.165	655818	keystroke_l	l	n/a
329.544	0.1505	659088	keystroke_l	l	n/a
329.9035	0.1505	659807	keystroke_u	u	n/a
330.4585	0.166	660917	keystroke_l	l	n/a
330.6085	0.15	661217	keystroke_a	a	n/a
330.6835	0.181	661367	keystroke_r	r	n/a
331.4035	0.1655	662807	keystroke_Key.space	Key.space	n/a
331.8385	0.1205	663677	keystroke_a	a	n/a
331.944	0.15	663888	keystroke_m	m	n/a
332.049	0.1645	664098	keystroke_a	a	n/a
332.9335	0.09	665867	keystroke_t	t	n/a
333.158	0.1505	666316	keystroke_e	e	n/a
333.7435	0.135	667487	keystroke_u	u	n/a
333.8335	0.1355	667667	keystroke_r	r	n/a
334.2095	0.1345	668419	keystroke_Key.space	Key.space	n/a
334.4335	0.1655	668867	keystroke_r	r	n/a
334.539	0.135	669078	keystroke_e	e	n/a
334.764	0.195	669528	keystroke_c	c	n/a
334.929	0.165	669858	keystroke_e	e	n/a
335.619	0.105	671238	keystroke_Key.backspace	Key.backspace	n/a
335.889	0.135	671778	keystroke_i	i	n/a
337.2985	0.135	674597	keystroke_p	p	n/a
337.5545	0.165	675109	keystroke_i	i	n/a
338.1995	0.12	676399	keystroke_e	e	n/a
338.3335	0.136	676667	keystroke_n	n	n/a
338.4535	0.135	676907	keystroke_t	t	n/a
338.8135	0.15	677627	keystroke_Key.space	Key.space	n/a
338.9785	0.151	677957	keystroke_s	s	n/a
339.0835	0.105	678167	keystroke_u	u	n/a
339.2635	0.105	678527	keystroke_p	p	n/a
339.4285	0.12	678857	keystroke_p	p	n/a
339.6535	0.195	679307	keystroke_o	o	n/a
340.1035	0.105	680207	keystroke_r	r	n/a
340.3585	0.105	680717	keystroke_t	t	n/a
340.4345	0.164	680869	keystroke_i	i	n/a
340.5085	0.165	681017	keystroke_n	n	n/a
340.6435	0.105	681287	keystroke_g	g	n/a
342.0095	0.1195	684019	keystroke_Key.enter	Key.enter	n/a
342.135	11.8155	684270	prompt	n/a	wholesale cards infrastructure porcelain\n
342.8495	0.135	685699	keystroke_w	w	n/a
342.9545	0.1045	685909	keystroke_h	h	n/a
343.014	0.105	686028	keystroke_o	o	n/a
343.194	0.135	686388	keystroke_l	l	n/a
343.254	0.1205	686508	keystroke_e	e	n/a
343.6745	0.105	687349	keystroke_s	s	n/a
343.8695	0.1345	687739	keystroke_a	a	n/a
343.974	0.15	687948	keystroke_l	l	n/a
344.079	0.12	688158	keystroke_e	e	n/a
344.454	0.135	688908	keystroke_Key.space	Key.space	n/a
344.619	0.12	689238	keystroke_c	c	n/a
344.7685	0.18	689537	keystroke_a	a	n/a
344.8735	0.12	689747	keystroke_r	r	n/a
345.0685	0.12	690137	keystroke_d	d	n/a
345.2785	0.12	690557	keystroke_s	s	n/a
345.6385	0.09	691277	keystroke_Key.space	Key.space	n/a
345.8035	0.1505	691607	keystroke_i	i	n/a
345.8635	0.1655	691727	keystroke_n	n	n/a
346.014	0.1195	692028	keystroke_f	f	n/a
346.269	0.135	692538	keystroke_r	r	n/a
346.419	0.135	692838	keystroke_a	a	n/a
346.914	0.135	693828	keystroke_s	s	n/a
347.154	0.09	694308	keystroke_t	t	n/a
347.364	0.09	694728	keystroke_r	r	n/a
347.484	0.15	694968	keystroke_u	u	n/a
347.604	0.135	695208	keystroke_c	c	n/a
348.054	0.105	696108	keystroke_t	t	n/a
348.189	0.12	696378	keystroke_u	u	n/a
348.249	0.18	696498	keystroke_r	r	n/a
348.339	0.18	696678	keystroke_e	e	n/a
349.299	0.135	698598	keystroke_Key.space	Key.space	n/a
349.569	0.135	699138	keystroke_p	p	n/a
350.3795	0.15	700759	keystroke_o	o	n/a
350.9345	0.105	701869	keystroke_r	r	n/a
351.2495	0.165	702499	keystroke_c	c	n/a
351.3845	0.165	702769	keystroke_e	e	n/a
351.924	0.1505	703848	keystroke_l	l	n/a
352.8095	0.015	705619	keystroke_a	a	n/a
352.8395	0.1495	705679	keystroke_i	i	n/a
352.8995	0.164	705799	keystroke_n	n	n/a
353.799	0.15	707598	keystroke_Key.enter	Key.enter	n/a
353.9535	11.9675	707907	prompt	n/a	most guatemala disco nature\n
356.0665	0.073	712133	keystroke_m	m	n/a
356.2595	0.165	712519	keystroke_o	o	n/a
356.3795	0.18	712759	keystroke_s	s	n/a
356.4695	0.135	712939	keystroke_t	t	n/a
356.6795	0.15	713359	keystroke_Key.space	Key.space	n/a
357.0085	0.1205	714017	keystroke_g	g	n/a
357.144	0.12	714288	keystroke_u	u	n/a
357.249	0.1495	714498	keystroke_a	a	n/a
358.269	0.09	716538	keystroke_t	t	n/a
358.464	0.135	716928	keystroke_e	e	n/a
358.719	0.15	717438	keystroke_m	m	n/a
358.854	0.135	717708	keystroke_a	a	n/a
359.004	0.15	718008	keystroke_l	l	n/a
359.184	0.15	718368	keystroke_a	a	n/a
359.7545	0.15	719509	keystroke_Key.space	Key.space	n/a
359.979	0.135	719958	keystroke_d	d	n/a
360.129	0.1205	720258	keystroke_i	i	n/a
360.189	0.12	720378	keystroke_s	s	n/a
360.309	0.1655	720618	keystroke_c	c	n/a
360.4595	0.15	720919	keystroke_o	o	n/a
364.4215	0.058	728843	keystroke_Key.space	Key.space	n/a
364.644	0.135	729288	keystroke_n	n	n/a
364.794	0.1055	729588	keystroke_a	a	n/a
364.974	0.105	729948	keystroke_t	t	n/a
365.124	0.12	730248	keystroke_u	u	n/a
365.199	0.1505	730398	keystroke_r	r	n/a
365.274	0.165	730548	keystroke_e	e	n/a
365.784	0.135	731568	keystroke_Key.enter	Key.enter	n/a
365.924	9.177	731848	prompt	n/a	tried communities codes equality\n
366.729	0.075	733458	keystroke_t	t	n/a
366.909	0.09	733818	keystroke_r	r	n/a
367.014	0.1205	734028	keystroke_i	i	n/a
367.089	0.12	734178	keystroke_e	e	n/a
367.269	0.165	734538	keystroke_d	d	n/a
367.509	0.15	735018	keystroke_Key.space	Key.space	n/a
367.719	0.135	735438	keystroke_c	c	n/a
367.824	0.12	735648	keystroke_o	o	n/a
368.019	0.0895	736038	keystroke_m	m	n/a
368.1835	0.12	736367	keystroke_m	m	n/a
368.425	0.0745	736850	keystroke_u	u	n/a
368.6045	0.12	737209	keystroke_n	n	n/a
368.7095	0.18	737419	keystroke_i	i	n/a
368.9645	0.09	737929	keystroke_t	t	n/a
369.0095	0.164	738019	keystroke_i	i	n/a
369.729	0.1055	739458	keystroke_e	e	n/a
369.924	0.1355	739848	keystroke_s	s	n/a
370.3295	0.165	740659	keystroke_Key.space	Key.space	n/a
370.7345	0.135	741469	keystroke_c	c	n/a
370.8995	0.15	741799	keystroke_o	o	n/a
370.9745	0.12	741949	keystroke_d	d	n/a
371.1845	0.105	742369	keystroke_e	e	n/a
371.3645	0.135	742729	keystroke_s	s	n/a
371.7095	0.15	743419	keystroke_Key.space	Key.space	n/a
372.1895	0.15	744379	keystroke_e	e	n/a
372.4595	0.135	744919	keystroke_q	q	n/a
372.6545	0.105	745309	keystroke_u	u	n/a
373.0445	0.1645	746089	keystroke_a	a	n/a
373.224	0.12	746448	keystroke_l	l	n/a
374.1845	0.135	748369	keystroke_i	i	n/a
374.3795	0.135	748759	keystroke_t	t	n/a
374.4395	0.15	748879	keystroke_y	y	n/a
374.9645	0.1345	749929	keystroke_Key.enter	Key.enter	n/a
375.1035	10.7075	750207	prompt	n/a	minutes recreation sustained philippines\n
375.969	0.105	751938	keystroke_m	m	n/a
376.179	0.1055	752358	keystroke_i	i	n/a
376.3145	0.1195	752629	keystroke_n	n	n/a
376.539	0.1355	753078	keystroke_u	u	n/a
376.6445	0.105	753289	keystroke_t	t	n/a
376.779	0.12	753558	keystroke_e	e	n/a
376.9745	0.15	753949	keystroke_s	s	n/a
377.289	0.1505	754578	keystroke_Key.space	Key.space	n/a
377.5145	0.165	755029	keystroke_r	r	n/a
377.5895	0.15	755179	keystroke_e	e	n/a
377.8595	0.09	755719	keystroke_c	c	n/a
378.0695	0.18	756139	keystroke_r	r	n/a
378.1595	0.165	756319	keystroke_e	e	n/a
378.3395	0.18	756679	keystroke_a	a	n/a
378.3995	0.165	756799	keystroke_t	t	n/a
378.6395	0.12	757279	keystroke_i	i	n/a
378.7145	0.21	757429	keystroke_o	o	n/a
378.8195	0.21	757639	keystroke_n	n	n/a
378.9695	0.15	757939	keystroke_Key.space	Key.space	n/a
379.1495	0.105	758299	keystroke_s	s	n/a
379.2695	0.12	758539	keystroke_u	u	n/a
379.3445	0.135	758689	keystroke_s	s	n/a
379.5395	0.105	759079	keystroke_t	t	n/a
379.6895	0.135	759379	keystroke_a	a	n/a
379.8395	0.165	759679	keystroke_i	i	n/a
379.9295	0.1505	759859	keystroke_n	n	n/a
380.619	0.121	761238	keystroke_e	e	n/a
380.83	0.119	761660	keystroke_d	d	n/a
381.1295	0.1505	762259	keystroke_Key.space	Key.space	n/a
381.339	0.12	762678	keystroke_p	p	n/a
381.5345	0.1195	763069	keystroke_h	h	n/a
381.669	0.1205	763338	keystroke_i	i	n/a
382.1945	0.1355	764389	keystroke_l	l	n/a
383.5295	0.12	767059	keystroke_i	i	n/a
383.9795	0.1355	767959	keystroke_p	p	n/a
384.3545	0.12	768709	keystroke_p	p	n/a
384.6245	0.15	769249	keystroke_i	i	n/a
384.6995	0.195	769399	keystroke_n	n	n/a
384.8795	0.12	769759	keystroke_e	e	n/a
385.104	0.1505	770208	keystroke_s	s	n/a
385.675	0.135	771350	keystroke_Key.enter	Key.enter	n/a
385.8145	5.5925	771629	prompt	n/a	cases kings noise recall\n
386.785	0.09	773570	keystroke_c	c	n/a
386.98	0.1045	773960	keystroke_a	a	n/a
387.0545	0.1805	774109	keystroke_s	s	n/a
387.1445	0.1355	774289	keystroke_e	e	n/a
387.34	0.165	774680	keystroke_s	s	n/a
387.865	0.165	775730	keystroke_Key.space	Key.space	n/a
388.2395	0.09	776479	keystroke_k	k	n/a
388.4495	0.12	776899	keystroke_i	i	n/a
388.51	0.1345	777020	keystroke_n	n	n/a
388.6145	0.09	777229	keystroke_g	g	n/a
388.7795	0.15	777559	keystroke_s	s	n/a
389.0345	0.15	778069	keystroke_Key.space	Key.space	n/a
389.275	0.105	778550	keystroke_n	n	n/a
389.4245	0.195	778849	keystroke_o	o	n/a
389.5295	0.1655	779059	keystroke_i	i	n/a
389.6495	0.1805	779299	keystroke_s	s	n/a
389.725	0.1795	779450	keystroke_e	e	n/a
389.9345	0.135	779869	keystroke_Key.space	Key.space	n/a
390.1745	0.195	780349	keystroke_r	r	n/a
390.2795	0.1505	780559	keystroke_e	e	n/a
390.55	0.135	781100	keystroke_c	c	n/a
390.686	0.1335	781372	keystroke_a	a	n/a
390.85	0.105	781700	keystroke_l	l	n/a
391.015	0.1495	782030	keystroke_l	l	n/a
391.2995	0.105	782599	keystroke_Key.enter	Key.enter	n/a
391.4125	9.2335	782825	prompt	n/a	toilet expects quizzes worst\n
392.335	0.12	784670	keystroke_t	t	n/a
392.634	0.1505	785268	keystroke_o	o	n/a
392.695	0.1495	785390	keystroke_i	i	n/a
393.009	0.1355	786018	keystroke_l	l	n/a
393.1455	0.179	786291	keystroke_e	e	n/a
393.2945	0.135	786589	keystroke_t	t	n/a
393.5945	0.12	787189	keystroke_Key.space	Key.space	n/a
393.8495	0.105	787699	keystroke_e	e	n/a
394.0595	0.1195	788119	keystroke_x	x	n/a
394.329	0.135	788658	keystroke_p	p	n/a
394.434	0.105	788868	keystroke_e	e	n/a
394.66	0.09	789320	keystroke_c	c	n/a
394.884	0.1055	789768	keystroke_t	t	n/a
395.11	0.134	790220	keystroke_s	s	n/a
395.694	0.15	791388	keystroke_Key.space	Key.space	n/a
395.92	0.134	791840	keystroke_q	q	n/a
396.04	0.1345	792080	keystroke_u	u	n/a
396.115	0.164	792230	keystroke_i	i	n/a
396.714	0.105	793428	keystroke_z	z	n/a
397.2545	0.1505	794509	keystroke_z	z	n/a
397.48	0.105	794960	keystroke_e	e	n/a
397.69	0.135	795380	keystroke_s	s	n/a
398.23	0.15	796460	keystroke_Key.space	Key.space	n/a
398.395	0.105	796790	keystroke_w	w	n/a
398.5	0.15	797000	keystroke_o	o	n/a
398.545	0.12	797090	keystroke_r	r	n/a
398.725	0.27	797450	keystroke_s	s	n/a
398.9045	0.1655	797809	keystroke_t	t	n/a
400.525	0.12	801050	keystroke_Key.enter	Key.enter	n/a
400.651	9.97	801302	prompt	n/a	happening walter zshops nissan\n
401.4545	0.12	802909	keystroke_h	h	n/a
401.6045	0.15	803209	keystroke_a	a	n/a
401.7695	0.0755	803539	keystroke_p	p	n/a
401.935	0.15	803870	keystroke_p	p	n/a
402.5045	0.1355	805009	keystroke_e	e	n/a
402.685	0.15	805370	keystroke_n	n	n/a
402.85	0.135	805700	keystroke_i	i	n/a
402.91	0.15	805820	keystroke_n	n	n/a
403.03	0.12	806060	keystroke_g	g	n/a
403.18	0.135	806360	keystroke_Key.space	Key.space	n/a
403.3745	0.12	806749	keystroke_w	w	n/a
403.5695	0.15	807139	keystroke_a	a	n/a
403.6895	0.135	807379	keystroke_l	l	n/a
404.0495	0.0905	808099	keystroke_t	t	n/a
404.23	0.105	808460	keystroke_e	e	n/a
404.29	0.135	808580	keystroke_r	r	n/a
404.755	0.135	809510	keystroke_Key.space	Key.space	n/a
405.025	0.135	810050	keystroke_z	z	n/a
405.34	0.15	810680	keystroke_s	s	n/a
405.475	0.21	810950	keystroke_h	h	n/a
405.67	0.18	811340	keystroke_o	o	n/a
406.57	0.18	813140	keystroke_p	p	n/a
406.945	0.15	813890	keystroke_s	s	n/a
407.214	0.121	814428	keystroke_Key.space	Key.space	n/a
407.395	0.12	814790	keystroke_n	n	n/a
407.575	0.149	815150	keystroke_i	i	n/a
407.874	0.106	815748	keystroke_s	s	n/a
408.055	0.119	816110	keystroke_s	s	n/a
408.22	0.15	816440	keystroke_a	a	n/a
408.295	0.1495	816590	keystroke_n	n	n/a
410.547	0.072	821094	keystroke_Key.enter	Key.enter	n/a
410.631	12.2005	821262	prompt	n/a	links roberts discovery vacuum\n
411.3555	0.104	822711	keystroke_l	l	n/a
411.55	0.12	823100	keystroke_i	i	n/a
411.655	0.1645	823310	keystroke_n	n	n/a
411.7895	0.1655	823579	keystroke_k	k	n/a
411.94	0.165	823880	keystroke_s	s	n/a
412.3445	0.15	824689	keystroke_Key.space	Key.space	n/a
412.7195	0.12	825439	keystroke_r	r	n/a
412.8545	0.136	825709	keystroke_o	o	n/a
413.0795	0.091	826159	keystroke_b	b	n/a
413.1845	0.135	826369	keystroke_e	e	n/a
413.2595	0.121	826519	keystroke_r	r	n/a
413.4695	0.105	826939	keystroke_t	t	n/a
413.6805	0.1495	827361	keystroke_s	s	n/a
414.1	0.15	828200	keystroke_Key.space	Key.space	n/a
414.355	0.135	828710	keystroke_d	d	n/a
414.46	0.12	828920	keystroke_i	i	n/a
414.565	0.15	829130	keystroke_s	s	n/a
415.9295	0.105	831859	keystroke_c	c	n/a
416.0355	0.119	832071	keystroke_o	o	n/a
416.1845	0.09	832369	keystroke_v	v	n/a
416.3645	0.1355	832729	keystroke_e	e	n/a
416.4395	0.135	832879	keystroke_r	r	n/a
416.71	0.15	833420	keystroke_y	y	n/a
417.7155	0.15	835431	keystroke_Key.space	Key.space	n/a
417.9555	0.105	835911	keystroke_v	v	n/a
418.1055	0.1645	836211	keystroke_a	a	n/a
418.5105	0.15	837021	keystroke_c	c	n/a
419.0955	0.09	838191	keystroke_u	u	n/a
419.2455	0.12	838491	keystroke_u	u	n/a
419.5005	0.15	839001	keystroke_m	m	n/a
422.757	0.073	845514	keystroke_Key.enter	Key.enter	n/a
422.8395	11.692	845679	prompt	n/a	cambridge greatest sure hamilton\n
423.595	0.105	847190	keystroke_c	c	n/a
423.685	0.15	847370	keystroke_a	a	n/a
423.82	0.15	847640	keystroke_m	m	n/a
424.165	0.075	848330	keystroke_b	b	n/a
424.3	0.105	848600	keystroke_r	r	n/a
424.435	0.12	848870	keystroke_i	i	n/a
424.735	0.135	849470	keystroke_d	d	n/a
425.1995	0.09	850399	keystroke_g	g	n/a
425.3495	0.135	850699	keystroke_e	e	n/a
425.7545	0.15	851509	keystroke_Key.space	Key.space	n/a
426.0095	0.075	852019	keystroke_g	g	n/a
427.525	0.285	855050	keystroke_r	r	n/a
427.6305	0.2095	855261	keystroke_e	e	n/a
428.2605	0.09	856521	keystroke_s	s	n/a
428.68	0.12	857360	keystroke_Key.backspace	Key.backspace	n/a
428.785	0.15	857570	keystroke_a	a	n/a
429.01	0.105	858020	keystroke_t	t	n/a
429.19	0.105	858380	keystroke_e	e	n/a
429.37	0.21	858740	keystroke_s	s	n/a
429.475	0.12	858950	keystroke_t	t	n/a
429.76	0.12	859520	keystroke_Key.space	Key.space	n/a
429.881	0.134	859762	keystroke_s	s	n/a
430.03	0.12	860060	keystroke_u	u	n/a
430.105	0.18	860210	keystroke_r	r	n/a
430.18	0.165	860360	keystroke_e	e	n/a
430.51	0.1055	861020	keystroke_Key.space	Key.space	n/a
430.7955	0.105	861591	keystroke_h	h	n/a
430.8855	0.165	861771	keystroke_a	a	n/a
431.0355	0.089	862071	keystroke_m	m	n/a
431.2305	0.075	862461	keystroke_i	i	n/a
431.3805	0.165	862761	keystroke_l	l	n/a
431.7255	0.12	863451	keystroke_t	t	n/a
432.4155	0.195	864831	keystroke_o	o	n/a
432.4895	0.181	864979	keystroke_n	n	n/a
434.395	0.1345	868790	keystroke_Key.enter	Key.enter	n/a
434.5345	17.441	869069	prompt	n/a	dynamics associations hottest podcasts\n
435.6705	0.135	871341	keystroke_d	d	n/a
435.8205	0.15	871641	keystroke_y	y	n/a
436.15	0.12	872300	keystroke_n	n	n/a
436.2405	0.1655	872481	keystroke_a	a	n/a
436.7045	0.1055	873409	keystroke_m	m	n/a
436.8995	0.12	873799	keystroke_i	i	n/a
436.9745	0.135	873949	keystroke_c	c	n/a
437.1545	0.165	874309	keystroke_s	s	n/a
437.38	0.1505	874760	keystroke_Key.space	Key.space	n/a
437.5605	0.135	875121	keystroke_a	a	n/a
437.7555	0.12	875511	keystroke_s	s	n/a
437.9655	0.15	875931	keystroke_s	s	n/a
438.1605	0.165	876321	keystroke_o	o	n/a
438.4455	0.1505	876891	keystroke_c	c	n/a
438.581	0.1045	877162	keystroke_i	i	n/a
438.626	0.21	877252	keystroke_a	a	n/a
438.7765	0.135	877553	keystroke_t	t	n/a
440.0855	0.151	880171	keystroke_i	i	n/a
440.191	0.226	880382	keystroke_o	o	n/a
440.3265	0.1805	880653	keystroke_n	n	n/a
440.522	0.1505	881044	keystroke_s	s	n/a
440.823	0.1205	881646	keystroke_Key.space	Key.space	n/a
441.139	0.0905	882278	keystroke_h	h	n/a
441.3345	0.1355	882669	keystroke_o	o	n/a
441.56	0.03	883120	keystroke_t	t	n/a
441.7405	0.1205	883481	keystroke_t	t	n/a
441.891	0.1355	883782	keystroke_e	e	n/a
442.087	0.226	884174	keystroke_s	s	n/a
442.192	0.136	884384	keystroke_t	t	n/a
442.9295	0.1505	885859	keystroke_Key.space	Key.space	n/a
443.2005	0.1205	886401	keystroke_p	p	n/a
443.3055	0.1055	886611	keystroke_r	r	n/a
443.396	0.1655	886792	keystroke_o	o	n/a
443.6065	0.1505	887213	keystroke_d	d	n/a
444.058	0.1505	888116	keystroke_c	c	n/a
444.1935	0.1205	888387	keystroke_a	a	n/a
445.1415	0.1355	890283	keystroke_s	s	n/a
445.4125	0.1205	890825	keystroke_t	t	n/a
445.608	0.1505	891216	keystroke_s	s	n/a
448.1385	0.028	896277	keystroke_Key.backspace	Key.backspace	n/a
448.272	0.06	896544	keystroke_Key.backspace	Key.backspace	n/a
448.4375	0.045	896875	keystroke_Key.backspace	Key.backspace	n/a
448.573	0.075	897146	keystroke_Key.backspace	Key.backspace	n/a
448.7385	0.045	897477	keystroke_Key.backspace	Key.backspace	n/a
448.874	0.105	897748	keystroke_Key.backspace	Key.backspace	n/a
449.0695	0.121	898139	keystroke_Key.backspace	Key.backspace	n/a
449.4455	0.1205	898891	keystroke_Key.backspace	Key.backspace	n/a
450.0625	0.136	900125	keystroke_o	o	n/a
450.138	0.1505	900276	keystroke_d	d	n/a
450.4845	0.15	900969	keystroke_c	c	n/a
450.6795	0.1355	901359	keystroke_a	a	n/a
450.8	0.2265	901600	keystroke_s	s	n/a
450.9355	0.12	901871	keystroke_t	t	n/a
451.176	0.1505	902352	keystroke_s	s	n/a
451.853	0.1205	903706	keystroke_Key.enter	Key.enter	n/a
451.9795	11.838	903959	prompt	n/a	practitioner jelsoft colleges marker\n
452.817	0.12	905634	keystroke_p	p	n/a
452.877	0.1205	905754	keystroke_r	r	n/a
453.0575	0.1655	906115	keystroke_a	a	n/a
453.163	0.1505	906326	keystroke_c	c	n/a
453.494	0.1205	906988	keystroke_t	t	n/a
453.6445	0.1505	907289	keystroke_i	i	n/a
454.5325	0.135	909065	keystroke_t	t	n/a
454.5925	0.1505	909185	keystroke_i	i	n/a
454.683	0.2105	909366	keystroke_o	o	n/a
454.803	0.181	909606	keystroke_n	n	n/a
455.2695	0.1505	910539	keystroke_e	e	n/a
455.345	0.1655	910690	keystroke_r	r	n/a
455.7965	0.1505	911593	keystroke_Key.space	Key.space	n/a
456.1275	0.1355	912255	keystroke_j	j	n/a
457.0145	0.1515	914029	keystroke_e	e	n/a
457.241	0.1355	914482	keystroke_l	l	n/a
457.7525	0.1495	915505	keystroke_s	s	n/a
457.9625	0.1355	915925	keystroke_o	o	n/a
458.0685	0.1355	916137	keystroke_f	f	n/a
458.4	0.104	916800	keystroke_t	t	n/a
459.2865	0.166	918573	keystroke_Key.space	Key.space	n/a
459.573	0.1205	919146	keystroke_c	c	n/a
459.6635	0.12	919327	keystroke_o	o	n/a
459.889	0.09	919778	keystroke_l	l	n/a
460.0395	0.1505	920079	keystroke_l	l	n/a
460.175	0.135	920350	keystroke_e	e	n/a
460.43	0.1055	920860	keystroke_g	g	n/a
460.5955	0.121	921191	keystroke_e	e	n/a
461.303	0.136	922606	keystroke_s	s	n/a
461.875	0.1505	923750	keystroke_Key.space	Key.space	n/a
462.221	0.1355	924442	keystroke_m	m	n/a
462.311	0.166	924622	keystroke_a	a	n/a
462.3865	0.1505	924773	keystroke_r	r	n/a
462.552	0.1205	925104	keystroke_k	k	n/a
462.6275	0.1655	925255	keystroke_e	e	n/a
462.7025	0.1655	925405	keystroke_r	r	n/a
463.6955	0.1205	927391	keystroke_Key.enter	Key.enter	n/a
463.826	10.3715	927652	prompt	n/a	screening cover msgstr juice\n
464.598	0.1205	929196	keystroke_s	s	n/a
464.7035	0.121	929407	keystroke_c	c	n/a
464.9445	0.1655	929889	keystroke_r	r	n/a
465.035	0.12	930070	keystroke_e	e	n/a
465.215	0.1815	930430	keystroke_e	e	n/a
465.426	0.1655	930852	keystroke_n	n	n/a
465.5765	0.1355	931153	keystroke_i	i	n/a
465.667	0.1805	931334	keystroke_n	n	n/a
465.772	0.1055	931544	keystroke_g	g	n/a
467.171	0.1355	934342	keystroke_Key.space	Key.space	n/a
467.5325	0.105	935065	keystroke_c	c	n/a
467.6525	0.1355	935305	keystroke_o	o	n/a
467.773	0.0905	935546	keystroke_v	v	n/a
467.9385	0.1505	935877	keystroke_e	e	n/a
468.0285	0.1355	936057	keystroke_r	r	n/a
468.239	0.121	936478	keystroke_Key.space	Key.space	n/a
468.5705	0.1505	937141	keystroke_m	m	n/a
468.6605	0.1655	937321	keystroke_s	s	n/a
469.036	0.1055	938072	keystroke_g	g	n/a
469.7885	0.135	939577	keystroke_s	s	n/a
470.917	0.105	941834	keystroke_t	t	n/a
471.1725	0.105	942345	keystroke_r	r	n/a
471.91	0.1355	943820	keystroke_Key.space	Key.space	n/a
472.1205	0.1055	944241	keystroke_j	j	n/a
472.4515	0.1495	944903	keystroke_i	i	n/a
473.143	0.09	946286	keystroke_Key.backspace	Key.backspace	n/a
473.368	0.1365	946736	keystroke_u	u	n/a
473.459	0.1505	946918	keystroke_i	i	n/a
473.6245	0.1955	947249	keystroke_c	c	n/a
473.745	0.18	947490	keystroke_e	e	n/a
474.0755	0.12	948151	keystroke_Key.enter	Key.enter	n/a
474.2025	8.6095	948405	prompt	n/a	revision opened separation breast\n
475.0985	0.1355	950197	keystroke_r	r	n/a
475.1585	0.121	950317	keystroke_e	e	n/a
475.3845	0.12	950769	keystroke_v	v	n/a
475.52	0.12	951040	keystroke_i	i	n/a
475.6705	0.15	951341	keystroke_s	s	n/a
475.745	0.1805	951490	keystroke_i	i	n/a
475.8355	0.21	951671	keystroke_o	o	n/a
475.9405	0.181	951881	keystroke_n	n	n/a
476.1965	0.12	952393	keystroke_Key.space	Key.space	n/a
476.4375	0.136	952875	keystroke_o	o	n/a
476.6785	0.1495	953357	keystroke_p	p	n/a
476.829	0.149	953658	keystroke_e	e	n/a
477.0235	0.136	954047	keystroke_n	n	n/a
477.1745	0.12	954349	keystroke_e	e	n/a
477.355	0.1355	954710	keystroke_d	d	n/a
477.6705	0.1655	955341	keystroke_Key.space	Key.space	n/a
478.182	0.1205	956364	keystroke_s	s	n/a
478.333	0.135	956666	keystroke_p	p	n/a
478.603	0.136	957206	keystroke_e	e	n/a
479.1145	0.1205	958229	keystroke_Key.backspace	Key.backspace	n/a
479.4605	0.105	958921	keystroke_Key.backspace	Key.backspace	n/a
479.6415	0.135	959283	keystroke_e	e	n/a
479.8215	0.1355	959643	keystroke_p	p	n/a
480.032	0.1655	960064	keystroke_a	a	n/a
480.333	0.1195	960666	keystroke_r	r	n/a
480.468	0.2255	960936	keystroke_a	a	n/a
480.618	0.1505	961236	keystroke_t	t	n/a
480.7535	0.12	961507	keystroke_i	i	n/a
480.8285	0.2105	961657	keystroke_o	o	n/a
480.934	0.18	961868	keystroke_n	n	n/a
481.144	0.166	962288	keystroke_Key.space	Key.space	n/a
481.7155	0.12	963431	keystroke_b	b	n/a
481.8055	0.15	963611	keystroke_r	r	n/a
481.8805	0.1355	963761	keystroke_e	e	n/a
482.046	0.135	964092	keystroke_a	a	n/a
482.151	0.255	964302	keystroke_s	s	n/a
482.3605	0.1505	964721	keystroke_t	t	n/a
482.6905	0.12	965381	keystroke_Key.enter	Key.enter	n/a
482.8185	9.978	965637	prompt	n/a	mississippi jeep occasion thursday\n
483.5745	0.105	967149	keystroke_m	m	n/a
483.785	0.12	967570	keystroke_i	i	n/a
484.145	0.105	968290	keystroke_s	s	n/a
484.325	0.164	968650	keystroke_s	s	n/a
484.49	0.1495	968980	keystroke_i	i	n/a
485.449	0.09	970898	keystroke_s	s	n/a
485.614	0.1495	971228	keystroke_s	s	n/a
485.9435	0.1505	971887	keystroke_i	i	n/a
486.618	0.105	973236	keystroke_p	p	n/a
486.813	0.1205	973626	keystroke_p	p	n/a
487.038	0.12	974076	keystroke_i	i	n/a
487.5185	0.134	975037	keystroke_Key.space	Key.space	n/a
487.7585	0.1345	975517	keystroke_j	j	n/a
487.863	0.12	975726	keystroke_e	e	n/a
488.057	0.1515	976114	keystroke_e	e	n/a
488.238	0.1495	976476	keystroke_p	p	n/a
488.7175	0.15	977435	keystroke_Key.space	Key.space	n/a
489.1075	0.134	978215	keystroke_o	o	n/a
489.2265	0.105	978453	keystroke_c	c	n/a
489.422	0.135	978844	keystroke_c	c	n/a
489.6015	0.1205	979203	keystroke_a	a	n/a
489.737	0.15	979474	keystroke_s	s	n/a
489.902	0.1345	979804	keystroke_i	i	n/a
489.992	0.1945	979984	keystroke_o	o	n/a
490.0965	0.1655	980193	keystroke_n	n	n/a
490.5765	0.12	981153	keystroke_Key.space	Key.space	n/a
490.7715	0.09	981543	keystroke_t	t	n/a
490.8465	0.0895	981693	keystroke_h	h	n/a
491.3115	0.1345	982623	keystroke_u	u	n/a
491.447	0.119	982894	keystroke_r	r	n/a
491.7755	0.12	983551	keystroke_s	s	n/a
492.031	0.1195	984062	keystroke_d	d	n/a
492.1355	0.1505	984271	keystroke_a	a	n/a
492.24	0.135	984480	keystroke_y	y	n/a
492.6455	0.15	985291	keystroke_Key.enter	Key.enter	n/a
492.7995	7.223	985599	prompt	n/a	terror shame alignment respected\n
493.62	0.075	987240	keystroke_t	t	n/a
493.755	0.1335	987510	keystroke_e	e	n/a
493.9345	0.075	987869	keystroke_r	r	n/a
494.1145	0.0895	988229	keystroke_r	r	n/a
494.234	0.15	988468	keystroke_o	o	n/a
494.339	0.1205	988678	keystroke_r	r	n/a
495.074	0.1195	990148	keystroke_Key.space	Key.space	n/a
495.2085	0.12	990417	keystroke_s	s	n/a
495.2985	0.09	990597	keystroke_h	h	n/a
495.4035	0.135	990807	keystroke_a	a	n/a
495.4935	0.15	990987	keystroke_m	m	n/a
495.5985	0.12	991197	keystroke_e	e	n/a
495.9285	0.1495	991857	keystroke_Key.space	Key.space	n/a
496.1835	0.135	992367	keystroke_a	a	n/a
496.3335	0.105	992667	keystroke_l	l	n/a
496.543	0.09	993086	keystroke_i	i	n/a
496.618	0.105	993236	keystroke_g	g	n/a
497.128	0.1205	994256	keystroke_n	n	n/a
497.533	0.105	995066	keystroke_m	m	n/a
497.608	0.165	995216	keystroke_e	e	n/a
497.713	0.1195	995426	keystroke_n	n	n/a
497.8475	0.105	995695	keystroke_t	t	n/a
498.1475	0.1495	996295	keystroke_Key.space	Key.space	n/a
498.297	0.18	996594	keystroke_r	r	n/a
498.372	0.135	996744	keystroke_e	e	n/a
498.582	0.1795	997164	keystroke_s	s	n/a
498.7765	0.135	997553	keystroke_p	p	n/a
498.8965	0.105	997793	keystroke_e	e	n/a
499.0615	0.1195	998123	keystroke_c	c	n/a
499.3015	0.105	998603	keystroke_t	t	n/a
499.4515	0.1195	998903	keystroke_e	e	n/a
499.661	0.106	999322	keystroke_d	d	n/a
499.9015	0.1195	999803	keystroke_Key.enter	Key.enter	n/a
500.0275	13.098	1000055	prompt	n/a	humidity webster academics danger\n
500.906	0.09	1001812	keystroke_h	h	n/a
501.131	0.1345	1002262	keystroke_u	u	n/a
501.7	0.135	1003400	keystroke_d	d	n/a
501.895	0.1355	1003790	keystroke_i	i	n/a
502.42	0.1495	1004840	keystroke_d	d	n/a
502.525	0.1195	1005050	keystroke_i	i	n/a
502.81	0.075	1005620	keystroke_Key.backspace	Key.backspace	n/a
503.0045	0.075	1006009	keystroke_Key.backspace	Key.backspace	n/a
503.17	0.0595	1006340	keystroke_Key.backspace	Key.backspace	n/a
503.304	0.105	1006608	keystroke_Key.backspace	Key.backspace	n/a
503.619	0.09	1007238	keystroke_m	m	n/a
503.8435	0.105	1007687	keystroke_i	i	n/a
504.069	0.15	1008138	keystroke_d	d	n/a
504.144	0.135	1008288	keystroke_i	i	n/a
504.5785	0.1355	1009157	keystroke_t	t	n/a
504.684	0.1345	1009368	keystroke_y	y	n/a
505.298	0.1655	1010596	keystroke_Key.space	Key.space	n/a
505.5385	0.164	1011077	keystroke_w	w	n/a
505.6125	0.1655	1011225	keystroke_e	e	n/a
505.763	0.105	1011526	keystroke_b	b	n/a
505.913	0.18	1011826	keystroke_s	s	n/a
506.062	0.1215	1012124	keystroke_t	t	n/a
506.2285	0.135	1012457	keystroke_e	e	n/a
506.3185	0.1345	1012637	keystroke_r	r	n/a
506.5275	0.15	1013055	keystroke_Key.space	Key.space	n/a
506.6925	0.1655	1013385	keystroke_a	a	n/a
506.798	0.1495	1013596	keystroke_c	c	n/a
509.573	0.058	1019146	keystroke_a	a	n/a
510.0055	0.105	1020011	keystroke_d	d	n/a
510.215	0.12	1020430	keystroke_e	e	n/a
510.365	0.12	1020730	keystroke_m	m	n/a
510.575	0.12	1021150	keystroke_i	i	n/a
510.665	0.12	1021330	keystroke_c	c	n/a
510.875	0.12	1021750	keystroke_s	s	n/a
511.43	0.15	1022860	keystroke_Key.space	Key.space	n/a
511.6995	0.135	1023399	keystroke_d	d	n/a
511.8945	0.1945	1023789	keystroke_a	a	n/a
512.0145	0.1195	1024029	keystroke_n	n	n/a
512.1495	0.09	1024299	keystroke_g	g	n/a
512.314	0.1205	1024628	keystroke_e	e	n/a
512.375	0.1645	1024750	keystroke_r	r	n/a
512.989	0.135	1025978	keystroke_Key.enter	Key.enter	n/a
513.1305	12.0325	1026261	prompt	n/a	preston possible norfolk earned\n
514.5485	0.1345	1029097	keystroke_p	p	n/a
514.6385	0.1645	1029277	keystroke_r	r	n/a
514.713	0.15	1029426	keystroke_e	e	n/a
514.938	0.18	1029876	keystroke_s	s	n/a
515.133	0.15	1030266	keystroke_t	t	n/a
515.298	0.21	1030596	keystroke_o	o	n/a
515.388	0.1645	1030776	keystroke_n	n	n/a
515.6425	0.12	1031285	keystroke_Key.space	Key.space	n/a
515.8525	0.1345	1031705	keystroke_p	p	n/a
516.9615	0.136	1033923	keystroke_o	o	n/a
517.1115	0.12	1034223	keystroke_s	s	n/a
517.291	0.165	1034582	keystroke_s	s	n/a
517.411	0.09	1034822	keystroke_i	i	n/a
517.5765	0.09	1035153	keystroke_b	b	n/a
517.741	0.15	1035482	keystroke_l	l	n/a
517.8465	0.135	1035693	keystroke_e	e	n/a
517.9665	0.09	1035933	keystroke_Key.space	Key.space	n/a
518.1165	0.12	1036233	keystroke_n	n	n/a
518.2215	0.15	1036443	keystroke_o	o	n/a
518.3265	0.12	1036653	keystroke_r	r	n/a
518.776	0.135	1037552	keystroke_f	f	n/a
518.881	0.12	1037762	keystroke_o	o	n/a
519.8695	0.12	1039739	keystroke_l	l	n/a
520.2595	0.1195	1040519	keystroke_k	k	n/a
520.724	0.135	1041448	keystroke_Key.space	Key.space	n/a
520.934	0.15	1041868	keystroke_e	e	n/a
521.009	0.18	1042018	keystroke_r	r	n/a
521.6385	0.09	1043277	keystroke_Key.backspace	Key.backspace	n/a
521.8935	0.1205	1043787	keystroke_e	e	n/a
522.014	0.1795	1044028	keystroke_a	a	n/a
522.1035	0.165	1044207	keystroke_r	r	n/a
522.793	0.075	1045586	keystroke_Key.backspace	Key.backspace	n/a
522.973	0.06	1045946	keystroke_Key.backspace	Key.backspace	n/a
523.123	0.09	1046246	keystroke_Key.backspace	Key.backspace	n/a
523.183	0.1645	1046366	keystroke_a	a	n/a
523.243	0.1645	1046486	keystroke_r	r	n/a
523.5125	0.151	1047025	keystroke_n	n	n/a
523.7075	0.1195	1047415	keystroke_e	e	n/a
523.9025	0.135	1047805	keystroke_d	d	n/a
524.2775	0.18	1048555	keystroke_Key.space	Key.space	n/a
524.772	0.09	1049544	keystroke_Key.backspace	Key.backspace	n/a
525.012	0.15	1050024	keystroke_Key.enter	Key.enter	n/a
525.173	9.4795	1050346	prompt	n/a	scholarships showed specialized bernard\n
526.0315	0.1495	1052063	keystroke_s	s	n/a
526.151	0.12	1052302	keystroke_h	h	n/a
526.8705	0.09	1053741	keystroke_Key.backspace	Key.backspace	n/a
527.0055	0.15	1054011	keystroke_c	c	n/a
527.1255	0.165	1054251	keystroke_h	h	n/a
527.2155	0.195	1054431	keystroke_o	o	n/a
527.531	0.15	1055062	keystroke_l	l	n/a
527.636	0.1795	1055272	keystroke_a	a	n/a
527.7105	0.15	1055421	keystroke_r	r	n/a
527.965	0.165	1055930	keystroke_s	s	n/a
528.055	0.15	1056110	keystroke_h	h	n/a
528.145	0.15	1056290	keystroke_i	i	n/a
528.28	0.15	1056560	keystroke_p	p	n/a
528.385	0.15	1056770	keystroke_s	s	n/a
528.685	0.105	1057370	keystroke_Key.space	Key.space	n/a
528.82	0.1205	1057640	keystroke_s	s	n/a
528.9105	0.149	1057821	keystroke_h	h	n/a
528.9555	0.179	1057911	keystroke_o	o	n/a
529.044	0.1655	1058088	keystroke_w	w	n/a
529.599	0.105	1059198	keystroke_e	e	n/a
529.809	0.1355	1059618	keystroke_d	d	n/a
530.0635	0.15	1060127	keystroke_Key.space	Key.space	n/a
530.259	0.1195	1060518	keystroke_s	s	n/a
530.349	0.1345	1060698	keystroke_p	p	n/a
530.4535	0.105	1060907	keystroke_e	e	n/a
530.6485	0.1345	1061297	keystroke_c	c	n/a
530.798	0.12	1061596	keystroke_i	i	n/a
530.933	0.135	1061866	keystroke_a	a	n/a
531.053	0.135	1062106	keystroke_l	l	n/a
531.368	0.12	1062736	keystroke_i	i	n/a
531.5475	0.2105	1063095	keystroke_z	z	n/a
531.713	0.12	1063426	keystroke_e	e	n/a
531.938	0.1195	1063876	keystroke_d	d	n/a
532.3575	0.1345	1064715	keystroke_Key.space	Key.space	n/a
533.0165	0.09	1066033	keystroke_b	b	n/a
533.0915	0.15	1066183	keystroke_e	e	n/a
533.1965	0.15	1066393	keystroke_r	r	n/a
533.4665	0.136	1066933	keystroke_n	n	n/a
533.5565	0.2245	1067113	keystroke_a	a	n/a
533.7065	0.1345	1067413	keystroke_r	r	n/a
533.962	0.1195	1067924	keystroke_d	d	n/a
534.531	0.12	1069062	keystroke_Key.enter	Key.enter	n/a
534.655	10.1475	1069310	prompt	n/a	incidents prohibited draws alike\n
535.4305	0.15	1070861	keystroke_i	i	n/a
535.4905	0.15	1070981	keystroke_n	n	n/a
535.6855	0.15	1071371	keystroke_d	d	n/a
536.045	0.1055	1072090	keystroke_Key.backspace	Key.backspace	n/a
536.1655	0.1195	1072331	keystroke_c	c	n/a
536.3005	0.135	1072601	keystroke_i	i	n/a
536.4505	0.12	1072901	keystroke_d	d	n/a
536.6455	0.1495	1073291	keystroke_e	e	n/a
536.7505	0.1495	1073501	keystroke_n	n	n/a
536.87	0.09	1073740	keystroke_t	t	n/a
537.05	0.135	1074100	keystroke_s	s	n/a
537.245	0.135	1074490	keystroke_Key.space	Key.space	n/a
537.44	0.135	1074880	keystroke_p	p	n/a
537.7245	0.12	1075449	keystroke_r	r	n/a
537.8145	0.15	1075629	keystroke_o	o	n/a
538.1295	0.1045	1076259	keystroke_h	h	n/a
538.384	0.12	1076768	keystroke_i	i	n/a
538.609	0.075	1077218	keystroke_b	b	n/a
538.789	0.135	1077578	keystroke_i	i	n/a
538.909	0.12	1077818	keystroke_t	t	n/a
539.7785	0.12	1079557	keystroke_e	e	n/a
539.9735	0.1495	1079947	keystroke_d	d	n/a
540.288	0.1355	1080576	keystroke_Key.space	Key.space	n/a
540.4535	0.12	1080907	keystroke_d	d	n/a
540.738	0.135	1081476	keystroke_r	r	n/a
540.963	0.1495	1081926	keystroke_w	w	n/a
541.5025	0.0895	1083005	keystroke_Key.backspace	Key.backspace	n/a
541.577	0.12	1083154	keystroke_a	a	n/a
541.787	0.105	1083574	keystroke_w	w	n/a
542.027	0.1055	1084054	keystroke_s	s	n/a
542.3265	0.1505	1084653	keystroke_Key.space	Key.space	n/a
542.5515	0.135	1085103	keystroke_a	a	n/a
542.7465	0.12	1085493	keystroke_l	l	n/a
542.9565	0.09	1085913	keystroke_i	i	n/a
543.1215	0.15	1086243	keystroke_k	k	n/a
544.3805	0.135	1088761	keystroke_e	e	n/a
544.6655	0.135	1089331	keystroke_Key.enter	Key.enter	n/a
544.807	7.94	1089614	prompt	n/a	solely fireplace provisions wars\n
545.5805	0.165	1091161	keystroke_s	s	n/a
545.7905	0.1045	1091581	keystroke_o	o	n/a
545.97	0.179	1091940	keystroke_l	l	n/a
546.539	0.1345	1093078	keystroke_e	e	n/a
546.9435	0.136	1093887	keystroke_l	l	n/a
547.2135	0.165	1094427	keystroke_y	y	n/a
547.3035	0.15	1094607	keystroke_Key.space	Key.space	n/a
547.5585	0.105	1095117	keystroke_f	f	n/a
547.6785	0.1205	1095357	keystroke_i	i	n/a
547.768	0.121	1095536	keystroke_r	r	n/a
547.828	0.166	1095656	keystroke_e	e	n/a
548.7135	0.06	1097427	keystroke_p	p	n/a
548.8925	0.12	1097785	keystroke_l	l	n/a
548.9525	0.18	1097905	keystroke_a	a	n/a
549.0725	0.195	1098145	keystroke_c	c	n/a
549.2225	0.1345	1098445	keystroke_e	e	n/a
549.522	0.135	1099044	keystroke_Key.space	Key.space	n/a
549.7175	0.09	1099435	keystroke_p	p	n/a
549.7925	0.135	1099585	keystroke_r	r	n/a
549.9125	0.15	1099825	keystroke_o	o	n/a
550.2265	0.075	1100453	keystroke_v	v	n/a
550.3165	0.1355	1100633	keystroke_i	i	n/a
550.482	0.1345	1100964	keystroke_s	s	n/a
550.5865	0.15	1101173	keystroke_i	i	n/a
550.6615	0.21	1101323	keystroke_o	o	n/a
550.7515	0.195	1101503	keystroke_n	n	n/a
551.156	0.15	1102312	keystroke_s	s	n/a
551.5305	0.135	1103061	keystroke_Key.space	Key.space	n/a
551.7105	0.12	1103421	keystroke_w	w	n/a
551.8905	0.165	1103781	keystroke_a	a	n/a
551.9505	0.18	1103901	keystroke_r	r	n/a
552.2505	0.1355	1104501	keystroke_s	s	n/a
552.626	0.1195	1105252	keystroke_Key.enter	Key.enter	n/a
552.75	14.1495	1105500	prompt	n/a	philips tribune aaron facial\n
553.54	0.075	1107080	keystroke_[	[	n/a
554.095	0.105	1108190	keystroke_Key.backspace	Key.backspace	n/a
555.0395	0.12	1110079	keystroke_p	p	n/a
555.3245	0.075	1110649	keystroke_h	h	n/a
555.5195	0.105	1111039	keystroke_i	i	n/a
555.7745	0.0745	1111549	keystroke_l	l	n/a
555.909	0.12	1111818	keystroke_l	l	n/a
556.059	0.15	1112118	keystroke_i	i	n/a
556.194	0.1945	1112388	keystroke_p	p	n/a
556.3735	0.165	1112747	keystroke_s	s	n/a
556.9585	0.165	1113917	keystroke_Key.space	Key.space	n/a
557.273	0.09	1114546	keystroke_t	t	n/a
557.453	0.12	1114906	keystroke_r	r	n/a
557.588	0.1045	1115176	keystroke_u	u	n/a
558.1575	0.105	1116315	keystroke_Key.backspace	Key.backspace	n/a
558.413	0.1195	1116826	keystroke_i	i	n/a
558.7275	0.075	1117455	keystroke_b	b	n/a
559.477	0.105	1118954	keystroke_u	u	n/a
559.7915	0.12	1119583	keystroke_n	n	n/a
559.9265	0.135	1119853	keystroke_e	e	n/a
560.4805	0.15	1120961	keystroke_Key.space	Key.space	n/a
560.7505	0.121	1121501	keystroke_a	a	n/a
560.9615	0.149	1121923	keystroke_a	a	n/a
561.2305	0.151	1122461	keystroke_r	r	n/a
561.441	0.195	1122882	keystroke_o	o	n/a
561.515	0.18	1123030	keystroke_n	n	n/a
562.61	0.165	1125220	keystroke_Key.space	Key.space	n/a
562.76	0.09	1125520	keystroke_f	f	n/a
562.865	0.1645	1125730	keystroke_a	a	n/a
563.0905	0.12	1126181	keystroke_c	c	n/a
563.1945	0.105	1126389	keystroke_i	i	n/a
563.2845	0.135	1126569	keystroke_a	a	n/a
563.3745	0.15	1126749	keystroke_l	l	n/a
566.84	0.058	1133680	keystroke_Key.enter	Key.enter	n/a
566.9055	8.359	1133811	prompt	n/a	democrat wilson slowly monitored\n
567.797	0.09	1135594	keystroke_d	d	n/a
567.962	0.1505	1135924	keystroke_e	e	n/a
568.0975	0.075	1136195	keystroke_m	m	n/a
568.277	0.12	1136554	keystroke_o	o	n/a
568.622	0.075	1137244	keystroke_c	c	n/a
568.832	0.105	1137664	keystroke_r	r	n/a
568.952	0.1945	1137904	keystroke_a	a	n/a
569.5515	0.12	1139103	keystroke_t	t	n/a
570.1055	0.18	1140211	keystroke_Key.space	Key.space	n/a
570.4055	0.135	1140811	keystroke_w	w	n/a
570.5255	0.09	1141051	keystroke_i	i	n/a
570.7055	0.1495	1141411	keystroke_l	l	n/a
570.9	0.15	1141800	keystroke_s	s	n/a
571.02	0.165	1142040	keystroke_o	o	n/a
571.095	0.165	1142190	keystroke_n	n	n/a
571.3655	0.12	1142731	keystroke_Key.space	Key.space	n/a
571.5455	0.15	1143091	keystroke_s	s	n/a
571.6655	0.1345	1143331	keystroke_l	l	n/a
571.875	0.135	1143750	keystroke_o	o	n/a
572.2645	0.15	1144529	keystroke_w	w	n/a
572.909	0.15	1145818	keystroke_l	l	n/a
573.194	0.165	1146388	keystroke_y	y	n/a
573.284	0.12	1146568	keystroke_Key.space	Key.space	n/a
573.554	0.0895	1147108	keystroke_m	m	n/a
573.7485	0.1205	1147497	keystroke_o	o	n/a
573.914	0.105	1147828	keystroke_n	n	n/a
574.064	0.1345	1148128	keystroke_i	i	n/a
574.303	0.075	1148606	keystroke_t	t	n/a
574.348	0.135	1148696	keystroke_o	o	n/a
574.498	0.09	1148996	keystroke_r	r	n/a
574.648	0.135	1149296	keystroke_e	e	n/a
574.843	0.12	1149686	keystroke_d	d	n/a
575.143	0.12	1150286	keystroke_Key.enter	Key.enter	n/a
575.269	8.946	1150538	prompt	n/a	protection hollow crude roses\n
576.0875	0.1205	1152175	keystroke_p	p	n/a
576.163	0.165	1152326	keystroke_r	r	n/a
576.6575	0.134	1153315	keystroke_o	o	n/a
577.2575	0.0895	1154515	keystroke_t	t	n/a
577.422	0.1045	1154844	keystroke_e	e	n/a
577.6015	0.105	1155203	keystroke_c	c	n/a
577.8415	0.105	1155683	keystroke_t	t	n/a
577.9165	0.165	1155833	keystroke_i	i	n/a
577.9915	0.2245	1155983	keystroke_o	o	n/a
578.0815	0.1805	1156163	keystroke_n	n	n/a
578.186	0.135	1156372	keystroke_Key.space	Key.space	n/a
578.426	0.105	1156852	keystroke_h	h	n/a
578.561	0.1355	1157122	keystroke_o	o	n/a
579.5655	0.0745	1159131	keystroke_l	l	n/a
579.73	0.075	1159460	keystroke_l	l	n/a
579.8955	0.135	1159791	keystroke_o	o	n/a
580.0155	0.15	1160031	keystroke_w	w	n/a
580.1955	0.15	1160391	keystroke_Key.space	Key.space	n/a
580.3305	0.12	1160661	keystroke_c	c	n/a
580.855	0.135	1161710	keystroke_u	u	n/a
581.215	0.105	1162430	keystroke_d	d	n/a
581.47	0.09	1162940	keystroke_Key.backspace	Key.backspace	n/a
581.6645	0.12	1163329	keystroke_Key.backspace	Key.backspace	n/a
581.859	0.105	1163718	keystroke_r	r	n/a
581.979	0.1355	1163958	keystroke_u	u	n/a
582.1295	0.09	1164259	keystroke_d	d	n/a
582.3095	0.135	1164619	keystroke_e	e	n/a
582.999	0.165	1165998	keystroke_Key.space	Key.space	n/a
583.179	0.12	1166358	keystroke_r	r	n/a
583.284	0.1345	1166568	keystroke_o	o	n/a
583.3885	0.1795	1166777	keystroke_s	s	n/a
583.478	0.135	1166956	keystroke_e	e	n/a
583.688	0.15	1167376	keystroke_s	s	n/a
584.078	0.135	1168156	keystroke_Key.enter	Key.enter	n/a
584.218	7.583	1168436	prompt	n/a	politics listing serial runtime\n
585.173	0.1045	1170346	keystroke_p	p	n/a
585.413	0.1195	1170826	keystroke_o	o	n/a
585.5925	0.12	1171185	keystroke_l	l	n/a
585.7275	0.1495	1171455	keystroke_i	i	n/a
585.952	0.075	1171904	keystroke_t	t	n/a
586.012	0.15	1172024	keystroke_i	i	n/a
586.177	0.105	1172354	keystroke_c	c	n/a
586.372	0.135	1172744	keystroke_s	s	n/a
586.567	0.135	1173134	keystroke_Key.space	Key.space	n/a
586.792	0.0895	1173584	keystroke_l	l	n/a
586.9415	0.135	1173883	keystroke_i	i	n/a
587.0615	0.21	1174123	keystroke_s	s	n/a
587.1815	0.135	1174363	keystroke_t	t	n/a
587.2865	0.15	1174573	keystroke_i	i	n/a
587.3315	0.18	1174663	keystroke_n	n	n/a
587.4815	0.105	1174963	keystroke_g	g	n/a
587.6465	0.1345	1175293	keystroke_Key.space	Key.space	n/a
587.931	0.165	1175862	keystroke_s	s	n/a
588.006	0.18	1176012	keystroke_e	e	n/a
588.291	0.135	1176582	keystroke_r	r	n/a
588.411	0.1195	1176822	keystroke_i	i	n/a
588.5315	0.134	1177063	keystroke_a	a	n/a
588.6355	0.15	1177271	keystroke_l	l	n/a
589.2205	0.15	1178441	keystroke_Key.space	Key.space	n/a
589.4755	0.195	1178951	keystroke_r	r	n/a
589.5805	0.06	1179161	keystroke_e	e	n/a
590.015	0.075	1180030	keystroke_Key.backspace	Key.backspace	n/a
590.211	0.089	1180422	keystroke_u	u	n/a
590.39	0.1045	1180780	keystroke_n	n	n/a
590.5695	0.12	1181139	keystroke_t	t	n/a
590.6445	0.075	1181289	keystroke_i	i	n/a
590.8995	0.135	1181799	keystroke_m	m	n/a
591.2595	0.135	1182519	keystroke_e	e	n/a
591.665	0.1345	1183330	keystroke_Key.enter	Key.enter	n/a
591.804	10.3865	1183608	prompt	n/a	canon ethics gamecube honey\n
592.579	0.12	1185158	keystroke_c	c	n/a
592.774	0.1345	1185548	keystroke_a	a	n/a
593.0885	0.12	1186177	keystroke_n	n	n/a
593.2385	0.18	1186477	keystroke_o	o	n/a
593.3135	0.1645	1186627	keystroke_n	n	n/a
593.613	0.135	1187226	keystroke_Key.space	Key.space	n/a
593.853	0.135	1187706	keystroke_e	e	n/a
594.078	0.09	1188156	keystroke_t	t	n/a
594.183	0.09	1188366	keystroke_h	h	n/a
594.3635	0.135	1188727	keystroke_i	i	n/a
594.4835	0.1045	1188967	keystroke_c	c	n/a
594.678	0.135	1189356	keystroke_s	s	n/a
595.068	0.1495	1190136	keystroke_Key.space	Key.space	n/a
595.3525	0.09	1190705	keystroke_g	g	n/a
595.5625	0.135	1191125	keystroke_a	a	n/a
595.7725	0.15	1191545	keystroke_m	m	n/a
595.8775	0.12	1191755	keystroke_e	e	n/a
596.327	0.1355	1192654	keystroke_c	c	n/a
596.5225	0.075	1193045	keystroke_u	u	n/a
596.7175	0.09	1193435	keystroke_b	b	n/a
597.167	0.1345	1194334	keystroke_e	e	n/a
597.5565	0.135	1195113	keystroke_Key.space	Key.space	n/a
597.8265	0.1195	1195653	keystroke_h	h	n/a
598.8315	0.1345	1197663	keystroke_o	o	n/a
598.981	0.12	1197962	keystroke_n	n	n/a
599.116	0.135	1198232	keystroke_e	e	n/a
599.236	0.135	1198472	keystroke_y	y	n/a
602.117	0.072	1204234	keystroke_Key.enter	Key.enter	n/a
602.1935	7.299	1204387	prompt	n/a	drug vocals willow largest\n
602.8935	0.151	1205787	keystroke_d	d	n/a
603.2995	0.09	1206599	keystroke_r	r	n/a
603.4035	0.135	1206807	keystroke_u	u	n/a
603.644	0.12	1207288	keystroke_g	g	n/a
604.1235	0.1495	1208247	keystroke_Key.space	Key.space	n/a
604.363	0.135	1208726	keystroke_v	v	n/a
604.438	0.15	1208876	keystroke_o	o	n/a
604.603	0.165	1209206	keystroke_c	c	n/a
604.738	0.18	1209476	keystroke_a	a	n/a
604.888	0.165	1209776	keystroke_l	l	n/a
605.113	0.1345	1210226	keystroke_s	s	n/a
605.7875	0.165	1211575	keystroke_Key.space	Key.space	n/a
605.9675	0.1505	1211935	keystroke_w	w	n/a
606.3575	0.105	1212715	keystroke_i	i	n/a
606.582	0.075	1213164	keystroke_l	l	n/a
606.747	0.06	1213494	keystroke_l	l	n/a
606.912	0.15	1213824	keystroke_o	o	n/a
607.0015	0.1655	1214003	keystroke_w	w	n/a
607.257	0.12	1214514	keystroke_Key.space	Key.space	n/a
607.437	0.1345	1214874	keystroke_l	l	n/a
607.5415	0.18	1215083	keystroke_a	a	n/a
607.6165	0.135	1215233	keystroke_r	r	n/a
607.8715	0.09	1215743	keystroke_g	g	n/a
608.0215	0.1945	1216043	keystroke_e	e	n/a
608.186	0.105	1216372	keystroke_t	t	n/a
608.741	0.135	1217482	keystroke_Key.backspace	Key.backspace	n/a
608.861	0.15	1217722	keystroke_s	s	n/a
608.891	0.15	1217782	keystroke_t	t	n/a
609.3555	0.135	1218711	keystroke_Key.enter	Key.enter	n/a
609.4975	7.462	1218995	prompt	n/a	relates killer it'd patent\n
610.3005	0.18	1220601	keystroke_r	r	n/a
610.391	0.1495	1220782	keystroke_e	e	n/a
610.5855	0.135	1221171	keystroke_l	l	n/a
610.6905	0.15	1221381	keystroke_a	a	n/a
610.7505	0.12	1221501	keystroke_t	t	n/a
610.9005	0.105	1221801	keystroke_e	e	n/a
611.1555	0.12	1222311	keystroke_s	s	n/a
611.875	0.1505	1223750	keystroke_Key.space	Key.space	n/a
612.16	0.09	1224320	keystroke_k	k	n/a
612.34	0.09	1224680	keystroke_i	i	n/a
612.685	0.09	1225370	keystroke_l	l	n/a
612.85	0.15	1225700	keystroke_l	l	n/a
613.135	0.18	1226270	keystroke_e	e	n/a
613.24	0.1645	1226480	keystroke_r	r	n/a
613.704	0.15	1227408	keystroke_Key.space	Key.space	n/a
614.109	0.105	1228218	keystroke_i	i	n/a
614.199	0.12	1228398	keystroke_t	t	n/a
614.304	0.1195	1228608	keystroke_'	'	n/a
614.4245	0.119	1228849	keystroke_d	d	n/a
614.9935	0.135	1229987	keystroke_Key.space	Key.space	n/a
615.398	0.12	1230796	keystroke_p	p	n/a
615.473	0.135	1230946	keystroke_a	a	n/a
616.028	0.06	1232056	keystroke_t	t	n/a
616.163	0.12	1232326	keystroke_e	e	n/a
616.268	0.105	1232536	keystroke_n	n	n/a
616.374	0.104	1232748	keystroke_t	t	n/a
616.823	0.1345	1233646	keystroke_Key.enter	Key.enter	n/a
616.962	6.76	1233924	prompt	n/a	matched modify passive ciao\n
617.7825	0.105	1235565	keystroke_m	m	n/a
618.217	0.1505	1236434	keystroke_a	a	n/a
618.4575	0.105	1236915	keystroke_t	t	n/a
618.6825	0.105	1237365	keystroke_c	c	n/a
618.8025	0.105	1237605	keystroke_h	h	n/a
618.8775	0.105	1237755	keystroke_e	e	n/a
619.0575	0.135	1238115	keystroke_d	d	n/a
619.2525	0.12	1238505	keystroke_Key.space	Key.space	n/a
619.4325	0.09	1238865	keystroke_m	m	n/a
619.612	0.105	1239224	keystroke_o	o	n/a
619.702	0.105	1239404	keystroke_d	d	n/a
619.792	0.135	1239584	keystroke_i	i	n/a
620.032	0.12	1240064	keystroke_f	f	n/a
620.1665	0.15	1240333	keystroke_y	y	n/a
620.587	0.1345	1241174	keystroke_Key.space	Key.space	n/a
620.7515	0.15	1241503	keystroke_p	p	n/a
620.8865	0.134	1241773	keystroke_a	a	n/a
621.0355	0.12	1242071	keystroke_s	s	n/a
621.231	0.165	1242462	keystroke_s	s	n/a
621.411	0.1495	1242822	keystroke_i	i	n/a
621.5455	0.105	1243091	keystroke_v	v	n/a
621.7255	0.135	1243451	keystroke_e	e	n/a
621.9505	0.135	1243901	keystroke_Key.space	Key.space	n/a
622.2955	0.1345	1244591	keystroke_c	c	n/a
622.475	0.105	1244950	keystroke_i	i	n/a
622.535	0.15	1245070	keystroke_a	a	n/a
623.27	0.135	1246540	keystroke_o	o	n/a
623.615	0.105	1247230	keystroke_Key.enter	Key.enter	n/a
623.7295	11.957	1247459	prompt	n/a	login beautifully ones governmental\n
624.5445	0.105	1249089	keystroke_l	l	n/a
624.919	0.105	1249838	keystroke_o	o	n/a
625.3685	0.12	1250737	keystroke_g	g	n/a
625.5485	0.18	1251097	keystroke_i	i	n/a
625.624	0.1645	1251248	keystroke_n	n	n/a
625.9685	0.1355	1251937	keystroke_Key.space	Key.space	n/a
626.239	0.105	1252478	keystroke_b	b	n/a
626.344	0.1045	1252688	keystroke_e	e	n/a
626.4935	0.225	1252987	keystroke_a	a	n/a
626.7035	0.15	1253407	keystroke_f	f	n/a
627.2885	0.105	1254577	keystroke_Key.backspace	Key.backspace	n/a
627.7685	0.15	1255537	keystroke_u	u	n/a
628.0685	0.135	1256137	keystroke_t	t	n/a
628.2335	0.165	1256467	keystroke_i	i	n/a
628.623	0.12	1257246	keystroke_f	f	n/a
628.803	0.12	1257606	keystroke_u	u	n/a
629.043	0.105	1258086	keystroke_l	l	n/a
629.193	0.135	1258386	keystroke_l	l	n/a
629.418	0.165	1258836	keystroke_y	y	n/a
630.272	0.1355	1260544	keystroke_Key.space	Key.space	n/a
630.4675	0.1645	1260935	keystroke_o	o	n/a
630.542	0.165	1261084	keystroke_n	n	n/a
630.677	0.105	1261354	keystroke_e	e	n/a
630.857	0.15	1261714	keystroke_s	s	n/a
631.037	0.1345	1262074	keystroke_Key.space	Key.space	n/a
631.2315	0.15	1262463	keystroke_o	o	n/a
631.3365	0.105	1262673	keystroke_v	v	n/a
631.802	0.1045	1263604	keystroke_Key.backspace	Key.backspace	n/a
632.086	0.06	1264172	keystroke_Key.backspace	Key.backspace	n/a
632.296	0.105	1264592	keystroke_g	g	n/a
632.431	0.135	1264862	keystroke_o	o	n/a
632.551	0.12	1265102	keystroke_v	v	n/a
632.731	0.165	1265462	keystroke_e	e	n/a
632.851	0.135	1265702	keystroke_r	r	n/a
633.2105	0.09	1266421	keystroke_n	n	n/a
633.6615	0.119	1267323	keystroke_m	m	n/a
633.7955	0.135	1267591	keystroke_e	e	n/a
633.8855	0.12	1267771	keystroke_n	n	n/a
634.0355	0.1205	1268071	keystroke_t	t	n/a
635.0555	0.18	1270111	keystroke_a	a	n/a
635.2805	0.1345	1270561	keystroke_l	l	n/a
635.55	0.135	1271100	keystroke_Key.enter	Key.enter	n/a
635.6895	8.019	1271379	prompt	n/a	avoiding participation alternative my\n
636.9745	0.135	1273949	keystroke_a	a	n/a
637.3345	0.135	1274669	keystroke_v	v	n/a
637.5145	0.195	1275029	keystroke_o	o	n/a
637.6045	0.15	1275209	keystroke_i	i	n/a
637.7695	0.165	1275539	keystroke_d	d	n/a
637.9195	0.12	1275839	keystroke_i	i	n/a
637.9945	0.1645	1275989	keystroke_n	n	n/a
638.129	0.105	1276258	keystroke_g	g	n/a
638.384	0.15	1276768	keystroke_Key.space	Key.space	n/a
638.564	0.135	1277128	keystroke_p	p	n/a
638.684	0.1645	1277368	keystroke_a	a	n/a
638.759	0.1195	1277518	keystroke_r	r	n/a
638.9535	0.105	1277907	keystroke_t	t	n/a
639.0435	0.135	1278087	keystroke_i	i	n/a
639.2235	0.12	1278447	keystroke_c	c	n/a
639.3445	0.134	1278689	keystroke_i	i	n/a
639.7335	0.135	1279467	keystroke_p	p	n/a
639.8535	0.1495	1279707	keystroke_a	a	n/a
640.063	0.12	1280126	keystroke_t	t	n/a
640.123	0.15	1280246	keystroke_i	i	n/a
640.198	0.1955	1280396	keystroke_o	o	n/a
640.303	0.1655	1280606	keystroke_n	n	n/a
640.5285	0.135	1281057	keystroke_Key.space	Key.space	n/a
640.7385	0.135	1281477	keystroke_a	a	n/a
640.8585	0.12	1281717	keystroke_l	l	n/a
641.113	0.1055	1282226	keystroke_t	t	n/a
641.2785	0.1355	1282557	keystroke_e	e	n/a
641.3385	0.165	1282677	keystroke_r	r	n/a
641.578	0.12	1283156	keystroke_n	n	n/a
641.668	0.15	1283336	keystroke_a	a	n/a
641.878	0.09	1283756	keystroke_t	t	n/a
641.983	0.135	1283966	keystroke_i	i	n/a
642.103	0.105	1284206	keystroke_v	v	n/a
642.268	0.12	1284536	keystroke_e	e	n/a
642.493	0.1345	1284986	keystroke_Key.space	Key.space	n/a
