onset	duration	sample	value	key	prompt_text
1.5005	10.455	3001	prompt	n/a	the quick brown fox jumps over a lazy dog\n
4.182	0.014	8364	keystroke_t	t	n/a
4.2555	0.0905	8511	keystroke_h	h	n/a
4.331	0.075	8662	keystroke_e	e	n/a
4.495	0.1205	8990	keystroke_Key.space	Key.space	n/a
4.7065	0.1045	9413	keystroke_q	q	n/a
4.871	0.06	9742	keystroke_u	u	n/a
5.036	0.0745	10072	keystroke_i	i	n/a
5.156	0.105	10312	keystroke_c	c	n/a
5.246	0.09	10492	keystroke_k	k	n/a
5.4255	0.091	10851	keystroke_Key.space	Key.space	n/a
5.6365	0.059	11273	keystroke_b	b	n/a
5.7405	0.074	11481	keystroke_r	r	n/a
5.8905	0.0905	11781	keystroke_o	o	n/a
6.0255	0.09	12051	keystroke_w	w	n/a
6.1605	0.091	12321	keystroke_n	n	n/a
6.3565	0.089	12713	keystroke_Key.space	Key.space	n/a
6.5065	0.075	13013	keystroke_f	f	n/a
6.671	0.0615	13342	keystroke_o	o	n/a
7.257	0.1205	14514	keystroke_x	x	n/a
7.5425	0.09	15085	keystroke_Key.space	Key.space	n/a
8.0665	0.091	16133	keystroke_j	j	n/a
8.2625	0.0595	16525	keystroke_u	u	n/a
8.472	0.1055	16944	keystroke_m	m	n/a
8.5465	0.12	17093	keystroke_p	p	n/a
8.6825	0.089	17365	keystroke_s	s	n/a
8.7875	0.089	17575	keystroke_Key.space	Key.space	n/a
8.9525	0.089	17905	keystroke_o	o	n/a
8.9975	0.105	17995	keystroke_v	v	n/a
9.1925	0.1345	18385	keystroke_e	e	n/a
9.2825	0.105	18565	keystroke_r	r	n/a
9.4175	0.105	18835	keystroke_Key.space	Key.space	n/a
9.5075	0.105	19015	keystroke_a	a	n/a
9.642	0.0755	19284	keystroke_Key.space	Key.space	n/a
9.807	0.0755	19614	keystroke_l	l	n/a
9.9275	0.12	19855	keystroke_a	a	n/a
10.6025	0.15	21205	keystroke_z	z	n/a
10.8415	0.06	21683	keystroke_y	y	n/a
11.0225	0.12	22045	keystroke_Key.space	Key.space	n/a
11.2325	0.09	22465	keystroke_d	d	n/a
11.3825	0.075	22765	keystroke_o	o	n/a
11.5175	0.105	23035	keystroke_g	g	n/a
11.8925	0.06	23785	keystroke_Key.enter	Key.enter	n/a
11.9615	7.6435	23923	prompt	n/a	protection bother online delicious\n
12.927	0.0605	25854	keystroke_p	p	n/a
13.3025	0.06	26605	keystroke_r	r	n/a
13.4825	0.075	26965	keystroke_o	o	n/a
13.6625	0.06	27325	keystroke_t	t	n/a
13.827	0.1055	27654	keystroke_e	e	n/a
14.0975	0.105	28195	keystroke_c	c	n/a
14.368	0.0745	28736	keystroke_t	t	n/a
14.5025	0.15	29005	keystroke_i	i	n/a
14.622	0.181	29244	keystroke_o	o	n/a
14.7425	0.104	29485	keystroke_n	n	n/a
14.9675	0.075	29935	keystroke_Key.space	Key.space	n/a
15.2375	0.09	30475	keystroke_b	b	n/a
15.6125	0.075	31225	keystroke_o	o	n/a
15.7325	0.075	31465	keystroke_t	t	n/a
15.8825	0.12	31765	keystroke_h	h	n/a
15.987	0.1355	31974	keystroke_e	e	n/a
16.077	0.105	32154	keystroke_r	r	n/a
16.2275	0.105	32455	keystroke_Key.space	Key.space	n/a
16.5125	0.075	33025	keystroke_o	o	n/a
16.677	0.0755	33354	keystroke_n	n	n/a
16.8125	0.165	33625	keystroke_l	l	n/a
16.9625	0.15	33925	keystroke_i	i	n/a
17.0225	0.15	34045	keystroke_n	n	n/a
17.1575	0.09	34315	keystroke_e	e	n/a
17.292	0.135	34584	keystroke_Key.space	Key.space	n/a
17.4575	0.09	34915	keystroke_d	d	n/a
17.6525	0.105	35305	keystroke_e	e	n/a
18.0725	0.06	36145	keystroke_l	l	n/a
18.2525	0.09	36505	keystroke_i	i	n/a
18.4175	0.0745	36835	keystroke_c	c	n/a
18.8825	0.075	37765	keystroke_i	i	n/a
19.0475	0.195	38095	keystroke_o	o	n/a
19.1375	0.135	38275	keystroke_u	u	n/a
19.3475	0.075	38695	keystroke_s	s	n/a
19.527	0.0755	39054	keystroke_Key.enter	Key.enter	n/a
19.609	7.4355	39218	prompt	n/a	stops writings ratios representative\n
20.3825	0.075	40765	keystroke_s	s	n/a
20.5775	0.0605	41155	keystroke_t	t	n/a
20.6825	0.1805	41365	keystroke_o	o	n/a
20.7875	0.15	41575	keystroke_p	p	n/a
20.9665	0.121	41933	keystroke_s	s	n/a
21.162	0.105	42324	keystroke_Key.space	Key.space	n/a
21.3575	0.105	42715	keystroke_w	w	n/a
21.6275	0.105	43255	keystroke_r	r	n/a
21.837	0.0755	43674	keystroke_i	i	n/a
21.9575	0.075	43915	keystroke_t	t	n/a
22.0775	0.165	44155	keystroke_i	i	n/a
22.1825	0.165	44365	keystroke_n	n	n/a
22.332	0.0605	44664	keystroke_g	g	n/a
22.4975	0.135	44995	keystroke_s	s	n/a
22.6325	0.075	45265	keystroke_Key.space	Key.space	n/a
22.827	0.075	45654	keystroke_r	r	n/a
22.9925	0.1195	45985	keystroke_a	a	n/a
23.127	0.0605	46254	keystroke_t	t	n/a
23.2175	0.165	46435	keystroke_i	i	n/a
23.323	0.195	46646	keystroke_o	o	n/a
23.8925	0.1045	47785	keystroke_s	s	n/a
24.1475	0.105	48295	keystroke_Key.space	Key.space	n/a
24.463	0.0595	48926	keystroke_r	r	n/a
24.6425	0.1055	49285	keystroke_e	e	n/a
24.8675	0.105	49735	keystroke_p	p	n/a
25.003	0.119	50006	keystroke_r	r	n/a
25.108	0.09	50216	keystroke_e	e	n/a
25.3325	0.1205	50665	keystroke_s	s	n/a
25.5725	0.09	51145	keystroke_e	e	n/a
25.7225	0.1055	51445	keystroke_n	n	n/a
25.828	0.0895	51656	keystroke_t	t	n/a
26.0525	0.135	52105	keystroke_a	a	n/a
26.203	0.0895	52406	keystroke_t	t	n/a
26.3675	0.1355	52735	keystroke_i	i	n/a
26.5325	0.105	53065	keystroke_v	v	n/a
26.7575	0.09	53515	keystroke_e	e	n/a
26.937	0.1055	53874	keystroke_Key.enter	Key.enter	n/a
27.0485	6.521	54097	prompt	n/a	incoming atom pond technician\n
28.0475	0.09	56095	keystroke_i	i	n/a
28.1975	0.105	56395	keystroke_n	n	n/a
28.3175	0.105	56635	keystroke_c	c	n/a
28.4375	0.15	56875	keystroke_o	o	n/a
28.5425	0.1355	57085	keystroke_m	m	n/a
28.7825	0.15	57565	keystroke_i	i	n/a
28.8575	0.12	57715	keystroke_n	n	n/a
28.9925	0.06	57985	keystroke_g	g	n/a
29.1125	0.12	58225	keystroke_Key.space	Key.space	n/a
29.5475	0.09	59095	keystroke_a	a	n/a
29.7725	0.045	59545	keystroke_t	t	n/a
29.8625	0.12	59725	keystroke_o	o	n/a
30.0575	0.075	60115	keystroke_m	m	n/a
30.4625	0.09	60925	keystroke_Key.space	Key.space	n/a
30.717	0.105	61434	keystroke_p	p	n/a
30.882	0.075	61764	keystroke_o	o	n/a
31.0475	0.12	62095	keystroke_n	n	n/a
31.1975	0.105	62395	keystroke_d	d	n/a
31.347	0.12	62694	keystroke_Key.space	Key.space	n/a
31.528	0.0745	63056	keystroke_t	t	n/a
31.7075	0.105	63415	keystroke_e	e	n/a
32.008	0.0895	64016	keystroke_c	c	n/a
32.172	0.091	64344	keystroke_h	h	n/a
32.3825	0.0905	64765	keystroke_n	n	n/a
32.547	0.105	65094	keystroke_i	i	n/a
32.6975	0.0895	65395	keystroke_c	c	n/a
32.817	0.0905	65634	keystroke_i	i	n/a
32.9525	0.12	65905	keystroke_a	a	n/a
33.0575	0.105	66115	keystroke_n	n	n/a
33.462	0.105	66924	keystroke_Key.enter	Key.enter	n/a
33.5735	7.436	67147	prompt	n/a	phys we'll blade where\n
34.348	0.089	68696	keystroke_p	p	n/a
34.5575	0.09	69115	keystroke_h	h	n/a
34.902	0.136	69804	keystroke_s	s	n/a
35.3975	0.105	70795	keystroke_Key.backspace	Key.backspace	n/a
35.697	0.091	71394	keystroke_y	y	n/a
35.862	0.0605	71724	keystroke_s	s	n/a
35.982	0.105	71964	keystroke_Key.space	Key.space	n/a
36.373	0.089	72746	keystroke_w	w	n/a
36.568	0.1045	73136	keystroke_e	e	n/a
36.8215	0.076	73643	keystroke_'	'	n/a
37.812	0.0755	75624	keystroke_l	l	n/a
37.9775	0.06	75955	keystroke_l	l	n/a
38.1575	0.105	76315	keystroke_Key.space	Key.space	n/a
39.357	0.0455	78714	keystroke_b	b	n/a
39.5225	0.105	79045	keystroke_l	l	n/a
39.6425	0.0895	79285	keystroke_a	a	n/a
39.807	0.09	79614	keystroke_d	d	n/a
40.017	0.0755	80034	keystroke_e	e	n/a
40.1375	0.105	80275	keystroke_Key.space	Key.space	n/a
40.2725	0.09	80545	keystroke_w	w	n/a
40.4075	0.09	80815	keystroke_h	h	n/a
40.4825	0.135	80965	keystroke_e	e	n/a
40.6325	0.1205	81265	keystroke_r	r	n/a
40.7375	0.0905	81475	keystroke_e	e	n/a
40.9325	0.075	81865	keystroke_Key.enter	Key.enter	n/a
41.014	9.371	82028	prompt	n/a	sampling directions football trials\n
41.8925	0.105	83785	keystroke_s	s	n/a
42.073	0.1195	84146	keystroke_a	a	n/a
42.1625	0.105	84325	keystroke_m	m	n/a
42.3425	0.09	84685	keystroke_p	p	n/a
42.5375	0.0905	85075	keystroke_l	l	n/a
42.7175	0.075	85435	keystroke_i	i	n/a
42.837	0.106	85674	keystroke_n	n	n/a
43.2575	0.1045	86515	keystroke_d	d	n/a
43.797	0.0755	87594	keystroke_Key.backspace	Key.backspace	n/a
43.887	0.061	87774	keystroke_g	g	n/a
44.0825	0.105	88165	keystroke_Key.space	Key.space	n/a
44.2775	0.1355	88555	keystroke_d	d	n/a
44.4875	0.1355	88975	keystroke_i	i	n/a
44.638	0.105	89276	keystroke_r	r	n/a
44.698	0.12	89396	keystroke_e	e	n/a
44.968	0.105	89936	keystroke_c	c	n/a
45.222	0.091	90444	keystroke_t	t	n/a
45.3725	0.18	90745	keystroke_i	i	n/a
45.4925	0.15	90985	keystroke_o	o	n/a
45.5675	0.1355	91135	keystroke_n	n	n/a
45.7475	0.12	91495	keystroke_s	s	n/a
46.1675	0.09	92335	keystroke_Key.space	Key.space	n/a
47.2175	0.1045	94435	keystroke_f	f	n/a
47.367	0.0605	94734	keystroke_o	o	n/a
47.5175	0.0895	95035	keystroke_o	o	n/a
47.6225	0.0755	95245	keystroke_t	t	n/a
47.832	0.106	95664	keystroke_b	b	n/a
47.982	0.121	95964	keystroke_a	a	n/a
48.0875	0.0905	96175	keystroke_l	l	n/a
48.267	0.0755	96534	keystroke_l	l	n/a
48.462	0.0905	96924	keystroke_Key.space	Key.space	n/a
48.763	0.015	97526	keystroke_t	t	n/a
49.288	0.09	98576	keystroke_r	r	n/a
49.438	0.105	98876	keystroke_i	i	n/a
49.573	0.12	99146	keystroke_a	a	n/a
49.738	0.12	99476	keystroke_l	l	n/a
49.977	0.106	99954	keystroke_s	s	n/a
50.278	0.104	100556	keystroke_Key.enter	Key.enter	n/a
50.392	10.043	100784	prompt	n/a	machinery fewer gratuit sparc\n
51.178	0.1195	102356	keystroke_m	m	n/a
51.2825	0.09	102565	keystroke_a	a	n/a
51.478	0.1045	102956	keystroke_c	c	n/a
51.5225	0.09	103045	keystroke_h	h	n/a
51.6575	0.135	103315	keystroke_i	i	n/a
51.7625	0.15	103525	keystroke_n	n	n/a
51.8675	0.18	103735	keystroke_e	e	n/a
52.078	0.104	104156	keystroke_r	r	n/a
52.227	0.106	104454	keystroke_y	y	n/a
52.4975	0.12	104995	keystroke_Key.space	Key.space	n/a
53.4425	0.075	106885	keystroke_f	f	n/a
53.608	0.044	107216	keystroke_e	e	n/a
53.757	0.105	107514	keystroke_w	w	n/a
53.983	0.12	107966	keystroke_e	e	n/a
54.9725	0.075	109945	keystroke_r	r	n/a
55.647	0.105	111294	keystroke_Key.space	Key.space	n/a
56.7725	0.06	113545	keystroke_g	g	n/a
57.1025	0.105	114205	keystroke_r	r	n/a
57.2525	0.12	114505	keystroke_a	a	n/a
57.5225	0.075	115045	keystroke_t	t	n/a
58.0175	0.075	116035	keystroke_u	u	n/a
58.1825	0.09	116365	keystroke_i	i	n/a
58.3035	0.089	116607	keystroke_t	t	n/a
58.4975	0.09	116995	keystroke_Key.space	Key.space	n/a
59.442	0.076	118884	keystroke_s	s	n/a
59.578	0.105	119156	keystroke_p	p	n/a
59.638	0.1795	119276	keystroke_a	a	n/a
59.818	0.074	119636	keystroke_r	r	n/a
60.132	0.105	120264	keystroke_c	c	n/a
60.357	0.075	120714	keystroke_Key.enter	Key.enter	n/a
60.439	5.4255	120878	prompt	n/a	auto shine safe bomb\n
61.273	0.1045	122546	keystroke_a	a	n/a
61.4225	0.0905	122845	keystroke_u	u	n/a
61.6625	0.06	123325	keystroke_t	t	n/a
61.812	0.09	123624	keystroke_o	o	n/a
62.112	0.105	124224	keystroke_Key.space	Key.space	n/a
62.2925	0.12	124585	keystroke_s	s	n/a
62.4275	0.09	124855	keystroke_h	h	n/a
62.5475	0.1505	125095	keystroke_i	i	n/a
62.668	0.12	125336	keystroke_n	n	n/a
62.803	0.105	125606	keystroke_e	e	n/a
62.967	0.12	125934	keystroke_Key.space	Key.space	n/a
63.3425	0.09	126685	keystroke_s	s	n/a
63.5225	0.105	127045	keystroke_a	a	n/a
63.7175	0.06	127435	keystroke_f	f	n/a
64.0475	0.0895	128095	keystroke_e	e	n/a
64.212	0.121	128424	keystroke_Key.space	Key.space	n/a
65.157	0.0605	130314	keystroke_b	b	n/a
65.293	0.0745	130586	keystroke_o	o	n/a
65.443	0.09	130886	keystroke_m	m	n/a
65.578	0.0895	131156	keystroke_b	b	n/a
65.7425	0.1195	131485	keystroke_Key.enter	Key.enter	n/a
65.8685	10.617	131737	prompt	n/a	humidity eagle drunk economic\n
66.9425	0.075	133885	keystroke_h	h	n/a
67.1375	0.075	134275	keystroke_u	u	n/a
67.423	0.0745	134846	keystroke_m	m	n/a
67.6325	0.075	135265	keystroke_i	i	n/a
68.113	0.1195	136226	keystroke_d	d	n/a
68.248	0.0895	136496	keystroke_i	i	n/a
68.4425	0.0745	136885	keystroke_t	t	n/a
68.653	0.044	137306	keystroke_y	y	n/a
68.9225	0.1045	137845	keystroke_Key.space	Key.space	n/a
69.2375	0.09	138475	keystroke_e	e	n/a
69.4175	0.105	138835	keystroke_a	a	n/a
69.5825	0.105	139165	keystroke_g	g	n/a
69.8525	0.075	139705	keystroke_;	;	n/a
70.1525	0.06	140305	keystroke_e	e	n/a
70.3175	0.105	140635	keystroke_Key.space	Key.space	n/a
70.6325	0.015	141265	keystroke_d	d	n/a
70.7375	0.09	141475	keystroke_r	r	n/a
70.8125	0.075	141625	keystroke_u	u	n/a
71.203	0.0895	142406	keystroke_Key.backspace	Key.backspace	n/a
71.3975	0.0745	142795	keystroke_Key.backspace	Key.backspace	n/a
71.577	0.075	143154	keystroke_Key.backspace	Key.backspace	n/a
71.727	0.0755	143454	keystroke_Key.backspace	Key.backspace	n/a
71.9075	0.075	143815	keystroke_Key.backspace	Key.backspace	n/a
72.3425	0.06	144685	keystroke_Key.backspace	Key.backspace	n/a
72.958	0.0895	145916	keystroke_l	l	n/a
73.137	0.0605	146274	keystroke_e	e	n/a
73.287	0.0905	146574	keystroke_Key.space	Key.space	n/a
73.392	0.075	146784	keystroke_d	d	n/a
73.572	0.075	147144	keystroke_r	r	n/a
73.662	0.0905	147324	keystroke_u	u	n/a
73.812	0.105	147624	keystroke_n	n	n/a
73.978	0.0895	147956	keystroke_k	k	n/a
74.1425	0.105	148285	keystroke_Key.space	Key.space	n/a
74.4425	0.09	148885	keystroke_e	e	n/a
74.6975	0.1355	149395	keystroke_c	c	n/a
74.802	0.106	149604	keystroke_o	o	n/a
75.133	0.075	150266	keystroke_n	n	n/a
75.4025	0.0145	150805	keystroke_o	o	n/a
75.507	0.106	151014	keystroke_m	m	n/a
75.7175	0.0895	151435	keystroke_i	i	n/a
75.882	0.1205	151764	keystroke_c	c	n/a
76.3925	0.09	152785	keystroke_Key.enter	Key.enter	n/a
76.489	7.691	152978	prompt	n/a	frederick pose dallas removed\n
77.5025	0.0755	155005	keystroke_f	f	n/a
77.742	0.1055	155484	keystroke_r	r	n/a
77.8025	0.1355	155605	keystroke_e	e	n/a
78.1025	0.1045	156205	keystroke_d	d	n/a
78.282	0.135	156564	keystroke_e	e	n/a
78.372	0.1055	156744	keystroke_r	r	n/a
78.657	0.075	157314	keystroke_i	i	n/a
78.762	0.1055	157524	keystroke_c	c	n/a
78.882	0.075	157764	keystroke_k	k	n/a
79.0775	0.09	158155	keystroke_Key.space	Key.space	n/a
79.317	0.09	158634	keystroke_p	p	n/a
79.482	0.135	158964	keystroke_o	o	n/a
79.588	0.135	159176	keystroke_s	s	n/a
79.887	0.0905	159774	keystroke_t	t	n/a
80.397	0.0755	160794	keystroke_Key.backspace	Key.backspace	n/a
80.458	0.105	160916	keystroke_e	e	n/a
80.7275	0.09	161455	keystroke_Key.space	Key.space	n/a
81.0575	0.075	162115	keystroke_d	d	n/a
81.2525	0.0905	162505	keystroke_a	a	n/a
81.5225	0.105	163045	keystroke_l	l	n/a
81.748	0.1195	163496	keystroke_l	l	n/a
81.9425	0.135	163885	keystroke_a	a	n/a
82.048	0.1645	164096	keystroke_s	s	n/a
82.2275	0.105	164455	keystroke_Key.space	Key.space	n/a
83.0975	0.105	166195	keystroke_r	r	n/a
83.218	0.1495	166436	keystroke_e	e	n/a
83.3075	0.105	166615	keystroke_m	m	n/a
83.5025	0.1205	167005	keystroke_o	o	n/a
83.623	0.105	167246	keystroke_v	v	n/a
83.803	0.105	167606	keystroke_e	e	n/a
83.968	0.104	167936	keystroke_d	d	n/a
84.103	0.0745	168206	keystroke_Key.enter	Key.enter	n/a
84.1835	9.3555	168367	prompt	n/a	geometry adaptor roller sensors\n
85.407	0.06	170814	keystroke_g	g	n/a
85.6175	0.105	171235	keystroke_e	e	n/a
85.857	0.0905	171714	keystroke_m	m	n/a
86.487	0.0605	172974	keystroke_Key.backspace	Key.backspace	n/a
86.7125	0.06	173425	keystroke_o	o	n/a
86.9525	0.075	173905	keystroke_m	m	n/a
87.1775	0.12	174355	keystroke_e	e	n/a
87.403	0.0745	174806	keystroke_t	t	n/a
87.6125	0.075	175225	keystroke_r	r	n/a
87.7025	0.09	175405	keystroke_y	y	n/a
87.9425	0.105	175885	keystroke_Key.space	Key.space	n/a
88.7375	0.12	177475	keystroke_a	a	n/a
88.963	0.1345	177926	keystroke_d	d	n/a
89.2025	0.09	178405	keystroke_a	a	n/a
89.9675	0.09	179935	keystroke_p	p	n/a
90.0875	0.09	180175	keystroke_t	t	n/a
90.3875	0.105	180775	keystroke_o	o	n/a
90.5075	0.09	181015	keystroke_r	r	n/a
90.6875	0.09	181375	keystroke_Key.space	Key.space	n/a
90.9575	0.015	181915	keystroke_r	r	n/a
90.9875	0.06	181975	keystroke_o	o	n/a
91.1825	0.06	182365	keystroke_l	l	n/a
91.3175	0.0755	182635	keystroke_l	l	n/a
91.3625	0.165	182725	keystroke_e	e	n/a
91.4825	0.135	182965	keystroke_r	r	n/a
91.7975	0.0905	183595	keystroke_Key.space	Key.space	n/a
91.9775	0.12	183955	keystroke_s	s	n/a
92.2025	0.09	184405	keystroke_e	e	n/a
92.2775	0.09	184555	keystroke_n	n	n/a
92.667	0.1205	185334	keystroke_s	s	n/a
92.832	0.1205	185664	keystroke_o	o	n/a
92.938	0.104	185876	keystroke_r	r	n/a
93.222	0.1205	186444	keystroke_s	s	n/a
93.5225	0.015	187045	keystroke_Key.enter	Key.enter	n/a
93.5425	9.867	187085	prompt	n/a	wearing artwork titled circumstances\n
94.4825	0.045	188965	keystroke_e	e	n/a
95.4425	0.12	190885	keystroke_Key.backspace	Key.backspace	n/a
95.5175	0.06	191035	keystroke_w	w	n/a
95.6675	0.105	191335	keystroke_e	e	n/a
95.8025	0.21	191605	keystroke_a	a	n/a
95.9825	0.105	191965	keystroke_r	r	n/a
96.1775	0.165	192355	keystroke_i	i	n/a
96.3275	0.135	192655	keystroke_n	n	n/a
96.4175	0.09	192835	keystroke_g	g	n/a
96.613	0.0895	193226	keystroke_Key.space	Key.space	n/a
96.6725	0.15	193345	keystroke_a	a	n/a
96.8075	0.12	193615	keystroke_r	r	n/a
97.0325	0.0605	194065	keystroke_t	t	n/a
97.2875	0.045	194575	keystroke_o	o	n/a
97.6925	0.075	195385	keystroke_Key.backspace	Key.backspace	n/a
97.7825	0.09	195565	keystroke_w	w	n/a
97.9475	0.075	195895	keystroke_o	o	n/a
98.0225	0.075	196045	keystroke_r	r	n/a
98.4875	0.06	196975	keystroke_k	k	n/a
98.6975	0.12	197395	keystroke_Key.space	Key.space	n/a
99.0125	0.12	198025	keystroke_t	t	n/a
99.1475	0.0755	198295	keystroke_i	i	n/a
99.2675	0.045	198535	keystroke_t	t	n/a
99.4475	0.105	198895	keystroke_l	l	n/a
99.523	0.1045	199046	keystroke_e	e	n/a
99.7475	0.0905	199495	keystroke_d	d	n/a
99.8975	0.105	199795	keystroke_Key.space	Key.space	n/a
100.963	0.0895	201926	keystroke_c	c	n/a
101.2925	0.09	202585	keystroke_i	i	n/a
101.443	0.06	202886	keystroke_r	r	n/a
101.743	0.1195	203486	keystroke_c	c	n/a
101.9375	0.09	203875	keystroke_u	u	n/a
102.1175	0.09	204235	keystroke_m	m	n/a
102.2375	0.135	204475	keystroke_s	s	n/a
102.4325	0.105	204865	keystroke_t	t	n/a
102.6125	0.0895	205225	keystroke_a	a	n/a
102.687	0.106	205374	keystroke_n	n	n/a
102.837	0.0905	205674	keystroke_c	c	n/a
103.0025	0.075	206005	keystroke_e	e	n/a
103.1975	0.09	206395	keystroke_s	s	n/a
103.317	0.09	206634	keystroke_Key.enter	Key.enter	n/a
103.413	7.767	206826	prompt	n/a	lynn executive fight preference\n
104.563	0.0895	209126	keystroke_l	l	n/a
104.7125	0.075	209425	keystroke_y	y	n/a
104.8175	0.09	209635	keystroke_n	n	n/a
104.9825	0.075	209965	keystroke_n	n	n/a
105.1775	0.105	210355	keystroke_Key.space	Key.space	n/a
105.4625	0.075	210925	keystroke_e	e	n/a
105.688	0.105	211376	keystroke_x	x	n/a
105.9425	0.09	211885	keystroke_e	e	n/a
106.273	0.12	212546	keystroke_c	c	n/a
106.6475	0.075	213295	keystroke_u	u	n/a
106.8125	0.0755	213625	keystroke_t	t	n/a
106.9775	0.075	213955	keystroke_i	i	n/a
107.0825	0.105	214165	keystroke_v	v	n/a
107.3975	0.0155	214795	keystroke_e	e	n/a
107.4275	0.105	214855	keystroke_Key.space	Key.space	n/a
108.0275	0.1205	216055	keystroke_f	f	n/a
108.163	0.0895	216326	keystroke_i	i	n/a
108.268	0.074	216536	keystroke_g	g	n/a
108.3875	0.105	216775	keystroke_h	h	n/a
108.5225	0.105	217045	keystroke_t	t	n/a
108.7775	0.0905	217555	keystroke_Key.space	Key.space	n/a
109.2875	0.0605	218575	keystroke_p	p	n/a
109.648	0.0745	219296	keystroke_r	r	n/a
109.782	0.091	219564	keystroke_e	e	n/a
110.0525	0.06	220105	keystroke_f	f	n/a
110.2025	0.1505	220405	keystroke_e	e	n/a
110.3385	0.0745	220677	keystroke_r	r	n/a
110.6075	0.09	221215	keystroke_e	e	n/a
110.7125	0.12	221425	keystroke_n	n	n/a
110.8175	0.1645	221635	keystroke_c	c	n/a
110.9525	0.1505	221905	keystroke_e	e	n/a
111.0875	0.0905	222175	keystroke_Key.enter	Key.enter	n/a
111.185	6.715	222370	prompt	n/a	football dead instant inflation\n
112.3175	0.0595	224635	keystroke_f	f	n/a
112.437	0.076	224874	keystroke_o	o	n/a
112.602	0.09	225204	keystroke_o	o	n/a
112.677	0.09	225354	keystroke_t	t	n/a
112.873	0.089	225746	keystroke_b	b	n/a
113.007	0.09	226014	keystroke_a	a	n/a
113.2175	0.0755	226435	keystroke_l	l	n/a
113.382	0.0605	226764	keystroke_l	l	n/a
113.532	0.12	227064	keystroke_Key.space	Key.space	n/a
113.593	0.1045	227186	keystroke_d	d	n/a
113.817	0.075	227634	keystroke_e	e	n/a
113.9225	0.15	227845	keystroke_a	a	n/a
114.132	0.106	228264	keystroke_d	d	n/a
114.702	0.046	229404	keystroke_Key.space	Key.space	n/a
114.763	0.015	229526	keystroke_i	i	n/a
114.867	0.061	229734	keystroke_n	n	n/a
114.883	0.134	229766	keystroke_s	s	n/a
115.092	0.0905	230184	keystroke_t	t	n/a
115.213	0.135	230426	keystroke_a	a	n/a
115.363	0.1045	230726	keystroke_n	n	n/a
115.737	0.105	231474	keystroke_t	t	n/a
116.2025	0.1045	232405	keystroke_Key.space	Key.space	n/a
116.412	0.0905	232824	keystroke_i	i	n/a
116.548	0.105	233096	keystroke_n	n	n/a
116.713	0.09	233426	keystroke_f	f	n/a
116.863	0.12	233726	keystroke_l	l	n/a
116.968	0.105	233936	keystroke_a	a	n/a
117.162	0.075	234324	keystroke_t	t	n/a
117.222	0.241	234444	keystroke_i	i	n/a
117.387	0.121	234774	keystroke_o	o	n/a
117.478	0.135	234956	keystroke_n	n	n/a
117.793	0.1045	235586	keystroke_Key.enter	Key.enter	n/a
117.903	8.4415	235806	prompt	n/a	individually mice flickr controller\n
118.648	0.075	237296	keystroke_i	i	n/a
118.813	0.09	237626	keystroke_n	n	n/a
118.917	0.106	237834	keystroke_d	d	n/a
119.038	0.105	238076	keystroke_i	i	n/a
119.443	0.09	238886	keystroke_v	v	n/a
119.608	0.105	239216	keystroke_i	i	n/a
119.818	0.135	239636	keystroke_d	d	n/a
119.968	0.089	239936	keystroke_u	u	n/a
120.117	0.135	240234	keystroke_a	a	n/a
120.223	0.105	240446	keystroke_l	l	n/a
120.387	0.09	240774	keystroke_l	l	n/a
120.448	0.09	240896	keystroke_y	y	n/a
120.612	0.091	241224	keystroke_Key.space	Key.space	n/a
120.838	0.09	241676	keystroke_m	m	n/a
120.973	0.119	241946	keystroke_i	i	n/a
121.033	0.1045	242066	keystroke_c	c	n/a
121.198	0.119	242396	keystroke_e	e	n/a
121.332	0.105	242664	keystroke_Key.space	Key.space	n/a
121.6175	0.0755	243235	keystroke_f	f	n/a
121.723	0.089	243446	keystroke_l	l	n/a
121.903	0.075	243806	keystroke_i	i	n/a
122.112	0.135	244224	keystroke_c	c	n/a
122.2775	0.0895	244555	keystroke_k	k	n/a
122.7425	0.09	245485	keystroke_r	r	n/a
123.163	0.0895	246326	keystroke_Key.space	Key.space	n/a
123.4175	0.105	246835	keystroke_c	c	n/a
123.9125	0.06	247825	keystroke_o	o	n/a
124.0925	0.1055	248185	keystroke_n	n	n/a
124.1985	0.0745	248397	keystroke_t	t	n/a
124.3925	0.09	248785	keystroke_r	r	n/a
124.7525	0.09	249505	keystroke_o	o	n/a
125.5625	0.015	251125	keystroke_l	l	n/a
125.6525	0.09	251305	keystroke_l	l	n/a
125.9375	0.165	251875	keystroke_e	e	n/a
126.0575	0.12	252115	keystroke_r	r	n/a
126.268	0.075	252536	keystroke_Key.enter	Key.enter	n/a
126.349	9.82	252698	prompt	n/a	won't sessions karl cameron\n
127.0325	0.09	254065	keystroke_w	w	n/a
127.8275	0.075	255655	keystroke_o	o	n/a
128.008	0.105	256016	keystroke_n	n	n/a
128.2175	0.105	256435	keystroke_'	'	n/a
128.383	0.0595	256766	keystroke_t	t	n/a
128.9075	0.09	257815	keystroke_Key.space	Key.space	n/a
129.3875	0.09	258775	keystroke_s	s	n/a
129.613	0.06	259226	keystroke_e	e	n/a
129.8075	0.0605	259615	keystroke_s	s	n/a
129.9275	0.15	259855	keystroke_s	s	n/a
130.0475	0.18	260095	keystroke_i	i	n/a
130.1675	0.165	260335	keystroke_o	o	n/a
130.243	0.15	260486	keystroke_n	n	n/a
130.453	0.09	260906	keystroke_s	s	n/a
130.5725	0.1045	261145	keystroke_Key.space	Key.space	n/a
131.0375	0.1045	262075	keystroke_k	k	n/a
131.143	0.164	262286	keystroke_a	a	n/a
131.292	0.09	262584	keystroke_r	r	n/a
131.547	0.1055	263094	keystroke_;	;	n/a
131.7875	0.1045	263575	keystroke_Key.space	Key.space	n/a
133.1225	0.075	266245	keystroke_Key.backspace	Key.backspace	n/a
133.3025	0.09	266605	keystroke_Key.backspace	Key.backspace	n/a
134.007	0.091	268014	keystroke_l	l	n/a
134.217	0.1055	268434	keystroke_Key.space	Key.space	n/a
134.5625	0.075	269125	keystroke_c	c	n/a
134.8175	0.18	269635	keystroke_a	a	n/a
135.222	0.091	270444	keystroke_m	m	n/a
135.328	0.1495	270656	keystroke_e	e	n/a
135.4175	0.119	270835	keystroke_r	r	n/a
135.6865	0.091	271373	keystroke_o	o	n/a
135.868	0.06	271736	keystroke_n	n	n/a
136.0925	0.074	272185	keystroke_Key.enter	Key.enter	n/a
136.172	7.3175	272344	prompt	n/a	lime visitors trouble hostel\n
137.187	0.09	274374	keystroke_l	l	n/a
137.337	0.09	274674	keystroke_i	i	n/a
137.5175	0.1195	275035	keystroke_m	m	n/a
137.652	0.075	275304	keystroke_e	e	n/a
137.8475	0.075	275695	keystroke_Key.space	Key.space	n/a
138.553	0.09	277106	keystroke_v	v	n/a
138.732	0.0905	277464	keystroke_i	i	n/a
138.852	0.136	277704	keystroke_s	s	n/a
139.018	0.0745	278036	keystroke_i	i	n/a
139.137	0.091	278274	keystroke_t	t	n/a
139.287	0.091	278574	keystroke_o	o	n/a
139.407	0.046	278814	keystroke_r	r	n/a
139.707	0.09	279414	keystroke_s	s	n/a
139.842	0.1055	279684	keystroke_Key.space	Key.space	n/a
140.082	0.091	280164	keystroke_t	t	n/a
140.3225	0.151	280645	keystroke_r	r	n/a
140.4575	0.165	280915	keystroke_o	o	n/a
140.5475	0.12	281095	keystroke_u	u	n/a
140.743	0.089	281486	keystroke_b	b	n/a
140.938	0.104	281876	keystroke_l	l	n/a
141.0575	0.09	282115	keystroke_e	e	n/a
141.192	0.105	282384	keystroke_Key.space	Key.space	n/a
141.567	0.0755	283134	keystroke_b	b	n/a
141.942	0.06	283884	keystroke_Key.backspace	Key.backspace	n/a
142.393	0.0745	284786	keystroke_h	h	n/a
142.572	0.106	285144	keystroke_o	o	n/a
142.663	0.105	285326	keystroke_s	s	n/a
142.857	0.09	285714	keystroke_t	t	n/a
142.992	0.1505	285984	keystroke_e	e	n/a
143.128	0.104	286256	keystroke_l	l	n/a
143.412	0.075	286824	keystroke_Key.enter	Key.enter	n/a
143.4945	5.5895	286989	prompt	n/a	alumni lost largely adams\n
144.4325	0.09	288865	keystroke_a	a	n/a
144.613	0.0595	289226	keystroke_l	l	n/a
144.8225	0.075	289645	keystroke_u	u	n/a
145.0775	0.09	290155	keystroke_m	m	n/a
145.2865	0.061	290573	keystroke_n	n	n/a
145.4225	0.089	290845	keystroke_i	i	n/a
145.6925	0.09	291385	keystroke_Key.space	Key.space	n/a
145.9615	0.061	291923	keystroke_l	l	n/a
146.1275	0.104	292255	keystroke_o	o	n/a
146.2465	0.135	292493	keystroke_s	s	n/a
146.4575	0.1205	292915	keystroke_t	t	n/a
146.682	0.0905	293364	keystroke_Key.space	Key.space	n/a
147.0875	0.09	294175	keystroke_l	l	n/a
147.2075	0.18	294415	keystroke_a	a	n/a
147.2975	0.12	294595	keystroke_r	r	n/a
147.5375	0.075	295075	keystroke_g	g	n/a
147.6725	0.105	295345	keystroke_e	e	n/a
147.7925	0.0905	295585	keystroke_l	l	n/a
147.9425	0.075	295885	keystroke_y	y	n/a
148.1225	0.105	296245	keystroke_Key.space	Key.space	n/a
148.2425	0.075	296485	keystroke_a	a	n/a
148.3925	0.135	296785	keystroke_d	d	n/a
148.5725	0.105	297145	keystroke_a	a	n/a
148.6925	0.105	297385	keystroke_m	m	n/a
148.8275	0.12	297655	keystroke_s	s	n/a
148.9775	0.1045	297955	keystroke_Key.enter	Key.enter	n/a
149.092	7.628	298184	prompt	n/a	matched agencies guarantee submissions\n
149.892	0.1055	299784	keystroke_m	m	n/a
150.0125	0.1045	300025	keystroke_a	a	n/a
150.147	0.12	300294	keystroke_t	t	n/a
150.417	0.06	300834	keystroke_c	c	n/a
150.537	0.1055	301074	keystroke_h	h	n/a
150.672	0.09	301344	keystroke_e	e	n/a
150.867	0.105	301734	keystroke_d	d	n/a
150.957	0.1055	301914	keystroke_Key.space	Key.space	n/a
151.092	0.12	302184	keystroke_a	a	n/a
151.272	0.09	302544	keystroke_g	g	n/a
151.497	0.09	302994	keystroke_e	e	n/a
151.632	0.105	303264	keystroke_n	n	n/a
151.7975	0.09	303595	keystroke_c	c	n/a
151.902	0.105	303804	keystroke_i	i	n/a
152.052	0.105	304104	keystroke_e	e	n/a
152.3075	0.105	304615	keystroke_s	s	n/a
152.427	0.105	304854	keystroke_Key.space	Key.space	n/a
153.3725	0.06	306745	keystroke_g	g	n/a
153.537	0.09	307074	keystroke_u	u	n/a
153.628	0.1195	307256	keystroke_a	a	n/a
153.8075	0.075	307615	keystroke_r	r	n/a
154.017	0.1055	308034	keystroke_a	a	n/a
154.1975	0.1045	308395	keystroke_n	n	n/a
154.317	0.0905	308634	keystroke_t	t	n/a
154.497	0.06	308994	keystroke_e	e	n/a
154.6625	0.0895	309325	keystroke_e	e	n/a
154.827	0.105	309654	keystroke_Key.space	Key.space	n/a
154.977	0.075	309954	keystroke_s	s	n/a
155.127	0.09	310254	keystroke_u	u	n/a
155.3225	0.0745	310645	keystroke_b	b	n/a
155.562	0.09	311124	keystroke_m	m	n/a
155.7425	0.0745	311485	keystroke_i	i	n/a
155.832	0.075	311664	keystroke_s	s	n/a
155.9825	0.12	311965	keystroke_s	s	n/a
156.0725	0.165	312145	keystroke_i	i	n/a
156.2065	0.1365	312413	keystroke_o	o	n/a
156.2815	0.1355	312563	keystroke_n	n	n/a
156.508	0.0895	313016	keystroke_s	s	n/a
156.6125	0.105	313225	keystroke_Key.enter	Key.enter	n/a
156.724	10.225	313448	prompt	n/a	operational diseases redeem districts\n
158.0825	0.075	316165	keystroke_o	o	n/a
158.2625	0.075	316525	keystroke_p	p	n/a
158.3225	0.165	316645	keystroke_e	e	n/a
158.4575	0.1505	316915	keystroke_r	r	n/a
158.728	0.135	317456	keystroke_a	a	n/a
158.8925	0.089	317785	keystroke_t	t	n/a
159.0125	0.18	318025	keystroke_i	i	n/a
159.1625	0.12	318325	keystroke_o	o	n/a
159.2225	0.134	318445	keystroke_n	n	n/a
159.4775	0.135	318955	keystroke_a	a	n/a
159.5825	0.09	319165	keystroke_l	l	n/a
159.7775	0.105	319555	keystroke_Key.space	Key.space	n/a
160.3175	0.0595	320635	keystroke_s	s	n/a
160.872	0.045	321744	keystroke_Key.backspace	Key.backspace	n/a
160.9475	0.0895	321895	keystroke_d	d	n/a
161.142	0.0755	322284	keystroke_i	i	n/a
161.2175	0.12	322435	keystroke_s	s	n/a
161.547	0.0905	323094	keystroke_e	e	n/a
161.7725	0.105	323545	keystroke_a	a	n/a
161.922	0.1055	323844	keystroke_s	s	n/a
162.1625	0.075	324325	keystroke_e	e	n/a
162.3425	0.09	324685	keystroke_s	s	n/a
162.4775	0.105	324955	keystroke_Key.space	Key.space	n/a
162.762	0.1055	325524	keystroke_r	r	n/a
162.927	0.06	325854	keystroke_e	e	n/a
163.1825	0.0605	326365	keystroke_d	d	n/a
163.363	0.074	326726	keystroke_e	e	n/a
164.307	0.0755	328614	keystroke_e	e	n/a
164.593	0.014	329186	keystroke_m	m	n/a
164.697	0.12	329394	keystroke_Key.space	Key.space	n/a
165.2375	0.105	330475	keystroke_d	d	n/a
165.402	0.09	330804	keystroke_i	i	n/a
165.493	0.104	330986	keystroke_s	s	n/a
165.672	0.0905	331344	keystroke_t	t	n/a
165.852	0.06	331704	keystroke_r	r	n/a
165.957	0.09	331914	keystroke_i	i	n/a
166.137	0.135	332274	keystroke_c	c	n/a
166.407	0.075	332814	keystroke_t	t	n/a
166.662	0.06	333324	keystroke_s	s	n/a
166.827	0.1205	333654	keystroke_Key.enter	Key.enter	n/a
166.953	7.6015	333906	prompt	n/a	sure horizontal highlights but\n
167.578	0.119	335156	keystroke_s	s	n/a
167.7125	0.1045	335425	keystroke_u	u	n/a
167.8325	0.0895	335665	keystroke_r	r	n/a
167.877	0.12	335754	keystroke_e	e	n/a
168.0575	0.105	336115	keystroke_Key.space	Key.space	n/a
168.5825	0.06	337165	keystroke_h	h	n/a
168.7625	0.105	337525	keystroke_o	o	n/a
168.8825	0.09	337765	keystroke_r	r	n/a
169.0325	0.09	338065	keystroke_i	i	n/a
169.3025	0.165	338605	keystroke_z	z	n/a
169.6025	0.0755	339205	keystroke_o	o	n/a
169.783	0.0895	339566	keystroke_n	n	n/a
169.9165	0.0765	339833	keystroke_t	t	n/a
170.1425	0.165	340285	keystroke_a	a	n/a
170.2625	0.105	340525	keystroke_l	l	n/a
170.6525	0.105	341305	keystroke_Key.space	Key.space	n/a
171.4175	0.0755	342835	keystroke_h	h	n/a
171.5525	0.0905	343105	keystroke_i	i	n/a
171.6725	0.09	343345	keystroke_g	g	n/a
171.8375	0.09	343675	keystroke_h	h	n/a
172.617	0.105	345234	keystroke_l	l	n/a
172.797	0.076	345594	keystroke_i	i	n/a
172.932	0.105	345864	keystroke_g	g	n/a
173.2325	0.0745	346465	keystroke_h	h	n/a
173.3375	0.075	346675	keystroke_t	t	n/a
173.577	0.09	347154	keystroke_s	s	n/a
173.7125	0.1045	347425	keystroke_Key.space	Key.space	n/a
173.997	0.091	347994	keystroke_b	b	n/a
174.147	0.105	348294	keystroke_u	u	n/a
174.267	0.1205	348534	keystroke_t	t	n/a
174.477	0.075	348954	keystroke_Key.enter	Key.enter	n/a
174.5585	8.5305	349117	prompt	n/a	alternate installations federation display\n
175.5425	0.09	351085	keystroke_a	a	n/a
175.6625	0.09	351325	keystroke_l	l	n/a
175.7665	0.0765	351533	keystroke_t	t	n/a
175.9625	0.1055	351925	keystroke_e	e	n/a
176.053	0.0895	352106	keystroke_r	r	n/a
176.1865	0.1065	352373	keystroke_n	n	n/a
176.3075	0.105	352615	keystroke_a	a	n/a
176.4425	0.105	352885	keystroke_t	t	n/a
176.5325	0.105	353065	keystroke_e	e	n/a
176.6675	0.105	353335	keystroke_Key.space	Key.space	n/a
176.9075	0.0605	353815	keystroke_i	i	n/a
177.043	0.1195	354086	keystroke_n	n	n/a
177.1325	0.12	354265	keystroke_s	s	n/a
177.3425	0.06	354685	keystroke_t	t	n/a
177.4475	0.135	354895	keystroke_a	a	n/a
177.5675	0.075	355135	keystroke_l	l	n/a
177.7175	0.1045	355435	keystroke_l	l	n/a
177.792	0.151	355584	keystroke_a	a	n/a
177.943	0.089	355886	keystroke_t	t	n/a
178.047	0.1655	356094	keystroke_i	i	n/a
178.1975	0.09	356395	keystroke_o	o	n/a
178.2125	0.1345	356425	keystroke_n	n	n/a
178.3625	0.105	356725	keystroke_s	s	n/a
178.482	0.12	356964	keystroke_Key.space	Key.space	n/a
178.737	0.12	357474	keystroke_d	d	n/a
179.3515	0.105	358703	keystroke_Key.backspace	Key.backspace	n/a
179.593	0.089	359186	keystroke_f	f	n/a
179.7875	0.0445	359575	keystroke_e	e	n/a
179.967	0.0895	359934	keystroke_d	d	n/a
180.1315	0.1505	360263	keystroke_e	e	n/a
180.252	0.105	360504	keystroke_r	r	n/a
180.432	0.1055	360864	keystroke_a	a	n/a
180.522	0.075	361044	keystroke_t	t	n/a
180.6425	0.15	361285	keystroke_i	i	n/a
180.747	0.15	361494	keystroke_o	o	n/a
180.822	0.1355	361644	keystroke_n	n	n/a
181.122	0.09	362244	keystroke_Key.space	Key.space	n/a
181.5125	0.1045	363025	keystroke_d	d	n/a
182.172	0.075	364344	keystroke_i	i	n/a
182.262	0.1205	364524	keystroke_s	s	n/a
182.397	0.091	364794	keystroke_p	p	n/a
182.5925	0.1205	365185	keystroke_l	l	n/a
182.6375	0.105	365275	keystroke_a	a	n/a
182.847	0.0905	365694	keystroke_y	y	n/a
183.0115	0.076	366023	keystroke_Key.enter	Key.enter	n/a
183.0925	6.192	366185	prompt	n/a	sleeps network presentation size\n
183.7765	0.1065	367553	keystroke_s	s	n/a
183.8975	0.09	367795	keystroke_l	l	n/a
184.0325	0.09	368065	keystroke_e	e	n/a
184.6175	0.075	369235	keystroke_e	e	n/a
184.8265	0.091	369653	keystroke_p	p	n/a
184.9625	0.105	369925	keystroke_s	s	n/a
185.0825	0.104	370165	keystroke_Key.space	Key.space	n/a
185.5025	0.09	371005	keystroke_n	n	n/a
185.6075	0.18	371215	keystroke_e	e	n/a
185.7725	0.089	371545	keystroke_t	t	n/a
186.0275	0.105	372055	keystroke_w	w	n/a
186.147	0.075	372294	keystroke_o	o	n/a
186.252	0.0905	372504	keystroke_r	r	n/a
186.402	0.0905	372804	keystroke_k	k	n/a
186.597	0.09	373194	keystroke_Key.space	Key.space	n/a
186.777	0.075	373554	keystroke_p	p	n/a
186.912	0.12	373824	keystroke_r	r	n/a
187.017	0.0905	374034	keystroke_e	e	n/a
187.2425	0.0745	374485	keystroke_s	s	n/a
187.438	0.0745	374876	keystroke_e	e	n/a
187.5725	0.0905	375145	keystroke_n	n	n/a
187.6325	0.075	375265	keystroke_t	t	n/a
187.7975	0.135	375595	keystroke_a	a	n/a
187.9175	0.105	375835	keystroke_t	t	n/a
187.9775	0.195	375955	keystroke_i	i	n/a
188.083	0.1645	376166	keystroke_o	o	n/a
188.1875	0.105	376375	keystroke_n	n	n/a
188.3825	0.119	376765	keystroke_Key.space	Key.space	n/a
188.5925	0.09	377185	keystroke_s	s	n/a
188.6975	0.105	377395	keystroke_i	i	n/a
188.8325	0.135	377665	keystroke_z	z	n/a
189.0565	0.136	378113	keystroke_e	e	n/a
189.1775	0.104	378355	keystroke_Key.enter	Key.enter	n/a
189.289	1.33	378578	prompt	n/a	didn't herbs passengers suggests\n
190.0175	0.135	380035	keystroke_d	d	n/a
190.1375	0.09	380275	keystroke_i	i	n/a
190.2425	0.12	380485	keystroke_d	d	n/a
190.3325	0.09	380665	keystroke_n	n	n/a
190.5725	0.0445	381145	keystroke_Key.enter	Key.enter	n/a
190.622	7.677	381244	prompt	n/a	duck memphis william belongs\n
190.7515	0.076	381503	keystroke_t	t	n/a
191.8025	0.105	383605	keystroke_Key.backspace	Key.backspace	n/a
192.387	0.09	384774	keystroke_d	d	n/a
192.5825	0.0745	385165	keystroke_u	u	n/a
192.702	0.105	385404	keystroke_c	c	n/a
192.852	0.0905	385704	keystroke_k	k	n/a
193.152	0.075	386304	keystroke_Key.space	Key.space	n/a
193.422	0.105	386844	keystroke_m	m	n/a
193.6625	0.1045	387325	keystroke_e	e	n/a
193.7525	0.105	387505	keystroke_m	m	n/a
193.9625	0.0755	387925	keystroke_p	p	n/a
194.307	0.09	388614	keystroke_h	h	n/a
194.5325	0.105	389065	keystroke_i	i	n/a
194.7425	0.1045	389485	keystroke_s	s	n/a
194.922	0.1205	389844	keystroke_Key.space	Key.space	n/a
195.567	0.12	391134	keystroke_w	w	n/a
195.687	0.09	391374	keystroke_i	i	n/a
195.867	0.105	391734	keystroke_l	l	n/a
196.032	0.09	392064	keystroke_l	l	n/a
196.167	0.0755	392334	keystroke_i	i	n/a
196.272	0.0905	392544	keystroke_a	a	n/a
196.422	0.0605	392844	keystroke_m	m	n/a
196.6175	0.1045	393235	keystroke_Key.space	Key.space	n/a
197.083	0.074	394166	keystroke_b	b	n/a
197.188	0.1045	394376	keystroke_e	e	n/a
197.3075	0.09	394615	keystroke_l	l	n/a
197.5025	0.075	395005	keystroke_o	o	n/a
197.683	0.1195	395366	keystroke_n	n	n/a
197.7575	0.075	395515	keystroke_g	g	n/a
198.013	0.0745	396026	keystroke_s	s	n/a
198.2075	0.09	396415	keystroke_Key.enter	Key.enter	n/a
198.3015	6.3135	396603	prompt	n/a	vice rosa adaptive displays\n
199.602	0.0605	399204	keystroke_v	v	n/a
199.737	0.0755	399474	keystroke_i	i	n/a
199.8425	0.0595	399685	keystroke_c	c	n/a
200.022	0.1205	400044	keystroke_e	e	n/a
200.127	0.0905	400254	keystroke_Key.space	Key.space	n/a
200.262	0.09	400524	keystroke_r	r	n/a
200.412	0.091	400824	keystroke_o	o	n/a
200.7575	0.12	401515	keystroke_s	s	n/a
201.0575	0.12	402115	keystroke_a	a	n/a
201.2375	0.09	402475	keystroke_Key.space	Key.space	n/a
201.5675	0.09	403135	keystroke_a	a	n/a
201.7325	0.1055	403465	keystroke_d	d	n/a
201.8825	0.12	403765	keystroke_a	a	n/a
202.0325	0.075	404065	keystroke_p	p	n/a
202.182	0.09	404364	keystroke_t	t	n/a
202.3025	0.1195	404605	keystroke_i	i	n/a
202.5275	0.0595	405055	keystroke_v	v	n/a
202.707	0.106	405414	keystroke_e	e	n/a
202.8265	0.09	405653	keystroke_Key.space	Key.space	n/a
202.978	0.1195	405956	keystroke_d	d	n/a
203.112	0.0895	406224	keystroke_i	i	n/a
203.2175	0.105	406435	keystroke_s	s	n/a
203.3515	0.0765	406703	keystroke_p	p	n/a
203.547	0.105	407094	keystroke_l	l	n/a
203.622	0.105	407244	keystroke_a	a	n/a
203.937	0.015	407874	keystroke_y	y	n/a
204.297	0.105	408594	keystroke_s	s	n/a
204.522	0.09	409044	keystroke_Key.enter	Key.enter	n/a
204.6185	9.5055	409237	prompt	n/a	routers hasn't pairs potential\n
205.378	0.0745	410756	keystroke_r	r	n/a
205.602	0.106	411204	keystroke_o	o	n/a
206.0525	0.09	412105	keystroke_u	u	n/a
206.157	0.0905	412314	keystroke_t	t	n/a
206.337	0.165	412674	keystroke_e	e	n/a
206.4425	0.1055	412885	keystroke_r	r	n/a
206.668	0.0745	413336	keystroke_s	s	n/a
206.8175	0.0895	413635	keystroke_Key.space	Key.space	n/a
207.132	0.1055	414264	keystroke_h	h	n/a
207.282	0.09	414564	keystroke_a	a	n/a
207.3125	0.1495	414625	keystroke_s	s	n/a
207.552	0.06	415104	keystroke_n	n	n/a
209.097	0.09	418194	keystroke_'	'	n/a
209.308	0.074	418616	keystroke_t	t	n/a
209.532	0.0905	419064	keystroke_Key.space	Key.space	n/a
210.793	0.09	421586	keystroke_p	p	n/a
211.078	0.074	422156	keystroke_o	o	n/a
211.798	0.075	423596	keystroke_t	t	n/a
212.023	0.15	424046	keystroke_e	e	n/a
212.233	0.06	424466	keystroke_t	t	n/a
212.7275	0.075	425455	keystroke_Key.backspace	Key.backspace	n/a
212.983	0.0895	425966	keystroke_n	n	n/a
213.1025	0.105	426205	keystroke_t	t	n/a
213.2525	0.09	426505	keystroke_i	i	n/a
213.4325	0.105	426865	keystroke_a	a	n/a
213.5525	0.105	427105	keystroke_l	l	n/a
214.0475	0.075	428095	keystroke_Key.enter	Key.enter	n/a
214.1295	8.9355	428259	prompt	n/a	apartments suburban cruz zinc\n
214.828	0.12	429656	keystroke_a	a	n/a
215.023	0.09	430046	keystroke_p	p	n/a
215.1425	0.1655	430285	keystroke_a	a	n/a
215.293	0.09	430586	keystroke_r	r	n/a
215.487	0.076	430974	keystroke_t	t	n/a
215.7575	0.1055	431515	keystroke_m	m	n/a
215.893	0.105	431786	keystroke_e	e	n/a
216.073	0.074	432146	keystroke_n	n	n/a
216.102	0.105	432204	keystroke_t	t	n/a
216.822	0.075	433644	keystroke_s	s	n/a
217.5125	0.135	435025	keystroke_Key.space	Key.space	n/a
217.828	0.0145	435656	keystroke_s	s	n/a
217.9475	0.09	435895	keystroke_u	u	n/a
218.1425	0.0905	436285	keystroke_b	b	n/a
218.3075	0.12	436615	keystroke_u	u	n/a
218.4425	0.075	436885	keystroke_r	r	n/a
218.7275	0.0755	437455	keystroke_b	b	n/a
218.8925	0.0905	437785	keystroke_a	a	n/a
219.028	0.0895	438056	keystroke_n	n	n/a
219.2825	0.09	438565	keystroke_Key.space	Key.space	n/a
220.138	0.12	440276	keystroke_c	c	n/a
220.4225	0.0595	440845	keystroke_r	r	n/a
220.647	0.0905	441294	keystroke_u	u	n/a
220.812	0.151	441624	keystroke_z	z	n/a
221.022	0.105	442044	keystroke_Key.space	Key.space	n/a
222.2375	0.09	444475	keystroke_z	z	n/a
222.433	0.0745	444866	keystroke_i	i	n/a
222.628	0.075	445256	keystroke_n	n	n/a
222.793	0.0745	445586	keystroke_c	c	n/a
222.973	0.09	445946	keystroke_Key.enter	Key.enter	n/a
223.069	9.9255	446138	prompt	n/a	viewpicture entertainment directories judges\n
224.2025	0.09	448405	keystroke_v	v	n/a
224.413	0.09	448826	keystroke_i	i	n/a
224.5325	0.0905	449065	keystroke_e	e	n/a
224.7425	0.045	449485	keystroke_w	w	n/a
224.9975	0.0905	449995	keystroke_p	p	n/a
225.1475	0.1055	450295	keystroke_i	i	n/a
225.2975	0.0905	450595	keystroke_c	c	n/a
225.5675	0.0905	451135	keystroke_t	t	n/a
225.703	0.0895	451406	keystroke_u	u	n/a
225.808	0.1345	451616	keystroke_r	r	n/a
225.9125	0.105	451825	keystroke_e	e	n/a
226.1075	0.1045	452215	keystroke_Key.space	Key.space	n/a
226.3175	0.0905	452635	keystroke_e	e	n/a
226.423	0.09	452846	keystroke_n	n	n/a
226.513	0.09	453026	keystroke_t	t	n/a
226.678	0.12	453356	keystroke_e	e	n/a
226.783	0.105	453566	keystroke_r	r	n/a
226.993	0.09	453986	keystroke_t	t	n/a
227.263	0.1345	454526	keystroke_a	a	n/a
227.353	0.1645	454706	keystroke_i	i	n/a
227.488	0.1345	454976	keystroke_n	n	n/a
227.908	0.105	455816	keystroke_m	m	n/a
228.2975	0.09	456595	keystroke_e	e	n/a
228.4175	0.12	456835	keystroke_n	n	n/a
228.5525	0.075	457105	keystroke_t	t	n/a
228.7025	0.1055	457405	keystroke_Key.space	Key.space	n/a
228.9425	0.135	457885	keystroke_d	d	n/a
229.183	0.1345	458366	keystroke_i	i	n/a
229.483	0.0895	458966	keystroke_r	r	n/a
229.603	0.104	459206	keystroke_e	e	n/a
229.828	0.135	459656	keystroke_c	c	n/a
230.188	0.075	460376	keystroke_t	t	n/a
230.323	0.105	460646	keystroke_o	o	n/a
230.442	0.106	460884	keystroke_r	r	n/a
230.8475	0.105	461695	keystroke_i	i	n/a
230.9225	0.105	461845	keystroke_e	e	n/a
231.1475	0.075	462295	keystroke_s	s	n/a
231.2675	0.075	462535	keystroke_Key.space	Key.space	n/a
231.912	0.09	463824	keystroke_j	j	n/a
232.122	0.076	464244	keystroke_u	u	n/a
232.2425	0.0905	464485	keystroke_d	d	n/a
232.408	0.105	464816	keystroke_g	g	n/a
232.558	0.105	465116	keystroke_e	e	n/a
232.7675	0.0755	465535	keystroke_s	s	n/a
232.9025	0.09	465805	keystroke_Key.enter	Key.enter	n/a
232.9985	8.666	465997	prompt	n/a	restoration belarus phase webmasters\n
233.713	0.12	467426	keystroke_r	r	n/a
233.788	0.09	467576	keystroke_e	e	n/a
234.027	0.151	468054	keystroke_s	s	n/a
234.6425	0.0895	469285	keystroke_t	t	n/a
234.7925	0.0905	469585	keystroke_o	o	n/a
234.897	0.061	469794	keystroke_r	r	n/a
235.047	0.135	470094	keystroke_a	a	n/a
235.482	0.091	470964	keystroke_t	t	n/a
235.633	0.15	471266	keystroke_i	i	n/a
235.737	0.181	471474	keystroke_o	o	n/a
235.827	0.1355	471654	keystroke_n	n	n/a
236.217	0.105	472434	keystroke_Key.space	Key.space	n/a
236.5775	0.09	473155	keystroke_b	b	n/a
236.6825	0.135	473365	keystroke_e	e	n/a
236.9225	0.1055	473845	keystroke_l	l	n/a
237.0725	0.135	474145	keystroke_a	a	n/a
237.2075	0.09	474415	keystroke_r	r	n/a
237.3275	0.12	474655	keystroke_u	u	n/a
237.538	0.0595	475076	keystroke_s	s	n/a
237.613	0.1045	475226	keystroke_Key.space	Key.space	n/a
237.8825	0.12	475765	keystroke_p	p	n/a
238.1075	0.09	476215	keystroke_h	h	n/a
238.303	0.075	476606	keystroke_a	a	n/a
238.438	0.135	476876	keystroke_s	s	n/a
238.708	0.15	477416	keystroke_e	e	n/a
239.112	0.1055	478224	keystroke_Key.space	Key.space	n/a
239.637	0.091	479274	keystroke_w	w	n/a
239.832	0.091	479664	keystroke_e	e	n/a
239.982	0.091	479964	keystroke_b	b	n/a
240.6725	0.075	481345	keystroke_m	m	n/a
240.733	0.0595	481466	keystroke_a	a	n/a
240.763	0.0895	481526	keystroke_s	s	n/a
240.958	0.0895	481916	keystroke_t	t	n/a
241.1075	0.1505	482215	keystroke_e	e	n/a
241.213	0.09	482426	keystroke_r	r	n/a
241.3925	0.1205	482785	keystroke_s	s	n/a
241.5575	0.105	483115	keystroke_Key.enter	Key.enter	n/a
241.6685	8.786	483337	prompt	n/a	commonwealth have happened purposes\n
242.458	0.105	484916	keystroke_s	s	n/a
242.968	0.075	485936	keystroke_Key.backspace	Key.backspace	n/a
243.058	0.135	486116	keystroke_c	c	n/a
243.223	0.105	486446	keystroke_o	o	n/a
243.418	0.075	486836	keystroke_m	m	n/a
243.568	0.09	487136	keystroke_m	m	n/a
243.643	0.12	487286	keystroke_e	e	n/a
243.853	0.09	487706	keystroke_n	n	n/a
244.107	0.106	488214	keystroke_w	w	n/a
244.363	0.075	488726	keystroke_e	e	n/a
244.483	0.15	488966	keystroke_a	a	n/a
244.723	0.075	489446	keystroke_l	l	n/a
245.473	0.09	490946	keystroke_t	t	n/a
245.623	0.074	491246	keystroke_h	h	n/a
245.8175	0.09	491635	keystroke_Key.space	Key.space	n/a
246.492	0.105	492984	keystroke_h	h	n/a
246.567	0.091	493134	keystroke_a	a	n/a
246.793	0.075	493586	keystroke_v	v	n/a
246.972	0.091	493944	keystroke_e	e	n/a
247.107	0.105	494214	keystroke_Key.space	Key.space	n/a
247.422	0.075	494844	keystroke_h	h	n/a
247.542	0.121	495084	keystroke_a	a	n/a
247.678	0.044	495356	keystroke_p	p	n/a
247.8125	0.0905	495625	keystroke_p	p	n/a
247.917	0.1065	495834	keystroke_e	e	n/a
248.0075	0.1055	496015	keystroke_n	n	n/a
248.098	0.105	496196	keystroke_e	e	n/a
248.277	0.135	496554	keystroke_d	d	n/a
248.397	0.106	496794	keystroke_Key.space	Key.space	n/a
248.5925	0.0905	497185	keystroke_p	p	n/a
248.788	0.0745	497576	keystroke_u	u	n/a
248.9075	0.06	497815	keystroke_r	r	n/a
249.0875	0.0755	498175	keystroke_p	p	n/a
249.223	0.1195	498446	keystroke_o	o	n/a
249.2975	0.135	498595	keystroke_s	s	n/a
249.538	0.075	499076	keystroke_e	e	n/a
250.198	0.1045	500396	keystroke_s	s	n/a
250.347	0.105	500694	keystroke_Key.enter	Key.enter	n/a
250.4585	8.606	500917	prompt	n/a	vietnamese dover she's argentina\n
251.517	0.061	503034	keystroke_v	v	n/a
251.697	0.076	503394	keystroke_i	i	n/a
251.803	0.12	503606	keystroke_e	e	n/a
252.192	0.076	504384	keystroke_t	t	n/a
252.628	0.075	505256	keystroke_n	n	n/a
252.763	0.105	505526	keystroke_a	a	n/a
252.913	0.105	505826	keystroke_m	m	n/a
253.003	0.09	506006	keystroke_e	e	n/a
253.243	0.045	506486	keystroke_s	s	n/a
253.438	0.075	506876	keystroke_e	e	n/a
253.543	0.089	507086	keystroke_Key.space	Key.space	n/a
254.5325	0.0905	509065	keystroke_d	d	n/a
254.683	0.1205	509366	keystroke_o	o	n/a
254.7575	0.1205	509515	keystroke_v	v	n/a
254.9825	0.135	509965	keystroke_e	e	n/a
255.0575	0.12	510115	keystroke_r	r	n/a
255.223	0.1195	510446	keystroke_Key.space	Key.space	n/a
255.448	0.105	510896	keystroke_s	s	n/a
255.583	0.0895	511166	keystroke_h	h	n/a
255.7175	0.075	511435	keystroke_e	e	n/a
255.973	0.0745	511946	keystroke_'	'	n/a
256.1825	0.105	512365	keystroke_s	s	n/a
256.3775	0.09	512755	keystroke_Key.space	Key.space	n/a
256.963	0.0595	513926	keystroke_a	a	n/a
257.1425	0.09	514285	keystroke_r	r	n/a
257.3675	0.075	514735	keystroke_g	g	n/a
257.503	0.0895	515006	keystroke_e	e	n/a
257.6075	0.0905	515215	keystroke_n	n	n/a
257.8475	0.0905	515695	keystroke_t	t	n/a
257.9675	0.1655	515935	keystroke_i	i	n/a
258.1025	0.1505	516205	keystroke_n	n	n/a
258.238	0.09	516476	keystroke_e	e	n/a
258.6725	0.09	517345	keystroke_Key.backspace	Key.backspace	n/a
258.7775	0.0755	517555	keystroke_a	a	n/a
258.9725	0.0905	517945	keystroke_Key.enter	Key.enter	n/a
259.068	8.411	518136	prompt	n/a	household newark frequent holidays\n
259.978	0.1045	519956	keystroke_h	h	n/a
260.0975	0.195	520195	keystroke_o	o	n/a
260.203	0.135	520406	keystroke_u	u	n/a
260.263	0.105	520526	keystroke_s	s	n/a
260.457	0.106	520914	keystroke_e	e	n/a
260.593	0.06	521186	keystroke_h	h	n/a
260.758	0.0745	521516	keystroke_o	o	n/a
260.9525	0.075	521905	keystroke_l	l	n/a
261.058	0.1045	522116	keystroke_d	d	n/a
261.208	0.105	522416	keystroke_Key.space	Key.space	n/a
261.5225	0.0895	523045	keystroke_n	n	n/a
261.597	0.075	523194	keystroke_e	e	n/a
261.793	0.075	523586	keystroke_w	w	n/a
261.943	0.134	523886	keystroke_a	a	n/a
262.183	0.0895	524366	keystroke_r	r	n/a
262.363	0.105	524726	keystroke_k	k	n/a
262.768	0.09	525536	keystroke_Key.space	Key.space	n/a
263.7575	0.0905	527515	keystroke_f	f	n/a
264.028	0.0745	528056	keystroke_r	r	n/a
264.0725	0.09	528145	keystroke_e	e	n/a
264.313	0.1345	528626	keystroke_q	q	n/a
264.463	0.1045	528926	keystroke_u	u	n/a
264.5225	0.075	529045	keystroke_e	e	n/a
264.898	0.0895	529796	keystroke_n	n	n/a
265.003	0.0895	530006	keystroke_t	t	n/a
265.2425	0.075	530485	keystroke_Key.space	Key.space	n/a
265.8725	0.09	531745	keystroke_h	h	n/a
266.0975	0.075	532195	keystroke_o	o	n/a
266.353	0.1195	532706	keystroke_l	l	n/a
266.5775	0.09	533155	keystroke_i	i	n/a
266.6685	0.104	533337	keystroke_d	d	n/a
266.8475	0.12	533695	keystroke_a	a	n/a
266.953	0.075	533906	keystroke_y	y	n/a
267.1475	0.15	534295	keystroke_s	s	n/a
267.3725	0.1045	534745	keystroke_Key.enter	Key.enter	n/a
267.4825	6.703	534965	prompt	n/a	radios enormous performed so\n
268.2725	0.075	536545	keystroke_r	r	n/a
268.4675	0.09	536935	keystroke_a	a	n/a
268.6475	0.09	537295	keystroke_d	d	n/a
268.8125	0.18	537625	keystroke_i	i	n/a
268.9475	0.15	537895	keystroke_o	o	n/a
269.1425	0.09	538285	keystroke_s	s	n/a
269.2775	0.1055	538555	keystroke_Key.space	Key.space	n/a
269.6825	0.105	539365	keystroke_e	e	n/a
269.7725	0.105	539545	keystroke_n	n	n/a
269.9675	0.1205	539935	keystroke_o	o	n/a
270.163	0.074	540326	keystroke_r	r	n/a
270.327	0.105	540654	keystroke_m	m	n/a
270.778	0.1495	541556	keystroke_o	o	n/a
270.8975	0.165	541795	keystroke_u	u	n/a
271.0775	0.105	542155	keystroke_s	s	n/a
271.3175	0.09	542635	keystroke_Key.space	Key.space	n/a
271.737	0.0905	543474	keystroke_p	p	n/a
271.8125	0.15	543625	keystroke_e	e	n/a
271.948	0.104	543896	keystroke_r	r	n/a
272.202	0.0755	544404	keystroke_f	f	n/a
272.307	0.09	544614	keystroke_o	o	n/a
272.682	0.136	545364	keystroke_r	r	n/a
273.132	0.0905	546264	keystroke_m	m	n/a
273.223	0.105	546446	keystroke_e	e	n/a
273.447	0.121	546894	keystroke_d	d	n/a
273.553	0.09	547106	keystroke_Key.space	Key.space	n/a
273.732	0.1055	547464	keystroke_s	s	n/a
273.822	0.076	547644	keystroke_o	o	n/a
274.1225	0.0605	548245	keystroke_Key.enter	Key.enter	n/a
274.1895	14.95	548379	prompt	n/a	transparency brave really wouldn't\n
274.933	0.1045	549866	keystroke_t	t	n/a
275.128	0.105	550256	keystroke_r	r	n/a
275.2925	0.0905	550585	keystroke_a	a	n/a
275.3975	0.12	550795	keystroke_n	n	n/a
275.5325	0.1205	551065	keystroke_s	s	n/a
275.7275	0.1055	551455	keystroke_p	p	n/a
275.878	0.165	551756	keystroke_a	a	n/a
276.312	0.091	552624	keystroke_r	r	n/a
276.687	0.091	553374	keystroke_e	e	n/a
276.8375	0.1195	553675	keystroke_n	n	n/a
276.927	0.135	553854	keystroke_c	c	n/a
277.047	0.06	554094	keystroke_e	e	n/a
277.2125	0.0595	554425	keystroke_y	y	n/a
277.9625	0.0595	555925	keystroke_Key.backspace	Key.backspace	n/a
278.127	0.0605	556254	keystroke_Key.backspace	Key.backspace	n/a
278.4125	0.09	556825	keystroke_y	y	n/a
278.6675	0.09	557335	keystroke_Key.space	Key.space	n/a
278.9675	0.09	557935	keystroke_b	b	n/a
279.073	0.0745	558146	keystroke_r	r	n/a
279.208	0.1045	558416	keystroke_a	a	n/a
279.433	0.1195	558866	keystroke_v	v	n/a
279.703	0.0895	559406	keystroke_e	e	n/a
279.8675	0.12	559735	keystroke_Key.space	Key.space	n/a
280.1525	0.075	560305	keystroke_r	r	n/a
280.258	0.1045	560516	keystroke_e	e	n/a
280.4375	0.12	560875	keystroke_a	a	n/a
280.5875	0.06	561175	keystroke_l	l	n/a
280.7675	0.06	561535	keystroke_l	l	n/a
280.8125	0.0905	561625	keystroke_y	y	n/a
281.0225	0.12	562045	keystroke_Key.space	Key.space	n/a
281.4125	0.09	562825	keystroke_w	w	n/a
281.5475	0.1505	563095	keystroke_o	o	n/a
281.6375	0.135	563275	keystroke_u	u	n/a
282.133	0.1045	564266	keystroke_l	l	n/a
282.358	0.075	564716	keystroke_d	d	n/a
282.762	0.121	565524	keystroke_'	'	n/a
283.543	0.0605	567086	keystroke_y	y	n/a
284.188	0.0745	568376	keystroke_Key.backspace	Key.backspace	n/a
284.503	0.075	569006	keystroke_t	t	n/a
285.9275	0.09	571855	keystroke_Key.backspace	Key.backspace	n/a
287.0375	0.06	574075	keystroke_Key.backspace	Key.backspace	n/a
287.5775	0.0755	575155	keystroke_n	n	n/a
288.1325	0.09	576265	keystroke_'	'	n/a
288.358	0.0605	576716	keystroke_t	t	n/a
288.5225	0.0755	577045	keystroke_Key.space	Key.space	n/a
289.048	0.0895	578096	keystroke_Key.enter	Key.enter	n/a
289.143	8.817	578286	prompt	n/a	russian ranges yugoslavia programme\n
289.9475	0.0605	579895	keystroke_r	r	n/a
290.083	0.1045	580166	keystroke_u	u	n/a
290.217	0.075	580434	keystroke_s	s	n/a
290.367	0.1205	580734	keystroke_s	s	n/a
290.458	0.09	580916	keystroke_i	i	n/a
290.577	0.121	581154	keystroke_a	a	n/a
290.668	0.089	581336	keystroke_n	n	n/a
290.877	0.0905	581754	keystroke_Key.space	Key.space	n/a
291.0875	0.075	582175	keystroke_r	r	n/a
291.223	0.1195	582446	keystroke_a	a	n/a
291.3275	0.12	582655	keystroke_n	n	n/a
291.4625	0.0905	582925	keystroke_g	g	n/a
291.5675	0.075	583135	keystroke_e	e	n/a
291.7625	0.0905	583525	keystroke_s	s	n/a
291.928	0.1045	583856	keystroke_Key.space	Key.space	n/a
292.753	0.0595	585506	keystroke_y	y	n/a
292.933	0.0745	585866	keystroke_u	u	n/a
293.923	0.075	587846	keystroke_g	g	n/a
294.1625	0.0155	588325	keystroke_o	o	n/a
294.2525	0.0755	588505	keystroke_s	s	n/a
294.373	0.105	588746	keystroke_l	l	n/a
294.448	0.1045	588896	keystroke_a	a	n/a
294.6585	0.104	589317	keystroke_v	v	n/a
294.8085	0.0895	589617	keystroke_i	i	n/a
294.9885	0.089	589977	keystroke_a	a	n/a
295.123	0.105	590246	keystroke_Key.space	Key.space	n/a
295.603	0.09	591206	keystroke_p	p	n/a
295.723	0.06	591446	keystroke_r	r	n/a
296.7725	0.0755	593545	keystroke_o	o	n/a
296.983	0.0595	593966	keystroke_g	g	n/a
297.193	0.0445	594386	keystroke_r	r	n/a
297.357	0.121	594714	keystroke_a	a	n/a
297.463	0.075	594926	keystroke_m	m	n/a
297.613	0.075	595226	keystroke_m	m	n/a
297.688	0.1045	595376	keystroke_e	e	n/a
297.8375	0.12	595675	keystroke_Key.enter	Key.enter	n/a
297.964	9.5805	595928	prompt	n/a	unknown scenario installed investor\n
298.767	0.0455	597534	keystroke_u	u	n/a
299.5025	0.0905	599005	keystroke_n	n	n/a
299.698	0.0895	599396	keystroke_k	k	n/a
300.343	0.06	600686	keystroke_n	n	n/a
301.033	0.1045	602066	keystroke_o	o	n/a
301.2275	0.1055	602455	keystroke_w	w	n/a
302.217	0.061	604434	keystroke_n	n	n/a
302.6675	0.09	605335	keystroke_Key.space	Key.space	n/a
302.893	0.06	605786	keystroke_s	s	n/a
303.0725	0.09	606145	keystroke_c	c	n/a
303.2675	0.1055	606535	keystroke_e	e	n/a
303.3875	0.09	606775	keystroke_n	n	n/a
303.4625	0.135	606925	keystroke_a	a	n/a
303.628	0.075	607256	keystroke_r	r	n/a
303.703	0.1945	607406	keystroke_i	i	n/a
303.8375	0.135	607675	keystroke_o	o	n/a
304.1375	0.0905	608275	keystroke_Key.space	Key.space	n/a
304.5885	0.0445	609177	keystroke_i	i	n/a
304.7675	0.075	609535	keystroke_n	n	n/a
304.828	0.1195	609656	keystroke_s	s	n/a
305.1275	0.015	610255	keystroke_t	t	n/a
305.203	0.12	610406	keystroke_a	a	n/a
305.308	0.09	610616	keystroke_l	l	n/a
305.473	0.105	610946	keystroke_l	l	n/a
305.5475	0.09	611095	keystroke_e	e	n/a
305.728	0.12	611456	keystroke_d	d	n/a
305.832	0.0905	611664	keystroke_Key.space	Key.space	n/a
306.073	0.0745	612146	keystroke_i	i	n/a
306.2375	0.105	612475	keystroke_n	n	n/a
306.3125	0.0905	612625	keystroke_v	v	n/a
306.492	0.076	612984	keystroke_e	e	n/a
306.672	0.136	613344	keystroke_s	s	n/a
307.0025	0.0445	614005	keystroke_t	t	n/a
307.108	0.075	614216	keystroke_o	o	n/a
307.1975	0.0755	614395	keystroke_r	r	n/a
307.453	0.09	614906	keystroke_Key.enter	Key.enter	n/a
307.5495	6.9855	615099	prompt	n/a	frog wrote records holdings\n
308.308	0.075	616616	keystroke_f	f	n/a
308.503	0.089	617006	keystroke_r	r	n/a
308.607	0.076	617214	keystroke_o	o	n/a
308.817	0.046	617634	keystroke_n	n	n/a
309.282	0.076	618564	keystroke_Key.backspace	Key.backspace	n/a
309.342	0.091	618684	keystroke_g	g	n/a
309.658	0.075	619316	keystroke_Key.space	Key.space	n/a
310.138	0.075	620276	keystroke_w	w	n/a
310.288	0.089	620576	keystroke_r	r	n/a
310.407	0.09	620814	keystroke_o	o	n/a
310.5125	0.09	621025	keystroke_t	t	n/a
310.6475	0.105	621295	keystroke_e	e	n/a
310.8125	0.105	621625	keystroke_Key.space	Key.space	n/a
311.1275	0.075	622255	keystroke_r	r	n/a
311.2325	0.105	622465	keystroke_e	e	n/a
311.4875	0.1055	622975	keystroke_c	c	n/a
311.6525	0.09	623305	keystroke_o	o	n/a
311.773	0.0745	623546	keystroke_r	r	n/a
311.998	0.0745	623996	keystroke_d	d	n/a
312.193	0.09	624386	keystroke_s	s	n/a
312.3425	0.09	624685	keystroke_Key.space	Key.space	n/a
312.853	0.1045	625706	keystroke_h	h	n/a
313.093	0.06	626186	keystroke_o	o	n/a
313.273	0.0895	626546	keystroke_l	l	n/a
313.3775	0.12	626755	keystroke_d	d	n/a
313.5125	0.1655	627025	keystroke_i	i	n/a
313.6475	0.1355	627295	keystroke_n	n	n/a
313.7675	0.06	627535	keystroke_g	g	n/a
314.1875	0.15	628375	keystroke_s	s	n/a
314.4275	0.1055	628855	keystroke_Key.enter	Key.enter	n/a
314.542	12.0435	629084	prompt	n/a	reduced weddings edwards hang\n
315.1325	0.075	630265	keystroke_r	r	n/a
315.253	0.105	630506	keystroke_e	e	n/a
315.5825	0.09	631165	keystroke_d	d	n/a
315.778	0.075	631556	keystroke_i	i	n/a
315.8375	0.1205	631675	keystroke_c	c	n/a
316.093	0.09	632186	keystroke_e	e	n/a
316.3025	0.1355	632605	keystroke_d	d	n/a
316.542	0.106	633084	keystroke_Key.space	Key.space	n/a
317.728	0.1195	635456	keystroke_Key.backspace	Key.backspace	n/a
317.9675	0.075	635935	keystroke_Key.backspace	Key.backspace	n/a
318.133	0.075	636266	keystroke_Key.backspace	Key.backspace	n/a
318.298	0.075	636596	keystroke_Key.backspace	Key.backspace	n/a
318.448	0.089	636896	keystroke_Key.backspace	Key.backspace	n/a
319.003	0.09	638006	keystroke_u	u	n/a
319.258	0.0295	638516	keystroke_c	c	n/a
319.7375	0.1055	639475	keystroke_e	e	n/a
319.9785	0.074	639957	keystroke_d	d	n/a
320.1125	0.1055	640225	keystroke_Key.space	Key.space	n/a
320.668	0.18	641336	keystroke_w	w	n/a
320.863	0.0295	641726	keystroke_e	e	n/a
321.028	0.0595	642056	keystroke_d	d	n/a
321.193	0.0895	642386	keystroke_d	d	n/a
321.298	0.15	642596	keystroke_i	i	n/a
321.403	0.135	642806	keystroke_n	n	n/a
321.538	0.03	643076	keystroke_g	g	n/a
321.853	0.06	643706	keystroke_s	s	n/a
322.1675	0.105	644335	keystroke_Key.space	Key.space	n/a
323.623	0.09	647246	keystroke_e	e	n/a
323.833	0.09	647666	keystroke_d	d	n/a
324.058	0.075	648116	keystroke_w	w	n/a
324.238	0.165	648476	keystroke_a	a	n/a
324.388	0.105	648776	keystroke_r	r	n/a
324.658	0.06	649316	keystroke_d	d	n/a
324.868	0.105	649736	keystroke_s	s	n/a
325.077	0.106	650154	keystroke_Key.space	Key.space	n/a
325.452	0.106	650904	keystroke_h	h	n/a
325.558	0.075	651116	keystroke_a	a	n/a
325.678	0.1045	651356	keystroke_n	n	n/a
326.1275	0.09	652255	keystroke_g	g	n/a
326.428	0.1495	652856	keystroke_Key.enter	Key.enter	n/a
326.5885	9.5765	653177	prompt	n/a	gasoline stuffed superintendent liberia\n
327.5375	0.0905	655075	keystroke_g	g	n/a
327.8375	0.12	655675	keystroke_a	a	n/a
328.048	0.0895	656096	keystroke_s	s	n/a
328.2425	0.075	656485	keystroke_o	o	n/a
328.4375	0.075	656875	keystroke_l	l	n/a
328.633	0.1495	657266	keystroke_i	i	n/a
328.7375	0.135	657475	keystroke_n	n	n/a
328.8735	0.0895	657747	keystroke_e	e	n/a
329.038	0.105	658076	keystroke_Key.space	Key.space	n/a
329.218	0.1045	658436	keystroke_s	s	n/a
329.4275	0.09	658855	keystroke_t	t	n/a
329.5475	0.1205	659095	keystroke_u	u	n/a
329.8625	0.105	659725	keystroke_f	f	n/a
330.148	0.075	660296	keystroke_f	f	n/a
330.3275	0.1205	660655	keystroke_e	e	n/a
330.5525	0.0755	661105	keystroke_d	d	n/a
330.748	0.1045	661496	keystroke_Key.space	Key.space	n/a
331.288	0.06	662576	keystroke_s	s	n/a
331.392	0.106	662784	keystroke_u	u	n/a
331.603	0.105	663206	keystroke_p	p	n/a
331.693	0.1495	663386	keystroke_e	e	n/a
331.828	0.105	663656	keystroke_r	r	n/a
332.023	0.075	664046	keystroke_i	i	n/a
332.1875	0.09	664375	keystroke_n	n	n/a
332.653	0.089	665306	keystroke_t	t	n/a
332.833	0.075	665666	keystroke_e	e	n/a
333.028	0.1045	666056	keystroke_n	n	n/a
333.223	0.075	666446	keystroke_d	d	n/a
333.403	0.1045	666806	keystroke_e	e	n/a
333.5375	0.0905	667075	keystroke_n	n	n/a
333.6425	0.1055	667285	keystroke_t	t	n/a
333.808	0.0895	667616	keystroke_Key.space	Key.space	n/a
334.0175	0.0905	668035	keystroke_l	l	n/a
334.4075	0.0755	668815	keystroke_i	i	n/a
334.5875	0.09	669175	keystroke_b	b	n/a
334.798	0.1495	669596	keystroke_e	e	n/a
334.918	0.1045	669836	keystroke_r	r	n/a
335.7275	0.135	671455	keystroke_i	i	n/a
335.9075	0.105	671815	keystroke_a	a	n/a
336.0575	0.105	672115	keystroke_Key.enter	Key.enter	n/a
336.1685	6.071	672337	prompt	n/a	blocks trout kitchen orders\n
337.273	0.0895	674546	keystroke_b	b	n/a
337.5125	0.0905	675025	keystroke_l	l	n/a
337.6925	0.075	675385	keystroke_o	o	n/a
337.828	0.09	675656	keystroke_c	c	n/a
337.9785	0.089	675957	keystroke_k	k	n/a
338.1875	0.09	676375	keystroke_s	s	n/a
338.293	0.1195	676586	keystroke_Key.space	Key.space	n/a
338.548	0.0895	677096	keystroke_t	t	n/a
338.7575	0.09	677515	keystroke_r	r	n/a
338.8475	0.18	677695	keystroke_o	o	n/a
338.9525	0.12	677905	keystroke_u	u	n/a
339.1025	0.105	678205	keystroke_t	t	n/a
339.343	0.105	678686	keystroke_Key.space	Key.space	n/a
339.7025	0.09	679405	keystroke_k	k	n/a
339.8975	0.06	679795	keystroke_i	i	n/a
339.9725	0.09	679945	keystroke_t	t	n/a
340.318	0.075	680636	keystroke_c	c	n/a
340.4075	0.09	680815	keystroke_h	h	n/a
340.5875	0.1055	681175	keystroke_e	e	n/a
340.678	0.0895	681356	keystroke_n	n	n/a
340.8725	0.09	681745	keystroke_Key.space	Key.space	n/a
341.128	0.075	682256	keystroke_o	o	n/a
341.2175	0.075	682435	keystroke_r	r	n/a
341.4285	0.1035	682857	keystroke_d	d	n/a
341.6825	0.0905	683365	keystroke_e	e	n/a
341.727	0.1055	683454	keystroke_r	r	n/a
341.983	0.1345	683966	keystroke_s	s	n/a
342.148	0.0895	684296	keystroke_Key.enter	Key.enter	n/a
342.2435	9.5505	684487	prompt	n/a	hello spending minnesota include\n
343.423	0.0895	686846	keystroke_h	h	n/a
343.5575	0.12	687115	keystroke_e	e	n/a
343.7075	0.09	687415	keystroke_l	l	n/a
343.8875	0.09	687775	keystroke_l	l	n/a
344.082	0.09	688164	keystroke_o	o	n/a
344.863	0.09	689726	keystroke_Key.space	Key.space	n/a
345.0275	0.1345	690055	keystroke_s	s	n/a
345.147	0.091	690294	keystroke_p	p	n/a
345.282	0.091	690564	keystroke_e	e	n/a
345.388	0.09	690776	keystroke_n	n	n/a
345.8525	0.09	691705	keystroke_d	d	n/a
345.9875	0.1805	691975	keystroke_i	i	n/a
346.123	0.12	692246	keystroke_n	n	n/a
346.273	0.1045	692546	keystroke_g	g	n/a
346.3925	0.09	692785	keystroke_Key.space	Key.space	n/a
346.603	0.0745	693206	keystroke_m	m	n/a
346.753	0.075	693506	keystroke_i	i	n/a
346.917	0.0905	693834	keystroke_n	n	n/a
347.0525	0.09	694105	keystroke_n	n	n/a
347.0825	0.09	694165	keystroke_e	e	n/a
347.7425	0.135	695485	keystroke_s	s	n/a
348.0125	0.075	696025	keystroke_o	o	n/a
348.073	0.0895	696146	keystroke_t	t	n/a
348.2825	0.105	696565	keystroke_a	a	n/a
348.3885	0.0895	696777	keystroke_Key.space	Key.space	n/a
348.6575	0.09	697315	keystroke_i	i	n/a
348.823	0.105	697646	keystroke_n	n	n/a
348.9425	0.15	697885	keystroke_c	c	n/a
349.0475	0.12	698095	keystroke_l	l	n/a
349.1975	0.105	698395	keystroke_i	i	n/a
349.3325	0.1055	698665	keystroke_d	d	n/a
349.8575	0.135	699715	keystroke_Key.backspace	Key.backspace	n/a
350.0075	0.0905	700015	keystroke_Key.backspace	Key.backspace	n/a
350.3075	0.105	700615	keystroke_u	u	n/a
350.488	0.0745	700976	keystroke_d	d	n/a
350.7125	0.12	701425	keystroke_e	e	n/a
351.7025	0.0895	703405	keystroke_Key.enter	Key.enter	n/a
351.7975	7.002	703595	prompt	n/a	witch dell approx migration\n
352.4525	0.105	704905	keystroke_w	w	n/a
352.6325	0.105	705265	keystroke_i	i	n/a
352.7675	0.09	705535	keystroke_t	t	n/a
353.1575	0.06	706315	keystroke_c	c	n/a
353.2025	0.09	706405	keystroke_h	h	n/a
353.3975	0.09	706795	keystroke_Key.space	Key.space	n/a
353.503	0.0745	707006	keystroke_d	d	n/a
353.712	0.165	707424	keystroke_e	e	n/a
353.937	0.075	707874	keystroke_l	l	n/a
354.118	0.074	708236	keystroke_l	l	n/a
354.297	0.09	708594	keystroke_Key.space	Key.space	n/a
354.507	0.091	709014	keystroke_a	a	n/a
355.4075	0.105	710815	keystroke_p	p	n/a
355.6475	0.074	711295	keystroke_p	p	n/a
355.7825	0.075	711565	keystroke_r	r	n/a
355.9325	0.105	711865	keystroke_o	o	n/a
356.3375	0.1505	712675	keystroke_x	x	n/a
356.847	0.091	713694	keystroke_Key.space	Key.space	n/a
357.283	0.09	714566	keystroke_m	m	n/a
357.432	0.121	714864	keystroke_i	i	n/a
357.553	0.1045	715106	keystroke_g	g	n/a
357.7925	0.075	715585	keystroke_r	r	n/a
357.973	0.1345	715946	keystroke_a	a	n/a
358.0925	0.12	716185	keystroke_t	t	n/a
358.1675	0.21	716335	keystroke_i	i	n/a
358.2875	0.18	716575	keystroke_o	o	n/a
358.4075	0.165	716815	keystroke_n	n	n/a
358.7225	0.075	717445	keystroke_Key.enter	Key.enter	n/a
358.8035	5.261	717607	prompt	n/a	fame prague seems goal\n
359.7425	0.075	719485	keystroke_f	f	n/a
359.9075	0.105	719815	keystroke_a	a	n/a
360.0575	0.06	720115	keystroke_m	m	n/a
360.1925	0.1205	720385	keystroke_e	e	n/a
360.372	0.106	720744	keystroke_Key.space	Key.space	n/a
360.763	0.135	721526	keystroke_p	p	n/a
360.883	0.09	721766	keystroke_r	r	n/a
361.047	0.106	722094	keystroke_a	a	n/a
361.213	0.12	722426	keystroke_g	g	n/a
361.393	0.105	722786	keystroke_u	u	n/a
361.528	0.1195	723056	keystroke_e	e	n/a
361.7525	0.075	723505	keystroke_Key.space	Key.space	n/a
362.0975	0.0745	724195	keystroke_s	s	n/a
362.323	0.045	724646	keystroke_e	e	n/a
362.457	0.075	724914	keystroke_e	e	n/a
362.607	0.1055	725214	keystroke_m	m	n/a
362.7425	0.105	725485	keystroke_s	s	n/a
362.9225	0.12	725845	keystroke_Key.space	Key.space	n/a
363.2525	0.0895	726505	keystroke_g	g	n/a
363.448	0.089	726896	keystroke_o	o	n/a
363.5675	0.1495	727135	keystroke_a	a	n/a
363.703	0.1045	727406	keystroke_l	l	n/a
363.987	0.075	727974	keystroke_Key.enter	Key.enter	n/a
364.068	7.303	728136	prompt	n/a	grammar latvia msgstr milton\n
364.9175	0.0605	729835	keystroke_g	g	n/a
365.487	0.2105	730974	keystroke_r	r	n/a
365.713	0.044	731426	keystroke_a	a	n/a
365.758	0.074	731516	keystroke_m	m	n/a
365.907	0.09	731814	keystroke_m	m	n/a
366.028	0.15	732056	keystroke_a	a	n/a
366.207	0.076	732414	keystroke_r	r	n/a
366.357	0.105	732714	keystroke_Key.space	Key.space	n/a
366.612	0.121	733224	keystroke_l	l	n/a
366.747	0.1355	733494	keystroke_a	a	n/a
366.9275	0.09	733855	keystroke_t	t	n/a
367.2125	0.0905	734425	keystroke_v	v	n/a
367.348	0.089	734696	keystroke_i	i	n/a
367.497	0.1055	734994	keystroke_a	a	n/a
367.648	0.075	735296	keystroke_Key.space	Key.space	n/a
367.858	0.09	735716	keystroke_m	m	n/a
367.993	0.135	735986	keystroke_s	s	n/a
368.308	0.105	736616	keystroke_g	g	n/a
368.893	0.105	737786	keystroke_s	s	n/a
369.1475	0.0905	738295	keystroke_t	t	n/a
369.3875	0.0905	738775	keystroke_r	r	n/a
369.957	0.0905	739914	keystroke_Key.space	Key.space	n/a
370.3025	0.09	740605	keystroke_m	m	n/a
370.4975	0.12	740995	keystroke_i	i	n/a
370.678	0.09	741356	keystroke_l	l	n/a
370.8425	0.0605	741685	keystroke_t	t	n/a
370.9325	0.09	741865	keystroke_o	o	n/a
371.0825	0.1055	742165	keystroke_n	n	n/a
371.2775	0.09	742555	keystroke_Key.enter	Key.enter	n/a
371.375	6.669	742750	prompt	n/a	leather ultram workout sage\n
372.163	0.1045	744326	keystroke_l	l	n/a
372.628	0.06	745256	keystroke_e	e	n/a
372.7625	0.135	745525	keystroke_a	a	n/a
372.9125	0.075	745825	keystroke_t	t	n/a
373.018	0.1045	746036	keystroke_h	h	n/a
373.1075	0.15	746215	keystroke_e	e	n/a
373.228	0.0895	746456	keystroke_r	r	n/a
373.3775	0.105	746755	keystroke_Key.space	Key.space	n/a
373.6925	0.1055	747385	keystroke_u	u	n/a
373.963	0.09	747926	keystroke_l	l	n/a
374.0825	0.105	748165	keystroke_t	t	n/a
374.293	0.0595	748586	keystroke_r	r	n/a
374.412	0.136	748824	keystroke_a	a	n/a
374.548	0.105	749096	keystroke_m	m	n/a
374.7275	0.09	749455	keystroke_Key.space	Key.space	n/a
374.9225	0.1055	749845	keystroke_w	w	n/a
375.043	0.0895	750086	keystroke_o	o	n/a
375.1925	0.075	750385	keystroke_r	r	n/a
376.347	0.106	752694	keystroke_k	k	n/a
376.573	0.1645	753146	keystroke_o	o	n/a
376.6925	0.1205	753385	keystroke_u	u	n/a
376.813	0.1045	753626	keystroke_t	t	n/a
377.0225	0.09	754045	keystroke_Key.space	Key.space	n/a
377.3675	0.0605	754735	keystroke_s	s	n/a
377.5175	0.075	755035	keystroke_a	a	n/a
377.6525	0.09	755305	keystroke_g	g	n/a
377.803	0.1345	755606	keystroke_e	e	n/a
377.9525	0.09	755905	keystroke_Key.enter	Key.enter	n/a
378.047	10.648	756094	prompt	n/a	travesti scenario generations ecological\n
378.913	0.075	757826	keystroke_t	t	n/a
379.093	0.075	758186	keystroke_r	r	n/a
379.243	0.09	758486	keystroke_a	a	n/a
379.543	0.075	759086	keystroke_v	v	n/a
379.753	0.09	759506	keystroke_e	e	n/a
379.963	0.15	759926	keystroke_s	s	n/a
380.262	0.0905	760524	keystroke_t	t	n/a
381.073	0.09	762146	keystroke_i	i	n/a
381.4925	0.03	762985	keystroke_Key.space	Key.space	n/a
381.8225	0.0755	763645	keystroke_s	s	n/a
382.7075	0.12	765415	keystroke_c	c	n/a
382.9475	0.09	765895	keystroke_e	e	n/a
383.0675	0.09	766135	keystroke_n	n	n/a
383.218	0.1495	766436	keystroke_a	a	n/a
383.3685	0.1195	766737	keystroke_r	r	n/a
383.653	0.1645	767306	keystroke_i	i	n/a
383.7725	0.12	767545	keystroke_o	o	n/a
384.0425	0.09	768085	keystroke_Key.space	Key.space	n/a
384.537	0.075	769074	keystroke_g	g	n/a
384.688	0.09	769376	keystroke_e	e	n/a
384.7925	0.0755	769585	keystroke_n	n	n/a
385.1225	0.12	770245	keystroke_e	e	n/a
385.2575	0.09	770515	keystroke_r	r	n/a
385.4225	0.135	770845	keystroke_a	a	n/a
385.5425	0.075	771085	keystroke_t	t	n/a
385.6625	0.12	771325	keystroke_i	i	n/a
385.753	0.1795	771506	keystroke_o	o	n/a
385.8575	0.12	771715	keystroke_n	n	n/a
385.9925	0.075	771985	keystroke_s	s	n/a
386.128	0.1045	772256	keystroke_Key.space	Key.space	n/a
386.2475	0.12	772495	keystroke_e	e	n/a
386.5925	0.06	773185	keystroke_c	c	n/a
386.6825	0.09	773365	keystroke_o	o	n/a
386.9075	0.075	773815	keystroke_l	l	n/a
387.087	0.0905	774174	keystroke_o	o	n/a
387.192	0.106	774384	keystroke_g	g	n/a
387.357	0.105	774714	keystroke_i	i	n/a
387.6125	0.1195	775225	keystroke_c	c	n/a
388.047	0.1055	776094	keystroke_a	a	n/a
388.182	0.0905	776364	keystroke_l	l	n/a
388.587	0.1055	777174	keystroke_Key.enter	Key.enter	n/a
388.6985	6.9855	777397	prompt	n/a	singapore tyler wife based\n
389.3825	0.12	778765	keystroke_s	s	n/a
389.623	0.0895	779246	keystroke_i	i	n/a
389.818	0.135	779636	keystroke_n	n	n/a
389.9675	0.0605	779935	keystroke_g	g	n/a
390.298	0.075	780596	keystroke_a	a	n/a
390.9725	0.03	781945	keystroke_p	p	n/a
391.063	0.1345	782126	keystroke_o	o	n/a
391.1825	0.135	782365	keystroke_r	r	n/a
391.3325	0.12	782665	keystroke_e	e	n/a
391.5575	0.1355	783115	keystroke_Key.space	Key.space	n/a
391.753	0.0895	783506	keystroke_t	t	n/a
392.548	0.0595	785096	keystroke_y	y	n/a
392.922	0.106	785844	keystroke_l	l	n/a
393.058	0.135	786116	keystroke_e	e	n/a
393.178	0.105	786356	keystroke_r	r	n/a
393.508	0.09	787016	keystroke_Key.space	Key.space	n/a
393.987	0.091	787974	keystroke_w	w	n/a
394.138	0.12	788276	keystroke_i	i	n/a
394.273	0.135	788546	keystroke_f	f	n/a
394.483	0.0745	788966	keystroke_e	e	n/a
394.618	0.0895	789236	keystroke_Key.space	Key.space	n/a
394.8425	0.09	789685	keystroke_b	b	n/a
394.948	0.12	789896	keystroke_a	a	n/a
394.9775	0.135	789955	keystroke_s	s	n/a
395.2475	0.075	790495	keystroke_e	e	n/a
395.4275	0.15	790855	keystroke_d	d	n/a
395.593	0.0895	791186	keystroke_Key.enter	Key.enter	n/a
395.69	6.8645	791380	prompt	n/a	titten missile assumes examinations\n
396.478	0.06	792956	keystroke_t	t	n/a
396.898	0.09	793796	keystroke_i	i	n/a
397.033	0.075	794066	keystroke_t	t	n/a
397.212	0.046	794424	keystroke_t	t	n/a
397.378	0.09	794756	keystroke_e	e	n/a
397.498	0.09	794996	keystroke_n	n	n/a
397.708	0.0895	795416	keystroke_Key.space	Key.space	n/a
397.9325	0.1055	795865	keystroke_m	m	n/a
398.143	0.0895	796286	keystroke_i	i	n/a
398.2175	0.0755	796435	keystroke_s	s	n/a
398.3825	0.12	796765	keystroke_s	s	n/a
398.5325	0.1205	797065	keystroke_i	i	n/a
398.743	0.1045	797486	keystroke_l	l	n/a
398.8325	0.0905	797665	keystroke_e	e	n/a
398.968	0.105	797936	keystroke_Key.space	Key.space	n/a
399.118	0.06	798236	keystroke_a	a	n/a
399.298	0.045	798596	keystroke_s	s	n/a
399.4475	0.121	798895	keystroke_s	s	n/a
399.4775	0.105	798955	keystroke_u	u	n/a
399.703	0.0905	799406	keystroke_m	m	n/a
399.7775	0.0905	799555	keystroke_e	e	n/a
400.003	0.09	800006	keystroke_s	s	n/a
400.168	0.045	800336	keystroke_Key.space	Key.space	n/a
400.333	0.09	800666	keystroke_e	e	n/a
400.588	0.09	801176	keystroke_x	x	n/a
400.813	0.105	801626	keystroke_a	a	n/a
400.903	0.075	801806	keystroke_m	m	n/a
401.113	0.1495	802226	keystroke_i	i	n/a
401.2325	0.165	802465	keystroke_n	n	n/a
401.4275	0.1055	802855	keystroke_a	a	n/a
401.6225	0.105	803245	keystroke_t	t	n/a
401.713	0.15	803426	keystroke_i	i	n/a
401.8175	0.1645	803635	keystroke_o	o	n/a
401.907	0.1505	803814	keystroke_n	n	n/a
402.1025	0.15	804205	keystroke_s	s	n/a
402.4775	0.075	804955	keystroke_Key.enter	Key.enter	n/a
402.5575	11.1115	805115	prompt	n/a	indonesian besides amount licensing\n
403.213	0.105	806426	keystroke_i	i	n/a
403.498	0.015	806996	keystroke_n	n	n/a
403.528	0.105	807056	keystroke_d	d	n/a
403.678	0.075	807356	keystroke_o	o	n/a
404.233	0.075	808466	keystroke_n	n	n/a
404.908	0.06	809816	keystroke_e	e	n/a
405.088	0.12	810176	keystroke_s	s	n/a
405.583	0.09	811166	keystroke_i	i	n/a
405.688	0.074	811376	keystroke_a	a	n/a
405.883	0.0905	811766	keystroke_n	n	n/a
406.137	0.091	812274	keystroke_Key.space	Key.space	n/a
406.813	0.0905	813626	keystroke_e	e	n/a
407.4425	0.1205	814885	keystroke_Key.backspace	Key.backspace	n/a
408.148	0.09	816296	keystroke_b	b	n/a
408.2525	0.0905	816505	keystroke_e	e	n/a
408.4775	0.075	816955	keystroke_s	s	n/a
408.5825	0.135	817165	keystroke_i	i	n/a
408.688	0.0895	817376	keystroke_d	d	n/a
408.8975	0.0755	817795	keystroke_e	e	n/a
409.093	0.12	818186	keystroke_s	s	n/a
409.273	0.09	818546	keystroke_Key.space	Key.space	n/a
409.4825	0.1055	818965	keystroke_a	a	n/a
409.6475	0.09	819295	keystroke_m	m	n/a
409.7985	0.2245	819597	keystroke_o	o	n/a
409.9175	0.165	819835	keystroke_u	u	n/a
410.068	0.15	820136	keystroke_n	n	n/a
410.3075	0.0905	820615	keystroke_t	t	n/a
410.622	0.09	821244	keystroke_Key.space	Key.space	n/a
411.268	0.1045	822536	keystroke_l	l	n/a
411.4775	0.105	822955	keystroke_i	i	n/a
412.4825	0.105	824965	keystroke_c	c	n/a
412.7075	0.091	825415	keystroke_e	e	n/a
412.813	0.1045	825626	keystroke_n	n	n/a
412.963	0.1195	825926	keystroke_s	s	n/a
413.0525	0.18	826105	keystroke_i	i	n/a
413.188	0.1495	826376	keystroke_n	n	n/a
413.3375	0.1055	826675	keystroke_g	g	n/a
413.563	0.105	827126	keystroke_Key.enter	Key.enter	n/a
413.672	11.3825	827344	prompt	n/a	unwrap universe safety popular\n
414.943	0.09	829886	keystroke_u	u	n/a
415.138	0.1045	830276	keystroke_n	n	n/a
415.303	0.09	830606	keystroke_w	w	n/a
415.7525	0.076	831505	keystroke_r	r	n/a
416.0235	0.089	832047	keystroke_a	a	n/a
416.2035	0.0895	832407	keystroke_p	p	n/a
416.623	0.09	833246	keystroke_Key.space	Key.space	n/a
417.748	0.0755	835496	keystroke_u	u	n/a
417.8985	0.0895	835797	keystroke_n	n	n/a
418.078	0.0895	836156	keystroke_i	i	n/a
418.1825	0.1055	836365	keystroke_v	v	n/a
418.3775	0.1955	836755	keystroke_e	e	n/a
418.4975	0.105	836995	keystroke_r	r	n/a
418.7375	0.09	837475	keystroke_s	s	n/a
418.948	0.075	837896	keystroke_e	e	n/a
419.068	0.09	838136	keystroke_Key.space	Key.space	n/a
419.218	0.075	838436	keystroke_s	s	n/a
419.473	0.12	838946	keystroke_a	a	n/a
419.728	0.075	839456	keystroke_f	f	n/a
419.953	0.105	839906	keystroke_e	e	n/a
420.178	0.09	840356	keystroke_y	y	n/a
420.4775	0.0905	840955	keystroke_u	u	n/a
421.1825	0.255	842365	keystroke_Key.backspace	Key.backspace	n/a
421.4535	0.014	842907	keystroke_u	u	n/a
421.9625	0.09	843925	keystroke_Key.backspace	Key.backspace	n/a
422.128	0.105	844256	keystroke_Key.backspace	Key.backspace	n/a
422.9685	0.0445	845937	keystroke_t	t	n/a
423.148	0.03	846296	keystroke_y	y	n/a
423.283	0.105	846566	keystroke_Key.space	Key.space	n/a
423.808	0.105	847616	keystroke_p	p	n/a
423.958	0.18	847916	keystroke_o	o	n/a
424.093	0.09	848186	keystroke_p	p	n/a
424.318	0.09	848636	keystroke_u	u	n/a
424.5275	0.06	849055	keystroke_l	l	n/a
424.648	0.1045	849296	keystroke_a	a	n/a
424.768	0.0895	849536	keystroke_r	r	n/a
424.963	0.0895	849926	keystroke_Key.enter	Key.enter	n/a
425.0575	10.827	850115	prompt	n/a	introduce cdna benz charitable\n
425.8325	0.016	851665	keystroke_i	i	n/a
426.358	0.1355	852716	keystroke_n	n	n/a
426.5375	0.0745	853075	keystroke_t	t	n/a
426.718	0.06	853436	keystroke_r	r	n/a
426.823	0.105	853646	keystroke_o	o	n/a
426.988	0.09	853976	keystroke_d	d	n/a
427.138	0.105	854276	keystroke_u	u	n/a
427.2735	0.0895	854547	keystroke_c	c	n/a
427.513	0.12	855026	keystroke_e	e	n/a
427.677	0.091	855354	keystroke_Key.space	Key.space	n/a
428.2775	0.075	856555	keystroke_c	c	n/a
428.4875	0.1055	856975	keystroke_d	d	n/a
428.7575	0.075	857515	keystroke_h	h	n/a
428.9075	0.1055	857815	keystroke_a	a	n/a
429.478	0.06	858956	keystroke_Key.backspace	Key.backspace	n/a
429.613	0.0595	859226	keystroke_Key.backspace	Key.backspace	n/a
429.8525	0.0905	859705	keystroke_n	n	n/a
429.988	0.135	859976	keystroke_a	a	n/a
430.5575	0.075	861115	keystroke_Key.space	Key.space	n/a
431.773	0.06	863546	keystroke_b	b	n/a
431.893	0.1055	863786	keystroke_e	e	n/a
432.178	0.075	864356	keystroke_n	n	n/a
432.4175	0.1205	864835	keystroke_z	z	n/a
432.868	0.09	865736	keystroke_Key.space	Key.space	n/a
433.753	0.105	867506	keystroke_c	c	n/a
433.888	0.09	867776	keystroke_h	h	n/a
434.023	0.135	868046	keystroke_a	a	n/a
434.368	0.075	868736	keystroke_r	r	n/a
434.563	0.09	869126	keystroke_i	i	n/a
434.698	0.06	869396	keystroke_t	t	n/a
434.863	0.15	869726	keystroke_a	a	n/a
434.968	0.075	869936	keystroke_b	b	n/a
435.163	0.09	870326	keystroke_l	l	n/a
435.298	0.15	870596	keystroke_e	e	n/a
435.778	0.1045	871556	keystroke_Key.enter	Key.enter	n/a
435.8885	9.9265	871777	prompt	n/a	review bathroom paragraphs billy\n
436.6035	0.089	873207	keystroke_r	r	n/a
436.7075	0.0595	873415	keystroke_e	e	n/a
436.903	0.12	873806	keystroke_v	v	n/a
437.068	0.075	874136	keystroke_i	i	n/a
437.1585	0.0745	874317	keystroke_e	e	n/a
437.338	0.075	874676	keystroke_w	w	n/a
437.503	0.075	875006	keystroke_Key.space	Key.space	n/a
437.698	0.075	875396	keystroke_b	b	n/a
437.728	0.105	875456	keystroke_a	a	n/a
437.923	0.105	875846	keystroke_t	t	n/a
438.028	0.09	876056	keystroke_h	h	n/a
438.163	0.105	876326	keystroke_r	r	n/a
438.298	0.0455	876596	keystroke_o	o	n/a
438.433	0.12	876866	keystroke_o	o	n/a
438.538	0.105	877076	keystroke_m	m	n/a
438.778	0.09	877556	keystroke_Key.space	Key.space	n/a
439.033	0.105	878066	keystroke_p	p	n/a
439.168	0.09	878336	keystroke_a	a	n/a
439.303	0.075	878606	keystroke_r	r	n/a
439.423	0.105	878846	keystroke_a	a	n/a
439.843	0.0755	879686	keystroke_g	g	n/a
440.0525	0.076	880105	keystroke_r	r	n/a
440.2035	0.1195	880407	keystroke_a	a	n/a
440.713	0.06	881426	keystroke_p	p	n/a
440.757	0.106	881514	keystroke_h	h	n/a
440.953	0.12	881906	keystroke_s	s	n/a
444.66	0.0275	889320	keystroke_Key.space	Key.space	n/a
444.823	0.09	889646	keystroke_b	b	n/a
445.0335	0.0895	890067	keystroke_i	i	n/a
445.183	0.105	890366	keystroke_l	l	n/a
445.333	0.12	890666	keystroke_l	l	n/a
445.468	0.0755	890936	keystroke_y	y	n/a
445.6935	0.1195	891387	keystroke_Key.enter	Key.enter	n/a
445.8195	7.3155	891639	prompt	n/a	spread carl designed radiation\n
446.669	0.104	893338	keystroke_s	s	n/a
446.818	0.105	893636	keystroke_p	p	n/a
446.938	0.1195	893876	keystroke_r	r	n/a
447.043	0.1195	894086	keystroke_e	e	n/a
447.1925	0.1055	894385	keystroke_e	e	n/a
447.523	0.1205	895046	keystroke_a	a	n/a
447.898	0.0755	895796	keystroke_Key.backspace	Key.backspace	n/a
448.048	0.12	896096	keystroke_Key.backspace	Key.backspace	n/a
448.1075	0.076	896215	keystroke_a	a	n/a
448.2575	0.151	896515	keystroke_d	d	n/a
448.6775	0.09	897355	keystroke_Key.space	Key.space	n/a
449.0075	0.091	898015	keystroke_c	c	n/a
449.2035	0.15	898407	keystroke_a	a	n/a
449.3235	0.134	898647	keystroke_r	r	n/a
449.4735	0.0895	898947	keystroke_l	l	n/a
449.7275	0.075	899455	keystroke_Key.space	Key.space	n/a
449.8485	0.089	899697	keystroke_d	d	n/a
450.073	0.0605	900146	keystroke_e	e	n/a
450.2675	0.091	900535	keystroke_s	s	n/a
450.3735	0.09	900747	keystroke_i	i	n/a
450.5685	0.0745	901137	keystroke_g	g	n/a
450.673	0.105	901346	keystroke_n	n	n/a
450.793	0.105	901586	keystroke_e	e	n/a
451.018	0.12	902036	keystroke_d	d	n/a
451.153	0.09	902306	keystroke_Key.space	Key.space	n/a
451.4085	0.0895	902817	keystroke_r	r	n/a
451.573	0.105	903146	keystroke_a	a	n/a
451.9935	0.09	903987	keystroke_d	d	n/a
452.143	0.1045	904286	keystroke_i	i	n/a
452.2635	0.1345	904527	keystroke_a	a	n/a
452.4135	0.12	904827	keystroke_t	t	n/a
452.518	0.165	905036	keystroke_i	i	n/a
452.638	0.165	905276	keystroke_o	o	n/a
452.728	0.15	905456	keystroke_n	n	n/a
453.043	0.0895	906086	keystroke_Key.enter	Key.enter	n/a
453.139	5.4405	906278	prompt	n/a	unto cloud parliament pubs\n
453.943	0.0895	907886	keystroke_u	u	n/a
454.093	0.09	908186	keystroke_n	n	n/a
454.213	0.0895	908426	keystroke_t	t	n/a
454.348	0.075	908696	keystroke_o	o	n/a
454.5425	0.0905	909085	keystroke_Key.space	Key.space	n/a
454.723	0.0595	909446	keystroke_c	c	n/a
454.798	0.0745	909596	keystroke_l	l	n/a
454.993	0.1655	909986	keystroke_o	o	n/a
455.083	0.1355	910166	keystroke_u	u	n/a
455.2325	0.151	910465	keystroke_d	d	n/a
455.4575	0.0605	910915	keystroke_Key.space	Key.space	n/a
455.6685	0.0745	911337	keystroke_p	p	n/a
455.773	0.12	911546	keystroke_a	a	n/a
455.908	0.12	911816	keystroke_r	r	n/a
456.313	0.06	912626	keystroke_l	l	n/a
456.463	0.09	912926	keystroke_i	i	n/a
456.568	0.15	913136	keystroke_a	a	n/a
456.793	0.0605	913586	keystroke_m	m	n/a
456.898	0.09	913796	keystroke_e	e	n/a
457.048	0.09	914096	keystroke_n	n	n/a
457.138	0.12	914276	keystroke_t	t	n/a
457.333	0.09	914666	keystroke_Key.space	Key.space	n/a
457.573	0.09	915146	keystroke_p	p	n/a
457.768	0.105	915536	keystroke_u	u	n/a
457.993	0.075	915986	keystroke_b	b	n/a
458.263	0.09	916526	keystroke_s	s	n/a
458.488	0.09	916976	keystroke_Key.enter	Key.enter	n/a
458.584	5.7115	917168	prompt	n/a	distances inns supports trap\n
459.313	0.09	918626	keystroke_d	d	n/a
459.4185	0.1045	918837	keystroke_i	i	n/a
459.538	0.1205	919076	keystroke_s	s	n/a
459.733	0.09	919466	keystroke_t	t	n/a
459.853	0.135	919706	keystroke_a	a	n/a
459.958	0.105	919916	keystroke_n	n	n/a
460.123	0.105	920246	keystroke_c	c	n/a
460.303	0.0905	920606	keystroke_e	e	n/a
460.5585	0.1045	921117	keystroke_s	s	n/a
460.678	0.105	921356	keystroke_Key.space	Key.space	n/a
460.9035	0.0745	921807	keystroke_i	i	n/a
461.3825	0.076	922765	keystroke_n	n	n/a
461.5335	0.0895	923067	keystroke_n	n	n/a
461.653	0.1045	923306	keystroke_s	s	n/a
461.8175	0.1205	923635	keystroke_Key.space	Key.space	n/a
462.1925	0.1055	924385	keystroke_s	s	n/a
462.2385	0.105	924477	keystroke_u	u	n/a
462.448	0.075	924896	keystroke_p	p	n/a
462.613	0.135	925226	keystroke_p	p	n/a
462.718	0.1205	925436	keystroke_o	o	n/a
462.763	0.105	925526	keystroke_r	r	n/a
462.9585	0.0595	925917	keystroke_t	t	n/a
463.138	0.105	926276	keystroke_s	s	n/a
463.273	0.105	926546	keystroke_Key.space	Key.space	n/a
463.438	0.105	926876	keystroke_t	t	n/a
463.648	0.09	927296	keystroke_r	r	n/a
463.798	0.15	927596	keystroke_a	a	n/a
463.873	0.12	927746	keystroke_p	p	n/a
464.2025	0.09	928405	keystroke_Key.enter	Key.enter	n/a
464.2985	5.6965	928597	prompt	n/a	sought week detection lithuania\n
464.998	0.12	929996	keystroke_s	s	n/a
465.1335	0.1645	930267	keystroke_o	o	n/a
465.238	0.12	930476	keystroke_u	u	n/a
465.373	0.105	930746	keystroke_g	g	n/a
465.493	0.09	930986	keystroke_h	h	n/a
465.598	0.075	931196	keystroke_t	t	n/a
465.763	0.12	931526	keystroke_Key.space	Key.space	n/a
465.913	0.09	931826	keystroke_w	w	n/a
466.108	0.0595	932216	keystroke_e	e	n/a
466.2425	0.1205	932485	keystroke_e	e	n/a
466.333	0.09	932666	keystroke_k	k	n/a
466.528	0.12	933056	keystroke_Key.space	Key.space	n/a
466.723	0.09	933446	keystroke_d	d	n/a
466.933	0.09	933866	keystroke_e	e	n/a
467.098	0.09	934196	keystroke_t	t	n/a
467.218	0.0905	934436	keystroke_e	e	n/a
467.4735	0.119	934947	keystroke_c	c	n/a
467.7575	0.09	935515	keystroke_t	t	n/a
467.8785	0.195	935757	keystroke_i	i	n/a
467.9825	0.1805	935965	keystroke_o	o	n/a
468.0885	0.1195	936177	keystroke_n	n	n/a
468.298	0.09	936596	keystroke_Key.space	Key.space	n/a
468.523	0.09	937046	keystroke_l	l	n/a
468.7035	0.09	937407	keystroke_i	i	n/a
468.838	0.09	937676	keystroke_t	t	n/a
468.973	0.105	937946	keystroke_h	h	n/a
469.1385	0.0895	938277	keystroke_u	u	n/a
469.2425	0.1355	938485	keystroke_a	a	n/a
469.393	0.09	938786	keystroke_n	n	n/a
469.542	0.106	939084	keystroke_i	i	n/a
469.6935	0.12	939387	keystroke_a	a	n/a
469.918	0.075	939836	keystroke_Key.enter	Key.enter	n/a
469.998	9.552	939996	prompt	n/a	auditor word if spice\n
470.668	0.105	941336	keystroke_a	a	n/a
475.4395	0.0435	950879	keystroke_u	u	n/a
475.498	0.0305	950996	keystroke_d	d	n/a
475.5885	0.104	951177	keystroke_i	i	n/a
475.7525	0.0905	951505	keystroke_t	t	n/a
475.8575	0.075	951715	keystroke_o	o	n/a
475.963	0.1045	951926	keystroke_r	r	n/a
476.1725	0.1205	952345	keystroke_Key.space	Key.space	n/a
476.518	0.12	953036	keystroke_w	w	n/a
476.6535	0.1045	953307	keystroke_o	o	n/a
477.193	0.0755	954386	keystroke_r	r	n/a
477.448	0.09	954896	keystroke_d	d	n/a
477.6275	0.0895	955255	keystroke_Key.space	Key.space	n/a
478.198	0.075	956396	keystroke_i	i	n/a
478.318	0.105	956636	keystroke_f	f	n/a
478.453	0.0895	956906	keystroke_Key.space	Key.space	n/a
478.5885	0.15	957177	keystroke_s	s	n/a
478.7075	0.075	957415	keystroke_p	p	n/a
478.888	0.0895	957776	keystroke_i	i	n/a
479.1425	0.09	958285	keystroke_c	c	n/a
479.3375	0.1205	958675	keystroke_e	e	n/a
479.4725	0.075	958945	keystroke_Key.enter	Key.enter	n/a
479.556	5.289	959112	prompt	n/a	gardens found rider poison\n
480.598	0.09	961196	keystroke_g	g	n/a
480.673	0.165	961346	keystroke_a	a	n/a
480.7935	0.09	961587	keystroke_r	r	n/a
481.003	0.0905	962006	keystroke_d	d	n/a
481.198	0.075	962396	keystroke_e	e	n/a
481.318	0.0755	962636	keystroke_n	n	n/a
481.498	0.075	962996	keystroke_s	s	n/a
481.603	0.105	963206	keystroke_Key.space	Key.space	n/a
481.8285	0.09	963657	keystroke_f	f	n/a
481.9035	0.18	963807	keystroke_o	o	n/a
482.0085	0.135	964017	keystroke_u	u	n/a
482.0685	0.12	964137	keystroke_n	n	n/a
482.1885	0.1045	964377	keystroke_d	d	n/a
482.293	0.105	964586	keystroke_Key.space	Key.space	n/a
482.773	0.075	965546	keystroke_r	r	n/a
482.893	0.1045	965786	keystroke_i	i	n/a
483.013	0.09	966026	keystroke_d	d	n/a
483.223	0.09	966446	keystroke_e	e	n/a
483.298	0.09	966596	keystroke_r	r	n/a
483.433	0.09	966866	keystroke_Key.space	Key.space	n/a
483.7185	0.0445	967437	keystroke_p	p	n/a
483.883	0.09	967766	keystroke_o	o	n/a
484.0635	0.1045	968127	keystroke_i	i	n/a
484.228	0.09	968456	keystroke_s	s	n/a
484.363	0.06	968726	keystroke_o	o	n/a
484.5125	0.091	969025	keystroke_n	n	n/a
484.7525	0.09	969505	keystroke_Key.enter	Key.enter	n/a
484.8495	8.576	969699	prompt	n/a	matched martha producer occupational\n
485.4875	0.1205	970975	keystroke_m	m	n/a
485.5935	0.134	971187	keystroke_a	a	n/a
485.713	0.0895	971426	keystroke_t	t	n/a
485.9685	0.0745	971937	keystroke_c	c	n/a
486.0725	0.0905	972145	keystroke_h	h	n/a
486.193	0.0745	972386	keystroke_e	e	n/a
486.358	0.1045	972716	keystroke_d	d	n/a
486.4475	0.075	972895	keystroke_Key.space	Key.space	n/a
486.6275	0.1055	973255	keystroke_m	m	n/a
486.7185	0.1195	973437	keystroke_a	a	n/a
486.868	0.0595	973736	keystroke_r	r	n/a
487.7535	0.075	975507	keystroke_t	t	n/a
487.9035	0.075	975807	keystroke_h	h	n/a
488.0535	0.105	976107	keystroke_a	a	n/a
488.1725	0.09	976345	keystroke_Key.space	Key.space	n/a
488.5025	0.121	977005	keystroke_p	p	n/a
488.6525	0.076	977305	keystroke_r	r	n/a
488.8935	0.0895	977787	keystroke_o	o	n/a
489.238	0.09	978476	keystroke_d	d	n/a
489.403	0.0905	978806	keystroke_u	u	n/a
489.523	0.09	979046	keystroke_c	c	n/a
489.7185	0.135	979437	keystroke_e	e	n/a
489.823	0.09	979646	keystroke_r	r	n/a
489.928	0.09	979856	keystroke_Key.space	Key.space	n/a
490.9625	0.09	981925	keystroke_o	o	n/a
491.143	0.0295	982286	keystroke_c	c	n/a
491.2775	0.075	982555	keystroke_c	c	n/a
491.3225	0.105	982645	keystroke_u	u	n/a
491.5185	0.12	983037	keystroke_p	p	n/a
491.5935	0.104	983187	keystroke_a	a	n/a
491.7435	0.1195	983487	keystroke_t	t	n/a
491.8025	0.1655	983605	keystroke_i	i	n/a
491.908	0.1655	983816	keystroke_o	o	n/a
492.0125	0.136	984025	keystroke_n	n	n/a
492.1775	0.121	984355	keystroke_a	a	n/a
493.123	0.09	986246	keystroke_l	l	n/a
493.3185	0.1045	986637	keystroke_Key.enter	Key.enter	n/a
493.4285	7.6615	986857	prompt	n/a	interval phrase desperate systems\n
494.2935	0.075	988587	keystroke_i	i	n/a
494.4725	0.121	988945	keystroke_n	n	n/a
494.5335	0.105	989067	keystroke_t	t	n/a
494.7135	0.12	989427	keystroke_e	e	n/a
494.8035	0.09	989607	keystroke_r	r	n/a
495.628	0.135	991256	keystroke_v	v	n/a
495.778	0.06	991556	keystroke_a	a	n/a
495.7935	0.0595	991587	keystroke_l	l	n/a
495.868	0.09	991736	keystroke_Key.space	Key.space	n/a
496.198	0.075	992396	keystroke_p	p	n/a
496.378	0.12	992756	keystroke_h	h	n/a
496.483	0.075	992966	keystroke_r	r	n/a
496.648	0.075	993296	keystroke_a	a	n/a
496.843	0.105	993686	keystroke_s	s	n/a
497.068	0.09	994136	keystroke_e	e	n/a
497.233	0.09	994466	keystroke_Key.space	Key.space	n/a
497.5325	0.031	995065	keystroke_d	d	n/a
497.8035	0.089	995607	keystroke_e	e	n/a
498.058	0.0605	996116	keystroke_s	s	n/a
498.538	0.1055	997076	keystroke_p	p	n/a
498.6285	0.1195	997257	keystroke_e	e	n/a
498.733	0.09	997466	keystroke_r	r	n/a
498.898	0.12	997796	keystroke_a	a	n/a
499.019	0.089	998038	keystroke_t	t	n/a
499.093	0.105	998186	keystroke_e	e	n/a
499.333	0.105	998666	keystroke_Key.space	Key.space	n/a
499.528	0.09	999056	keystroke_s	s	n/a
499.663	0.06	999326	keystroke_y	y	n/a
499.738	0.105	999476	keystroke_s	s	n/a
499.948	0.09	999896	keystroke_t	t	n/a
500.563	0.0605	1001126	keystroke_e	e	n/a
500.7125	0.091	1001425	keystroke_m	m	n/a
500.8485	0.135	1001697	keystroke_s	s	n/a
500.9975	0.09	1001995	keystroke_Key.enter	Key.enter	n/a
501.093	14.742	1002186	prompt	n/a	margaret cube instructor elsewhere\n
501.838	0.09	1003676	keystroke_m	m	n/a
501.898	0.135	1003796	keystroke_a	a	n/a
502.018	0.105	1004036	keystroke_r	r	n/a
502.243	0.0595	1004486	keystroke_g	g	n/a
502.4085	0.1345	1004817	keystroke_a	a	n/a
502.498	0.105	1004996	keystroke_r	r	n/a
502.648	0.045	1005296	keystroke_e	e	n/a
502.843	0.075	1005686	keystroke_e	e	n/a
503.323	0.09	1006646	keystroke_Key.backspace	Key.backspace	n/a
503.443	0.09	1006886	keystroke_t	t	n/a
503.683	0.09	1007366	keystroke_Key.space	Key.space	n/a
504.328	0.1195	1008656	keystroke_c	c	n/a
504.463	0.09	1008926	keystroke_u	u	n/a
504.6725	0.0155	1009345	keystroke_v	v	n/a
504.7775	0.151	1009555	keystroke_e	e	n/a
505.363	0.045	1010726	keystroke_Key.backspace	Key.backspace	n/a
505.4825	0.091	1010965	keystroke_Key.backspace	Key.backspace	n/a
506.3825	0.0755	1012765	keystroke_b	b	n/a
506.5025	0.09	1013005	keystroke_e	e	n/a
506.6375	0.1055	1013275	keystroke_Key.space	Key.space	n/a
508.6185	0.06	1017237	keystroke_i	i	n/a
508.7985	0.075	1017597	keystroke_n	n	n/a
508.8885	0.09	1017777	keystroke_s	s	n/a
509.0685	0.075	1018137	keystroke_t	t	n/a
509.2335	0.059	1018467	keystroke_r	r	n/a
512.52	0.028	1025040	keystroke_u	u	n/a
512.6535	0.0445	1025307	keystroke_c	c	n/a
512.833	0.1055	1025666	keystroke_t	t	n/a
512.953	0.0755	1025906	keystroke_o	o	n/a
513.0875	0.075	1026175	keystroke_r	r	n/a
513.553	0.0745	1027106	keystroke_Key.space	Key.space	n/a
513.8075	0.091	1027615	keystroke_e	e	n/a
513.9725	0.1055	1027945	keystroke_l	l	n/a
514.093	0.0745	1028186	keystroke_s	s	n/a
514.303	0.1055	1028606	keystroke_e	e	n/a
515.084	0.1195	1030168	keystroke_w	w	n/a
515.2625	0.06	1030525	keystroke_h	h	n/a
515.3385	0.15	1030677	keystroke_e	e	n/a
515.4575	0.165	1030915	keystroke_r	r	n/a
515.5925	0.1055	1031185	keystroke_e	e	n/a
515.743	0.09	1031486	keystroke_Key.enter	Key.enter	n/a
515.839	8.651	1031678	prompt	n/a	instructors assumptions nancy declare\n
516.703	0.09	1033406	keystroke_i	i	n/a
516.913	0.09	1033826	keystroke_n	n	n/a
516.973	0.075	1033946	keystroke_s	s	n/a
517.183	0.09	1034366	keystroke_t	t	n/a
517.348	0.0905	1034696	keystroke_r	r	n/a
518.8775	0.091	1037755	keystroke_u	u	n/a
518.9975	0.105	1037995	keystroke_c	c	n/a
519.2535	0.09	1038507	keystroke_t	t	n/a
519.3735	0.0895	1038747	keystroke_o	o	n/a
519.4785	0.075	1038957	keystroke_r	r	n/a
519.703	0.09	1039406	keystroke_s	s	n/a
519.8085	0.0895	1039617	keystroke_Key.space	Key.space	n/a
520.198	0.09	1040396	keystroke_a	a	n/a
520.333	0.0755	1040666	keystroke_s	s	n/a
520.468	0.1205	1040936	keystroke_s	s	n/a
520.5435	0.0745	1041087	keystroke_u	u	n/a
520.7685	0.03	1041537	keystroke_m	m	n/a
520.8735	0.089	1041747	keystroke_p	p	n/a
521.0235	0.089	1042047	keystroke_t	t	n/a
521.1575	0.1805	1042315	keystroke_i	i	n/a
521.278	0.18	1042556	keystroke_o	o	n/a
521.368	0.15	1042736	keystroke_n	n	n/a
521.503	0.105	1043006	keystroke_s	s	n/a
521.6535	0.0745	1043307	keystroke_Key.space	Key.space	n/a
521.833	0.0755	1043666	keystroke_n	n	n/a
521.9225	0.106	1043845	keystroke_a	a	n/a
522.043	0.105	1044086	keystroke_n	n	n/a
522.163	0.135	1044326	keystroke_c	c	n/a
522.299	0.1045	1044598	keystroke_y	y	n/a
522.793	0.0895	1045586	keystroke_Key.space	Key.space	n/a
523.1985	0.075	1046397	keystroke_d	d	n/a
523.393	0.105	1046786	keystroke_e	e	n/a
523.6335	0.12	1047267	keystroke_c	c	n/a
523.768	0.09	1047536	keystroke_l	l	n/a
523.8885	0.135	1047777	keystroke_a	a	n/a
523.993	0.1355	1047986	keystroke_r	r	n/a
524.173	0.12	1048346	keystroke_e	e	n/a
524.398	0.09	1048796	keystroke_Key.enter	Key.enter	n/a
524.493	8.232	1048986	prompt	n/a	term strengthen jets olive\n
525.1785	0.0895	1050357	keystroke_t	t	n/a
525.3435	0.135	1050687	keystroke_e	e	n/a
525.4485	0.105	1050897	keystroke_r	r	n/a
525.6135	0.074	1051227	keystroke_m	m	n/a
526.1385	0.09	1052277	keystroke_Key.space	Key.space	n/a
526.423	0.09	1052846	keystroke_s	s	n/a
526.633	0.06	1053266	keystroke_t	t	n/a
526.813	0.105	1053626	keystroke_r	r	n/a
527.263	0.075	1054526	keystroke_e	e	n/a
527.473	0.0905	1054946	keystroke_n	n	n/a
528.1185	0.12	1056237	keystroke_g	g	n/a
528.4185	0.0895	1056837	keystroke_t	t	n/a
528.553	0.0745	1057106	keystroke_h	h	n/a
528.7035	0.104	1057407	keystroke_e	e	n/a
529.018	0.1045	1058036	keystroke_n	n	n/a
529.2275	0.1055	1058455	keystroke_Key.space	Key.space	n/a
530.368	0.1055	1060736	keystroke_j	j	n/a
530.459	0.0295	1060918	keystroke_e	e	n/a
530.5485	0.089	1061097	keystroke_t	t	n/a
530.7875	0.091	1061575	keystroke_s	s	n/a
530.9225	0.105	1061845	keystroke_Key.space	Key.space	n/a
531.568	0.0605	1063136	keystroke_o	o	n/a
531.718	0.0905	1063436	keystroke_l	l	n/a
531.9285	0.09	1063857	keystroke_i	i	n/a
532.063	0.0605	1064126	keystroke_v	v	n/a
532.2585	0.1345	1064517	keystroke_e	e	n/a
532.633	0.09	1065266	keystroke_Key.enter	Key.enter	n/a
532.7285	6.8215	1065457	prompt	n/a	maryland cultural soil banners\n
533.503	0.0755	1067006	keystroke_m	m	n/a
533.6235	0.21	1067247	keystroke_a	a	n/a
533.7735	0.12	1067547	keystroke_r	r	n/a
534.0425	0.0755	1068085	keystroke_y	y	n/a
534.2085	0.074	1068417	keystroke_l	l	n/a
534.3585	0.075	1068717	keystroke_a	a	n/a
534.4635	0.075	1068927	keystroke_n	n	n/a
534.5685	0.105	1069137	keystroke_d	d	n/a
534.7185	0.105	1069437	keystroke_Key.space	Key.space	n/a
535.0935	0.1045	1070187	keystroke_c	c	n/a
535.2135	0.0595	1070427	keystroke_u	u	n/a
535.393	0.075	1070786	keystroke_l	l	n/a
535.573	0.075	1071146	keystroke_t	t	n/a
535.723	0.105	1071446	keystroke_u	u	n/a
535.873	0.1055	1071746	keystroke_r	r	n/a
536.098	0.0905	1072196	keystroke_a	a	n/a
536.173	0.09	1072346	keystroke_l	l	n/a
536.368	0.075	1072736	keystroke_Key.space	Key.space	n/a
536.4885	0.0895	1072977	keystroke_s	s	n/a
536.6085	0.075	1073217	keystroke_o	o	n/a
536.818	0.075	1073636	keystroke_i	i	n/a
536.998	0.075	1073996	keystroke_l	l	n/a
537.178	0.105	1074356	keystroke_Key.space	Key.space	n/a
537.403	0.06	1074806	keystroke_b	b	n/a
537.5385	0.0895	1075077	keystroke_a	a	n/a
538.438	0.0605	1076876	keystroke_n	n	n/a
538.5735	0.105	1077147	keystroke_n	n	n/a
538.6185	0.15	1077237	keystroke_e	e	n/a
538.7385	0.1045	1077477	keystroke_r	r	n/a
538.993	0.09	1077986	keystroke_s	s	n/a
539.443	0.105	1078886	keystroke_Key.enter	Key.enter	n/a
539.5535	10.077	1079107	prompt	n/a	vegas unfortunately cambodia adaptive\n
540.8685	0.059	1081737	keystroke_v	v	n/a
541.1985	0.074	1082397	keystroke_e	e	n/a
541.3625	0.076	1082725	keystroke_g	g	n/a
541.5885	0.1495	1083177	keystroke_a	a	n/a
541.708	0.105	1083416	keystroke_s	s	n/a
541.903	0.09	1083806	keystroke_Key.space	Key.space	n/a
542.4435	0.06	1084887	keystroke_u	u	n/a
542.6235	0.09	1085247	keystroke_n	n	n/a
542.9235	0.059	1085847	keystroke_f	f	n/a
543.0585	0.075	1086117	keystroke_o	o	n/a
543.1935	0.075	1086387	keystroke_r	r	n/a
543.3735	0.075	1086747	keystroke_t	t	n/a
543.5235	0.09	1087047	keystroke_u	u	n/a
543.6725	0.091	1087345	keystroke_n	n	n/a
543.8235	0.135	1087647	keystroke_a	a	n/a
544.0635	0.045	1088127	keystroke_t	t	n/a
544.1835	0.075	1088367	keystroke_e	e	n/a
544.2735	0.0895	1088547	keystroke_l	l	n/a
544.7385	0.089	1089477	keystroke_y	y	n/a
544.9775	0.09	1089955	keystroke_Key.space	Key.space	n/a
545.758	0.0755	1091516	keystroke_c	c	n/a
545.9385	0.12	1091877	keystroke_a	a	n/a
546.0735	0.06	1092147	keystroke_m	m	n/a
546.3435	0.0595	1092687	keystroke_b	b	n/a
546.538	0.06	1093076	keystroke_o	o	n/a
546.6885	0.1045	1093377	keystroke_d	d	n/a
546.8085	0.0745	1093617	keystroke_i	i	n/a
546.943	0.09	1093886	keystroke_a	a	n/a
547.348	0.105	1094696	keystroke_Key.space	Key.space	n/a
547.573	0.09	1095146	keystroke_a	a	n/a
547.739	0.089	1095478	keystroke_d	d	n/a
547.918	0.105	1095836	keystroke_a	a	n/a
548.0085	0.1045	1096017	keystroke_p	p	n/a
548.1885	0.0895	1096377	keystroke_t	t	n/a
548.293	0.09	1096586	keystroke_i	i	n/a
548.443	0.12	1096886	keystroke_v	v	n/a
548.683	0.135	1097366	keystroke_e	e	n/a
549.5385	0.09	1099077	keystroke_Key.enter	Key.enter	n/a
549.634	18.011	1099268	prompt	n/a	chevrolet securities illustrated encoding\n
550.5285	0.06	1101057	keystroke_c	c	n/a
550.6635	0.075	1101327	keystroke_h	h	n/a
550.7985	0.104	1101597	keystroke_e	e	n/a
551.0685	0.0745	1102137	keystroke_v	v	n/a
551.233	0.0905	1102466	keystroke_o	o	n/a
551.368	0.1055	1102736	keystroke_r	r	n/a
551.5335	0.1045	1103067	keystroke_e	e	n/a
552.718	0.09	1105436	keystroke_Key.backspace	Key.backspace	n/a
553.8585	0.0895	1107717	keystroke_l	l	n/a
553.8885	0.0895	1107777	keystroke_e	e	n/a
554.068	0.105	1108136	keystroke_t	t	n/a
554.443	0.105	1108886	keystroke_Key.space	Key.space	n/a
554.758	0.1205	1109516	keystroke_s	s	n/a
555.0135	0.075	1110027	keystroke_e	e	n/a
555.223	0.15	1110446	keystroke_c	c	n/a
556.8885	0.104	1113777	keystroke_Key.backspace	Key.backspace	n/a
557.098	0.0745	1114196	keystroke_Key.backspace	Key.backspace	n/a
557.2775	0.076	1114555	keystroke_Key.backspace	Key.backspace	n/a
557.443	0.075	1114886	keystroke_Key.backspace	Key.backspace	n/a
557.6085	0.075	1115217	keystroke_Key.backspace	Key.backspace	n/a
557.773	0.075	1115546	keystroke_Key.backspace	Key.backspace	n/a
557.9385	0.075	1115877	keystroke_Key.backspace	Key.backspace	n/a
558.0885	0.104	1116177	keystroke_Key.backspace	Key.backspace	n/a
558.5385	0.075	1117077	keystroke_Key.backspace	Key.backspace	n/a
559.168	0.075	1118336	keystroke_r	r	n/a
559.318	0.0605	1118636	keystroke_o	o	n/a
559.5285	0.12	1119057	keystroke_l	l	n/a
559.633	0.0905	1119266	keystroke_e	e	n/a
559.798	0.0905	1119596	keystroke_t	t	n/a
560.053	0.09	1120106	keystroke_Key.space	Key.space	n/a
560.6985	0.045	1121397	keystroke_s	s	n/a
560.7585	0.03	1121517	keystroke_e	e	n/a
560.9385	0.135	1121877	keystroke_c	c	n/a
561.1935	0.075	1122387	keystroke_u	u	n/a
561.5685	0.09	1123137	keystroke_r	r	n/a
561.9585	0.09	1123917	keystroke_i	i	n/a
562.0785	0.074	1124157	keystroke_t	t	n/a
562.2135	0.0895	1124427	keystroke_i	i	n/a
562.2875	0.106	1124575	keystroke_e	e	n/a
562.513	0.0755	1125026	keystroke_s	s	n/a
562.693	0.0905	1125386	keystroke_Key.space	Key.space	n/a
563.8485	0.075	1127697	keystroke_i	i	n/a
564.0285	0.074	1128057	keystroke_l	l	n/a
564.1785	0.104	1128357	keystroke_l	l	n/a
564.3285	0.1195	1128657	keystroke_u	u	n/a
564.463	0.075	1128926	keystroke_s	s	n/a
564.6435	0.075	1129287	keystroke_t	t	n/a
564.7935	0.119	1129587	keystroke_r	r	n/a
564.9725	0.136	1129945	keystroke_a	a	n/a
565.1525	0.091	1130305	keystroke_t	t	n/a
565.2735	0.105	1130547	keystroke_e	e	n/a
565.4835	0.12	1130967	keystroke_d	d	n/a
565.9475	0.076	1131895	keystroke_Key.space	Key.space	n/a
566.2035	0.119	1132407	keystroke_e	e	n/a
566.4875	0.075	1132975	keystroke_n	n	n/a
566.7885	0.0595	1133577	keystroke_c	c	n/a
566.8935	0.074	1133787	keystroke_o	o	n/a
567.0575	0.06	1134115	keystroke_d	d	n/a
567.1325	0.151	1134265	keystroke_i	i	n/a
567.2685	0.1045	1134537	keystroke_n	n	n/a
567.388	0.12	1134776	keystroke_g	g	n/a
567.553	0.09	1135106	keystroke_Key.enter	Key.enter	n/a
567.649	7.256	1135298	prompt	n/a	reductions zoom seller naturals\n
568.678	0.135	1137356	keystroke_r	r	n/a
568.7975	0.075	1137595	keystroke_e	e	n/a
568.9935	0.074	1137987	keystroke_d	d	n/a
569.1435	0.059	1138287	keystroke_u	u	n/a
569.219	0.104	1138438	keystroke_c	c	n/a
569.4575	0.1205	1138915	keystroke_t	t	n/a
569.548	0.18	1139096	keystroke_i	i	n/a
569.6525	0.181	1139305	keystroke_o	o	n/a
569.743	0.15	1139486	keystroke_n	n	n/a
570.4785	0.0895	1140957	keystroke_s	s	n/a
570.643	0.0895	1141286	keystroke_Key.space	Key.space	n/a
571.2435	0.12	1142487	keystroke_z	z	n/a
571.4085	0.089	1142817	keystroke_o	o	n/a
571.5875	0.12	1143175	keystroke_o	o	n/a
571.6935	0.075	1143387	keystroke_m	m	n/a
571.9025	0.12	1143805	keystroke_Key.space	Key.space	n/a
572.1885	0.09	1144377	keystroke_s	s	n/a
572.4435	0.1045	1144887	keystroke_e	e	n/a
572.5925	0.0605	1145185	keystroke_l	l	n/a
572.758	0.0745	1145516	keystroke_l	l	n/a
572.773	0.1345	1145546	keystroke_e	e	n/a
572.8935	0.089	1145787	keystroke_r	r	n/a
573.073	0.09	1146146	keystroke_Key.space	Key.space	n/a
573.553	0.09	1147106	keystroke_n	n	n/a
