onset	duration	sample	value	key	prompt_text
3.889	12.0265	7778	prompt	n/a	the quick brown fox jumps over a lazy dog\n
6.044	0.012	12088	keystroke_t	t	n/a
6.101	0.1055	12202	keystroke_h	h	n/a
6.192	0.0745	12384	keystroke_e	e	n/a
6.3715	0.0905	12743	keystroke_Key.space	Key.space	n/a
6.597	0.1345	13194	keystroke_q	q	n/a
6.7765	0.075	13553	keystroke_u	u	n/a
6.956	0.0745	13912	keystroke_i	i	n/a
7.091	0.1065	14182	keystroke_c	c	n/a
7.1675	0.0895	14335	keystroke_k	k	n/a
7.347	0.0895	14694	keystroke_Key.space	Key.space	n/a
7.542	0.0755	15084	keystroke_b	b	n/a
7.6765	0.075	15353	keystroke_r	r	n/a
7.797	0.1045	15594	keystroke_o	o	n/a
7.931	0.1355	15862	keystroke_w	w	n/a
8.081	0.091	16162	keystroke_n	n	n/a
8.307	0.09	16614	keystroke_Key.space	Key.space	n/a
10.1665	0.075	20333	keystroke_f	f	n/a
10.452	0.0755	20904	keystroke_o	o	n/a
10.767	0.12	21534	keystroke_x	x	n/a
10.902	0.105	21804	keystroke_Key.space	Key.space	n/a
11.1415	0.1055	22283	keystroke_j	j	n/a
11.3675	0.074	22735	keystroke_u	u	n/a
11.562	0.1045	23124	keystroke_m	m	n/a
11.7275	0.105	23455	keystroke_p	p	n/a
11.8775	0.089	23755	keystroke_s	s	n/a
12.087	0.105	24174	keystroke_Key.space	Key.space	n/a
12.357	0.0755	24714	keystroke_o	o	n/a
12.4925	0.119	24985	keystroke_v	v	n/a
12.717	0.106	25434	keystroke_e	e	n/a
12.7925	0.0905	25585	keystroke_r	r	n/a
12.927	0.0895	25854	keystroke_Key.space	Key.space	n/a
13.032	0.105	26064	keystroke_a	a	n/a
13.1525	0.09	26305	keystroke_Key.space	Key.space	n/a
13.3165	0.1055	26633	keystroke_l	l	n/a
13.468	0.0895	26936	keystroke_a	a	n/a
13.7525	0.1345	27505	keystroke_z	z	n/a
13.9025	0.075	27805	keystroke_y	y	n/a
14.142	0.0905	28284	keystroke_Key.space	Key.space	n/a
14.562	0.0905	29124	keystroke_d	d	n/a
14.7875	0.075	29575	keystroke_o	o	n/a
15.028	0.074	30056	keystroke_g	g	n/a
15.822	0.0905	31644	keystroke_Key.enter	Key.enter	n/a
15.92	10.464	31840	prompt	n/a	writing i'll fought volumes\n
17.502	0.0905	35004	keystroke_w	w	n/a
17.652	0.1055	35304	keystroke_r	r	n/a
17.787	0.0895	35574	keystroke_i	i	n/a
17.9065	0.0905	35813	keystroke_t	t	n/a
18.027	0.18	36054	keystroke_i	i	n/a
18.1615	0.1365	36323	keystroke_n	n	n/a
18.298	0.074	36596	keystroke_g	g	n/a
18.4165	0.106	36833	keystroke_Key.space	Key.space	n/a
18.6725	0.104	37345	keystroke_i	i	n/a
18.7015	0.061	37403	keystroke_u	u	n/a
19.2725	0.0745	38545	keystroke_Key.backspace	Key.backspace	n/a
20.187	0.0905	40374	keystroke_'	'	n/a
20.412	0.0755	40824	keystroke_l	l	n/a
20.577	0.075	41154	keystroke_l	l	n/a
20.7425	0.089	41485	keystroke_Key.space	Key.space	n/a
21.117	0.045	42234	keystroke_f	f	n/a
21.3125	0.1645	42625	keystroke_o	o	n/a
21.4315	0.1055	42863	keystroke_u	u	n/a
21.552	0.0905	43104	keystroke_g	g	n/a
21.702	0.075	43404	keystroke_h	h	n/a
21.8215	0.076	43643	keystroke_t	t	n/a
22.0165	0.091	44033	keystroke_Key.space	Key.space	n/a
23.1715	0.0755	46343	keystroke_v	v	n/a
23.3825	0.104	46765	keystroke_o	o	n/a
23.607	0.075	47214	keystroke_l	l	n/a
24.417	0.0905	48834	keystroke_u	u	n/a
24.7165	0.06	49433	keystroke_m	m	n/a
24.9425	0.0895	49885	keystroke_n	n	n/a
25.8865	0.061	51773	keystroke_e	e	n/a
26.1425	0.089	52285	keystroke_s	s	n/a
26.292	0.0905	52584	keystroke_Key.enter	Key.enter	n/a
26.3875	9.4165	52775	prompt	n/a	guatemala theology reel refresh\n
27.312	0.0605	54624	keystroke_g	g	n/a
27.5975	0.0895	55195	keystroke_u	u	n/a
27.702	0.1655	55404	keystroke_a	a	n/a
27.9115	0.091	55823	keystroke_t	t	n/a
28.107	0.0605	56214	keystroke_e	e	n/a
28.2275	0.0895	56455	keystroke_l	l	n/a
29.2775	0.059	58555	keystroke_Key.backspace	Key.backspace	n/a
29.517	0.0905	59034	keystroke_m	m	n/a
29.667	0.12	59334	keystroke_a	a	n/a
29.802	0.105	59604	keystroke_l	l	n/a
30.087	0.1055	60174	keystroke_a	a	n/a
30.3125	0.0895	60625	keystroke_Key.space	Key.space	n/a
30.807	0.075	61614	keystroke_t	t	n/a
30.987	0.075	61974	keystroke_h	h	n/a
31.167	0.09	62334	keystroke_e	e	n/a
31.317	0.1945	62634	keystroke_o	o	n/a
31.932	0.09	63864	keystroke_l	l	n/a
32.142	0.0895	64284	keystroke_o	o	n/a
32.262	0.09	64524	keystroke_g	g	n/a
32.442	0.0895	64884	keystroke_y	y	n/a
32.682	0.105	65364	keystroke_Key.space	Key.space	n/a
32.802	0.075	65604	keystroke_r	r	n/a
32.952	0.0905	65904	keystroke_e	e	n/a
33.1915	0.0755	66383	keystroke_e	e	n/a
33.762	0.1045	67524	keystroke_l	l	n/a
33.942	0.105	67884	keystroke_Key.space	Key.space	n/a
34.3615	0.075	68723	keystroke_r	r	n/a
34.4815	0.105	68963	keystroke_e	e	n/a
34.7365	0.0905	69473	keystroke_f	f	n/a
34.9615	0.0905	69923	keystroke_r	r	n/a
35.0225	0.1045	70045	keystroke_e	e	n/a
35.277	0.1045	70554	keystroke_s	s	n/a
35.3665	0.09	70733	keystroke_h	h	n/a
35.7415	0.061	71483	keystroke_Key.enter	Key.enter	n/a
35.8075	6.1765	71615	prompt	n/a	african large filling recruitment\n
36.4325	0.105	72865	keystroke_a	a	n/a
36.6125	0.105	73225	keystroke_r	r	n/a
36.9875	0.06	73975	keystroke_Key.backspace	Key.backspace	n/a
37.0625	0.075	74125	keystroke_f	f	n/a
37.2725	0.06	74545	keystroke_r	r	n/a
37.3775	0.09	74755	keystroke_i	i	n/a
37.5575	0.09	75115	keystroke_c	c	n/a
37.7225	0.105	75445	keystroke_a	a	n/a
37.7975	0.09	75595	keystroke_n	n	n/a
37.9925	0.075	75985	keystroke_Key.space	Key.space	n/a
38.1725	0.09	76345	keystroke_l	l	n/a
38.2625	0.12	76525	keystroke_a	a	n/a
38.3675	0.075	76735	keystroke_r	r	n/a
38.5625	0.075	77125	keystroke_g	g	n/a
38.6975	0.075	77395	keystroke_e	e	n/a
38.8025	0.09	77605	keystroke_Key.space	Key.space	n/a
38.9525	0.105	77905	keystroke_f	f	n/a
39.0725	0.09	78145	keystroke_i	i	n/a
39.2525	0.09	78505	keystroke_l	l	n/a
39.4025	0.105	78805	keystroke_l	l	n/a
39.5525	0.12	79105	keystroke_i	i	n/a
39.6425	0.15	79285	keystroke_n	n	n/a
39.7775	0.09	79555	keystroke_g	g	n/a
39.9125	0.12	79825	keystroke_Key.space	Key.space	n/a
40.1215	0.09	80243	keystroke_r	r	n/a
40.242	0.09	80484	keystroke_e	e	n/a
40.422	0.105	80844	keystroke_c	c	n/a
40.6625	0.1045	81325	keystroke_r	r	n/a
40.797	0.06	81594	keystroke_u	u	n/a
40.947	0.075	81894	keystroke_i	i	n/a
41.0375	0.09	82075	keystroke_t	t	n/a
41.2025	0.1045	82405	keystroke_m	m	n/a
41.337	0.075	82674	keystroke_e	e	n/a
41.502	0.1055	83004	keystroke_n	n	n/a
41.637	0.105	83274	keystroke_t	t	n/a
41.892	0.09	83784	keystroke_Key.enter	Key.enter	n/a
41.987	6.057	83974	prompt	n/a	glass talks kelly restructuring\n
42.942	0.075	85884	keystroke_g	g	n/a
43.107	0.075	86214	keystroke_l	l	n/a
43.212	0.12	86424	keystroke_a	a	n/a
43.3475	0.06	86695	keystroke_s	s	n/a
43.4975	0.12	86995	keystroke_s	s	n/a
43.6325	0.075	87265	keystroke_Key.space	Key.space	n/a
43.7225	0.075	87445	keystroke_t	t	n/a
43.8425	0.12	87685	keystroke_a	a	n/a
43.9325	0.165	87865	keystroke_l	l	n/a
44.0375	0.135	88075	keystroke_k	k	n/a
44.1875	0.12	88375	keystroke_s	s	n/a
44.3815	0.091	88763	keystroke_Key.space	Key.space	n/a
44.862	0.09	89724	keystroke_k	k	n/a
44.967	0.09	89934	keystroke_e	e	n/a
45.1025	0.075	90205	keystroke_l	l	n/a
45.2375	0.09	90475	keystroke_l	l	n/a
45.3125	0.075	90625	keystroke_y	y	n/a
45.5075	0.09	91015	keystroke_Key.space	Key.space	n/a
46.1525	0.135	92305	keystroke_r	r	n/a
46.2575	0.075	92515	keystroke_e	e	n/a
46.4375	0.105	92875	keystroke_s	s	n/a
46.6465	0.06	93293	keystroke_t	t	n/a
46.8125	0.075	93625	keystroke_r	r	n/a
46.9325	0.074	93865	keystroke_u	u	n/a
47.037	0.105	94074	keystroke_c	c	n/a
47.292	0.045	94584	keystroke_t	t	n/a
47.367	0.075	94734	keystroke_u	u	n/a
47.472	0.0755	94944	keystroke_r	r	n/a
47.5625	0.1195	95125	keystroke_i	i	n/a
47.667	0.12	95334	keystroke_n	n	n/a
47.8025	0.074	95605	keystroke_g	g	n/a
47.952	0.09	95904	keystroke_Key.enter	Key.enter	n/a
48.0475	10.0315	96095	prompt	n/a	bristol spirit colleagues involve\n
49.137	0.0145	98274	keystroke_b	b	n/a
49.1815	0.075	98363	keystroke_r	r	n/a
49.3165	0.06	98633	keystroke_i	i	n/a
49.4065	0.09	98813	keystroke_s	s	n/a
49.6025	0.06	99205	keystroke_t	t	n/a
49.6775	0.074	99355	keystroke_o	o	n/a
49.8565	0.0755	99713	keystroke_l	l	n/a
50.0365	0.09	100073	keystroke_Key.space	Key.space	n/a
50.247	0.12	100494	keystroke_s	s	n/a
50.382	0.0755	100764	keystroke_p	p	n/a
50.592	0.09	101184	keystroke_o	o	n/a
50.607	0.06	101214	keystroke_i	i	n/a
50.787	0.105	101574	keystroke_r	r	n/a
51.087	0.03	102174	keystroke_i	i	n/a
51.462	0.06	102924	keystroke_Key.backspace	Key.backspace	n/a
51.627	0.075	103254	keystroke_Key.backspace	Key.backspace	n/a
51.777	0.09	103554	keystroke_Key.backspace	Key.backspace	n/a
51.927	0.0905	103854	keystroke_Key.backspace	Key.backspace	n/a
52.5875	0.075	105175	keystroke_i	i	n/a
52.6925	0.105	105385	keystroke_r	r	n/a
52.8125	0.075	105625	keystroke_i	i	n/a
52.9325	0.06	105865	keystroke_t	t	n/a
53.1125	0.09	106225	keystroke_Key.space	Key.space	n/a
53.4575	0.09	106915	keystroke_c	c	n/a
53.5625	0.075	107125	keystroke_o	o	n/a
53.7425	0.0595	107485	keystroke_l	l	n/a
53.8925	0.075	107785	keystroke_l	l	n/a
53.9975	0.09	107995	keystroke_e	e	n/a
54.2225	0.09	108445	keystroke_a	a	n/a
54.5975	0.075	109195	keystroke_g	g	n/a
55.0925	0.06	110185	keystroke_u	u	n/a
55.1825	0.12	110365	keystroke_e	e	n/a
55.6315	0.09	111263	keystroke_s	s	n/a
55.827	0.0895	111654	keystroke_Key.space	Key.space	n/a
56.2465	0.09	112493	keystroke_i	i	n/a
56.457	0.0895	112914	keystroke_n	n	n/a
57.0865	0.09	114173	keystroke_v	v	n/a
57.2665	0.0605	114533	keystroke_o	o	n/a
57.432	0.0895	114864	keystroke_l	l	n/a
57.5515	0.12	115103	keystroke_v	v	n/a
57.8065	0.075	115613	keystroke_e	e	n/a
58.002	0.075	116004	keystroke_Key.enter	Key.enter	n/a
58.0935	7.5005	116187	prompt	n/a	butterfly rebates plot largest\n
59.007	0.0895	118014	keystroke_b	b	n/a
59.1715	0.0905	118343	keystroke_u	u	n/a
59.3215	0.06	118643	keystroke_t	t	n/a
59.4715	0.075	118943	keystroke_t	t	n/a
59.6065	0.1505	119213	keystroke_e	e	n/a
59.712	0.06	119424	keystroke_r	r	n/a
59.922	0.09	119844	keystroke_f	f	n/a
60.1475	0.089	120295	keystroke_l	l	n/a
60.3415	0.076	120683	keystroke_y	y	n/a
60.8815	0.1205	121763	keystroke_Key.space	Key.space	n/a
61.0775	0.105	122155	keystroke_r	r	n/a
61.1515	0.136	122303	keystroke_e	e	n/a
61.4075	0.09	122815	keystroke_b	b	n/a
61.5125	0.165	123025	keystroke_a	a	n/a
61.6625	0.12	123325	keystroke_t	t	n/a
61.7525	0.1045	123505	keystroke_e	e	n/a
61.9765	0.09	123953	keystroke_s	s	n/a
62.082	0.0895	124164	keystroke_Key.space	Key.space	n/a
62.667	0.06	125334	keystroke_p	p	n/a
62.892	0.09	125784	keystroke_l	l	n/a
63.087	0.09	126174	keystroke_o	o	n/a
63.237	0.075	126474	keystroke_t	t	n/a
63.612	0.09	127224	keystroke_Key.space	Key.space	n/a
63.8215	0.0905	127643	keystroke_l	l	n/a
63.897	0.1195	127794	keystroke_a	a	n/a
63.9865	0.0905	127973	keystroke_r	r	n/a
64.182	0.0745	128364	keystroke_g	g	n/a
64.3165	0.09	128633	keystroke_e	e	n/a
64.5115	0.1205	129023	keystroke_s	s	n/a
64.7375	0.075	129475	keystroke_t	t	n/a
65.5015	0.091	131003	keystroke_Key.enter	Key.enter	n/a
65.5975	6.7465	131195	prompt	n/a	tale principle master officially\n
66.4925	0.075	132985	keystroke_t	t	n/a
66.687	0.12	133374	keystroke_a	a	n/a
66.822	0.09	133644	keystroke_l	l	n/a
66.927	0.09	133854	keystroke_e	e	n/a
67.092	0.09	134184	keystroke_Key.space	Key.space	n/a
67.392	0.09	134784	keystroke_p	p	n/a
67.512	0.09	135024	keystroke_r	r	n/a
67.662	0.075	135324	keystroke_i	i	n/a
68.037	0.09	136074	keystroke_n	n	n/a
68.247	0.09	136494	keystroke_c	c	n/a
68.502	0.12	137004	keystroke_i	i	n/a
68.892	0.09	137784	keystroke_p	p	n/a
69.132	0.1195	138264	keystroke_l	l	n/a
69.237	0.1055	138474	keystroke_e	e	n/a
69.522	0.105	139044	keystroke_Key.space	Key.space	n/a
69.927	0.09	139854	keystroke_m	m	n/a
70.047	0.105	140094	keystroke_a	a	n/a
70.062	0.135	140124	keystroke_s	s	n/a
70.317	0.09	140634	keystroke_t	t	n/a
70.422	0.15	140844	keystroke_e	e	n/a
70.542	0.09	141084	keystroke_r	r	n/a
70.647	0.09	141294	keystroke_Key.space	Key.space	n/a
70.902	0.075	141804	keystroke_o	o	n/a
71.0075	0.089	142015	keystroke_f	f	n/a
71.1715	0.091	142343	keystroke_f	f	n/a
71.3365	0.076	142673	keystroke_i	i	n/a
71.4265	0.0905	142853	keystroke_c	c	n/a
71.532	0.075	143064	keystroke_i	i	n/a
71.667	0.105	143334	keystroke_a	a	n/a
71.742	0.09	143484	keystroke_l	l	n/a
71.907	0.09	143814	keystroke_l	l	n/a
71.967	0.09	143934	keystroke_y	y	n/a
72.252	0.09	144504	keystroke_Key.enter	Key.enter	n/a
72.347	8.3515	144694	prompt	n/a	animation serious partial corresponding\n
73.002	0.105	146004	keystroke_a	a	n/a
73.152	0.06	146304	keystroke_m	m	n/a
73.497	0.06	146994	keystroke_Key.backspace	Key.backspace	n/a
73.707	0.09	147414	keystroke_n	n	n/a
73.887	0.075	147774	keystroke_i	i	n/a
74.112	0.075	148224	keystroke_m	m	n/a
74.202	0.12	148404	keystroke_a	a	n/a
74.352	0.105	148704	keystroke_t	t	n/a
74.442	0.195	148884	keystroke_i	i	n/a
74.562	0.135	149124	keystroke_o	o	n/a
74.652	0.09	149304	keystroke_n	n	n/a
74.832	0.12	149664	keystroke_Key.space	Key.space	n/a
74.907	0.105	149814	keystroke_s	s	n/a
75.1475	0.0895	150295	keystroke_e	e	n/a
75.192	0.12	150384	keystroke_r	r	n/a
75.372	0.12	150744	keystroke_i	i	n/a
75.582	0.18	151164	keystroke_o	o	n/a
75.687	0.12	151374	keystroke_u	u	n/a
75.8825	0.1345	151765	keystroke_s	s	n/a
76.542	0.09	153084	keystroke_Key.space	Key.space	n/a
76.737	0.075	153474	keystroke_p	p	n/a
76.812	0.135	153624	keystroke_a	a	n/a
76.917	0.075	153834	keystroke_r	r	n/a
77.0825	0.1045	154165	keystroke_i	i	n/a
77.772	0.06	155544	keystroke_Key.backspace	Key.backspace	n/a
77.877	0.06	155754	keystroke_t	t	n/a
78.072	0.105	156144	keystroke_i	i	n/a
78.222	0.12	156444	keystroke_a	a	n/a
78.327	0.09	156654	keystroke_l	l	n/a
78.522	0.0905	157044	keystroke_Key.space	Key.space	n/a
78.732	0.105	157464	keystroke_c	c	n/a
78.8825	0.075	157765	keystroke_o	o	n/a
79.047	0.0605	158094	keystroke_r	r	n/a
79.1975	0.1195	158395	keystroke_r	r	n/a
79.3325	0.0895	158665	keystroke_e	e	n/a
79.557	0.135	159114	keystroke_s	s	n/a
79.662	0.105	159324	keystroke_p	p	n/a
79.752	0.105	159504	keystroke_o	o	n/a
79.977	0.105	159954	keystroke_n	n	n/a
80.127	0.135	160254	keystroke_d	d	n/a
80.217	0.135	160434	keystroke_i	i	n/a
80.322	0.135	160644	keystroke_n	n	n/a
80.427	0.12	160854	keystroke_g	g	n/a
80.622	0.075	161244	keystroke_Key.enter	Key.enter	n/a
80.7015	7.5425	161403	prompt	n/a	direct sacred battery vintage\n
81.327	0.1205	162654	keystroke_d	d	n/a
81.4625	0.105	162925	keystroke_i	i	n/a
81.5815	0.1055	163163	keystroke_r	r	n/a
81.6425	0.104	163285	keystroke_e	e	n/a
81.8675	0.1045	163735	keystroke_c	c	n/a
82.2865	0.106	164573	keystroke_Key.space	Key.space	n/a
82.857	0.0895	165714	keystroke_Key.backspace	Key.backspace	n/a
82.9925	0.089	165985	keystroke_t	t	n/a
83.2175	0.0895	166435	keystroke_Key.space	Key.space	n/a
83.4875	0.105	166975	keystroke_s	s	n/a
83.7425	0.09	167485	keystroke_a	a	n/a
83.9525	0.119	167905	keystroke_c	c	n/a
84.2525	0.15	168505	keystroke_r	r	n/a
84.3725	0.09	168745	keystroke_e	e	n/a
84.5675	0.105	169135	keystroke_d	d	n/a
84.7175	0.104	169435	keystroke_Key.space	Key.space	n/a
84.9725	0.105	169945	keystroke_b	b	n/a
85.0625	0.105	170125	keystroke_a	a	n/a
85.2125	0.059	170425	keystroke_t	t	n/a
85.3475	0.09	170695	keystroke_t	t	n/a
85.4825	0.134	170965	keystroke_e	e	n/a
85.5875	0.119	171175	keystroke_r	r	n/a
86.0065	0.105	172013	keystroke_y	y	n/a
86.2615	0.0905	172523	keystroke_Key.space	Key.space	n/a
86.9225	0.1045	173845	keystroke_v	v	n/a
87.117	0.075	174234	keystroke_i	i	n/a
87.297	0.135	174594	keystroke_n	n	n/a
87.417	0.075	174834	keystroke_t	t	n/a
87.597	0.1355	175194	keystroke_a	a	n/a
87.747	0.1205	175494	keystroke_g	g	n/a
87.8815	0.12	175763	keystroke_e	e	n/a
88.1515	0.0905	176303	keystroke_Key.enter	Key.enter	n/a
88.247	7.4515	176494	prompt	n/a	marine nepal subsequent phases\n
88.8875	0.105	177775	keystroke_m	m	n/a
88.9775	0.15	177955	keystroke_a	a	n/a
89.0825	0.09	178165	keystroke_r	r	n/a
89.2025	0.135	178405	keystroke_i	i	n/a
89.3075	0.135	178615	keystroke_n	n	n/a
89.4275	0.0895	178855	keystroke_e	e	n/a
89.562	0.105	179124	keystroke_Key.space	Key.space	n/a
89.9375	0.0745	179875	keystroke_n	n	n/a
90.0265	0.091	180053	keystroke_e	e	n/a
90.9265	0.091	181853	keystroke_p	p	n/a
91.0765	0.105	182153	keystroke_a	a	n/a
91.1965	0.106	182393	keystroke_l	l	n/a
91.437	0.09	182874	keystroke_Key.space	Key.space	n/a
91.8425	0.104	183685	keystroke_s	s	n/a
92.1125	0.089	184225	keystroke_u	u	n/a
92.322	0.1045	184644	keystroke_b	b	n/a
92.6065	0.0905	185213	keystroke_s	s	n/a
92.8175	0.089	185635	keystroke_e	e	n/a
93.1165	0.135	186233	keystroke_q	q	n/a
93.2825	0.104	186565	keystroke_u	u	n/a
93.4015	0.09	186803	keystroke_e	e	n/a
93.5215	0.106	187043	keystroke_n	n	n/a
93.657	0.0895	187314	keystroke_t	t	n/a
93.897	0.0905	187794	keystroke_Key.space	Key.space	n/a
94.1975	0.075	188395	keystroke_p	p	n/a
94.3775	0.105	188755	keystroke_h	h	n/a
94.5125	0.105	189025	keystroke_a	a	n/a
94.7375	0.135	189475	keystroke_s	s	n/a
95.202	0.0745	190404	keystroke_e	e	n/a
95.4865	0.106	190973	keystroke_s	s	n/a
95.607	0.0895	191214	keystroke_Key.enter	Key.enter	n/a
95.7015	8.6675	191403	prompt	n/a	core notified korean regarded\n
96.357	0.1045	192714	keystroke_c	c	n/a
96.4625	0.0895	192925	keystroke_o	o	n/a
96.627	0.1045	193254	keystroke_r	r	n/a
96.7015	0.1055	193403	keystroke_e	e	n/a
96.837	0.105	193674	keystroke_Key.space	Key.space	n/a
97.092	0.075	194184	keystroke_n	n	n/a
97.272	0.045	194544	keystroke_i	i	n/a
97.392	0.0905	194784	keystroke_t	t	n/a
97.9325	0.0595	195865	keystroke_Key.backspace	Key.backspace	n/a
98.142	0.09	196284	keystroke_Key.backspace	Key.backspace	n/a
98.7575	0.075	197515	keystroke_o	o	n/a
98.9675	0.09	197935	keystroke_t	t	n/a
99.1175	0.119	198235	keystroke_i	i	n/a
99.297	0.0895	198594	keystroke_f	f	n/a
99.4765	0.076	198953	keystroke_i	i	n/a
99.537	0.0745	199074	keystroke_e	e	n/a
99.7315	0.09	199463	keystroke_d	d	n/a
99.912	0.105	199824	keystroke_Key.space	Key.space	n/a
100.2575	0.1045	200515	keystroke_k	k	n/a
100.467	0.0905	200934	keystroke_r	r	n/a
100.902	0.075	201804	keystroke_Key.backspace	Key.backspace	n/a
101.127	0.075	202254	keystroke_o	o	n/a
101.322	0.09	202644	keystroke_r	r	n/a
101.7875	0.075	203575	keystroke_e	e	n/a
101.9825	0.09	203965	keystroke_a	a	n/a
102.1325	0.075	204265	keystroke_n	n	n/a
102.3425	0.104	204685	keystroke_Key.space	Key.space	n/a
102.522	0.105	205044	keystroke_r	r	n/a
102.612	0.1195	205224	keystroke_e	e	n/a
102.807	0.1045	205614	keystroke_g	g	n/a
102.9715	0.1655	205943	keystroke_a	a	n/a
103.0915	0.105	206183	keystroke_r	r	n/a
103.7825	0.089	207565	keystroke_d	d	n/a
103.932	0.0595	207864	keystroke_e	e	n/a
104.0965	0.12	208193	keystroke_d	d	n/a
104.2615	0.105	208523	keystroke_Key.enter	Key.enter	n/a
104.372	10.3315	208744	prompt	n/a	acrylic mirrors chevrolet tradition\n
105.1915	0.105	210383	keystroke_a	a	n/a
105.3715	0.1355	210743	keystroke_c	c	n/a
105.912	0.06	211824	keystroke_r	r	n/a
106.0625	0.075	212125	keystroke_y	y	n/a
106.0765	0.016	212153	keystroke_u	u	n/a
106.2715	0.091	212543	keystroke_l	l	n/a
106.4215	0.09	212843	keystroke_i	i	n/a
106.5265	0.091	213053	keystroke_c	c	n/a
106.6915	0.1055	213383	keystroke_Key.space	Key.space	n/a
106.962	0.075	213924	keystroke_m	m	n/a
107.127	0.075	214254	keystroke_o	o	n/a
107.217	0.06	214434	keystroke_r	r	n/a
107.367	0.06	214734	keystroke_r	r	n/a
107.757	0.06	215514	keystroke_Key.backspace	Key.backspace	n/a
107.922	0.075	215844	keystroke_Key.backspace	Key.backspace	n/a
108.057	0.06	216114	keystroke_Key.backspace	Key.backspace	n/a
108.582	0.09	217164	keystroke_i	i	n/a
108.7025	0.0445	217405	keystroke_r	r	n/a
108.8375	0.089	217675	keystroke_r	r	n/a
108.9715	0.091	217943	keystroke_o	o	n/a
109.0765	0.061	218153	keystroke_r	r	n/a
109.3015	0.061	218603	keystroke_s	s	n/a
109.3925	0.105	218785	keystroke_Key.space	Key.space	n/a
109.6015	0.106	219203	keystroke_c	c	n/a
109.7525	0.09	219505	keystroke_h	h	n/a
109.8575	0.09	219715	keystroke_e	e	n/a
110.112	0.135	220224	keystroke_v	v	n/a
110.502	0.075	221004	keystroke_r	r	n/a
110.682	0.075	221364	keystroke_o	o	n/a
111.477	0.105	222954	keystroke_l	l	n/a
111.567	0.105	223134	keystroke_e	e	n/a
111.7175	0.105	223435	keystroke_t	t	n/a
111.867	0.12	223734	keystroke_Key.space	Key.space	n/a
112.167	0.0755	224334	keystroke_t	t	n/a
112.347	0.06	224694	keystroke_r	r	n/a
112.497	0.09	224994	keystroke_a	a	n/a
112.722	0.1055	225444	keystroke_d	d	n/a
112.8875	0.09	225775	keystroke_i	i	n/a
112.9925	0.09	225985	keystroke_d	d	n/a
113.2175	0.105	226435	keystroke_t	t	n/a
113.7575	0.09	227515	keystroke_Key.backspace	Key.backspace	n/a
114.1175	0.15	228235	keystroke_i	i	n/a
114.2375	0.12	228475	keystroke_o	o	n/a
114.3125	0.15	228625	keystroke_n	n	n/a
114.6275	0.075	229255	keystroke_Key.enter	Key.enter	n/a
114.707	5.817	229414	prompt	n/a	enhance yeast loud industry\n
115.662	0.0905	231324	keystroke_e	e	n/a
115.8725	0.089	231745	keystroke_n	n	n/a
116.0975	0.09	232195	keystroke_h	h	n/a
116.2015	0.091	232403	keystroke_a	a	n/a
116.3815	0.091	232763	keystroke_n	n	n/a
116.5475	0.105	233095	keystroke_c	c	n/a
116.727	0.0895	233454	keystroke_e	e	n/a
116.8315	0.105	233663	keystroke_Key.space	Key.space	n/a
117.0565	0.076	234113	keystroke_y	y	n/a
117.0715	0.091	234143	keystroke_e	e	n/a
117.207	0.1495	234414	keystroke_a	a	n/a
117.432	0.1045	234864	keystroke_s	s	n/a
117.6565	0.076	235313	keystroke_t	t	n/a
117.7915	0.105	235583	keystroke_Key.space	Key.space	n/a
118.1365	0.105	236273	keystroke_l	l	n/a
118.3625	0.15	236725	keystroke_o	o	n/a
118.422	0.1495	236844	keystroke_u	u	n/a
118.5725	0.135	237145	keystroke_d	d	n/a
118.7365	0.12	237473	keystroke_Key.space	Key.space	n/a
119.1715	0.091	238343	keystroke_i	i	n/a
119.3515	0.106	238703	keystroke_n	n	n/a
119.4715	0.105	238943	keystroke_d	d	n/a
119.6375	0.104	239275	keystroke_u	u	n/a
119.7265	0.105	239453	keystroke_s	s	n/a
119.9075	0.059	239815	keystroke_t	t	n/a
120.0565	0.106	240113	keystroke_r	r	n/a
120.1625	0.075	240325	keystroke_y	y	n/a
120.4315	0.09	240863	keystroke_Key.enter	Key.enter	n/a
120.527	9.283	241054	prompt	n/a	structured download recover seconds\n
121.1675	0.134	242335	keystroke_s	s	n/a
121.3925	0.0745	242785	keystroke_t	t	n/a
121.557	0.0755	243114	keystroke_r	r	n/a
122.5165	0.091	245033	keystroke_u	u	n/a
122.5925	0.09	245185	keystroke_c	c	n/a
122.832	0.0755	245664	keystroke_t	t	n/a
122.997	0.105	245994	keystroke_u	u	n/a
123.087	0.105	246174	keystroke_r	r	n/a
123.177	0.0905	246354	keystroke_e	e	n/a
123.372	0.105	246744	keystroke_d	d	n/a
123.5075	0.1045	247015	keystroke_Key.space	Key.space	n/a
124.1675	0.12	248335	keystroke_d	d	n/a
124.3475	0.09	248695	keystroke_o	o	n/a
124.4975	0.09	248995	keystroke_w	w	n/a
124.6475	0.075	249295	keystroke_n	n	n/a
124.8275	0.09	249655	keystroke_l	l	n/a
125.0225	0.105	250045	keystroke_o	o	n/a
125.1125	0.075	250225	keystroke_a	a	n/a
125.3225	0.135	250645	keystroke_d	d	n/a
125.6965	0.106	251393	keystroke_Key.space	Key.space	n/a
125.8775	0.089	251755	keystroke_r	r	n/a
125.9375	0.105	251875	keystroke_e	e	n/a
126.1765	0.106	252353	keystroke_c	c	n/a
126.2975	0.09	252595	keystroke_o	o	n/a
126.4015	0.091	252803	keystroke_v	v	n/a
126.5675	0.134	253135	keystroke_e	e	n/a
126.6725	0.09	253345	keystroke_r	r	n/a
126.8075	0.105	253615	keystroke_Key.space	Key.space	n/a
127.0175	0.075	254035	keystroke_s	s	n/a
127.2415	0.076	254483	keystroke_e	e	n/a
127.4215	0.136	254843	keystroke_c	c	n/a
127.6015	0.061	255203	keystroke_o	o	n/a
128.892	0.0755	257784	keystroke_n	n	n/a
129.0125	0.12	258025	keystroke_d	d	n/a
129.5075	0.075	259015	keystroke_s	s	n/a
129.7025	0.105	259405	keystroke_Key.enter	Key.enter	n/a
129.8175	13.6265	259635	prompt	n/a	codes hydrocodone producer deutsche\n
130.5275	0.105	261055	keystroke_c	c	n/a
130.6475	0.0895	261295	keystroke_o	o	n/a
130.767	0.06	261534	keystroke_d	d	n/a
130.932	0.09	261864	keystroke_e	e	n/a
131.127	0.075	262254	keystroke_s	s	n/a
131.262	0.0905	262524	keystroke_Key.space	Key.space	n/a
132.057	0.09	264114	keystroke_h	h	n/a
132.267	0.075	264534	keystroke_y	y	n/a
132.462	0.0905	264924	keystroke_d	d	n/a
132.6875	0.09	265375	keystroke_r	r	n/a
132.8525	0.09	265705	keystroke_o	o	n/a
133.7375	0.105	267475	keystroke_c	c	n/a
133.857	0.075	267714	keystroke_o	o	n/a
133.992	0.105	267984	keystroke_n	n	n/a
134.097	0.09	268194	keystroke_e	e	n/a
134.247	0.09	268494	keystroke_Key.space	Key.space	n/a
134.442	0.09	268884	keystroke_p	p	n/a
134.5175	0.0895	269035	keystroke_r	r	n/a
137.1735	0.043	274347	keystroke_Key.backspace	Key.backspace	n/a
137.3215	0.0755	274643	keystroke_Key.backspace	Key.backspace	n/a
137.4865	0.09	274973	keystroke_Key.backspace	Key.backspace	n/a
137.6675	0.074	275335	keystroke_Key.backspace	Key.backspace	n/a
137.8765	0.09	275753	keystroke_Key.backspace	Key.backspace	n/a
138.4625	0.089	276925	keystroke_d	d	n/a
138.6125	0.075	277225	keystroke_o	o	n/a
138.7615	0.09	277523	keystroke_n	n	n/a
138.8665	0.105	277733	keystroke_e	e	n/a
139.032	0.0895	278064	keystroke_Key.space	Key.space	n/a
139.932	0.1055	279864	keystroke_p	p	n/a
140.0525	0.0745	280105	keystroke_r	r	n/a
140.1725	0.0895	280345	keystroke_o	o	n/a
140.307	0.105	280614	keystroke_d	d	n/a
140.457	0.075	280914	keystroke_u	u	n/a
140.563	0.0895	281126	keystroke_c	c	n/a
140.772	0.15	281544	keystroke_e	e	n/a
140.862	0.105	281724	keystroke_r	r	n/a
141.042	0.075	282084	keystroke_Key.space	Key.space	n/a
141.4175	0.075	282835	keystroke_d	d	n/a
141.6275	0.104	283255	keystroke_e	e	n/a
141.822	0.12	283644	keystroke_u	u	n/a
142.137	0.0755	284274	keystroke_t	t	n/a
142.497	0.105	284994	keystroke_s	s	n/a
142.722	0.1055	285444	keystroke_c	c	n/a
142.842	0.105	285684	keystroke_h	h	n/a
142.977	0.12	285954	keystroke_e	e	n/a
143.352	0.09	286704	keystroke_Key.enter	Key.enter	n/a
143.4475	8.7715	286895	prompt	n/a	expiration vegetables treated somehow\n
144.267	0.09	288534	keystroke_e	e	n/a
144.522	0.15	289044	keystroke_x	x	n/a
144.657	0.075	289314	keystroke_p	p	n/a
144.807	0.12	289614	keystroke_i	i	n/a
144.912	0.075	289824	keystroke_r	r	n/a
145.047	0.165	290094	keystroke_a	a	n/a
145.182	0.09	290364	keystroke_t	t	n/a
145.287	0.12	290574	keystroke_i	i	n/a
145.332	0.1655	290664	keystroke_o	o	n/a
145.452	0.12	290904	keystroke_n	n	n/a
145.692	0.09	291384	keystroke_Key.space	Key.space	n/a
145.9015	0.0755	291803	keystroke_b	b	n/a
145.9615	0.09	291923	keystroke_e	e	n/a
146.1415	0.1055	292283	keystroke_g	g	n/a
146.3665	0.06	292733	keystroke_a	a	n/a
146.682	0.0745	293364	keystroke_Key.backspace	Key.backspace	n/a
146.847	0.075	293694	keystroke_Key.backspace	Key.backspace	n/a
147.012	0.075	294024	keystroke_Key.backspace	Key.backspace	n/a
147.162	0.09	294324	keystroke_Key.backspace	Key.backspace	n/a
147.777	0.06	295554	keystroke_v	v	n/a
147.9575	0.0895	295915	keystroke_e	e	n/a
148.392	0.045	296784	keystroke_g	g	n/a
148.617	0.075	297234	keystroke_t	t	n/a
148.797	0.075	297594	keystroke_a	a	n/a
148.917	0.06	297834	keystroke_b	b	n/a
149.052	0.1045	298104	keystroke_l	l	n/a
149.1265	0.0755	298253	keystroke_e	e	n/a
149.3375	0.0745	298675	keystroke_s	s	n/a
149.382	0.105	298764	keystroke_Key.space	Key.space	n/a
149.532	0.075	299064	keystroke_t	t	n/a
149.697	0.105	299394	keystroke_r	r	n/a
149.787	0.105	299574	keystroke_e	e	n/a
149.952	0.135	299904	keystroke_a	a	n/a
150.132	0.135	300264	keystroke_t	t	n/a
150.282	0.075	300564	keystroke_e	e	n/a
150.702	0.09	301404	keystroke_d	d	n/a
150.942	0.0895	301884	keystroke_Key.space	Key.space	n/a
151.257	0.1355	302514	keystroke_s	s	n/a
151.332	0.1495	302664	keystroke_o	o	n/a
151.4515	0.136	302903	keystroke_m	m	n/a
151.602	0.06	303204	keystroke_e	e	n/a
151.737	0.06	303474	keystroke_h	h	n/a
151.9025	0.0745	303805	keystroke_o	o	n/a
151.992	0.105	303984	keystroke_w	w	n/a
152.127	0.09	304254	keystroke_Key.enter	Key.enter	n/a
152.2255	11.5135	304451	prompt	n/a	anthony foods innocent tourist\n
152.832	0.12	305664	keystroke_a	a	n/a
152.967	0.09	305934	keystroke_n	n	n/a
153.1325	0.075	306265	keystroke_t	t	n/a
153.2375	0.09	306475	keystroke_h	h	n/a
153.3725	0.135	306745	keystroke_o	o	n/a
153.4915	0.121	306983	keystroke_n	n	n/a
153.6275	0.105	307255	keystroke_y	y	n/a
153.8515	0.105	307703	keystroke_Key.space	Key.space	n/a
155.757	0.075	311514	keystroke_f	f	n/a
155.9375	0.0745	311875	keystroke_o	o	n/a
156.087	0.09	312174	keystroke_o	o	n/a
156.162	0.09	312324	keystroke_d	d	n/a
156.357	0.0895	312714	keystroke_s	s	n/a
156.4315	0.105	312863	keystroke_Key.space	Key.space	n/a
156.6725	0.0745	313345	keystroke_i	i	n/a
156.8515	0.076	313703	keystroke_n	n	n/a
156.9875	0.089	313975	keystroke_n	n	n/a
157.1215	0.136	314243	keystroke_c	c	n/a
157.2415	0.106	314483	keystroke_o	o	n/a
157.8415	0.1205	315683	keystroke_e	e	n/a
158.172	0.06	316344	keystroke_Key.backspace	Key.backspace	n/a
158.352	0.09	316704	keystroke_Key.backspace	Key.backspace	n/a
159.0125	0.134	318025	keystroke_o	o	n/a
159.312	0.0755	318624	keystroke_Key.backspace	Key.backspace	n/a
159.507	0.045	319014	keystroke_Key.backspace	Key.backspace	n/a
159.7175	0.0745	319435	keystroke_o	o	n/a
159.9275	0.0595	319855	keystroke_n	n	n/a
160.3175	0.075	320635	keystroke_Key.backspace	Key.backspace	n/a
160.4075	0.09	320815	keystroke_c	c	n/a
160.5725	0.09	321145	keystroke_e	e	n/a
160.6775	0.09	321355	keystroke_n	n	n/a
160.7975	0.09	321595	keystroke_t	t	n/a
160.9475	0.105	321895	keystroke_Key.space	Key.space	n/a
161.457	0.03	322914	keystroke_y	y	n/a
162.162	0.075	324324	keystroke_Key.backspace	Key.backspace	n/a
162.2675	0.0745	324535	keystroke_t	t	n/a
162.432	0.18	324864	keystroke_o	o	n/a
162.552	0.165	325104	keystroke_u	u	n/a
162.642	0.09	325284	keystroke_r	r	n/a
163.137	0.12	326274	keystroke_i	i	n/a
163.227	0.12	326454	keystroke_s	s	n/a
163.4525	0.074	326905	keystroke_t	t	n/a
163.6165	0.12	327233	keystroke_Key.enter	Key.enter	n/a
163.742	7.392	327484	prompt	n/a	size terms investment examples\n
164.7575	0.104	329515	keystroke_s	s	n/a
164.997	0.1045	329994	keystroke_i	i	n/a
165.1175	0.12	330235	keystroke_z	z	n/a
165.3275	0.105	330655	keystroke_e	e	n/a
165.4615	0.105	330923	keystroke_Key.space	Key.space	n/a
165.597	0.0605	331194	keystroke_t	t	n/a
165.7465	0.136	331493	keystroke_e	e	n/a
165.8525	0.119	331705	keystroke_r	r	n/a
166.0165	0.091	332033	keystroke_m	m	n/a
166.1665	0.121	332333	keystroke_s	s	n/a
166.3765	0.091	332753	keystroke_Key.space	Key.space	n/a
166.752	0.075	333504	keystroke_i	i	n/a
166.9175	0.1195	333835	keystroke_n	n	n/a
167.022	0.075	334044	keystroke_v	v	n/a
167.2025	0.0745	334405	keystroke_e	e	n/a
167.382	0.1355	334764	keystroke_s	s	n/a
167.637	0.09	335274	keystroke_t	t	n/a
167.997	0.09	335994	keystroke_m	m	n/a
168.1025	0.12	336205	keystroke_e	e	n/a
168.282	0.075	336564	keystroke_n	n	n/a
168.327	0.105	336654	keystroke_t	t	n/a
168.492	0.12	336984	keystroke_Key.space	Key.space	n/a
168.6575	0.06	337315	keystroke_e	e	n/a
168.9415	0.18	337883	keystroke_z	z	n/a
169.527	0.0755	339054	keystroke_Key.backspace	Key.backspace	n/a
169.992	0.105	339984	keystroke_x	x	n/a
170.187	0.105	340374	keystroke_a	a	n/a
170.307	0.09	340614	keystroke_m	m	n/a
170.487	0.09	340974	keystroke_p	p	n/a
170.6675	0.1195	341335	keystroke_l	l	n/a
170.7425	0.0745	341485	keystroke_e	e	n/a
170.952	0.0755	341904	keystroke_s	s	n/a
171.042	0.09	342084	keystroke_Key.enter	Key.enter	n/a
171.137	8.937	342274	prompt	n/a	ferrari duplicate think comparative\n
172.017	0.09	344034	keystroke_f	f	n/a
172.197	0.09	344394	keystroke_e	e	n/a
172.362	0.075	344724	keystroke_r	r	n/a
172.512	0.09	345024	keystroke_r	r	n/a
172.647	0.15	345294	keystroke_a	a	n/a
172.767	0.105	345534	keystroke_r	r	n/a
172.887	0.1055	345774	keystroke_i	i	n/a
173.097	0.1055	346194	keystroke_Key.space	Key.space	n/a
173.9825	0.104	347965	keystroke_d	d	n/a
174.2215	0.09	348443	keystroke_u	u	n/a
174.417	0.0895	348834	keystroke_p	p	n/a
174.6425	0.075	349285	keystroke_l	l	n/a
174.807	0.075	349614	keystroke_i	i	n/a
174.897	0.0745	349794	keystroke_c	c	n/a
175.047	0.0895	350094	keystroke_a	a	n/a
175.1965	0.18	350393	keystroke_t	t	n/a
175.317	0.0895	350634	keystroke_e	e	n/a
175.3615	0.0305	350723	keystroke_r	r	n/a
175.4665	0.1055	350933	keystroke_Key.space	Key.space	n/a
175.587	0.0895	351174	keystroke_t	t	n/a
175.722	0.075	351444	keystroke_h	h	n/a
175.8115	0.135	351623	keystroke_i	i	n/a
176.172	0.0595	352344	keystroke_Key.backspace	Key.backspace	n/a
176.3365	0.09	352673	keystroke_Key.backspace	Key.backspace	n/a
176.502	0.0745	353004	keystroke_Key.backspace	Key.backspace	n/a
176.667	0.0595	353334	keystroke_Key.backspace	Key.backspace	n/a
176.8015	0.0755	353603	keystroke_Key.backspace	Key.backspace	n/a
177.0265	0.0755	354053	keystroke_Key.space	Key.space	n/a
177.1165	0.0755	354233	keystroke_t	t	n/a
177.2525	0.119	354505	keystroke_h	h	n/a
177.3565	0.135	354713	keystroke_i	i	n/a
177.5215	0.105	355043	keystroke_n	n	n/a
177.702	0.0595	355404	keystroke_k	k	n/a
177.867	0.1205	355734	keystroke_Key.space	Key.space	n/a
178.362	0.12	356724	keystroke_c	c	n/a
178.497	0.075	356994	keystroke_o	o	n/a
178.647	0.105	357294	keystroke_m	m	n/a
178.797	0.1195	357594	keystroke_p	p	n/a
178.9025	0.1495	357805	keystroke_a	a	n/a
179.0215	0.12	358043	keystroke_r	r	n/a
179.1265	0.105	358253	keystroke_i	i	n/a
179.2915	0.0905	358583	keystroke_t	t	n/a
179.457	0.09	358914	keystroke_i	i	n/a
179.562	0.1205	359124	keystroke_v	v	n/a
179.7725	0.12	359545	keystroke_e	e	n/a
179.9825	0.09	359965	keystroke_Key.enter	Key.enter	n/a
180.077	5.6365	360154	prompt	n/a	seal lite mess defendant\n
180.6875	0.12	361375	keystroke_s	s	n/a
180.9125	0.09	361825	keystroke_e	e	n/a
181.047	0.09	362094	keystroke_a	a	n/a
181.1525	0.1045	362305	keystroke_l	l	n/a
181.332	0.09	362664	keystroke_Key.space	Key.space	n/a
181.557	0.075	363114	keystroke_l	l	n/a
181.707	0.1055	363414	keystroke_i	i	n/a
181.8275	0.045	363655	keystroke_t	t	n/a
181.9775	0.105	363955	keystroke_e	e	n/a
182.1275	0.09	364255	keystroke_Key.space	Key.space	n/a
182.3525	0.135	364705	keystroke_m	m	n/a
182.4725	0.074	364945	keystroke_e	e	n/a
182.6675	0.06	365335	keystroke_s	s	n/a
182.8475	0.12	365695	keystroke_s	s	n/a
182.9825	0.105	365965	keystroke_Key.space	Key.space	n/a
183.1915	0.121	366383	keystroke_d	d	n/a
183.4175	0.09	366835	keystroke_e	e	n/a
183.7625	0.105	367525	keystroke_f	f	n/a
183.9425	0.09	367885	keystroke_e	e	n/a
184.0775	0.12	368155	keystroke_n	n	n/a
184.2125	0.045	368425	keystroke_t	t	n/a
184.5865	0.06	369173	keystroke_Key.backspace	Key.backspace	n/a
184.6615	0.106	369323	keystroke_d	d	n/a
184.8575	0.104	369715	keystroke_e	e	n/a
185.2025	0.135	370405	keystroke_a	a	n/a
185.3525	0.09	370705	keystroke_n	n	n/a
185.4575	0.089	370915	keystroke_t	t	n/a
185.622	0.0895	371244	keystroke_Key.enter	Key.enter	n/a
185.717	7.0465	371434	prompt	n/a	jokes avoid contribution customer\n
186.732	0.09	373464	keystroke_j	j	n/a
186.897	0.09	373794	keystroke_o	o	n/a
187.092	0.105	374184	keystroke_k	k	n/a
187.152	0.09	374304	keystroke_e	e	n/a
187.332	0.105	374664	keystroke_s	s	n/a
187.452	0.105	374904	keystroke_Key.space	Key.space	n/a
187.737	0.06	375474	keystroke_a	a	n/a
187.977	0.075	375954	keystroke_v	v	n/a
188.217	0.075	376434	keystroke_o	o	n/a
188.367	0.12	376734	keystroke_i	i	n/a
188.517	0.09	377034	keystroke_d	d	n/a
188.697	0.12	377394	keystroke_Key.space	Key.space	n/a
189.507	0.135	379014	keystroke_c	c	n/a
189.627	0.09	379254	keystroke_o	o	n/a
189.792	0.105	379584	keystroke_n	n	n/a
189.912	0.0755	379824	keystroke_t	t	n/a
190.062	0.0905	380124	keystroke_r	r	n/a
190.197	0.09	380394	keystroke_i	i	n/a
190.392	0.09	380784	keystroke_b	b	n/a
190.557	0.075	381114	keystroke_u	u	n/a
190.647	0.0755	381294	keystroke_t	t	n/a
190.767	0.15	381534	keystroke_i	i	n/a
190.887	0.18	381774	keystroke_o	o	n/a
190.962	0.12	381924	keystroke_n	n	n/a
191.187	0.1355	382374	keystroke_Key.space	Key.space	n/a
191.412	0.105	382824	keystroke_c	c	n/a
191.577	0.0755	383154	keystroke_u	u	n/a
191.8025	0.1195	383605	keystroke_s	s	n/a
192.0575	0.09	384115	keystroke_t	t	n/a
192.1925	0.075	384385	keystroke_i	i	n/a
192.3425	0.075	384685	keystroke_m	m	n/a
192.4325	0.12	384865	keystroke_e	e	n/a
192.5225	0.12	385045	keystroke_r	r	n/a
192.6725	0.09	385345	keystroke_Key.enter	Key.enter	n/a
192.767	4.6925	385534	prompt	n/a	weekly arrow claire meal\n
193.7375	0.045	387475	keystroke_w	w	n/a
193.8275	0.045	387655	keystroke_e	e	n/a
193.9775	0.09	387955	keystroke_e	e	n/a
194.082	0.1055	388164	keystroke_k	k	n/a
194.2625	0.075	388525	keystroke_l	l	n/a
194.3225	0.09	388645	keystroke_y	y	n/a
194.5175	0.1045	389035	keystroke_Key.space	Key.space	n/a
194.6525	0.09	389305	keystroke_a	a	n/a
194.8325	0.045	389665	keystroke_r	r	n/a
194.9675	0.045	389935	keystroke_r	r	n/a
195.0425	0.09	390085	keystroke_o	o	n/a
195.1625	0.09	390325	keystroke_w	w	n/a
195.3275	0.135	390655	keystroke_Key.space	Key.space	n/a
195.627	0.09	391254	keystroke_c	c	n/a
195.777	0.0905	391554	keystroke_l	l	n/a
195.882	0.105	391764	keystroke_a	a	n/a
196.032	0.0905	392064	keystroke_i	i	n/a
196.0775	0.1345	392155	keystroke_r	r	n/a
196.167	0.1055	392334	keystroke_e	e	n/a
196.332	0.0905	392664	keystroke_Key.space	Key.space	n/a
196.5425	0.0895	393085	keystroke_m	m	n/a
196.6175	0.06	393235	keystroke_e	e	n/a
196.7375	0.135	393475	keystroke_a	a	n/a
197.082	0.0755	394164	keystroke_l	l	n/a
197.3675	0.09	394735	keystroke_Key.enter	Key.enter	n/a
197.462	7.782	394924	prompt	n/a	paul smith declared employed\n
198.2225	0.09	396445	keystroke_p	p	n/a
198.3575	0.15	396715	keystroke_a	a	n/a
198.4625	0.074	396925	keystroke_u	u	n/a
198.642	0.075	397284	keystroke_l	l	n/a
198.807	0.06	397614	keystroke_Key.space	Key.space	n/a
198.852	0.135	397704	keystroke_s	s	n/a
199.1375	0.0895	398275	keystroke_i	i	n/a
199.272	0.105	398544	keystroke_t	t	n/a
199.392	0.091	398784	keystroke_h	h	n/a
199.647	0.09	399294	keystroke_Key.space	Key.space	n/a
200.007	0.06	400014	keystroke_Key.backspace	Key.backspace	n/a
200.172	0.075	400344	keystroke_Key.backspace	Key.backspace	n/a
200.322	0.075	400644	keystroke_Key.backspace	Key.backspace	n/a
200.5025	0.0595	401005	keystroke_Key.backspace	Key.backspace	n/a
200.8025	0.089	401605	keystroke_m	m	n/a
200.9825	0.059	401965	keystroke_i	i	n/a
201.0575	0.09	402115	keystroke_t	t	n/a
201.2225	0.074	402445	keystroke_h	h	n/a
201.477	0.1205	402954	keystroke_Key.space	Key.space	n/a
201.807	0.045	403614	keystroke_s	s	n/a
202.3925	0.075	404785	keystroke_Key.backspace	Key.backspace	n/a
202.4525	0.075	404905	keystroke_d	d	n/a
202.6475	0.06	405295	keystroke_e	e	n/a
202.8275	0.09	405655	keystroke_c	c	n/a
202.9465	0.075	405893	keystroke_l	l	n/a
203.0515	0.135	406103	keystroke_a	a	n/a
203.202	0.1205	406404	keystroke_r	r	n/a
203.2615	0.106	406523	keystroke_e	e	n/a
203.472	0.0745	406944	keystroke_d	d	n/a
203.5915	0.105	407183	keystroke_Key.space	Key.space	n/a
203.8165	0.0915	407633	keystroke_e	e	n/a
203.938	0.104	407876	keystroke_m	m	n/a
204.102	0.106	408204	keystroke_p	p	n/a
204.342	0.09	408684	keystroke_l	l	n/a
204.552	0.09	409104	keystroke_o	o	n/a
204.5975	0.0595	409195	keystroke_y	y	n/a
204.777	0.106	409554	keystroke_e	e	n/a
204.987	0.121	409974	keystroke_d	d	n/a
205.137	0.105	410274	keystroke_Key.enter	Key.enter	n/a
205.2475	5.832	410495	prompt	n/a	challenges clinical lemon catch\n
205.8575	0.135	411715	keystroke_c	c	n/a
206.0075	0.075	412015	keystroke_h	h	n/a
206.1425	0.105	412285	keystroke_a	a	n/a
206.2775	0.075	412555	keystroke_l	l	n/a
206.4275	0.105	412855	keystroke_l	l	n/a
206.5025	0.075	413005	keystroke_e	e	n/a
206.6825	0.09	413365	keystroke_n	n	n/a
206.8925	0.075	413785	keystroke_g	g	n/a
207.0725	0.075	414145	keystroke_e	e	n/a
207.2975	0.075	414595	keystroke_s	s	n/a
207.4025	0.075	414805	keystroke_Key.space	Key.space	n/a
207.5075	0.135	415015	keystroke_c	c	n/a
207.6275	0.075	415255	keystroke_l	l	n/a
207.8225	0.12	415645	keystroke_i	i	n/a
207.8975	0.105	415795	keystroke_n	n	n/a
208.0625	0.105	416125	keystroke_i	i	n/a
208.1675	0.105	416335	keystroke_c	c	n/a
208.3475	0.105	416695	keystroke_a	a	n/a
208.4375	0.09	416875	keystroke_l	l	n/a
208.6015	0.09	417203	keystroke_Key.space	Key.space	n/a
208.7975	0.075	417595	keystroke_l	l	n/a
208.8725	0.075	417745	keystroke_e	e	n/a
208.9775	0.105	417955	keystroke_m	m	n/a
209.1425	0.105	418285	keystroke_o	o	n/a
209.2775	0.09	418555	keystroke_n	n	n/a
209.5025	0.0895	419005	keystroke_Key.space	Key.space	n/a
209.817	0.09	419634	keystroke_c	c	n/a
209.967	0.12	419934	keystroke_a	a	n/a
210.147	0.09	420294	keystroke_t	t	n/a
210.5675	0.105	421135	keystroke_c	c	n/a
210.6875	0.09	421375	keystroke_h	h	n/a
210.9725	0.105	421945	keystroke_Key.enter	Key.enter	n/a
211.0825	7.7665	422165	prompt	n/a	currency marie bracelet very\n
211.6625	0.135	423325	keystroke_c	c	n/a
212.0075	0.06	424015	keystroke_r	r	n/a
212.4715	0.075	424943	keystroke_Key.backspace	Key.backspace	n/a
212.9825	0.075	425965	keystroke_u	u	n/a
213.072	0.075	426144	keystroke_r	r	n/a
213.2365	0.1215	426473	keystroke_r	r	n/a
213.358	0.0895	426716	keystroke_e	e	n/a
213.4925	0.105	426985	keystroke_n	n	n/a
213.6115	0.15	427223	keystroke_c	c	n/a
213.7775	0.105	427555	keystroke_y	y	n/a
214.0465	0.1205	428093	keystroke_Key.space	Key.space	n/a
214.4375	0.075	428875	keystroke_m	m	n/a
214.513	0.1345	429026	keystroke_a	a	n/a
214.6475	0.1045	429295	keystroke_r	r	n/a
214.782	0.09	429564	keystroke_i	i	n/a
214.887	0.1055	429774	keystroke_e	e	n/a
215.1425	0.09	430285	keystroke_Key.space	Key.space	n/a
215.9975	0.12	431995	keystroke_b	b	n/a
216.417	0.0745	432834	keystroke_r	r	n/a
216.5525	0.105	433105	keystroke_a	a	n/a
216.717	0.1045	433434	keystroke_c	c	n/a
216.9575	0.074	433915	keystroke_e	e	n/a
217.108	0.089	434216	keystroke_l	l	n/a
217.183	0.09	434366	keystroke_e	e	n/a
217.333	0.089	434666	keystroke_t	t	n/a
217.437	0.105	434874	keystroke_Key.space	Key.space	n/a
218.1115	0.0905	436223	keystroke_v	v	n/a
218.2925	0.119	436585	keystroke_e	e	n/a
218.383	0.1035	436766	keystroke_r	r	n/a
218.472	0.1055	436944	keystroke_y	y	n/a
218.7575	0.089	437515	keystroke_Key.enter	Key.enter	n/a
218.852	6.8075	437704	prompt	n/a	pupils worlds prevent growth\n
219.702	0.0755	439404	keystroke_p	p	n/a
220.137	0.075	440274	keystroke_u	u	n/a
220.377	0.09	440754	keystroke_p	p	n/a
220.6175	0.0745	441235	keystroke_i	i	n/a
220.812	0.105	441624	keystroke_l	l	n/a
220.947	0.09	441894	keystroke_s	s	n/a
221.097	0.105	442194	keystroke_Key.space	Key.space	n/a
221.487	0.06	442974	keystroke_w	w	n/a
221.5925	0.0595	443185	keystroke_o	o	n/a
221.667	0.105	443334	keystroke_r	r	n/a
221.892	0.09	443784	keystroke_l	l	n/a
222.012	0.105	444024	keystroke_d	d	n/a
222.222	0.105	444444	keystroke_s	s	n/a
222.387	0.09	444774	keystroke_Key.space	Key.space	n/a
222.672	0.105	445344	keystroke_p	p	n/a
222.778	0.104	445556	keystroke_r	r	n/a
222.852	0.0905	445704	keystroke_e	e	n/a
223.0625	0.12	446125	keystroke_v	v	n/a
223.2575	0.09	446515	keystroke_e	e	n/a
223.3775	0.09	446755	keystroke_n	n	n/a
223.4825	0.09	446965	keystroke_t	t	n/a
223.6775	0.075	447355	keystroke_Key.space	Key.space	n/a
224.322	0.135	448644	keystroke_g	g	n/a
224.5175	0.0895	449035	keystroke_r	r	n/a
224.652	0.075	449304	keystroke_o	o	n/a
224.907	0.09	449814	keystroke_w	w	n/a
225.087	0.09	450174	keystroke_t	t	n/a
225.207	0.06	450414	keystroke_h	h	n/a
225.582	0.075	451164	keystroke_Key.enter	Key.enter	n/a
225.6655	9.309	451331	prompt	n/a	beverly congress units regulated\n
226.7525	0.0755	453505	keystroke_b	b	n/a
226.872	0.045	453744	keystroke_e	e	n/a
227.0375	0.0745	454075	keystroke_v	v	n/a
227.172	0.1505	454344	keystroke_e	e	n/a
227.4875	0.12	454975	keystroke_r	r	n/a
229.1975	0.105	458395	keystroke_l	l	n/a
229.2875	0.09	458575	keystroke_y	y	n/a
229.5725	0.105	459145	keystroke_Key.space	Key.space	n/a
230.337	0.09	460674	keystroke_c	c	n/a
230.4875	0.0595	460975	keystroke_o	o	n/a
230.637	0.09	461274	keystroke_n	n	n/a
230.847	0.075	461694	keystroke_g	g	n/a
231.207	0.09	462414	keystroke_r	r	n/a
231.312	0.1055	462624	keystroke_e	e	n/a
231.5375	0.0595	463075	keystroke_s	s	n/a
231.657	0.12	463314	keystroke_s	s	n/a
232.272	0.09	464544	keystroke_Key.space	Key.space	n/a
232.512	0.0755	465024	keystroke_u	u	n/a
232.662	0.12	465324	keystroke_n	n	n/a
232.827	0.075	465654	keystroke_i	i	n/a
232.872	0.075	465744	keystroke_t	t	n/a
233.097	0.09	466194	keystroke_s	s	n/a
233.217	0.105	466434	keystroke_Key.space	Key.space	n/a
233.577	0.06	467154	keystroke_r	r	n/a
233.667	0.105	467334	keystroke_e	e	n/a
233.878	0.075	467756	keystroke_g	g	n/a
233.983	0.075	467966	keystroke_u	u	n/a
234.162	0.091	468324	keystroke_l	l	n/a
234.253	0.09	468506	keystroke_a	a	n/a
234.387	0.1205	468774	keystroke_t	t	n/a
234.4925	0.105	468985	keystroke_e	e	n/a
234.7625	0.105	469525	keystroke_d	d	n/a
234.8825	0.09	469765	keystroke_Key.enter	Key.enter	n/a
234.977	7.617	469954	prompt	n/a	facial merchandise shopzilla department\n
235.7375	0.12	471475	keystroke_f	f	n/a
235.9625	0.09	471925	keystroke_a	a	n/a
236.1125	0.105	472225	keystroke_c	c	n/a
236.2475	0.09	472495	keystroke_i	i	n/a
236.3975	0.105	472795	keystroke_a	a	n/a
236.4875	0.09	472975	keystroke_l	l	n/a
236.6525	0.105	473305	keystroke_Key.space	Key.space	n/a
236.9525	0.09	473905	keystroke_m	m	n/a
237.0725	0.12	474145	keystroke_e	e	n/a
237.1625	0.105	474325	keystroke_r	r	n/a
237.3725	0.105	474745	keystroke_c	c	n/a
237.4925	0.075	474985	keystroke_h	h	n/a
237.5825	0.105	475165	keystroke_a	a	n/a
237.7025	0.09	475405	keystroke_n	n	n/a
237.8525	0.09	475705	keystroke_d	d	n/a
237.9875	0.09	475975	keystroke_i	i	n/a
238.1225	0.0905	476245	keystroke_c	c	n/a
238.6325	0.045	477265	keystroke_Key.backspace	Key.backspace	n/a
238.6925	0.09	477385	keystroke_s	s	n/a
238.8875	0.06	477775	keystroke_e	e	n/a
238.9925	0.105	477985	keystroke_Key.space	Key.space	n/a
239.2175	0.1055	478435	keystroke_s	s	n/a
239.3375	0.075	478675	keystroke_h	h	n/a
239.5175	0.12	479035	keystroke_o	o	n/a
239.728	0.044	479456	keystroke_p	p	n/a
240.102	0.1205	480204	keystroke_z	z	n/a
240.2375	0.09	480475	keystroke_i	i	n/a
240.4175	0.075	480835	keystroke_l	l	n/a
240.5825	0.105	481165	keystroke_l	l	n/a
240.6725	0.105	481345	keystroke_a	a	n/a
240.8975	0.09	481795	keystroke_Key.space	Key.space	n/a
241.0925	0.0895	482185	keystroke_d	d	n/a
241.303	0.0895	482606	keystroke_e	e	n/a
241.407	0.105	482814	keystroke_p	p	n/a
241.498	0.164	482996	keystroke_a	a	n/a
241.618	0.12	483236	keystroke_r	r	n/a
241.857	0.09	483714	keystroke_t	t	n/a
242.0675	0.0755	484135	keystroke_m	m	n/a
242.157	0.0905	484314	keystroke_e	e	n/a
242.278	0.089	484556	keystroke_n	n	n/a
242.353	0.104	484706	keystroke_t	t	n/a
242.503	0.089	485006	keystroke_Key.enter	Key.enter	n/a
242.5975	6.462	485195	prompt	n/a	perl processed rehab measuring\n
243.253	0.0895	486506	keystroke_p	p	n/a
243.327	0.12	486654	keystroke_e	e	n/a
243.403	0.105	486806	keystroke_r	r	n/a
243.5675	0.1045	487135	keystroke_l	l	n/a
243.8075	0.075	487615	keystroke_Key.space	Key.space	n/a
244.0625	0.075	488125	keystroke_p	p	n/a
244.2275	0.0895	488455	keystroke_r	r	n/a
244.393	0.105	488786	keystroke_o	o	n/a
244.482	0.09	488964	keystroke_c	c	n/a
244.618	0.06	489236	keystroke_e	e	n/a
244.797	0.075	489594	keystroke_s	s	n/a
244.948	0.105	489896	keystroke_s	s	n/a
245.142	0.061	490284	keystroke_e	e	n/a
245.307	0.1055	490614	keystroke_d	d	n/a
245.428	0.089	490856	keystroke_Key.space	Key.space	n/a
245.5475	0.0895	491095	keystroke_r	r	n/a
245.623	0.105	491246	keystroke_e	e	n/a
245.757	0.091	491514	keystroke_h	h	n/a
245.848	0.1345	491696	keystroke_a	a	n/a
246.2225	0.0755	492445	keystroke_b	b	n/a
246.4325	0.1045	492865	keystroke_Key.space	Key.space	n/a
246.867	0.0905	493734	keystroke_m	m	n/a
246.928	0.09	493856	keystroke_e	e	n/a
247.108	0.0745	494216	keystroke_a	a	n/a
247.2725	0.1055	494545	keystroke_s	s	n/a
247.693	0.074	495386	keystroke_r	r	n/a
248.1275	0.075	496255	keystroke_Key.backspace	Key.backspace	n/a
248.3525	0.075	496705	keystroke_u	u	n/a
248.473	0.0745	496946	keystroke_r	r	n/a
248.5925	0.12	497185	keystroke_i	i	n/a
248.698	0.135	497396	keystroke_n	n	n/a
248.8175	0.089	497635	keystroke_g	g	n/a
248.9525	0.104	497905	keystroke_Key.enter	Key.enter	n/a
249.0625	4.9015	498125	prompt	n/a	internet from highest cayman\n
249.733	0.09	499466	keystroke_i	i	n/a
249.8975	0.12	499795	keystroke_n	n	n/a
249.9575	0.09	499915	keystroke_t	t	n/a
250.1075	0.12	500215	keystroke_e	e	n/a
250.1975	0.09	500395	keystroke_r	r	n/a
250.333	0.0895	500666	keystroke_n	n	n/a
250.4075	0.105	500815	keystroke_e	e	n/a
250.5275	0.0905	501055	keystroke_t	t	n/a
250.6625	0.09	501325	keystroke_Key.space	Key.space	n/a
250.8125	0.1055	501625	keystroke_f	f	n/a
251.0225	0.12	502045	keystroke_r	r	n/a
251.0675	0.135	502135	keystroke_o	o	n/a
251.1575	0.075	502315	keystroke_m	m	n/a
251.3375	0.09	502675	keystroke_Key.space	Key.space	n/a
251.5775	0.06	503155	keystroke_h	h	n/a
251.7125	0.0895	503425	keystroke_i	i	n/a
251.803	0.0895	503606	keystroke_g	g	n/a
251.982	0.0905	503964	keystroke_h	h	n/a
252.192	0.09	504384	keystroke_e	e	n/a
252.387	0.09	504774	keystroke_s	s	n/a
252.582	0.0905	505164	keystroke_t	t	n/a
252.687	0.09	505374	keystroke_Key.space	Key.space	n/a
252.957	0.09	505914	keystroke_c	c	n/a
253.137	0.1205	506274	keystroke_a	a	n/a
253.2125	0.075	506425	keystroke_y	y	n/a
253.4375	0.09	506875	keystroke_m	m	n/a
253.5425	0.135	507085	keystroke_a	a	n/a
253.6785	0.074	507357	keystroke_n	n	n/a
253.8875	0.075	507775	keystroke_Key.enter	Key.enter	n/a
253.9675	5.6215	507935	prompt	n/a	gentle heater test learners\n
254.8475	0.06	509695	keystroke_g	g	n/a
254.9525	0.105	509905	keystroke_e	e	n/a
255.0875	0.075	510175	keystroke_n	n	n/a
255.1775	0.075	510355	keystroke_t	t	n/a
255.3275	0.105	510655	keystroke_l	l	n/a
255.4475	0.075	510895	keystroke_e	e	n/a
255.5825	0.09	511165	keystroke_Key.space	Key.space	n/a
255.8375	0.09	511675	keystroke_h	h	n/a
255.8675	0.0905	511735	keystroke_e	e	n/a
255.9875	0.135	511975	keystroke_a	a	n/a
256.108	0.09	512216	keystroke_t	t	n/a
256.2275	0.12	512455	keystroke_e	e	n/a
256.3175	0.075	512635	keystroke_r	r	n/a
256.4075	0.0895	512815	keystroke_Key.space	Key.space	n/a
256.5275	0.0905	513055	keystroke_t	t	n/a
256.633	0.0445	513266	keystroke_e	e	n/a
256.8575	0.045	513715	keystroke_s	s	n/a
257.0225	0.09	514045	keystroke_t	t	n/a
257.2325	0.075	514465	keystroke_Key.space	Key.space	n/a
257.4725	0.075	514945	keystroke_m	m	n/a
257.8625	0.075	515725	keystroke_Key.backspace	Key.backspace	n/a
258.0875	0.105	516175	keystroke_l	l	n/a
258.1625	0.135	516325	keystroke_e	e	n/a
258.4625	0.135	516925	keystroke_a	a	n/a
258.5975	0.105	517195	keystroke_r	r	n/a
258.7775	0.075	517555	keystroke_n	n	n/a
258.8675	0.12	517735	keystroke_e	e	n/a
259.0175	0.105	518035	keystroke_r	r	n/a
259.2875	0.105	518575	keystroke_s	s	n/a
259.4975	0.09	518995	keystroke_Key.enter	Key.enter	n/a
259.592	6.297	519184	prompt	n/a	rica grill parents somerset\n
260.3225	0.09	520645	keystroke_r	r	n/a
260.5025	0.075	521005	keystroke_i	i	n/a
260.6225	0.09	521245	keystroke_c	c	n/a
260.8775	0.075	521755	keystroke_a	a	n/a
260.9675	0.105	521935	keystroke_Key.space	Key.space	n/a
261.1475	0.105	522295	keystroke_r	r	n/a
261.597	0.0755	523194	keystroke_Key.backspace	Key.backspace	n/a
261.657	0.09	523314	keystroke_g	g	n/a
261.8675	0.0905	523735	keystroke_r	r	n/a
261.9425	0.1045	523885	keystroke_i	i	n/a
262.1675	0.0895	524335	keystroke_l	l	n/a
262.332	0.075	524664	keystroke_l	l	n/a
262.5125	0.105	525025	keystroke_Key.space	Key.space	n/a
262.8725	0.09	525745	keystroke_p	p	n/a
262.977	0.15	525954	keystroke_a	a	n/a
263.0975	0.09	526195	keystroke_r	r	n/a
263.203	0.1345	526406	keystroke_e	e	n/a
263.3825	0.09	526765	keystroke_n	n	n/a
263.4275	0.09	526855	keystroke_t	t	n/a
263.6675	0.12	527335	keystroke_s	s	n/a
263.8175	0.09	527635	keystroke_Key.space	Key.space	n/a
264.0425	0.12	528085	keystroke_s	s	n/a
264.1325	0.075	528265	keystroke_o	o	n/a
264.2675	0.105	528535	keystroke_m	m	n/a
264.3425	0.1655	528685	keystroke_e	e	n/a
264.4475	0.1055	528895	keystroke_r	r	n/a
264.613	0.135	529226	keystroke_s	s	n/a
265.048	0.12	530096	keystroke_t	t	n/a
265.4375	0.09	530875	keystroke_Key.backspace	Key.backspace	n/a
265.5125	0.12	531025	keystroke_e	e	n/a
265.6475	0.12	531295	keystroke_t	t	n/a
265.7825	0.105	531565	keystroke_Key.enter	Key.enter	n/a
265.8925	7.9915	531785	prompt	n/a	organisation connectors polar mature\n
266.7125	0.09	533425	keystroke_o	o	n/a
266.818	0.09	533636	keystroke_r	r	n/a
267.207	0.106	534414	keystroke_g	g	n/a
267.417	0.091	534834	keystroke_a	a	n/a
267.538	0.09	535076	keystroke_n	n	n/a
267.763	0.074	535526	keystroke_i	i	n/a
267.853	0.104	535706	keystroke_z	z	n/a
268.1675	0.12	536335	keystroke_t	t	n/a
268.8725	0.06	537745	keystroke_Key.backspace	Key.backspace	n/a
268.9625	0.12	537925	keystroke_a	a	n/a
269.1425	0.105	538285	keystroke_t	t	n/a
269.2325	0.135	538465	keystroke_i	i	n/a
269.3075	0.165	538615	keystroke_o	o	n/a
269.3975	0.12	538795	keystroke_n	n	n/a
269.6375	0.09	539275	keystroke_Key.space	Key.space	n/a
270.028	0.104	540056	keystroke_c	c	n/a
270.148	0.089	540296	keystroke_o	o	n/a
270.328	0.075	540656	keystroke_n	n	n/a
270.492	0.12	540984	keystroke_n	n	n/a
270.568	0.09	541136	keystroke_e	e	n/a
270.778	0.1195	541556	keystroke_c	c	n/a
271.0625	0.09	542125	keystroke_t	t	n/a
271.1975	0.0755	542395	keystroke_o	o	n/a
271.2875	0.06	542575	keystroke_r	r	n/a
271.4675	0.105	542935	keystroke_s	s	n/a
271.6175	0.09	543235	keystroke_Key.space	Key.space	n/a
271.8425	0.105	543685	keystroke_p	p	n/a
272.1425	0.105	544285	keystroke_o	o	n/a
272.4425	0.075	544885	keystroke_l	l	n/a
272.5325	0.1355	545065	keystroke_a	a	n/a
272.6225	0.09	545245	keystroke_r	r	n/a
272.7875	0.105	545575	keystroke_Key.space	Key.space	n/a
273.0275	0.075	546055	keystroke_m	m	n/a
273.1475	0.105	546295	keystroke_a	a	n/a
273.2675	0.09	546535	keystroke_t	t	n/a
273.3875	0.075	546775	keystroke_u	u	n/a
273.5225	0.09	547045	keystroke_r	r	n/a
273.568	0.134	547136	keystroke_e	e	n/a
273.777	0.105	547554	keystroke_Key.enter	Key.enter	n/a
273.8875	7.542	547775	prompt	n/a	there'd cycle troops bring\n
274.588	0.1045	549176	keystroke_t	t	n/a
274.7225	0.105	549445	keystroke_h	h	n/a
274.7825	0.15	549565	keystroke_e	e	n/a
275.0525	0.06	550105	keystroke_r	r	n/a
275.3825	0.1045	550765	keystroke_e	e	n/a
275.682	0.135	551364	keystroke_'	'	n/a
275.9075	0.12	551815	keystroke_d	d	n/a
276.1475	0.09	552295	keystroke_Key.space	Key.space	n/a
276.7925	0.105	553585	keystroke_c	c	n/a
277.092	0.105	554184	keystroke_c	c	n/a
277.512	0.075	555024	keystroke_Key.backspace	Key.backspace	n/a
277.797	0.075	555594	keystroke_y	y	n/a
277.9175	0.1045	555835	keystroke_c	c	n/a
278.1575	0.12	556315	keystroke_l	l	n/a
278.293	0.09	556586	keystroke_e	e	n/a
278.5925	0.09	557185	keystroke_Key.space	Key.space	n/a
278.8625	0.105	557725	keystroke_t	t	n/a
279.1025	0.075	558205	keystroke_r	r	n/a
279.2225	0.105	558445	keystroke_o	o	n/a
279.4175	0.12	558835	keystroke_o	o	n/a
279.5225	0.105	559045	keystroke_p	p	n/a
279.6575	0.105	559315	keystroke_s	s	n/a
279.8675	0.075	559735	keystroke_Key.space	Key.space	n/a
280.0925	0.06	560185	keystroke_t	t	n/a
280.4375	0.075	560875	keystroke_Key.backspace	Key.backspace	n/a
280.7075	0.09	561415	keystroke_b	b	n/a
280.8425	0.09	561685	keystroke_r	r	n/a
280.9475	0.15	561895	keystroke_i	i	n/a
281.0675	0.1045	562135	keystroke_n	n	n/a
281.1575	0.0895	562315	keystroke_g	g	n/a
281.3375	0.09	562675	keystroke_Key.enter	Key.enter	n/a
281.433	5.3815	562866	prompt	n/a	stripes shelter wrist misc\n
282.103	0.119	564206	keystroke_s	s	n/a
282.312	0.091	564624	keystroke_t	t	n/a
282.478	0.059	564956	keystroke_r	r	n/a
282.657	0.135	565314	keystroke_i	i	n/a
282.868	0.15	565736	keystroke_p	p	n/a
283.108	0.089	566216	keystroke_e	e	n/a
283.317	0.105	566634	keystroke_s	s	n/a
283.482	0.075	566964	keystroke_Key.space	Key.space	n/a
283.6925	0.12	567385	keystroke_s	s	n/a
283.8425	0.075	567685	keystroke_h	h	n/a
283.9625	0.0905	567925	keystroke_e	e	n/a
284.0675	0.105	568135	keystroke_l	l	n/a
284.1725	0.09	568345	keystroke_t	t	n/a
284.3075	0.165	568615	keystroke_e	e	n/a
284.443	0.0895	568886	keystroke_r	r	n/a
284.563	0.1045	569126	keystroke_Key.space	Key.space	n/a
284.863	0.119	569726	keystroke_w	w	n/a
285.028	0.104	570056	keystroke_r	r	n/a
285.147	0.091	570294	keystroke_i	i	n/a
285.387	0.136	570774	keystroke_s	s	n/a
285.613	0.104	571226	keystroke_t	t	n/a
285.762	0.105	571524	keystroke_Key.space	Key.space	n/a
286.062	0.091	572124	keystroke_m	m	n/a
286.228	0.104	572456	keystroke_i	i	n/a
286.317	0.09	572634	keystroke_s	s	n/a
286.512	0.1205	573024	keystroke_c	c	n/a
286.737	0.0755	573474	keystroke_Key.enter	Key.enter	n/a
286.8175	6.4915	573635	prompt	n/a	activated scheme enabled acquired\n
287.4875	0.06	574975	keystroke_s	s	n/a
288.027	0.075	576054	keystroke_Key.backspace	Key.backspace	n/a
288.087	0.09	576174	keystroke_a	a	n/a
288.237	0.1055	576474	keystroke_c	c	n/a
288.4925	0.12	576985	keystroke_t	t	n/a
288.6875	0.075	577375	keystroke_i	i	n/a
289.1225	0.044	578245	keystroke_v	v	n/a
289.2565	0.106	578513	keystroke_a	a	n/a
289.392	0.1205	578784	keystroke_t	t	n/a
289.4815	0.1055	578963	keystroke_e	e	n/a
289.692	0.09	579384	keystroke_d	d	n/a
289.797	0.1205	579594	keystroke_Key.space	Key.space	n/a
289.902	0.105	579804	keystroke_s	s	n/a
290.067	0.105	580134	keystroke_c	c	n/a
290.187	0.075	580374	keystroke_h	h	n/a
290.337	0.09	580674	keystroke_e	e	n/a
290.457	0.0905	580914	keystroke_m	m	n/a
290.5625	0.075	581125	keystroke_e	e	n/a
290.7575	0.075	581515	keystroke_Key.space	Key.space	n/a
290.8925	0.09	581785	keystroke_e	e	n/a
291.0275	0.09	582055	keystroke_n	n	n/a
291.1325	0.09	582265	keystroke_a	a	n/a
291.3425	0.075	582685	keystroke_b	b	n/a
291.5225	0.09	583045	keystroke_l	l	n/a
291.597	0.076	583194	keystroke_e	e	n/a
291.808	0.074	583616	keystroke_s	s	n/a
291.927	0.09	583854	keystroke_Key.space	Key.space	n/a
292.047	0.12	584094	keystroke_a	a	n/a
292.272	0.09	584544	keystroke_c	c	n/a
292.497	0.12	584994	keystroke_q	q	n/a
292.602	0.0605	585204	keystroke_u	u	n/a
292.7825	0.091	585565	keystroke_i	i	n/a
292.8425	0.09	585685	keystroke_r	r	n/a
292.9025	0.105	585805	keystroke_e	e	n/a
293.0975	0.12	586195	keystroke_d	d	n/a
293.2325	0.075	586465	keystroke_Key.enter	Key.enter	n/a
293.314	8.38	586628	prompt	n/a	obtaining bidder treo notebook\n
294.402	0.075	588804	keystroke_o	o	n/a
294.627	0.0605	589254	keystroke_b	b	n/a
294.717	0.0905	589434	keystroke_t	t	n/a
294.912	0.135	589824	keystroke_a	a	n/a
295.0325	0.1495	590065	keystroke_i	i	n/a
295.1375	0.1355	590275	keystroke_n	n	n/a
296.022	0.135	592044	keystroke_i	i	n/a
296.097	0.1355	592194	keystroke_n	n	n/a
296.202	0.075	592404	keystroke_g	g	n/a
296.352	0.09	592704	keystroke_Key.space	Key.space	n/a
296.742	0.061	593484	keystroke_i	i	n/a
297.087	0.075	594174	keystroke_Key.backspace	Key.backspace	n/a
297.312	0.06	594624	keystroke_b	b	n/a
297.462	0.075	594924	keystroke_i	i	n/a
297.552	0.075	595104	keystroke_d	d	n/a
297.732	0.061	595464	keystroke_d	d	n/a
297.897	0.12	595794	keystroke_e	e	n/a
298.002	0.075	596004	keystroke_r	r	n/a
298.122	0.105	596244	keystroke_Key.space	Key.space	n/a
298.393	0.044	596786	keystroke_t	t	n/a
298.5425	0.1045	597085	keystroke_r	r	n/a
298.842	0.0905	597684	keystroke_e	e	n/a
299.007	0.091	598014	keystroke_o	o	n/a
299.352	0.105	598704	keystroke_Key.space	Key.space	n/a
299.832	0.06	599664	keystroke_n	n	n/a
300.0115	0.091	600023	keystroke_o	o	n/a
300.0865	0.09	600173	keystroke_t	t	n/a
300.5515	0.0905	601103	keystroke_e	e	n/a
300.793	0.074	601586	keystroke_b	b	n/a
301.0015	0.075	602003	keystroke_o	o	n/a
301.1525	0.074	602305	keystroke_o	o	n/a
301.347	0.06	602694	keystroke_k	k	n/a
301.6025	0.089	603205	keystroke_Key.enter	Key.enter	n/a
301.6965	5.487	603393	prompt	n/a	serum aimed wishing depth\n
302.4425	0.105	604885	keystroke_s	s	n/a
302.6665	0.136	605333	keystroke_e	e	n/a
302.7575	0.089	605515	keystroke_r	r	n/a
302.9365	0.091	605873	keystroke_u	u	n/a
303.1475	0.075	606295	keystroke_m	m	n/a
303.3715	0.12	606743	keystroke_Key.space	Key.space	n/a
303.8225	0.105	607645	keystroke_a	a	n/a
304.0315	0.0605	608063	keystroke_i	i	n/a
304.167	0.1055	608334	keystroke_m	m	n/a
304.2425	0.0895	608485	keystroke_e	e	n/a
304.452	0.075	608904	keystroke_d	d	n/a
304.557	0.12	609114	keystroke_Key.space	Key.space	n/a
304.887	0.09	609774	keystroke_w	w	n/a
305.067	0.0755	610134	keystroke_i	i	n/a
305.202	0.12	610404	keystroke_s	s	n/a
305.307	0.09	610614	keystroke_h	h	n/a
305.473	0.119	610946	keystroke_i	i	n/a
305.5325	0.1495	611065	keystroke_n	n	n/a
305.697	0.06	611394	keystroke_g	g	n/a
305.8325	0.1195	611665	keystroke_Key.space	Key.space	n/a
306.2375	0.0895	612475	keystroke_d	d	n/a
306.4325	0.0895	612865	keystroke_e	e	n/a
306.537	0.075	613074	keystroke_p	p	n/a
306.673	0.0895	613346	keystroke_t	t	n/a
306.807	0.075	613614	keystroke_h	h	n/a
307.092	0.0905	614184	keystroke_Key.enter	Key.enter	n/a
307.187	6.4915	614374	prompt	n/a	lowest elsewhere england intention\n
308.023	0.104	616046	keystroke_l	l	n/a
308.232	0.105	616464	keystroke_o	o	n/a
308.352	0.121	616704	keystroke_w	w	n/a
308.967	0.06	617934	keystroke_e	e	n/a
309.132	0.12	618264	keystroke_s	s	n/a
309.373	0.074	618746	keystroke_t	t	n/a
309.537	0.09	619074	keystroke_Key.space	Key.space	n/a
309.912	0.09	619824	keystroke_e	e	n/a
310.062	0.09	620124	keystroke_l	l	n/a
310.137	0.09	620274	keystroke_s	s	n/a
310.347	0.06	620694	keystroke_e	e	n/a
310.587	0.06	621174	keystroke_w	w	n/a
310.677	0.075	621354	keystroke_h	h	n/a
310.753	0.134	621506	keystroke_e	e	n/a
310.857	0.1495	621714	keystroke_r	r	n/a
310.9925	0.045	621985	keystroke_e	e	n/a
311.082	0.0905	622164	keystroke_Key.space	Key.space	n/a
311.2325	0.074	622465	keystroke_e	e	n/a
311.3675	0.089	622735	keystroke_n	n	n/a
311.4425	0.09	622885	keystroke_g	g	n/a
311.6075	0.105	623215	keystroke_l	l	n/a
311.7425	0.09	623485	keystroke_a	a	n/a
311.8625	0.089	623725	keystroke_n	n	n/a
311.9675	0.105	623935	keystroke_d	d	n/a
312.0865	0.106	624173	keystroke_Key.space	Key.space	n/a
312.3725	0.0895	624745	keystroke_i	i	n/a
312.5225	0.12	625045	keystroke_n	n	n/a
312.612	0.0605	625224	keystroke_t	t	n/a
312.7475	0.104	625495	keystroke_e	e	n/a
312.9115	0.076	625823	keystroke_n	n	n/a
313.062	0.0905	626124	keystroke_t	t	n/a
313.1675	0.135	626335	keystroke_i	i	n/a
313.2425	0.15	626485	keystroke_o	o	n/a
313.3175	0.15	626635	keystroke_n	n	n/a
313.5875	0.09	627175	keystroke_Key.enter	Key.enter	n/a
313.6815	5.1725	627363	prompt	n/a	western join herbal trick\n
314.2925	0.075	628585	keystroke_w	w	n/a
314.472	0.045	628944	keystroke_e	e	n/a
314.697	0.075	629394	keystroke_s	s	n/a
314.953	0.089	629906	keystroke_t	t	n/a
315.1025	0.1645	630205	keystroke_e	e	n/a
315.237	0.105	630474	keystroke_r	r	n/a
315.4025	0.0745	630805	keystroke_n	n	n/a
315.5815	0.105	631163	keystroke_Key.space	Key.space	n/a
315.7925	0.105	631585	keystroke_j	j	n/a
316.0325	0.09	632065	keystroke_o	o	n/a
316.2425	0.135	632485	keystroke_i	i	n/a
316.3475	0.105	632695	keystroke_n	n	n/a
316.572	0.09	633144	keystroke_Key.space	Key.space	n/a
316.782	0.091	633564	keystroke_h	h	n/a
316.857	0.105	633714	keystroke_e	e	n/a
316.948	0.074	633896	keystroke_r	r	n/a
317.037	0.09	634074	keystroke_b	b	n/a
317.187	0.12	634374	keystroke_a	a	n/a
317.277	0.12	634554	keystroke_l	l	n/a
317.5925	0.0895	635185	keystroke_Key.space	Key.space	n/a
317.712	0.075	635424	keystroke_t	t	n/a
317.8925	0.06	635785	keystroke_r	r	n/a
317.9825	0.075	635965	keystroke_i	i	n/a
318.1625	0.09	636325	keystroke_c	c	n/a
318.2675	0.0745	636535	keystroke_k	k	n/a
318.762	0.0905	637524	keystroke_Key.enter	Key.enter	n/a
318.857	7.167	637714	prompt	n/a	listed downloadable venue grow\n
319.677	0.0905	639354	keystroke_l	l	n/a
319.872	0.0905	639744	keystroke_i	i	n/a
319.947	0.105	639894	keystroke_s	s	n/a
320.1425	0.1045	640285	keystroke_t	t	n/a
320.202	0.09	640404	keystroke_e	e	n/a
320.397	0.075	640794	keystroke_d	d	n/a
320.562	0.09	641124	keystroke_Key.space	Key.space	n/a
320.817	0.09	641634	keystroke_d	d	n/a
320.952	0.075	641904	keystroke_o	o	n/a
321.132	0.09	642264	keystroke_w	w	n/a
321.267	0.075	642534	keystroke_n	n	n/a
321.447	0.0905	642894	keystroke_l	l	n/a
321.627	0.0905	643254	keystroke_o	o	n/a
321.687	0.0905	643374	keystroke_a	a	n/a
321.837	0.0755	643674	keystroke_d	d	n/a
321.9875	0.105	643975	keystroke_a	a	n/a
322.0925	0.0745	644185	keystroke_b	b	n/a
322.227	0.105	644454	keystroke_l	l	n/a
322.347	0.075	644694	keystroke_e	e	n/a
322.4525	0.09	644905	keystroke_Key.space	Key.space	n/a
322.6925	0.0445	645385	keystroke_b	b	n/a
322.737	0.105	645474	keystroke_e	e	n/a
323.367	0.0455	646734	keystroke_Key.backspace	Key.backspace	n/a
323.517	0.0755	647034	keystroke_Key.backspace	Key.backspace	n/a
324.1775	0.12	648355	keystroke_v	v	n/a
324.3875	0.075	648775	keystroke_e	e	n/a
324.4925	0.09	648985	keystroke_n	n	n/a
324.6575	0.0895	649315	keystroke_u	u	n/a
324.8075	0.09	649615	keystroke_e	e	n/a
324.9875	0.09	649975	keystroke_Key.space	Key.space	n/a
325.3325	0.105	650665	keystroke_g	g	n/a
325.5575	0.06	651115	keystroke_r	r	n/a
325.6325	0.09	651265	keystroke_o	o	n/a
325.7825	0.105	651565	keystroke_w	w	n/a
325.9325	0.09	651865	keystroke_Key.enter	Key.enter	n/a
326.0275	5.9965	652055	prompt	n/a	trigger miniature gather planned\n
327.132	0.1055	654264	keystroke_t	t	n/a
327.253	0.0145	654506	keystroke_r	r	n/a
327.418	0.075	654836	keystroke_i	i	n/a
327.552	0.075	655104	keystroke_g	g	n/a
327.7175	0.0595	655435	keystroke_g	g	n/a
327.8825	0.12	655765	keystroke_e	e	n/a
327.9875	0.075	655975	keystroke_r	r	n/a
328.1075	0.105	656215	keystroke_Key.space	Key.space	n/a
328.3775	0.1045	656755	keystroke_m	m	n/a
328.8125	0.075	657625	keystroke_i	i	n/a
328.963	0.0895	657926	keystroke_n	n	n/a
329.1275	0.105	658255	keystroke_i	i	n/a
329.1875	0.135	658375	keystroke_a	a	n/a
329.3375	0.09	658675	keystroke_t	t	n/a
329.458	0.0895	658916	keystroke_u	u	n/a
329.5625	0.105	659125	keystroke_r	r	n/a
329.6225	0.104	659245	keystroke_e	e	n/a
329.7575	0.105	659515	keystroke_Key.space	Key.space	n/a
329.9975	0.1045	659995	keystroke_g	g	n/a
330.178	0.119	660356	keystroke_a	a	n/a
330.327	0.0755	660654	keystroke_t	t	n/a
330.447	0.075	660894	keystroke_h	h	n/a
330.537	0.09	661074	keystroke_e	e	n/a
330.612	0.0755	661224	keystroke_r	r	n/a
330.7325	0.105	661465	keystroke_Key.space	Key.space	n/a
331.002	0.075	662004	keystroke_p	p	n/a
331.212	0.09	662424	keystroke_l	l	n/a
331.3175	0.075	662635	keystroke_a	a	n/a
331.407	0.0455	662814	keystroke_n	n	n/a
331.542	0.09	663084	keystroke_n	n	n/a
331.6175	0.0745	663235	keystroke_e	e	n/a
331.782	0.1355	663564	keystroke_d	d	n/a
331.9325	0.09	663865	keystroke_Key.enter	Key.enter	n/a
332.027	6.582	664054	prompt	n/a	orange lion villa enquiries\n
332.8175	0.09	665635	keystroke_o	o	n/a
332.9825	0.06	665965	keystroke_r	r	n/a
333.1475	0.09	666295	keystroke_a	a	n/a
333.3725	0.105	666745	keystroke_n	n	n/a
333.5075	0.0895	667015	keystroke_g	g	n/a
333.642	0.0905	667284	keystroke_e	e	n/a
333.807	0.1055	667614	keystroke_Key.space	Key.space	n/a
334.002	0.1055	668004	keystroke_l	l	n/a
334.213	0.165	668426	keystroke_i	i	n/a
334.348	0.164	668696	keystroke_o	o	n/a
334.482	0.106	668964	keystroke_n	n	n/a
334.707	0.091	669414	keystroke_Key.space	Key.space	n/a
335.292	0.091	670584	keystroke_v	v	n/a
335.7425	0.0745	671485	keystroke_i	i	n/a
335.923	0.075	671846	keystroke_l	l	n/a
336.073	0.105	672146	keystroke_l	l	n/a
336.1925	0.12	672385	keystroke_a	a	n/a
336.357	0.09	672714	keystroke_Key.space	Key.space	n/a
336.612	0.09	673224	keystroke_e	e	n/a
336.748	0.089	673496	keystroke_n	n	n/a
337.032	0.091	674064	keystroke_q	q	n/a
337.077	0.075	674154	keystroke_u	u	n/a
337.257	0.091	674514	keystroke_i	i	n/a
337.302	0.121	674604	keystroke_r	r	n/a
337.377	0.121	674754	keystroke_e	e	n/a
337.602	0.0755	675204	keystroke_d	d	n/a
338.187	0.12	676374	keystroke_Key.backspace	Key.backspace	n/a
338.323	0.0745	676646	keystroke_s	s	n/a
338.5165	0.0905	677033	keystroke_Key.enter	Key.enter	n/a
338.6115	6.6125	677223	prompt	n/a	micro compute responding singh\n
339.448	0.105	678896	keystroke_m	m	n/a
339.628	0.12	679256	keystroke_i	i	n/a
339.702	0.136	679404	keystroke_c	c	n/a
339.973	0.089	679946	keystroke_r	r	n/a
340.123	0.0895	680246	keystroke_o	o	n/a
340.5575	0.075	681115	keystroke_Key.space	Key.space	n/a
340.8425	0.105	681685	keystroke_c	c	n/a
340.9325	0.09	681865	keystroke_o	o	n/a
341.0825	0.09	682165	keystroke_m	m	n/a
341.3525	0.105	682705	keystroke_u	u	n/a
341.8475	0.075	683695	keystroke_Key.backspace	Key.backspace	n/a
342.0725	0.105	684145	keystroke_p	p	n/a
342.3725	0.015	684745	keystroke_u	u	n/a
342.4025	0.045	684805	keystroke_t	t	n/a
342.5225	0.075	685045	keystroke_e	e	n/a
342.6725	0.105	685345	keystroke_Key.space	Key.space	n/a
342.898	0.09	685796	keystroke_r	r	n/a
342.958	0.104	685916	keystroke_e	e	n/a
343.168	0.12	686336	keystroke_s	s	n/a
343.258	0.12	686516	keystroke_p	p	n/a
343.363	0.104	686726	keystroke_o	o	n/a
343.528	0.105	687056	keystroke_n	n	n/a
343.648	0.12	687296	keystroke_d	d	n/a
343.753	0.135	687506	keystroke_i	i	n/a
343.828	0.12	687656	keystroke_n	n	n/a
343.933	0.09	687866	keystroke_g	g	n/a
344.067	0.106	688134	keystroke_Key.space	Key.space	n/a
344.2475	0.12	688495	keystroke_s	s	n/a
344.3675	0.06	688735	keystroke_i	i	n/a
344.5175	0.09	689035	keystroke_n	n	n/a
344.6375	0.09	689275	keystroke_g	g	n/a
344.8625	0.09	689725	keystroke_h	h	n/a
345.1475	0.075	690295	keystroke_Key.enter	Key.enter	n/a
345.227	6.027	690454	prompt	n/a	copy estonia temple worker\n
345.9125	0.1355	691825	keystroke_c	c	n/a
346.123	0.194	692246	keystroke_o	o	n/a
346.257	0.1355	692514	keystroke_p	p	n/a
346.422	0.076	692844	keystroke_y	y	n/a
346.677	0.0905	693354	keystroke_Key.space	Key.space	n/a
347.067	0.076	694134	keystroke_e	e	n/a
347.308	0.075	694616	keystroke_s	s	n/a
347.502	0.0905	695004	keystroke_t	t	n/a
347.622	0.0905	695244	keystroke_o	o	n/a
347.773	0.104	695546	keystroke_n	n	n/a
347.907	0.0905	695814	keystroke_i	i	n/a
348.0425	0.09	696085	keystroke_a	a	n/a
348.1625	0.105	696325	keystroke_Key.space	Key.space	n/a
348.6875	0.09	697375	keystroke_t	t	n/a
348.8375	0.09	697675	keystroke_e	e	n/a
348.9425	0.09	697885	keystroke_m	m	n/a
349.1525	0.09	698305	keystroke_p	p	n/a
349.6325	0.1055	699265	keystroke_l	l	n/a
349.7675	0.0895	699535	keystroke_e	e	n/a
349.917	0.0755	699834	keystroke_Key.space	Key.space	n/a
350.082	0.045	700164	keystroke_w	w	n/a
350.157	0.075	700314	keystroke_o	o	n/a
350.247	0.106	700494	keystroke_r	r	n/a
350.397	0.09	700794	keystroke_k	k	n/a
350.8925	0.12	701785	keystroke_e	e	n/a
350.9975	0.105	701995	keystroke_r	r	n/a
351.1475	0.105	702295	keystroke_Key.enter	Key.enter	n/a
351.257	8.533	702514	prompt	n/a	highlight electro pixels held\n
352.0925	0.09	704185	keystroke_h	h	n/a
352.2425	0.09	704485	keystroke_i	i	n/a
352.3475	0.075	704695	keystroke_g	g	n/a
352.4525	0.075	704905	keystroke_h	h	n/a
352.6175	0.105	705235	keystroke_l	l	n/a
352.7525	0.09	705505	keystroke_i	i	n/a
352.8575	0.06	705715	keystroke_g	g	n/a
353.008	0.0745	706016	keystroke_h	h	n/a
353.1275	0.09	706255	keystroke_t	t	n/a
353.322	0.0905	706644	keystroke_Key.space	Key.space	n/a
353.5625	0.105	707125	keystroke_e	e	n/a
354.0125	0.0905	708025	keystroke_l	l	n/a
354.2225	0.075	708445	keystroke_e	e	n/a
354.4175	0.09	708835	keystroke_c	c	n/a
354.6725	0.0755	709345	keystroke_t	t	n/a
354.838	0.09	709676	keystroke_r	r	n/a
354.9425	0.075	709885	keystroke_o	o	n/a
355.183	0.1045	710366	keystroke_Key.space	Key.space	n/a
355.4525	0.09	710905	keystroke_p	p	n/a
355.6775	0.06	711355	keystroke_i	i	n/a
355.9475	0.1055	711895	keystroke_z	z	n/a
356.503	0.06	713006	keystroke_Key.backspace	Key.backspace	n/a
356.608	0.12	713216	keystroke_z	z	n/a
357.252	0.09	714504	keystroke_Key.backspace	Key.backspace	n/a
357.402	0.091	714804	keystroke_x	x	n/a
357.868	0.075	715736	keystroke_e	e	n/a
358.002	0.105	716004	keystroke_l	l	n/a
358.152	0.091	716304	keystroke_s	s	n/a
358.257	0.09	716514	keystroke_Key.space	Key.space	n/a
358.468	0.075	716936	keystroke_h	h	n/a
358.543	0.18	717086	keystroke_e	e	n/a
358.707	0.105	717414	keystroke_l	l	n/a
359.127	0.106	718254	keystroke_d	d	n/a
359.698	0.089	719396	keystroke_Key.enter	Key.enter	n/a
359.7925	12.5065	719585	prompt	n/a	administrators prize camps charitable\n
360.7175	0.09	721435	keystroke_a	a	n/a
360.8975	0.105	721795	keystroke_d	d	n/a
361.1975	0.0905	722395	keystroke_m	m	n/a
361.363	0.1345	722726	keystroke_i	i	n/a
361.4825	0.09	722965	keystroke_n	n	n/a
361.6625	0.135	723325	keystroke_i	i	n/a
361.723	0.105	723446	keystroke_s	s	n/a
361.888	0.1045	723776	keystroke_t	t	n/a
362.0675	0.075	724135	keystroke_r	r	n/a
362.2025	0.1355	724405	keystroke_a	a	n/a
362.3825	0.0905	724765	keystroke_t	t	n/a
362.5025	0.1055	725005	keystroke_o	o	n/a
362.608	0.0745	725216	keystroke_r	r	n/a
362.7875	0.105	725575	keystroke_s	s	n/a
362.9225	0.09	725845	keystroke_Key.space	Key.space	n/a
363.388	0.1045	726776	keystroke_p	p	n/a
363.508	0.075	727016	keystroke_r	r	n/a
363.643	0.09	727286	keystroke_o	o	n/a
363.658	0.045	727316	keystroke_i	i	n/a
363.823	0.135	727646	keystroke_z	z	n/a
364.108	0.105	728216	keystroke_e	e	n/a
364.438	0.075	728876	keystroke_Key.backspace	Key.backspace	n/a
364.603	0.09	729206	keystroke_Key.backspace	Key.backspace	n/a
364.768	0.09	729536	keystroke_Key.backspace	Key.backspace	n/a
365.0675	0.09	730135	keystroke_i	i	n/a
365.4125	0.075	730825	keystroke_Key.backspace	Key.backspace	n/a
365.713	0.09	731426	keystroke_i	i	n/a
366.1175	0.075	732235	keystroke_Key.backspace	Key.backspace	n/a
366.2675	0.0445	732535	keystroke_Key.backspace	Key.backspace	n/a
367.077	0.106	734154	keystroke_i	i	n/a
367.167	0.121	734334	keystroke_z	z	n/a
367.363	0.09	734726	keystroke_e	e	n/a
367.557	0.106	735114	keystroke_Key.space	Key.space	n/a
367.918	0.1045	735836	keystroke_c	c	n/a
368.143	0.105	736286	keystroke_a	a	n/a
368.263	0.105	736526	keystroke_m	m	n/a
368.458	0.0745	736916	keystroke_p	p	n/a
368.563	0.09	737126	keystroke_s	s	n/a
368.758	0.09	737516	keystroke_Key.space	Key.space	n/a
369.4925	0.06	738985	keystroke_c	c	n/a
369.6425	0.075	739285	keystroke_h	h	n/a
369.8075	0.105	739615	keystroke_a	a	n/a
370.3325	0.045	740665	keystroke_r	r	n/a
370.543	0.075	741086	keystroke_i	i	n/a
370.993	0.075	741986	keystroke_t	t	n/a
371.368	0.104	742736	keystroke_a	a	n/a
371.488	0.09	742976	keystroke_b	b	n/a
371.622	0.105	743244	keystroke_l	l	n/a
371.713	0.089	743426	keystroke_e	e	n/a
371.878	0.12	743756	keystroke_Key.space	Key.space	n/a
372.207	0.09	744414	keystroke_Key.enter	Key.enter	n/a
372.3035	5.141	744607	prompt	n/a	clearly sight pockets proud\n
373.122	0.1055	746244	keystroke_c	c	n/a
373.2425	0.105	746485	keystroke_l	l	n/a
373.3625	0.06	746725	keystroke_e	e	n/a
373.482	0.165	746964	keystroke_a	a	n/a
373.6325	0.12	747265	keystroke_r	r	n/a
374.188	0.0745	748376	keystroke_l	l	n/a
374.248	0.0745	748496	keystroke_y	y	n/a
374.4275	0.09	748855	keystroke_Key.space	Key.space	n/a
374.5475	0.135	749095	keystroke_s	s	n/a
374.683	0.0745	749366	keystroke_i	i	n/a
374.7875	0.09	749575	keystroke_g	g	n/a
374.8785	0.089	749757	keystroke_h	h	n/a
375.0275	0.1055	750055	keystroke_t	t	n/a
375.1775	0.1045	750355	keystroke_Key.space	Key.space	n/a
375.433	0.09	750866	keystroke_p	p	n/a
375.657	0.091	751314	keystroke_o	o	n/a
375.808	0.074	751616	keystroke_c	c	n/a
375.913	0.105	751826	keystroke_k	k	n/a
376.033	0.09	752066	keystroke_e	e	n/a
376.168	0.09	752336	keystroke_t	t	n/a
376.378	0.105	752756	keystroke_s	s	n/a
376.512	0.091	753024	keystroke_Key.space	Key.space	n/a
376.723	0.075	753446	keystroke_p	p	n/a
376.783	0.089	753566	keystroke_r	r	n/a
376.933	0.195	753866	keystroke_o	o	n/a
377.023	0.1345	754046	keystroke_u	u	n/a
377.1875	0.09	754375	keystroke_d	d	n/a
377.3375	0.105	754675	keystroke_Key.enter	Key.enter	n/a
377.447	10.377	754894	prompt	n/a	positioning peripherals strengthening judy\n
378.192	0.1055	756384	keystroke_p	p	n/a
378.342	0.135	756684	keystroke_o	o	n/a
378.492	0.09	756984	keystroke_s	s	n/a
378.627	0.075	757254	keystroke_i	i	n/a
378.717	0.076	757434	keystroke_t	t	n/a
378.8375	0.1805	757675	keystroke_i	i	n/a
378.913	0.149	757826	keystroke_o	o	n/a
379.018	0.104	758036	keystroke_n	n	n/a
379.212	0.075	758424	keystroke_i	i	n/a
379.272	0.135	758544	keystroke_n	n	n/a
379.422	0.0755	758844	keystroke_g	g	n/a
379.5875	0.075	759175	keystroke_Key.space	Key.space	n/a
380.442	0.075	760884	keystroke_p	p	n/a
380.742	0.166	761484	keystroke_e	e	n/a
380.9225	0.0755	761845	keystroke_r	r	n/a
381.1025	0.09	762205	keystroke_i	i	n/a
381.3125	0.075	762625	keystroke_p	p	n/a
381.4775	0.1055	762955	keystroke_h	h	n/a
381.6275	0.135	763255	keystroke_e	e	n/a
381.7325	0.1205	763465	keystroke_r	r	n/a
381.9125	0.0905	763825	keystroke_a	a	n/a
381.988	0.075	763976	keystroke_l	l	n/a
382.093	0.12	764186	keystroke_s	s	n/a
382.227	0.1055	764454	keystroke_Key.space	Key.space	n/a
382.4225	0.1045	764845	keystroke_s	s	n/a
382.6325	0.075	765265	keystroke_t	t	n/a
383.3075	0.075	766615	keystroke_r	r	n/a
383.4275	0.105	766855	keystroke_e	e	n/a
383.6375	0.0745	767275	keystroke_h	h	n/a
384.1625	0.105	768325	keystroke_Key.backspace	Key.backspace	n/a
384.3725	0.09	768745	keystroke_n	n	n/a
385.0475	0.045	770095	keystroke_g	g	n/a
385.2575	0.06	770515	keystroke_t	t	n/a
385.3325	0.0895	770665	keystroke_h	h	n/a
385.752	0.09	771504	keystroke_e	e	n/a
385.8875	0.09	771775	keystroke_n	n	n/a
386.068	0.119	772136	keystroke_i	i	n/a
386.157	0.1205	772314	keystroke_n	n	n/a
386.247	0.076	772494	keystroke_g	g	n/a
386.412	0.09	772824	keystroke_Key.space	Key.space	n/a
386.652	0.106	773304	keystroke_j	j	n/a
386.9075	0.075	773815	keystroke_u	u	n/a
386.9975	0.105	773995	keystroke_d	d	n/a
387.3875	0.075	774775	keystroke_y	y	n/a
387.7325	0.09	775465	keystroke_Key.enter	Key.enter	n/a
387.8275	7.632	775655	prompt	n/a	earliest ranked medicine irrigation\n
388.5275	0.09	777055	keystroke_e	e	n/a
388.7075	0.15	777415	keystroke_a	a	n/a
388.9175	0.09	777835	keystroke_r	r	n/a
389.1125	0.09	778225	keystroke_l	l	n/a
389.3375	0.075	778675	keystroke_i	i	n/a
389.6975	0.09	779395	keystroke_e	e	n/a
390.1175	0.09	780235	keystroke_t	t	n/a
390.2825	0.105	780565	keystroke_Key.space	Key.space	n/a
390.8375	0.075	781675	keystroke_Key.backspace	Key.backspace	n/a
390.987	0.12	781974	keystroke_Key.backspace	Key.backspace	n/a
391.1225	0.0895	782245	keystroke_s	s	n/a
391.317	0.076	782634	keystroke_t	t	n/a
391.452	0.105	782904	keystroke_Key.space	Key.space	n/a
391.647	0.09	783294	keystroke_r	r	n/a
391.857	0.075	783714	keystroke_a	a	n/a
391.887	0.106	783774	keystroke_n	n	n/a
392.0825	0.0895	784165	keystroke_k	k	n/a
392.173	0.074	784346	keystroke_e	e	n/a
392.337	0.106	784674	keystroke_d	d	n/a
392.487	0.075	784974	keystroke_Key.space	Key.space	n/a
392.7125	0.1045	785425	keystroke_m	m	n/a
392.802	0.091	785604	keystroke_e	e	n/a
392.997	0.075	785994	keystroke_d	d	n/a
393.073	0.074	786146	keystroke_i	i	n/a
393.207	0.105	786414	keystroke_c	c	n/a
393.343	0.15	786686	keystroke_i	i	n/a
393.4625	0.1505	786925	keystroke_n	n	n/a
393.628	0.0895	787256	keystroke_e	e	n/a
393.7475	0.105	787495	keystroke_Key.space	Key.space	n/a
393.9875	0.075	787975	keystroke_i	i	n/a
394.1075	0.06	788215	keystroke_r	r	n/a
394.258	0.0895	788516	keystroke_r	r	n/a
394.3925	0.135	788785	keystroke_i	i	n/a
394.5425	0.105	789085	keystroke_g	g	n/a
394.7375	0.15	789475	keystroke_a	a	n/a
394.8725	0.1055	789745	keystroke_t	t	n/a
394.9475	0.135	789895	keystroke_i	i	n/a
395.0075	0.165	790015	keystroke_o	o	n/a
395.0975	0.15	790195	keystroke_n	n	n/a
395.3825	0.0745	790765	keystroke_Key.enter	Key.enter	n/a
395.4625	7.722	790925	prompt	n/a	gasoline chassis requesting cartoon\n
396.7325	0.075	793465	keystroke_g	g	n/a
396.9125	0.1645	793825	keystroke_a	a	n/a
397.047	0.1055	794094	keystroke_s	s	n/a
397.4075	0.105	794815	keystroke_o	o	n/a
397.6175	0.09	795235	keystroke_l	l	n/a
397.858	0.135	795716	keystroke_i	i	n/a
397.978	0.09	795956	keystroke_n	n	n/a
398.068	0.089	796136	keystroke_e	e	n/a
398.247	0.075	796494	keystroke_Key.space	Key.space	n/a
398.488	0.104	796976	keystroke_c	c	n/a
398.952	0.06	797904	keystroke_h	h	n/a
399.0575	0.1045	798115	keystroke_a	a	n/a
399.253	0.044	798506	keystroke_s	s	n/a
399.402	0.09	798804	keystroke_s	s	n/a
399.507	0.06	799014	keystroke_i	i	n/a
399.612	0.0905	799224	keystroke_s	s	n/a
399.7325	0.105	799465	keystroke_Key.space	Key.space	n/a
399.9575	0.0745	799915	keystroke_r	r	n/a
400.092	0.105	800184	keystroke_e	e	n/a
400.302	0.12	800604	keystroke_q	q	n/a
400.452	0.03	800904	keystroke_u	u	n/a
400.527	0.0755	801054	keystroke_e	e	n/a
400.7225	0.105	801445	keystroke_s	s	n/a
400.962	0.0905	801924	keystroke_t	t	n/a
401.0535	0.134	802107	keystroke_i	i	n/a
401.128	0.1045	802256	keystroke_n	n	n/a
401.2475	0.075	802495	keystroke_g	g	n/a
401.3675	0.105	802735	keystroke_Key.space	Key.space	n/a
401.803	0.0895	803606	keystroke_c	c	n/a
401.9975	0.15	803995	keystroke_a	a	n/a
402.1325	0.075	804265	keystroke_r	r	n/a
402.4925	0.075	804985	keystroke_t	t	n/a
402.6125	0.075	805225	keystroke_o	o	n/a
402.778	0.075	805556	keystroke_o	o	n/a
402.9125	0.06	805825	keystroke_n	n	n/a
403.0925	0.09	806185	keystroke_Key.enter	Key.enter	n/a
403.187	4.8275	806374	prompt	n/a	camel lately packed ncaa\n
403.8875	0.105	807775	keystroke_c	c	n/a
404.083	0.1495	808166	keystroke_a	a	n/a
404.2175	0.075	808435	keystroke_m	m	n/a
404.4125	0.12	808825	keystroke_e	e	n/a
404.5475	0.09	809095	keystroke_l	l	n/a
404.7725	0.1055	809545	keystroke_Key.space	Key.space	n/a
405.0875	0.075	810175	keystroke_l	l	n/a
405.1475	0.135	810295	keystroke_a	a	n/a
405.3125	0.09	810625	keystroke_t	t	n/a
405.4175	0.075	810835	keystroke_e	e	n/a
405.5225	0.09	811045	keystroke_l	l	n/a
405.6575	0.075	811315	keystroke_y	y	n/a
405.7925	0.09	811585	keystroke_Key.space	Key.space	n/a
406.0025	0.09	812005	keystroke_p	p	n/a
406.0625	0.09	812125	keystroke_a	a	n/a
406.1975	0.12	812395	keystroke_c	c	n/a
406.3625	0.075	812725	keystroke_k	k	n/a
406.4525	0.0905	812905	keystroke_e	e	n/a
406.632	0.09	813264	keystroke_d	d	n/a
406.752	0.105	813504	keystroke_Key.space	Key.space	n/a
407.052	0.1055	814104	keystroke_n	n	n/a
407.232	0.075	814464	keystroke_c	c	n/a
407.397	0.09	814794	keystroke_a	a	n/a
407.532	0.12	815064	keystroke_a	a	n/a
407.9225	0.09	815845	keystroke_Key.enter	Key.enter	n/a
408.0185	9.0255	816037	prompt	n/a	employers realtor onto protect\n
408.5685	0.074	817137	keystroke_a	a	n/a
408.6875	0.075	817375	keystroke_m	m	n/a
409.0175	0.0905	818035	keystroke_p	p	n/a
409.4525	0.0755	818905	keystroke_Key.backspace	Key.backspace	n/a
409.6175	0.075	819235	keystroke_Key.backspace	Key.backspace	n/a
409.7525	0.075	819505	keystroke_Key.backspace	Key.backspace	n/a
409.872	0.06	819744	keystroke_e	e	n/a
410.0225	0.0755	820045	keystroke_m	m	n/a
410.248	0.089	820496	keystroke_p	p	n/a
410.488	0.089	820976	keystroke_l	l	n/a
410.563	0.104	821126	keystroke_y	y	n/a
410.817	0.12	821634	keystroke_e	e	n/a
411.4025	0.0895	822805	keystroke_Key.backspace	Key.backspace	n/a
411.5975	0.0745	823195	keystroke_Key.backspace	Key.backspace	n/a
412.332	0.09	824664	keystroke_o	o	n/a
412.468	0.089	824936	keystroke_y	y	n/a
412.663	0.18	825326	keystroke_e	e	n/a
412.783	0.105	825566	keystroke_r	r	n/a
413.0675	0.09	826135	keystroke_s	s	n/a
413.1875	0.09	826375	keystroke_Key.space	Key.space	n/a
413.533	0.045	827066	keystroke_r	r	n/a
413.548	0.15	827096	keystroke_e	e	n/a
413.713	0.1345	827426	keystroke_a	a	n/a
413.833	0.0745	827666	keystroke_l	l	n/a
414.0425	0.1055	828085	keystroke_t	t	n/a
414.1925	0.09	828385	keystroke_o	o	n/a
414.2975	0.09	828595	keystroke_r	r	n/a
414.4775	0.09	828955	keystroke_Key.space	Key.space	n/a
414.9275	0.06	829855	keystroke_o	o	n/a
415.0775	0.075	830155	keystroke_n	n	n/a
415.1675	0.075	830335	keystroke_t	t	n/a
415.2875	0.09	830575	keystroke_o	o	n/a
415.572	0.09	831144	keystroke_Key.space	Key.space	n/a
415.782	0.061	831564	keystroke_p	p	n/a
415.857	0.09	831714	keystroke_r	r	n/a
416.007	0.106	832014	keystroke_o	o	n/a
416.127	0.061	832254	keystroke_t	t	n/a
416.2475	0.0905	832495	keystroke_e	e	n/a
416.488	0.105	832976	keystroke_c	c	n/a
416.802	0.075	833604	keystroke_t	t	n/a
416.938	0.104	833876	keystroke_Key.enter	Key.enter	n/a
417.05	8.1845	834100	prompt	n/a	jets international sessions console\n
418.258	0.0895	836516	keystroke_j	j	n/a
418.3175	0.1355	836635	keystroke_e	e	n/a
418.483	0.0595	836966	keystroke_t	t	n/a
418.6625	0.105	837325	keystroke_s	s	n/a
418.8125	0.105	837625	keystroke_Key.space	Key.space	n/a
419.203	0.0745	838406	keystroke_i	i	n/a
419.3675	0.105	838735	keystroke_n	n	n/a
419.4425	0.075	838885	keystroke_t	t	n/a
419.5625	0.12	839125	keystroke_e	e	n/a
419.6525	0.06	839305	keystroke_r	r	n/a
419.7875	0.105	839575	keystroke_n	n	n/a
419.9075	0.12	839815	keystroke_a	a	n/a
420.0125	0.075	840025	keystroke_t	t	n/a
420.0725	0.1495	840145	keystroke_i	i	n/a
420.1325	0.165	840265	keystroke_o	o	n/a
420.223	0.119	840446	keystroke_n	n	n/a
420.388	0.12	840776	keystroke_s	s	n/a
420.8075	0.06	841615	keystroke_Key.backspace	Key.backspace	n/a
420.9275	0.09	841855	keystroke_a	a	n/a
421.0475	0.1055	842095	keystroke_l	l	n/a
421.2575	0.0905	842515	keystroke_Key.space	Key.space	n/a
422.1875	0.12	844375	keystroke_s	s	n/a
422.517	0.061	845034	keystroke_e	e	n/a
422.712	0.0605	845424	keystroke_s	s	n/a
422.863	0.1345	845726	keystroke_s	s	n/a
422.967	0.15	845934	keystroke_i	i	n/a
423.042	0.1815	846084	keystroke_o	o	n/a
423.163	0.1055	846326	keystroke_n	n	n/a
423.2975	0.1045	846595	keystroke_s	s	n/a
423.492	0.045	846984	keystroke_Key.space	Key.space	n/a
424.2125	0.06	848425	keystroke_c	c	n/a
424.3475	0.075	848695	keystroke_o	o	n/a
424.528	0.0595	849056	keystroke_n	n	n/a
424.618	0.105	849236	keystroke_s	s	n/a
424.723	0.0745	849446	keystroke_o	o	n/a
424.903	0.0745	849806	keystroke_l	l	n/a
424.9625	0.135	849925	keystroke_e	e	n/a
425.1575	0.0755	850315	keystroke_Key.enter	Key.enter	n/a
425.2375	11.442	850475	prompt	n/a	acdbentity hang dude liquid\n
425.848	0.105	851696	keystroke_a	a	n/a
426.193	0.075	852386	keystroke_c	c	n/a
427.108	0.09	854216	keystroke_d	d	n/a
430.1235	0.014	860247	keystroke_b	b	n/a
430.1525	0.09	860305	keystroke_e	e	n/a
430.3625	0.0755	860725	keystroke_n	n	n/a
430.993	0.074	861986	keystroke_t	t	n/a
431.203	0.089	862406	keystroke_i	i	n/a
431.323	0.119	862646	keystroke_t	t	n/a
431.548	0.105	863096	keystroke_y	y	n/a
432.267	0.12	864534	keystroke_Key.space	Key.space	n/a
432.957	0.06	865914	keystroke_h	h	n/a
433.0325	0.1055	866065	keystroke_a	a	n/a
433.2135	0.1035	866427	keystroke_n	n	n/a
433.692	0.09	867384	keystroke_g	g	n/a
433.887	0.105	867774	keystroke_Key.space	Key.space	n/a
434.038	0.09	868076	keystroke_d	d	n/a
434.142	0.075	868284	keystroke_u	u	n/a
434.232	0.076	868464	keystroke_d	d	n/a
434.442	0.075	868884	keystroke_e	e	n/a
434.607	0.076	869214	keystroke_Key.space	Key.space	n/a
434.863	0.059	869726	keystroke_l	l	n/a
435.208	0.105	870416	keystroke_i	i	n/a
435.507	0.076	871014	keystroke_q	q	n/a
435.673	0.074	871346	keystroke_u	u	n/a
436.017	0.091	872034	keystroke_i	i	n/a
436.258	0.09	872516	keystroke_d	d	n/a
436.572	0.105	873144	keystroke_Key.enter	Key.enter	n/a
436.6825	6.372	873365	prompt	n/a	friends conducting history combo\n
437.653	0.045	875306	keystroke_f	f	n/a
437.833	0.075	875666	keystroke_r	r	n/a
437.938	0.09	875876	keystroke_i	i	n/a
438.043	0.12	876086	keystroke_e	e	n/a
438.192	0.106	876384	keystroke_n	n	n/a
438.253	0.09	876506	keystroke_d	d	n/a
438.448	0.06	876896	keystroke_s	s	n/a
438.553	0.09	877106	keystroke_Key.space	Key.space	n/a
438.733	0.09	877466	keystroke_c	c	n/a
438.808	0.09	877616	keystroke_o	o	n/a
438.973	0.075	877946	keystroke_n	n	n/a
439.063	0.075	878126	keystroke_d	d	n/a
439.183	0.105	878366	keystroke_u	u	n/a
439.243	0.12	878486	keystroke_c	c	n/a
439.528	0.06	879056	keystroke_t	t	n/a
439.573	0.135	879146	keystroke_i	i	n/a
439.648	0.12	879296	keystroke_n	n	n/a
439.783	0.09	879566	keystroke_g	g	n/a
439.888	0.09	879776	keystroke_Key.space	Key.space	n/a
440.428	0.075	880856	keystroke_h	h	n/a
440.623	0.105	881246	keystroke_i	i	n/a
440.8025	0.1055	881605	keystroke_s	s	n/a
441.028	0.045	882056	keystroke_t	t	n/a
441.133	0.074	882266	keystroke_o	o	n/a
441.222	0.0905	882444	keystroke_r	r	n/a
441.403	0.0745	882806	keystroke_y	y	n/a
441.6275	0.105	883255	keystroke_Key.space	Key.space	n/a
441.9875	0.105	883975	keystroke_c	c	n/a
442.1075	0.09	884215	keystroke_o	o	n/a
442.2575	0.045	884515	keystroke_m	m	n/a
442.483	0.09	884966	keystroke_b	b	n/a
442.7075	0.06	885415	keystroke_o	o	n/a
442.9625	0.09	885925	keystroke_Key.enter	Key.enter	n/a
443.0575	8.502	886115	prompt	n/a	that're suppliers mail republic\n
443.7125	0.09	887425	keystroke_t	t	n/a
443.8175	0.09	887635	keystroke_h	h	n/a
443.9225	0.12	887845	keystroke_e	e	n/a
444.3575	0.105	888715	keystroke_t	t	n/a
445.1975	0.06	890395	keystroke_'	'	n/a
445.3175	0.1045	890635	keystroke_r	r	n/a
445.377	0.1055	890754	keystroke_e	e	n/a
445.5725	0.09	891145	keystroke_Key.space	Key.space	n/a
446.0525	0.075	892105	keystroke_s	s	n/a
446.1425	0.075	892285	keystroke_u	u	n/a
446.3385	0.074	892677	keystroke_p	p	n/a
446.4725	0.075	892945	keystroke_p	p	n/a
446.6375	0.1055	893275	keystroke_l	l	n/a
446.803	0.09	893606	keystroke_i	i	n/a
446.878	0.135	893756	keystroke_e	e	n/a
446.983	0.09	893966	keystroke_r	r	n/a
447.193	0.09	894386	keystroke_s	s	n/a
447.313	0.09	894626	keystroke_Key.space	Key.space	n/a
447.6125	0.12	895225	keystroke_m	m	n/a
447.748	0.0745	895496	keystroke_a	a	n/a
447.838	0.225	895676	keystroke_i	i	n/a
447.988	0.12	895976	keystroke_l	l	n/a
448.273	0.105	896546	keystroke_Key.space	Key.space	n/a
448.573	0.06	897146	keystroke_r	r	n/a
448.663	0.105	897326	keystroke_e	e	n/a
449.503	0.12	899006	keystroke_p	p	n/a
450.193	0.09	900386	keystroke_u	u	n/a
450.418	0.09	900836	keystroke_b	b	n/a
450.643	0.09	901286	keystroke_l	l	n/a
450.808	0.09	901616	keystroke_i	i	n/a
450.943	0.135	901886	keystroke_c	c	n/a
451.438	0.12	902876	keystroke_Key.enter	Key.enter	n/a
451.562	6.103	903124	prompt	n/a	proc guess leasing offshore\n
452.398	0.12	904796	keystroke_p	p	n/a
452.623	0.105	905246	keystroke_r	r	n/a
452.803	0.09	905606	keystroke_o	o	n/a
453.043	0.105	906086	keystroke_c	c	n/a
453.688	0.089	907376	keystroke_Key.space	Key.space	n/a
454.393	0.045	908786	keystroke_g	g	n/a
454.513	0.105	909026	keystroke_u	u	n/a
454.588	0.09	909176	keystroke_e	e	n/a
454.813	0.045	909626	keystroke_s	s	n/a
454.963	0.104	909926	keystroke_s	s	n/a
455.082	0.09	910164	keystroke_Key.space	Key.space	n/a
455.263	0.119	910526	keystroke_l	l	n/a
455.338	0.075	910676	keystroke_e	e	n/a
455.503	0.12	911006	keystroke_a	a	n/a
455.607	0.12	911214	keystroke_s	s	n/a
455.713	0.134	911426	keystroke_i	i	n/a
455.818	0.12	911636	keystroke_n	n	n/a
455.922	0.105	911844	keystroke_g	g	n/a
456.088	0.105	912176	keystroke_Key.space	Key.space	n/a
456.448	0.09	912896	keystroke_o	o	n/a
456.598	0.045	913196	keystroke_f	f	n/a
456.718	0.06	913436	keystroke_f	f	n/a
456.898	0.09	913796	keystroke_s	s	n/a
457.078	0.06	914156	keystroke_h	h	n/a
457.243	0.075	914486	keystroke_o	o	n/a
457.318	0.12	914636	keystroke_r	r	n/a
457.408	0.135	914816	keystroke_e	e	n/a
457.558	0.105	915116	keystroke_Key.enter	Key.enter	n/a
457.6705	9.354	915341	prompt	n/a	classifieds treasurer beach procurement\n
458.773	0.105	917546	keystroke_c	c	n/a
458.908	0.105	917816	keystroke_l	l	n/a
459.103	0.075	918206	keystroke_a	a	n/a
459.163	0.075	918326	keystroke_s	s	n/a
459.358	0.075	918716	keystroke_s	s	n/a
460.288	0.075	920576	keystroke_i	i	n/a
460.408	0.06	920816	keystroke_f	f	n/a
460.528	0.09	921056	keystroke_i	i	n/a
460.573	0.105	921146	keystroke_e	e	n/a
460.783	0.12	921566	keystroke_d	d	n/a
460.917	0.106	921834	keystroke_Key.space	Key.space	n/a
461.098	0.06	922196	keystroke_t	t	n/a
461.263	0.15	922526	keystroke_r	r	n/a
461.4275	0.1055	922855	keystroke_e	e	n/a
461.622	0.076	923244	keystroke_a	a	n/a
461.742	0.136	923484	keystroke_s	s	n/a
461.863	0.09	923726	keystroke_u	u	n/a
462.013	0.135	924026	keystroke_r	r	n/a
462.073	0.12	924146	keystroke_e	e	n/a
462.6575	0.0895	925315	keystroke_Key.backspace	Key.backspace	n/a
463.333	0.09	926666	keystroke_e	e	n/a
463.453	0.09	926906	keystroke_r	r	n/a
463.678	0.105	927356	keystroke_Key.space	Key.space	n/a
464.383	0.075	928766	keystroke_b	b	n/a
464.428	0.105	928856	keystroke_e	e	n/a
464.593	0.0895	929186	keystroke_a	a	n/a
464.7275	0.135	929455	keystroke_c	c	n/a
464.8475	0.0755	929695	keystroke_h	h	n/a
465.0275	0.1205	930055	keystroke_Key.space	Key.space	n/a
465.253	0.0895	930506	keystroke_p	p	n/a
465.3575	0.075	930715	keystroke_r	r	n/a
465.4775	0.09	930955	keystroke_o	o	n/a
465.6725	0.136	931345	keystroke_c	c	n/a
465.9425	0.105	931885	keystroke_u	u	n/a
466.0925	0.15	932185	keystroke_r	r	n/a
466.1975	0.105	932395	keystroke_e	e	n/a
466.4675	0.09	932935	keystroke_m	m	n/a
466.5725	0.06	933145	keystroke_e	e	n/a
466.6925	0.09	933385	keystroke_n	n	n/a
466.7975	0.0755	933595	keystroke_t	t	n/a
466.9325	0.09	933865	keystroke_Key.enter	Key.enter	n/a
467.028	6.9115	934056	prompt	n/a	assessment invest witness postage\n
467.697	0.1205	935394	keystroke_a	a	n/a
467.863	0.09	935726	keystroke_s	s	n/a
468.0125	0.12	936025	keystroke_s	s	n/a
468.238	0.06	936476	keystroke_e	e	n/a
468.433	0.075	936866	keystroke_s	s	n/a
468.568	0.12	937136	keystroke_s	s	n/a
468.718	0.09	937436	keystroke_m	m	n/a
468.823	0.09	937646	keystroke_e	e	n/a
468.958	0.09	937916	keystroke_n	n	n/a
469.033	0.105	938066	keystroke_t	t	n/a
469.183	0.09	938366	keystroke_Key.space	Key.space	n/a
469.408	0.075	938816	keystroke_i	i	n/a
469.558	0.105	939116	keystroke_n	n	n/a
469.618	0.09	939236	keystroke_v	v	n/a
469.813	0.075	939626	keystroke_e	e	n/a
470.023	0.09	940046	keystroke_s	s	n/a
470.248	0.09	940496	keystroke_t	t	n/a
470.398	0.105	940796	keystroke_Key.space	Key.space	n/a
470.638	0.06	941276	keystroke_e	e	n/a
471.148	0.075	942296	keystroke_Key.backspace	Key.backspace	n/a
471.223	0.075	942446	keystroke_w	w	n/a
471.4325	0.075	942865	keystroke_i	i	n/a
471.5225	0.1055	943045	keystroke_t	t	n/a
471.9275	0.0905	943855	keystroke_n	n	n/a
472.0325	0.09	944065	keystroke_e	e	n/a
472.2575	0.045	944515	keystroke_s	s	n/a
472.4075	0.09	944815	keystroke_s	s	n/a
472.4825	0.075	944965	keystroke_Key.space	Key.space	n/a
472.6625	0.105	945325	keystroke_p	p	n/a
472.8575	0.12	945715	keystroke_o	o	n/a
472.9925	0.12	945985	keystroke_s	s	n/a
473.2175	0.06	946435	keystroke_t	t	n/a
473.3825	0.075	946765	keystroke_a	a	n/a
473.5025	0.1205	947005	keystroke_g	g	n/a
473.6975	0.12	947395	keystroke_e	e	n/a
473.8325	0.1055	947665	keystroke_Key.enter	Key.enter	n/a
473.943	7.3615	947886	prompt	n/a	supporters warriors guides moderator\n
474.673	0.1195	949346	keystroke_s	s	n/a
474.778	0.0745	949556	keystroke_u	u	n/a
474.973	0.06	949946	keystroke_p	p	n/a
475.123	0.135	950246	keystroke_p	p	n/a
475.228	0.12	950456	keystroke_o	o	n/a
475.273	0.09	950546	keystroke_r	r	n/a
475.468	0.06	950936	keystroke_t	t	n/a
475.603	0.15	951206	keystroke_e	e	n/a
475.708	0.075	951416	keystroke_r	r	n/a
475.902	0.106	951804	keystroke_s	s	n/a
476.038	0.105	952076	keystroke_Key.space	Key.space	n/a
476.683	0.075	953366	keystroke_w	w	n/a
476.833	0.105	953666	keystroke_a	a	n/a
476.968	0.09	953936	keystroke_r	r	n/a
477.133	0.105	954266	keystroke_r	r	n/a
477.253	0.075	954506	keystroke_i	i	n/a
477.403	0.09	954806	keystroke_o	o	n/a
477.538	0.075	955076	keystroke_r	r	n/a
477.718	0.09	955436	keystroke_s	s	n/a
477.853	0.105	955706	keystroke_Key.space	Key.space	n/a
478.573	0.074	957146	keystroke_g	g	n/a
478.767	0.045	957534	keystroke_u	u	n/a
478.933	0.089	957866	keystroke_i	i	n/a
479.008	0.075	958016	keystroke_d	d	n/a
479.203	0.06	958406	keystroke_e	e	n/a
479.383	0.09	958766	keystroke_s	s	n/a
479.5325	0.09	959065	keystroke_Key.space	Key.space	n/a
479.9075	0.09	959815	keystroke_m	m	n/a
480.2075	0.076	960415	keystroke_o	o	n/a
480.298	0.0895	960596	keystroke_d	d	n/a
480.4925	0.105	960985	keystroke_e	e	n/a
480.5835	0.075	961167	keystroke_r	r	n/a
480.7025	0.12	961405	keystroke_a	a	n/a
480.8085	0.075	961617	keystroke_t	t	n/a
480.9275	0.0905	961855	keystroke_o	o	n/a
481.0325	0.0905	962065	keystroke_r	r	n/a
481.198	0.1045	962396	keystroke_Key.enter	Key.enter	n/a
481.3075	6.7475	962615	prompt	n/a	hughes independent tons todd\n
482.278	0.075	964556	keystroke_h	h	n/a
482.428	0.075	964856	keystroke_u	u	n/a
482.518	0.075	965036	keystroke_g	g	n/a
482.713	0.105	965426	keystroke_h	h	n/a
482.803	0.06	965606	keystroke_e	e	n/a
482.968	0.12	965936	keystroke_s	s	n/a
483.103	0.075	966206	keystroke_Key.space	Key.space	n/a
483.313	0.075	966626	keystroke_i	i	n/a
483.463	0.1195	966926	keystroke_n	n	n/a
483.5375	0.09	967075	keystroke_d	d	n/a
483.7325	0.1345	967465	keystroke_e	e	n/a
484.228	0.0895	968456	keystroke_p	p	n/a
484.5425	0.09	969085	keystroke_e	e	n/a
484.7525	0.075	969505	keystroke_n	n	n/a
484.9175	0.12	969835	keystroke_d	d	n/a
485.9075	0.075	971815	keystroke_e	e	n/a
486.1175	0.075	972235	keystroke_n	n	n/a
486.1935	0.089	972387	keystroke_t	t	n/a
486.3575	0.09	972715	keystroke_Key.space	Key.space	n/a
486.6575	0.0905	973315	keystroke_t	t	n/a
486.7625	0.06	973525	keystroke_o	o	n/a
486.8975	0.075	973795	keystroke_n	n	n/a
487.0025	0.12	974005	keystroke_s	s	n/a
487.1375	0.06	974275	keystroke_Key.space	Key.space	n/a
487.2725	0.09	974545	keystroke_t	t	n/a
487.378	0.1045	974756	keystroke_o	o	n/a
487.5125	0.075	975025	keystroke_d	d	n/a
487.6175	0.12	975235	keystroke_d	d	n/a
487.9775	0.0755	975955	keystroke_Key.enter	Key.enter	n/a
488.0575	5.3075	976115	prompt	n/a	disclaimer intent individuals up\n
488.6525	0.0755	977305	keystroke_d	d	n/a
488.7725	0.105	977545	keystroke_i	i	n/a
488.8925	0.0755	977785	keystroke_s	s	n/a
489.0425	0.105	978085	keystroke_c	c	n/a
489.1775	0.0755	978355	keystroke_l	l	n/a
489.3125	0.105	978625	keystroke_a	a	n/a
489.403	0.1045	978806	keystroke_i	i	n/a
489.478	0.135	978956	keystroke_m	m	n/a
489.553	0.135	979106	keystroke_e	e	n/a
489.643	0.09	979286	keystroke_r	r	n/a
489.868	0.075	979736	keystroke_Key.space	Key.space	n/a
490.063	0.075	980126	keystroke_i	i	n/a
490.183	0.105	980366	keystroke_n	n	n/a
490.258	0.075	980516	keystroke_t	t	n/a
490.393	0.0895	980786	keystroke_e	e	n/a
490.5425	0.105	981085	keystroke_n	n	n/a
490.693	0.0895	981386	keystroke_t	t	n/a
490.8575	0.09	981715	keystroke_Key.space	Key.space	n/a
491.173	0.09	982346	keystroke_i	i	n/a
491.338	0.105	982676	keystroke_n	n	n/a
491.4575	0.0905	982915	keystroke_d	d	n/a
491.578	0.0895	983156	keystroke_i	i	n/a
491.7425	0.09	983485	keystroke_v	v	n/a
491.9075	0.0905	983815	keystroke_i	i	n/a
492.118	0.0895	984236	keystroke_d	d	n/a
492.2225	0.09	984445	keystroke_u	u	n/a
492.3575	0.0905	984715	keystroke_a	a	n/a
492.4925	0.0755	984985	keystroke_l	l	n/a
492.5975	0.1055	985195	keystroke_s	s	n/a
492.6875	0.075	985375	keystroke_Key.space	Key.space	n/a
492.913	0.06	985826	keystroke_u	u	n/a
493.063	0.075	986126	keystroke_p	p	n/a
493.303	0.0595	986606	keystroke_Key.enter	Key.enter	n/a
493.369	7.091	986738	prompt	n/a	fake dense flash steering\n
494.742	0.076	989484	keystroke_f	f	n/a
494.877	0.106	989754	keystroke_a	a	n/a
495.027	0.075	990054	keystroke_k	k	n/a
495.133	0.104	990266	keystroke_e	e	n/a
495.267	0.091	990534	keystroke_Key.space	Key.space	n/a
495.597	0.091	991194	keystroke_d	d	n/a
495.793	0.075	991586	keystroke_e	e	n/a
495.9285	0.0895	991857	keystroke_n	n	n/a
496.048	0.12	992096	keystroke_s	s	n/a
496.303	0.09	992606	keystroke_e	e	n/a
496.497	0.09	992994	keystroke_Key.space	Key.space	n/a
497.518	0.074	995036	keystroke_f	f	n/a
497.638	0.09	995276	keystroke_l	l	n/a
497.743	0.15	995486	keystroke_a	a	n/a
497.878	0.135	995756	keystroke_s	s	n/a
498.433	0.06	996866	keystroke_h	h	n/a
498.6425	0.105	997285	keystroke_Key.space	Key.space	n/a
499.198	0.0595	998396	keystroke_s	s	n/a
499.3925	0.075	998785	keystroke_t	t	n/a
499.5585	0.074	999117	keystroke_e	e	n/a
499.7085	0.1345	999417	keystroke_e	e	n/a
499.8125	0.121	999625	keystroke_r	r	n/a
499.9775	0.15	999955	keystroke_i	i	n/a
500.0525	0.135	1000105	keystroke_n	n	n/a
500.1725	0.091	1000345	keystroke_g	g	n/a
500.3675	0.09	1000735	keystroke_Key.enter	Key.enter	n/a
500.4635	6.5505	1000927	prompt	n/a	reasons why're dressing brother\n
501.5685	0.0895	1003137	keystroke_r	r	n/a
501.628	0.09	1003256	keystroke_e	e	n/a
501.808	0.06	1003616	keystroke_a	a	n/a
501.898	0.09	1003796	keystroke_s	s	n/a
502.018	0.105	1004036	keystroke_o	o	n/a
502.168	0.09	1004336	keystroke_n	n	n/a
502.303	0.09	1004606	keystroke_s	s	n/a
502.408	0.105	1004816	keystroke_Key.space	Key.space	n/a
502.588	0.075	1005176	keystroke_w	w	n/a
502.693	0.0745	1005386	keystroke_h	h	n/a
502.888	0.06	1005776	keystroke_y	y	n/a
503.203	0.105	1006406	keystroke_'	'	n/a
503.428	0.059	1006856	keystroke_t	t	n/a
503.953	0.0745	1007906	keystroke_Key.backspace	Key.backspace	n/a
504.058	0.105	1008116	keystroke_r	r	n/a
504.133	0.105	1008266	keystroke_e	e	n/a
504.343	0.09	1008686	keystroke_Key.space	Key.space	n/a
504.613	0.105	1009226	keystroke_d	d	n/a
504.838	0.105	1009676	keystroke_r	r	n/a
504.883	0.105	1009766	keystroke_e	e	n/a
505.108	0.06	1010216	keystroke_s	s	n/a
505.288	0.12	1010576	keystroke_s	s	n/a
505.363	0.15	1010726	keystroke_i	i	n/a
505.453	0.1195	1010906	keystroke_n	n	n/a
505.5585	0.089	1011117	keystroke_g	g	n/a
505.6925	0.105	1011385	keystroke_Key.space	Key.space	n/a
505.963	0.0895	1011926	keystroke_b	b	n/a
506.203	0.0595	1012406	keystroke_r	r	n/a
506.3375	0.075	1012675	keystroke_o	o	n/a
506.4425	0.09	1012885	keystroke_t	t	n/a
506.5775	0.09	1013155	keystroke_h	h	n/a
506.6685	0.119	1013337	keystroke_e	e	n/a
506.7425	0.105	1013485	keystroke_r	r	n/a
506.9075	0.105	1013815	keystroke_Key.enter	Key.enter	n/a
507.0175	7.3925	1014035	prompt	n/a	you'd dependent list keyboards\n
507.8835	0.0895	1015767	keystroke_t	t	n/a
508.348	0.075	1016696	keystroke_Key.backspace	Key.backspace	n/a
508.4375	0.045	1016875	keystroke_y	y	n/a
508.6175	0.15	1017235	keystroke_o	o	n/a
508.663	0.1195	1017326	keystroke_u	u	n/a
508.948	0.0895	1017896	keystroke_'	'	n/a
509.053	0.1195	1018106	keystroke_d	d	n/a
509.2775	0.075	1018555	keystroke_Key.space	Key.space	n/a
