onset	duration	sample	value	key	prompt_text
1.321	11.6725	2642	prompt	n/a	the quick brown fox jumps over a lazy dog\n
3.514	0.0265	7028	keystroke_t	t	n/a
3.514	0.102	7028	keystroke_h	h	n/a
3.631	0.12	7262	keystroke_e	e	n/a
3.6905	0.1345	7381	keystroke_Key.space	Key.space	n/a
3.916	0.12	7832	keystroke_w	w	n/a
4.607	0.118	9214	keystroke_Key.backspace	Key.backspace	n/a
4.9805	0.135	9961	keystroke_q	q	n/a
5.1305	0.164	10261	keystroke_u	u	n/a
5.2505	0.149	10501	keystroke_i	i	n/a
5.3855	0.135	10771	keystroke_c	c	n/a
5.5055	0.225	11011	keystroke_k	k	n/a
5.655	0.1195	11310	keystroke_Key.space	Key.space	n/a
6.2405	0.12	12481	keystroke_b	b	n/a
6.4195	0.0765	12839	keystroke_r	r	n/a
6.481	0.1045	12962	keystroke_o	o	n/a
6.6155	0.1645	13231	keystroke_w	w	n/a
6.7055	0.18	13411	keystroke_n	n	n/a
6.8095	0.1505	13619	keystroke_Key.space	Key.space	n/a
7.8155	0.1195	15631	keystroke_f	f	n/a
7.9505	0.12	15901	keystroke_o	o	n/a
8.2805	0.135	16561	keystroke_x	x	n/a
8.3855	0.0895	16771	keystroke_Key.space	Key.space	n/a
8.5805	0.0745	17161	keystroke_j	j	n/a
8.7455	0.12	17491	keystroke_u	u	n/a
8.985	0.075	17970	keystroke_m	m	n/a
9.1655	0.075	18331	keystroke_p	p	n/a
9.2705	0.1655	18541	keystroke_s	s	n/a
9.3905	0.0895	18781	keystroke_Key.space	Key.space	n/a
9.5405	0.0745	19081	keystroke_o	o	n/a
9.7205	0.0895	19441	keystroke_b	b	n/a
9.795	0.165	19590	keystroke_e	e	n/a
9.9155	0.09	19831	keystroke_r	r	n/a
9.9755	0.0895	19951	keystroke_Key.space	Key.space	n/a
10.0805	0.165	20161	keystroke_a	a	n/a
10.17	0.09	20340	keystroke_Key.space	Key.space	n/a
10.74	0.165	21480	keystroke_l	l	n/a
10.9205	0.045	21841	keystroke_a	a	n/a
11.175	0.2105	22350	keystroke_z	z	n/a
11.355	0.1645	22710	keystroke_y	y	n/a
11.444	0.1205	22888	keystroke_Key.space	Key.space	n/a
11.955	0.0895	23910	keystroke_f	f	n/a
12.345	0.1205	24690	keystroke_Key.backspace	Key.backspace	n/a
12.4955	0.12	24991	keystroke_d	d	n/a
12.601	0.104	25202	keystroke_o	o	n/a
12.7655	0.105	25531	keystroke_g	g	n/a
12.9305	0.06	25861	keystroke_Key.enter	Key.enter	n/a
12.9995	8.6475	25999	prompt	n/a	cattle pentium fought biol\n
14.0255	0.105	28051	keystroke_c	c	n/a
14.4155	0.135	28831	keystroke_a	a	n/a
14.6405	0.045	29281	keystroke_l	l	n/a
15	0.09	30000	keystroke_Key.backspace	Key.backspace	n/a
15.1655	0.075	30331	keystroke_t	t	n/a
15.315	0.091	30630	keystroke_t	t	n/a
15.3905	0.12	30781	keystroke_l	l	n/a
15.4955	0.1795	30991	keystroke_e	e	n/a
15.63	0.0905	31260	keystroke_Key.space	Key.space	n/a
15.84	0.106	31680	keystroke_p	p	n/a
15.93	0.15	31860	keystroke_r	r	n/a
16.021	0.1345	32042	keystroke_e	e	n/a
16.5155	0.075	33031	keystroke_m	m	n/a
16.8	0.046	33600	keystroke_i	i	n/a
16.9655	0.09	33931	keystroke_u	u	n/a
17.19	0.21	34380	keystroke_m	m	n/a
17.3245	0.121	34649	keystroke_Key.space	Key.space	n/a
19.4255	0.1345	38851	keystroke_f	f	n/a
19.4855	0.1945	38971	keystroke_o	o	n/a
19.59	0.166	39180	keystroke_u	u	n/a
20.0105	0.12	40021	keystroke_g	g	n/a
20.1005	0.12	40201	keystroke_h	h	n/a
20.19	0.15	40380	keystroke_t	t	n/a
20.325	0.1355	40650	keystroke_Key.space	Key.space	n/a
20.775	0.0905	41550	keystroke_b	b	n/a
20.9705	0.105	41941	keystroke_i	i	n/a
21.1655	0.0755	42331	keystroke_o	o	n/a
21.345	0.1055	42690	keystroke_l	l	n/a
21.5855	0.059	43171	keystroke_Key.enter	Key.enter	n/a
21.652	8.4705	43304	prompt	n/a	and icon household catalyst\n
22.5455	0.1345	45091	keystroke_a	a	n/a
22.59	0.1355	45180	keystroke_n	n	n/a
22.8155	0.15	45631	keystroke_d	d	n/a
22.92	0.06	45840	keystroke_Key.space	Key.space	n/a
23.115	0.09	46230	keystroke_i	i	n/a
23.415	0.015	46830	keystroke_n	n	n/a
23.8055	0.12	47611	keystroke_Key.backspace	Key.backspace	n/a
24.48	0.1805	48960	keystroke_c	c	n/a
24.6305	0.0755	49261	keystroke_o	o	n/a
24.8105	0.225	49621	keystroke_n	n	n/a
24.9455	0.1345	49891	keystroke_Key.space	Key.space	n/a
25.59	0.1055	51180	keystroke_h	h	n/a
25.77	0.21	51540	keystroke_o	o	n/a
25.8755	0.15	51751	keystroke_u	u	n/a
26.115	0.12	52230	keystroke_s	s	n/a
26.565	0.09	53130	keystroke_Key.backspace	Key.backspace	n/a
26.6705	0.1495	53341	keystroke_e	e	n/a
26.8655	0.075	53731	keystroke_h	h	n/a
27.045	0.091	54090	keystroke_o	o	n/a
27.21	0.1205	54420	keystroke_l	l	n/a
27.345	0.151	54690	keystroke_d	d	n/a
27.4655	0.1045	54931	keystroke_Key.space	Key.space	n/a
27.975	0.1505	55950	keystroke_c	c	n/a
28.0805	0.18	56161	keystroke_a	a	n/a
29.055	0.1505	58110	keystroke_a	a	n/a
29.19	0.1055	58380	keystroke_l	l	n/a
29.4755	0.06	58951	keystroke_y	y	n/a
29.6105	0.135	59221	keystroke_s	s	n/a
29.8805	0.136	59761	keystroke_t	t	n/a
30.0305	0.09	60061	keystroke_Key.enter	Key.enter	n/a
30.128	14.4695	60256	prompt	n/a	shirt manhattan trigger stopping\n
38.8545	0.086	77709	keystroke_s	s	n/a
38.8805	0.105	77761	keystroke_h	h	n/a
38.9855	0.165	77971	keystroke_i	i	n/a
39.1365	0.179	78273	keystroke_r	r	n/a
39.2555	0.165	78511	keystroke_t	t	n/a
39.4355	0.135	78871	keystroke_Key.space	Key.space	n/a
39.7055	0.105	79411	keystroke_m	m	n/a
39.8705	0.03	79741	keystroke_a	a	n/a
39.9155	0.1055	79831	keystroke_n	n	n/a
40.47	0.136	80940	keystroke_h	h	n/a
40.5455	0.1355	81091	keystroke_a	a	n/a
40.786	0.075	81572	keystroke_t	t	n/a
40.951	0.075	81902	keystroke_t	t	n/a
41.1155	0.1355	82231	keystroke_a	a	n/a
41.206	0.194	82412	keystroke_n	n	n/a
41.3105	0.135	82621	keystroke_Key.space	Key.space	n/a
41.655	0.166	83310	keystroke_t	t	n/a
41.761	0.15	83522	keystroke_r	r	n/a
41.97	0.1215	83940	keystroke_i	i	n/a
42.375	0.091	84750	keystroke_g	g	n/a
42.5255	0.121	85051	keystroke_g	g	n/a
42.6755	0.18	85351	keystroke_e	e	n/a
42.7655	0.15	85531	keystroke_r	r	n/a
42.8855	0.105	85771	keystroke_Key.space	Key.space	n/a
43.0655	0.15	86131	keystroke_s	s	n/a
43.261	0.1495	86522	keystroke_t	t	n/a
43.3805	0.09	86761	keystroke_o	o	n/a
43.5905	0.061	87181	keystroke_p	p	n/a
43.7255	0.12	87451	keystroke_p	p	n/a
44.0105	0.09	88021	keystroke_i	i	n/a
44.176	0.12	88352	keystroke_n	n	n/a
44.311	0.12	88622	keystroke_g	g	n/a
44.535	0.06	89070	keystroke_Key.enter	Key.enter	n/a
44.6075	7.8045	89215	prompt	n/a	owned dress matter kilometers\n
45.4955	0.1495	90991	keystroke_o	o	n/a
45.93	0.1655	91860	keystroke_w	w	n/a
46.0805	0.1205	92161	keystroke_n	n	n/a
46.215	0.1805	92430	keystroke_d	d	n/a
46.681	0.104	93362	keystroke_Key.backspace	Key.backspace	n/a
46.771	0.15	93542	keystroke_e	e	n/a
46.875	0.121	93750	keystroke_d	d	n/a
47.04	0.12	94080	keystroke_Key.space	Key.space	n/a
47.9555	0.105	95911	keystroke_d	d	n/a
48.1955	0.12	96391	keystroke_r	r	n/a
48.2555	0.1345	96511	keystroke_e	e	n/a
48.496	0.0595	96992	keystroke_s	s	n/a
48.691	0.1195	97382	keystroke_s	s	n/a
48.781	0.089	97562	keystroke_Key.space	Key.space	n/a
48.9605	0.1505	97921	keystroke_m	m	n/a
49.036	0.1345	98072	keystroke_a	a	n/a
49.2455	0.09	98491	keystroke_t	t	n/a
49.4105	0.12	98821	keystroke_t	t	n/a
49.5755	0.1955	99151	keystroke_e	e	n/a
49.6955	0.0905	99391	keystroke_r	r	n/a
49.755	0.1355	99510	keystroke_Key.space	Key.space	n/a
50.071	0.105	100142	keystroke_k	k	n/a
50.296	0.075	100592	keystroke_i	i	n/a
50.506	0.0745	101012	keystroke_l	l	n/a
50.6855	0.09	101371	keystroke_o	o	n/a
50.8805	0.1195	101761	keystroke_m	m	n/a
51.015	0.151	102030	keystroke_e	e	n/a
51.241	0.105	102482	keystroke_t	t	n/a
51.421	0.21	102842	keystroke_e	e	n/a
51.976	0.1495	103952	keystroke_r	r	n/a
52.201	0.149	104402	keystroke_s	s	n/a
52.3355	0.0745	104671	keystroke_Key.enter	Key.enter	n/a
52.42	7.0595	104840	prompt	n/a	entitled clean latex desert\n
53.131	0.1495	106262	keystroke_e	e	n/a
53.25	0.1055	106500	keystroke_n	n	n/a
53.385	0.121	106770	keystroke_t	t	n/a
53.4905	0.1205	106981	keystroke_i	i	n/a
53.612	0.149	107224	keystroke_t	t	n/a
53.806	0.12	107612	keystroke_l	l	n/a
53.895	0.121	107790	keystroke_e	e	n/a
54.496	0.1345	108992	keystroke_d	d	n/a
54.6155	0.1195	109231	keystroke_Key.space	Key.space	n/a
54.795	0.196	109590	keystroke_c	c	n/a
54.961	0.149	109922	keystroke_l	l	n/a
55.096	0.119	110192	keystroke_e	e	n/a
55.2905	0.1645	110581	keystroke_a	a	n/a
55.3805	0.15	110761	keystroke_n	n	n/a
55.5	0.075	111000	keystroke_Key.space	Key.space	n/a
55.6515	0.1335	111303	keystroke_l	l	n/a
55.77	0.1205	111540	keystroke_a	a	n/a
56.49	0.12	112980	keystroke_t	t	n/a
56.641	0.134	113282	keystroke_e	e	n/a
57.526	0.15	115052	keystroke_x	x	n/a
57.6905	0.1345	115381	keystroke_Key.space	Key.space	n/a
58.08	0.135	116160	keystroke_d	d	n/a
58.17	0.165	116340	keystroke_e	e	n/a
58.531	0.2095	117062	keystroke_s	s	n/a
58.6505	0.3005	117301	keystroke_e	e	n/a
58.8605	0.165	117721	keystroke_r	r	n/a
59.146	0.1645	118292	keystroke_t	t	n/a
59.3705	0.1055	118741	keystroke_Key.enter	Key.enter	n/a
59.4955	6.8225	118991	prompt	n/a	dumb names predictions popular\n
60.4955	0.15	120991	keystroke_d	d	n/a
60.5705	0.09	121141	keystroke_u	u	n/a
60.7955	0.0905	121591	keystroke_m	m	n/a
61.0055	0.1655	122011	keystroke_b	b	n/a
61.1255	0.0745	122251	keystroke_Key.space	Key.space	n/a
61.275	0.151	122550	keystroke_n	n	n/a
61.35	0.1805	122700	keystroke_a	a	n/a
61.5455	0.1205	123091	keystroke_m	m	n/a
61.666	0.1195	123332	keystroke_e	e	n/a
61.8755	0.165	123751	keystroke_s	s	n/a
62.011	0.1045	124022	keystroke_Key.space	Key.space	n/a
62.2205	0.075	124441	keystroke_p	p	n/a
62.3855	0.165	124771	keystroke_r	r	n/a
62.5055	0.12	125011	keystroke_e	e	n/a
62.955	0.1355	125910	keystroke_d	d	n/a
63.0755	0.1205	126151	keystroke_i	i	n/a
63.211	0.105	126422	keystroke_c	c	n/a
63.5555	0.1205	127111	keystroke_t	t	n/a
63.6305	0.135	127261	keystroke_i	i	n/a
63.721	0.1045	127442	keystroke_o	o	n/a
63.9155	0.105	127831	keystroke_n	n	n/a
63.9905	0.18	127981	keystroke_s	s	n/a
64.1855	0.075	128371	keystroke_Key.space	Key.space	n/a
64.3805	0.21	128761	keystroke_p	p	n/a
64.5155	0.15	129031	keystroke_o	o	n/a
64.92	0.136	129840	keystroke_p	p	n/a
65.19	0.1055	130380	keystroke_u	u	n/a
65.4455	0.135	130891	keystroke_l	l	n/a
65.836	0.119	131672	keystroke_a	a	n/a
66.0155	0.165	132031	keystroke_r	r	n/a
66.211	0.1045	132422	keystroke_Key.enter	Key.enter	n/a
66.325	11.497	132650	prompt	n/a	checkout institutions boxed dependence\n
67.0955	0.135	134191	keystroke_c	c	n/a
67.2145	0.1215	134429	keystroke_h	h	n/a
67.3205	0.135	134641	keystroke_e	e	n/a
67.515	0.18	135030	keystroke_c	c	n/a
67.635	0.12	135270	keystroke_k	k	n/a
67.9205	0.165	135841	keystroke_o	o	n/a
68.0245	0.106	136049	keystroke_u	u	n/a
68.3705	0.03	136741	keystroke_t	t	n/a
68.3845	0.091	136769	keystroke_Key.space	Key.space	n/a
68.67	0.076	137340	keystroke_i	i	n/a
68.851	0.1195	137702	keystroke_n	n	n/a
69.3455	0.075	138691	keystroke_s	s	n/a
69.8855	0.1655	139771	keystroke_t	t	n/a
70.3355	0.135	140671	keystroke_i	i	n/a
70.8905	0.135	141781	keystroke_t	t	n/a
71.0555	0.195	142111	keystroke_u	u	n/a
71.5655	0.18	143131	keystroke_t	t	n/a
71.6555	0.195	143311	keystroke_i	i	n/a
71.7905	0.09	143581	keystroke_o	o	n/a
72.0005	0.09	144001	keystroke_n	n	n/a
72.091	0.165	144182	keystroke_s	s	n/a
72.2265	0.119	144453	keystroke_Key.space	Key.space	n/a
72.6155	0.105	145231	keystroke_b	b	n/a
72.8405	0.1205	145681	keystroke_o	o	n/a
73.4255	0.1645	146851	keystroke_x	x	n/a
73.726	0.195	147452	keystroke_e	e	n/a
73.8605	0.165	147721	keystroke_d	d	n/a
73.95	0.1505	147900	keystroke_Key.space	Key.space	n/a
74.7305	0.1355	149461	keystroke_d	d	n/a
74.7905	0.165	149581	keystroke_e	e	n/a
75.2095	0.106	150419	keystroke_p	p	n/a
75.3005	0.18	150601	keystroke_e	e	n/a
75.4955	0.1205	150991	keystroke_n	n	n/a
75.69	0.136	151380	keystroke_d	d	n/a
75.871	0.194	151742	keystroke_e	e	n/a
75.991	0.1345	151982	keystroke_d	d	n/a
76.1705	0.1205	152341	keystroke_n	n	n/a
76.6205	0.06	153241	keystroke_Key.backspace	Key.backspace	n/a
76.7705	0.059	153541	keystroke_Key.backspace	Key.backspace	n/a
76.9955	0.12	153991	keystroke_n	n	n/a
77.1005	0.18	154201	keystroke_c	c	n/a
77.1905	0.195	154381	keystroke_e	e	n/a
77.7605	0.06	155521	keystroke_Key.enter	Key.enter	n/a
77.829	10.8525	155658	prompt	n/a	savannah actions races verzeichnis\n
78.6755	0.09	157351	keystroke_s	s	n/a
78.9305	0.15	157861	keystroke_a	a	n/a
79.0955	0.105	158191	keystroke_v	v	n/a
79.2155	0.165	158431	keystroke_a	a	n/a
79.3655	0.075	158731	keystroke_n	n	n/a
79.5155	0.1055	159031	keystroke_n	n	n/a
79.635	0.181	159270	keystroke_a	a	n/a
79.756	0.2395	159512	keystroke_h	h	n/a
79.92	0.165	159840	keystroke_Key.space	Key.space	n/a
80.4605	0.105	160921	keystroke_a	a	n/a
80.6855	0.1205	161371	keystroke_c	c	n/a
80.9555	0.195	161911	keystroke_t	t	n/a
81.0605	0.136	162121	keystroke_i	i	n/a
81.1655	0.09	162331	keystroke_o	o	n/a
81.3455	0.09	162691	keystroke_n	n	n/a
81.4055	0.1505	162811	keystroke_s	s	n/a
81.5255	0.135	163051	keystroke_Key.space	Key.space	n/a
81.8855	0.135	163771	keystroke_r	r	n/a
81.9605	0.1355	163921	keystroke_e	e	n/a
82.5755	0.135	165151	keystroke_Key.backspace	Key.backspace	n/a
82.7405	0.135	165481	keystroke_a	a	n/a
82.9955	0.1345	165991	keystroke_c	c	n/a
83.251	0.1045	166502	keystroke_e	e	n/a
83.4455	0.165	166891	keystroke_s	s	n/a
83.5505	0.135	167101	keystroke_Key.space	Key.space	n/a
84.451	0.0895	168902	keystroke_v	v	n/a
84.5855	0.195	169171	keystroke_e	e	n/a
84.7055	0.135	169411	keystroke_r	r	n/a
86.296	0.149	172592	keystroke_z	z	n/a
86.656	0.119	173312	keystroke_e	e	n/a
86.865	0.135	173730	keystroke_i	i	n/a
87.676	0.18	175352	keystroke_v	v	n/a
87.826	0.1195	175652	keystroke_h	h	n/a
88.0955	0.075	176191	keystroke_n	n	n/a
88.2455	0.1355	176491	keystroke_i	i	n/a
88.3655	0.135	176731	keystroke_s	s	n/a
88.6055	0.074	177211	keystroke_Key.enter	Key.enter	n/a
88.689	8.213	177378	prompt	n/a	chris modify prompt executives\n
89.581	0.149	179162	keystroke_c	c	n/a
89.685	0.12	179370	keystroke_h	h	n/a
89.8655	0.1195	179731	keystroke_r	r	n/a
89.956	0.134	179912	keystroke_i	i	n/a
90.1055	0.1645	180211	keystroke_s	s	n/a
90.1955	0.1045	180391	keystroke_Key.space	Key.space	n/a
90.526	0.1195	181052	keystroke_m	m	n/a
90.9755	0.165	181951	keystroke_o	o	n/a
91.8005	0.1345	183601	keystroke_d	d	n/a
91.8905	0.1355	183781	keystroke_i	i	n/a
92.145	0.1205	184290	keystroke_f	f	n/a
92.2345	0.1955	184469	keystroke_y	y	n/a
92.355	0.1655	184710	keystroke_Key.space	Key.space	n/a
93.075	0.121	186150	keystroke_p	p	n/a
93.2105	0.15	186421	keystroke_r	r	n/a
93.3445	0.121	186689	keystroke_o	o	n/a
93.601	0.119	187202	keystroke_m	m	n/a
93.8555	0.1205	187711	keystroke_p	p	n/a
94.1105	0.12	188221	keystroke_t	t	n/a
94.2455	0.12	188491	keystroke_Key.space	Key.space	n/a
94.7105	0.135	189421	keystroke_e	e	n/a
95.1005	0.15	190201	keystroke_x	x	n/a
95.461	0.1345	190922	keystroke_e	e	n/a
95.6555	0.2095	191311	keystroke_c	c	n/a
95.911	0.1505	191822	keystroke_u	u	n/a
96.0755	0.1055	192151	keystroke_t	t	n/a
96.1955	0.135	192391	keystroke_i	i	n/a
96.3455	0.1655	192691	keystroke_v	v	n/a
96.451	0.165	192902	keystroke_e	e	n/a
96.675	0.1205	193350	keystroke_s	s	n/a
96.7955	0.1045	193591	keystroke_Key.enter	Key.enter	n/a
96.9075	11.636	193815	prompt	n/a	removable subscriber counted feat\n
98.1015	0.134	196203	keystroke_r	r	n/a
98.2065	0.104	196413	keystroke_e	e	n/a
98.4755	0.165	196951	keystroke_v	v	n/a
98.8955	0.105	197791	keystroke_Key.backspace	Key.backspace	n/a
99.1805	0.09	198361	keystroke_m	m	n/a
99.3305	0.1505	198661	keystroke_o	o	n/a
99.496	0.1795	198992	keystroke_v	v	n/a
99.7505	0.195	199501	keystroke_a	a	n/a
99.8855	0.18	199771	keystroke_l	l	n/a
100.0045	0.121	200009	keystroke_Key.space	Key.space	n/a
100.8905	0.105	201781	keystroke_Key.backspace	Key.backspace	n/a
101.0855	0.0905	202171	keystroke_Key.backspace	Key.backspace	n/a
101.2505	0.12	202501	keystroke_Key.backspace	Key.backspace	n/a
101.986	0.135	203972	keystroke_a	a	n/a
102.1355	0.075	204271	keystroke_b	b	n/a
102.3455	0.075	204691	keystroke_l	l	n/a
102.4355	0.1195	204871	keystroke_e	e	n/a
102.57	0.0605	205140	keystroke_Key.space	Key.space	n/a
102.8855	0.1505	205771	keystroke_s	s	n/a
102.975	0.09	205950	keystroke_u	u	n/a
103.125	0.136	206250	keystroke_b	b	n/a
103.351	0.12	206702	keystroke_s	s	n/a
103.56	0.136	207120	keystroke_c	c	n/a
103.8455	0.1355	207691	keystroke_r	r	n/a
103.9505	0.135	207901	keystroke_i	i	n/a
104.535	0.121	209070	keystroke_b	b	n/a
104.686	0.15	209372	keystroke_e	e	n/a
104.761	0.165	209522	keystroke_r	r	n/a
105.09	0.091	210180	keystroke_Key.space	Key.space	n/a
105.421	0.165	210842	keystroke_c	c	n/a
105.541	0.1795	211082	keystroke_o	o	n/a
105.6455	0.1205	211291	keystroke_u	u	n/a
105.9005	0.135	211801	keystroke_n	n	n/a
106.0055	0.12	212011	keystroke_t	t	n/a
106.216	0.1495	212432	keystroke_e	e	n/a
106.3505	0.135	212701	keystroke_d	d	n/a
106.5005	0.1045	213001	keystroke_Key.space	Key.space	n/a
107.656	0.135	215312	keystroke_f	f	n/a
107.731	0.165	215462	keystroke_e	e	n/a
108.031	0.135	216062	keystroke_a	a	n/a
108.3005	0.165	216601	keystroke_t	t	n/a
108.405	0.1355	216810	keystroke_Key.enter	Key.enter	n/a
108.5545	5.8825	217109	prompt	n/a	area costs birthday suite\n
109.1705	0.1505	218341	keystroke_a	a	n/a
109.411	0.1345	218822	keystroke_r	r	n/a
109.4705	0.1495	218941	keystroke_e	e	n/a
109.68	0.2105	219360	keystroke_a	a	n/a
109.8445	0.121	219689	keystroke_Key.space	Key.space	n/a
110.0555	0.165	220111	keystroke_c	c	n/a
110.1455	0.135	220291	keystroke_o	o	n/a
110.5055	0.1505	221011	keystroke_s	s	n/a
110.806	0.105	221612	keystroke_t	t	n/a
110.971	0.1495	221942	keystroke_s	s	n/a
111.0905	0.105	222181	keystroke_Key.space	Key.space	n/a
111.3155	0.09	222631	keystroke_b	b	n/a
111.4955	0.12	222991	keystroke_i	i	n/a
111.5855	0.1205	223171	keystroke_r	r	n/a
111.78	0.1655	223560	keystroke_t	t	n/a
111.96	0.195	223920	keystroke_h	h	n/a
112.366	0.149	224732	keystroke_f	f	n/a
112.545	0.165	225090	keystroke_a	a	n/a
112.605	0.286	225210	keystroke_y	y	n/a
113.385	0.135	226770	keystroke_Key.space	Key.space	n/a
113.716	0.15	227432	keystroke_s	s	n/a
113.835	0.091	227670	keystroke_u	u	n/a
114.016	0.105	228032	keystroke_i	i	n/a
114.0765	0.1045	228153	keystroke_t	t	n/a
114.2255	0.136	228451	keystroke_e	e	n/a
114.376	0.059	228752	keystroke_Key.enter	Key.enter	n/a
114.444	6.9385	228888	prompt	n/a	located split karma bosnia\n
115.1405	0.075	230281	keystroke_l	l	n/a
115.3055	0.15	230611	keystroke_o	o	n/a
115.4565	0.1195	230913	keystroke_c	c	n/a
115.6055	0.136	231211	keystroke_a	a	n/a
115.8605	0.105	231721	keystroke_t	t	n/a
116.0415	0.164	232083	keystroke_e	e	n/a
116.1455	0.15	232291	keystroke_d	d	n/a
116.2505	0.12	232501	keystroke_Key.space	Key.space	n/a
116.581	0.1645	233162	keystroke_s	s	n/a
116.6405	0.09	233281	keystroke_p	p	n/a
116.821	0.105	233642	keystroke_l	l	n/a
117.0455	0.15	234091	keystroke_i	i	n/a
117.2105	0.1355	234421	keystroke_t	t	n/a
117.361	0.12	234722	keystroke_Key.space	Key.space	n/a
117.946	0.104	235892	keystroke_k	k	n/a
118.0665	0.1485	236133	keystroke_a	a	n/a
118.275	0.151	236550	keystroke_r	r	n/a
118.546	0.09	237092	keystroke_m	m	n/a
118.651	0.1655	237302	keystroke_a	a	n/a
118.786	0.075	237572	keystroke_Key.space	Key.space	n/a
119.416	0.0595	238832	keystroke_b	b	n/a
119.5965	0.1045	239193	keystroke_o	o	n/a
119.806	0.045	239612	keystroke_s	s	n/a
119.881	0.09	239762	keystroke_n	n	n/a
120.3905	0.0745	240781	keystroke_Key.backspace	Key.backspace	n/a
120.841	0.03	241682	keystroke_n	n	n/a
120.9905	0.105	241981	keystroke_i	i	n/a
121.1715	0.149	242343	keystroke_a	a	n/a
121.3355	0.0455	242671	keystroke_Key.enter	Key.enter	n/a
121.3875	7.1945	242775	prompt	n/a	holy film her computed\n
122.536	0.1495	245072	keystroke_h	h	n/a
122.8955	0.105	245791	keystroke_o	o	n/a
123.0905	0.1205	246181	keystroke_l	l	n/a
123.4065	0.194	246813	keystroke_y	y	n/a
123.511	0.1345	247022	keystroke_Key.space	Key.space	n/a
124.381	0.1495	248762	keystroke_f	f	n/a
124.4705	0.105	248941	keystroke_o	o	n/a
124.876	0.1045	249752	keystroke_Key.backspace	Key.backspace	n/a
125.1015	0.0895	250203	keystroke_i	i	n/a
125.296	0.06	250592	keystroke_l	l	n/a
125.521	0.18	251042	keystroke_m	m	n/a
125.641	0.135	251282	keystroke_Key.space	Key.space	n/a
126.061	0.1655	252122	keystroke_h	h	n/a
126.3755	0.1805	252751	keystroke_e	e	n/a
126.481	0.149	252962	keystroke_r	r	n/a
126.5855	0.1495	253171	keystroke_Key.space	Key.space	n/a
127.185	0.1655	254370	keystroke_c	c	n/a
127.246	0.0895	254492	keystroke_o	o	n/a
127.411	0.0745	254822	keystroke_m	m	n/a
127.621	0.1195	255242	keystroke_p	p	n/a
127.7255	0.1655	255451	keystroke_u	u	n/a
127.816	0.1195	255632	keystroke_t	t	n/a
127.9815	0.194	255963	keystroke_e	e	n/a
128.3555	0.165	256711	keystroke_d	d	n/a
128.4755	0.105	256951	keystroke_Key.enter	Key.enter	n/a
128.5865	5.9505	257173	prompt	n/a	indie tide peace tied\n
129.2265	0.1045	258453	keystroke_i	i	n/a
129.391	0.135	258782	keystroke_n	n	n/a
129.541	0.1205	259082	keystroke_d	d	n/a
129.617	0.149	259234	keystroke_i	i	n/a
129.781	0.135	259562	keystroke_a	a	n/a
130.1105	0.1205	260221	keystroke_Key.backspace	Key.backspace	n/a
130.247	0.1335	260494	keystroke_e	e	n/a
130.3655	0.1055	260731	keystroke_Key.space	Key.space	n/a
131.086	0.105	262172	keystroke_t	t	n/a
131.22	0.1805	262440	keystroke_i	i	n/a
131.4615	0.1645	262923	keystroke_d	d	n/a
131.536	0.165	263072	keystroke_e	e	n/a
131.9105	0.12	263821	keystroke_Key.space	Key.space	n/a
132.271	0.1495	264542	keystroke_p	p	n/a
132.361	0.1495	264722	keystroke_e	e	n/a
132.7955	0.015	265591	keystroke_a	a	n/a
132.9455	0.195	265891	keystroke_c	c	n/a
133.0655	0.1805	266131	keystroke_e	e	n/a
133.2605	0.135	266521	keystroke_Key.space	Key.space	n/a
133.696	0.135	267392	keystroke_t	t	n/a
133.786	0.12	267572	keystroke_i	i	n/a
133.951	0.18	267902	keystroke_e	e	n/a
134.2965	0.164	268593	keystroke_d	d	n/a
134.4755	0.0605	268951	keystroke_Key.enter	Key.enter	n/a
134.5425	8.7105	269085	prompt	n/a	morocco model debut exclude\n
135.841	0.06	271682	keystroke_m	m	n/a
135.9905	0.12	271981	keystroke_o	o	n/a
136.0805	0.15	272161	keystroke_r	r	n/a
136.246	0.1045	272492	keystroke_o	o	n/a
136.546	0.0745	273092	keystroke_c	c	n/a
136.725	0.151	273450	keystroke_c	c	n/a
136.921	0.1345	273842	keystroke_o	o	n/a
137.3855	0.06	274771	keystroke_Key.space	Key.space	n/a
137.94	0.0915	275880	keystroke_m	m	n/a
138.105	0.1065	276210	keystroke_o	o	n/a
138.151	0.1795	276302	keystroke_d	d	n/a
138.286	0.1795	276572	keystroke_e	e	n/a
138.4205	0.2405	276841	keystroke_l	l	n/a
138.6005	0.0755	277201	keystroke_Key.space	Key.space	n/a
139.7255	0.1505	279451	keystroke_d	d	n/a
139.8305	0.12	279661	keystroke_e	e	n/a
139.9055	0.09	279811	keystroke_b	b	n/a
140.0555	0.135	280111	keystroke_u	u	n/a
140.1465	0.1495	280293	keystroke_t	t	n/a
140.3405	0.075	280681	keystroke_Key.space	Key.space	n/a
140.9105	0.135	281821	keystroke_e	e	n/a
141.241	0.135	282482	keystroke_d	d	n/a
141.931	0.135	283862	keystroke_Key.backspace	Key.backspace	n/a
142.0515	0.15	284103	keystroke_x	x	n/a
142.1865	0.1945	284373	keystroke_c	c	n/a
142.411	0.15	284822	keystroke_l	l	n/a
142.7115	0.135	285423	keystroke_u	u	n/a
142.8465	0.2095	285693	keystroke_d	d	n/a
142.9805	0.1355	285961	keystroke_e	e	n/a
143.175	0.0755	286350	keystroke_Key.enter	Key.enter	n/a
143.2615	9.891	286523	prompt	n/a	simpson potatoes performer daily\n
144.211	0.15	288422	keystroke_s	s	n/a
144.301	0.105	288602	keystroke_i	i	n/a
144.511	0.0745	289022	keystroke_m	m	n/a
144.661	0.1045	289322	keystroke_p	p	n/a
144.871	0.0895	289742	keystroke_l	l	n/a
145.696	0.1045	291392	keystroke_Key.backspace	Key.backspace	n/a
145.8905	0.1505	291781	keystroke_s	s	n/a
145.9955	0.105	291991	keystroke_o	o	n/a
146.206	0.1805	292412	keystroke_n	n	n/a
146.341	0.1045	292682	keystroke_Key.space	Key.space	n/a
146.701	0.105	293402	keystroke_t	t	n/a
146.986	0.1045	293972	keystroke_Key.backspace	Key.backspace	n/a
147.2105	0.091	294421	keystroke_p	p	n/a
147.3755	0.135	294751	keystroke_o	o	n/a
147.5255	0.105	295051	keystroke_t	t	n/a
147.7355	0.136	295471	keystroke_a	a	n/a
147.976	0.1345	295952	keystroke_t	t	n/a
148.1255	0.135	296251	keystroke_o	o	n/a
148.561	0.1345	297122	keystroke_e	e	n/a
148.7855	0.18	297571	keystroke_s	s	n/a
148.951	0.1045	297902	keystroke_Key.space	Key.space	n/a
149.656	0.09	299312	keystroke_p	p	n/a
149.761	0.18	299522	keystroke_e	e	n/a
149.896	0.075	299792	keystroke_r	r	n/a
150.136	0.225	300272	keystroke_f	f	n/a
150.256	0.12	300512	keystroke_o	o	n/a
150.362	0.119	300724	keystroke_r	r	n/a
150.481	0.135	300962	keystroke_m	m	n/a
150.6455	0.1805	301291	keystroke_a	a	n/a
151.231	0.104	302462	keystroke_Key.backspace	Key.backspace	n/a
151.35	0.151	302700	keystroke_e	e	n/a
151.4265	0.1045	302853	keystroke_r	r	n/a
151.545	0.105	303090	keystroke_Key.space	Key.space	n/a
152.431	0.1355	304862	keystroke_d	d	n/a
152.506	0.165	305012	keystroke_a	a	n/a
152.596	0.0905	305192	keystroke_i	i	n/a
152.806	0.105	305612	keystroke_l	l	n/a
152.956	0.121	305912	keystroke_y	y	n/a
153.091	0.06	306182	keystroke_Key.enter	Key.enter	n/a
153.157	9.3855	306314	prompt	n/a	netscape parenting specifically efforts\n
153.9305	0.106	307861	keystroke_n	n	n/a
154.0515	0.15	308103	keystroke_e	e	n/a
154.246	0.105	308492	keystroke_t	t	n/a
154.501	0.12	309002	keystroke_s	s	n/a
154.951	0.135	309902	keystroke_c	c	n/a
155.281	0.195	310562	keystroke_a	a	n/a
155.536	0.12	311072	keystroke_p	p	n/a
155.6565	0.1645	311313	keystroke_e	e	n/a
155.806	0.09	311612	keystroke_Key.space	Key.space	n/a
156.2565	0.1195	312513	keystroke_p	p	n/a
156.361	0.1205	312722	keystroke_a	a	n/a
156.541	0.18	313082	keystroke_r	r	n/a
156.646	0.135	313292	keystroke_e	e	n/a
156.782	0.074	313564	keystroke_n	n	n/a
156.841	0.12	313682	keystroke_t	t	n/a
157.306	0.105	314612	keystroke_i	i	n/a
157.501	0.09	315002	keystroke_n	n	n/a
157.696	0.089	315392	keystroke_Key.space	Key.space	n/a
158.116	0.09	316232	keystroke_Key.backspace	Key.backspace	n/a
158.2515	0.1495	316503	keystroke_g	g	n/a
158.4455	0.15	316891	keystroke_Key.space	Key.space	n/a
158.911	0.15	317822	keystroke_s	s	n/a
159.016	0.135	318032	keystroke_p	p	n/a
159.376	0.12	318752	keystroke_e	e	n/a
159.706	0.1505	319412	keystroke_c	c	n/a
159.8265	0.135	319653	keystroke_i	i	n/a
160.0815	0.135	320163	keystroke_f	f	n/a
160.1705	0.121	320341	keystroke_i	i	n/a
160.3355	0.1805	320671	keystroke_c	c	n/a
160.4265	0.1945	320853	keystroke_a	a	n/a
160.5465	0.059	321093	keystroke_l	l	n/a
160.651	0.104	321302	keystroke_l	l	n/a
160.966	0.195	321932	keystroke_y	y	n/a
161.085	0.121	322170	keystroke_Key.space	Key.space	n/a
161.2215	0.1195	322443	keystroke_e	e	n/a
161.5955	0.09	323191	keystroke_f	f	n/a
161.7605	0.1205	323521	keystroke_f	f	n/a
161.821	0.135	323642	keystroke_o	o	n/a
161.971	0.21	323942	keystroke_r	r	n/a
162.1215	0.1345	324243	keystroke_t	t	n/a
162.331	0.15	324662	keystroke_s	s	n/a
162.466	0.074	324932	keystroke_Key.enter	Key.enter	n/a
162.5535	7.069	325107	prompt	n/a	cork realtor stainless wing\n
163.3965	0.1345	326793	keystroke_c	c	n/a
163.486	0.12	326972	keystroke_o	o	n/a
163.621	0.18	327242	keystroke_r	r	n/a
163.756	0.1355	327512	keystroke_k	k	n/a
163.966	0.105	327932	keystroke_Key.space	Key.space	n/a
164.206	0.1795	328412	keystroke_r	r	n/a
164.311	0.1205	328622	keystroke_e	e	n/a
164.551	0.1795	329102	keystroke_a	a	n/a
164.6865	0.1195	329373	keystroke_l	l	n/a
164.9415	0.1345	329883	keystroke_t	t	n/a
165.046	0.1045	330092	keystroke_o	o	n/a
165.271	0.1345	330542	keystroke_r	r	n/a
165.4205	0.0755	330841	keystroke_Key.space	Key.space	n/a
165.931	0.135	331862	keystroke_s	s	n/a
166.1415	0.1045	332283	keystroke_t	t	n/a
166.381	0.18	332762	keystroke_a	a	n/a
166.456	0.09	332912	keystroke_i	i	n/a
166.621	0.105	333242	keystroke_n	n	n/a
166.846	0.105	333692	keystroke_l	l	n/a
166.966	0.105	333932	keystroke_e	e	n/a
167.161	0.075	334322	keystroke_s	s	n/a
167.311	0.105	334622	keystroke_s	s	n/a
167.431	0.105	334862	keystroke_Key.space	Key.space	n/a
167.521	0.1495	335042	keystroke_w	w	n/a
167.626	0.12	335252	keystroke_i	i	n/a
167.8055	0.1805	335611	keystroke_g	g	n/a
167.8355	0.0755	335671	keystroke_n	n	n/a
168.0605	0.165	336121	keystroke_s	s	n/a
168.631	0.075	337262	keystroke_Key.backspace	Key.backspace	n/a
168.826	0.015	337652	keystroke_Key.backspace	Key.backspace	n/a
168.946	0.105	337892	keystroke_Key.backspace	Key.backspace	n/a
169.216	0.105	338432	keystroke_n	n	n/a
169.291	0.1205	338582	keystroke_g	g	n/a
169.3965	0.149	338793	keystroke_s	s	n/a
169.5605	0.0595	339121	keystroke_Key.enter	Key.enter	n/a
169.6335	8.6745	339267	prompt	n/a	friends merchants divx nudist\n
170.611	0.1195	341222	keystroke_f	f	n/a
170.8815	0.149	341763	keystroke_r	r	n/a
171.031	0.075	342062	keystroke_i	i	n/a
171.061	0.165	342122	keystroke_e	e	n/a
171.211	0.106	342422	keystroke_n	n	n/a
171.301	0.195	342602	keystroke_d	d	n/a
171.436	0.164	342872	keystroke_s	s	n/a
171.9315	0.0895	343863	keystroke_Key.space	Key.space	n/a
172.156	0.105	344312	keystroke_m	m	n/a
172.246	0.165	344492	keystroke_e	e	n/a
172.351	0.1045	344702	keystroke_r	r	n/a
172.5915	0.1795	345183	keystroke_c	c	n/a
172.756	0.15	345512	keystroke_h	h	n/a
172.921	0.18	345842	keystroke_a	a	n/a
173.0265	0.1195	346053	keystroke_n	n	n/a
173.611	0.135	347222	keystroke_t	t	n/a
173.807	0.164	347614	keystroke_s	s	n/a
173.9405	0.1505	347881	keystroke_Key.space	Key.space	n/a
174.7205	0.136	349441	keystroke_d	d	n/a
175.2615	0.119	350523	keystroke_i	i	n/a
175.5455	0.136	351091	keystroke_v	v	n/a
176.731	0.18	353462	keystroke_x	x	n/a
176.896	0.1345	353792	keystroke_Key.space	Key.space	n/a
177.1065	0.119	354213	keystroke_n	n	n/a
177.331	0.1195	354662	keystroke_u	u	n/a
177.616	0.1195	355232	keystroke_d	d	n/a
177.7205	0.121	355441	keystroke_i	i	n/a
177.855	0.1215	355710	keystroke_s	s	n/a
178.1265	0.1185	356253	keystroke_t	t	n/a
178.2155	0.09	356431	keystroke_Key.enter	Key.enter	n/a
178.3155	11.887	356631	prompt	n/a	rapid environments contracting nicholas\n
179.2665	0.1345	358533	keystroke_r	r	n/a
179.4455	0.181	358891	keystroke_a	a	n/a
179.611	0.09	359222	keystroke_p	p	n/a
179.8065	0.1195	359613	keystroke_i	i	n/a
179.9415	0.12	359883	keystroke_d	d	n/a
180.076	0.105	360152	keystroke_Key.space	Key.space	n/a
180.6315	0.135	361263	keystroke_e	e	n/a
180.7355	0.12	361471	keystroke_n	n	n/a
180.9455	0.1355	361891	keystroke_v	v	n/a
181.0365	0.1195	362073	keystroke_i	i	n/a
181.216	0.135	362432	keystroke_r	r	n/a
181.321	0.0745	362642	keystroke_o	o	n/a
181.486	0.105	362972	keystroke_n	n	n/a
181.681	0.075	363362	keystroke_m	m	n/a
181.741	0.15	363482	keystroke_e	e	n/a
181.846	0.12	363692	keystroke_n	n	n/a
181.951	0.105	363902	keystroke_t	t	n/a
182.161	0.12	364322	keystroke_s	s	n/a
182.326	0.105	364652	keystroke_Key.space	Key.space	n/a
182.8055	0.135	365611	keystroke_c	c	n/a
182.896	0.1045	365792	keystroke_o	o	n/a
183.0605	0.1205	366121	keystroke_n	n	n/a
183.2715	0.1345	366543	keystroke_r	r	n/a
184.2465	0.135	368493	keystroke_Key.backspace	Key.backspace	n/a
184.4415	0.165	368883	keystroke_t	t	n/a
184.5315	0.119	369063	keystroke_r	r	n/a
184.801	0.1355	369602	keystroke_a	a	n/a
185.2215	0.165	370443	keystroke_c	c	n/a
185.5815	0.2095	371163	keystroke_t	t	n/a
185.731	0.0745	371462	keystroke_i	i	n/a
185.8955	0.09	371791	keystroke_n	n	n/a
186.016	0.12	372032	keystroke_g	g	n/a
186.0905	0.0755	372181	keystroke_Key.space	Key.space	n/a
186.2855	0.1055	372571	keystroke_n	n	n/a
186.931	0.12	373862	keystroke_i	i	n/a
187.1105	0.151	374221	keystroke_c	c	n/a
187.516	0.06	375032	keystroke_h	h	n/a
187.711	0.09	375422	keystroke_o	o	n/a
187.876	0.135	375752	keystroke_o	o	n/a
187.996	0.12	375992	keystroke_a	a	n/a
188.416	0.105	376832	keystroke_Key.backspace	Key.backspace	n/a
188.596	0.135	377192	keystroke_Key.backspace	Key.backspace	n/a
188.926	0.135	377852	keystroke_l	l	n/a
189.001	0.1655	378002	keystroke_a	a	n/a
189.2115	0.15	378423	keystroke_r	r	n/a
189.8405	0.12	379681	keystroke_Key.backspace	Key.backspace	n/a
189.9765	0.1195	379953	keystroke_s	s	n/a
190.126	0.075	380252	keystroke_Key.enter	Key.enter	n/a
190.2075	7.405	380415	prompt	n/a	parade textile firm ambassador\n
191.026	0.1055	382052	keystroke_p	p	n/a
191.1455	0.091	382291	keystroke_a	a	n/a
191.3115	0.1345	382623	keystroke_r	r	n/a
191.446	0.1955	382892	keystroke_a	a	n/a
191.671	0.2245	383342	keystroke_d	d	n/a
191.8205	0.18	383641	keystroke_e	e	n/a
191.9855	0.1205	383971	keystroke_Key.space	Key.space	n/a
192.2715	0.1495	384543	keystroke_t	t	n/a
192.406	0.1345	384812	keystroke_e	e	n/a
192.9465	0.149	385893	keystroke_x	x	n/a
193.276	0.15	386552	keystroke_t	t	n/a
193.4115	0.1195	386823	keystroke_i	i	n/a
193.651	0.09	387302	keystroke_l	l	n/a
193.756	0.1645	387512	keystroke_e	e	n/a
193.906	0.105	387812	keystroke_Key.space	Key.space	n/a
194.4315	0.0895	388863	keystroke_f	f	n/a
194.656	0.1055	389312	keystroke_i	i	n/a
194.791	0.1655	389582	keystroke_r	r	n/a
194.911	0.18	389822	keystroke_m	m	n/a
195.046	0.1045	390092	keystroke_Key.space	Key.space	n/a
195.436	0.1495	390872	keystroke_a	a	n/a
195.5705	0.121	391141	keystroke_m	m	n/a
195.841	0.12	391682	keystroke_b	b	n/a
195.946	0.15	391892	keystroke_a	a	n/a
196.231	0.075	392462	keystroke_s	s	n/a
196.441	0.225	392882	keystroke_s	s	n/a
196.606	0.18	393212	keystroke_a	a	n/a
196.8755	0.165	393751	keystroke_d	d	n/a
197.011	0.1205	394022	keystroke_o	o	n/a
197.2955	0.181	394591	keystroke_r	r	n/a
197.5505	0.0605	395101	keystroke_Key.enter	Key.enter	n/a
197.617	6.7905	395234	prompt	n/a	cabin locally his tokyo\n
198.4065	0.135	396813	keystroke_c	c	n/a
198.4955	0.225	396991	keystroke_a	a	n/a
198.7055	0.061	397411	keystroke_b	b	n/a
198.8565	0.089	397713	keystroke_i	i	n/a
199.021	0.1355	398042	keystroke_n	n	n/a
199.1265	0.074	398253	keystroke_Key.space	Key.space	n/a
199.336	0.0295	398672	keystroke_l	l	n/a
199.4715	0.09	398943	keystroke_o	o	n/a
199.7865	0.165	399573	keystroke_c	c	n/a
199.8905	0.1805	399781	keystroke_a	a	n/a
199.9815	0.06	399963	keystroke_l	l	n/a
200.1305	0.0765	400261	keystroke_l	l	n/a
200.386	0.1655	400772	keystroke_y	y	n/a
200.491	0.09	400982	keystroke_Key.space	Key.space	n/a
200.866	0.1645	401732	keystroke_h	h	n/a
200.9555	0.166	401911	keystroke_i	i	n/a
201.1055	0.1355	402211	keystroke_s	s	n/a
201.5855	0.12	403171	keystroke_Key.space	Key.space	n/a
201.7665	0.1505	403533	keystroke_t	t	n/a
201.871	0.1205	403742	keystroke_o	o	n/a
202.112	0.0895	404224	keystroke_k	k	n/a
202.3065	0.09	404613	keystroke_l	l	n/a
202.546	0.135	405092	keystroke_y	y	n/a
202.846	0.18	405692	keystroke_o	o	n/a
203.2955	0.06	406591	keystroke_Key.backspace	Key.backspace	n/a
203.446	0.0895	406892	keystroke_Key.backspace	Key.backspace	n/a
203.5655	0.135	407131	keystroke_Key.backspace	Key.backspace	n/a
203.9555	0.15	407911	keystroke_y	y	n/a
204.0615	0.119	408123	keystroke_o	o	n/a
204.3305	0.075	408661	keystroke_Key.enter	Key.enter	n/a
204.4115	9.641	408823	prompt	n/a	mixed accused flying definitions\n
205.156	0.12	410312	keystroke_m	m	n/a
205.456	0.135	410912	keystroke_i	i	n/a
205.6965	0.1195	411393	keystroke_x	x	n/a
205.951	0.225	411902	keystroke_e	e	n/a
206.102	0.194	412204	keystroke_d	d	n/a
206.266	0.135	412532	keystroke_Key.space	Key.space	n/a
206.4165	0.1345	412833	keystroke_a	a	n/a
206.611	0.1205	413222	keystroke_c	c	n/a
206.8065	0.1645	413613	keystroke_c	c	n/a
206.941	0.135	413882	keystroke_u	u	n/a
207.1065	0.2095	414213	keystroke_d	d	n/a
207.256	0.255	414512	keystroke_e	e	n/a
208.876	0.0905	417752	keystroke_Key.backspace	Key.backspace	n/a
209.0865	0.0895	418173	keystroke_Key.backspace	Key.backspace	n/a
209.2955	0.1355	418591	keystroke_s	s	n/a
209.5365	0.1945	419073	keystroke_e	e	n/a
209.686	0.1655	419372	keystroke_d	d	n/a
209.8805	0.165	419761	keystroke_Key.space	Key.space	n/a
210.7815	0.134	421563	keystroke_f	f	n/a
210.8555	0.09	421711	keystroke_l	l	n/a
211.0965	0.09	422193	keystroke_y	y	n/a
211.3355	0.0765	422671	keystroke_i	i	n/a
211.4855	0.09	422971	keystroke_n	n	n/a
211.546	0.1355	423092	keystroke_g	g	n/a
211.666	0.1195	423332	keystroke_Key.space	Key.space	n/a
212.086	0.135	424172	keystroke_d	d	n/a
212.146	0.1505	424292	keystroke_e	e	n/a
212.341	0.1195	424682	keystroke_f	f	n/a
212.4015	0.0745	424803	keystroke_i	i	n/a
212.566	0.075	425132	keystroke_n	n	n/a
212.7315	0.105	425463	keystroke_i	i	n/a
212.7755	0.165	425551	keystroke_t	t	n/a
212.9255	0.1215	425851	keystroke_i	i	n/a
213.5105	0.076	427021	keystroke_o	o	n/a
213.6765	0.135	427353	keystroke_n	n	n/a
213.8125	0.134	427625	keystroke_s	s	n/a
213.991	0.0595	427982	keystroke_Key.enter	Key.enter	n/a
214.0615	6.381	428123	prompt	n/a	mounting folding receivers at\n
214.621	0.12	429242	keystroke_m	m	n/a
214.831	0.165	429662	keystroke_o	o	n/a
214.936	0.105	429872	keystroke_u	u	n/a
215.161	0.0895	430322	keystroke_n	n	n/a
215.2655	0.136	430531	keystroke_t	t	n/a
215.3565	0.0745	430713	keystroke_i	i	n/a
215.5055	0.09	431011	keystroke_n	n	n/a
215.5965	0.1205	431193	keystroke_g	g	n/a
215.701	0.075	431402	keystroke_Key.space	Key.space	n/a
216.2565	0.134	432513	keystroke_f	f	n/a
216.3315	0.0745	432663	keystroke_o	o	n/a
216.4965	0.1345	432993	keystroke_l	l	n/a
216.6605	0.151	433321	keystroke_d	d	n/a
216.8265	0.0445	433653	keystroke_i	i	n/a
216.9615	0.1045	433923	keystroke_n	n	n/a
217.0815	0.1195	434163	keystroke_g	g	n/a
217.186	0.1195	434372	keystroke_Key.space	Key.space	n/a
217.6065	0.15	435213	keystroke_r	r	n/a
217.6955	0.121	435391	keystroke_e	e	n/a
217.9655	0.241	435931	keystroke_c	c	n/a
218.1005	0.135	436201	keystroke_e	e	n/a
218.2655	0.165	436531	keystroke_i	i	n/a
218.776	0.12	437552	keystroke_v	v	n/a
219.0165	0.1795	438033	keystroke_e	e	n/a
219.106	0.1345	438212	keystroke_r	r	n/a
219.391	0.12	438782	keystroke_s	s	n/a
219.871	0.09	439742	keystroke_Key.space	Key.space	n/a
220.006	0.1045	440012	keystroke_a	a	n/a
220.2165	0.1195	440433	keystroke_t	t	n/a
220.3655	0.075	440731	keystroke_Key.enter	Key.enter	n/a
220.4495	8.0635	440899	prompt	n/a	anything races disposal diseases\n
221.131	0.165	442262	keystroke_a	a	n/a
221.2815	0.1045	442563	keystroke_n	n	n/a
221.536	0.09	443072	keystroke_y	y	n/a
221.641	0.1355	443282	keystroke_t	t	n/a
221.7315	0.135	443463	keystroke_h	h	n/a
221.896	0.1055	443792	keystroke_i	i	n/a
222.076	0.105	444152	keystroke_n	n	n/a
222.106	0.1055	444212	keystroke_g	g	n/a
222.256	0.12	444512	keystroke_Key.space	Key.space	n/a
222.332	0.134	444664	keystroke_r	r	n/a
222.511	0.18	445022	keystroke_a	a	n/a
222.706	0.224	445412	keystroke_c	c	n/a
222.946	0.0595	445892	keystroke_w	w	n/a
223.756	0.12	447512	keystroke_Key.backspace	Key.backspace	n/a
223.847	0.149	447694	keystroke_e	e	n/a
224.071	0.1495	448142	keystroke_s	s	n/a
224.191	0.1045	448382	keystroke_Key.space	Key.space	n/a
224.761	0.09	449522	keystroke_d	d	n/a
224.836	0.09	449672	keystroke_i	i	n/a
224.971	0.165	449942	keystroke_s	s	n/a
225.121	0.211	450242	keystroke_p	p	n/a
225.257	0.134	450514	keystroke_o	o	n/a
225.4665	0.1495	450933	keystroke_l	l	n/a
225.556	0.12	451112	keystroke_a	a	n/a
226.1265	0.1645	452253	keystroke_s	s	n/a
226.306	0.12	452612	keystroke_Key.space	Key.space	n/a
226.8005	0.121	453601	keystroke_d	d	n/a
226.9065	0.105	453813	keystroke_i	i	n/a
227.2065	0.1945	454413	keystroke_s	s	n/a
227.461	0.12	454922	keystroke_e	e	n/a
227.686	0.195	455372	keystroke_a	a	n/a
227.866	0.15	455732	keystroke_s	s	n/a
228.136	0.0745	456272	keystroke_e	e	n/a
228.3155	0.1055	456631	keystroke_s	s	n/a
228.4505	0.0605	456901	keystroke_Key.enter	Key.enter	n/a
228.521	8.706	457042	prompt	n/a	dimensional blair bailey parent\n
229.681	0.1355	459362	keystroke_d	d	n/a
229.756	0.1055	459512	keystroke_i	i	n/a
230.446	0.1055	460892	keystroke_m	m	n/a
230.581	0.18	461162	keystroke_e	e	n/a
230.671	0.1195	461342	keystroke_n	n	n/a
231.3305	0.1805	462661	keystroke_s	s	n/a
231.4205	0.151	462841	keystroke_i	i	n/a
231.5255	0.091	463051	keystroke_o	o	n/a
231.691	0.1195	463382	keystroke_n	n	n/a
231.7955	0.166	463591	keystroke_a	a	n/a
231.9165	0.18	463833	keystroke_l	l	n/a
232.0805	0.046	464161	keystroke_Key.space	Key.space	n/a
232.3065	0.105	464613	keystroke_b	b	n/a
232.546	0.12	465092	keystroke_l	l	n/a
232.651	0.15	465302	keystroke_a	a	n/a
232.771	0.105	465542	keystroke_i	i	n/a
232.951	0.1955	465902	keystroke_n	n	n/a
233.071	0.105	466142	keystroke_Key.space	Key.space	n/a
233.356	0.12	466712	keystroke_b	b	n/a
233.491	0.1505	466982	keystroke_a	a	n/a
233.566	0.1205	467132	keystroke_i	i	n/a
233.791	0.135	467582	keystroke_l	l	n/a
234.286	0.165	468572	keystroke_e	e	n/a
234.376	0.135	468752	keystroke_r	r	n/a
235.561	0.12	471122	keystroke_Key.backspace	Key.backspace	n/a
235.8165	0.164	471633	keystroke_y	y	n/a
235.9205	0.106	471841	keystroke_Key.space	Key.space	n/a
236.146	0.1055	472292	keystroke_p	p	n/a
236.2655	0.061	472531	keystroke_a	a	n/a
236.401	0.15	472802	keystroke_r	r	n/a
236.521	0.1045	473042	keystroke_e	e	n/a
236.611	0.0755	473222	keystroke_n	n	n/a
236.7315	0.119	473463	keystroke_t	t	n/a
236.9705	0.135	473941	keystroke_s	s	n/a
237.1655	0.06	474331	keystroke_Key.enter	Key.enter	n/a
237.2295	9.808	474459	prompt	n/a	remainder promote purple frost\n
238.4715	0.119	476943	keystroke_r	r	n/a
238.5315	0.15	477063	keystroke_e	e	n/a
238.6355	0.121	477271	keystroke_m	m	n/a
238.816	0.1655	477632	keystroke_a	a	n/a
238.9515	0.0745	477903	keystroke_i	i	n/a
239.0855	0.1205	478171	keystroke_n	n	n/a
239.221	0.1655	478442	keystroke_d	d	n/a
239.372	0.269	478744	keystroke_e	e	n/a
239.491	0.21	478982	keystroke_r	r	n/a
239.6255	0.15	479251	keystroke_Key.space	Key.space	n/a
240.586	0.135	481172	keystroke_p	p	n/a
240.706	0.15	481412	keystroke_r	r	n/a
240.871	0.105	481742	keystroke_o	o	n/a
241.156	0.105	482312	keystroke_m	m	n/a
241.3665	0.1195	482733	keystroke_o	o	n/a
241.6365	0.1045	483273	keystroke_t	t	n/a
241.8015	0.165	483603	keystroke_e	e	n/a
241.9515	0.1345	483903	keystroke_Key.space	Key.space	n/a
242.521	0.1195	485042	keystroke_p	p	n/a
242.7765	0.105	485553	keystroke_u	u	n/a
243.331	0.12	486662	keystroke_r	r	n/a
243.467	0.24	486934	keystroke_p	p	n/a
243.616	0.165	487232	keystroke_o	o	n/a
243.901	0.15	487802	keystroke_l	l	n/a
244.036	0.135	488072	keystroke_e	e	n/a
244.4415	0.06	488883	keystroke_Key.backspace	Key.backspace	n/a
244.606	0.09	489212	keystroke_Key.backspace	Key.backspace	n/a
244.786	0.09	489572	keystroke_Key.backspace	Key.backspace	n/a
245.041	0.1345	490082	keystroke_l	l	n/a
245.581	0.105	491162	keystroke_e	e	n/a
245.701	0.12	491402	keystroke_Key.space	Key.space	n/a
246.196	0.151	492392	keystroke_f	f	n/a
246.301	0.12	492602	keystroke_r	r	n/a
246.362	0.119	492724	keystroke_o	o	n/a
246.5405	0.15	493081	keystroke_s	s	n/a
246.7655	0.135	493531	keystroke_t	t	n/a
246.9305	0.105	493861	keystroke_Key.enter	Key.enter	n/a
247.0445	8.5135	494089	prompt	n/a	illinois welsh reviewer christian\n
248.011	0.1055	496022	keystroke_i	i	n/a
248.266	0.0455	496532	keystroke_l	l	n/a
248.371	0.0755	496742	keystroke_l	l	n/a
248.5505	0.09	497101	keystroke_i	i	n/a
248.746	0.1345	497492	keystroke_n	n	n/a
248.941	0.2105	497882	keystroke_o	o	n/a
249.0455	0.15	498091	keystroke_i	i	n/a
249.2105	0.1205	498421	keystroke_s	s	n/a
249.376	0.12	498752	keystroke_Key.space	Key.space	n/a
250.0065	0.195	500013	keystroke_w	w	n/a
250.111	0.135	500222	keystroke_e	e	n/a
250.231	0.135	500462	keystroke_l	l	n/a
250.531	0.15	501062	keystroke_s	s	n/a
250.741	0.18	501482	keystroke_h	h	n/a
250.876	0.105	501752	keystroke_Key.space	Key.space	n/a
251.071	0.15	502142	keystroke_r	r	n/a
251.161	0.15	502322	keystroke_e	e	n/a
251.7765	0.1495	503553	keystroke_v	v	n/a
251.956	0.105	503912	keystroke_i	i	n/a
252.122	0.119	504244	keystroke_e	e	n/a
252.391	0.285	504782	keystroke_w	w	n/a
252.541	0.1945	505082	keystroke_e	e	n/a
252.916	0.195	505832	keystroke_r	r	n/a
253.2305	0.1355	506461	keystroke_Key.space	Key.space	n/a
253.741	0.09	507482	keystroke_c	c	n/a
253.786	0.135	507572	keystroke_h	h	n/a
254.1015	0.1345	508203	keystroke_r	r	n/a
254.206	0.12	508412	keystroke_i	i	n/a
254.341	0.1355	508682	keystroke_s	s	n/a
254.521	0.1195	509042	keystroke_t	t	n/a
254.612	0.119	509224	keystroke_i	i	n/a
254.8215	0.225	509643	keystroke_a	a	n/a
255.0315	0.1045	510063	keystroke_n	n	n/a
255.5105	0.045	511021	keystroke_Key.enter	Key.enter	n/a
255.5615	10.556	511123	prompt	n/a	opponents blonde gamecube tournament\n
256.516	0.1055	513032	keystroke_o	o	n/a
256.7415	0.059	513483	keystroke_p	p	n/a
256.8915	0.195	513783	keystroke_p	p	n/a
257.0555	0.1355	514111	keystroke_o	o	n/a
257.401	0.06	514802	keystroke_n	n	n/a
257.4755	0.1505	514951	keystroke_e	e	n/a
257.5815	0.135	515163	keystroke_n	n	n/a
257.7455	0.121	515491	keystroke_t	t	n/a
257.9565	0.15	515913	keystroke_s	s	n/a
258.0765	0.1345	516153	keystroke_Key.space	Key.space	n/a
258.526	0.1195	517052	keystroke_b	b	n/a
258.7805	0.0755	517561	keystroke_l	l	n/a
258.9755	0.075	517951	keystroke_o	o	n/a
259.1565	0.105	518313	keystroke_n	n	n/a
259.3055	0.18	518611	keystroke_d	d	n/a
259.5305	0.1805	519061	keystroke_e	e	n/a
259.681	0.1195	519362	keystroke_Key.space	Key.space	n/a
260.431	0.105	520862	keystroke_g	g	n/a
260.5205	0.151	521041	keystroke_a	a	n/a
260.7015	0.119	521403	keystroke_m	m	n/a
260.8055	0.1355	521611	keystroke_e	e	n/a
261.121	0.18	522242	keystroke_c	c	n/a
261.241	0.09	522482	keystroke_u	u	n/a
261.406	0.1195	522812	keystroke_b	b	n/a
261.5705	0.15	523141	keystroke_e	e	n/a
261.991	0.1045	523982	keystroke_Key.space	Key.space	n/a
262.3365	0.18	524673	keystroke_t	t	n/a
262.5005	0.225	525001	keystroke_o	o	n/a
262.5765	0.135	525153	keystroke_r	r	n/a
263.1305	0.1355	526261	keystroke_Key.backspace	Key.backspace	n/a
263.4615	0.135	526923	keystroke_u	u	n/a
264.076	0.165	528152	keystroke_r	r	n/a
264.211	0.09	528422	keystroke_n	n	n/a
264.376	0.1505	528752	keystroke_a	a	n/a
264.5115	0.075	529023	keystroke_m	m	n/a
264.691	0.076	529382	keystroke_e	e	n/a
264.7515	0.06	529503	keystroke_n	n	n/a
265.3515	0.135	530703	keystroke_t	t	n/a
265.9955	0.12	531991	keystroke_Key.enter	Key.enter	n/a
266.125	10.9875	532250	prompt	n/a	scanners longest gibraltar decision\n
266.912	0.1045	533824	keystroke_s	s	n/a
267.1365	0.1795	534273	keystroke_c	c	n/a
268.0665	0.015	536133	keystroke_a	a	n/a
268.0965	0.03	536193	keystroke_n	n	n/a
268.2155	0.091	536431	keystroke_n	n	n/a
268.396	0.1805	536792	keystroke_e	e	n/a
268.4865	0.135	536973	keystroke_r	r	n/a
268.712	0.134	537424	keystroke_s	s	n/a
268.847	0.104	537694	keystroke_Key.space	Key.space	n/a
269.161	0.075	538322	keystroke_l	l	n/a
269.3715	0.045	538743	keystroke_o	o	n/a
269.521	0.1055	539042	keystroke_n	n	n/a
269.656	0.1205	539312	keystroke_g	g	n/a
269.881	0.1205	539762	keystroke_e	e	n/a
270.06	0.166	540120	keystroke_s	s	n/a
270.241	0.1505	540482	keystroke_t	t	n/a
270.3765	0.12	540753	keystroke_Key.space	Key.space	n/a
270.9615	0.135	541923	keystroke_g	g	n/a
271.0815	0.12	542163	keystroke_i	i	n/a
271.3365	0.12	542673	keystroke_b	b	n/a
271.591	0.12	543182	keystroke_r	r	n/a
272.266	0.15	544532	keystroke_a	a	n/a
273.2565	0.06	546513	keystroke_l	l	n/a
273.5715	0.12	547143	keystroke_t	t	n/a
273.7815	0.1945	547563	keystroke_a	a	n/a
273.9905	0.15	547981	keystroke_r	r	n/a
274.2165	0.119	548433	keystroke_Key.space	Key.space	n/a
274.9815	0.15	549963	keystroke_d	d	n/a
275.866	0.0155	551732	keystroke_e	e	n/a
276.1515	0.09	552303	keystroke_c	c	n/a
276.2565	0.105	552513	keystroke_i	i	n/a
276.3915	0.1945	552783	keystroke_s	s	n/a
276.481	0.09	552962	keystroke_i	i	n/a
276.661	0.0745	553322	keystroke_o	o	n/a
276.811	0.12	553622	keystroke_n	n	n/a
277.036	0.0745	554072	keystroke_Key.enter	Key.enter	n/a
277.1225	7.115	554245	prompt	n/a	diabetes bend caribbean ross\n
278.3415	0.0905	556683	keystroke_d	d	n/a
278.4165	0.0895	556833	keystroke_i	i	n/a
278.566	0.165	557132	keystroke_a	a	n/a
278.701	0.1505	557402	keystroke_b	b	n/a
278.956	0.165	557912	keystroke_e	e	n/a
279.256	0.12	558512	keystroke_t	t	n/a
279.451	0.12	558902	keystroke_e	e	n/a
279.6465	0.1645	559293	keystroke_s	s	n/a
279.766	0.105	559532	keystroke_Key.space	Key.space	n/a
279.946	0.1495	559892	keystroke_b	b	n/a
280.0505	0.1505	560101	keystroke_e	e	n/a
280.216	0.1505	560432	keystroke_n	n	n/a
280.562	0.149	561124	keystroke_d	d	n/a
280.726	0.15	561452	keystroke_Key.space	Key.space	n/a
281.026	0.165	562052	keystroke_c	c	n/a
281.3715	0.105	562743	keystroke_a	a	n/a
281.581	0.151	563162	keystroke_r	r	n/a
281.7015	0.1055	563403	keystroke_i	i	n/a
282.077	0.119	564154	keystroke_b	b	n/a
282.631	0.135	565262	keystroke_b	b	n/a
282.7815	0.135	565563	keystroke_e	e	n/a
282.9915	0.15	565983	keystroke_a	a	n/a
283.0815	0.18	566163	keystroke_n	n	n/a
283.1865	0.12	566373	keystroke_Key.space	Key.space	n/a
283.5465	0.1205	567093	keystroke_r	r	n/a
283.6365	0.09	567273	keystroke_o	o	n/a
283.7865	0.105	567573	keystroke_s	s	n/a
283.9815	0.1495	567963	keystroke_s	s	n/a
284.1765	0.0595	568353	keystroke_Key.enter	Key.enter	n/a
284.2445	8.558	568489	prompt	n/a	tripadvisor commercial stops burton\n
285.1665	0.12	570333	keystroke_t	t	n/a
285.3905	0.106	570781	keystroke_r	r	n/a
285.8415	0.0745	571683	keystroke_i	i	n/a
286.036	0.1205	572072	keystroke_p	p	n/a
286.2165	0.149	572433	keystroke_a	a	n/a
286.5765	0.1345	573153	keystroke_d	d	n/a
287.641	0.1055	575282	keystroke_v	v	n/a
287.7315	0.12	575463	keystroke_i	i	n/a
287.927	0.1345	575854	keystroke_s	s	n/a
288.0165	0.12	576033	keystroke_o	o	n/a
288.1815	0.15	576363	keystroke_r	r	n/a
288.316	0.09	576632	keystroke_Key.space	Key.space	n/a
288.527	0.149	577054	keystroke_c	c	n/a
288.5865	0.074	577173	keystroke_o	o	n/a
288.781	0.03	577562	keystroke_m	m	n/a
288.871	0.12	577742	keystroke_m	m	n/a
289.0365	0.21	578073	keystroke_e	e	n/a
289.171	0.165	578342	keystroke_r	r	n/a
289.6365	0.135	579273	keystroke_c	c	n/a
289.7115	0.135	579423	keystroke_i	i	n/a
289.8315	0.18	579663	keystroke_a	a	n/a
289.9515	0.24	579903	keystroke_l	l	n/a
290.1015	0.1195	580203	keystroke_Key.space	Key.space	n/a
290.491	0.09	580982	keystroke_s	s	n/a
290.7165	0.1505	581433	keystroke_t	t	n/a
290.792	0.0895	581584	keystroke_o	o	n/a
290.957	0.1345	581914	keystroke_p	p	n/a
291.1665	0.135	582333	keystroke_s	s	n/a
291.3165	0.12	582633	keystroke_Key.space	Key.space	n/a
291.6765	0.09	583353	keystroke_b	b	n/a
291.8415	0.164	583683	keystroke_u	u	n/a
291.9915	0.1045	583983	keystroke_r	r	n/a
292.217	0.1795	584434	keystroke_t	t	n/a
292.3065	0.119	584613	keystroke_o	o	n/a
292.5005	0.106	585001	keystroke_n	n	n/a
292.741	0.06	585482	keystroke_Key.enter	Key.enter	n/a
292.8095	7.598	585619	prompt	n/a	communication packard suit intervals\n
293.5515	0.18	587103	keystroke_c	c	n/a
293.6265	0.09	587253	keystroke_o	o	n/a
293.776	0.09	587552	keystroke_m	m	n/a
293.911	0.091	587822	keystroke_m	m	n/a
294.106	0.0755	588212	keystroke_u	u	n/a
294.241	0.076	588482	keystroke_n	n	n/a
294.406	0.106	588812	keystroke_i	i	n/a
294.497	0.1645	588994	keystroke_c	c	n/a
294.6165	0.12	589233	keystroke_a	a	n/a
294.8715	0.18	589743	keystroke_t	t	n/a
294.9615	0.165	589923	keystroke_i	i	n/a
295.0665	0.121	590133	keystroke_o	o	n/a
295.2615	0.12	590523	keystroke_n	n	n/a
295.8005	0.1055	591601	keystroke_Key.space	Key.space	n/a
296.1315	0.1505	592263	keystroke_p	p	n/a
296.267	0.1195	592534	keystroke_a	a	n/a
296.4915	0.1505	592983	keystroke_c	c	n/a
296.5815	0.135	593163	keystroke_k	k	n/a
296.882	0.2095	593764	keystroke_a	a	n/a
297.106	0.15	594212	keystroke_r	r	n/a
297.8705	0.18	595741	keystroke_d	d	n/a
298.0655	0.1055	596131	keystroke_Key.space	Key.space	n/a
298.277	0.164	596554	keystroke_s	s	n/a
298.367	0.12	596734	keystroke_u	u	n/a
298.562	0.09	597124	keystroke_i	i	n/a
298.591	0.15	597182	keystroke_t	t	n/a
298.756	0.075	597512	keystroke_Key.space	Key.space	n/a
298.891	0.091	597782	keystroke_i	i	n/a
299.042	0.119	598084	keystroke_n	n	n/a
299.072	0.1045	598144	keystroke_t	t	n/a
299.2365	0.18	598473	keystroke_e	e	n/a
299.3115	0.12	598623	keystroke_r	r	n/a
299.4015	0.105	598803	keystroke_n	n	n/a
299.5675	0.164	599135	keystroke_a	a	n/a
299.6715	0.09	599343	keystroke_l	l	n/a
300.3015	0.105	600603	keystroke_Key.enter	Key.enter	n/a
300.419	7.354	600838	prompt	n/a	potatoes faced salt haiti\n
301.2915	0.21	602583	keystroke_p	p	n/a
301.4255	0.196	602851	keystroke_o	o	n/a
301.7265	0.105	603453	keystroke_t	t	n/a
301.9065	0.1195	603813	keystroke_a	a	n/a
302.101	0.136	604202	keystroke_t	t	n/a
302.222	0.164	604444	keystroke_o	o	n/a
302.371	0.121	604742	keystroke_r	r	n/a
302.8365	0.1345	605673	keystroke_Key.backspace	Key.backspace	n/a
302.956	0.105	605912	keystroke_e	e	n/a
303.136	0.15	606272	keystroke_s	s	n/a
303.2415	0.1195	606483	keystroke_Key.space	Key.space	n/a
303.8265	0.0895	607653	keystroke_f	f	n/a
303.946	0.181	607892	keystroke_a	a	n/a
304.111	0.21	608222	keystroke_c	c	n/a
304.3365	0.18	608673	keystroke_e	e	n/a
304.5315	0.15	609063	keystroke_d	d	n/a
304.6505	0.1505	609301	keystroke_Key.space	Key.space	n/a
304.9365	0.165	609873	keystroke_s	s	n/a
305.191	0.1505	610382	keystroke_a	a	n/a
305.282	0.1345	610564	keystroke_l	l	n/a
305.461	0.165	610922	keystroke_t	t	n/a
305.612	0.1195	611224	keystroke_Key.space	Key.space	n/a
306.0755	0.0905	612151	keystroke_h	h	n/a
306.1805	0.106	612361	keystroke_a	a	n/a
306.2555	0.136	612511	keystroke_i	i	n/a
306.437	0.149	612874	keystroke_t	t	n/a
306.601	0.091	613202	keystroke_o	o	n/a
307.1265	0.135	614253	keystroke_Key.backspace	Key.backspace	n/a
307.3805	0.091	614761	keystroke_i	i	n/a
307.7105	0.06	615421	keystroke_Key.enter	Key.enter	n/a
307.804	7.0335	615608	prompt	n/a	window shipping tender sufficiently\n
308.4465	0.15	616893	keystroke_w	w	n/a
308.5365	0.0895	617073	keystroke_i	i	n/a
308.7015	0.105	617403	keystroke_n	n	n/a
308.761	0.151	617522	keystroke_d	d	n/a
308.926	0.091	617852	keystroke_o	o	n/a
309.047	0.119	618094	keystroke_w	w	n/a
309.1365	0.0895	618273	keystroke_Key.space	Key.space	n/a
309.3165	0.1505	618633	keystroke_s	s	n/a
309.406	0.1055	618812	keystroke_h	h	n/a
309.482	0.1495	618964	keystroke_i	i	n/a
309.7815	0.0595	619563	keystroke_p	p	n/a
310.2465	0.0895	620493	keystroke_Key.backspace	Key.backspace	n/a
310.757	0.06	621514	keystroke_p	p	n/a
310.891	0.106	621782	keystroke_p	p	n/a
311.131	0.1055	622262	keystroke_i	i	n/a
311.312	0.105	622624	keystroke_n	n	n/a
311.4175	0.1345	622835	keystroke_g	g	n/a
311.5065	0.119	623013	keystroke_Key.space	Key.space	n/a
311.897	0.1045	623794	keystroke_t	t	n/a
312.0615	0.1495	624123	keystroke_e	e	n/a
312.197	0.105	624394	keystroke_n	n	n/a
312.303	0.1635	624606	keystroke_d	d	n/a
312.436	0.256	624872	keystroke_e	e	n/a
312.572	0.165	625144	keystroke_r	r	n/a
312.7065	0.1045	625413	keystroke_Key.space	Key.space	n/a
312.916	0.196	625832	keystroke_s	s	n/a
313.052	0.1195	626104	keystroke_u	u	n/a
313.472	0.12	626944	keystroke_f	f	n/a
313.6665	0.105	627333	keystroke_f	f	n/a
313.726	0.121	627452	keystroke_i	i	n/a
313.891	0.166	627782	keystroke_c	c	n/a
314.026	0.135	628052	keystroke_i	i	n/a
314.1465	0.165	628293	keystroke_e	e	n/a
314.297	0.0895	628594	keystroke_n	n	n/a
314.402	0.105	628804	keystroke_t	t	n/a
314.522	0.105	629044	keystroke_l	l	n/a
314.642	0.1185	629284	keystroke_y	y	n/a
314.7915	0.044	629583	keystroke_Key.enter	Key.enter	n/a
314.844	9.5185	629688	prompt	n/a	fiction seas thoroughly latino\n
317.1035	0.028	634207	keystroke_f	f	n/a
317.1465	0.1045	634293	keystroke_i	i	n/a
317.252	0.1335	634504	keystroke_s	s	n/a
317.4465	0.105	634893	keystroke_t	t	n/a
317.8215	0.119	635643	keystroke_Key.backspace	Key.backspace	n/a
317.9565	0.15	635913	keystroke_c	c	n/a
318.2715	0.195	636543	keystroke_t	t	n/a
318.3615	0.15	636723	keystroke_i	i	n/a
318.4515	0.12	636903	keystroke_o	o	n/a
318.6615	0.1505	637323	keystroke_n	n	n/a
318.7965	0.149	637593	keystroke_Key.space	Key.space	n/a
319.0515	0.119	638103	keystroke_a	a	n/a
319.501	0.106	639002	keystroke_Key.backspace	Key.backspace	n/a
319.637	0.179	639274	keystroke_s	s	n/a
319.7415	0.1505	639483	keystroke_e	e	n/a
319.9515	0.2255	639903	keystroke_a	a	n/a
320.071	0.165	640142	keystroke_s	s	n/a
320.2665	0.1195	640533	keystroke_Key.space	Key.space	n/a
321.152	0.1185	642304	keystroke_t	t	n/a
321.256	0.1055	642512	keystroke_h	h	n/a
321.4965	0.149	642993	keystroke_o	o	n/a
321.8255	0.121	643651	keystroke_r	r	n/a
321.9015	0.21	643803	keystroke_o	o	n/a
322.037	0.1345	644074	keystroke_u	u	n/a
322.2015	0.09	644403	keystroke_g	g	n/a
322.277	0.09	644554	keystroke_h	h	n/a
322.532	0.075	645064	keystroke_l	l	n/a
322.666	0.1205	645332	keystroke_y	y	n/a
322.846	0.12	645692	keystroke_Key.space	Key.space	n/a
323.131	0.136	646262	keystroke_l	l	n/a
323.326	0.106	646652	keystroke_a	a	n/a
323.566	0.15	647132	keystroke_t	t	n/a
323.642	0.104	647284	keystroke_i	i	n/a
323.822	0.119	647644	keystroke_n	n	n/a
323.986	0.105	647972	keystroke_o	o	n/a
324.3015	0.0595	648603	keystroke_Key.enter	Key.enter	n/a
324.3735	14.944	648747	prompt	n/a	writing points excerpt exceed\n
331.294	0.1335	662588	keystroke_w	w	n/a
331.442	0.149	662884	keystroke_r	r	n/a
331.607	0.134	663214	keystroke_i	i	n/a
331.772	0.149	663544	keystroke_t	t	n/a
331.877	0.09	663754	keystroke_i	i	n/a
332.0415	0.105	664083	keystroke_n	n	n/a
332.1015	0.135	664203	keystroke_g	g	n/a
332.2515	0.0905	664503	keystroke_Key.space	Key.space	n/a
332.4315	0.24	664863	keystroke_p	p	n/a
332.5665	0.15	665133	keystroke_o	o	n/a
332.8215	0.0605	665643	keystroke_i	i	n/a
333.002	0.0745	666004	keystroke_n	n	n/a
333.0615	0.105	666123	keystroke_t	t	n/a
333.256	0.1505	666512	keystroke_s	s	n/a
333.361	0.12	666722	keystroke_Key.space	Key.space	n/a
333.6615	0.1195	667323	keystroke_e	e	n/a
334.276	0.0155	668552	keystroke_x	x	n/a
335.072	0.18	670144	keystroke_c	c	n/a
335.3715	0.21	670743	keystroke_e	e	n/a
336.2115	0.15	672423	keystroke_r	r	n/a
336.4825	0.119	672965	keystroke_p	p	n/a
336.5865	0.1355	673173	keystroke_e	e	n/a
336.7665	0.0905	673533	keystroke_t	t	n/a
337.1255	0.076	674251	keystroke_Key.backspace	Key.backspace	n/a
337.2915	0.105	674583	keystroke_Key.backspace	Key.backspace	n/a
337.3515	0.15	674703	keystroke_t	t	n/a
337.4865	0.135	674973	keystroke_Key.space	Key.space	n/a
337.952	0.1195	675904	keystroke_e	e	n/a
338.2515	0.1655	676503	keystroke_x	x	n/a
338.4765	0.24	676953	keystroke_c	c	n/a
338.656	0.151	677312	keystroke_e	e	n/a
338.881	0.2705	677762	keystroke_e	e	n/a
339.032	0.194	678064	keystroke_d	d	n/a
339.2415	0.0745	678483	keystroke_Key.enter	Key.enter	n/a
339.322	5.636	678644	prompt	n/a	tech france applied she\n
340.0525	0.1195	680105	keystroke_t	t	n/a
340.1865	0.12	680373	keystroke_e	e	n/a
340.4265	0.18	680853	keystroke_c	c	n/a
340.561	0.165	681122	keystroke_h	h	n/a
340.6815	0.105	681363	keystroke_Key.space	Key.space	n/a
340.8165	0.09	681633	keystroke_r	r	n/a
341.4315	0.165	682863	keystroke_Key.backspace	Key.backspace	n/a
341.7165	0.195	683433	keystroke_f	f	n/a
341.807	0.1645	683614	keystroke_r	r	n/a
342.3315	0.1805	684663	keystroke_a	a	n/a
342.497	0.12	684994	keystroke_n	n	n/a
342.6765	0.2105	685353	keystroke_c	c	n/a
342.811	0.166	685622	keystroke_e	e	n/a
342.931	0.135	685862	keystroke_Key.space	Key.space	n/a
343.2915	0.1505	686583	keystroke_a	a	n/a
343.412	0.06	686824	keystroke_p	p	n/a
343.5465	0.1045	687093	keystroke_p	p	n/a
343.727	0.089	687454	keystroke_l	l	n/a
343.937	0.089	687874	keystroke_i	i	n/a
344.011	0.1655	688022	keystroke_e	e	n/a
344.086	0.151	688172	keystroke_d	d	n/a
344.2065	0.09	688413	keystroke_Key.space	Key.space	n/a
344.4615	0.15	688923	keystroke_s	s	n/a
344.582	0.1045	689164	keystroke_h	h	n/a
344.6875	0.134	689375	keystroke_e	e	n/a
344.8815	0.075	689763	keystroke_Key.enter	Key.enter	n/a
344.9625	6.1155	689925	prompt	n/a	volleyball dean sunset helped\n
345.9915	0.12	691983	keystroke_v	v	n/a
346.036	0.09	692072	keystroke_o	o	n/a
346.232	0.0595	692464	keystroke_l	l	n/a
346.3665	0.1055	692733	keystroke_l	l	n/a
346.4565	0.135	692913	keystroke_e	e	n/a
346.652	0.0895	693304	keystroke_y	y	n/a
346.8315	0.121	693663	keystroke_b	b	n/a
346.9365	0.165	693873	keystroke_a	a	n/a
347.0865	0.045	694173	keystroke_l	l	n/a
347.192	0.2245	694384	keystroke_l	l	n/a
347.3115	0.135	694623	keystroke_Key.space	Key.space	n/a
347.6115	0.225	695223	keystroke_d	d	n/a
347.7615	0.135	695523	keystroke_e	e	n/a
348.0165	0.165	696033	keystroke_a	a	n/a
348.346	0.211	696692	keystroke_n	n	n/a
348.482	0.1495	696964	keystroke_Key.space	Key.space	n/a
348.7665	0.1505	697533	keystroke_s	s	n/a
348.887	0.1195	697774	keystroke_u	u	n/a
349.097	0.1195	698194	keystroke_n	n	n/a
349.2465	0.2105	698493	keystroke_s	s	n/a
349.3965	0.1645	698793	keystroke_e	e	n/a
349.6815	0.105	699363	keystroke_t	t	n/a
349.7565	0.12	699513	keystroke_Key.space	Key.space	n/a
349.9665	0.105	699933	keystroke_h	h	n/a
350.0565	0.136	700113	keystroke_e	e	n/a
350.2365	0.12	700473	keystroke_l	l	n/a
350.4615	0.1055	700923	keystroke_p	p	n/a
350.582	0.224	701164	keystroke_e	e	n/a
350.776	0.18	701552	keystroke_d	d	n/a
351.001	0.0755	702002	keystroke_Key.enter	Key.enter	n/a
351.082	8.426	702164	prompt	n/a	liabilities exciting asking discovered\n
351.737	0.105	703474	keystroke_l	l	n/a
351.946	0.105	703892	keystroke_i	i	n/a
352.067	0.1495	704134	keystroke_a	a	n/a
352.186	0.091	704372	keystroke_b	b	n/a
352.367	0.09	704734	keystroke_i	i	n/a
352.577	0.06	705154	keystroke_l	l	n/a
352.7565	0.0905	705513	keystroke_i	i	n/a
352.8765	0.105	705753	keystroke_t	t	n/a
352.9665	0.1345	705933	keystroke_i	i	n/a
353.086	0.12	706172	keystroke_e	e	n/a
353.311	0.1205	706622	keystroke_s	s	n/a
353.416	0.0755	706832	keystroke_Key.space	Key.space	n/a
353.551	0.136	707102	keystroke_e	e	n/a
354.122	0.09	708244	keystroke_x	x	n/a
354.467	0.1495	708934	keystroke_c	c	n/a
354.6315	0.105	709263	keystroke_i	i	n/a
354.886	0.1065	709772	keystroke_i	i	n/a
355.1715	0.1055	710343	keystroke_n	n	n/a
355.2915	0.15	710583	keystroke_g	g	n/a
355.3965	0.12	710793	keystroke_Key.space	Key.space	n/a
356.252	0.179	712504	keystroke_a	a	n/a
356.4465	0.136	712893	keystroke_s	s	n/a
356.5515	0.09	713103	keystroke_k	k	n/a
356.762	0.0595	713524	keystroke_i	i	n/a
356.9115	0.0905	713823	keystroke_n	n	n/a
357.017	0.075	714034	keystroke_g	g	n/a
357.093	0.118	714186	keystroke_Key.space	Key.space	n/a
357.8415	0.12	715683	keystroke_d	d	n/a
357.9315	0.105	715863	keystroke_i	i	n/a
358.0815	0.0905	716163	keystroke_s	s	n/a
358.3215	0.106	716643	keystroke_c	c	n/a
358.3815	0.105	716763	keystroke_o	o	n/a
358.5775	0.1045	717155	keystroke_v	v	n/a
358.802	0.179	717604	keystroke_e	e	n/a
358.922	0.1945	717844	keystroke_r	r	n/a
359.0575	0.2545	718115	keystroke_e	e	n/a
359.252	0.164	718504	keystroke_d	d	n/a
359.4315	0.0745	718863	keystroke_Key.enter	Key.enter	n/a
359.525	6.314	719050	prompt	n/a	rated fair voice albums\n
360.317	0.09	720634	keystroke_r	r	n/a
360.452	0.149	720904	keystroke_a	a	n/a
360.721	0.091	721442	keystroke_t	t	n/a
360.962	0.075	721924	keystroke_e	e	n/a
361.052	0.135	722104	keystroke_d	d	n/a
361.217	0.135	722434	keystroke_Key.space	Key.space	n/a
362.0565	0.15	724113	keystroke_f	f	n/a
362.132	0.2105	724264	keystroke_a	a	n/a
362.266	0.1065	724532	keystroke_i	i	n/a
362.461	0.1365	724922	keystroke_r	r	n/a
362.5815	0.0895	725163	keystroke_Key.space	Key.space	n/a
362.791	0.195	725582	keystroke_v	v	n/a
362.8965	0.27	725793	keystroke_o	o	n/a
363.017	0.1805	726034	keystroke_i	i	n/a
363.2875	0.2245	726575	keystroke_s	s	n/a
363.841	0.15	727682	keystroke_Key.backspace	Key.backspace	n/a
364.262	0.1655	728524	keystroke_c	c	n/a
364.337	0.1655	728674	keystroke_e	e	n/a
364.486	0.12	728972	keystroke_Key.space	Key.space	n/a
364.592	0.179	729184	keystroke_a	a	n/a
364.7265	0.075	729453	keystroke_l	l	n/a
364.966	0.105	729932	keystroke_b	b	n/a
365.147	0.12	730294	keystroke_u	u	n/a
365.417	0.12	730834	keystroke_m	m	n/a
365.567	0.135	731134	keystroke_s	s	n/a
365.7465	0.0895	731493	keystroke_Key.enter	Key.enter	n/a
365.8515	7.3215	731703	prompt	n/a	designation counter jackie mobility\n
366.7065	0.1355	733413	keystroke_d	d	n/a
366.767	0.1045	733534	keystroke_e	e	n/a
366.976	0.1205	733952	keystroke_s	s	n/a
367.082	0.12	734164	keystroke_i	i	n/a
367.217	0.1345	734434	keystroke_g	g	n/a
367.3365	0.076	734673	keystroke_n	n	n/a
367.6215	0.12	735243	keystroke_a	a	n/a
367.8915	0.12	735783	keystroke_t	t	n/a
367.9965	0.1505	735993	keystroke_i	i	n/a
368.102	0.1055	736204	keystroke_o	o	n/a
368.311	0.1505	736622	keystroke_n	n	n/a
368.431	0.105	736862	keystroke_Key.space	Key.space	n/a
368.582	0.1795	737164	keystroke_c	c	n/a
368.671	0.1805	737342	keystroke_o	o	n/a
368.7765	0.0905	737553	keystroke_u	u	n/a
368.9875	0.119	737975	keystroke_n	n	n/a
369.0765	0.1055	738153	keystroke_t	t	n/a
369.2265	0.195	738453	keystroke_e	e	n/a
369.3465	0.12	738693	keystroke_r	r	n/a
369.8265	0.105	739653	keystroke_Key.space	Key.space	n/a
370.3215	0.15	740643	keystroke_j	j	n/a
370.412	0.1205	740824	keystroke_a	a	n/a
370.607	0.165	741214	keystroke_c	c	n/a
370.697	0.12	741394	keystroke_k	k	n/a
370.922	0.135	741844	keystroke_i	i	n/a
371.117	0.135	742234	keystroke_e	e	n/a
371.267	0.0895	742534	keystroke_Key.space	Key.space	n/a
371.4915	0.0745	742983	keystroke_m	m	n/a
371.6725	0.104	743345	keystroke_o	o	n/a
371.9715	0.0605	743943	keystroke_b	b	n/a
372.1365	0.105	744273	keystroke_i	i	n/a
372.347	0.0595	744694	keystroke_l	l	n/a
372.5415	0.0905	745083	keystroke_i	i	n/a
372.6625	0.1345	745325	keystroke_t	t	n/a
372.812	0.104	745624	keystroke_y	y	n/a
373.112	0.059	746224	keystroke_Key.enter	Key.enter	n/a
373.1775	5.9355	746355	prompt	n/a	purchasing elite titans you\n
373.952	0.1655	747904	keystroke_p	p	n/a
374.1315	0.121	748263	keystroke_u	u	n/a
374.3115	0.1205	748623	keystroke_r	r	n/a
374.7475	0.1645	749495	keystroke_c	c	n/a
374.867	0.134	749734	keystroke_h	h	n/a
374.972	0.21	749944	keystroke_a	a	n/a
375.137	0.15	750274	keystroke_s	s	n/a
375.2425	0.0895	750485	keystroke_i	i	n/a
375.407	0.09	750814	keystroke_n	n	n/a
375.512	0.12	751024	keystroke_g	g	n/a
375.617	0.135	751234	keystroke_Key.space	Key.space	n/a
375.947	0.15	751894	keystroke_e	e	n/a
376.0665	0.09	752133	keystroke_l	l	n/a
376.2775	0.0895	752555	keystroke_i	i	n/a
376.4865	0.0605	752973	keystroke_t	t	n/a
376.5915	0.135	753183	keystroke_e	e	n/a
376.787	0.18	753574	keystroke_Key.space	Key.space	n/a
377.1165	0.1355	754233	keystroke_t	t	n/a
377.2065	0.105	754413	keystroke_i	i	n/a
377.3265	0.15	754653	keystroke_t	t	n/a
377.6265	0.1505	755253	keystroke_a	a	n/a
377.792	0.1205	755584	keystroke_n	n	n/a
377.972	0.165	755944	keystroke_s	s	n/a
378.1375	0.119	756275	keystroke_Key.space	Key.space	n/a
378.5415	0.09	757083	keystroke_y	y	n/a
378.7365	0.105	757473	keystroke_o	o	n/a
378.7665	0.12	757533	keystroke_u	u	n/a
379.0365	0.075	758073	keystroke_Key.enter	Key.enter	n/a
379.125	10.3235	758250	prompt	n/a	unexpected darkness actors bailey\n
379.786	0.1355	759572	keystroke_e	e	n/a
380.281	0.09	760562	keystroke_Key.backspace	Key.backspace	n/a
380.536	0.0755	761072	keystroke_u	u	n/a
380.747	0.0595	761494	keystroke_n	n	n/a
380.971	0.0905	761942	keystroke_e	e	n/a
381.347	0.12	762694	keystroke_x	x	n/a
381.587	0.134	763174	keystroke_p	p	n/a
381.752	0.15	763504	keystroke_e	e	n/a
381.9775	0.1495	763955	keystroke_c	c	n/a
382.277	0.09	764554	keystroke_t	t	n/a
382.457	0.1655	764914	keystroke_e	e	n/a
382.6065	0.046	765213	keystroke_d	d	n/a
382.6375	0.134	765275	keystroke_Key.space	Key.space	n/a
382.9515	0.151	765903	keystroke_d	d	n/a
383.0415	0.12	766083	keystroke_i	i	n/a
383.1915	0.165	766383	keystroke_a	a	n/a
383.747	0.0595	767494	keystroke_Key.backspace	Key.backspace	n/a
383.8965	0.1055	767793	keystroke_Key.backspace	Key.backspace	n/a
383.9575	0.149	767915	keystroke_a	a	n/a
384.1965	0.195	768393	keystroke_r	r	n/a
384.5115	0.09	769023	keystroke_k	k	n/a
385.0215	0.105	770043	keystroke_n	n	n/a
385.1415	0.1355	770283	keystroke_e	e	n/a
385.352	0.105	770704	keystroke_s	s	n/a
385.5325	0.1195	771065	keystroke_s	s	n/a
385.6215	0.1355	771243	keystroke_Key.space	Key.space	n/a
385.7715	0.166	771543	keystroke_a	a	n/a
386.0715	0.166	772143	keystroke_c	c	n/a
386.477	0.1205	772954	keystroke_t	t	n/a
386.5675	0.135	773135	keystroke_o	o	n/a
386.8065	0.075	773613	keystroke_r	r	n/a
387.092	0.135	774184	keystroke_s	s	n/a
387.196	0.0905	774392	keystroke_Key.space	Key.space	n/a
387.422	0.1195	774844	keystroke_b	b	n/a
387.812	0.1805	775624	keystroke_a	a	n/a
387.902	0.105	775804	keystroke_i	i	n/a
388.126	0.105	776252	keystroke_l	l	n/a
388.277	0.2095	776554	keystroke_e	e	n/a
388.3815	0.135	776763	keystroke_r	r	n/a
388.966	0.15	777932	keystroke_Key.backspace	Key.backspace	n/a
389.2215	0.12	778443	keystroke_y	y	n/a
389.3565	0.09	778713	keystroke_Key.enter	Key.enter	n/a
389.453	9.595	778906	prompt	n/a	controlling desert excluded governance\n
390.227	0.15	780454	keystroke_c	c	n/a
390.301	0.091	780602	keystroke_o	o	n/a
390.4515	0.136	780903	keystroke_n	n	n/a
390.5725	0.1195	781145	keystroke_t	t	n/a
390.6625	0.119	781325	keystroke_r	r	n/a
390.7215	0.061	781443	keystroke_o	o	n/a
390.887	0.0595	781774	keystroke_l	l	n/a
391.0215	0.091	782043	keystroke_l	l	n/a
391.2465	0.0905	782493	keystroke_i	i	n/a
391.426	0.091	782852	keystroke_n	n	n/a
391.502	0.135	783004	keystroke_g	g	n/a
391.622	0.12	783244	keystroke_Key.space	Key.space	n/a
392.117	0.164	784234	keystroke_d	d	n/a
392.177	0.1945	784354	keystroke_e	e	n/a
392.612	0.2095	785224	keystroke_s	s	n/a
392.701	0.316	785402	keystroke_e	e	n/a
392.927	0.1345	785854	keystroke_r	r	n/a
393.1815	0.1195	786363	keystroke_t	t	n/a
393.2865	0.1345	786573	keystroke_Key.space	Key.space	n/a
393.541	0.135	787082	keystroke_e	e	n/a
393.946	0.166	787892	keystroke_x	x	n/a
394.262	0.18	788524	keystroke_c	c	n/a
394.366	0.076	788732	keystroke_l	l	n/a
394.577	0.12	789154	keystroke_u	u	n/a
395.057	0.1645	790114	keystroke_d	d	n/a
395.1615	0.2555	790323	keystroke_e	e	n/a
395.3415	0.1805	790683	keystroke_d	d	n/a
395.5065	0.1355	791013	keystroke_Key.space	Key.space	n/a
397.487	0.12	794974	keystroke_g	g	n/a
397.5925	0.1195	795185	keystroke_o	o	n/a
397.742	0.135	795484	keystroke_v	v	n/a
398.0115	0.1505	796023	keystroke_e	e	n/a
398.1015	0.1195	796203	keystroke_r	r	n/a
398.237	0.059	796474	keystroke_n	n	n/a
398.311	0.18	796622	keystroke_a	a	n/a
398.386	0.121	796772	keystroke_n	n	n/a
398.642	0.225	797284	keystroke_c	c	n/a
398.776	0.166	797552	keystroke_e	e	n/a
398.972	0.074	797944	keystroke_Key.enter	Key.enter	n/a
399.053	9.925	798106	prompt	n/a	extent backed bandwidth surfaces\n
399.737	0.12	799474	keystroke_e	e	n/a
399.992	0.12	799984	keystroke_c	c	n/a
400.561	0.12	801122	keystroke_Key.backspace	Key.backspace	n/a
400.651	0.121	801302	keystroke_x	x	n/a
400.937	0.09	801874	keystroke_t	t	n/a
401.072	0.135	802144	keystroke_e	e	n/a
401.192	0.105	802384	keystroke_n	n	n/a
401.3265	0.1355	802653	keystroke_t	t	n/a
401.4465	0.09	802893	keystroke_Key.space	Key.space	n/a
401.882	0.074	803764	keystroke_b	b	n/a
401.972	0.089	803944	keystroke_a	a	n/a
402.182	0.1645	804364	keystroke_c	c	n/a
402.2715	0.1495	804543	keystroke_k	k	n/a
403.217	0.225	806434	keystroke_e	e	n/a
403.397	0.149	806794	keystroke_d	d	n/a
403.517	0.104	807034	keystroke_Key.space	Key.space	n/a
403.847	0.1495	807694	keystroke_a	a	n/a
404.342	0.1045	808684	keystroke_Key.backspace	Key.backspace	n/a
404.612	0.1045	809224	keystroke_b	b	n/a
404.7015	0.15	809403	keystroke_a	a	n/a
404.8365	0.12	809673	keystroke_n	n	n/a
404.9865	0.1055	809973	keystroke_d	d	n/a
405.3015	0.1355	810603	keystroke_w	w	n/a
405.392	0.1345	810784	keystroke_i	i	n/a
405.8715	0.1205	811743	keystroke_d	d	n/a
406.187	0.1805	812374	keystroke_t	t	n/a
406.4125	0.195	812825	keystroke_h	h	n/a
406.517	0.135	813034	keystroke_Key.space	Key.space	n/a
407.327	0.12	814654	keystroke_s	s	n/a
407.432	0.119	814864	keystroke_u	u	n/a
407.567	0.1345	815134	keystroke_r	r	n/a
407.9575	0.0745	815915	keystroke_f	f	n/a
408.0465	0.15	816093	keystroke_a	a	n/a
408.4065	0.136	816813	keystroke_c	c	n/a
408.5715	0.1195	817143	keystroke_e	e	n/a
408.781	0.136	817562	keystroke_s	s	n/a
408.9015	0.0745	817803	keystroke_Key.enter	Key.enter	n/a
408.982	7.796	817964	prompt	n/a	clicks cookies condo fighting\n
409.936	0.091	819872	keystroke_l	l	n/a
410.461	0.121	820922	keystroke_Key.backspace	Key.backspace	n/a
410.627	0.15	821254	keystroke_c	c	n/a
410.717	0.12	821434	keystroke_l	l	n/a
410.972	0.225	821944	keystroke_i	i	n/a
411.332	0.135	822664	keystroke_c	c	n/a
411.452	0.105	822904	keystroke_k	k	n/a
411.572	0.165	823144	keystroke_s	s	n/a
411.902	0.075	823804	keystroke_Key.space	Key.space	n/a
412.2465	0.18	824493	keystroke_c	c	n/a
412.337	0.0745	824674	keystroke_o	o	n/a
412.4715	0.091	824943	keystroke_o	o	n/a
412.6825	0.104	825365	keystroke_k	k	n/a
412.9075	0.089	825815	keystroke_i	i	n/a
413.0115	0.1205	826023	keystroke_e	e	n/a
413.3115	0.0755	826623	keystroke_d	d	n/a
413.777	0.09	827554	keystroke_Key.backspace	Key.backspace	n/a
413.8975	0.1345	827795	keystroke_s	s	n/a
414.017	0.1345	828034	keystroke_Key.space	Key.space	n/a
414.212	0.18	828424	keystroke_c	c	n/a
414.302	0.1055	828604	keystroke_o	o	n/a
414.497	0.105	828994	keystroke_n	n	n/a
414.6315	0.15	829263	keystroke_d	d	n/a
414.737	0.1355	829474	keystroke_o	o	n/a
415.142	0.0745	830284	keystroke_Key.space	Key.space	n/a
415.622	0.105	831244	keystroke_f	f	n/a
415.7415	0.106	831483	keystroke_i	i	n/a
415.8775	0.135	831755	keystroke_g	g	n/a
415.9975	0.1355	831995	keystroke_h	h	n/a
416.1465	0.1505	832293	keystroke_t	t	n/a
416.2515	0.0905	832503	keystroke_i	i	n/a
416.4315	0.1055	832863	keystroke_n	n	n/a
416.507	0.12	833014	keystroke_g	g	n/a
416.732	0.045	833464	keystroke_Key.enter	Key.enter	n/a
416.7855	7.7025	833571	prompt	n/a	diffs passed reception condition\n
417.782	0.09	835564	keystroke_d	d	n/a
417.857	0.105	835714	keystroke_i	i	n/a
418.007	0.0745	836014	keystroke_f	f	n/a
418.157	0.15	836314	keystroke_f	f	n/a
418.352	0.1505	836704	keystroke_s	s	n/a
418.472	0.1345	836944	keystroke_Key.space	Key.space	n/a
418.742	0.135	837484	keystroke_p	p	n/a
418.817	0.1655	837634	keystroke_a	a	n/a
419.0575	0.0895	838115	keystroke_s	s	n/a
419.222	0.135	838444	keystroke_s	s	n/a
419.462	0.18	838924	keystroke_e	e	n/a
419.567	0.15	839134	keystroke_d	d	n/a
419.657	0.105	839314	keystroke_Key.space	Key.space	n/a
420.122	0.12	840244	keystroke_r	r	n/a
420.212	0.09	840424	keystroke_e	e	n/a
420.4515	0.1955	840903	keystroke_c	c	n/a
420.587	0.15	841174	keystroke_e	e	n/a
420.962	0.1055	841924	keystroke_p	p	n/a
421.187	0.1195	842374	keystroke_t	t	n/a
421.277	0.1495	842554	keystroke_i	i	n/a
421.382	0.0895	842764	keystroke_o	o	n/a
421.577	0.105	843154	keystroke_n	n	n/a
421.6825	0.0905	843365	keystroke_s	s	n/a
422.477	0.105	844954	keystroke_Key.backspace	Key.backspace	n/a
422.7015	0.091	845403	keystroke_Key.space	Key.space	n/a
423.062	0.15	846124	keystroke_c	c	n/a
423.1365	0.0895	846273	keystroke_o	o	n/a
423.3175	0.1045	846635	keystroke_n	n	n/a
423.4825	0.1345	846965	keystroke_d	d	n/a
423.587	0.1205	847174	keystroke_i	i	n/a
423.812	0.1655	847624	keystroke_t	t	n/a
423.932	0.135	847864	keystroke_i	i	n/a
424.007	0.105	848014	keystroke_o	o	n/a
424.187	0.09	848374	keystroke_n	n	n/a
424.4415	0.0445	848883	keystroke_Key.enter	Key.enter	n/a
424.493	10.96	848986	prompt	n/a	mightn't client authorization meanwhile\n
425.282	0.09	850564	keystroke_m	m	n/a
425.4625	0.165	850925	keystroke_i	i	n/a
425.597	0.105	851194	keystroke_g	g	n/a
425.687	0.12	851374	keystroke_h	h	n/a
425.852	0.1495	851704	keystroke_t	t	n/a
426.797	0.1205	853594	keystroke_n	n	n/a
427.0825	0.1495	854165	keystroke_'	'	n/a
427.367	0.15	854734	keystroke_t	t	n/a
427.487	0.1045	854974	keystroke_Key.space	Key.space	n/a
428.447	0.135	856894	keystroke_c	c	n/a
428.522	0.075	857044	keystroke_l	l	n/a
428.702	0.105	857404	keystroke_i	i	n/a
429.0465	0.1355	858093	keystroke_e	e	n/a
429.6615	0.0755	859323	keystroke_n	n	n/a
429.7815	0.105	859563	keystroke_t	t	n/a
429.8715	0.1055	859743	keystroke_Key.space	Key.space	n/a
430.186	0.1665	860372	keystroke_a	a	n/a
430.2765	0.1045	860553	keystroke_u	u	n/a
430.487	0.105	860974	keystroke_t	t	n/a
430.532	0.105	861064	keystroke_h	h	n/a
430.742	0.075	861484	keystroke_o	o	n/a
430.817	0.15	861634	keystroke_r	r	n/a
431.027	0.135	862054	keystroke_i	i	n/a
431.507	0.135	863014	keystroke_z	z	n/a
432.182	0.15	864364	keystroke_a	a	n/a
432.512	0.1795	865024	keystroke_t	t	n/a
432.617	0.1795	865234	keystroke_i	i	n/a
432.7365	0.105	865473	keystroke_o	o	n/a
432.9325	0.1645	865865	keystroke_n	n	n/a
433.0375	0.0895	866075	keystroke_Key.space	Key.space	n/a
433.232	0.105	866464	keystroke_m	m	n/a
433.3065	0.121	866613	keystroke_e	e	n/a
433.5015	0.15	867003	keystroke_a	a	n/a
433.5775	0.104	867155	keystroke_n	n	n/a
433.8615	0.166	867723	keystroke_s	s	n/a
434.0115	0.106	868023	keystroke_h	h	n/a
434.3715	0.075	868743	keystroke_Key.backspace	Key.backspace	n/a
434.5065	0.0905	869013	keystroke_Key.backspace	Key.backspace	n/a
434.5975	0.1495	869195	keystroke_w	w	n/a
434.7775	0.1195	869555	keystroke_h	h	n/a
434.9125	0.119	869825	keystroke_i	i	n/a
435.1375	0.1195	870275	keystroke_l	l	n/a
435.2265	0.1505	870453	keystroke_e	e	n/a
435.392	0.059	870784	keystroke_Key.enter	Key.enter	n/a
435.457	9.0115	870914	prompt	n/a	piano tracks appearance residence\n
436.128	0.149	872256	keystroke_p	p	n/a
436.367	0.12	872734	keystroke_i	i	n/a
436.487	0.1345	872974	keystroke_a	a	n/a
436.727	0.075	873454	keystroke_n	n	n/a
436.892	0.195	873784	keystroke_o	o	n/a
437.012	0.105	874024	keystroke_Key.space	Key.space	n/a
437.297	0.12	874594	keystroke_t	t	n/a
437.402	0.12	874804	keystroke_r	r	n/a
437.657	0.135	875314	keystroke_a	a	n/a
437.837	0.1655	875674	keystroke_c	c	n/a
437.972	0.135	875944	keystroke_k	k	n/a
438.1215	0.165	876243	keystroke_s	s	n/a
438.2715	0.09	876543	keystroke_Key.space	Key.space	n/a
438.4215	0.1355	876843	keystroke_a	a	n/a
438.542	0.06	877084	keystroke_p	p	n/a
438.677	0.15	877354	keystroke_p	p	n/a
438.796	0.151	877592	keystroke_r	r	n/a
439.142	0.06	878284	keystroke_e	e	n/a
439.562	0.045	879124	keystroke_Key.backspace	Key.backspace	n/a
439.697	0.0595	879394	keystroke_Key.backspace	Key.backspace	n/a
439.847	0.1195	879694	keystroke_e	e	n/a
440.042	0.1495	880084	keystroke_a	a	n/a
440.1775	0.15	880355	keystroke_r	r	n/a
440.6865	0.1495	881373	keystroke_a	a	n/a
440.866	0.0905	881732	keystroke_n	n	n/a
440.9715	0.1955	881943	keystroke_c	c	n/a
441.092	0.1795	882184	keystroke_e	e	n/a
441.5565	0.1055	883113	keystroke_Key.space	Key.space	n/a
441.9625	0.1345	883925	keystroke_r	r	n/a
442.037	0.1495	884074	keystroke_e	e	n/a
442.682	0.105	885364	keystroke_d	d	n/a
443.282	0.135	886564	keystroke_Key.backspace	Key.backspace	n/a
443.432	0.15	886864	keystroke_s	s	n/a
443.5525	0.1495	887105	keystroke_i	i	n/a
443.717	0.195	887434	keystroke_d	d	n/a
443.837	0.165	887674	keystroke_e	e	n/a
443.957	0.1355	887914	keystroke_n	n	n/a
444.077	0.1795	888154	keystroke_c	c	n/a
444.182	0.1505	888364	keystroke_e	e	n/a
444.452	0.015	888904	keystroke_Key.enter	Key.enter	n/a
444.479	5.4965	888958	prompt	n/a	paul elderly horn method\n
445.0815	0.136	890163	keystroke_p	p	n/a
445.1875	0.15	890375	keystroke_a	a	n/a
445.3525	0.119	890705	keystroke_u	u	n/a
445.6525	0.179	891305	keystroke_l	l	n/a
445.772	0.1195	891544	keystroke_Key.space	Key.space	n/a
445.952	0.1345	891904	keystroke_e	e	n/a
446.0715	0.15	892143	keystroke_l	l	n/a
446.2365	0.1355	892473	keystroke_d	d	n/a
446.432	0.195	892864	keystroke_e	e	n/a
446.552	0.135	893104	keystroke_r	r	n/a
446.7925	0.12	893585	keystroke_l	l	n/a
447.182	0.21	894364	keystroke_y	y	n/a
447.512	0.15	895024	keystroke_Key.space	Key.space	n/a
448.022	0.09	896044	keystroke_h	h	n/a
448.172	0.1345	896344	keystroke_o	o	n/a
448.2915	0.151	896583	keystroke_r	r	n/a
448.4125	0.2095	896825	keystroke_n	n	n/a
448.562	0.075	897124	keystroke_Key.space	Key.space	n/a
448.907	0.09	897814	keystroke_m	m	n/a
449.0565	0.105	898113	keystroke_e	e	n/a
449.2675	0.134	898535	keystroke_t	t	n/a
449.3275	0.105	898655	keystroke_h	h	n/a
449.5075	0.1345	899015	keystroke_o	o	n/a
449.717	0.119	899434	keystroke_d	d	n/a
449.911	0.06	899822	keystroke_Key.enter	Key.enter	n/a
449.98	7.9135	899960	prompt	n/a	stopping statutory comply soundtrack\n
450.7525	0.0895	901505	keystroke_s	s	n/a
450.9775	0.1345	901955	keystroke_t	t	n/a
451.097	0.075	902194	keystroke_o	o	n/a
451.292	0.045	902584	keystroke_p	p	n/a
451.412	0.0605	902824	keystroke_p	p	n/a
451.607	0.09	903214	keystroke_i	i	n/a
451.757	0.1045	903514	keystroke_n	n	n/a
451.832	0.1195	903664	keystroke_g	g	n/a
451.9365	0.12	903873	keystroke_Key.space	Key.space	n/a
452.102	0.15	904204	keystroke_s	s	n/a
452.4465	0.1055	904893	keystroke_t	t	n/a
452.6575	0.1195	905315	keystroke_a	a	n/a
452.8815	0.136	905763	keystroke_t	t	n/a
452.987	0.105	905974	keystroke_u	u	n/a
453.272	0.1355	906544	keystroke_t	t	n/a
453.376	0.1065	906752	keystroke_o	o	n/a
453.4975	0.1645	906995	keystroke_r	r	n/a
453.708	0.224	907416	keystroke_y	y	n/a
453.887	0.12	907774	keystroke_Key.space	Key.space	n/a
454.397	0.195	908794	keystroke_c	c	n/a
454.532	0.09	909064	keystroke_o	o	n/a
454.727	0.075	909454	keystroke_m	m	n/a
454.967	0.015	909934	keystroke_p	p	n/a
455.057	0.105	910114	keystroke_l	l	n/a
455.357	0.165	910714	keystroke_y	y	n/a
455.447	0.12	910894	keystroke_Key.space	Key.space	n/a
456.2575	0.134	912515	keystroke_s	s	n/a
456.3325	0.1345	912665	keystroke_o	o	n/a
456.422	0.105	912844	keystroke_u	u	n/a
456.647	0.0895	913294	keystroke_n	n	n/a
456.7375	0.104	913475	keystroke_d	d	n/a
456.9925	0.135	913985	keystroke_t	t	n/a
457.113	0.119	914226	keystroke_r	r	n/a
457.382	0.12	914764	keystroke_a	a	n/a
457.472	0.165	914944	keystroke_c	c	n/a
457.577	0.105	915154	keystroke_k	k	n/a
457.832	0.06	915664	keystroke_Key.enter	Key.enter	n/a
457.9055	5.643	915811	prompt	n/a	gets kenny valued gamma\n
458.7175	0.1195	917435	keystroke_g	g	n/a
458.822	0.21	917644	keystroke_e	e	n/a
459.047	0.15	918094	keystroke_t	t	n/a
459.227	0.195	918454	keystroke_s	s	n/a
459.377	0.105	918754	keystroke_Key.space	Key.space	n/a
459.887	0.09	919774	keystroke_k	k	n/a
460.007	0.15	920014	keystroke_e	e	n/a
460.232	0.045	920464	keystroke_n	n	n/a
460.352	0.0905	920704	keystroke_n	n	n/a
460.5625	0.1645	921125	keystroke_y	y	n/a
460.667	0.12	921334	keystroke_Key.space	Key.space	n/a
461.2675	0.1195	922535	keystroke_v	v	n/a
461.3715	0.181	922743	keystroke_a	a	n/a
461.4165	0.075	922833	keystroke_l	l	n/a
461.6125	0.1345	923225	keystroke_u	u	n/a
461.732	0.2095	923464	keystroke_e	e	n/a
461.882	0.1505	923764	keystroke_d	d	n/a
462.002	0.105	924004	keystroke_Key.space	Key.space	n/a
462.2275	0.105	924455	keystroke_g	g	n/a
462.3025	0.165	924605	keystroke_a	a	n/a
462.512	0.045	925024	keystroke_m	m	n/a
462.6315	0.1055	925263	keystroke_m	m	n/a
462.7225	0.1645	925445	keystroke_e	e	n/a
463.202	0.12	926404	keystroke_Key.backspace	Key.backspace	n/a
463.307	0.135	926614	keystroke_a	a	n/a
463.457	0.089	926914	keystroke_Key.enter	Key.enter	n/a
463.563	7.9505	927126	prompt	n/a	drama injury prozac pressure\n
464.6125	0.09	929225	keystroke_d	d	n/a
464.8075	0.09	929615	keystroke_r	r	n/a
464.9275	0.135	929855	keystroke_a	a	n/a
465.0165	0.09	930033	keystroke_m	m	n/a
465.1225	0.135	930245	keystroke_a	a	n/a
465.4215	0.09	930843	keystroke_Key.space	Key.space	n/a
465.6765	0.076	931353	keystroke_i	i	n/a
465.8275	0.105	931655	keystroke_n	n	n/a
466.0365	0.075	932073	keystroke_j	j	n/a
466.2165	0.1055	932433	keystroke_u	u	n/a
466.472	0.135	932944	keystroke_r	r	n/a
466.562	0.15	933124	keystroke_y	y	n/a
466.6515	0.1205	933303	keystroke_Key.space	Key.space	n/a
467.2675	0.105	934535	keystroke_p	p	n/a
467.3725	0.119	934745	keystroke_r	r	n/a
467.5075	0.12	935015	keystroke_o	o	n/a
468.6775	0.194	937355	keystroke_z	z	n/a
468.752	0.2105	937504	keystroke_a	a	n/a
469.6965	0.12	939393	keystroke_c	c	n/a
469.9065	0.135	939813	keystroke_Key.space	Key.space	n/a
470.4025	0.119	940805	keystroke_p	p	n/a
470.507	0.1495	941014	keystroke_r	r	n/a
470.5825	0.1195	941165	keystroke_e	e	n/a
470.837	0.06	941674	keystroke_s	s	n/a
471.032	0.0755	942064	keystroke_s	s	n/a
471.092	0.0905	942184	keystroke_u	u	n/a
471.2125	0.12	942425	keystroke_r	r	n/a
471.302	0.1055	942604	keystroke_e	e	n/a
471.4365	0.0755	942873	keystroke_Key.enter	Key.enter	n/a
471.521	8.138	943042	prompt	n/a	exhaust smile folks thompson\n
472.217	0.106	944434	keystroke_e	e	n/a
472.817	0.135	945634	keystroke_x	x	n/a
472.982	0.12	945964	keystroke_h	h	n/a
473.1325	0.1495	946265	keystroke_a	a	n/a
473.2225	0.1195	946445	keystroke_u	u	n/a
473.4025	0.135	946805	keystroke_s	s	n/a
473.717	0.135	947434	keystroke_t	t	n/a
473.792	0.135	947584	keystroke_Key.space	Key.space	n/a
474.527	0.135	949054	keystroke_s	s	n/a
474.617	0.09	949234	keystroke_m	m	n/a
474.812	0.09	949624	keystroke_i	i	n/a
475.0215	0.121	950043	keystroke_l	l	n/a
475.2325	0.15	950465	keystroke_e	e	n/a
475.4415	0.12	950883	keystroke_Key.space	Key.space	n/a
476.462	0.12	952924	keystroke_f	f	n/a
476.5675	0.1045	953135	keystroke_o	o	n/a
476.8215	0.1505	953643	keystroke_l	l	n/a
477.2415	0.091	954483	keystroke_k	k	n/a
477.3775	0.135	954755	keystroke_s	s	n/a
477.5265	0.106	955053	keystroke_Key.space	Key.space	n/a
477.9465	0.1505	955893	keystroke_t	t	n/a
478.247	0.105	956494	keystroke_h	h	n/a
478.487	0.105	956974	keystroke_o	o	n/a
478.6975	0.06	957395	keystroke_m	m	n/a
478.877	0.105	957754	keystroke_p	p	n/a
479.1315	0.151	958263	keystroke_s	s	n/a
479.2075	0.09	958415	keystroke_o	o	n/a
479.3565	0.1355	958713	keystroke_n	n	n/a
479.5965	0.0605	959193	keystroke_Key.enter	Key.enter	n/a
479.668	8.9755	959336	prompt	n/a	sociology sofa ecuador architect\n
480.4375	0.1195	960875	keystroke_s	s	n/a
480.542	0.12	961084	keystroke_o	o	n/a
480.677	0.165	961354	keystroke_c	c	n/a
480.827	0.0755	961654	keystroke_i	i	n/a
481.022	0.06	962044	keystroke_o	o	n/a
481.187	0.075	962374	keystroke_l	l	n/a
481.3675	0.0895	962735	keystroke_o	o	n/a
481.532	0.1205	963064	keystroke_g	g	n/a
481.667	0.195	963334	keystroke_y	y	n/a
481.787	0.105	963574	keystroke_Key.space	Key.space	n/a
482.2075	0.1495	964415	keystroke_s	s	n/a
482.282	0.1355	964564	keystroke_o	o	n/a
482.507	0.1805	965014	keystroke_d	d	n/a
482.702	0.135	965404	keystroke_a	a	n/a
483.002	0.045	966004	keystroke_Key.backspace	Key.backspace	n/a
483.1365	0.105	966273	keystroke_Key.backspace	Key.backspace	n/a
483.1825	0.15	966365	keystroke_f	f	n/a
483.2575	0.195	966515	keystroke_a	a	n/a
483.4365	0.136	966873	keystroke_Key.space	Key.space	n/a
484.0525	0.119	968105	keystroke_e	e	n/a
484.652	0.12	969304	keystroke_c	c	n/a
485.237	0.105	970474	keystroke_u	u	n/a
485.5215	0.1205	971043	keystroke_a	a	n/a
485.8225	0.1345	971645	keystroke_d	d	n/a
485.942	0.1205	971884	keystroke_o	o	n/a
486.1215	0.136	972243	keystroke_r	r	n/a
486.4665	0.0905	972933	keystroke_Key.space	Key.space	n/a
486.797	0.1655	973594	keystroke_a	a	n/a
487.082	0.1055	974164	keystroke_r	r	n/a
487.3675	0.1345	974735	keystroke_c	c	n/a
487.472	0.1205	974944	keystroke_h	h	n/a
487.532	0.18	975064	keystroke_i	i	n/a
487.682	0.12	975364	keystroke_t	t	n/a
487.848	0.119	975696	keystroke_e	e	n/a
488.147	0.12	976294	keystroke_c	c	n/a
488.447	0.1355	976894	keystroke_t	t	n/a
488.567	0.075	977134	keystroke_Key.enter	Key.enter	n/a
488.6545	8.0745	977309	prompt	n/a	jerry domestic ocean accepting\n
489.527	0.15	979054	keystroke_h	h	n/a
490.7575	0.075	981515	keystroke_Key.backspace	Key.backspace	n/a
491.013	0.1185	982026	keystroke_j	j	n/a
491.102	0.1655	982204	keystroke_e	e	n/a
491.2225	0.0755	982445	keystroke_r	r	n/a
491.3875	0.1355	982775	keystroke_r	r	n/a
491.5075	0.15	983015	keystroke_y	y	n/a
491.6115	0.166	983223	keystroke_Key.space	Key.space	n/a
492.4075	0.18	984815	keystroke_d	d	n/a
492.5275	0.105	985055	keystroke_o	o	n/a
492.738	0.104	985476	keystroke_m	m	n/a
492.9015	0.106	985803	keystroke_e	e	n/a
493.1575	0.1045	986315	keystroke_s	s	n/a
493.322	0.105	986644	keystroke_t	t	n/a
493.442	0.105	986884	keystroke_i	i	n/a
493.607	0.18	987214	keystroke_c	c	n/a
493.742	0.12	987484	keystroke_Key.space	Key.space	n/a
494.1175	0.1195	988235	keystroke_o	o	n/a
494.3425	0.135	988685	keystroke_c	c	n/a
494.5375	0.1045	989075	keystroke_e	e	n/a
494.718	0.1645	989436	keystroke_a	a	n/a
494.822	0.2105	989644	keystroke_n	n	n/a
494.9575	0.104	989915	keystroke_Key.space	Key.space	n/a
495.2565	0.1055	990513	keystroke_a	a	n/a
495.482	0.1045	990964	keystroke_c	c	n/a
495.6615	0.211	991323	keystroke_c	c	n/a
495.8125	0.164	991625	keystroke_e	e	n/a
495.9165	0.151	991833	keystroke_p	p	n/a
496.1115	0.151	992223	keystroke_t	t	n/a
496.2175	0.089	992435	keystroke_i	i	n/a
496.3665	0.12	992733	keystroke_n	n	n/a
496.4275	0.135	992855	keystroke_g	g	n/a
496.667	0.06	993334	keystroke_Key.enter	Key.enter	n/a
496.7385	7.207	993477	prompt	n/a	retained catholic swingers yoga\n
497.867	0.1505	995734	keystroke_r	r	n/a
497.957	0.1355	995914	keystroke_e	e	n/a
498.1825	0.0895	996365	keystroke_t	t	n/a
498.332	0.1655	996664	keystroke_a	a	n/a
498.437	0.075	996874	keystroke_i	i	n/a
498.6025	0.135	997205	keystroke_n	n	n/a
498.6775	0.255	997355	keystroke_e	e	n/a
498.8425	0.165	997685	keystroke_d	d	n/a
499.3515	0.076	998703	keystroke_Key.space	Key.space	n/a
499.757	0.165	999514	keystroke_c	c	n/a
499.892	0.1505	999784	keystroke_a	a	n/a
500.1475	0.1345	1000295	keystroke_t	t	n/a
500.267	0.1055	1000534	keystroke_h	h	n/a
500.447	0.1055	1000894	keystroke_o	o	n/a
500.6575	0.09	1001315	keystroke_l	l	n/a
500.8675	0.09	1001735	keystroke_i	i	n/a
500.9425	0.15	1001885	keystroke_c	c	n/a
501.1065	0.106	1002213	keystroke_Key.space	Key.space	n/a
501.407	0.12	1002814	keystroke_s	s	n/a
501.662	0.18	1003324	keystroke_w	w	n/a
501.782	0.09	1003564	keystroke_i	i	n/a
501.947	0.12	1003894	keystroke_n	n	n/a
502.082	0.105	1004164	keystroke_g	g	n/a
502.3065	0.1655	1004613	keystroke_e	e	n/a
502.382	0.1195	1004764	keystroke_r	r	n/a
502.5775	0.1345	1005155	keystroke_s	s	n/a
502.682	0.0895	1005364	keystroke_Key.space	Key.space	n/a
502.9965	0.091	1005993	keystroke_y	y	n/a
503.1765	0.165	1006353	keystroke_o	o	n/a
503.642	0.15	1007284	keystroke_g	g	n/a
503.762	0.15	1007524	keystroke_a	a	n/a
503.852	0.09	1007704	keystroke_Key.enter	Key.enter	n/a
503.951	8.5575	1007902	prompt	n/a	challenged definitions richard integrity\n
504.782	0.1355	1009564	keystroke_c	c	n/a
504.8865	0.1055	1009773	keystroke_h	h	n/a
504.947	0.1805	1009894	keystroke_a	a	n/a
505.2175	0.045	1010435	keystroke_l	l	n/a
505.3375	0.106	1010675	keystroke_l	l	n/a
505.6075	0.134	1011215	keystroke_e	e	n/a
505.7425	0.12	1011485	keystroke_n	n	n/a
505.9975	0.075	1011995	keystroke_g	g	n/a
506.0875	0.1655	1012175	keystroke_e	e	n/a
506.2215	0.166	1012443	keystroke_d	d	n/a
506.3725	0.1045	1012745	keystroke_Key.space	Key.space	n/a
507.077	0.15	1014154	keystroke_d	d	n/a
507.393	0.149	1014786	keystroke_e	e	n/a
507.662	0.135	1015324	keystroke_f	f	n/a
507.8115	0.076	1015623	keystroke_i	i	n/a
508.0075	0.105	1016015	keystroke_n	n	n/a
508.2615	0.121	1016523	keystroke_i	i	n/a
508.3975	0.1795	1016795	keystroke_t	t	n/a
508.5925	0.1195	1017185	keystroke_i	i	n/a
508.652	0.12	1017304	keystroke_o	o	n/a
508.832	0.1055	1017664	keystroke_n	n	n/a
508.9675	0.105	1017935	keystroke_s	s	n/a
509.0725	0.12	1018145	keystroke_Key.space	Key.space	n/a
509.2525	0.135	1018505	keystroke_r	r	n/a
509.3885	0.134	1018777	keystroke_i	i	n/a
509.6275	0.075	1019255	keystroke_c	c	n/a
509.6575	0.119	1019315	keystroke_h	h	n/a
509.8375	0.18	1019675	keystroke_a	a	n/a
510.0465	0.121	1020093	keystroke_r	r	n/a
510.273	0.12	1020546	keystroke_d	d	n/a
510.377	0.075	1020754	keystroke_Key.space	Key.space	n/a
510.5425	0.105	1021085	keystroke_i	i	n/a
510.7075	0.105	1021415	keystroke_n	n	n/a
510.7825	0.12	1021565	keystroke_t	t	n/a
510.9625	0.1205	1021925	keystroke_e	e	n/a
511.6065	0.136	1023213	keystroke_g	g	n/a
511.6975	0.1795	1023395	keystroke_r	r	n/a
511.862	0.15	1023724	keystroke_i	i	n/a
512.0275	0.1495	1024055	keystroke_t	t	n/a
512.162	0.105	1024324	keystroke_y	y	n/a
512.447	0.06	1024894	keystroke_Key.enter	Key.enter	n/a
512.5125	5.441	1025025	prompt	n/a	costs mali sizes older\n
513.2125	0.12	1026425	keystroke_c	c	n/a
513.2875	0.09	1026575	keystroke_o	o	n/a
513.453	0.15	1026906	keystroke_s	s	n/a
513.6625	0.105	1027325	keystroke_t	t	n/a
513.8275	0.15	1027655	keystroke_s	s	n/a
513.9475	0.104	1027895	keystroke_Key.space	Key.space	n/a
514.157	0.0905	1028314	keystroke_m	m	n/a
514.2025	0.1795	1028405	keystroke_a	a	n/a
514.412	0.105	1028824	keystroke_l	l	n/a
514.652	0.2105	1029304	keystroke_i	i	n/a
514.802	0.09	1029604	keystroke_Key.space	Key.space	n/a
515.447	0.09	1030894	keystroke_s	s	n/a
515.522	0.105	1031044	keystroke_i	i	n/a
515.687	0.1495	1031374	keystroke_z	z	n/a
515.972	0.12	1031944	keystroke_e	e	n/a
516.227	0.15	1032454	keystroke_s	s	n/a
516.362	0.1055	1032724	keystroke_Key.space	Key.space	n/a
516.557	0.12	1033114	keystroke_o	o	n/a
516.662	0.09	1033324	keystroke_r	r	n/a
517.127	0.1045	1034254	keystroke_Key.backspace	Key.backspace	n/a
517.353	0.1335	1034706	keystroke_l	l	n/a
517.4875	0.134	1034975	keystroke_d	d	n/a
517.712	0.1655	1035424	keystroke_e	e	n/a
517.7875	0.1195	1035575	keystroke_r	r	n/a
517.8615	0.09	1035723	keystroke_Key.enter	Key.enter	n/a
517.9575	9.176	1035915	prompt	n/a	precision openings cheapest username\n
518.8075	0.105	1037615	keystroke_p	p	n/a
518.9275	0.135	1037855	keystroke_r	r	n/a
518.9875	0.15	1037975	keystroke_e	e	n/a
519.7675	0.1195	1039535	keystroke_c	c	n/a
519.8575	0.089	1039715	keystroke_i	i	n/a
519.978	0.1645	1039956	keystroke_s	s	n/a
520.082	0.151	1040164	keystroke_i	i	n/a
520.1715	0.1065	1040343	keystroke_o	o	n/a
520.3965	0.135	1040793	keystroke_n	n	n/a
520.4725	0.119	1040945	keystroke_Key.space	Key.space	n/a
520.6965	0.121	1041393	keystroke_o	o	n/a
520.9375	0.104	1041875	keystroke_p	p	n/a
521.0725	0.12	1042145	keystroke_e	e	n/a
521.5215	0.1655	1043043	keystroke_n	n	n/a
522.1515	0.12	1044303	keystroke_i	i	n/a
522.3615	0.105	1044723	keystroke_n	n	n/a
522.4825	0.164	1044965	keystroke_g	g	n/a
522.6165	0.135	1045233	keystroke_Key.space	Key.space	n/a
523.082	0.12	1046164	keystroke_Key.backspace	Key.backspace	n/a
523.218	0.1345	1046436	keystroke_s	s	n/a
523.367	0.1045	1046734	keystroke_Key.space	Key.space	n/a
523.908	0.134	1047816	keystroke_c	c	n/a
524.0125	0.1195	1048025	keystroke_h	h	n/a
524.192	0.1055	1048384	keystroke_e	e	n/a
524.372	0.15	1048744	keystroke_a	a	n/a
524.4625	0.105	1048925	keystroke_p	p	n/a
524.6575	0.1205	1049315	keystroke_e	e	n/a
524.852	0.135	1049704	keystroke_s	s	n/a
525.017	0.151	1050034	keystroke_t	t	n/a
525.1525	0.0895	1050305	keystroke_Key.space	Key.space	n/a
525.5265	0.136	1051053	keystroke_u	u	n/a
525.9315	0.09	1051863	keystroke_s	s	n/a
526.142	0.181	1052284	keystroke_e	e	n/a
526.2315	0.151	1052463	keystroke_r	r	n/a
526.442	0.1195	1052884	keystroke_n	n	n/a
526.5175	0.1795	1053035	keystroke_a	a	n/a
526.712	0.045	1053424	keystroke_m	m	n/a
526.952	0.12	1053904	keystroke_e	e	n/a
527.057	0.075	1054114	keystroke_Key.enter	Key.enter	n/a
527.138	6.3855	1054276	prompt	n/a	increases dana wishlist wool\n
527.8825	0.089	1055765	keystroke_i	i	n/a
528.0315	0.12	1056063	keystroke_n	n	n/a
528.137	0.1205	1056274	keystroke_c	c	n/a
528.438	0.104	1056876	keystroke_r	r	n/a
528.468	0.1345	1056936	keystroke_e	e	n/a
528.692	0.195	1057384	keystroke_a	a	n/a
528.812	0.135	1057624	keystroke_s	s	n/a
529.172	0.015	1058344	keystroke_e	e	n/a
529.2325	0.15	1058465	keystroke_s	s	n/a
529.397	0.105	1058794	keystroke_Key.space	Key.space	n/a
529.6965	0.121	1059393	keystroke_d	d	n/a
529.8025	0.105	1059605	keystroke_a	a	n/a
529.8775	0.09	1059755	keystroke_n	n	n/a
529.9825	0.15	1059965	keystroke_a	a	n/a
530.1475	0.135	1060295	keystroke_Key.space	Key.space	n/a
530.4325	0.1495	1060865	keystroke_w	w	n/a
530.552	0.135	1061104	keystroke_i	i	n/a
530.762	0.1205	1061524	keystroke_s	s	n/a
530.837	0.1505	1061674	keystroke_h	h	n/a
531.5265	0.0605	1063053	keystroke_l	l	n/a
531.722	0.1055	1063444	keystroke_i	i	n/a
531.8415	0.106	1063683	keystroke_s	s	n/a
532.0975	0.15	1064195	keystroke_t	t	n/a
532.217	0.1205	1064434	keystroke_Key.space	Key.space	n/a
532.817	0.166	1065634	keystroke_w	w	n/a
532.937	0.061	1065874	keystroke_o	o	n/a
533.072	0.09	1066144	keystroke_o	o	n/a
533.253	0.089	1066506	keystroke_l	l	n/a
533.4625	0.0595	1066925	keystroke_Key.enter	Key.enter	n/a
533.5295	13.8395	1067059	prompt	n/a	living links furnishings supervisor\n
534.2265	0.075	1068453	keystroke_l	l	n/a
534.4375	0.1495	1068875	keystroke_i	i	n/a
534.6475	0.135	1069295	keystroke_v	v	n/a
534.7375	0.075	1069475	keystroke_i	i	n/a
534.8875	0.09	1069775	keystroke_n	n	n/a
534.9625	0.1345	1069925	keystroke_g	g	n/a
535.082	0.12	1070164	keystroke_Key.space	Key.space	n/a
535.397	0.0765	1070794	keystroke_d	d	n/a
535.772	0.105	1071544	keystroke_Key.backspace	Key.backspace	n/a
536.012	0.12	1072024	keystroke_l	l	n/a
536.268	0.089	1072536	keystroke_i	i	n/a
536.597	0.1055	1073194	keystroke_k	k	n/a
537.002	0.105	1074004	keystroke_Key.backspace	Key.backspace	n/a
537.2875	0.105	1074575	keystroke_n	n	n/a
537.453	0.1345	1074906	keystroke_k	k	n/a
537.6015	0.1365	1075203	keystroke_s	s	n/a
537.6925	0.1195	1075385	keystroke_Key.space	Key.space	n/a
538.127	0.135	1076254	keystroke_f	f	n/a
538.217	0.12	1076434	keystroke_u	u	n/a
538.5475	0.135	1077095	keystroke_r	r	n/a
539.1615	0.0765	1078323	keystroke_n	n	n/a
539.717	0.166	1079434	keystroke_i	i	n/a
539.9125	0.1795	1079825	keystroke_s	s	n/a
540.003	0.149	1080006	keystroke_h	h	n/a
540.107	0.1205	1080214	keystroke_i	i	n/a
540.302	0.1355	1080604	keystroke_n	n	n/a
540.467	0.0605	1080934	keystroke_g	g	n/a
541.487	0.12	1082974	keystroke_Key.backspace	Key.backspace	n/a
542.8675	0.1495	1085735	keystroke_f	f	n/a
543.4825	0.1345	1086965	keystroke_Key.backspace	Key.backspace	n/a
543.947	0.1205	1087894	keystroke_g	g	n/a
544.097	0.1505	1088194	keystroke_s	s	n/a
544.217	0.12	1088434	keystroke_Key.space	Key.space	n/a
544.922	0.136	1089844	keystroke_s	s	n/a
544.9975	0.0755	1089995	keystroke_u	u	n/a
545.222	0.106	1090444	keystroke_p	p	n/a
545.297	0.151	1090594	keystroke_e	e	n/a
545.387	0.105	1090774	keystroke_r	r	n/a
545.672	0.1645	1091344	keystroke_v	v	n/a
545.7625	0.12	1091525	keystroke_i	i	n/a
546.0015	0.135	1092003	keystroke_s	s	n/a
546.2115	0.1515	1092423	keystroke_r	r	n/a
546.7375	0.1345	1093475	keystroke_Key.backspace	Key.backspace	n/a
546.992	0.121	1093984	keystroke_o	o	n/a
547.097	0.135	1094194	keystroke_r	r	n/a
547.2925	0.0745	1094585	keystroke_Key.enter	Key.enter	n/a
547.3765	8.2875	1094753	prompt	n/a	indiana containers executed ohio\n
548.147	0.105	1096294	keystroke_i	i	n/a
548.312	0.12	1096624	keystroke_n	n	n/a
548.477	0.105	1096954	keystroke_d	d	n/a
548.567	0.1655	1097134	keystroke_i	i	n/a
548.7925	0.1795	1097585	keystroke_a	a	n/a
548.928	0.119	1097856	keystroke_n	n	n/a
549.2425	0.1195	1098485	keystroke_a	a	n/a
549.932	0.075	1099864	keystroke_Key.space	Key.space	n/a
550.2175	0.1495	1100435	keystroke_c	c	n/a
550.2925	0.0895	1100585	keystroke_o	o	n/a
550.472	0.1205	1100944	keystroke_n	n	n/a
550.6075	0.075	1101215	keystroke_t	t	n/a
550.877	0.0605	1101754	keystroke_a	a	n/a
550.892	0.0745	1101784	keystroke_i	i	n/a
551.0115	0.1355	1102023	keystroke_n	n	n/a
551.207	0.195	1102414	keystroke_e	e	n/a
551.3125	0.1195	1102625	keystroke_r	r	n/a
552.002	0.165	1104004	keystroke_s	s	n/a
552.137	0.1205	1104274	keystroke_Key.space	Key.space	n/a
552.527	0.106	1105054	keystroke_e	e	n/a
552.8265	0.151	1105653	keystroke_x	x	n/a
553.113	0.1195	1106226	keystroke_e	e	n/a
553.337	0.15	1106674	keystroke_c	c	n/a
553.472	0.135	1106944	keystroke_u	u	n/a
553.683	0.044	1107366	keystroke_t	t	n/a
553.8775	0.09	1107755	keystroke_e	e	n/a
553.922	0.1505	1107844	keystroke_d	d	n/a
554.0875	0.15	1108175	keystroke_Key.space	Key.space	n/a
554.4175	0.12	1108835	keystroke_o	o	n/a
554.6725	0.075	1109345	keystroke_h	h	n/a
554.8225	0.09	1109645	keystroke_i	i	n/a
555.0175	0.074	1110035	keystroke_o	o	n/a
555.5425	0.1195	1111085	keystroke_Key.enter	Key.enter	n/a
555.67	12.969	1111340	prompt	n/a	petersburg strict corporations catalogs\n
556.4125	0.12	1112825	keystroke_p	p	n/a
556.638	0.119	1113276	keystroke_e	e	n/a
556.923	0.089	1113846	keystroke_t	t	n/a
557.072	0.1955	1114144	keystroke_e	e	n/a
557.177	0.135	1114354	keystroke_r	r	n/a
557.7025	0.1955	1115405	keystroke_s	s	n/a
558.333	0.0895	1116666	keystroke_b	b	n/a
558.4825	0.1495	1116965	keystroke_u	u	n/a
558.647	0.075	1117294	keystroke_r	r	n/a
558.857	0.135	1117714	keystroke_g	g	n/a
558.9775	0.1205	1117955	keystroke_Key.space	Key.space	n/a
559.442	0.1205	1118884	keystroke_s	s	n/a
559.6675	0.15	1119335	keystroke_t	t	n/a
559.7575	0.15	1119515	keystroke_r	r	n/a
560.0275	0.1195	1120055	keystroke_i	i	n/a
560.133	0.044	1120266	keystroke_g	g	n/a
560.357	0.09	1120714	keystroke_v	v	n/a
560.717	0.0905	1121434	keystroke_Key.backspace	Key.backspace	n/a
560.9875	0.105	1121975	keystroke_c	c	n/a
561.0325	0.12	1122065	keystroke_Key.backspace	Key.backspace	n/a
561.3175	0.09	1122635	keystroke_Key.backspace	Key.backspace	n/a
561.4225	0.12	1122845	keystroke_c	c	n/a
561.7525	0.151	1123505	keystroke_t	t	n/a
561.9175	0.105	1123835	keystroke_Key.space	Key.space	n/a
562.5475	0.135	1125095	keystroke_s	s	n/a
562.9965	0.1505	1125993	keystroke_o	o	n/a
563.7775	0.06	1127555	keystroke_Key.backspace	Key.backspace	n/a
563.9265	0.136	1127853	keystroke_Key.backspace	Key.backspace	n/a
564.0635	0.134	1128127	keystroke_c	c	n/a
564.2275	0.135	1128455	keystroke_o	o	n/a
564.797	0.136	1129594	keystroke_r	r	n/a
564.963	0.224	1129926	keystroke_p	p	n/a
565.083	0.179	1130166	keystroke_o	o	n/a
565.383	0.12	1130766	keystroke_r	r	n/a
565.563	0.12	1131126	keystroke_a	a	n/a
565.803	0.12	1131606	keystroke_t	t	n/a
565.892	0.1805	1131784	keystroke_i	i	n/a
565.982	0.1355	1131964	keystroke_o	o	n/a
566.2075	0.104	1132415	keystroke_n	n	n/a
566.327	0.1205	1132654	keystroke_s	s	n/a
566.5075	0.1195	1133015	keystroke_Key.space	Key.space	n/a
566.943	0.119	1133886	keystroke_c	c	n/a
567.0625	0.134	1134125	keystroke_a	a	n/a
567.332	0.091	1134664	keystroke_t	t	n/a
567.468	0.1495	1134936	keystroke_a	a	n/a
567.557	0.091	1135114	keystroke_l	l	n/a
567.7375	0.12	1135475	keystroke_o	o	n/a
568.4565	0.09	1136913	keystroke_g	g	n/a
568.5615	0.075	1137123	keystroke_Key.enter	Key.enter	n/a
568.6455	12.55	1137291	prompt	n/a	shade lafayette representatives wyoming\n
569.388	0.104	1138776	keystroke_s	s	n/a
569.507	0.105	1139014	keystroke_h	h	n/a
