onset	duration	sample	value	key	prompt_text
10.672	14.125	21344	prompt	n/a	the quick brown fox jumps over a lazy dog\n
12.2415	0.001	24483	keystroke_t	t	n/a
12.3895	0.075	24779	keystroke_h	h	n/a
12.5395	0.06	25079	keystroke_e	e	n/a
12.7495	0.045	25499	keystroke_Key.space	Key.space	n/a
16.2015	0.028	32403	keystroke_q	q	n/a
16.2745	0.06	32549	keystroke_u	u	n/a
16.4395	0.03	32879	keystroke_i	i	n/a
16.4845	0.089	32969	keystroke_c	c	n/a
16.6345	0.164	33269	keystroke_k	k	n/a
16.7385	0.0905	33477	keystroke_Key.space	Key.space	n/a
16.949	0.0755	33898	keystroke_b	b	n/a
17.0545	0.06	34109	keystroke_r	r	n/a
17.1595	0.075	34319	keystroke_o	o	n/a
17.264	0.1505	34528	keystroke_w	w	n/a
17.4745	0.12	34949	keystroke_n	n	n/a
17.5795	0.09	35159	keystroke_Key.space	Key.space	n/a
17.7145	0.075	35429	keystroke_f	f	n/a
18.2995	0.0745	36599	keystroke_o	o	n/a
18.434	0.0895	36868	keystroke_x	x	n/a
18.5835	0.075	37167	keystroke_Key.space	Key.space	n/a
18.7185	0.075	37437	keystroke_j	j	n/a
18.854	0.09	37708	keystroke_u	u	n/a
18.989	0.09	37978	keystroke_m	m	n/a
19.109	0.105	38218	keystroke_p	p	n/a
19.244	0.075	38488	keystroke_s	s	n/a
19.424	0.0755	38848	keystroke_Key.space	Key.space	n/a
19.5895	0.0895	39179	keystroke_a	a	n/a
19.7845	0.045	39569	keystroke_Key.space	Key.space	n/a
20.504	0.06	41008	keystroke_=	=	n/a
20.714	0.09	41428	keystroke_=	=	n/a
21.449	0.09	42898	keystroke_Key.backspace	Key.backspace	n/a
21.6585	0.075	43317	keystroke_Key.backspace	Key.backspace	n/a
21.8835	0.091	43767	keystroke_Key.backspace	Key.backspace	n/a
22.139	0.075	44278	keystroke_Key.backspace	Key.backspace	n/a
22.7835	0.0605	45567	keystroke_o	o	n/a
22.9335	0.045	45867	keystroke_v	v	n/a
23.0835	0.09	46167	keystroke_e	e	n/a
23.1285	0.105	46257	keystroke_r	r	n/a
23.2635	0.09	46527	keystroke_Key.space	Key.space	n/a
23.3385	0.09	46677	keystroke_a	a	n/a
23.4585	0.09	46917	keystroke_Key.space	Key.space	n/a
23.5935	0.105	47187	keystroke_l	l	n/a
23.6835	0.09	47367	keystroke_a	a	n/a
23.8785	0.075	47757	keystroke_z	z	n/a
24.0135	0.135	48027	keystroke_y	y	n/a
24.0735	0.1505	48147	keystroke_Key.space	Key.space	n/a
24.254	0.1045	48508	keystroke_d	d	n/a
24.3735	0.075	48747	keystroke_o	o	n/a
24.494	0.0895	48988	keystroke_g	g	n/a
24.7335	0.06	49467	keystroke_Key.enter	Key.enter	n/a
24.806	8.404	49612	prompt	n/a	images hereby why'd composition\n
25.6485	0.06	51297	keystroke_i	i	n/a
25.8135	0.09	51627	keystroke_m	m	n/a
25.8885	0.075	51777	keystroke_a	a	n/a
26.1135	0.075	52227	keystroke_g	g	n/a
26.1735	0.075	52347	keystroke_e	e	n/a
26.3685	0.075	52737	keystroke_s	s	n/a
26.5035	0.075	53007	keystroke_Key.space	Key.space	n/a
26.6835	0.075	53367	keystroke_h	h	n/a
26.7435	0.075	53487	keystroke_e	e	n/a
26.8635	0.135	53727	keystroke_r	r	n/a
26.9685	0.12	53937	keystroke_e	e	n/a
27.7785	0.06	55557	keystroke_b	b	n/a
27.9585	0.135	55917	keystroke_y	y	n/a
28.049	0.1345	56098	keystroke_Key.space	Key.space	n/a
28.4235	0.105	56847	keystroke_w	w	n/a
28.7985	0.06	57597	keystroke_h	h	n/a
28.9935	0.075	57987	keystroke_y	y	n/a
29.653	0.105	59306	keystroke_'	'	n/a
29.773	0.045	59546	keystroke_d	d	n/a
29.953	0.09	59906	keystroke_Key.space	Key.space	n/a
30.343	0.105	60686	keystroke_c	c	n/a
30.463	0.06	60926	keystroke_o	o	n/a
30.5985	0.075	61197	keystroke_m	m	n/a
30.7635	0.06	61527	keystroke_p	p	n/a
30.9135	0.06	61827	keystroke_o	o	n/a
31.0485	0.0905	62097	keystroke_s	s	n/a
31.288	0.06	62576	keystroke_t	t	n/a
31.723	0.016	63446	keystroke_Key.backspace	Key.backspace	n/a
32.3385	0.06	64677	keystroke_i	i	n/a
32.4135	0.0595	64827	keystroke_t	t	n/a
32.533	0.06	65066	keystroke_i	i	n/a
32.6685	0.06	65337	keystroke_o	o	n/a
32.8185	0.0745	65637	keystroke_n	n	n/a
33.1335	0.075	66267	keystroke_Key.enter	Key.enter	n/a
33.215	6.22	66430	prompt	n/a	whilst reject forming roulette\n
34.0935	0.075	68187	keystroke_w	w	n/a
34.2135	0.06	68427	keystroke_h	h	n/a
34.349	0.075	68698	keystroke_i	i	n/a
34.514	0.09	69028	keystroke_l	l	n/a
34.588	0.075	69176	keystroke_s	s	n/a
34.858	0.15	69716	keystroke_t	t	n/a
34.933	0.15	69866	keystroke_Key.space	Key.space	n/a
35.233	0.105	70466	keystroke_r	r	n/a
35.308	0.105	70616	keystroke_e	e	n/a
35.668	0.06	71336	keystroke_j	j	n/a
35.758	0.075	71516	keystroke_e	e	n/a
35.968	0.12	71936	keystroke_c	c	n/a
36.118	0.105	72236	keystroke_t	t	n/a
36.178	0.12	72356	keystroke_Key.space	Key.space	n/a
36.313	0.09	72626	keystroke_f	f	n/a
36.448	0.075	72896	keystroke_o	o	n/a
36.508	0.061	73016	keystroke_r	r	n/a
36.613	0.09	73226	keystroke_m	m	n/a
36.823	0.06	73646	keystroke_i	i	n/a
36.958	0.09	73916	keystroke_n	n	n/a
37.258	0.09	74516	keystroke_g	g	n/a
37.468	0.075	74936	keystroke_Key.space	Key.space	n/a
37.618	0.105	75236	keystroke_r	r	n/a
37.768	0.12	75536	keystroke_o	o	n/a
37.858	0.09	75716	keystroke_u	u	n/a
38.053	0.075	76106	keystroke_l	l	n/a
38.233	0.075	76466	keystroke_e	e	n/a
38.443	0.09	76886	keystroke_t	t	n/a
38.608	0.09	77216	keystroke_t	t	n/a
38.759	0.044	77518	keystroke_e	e	n/a
39.388	0.045	78776	keystroke_Key.enter	Key.enter	n/a
39.4395	7.5705	78879	prompt	n/a	cloth janet lauderdale beans\n
40.6185	0.1045	81237	keystroke_c	c	n/a
40.738	0.06	81476	keystroke_l	l	n/a
40.874	0.074	81748	keystroke_o	o	n/a
40.993	0.091	81986	keystroke_t	t	n/a
41.098	0.18	82196	keystroke_h	h	n/a
41.188	0.12	82376	keystroke_Key.space	Key.space	n/a
42.058	0.06	84116	keystroke_j	j	n/a
42.133	0.075	84266	keystroke_a	a	n/a
42.253	0.075	84506	keystroke_n	n	n/a
42.343	0.09	84686	keystroke_e	e	n/a
42.539	0.074	85078	keystroke_t	t	n/a
42.673	0.06	85346	keystroke_Key.space	Key.space	n/a
43.1985	0.0595	86397	keystroke_l	l	n/a
43.273	0.075	86546	keystroke_a	a	n/a
43.453	0.061	86906	keystroke_u	u	n/a
43.679	0.104	87358	keystroke_d	d	n/a
43.738	0.105	87476	keystroke_e	e	n/a
43.873	0.105	87746	keystroke_r	r	n/a
44.113	0.075	88226	keystroke_a	a	n/a
44.578	0.015	89156	keystroke_Key.backspace	Key.backspace	n/a
44.623	0.15	89246	keystroke_d	d	n/a
44.713	0.105	89426	keystroke_a	a	n/a
45.118	0.075	90236	keystroke_l	l	n/a
45.238	0.09	90476	keystroke_e	e	n/a
45.598	0.06	91196	keystroke_Key.space	Key.space	n/a
46.168	0.06	92336	keystroke_b	b	n/a
46.213	0.06	92426	keystroke_e	e	n/a
46.363	0.075	92726	keystroke_a	a	n/a
46.468	0.075	92936	keystroke_n	n	n/a
46.633	0.075	93266	keystroke_s	s	n/a
46.918	0.09	93836	keystroke_Key.enter	Key.enter	n/a
47.017	7.208	94034	prompt	n/a	invisible grew elevation husband\n
48.073	0.045	96146	keystroke_i	i	n/a
48.223	0.075	96446	keystroke_n	n	n/a
48.4485	0.06	96897	keystroke_v	v	n/a
48.5685	0.075	97137	keystroke_i	i	n/a
48.7335	0.06	97467	keystroke_s	s	n/a
48.8385	0.06	97677	keystroke_i	i	n/a
49.0335	0.06	98067	keystroke_b	b	n/a
49.2285	0.075	98457	keystroke_l	l	n/a
49.3335	0.075	98667	keystroke_e	e	n/a
49.7085	0.075	99417	keystroke_Key.space	Key.space	n/a
50.0085	0.059	100017	keystroke_g	g	n/a
50.0235	0.105	100047	keystroke_r	r	n/a
50.2625	0.061	100525	keystroke_e	e	n/a
50.428	0.076	100856	keystroke_w	w	n/a
50.563	0.075	101126	keystroke_Key.space	Key.space	n/a
50.818	0.0605	101636	keystroke_e	e	n/a
50.9225	0.075	101845	keystroke_l	l	n/a
51.0585	0.059	102117	keystroke_e	e	n/a
51.3285	0.059	102657	keystroke_v	v	n/a
51.4625	0.09	102925	keystroke_a	a	n/a
51.733	0.09	103466	keystroke_t	t	n/a
51.838	0.045	103676	keystroke_i	i	n/a
51.988	0.075	103976	keystroke_o	o	n/a
52.273	0.09	104546	keystroke_n	n	n/a
52.543	0.06	105086	keystroke_Key.space	Key.space	n/a
53.158	0.06	106316	keystroke_h	h	n/a
53.293	0.09	106586	keystroke_u	u	n/a
53.443	0.06	106886	keystroke_s	s	n/a
53.533	0.075	107066	keystroke_b	b	n/a
53.698	0.06	107396	keystroke_a	a	n/a
53.743	0.075	107486	keystroke_n	n	n/a
53.878	0.105	107756	keystroke_d	d	n/a
54.163	0.06	108326	keystroke_Key.enter	Key.enter	n/a
54.2285	6.8365	108457	prompt	n/a	perfume assembly exhibit known\n
55.1385	0.075	110277	keystroke_p	p	n/a
55.2585	0.105	110517	keystroke_e	e	n/a
55.3485	0.075	110697	keystroke_r	r	n/a
55.5735	0.045	111147	keystroke_f	f	n/a
55.7385	0.06	111477	keystroke_u	u	n/a
55.9185	0.06	111837	keystroke_m	m	n/a
55.9795	0.089	111959	keystroke_e	e	n/a
56.1435	0.075	112287	keystroke_Key.space	Key.space	n/a
56.3835	0.09	112767	keystroke_a	a	n/a
56.5935	0.06	113187	keystroke_s	s	n/a
56.7435	0.075	113487	keystroke_s	s	n/a
56.9235	0.06	113847	keystroke_e	e	n/a
56.9985	0.075	113997	keystroke_m	m	n/a
57.2535	0.045	114507	keystroke_b	b	n/a
57.4185	0.06	114837	keystroke_l	l	n/a
57.6285	0.15	115257	keystroke_y	y	n/a
57.7335	0.12	115467	keystroke_Key.space	Key.space	n/a
58.0185	0.06	116037	keystroke_e	e	n/a
58.738	0.06	117476	keystroke_x	x	n/a
58.948	0.06	117896	keystroke_h	h	n/a
59.053	0.09	118106	keystroke_i	i	n/a
59.218	0.075	118436	keystroke_b	b	n/a
59.338	0.09	118676	keystroke_i	i	n/a
59.594	0.0145	119188	keystroke_t	t	n/a
59.6235	0.075	119247	keystroke_Key.space	Key.space	n/a
60.1785	0.1045	120357	keystroke_k	k	n/a
60.253	0.0905	120506	keystroke_n	n	n/a
60.4185	0.075	120837	keystroke_o	o	n/a
60.4785	0.0895	120957	keystroke_w	w	n/a
60.628	0.0895	121256	keystroke_n	n	n/a
61.0025	0.06	122005	keystroke_Key.enter	Key.enter	n/a
61.0695	7.5705	122139	prompt	n/a	phase minneapolis pace posters\n
62.0685	0.06	124137	keystroke_p	p	n/a
62.3085	0.06	124617	keystroke_h	h	n/a
62.4285	0.105	124857	keystroke_a	a	n/a
62.5485	0.12	125097	keystroke_s	s	n/a
62.7585	0.06	125517	keystroke_e	e	n/a
62.8785	0.075	125757	keystroke_Key.space	Key.space	n/a
63.0285	0.09	126057	keystroke_m	m	n/a
63.2085	0.06	126417	keystroke_i	i	n/a
63.3435	0.06	126687	keystroke_n	n	n/a
63.6285	0.045	127257	keystroke_n	n	n/a
63.8235	0.075	127647	keystroke_e	e	n/a
64.0785	0.06	128157	keystroke_a	a	n/a
65.429	0.075	130858	keystroke_p	p	n/a
65.6235	0.0455	131247	keystroke_o	o	n/a
65.789	0.045	131578	keystroke_l	l	n/a
65.939	0.06	131878	keystroke_i	i	n/a
66.0285	0.075	132057	keystroke_s	s	n/a
66.1785	0.06	132357	keystroke_Key.space	Key.space	n/a
66.5985	0.09	133197	keystroke_p	p	n/a
66.6735	0.09	133347	keystroke_a	a	n/a
66.9735	0.105	133947	keystroke_c	c	n/a
67.0635	0.105	134127	keystroke_e	e	n/a
67.2285	0.06	134457	keystroke_Key.space	Key.space	n/a
67.3635	0.12	134727	keystroke_p	p	n/a
67.4685	0.09	134937	keystroke_o	o	n/a
67.5435	0.0895	135087	keystroke_s	s	n/a
67.769	0.074	135538	keystroke_t	t	n/a
67.903	0.09	135806	keystroke_e	e	n/a
67.978	0.12	135956	keystroke_r	r	n/a
68.233	0.105	136466	keystroke_s	s	n/a
68.563	0.075	137126	keystroke_Key.enter	Key.enter	n/a
68.6455	6.67	137291	prompt	n/a	tourism genes easier acres\n
69.944	0.03	139888	keystroke_t	t	n/a
70.034	0.1185	140068	keystroke_o	o	n/a
70.1235	0.09	140247	keystroke_u	u	n/a
70.2285	0.075	140457	keystroke_r	r	n/a
70.349	0.09	140698	keystroke_i	i	n/a
70.723	0.09	141446	keystroke_s	s	n/a
71.053	0.195	142106	keystroke_m	m	n/a
71.188	0.12	142376	keystroke_Key.space	Key.space	n/a
72.283	0.06	144566	keystroke_g	g	n/a
72.388	0.075	144776	keystroke_e	e	n/a
72.508	0.06	145016	keystroke_n	n	n/a
72.583	0.09	145166	keystroke_e	e	n/a
72.928	0.075	145856	keystroke_s	s	n/a
73.063	0.105	146126	keystroke_Key.space	Key.space	n/a
73.423	0.06	146846	keystroke_e	e	n/a
73.588	0.12	147176	keystroke_a	a	n/a
73.663	0.105	147326	keystroke_s	s	n/a
73.798	0.09	147596	keystroke_i	i	n/a
73.903	0.135	147806	keystroke_e	e	n/a
73.993	0.12	147986	keystroke_r	r	n/a
74.143	0.075	148286	keystroke_Key.space	Key.space	n/a
74.278	0.09	148556	keystroke_a	a	n/a
74.533	0.0755	149066	keystroke_c	c	n/a
74.744	0.105	149488	keystroke_r	r	n/a
74.819	0.105	149638	keystroke_e	e	n/a
75.029	0.0735	150058	keystroke_s	s	n/a
75.2385	0.074	150477	keystroke_Key.enter	Key.enter	n/a
75.3265	12.124	150653	prompt	n/a	hilton bumper solid plates\n
76.9485	0.06	153897	keystroke_h	h	n/a
77.0835	0.075	154167	keystroke_i	i	n/a
77.2635	0.075	154527	keystroke_l	l	n/a
77.3535	0.075	154707	keystroke_t	t	n/a
77.4585	0.06	154917	keystroke_o	o	n/a
77.6535	0.149	155307	keystroke_n	n	n/a
77.7885	0.09	155577	keystroke_Key.space	Key.space	n/a
78.2685	0.06	156537	keystroke_b	b	n/a
78.4175	0.061	156835	keystroke_u	u	n/a
78.7475	0.076	157495	keystroke_m	m	n/a
78.944	0.06	157888	keystroke_o	o	n/a
79.213	0.105	158426	keystroke_e	e	n/a
79.304	0.105	158608	keystroke_r	r	n/a
79.8285	0.09	159657	keystroke_Key.backspace	Key.backspace	n/a
80.0235	0.075	160047	keystroke_Key.backspace	Key.backspace	n/a
80.2485	0.075	160497	keystroke_Key.backspace	Key.backspace	n/a
80.4585	0.075	160917	keystroke_Key.backspace	Key.backspace	n/a
82.018	0.045	164036	keystroke_m	m	n/a
82.168	0.0605	164336	keystroke_p	p	n/a
82.2885	0.15	164577	keystroke_e	e	n/a
82.3635	0.135	164727	keystroke_r	r	n/a
82.5435	0.09	165087	keystroke_Key.space	Key.space	n/a
83.3085	0.075	166617	keystroke_s	s	n/a
83.3985	0.015	166797	keystroke_o	o	n/a
83.5035	0.06	167007	keystroke_l	l	n/a
83.7135	0.06	167427	keystroke_i	i	n/a
83.9085	0.12	167817	keystroke_d	d	n/a
84.1185	0.06	168237	keystroke_Key.space	Key.space	n/a
84.2835	0.06	168567	keystroke_p	p	n/a
84.4785	0.09	168957	keystroke_h	h	n/a
85.633	0.075	171266	keystroke_Key.backspace	Key.backspace	n/a
86.5335	0.075	173067	keystroke_l	l	n/a
86.6685	0.075	173337	keystroke_a	a	n/a
86.9235	0.075	173847	keystroke_t	t	n/a
87.0435	0.045	174087	keystroke_e	e	n/a
87.2085	0.09	174417	keystroke_s	s	n/a
87.373	0.075	174746	keystroke_Key.enter	Key.enter	n/a
87.4605	7.625	174921	prompt	n/a	surge encoding california enemies\n
88.3175	0.075	176635	keystroke_s	s	n/a
88.4975	0.06	176995	keystroke_u	u	n/a
88.5875	0.06	177175	keystroke_r	r	n/a
88.7825	0.06	177565	keystroke_g	g	n/a
88.9025	0.105	177805	keystroke_e	e	n/a
89.068	0.075	178136	keystroke_Key.space	Key.space	n/a
89.293	0.06	178586	keystroke_e	e	n/a
89.458	0.06	178916	keystroke_n	n	n/a
89.7135	0.075	179427	keystroke_c	c	n/a
89.8035	0.06	179607	keystroke_o	o	n/a
89.9985	0.075	179997	keystroke_d	d	n/a
90.1335	0.075	180267	keystroke_i	i	n/a
90.299	0.059	180598	keystroke_n	n	n/a
90.403	0.075	180806	keystroke_g	g	n/a
90.493	0.1055	180986	keystroke_Key.space	Key.space	n/a
91.093	0.045	182186	keystroke_c	c	n/a
91.243	0.0755	182486	keystroke_a	a	n/a
91.348	0.075	182696	keystroke_l	l	n/a
91.513	0.0605	183026	keystroke_i	i	n/a
91.7385	0.075	183477	keystroke_f	f	n/a
91.8285	0.075	183657	keystroke_o	o	n/a
92.0685	0.0745	184137	keystroke_n	n	n/a
92.398	0.075	184796	keystroke_Key.backspace	Key.backspace	n/a
92.518	0.075	185036	keystroke_r	r	n/a
92.653	0.075	185306	keystroke_n	n	n/a
92.788	0.075	185576	keystroke_i	i	n/a
93.163	0.09	186326	keystroke_a	a	n/a
93.403	0.09	186806	keystroke_Key.space	Key.space	n/a
93.6435	0.075	187287	keystroke_e	e	n/a
93.8685	0.075	187737	keystroke_n	n	n/a
93.9585	0.06	187917	keystroke_e	e	n/a
94.2135	0.09	188427	keystroke_m	m	n/a
94.3935	0.06	188787	keystroke_i	i	n/a
94.6635	0.06	189327	keystroke_e	e	n/a
94.8585	0.09	189717	keystroke_s	s	n/a
95.0235	0.0595	190047	keystroke_Key.enter	Key.enter	n/a
95.099	11.1465	190198	prompt	n/a	arizona narrative disclaimer advance\n
95.8185	0.06	191637	keystroke_a	a	n/a
96.0285	0.06	192057	keystroke_r	r	n/a
96.2085	0.06	192417	keystroke_i	i	n/a
96.404	0.045	192808	keystroke_c	c	n/a
96.733	0.06	193466	keystroke_Key.backspace	Key.backspace	n/a
96.838	0.09	193676	keystroke_z	z	n/a
97.048	0.075	194096	keystroke_o	o	n/a
97.288	0.09	194576	keystroke_m	m	n/a
97.483	0.075	194966	keystroke_a	a	n/a
97.618	0.09	195236	keystroke_n	n	n/a
98.233	0.075	196466	keystroke_Key.space	Key.space	n/a
98.803	0.075	197606	keystroke_Key.backspace	Key.backspace	n/a
99.028	0.09	198056	keystroke_Key.backspace	Key.backspace	n/a
99.479	0.045	198958	keystroke_Key.backspace	Key.backspace	n/a
99.7335	0.09	199467	keystroke_Key.backspace	Key.backspace	n/a
100.4835	0.0745	200967	keystroke_n	n	n/a
100.603	0.075	201206	keystroke_a	a	n/a
100.708	0.075	201416	keystroke_Key.space	Key.space	n/a
100.903	0.06	201806	keystroke_n	n	n/a
100.978	0.06	201956	keystroke_a	a	n/a
101.173	0.045	202346	keystroke_r	r	n/a
101.308	0.061	202616	keystroke_r	r	n/a
101.413	0.075	202826	keystroke_a	a	n/a
101.608	0.075	203216	keystroke_t	t	n/a
101.803	0.06	203606	keystroke_i	i	n/a
102.343	0.076	204686	keystroke_v	v	n/a
102.539	0.075	205078	keystroke_e	e	n/a
102.719	0.06	205438	keystroke_Key.space	Key.space	n/a
103.1685	0.06	206337	keystroke_d	d	n/a
103.3035	0.075	206607	keystroke_i	i	n/a
103.3635	0.06	206727	keystroke_s	s	n/a
103.5285	0.09	207057	keystroke_c	c	n/a
103.7235	0.075	207447	keystroke_l	l	n/a
103.8585	0.075	207717	keystroke_a	a	n/a
104.1285	0.045	208257	keystroke_i	i	n/a
104.2935	0.0745	208587	keystroke_m	m	n/a
104.413	0.12	208826	keystroke_e	e	n/a
104.503	0.12	209006	keystroke_r	r	n/a
104.638	0.09	209276	keystroke_Key.space	Key.space	n/a
104.938	0.03	209876	keystroke_a	a	n/a
105.163	0.105	210326	keystroke_d	d	n/a
105.433	0.045	210866	keystroke_v	v	n/a
105.598	0.06	211196	keystroke_a	a	n/a
105.733	0.075	211466	keystroke_n	n	n/a
105.823	0.15	211646	keystroke_c	c	n/a
105.883	0.105	211766	keystroke_e	e	n/a
106.183	0.06	212366	keystroke_Key.enter	Key.enter	n/a
106.2575	12.3185	212515	prompt	n/a	governor louisiana princeton giants\n
107.2635	0.06	214527	keystroke_g	g	n/a
107.3985	0.075	214797	keystroke_o	o	n/a
107.5035	0.09	215007	keystroke_r	r	n/a
107.9085	0.045	215817	keystroke_Key.backspace	Key.backspace	n/a
107.9685	0.075	215937	keystroke_v	v	n/a
108.1785	0.09	216357	keystroke_e	e	n/a
108.2835	0.09	216567	keystroke_r	r	n/a
108.674	0.09	217348	keystroke_n	n	n/a
109.184	0.075	218368	keystroke_o	o	n/a
109.334	0.075	218668	keystroke_r	r	n/a
109.589	0.09	219178	keystroke_Key.space	Key.space	n/a
110.204	0.105	220408	keystroke_l	l	n/a
110.354	0.06	220708	keystroke_o	o	n/a
110.549	0.075	221098	keystroke_u	u	n/a
110.7885	0.03	221577	keystroke_s	s	n/a
111.2085	0.06	222417	keystroke_Key.backspace	Key.backspace	n/a
111.5235	0.075	223047	keystroke_s	s	n/a
111.9135	0.075	223827	keystroke_Key.backspace	Key.backspace	n/a
112.3485	0.045	224697	keystroke_i	i	n/a
112.4535	0.075	224907	keystroke_s	s	n/a
112.5735	0.075	225147	keystroke_i	i	n/a
112.6935	0.09	225387	keystroke_a	a	n/a
113.0385	0.09	226077	keystroke_n	n	n/a
113.3835	0.09	226767	keystroke_a	a	n/a
113.5785	0.06	227157	keystroke_Key.space	Key.space	n/a
113.9985	0.09	227997	keystroke_p	p	n/a
114.1635	0.06	228327	keystroke_r	r	n/a
114.2685	0.06	228537	keystroke_i	i	n/a
114.463	0.045	228926	keystroke_n	n	n/a
114.493	0.09	228986	keystroke_c	c	n/a
114.673	0.075	229346	keystroke_e	e	n/a
114.883	0.075	229766	keystroke_t	t	n/a
115.228	0.03	230456	keystroke_o	o	n/a
115.378	0.151	230756	keystroke_n	n	n/a
115.544	0.075	231088	keystroke_Key.space	Key.space	n/a
117.736	0.001	235472	keystroke_g	g	n/a
117.824	0.059	235648	keystroke_i	i	n/a
117.959	0.089	235918	keystroke_a	a	n/a
118.108	0.06	236216	keystroke_n	n	n/a
118.213	0.061	236426	keystroke_t	t	n/a
118.318	0.0755	236636	keystroke_s	s	n/a
118.4985	0.075	236997	keystroke_Key.enter	Key.enter	n/a
118.5885	6.8865	237177	prompt	n/a	buttons newport embassy convert\n
119.503	0.045	239006	keystroke_b	b	n/a
119.608	0.09	239216	keystroke_u	u	n/a
119.6835	0.0595	239367	keystroke_t	t	n/a
119.818	0.075	239636	keystroke_t	t	n/a
119.908	0.075	239816	keystroke_o	o	n/a
120.058	0.075	240116	keystroke_n	n	n/a
120.193	0.03	240386	keystroke_s	s	n/a
120.283	0.075	240566	keystroke_Key.space	Key.space	n/a
120.4935	0.075	240987	keystroke_n	n	n/a
120.6135	0.09	241227	keystroke_e	e	n/a
120.8085	0.09	241617	keystroke_w	w	n/a
120.9585	0.06	241917	keystroke_p	p	n/a
121.0785	0.09	242157	keystroke_o	o	n/a
121.4235	0.06	242847	keystroke_r	r	n/a
121.5435	0.1045	243087	keystroke_t	t	n/a
121.723	0.09	243446	keystroke_Key.space	Key.space	n/a
122.143	0.075	244286	keystroke_e	e	n/a
122.323	0.06	244646	keystroke_m	m	n/a
122.5485	0.075	245097	keystroke_b	b	n/a
122.6385	0.105	245277	keystroke_a	a	n/a
122.8185	0.075	245637	keystroke_s	s	n/a
122.998	0.075	245996	keystroke_s	s	n/a
123.163	0.165	246326	keystroke_y	y	n/a
123.2835	0.1345	246567	keystroke_Key.space	Key.space	n/a
123.569	0.075	247138	keystroke_e	e	n/a
123.9585	0.045	247917	keystroke_Key.backspace	Key.backspace	n/a
124.1235	0.06	248247	keystroke_c	c	n/a
124.2285	0.09	248457	keystroke_o	o	n/a
124.423	0.075	248846	keystroke_n	n	n/a
124.499	0.044	248998	keystroke_v	v	n/a
124.663	0.09	249326	keystroke_e	e	n/a
124.708	0.12	249416	keystroke_r	r	n/a
125.053	0.06	250106	keystroke_t	t	n/a
125.413	0.06	250826	keystroke_Key.enter	Key.enter	n/a
125.478	8.037	250956	prompt	n/a	char assessing defense what're\n
126.4635	0.09	252927	keystroke_c	c	n/a
126.5985	0.045	253197	keystroke_h	h	n/a
126.6585	0.075	253317	keystroke_a	a	n/a
126.8835	0.075	253767	keystroke_r	r	n/a
127.0335	0.09	254067	keystroke_Key.space	Key.space	n/a
127.1685	0.075	254337	keystroke_a	a	n/a
127.3485	0.045	254697	keystroke_s	s	n/a
127.4835	0.06	254967	keystroke_s	s	n/a
127.6335	0.06	255267	keystroke_e	e	n/a
127.8135	0.045	255627	keystroke_s	s	n/a
127.9635	0.06	255927	keystroke_s	s	n/a
128.0835	0.075	256167	keystroke_i	i	n/a
128.2635	0.075	256527	keystroke_n	n	n/a
128.3535	0.075	256707	keystroke_g	g	n/a
128.4885	0.075	256977	keystroke_Key.space	Key.space	n/a
129.4185	0.105	258837	keystroke_d	d	n/a
129.4935	0.105	258987	keystroke_e	e	n/a
129.613	0.105	259226	keystroke_f	f	n/a
129.733	0.09	259466	keystroke_e	e	n/a
129.958	0.075	259916	keystroke_n	n	n/a
130.138	0.045	260276	keystroke_c	c	n/a
130.573	0.0455	261146	keystroke_s	s	n/a
130.8885	0.06	261777	keystroke_Key.backspace	Key.backspace	n/a
131.0685	0.075	262137	keystroke_Key.backspace	Key.backspace	n/a
131.2035	0.105	262407	keystroke_s	s	n/a
131.413	0.06	262826	keystroke_e	e	n/a
131.773	0.0755	263546	keystroke_Key.space	Key.space	n/a
131.9835	0.09	263967	keystroke_w	w	n/a
132.1935	0.045	264387	keystroke_h	h	n/a
132.2535	0.075	264507	keystroke_a	a	n/a
132.4635	0.075	264927	keystroke_t	t	n/a
132.8985	0.075	265797	keystroke_'	'	n/a
133.1525	0.106	266305	keystroke_r	r	n/a
133.2135	0.12	266427	keystroke_e	e	n/a
133.4075	0.106	266815	keystroke_Key.enter	Key.enter	n/a
133.526	6.169	267052	prompt	n/a	sequence japan timely eagle\n
134.339	0.045	268678	keystroke_s	s	n/a
134.474	0.075	268948	keystroke_e	e	n/a
135.119	0.014	270238	keystroke_q	q	n/a
135.209	0.075	270418	keystroke_u	u	n/a
135.329	0.089	270658	keystroke_e	e	n/a
135.448	0.076	270896	keystroke_n	n	n/a
135.614	0.179	271228	keystroke_c	c	n/a
135.749	0.105	271498	keystroke_e	e	n/a
135.898	0.1055	271796	keystroke_Key.space	Key.space	n/a
136.2885	0.06	272577	keystroke_j	j	n/a
136.3785	0.09	272757	keystroke_a	a	n/a
136.4835	0.06	272967	keystroke_p	p	n/a
136.6035	0.09	273207	keystroke_a	a	n/a
136.7835	0.165	273567	keystroke_n	n	n/a
136.9335	0.075	273867	keystroke_Key.space	Key.space	n/a
137.2185	0.06	274437	keystroke_t	t	n/a
137.2935	0.075	274587	keystroke_i	i	n/a
137.4585	0.075	274917	keystroke_m	m	n/a
137.5185	0.09	275037	keystroke_e	e	n/a
137.7435	0.045	275487	keystroke_l	l	n/a
137.9685	0.135	275937	keystroke_y	y	n/a
138.0585	0.135	276117	keystroke_Key.space	Key.space	n/a
138.6735	0.06	277347	keystroke_e	e	n/a
138.8235	0.075	277647	keystroke_a	a	n/a
139.019	0.09	278038	keystroke_g	g	n/a
139.169	0.06	278338	keystroke_l	l	n/a
139.259	0.075	278518	keystroke_e	e	n/a
139.604	0.09	279208	keystroke_Key.enter	Key.enter	n/a
139.7025	11.0195	279405	prompt	n/a	defendant school cheaper yields\n
141.569	0.09	283138	keystroke_d	d	n/a
141.614	0.09	283228	keystroke_e	e	n/a
141.764	0.09	283528	keystroke_f	f	n/a
141.8995	0.045	283799	keystroke_e	e	n/a
142.0645	0.075	284129	keystroke_n	n	n/a
142.2295	0.09	284459	keystroke_d	d	n/a
142.3345	0.09	284669	keystroke_a	a	n/a
142.5745	0.06	285149	keystroke_t	t	n/a
143.0395	0.06	286079	keystroke_Key.backspace	Key.backspace	n/a
143.2645	0.075	286529	keystroke_n	n	n/a
143.3545	0.075	286709	keystroke_t	t	n/a
143.5195	0.075	287039	keystroke_Key.space	Key.space	n/a
143.8495	0.045	287699	keystroke_s	s	n/a
144.0145	0.09	288029	keystroke_c	c	n/a
144.1195	0.045	288239	keystroke_h	h	n/a
144.2695	0.06	288539	keystroke_o	o	n/a
144.4045	0.06	288809	keystroke_o	o	n/a
144.5695	0.12	289139	keystroke_l	l	n/a
144.7495	0.06	289499	keystroke_Key.space	Key.space	n/a
144.8245	0.0605	289649	keystroke_Key.space	Key.space	n/a
145.245	0.1195	290490	keystroke_c	c	n/a
145.3945	0.06	290789	keystroke_h	h	n/a
145.515	0.044	291030	keystroke_e	e	n/a
145.68	0.075	291360	keystroke_a	a	n/a
145.8	0.075	291600	keystroke_p	p	n/a
145.979	0.106	291958	keystroke_e	e	n/a
146.04	0.15	292080	keystroke_r	r	n/a
146.235	0.074	292470	keystroke_Key.space	Key.space	n/a
149.0415	0	298083	keystroke_y	y	n/a
149.1145	0.09	298229	keystroke_i	i	n/a
149.2345	0.06	298469	keystroke_r	r	n/a
149.5645	0.075	299129	keystroke_Key.backspace	Key.backspace	n/a
149.6545	0.105	299309	keystroke_e	e	n/a
149.8195	0.09	299639	keystroke_l	l	n/a
149.9695	0.075	299939	keystroke_d	d	n/a
150.2245	0.09	300449	keystroke_s	s	n/a
150.645	0.075	301290	keystroke_Key.enter	Key.enter	n/a
150.7335	6.8895	301467	prompt	n/a	modification pearl turns us\n
151.77	0.075	303540	keystroke_m	m	n/a
151.92	0.06	303840	keystroke_o	o	n/a
151.995	0.075	303990	keystroke_d	d	n/a
152.145	0.075	304290	keystroke_i	i	n/a
152.235	0.075	304470	keystroke_f	f	n/a
152.37	0.045	304740	keystroke_i	i	n/a
152.43	0.09	304860	keystroke_c	c	n/a
152.595	0.075	305190	keystroke_a	a	n/a
152.82	0.075	305640	keystroke_t	t	n/a
152.925	0.045	305850	keystroke_i	i	n/a
153.06	0.06	306120	keystroke_o	o	n/a
153.2545	0.135	306509	keystroke_n	n	n/a
153.3595	0.105	306719	keystroke_Key.space	Key.space	n/a
154.29	0.075	308580	keystroke_p	p	n/a
154.3945	0.061	308789	keystroke_e	e	n/a
154.5755	0.089	309151	keystroke_a	a	n/a
154.6355	0.119	309271	keystroke_r	r	n/a
154.8305	0.209	309661	keystroke_l	l	n/a
154.9795	0.105	309959	keystroke_Key.space	Key.space	n/a
155.7	0.09	311400	keystroke_t	t	n/a
155.85	0.075	311700	keystroke_u	u	n/a
155.97	0.045	311940	keystroke_r	r	n/a
156.075	0.135	312150	keystroke_n	n	n/a
156.195	0.09	312390	keystroke_Key.space	Key.space	n/a
156.825	0.075	313650	keystroke_Key.backspace	Key.backspace	n/a
156.915	0.09	313830	keystroke_s	s	n/a
157.05	0.075	314100	keystroke_Key.space	Key.space	n/a
157.186	0.074	314372	keystroke_u	u	n/a
157.29	0.075	314580	keystroke_s	s	n/a
157.53	0.09	315060	keystroke_Key.enter	Key.enter	n/a
157.634	10.1	315268	prompt	n/a	pmid physically gordon combining\n
158.925	0.09	317850	keystroke_p	p	n/a
159.871	0.075	319742	keystroke_m	m	n/a
160.066	0.045	320132	keystroke_i	i	n/a
160.156	0.12	320312	keystroke_d	d	n/a
160.291	0.09	320582	keystroke_Key.space	Key.space	n/a
160.936	0.045	321872	keystroke_p	p	n/a
161.161	0.045	322322	keystroke_h	h	n/a
161.311	0.03	322622	keystroke_y	y	n/a
161.371	0.075	322742	keystroke_s	s	n/a
161.536	0.045	323072	keystroke_i	i	n/a
161.581	0.105	323162	keystroke_c	c	n/a
161.761	0.0895	323522	keystroke_a	a	n/a
162.1655	0.075	324331	keystroke_;	;	n/a
162.841	0.075	325682	keystroke_Key.backspace	Key.backspace	n/a
163.111	0.0455	326222	keystroke_l	l	n/a
163.231	0.06	326462	keystroke_l	l	n/a
163.531	0.09	327062	keystroke_y	y	n/a
163.681	0.105	327362	keystroke_Key.space	Key.space	n/a
164.866	0.105	329732	keystroke_g	g	n/a
164.986	0.045	329972	keystroke_o	o	n/a
165.046	0.06	330092	keystroke_r	r	n/a
165.286	0.075	330572	keystroke_d	d	n/a
165.346	0.075	330692	keystroke_o	o	n/a
165.541	0.12	331082	keystroke_n	n	n/a
165.646	0.09	331292	keystroke_Key.space	Key.space	n/a
166.456	0.09	332912	keystroke_c	c	n/a
166.531	0.135	333062	keystroke_o	o	n/a
166.606	0.105	333212	keystroke_m	m	n/a
166.846	0.075	333692	keystroke_b	b	n/a
166.981	0.075	333962	keystroke_i	i	n/a
167.131	0.0605	334262	keystroke_n	n	n/a
167.2215	0.075	334443	keystroke_i	i	n/a
167.3265	0.09	334653	keystroke_n	n	n/a
167.4315	0.09	334863	keystroke_g	g	n/a
167.6565	0.075	335313	keystroke_Key.enter	Key.enter	n/a
167.7495	9.2995	335499	prompt	n/a	strings donation procedure deutsch\n
168.6165	0.06	337233	keystroke_s	s	n/a
168.7815	0.075	337563	keystroke_t	t	n/a
168.9615	0.045	337923	keystroke_r	r	n/a
169.0515	0.045	338103	keystroke_o	o	n/a
169.3815	0.075	338763	keystroke_Key.backspace	Key.backspace	n/a
169.5615	0.06	339123	keystroke_i	i	n/a
169.7265	0.06	339453	keystroke_n	n	n/a
169.8165	0.06	339633	keystroke_g	g	n/a
169.9665	0.09	339933	keystroke_s	s	n/a
170.1015	0.09	340203	keystroke_Key.space	Key.space	n/a
170.7165	0.105	341433	keystroke_d	d	n/a
170.8365	0.075	341673	keystroke_o	o	n/a
171.0015	0.075	342003	keystroke_n	n	n/a
171.0915	0.015	342183	keystroke_a	a	n/a
171.2865	0.0905	342573	keystroke_t	t	n/a
171.3615	0.0605	342723	keystroke_i	i	n/a
171.497	0.075	342994	keystroke_o	o	n/a
171.662	0.135	343324	keystroke_n	n	n/a
171.782	0.09	343564	keystroke_Key.space	Key.space	n/a
172.292	0.075	344584	keystroke_p	p	n/a
172.517	0.075	345034	keystroke_r	r	n/a
172.667	0.06	345334	keystroke_o	o	n/a
172.877	0.15	345754	keystroke_c	c	n/a
173.012	0.075	346024	keystroke_e	e	n/a
173.207	0.09	346414	keystroke_d	d	n/a
173.417	0.06	346834	keystroke_u	u	n/a
173.537	0.135	347074	keystroke_r	r	n/a
173.612	0.135	347224	keystroke_e	e	n/a
173.777	0.105	347554	keystroke_Key.space	Key.space	n/a
174.4825	0.15	348965	keystroke_d	d	n/a
174.5725	0.135	349145	keystroke_e	e	n/a
174.9325	0.06	349865	keystroke_u	u	n/a
175.2625	0.075	350525	keystroke_t	t	n/a
176.4025	0.105	352805	keystroke_s	s	n/a
176.5975	0.105	353195	keystroke_c	c	n/a
176.6875	0.075	353375	keystroke_h	h	n/a
176.972	0.075	353944	keystroke_Key.enter	Key.enter	n/a
177.061	10.6235	354122	prompt	n/a	heated thumbzilla consolidation emperor\n
178.082	0.06	356164	keystroke_h	h	n/a
178.112	0.075	356224	keystroke_e	e	n/a
178.262	0.09	356524	keystroke_a	a	n/a
178.4575	0.045	356915	keystroke_t	t	n/a
178.6975	0.06	357395	keystroke_e	e	n/a
178.9975	0.075	357995	keystroke_Key.space	Key.space	n/a
179.3725	0.045	358745	keystroke_Key.backspace	Key.backspace	n/a
179.4325	0.09	358865	keystroke_d	d	n/a
179.597	0.076	359194	keystroke_Key.space	Key.space	n/a
179.853	0.0745	359706	keystroke_t	t	n/a
180.0025	0.06	360005	keystroke_h	h	n/a
180.1825	0.075	360365	keystroke_u	u	n/a
180.3625	0.075	360725	keystroke_m	m	n/a
180.5725	0.06	361145	keystroke_b	b	n/a
181.022	0.09	362044	keystroke_z	z	n/a
181.187	0.075	362374	keystroke_i	i	n/a
181.367	0.06	362734	keystroke_l	l	n/a
181.5025	0.0755	363005	keystroke_l	l	n/a
181.773	0.105	363546	keystroke_Key.space	Key.space	n/a
182.432	0.06	364864	keystroke_Key.backspace	Key.backspace	n/a
182.508	0.104	365016	keystroke_a	a	n/a
182.657	0.09	365314	keystroke_Key.space	Key.space	n/a
182.852	0.09	365704	keystroke_c	c	n/a
182.927	0.076	365854	keystroke_o	o	n/a
183.078	0.09	366156	keystroke_n	n	n/a
183.242	0.091	366484	keystroke_s	s	n/a
183.363	0.06	366726	keystroke_o	o	n/a
183.543	0.059	367086	keystroke_l	l	n/a
183.677	0.06	367354	keystroke_o	o	n/a
184.037	0.075	368074	keystroke_Key.backspace	Key.backspace	n/a
184.682	0.045	369364	keystroke_i	i	n/a
184.787	0.105	369574	keystroke_d	d	n/a
184.952	0.075	369904	keystroke_a	a	n/a
185.147	0.09	370294	keystroke_t	t	n/a
185.252	0.045	370504	keystroke_i	i	n/a
185.387	0.06	370774	keystroke_o	o	n/a
185.552	0.166	371104	keystroke_n	n	n/a
185.688	0.09	371376	keystroke_Key.space	Key.space	n/a
185.838	0.06	371676	keystroke_e	e	n/a
185.943	0.075	371886	keystroke_m	m	n/a
186.138	0.075	372276	keystroke_p	p	n/a
186.378	0.105	372756	keystroke_e	e	n/a
186.438	0.135	372876	keystroke_r	r	n/a
186.842	0.075	373684	keystroke_o	o	n/a
186.962	0.09	373924	keystroke_r	r	n/a
187.607	0.0755	375214	keystroke_Key.enter	Key.enter	n/a
187.6955	7.399	375391	prompt	n/a	reflects immediately warrior image\n
188.3875	0.12	376775	keystroke_r	r	n/a
188.4925	0.09	376985	keystroke_e	e	n/a
188.7175	0.075	377435	keystroke_f	f	n/a
188.8075	0.075	377615	keystroke_l	l	n/a
188.9275	0.09	377855	keystroke_e	e	n/a
189.1825	0.045	378365	keystroke_c	c	n/a
189.3325	0.09	378665	keystroke_t	t	n/a
189.4825	0.075	378965	keystroke_s	s	n/a
189.663	0.075	379326	keystroke_Key.space	Key.space	n/a
189.768	0.105	379536	keystroke_i	i	n/a
189.963	0.045	379926	keystroke_m	m	n/a
190.083	0.075	380166	keystroke_m	m	n/a
190.158	0.06	380316	keystroke_e	e	n/a
190.353	0.075	380706	keystroke_d	d	n/a
190.488	0.06	380976	keystroke_i	i	n/a
190.623	0.06	381246	keystroke_a	a	n/a
190.818	0.075	381636	keystroke_t	t	n/a
190.968	0.075	381936	keystroke_e	e	n/a
191.193	0.075	382386	keystroke_l	l	n/a
191.478	0.119	382956	keystroke_y	y	n/a
191.552	0.135	383104	keystroke_Key.space	Key.space	n/a
192.242	0.06	384484	keystroke_w	w	n/a
192.467	0.075	384934	keystroke_a	a	n/a
192.648	0.045	385296	keystroke_r	r	n/a
192.783	0.074	385566	keystroke_r	r	n/a
192.888	0.059	385776	keystroke_i	i	n/a
193.038	0.06	386076	keystroke_o	o	n/a
193.292	0.09	386584	keystroke_r	r	n/a
193.412	0.1055	386824	keystroke_Key.space	Key.space	n/a
194.1925	0.076	388385	keystroke_i	i	n/a
194.3885	0.0735	388777	keystroke_m	m	n/a
194.477	0.045	388954	keystroke_a	a	n/a
194.658	0.075	389316	keystroke_g	g	n/a
194.748	0.075	389496	keystroke_e	e	n/a
195.0025	0.09	390005	keystroke_Key.enter	Key.enter	n/a
195.105	5.059	390210	prompt	n/a	male casio lender prague\n
196.0825	0.0755	392165	keystroke_m	m	n/a
196.398	0.06	392796	keystroke_a	a	n/a
196.578	0.045	393156	keystroke_l	l	n/a
196.638	0.09	393276	keystroke_e	e	n/a
196.773	0.09	393546	keystroke_Key.space	Key.space	n/a
196.938	0.075	393876	keystroke_c	c	n/a
197.103	0.104	394206	keystroke_a	a	n/a
197.222	0.075	394444	keystroke_s	s	n/a
197.313	0.044	394626	keystroke_i	i	n/a
197.463	0.119	394926	keystroke_o	o	n/a
197.597	0.09	395194	keystroke_Key.space	Key.space	n/a
197.852	0.075	395704	keystroke_l	l	n/a
197.928	0.059	395856	keystroke_e	e	n/a
198.062	0.075	396124	keystroke_n	n	n/a
198.227	0.135	396454	keystroke_d	d	n/a
198.332	0.1055	396664	keystroke_e	e	n/a
198.5575	0.075	397115	keystroke_r	r	n/a
198.7675	0.0895	397535	keystroke_Key.space	Key.space	n/a
199.053	0.044	398106	keystroke_p	p	n/a
199.233	0.074	398466	keystroke_r	r	n/a
199.457	0.061	398914	keystroke_a	a	n/a
199.653	0.075	399306	keystroke_g	g	n/a
199.773	0.075	399546	keystroke_u	u	n/a
199.862	0.091	399724	keystroke_e	e	n/a
200.073	0.089	400146	keystroke_Key.enter	Key.enter	n/a
200.1675	6.9575	400335	prompt	n/a	grain christine packet centres\n
201.153	0.075	402306	keystroke_g	g	n/a
201.182	0.106	402364	keystroke_r	r	n/a
201.422	0.075	402844	keystroke_a	a	n/a
201.557	0.075	403114	keystroke_i	i	n/a
201.738	0.134	403476	keystroke_n	n	n/a
201.842	0.09	403684	keystroke_Key.space	Key.space	n/a
202.188	0.059	404376	keystroke_c	c	n/a
202.3075	0.0755	404615	keystroke_h	h	n/a
202.4425	0.0755	404885	keystroke_r	r	n/a
202.562	0.061	405124	keystroke_i	i	n/a
202.637	0.106	405274	keystroke_s	s	n/a
202.848	0.075	405696	keystroke_t	t	n/a
202.938	0.075	405876	keystroke_i	i	n/a
203.088	0.09	406176	keystroke_n	n	n/a
203.193	0.105	406386	keystroke_e	e	n/a
203.358	0.105	406716	keystroke_Key.space	Key.space	n/a
204.018	0.075	408036	keystroke_p	p	n/a
204.108	0.075	408216	keystroke_a	a	n/a
204.318	0.105	408636	keystroke_c	c	n/a
204.468	0.075	408936	keystroke_k	k	n/a
204.588	0.09	409176	keystroke_e	e	n/a
204.873	0.105	409746	keystroke_t	t	n/a
205.128	0.12	410256	keystroke_Key.space	Key.space	n/a
205.443	0.075	410886	keystroke_c	c	n/a
205.653	0.06	411306	keystroke_e	e	n/a
205.968	0.075	411936	keystroke_n	n	n/a
206.103	0.075	412206	keystroke_t	t	n/a
206.4475	0.105	412895	keystroke_r	r	n/a
206.4925	0.135	412985	keystroke_e	e	n/a
206.8975	0.09	413795	keystroke_s	s	n/a
207.0475	0.075	414095	keystroke_Key.enter	Key.enter	n/a
207.128	7.167	414256	prompt	n/a	leslie gender headline lodging\n
208.0825	0.06	416165	keystroke_l	l	n/a
208.1435	0.059	416287	keystroke_e	e	n/a
208.3525	0.0605	416705	keystroke_s	s	n/a
208.548	0.045	417096	keystroke_l	l	n/a
208.698	0.06	417396	keystroke_i	i	n/a
208.788	0.09	417576	keystroke_e	e	n/a
208.938	0.09	417876	keystroke_Key.space	Key.space	n/a
210.423	0.06	420846	keystroke_g	g	n/a
210.498	0.09	420996	keystroke_e	e	n/a
210.633	0.075	421266	keystroke_n	n	n/a
210.768	0.12	421536	keystroke_d	d	n/a
210.843	0.104	421686	keystroke_e	e	n/a
211.023	0.09	422046	keystroke_r	r	n/a
211.142	0.091	422284	keystroke_Key.space	Key.space	n/a
211.383	0.06	422766	keystroke_h	h	n/a
211.457	0.061	422914	keystroke_e	e	n/a
211.6225	0.075	423245	keystroke_a	a	n/a
211.7725	0.105	423545	keystroke_d	d	n/a
211.8925	0.06	423785	keystroke_l	l	n/a
212.0575	0.06	424115	keystroke_i	i	n/a
212.2225	0.06	424445	keystroke_n	n	n/a
212.2975	0.075	424595	keystroke_e	e	n/a
212.4175	0.09	424835	keystroke_Key.space	Key.space	n/a
212.8975	0.075	425795	keystroke_l	l	n/a
213.0475	0.075	426095	keystroke_o	o	n/a
213.4375	0.075	426875	keystroke_d	d	n/a
213.6175	0.075	427235	keystroke_g	g	n/a
213.7375	0.075	427475	keystroke_i	i	n/a
213.8725	0.075	427745	keystroke_n	n	n/a
213.9775	0.09	427955	keystroke_g	g	n/a
214.2175	0.075	428435	keystroke_Key.enter	Key.enter	n/a
214.3055	10.234	428611	prompt	n/a	concerns sympathy flag controlling\n
215.1475	0.09	430295	keystroke_c	c	n/a
215.2525	0.045	430505	keystroke_o	o	n/a
215.3875	0.075	430775	keystroke_n	n	n/a
215.4325	0.075	430865	keystroke_c	c	n/a
215.583	0.105	431166	keystroke_e	e	n/a
215.628	0.105	431256	keystroke_r	r	n/a
215.793	0.075	431586	keystroke_n	n	n/a
215.853	0.09	431706	keystroke_s	s	n/a
216.018	0.09	432036	keystroke_Key.space	Key.space	n/a
216.168	0.06	432336	keystroke_s	s	n/a
216.453	0.045	432906	keystroke_u	u	n/a
216.753	0.059	433506	keystroke_Key.backspace	Key.backspace	n/a
216.948	0.075	433896	keystroke_y	y	n/a
217.083	0.09	434166	keystroke_m	m	n/a
217.263	0.075	434526	keystroke_p	p	n/a
217.503	0.06	435006	keystroke_t	t	n/a
217.712	0.03	435424	keystroke_a	a	n/a
218.4775	0.06	436955	keystroke_Key.backspace	Key.backspace	n/a
218.7925	0.06	437585	keystroke_Key.backspace	Key.backspace	n/a
218.9575	0.0745	437915	keystroke_t	t	n/a
219.632	0.061	439264	keystroke_Key.backspace	Key.backspace	n/a
219.708	0.09	439416	keystroke_a	a	n/a
219.948	0.06	439896	keystroke_t	t	n/a
220.068	0.06	440136	keystroke_h	h	n/a
220.233	0.105	440466	keystroke_y	y	n/a
220.323	0.104	440646	keystroke_Key.space	Key.space	n/a
221.598	0.075	443196	keystroke_f	f	n/a
221.733	0.075	443466	keystroke_l	l	n/a
221.793	0.09	443586	keystroke_a	a	n/a
222.093	0.06	444186	keystroke_g	g	n/a
222.228	0.089	444456	keystroke_Key.space	Key.space	n/a
222.408	0.074	444816	keystroke_c	c	n/a
222.468	0.06	444936	keystroke_o	o	n/a
222.633	0.06	445266	keystroke_n	n	n/a
222.723	0.045	445446	keystroke_t	t	n/a
222.963	0.075	445926	keystroke_r	r	n/a
223.083	0.075	446166	keystroke_o	o	n/a
223.278	0.059	446556	keystroke_l	l	n/a
223.412	0.031	446824	keystroke_l	l	n/a
223.832	0.0905	447664	keystroke_i	i	n/a
224.102	0.075	448204	keystroke_n	n	n/a
224.222	0.075	448444	keystroke_g	g	n/a
224.462	0.075	448924	keystroke_Key.enter	Key.enter	n/a
224.5505	6.7085	449101	prompt	n/a	terror pills alloy indexed\n
225.302	0.06	450604	keystroke_t	t	n/a
225.437	0.075	450874	keystroke_e	e	n/a
225.587	0.075	451174	keystroke_r	r	n/a
225.737	0.06	451474	keystroke_r	r	n/a
225.827	0.06	451654	keystroke_o	o	n/a
225.932	0.075	451864	keystroke_r	r	n/a
226.052	0.06	452104	keystroke_Key.space	Key.space	n/a
226.187	0.06	452374	keystroke_p	p	n/a
226.352	0.03	452704	keystroke_i	i	n/a
226.5475	0.015	453095	keystroke_l	l	n/a
226.6075	0.06	453215	keystroke_l	l	n/a
226.7125	0.045	453425	keystroke_s	s	n/a
226.8025	0.09	453605	keystroke_Key.space	Key.space	n/a
226.9525	0.075	453905	keystroke_a	a	n/a
227.0575	0.06	454115	keystroke_l	l	n/a
227.1925	0.075	454385	keystroke_l	l	n/a
227.3275	0.09	454655	keystroke_o	o	n/a
228.017	0.12	456034	keystroke_y	y	n/a
228.092	0.105	456184	keystroke_Key.space	Key.space	n/a
228.287	0.075	456574	keystroke_i	i	n/a
228.467	0.045	456934	keystroke_n	n	n/a
228.5275	0.0595	457055	keystroke_d	d	n/a
228.707	0.12	457414	keystroke_d	d	n/a
228.782	0.12	457564	keystroke_e	e	n/a
229.547	0.045	459094	keystroke_Key.backspace	Key.backspace	n/a
229.817	0.06	459634	keystroke_Key.backspace	Key.backspace	n/a
230.057	0.075	460114	keystroke_e	e	n/a
230.507	0.06	461014	keystroke_x	x	n/a
230.717	0.12	461434	keystroke_e	e	n/a
230.822	0.135	461644	keystroke_d	d	n/a
231.182	0.075	462364	keystroke_Key.enter	Key.enter	n/a
231.2615	6.9725	462523	prompt	n/a	earth beijing economy auctions\n
232.0675	0.06	464135	keystroke_e	e	n/a
232.2475	0.06	464495	keystroke_a	a	n/a
232.3675	0.09	464735	keystroke_r	r	n/a
232.5775	0.06	465155	keystroke_t	t	n/a
232.7275	0.12	465455	keystroke_h	h	n/a
232.8025	0.105	465605	keystroke_Key.space	Key.space	n/a
233.0725	0.06	466145	keystroke_b	b	n/a
233.1775	0.075	466355	keystroke_e	e	n/a
233.3125	0.075	466625	keystroke_i	i	n/a
233.7025	0.075	467405	keystroke_j	j	n/a
233.8375	0.075	467675	keystroke_i	i	n/a
234.0025	0.075	468005	keystroke_n	n	n/a
234.137	0.075	468274	keystroke_g	g	n/a
234.242	0.09	468484	keystroke_Key.space	Key.space	n/a
234.783	0.044	469566	keystroke_e	e	n/a
235.007	0.075	470014	keystroke_c	c	n/a
235.097	0.075	470194	keystroke_o	o	n/a
235.247	0.09	470494	keystroke_n	n	n/a
235.382	0.06	470764	keystroke_o	o	n/a
235.517	0.091	471034	keystroke_m	m	n/a
235.802	0.12	471604	keystroke_y	y	n/a
235.877	0.12	471754	keystroke_Key.space	Key.space	n/a
236.9575	0.09	473915	keystroke_a	a	n/a
237.0925	0.075	474185	keystroke_u	u	n/a
237.3475	0.09	474695	keystroke_c	c	n/a
237.5575	0.06	475115	keystroke_t	t	n/a
237.6475	0.045	475295	keystroke_i	i	n/a
237.7675	0.059	475535	keystroke_o	o	n/a
237.8865	0.106	475773	keystroke_n	n	n/a
237.9775	0.075	475955	keystroke_s	s	n/a
238.1715	0.061	476343	keystroke_Key.enter	Key.enter	n/a
238.239	11.89	476478	prompt	n/a	recipient refuse drinking gorgeous\n
239.1165	0.0905	478233	keystroke_r	r	n/a
239.162	0.12	478324	keystroke_e	e	n/a
239.462	0.12	478924	keystroke_c	c	n/a
239.5515	0.0905	479103	keystroke_e	e	n/a
240.932	0.09	481864	keystroke_Key.backspace	Key.backspace	n/a
241.323	0.059	482646	keystroke_i	i	n/a
241.517	0.075	483034	keystroke_p	p	n/a
241.712	0.045	483424	keystroke_i	i	n/a
241.982	0.075	483964	keystroke_e	e	n/a
242.177	0.06	484354	keystroke_n	n	n/a
242.327	0.075	484654	keystroke_t	t	n/a
242.492	0.075	484984	keystroke_Key.space	Key.space	n/a
242.987	0.105	485974	keystroke_r	r	n/a
243.032	0.12	486064	keystroke_e	e	n/a
243.527	0.045	487054	keystroke_f	f	n/a
243.992	0.045	487984	keystroke_u	u	n/a
244.158	0.059	488316	keystroke_s	s	n/a
244.337	0.045	488674	keystroke_e	e	n/a
244.412	0.075	488824	keystroke_Key.space	Key.space	n/a
245.357	0.06	490714	keystroke_d	d	n/a
245.567	0.0605	491134	keystroke_r	r	n/a
245.6725	0.075	491345	keystroke_i	i	n/a
245.8075	0.06	491615	keystroke_n	n	n/a
245.9125	0.09	491825	keystroke_k	k	n/a
246.0625	0.075	492125	keystroke_i	i	n/a
246.1975	0.075	492395	keystroke_n	n	n/a
246.2875	0.09	492575	keystroke_g	g	n/a
246.4375	0.06	492875	keystroke_Key.space	Key.space	n/a
247.0665	0.06	494133	keystroke_g	g	n/a
247.1875	0.074	494375	keystroke_o	o	n/a
247.3215	0.061	494643	keystroke_r	r	n/a
248.0725	0.075	496145	keystroke_e	e	n/a
248.5225	0.09	497045	keystroke_Key.backspace	Key.backspace	n/a
248.6725	0.09	497345	keystroke_g	g	n/a
249.092	0.09	498184	keystroke_e	e	n/a
249.407	0.09	498814	keystroke_o	o	n/a
249.602	0.0755	499204	keystroke_u	u	n/a
249.9025	0.075	499805	keystroke_s	s	n/a
250.0825	0.045	500165	keystroke_Key.enter	Key.enter	n/a
250.1415	7.097	500283	prompt	n/a	laugh nursing laugh conviction\n
251.0125	0.06	502025	keystroke_l	l	n/a
251.1175	0.075	502235	keystroke_a	a	n/a
251.2825	0.045	502565	keystroke_u	u	n/a
251.4175	0.06	502835	keystroke_g	g	n/a
251.5525	0.135	503105	keystroke_h	h	n/a
251.6575	0.105	503315	keystroke_Key.space	Key.space	n/a
251.8375	0.06	503675	keystroke_n	n	n/a
251.9575	0.09	503915	keystroke_u	u	n/a
252.0625	0.03	504125	keystroke_r	r	n/a
252.2575	0.09	504515	keystroke_s	s	n/a
252.3625	0.06	504725	keystroke_i	i	n/a
252.5275	0.06	505055	keystroke_n	n	n/a
252.6025	0.075	505205	keystroke_g	g	n/a
252.902	0.075	505804	keystroke_Key.space	Key.space	n/a
253.247	0.075	506494	keystroke_l	l	n/a
253.367	0.09	506734	keystroke_a	a	n/a
253.907	0.12	507814	keystroke_u	u	n/a
254.087	0.06	508174	keystroke_g	g	n/a
254.252	0.15	508504	keystroke_h	h	n/a
254.387	0.105	508774	keystroke_Key.space	Key.space	n/a
255.047	0.06	510094	keystroke_c	c	n/a
255.092	0.075	510184	keystroke_o	o	n/a
255.2565	0.09	510513	keystroke_n	n	n/a
255.4515	0.03	510903	keystroke_v	v	n/a
255.5865	0.06	511173	keystroke_i	i	n/a
255.7815	0.0605	511563	keystroke_s	s	n/a
256.1275	0.06	512255	keystroke_Key.backspace	Key.backspace	n/a
256.2175	0.06	512435	keystroke_c	c	n/a
256.4125	0.09	512825	keystroke_t	t	n/a
256.5325	0.06	513065	keystroke_i	i	n/a
256.6975	0.045	513395	keystroke_o	o	n/a
256.8325	0.105	513665	keystroke_n	n	n/a
257.1475	0.09	514295	keystroke_Key.enter	Key.enter	n/a
257.2415	18.1775	514483	prompt	n/a	temporary assessments collaborative eligible\n
258.1375	0.075	516275	keystroke_t	t	n/a
258.2865	0.076	516573	keystroke_e	e	n/a
258.497	0.075	516994	keystroke_m	m	n/a
258.737	0.06	517474	keystroke_p	p	n/a
258.917	0.135	517834	keystroke_e	e	n/a
258.992	0.15	517984	keystroke_r	r	n/a
259.487	0.09	518974	keystroke_o	o	n/a
259.652	0.06	519304	keystroke_r	r	n/a
260.027	0.09	520054	keystroke_a	a	n/a
261.242	0.1055	522484	keystroke_Key.backspace	Key.backspace	n/a
261.632	0.0605	523264	keystroke_Key.backspace	Key.backspace	n/a
263.6725	0.06	527345	keystroke_Key.backspace	Key.backspace	n/a
264.0325	0.0445	528065	keystroke_Key.backspace	Key.backspace	n/a
264.3475	0.06	528695	keystroke_Key.backspace	Key.backspace	n/a
264.902	0.045	529804	keystroke_o	o	n/a
265.007	0.075	530014	keystroke_r	r	n/a
265.127	0.105	530254	keystroke_a	a	n/a
265.262	0.105	530524	keystroke_r	r	n/a
265.487	0.18	530974	keystroke_y	y	n/a
265.562	0.165	531124	keystroke_Key.space	Key.space	n/a
265.997	0.075	531994	keystroke_a	a	n/a
266.132	0.075	532264	keystroke_s	s	n/a
266.297	0.075	532594	keystroke_s	s	n/a
266.462	0.06	532924	keystroke_e	e	n/a
266.642	0.06	533284	keystroke_s	s	n/a
266.777	0.09	533554	keystroke_s	s	n/a
266.897	0.09	533794	keystroke_m	m	n/a
267.017	0.09	534034	keystroke_e	e	n/a
267.272	0.03	534544	keystroke_n	n	n/a
267.497	0.09	534994	keystroke_t	t	n/a
267.692	0.075	535384	keystroke_s	s	n/a
267.812	0.105	535624	keystroke_Key.space	Key.space	n/a
267.947	0.075	535894	keystroke_a	a	n/a
268.277	0.06	536554	keystroke_Key.backspace	Key.backspace	n/a
268.397	0.09	536794	keystroke_c	c	n/a
268.517	0.075	537034	keystroke_o	o	n/a
268.712	0.03	537424	keystroke_l	l	n/a
268.802	0.075	537604	keystroke_l	l	n/a
268.892	0.075	537784	keystroke_a	a	n/a
269.1325	0.045	538265	keystroke_b	b	n/a
269.312	0.06	538624	keystroke_o	o	n/a
269.477	0.0595	538954	keystroke_r	r	n/a
269.942	0.045	539884	keystroke_a	a	n/a
270.047	0.09	540094	keystroke_t	t	n/a
270.167	0.075	540334	keystroke_i	i	n/a
270.406	0.105	540812	keystroke_v	v	n/a
270.7815	0.075	541563	keystroke_Key.space	Key.space	n/a
271.0965	0.06	542193	keystroke_Key.backspace	Key.backspace	n/a
271.2015	0.0895	542403	keystroke_e	e	n/a
271.351	0.09	542702	keystroke_Key.space	Key.space	n/a
271.531	0.0755	543062	keystroke_e	e	n/a
271.7115	0.06	543423	keystroke_l	l	n/a
271.877	0.06	543754	keystroke_l	l	n/a
272.087	0.06	544174	keystroke_i	i	n/a
272.537	0.045	545074	keystroke_Key.backspace	Key.backspace	n/a
272.702	0.075	545404	keystroke_Key.backspace	Key.backspace	n/a
273.302	0.06	546604	keystroke_i	i	n/a
273.752	0.06	547504	keystroke_g	g	n/a
274.127	0.075	548254	keystroke_i	i	n/a
274.832	0.09	549664	keystroke_b	b	n/a
275.042	0.09	550084	keystroke_l	l	n/a
275.147	0.06	550294	keystroke_e	e	n/a
275.342	0.075	550684	keystroke_Key.enter	Key.enter	n/a
275.4305	6.633	550861	prompt	n/a	prime gains cosmetic method\n
276.8565	0.06	553713	keystroke_p	p	n/a
276.9615	0.06	553923	keystroke_r	r	n/a
277.0665	0.105	554133	keystroke_i	i	n/a
277.1415	0.12	554283	keystroke_m	m	n/a
277.2465	0.105	554493	keystroke_e	e	n/a
277.3815	0.09	554763	keystroke_Key.space	Key.space	n/a
277.5465	0.06	555093	keystroke_g	g	n/a
277.742	0.075	555484	keystroke_a	a	n/a
277.787	0.075	555574	keystroke_i	i	n/a
277.967	0.045	555934	keystroke_n	n	n/a
277.997	0.09	555994	keystroke_s	s	n/a
278.147	0.075	556294	keystroke_Key.space	Key.space	n/a
278.3865	0.075	556773	keystroke_c	c	n/a
278.4765	0.075	556953	keystroke_o	o	n/a
278.6565	0.06	557313	keystroke_s	s	n/a
278.9265	0.076	557853	keystroke_m	m	n/a
279.0465	0.045	558093	keystroke_e	e	n/a
279.1665	0.06	558333	keystroke_n	n	n/a
279.4965	0.06	558993	keystroke_Key.backspace	Key.backspace	n/a
279.6015	0.0755	559203	keystroke_t	t	n/a
279.752	0.075	559504	keystroke_i	i	n/a
280.322	0.06	560644	keystroke_c	c	n/a
280.457	0.105	560914	keystroke_Key.space	Key.space	n/a
281.177	0.06	562354	keystroke_m	m	n/a
281.222	0.09	562444	keystroke_e	e	n/a
281.432	0.06	562864	keystroke_t	t	n/a
281.507	0.06	563014	keystroke_h	h	n/a
281.642	0.09	563284	keystroke_o	o	n/a
281.777	0.105	563554	keystroke_d	d	n/a
281.987	0.075	563974	keystroke_Key.enter	Key.enter	n/a
282.066	7.5875	564132	prompt	n/a	engines epson ordered building\n
282.812	0.075	565624	keystroke_e	e	n/a
283.082	0.0595	566164	keystroke_n	n	n/a
283.232	0.06	566464	keystroke_g	g	n/a
283.337	0.03	566674	keystroke_i	i	n/a
283.427	0.09	566854	keystroke_n	n	n/a
283.592	0.075	567184	keystroke_e	e	n/a
283.832	0.075	567664	keystroke_s	s	n/a
283.967	0.12	567934	keystroke_Key.space	Key.space	n/a
284.4165	0.1055	568833	keystroke_s	s	n/a
284.761	0.061	569522	keystroke_Key.backspace	Key.backspace	n/a
284.897	0.06	569794	keystroke_e	e	n/a
285.512	0.075	571024	keystroke_p	p	n/a
285.647	0.09	571294	keystroke_s	s	n/a
285.766	0.076	571532	keystroke_o	o	n/a
285.947	0.15	571894	keystroke_n	n	n/a
286.081	0.091	572162	keystroke_Key.space	Key.space	n/a
286.397	0.075	572794	keystroke_o	o	n/a
286.802	0.06	573604	keystroke_r	r	n/a
287.027	0.09	574054	keystroke_d	d	n/a
287.102	0.1345	574204	keystroke_e	e	n/a
287.222	0.1345	574444	keystroke_r	r	n/a
287.3415	0.09	574683	keystroke_e	e	n/a
287.5815	0.105	575163	keystroke_d	d	n/a
287.7615	0.075	575523	keystroke_Key.space	Key.space	n/a
288.4815	0.045	576963	keystroke_b	b	n/a
288.616	0.06	577232	keystroke_u	u	n/a
288.781	0.06	577562	keystroke_i	i	n/a
288.931	0.06	577862	keystroke_l	l	n/a
289.007	0.089	578014	keystroke_d	d	n/a
289.141	0.06	578282	keystroke_i	i	n/a
289.291	0.06	578582	keystroke_n	n	n/a
289.366	0.09	578732	keystroke_g	g	n/a
289.576	0.075	579152	keystroke_Key.enter	Key.enter	n/a
289.6645	5.643	579329	prompt	n/a	honey you'd tuning garlic\n
290.5215	0.06	581043	keystroke_h	h	n/a
290.6565	0.075	581313	keystroke_o	o	n/a
290.7915	0.09	581583	keystroke_n	n	n/a
290.8665	0.075	581733	keystroke_e	e	n/a
291.0465	0.15	582093	keystroke_y	y	n/a
291.1215	0.12	582243	keystroke_Key.space	Key.space	n/a
291.3315	0.06	582663	keystroke_y	y	n/a
291.5115	0.135	583023	keystroke_o	o	n/a
291.6165	0.105	583233	keystroke_u	u	n/a
292.096	0.06	584192	keystroke_'	'	n/a
292.216	0.075	584432	keystroke_d	d	n/a
292.381	0.075	584762	keystroke_Key.space	Key.space	n/a
292.576	0.06	585152	keystroke_t	t	n/a
292.621	0.0755	585242	keystroke_u	u	n/a
292.816	0.06	585632	keystroke_n	n	n/a
292.966	0.09	585932	keystroke_i	i	n/a
293.251	0.09	586502	keystroke_n	n	n/a
293.461	0.09	586922	keystroke_g	g	n/a
293.641	0.09	587282	keystroke_Key.space	Key.space	n/a
294.301	0.045	588602	keystroke_g	g	n/a
294.451	0.075	588902	keystroke_a	a	n/a
294.556	0.09	589112	keystroke_r	r	n/a
294.7665	0.0745	589533	keystroke_l	l	n/a
294.946	0.075	589892	keystroke_i	i	n/a
295.036	0.075	590072	keystroke_c	c	n/a
295.246	0.06	590492	keystroke_Key.enter	Key.enter	n/a
295.3105	8.3235	590621	prompt	n/a	sciences distributors bases stake\n
296.071	0.105	592142	keystroke_s	s	n/a
296.266	0.105	592532	keystroke_c	c	n/a
296.446	0.06	592892	keystroke_i	i	n/a
296.507	0.074	593014	keystroke_e	e	n/a
296.656	0.105	593312	keystroke_n	n	n/a
296.746	0.12	593492	keystroke_c	c	n/a
296.821	0.12	593642	keystroke_e	e	n/a
297.106	0.09	594212	keystroke_s	s	n/a
297.256	0.075	594512	keystroke_Key.space	Key.space	n/a
297.556	0.076	595112	keystroke_d	d	n/a
297.691	0.075	595382	keystroke_i	i	n/a
297.856	0.09	595712	keystroke_s	s	n/a
298.246	0.0605	596492	keystroke_t	t	n/a
298.4265	0.06	596853	keystroke_r	r	n/a
298.6515	0.03	597303	keystroke_i	i	n/a
299.2365	0.045	598473	keystroke_b	b	n/a
299.3865	0.075	598773	keystroke_u	u	n/a
299.5515	0.0745	599103	keystroke_t	t	n/a
299.746	0.075	599492	keystroke_o	o	n/a
300.271	0.06	600542	keystroke_r	r	n/a
300.6165	0.0145	601233	keystroke_s	s	n/a
300.706	0.075	601412	keystroke_Key.space	Key.space	n/a
301.486	0.06	602972	keystroke_b	b	n/a
301.531	0.1355	603062	keystroke_a	a	n/a
301.6365	0.12	603273	keystroke_s	s	n/a
301.8465	0.0755	603693	keystroke_e	e	n/a
302.087	0.075	604174	keystroke_s	s	n/a
302.311	0.075	604622	keystroke_Key.space	Key.space	n/a
302.776	0.09	605552	keystroke_s	s	n/a
303.017	0.059	606034	keystroke_t	t	n/a
303.197	0.06	606394	keystroke_a	a	n/a
303.287	0.074	606574	keystroke_k	k	n/a
303.376	0.09	606752	keystroke_e	e	n/a
303.556	0.0755	607112	keystroke_Key.enter	Key.enter	n/a
303.6445	7.368	607289	prompt	n/a	became neighbor ruled involvement\n
304.5315	0.06	609063	keystroke_b	b	n/a
304.5615	0.075	609123	keystroke_e	e	n/a
304.7865	0.105	609573	keystroke_c	c	n/a
304.9365	0.09	609873	keystroke_a	a	n/a
305.0415	0.075	610083	keystroke_m	m	n/a
305.1615	0.075	610323	keystroke_e	e	n/a
305.2965	0.06	610593	keystroke_Key.space	Key.space	n/a
305.5065	0.06	611013	keystroke_n	n	n/a
305.5815	0.075	611163	keystroke_e	e	n/a
305.7315	0.06	611463	keystroke_i	i	n/a
306.1665	0.045	612333	keystroke_g	g	n/a
306.2415	0.075	612483	keystroke_h	h	n/a
306.4365	0.045	612873	keystroke_b	b	n/a
306.6165	0.045	613233	keystroke_o	o	n/a
306.9315	0.06	613863	keystroke_r	r	n/a
307.0515	0.09	614103	keystroke_Key.space	Key.space	n/a
307.3665	0.075	614733	keystroke_r	r	n/a
307.5915	0.074	615183	keystroke_u	u	n/a
307.9205	0.075	615841	keystroke_l	l	n/a
308.056	0.075	616112	keystroke_e	e	n/a
308.281	0.075	616562	keystroke_d	d	n/a
308.446	0.075	616892	keystroke_Key.space	Key.space	n/a
308.596	0.075	617192	keystroke_i	i	n/a
308.791	0.06	617582	keystroke_n	n	n/a
308.926	0.09	617852	keystroke_v	v	n/a
309.031	0.06	618062	keystroke_o	o	n/a
309.211	0.06	618422	keystroke_l	l	n/a
309.286	0.075	618572	keystroke_v	v	n/a
309.436	0.075	618872	keystroke_e	e	n/a
309.601	0.0595	619202	keystroke_n	n	n/a
310.0655	0.06	620131	keystroke_Key.backspace	Key.backspace	n/a
310.2905	0.075	620581	keystroke_m	m	n/a
310.441	0.0595	620882	keystroke_e	e	n/a
310.5455	0.075	621091	keystroke_n	n	n/a
310.6655	0.06	621331	keystroke_t	t	n/a
310.9505	0.0605	621901	keystroke_Key.enter	Key.enter	n/a
311.016	7.767	622032	prompt	n/a	nominated thanksgiving maiden reverse\n
311.8505	0.045	623701	keystroke_n	n	n/a
311.9715	0.074	623943	keystroke_o	o	n/a
312.1205	0.075	624241	keystroke_m	m	n/a
312.571	0.06	625142	keystroke_i	i	n/a
312.751	0.06	625502	keystroke_n	n	n/a
312.856	0.09	625712	keystroke_a	a	n/a
313.096	0.075	626192	keystroke_t	t	n/a
313.231	0.075	626462	keystroke_e	e	n/a
313.411	0.09	626822	keystroke_d	d	n/a
313.561	0.105	627122	keystroke_Key.space	Key.space	n/a
314.011	0.075	628022	keystroke_t	t	n/a
314.146	0.06	628292	keystroke_h	h	n/a
314.251	0.076	628502	keystroke_a	a	n/a
314.371	0.0595	628742	keystroke_n	n	n/a
314.5205	0.075	629041	keystroke_k	k	n/a
314.6255	0.0755	629251	keystroke_s	s	n/a
314.866	0.075	629732	keystroke_g	g	n/a
314.956	0.075	629912	keystroke_i	i	n/a
315.091	0.075	630182	keystroke_v	v	n/a
315.181	0.06	630362	keystroke_i	i	n/a
315.346	0.06	630692	keystroke_n	n	n/a
315.421	0.09	630842	keystroke_g	g	n/a
315.571	0.0895	631142	keystroke_Key.space	Key.space	n/a
316.156	0.09	632312	keystroke_m	m	n/a
316.231	0.09	632462	keystroke_a	a	n/a
316.351	0.09	632702	keystroke_i	i	n/a
316.5615	0.105	633123	keystroke_d	d	n/a
316.6515	0.105	633303	keystroke_e	e	n/a
316.8015	0.12	633603	keystroke_n	n	n/a
316.9065	0.09	633813	keystroke_Key.space	Key.space	n/a
317.056	0.105	634112	keystroke_r	r	n/a
317.131	0.1045	634262	keystroke_e	e	n/a
317.7305	0.045	635461	keystroke_v	v	n/a
317.8955	0.12	635791	keystroke_e	e	n/a
317.9855	0.105	635971	keystroke_r	r	n/a
318.2255	0.06	636451	keystroke_s	s	n/a
318.4515	0.015	636903	keystroke_e	e	n/a
318.706	0.075	637412	keystroke_Key.enter	Key.enter	n/a
318.7935	10.9995	637587	prompt	n/a	encyclopedia earnings logitech easter\n
320.101	0.075	640202	keystroke_e	e	n/a
320.251	0.0605	640502	keystroke_n	n	n/a
320.3865	0.1045	640773	keystroke_c	c	n/a
321.136	0.06	642272	keystroke_y	y	n/a
321.586	0.075	643172	keystroke_l	l	n/a
322.306	0.075	644612	keystroke_Key.backspace	Key.backspace	n/a
322.441	0.09	644882	keystroke_c	c	n/a
322.606	0.075	645212	keystroke_l	l	n/a
322.861	0.045	645722	keystroke_o	o	n/a
323.431	0.075	646862	keystroke_p	p	n/a
323.566	0.045	647132	keystroke_e	e	n/a
324.031	0.075	648062	keystroke_d	d	n/a
324.136	0.075	648272	keystroke_i	i	n/a
324.226	0.105	648452	keystroke_a	a	n/a
324.376	0.105	648752	keystroke_Key.space	Key.space	n/a
325.096	0.06	650192	keystroke_e	e	n/a
325.261	0.075	650522	keystroke_a	a	n/a
325.366	0.1045	650732	keystroke_r	r	n/a
325.5605	0.06	651121	keystroke_n	n	n/a
325.6655	0.075	651331	keystroke_i	i	n/a
325.7855	0.075	651571	keystroke_n	n	n/a
325.8755	0.075	651751	keystroke_g	g	n/a
326.0705	0.09	652141	keystroke_s	s	n/a
326.2955	0.06	652591	keystroke_Key.space	Key.space	n/a
326.5055	0.06	653011	keystroke_l	l	n/a
326.6855	0.06	653371	keystroke_o	o	n/a
327.0755	0.075	654151	keystroke_g	g	n/a
327.2105	0.075	654421	keystroke_i	i	n/a
327.4055	0.075	654811	keystroke_t	t	n/a
327.6005	0.075	655201	keystroke_e	e	n/a
327.8405	0.075	655681	keystroke_c	c	n/a
327.9305	0.165	655861	keystroke_h	h	n/a
328.0355	0.1205	656071	keystroke_Key.space	Key.space	n/a
328.456	0.075	656912	keystroke_e	e	n/a
328.6215	0.105	657243	keystroke_a	a	n/a
328.6815	0.135	657363	keystroke_s	s	n/a
329.0415	0.075	658083	keystroke_t	t	n/a
329.1765	0.105	658353	keystroke_e	e	n/a
329.2515	0.135	658503	keystroke_r	r	n/a
329.7155	0.075	659431	keystroke_Key.enter	Key.enter	n/a
329.804	7.6835	659608	prompt	n/a	sherman fraud cams queries\n
330.9015	0.06	661803	keystroke_s	s	n/a
331.051	0.075	662102	keystroke_h	h	n/a
331.096	0.1055	662192	keystroke_e	e	n/a
331.2165	0.0895	662433	keystroke_r	r	n/a
331.396	0.045	662792	keystroke_m	m	n/a
331.4715	0.09	662943	keystroke_a	a	n/a
331.576	0.165	663152	keystroke_n	n	n/a
331.711	0.105	663422	keystroke_Key.space	Key.space	n/a
332.476	0.075	664952	keystroke_f	f	n/a
332.836	0.09	665672	keystroke_r	r	n/a
333.451	0.075	666902	keystroke_a	a	n/a
333.571	0.075	667142	keystroke_u	u	n/a
334.141	0.06	668282	keystroke_d	d	n/a
334.291	0.09	668582	keystroke_Key.space	Key.space	n/a
334.726	0.06	669452	keystroke_c	c	n/a
334.891	0.0895	669782	keystroke_a	a	n/a
334.9655	0.075	669931	keystroke_m	m	n/a
335.1005	0.075	670201	keystroke_s	s	n/a
335.2355	0.06	670471	keystroke_Key.space	Key.space	n/a
336.046	0.075	672092	keystroke_q	q	n/a
336.226	0.06	672452	keystroke_u	u	n/a
336.3305	0.075	672661	keystroke_e	e	n/a
336.6005	0.0755	673201	keystroke_r	r	n/a
336.781	0.045	673562	keystroke_i	i	n/a
336.961	0.075	673922	keystroke_e	e	n/a
337.2005	0.0605	674401	keystroke_s	s	n/a
337.441	0.045	674882	keystroke_Key.enter	Key.enter	n/a
337.4995	8.583	674999	prompt	n/a	representations navigate promise theory\n
338.341	0.105	676682	keystroke_r	r	n/a
338.416	0.105	676832	keystroke_e	e	n/a
338.7155	0.075	677431	keystroke_r	r	n/a
339.0305	0.06	678061	keystroke_Key.backspace	Key.backspace	n/a
339.2105	0.105	678421	keystroke_p	p	n/a
339.3005	0.105	678601	keystroke_r	r	n/a
339.3605	0.105	678721	keystroke_e	e	n/a
339.69	0.076	679380	keystroke_s	s	n/a
339.84	0.061	679680	keystroke_e	e	n/a
340.05	0.061	680100	keystroke_n	n	n/a
340.155	0.061	680310	keystroke_t	t	n/a
340.32	0.06	680640	keystroke_a	a	n/a
340.455	0.06	680910	keystroke_t	t	n/a
340.545	0.06	681090	keystroke_i	i	n/a
340.696	0.059	681392	keystroke_o	o	n/a
340.876	0.059	681752	keystroke_n	n	n/a
340.936	0.074	681872	keystroke_s	s	n/a
341.055	0.075	682110	keystroke_Key.space	Key.space	n/a
341.236	0.074	682472	keystroke_n	n	n/a
341.325	0.045	682650	keystroke_a	a	n/a
341.88	0.06	683760	keystroke_v	v	n/a
342.105	0.045	684210	keystroke_i	i	n/a
342.24	0.075	684480	keystroke_g	g	n/a
342.4505	0.075	684901	keystroke_a	a	n/a
342.6155	0.12	685231	keystroke_t	t	n/a
342.7055	0.09	685411	keystroke_e	e	n/a
342.9005	0.075	685801	keystroke_Key.space	Key.space	n/a
343.3205	0.06	686641	keystroke_p	p	n/a
343.4105	0.09	686821	keystroke_r	r	n/a
343.5305	0.06	687061	keystroke_o	o	n/a
344.1005	0.075	688201	keystroke_m	m	n/a
344.2505	0.06	688501	keystroke_i	i	n/a
344.4755	0.075	688951	keystroke_s	s	n/a
344.6705	0.075	689341	keystroke_e	e	n/a
344.8055	0.09	689611	keystroke_Key.space	Key.space	n/a
344.9405	0.06	689881	keystroke_t	t	n/a
345.0455	0.075	690091	keystroke_h	h	n/a
345.1655	0.09	690331	keystroke_e	e	n/a
345.3305	0.075	690661	keystroke_o	o	n/a
345.4805	0.0605	690961	keystroke_r	r	n/a
345.661	0.074	691322	keystroke_y	y	n/a
345.991	0.089	691982	keystroke_Key.enter	Key.enter	n/a
346.0945	8.583	692189	prompt	n/a	transform charles she'd merchandise\n
346.8005	0.06	693601	keystroke_t	t	n/a
346.9655	0.06	693931	keystroke_r	r	n/a
347.1455	0.0745	694291	keystroke_a	a	n/a
347.2805	0.075	694561	keystroke_n	n	n/a
347.3705	0.06	694741	keystroke_s	s	n/a
347.5505	0.075	695101	keystroke_f	f	n/a
347.6405	0.06	695281	keystroke_o	o	n/a
347.7305	0.075	695461	keystroke_r	r	n/a
347.835	0.105	695670	keystroke_m	m	n/a
348.03	0.075	696060	keystroke_Key.space	Key.space	n/a
348.255	0.09	696510	keystroke_c	c	n/a
348.375	0.0605	696750	keystroke_h	h	n/a
348.5705	0.075	697141	keystroke_a	a	n/a
348.766	0.045	697532	keystroke_r	r	n/a
348.991	0.03	697982	keystroke_l	l	n/a
349.006	0.06	698012	keystroke_e	e	n/a
349.171	0.075	698342	keystroke_s	s	n/a
349.336	0.075	698672	keystroke_Key.space	Key.space	n/a
349.681	0.045	699362	keystroke_s	s	n/a
349.846	0.075	699692	keystroke_h	h	n/a
349.981	0.045	699962	keystroke_e	e	n/a
350.356	0.045	700712	keystroke_'	'	n/a
350.6855	0.075	701371	keystroke_d	d	n/a
351.0005	0.105	702001	keystroke_Key.space	Key.space	n/a
351.3305	0.075	702661	keystroke_m	m	n/a
351.4355	0.06	702871	keystroke_e	e	n/a
351.9455	0.075	703891	keystroke_c	c	n/a
352.2905	0.075	704581	keystroke_Key.backspace	Key.backspace	n/a
352.4255	0.06	704851	keystroke_r	r	n/a
352.6355	0.0895	705271	keystroke_c	c	n/a
352.74	0.06	705480	keystroke_h	h	n/a
352.86	0.09	705720	keystroke_a	a	n/a
353.19	0.075	706380	keystroke_n	n	n/a
353.91	0.09	707820	keystroke_d	d	n/a
354.075	0.075	708150	keystroke_i	i	n/a
354.195	0.09	708390	keystroke_s	s	n/a
354.375	0.06	708750	keystroke_e	e	n/a
354.585	0.09	709170	keystroke_Key.enter	Key.enter	n/a
354.688	8.615	709376	prompt	n/a	backing confidence sales coordinated\n
355.47	0.06	710940	keystroke_c	c	n/a
355.875	0.075	711750	keystroke_Key.backspace	Key.backspace	n/a
356.01	0.061	712020	keystroke_b	b	n/a
356.22	0.045	712440	keystroke_a	a	n/a
356.415	0.105	712830	keystroke_c	c	n/a
356.535	0.075	713070	keystroke_k	k	n/a
356.715	0.06	713430	keystroke_i	i	n/a
356.835	0.09	713670	keystroke_n	n	n/a
356.94	0.03	713880	keystroke_g	g	n/a
357.06	0.045	714120	keystroke_Key.space	Key.space	n/a
357.915	0.09	715830	keystroke_c	c	n/a
358.0355	0.075	716071	keystroke_o	o	n/a
358.2005	0.0895	716401	keystroke_n	n	n/a
358.32	0.06	716640	keystroke_f	f	n/a
358.395	0.06	716790	keystroke_i	i	n/a
358.53	0.105	717060	keystroke_d	d	n/a
358.59	0.105	717180	keystroke_e	e	n/a
358.74	0.075	717480	keystroke_n	n	n/a
359.085	0.18	718170	keystroke_c	c	n/a
359.175	0.135	718350	keystroke_e	e	n/a
359.385	0.09	718770	keystroke_Key.space	Key.space	n/a
359.6405	0.0745	719281	keystroke_s	s	n/a
359.8205	0.075	719641	keystroke_a	a	n/a
359.9255	0.06	719851	keystroke_l	l	n/a
360.0155	0.06	720031	keystroke_e	e	n/a
360.3005	0.075	720601	keystroke_s	s	n/a
360.4805	0.06	720961	keystroke_Key.space	Key.space	n/a
360.825	0.075	721650	keystroke_c	c	n/a
360.96	0.045	721920	keystroke_o	o	n/a
361.08	0.075	722160	keystroke_o	o	n/a
361.215	0.045	722430	keystroke_r	r	n/a
362.1155	0.09	724231	keystroke_d	d	n/a
362.2505	0.075	724501	keystroke_i	i	n/a
362.431	0.06	724862	keystroke_n	n	n/a
362.611	0.06	725222	keystroke_a	a	n/a
362.791	0.105	725582	keystroke_t	t	n/a
362.866	0.105	725732	keystroke_e	e	n/a
363.106	0.09	726212	keystroke_d	d	n/a
363.211	0.09	726422	keystroke_Key.enter	Key.enter	n/a
363.3135	5.0285	726627	prompt	n/a	shelf scene poster partner\n
364.306	0.075	728612	keystroke_s	s	n/a
364.426	0.074	728852	keystroke_h	h	n/a
364.515	0.06	729030	keystroke_e	e	n/a
364.6655	0.0595	729331	keystroke_l	l	n/a
364.755	0.075	729510	keystroke_f	f	n/a
364.86	0.075	729720	keystroke_Key.space	Key.space	n/a
364.9955	0.075	729991	keystroke_s	s	n/a
365.2355	0.045	730471	keystroke_c	c	n/a
365.3405	0.09	730681	keystroke_e	e	n/a
365.5055	0.075	731011	keystroke_n	n	n/a
365.5815	0.074	731163	keystroke_e	e	n/a
365.7305	0.09	731461	keystroke_Key.space	Key.space	n/a
365.9855	0.09	731971	keystroke_p	p	n/a
366.0455	0.12	732091	keystroke_o	o	n/a
366.1655	0.09	732331	keystroke_s	s	n/a
366.406	0.06	732812	keystroke_t	t	n/a
366.541	0.105	733082	keystroke_e	e	n/a
366.601	0.135	733202	keystroke_r	r	n/a
366.826	0.075	733652	keystroke_Key.space	Key.space	n/a
367.021	0.075	734042	keystroke_p	p	n/a
367.35	0.091	734700	keystroke_a	a	n/a
367.501	0.09	735002	keystroke_r	r	n/a
367.695	0.06	735390	keystroke_t	t	n/a
367.83	0.061	735660	keystroke_n	n	n/a
367.905	0.0905	735810	keystroke_e	e	n/a
368.0255	0.09	736051	keystroke_r	r	n/a
368.2655	0.075	736531	keystroke_Key.enter	Key.enter	n/a
368.345	6.327	736690	prompt	n/a	lake armed charleston rescue\n
369.825	0.075	739650	keystroke_l	l	n/a
369.915	0.06	739830	keystroke_a	a	n/a
370.065	0.075	740130	keystroke_k	k	n/a
370.185	0.045	740370	keystroke_e	e	n/a
370.29	0.075	740580	keystroke_Key.space	Key.space	n/a
370.41	0.06	740820	keystroke_a	a	n/a
370.56	0.075	741120	keystroke_r	r	n/a
370.65	0.0905	741300	keystroke_m	m	n/a
370.755	0.105	741510	keystroke_e	e	n/a
370.92	0.105	741840	keystroke_d	d	n/a
371.085	0.105	742170	keystroke_Key.space	Key.space	n/a
371.52	0.075	743040	keystroke_c	c	n/a
371.67	0.075	743340	keystroke_h	h	n/a
371.73	0.075	743460	keystroke_a	a	n/a
371.94	0.075	743880	keystroke_r	r	n/a
372.18	0.03	744360	keystroke_l	l	n/a
372.3	0.045	744600	keystroke_e	e	n/a
372.495	0.075	744990	keystroke_s	s	n/a
372.93	0.075	745860	keystroke_t	t	n/a
373.035	0.075	746070	keystroke_o	o	n/a
373.23	0.15	746460	keystroke_n	n	n/a
373.365	0.105	746730	keystroke_Key.space	Key.space	n/a
373.53	0.12	747060	keystroke_r	r	n/a
373.635	0.105	747270	keystroke_e	e	n/a
373.935	0.075	747870	keystroke_s	s	n/a
374.16	0.09	748320	keystroke_c	c	n/a
374.265	0.045	748530	keystroke_u	u	n/a
374.37	0.09	748740	keystroke_e	e	n/a
374.595	0.075	749190	keystroke_Key.enter	Key.enter	n/a
374.6795	9.9675	749359	prompt	n/a	renaissance nail improvement theology\n
375.9005	0.09	751801	keystroke_r	r	n/a
375.975	0.0305	751950	keystroke_e	e	n/a
376.2155	0.06	752431	keystroke_n	n	n/a
376.3055	0.09	752611	keystroke_a	a	n/a
376.4705	0.06	752941	keystroke_i	i	n/a
378.24	0.045	756480	keystroke_s	s	n/a
378.795	0.06	757590	keystroke_s	s	n/a
379.035	0.075	758070	keystroke_a	a	n/a
379.605	0.06	759210	keystroke_n	n	n/a
379.65	0.165	759300	keystroke_c	c	n/a
379.755	0.105	759510	keystroke_e	e	n/a
379.89	0.09	759780	keystroke_Key.space	Key.space	n/a
380.5055	0.045	761011	keystroke_n	n	n/a
380.5655	0.09	761131	keystroke_a	a	n/a
380.7155	0.06	761431	keystroke_i	i	n/a
380.9105	0.12	761821	keystroke_l	l	n/a
381.0455	0.06	762091	keystroke_Key.space	Key.space	n/a
381.1505	0.075	762301	keystroke_i	i	n/a
381.3455	0.045	762691	keystroke_m	m	n/a
381.4655	0.075	762931	keystroke_p	p	n/a
381.6005	0.06	763201	keystroke_r	r	n/a
381.7205	0.06	763441	keystroke_o	o	n/a
381.8705	0.06	763741	keystroke_v	v	n/a
382.0055	0.09	764011	keystroke_e	e	n/a
382.2005	0.075	764401	keystroke_m	m	n/a
382.3055	0.075	764611	keystroke_e	e	n/a
382.3805	0.075	764761	keystroke_n	n	n/a
382.5305	0.075	765061	keystroke_t	t	n/a
382.6205	0.06	765241	keystroke_Key.space	Key.space	n/a
382.9805	0.09	765961	keystroke_t	t	n/a
383.2355	0.074	766471	keystroke_h	h	n/a
383.3255	0.09	766651	keystroke_e	e	n/a
383.5195	0.061	767039	keystroke_o	o	n/a
383.6995	0.031	767399	keystroke_l	l	n/a
383.8055	0.074	767611	keystroke_o	o	n/a
383.9105	0.09	767821	keystroke_g	g	n/a
384.0445	0.09	768089	keystroke_y	y	n/a
384.555	0.09	769110	keystroke_Key.enter	Key.enter	n/a
384.6575	6.289	769315	prompt	n/a	plasma heaven conduct brand\n
385.41	0.12	770820	keystroke_p	p	n/a
385.47	0.165	770940	keystroke_l	l	n/a
385.605	0.15	771210	keystroke_a	a	n/a
385.71	0.135	771420	keystroke_s	s	n/a
386.1	0.075	772200	keystroke_m	m	n/a
386.205	0.075	772410	keystroke_a	a	n/a
386.355	0.09	772710	keystroke_Key.space	Key.space	n/a
387.405	0.075	774810	keystroke_h	h	n/a
387.45	0.09	774900	keystroke_e	e	n/a
387.585	0.075	775170	keystroke_a	a	n/a
387.675	0.075	775350	keystroke_v	v	n/a
387.825	0.075	775650	keystroke_e	e	n/a
387.945	0.15	775890	keystroke_n	n	n/a
388.065	0.105	776130	keystroke_Key.space	Key.space	n/a
388.5305	0.09	777061	keystroke_c	c	n/a
388.6055	0.06	777211	keystroke_o	o	n/a
388.7555	0.075	777511	keystroke_n	n	n/a
388.8905	0.06	777781	keystroke_d	d	n/a
389.0105	0.06	778021	keystroke_u	u	n/a
389.115	0.09	778230	keystroke_c	c	n/a
389.31	0.09	778620	keystroke_t	t	n/a
389.46	0.0905	778920	keystroke_Key.space	Key.space	n/a
390.1655	0.105	780331	keystroke_b	b	n/a
390.2855	0.045	780571	keystroke_r	r	n/a
390.4655	0.06	780931	keystroke_a	a	n/a
390.5105	0.075	781021	keystroke_n	n	n/a
390.6755	0.105	781351	keystroke_d	d	n/a
390.87	0.075	781740	keystroke_Key.enter	Key.enter	n/a
390.951	8.5315	781902	prompt	n/a	rangers suffered cornwall host\n
391.7705	0.09	783541	keystroke_r	r	n/a
391.9655	0.074	783931	keystroke_a	a	n/a
392.0995	0.075	784199	keystroke_n	n	n/a
392.415	0.0595	784830	keystroke_g	g	n/a
392.4895	0.105	784979	keystroke_e	e	n/a
392.6095	0.09	785219	keystroke_r	r	n/a
392.8195	0.09	785639	keystroke_s	s	n/a
392.9695	0.075	785939	keystroke_Key.space	Key.space	n/a
393.4645	0.075	786929	keystroke_s	s	n/a
393.66	0.0605	787320	keystroke_u	u	n/a
393.7805	0.044	787561	keystroke_d	d	n/a
393.9445	0.045	787889	keystroke_f	f	n/a
394.2595	0.06	788519	keystroke_Key.backspace	Key.backspace	n/a
395.07	0.075	790140	keystroke_Key.backspace	Key.backspace	n/a
395.8805	0.06	791761	keystroke_f	f	n/a
396.0455	0.06	792091	keystroke_f	f	n/a
396.1355	0.105	792271	keystroke_e	e	n/a
396.2105	0.15	792421	keystroke_r	r	n/a
396.3155	0.09	792631	keystroke_e	e	n/a
396.525	0.1055	793050	keystroke_d	d	n/a
396.7355	0.105	793471	keystroke_Key.space	Key.space	n/a
397.05	0.0755	794100	keystroke_c	c	n/a
397.1705	0.09	794341	keystroke_o	o	n/a
397.2755	0.0595	794551	keystroke_r	r	n/a
397.44	0.0605	794880	keystroke_n	n	n/a
397.6355	0.06	795271	keystroke_a	a	n/a
397.9205	0.045	795841	keystroke_Key.backspace	Key.backspace	n/a
397.9805	0.12	795961	keystroke_w	w	n/a
398.0405	0.105	796081	keystroke_a	a	n/a
398.2055	0.045	796411	keystroke_l	l	n/a
398.3105	0.075	796621	keystroke_l	l	n/a
398.505	0.09	797010	keystroke_Key.space	Key.space	n/a
398.88	0.075	797760	keystroke_h	h	n/a
399.03	0.09	798060	keystroke_o	o	n/a
399.075	0.075	798150	keystroke_s	s	n/a
399.27	0.075	798540	keystroke_t	t	n/a
399.39	0.09	798780	keystroke_Key.enter	Key.enter	n/a
399.493	5.7485	798986	prompt	n/a	affair desire bryan backing\n
400.155	0.045	800310	keystroke_a	a	n/a
400.32	0.0745	800640	keystroke_f	f	n/a
400.4695	0.045	800939	keystroke_f	f	n/a
400.5455	0.104	801091	keystroke_a	a	n/a
400.725	0.075	801450	keystroke_i	i	n/a
400.83	0.075	801660	keystroke_r	r	n/a
400.935	0.12	801870	keystroke_Key.space	Key.space	n/a
401.28	0.12	802560	keystroke_d	d	n/a
401.355	0.105	802710	keystroke_e	e	n/a
401.58	0.06	803160	keystroke_s	s	n/a
401.715	0.075	803430	keystroke_i	i	n/a
401.835	0.09	803670	keystroke_r	r	n/a
401.97	0.09	803940	keystroke_e	e	n/a
402.12	0.075	804240	keystroke_Key.space	Key.space	n/a
403.1405	0.06	806281	keystroke_b	b	n/a
403.2305	0.075	806461	keystroke_r	r	n/a
403.3955	0.06	806791	keystroke_y	y	n/a
403.5305	0.09	807061	keystroke_a	a	n/a
403.6505	0.18	807301	keystroke_n	n	n/a
403.7555	0.105	807511	keystroke_Key.space	Key.space	n/a
404.2205	0.06	808441	keystroke_b	b	n/a
404.3405	0.0745	808681	keystroke_a	a	n/a
404.5055	0.105	809011	keystroke_c	c	n/a
404.7455	0.06	809491	keystroke_i	i	n/a
404.8955	0.06	809791	keystroke_n	n	n/a
404.9855	0.06	809971	keystroke_g	g	n/a
405.1655	0.075	810331	keystroke_Key.enter	Key.enter	n/a
405.245	8.037	810490	prompt	n/a	concentration sweden predicted ebook\n
406.1855	0.075	812371	keystroke_c	c	n/a
406.2895	0.031	812579	keystroke_o	o	n/a
406.4245	0.076	812849	keystroke_n	n	n/a
406.5145	0.12	813029	keystroke_c	c	n/a
406.5905	0.09	813181	keystroke_e	e	n/a
406.7545	0.075	813509	keystroke_n	n	n/a
406.9495	0.06	813899	keystroke_t	t	n/a
407.1145	0.046	814229	keystroke_r	r	n/a
407.3095	0.045	814619	keystroke_a	a	n/a
407.4145	0.09	814829	keystroke_t	t	n/a
407.5345	0.06	815069	keystroke_i	i	n/a
407.6695	0.06	815339	keystroke_o	o	n/a
407.8495	0.105	815699	keystroke_n	n	n/a
407.9395	0.09	815879	keystroke_Key.space	Key.space	n/a
408.4495	0.045	816899	keystroke_s	s	n/a
408.6145	0.075	817229	keystroke_w	w	n/a
408.7795	0.06	817559	keystroke_e	e	n/a
408.9595	0.075	817919	keystroke_d	d	n/a
409.1395	0.045	818279	keystroke_e	e	n/a
409.3495	0.06	818699	keystroke_n	n	n/a
409.71	0.0145	819420	keystroke_Key.space	Key.space	n/a
409.7845	0.03	819569	keystroke_Key.space	Key.space	n/a
410.0695	0.06	820139	keystroke_p	p	n/a
410.1595	0.135	820319	keystroke_r	r	n/a
410.2645	0.105	820529	keystroke_e	e	n/a
410.895	0.06	821790	keystroke_d	d	n/a
411.03	0.06	822060	keystroke_i	i	n/a
411.105	0.075	822210	keystroke_c	c	n/a
411.3	0.06	822600	keystroke_t	t	n/a
411.45	0.06	822900	keystroke_e	e	n/a
411.6	0.09	823200	keystroke_d	d	n/a
411.75	0.09	823500	keystroke_Key.space	Key.space	n/a
411.855	0.09	823710	keystroke_e	e	n/a
412.38	0.045	824760	keystroke_b	b	n/a
412.5295	0.045	825059	keystroke_o	o	n/a
412.7845	0.045	825569	keystroke_o	o	n/a
412.9495	0.09	825899	keystroke_k	k	n/a
413.2045	0.075	826409	keystroke_Key.enter	Key.enter	n/a
413.295	8.6715	826590	prompt	n/a	contact lesson hypothetical decade\n
414.0605	0.059	828121	keystroke_c	c	n/a
414.2095	0.061	828419	keystroke_o	o	n/a
414.3745	0.06	828749	keystroke_n	n	n/a
415.0195	0.06	830039	keystroke_t	t	n/a
415.1845	0.06	830369	keystroke_a	a	n/a
415.3495	0.0755	830699	keystroke_c	c	n/a
415.545	0.06	831090	keystroke_t	t	n/a
415.665	0.075	831330	keystroke_Key.space	Key.space	n/a
415.9045	0.075	831809	keystroke_e	e	n/a
416.2345	0.075	832469	keystroke_Key.backspace	Key.backspace	n/a
416.4745	0.03	832949	keystroke_l	l	n/a
416.5495	0.075	833099	keystroke_e	e	n/a
416.7595	0.075	833519	keystroke_s	s	n/a
416.9245	0.075	833849	keystroke_s	s	n/a
417.5995	0.06	835199	keystroke_o	o	n/a
417.7645	0.135	835529	keystroke_n	n	n/a
417.8845	0.075	835769	keystroke_Key.space	Key.space	n/a
418.0495	0.045	836099	keystroke_h	h	n/a
418.1845	0.045	836369	keystroke_y	y	n/a
418.4095	0.075	836819	keystroke_p	p	n/a
418.5745	0.0745	837149	keystroke_o	o	n/a
418.7395	0.045	837479	keystroke_t	t	n/a
418.9645	0.06	837929	keystroke_h	h	n/a
419.0695	0.045	838139	keystroke_e	e	n/a
419.3545	0.075	838709	keystroke_t	t	n/a
419.4895	0.06	838979	keystroke_i	i	n/a
419.775	0.015	839550	keystroke_c	c	n/a
420.27	0.0595	840540	keystroke_a	a	n/a
420.4045	0.18	840809	keystroke_l	l	n/a
420.5395	0.105	841079	keystroke_Key.space	Key.space	n/a
420.7795	0.136	841559	keystroke_d	d	n/a
420.8845	0.105	841769	keystroke_e	e	n/a
421.1855	0.059	842371	keystroke_c	c	n/a
421.3345	0.075	842669	keystroke_a	a	n/a
421.5005	0.119	843001	keystroke_d	d	n/a
421.5895	0.09	843179	keystroke_e	e	n/a
421.9045	0.06	843809	keystroke_Key.enter	Key.enter	n/a
421.9775	6.0035	843955	prompt	n/a	abroad exhaust replied speaker\n
422.6095	0.075	845219	keystroke_a	a	n/a
422.8795	0.06	845759	keystroke_b	b	n/a
422.9695	0.09	845939	keystroke_r	r	n/a
423.1195	0.06	846239	keystroke_o	o	n/a
423.2245	0.06	846449	keystroke_a	a	n/a
423.3295	0.12	846659	keystroke_d	d	n/a
423.4645	0.09	846929	keystroke_Key.space	Key.space	n/a
423.615	0.09	847230	keystroke_e	e	n/a
423.885	0.075	847770	keystroke_x	x	n/a
424.035	0.06	848070	keystroke_h	h	n/a
424.11	0.075	848220	keystroke_a	a	n/a
424.26	0.06	848520	keystroke_u	u	n/a
424.4695	0.09	848939	keystroke_s	s	n/a
424.6945	0.06	849389	keystroke_t	t	n/a
424.7845	0.09	849569	keystroke_Key.space	Key.space	n/a
425.3545	0.09	850709	keystroke_r	r	n/a
425.4145	0.105	850829	keystroke_e	e	n/a
425.61	0.0595	851220	keystroke_p	p	n/a
425.97	0.075	851940	keystroke_l	l	n/a
426.15	0.075	852300	keystroke_i	i	n/a
426.3	0.045	852600	keystroke_e	e	n/a
426.48	0.09	852960	keystroke_d	d	n/a
426.645	0.09	853290	keystroke_Key.space	Key.space	n/a
426.96	0.045	853920	keystroke_s	s	n/a
427.11	0.06	854220	keystroke_p	p	n/a
427.185	0.075	854370	keystroke_e	e	n/a
427.335	0.09	854670	keystroke_a	a	n/a
427.44	0.06	854880	keystroke_k	k	n/a
427.59	0.12	855180	keystroke_e	e	n/a
427.68	0.12	855360	keystroke_r	r	n/a
427.905	0.075	855810	keystroke_Key.enter	Key.enter	n/a
427.984	9.3875	855968	prompt	n/a	temperature precipitation asks andorra\n
428.9695	0.06	857939	keystroke_t	t	n/a
429.0595	0.075	858119	keystroke_e	e	n/a
429.1795	0.075	858359	keystroke_m	m	n/a
429.3445	0.09	858689	keystroke_o	o	n/a
429.4645	0.09	858929	keystroke_e	e	n/a
429.4945	0.135	858989	keystroke_r	r	n/a
429.75	0.09	859500	keystroke_a	a	n/a
430.035	0.06	860070	keystroke_t	t	n/a
430.17	0.06	860340	keystroke_u	u	n/a
430.26	0.12	860520	keystroke_r	r	n/a
430.335	0.105	860670	keystroke_e	e	n/a
430.515	0.0895	861030	keystroke_Key.space	Key.space	n/a
430.92	0.06	861840	keystroke_p	p	n/a
430.995	0.1045	861990	keystroke_r	r	n/a
431.0845	0.075	862169	keystroke_e	e	n/a
431.5195	0.075	863039	keystroke_c	c	n/a
431.6395	0.045	863279	keystroke_i	i	n/a
431.835	0.075	863670	keystroke_p	p	n/a
432.045	0.075	864090	keystroke_i	i	n/a
432.4205	0.059	864841	keystroke_t	t	n/a
432.7195	0.075	865439	keystroke_a	a	n/a
432.9295	0.075	865859	keystroke_t	t	n/a
433.0195	0.06	866039	keystroke_i	i	n/a
433.17	0.075	866340	keystroke_o	o	n/a
433.38	0.119	866760	keystroke_n	n	n/a
433.514	0.09	867028	keystroke_Key.space	Key.space	n/a
433.8445	0.1355	867689	keystroke_a	a	n/a
433.9345	0.1205	867869	keystroke_s	s	n/a
434.175	0.0745	868350	keystroke_k	k	n/a
434.309	0.09	868618	keystroke_s	s	n/a
434.444	0.105	868888	keystroke_Key.space	Key.space	n/a
434.789	0.09	869578	keystroke_a	a	n/a
435.375	0.075	870750	keystroke_n	n	n/a
435.4945	0.075	870989	keystroke_d	d	n/a
435.6595	0.0755	871319	keystroke_o	o	n/a
435.885	0.075	871770	keystroke_o	o	n/a
436.365	0.0745	872730	keystroke_Key.backspace	Key.backspace	n/a
436.5145	0.075	873029	keystroke_r	r	n/a
436.6945	0.06	873389	keystroke_r	r	n/a
436.9045	0.045	873809	keystroke_a	a	n/a
437.265	0.105	874530	keystroke_Key.enter	Key.enter	n/a
437.382	5.7505	874764	prompt	n/a	people hong county how'd\n
438.585	0.06	877170	keystroke_p	p	n/a
438.72	0.075	877440	keystroke_e	e	n/a
438.78	0.06	877560	keystroke_o	o	n/a
438.915	0.06	877830	keystroke_p	p	n/a
439.065	0.06	878130	keystroke_l	l	n/a
439.185	0.075	878370	keystroke_e	e	n/a
439.335	0.1045	878670	keystroke_Key.space	Key.space	n/a
439.9195	0.046	879839	keystroke_h	h	n/a
440.0395	0.075	880079	keystroke_o	o	n/a
440.1895	0.09	880379	keystroke_n	n	n/a
440.3395	0.06	880679	keystroke_g	g	n/a
440.4145	0.0905	880829	keystroke_Key.space	Key.space	n/a
440.64	0.09	881280	keystroke_c	c	n/a
440.715	0.105	881430	keystroke_o	o	n/a
440.775	0.075	881550	keystroke_u	u	n/a
440.955	0.105	881910	keystroke_n	n	n/a
441.105	0.075	882210	keystroke_t	t	n/a
441.285	0.15	882570	keystroke_y	y	n/a
441.36	0.18	882720	keystroke_Key.space	Key.space	n/a
441.69	0.075	883380	keystroke_h	h	n/a
441.885	0.075	883770	keystroke_o	o	n/a
442.005	0.075	884010	keystroke_w	w	n/a
442.4245	0.075	884849	keystroke_'	'	n/a
442.5145	0.09	885029	keystroke_d	d	n/a
442.7555	0.075	885511	keystroke_Key.space	Key.space	n/a
443.0405	0.09	886081	keystroke_Key.enter	Key.enter	n/a
443.1355	6.957	886271	prompt	n/a	commentary managers checks bahamas\n
443.9855	0.059	887971	keystroke_c	c	n/a
444.0595	0.06	888119	keystroke_o	o	n/a
444.2245	0.0455	888449	keystroke_m	m	n/a
444.3595	0.0455	888719	keystroke_m	m	n/a
444.435	0.06	888870	keystroke_e	e	n/a
444.54	0.075	889080	keystroke_n	n	n/a
444.705	0.03	889410	keystroke_t	t	n/a
444.84	0.075	889680	keystroke_a	a	n/a
444.975	0.075	889950	keystroke_r	r	n/a
445.11	0.135	890220	keystroke_y	y	n/a
445.185	0.135	890370	keystroke_Key.space	Key.space	n/a
445.6495	0.076	891299	keystroke_m	m	n/a
445.7405	0.075	891481	keystroke_a	a	n/a
445.8755	0.06	891751	keystroke_n	n	n/a
445.95	0.0905	891900	keystroke_a	a	n/a
446.1905	0.045	892381	keystroke_g	g	n/a
446.2805	0.135	892561	keystroke_e	e	n/a
446.3855	0.1045	892771	keystroke_r	r	n/a
446.58	0.09	893160	keystroke_s	s	n/a
446.76	0.06	893520	keystroke_Key.space	Key.space	n/a
447.0905	0.06	894181	keystroke_c	c	n/a
447.2105	0.075	894421	keystroke_h	h	n/a
447.3305	0.015	894661	keystroke_e	e	n/a
447.4505	0.105	894901	keystroke_c	c	n/a
447.6005	0.075	895201	keystroke_k	k	n/a
447.7805	0.075	895561	keystroke_s	s	n/a
447.9155	0.06	895831	keystroke_Key.space	Key.space	n/a
448.7705	0.06	897541	keystroke_b	b	n/a
448.8455	0.09	897691	keystroke_a	a	n/a
448.9655	0.075	897931	keystroke_h	h	n/a
449.0705	0.075	898141	keystroke_a	a	n/a
449.2805	0.075	898561	keystroke_m	m	n/a
449.3705	0.12	898741	keystroke_a	a	n/a
449.671	0.09	899342	keystroke_s	s	n/a
450.016	0.075	900032	keystroke_Key.enter	Key.enter	n/a
450.098	8.8905	900196	prompt	n/a	everything accreditation harmful average\n
451.081	0.045	902162	keystroke_e	e	n/a
451.186	0.075	902372	keystroke_v	v	n/a
451.351	0.09	902702	keystroke_e	e	n/a
451.396	0.12	902792	keystroke_r	r	n/a
451.591	0.06	903182	keystroke_y	y	n/a
451.696	0.06	903392	keystroke_t	t	n/a
451.771	0.06	903542	keystroke_h	h	n/a
451.891	0.06	903782	keystroke_i	i	n/a
452.011	0.075	904022	keystroke_n	n	n/a
452.101	0.075	904202	keystroke_g	g	n/a
452.236	0.0755	904472	keystroke_Key.space	Key.space	n/a
452.4315	0.075	904863	keystroke_a	a	n/a
452.6265	0.09	905253	keystroke_c	c	n/a
452.7765	0.0895	905553	keystroke_c	c	n/a
453.121	0.12	906242	keystroke_r	r	n/a
453.211	0.105	906422	keystroke_e	e	n/a
453.466	0.075	906932	keystroke_d	d	n/a
453.5855	0.06	907171	keystroke_i	i	n/a
453.796	0.045	907592	keystroke_t	t	n/a
453.931	0.0895	907862	keystroke_a	a	n/a
454.1105	0.076	908221	keystroke_t	t	n/a
454.3805	0.046	908761	keystroke_i	i	n/a
454.8015	0.06	909603	keystroke_o	o	n/a
455.0565	0.15	910113	keystroke_n	n	n/a
455.1765	0.12	910353	keystroke_Key.space	Key.space	n/a
455.866	0.09	911732	keystroke_h	h	n/a
455.971	0.015	911942	keystroke_a	a	n/a
456.076	0.06	912152	keystroke_r	r	n/a
456.137	0.074	912274	keystroke_m	m	n/a
456.361	0.045	912722	keystroke_f	f	n/a
456.4365	0.075	912873	keystroke_u	u	n/a
456.6315	0.165	913263	keystroke_l	l	n/a
456.7215	0.12	913443	keystroke_Key.space	Key.space	n/a
457.0665	0.09	914133	keystroke_a	a	n/a
457.472	0.06	914944	keystroke_v	v	n/a
457.652	0.104	915304	keystroke_e	e	n/a
457.696	0.12	915392	keystroke_r	r	n/a
457.967	0.044	915934	keystroke_a	a	n/a
458.161	0.075	916322	keystroke_g	g	n/a
458.326	0.06	916652	keystroke_e	e	n/a
458.896	0.09	917792	keystroke_Key.enter	Key.enter	n/a
458.9995	5.704	917999	prompt	n/a	prison mixing rather donna\n
459.872	0.075	919744	keystroke_p	p	n/a
460.232	0.045	920464	keystroke_r	r	n/a
460.322	0.075	920644	keystroke_i	i	n/a
460.426	0.091	920852	keystroke_s	s	n/a
460.652	0.06	921304	keystroke_o	o	n/a
460.817	0.1345	921634	keystroke_n	n	n/a
460.9365	0.09	921873	keystroke_Key.space	Key.space	n/a
461.162	0.075	922324	keystroke_m	m	n/a
461.2965	0.0755	922593	keystroke_i	i	n/a
461.717	0.0745	923434	keystroke_x	x	n/a
461.8065	0.06	923613	keystroke_i	i	n/a
461.9265	0.09	923853	keystroke_n	n	n/a
462.0615	0.09	924123	keystroke_g	g	n/a
462.1665	0.105	924333	keystroke_Key.space	Key.space	n/a
462.6925	0.06	925385	keystroke_r	r	n/a
462.8125	0.06	925625	keystroke_a	a	n/a
463.022	0.06	926044	keystroke_t	t	n/a
463.112	0.045	926224	keystroke_h	h	n/a
463.187	0.09	926374	keystroke_e	e	n/a
463.247	0.12	926494	keystroke_r	r	n/a
463.412	0.09	926824	keystroke_Key.space	Key.space	n/a
463.922	0.075	927844	keystroke_d	d	n/a
464.012	0.075	928024	keystroke_o	o	n/a
464.207	0.045	928414	keystroke_n	n	n/a
464.342	0.06	928684	keystroke_n	n	n/a
464.417	0.105	928834	keystroke_a	a	n/a
464.6265	0.075	929253	keystroke_Key.enter	Key.enter	n/a
464.7085	6.791	929417	prompt	n/a	seeking wise mazda copper\n
465.437	0.0745	930874	keystroke_s	s	n/a
465.617	0.0445	931234	keystroke_e	e	n/a
465.737	0.075	931474	keystroke_e	e	n/a
465.8275	0.075	931655	keystroke_k	k	n/a
465.9775	0.06	931955	keystroke_i	i	n/a
466.1425	0.06	932285	keystroke_n	n	n/a
466.2475	0.03	932495	keystroke_g	g	n/a
466.3225	0.075	932645	keystroke_Key.space	Key.space	n/a
466.637	0.075	933274	keystroke_w	w	n/a
466.742	0.045	933484	keystroke_i	i	n/a
466.922	0.09	933844	keystroke_s	s	n/a
467.102	0.06	934204	keystroke_e	e	n/a
467.267	0.045	934534	keystroke_Key.space	Key.space	n/a
467.627	0.045	935254	keystroke_m	m	n/a
467.673	0.104	935346	keystroke_a	a	n/a
468.108	0.074	936216	keystroke_z	z	n/a
468.407	0.105	936814	keystroke_d	d	n/a
468.482	0.12	936964	keystroke_a	a	n/a
468.887	0.075	937774	keystroke_Key.space	Key.space	n/a
469.232	0.075	938464	keystroke_c	c	n/a
469.322	0.045	938644	keystroke_o	o	n/a
469.457	0.06	938914	keystroke_o	o	n/a
469.623	0.059	939246	keystroke_p	p	n/a
470.102	0.06	940204	keystroke_Key.backspace	Key.backspace	n/a
470.297	0.06	940594	keystroke_Key.backspace	Key.backspace	n/a
470.672	0.09	941344	keystroke_p	p	n/a
470.852	0.0755	941704	keystroke_p	p	n/a
471.0175	0.12	942035	keystroke_e	e	n/a
471.0925	0.12	942185	keystroke_r	r	n/a
471.4225	0.075	942845	keystroke_Key.enter	Key.enter	n/a
471.51	8.15	943020	prompt	n/a	diagnostic voltage bluetooth begun\n
472.4575	0.075	944915	keystroke_d	d	n/a
472.5925	0.075	945185	keystroke_i	i	n/a
472.6525	0.09	945305	keystroke_a	a	n/a
472.9075	0.06	945815	keystroke_g	g	n/a
473.0275	0.075	946055	keystroke_n	n	n/a
473.2075	0.06	946415	keystroke_o	o	n/a
473.4025	0.09	946805	keystroke_s	s	n/a
473.5975	0.075	947195	keystroke_t	t	n/a
473.7175	0.075	947435	keystroke_i	i	n/a
473.9125	0.105	947825	keystroke_c	c	n/a
474.0625	0.09	948125	keystroke_Key.space	Key.space	n/a
474.797	0.076	949594	keystroke_v	v	n/a
474.902	0.06	949804	keystroke_o	o	n/a
475.053	0.0745	950106	keystroke_l	l	n/a
475.2325	0.03	950465	keystroke_t	t	n/a
475.3675	0.075	950735	keystroke_a	a	n/a
475.5175	0.06	951035	keystroke_g	g	n/a
475.6075	0.075	951215	keystroke_e	e	n/a
475.7125	0.105	951425	keystroke_Key.space	Key.space	n/a
476.4775	0.075	952955	keystroke_b	b	n/a
476.5975	0.06	953195	keystroke_l	l	n/a
476.7625	0.075	953525	keystroke_u	u	n/a
476.9425	0.015	953885	keystroke_e	e	n/a
477.1675	0.075	954335	keystroke_t	t	n/a
477.3175	0.045	954635	keystroke_o	o	n/a
477.9325	0.06	955865	keystroke_o	o	n/a
478.0675	0.06	956135	keystroke_t	t	n/a
478.2025	0.135	956405	keystroke_h	h	n/a
478.3385	0.104	956677	keystroke_Key.space	Key.space	n/a
478.7275	0.075	957455	keystroke_b	b	n/a
478.7875	0.075	957575	keystroke_e	e	n/a
478.9675	0.06	957935	keystroke_g	g	n/a
479.1625	0.075	958325	keystroke_u	u	n/a
479.3275	0.075	958655	keystroke_n	n	n/a
479.583	0.075	959166	keystroke_Key.enter	Key.enter	n/a
479.6705	5.1485	959341	prompt	n/a	breakdown circle accounts train\n
480.6625	0.045	961325	keystroke_b	b	n/a
480.7225	0.091	961445	keystroke_r	r	n/a
480.7675	0.0905	961535	keystroke_e	e	n/a
480.9485	0.06	961897	keystroke_a	a	n/a
481.0385	0.06	962077	keystroke_k	k	n/a
481.233	0.075	962466	keystroke_d	d	n/a
481.338	0.06	962676	keystroke_o	o	n/a
481.443	0.045	962886	keystroke_w	w	n/a
481.5335	0.1345	963067	keystroke_n	n	n/a
481.653	0.105	963306	keystroke_Key.space	Key.space	n/a
481.968	0.09	963936	keystroke_c	c	n/a
482.133	0.06	964266	keystroke_i	i	n/a
482.238	0.06	964476	keystroke_r	r	n/a
482.403	0.09	964806	keystroke_c	c	n/a
482.553	0.075	965106	keystroke_l	l	n/a
482.643	0.06	965286	keystroke_e	e	n/a
482.733	0.075	965466	keystroke_Key.space	Key.space	n/a
482.823	0.075	965646	keystroke_a	a	n/a
482.988	0.09	965976	keystroke_c	c	n/a
483.138	0.105	966276	keystroke_c	c	n/a
483.258	0.09	966516	keystroke_o	o	n/a
483.318	0.075	966636	keystroke_u	u	n/a
483.483	0.09	966966	keystroke_n	n	n/a
483.558	0.0605	967116	keystroke_t	t	n/a
483.6935	0.09	967387	keystroke_s	s	n/a
483.8275	0.076	967655	keystroke_Key.space	Key.space	n/a
483.9185	0.075	967837	keystroke_t	t	n/a
484.0985	0.075	968197	keystroke_r	r	n/a
484.2935	0.075	968587	keystroke_a	a	n/a
484.4135	0.06	968827	keystroke_i	i	n/a
484.5335	0.075	969067	keystroke_n	n	n/a
484.7435	0.074	969487	keystroke_Key.enter	Key.enter	n/a
484.8255	7.524	969651	prompt	n/a	textile browsers jake enjoying\n
485.5235	0.074	971047	keystroke_t	t	n/a
485.643	0.06	971286	keystroke_e	e	n/a
485.928	0.03	971856	keystroke_c	c	n/a
486.213	0.06	972426	keystroke_Key.backspace	Key.backspace	n/a
486.288	0.06	972576	keystroke_x	x	n/a
486.768	0.09	973536	keystroke_t	t	n/a
487.2185	0.06	974437	keystroke_i	i	n/a
487.3985	0.09	974797	keystroke_l	l	n/a
487.5035	0.0745	975007	keystroke_e	e	n/a
487.638	0.105	975276	keystroke_Key.space	Key.space	n/a
488.328	0.045	976656	keystroke_b	b	n/a
488.403	0.075	976806	keystroke_r	r	n/a
488.508	0.075	977016	keystroke_o	o	n/a
488.6575	0.06	977315	keystroke_w	w	n/a
489.3625	0.061	978725	keystroke_s	s	n/a
489.5725	0.045	979145	keystroke_e	e	n/a
489.648	0.075	979296	keystroke_r	r	n/a
489.843	0.075	979686	keystroke_s	s	n/a
490.083	0.06	980166	keystroke_Key.space	Key.space	n/a
490.473	0.06	980946	keystroke_j	j	n/a
490.533	0.075	981066	keystroke_a	a	n/a
490.698	0.06	981396	keystroke_k	k	n/a
490.773	0.06	981546	keystroke_e	e	n/a
490.893	0.075	981786	keystroke_Key.space	Key.space	n/a
490.998	0.09	981996	keystroke_e	e	n/a
491.118	0.09	982236	keystroke_n	n	n/a
491.328	0.06	982656	keystroke_j	j	n/a
491.448	0.06	982896	keystroke_o	o	n/a
491.583	0.075	983166	keystroke_y	y	n/a
491.748	0.06	983496	keystroke_i	i	n/a
491.868	0.09	983736	keystroke_n	n	n/a
491.973	0.075	983946	keystroke_g	g	n/a
492.063	0.09	984126	keystroke_Key.space	Key.space	n/a
492.273	0.075	984546	keystroke_Key.enter	Key.enter	n/a
492.3605	7.759	984721	prompt	n/a	crossword share either corporation\n
493.083	0.045	986166	keystroke_c	c	n/a
493.248	0.06	986496	keystroke_r	r	n/a
493.368	0.06	986736	keystroke_o	o	n/a
493.458	0.075	986916	keystroke_s	s	n/a
493.608	0.075	987216	keystroke_s	s	n/a
493.848	0.075	987696	keystroke_w	w	n/a
494.043	0.06	988086	keystroke_o	o	n/a
494.223	0.06	988446	keystroke_r	r	n/a
494.433	0.045	988866	keystroke_d	d	n/a
494.537	0.105	989074	keystroke_Key.space	Key.space	n/a
494.793	0.06	989586	keystroke_s	s	n/a
494.897	0.075	989794	keystroke_h	h	n/a
495.138	0.059	990276	keystroke_a	a	n/a
495.302	0.09	990604	keystroke_r	r	n/a
495.332	0.105	990664	keystroke_e	e	n/a
495.467	0.105	990934	keystroke_Key.space	Key.space	n/a
495.603	0.09	991206	keystroke_e	e	n/a
495.723	0.06	991446	keystroke_i	i	n/a
495.827	0.075	991654	keystroke_t	t	n/a
495.932	0.06	991864	keystroke_h	h	n/a
496.052	0.09	992104	keystroke_e	e	n/a
496.097	0.165	992194	keystroke_r	r	n/a
496.277	0.045	992554	keystroke_Key.space	Key.space	n/a
496.577	0.106	993154	keystroke_c	c	n/a
496.698	0.075	993396	keystroke_o	o	n/a
496.8925	0.075	993785	keystroke_r	r	n/a
497.0725	0.045	994145	keystroke_p	p	n/a
497.2675	0.075	994535	keystroke_o	o	n/a
497.4025	0.09	994805	keystroke_r	r	n/a
497.6575	0.075	995315	keystroke_t	t	n/a
498.0775	0.06	996155	keystroke_Key.backspace	Key.backspace	n/a
498.1525	0.0595	996305	keystroke_a	a	n/a
498.3325	0.075	996665	keystroke_t	t	n/a
498.4085	0.059	996817	keystroke_i	i	n/a
498.5275	0.075	997055	keystroke_o	o	n/a
498.6925	0.075	997385	keystroke_n	n	n/a
498.9325	0.075	997865	keystroke_'	'	n/a
499.832	0.045	999664	keystroke_Key.backspace	Key.backspace	n/a
500.042	0.075	1000084	keystroke_Key.enter	Key.enter	n/a
500.1295	7.5945	1000259	prompt	n/a	lounge skill contractor that'll\n
501.137	0.015	1002274	keystroke_l	l	n/a
501.182	0.06	1002364	keystroke_o	o	n/a
501.317	0.075	1002634	keystroke_u	u	n/a
501.497	0.0755	1002994	keystroke_n	n	n/a
501.7225	0.06	1003445	keystroke_g	g	n/a
501.8275	0.075	1003655	keystroke_e	e	n/a
501.9475	0.105	1003895	keystroke_Key.space	Key.space	n/a
502.0975	0.09	1004195	keystroke_s	s	n/a
502.2175	0.045	1004435	keystroke_k	k	n/a
502.3525	0.06	1004705	keystroke_i	i	n/a
502.6675	0.075	1005335	keystroke_l	l	n/a
502.8175	0.09	1005635	keystroke_l	l	n/a
503.0275	0.075	1006055	keystroke_Key.space	Key.space	n/a
503.3275	0.075	1006655	keystroke_c	c	n/a
503.4175	0.06	1006835	keystroke_o	o	n/a
503.5975	0.06	1007195	keystroke_n	n	n/a
503.7475	0.045	1007495	keystroke_t	t	n/a
503.8825	0.06	1007765	keystroke_r	r	n/a
504.048	0.075	1008096	keystroke_a	a	n/a
504.213	0.09	1008426	keystroke_c	c	n/a
504.438	0.06	1008876	keystroke_t	t	n/a
504.798	0.075	1009596	keystroke_o	o	n/a
505.203	0.06	1010406	keystroke_r	r	n/a
505.337	0.075	1010674	keystroke_Key.space	Key.space	n/a
506.057	0.06	1012114	keystroke_t	t	n/a
506.162	0.06	1012324	keystroke_h	h	n/a
506.252	0.075	1012504	keystroke_a	a	n/a
506.402	0.09	1012804	keystroke_t	t	n/a
507.032	0.075	1014064	keystroke_'	'	n/a
507.287	0.06	1014574	keystroke_l	l	n/a
507.437	0.06	1014874	keystroke_l	l	n/a
507.662	0.06	1015324	keystroke_Key.enter	Key.enter	n/a
507.727	5.1265	1015454	prompt	n/a	austin pain new noise\n
508.457	0.075	1016914	keystroke_a	a	n/a
508.727	0.0605	1017454	keystroke_u	u	n/a
508.832	0.09	1017664	keystroke_s	s	n/a
509.042	0.06	1018084	keystroke_t	t	n/a
509.117	0.045	1018234	keystroke_i	i	n/a
509.267	0.135	1018534	keystroke_n	n	n/a
509.372	0.105	1018744	keystroke_Key.space	Key.space	n/a
509.6875	0.06	1019375	keystroke_p	p	n/a
509.7625	0.09	1019525	keystroke_a	a	n/a
509.9125	0.075	1019825	keystroke_i	i	n/a
510.0925	0.12	1020185	keystroke_n	n	n/a
510.1825	0.075	1020365	keystroke_Key.space	Key.space	n/a
510.4225	0.015	1020845	keystroke_e	e	n/a
510.4975	0.06	1020995	keystroke_n	n	n/a
510.9175	0.075	1021835	keystroke_Key.backspace	Key.backspace	n/a
511.0965	0.061	1022193	keystroke_Key.backspace	Key.backspace	n/a
511.3375	0.075	1022675	keystroke_n	n	n/a
511.4425	0.12	1022885	keystroke_e	e	n/a
511.4875	0.105	1022975	keystroke_w	w	n/a
511.6075	0.0745	1023215	keystroke_Key.space	Key.space	n/a
512.087	0.0605	1024174	keystroke_n	n	n/a
512.252	0.135	1024504	keystroke_o	o	n/a
512.327	0.12	1024654	keystroke_i	i	n/a
512.448	0.059	1024896	keystroke_s	s	n/a
512.612	0.06	1025224	keystroke_e	e	n/a
512.777	0.075	1025554	keystroke_Key.enter	Key.enter	n/a
512.8665	9.8275	1025733	prompt	n/a	some absorption speaks responses\n
513.7075	0.075	1027415	keystroke_s	s	n/a
513.8125	0.03	1027625	keystroke_p	p	n/a
513.9775	0.075	1027955	keystroke_m	m	n/a
514.967	0.045	1029934	keystroke_Key.backspace	Key.backspace	n/a
515.147	0.045	1030294	keystroke_Key.backspace	Key.backspace	n/a
515.567	0.0605	1031134	keystroke_p	p	n/a
515.8975	0.045	1031795	keystroke_Key.backspace	Key.backspace	n/a
516.0625	0.06	1032125	keystroke_o	o	n/a
516.2425	0.06	1032485	keystroke_m	m	n/a
516.3775	0.075	1032755	keystroke_e	e	n/a
516.4675	0.105	1032935	keystroke_Key.space	Key.space	n/a
516.9175	0.075	1033835	keystroke_a	a	n/a
517.5775	0.0445	1035155	keystroke_b	b	n/a
517.757	0.075	1035514	keystroke_s	s	n/a
517.877	0.06	1035754	keystroke_o	o	n/a
518.042	0.03	1036084	keystroke_r	r	n/a
518.282	0.06	1036564	keystroke_p	p	n/a
518.642	0.06	1037284	keystroke_t	t	n/a
518.732	0.06	1037464	keystroke_i	i	n/a
518.927	0.06	1037854	keystroke_o	o	n/a
519.107	0.12	1038214	keystroke_n	n	n/a
519.242	0.075	1038484	keystroke_Key.space	Key.space	n/a
519.7815	0.06	1039563	keystroke_s	s	n/a
519.9165	0.06	1039833	keystroke_p	p	n/a
519.9915	0.06	1039983	keystroke_e	e	n/a
520.1415	0.075	1040283	keystroke_a	a	n/a
520.2765	0.075	1040553	keystroke_k	k	n/a
520.3365	0.09	1040673	keystroke_s	s	n/a
520.5165	0.105	1041033	keystroke_Key.space	Key.space	n/a
520.6665	0.06	1041333	keystroke_s	s	n/a
520.9515	0.045	1041903	keystroke_Key.backspace	Key.backspace	n/a
521.0265	0.105	1042053	keystroke_r	r	n/a
521.0715	0.105	1042143	keystroke_e	e	n/a
521.2965	0.075	1042593	keystroke_s	s	n/a
521.7015	0.105	1043403	keystroke_p	p	n/a
521.7615	0.12	1043523	keystroke_o	o	n/a
521.9865	0.075	1043973	keystroke_n	n	n/a
522.0915	0.075	1044183	keystroke_s	s	n/a
522.2565	0.06	1044513	keystroke_e	e	n/a
522.437	0.0745	1044874	keystroke_s	s	n/a
522.6165	0.075	1045233	keystroke_Key.enter	Key.enter	n/a
522.705	8.4335	1045410	prompt	n/a	dawn wants needle namely\n
523.472	0.03	1046944	keystroke_f	f	n/a
523.772	0.06	1047544	keystroke_Key.backspace	Key.backspace	n/a
523.832	0.135	1047664	keystroke_d	d	n/a
523.922	0.09	1047844	keystroke_a	a	n/a
524.192	0.075	1048384	keystroke_w	w	n/a
524.417	0.1505	1048834	keystroke_n	n	n/a
524.5825	0.09	1049165	keystroke_Key.space	Key.space	n/a
524.7775	0.12	1049555	keystroke_w	w	n/a
524.8525	0.15	1049705	keystroke_a	a	n/a
525.3775	0.06	1050755	keystroke_n	n	n/a
525.4675	0.075	1050935	keystroke_t	t	n/a
525.6625	0.0595	1051325	keystroke_s	s	n/a
525.8125	0.105	1051625	keystroke_Key.space	Key.space	n/a
526.1275	0.075	1052255	keystroke_n	n	n/a
526.2175	0.045	1052435	keystroke_e	e	n/a
526.3375	0.165	1052675	keystroke_e	e	n/a
526.4575	0.12	1052915	keystroke_d	d	n/a
527.1765	0.031	1054353	keystroke_e	e	n/a
527.5825	0.044	1055165	keystroke_Key.backspace	Key.backspace	n/a
527.7925	0.09	1055585	keystroke_l	l	n/a
527.9125	0.06	1055825	keystroke_e	e	n/a
528.1065	0.075	1056213	keystroke_Key.space	Key.space	n/a
528.3175	0.074	1056635	keystroke_n	n	n/a
528.4075	0.059	1056815	keystroke_a	a	n/a
528.5575	0.029	1057115	keystroke_l	l	n/a
529.7115	0.09	1059423	keystroke_Key.backspace	Key.backspace	n/a
530.3415	0.075	1060683	keystroke_m	m	n/a
530.4315	0.015	1060863	keystroke_e	e	n/a
530.4615	0.06	1060923	keystroke_l	l	n/a
530.7015	0.105	1061403	keystroke_y	y	n/a
530.7615	0.135	1061523	keystroke_Key.space	Key.space	n/a
531.0465	0.09	1062093	keystroke_Key.enter	Key.enter	n/a
531.149	10.3245	1062298	prompt	n/a	definitely revolution limitations impaired\n
532.292	0.09	1064584	keystroke_d	d	n/a
532.337	0.105	1064674	keystroke_e	e	n/a
532.712	0.075	1065424	keystroke_f	f	n/a
532.862	0.06	1065724	keystroke_i	i	n/a
533.042	0.06	1066084	keystroke_n	n	n/a
533.222	0.06	1066444	keystroke_i	i	n/a
533.852	0.09	1067704	keystroke_t	t	n/a
533.972	0.089	1067944	keystroke_e	e	n/a
534.197	0.044	1068394	keystroke_l	l	n/a
534.436	0.15	1068872	keystroke_y	y	n/a
534.526	0.15	1069052	keystroke_Key.space	Key.space	n/a
535.036	0.105	1070072	keystroke_r	r	n/a
535.081	0.105	1070162	keystroke_e	e	n/a
535.366	0.045	1070732	keystroke_v	v	n/a
535.441	0.061	1070882	keystroke_o	o	n/a
535.607	0.059	1071214	keystroke_l	l	n/a
535.802	0.059	1071604	keystroke_u	u	n/a
535.951	0.045	1071902	keystroke_t	t	n/a
536.131	0.075	1072262	keystroke_i	i	n/a
536.281	0.076	1072562	keystroke_o	o	n/a
536.461	0.166	1072922	keystroke_n	n	n/a
536.597	0.075	1073194	keystroke_Key.space	Key.space	n/a
537.182	0.06	1074364	keystroke_l	l	n/a
537.377	0.06	1074754	keystroke_i	i	n/a
537.542	0.06	1075084	keystroke_m	m	n/a
537.662	0.06	1075324	keystroke_i	i	n/a
537.872	0.045	1075744	keystroke_t	t	n/a
537.992	0.06	1075984	keystroke_a	a	n/a
538.127	0.09	1076254	keystroke_t	t	n/a
538.247	0.06	1076494	keystroke_i	i	n/a
538.397	0.075	1076794	keystroke_o	o	n/a
538.547	0.075	1077094	keystroke_n	n	n/a
538.637	0.075	1077274	keystroke_s	s	n/a
538.787	0.06	1077574	keystroke_Key.space	Key.space	n/a
538.922	0.075	1077844	keystroke_i	i	n/a
539.147	0.075	1078294	keystroke_m	m	n/a
539.267	0.09	1078534	keystroke_a	a	n/a
539.387	0.075	1078774	keystroke_p	p	n/a
539.656	0.06	1079312	keystroke_o	o	n/a
540.001	0.045	1080002	keystroke_Key.backspace	Key.backspace	n/a
540.167	0.074	1080334	keystroke_i	i	n/a
540.226	0.12	1080452	keystroke_r	r	n/a
540.287	0.119	1080574	keystroke_e	e	n/a
540.526	0.075	1081052	keystroke_s	s	n/a
540.916	0.075	1081832	keystroke_Key.backspace	Key.backspace	n/a
541.037	0.09	1082074	keystroke_d	d	n/a
541.411	0.06	1082822	keystroke_Key.enter	Key.enter	n/a
541.4845	5.809	1082969	prompt	n/a	encounter mold death strong\n
542.672	0.0595	1085344	keystroke_e	e	n/a
542.792	0.0445	1085584	keystroke_n	n	n/a
542.9265	0.0905	1085853	keystroke_c	c	n/a
543.0015	0.09	1086003	keystroke_o	o	n/a
543.0615	0.09	1086123	keystroke_u	u	n/a
543.2565	0.075	1086513	keystroke_n	n	n/a
543.3765	0.06	1086753	keystroke_t	t	n/a
543.5415	0.1045	1087083	keystroke_e	e	n/a
543.616	0.12	1087232	keystroke_r	r	n/a
543.781	0.105	1087562	keystroke_Key.space	Key.space	n/a
544.067	0.059	1088134	keystroke_e	e	n/a
544.351	0.045	1088702	keystroke_Key.backspace	Key.backspace	n/a
544.5165	0.075	1089033	keystroke_m	m	n/a
544.6665	0.06	1089333	keystroke_o	o	n/a
544.8315	0.06	1089663	keystroke_l	l	n/a
544.9215	0.105	1089843	keystroke_d	d	n/a
545.0715	0.075	1090143	keystroke_Key.space	Key.space	n/a
545.4315	0.09	1090863	keystroke_d	d	n/a
545.4765	0.1055	1090953	keystroke_e	e	n/a
545.6415	0.075	1091283	keystroke_a	a	n/a
545.8815	0.06	1091763	keystroke_t	t	n/a
545.9715	0.15	1091943	keystroke_h	h	n/a
546.0615	0.135	1092123	keystroke_Key.space	Key.space	n/a
