onset	duration	sample	value	key	prompt_text
21.944	7.6765	43888	prompt	n/a	the quick brown fox jumps over a lazy dog\n
23.081	0.028	46162	keystroke_t	t	n/a
23.2285	0.105	46457	keystroke_h	h	n/a
23.8435	0.075	47687	keystroke_e	e	n/a
23.9485	0.09	47897	keystroke_Key.space	Key.space	n/a
24.0835	0.09	48167	keystroke_q	q	n/a
24.2185	0.135	48437	keystroke_u	u	n/a
24.3385	0.105	48677	keystroke_i	i	n/a
24.5035	0.06	49007	keystroke_c	c	n/a
24.5785	0.06	49157	keystroke_k	k	n/a
24.7435	0.075	49487	keystroke_Key.space	Key.space	n/a
24.8935	0.075	49787	keystroke_b	b	n/a
24.9835	0.09	49967	keystroke_r	r	n/a
25.0585	0.09	50117	keystroke_o	o	n/a
25.193	0.075	50386	keystroke_w	w	n/a
25.253	0.0905	50506	keystroke_n	n	n/a
25.4185	0.075	50837	keystroke_Key.space	Key.space	n/a
25.5085	0.045	51017	keystroke_f	f	n/a
25.5835	0.06	51167	keystroke_o	o	n/a
25.6885	0.075	51377	keystroke_x	x	n/a
25.7785	0.09	51557	keystroke_Key.space	Key.space	n/a
26.859	0.06	53718	keystroke_j	j	n/a
26.994	0.075	53988	keystroke_u	u	n/a
27.1585	0.075	54317	keystroke_m	m	n/a
27.3085	0.075	54617	keystroke_p	p	n/a
27.3985	0.06	54797	keystroke_s	s	n/a
27.4885	0.075	54977	keystroke_Key.space	Key.space	n/a
27.6235	0.075	55247	keystroke_o	o	n/a
27.6685	0.075	55337	keystroke_v	v	n/a
27.7885	0.105	55577	keystroke_e	e	n/a
27.8785	0.0745	55757	keystroke_r	r	n/a
27.938	0.075	55876	keystroke_Key.space	Key.space	n/a
28.058	0.09	56116	keystroke_a	a	n/a
28.193	0.075	56386	keystroke_Key.space	Key.space	n/a
28.493	0.105	56986	keystroke_l	l	n/a
28.583	0.075	57166	keystroke_a	a	n/a
28.763	0.09	57526	keystroke_z	z	n/a
28.838	0.075	57676	keystroke_y	y	n/a
29.033	0.09	58066	keystroke_Key.space	Key.space	n/a
29.108	0.075	58216	keystroke_d	d	n/a
29.228	0.09	58456	keystroke_o	o	n/a
29.348	0.09	58696	keystroke_g	g	n/a
29.468	0.15	58936	keystroke_Key.enter	Key.enter	n/a
29.6245	7.4505	59249	prompt	n/a	indicator seminar perspectives operators\n
30.278	0.105	60556	keystroke_i	i	n/a
30.413	0.0905	60826	keystroke_n	n	n/a
30.5335	0.09	61067	keystroke_d	d	n/a
30.6385	0.105	61277	keystroke_i	i	n/a
30.7135	0.075	61427	keystroke_c	c	n/a
30.8635	0.075	61727	keystroke_a	a	n/a
31.0285	0.075	62057	keystroke_t	t	n/a
31.1185	0.06	62237	keystroke_o	o	n/a
31.2235	0.075	62447	keystroke_r	r	n/a
31.313	0.09	62626	keystroke_Key.space	Key.space	n/a
31.478	0.09	62956	keystroke_s	s	n/a
31.658	0.075	63316	keystroke_e	e	n/a
31.778	0.09	63556	keystroke_m	m	n/a
31.8985	0.075	63797	keystroke_i	i	n/a
32.0035	0.09	64007	keystroke_n	n	n/a
32.0485	0.075	64097	keystroke_a	a	n/a
32.1835	0.09	64367	keystroke_r	r	n/a
32.2885	0.105	64577	keystroke_Key.space	Key.space	n/a
32.8135	0.12	65627	keystroke_p	p	n/a
33.9235	0.105	67847	keystroke_e	e	n/a
33.9985	0.105	67997	keystroke_r	r	n/a
34.2085	0.105	68417	keystroke_s	s	n/a
34.3885	0.12	68777	keystroke_p	p	n/a
34.4935	0.06	68987	keystroke_e	e	n/a
34.6585	0.045	69317	keystroke_c	c	n/a
34.8235	0.075	69647	keystroke_t	t	n/a
34.9135	0.075	69827	keystroke_i	i	n/a
35.0035	0.09	70007	keystroke_v	v	n/a
35.1385	0.105	70277	keystroke_e	e	n/a
35.334	0.075	70668	keystroke_s	s	n/a
35.394	0.09	70788	keystroke_Key.space	Key.space	n/a
35.829	0.09	71658	keystroke_o	o	n/a
36.024	0.0745	72048	keystroke_p	p	n/a
36.054	0.1045	72108	keystroke_e	e	n/a
36.1135	0.09	72227	keystroke_r	r	n/a
36.2785	0.075	72557	keystroke_a	a	n/a
36.444	0.09	72888	keystroke_t	t	n/a
36.594	0.12	73188	keystroke_o	o	n/a
36.699	0.075	73398	keystroke_r	r	n/a
36.849	0.09	73698	keystroke_s	s	n/a
36.999	0.074	73998	keystroke_Key.enter	Key.enter	n/a
37.078	11.967	74156	prompt	n/a	fragrance minimize undertaken girl\n
37.914	0.059	75828	keystroke_g	g	n/a
38.228	0.1205	76456	keystroke_Key.backspace	Key.backspace	n/a
38.3335	0.075	76667	keystroke_f	f	n/a
38.4985	0.06	76997	keystroke_r	r	n/a
39.0835	0.09	78167	keystroke_a	a	n/a
39.2485	0.075	78497	keystroke_g	g	n/a
39.4285	0.105	78857	keystroke_n	n	n/a
40.4935	0.105	80987	keystroke_Key.backspace	Key.backspace	n/a
40.5835	0.0905	81167	keystroke_a	a	n/a
40.779	0.119	81558	keystroke_n	n	n/a
40.913	0.106	81826	keystroke_c	c	n/a
40.989	0.12	81978	keystroke_e	e	n/a
41.153	0.09	82306	keystroke_Key.space	Key.space	n/a
41.5135	0.1205	83027	keystroke_m	m	n/a
41.648	0.09	83296	keystroke_i	i	n/a
41.7835	0.09	83567	keystroke_n	n	n/a
41.9035	0.12	83807	keystroke_i	i	n/a
42.0085	0.12	84017	keystroke_m	m	n/a
42.1435	0.075	84287	keystroke_z	z	n/a
42.323	0.076	84646	keystroke_e	e	n/a
42.443	0.105	84886	keystroke_Key.space	Key.space	n/a
42.638	0.09	85276	keystroke_i	i	n/a
42.7135	0.0595	85427	keystroke_n	n	n/a
43.028	0.075	86056	keystroke_Key.backspace	Key.backspace	n/a
43.193	0.09	86386	keystroke_Key.backspace	Key.backspace	n/a
43.478	0.075	86956	keystroke_Key.backspace	Key.backspace	n/a
43.688	0.06	87376	keystroke_Key.backspace	Key.backspace	n/a
43.853	0.09	87706	keystroke_Key.backspace	Key.backspace	n/a
44.063	0.06	88126	keystroke_Key.backspace	Key.backspace	n/a
44.993	0.06	89986	keystroke_Key.backspace	Key.backspace	n/a
45.698	0.135	91396	keystroke_i	i	n/a
45.848	0.15	91696	keystroke_m	m	n/a
45.983	0.135	91966	keystroke_i	i	n/a
46.073	0.105	92146	keystroke_z	z	n/a
46.253	0.105	92506	keystroke_e	e	n/a
46.3735	0.09	92747	keystroke_Key.space	Key.space	n/a
46.5685	0.135	93137	keystroke_u	u	n/a
46.6585	0.135	93317	keystroke_n	n	n/a
46.7485	0.12	93497	keystroke_d	d	n/a
46.8085	0.12	93617	keystroke_e	e	n/a
46.9735	0.105	93947	keystroke_r	r	n/a
47.3485	0.06	94697	keystroke_t	t	n/a
47.5285	0.09	95057	keystroke_a	a	n/a
47.6035	0.105	95207	keystroke_k	k	n/a
47.7235	0.075	95447	keystroke_e	e	n/a
48.0385	0.075	96077	keystroke_n	n	n/a
48.2185	0.09	96437	keystroke_Key.space	Key.space	n/a
48.353	0.06	96706	keystroke_g	g	n/a
48.458	0.075	96916	keystroke_i	i	n/a
48.563	0.09	97126	keystroke_r	r	n/a
48.698	0.09	97396	keystroke_l	l	n/a
48.908	0.135	97816	keystroke_Key.enter	Key.enter	n/a
49.048	5.157	98096	prompt	n/a	airports cancel flight worn\n
49.6735	0.0745	99347	keystroke_a	a	n/a
49.793	0.105	99586	keystroke_i	i	n/a
49.943	0.09	99886	keystroke_r	r	n/a
50.108	0.06	100216	keystroke_p	p	n/a
50.123	0.15	100246	keystroke_o	o	n/a
50.183	0.045	100366	keystroke_r	r	n/a
50.468	0.09	100936	keystroke_t	t	n/a
50.678	0.09	101356	keystroke_s	s	n/a
50.813	0.09	101626	keystroke_Key.space	Key.space	n/a
51.203	0.075	102406	keystroke_c	c	n/a
51.428	0.075	102856	keystroke_a	a	n/a
51.548	0.105	103096	keystroke_n	n	n/a
51.698	0.06	103396	keystroke_c	c	n/a
51.803	0.12	103606	keystroke_e	e	n/a
51.938	0.06	103876	keystroke_l	l	n/a
52.133	0.1055	104266	keystroke_Key.space	Key.space	n/a
52.899	0.075	105798	keystroke_f	f	n/a
52.989	0.135	105978	keystroke_l	l	n/a
53.109	0.09	106218	keystroke_i	i	n/a
53.169	0.075	106338	keystroke_g	g	n/a
53.319	0.09	106638	keystroke_h	h	n/a
53.349	0.075	106698	keystroke_t	t	n/a
53.529	0.06	107058	keystroke_Key.space	Key.space	n/a
53.559	0.105	107118	keystroke_w	w	n/a
53.709	0.06	107418	keystroke_o	o	n/a
53.799	0.075	107598	keystroke_r	r	n/a
53.904	0.06	107808	keystroke_n	n	n/a
54.084	0.12	108168	keystroke_Key.enter	Key.enter	n/a
54.2075	6.043	108415	prompt	n/a	phantom comfortable capitol warrant\n
54.924	0.09	109848	keystroke_p	p	n/a
55.1785	0.0755	110357	keystroke_h	h	n/a
55.269	0.075	110538	keystroke_a	a	n/a
55.359	0.09	110718	keystroke_n	n	n/a
55.464	0.075	110928	keystroke_t	t	n/a
55.554	0.075	111108	keystroke_o	o	n/a
55.644	0.075	111288	keystroke_m	m	n/a
55.824	0.105	111648	keystroke_Key.space	Key.space	n/a
55.989	0.09	111978	keystroke_c	c	n/a
56.169	0.09	112338	keystroke_o	o	n/a
56.274	0.12	112548	keystroke_m	m	n/a
56.439	0.075	112878	keystroke_f	f	n/a
56.559	0.09	113118	keystroke_o	o	n/a
56.619	0.075	113238	keystroke_r	r	n/a
56.769	0.06	113538	keystroke_t	t	n/a
56.919	0.12	113838	keystroke_a	a	n/a
57.009	0.075	114018	keystroke_b	b	n/a
57.144	0.075	114288	keystroke_l	l	n/a
57.234	0.0895	114468	keystroke_e	e	n/a
57.3385	0.075	114677	keystroke_Key.space	Key.space	n/a
57.5335	0.075	115067	keystroke_c	c	n/a
57.8335	0.09	115667	keystroke_a	a	n/a
57.9535	0.105	115907	keystroke_p	p	n/a
58.4485	0.09	116897	keystroke_i	i	n/a
58.5535	0.105	117107	keystroke_t	t	n/a
58.6735	0.075	117347	keystroke_o	o	n/a
58.8385	0.075	117677	keystroke_l	l	n/a
59.0035	0.105	118007	keystroke_Key.space	Key.space	n/a
59.0935	0.105	118187	keystroke_w	w	n/a
59.2885	0.1045	118577	keystroke_a	a	n/a
59.513	0.06	119026	keystroke_r	r	n/a
59.648	0.06	119296	keystroke_r	r	n/a
59.738	0.12	119476	keystroke_a	a	n/a
59.873	0.075	119746	keystroke_n	n	n/a
59.978	0.0905	119956	keystroke_t	t	n/a
60.0835	0.165	120167	keystroke_Key.enter	Key.enter	n/a
60.2585	5.647	120517	prompt	n/a	protocols remainder quantitative reel\n
60.773	0.12	121546	keystroke_p	p	n/a
60.908	0.105	121816	keystroke_r	r	n/a
61.028	0.135	122056	keystroke_o	o	n/a
61.208	0.075	122416	keystroke_t	t	n/a
61.3135	0.075	122627	keystroke_o	o	n/a
61.4035	0.09	122807	keystroke_c	c	n/a
61.6585	0.075	123317	keystroke_o	o	n/a
61.8235	0.075	123647	keystroke_l	l	n/a
61.9285	0.0895	123857	keystroke_s	s	n/a
62.033	0.105	124066	keystroke_Key.space	Key.space	n/a
62.198	0.15	124396	keystroke_r	r	n/a
62.288	0.12	124576	keystroke_e	e	n/a
62.438	0.105	124876	keystroke_m	m	n/a
62.588	0.06	125176	keystroke_a	a	n/a
62.693	0.105	125386	keystroke_i	i	n/a
62.783	0.135	125566	keystroke_n	n	n/a
62.888	0.12	125776	keystroke_d	d	n/a
62.978	0.105	125956	keystroke_e	e	n/a
63.113	0.1205	126226	keystroke_r	r	n/a
63.2185	0.105	126437	keystroke_Key.space	Key.space	n/a
63.458	0.12	126916	keystroke_q	q	n/a
63.668	0.105	127336	keystroke_u	u	n/a
63.788	0.12	127576	keystroke_a	a	n/a
63.923	0.105	127846	keystroke_n	n	n/a
64.043	0.075	128086	keystroke_t	t	n/a
64.148	0.105	128296	keystroke_i	i	n/a
64.238	0.105	128476	keystroke_t	t	n/a
64.358	0.105	128716	keystroke_i	i	n/a
64.643	0.06	129286	keystroke_v	v	n/a
64.748	0.12	129496	keystroke_e	e	n/a
64.883	0.09	129766	keystroke_Key.space	Key.space	n/a
65.198	0.135	130396	keystroke_r	r	n/a
65.288	0.105	130576	keystroke_e	e	n/a
65.498	0.09	130996	keystroke_e	e	n/a
65.603	0.09	131206	keystroke_l	l	n/a
65.768	0.1355	131536	keystroke_Key.enter	Key.enter	n/a
65.909	5.441	131818	prompt	n/a	baptist winning yields plots\n
66.789	0.089	133578	keystroke_b	b	n/a
66.908	0.106	133816	keystroke_a	a	n/a
67.059	0.075	134118	keystroke_p	p	n/a
67.164	0.09	134328	keystroke_t	t	n/a
67.269	0.105	134538	keystroke_i	i	n/a
67.374	0.09	134748	keystroke_s	s	n/a
67.524	0.075	135048	keystroke_t	t	n/a
67.613	0.105	135226	keystroke_Key.space	Key.space	n/a
67.854	0.12	135708	keystroke_w	w	n/a
67.989	0.089	135978	keystroke_i	i	n/a
68.154	0.075	136308	keystroke_n	n	n/a
68.304	0.105	136608	keystroke_n	n	n/a
68.394	0.15	136788	keystroke_i	i	n/a
68.529	0.09	137058	keystroke_n	n	n/a
68.634	0.075	137268	keystroke_g	g	n/a
68.738	0.1055	137476	keystroke_Key.space	Key.space	n/a
69.3385	0.0745	138677	keystroke_y	y	n/a
69.7135	0.09	139427	keystroke_i	i	n/a
69.8635	0.09	139727	keystroke_e	e	n/a
69.9835	0.09	139967	keystroke_l	l	n/a
70.0885	0.165	140177	keystroke_d	d	n/a
70.1785	0.135	140357	keystroke_s	s	n/a
70.2985	0.09	140597	keystroke_Key.space	Key.space	n/a
70.523	0.195	141046	keystroke_p	p	n/a
70.688	0.135	141376	keystroke_l	l	n/a
70.853	0.15	141706	keystroke_o	o	n/a
71.018	0.06	142036	keystroke_t	t	n/a
71.168	0.105	142336	keystroke_s	s	n/a
71.243	0.105	142486	keystroke_Key.enter	Key.enter	n/a
71.3555	7.0445	142711	prompt	n/a	analyst robert photographs modem\n
72.0085	0.105	144017	keystroke_a	a	n/a
72.1285	0.105	144257	keystroke_n	n	n/a
72.2635	0.09	144527	keystroke_a	a	n/a
72.3835	0.105	144767	keystroke_l	l	n/a
72.5935	0.075	145187	keystroke_y	y	n/a
72.7135	0.105	145427	keystroke_s	s	n/a
72.8035	0.075	145607	keystroke_t	t	n/a
73.028	0.105	146056	keystroke_Key.space	Key.space	n/a
73.5535	0.09	147107	keystroke_r	r	n/a
73.6435	0.045	147287	keystroke_o	o	n/a
73.8235	0.09	147647	keystroke_b	b	n/a
73.9285	0.105	147857	keystroke_e	e	n/a
73.9735	0.12	147947	keystroke_r	r	n/a
74.588	0.015	149176	keystroke_t	t	n/a
74.768	0.09	149536	keystroke_Key.space	Key.space	n/a
74.993	0.045	149986	keystroke_p	p	n/a
75.263	0.075	150526	keystroke_h	h	n/a
75.443	0.09	150886	keystroke_o	o	n/a
75.534	0.104	151068	keystroke_t	t	n/a
75.653	0.06	151306	keystroke_o	o	n/a
75.863	0.075	151726	keystroke_g	g	n/a
75.893	0.075	151786	keystroke_r	r	n/a
76.013	0.135	152026	keystroke_a	a	n/a
76.133	0.105	152266	keystroke_p	p	n/a
76.433	0.075	152866	keystroke_h	h	n/a
76.658	0.105	153316	keystroke_Key.space	Key.space	n/a
76.9885	0.0895	153977	keystroke_m	m	n/a
77.213	0.105	154426	keystroke_o	o	n/a
77.708	0.135	155416	keystroke_d	d	n/a
77.918	0.12	155836	keystroke_e	e	n/a
78.023	0.075	156046	keystroke_m	m	n/a
78.2485	0.1495	156497	keystroke_Key.enter	Key.enter	n/a
78.4025	7.0025	156805	prompt	n/a	forgot ladies solve edinburgh\n
79.178	0.1055	158356	keystroke_f	f	n/a
79.4485	0.09	158897	keystroke_r	r	n/a
79.749	0.09	159498	keystroke_Key.backspace	Key.backspace	n/a
79.974	0.135	159948	keystroke_o	o	n/a
80.079	0.105	160158	keystroke_r	r	n/a
80.304	0.105	160608	keystroke_g	g	n/a
80.469	0.105	160938	keystroke_o	o	n/a
80.559	0.12	161118	keystroke_t	t	n/a
80.739	0.135	161478	keystroke_Key.space	Key.space	n/a
81.2335	0.1205	162467	keystroke_l	l	n/a
81.3235	0.0905	162647	keystroke_a	a	n/a
81.489	0.075	162978	keystroke_d	d	n/a
81.609	0.075	163218	keystroke_i	i	n/a
81.669	0.06	163338	keystroke_e	e	n/a
81.804	0.09	163608	keystroke_s	s	n/a
81.864	0.09	163728	keystroke_Key.space	Key.space	n/a
82.014	0.12	164028	keystroke_s	s	n/a
82.149	0.09	164298	keystroke_o	o	n/a
82.3435	0.1205	164687	keystroke_l	l	n/a
82.434	0.105	164868	keystroke_v	v	n/a
82.614	0.12	165228	keystroke_e	e	n/a
82.764	0.105	165528	keystroke_Key.space	Key.space	n/a
83.229	0.09	166458	keystroke_e	e	n/a
83.529	0.09	167058	keystroke_d	d	n/a
83.724	0.1195	167448	keystroke_i	i	n/a
83.8735	0.1195	167747	keystroke_n	n	n/a
84.218	0.105	168436	keystroke_b	b	n/a
84.428	0.166	168856	keystroke_u	u	n/a
84.579	0.104	169158	keystroke_r	r	n/a
84.849	0.075	169698	keystroke_g	g	n/a
85.119	0.014	170238	keystroke_h	h	n/a
85.253	0.15	170506	keystroke_Key.enter	Key.enter	n/a
85.409	5.921	170818	prompt	n/a	blood bugs option hills\n
86.2885	0.09	172577	keystroke_b	b	n/a
86.4085	0.075	172817	keystroke_l	l	n/a
86.603	0.075	173206	keystroke_o	o	n/a
86.753	0.075	173506	keystroke_o	o	n/a
86.843	0.09	173686	keystroke_d	d	n/a
86.978	0.09	173956	keystroke_Key.space	Key.space	n/a
87.2035	0.135	174407	keystroke_b	b	n/a
87.3685	0.165	174737	keystroke_u	u	n/a
87.5935	0.09	175187	keystroke_g	g	n/a
87.6985	0.105	175397	keystroke_s	s	n/a
87.7885	0.09	175577	keystroke_Key.space	Key.space	n/a
87.9835	0.075	175967	keystroke_o	o	n/a
88.1485	0.12	176297	keystroke_p	p	n/a
88.2985	0.12	176597	keystroke_t	t	n/a
88.4635	0.195	176927	keystroke_i	i	n/a
88.5835	0.105	177167	keystroke_o	o	n/a
88.8385	0.105	177677	keystroke_n	n	n/a
88.9885	0.105	177977	keystroke_s	s	n/a
89.0785	0.075	178157	keystroke_Key.space	Key.space	n/a
89.2585	0.03	178517	keystroke_b	b	n/a
89.633	0.075	179266	keystroke_Key.backspace	Key.backspace	n/a
90.098	0.045	180196	keystroke_h	h	n/a
90.758	0.09	181516	keystroke_i	i	n/a
90.938	0.06	181876	keystroke_l	l	n/a
91.058	0.09	182116	keystroke_l	l	n/a
91.149	0.089	182298	keystroke_s	s	n/a
91.223	0.1055	182446	keystroke_Key.enter	Key.enter	n/a
91.3335	5.3515	182667	prompt	n/a	fairfield fashion true chen\n
92.093	0.06	184186	keystroke_f	f	n/a
92.288	0.105	184576	keystroke_a	a	n/a
92.438	0.105	184876	keystroke_i	i	n/a
92.513	0.09	185026	keystroke_r	r	n/a
92.723	0.075	185446	keystroke_f	f	n/a
92.843	0.09	185686	keystroke_i	i	n/a
92.948	0.09	185896	keystroke_e	e	n/a
93.068	0.105	186136	keystroke_l	l	n/a
93.233	0.075	186466	keystroke_d	d	n/a
93.3385	0.105	186677	keystroke_Key.space	Key.space	n/a
93.8185	0.075	187637	keystroke_f	f	n/a
94.1485	0.09	188297	keystroke_a	a	n/a
94.2085	0.09	188417	keystroke_s	s	n/a
94.3285	0.06	188657	keystroke_h	h	n/a
94.5235	0.105	189047	keystroke_i	i	n/a
94.5985	0.1055	189197	keystroke_o	o	n/a
94.839	0.075	189678	keystroke_n	n	n/a
95.004	0.105	190008	keystroke_Key.space	Key.space	n/a
95.289	0.0745	190578	keystroke_t	t	n/a
95.4985	0.075	190997	keystroke_r	r	n/a
95.7385	0.075	191477	keystroke_u	u	n/a
95.8435	0.075	191687	keystroke_e	e	n/a
95.9485	0.105	191897	keystroke_Key.space	Key.space	n/a
96.0545	0.0895	192109	keystroke_c	c	n/a
96.189	0.075	192378	keystroke_h	h	n/a
96.279	0.075	192558	keystroke_e	e	n/a
96.369	0.075	192738	keystroke_n	n	n/a
96.579	0.105	193158	keystroke_Key.enter	Key.enter	n/a
96.688	8.397	193376	prompt	n/a	daniel arising gardens difficulty\n
97.629	0.06	195258	keystroke_f	f	n/a
97.944	0.075	195888	keystroke_Key.backspace	Key.backspace	n/a
98.034	0.09	196068	keystroke_d	d	n/a
98.139	0.135	196278	keystroke_a	a	n/a
98.244	0.09	196488	keystroke_n	n	n/a
98.378	0.106	196756	keystroke_i	i	n/a
98.589	0.09	197178	keystroke_e	e	n/a
98.709	0.12	197418	keystroke_l	l	n/a
98.949	0.105	197898	keystroke_Key.space	Key.space	n/a
99.294	0.119	198588	keystroke_a	a	n/a
100.3435	0.075	200687	keystroke_r	r	n/a
100.4485	0.105	200897	keystroke_i	i	n/a
100.5685	0.12	201137	keystroke_s	s	n/a
100.6895	0.104	201379	keystroke_i	i	n/a
100.8835	0.105	201767	keystroke_n	n	n/a
101.0335	0.06	202067	keystroke_g	g	n/a
101.1385	0.075	202277	keystroke_Key.space	Key.space	n/a
101.708	0.076	203416	keystroke_g	g	n/a
101.754	0.075	203508	keystroke_a	a	n/a
101.918	0.06	203836	keystroke_r	r	n/a
102.263	0.1205	204526	keystroke_d	d	n/a
102.594	0.089	205188	keystroke_e	e	n/a
102.699	0.09	205398	keystroke_n	n	n/a
102.923	0.09	205846	keystroke_s	s	n/a
103.2085	0.09	206417	keystroke_Key.space	Key.space	n/a
103.4935	0.075	206987	keystroke_d	d	n/a
103.5985	0.075	207197	keystroke_i	i	n/a
103.7785	0.09	207557	keystroke_i	i	n/a
103.9285	0.075	207857	keystroke_f	f	n/a
104.0635	0.09	208127	keystroke_i	i	n/a
104.1685	0.0755	208337	keystroke_c	c	n/a
104.2735	0.075	208547	keystroke_u	u	n/a
104.4535	0.09	208907	keystroke_l	l	n/a
104.5885	0.075	209177	keystroke_t	t	n/a
104.6935	0.075	209387	keystroke_y	y	n/a
104.9335	0.15	209867	keystroke_Key.enter	Key.enter	n/a
105.0885	4.4365	210177	prompt	n/a	suspect shut delta parks\n
105.6835	0.105	211367	keystroke_s	s	n/a
105.8635	0.09	211727	keystroke_u	u	n/a
105.9685	0.09	211937	keystroke_s	s	n/a
106.0735	0.105	212147	keystroke_p	p	n/a
106.1935	0.06	212387	keystroke_e	e	n/a
106.3735	0.06	212747	keystroke_c	c	n/a
106.568	0.06	213136	keystroke_t	t	n/a
106.643	0.09	213286	keystroke_Key.space	Key.space	n/a
106.853	0.105	213706	keystroke_s	s	n/a
107.048	0.075	214096	keystroke_h	h	n/a
107.258	0.06	214516	keystroke_u	u	n/a
107.333	0.075	214666	keystroke_t	t	n/a
107.453	0.09	214906	keystroke_Key.space	Key.space	n/a
107.588	0.15	215176	keystroke_d	d	n/a
107.663	0.15	215326	keystroke_e	e	n/a
107.783	0.09	215566	keystroke_l	l	n/a
107.888	0.075	215776	keystroke_t	t	n/a
108.083	0.075	216166	keystroke_a	a	n/a
108.188	0.105	216376	keystroke_Key.space	Key.space	n/a
108.683	0.135	217366	keystroke_p	p	n/a
108.728	0.105	217456	keystroke_a	a	n/a
108.938	0.09	217876	keystroke_r	r	n/a
109.043	0.12	218086	keystroke_k	k	n/a
109.193	0.09	218386	keystroke_s	s	n/a
109.328	0.1955	218656	keystroke_Key.enter	Key.enter	n/a
109.53	5.455	219060	prompt	n/a	baltimore scheme hash password\n
110.3185	0.075	220637	keystroke_b	b	n/a
110.4085	0.12	220817	keystroke_a	a	n/a
110.5435	0.075	221087	keystroke_l	l	n/a
110.6635	0.075	221327	keystroke_t	t	n/a
110.7235	0.105	221447	keystroke_i	i	n/a
110.8135	0.105	221627	keystroke_m	m	n/a
110.9785	0.09	221957	keystroke_o	o	n/a
111.0535	0.135	222107	keystroke_r	r	n/a
111.2035	0.1045	222407	keystroke_e	e	n/a
111.413	0.09	222826	keystroke_Key.space	Key.space	n/a
111.549	0.104	223098	keystroke_s	s	n/a
111.743	0.06	223486	keystroke_c	c	n/a
111.863	0.12	223726	keystroke_h	h	n/a
111.969	0.074	223938	keystroke_e	e	n/a
112.088	0.075	224176	keystroke_m	m	n/a
112.178	0.075	224356	keystroke_e	e	n/a
112.313	0.09	224626	keystroke_Key.space	Key.space	n/a
112.8685	0.075	225737	keystroke_h	h	n/a
112.9285	0.105	225857	keystroke_a	a	n/a
113.1235	0.075	226247	keystroke_s	s	n/a
113.2585	0.075	226517	keystroke_h	h	n/a
113.4385	0.09	226877	keystroke_Key.space	Key.space	n/a
113.6185	0.105	227237	keystroke_p	p	n/a
113.6635	0.135	227327	keystroke_a	a	n/a
113.7385	0.075	227477	keystroke_s	s	n/a
113.9185	0.075	227837	keystroke_s	s	n/a
114.0835	0.09	228167	keystroke_o	o	n/a
114.1885	0.075	228377	keystroke_w	w	n/a
114.3085	0.09	228617	keystroke_r	r	n/a
114.5035	0.09	229007	keystroke_d	d	n/a
114.7735	0.21	229547	keystroke_Key.enter	Key.enter	n/a
114.988	6.732	229976	prompt	n/a	which's spyware computers disagree\n
115.5235	0.105	231047	keystroke_w	w	n/a
115.6735	0.135	231347	keystroke_h	h	n/a
115.7785	0.135	231557	keystroke_i	i	n/a
115.8985	0.09	231797	keystroke_c	c	n/a
116.0185	0.09	232037	keystroke_h	h	n/a
116.3485	0.12	232697	keystroke_'	'	n/a
116.4985	0.105	232997	keystroke_s	s	n/a
116.6785	0.105	233357	keystroke_Key.space	Key.space	n/a
117.0985	0.105	234197	keystroke_s	s	n/a
117.2335	0.12	234467	keystroke_p	p	n/a
117.4735	0.075	234947	keystroke_u	u	n/a
117.8635	0.09	235727	keystroke_Key.backspace	Key.backspace	n/a
118.1035	0.06	236207	keystroke_y	y	n/a
118.1785	0.075	236357	keystroke_w	w	n/a
118.3285	0.09	236657	keystroke_a	a	n/a
118.5235	0.12	237047	keystroke_r	r	n/a
118.5835	0.105	237167	keystroke_e	e	n/a
118.7335	0.105	237467	keystroke_Key.space	Key.space	n/a
119.1235	0.075	238247	keystroke_c	c	n/a
119.1835	0.1345	238367	keystroke_o	o	n/a
119.303	0.09	238606	keystroke_m	m	n/a
119.483	0.105	238966	keystroke_p	p	n/a
119.663	0.09	239326	keystroke_u	u	n/a
119.738	0.09	239476	keystroke_t	t	n/a
119.843	0.15	239686	keystroke_e	e	n/a
119.948	0.105	239896	keystroke_r	r	n/a
120.098	0.12	240196	keystroke_s	s	n/a
120.233	0.105	240466	keystroke_Key.space	Key.space	n/a
120.398	0.09	240796	keystroke_d	d	n/a
120.503	0.105	241006	keystroke_i	i	n/a
120.623	0.075	241246	keystroke_s	s	n/a
120.833	0.06	241666	keystroke_a	a	n/a
121.013	0.06	242026	keystroke_g	g	n/a
121.133	0.12	242266	keystroke_r	r	n/a
121.283	0.0905	242566	keystroke_e	e	n/a
121.4635	0.09	242927	keystroke_e	e	n/a
121.5685	0.15	243137	keystroke_Key.enter	Key.enter	n/a
121.723	7.692	243446	prompt	n/a	provincial fighting dispatched verde\n
122.4685	0.12	244937	keystroke_p	p	n/a
122.6035	0.105	245207	keystroke_r	r	n/a
122.7535	0.12	245507	keystroke_o	o	n/a
122.9035	0.09	245807	keystroke_v	v	n/a
123.0235	0.09	246047	keystroke_i	i	n/a
123.2335	0.12	246467	keystroke_n	n	n/a
123.3835	0.075	246767	keystroke_c	c	n/a
123.4135	0.12	246827	keystroke_i	i	n/a
123.6835	0.12	247367	keystroke_a	a	n/a
123.8635	0.075	247727	keystroke_l	l	n/a
124.0735	0.105	248147	keystroke_Key.space	Key.space	n/a
124.3735	0.105	248747	keystroke_f	f	n/a
124.4935	0.105	248987	keystroke_i	i	n/a
124.7785	0.075	249557	keystroke_g	g	n/a
124.9585	0.105	249917	keystroke_h	h	n/a
125.1085	0.105	250217	keystroke_t	t	n/a
125.2285	0.12	250457	keystroke_i	i	n/a
125.3635	0.105	250727	keystroke_n	n	n/a
125.4535	0.09	250907	keystroke_g	g	n/a
125.5585	0.105	251117	keystroke_Key.space	Key.space	n/a
125.8285	0.12	251657	keystroke_d	d	n/a
126.0835	0.135	252167	keystroke_i	i	n/a
126.3685	0.075	252737	keystroke_s	s	n/a
126.504	0.1345	253008	keystroke_p	p	n/a
126.6985	0.09	253397	keystroke_a	a	n/a
126.9535	0.075	253907	keystroke_t	t	n/a
127.0735	0.09	254147	keystroke_c	c	n/a
127.2085	0.075	254417	keystroke_h	h	n/a
127.2535	0.1205	254507	keystroke_e	e	n/a
127.344	0.1195	254688	keystroke_d	d	n/a
127.4635	0.09	254927	keystroke_Key.space	Key.space	n/a
127.989	0.09	255978	keystroke_v	v	n/a
128.064	0.105	256128	keystroke_e	e	n/a
128.229	0.0745	256458	keystroke_r	r	n/a
128.4535	0.1355	256907	keystroke_d	d	n/a
128.5275	0.1355	257055	keystroke_e	e	n/a
128.679	0.09	257358	keystroke_r	r	n/a
129.0685	0.09	258137	keystroke_Key.backspace	Key.backspace	n/a
129.2785	0.1345	258557	keystroke_Key.enter	Key.enter	n/a
129.418	4.197	258836	prompt	n/a	chart roof shorter carter\n
130.088	0.09	260176	keystroke_c	c	n/a
130.283	0.075	260566	keystroke_h	h	n/a
130.328	0.075	260656	keystroke_a	a	n/a
130.478	0.076	260956	keystroke_r	r	n/a
130.628	0.105	261256	keystroke_t	t	n/a
130.688	0.09	261376	keystroke_Key.space	Key.space	n/a
130.838	0.075	261676	keystroke_r	r	n/a
130.943	0.06	261886	keystroke_o	o	n/a
131.078	0.09	262156	keystroke_o	o	n/a
131.183	0.075	262366	keystroke_f	f	n/a
131.303	0.105	262606	keystroke_Key.space	Key.space	n/a
131.768	0.09	263536	keystroke_s	s	n/a
131.859	0.089	263718	keystroke_h	h	n/a
132.008	0.09	264016	keystroke_o	o	n/a
132.068	0.045	264136	keystroke_r	r	n/a
132.248	0.09	264496	keystroke_t	t	n/a
132.368	0.105	264736	keystroke_e	e	n/a
132.458	0.09	264916	keystroke_r	r	n/a
132.593	0.105	265186	keystroke_Key.space	Key.space	n/a
132.743	0.075	265486	keystroke_c	c	n/a
132.923	0.0755	265846	keystroke_a	a	n/a
133.0585	0.075	266117	keystroke_r	r	n/a
133.2385	0.09	266477	keystroke_t	t	n/a
133.313	0.1355	266626	keystroke_e	e	n/a
133.4335	0.09	266867	keystroke_r	r	n/a
133.4785	0.135	266957	keystroke_Key.enter	Key.enter	n/a
133.6175	6.837	267235	prompt	n/a	profit pontiac adds obituaries\n
134.4385	0.12	268877	keystroke_p	p	n/a
134.5735	0.09	269147	keystroke_r	r	n/a
134.6935	0.12	269387	keystroke_o	o	n/a
134.7835	0.09	269567	keystroke_f	f	n/a
134.9485	0.105	269897	keystroke_i	i	n/a
135.0985	0.075	270197	keystroke_t	t	n/a
135.2035	0.1195	270407	keystroke_Key.space	Key.space	n/a
135.788	0.075	271576	keystroke_p	p	n/a
136.298	0.075	272596	keystroke_o	o	n/a
136.493	0.09	272986	keystroke_n	n	n/a
136.628	0.09	273256	keystroke_t	t	n/a
136.778	0.09	273556	keystroke_i	i	n/a
136.883	0.075	273766	keystroke_a	a	n/a
137.108	0.075	274216	keystroke_c	c	n/a
137.258	0.0905	274516	keystroke_Key.space	Key.space	n/a
137.4085	0.09	274817	keystroke_a	a	n/a
137.6035	0.045	275207	keystroke_d	d	n/a
137.7685	0.105	275537	keystroke_d	d	n/a
137.8285	0.12	275657	keystroke_s	s	n/a
137.9635	0.0745	275927	keystroke_Key.space	Key.space	n/a
138.233	0.1205	276466	keystroke_o	o	n/a
138.5185	0.06	277037	keystroke_b	b	n/a
138.6835	0.12	277367	keystroke_i	i	n/a
138.7885	0.075	277577	keystroke_t	t	n/a
138.9235	0.1195	277847	keystroke_u	u	n/a
139.313	0.09	278626	keystroke_r	r	n/a
139.5235	0.09	279047	keystroke_a	a	n/a
139.7785	0.09	279557	keystroke_r	r	n/a
139.9585	0.09	279917	keystroke_i	i	n/a
140.0185	0.075	280037	keystroke_e	e	n/a
140.1685	0.105	280337	keystroke_s	s	n/a
140.2885	0.165	280577	keystroke_Key.enter	Key.enter	n/a
140.459	7.9615	280918	prompt	n/a	raises observe everyday college\n
141.143	0.09	282286	keystroke_r	r	n/a
141.3235	0.09	282647	keystroke_a	a	n/a
141.4735	0.105	282947	keystroke_i	i	n/a
141.5335	0.105	283067	keystroke_s	s	n/a
141.6685	0.075	283337	keystroke_e	e	n/a
141.849	0.0745	283698	keystroke_s	s	n/a
141.9685	0.075	283937	keystroke_Key.space	Key.space	n/a
142.1485	0.1205	284297	keystroke_o	o	n/a
142.284	0.12	284568	keystroke_v	v	n/a
142.6285	0.105	285257	keystroke_Key.backspace	Key.backspace	n/a
142.7185	0.075	285437	keystroke_b	b	n/a
142.8535	0.135	285707	keystroke_e	e	n/a
143.9785	0.09	287957	keystroke_Key.backspace	Key.backspace	n/a
144.1735	0.105	288347	keystroke_s	s	n/a
144.9535	0.105	289907	keystroke_e	e	n/a
145.0735	0.075	290147	keystroke_r	r	n/a
145.2685	0.105	290537	keystroke_v	v	n/a
145.3885	0.075	290777	keystroke_e	e	n/a
145.5235	0.105	291047	keystroke_Key.space	Key.space	n/a
146.138	0.105	292276	keystroke_e	e	n/a
146.333	0.09	292666	keystroke_v	v	n/a
146.408	0.135	292816	keystroke_e	e	n/a
146.528	0.105	293056	keystroke_r	r	n/a
146.693	0.195	293386	keystroke_y	y	n/a
146.903	0.06	293806	keystroke_d	d	n/a
147.008	0.1205	294016	keystroke_a	a	n/a
147.1295	0.074	294259	keystroke_y	y	n/a
147.3235	0.09	294647	keystroke_Key.space	Key.space	n/a
147.4435	0.075	294887	keystroke_c	c	n/a
147.5335	0.075	295067	keystroke_o	o	n/a
147.7135	0.06	295427	keystroke_l	l	n/a
147.8335	0.075	295667	keystroke_l	l	n/a
147.9385	0.0745	295877	keystroke_e	e	n/a
148.043	0.09	296086	keystroke_g	g	n/a
148.148	0.09	296296	keystroke_e	e	n/a
148.253	0.165	296506	keystroke_Key.enter	Key.enter	n/a
148.4245	5.9805	296849	prompt	n/a	silicon binding coordinates iron\n
149.123	0.09	298246	keystroke_s	s	n/a
149.288	0.105	298576	keystroke_i	i	n/a
149.528	0.105	299056	keystroke_l	l	n/a
149.634	0.105	299268	keystroke_i	i	n/a
149.723	0.09	299446	keystroke_c	c	n/a
149.873	0.075	299746	keystroke_o	o	n/a
150.068	0.075	300136	keystroke_n	n	n/a
150.233	0.09	300466	keystroke_Key.space	Key.space	n/a
151.088	0.075	302176	keystroke_b	b	n/a
151.178	0.12	302356	keystroke_i	i	n/a
151.313	0.12	302626	keystroke_n	n	n/a
151.418	0.09	302836	keystroke_d	d	n/a
151.538	0.12	303076	keystroke_i	i	n/a
151.673	0.12	303346	keystroke_n	n	n/a
151.778	0.09	303556	keystroke_g	g	n/a
151.913	0.1205	303826	keystroke_Key.space	Key.space	n/a
152.1085	0.09	304217	keystroke_c	c	n/a
152.2135	0.075	304427	keystroke_o	o	n/a
152.3635	0.105	304727	keystroke_o	o	n/a
152.4685	0.105	304937	keystroke_r	r	n/a
152.784	0.06	305568	keystroke_d	d	n/a
152.874	0.12	305748	keystroke_i	i	n/a
152.978	0.1205	305956	keystroke_n	n	n/a
153.0385	0.09	306077	keystroke_a	a	n/a
153.2335	0.105	306467	keystroke_t	t	n/a
153.3835	0.075	306767	keystroke_e	e	n/a
153.5335	0.105	307067	keystroke_s	s	n/a
153.5935	0.09	307187	keystroke_Key.space	Key.space	n/a
153.7585	0.09	307517	keystroke_i	i	n/a
153.8185	0.135	307637	keystroke_r	r	n/a
153.9385	0.06	307877	keystroke_o	o	n/a
154.0735	0.09	308147	keystroke_n	n	n/a
154.2535	0.15	308507	keystroke_Key.enter	Key.enter	n/a
154.409	6.791	308818	prompt	n/a	swingers structure hence irrigation\n
154.959	0.09	309918	keystroke_s	s	n/a
155.154	0.104	310308	keystroke_w	w	n/a
155.243	0.105	310486	keystroke_i	i	n/a
155.334	0.119	310668	keystroke_n	n	n/a
155.408	0.09	310816	keystroke_g	g	n/a
155.558	0.105	311116	keystroke_e	e	n/a
155.633	0.09	311266	keystroke_r	r	n/a
155.768	0.105	311536	keystroke_s	s	n/a
155.888	0.09	311776	keystroke_Key.space	Key.space	n/a
155.994	0.1045	311988	keystroke_s	s	n/a
156.2335	0.075	312467	keystroke_t	t	n/a
156.6235	0.09	313247	keystroke_r	r	n/a
156.7885	0.09	313577	keystroke_u	u	n/a
156.8635	0.06	313727	keystroke_c	c	n/a
157.0435	0.09	314087	keystroke_t	t	n/a
157.1485	0.09	314297	keystroke_u	u	n/a
157.2535	0.12	314507	keystroke_r	r	n/a
157.3135	0.1045	314627	keystroke_e	e	n/a
157.479	0.104	314958	keystroke_s	s	n/a
157.598	0.09	315196	keystroke_Key.space	Key.space	n/a
157.944	0.1195	315888	keystroke_h	h	n/a
158.2585	0.075	316517	keystroke_Key.backspace	Key.backspace	n/a
158.4235	0.06	316847	keystroke_Key.backspace	Key.backspace	n/a
158.5585	0.0895	317117	keystroke_Key.backspace	Key.backspace	n/a
158.768	0.09	317536	keystroke_Key.space	Key.space	n/a
159.023	0.105	318046	keystroke_h	h	n/a
159.143	0.045	318286	keystroke_e	e	n/a
159.249	0.1045	318498	keystroke_n	n	n/a
159.3385	0.12	318677	keystroke_c	c	n/a
159.4285	0.12	318857	keystroke_e	e	n/a
159.5335	0.09	319067	keystroke_Key.space	Key.space	n/a
159.8035	0.105	319607	keystroke_i	i	n/a
159.9085	0.075	319817	keystroke_r	r	n/a
160.0585	0.06	320117	keystroke_r	r	n/a
160.133	0.1205	320266	keystroke_i	i	n/a
160.2385	0.075	320477	keystroke_g	g	n/a
160.4185	0.06	320837	keystroke_a	a	n/a
160.5835	0.06	321167	keystroke_t	t	n/a
160.5985	0.135	321197	keystroke_i	i	n/a
160.6885	0.075	321377	keystroke_o	o	n/a
160.8685	0.075	321737	keystroke_n	n	n/a
161.0485	0.15	322097	keystroke_Key.enter	Key.enter	n/a
161.2025	6.1175	322405	prompt	n/a	senators bread different new\n
161.6335	0.09	323267	keystroke_s	s	n/a
161.8435	0.075	323687	keystroke_e	e	n/a
162.2935	0.075	324587	keystroke_n	n	n/a
162.3835	0.075	324767	keystroke_a	a	n/a
162.5635	0.09	325127	keystroke_t	t	n/a
162.7285	0.09	325457	keystroke_o	o	n/a
162.8335	0.0895	325667	keystroke_r	r	n/a
163.029	0.09	326058	keystroke_s	s	n/a
163.074	0.104	326148	keystroke_Key.space	Key.space	n/a
163.524	0.0745	327048	keystroke_b	b	n/a
163.5685	0.105	327137	keystroke_r	r	n/a
163.6285	0.075	327257	keystroke_e	e	n/a
163.8085	0.06	327617	keystroke_a	a	n/a
163.9285	0.09	327857	keystroke_d	d	n/a
164.0635	0.09	328127	keystroke_Key.space	Key.space	n/a
164.2435	0.075	328487	keystroke_d	d	n/a
164.3785	0.075	328757	keystroke_i	i	n/a
164.4385	0.075	328877	keystroke_f	f	n/a
164.6335	0.06	329267	keystroke_f	f	n/a
164.7235	0.105	329447	keystroke_e	e	n/a
164.8435	0.135	329687	keystroke_r	r	n/a
164.9185	0.12	329837	keystroke_e	e	n/a
165.0685	0.09	330137	keystroke_n	n	n/a
165.1885	0.105	330377	keystroke_t	t	n/a
165.384	0.074	330768	keystroke_Key.space	Key.space	n/a
165.773	0.075	331546	keystroke_Key.backspace	Key.backspace	n/a
165.938	0.075	331876	keystroke_Key.backspace	Key.backspace	n/a
166.494	0.075	332988	keystroke_t	t	n/a
166.643	0.076	333286	keystroke_Key.space	Key.space	n/a
166.824	0.09	333648	keystroke_n	n	n/a
166.929	0.135	333858	keystroke_e	e	n/a
166.973	0.136	333946	keystroke_w	w	n/a
167.138	0.1805	334276	keystroke_Key.enter	Key.enter	n/a
167.3225	5.8625	334645	prompt	n/a	heaven britain enhanced surgery\n
168.218	0.0905	336436	keystroke_h	h	n/a
168.278	0.1055	336556	keystroke_e	e	n/a
168.3235	0.12	336647	keystroke_a	a	n/a
168.4585	0.0755	336917	keystroke_v	v	n/a
168.549	0.09	337098	keystroke_e	e	n/a
168.684	0.075	337368	keystroke_n	n	n/a
168.864	0.0895	337728	keystroke_Key.space	Key.space	n/a
169.1035	0.09	338207	keystroke_b	b	n/a
169.2385	0.0905	338477	keystroke_r	r	n/a
169.344	0.135	338688	keystroke_i	i	n/a
169.494	0.09	338988	keystroke_t	t	n/a
169.689	0.1045	339378	keystroke_a	a	n/a
169.8235	0.135	339647	keystroke_i	i	n/a
169.9435	0.06	339887	keystroke_n	n	n/a
170.1085	0.09	340217	keystroke_Key.space	Key.space	n/a
170.3035	0.075	340607	keystroke_e	e	n/a
170.4085	0.09	340817	keystroke_n	n	n/a
170.9935	0.075	341987	keystroke_h	h	n/a
171.0985	0.09	342197	keystroke_a	a	n/a
171.2185	0.0905	342437	keystroke_n	n	n/a
171.324	0.09	342648	keystroke_c	c	n/a
171.399	0.12	342798	keystroke_e	e	n/a
171.564	0.09	343128	keystroke_d	d	n/a
171.669	0.09	343338	keystroke_Key.space	Key.space	n/a
171.834	0.1195	343668	keystroke_s	s	n/a
172.2085	0.105	344417	keystroke_u	u	n/a
172.3285	0.075	344657	keystroke_r	r	n/a
172.4785	0.09	344957	keystroke_g	g	n/a
172.5985	0.105	345197	keystroke_e	e	n/a
172.6735	0.105	345347	keystroke_r	r	n/a
172.8085	0.075	345617	keystroke_y	y	n/a
173.0185	0.165	346037	keystroke_Key.enter	Key.enter	n/a
173.19	5.53	346380	prompt	n/a	roughly sims president transexual\n
174.114	0.089	348228	keystroke_r	r	n/a
174.218	0.12	348436	keystroke_o	o	n/a
174.308	0.106	348616	keystroke_u	u	n/a
174.428	0.106	348856	keystroke_g	g	n/a
174.594	0.09	349188	keystroke_h	h	n/a
174.758	0.106	349516	keystroke_l	l	n/a
174.9685	0.075	349937	keystroke_y	y	n/a
175.193	0.105	350386	keystroke_Key.space	Key.space	n/a
175.388	0.09	350776	keystroke_s	s	n/a
175.493	0.121	350986	keystroke_i	i	n/a
175.568	0.121	351136	keystroke_m	m	n/a
175.704	0.105	351408	keystroke_s	s	n/a
175.823	0.075	351646	keystroke_Key.space	Key.space	n/a
176.019	0.089	352038	keystroke_p	p	n/a
176.094	0.089	352188	keystroke_r	r	n/a
176.153	0.06	352306	keystroke_e	e	n/a
176.303	0.1055	352606	keystroke_s	s	n/a
176.3785	0.105	352757	keystroke_i	i	n/a
176.498	0.135	352996	keystroke_d	d	n/a
176.574	0.149	353148	keystroke_e	e	n/a
176.708	0.075	353416	keystroke_n	n	n/a
176.843	0.09	353686	keystroke_t	t	n/a
176.934	0.104	353868	keystroke_Key.space	Key.space	n/a
177.098	0.09	354196	keystroke_t	t	n/a
177.263	0.09	354526	keystroke_r	r	n/a
177.413	0.09	354826	keystroke_a	a	n/a
177.548	0.09	355096	keystroke_n	n	n/a
177.623	0.091	355246	keystroke_s	s	n/a
177.788	0.105	355576	keystroke_e	e	n/a
178.013	0.09	356026	keystroke_x	x	n/a
178.163	0.09	356326	keystroke_u	u	n/a
178.268	0.075	356536	keystroke_a	a	n/a
178.358	0.12	356716	keystroke_l	l	n/a
178.538	0.18	357076	keystroke_Key.enter	Key.enter	n/a
178.723	5.607	357446	prompt	n/a	liberty opera switch classroom\n
179.4235	0.12	358847	keystroke_l	l	n/a
179.5435	0.075	359087	keystroke_i	i	n/a
179.7385	0.105	359477	keystroke_b	b	n/a
179.8285	0.075	359657	keystroke_e	e	n/a
180.0235	0.075	360047	keystroke_r	r	n/a
180.2035	0.075	360407	keystroke_t	t	n/a
180.2935	0.075	360587	keystroke_y	y	n/a
180.5035	0.0895	361007	keystroke_Key.space	Key.space	n/a
180.698	0.075	361396	keystroke_o	o	n/a
180.878	0.075	361756	keystroke_p	p	n/a
180.923	0.09	361846	keystroke_e	e	n/a
181.0735	0.075	362147	keystroke_r	r	n/a
181.2085	0.09	362417	keystroke_a	a	n/a
181.3135	0.075	362627	keystroke_Key.space	Key.space	n/a
181.4035	0.075	362807	keystroke_s	s	n/a
181.5685	0.09	363137	keystroke_w	w	n/a
181.6735	0.09	363347	keystroke_i	i	n/a
181.7635	0.075	363527	keystroke_t	t	n/a
181.9435	0.0895	363887	keystroke_c	c	n/a
182.048	0.06	364096	keystroke_h	h	n/a
182.228	0.075	364456	keystroke_Key.space	Key.space	n/a
182.363	0.075	364726	keystroke_c	c	n/a
182.483	0.12	364966	keystroke_l	l	n/a
182.588	0.105	365176	keystroke_a	a	n/a
182.663	0.09	365326	keystroke_s	s	n/a
182.843	0.075	365686	keystroke_s	s	n/a
183.1885	0.045	366377	keystroke_o	o	n/a
183.4735	0.105	366947	keystroke_Key.backspace	Key.backspace	n/a
183.5635	0.09	367127	keystroke_r	r	n/a
183.6835	0.075	367367	keystroke_o	o	n/a
183.8635	0.045	367727	keystroke_o	o	n/a
183.9985	0.075	367997	keystroke_m	m	n/a
184.1635	0.165	368327	keystroke_Key.enter	Key.enter	n/a
184.3325	5.488	368665	prompt	n/a	estonia whatever logical expectations\n
184.8985	0.075	369797	keystroke_e	e	n/a
185.1385	0.09	370277	keystroke_s	s	n/a
185.3035	0.09	370607	keystroke_t	t	n/a
185.3935	0.075	370787	keystroke_o	o	n/a
185.5435	0.105	371087	keystroke_n	n	n/a
185.6935	0.09	371387	keystroke_i	i	n/a
185.7985	0.09	371597	keystroke_a	a	n/a
185.9035	0.105	371807	keystroke_Key.space	Key.space	n/a
186.038	0.09	372076	keystroke_w	w	n/a
186.218	0.075	372436	keystroke_h	h	n/a
186.278	0.09	372556	keystroke_a	a	n/a
186.428	0.075	372856	keystroke_t	t	n/a
186.548	0.075	373096	keystroke_e	e	n/a
186.668	0.075	373336	keystroke_v	v	n/a
186.728	0.12	373456	keystroke_e	e	n/a
186.803	0.105	373606	keystroke_r	r	n/a
186.893	0.075	373786	keystroke_Key.space	Key.space	n/a
187.073	0.09	374146	keystroke_l	l	n/a
187.238	0.12	374476	keystroke_o	o	n/a
187.388	0.0755	374776	keystroke_g	g	n/a
187.4935	0.075	374987	keystroke_i	i	n/a
187.554	0.0595	375108	keystroke_c	c	n/a
187.7035	0.0905	375407	keystroke_a	a	n/a
187.779	0.06	375558	keystroke_l	l	n/a
187.944	0.09	375888	keystroke_Key.space	Key.space	n/a
188.019	0.075	376038	keystroke_e	e	n/a
188.199	0.105	376398	keystroke_x	x	n/a
188.319	0.09	376638	keystroke_p	p	n/a
188.499	0.09	376998	keystroke_e	e	n/a
188.724	0.0745	377448	keystroke_c	c	n/a
188.9185	0.045	377837	keystroke_t	t	n/a
189.0685	0.06	378137	keystroke_a	a	n/a
189.204	0.075	378408	keystroke_t	t	n/a
189.264	0.105	378528	keystroke_i	i	n/a
189.324	0.075	378648	keystroke_o	o	n/a
189.4885	0.09	378977	keystroke_n	n	n/a
189.5635	0.09	379127	keystroke_s	s	n/a
189.6985	0.12	379397	keystroke_Key.enter	Key.enter	n/a
189.823	8.847	379646	prompt	n/a	permanent aberdeen length popularity\n
190.418	0.105	380836	keystroke_p	p	n/a
190.508	0.121	381016	keystroke_e	e	n/a
190.584	0.104	381168	keystroke_r	r	n/a
190.688	0.091	381376	keystroke_m	m	n/a
190.793	0.105	381586	keystroke_a	a	n/a
190.943	0.1055	381886	keystroke_n	n	n/a
191.0785	0.135	382157	keystroke_e	e	n/a
191.2735	0.0605	382547	keystroke_n	n	n/a
191.364	0.09	382728	keystroke_t	t	n/a
191.4835	0.105	382967	keystroke_Key.space	Key.space	n/a
191.8135	0.105	383627	keystroke_a	a	n/a
191.9935	0.105	383987	keystroke_b	b	n/a
192.1135	0.135	384227	keystroke_e	e	n/a
192.2185	0.105	384437	keystroke_r	r	n/a
192.4735	0.135	384947	keystroke_d	d	n/a
192.6545	0.089	385309	keystroke_e	e	n/a
192.8335	0.105	385667	keystroke_e	e	n/a
192.9235	0.06	385847	keystroke_n	n	n/a
193.0735	0.075	386147	keystroke_Key.space	Key.space	n/a
193.2385	0.075	386477	keystroke_l	l	n/a
193.2985	0.075	386597	keystroke_e	e	n/a
193.4335	0.09	386867	keystroke_n	n	n/a
193.5085	0.075	387017	keystroke_g	g	n/a
193.6885	0.105	387377	keystroke_t	t	n/a
193.7635	0.06	387527	keystroke_h	h	n/a
193.9435	0.075	387887	keystroke_Key.space	Key.space	n/a
194.1385	0.135	388277	keystroke_p	p	n/a
194.2285	0.21	388457	keystroke_o	o	n/a
194.3935	0.15	388787	keystroke_p	p	n/a
194.7385	0.075	389477	keystroke_u	u	n/a
194.8885	0.12	389777	keystroke_l	l	n/a
194.9485	0.045	389897	keystroke_a	a	n/a
195.0835	0.09	390167	keystroke_t	t	n/a
195.639	0.09	391278	keystroke_i	i	n/a
195.759	0.075	391518	keystroke_r	r	n/a
195.924	0.06	391848	keystroke_y	y	n/a
196.374	0.075	392748	keystroke_Key.backspace	Key.backspace	n/a
196.524	0.12	393048	keystroke_Key.backspace	Key.backspace	n/a
196.808	0.105	393616	keystroke_Key.backspace	Key.backspace	n/a
197.649	0.089	395298	keystroke_Key.backspace	Key.backspace	n/a
197.783	0.106	395566	keystroke_r	r	n/a
197.919	0.104	395838	keystroke_i	i	n/a
198.038	0.1055	396076	keystroke_t	t	n/a
198.1585	0.06	396317	keystroke_y	y	n/a
198.5635	0.105	397127	keystroke_Key.enter	Key.enter	n/a
198.6815	6.0785	397363	prompt	n/a	ministers ensuring talent bother\n
199.3435	0.12	398687	keystroke_m	m	n/a
199.4785	0.105	398957	keystroke_i	i	n/a
199.6135	0.1205	399227	keystroke_n	n	n/a
199.794	0.105	399588	keystroke_i	i	n/a
200.064	0.09	400128	keystroke_s	s	n/a
200.244	0.075	400488	keystroke_t	t	n/a
200.32	0.104	400640	keystroke_e	e	n/a
200.409	0.0895	400818	keystroke_r	r	n/a
200.5435	0.105	401087	keystroke_s	s	n/a
200.6635	0.0895	401327	keystroke_Key.space	Key.space	n/a
200.888	0.091	401776	keystroke_e	e	n/a
200.993	0.1205	401986	keystroke_n	n	n/a
201.1145	0.104	402229	keystroke_s	s	n/a
201.309	0.0895	402618	keystroke_u	u	n/a
201.4135	0.09	402827	keystroke_r	r	n/a
201.5195	0.089	403039	keystroke_i	i	n/a
201.6685	0.12	403337	keystroke_n	n	n/a
201.8185	0.105	403637	keystroke_g	g	n/a
202.0285	0.09	404057	keystroke_Key.space	Key.space	n/a
202.2235	0.075	404447	keystroke_t	t	n/a
202.434	0.06	404868	keystroke_a	a	n/a
202.494	0.075	404988	keystroke_l	l	n/a
202.614	0.09	405228	keystroke_e	e	n/a
202.734	0.09	405468	keystroke_n	n	n/a
202.869	0.105	405738	keystroke_t	t	n/a
202.974	0.075	405948	keystroke_Key.space	Key.space	n/a
203.154	0.075	406308	keystroke_b	b	n/a
203.334	0.12	406668	keystroke_t	t	n/a
203.724	0.105	407448	keystroke_Key.backspace	Key.backspace	n/a
204.084	0.09	408168	keystroke_o	o	n/a
204.219	0.105	408438	keystroke_t	t	n/a
204.354	0.075	408708	keystroke_h	h	n/a
204.444	0.09	408888	keystroke_e	e	n/a
204.504	0.105	409008	keystroke_r	r	n/a
204.594	0.165	409188	keystroke_Key.enter	Key.enter	n/a
204.765	5.23	409530	prompt	n/a	gates dish cams this's\n
205.6435	0.09	411287	keystroke_g	g	n/a
205.7485	0.06	411497	keystroke_a	a	n/a
205.8535	0.09	411707	keystroke_t	t	n/a
206.0485	0.09	412097	keystroke_e	e	n/a
206.2285	0.06	412457	keystroke_s	s	n/a
206.3035	0.09	412607	keystroke_Key.space	Key.space	n/a
206.4085	0.09	412817	keystroke_d	d	n/a
206.5135	0.09	413027	keystroke_i	i	n/a
206.6485	0.09	413297	keystroke_s	s	n/a
206.7685	0.09	413537	keystroke_h	h	n/a
206.9785	0.105	413957	keystroke_Key.space	Key.space	n/a
207.3085	0.0905	414617	keystroke_c	c	n/a
207.474	0.09	414948	keystroke_a	a	n/a
207.594	0.09	415188	keystroke_m	m	n/a
207.729	0.09	415458	keystroke_e	e	n/a
207.894	0.09	415788	keystroke_s	s	n/a
208.464	0.06	416928	keystroke_Key.backspace	Key.backspace	n/a
208.599	0.075	417198	keystroke_Key.backspace	Key.backspace	n/a
208.674	0.105	417348	keystroke_s	s	n/a
208.854	0.105	417708	keystroke_Key.space	Key.space	n/a
208.944	0.075	417888	keystroke_t	t	n/a
209.079	0.105	418158	keystroke_h	h	n/a
209.274	0.105	418548	keystroke_i	i	n/a
209.499	0.09	418998	keystroke_s	s	n/a
209.709	0.09	419418	keystroke_'	'	n/a
209.814	0.075	419628	keystroke_s	s	n/a
209.949	0.045	419898	keystroke_Key.enter	Key.enter	n/a
209.998	9.117	419996	prompt	n/a	connectivity documentation ministers customers\n
210.6085	0.09	421217	keystroke_c	c	n/a
210.7135	0.09	421427	keystroke_o	o	n/a
210.9235	0.045	421847	keystroke_n	n	n/a
211.0585	0.09	422117	keystroke_n	n	n/a
211.0885	0.075	422177	keystroke_e	e	n/a
211.2685	0.06	422537	keystroke_c	c	n/a
211.464	0.0895	422928	keystroke_t	t	n/a
211.5685	0.105	423137	keystroke_i	i	n/a
211.6745	0.104	423349	keystroke_v	v	n/a
211.8085	0.135	423617	keystroke_i	i	n/a
211.9445	0.089	423889	keystroke_t	t	n/a
212.1385	0.075	424277	keystroke_y	y	n/a
212.3485	0.105	424697	keystroke_Key.space	Key.space	n/a
212.814	0.09	425628	keystroke_d	d	n/a
213.444	0.06	426888	keystroke_o	o	n/a
213.564	0.075	427128	keystroke_c	c	n/a
213.669	0.074	427338	keystroke_u	u	n/a
213.849	0.09	427698	keystroke_m	m	n/a
213.924	0.105	427848	keystroke_e	e	n/a
214.074	0.09	428148	keystroke_n	n	n/a
214.134	0.075	428268	keystroke_t	t	n/a
214.314	0.06	428628	keystroke_a	a	n/a
214.464	0.075	428928	keystroke_t	t	n/a
214.509	0.12	429018	keystroke_i	i	n/a
214.584	0.075	429168	keystroke_o	o	n/a
214.764	0.074	429528	keystroke_n	n	n/a
214.944	0.074	429888	keystroke_Key.space	Key.space	n/a
215.109	0.1045	430218	keystroke_m	m	n/a
215.1985	0.105	430397	keystroke_i	i	n/a
215.3485	0.1055	430697	keystroke_n	n	n/a
215.469	0.104	430938	keystroke_i	i	n/a
215.528	0.09	431056	keystroke_s	s	n/a
215.798	0.075	431596	keystroke_t	t	n/a
215.888	0.091	431776	keystroke_e	e	n/a
215.948	0.075	431896	keystroke_r	r	n/a
216.083	0.09	432166	keystroke_s	s	n/a
216.383	0.06	432766	keystroke_Key.backspace	Key.backspace	n/a
216.533	0.09	433066	keystroke_Key.backspace	Key.backspace	n/a
217.103	0.135	434206	keystroke_r	r	n/a
217.299	0.105	434598	keystroke_s	s	n/a
217.433	0.075	434866	keystroke_Key.space	Key.space	n/a
217.553	0.075	435106	keystroke_c	c	n/a
217.643	0.09	435286	keystroke_o	o	n/a
217.973	0.09	435946	keystroke_Key.backspace	Key.backspace	n/a
218.198	0.075	436396	keystroke_u	u	n/a
218.244	0.059	436488	keystroke_s	s	n/a
218.378	0.091	436756	keystroke_t	t	n/a
218.439	0.12	436878	keystroke_o	o	n/a
218.543	0.09	437086	keystroke_m	m	n/a
218.603	0.106	437206	keystroke_e	e	n/a
218.663	0.1055	437326	keystroke_r	r	n/a
218.8135	0.09	437627	keystroke_s	s	n/a
218.9635	0.15	437927	keystroke_Key.enter	Key.enter	n/a
219.125	7.31	438250	prompt	n/a	loose added separated buck\n
219.6985	0.09	439397	keystroke_l	l	n/a
219.8935	0.09	439787	keystroke_o	o	n/a
219.9985	0.06	439997	keystroke_s	s	n/a
220.1035	0.03	440207	keystroke_o	o	n/a
220.3435	0.06	440687	keystroke_Key.backspace	Key.backspace	n/a
220.4785	0.075	440957	keystroke_Key.backspace	Key.backspace	n/a
220.7185	0.09	441437	keystroke_o	o	n/a
220.8385	0.09	441677	keystroke_s	s	n/a
221.0335	0.06	442067	keystroke_e	e	n/a
221.1685	0.105	442337	keystroke_Key.space	Key.space	n/a
221.2585	0.0755	442517	keystroke_a	a	n/a
221.5885	0.075	443177	keystroke_d	d	n/a
221.7835	0.1195	443567	keystroke_d	d	n/a
221.933	0.12	443866	keystroke_e	e	n/a
222.068	0.09	444136	keystroke_d	d	n/a
222.203	0.105	444406	keystroke_Key.space	Key.space	n/a
222.293	0.105	444586	keystroke_s	s	n/a
222.728	0.09	445456	keystroke_e	e	n/a
222.848	0.105	445696	keystroke_p	p	n/a
223.148	0.12	446296	keystroke_a	a	n/a
224.2435	0.12	448487	keystroke_r	r	n/a
224.5735	0.09	449147	keystroke_a	a	n/a
224.7685	0.105	449537	keystroke_t	t	n/a
224.8585	0.09	449717	keystroke_e	e	n/a
225.0385	0.09	450077	keystroke_d	d	n/a
225.1585	0.075	450317	keystroke_Key.space	Key.space	n/a
225.6835	0.075	451367	keystroke_b	b	n/a
225.8935	0.075	451787	keystroke_u	u	n/a
225.9985	0.09	451997	keystroke_c	c	n/a
226.1035	0.075	452207	keystroke_k	k	n/a
226.314	0.12	452628	keystroke_Key.enter	Key.enter	n/a
226.44	5.8605	452880	prompt	n/a	temple deficit generation tight\n
227.0785	0.105	454157	keystroke_t	t	n/a
227.319	0.09	454638	keystroke_e	e	n/a
227.469	0.075	454938	keystroke_m	m	n/a
227.634	0.15	455268	keystroke_p	p	n/a
227.724	0.12	455448	keystroke_l	l	n/a
227.9635	0.105	455927	keystroke_e	e	n/a
228.3085	0.12	456617	keystroke_Key.space	Key.space	n/a
228.7285	0.15	457457	keystroke_d	d	n/a
228.8935	0.105	457787	keystroke_e	e	n/a
229.0885	0.075	458177	keystroke_f	f	n/a
229.2085	0.0905	458417	keystroke_i	i	n/a
229.2685	0.1055	458537	keystroke_c	c	n/a
229.419	0.105	458838	keystroke_i	i	n/a
229.569	0.075	459138	keystroke_t	t	n/a
229.719	0.09	459438	keystroke_Key.space	Key.space	n/a
230.274	0.09	460548	keystroke_g	g	n/a
230.349	0.075	460698	keystroke_e	e	n/a
230.499	0.09	460998	keystroke_n	n	n/a
230.544	0.075	461088	keystroke_e	e	n/a
230.694	0.075	461388	keystroke_r	r	n/a
230.814	0.075	461628	keystroke_a	a	n/a
230.979	0.09	461958	keystroke_t	t	n/a
231.024	0.12	462048	keystroke_i	i	n/a
231.099	0.105	462198	keystroke_o	o	n/a
231.294	0.09	462588	keystroke_n	n	n/a
231.459	0.09	462918	keystroke_Key.space	Key.space	n/a
231.564	0.105	463128	keystroke_t	t	n/a
231.654	0.09	463308	keystroke_i	i	n/a
231.774	0.105	463548	keystroke_g	g	n/a
231.909	0.075	463818	keystroke_h	h	n/a
231.999	0.09	463998	keystroke_t	t	n/a
232.134	0.165	464268	keystroke_Key.enter	Key.enter	n/a
232.3035	8.8015	464607	prompt	n/a	knight announced ordered inner\n
233.1685	0.135	466337	keystroke_k	k	n/a
233.3485	0.12	466697	keystroke_n	n	n/a
233.5435	0.12	467087	keystroke_i	i	n/a
233.6785	0.06	467357	keystroke_g	g	n/a
233.7985	0.09	467597	keystroke_h	h	n/a
233.8735	0.105	467747	keystroke_t	t	n/a
234.0685	0.1055	468137	keystroke_Key.space	Key.space	n/a
234.339	0.09	468678	keystroke_a	a	n/a
234.564	0.075	469128	keystroke_n	n	n/a
234.729	0.09	469458	keystroke_n	n	n/a
234.924	0.105	469848	keystroke_o	o	n/a
235.014	0.075	470028	keystroke_u	u	n/a
235.1935	0.09	470387	keystroke_n	n	n/a
235.7485	0.09	471497	keystroke_e	e	n/a
235.9585	0.105	471917	keystroke_d	d	n/a
236.1085	0.135	472217	keystroke_Key.space	Key.space	n/a
236.424	0.1045	472848	keystroke_o	o	n/a
236.874	0.0595	473748	keystroke_Key.backspace	Key.backspace	n/a
237.0385	0.06	474077	keystroke_Key.backspace	Key.backspace	n/a
237.204	0.075	474408	keystroke_Key.backspace	Key.backspace	n/a
237.5045	0.075	475009	keystroke_Key.backspace	Key.backspace	n/a
237.9535	0.091	475907	keystroke_c	c	n/a
238.1045	0.105	476209	keystroke_e	e	n/a
238.2395	0.074	476479	keystroke_d	d	n/a
238.3585	0.09	476717	keystroke_Key.space	Key.space	n/a
239.0185	0.105	478037	keystroke_o	o	n/a
239.2135	0.105	478427	keystroke_r	r	n/a
239.439	0.135	478878	keystroke_d	d	n/a
239.574	0.12	479148	keystroke_e	e	n/a
239.694	0.165	479388	keystroke_r	r	n/a
239.799	0.12	479598	keystroke_e	e	n/a
239.964	0.1345	479928	keystroke_d	d	n/a
240.1135	0.075	480227	keystroke_Key.space	Key.space	n/a
240.279	0.105	480558	keystroke_i	i	n/a
240.414	0.105	480828	keystroke_n	n	n/a
240.579	0.105	481158	keystroke_n	n	n/a
240.669	0.1055	481338	keystroke_e	e	n/a
240.7285	0.12	481457	keystroke_r	r	n/a
240.9385	0.165	481877	keystroke_Key.enter	Key.enter	n/a
241.116	5.6895	482232	prompt	n/a	saddam rising cnet textbook\n
241.7785	0.105	483557	keystroke_s	s	n/a
241.9885	0.075	483977	keystroke_a	a	n/a
242.1835	0.045	484367	keystroke_d	d	n/a
242.394	0.09	484788	keystroke_d	d	n/a
242.784	0.105	485568	keystroke_a	a	n/a
242.904	0.075	485808	keystroke_m	m	n/a
243.084	0.105	486168	keystroke_Key.space	Key.space	n/a
243.204	0.09	486408	keystroke_r	r	n/a
243.324	0.075	486648	keystroke_i	i	n/a
243.414	0.105	486828	keystroke_s	s	n/a
243.504	0.09	487008	keystroke_i	i	n/a
243.609	0.12	487218	keystroke_n	n	n/a
243.699	0.075	487398	keystroke_g	g	n/a
243.8485	0.135	487697	keystroke_Key.space	Key.space	n/a
244.1185	0.09	488237	keystroke_c	c	n/a
244.3585	0.091	488717	keystroke_n	n	n/a
244.4495	0.074	488899	keystroke_e	e	n/a
244.6145	0.105	489229	keystroke_t	t	n/a
244.7335	0.075	489467	keystroke_Key.space	Key.space	n/a
245.1695	0.12	490339	keystroke_t	t	n/a
245.2745	0.119	490549	keystroke_e	e	n/a
245.5285	0.121	491057	keystroke_x	x	n/a
245.8585	0.09	491717	keystroke_t	t	n/a
246.0235	0.091	492047	keystroke_b	b	n/a
246.2485	0.0605	492497	keystroke_o	o	n/a
246.459	0.03	492918	keystroke_o	o	n/a
246.474	0.09	492948	keystroke_k	k	n/a
246.654	0.15	493308	keystroke_Key.enter	Key.enter	n/a
246.808	6.8825	493616	prompt	n/a	sorts couldn't division char\n
247.359	0.105	494718	keystroke_s	s	n/a
247.509	0.075	495018	keystroke_o	o	n/a
247.585	0.059	495170	keystroke_r	r	n/a
247.749	0.075	495498	keystroke_t	t	n/a
247.884	0.075	495768	keystroke_s	s	n/a
247.989	0.09	495978	keystroke_Key.space	Key.space	n/a
248.124	0.09	496248	keystroke_c	c	n/a
248.244	0.15	496488	keystroke_o	o	n/a
248.379	0.105	496758	keystroke_u	u	n/a
248.604	0.12	497208	keystroke_l	l	n/a
248.8285	0.105	497657	keystroke_d	d	n/a
249.0085	0.09	498017	keystroke_n	n	n/a
249.594	0.09	499188	keystroke_'	'	n/a
249.834	0.015	499668	keystroke_y	y	n/a
250.464	0.09	500928	keystroke_Key.backspace	Key.backspace	n/a
250.599	0.045	501198	keystroke_t	t	n/a
250.749	0.09	501498	keystroke_Key.space	Key.space	n/a
251.124	0.09	502248	keystroke_d	d	n/a
251.244	0.1045	502488	keystroke_i	i	n/a
251.604	0.075	503208	keystroke_v	v	n/a
251.739	0.09	503478	keystroke_i	i	n/a
251.859	0.105	503718	keystroke_s	s	n/a
251.949	0.06	503898	keystroke_i	i	n/a
252.084	0.075	504168	keystroke_o	o	n/a
252.234	0.09	504468	keystroke_n	n	n/a
252.414	0.075	504828	keystroke_Key.space	Key.space	n/a
252.504	0.075	505008	keystroke_c	c	n/a
252.609	0.09	505218	keystroke_h	h	n/a
252.759	0.105	505518	keystroke_a	a	n/a
252.879	0.075	505758	keystroke_r	r	n/a
253.014	0.105	506028	keystroke_t	t	n/a
253.104	0.06	506208	keystroke_e	e	n/a
253.269	0.1045	506538	keystroke_r	r	n/a
253.5685	0.12	507137	keystroke_Key.enter	Key.enter	n/a
253.6935	4.467	507387	prompt	n/a	faster cost regard cement\n
254.7095	0.09	509419	keystroke_f	f	n/a
254.7845	0.105	509569	keystroke_a	a	n/a
254.8595	0.105	509719	keystroke_s	s	n/a
255.0245	0.09	510049	keystroke_t	t	n/a
255.1285	0.075	510257	keystroke_e	e	n/a
255.2945	0.075	510589	keystroke_r	r	n/a
255.3985	0.09	510797	keystroke_Key.space	Key.space	n/a
255.5335	0.09	511067	keystroke_c	c	n/a
255.6385	0.106	511277	keystroke_o	o	n/a
255.7895	0.074	511579	keystroke_s	s	n/a
255.9535	0.076	511907	keystroke_t	t	n/a
256.0585	0.105	512117	keystroke_Key.space	Key.space	n/a
256.2235	0.135	512447	keystroke_r	r	n/a
256.3135	0.105	512627	keystroke_e	e	n/a
256.4335	0.091	512867	keystroke_g	g	n/a
256.5385	0.075	513077	keystroke_a	a	n/a
256.6585	0.075	513317	keystroke_r	r	n/a
256.7485	0.06	513497	keystroke_d	d	n/a
256.8985	0.091	513797	keystroke_Key.space	Key.space	n/a
257.2895	0.104	514579	keystroke_c	c	n/a
257.4385	0.105	514877	keystroke_e	e	n/a
257.5885	0.105	515177	keystroke_m	m	n/a
257.6795	0.074	515359	keystroke_e	e	n/a
257.7985	0.091	515597	keystroke_n	n	n/a
257.8735	0.09	515747	keystroke_t	t	n/a
258.0385	0.1205	516077	keystroke_Key.enter	Key.enter	n/a
258.1635	6.417	516327	prompt	n/a	billion noble oils weekly\n
258.999	0.06	517998	keystroke_b	b	n/a
259.224	0.09	518448	keystroke_i	i	n/a
259.419	0.045	518838	keystroke_l	l	n/a
259.554	0.09	519108	keystroke_l	l	n/a
259.719	0.12	519438	keystroke_i	i	n/a
259.809	0.105	519618	keystroke_o	o	n/a
260.019	0.0745	520038	keystroke_n	n	n/a
260.1835	0.06	520367	keystroke_Key.space	Key.space	n/a
260.3635	0.075	520727	keystroke_b	b	n/a
260.7235	0.075	521447	keystroke_Key.backspace	Key.backspace	n/a
260.9335	0.076	521867	keystroke_n	n	n/a
261.099	0.075	522198	keystroke_o	o	n/a
261.219	0.075	522438	keystroke_b	b	n/a
261.369	0.075	522738	keystroke_l	l	n/a
261.504	0.075	523008	keystroke_e	e	n/a
261.609	0.075	523218	keystroke_Key.space	Key.space	n/a
262.0445	0.105	524089	keystroke_o	o	n/a
262.1195	0.105	524239	keystroke_i	i	n/a
262.2695	0.09	524539	keystroke_l	l	n/a
262.374	0.06	524748	keystroke_s	s	n/a
262.479	0.105	524958	keystroke_Key.space	Key.space	n/a
262.569	0.0755	525138	keystroke_w	w	n/a
262.599	0.0305	525198	keystroke_e	e	n/a
262.6745	0.075	525349	keystroke_e	e	n/a
263.4535	0.076	526907	keystroke_e	e	n/a
263.754	0.075	527508	keystroke_Key.backspace	Key.backspace	n/a
263.979	0.105	527958	keystroke_k	k	n/a
264.2035	0.105	528407	keystroke_l	l	n/a
264.3535	0.09	528707	keystroke_y	y	n/a
264.4585	0.12	528917	keystroke_Key.enter	Key.enter	n/a
264.583	9.4925	529166	prompt	n/a	navigator emerald simultaneously seeker\n
265.6445	0.0895	531289	keystroke_n	n	n/a
265.764	0.12	531528	keystroke_a	a	n/a
265.929	0.06	531858	keystroke_v	v	n/a
266.0795	0.0745	532159	keystroke_i	i	n/a
266.229	0.075	532458	keystroke_g	g	n/a
266.289	0.06	532578	keystroke_a	a	n/a
266.514	0.015	533028	keystroke_t	t	n/a
266.544	0.075	533088	keystroke_o	o	n/a
266.6635	0.0905	533327	keystroke_r	r	n/a
266.7835	0.12	533567	keystroke_Key.space	Key.space	n/a
267.069	0.0605	534138	keystroke_e	e	n/a
267.174	0.09	534348	keystroke_m	m	n/a
267.249	0.075	534498	keystroke_e	e	n/a
267.414	0.06	534828	keystroke_r	r	n/a
267.534	0.09	535068	keystroke_a	a	n/a
267.654	0.075	535308	keystroke_l	l	n/a
267.789	0.075	535578	keystroke_d	d	n/a
267.909	0.105	535818	keystroke_Key.space	Key.space	n/a
268.254	0.105	536508	keystroke_s	s	n/a
268.524	0.135	537048	keystroke_i	i	n/a
268.734	0.1345	537468	keystroke_m	m	n/a
269.0485	0.135	538097	keystroke_u	u	n/a
269.7545	0.134	539509	keystroke_l	l	n/a
270.5185	0.12	541037	keystroke_t	t	n/a
270.8335	0.105	541667	keystroke_a	a	n/a
270.9985	0.135	541997	keystroke_n	n	n/a
271.1035	0.105	542207	keystroke_e	e	n/a
271.449	0.12	542898	keystroke_o	o	n/a
271.599	0.12	543198	keystroke_u	u	n/a
271.764	0.12	543528	keystroke_s	s	n/a
271.899	0.0895	543798	keystroke_l	l	n/a
272.1235	0.075	544247	keystroke_y	y	n/a
272.334	0.1055	544668	keystroke_Key.space	Key.space	n/a
272.4395	0.075	544879	keystroke_a	a	n/a
272.7995	0.105	545599	keystroke_Key.backspace	Key.backspace	n/a
272.8595	0.105	545719	keystroke_s	s	n/a
273.1895	0.06	546379	keystroke_e	e	n/a
273.369	0.06	546738	keystroke_e	e	n/a
273.444	0.09	546888	keystroke_k	k	n/a
273.699	0.135	547398	keystroke_e	e	n/a
273.819	0.09	547638	keystroke_r	r	n/a
273.969	0.105	547938	keystroke_Key.enter	Key.enter	n/a
274.087	7.0085	548174	prompt	n/a	char hour administrative previously\n
274.674	0.0745	549348	keystroke_e	e	n/a
275.0035	0.09	550007	keystroke_Key.backspace	Key.backspace	n/a
275.0785	0.06	550157	keystroke_c	c	n/a
275.2885	0.0605	550577	keystroke_h	h	n/a
275.379	0.06	550758	keystroke_a	a	n/a
275.484	0.105	550968	keystroke_r	r	n/a
275.604	0.075	551208	keystroke_Key.space	Key.space	n/a
275.814	0.075	551628	keystroke_h	h	n/a
275.964	0.105	551928	keystroke_o	o	n/a
276.039	0.105	552078	keystroke_u	u	n/a
276.129	0.075	552258	keystroke_r	r	n/a
276.279	0.09	552558	keystroke_Key.space	Key.space	n/a
276.354	0.09	552708	keystroke_a	a	n/a
276.534	0.075	553068	keystroke_d	d	n/a
276.579	0.12	553158	keystroke_m	m	n/a
276.7	0.089	553400	keystroke_i	i	n/a
276.819	0.12	553638	keystroke_n	n	n/a
276.954	0.105	553908	keystroke_i	i	n/a
276.999	0.075	553998	keystroke_s	s	n/a
277.134	0.09	554268	keystroke_t	t	n/a
277.299	0.0755	554598	keystroke_r	r	n/a
277.4195	0.075	554839	keystroke_a	a	n/a
277.5995	0.075	555199	keystroke_t	t	n/a
277.7045	0.105	555409	keystroke_i	i	n/a
277.8395	0.15	555679	keystroke_v	v	n/a
278.1245	0.105	556249	keystroke_e	e	n/a
278.3195	0.075	556639	keystroke_Key.space	Key.space	n/a
278.874	0.15	557748	keystroke_p	p	n/a
279.009	0.12	558018	keystroke_r	r	n/a
279.069	0.105	558138	keystroke_e	e	n/a
279.279	0.105	558558	keystroke_v	v	n/a
279.399	0.12	558798	keystroke_i	i	n/a
279.489	0.12	558978	keystroke_o	o	n/a
279.654	0.075	559308	keystroke_l	l	n/a
279.969	0.075	559938	keystroke_Key.backspace	Key.backspace	n/a
280.1635	0.075	560327	keystroke_u	u	n/a
280.2985	0.1055	560597	keystroke_s	s	n/a
280.419	0.105	560838	keystroke_l	l	n/a
280.659	0.075	561318	keystroke_y	y	n/a
280.974	0.12	561948	keystroke_Key.enter	Key.enter	n/a
281.098	7.4225	562196	prompt	n/a	buildings robin slowly benefit\n
281.889	0.0745	563778	keystroke_b	b	n/a
282.0835	0.075	564167	keystroke_u	u	n/a
282.3235	0.0605	564647	keystroke_i	i	n/a
282.849	0.0605	565698	keystroke_l	l	n/a
282.954	0.075	565908	keystroke_d	d	n/a
283.179	0.105	566358	keystroke_i	i	n/a
283.314	0.105	566628	keystroke_n	n	n/a
283.434	0.075	566868	keystroke_g	g	n/a
283.734	0.09	567468	keystroke_s	s	n/a
283.869	0.1045	567738	keystroke_Key.space	Key.space	n/a
284.2885	0.09	568577	keystroke_r	r	n/a
284.4085	0.1355	568817	keystroke_o	o	n/a
284.6785	0.091	569357	keystroke_b	b	n/a
284.7535	0.12	569507	keystroke_i	i	n/a
284.8445	0.12	569689	keystroke_n	n	n/a
285.0995	0.12	570199	keystroke_Key.space	Key.space	n/a
285.429	0.09	570858	keystroke_s	s	n/a
285.549	0.105	571098	keystroke_l	l	n/a
286.164	0.09	572328	keystroke_o	o	n/a
286.299	0.075	572598	keystroke_w	w	n/a
286.419	0.12	572838	keystroke_l	l	n/a
286.719	0.075	573438	keystroke_y	y	n/a
286.9295	0.12	573859	keystroke_Key.space	Key.space	n/a
287.409	0.09	574818	keystroke_b	b	n/a
287.529	0.09	575058	keystroke_e	e	n/a
287.679	0.105	575358	keystroke_n	n	n/a
287.739	0.105	575478	keystroke_e	e	n/a
287.934	0.09	575868	keystroke_f	f	n/a
288.069	0.105	576138	keystroke_i	i	n/a
288.159	0.105	576318	keystroke_t	t	n/a
288.3695	0.15	576739	keystroke_Key.enter	Key.enter	n/a
288.5255	5.62	577051	prompt	n/a	reaching electro manuals device\n
289.1645	0.15	578329	keystroke_r	r	n/a
289.2395	0.105	578479	keystroke_e	e	n/a
289.4785	0.075	578957	keystroke_a	a	n/a
289.6585	0.091	579317	keystroke_c	c	n/a
289.7645	0.09	579529	keystroke_h	h	n/a
289.8695	0.105	579739	keystroke_i	i	n/a
289.9885	0.09	579977	keystroke_n	n	n/a
290.0635	0.076	580127	keystroke_g	g	n/a
290.2135	0.12	580427	keystroke_Key.space	Key.space	n/a
290.4245	0.09	580849	keystroke_e	e	n/a
290.5285	0.12	581057	keystroke_l	l	n/a
290.6345	0.075	581269	keystroke_e	e	n/a
290.8295	0.074	581659	keystroke_c	c	n/a
291.039	0.075	582078	keystroke_t	t	n/a
291.189	0.105	582378	keystroke_r	r	n/a
291.3085	0.061	582617	keystroke_o	o	n/a
291.4885	0.091	582977	keystroke_Key.space	Key.space	n/a
291.6985	0.075	583397	keystroke_m	m	n/a
291.7885	0.09	583577	keystroke_a	a	n/a
291.9235	0.076	583847	keystroke_n	n	n/a
292.0145	0.105	584029	keystroke_u	u	n/a
292.1335	0.09	584267	keystroke_a	a	n/a
292.2535	0.09	584507	keystroke_l	l	n/a
292.3595	0.0895	584719	keystroke_s	s	n/a
292.479	0.105	584958	keystroke_Key.space	Key.space	n/a
292.7785	0.135	585557	keystroke_d	d	n/a
292.8545	0.104	585709	keystroke_e	e	n/a
293.0485	0.075	586097	keystroke_v	v	n/a
293.1685	0.105	586337	keystroke_i	i	n/a
293.2885	0.12	586577	keystroke_d	d	n/a
293.6485	0.1055	587297	keystroke_Key.backspace	Key.backspace	n/a
293.739	0.105	587478	keystroke_c	c	n/a
293.859	0.12	587718	keystroke_e	e	n/a
293.994	0.15	587988	keystroke_Key.enter	Key.enter	n/a
294.1485	6.057	588297	prompt	n/a	livestock failed instances terrible\n
294.774	0.12	589548	keystroke_l	l	n/a
294.954	0.12	589908	keystroke_i	i	n/a
295.089	0.06	590178	keystroke_v	v	n/a
295.179	0.09	590358	keystroke_e	e	n/a
295.359	0.0755	590718	keystroke_s	s	n/a
295.479	0.09	590958	keystroke_t	t	n/a
295.569	0.09	591138	keystroke_o	o	n/a
295.704	0.075	591408	keystroke_c	c	n/a
295.794	0.06	591588	keystroke_k	k	n/a
295.959	0.1055	591918	keystroke_Key.space	Key.space	n/a
296.1995	0.1045	592399	keystroke_f	f	n/a
296.424	0.105	592848	keystroke_a	a	n/a
296.514	0.075	593028	keystroke_i	i	n/a
296.679	0.09	593358	keystroke_l	l	n/a
296.739	0.075	593478	keystroke_e	e	n/a
296.904	0.075	593808	keystroke_d	d	n/a
296.964	0.09	593928	keystroke_Key.space	Key.space	n/a
297.204	0.075	594408	keystroke_l	l	n/a
297.459	0.075	594918	keystroke_Key.backspace	Key.backspace	n/a
297.669	0.105	595338	keystroke_i	i	n/a
297.789	0.12	595578	keystroke_n	n	n/a
297.819	0.105	595638	keystroke_s	s	n/a
298.014	0.045	596028	keystroke_t	t	n/a
298.134	0.09	596268	keystroke_a	a	n/a
298.2535	0.105	596507	keystroke_n	n	n/a
298.3285	0.09	596657	keystroke_c	c	n/a
298.4335	0.075	596867	keystroke_e	e	n/a
298.5985	0.121	597197	keystroke_s	s	n/a
298.6735	0.09	597347	keystroke_Key.space	Key.space	n/a
298.9285	0.09	597857	keystroke_t	t	n/a
299.0785	0.1355	598157	keystroke_e	e	n/a
299.259	0.1055	598518	keystroke_r	r	n/a
299.4395	0.09	598879	keystroke_r	r	n/a
299.4545	0.09	598909	keystroke_i	i	n/a
299.5745	0.12	599149	keystroke_b	b	n/a
299.7995	0.09	599599	keystroke_l	l	n/a
299.9045	0.09	599809	keystroke_e	e	n/a
300.0545	0.15	600109	keystroke_Key.enter	Key.enter	n/a
300.2085	8.2475	600417	prompt	n/a	defense touch gives vertex\n
300.7585	0.151	601517	keystroke_d	d	n/a
300.8485	0.12	601697	keystroke_e	e	n/a
301.0145	0.104	602029	keystroke_n	n	n/a
301.344	0.06	602688	keystroke_Key.backspace	Key.backspace	n/a
301.539	0.12	603078	keystroke_f	f	n/a
301.629	0.105	603258	keystroke_e	e	n/a
302.0495	0.075	604099	keystroke_s	s	n/a
302.364	0.075	604728	keystroke_Key.backspace	Key.backspace	n/a
302.484	0.105	604968	keystroke_e	e	n/a
302.649	0.1055	605298	keystroke_n	n	n/a
302.7095	0.075	605419	keystroke_s	s	n/a
302.8145	0.105	605629	keystroke_e	e	n/a
302.9345	0.075	605869	keystroke_Key.space	Key.space	n/a
303.2645	0.06	606529	keystroke_Key.backspace	Key.backspace	n/a
303.4145	0.075	606829	keystroke_Key.backspace	Key.backspace	n/a
303.5795	0.075	607159	keystroke_Key.backspace	Key.backspace	n/a
303.7295	0.09	607459	keystroke_Key.backspace	Key.backspace	n/a
303.8945	0.1045	607789	keystroke_Key.backspace	Key.backspace	n/a
304.3445	0.105	608689	keystroke_e	e	n/a
304.5095	0.09	609019	keystroke_n	n	n/a
304.6135	0.091	609227	keystroke_s	s	n/a
304.8835	0.061	609767	keystroke_Key.backspace	Key.backspace	n/a
305.0345	0.074	610069	keystroke_Key.backspace	Key.backspace	n/a
305.1835	0.075	610367	keystroke_Key.backspace	Key.backspace	n/a
305.379	0.105	610758	keystroke_n	n	n/a
305.469	0.09	610938	keystroke_s	s	n/a
305.574	0.105	611148	keystroke_e	e	n/a
305.664	0.09	611328	keystroke_Key.space	Key.space	n/a
305.799	0.12	611598	keystroke_t	t	n/a
305.904	0.09	611808	keystroke_o	o	n/a
305.964	0.105	611928	keystroke_u	u	n/a
306.054	0.09	612108	keystroke_c	c	n/a
306.174	0.06	612348	keystroke_h	h	n/a
306.339	0.105	612678	keystroke_Key.space	Key.space	n/a
306.594	0.075	613188	keystroke_g	g	n/a
306.684	0.075	613368	keystroke_i	i	n/a
306.76	0.074	613520	keystroke_v	v	n/a
306.864	0.105	613728	keystroke_e	e	n/a
306.954	0.09	613908	keystroke_r	r	n/a
307.104	0.105	614208	keystroke_s	s	n/a
307.239	0.105	614478	keystroke_Key.space	Key.space	n/a
307.5545	0.06	615109	keystroke_v	v	n/a
307.5995	0.09	615199	keystroke_e	e	n/a
307.6595	0.105	615319	keystroke_r	r	n/a
307.8095	0.075	615619	keystroke_t	t	n/a
307.9145	0.075	615829	keystroke_e	e	n/a
308.1245	0.12	616249	keystroke_x	x	n/a
308.3045	0.15	616609	keystroke_Key.enter	Key.enter	n/a
308.4655	4.25	616931	prompt	n/a	moore defined shapes seconds\n
309.0245	0.09	618049	keystroke_m	m	n/a
309.1745	0.075	618349	keystroke_o	o	n/a
309.3245	0.074	618649	keystroke_o	o	n/a
309.3835	0.136	618767	keystroke_r	r	n/a
309.4895	0.075	618979	keystroke_e	e	n/a
309.5785	0.09	619157	keystroke_Key.space	Key.space	n/a
309.6845	0.119	619369	keystroke_d	d	n/a
309.8645	0.119	619729	keystroke_e	e	n/a
310.0595	0.074	620119	keystroke_f	f	n/a
310.1495	0.105	620299	keystroke_i	i	n/a
310.2395	0.119	620479	keystroke_n	n	n/a
310.3135	0.105	620627	keystroke_e	e	n/a
310.4335	0.1205	620867	keystroke_d	d	n/a
310.584	0.105	621168	keystroke_Key.space	Key.space	n/a
310.809	0.105	621618	keystroke_s	s	n/a
310.944	0.09	621888	keystroke_h	h	n/a
311.049	0.06	622098	keystroke_a	a	n/a
311.139	0.09	622278	keystroke_p	p	n/a
311.244	0.075	622488	keystroke_e	e	n/a
311.424	0.0745	622848	keystroke_s	s	n/a
311.5135	0.09	623027	keystroke_Key.space	Key.space	n/a
311.7985	0.09	623597	keystroke_s	s	n/a
311.9635	0.09	623927	keystroke_e	e	n/a
312.1735	0.06	624347	keystroke_c	c	n/a
312.2195	0.059	624439	keystroke_o	o	n/a
312.3385	0.09	624677	keystroke_n	n	n/a
312.3835	0.135	624767	keystroke_d	d	n/a
312.4585	0.12	624917	keystroke_s	s	n/a
312.5795	0.1345	625159	keystroke_Key.enter	Key.enter	n/a
312.718	4.843	625436	prompt	n/a	pain daniel helps alexander\n
313.2845	0.1045	626569	keystroke_p	p	n/a
313.374	0.105	626748	keystroke_a	a	n/a
313.494	0.12	626988	keystroke_i	i	n/a
313.599	0.09	627198	keystroke_n	n	n/a
313.779	0.105	627558	keystroke_Key.space	Key.space	n/a
313.839	0.09	627678	keystroke_d	d	n/a
313.9745	0.105	627949	keystroke_a	a	n/a
314.0645	0.075	628129	keystroke_n	n	n/a
314.1545	0.105	628309	keystroke_i	i	n/a
314.3045	0.09	628609	keystroke_e	e	n/a
314.4095	0.075	628819	keystroke_l	l	n/a
314.5895	0.105	629179	keystroke_Key.space	Key.space	n/a
315.204	0.075	630408	keystroke_h	h	n/a
315.369	0.06	630738	keystroke_e	e	n/a
315.459	0.075	630918	keystroke_l	l	n/a
315.639	0.075	631278	keystroke_p	p	n/a
315.789	0.105	631578	keystroke_s	s	n/a
315.909	0.075	631818	keystroke_Key.space	Key.space	n/a
316.374	0.09	632748	keystroke_a	a	n/a
316.465	0.104	632930	keystroke_l	l	n/a
316.554	0.075	633108	keystroke_e	e	n/a
316.749	0.09	633498	keystroke_x	x	n/a
316.9145	0.09	633829	keystroke_a	a	n/a
317.0345	0.075	634069	keystroke_n	n	n/a
317.1245	0.105	634249	keystroke_d	d	n/a
317.2145	0.105	634429	keystroke_e	e	n/a
317.3345	0.075	634669	keystroke_r	r	n/a
317.4245	0.135	634849	keystroke_Key.enter	Key.enter	n/a
317.571	11.885	635142	prompt	n/a	ethernet kazakhstan photographers computing\n
318.2495	0.075	636499	keystroke_e	e	n/a
318.4595	0.09	636919	keystroke_t	t	n/a
318.5795	0.09	637159	keystroke_h	h	n/a
318.6245	0.12	637249	keystroke_e	e	n/a
318.7145	0.09	637429	keystroke_r	r	n/a
318.8345	0.105	637669	keystroke_n	n	n/a
318.9245	0.09	637849	keystroke_e	e	n/a
319.0295	0.1045	638059	keystroke_t	t	n/a
319.149	0.12	638298	keystroke_Key.space	Key.space	n/a
320.034	0.105	640068	keystroke_k	k	n/a
320.154	0.06	640308	keystroke_a	a	n/a
320.724	0.12	641448	keystroke_z	z	n/a
321.429	0.105	642858	keystroke_a	a	n/a
321.609	0.135	643218	keystroke_k	k	n/a
322.389	0.09	644778	keystroke_h	h	n/a
322.509	0.09	645018	keystroke_s	s	n/a
322.689	0.075	645378	keystroke_t	t	n/a
322.794	0.09	645588	keystroke_a	a	n/a
322.914	0.09	645828	keystroke_n	n	n/a
323.109	0.09	646218	keystroke_Key.space	Key.space	n/a
324.0245	0.09	648049	keystroke_p	p	n/a
324.3095	0.06	648619	keystroke_h	h	n/a
324.4745	0.09	648949	keystroke_o	o	n/a
324.5655	0.074	649131	keystroke_t	t	n/a
325.6295	0.135	651259	keystroke_o	o	n/a
326.1245	0.03	652249	keystroke_r	r	n/a
326.4385	0.09	652877	keystroke_Key.backspace	Key.backspace	n/a
326.7085	0.091	653417	keystroke_g	g	n/a
326.7695	0.075	653539	keystroke_r	r	n/a
326.9045	0.12	653809	keystroke_a	a	n/a
327.0395	0.075	654079	keystroke_p	p	n/a
327.264	0.0605	654528	keystroke_h	h	n/a
327.3695	0.105	654739	keystroke_e	e	n/a
327.4295	0.105	654859	keystroke_r	r	n/a
327.5795	0.12	655159	keystroke_s	s	n/a
327.7145	0.0895	655429	keystroke_Key.space	Key.space	n/a
328.089	0.09	656178	keystroke_c	c	n/a
328.194	0.0905	656388	keystroke_o	o	n/a
328.3445	0.09	656689	keystroke_m	m	n/a
328.5545	0.105	657109	keystroke_p	p	n/a
328.7495	0.075	657499	keystroke_u	u	n/a
328.8545	0.09	657709	keystroke_t	t	n/a
328.9745	0.1345	657949	keystroke_i	i	n/a
329.079	0.1055	658158	keystroke_n	n	n/a
329.1995	0.075	658399	keystroke_g	g	n/a
329.319	0.135	658638	keystroke_Key.enter	Key.enter	n/a
329.4655	6.0655	658931	prompt	n/a	honduras consent preparation universe\n
330.339	0.09	660678	keystroke_h	h	n/a
330.519	0.0755	661038	keystroke_o	o	n/a
330.6995	0.09	661399	keystroke_n	n	n/a
330.8045	0.045	661609	keystroke_d	d	n/a
330.9245	0.075	661849	keystroke_u	u	n/a
330.9695	0.075	661939	keystroke_r	r	n/a
331.1195	0.12	662239	keystroke_a	a	n/a
331.2245	0.1045	662449	keystroke_s	s	n/a
331.374	0.09	662748	keystroke_Key.space	Key.space	n/a
331.5845	0.075	663169	keystroke_c	c	n/a
331.6895	0.075	663379	keystroke_o	o	n/a
331.8845	0.09	663769	keystroke_n	n	n/a
331.914	0.09	663828	keystroke_s	s	n/a
332.034	0.1205	664068	keystroke_e	e	n/a
332.1845	0.09	664369	keystroke_n	n	n/a
332.3045	0.075	664609	keystroke_t	t	n/a
332.394	0.105	664788	keystroke_Key.space	Key.space	n/a
332.635	0.135	665270	keystroke_p	p	n/a
332.8	0.149	665600	keystroke_r	r	n/a
332.904	0.09	665808	keystroke_e	e	n/a
333.039	0.091	666078	keystroke_p	p	n/a
333.16	0.089	666320	keystroke_a	a	n/a
333.3995	0.105	666799	keystroke_r	r	n/a
333.5795	0.06	667159	keystroke_a	a	n/a
333.7445	0.09	667489	keystroke_t	t	n/a
333.8195	0.09	667639	keystroke_i	i	n/a
333.8645	0.09	667729	keystroke_o	o	n/a
334.0445	0.09	668089	keystroke_n	n	n/a
334.2245	0.075	668449	keystroke_Key.space	Key.space	n/a
334.3595	0.165	668719	keystroke_u	u	n/a
334.4795	0.12	668959	keystroke_n	n	n/a
334.6445	0.12	669289	keystroke_i	i	n/a
334.7945	0.105	669589	keystroke_v	v	n/a
334.9445	0.105	669889	keystroke_e	e	n/a
335.0195	0.105	670039	keystroke_r	r	n/a
335.1845	0.12	670369	keystroke_s	s	n/a
335.2895	0.105	670579	keystroke_e	e	n/a
335.4095	0.12	670819	keystroke_Key.enter	Key.enter	n/a
335.536	6.34	671072	prompt	n/a	knows drums boxed integrated\n
336.1745	0.075	672349	keystroke_k	k	n/a
336.5645	0.075	673129	keystroke_n	n	n/a
336.6995	0.12	673399	keystroke_o	o	n/a
336.7895	0.075	673579	keystroke_w	w	n/a
336.9995	0.09	673999	keystroke_s	s	n/a
337.1495	0.105	674299	keystroke_Key.space	Key.space	n/a
337.449	0.075	674898	keystroke_d	d	n/a
337.674	0.12	675348	keystroke_r	r	n/a
337.839	0.12	675678	keystroke_u	u	n/a
338.019	0.09	676038	keystroke_m	m	n/a
338.139	0.075	676278	keystroke_s	s	n/a
338.229	0.06	676458	keystroke_Key.space	Key.space	n/a
338.364	0.075	676728	keystroke_b	b	n/a
338.529	0.09	677058	keystroke_o	o	n/a
338.604	0.09	677208	keystroke_x	x	n/a
338.829	0.06	677658	keystroke_e	e	n/a
339.025	0.06	678050	keystroke_d	d	n/a
339.1	0.074	678200	keystroke_Key.space	Key.space	n/a
339.235	0.1345	678470	keystroke_i	i	n/a
339.325	0.1345	678650	keystroke_n	n	n/a
339.4445	0.09	678889	keystroke_t	t	n/a
339.7595	0.105	679519	keystroke_e	e	n/a
340.0885	0.09	680177	keystroke_g	g	n/a
340.1335	0.075	680267	keystroke_r	r	n/a
340.2835	0.0905	680567	keystroke_a	a	n/a
340.434	0.075	680868	keystroke_t	t	n/a
340.479	0.09	680958	keystroke_e	e	n/a
340.674	0.075	681348	keystroke_d	d	n/a
340.764	0.075	681528	keystroke_Key.space	Key.space	n/a
341.5595	0.105	683119	keystroke_Key.backspace	Key.backspace	n/a
341.7695	0.105	683539	keystroke_Key.enter	Key.enter	n/a
341.8805	7.9155	683761	prompt	n/a	essex welfare foods repairs\n
342.4145	0.075	684829	keystroke_e	e	n/a
342.6095	0.06	685219	keystroke_x	x	n/a
342.7745	0.0745	685549	keystroke_x	x	n/a
342.954	0.075	685908	keystroke_e	e	n/a
344.0495	0.045	688099	keystroke_Key.backspace	Key.backspace	n/a
344.199	0.06	688398	keystroke_Key.backspace	Key.backspace	n/a
344.364	0.045	688728	keystroke_Key.backspace	Key.backspace	n/a
344.514	0.105	689028	keystroke_s	s	n/a
344.7695	0.105	689539	keystroke_s	s	n/a
344.92	0.0895	689840	keystroke_e	e	n/a
345.1445	0.075	690289	keystroke_x	x	n/a
345.2345	0.1045	690469	keystroke_Key.space	Key.space	n/a
345.354	0.12	690708	keystroke_w	w	n/a
345.444	0.135	690888	keystroke_e	e	n/a
345.564	0.075	691128	keystroke_l	l	n/a
345.879	0.09	691758	keystroke_f	f	n/a
345.984	0.0605	691968	keystroke_a	a	n/a
346.1495	0.15	692299	keystroke_r	r	n/a
346.2245	0.105	692449	keystroke_e	e	n/a
346.3145	0.105	692629	keystroke_Key.space	Key.space	n/a
347.589	0.075	695178	keystroke_f	f	n/a
347.724	0.06	695448	keystroke_o	o	n/a
347.844	0.09	695688	keystroke_o	o	n/a
347.949	0.105	695898	keystroke_d	d	n/a
348.009	0.105	696018	keystroke_s	s	n/a
348.099	0.105	696198	keystroke_Key.space	Key.space	n/a
348.459	0.0905	696918	keystroke_r	r	n/a
348.669	0.1055	697338	keystroke_e	e	n/a
348.9545	0.1345	697909	keystroke_p	p	n/a
349.134	0.12	698268	keystroke_a	a	n/a
349.344	0.105	698688	keystroke_i	i	n/a
349.45	0.119	698900	keystroke_r	r	n/a
349.584	0.12	699168	keystroke_s	s	n/a
349.674	0.12	699348	keystroke_Key.enter	Key.enter	n/a
349.806	6.5445	699612	prompt	n/a	interventions basic somebody trim\n
350.409	0.075	700818	keystroke_i	i	n/a
350.514	0.135	701028	keystroke_n	n	n/a
350.589	0.075	701178	keystroke_t	t	n/a
350.709	0.12	701418	keystroke_e	e	n/a
350.814	0.075	701628	keystroke_r	r	n/a
350.904	0.0755	701808	keystroke_v	v	n/a
351.0395	0.09	702079	keystroke_e	e	n/a
351.1595	0.09	702319	keystroke_n	n	n/a
351.2645	0.075	702529	keystroke_t	t	n/a
351.3845	0.12	702769	keystroke_i	i	n/a
351.4445	0.105	702889	keystroke_o	o	n/a
351.6395	0.09	703279	keystroke_n	n	n/a
351.7595	0.06	703519	keystroke_s	s	n/a
351.8345	0.075	703669	keystroke_Key.space	Key.space	n/a
352.3295	0.1045	704659	keystroke_b	b	n/a
352.42	0.104	704840	keystroke_a	a	n/a
352.48	0.104	704960	keystroke_s	s	n/a
352.6	0.119	705200	keystroke_i	i	n/a
352.81	0.119	705620	keystroke_c	c	n/a
353.109	0.09	706218	keystroke_Key.space	Key.space	n/a
353.8745	0.105	707749	keystroke_s	s	n/a
354.2795	0.09	708559	keystroke_o	o	n/a
354.3395	0.12	708679	keystroke_m	m	n/a
354.4745	0.09	708949	keystroke_e	e	n/a
354.6245	0.075	709249	keystroke_b	b	n/a
354.8045	0.09	709609	keystroke_o	o	n/a
354.9245	0.09	709849	keystroke_d	d	n/a
355.0295	0.075	710059	keystroke_y	y	n/a
355.2395	0.1045	710479	keystroke_Key.space	Key.space	n/a
355.539	0.105	711078	keystroke_t	t	n/a
355.779	0.12	711558	keystroke_r	r	n/a
355.884	0.135	711768	keystroke_i	i	n/a
355.959	0.12	711918	keystroke_m	m	n/a
356.184	0.165	712368	keystroke_Key.enter	Key.enter	n/a
356.354	15.222	712708	prompt	n/a	cloud webcast algorithm specific\n
357.009	0.105	714018	keystroke_c	c	n/a
357.174	0.09	714348	keystroke_l	l	n/a
357.3695	0.105	714739	keystroke_o	o	n/a
357.5195	0.075	715039	keystroke_u	u	n/a
357.6245	0.12	715249	keystroke_d	d	n/a
357.789	0.12	715578	keystroke_Key.space	Key.space	n/a
358.03	0.1195	716060	keystroke_w	w	n/a
358.1195	0.105	716239	keystroke_e	e	n/a
358.344	0.09	716688	keystroke_b	b	n/a
358.6595	0.075	717319	keystroke_c	c	n/a
358.8395	0.105	717679	keystroke_a	a	n/a
358.8845	0.135	717769	keystroke_s	s	n/a
359.1095	0.06	718219	keystroke_t	t	n/a
359.319	0.105	718638	keystroke_Key.space	Key.space	n/a
359.559	0.105	719118	keystroke_a	a	n/a
359.695	0.15	719390	keystroke_l	l	n/a
359.92	0.075	719840	keystroke_g	g	n/a
360.039	0.121	720078	keystroke_o	o	n/a
360.205	0.075	720410	keystroke_r	r	n/a
360.384	0.091	720768	keystroke_t	t	n/a
360.475	0.0745	720950	keystroke_i	i	n/a
360.8345	0.09	721669	keystroke_Key.backspace	Key.backspace	n/a
361.0895	0.12	722179	keystroke_h	h	n/a
361.2395	0.135	722479	keystroke_i	i	n/a
361.4345	0.12	722869	keystroke_m	m	n/a
361.7795	0.06	723559	keystroke_Key.backspace	Key.backspace	n/a
361.93	0.06	723860	keystroke_Key.backspace	Key.backspace	n/a
362.14	0.09	724280	keystroke_m	m	n/a
362.3945	0.09	724789	keystroke_Key.space	Key.space	n/a
362.9495	0.06	725899	keystroke_Key.backspace	Key.backspace	n/a
363.1295	0.075	726259	keystroke_Key.backspace	Key.backspace	n/a
363.3095	0.06	726619	keystroke_Key.backspace	Key.backspace	n/a
363.5045	0.06	727009	keystroke_Key.backspace	Key.backspace	n/a
363.9545	0.12	727909	keystroke_Key.backspace	Key.backspace	n/a
365.8445	0.105	731689	keystroke_r	r	n/a
365.9945	0.165	731989	keystroke_i	i	n/a
366.1145	0.105	732229	keystroke_t	t	n/a
366.3245	0.1055	732649	keystroke_h	h	n/a
366.444	0.1355	732888	keystroke_i	i	n/a
366.5945	0.06	733189	keystroke_n	n	n/a
366.894	0.0755	733788	keystroke_Key.space	Key.space	n/a
367.239	0.06	734478	keystroke_Key.backspace	Key.backspace	n/a
367.404	0.045	734808	keystroke_Key.backspace	Key.backspace	n/a
367.554	0.075	735108	keystroke_Key.backspace	Key.backspace	n/a
367.93	0.105	735860	keystroke_m	m	n/a
368.649	0.0905	737298	keystroke_Key.space	Key.space	n/a
368.8745	0.12	737749	keystroke_s	s	n/a
369.1295	0.15	738259	keystroke_o	o	n/a
369.1595	0.105	738319	keystroke_e	e	n/a
369.8945	0.09	739789	keystroke_Key.backspace	Key.backspace	n/a
370.0745	0.09	740149	keystroke_Key.backspace	Key.backspace	n/a
370.5395	0.06	741079	keystroke_p	p	n/a
370.5995	0.0895	741199	keystroke_e	e	n/a
370.809	0.105	741618	keystroke_c	c	n/a
370.929	0.105	741858	keystroke_i	i	n/a
371.035	0.09	742070	keystroke_f	f	n/a
371.17	0.105	742340	keystroke_i	i	n/a
371.26	0.09	742520	keystroke_c	c	n/a
371.4245	0.15	742849	keystroke_Key.enter	Key.enter	n/a
371.5865	10.6845	743173	prompt	n/a	responsible renew circular significantly\n
372.1445	0.165	744289	keystroke_r	r	n/a
372.2495	0.09	744499	keystroke_e	e	n/a
372.4145	0.105	744829	keystroke_s	s	n/a
372.4595	0.12	744919	keystroke_p	p	n/a
372.5345	0.09	745069	keystroke_o	o	n/a
372.6395	0.12	745279	keystroke_s	s	n/a
372.7745	0.09	745549	keystroke_n	n	n/a
372.9245	0.12	745849	keystroke_s	s	n/a
372.9395	0.075	745879	keystroke_i	i	n/a
373.1945	0.075	746389	keystroke_b	b	n/a
373.3895	0.09	746779	keystroke_l	l	n/a
373.4945	0.09	746989	keystroke_e	e	n/a
373.6445	0.09	747289	keystroke_Key.space	Key.space	n/a
374.199	0.06	748398	keystroke_Key.backspace	Key.backspace	n/a
374.379	0.06	748758	keystroke_Key.backspace	Key.backspace	n/a
374.529	0.075	749058	keystroke_Key.backspace	Key.backspace	n/a
374.739	0.045	749478	keystroke_Key.backspace	Key.backspace	n/a
375.219	0.1055	750438	keystroke_Key.backspace	Key.backspace	n/a
375.4745	0.105	750949	keystroke_Key.backspace	Key.backspace	n/a
376.3895	0.06	752779	keystroke_Key.backspace	Key.backspace	n/a
376.6595	0.0745	753319	keystroke_i	i	n/a
376.7645	0.075	753529	keystroke_b	b	n/a
376.9	0.074	753800	keystroke_l	l	n/a
377.034	0.091	754068	keystroke_e	e	n/a
377.169	0.09	754338	keystroke_Key.space	Key.space	n/a
377.5895	0.15	755179	keystroke_r	r	n/a
377.6795	0.12	755359	keystroke_e	e	n/a
377.8295	0.12	755659	keystroke_n	n	n/a
377.9945	0.105	755989	keystroke_e	e	n/a
378.2045	0.0895	756409	keystroke_w	w	n/a
378.324	0.105	756648	keystroke_Key.space	Key.space	n/a
378.52	0.09	757040	keystroke_c	c	n/a
378.849	0.135	757698	keystroke_i	i	n/a
378.939	0.075	757878	keystroke_r	r	n/a
379.119	0.09	758238	keystroke_c	c	n/a
379.225	0.074	758450	keystroke_u	u	n/a
379.389	0.105	758778	keystroke_l	l	n/a
379.509	0.075	759018	keystroke_a	a	n/a
379.659	0.09	759318	keystroke_r	r	n/a
379.764	0.09	759528	keystroke_Key.space	Key.space	n/a
380.0345	0.09	760069	keystroke_s	s	n/a
380.1395	0.12	760279	keystroke_i	i	n/a
380.3945	0.105	760789	keystroke_g	g	n/a
380.5595	0.105	761119	keystroke_n	n	n/a
380.7095	0.165	761419	keystroke_i	i	n/a
380.979	0.075	761958	keystroke_f	f	n/a
381.084	0.135	762168	keystroke_i	i	n/a
381.159	0.061	762318	keystroke_c	c	n/a
381.294	0.105	762588	keystroke_a	a	n/a
381.474	0.075	762948	keystroke_n	n	n/a
381.564	0.105	763128	keystroke_t	t	n/a
381.684	0.09	763368	keystroke_l	l	n/a
381.894	0.09	763788	keystroke_y	y	n/a
382.134	0.135	764268	keystroke_Key.enter	Key.enter	n/a
382.281	5.15	764562	prompt	n/a	laura shoes conditioning leader\n
382.8395	0.105	765679	keystroke_l	l	n/a
382.9445	0.105	765889	keystroke_a	a	n/a
383.1245	0.09	766249	keystroke_u	u	n/a
383.2445	0.075	766489	keystroke_r	r	n/a
383.4695	0.09	766939	keystroke_a	a	n/a
383.6195	0.0895	767239	keystroke_Key.space	Key.space	n/a
383.709	0.09	767418	keystroke_s	s	n/a
383.844	0.075	767688	keystroke_h	h	n/a
383.994	0.0905	767988	keystroke_o	o	n/a
384.0545	0.1055	768109	keystroke_e	e	n/a
384.235	0.105	768470	keystroke_s	s	n/a
384.354	0.076	768708	keystroke_Key.space	Key.space	n/a
384.685	0.09	769370	keystroke_c	c	n/a
384.76	0.075	769520	keystroke_o	o	n/a
384.955	0.1045	769910	keystroke_n	n	n/a
385.2245	0.09	770449	keystroke_d	d	n/a
385.3295	0.09	770659	keystroke_i	i	n/a
385.4345	0.12	770869	keystroke_t	t	n/a
385.5395	0.105	771079	keystroke_i	i	n/a
385.6145	0.09	771229	keystroke_o	o	n/a
385.8095	0.12	771619	keystroke_n	n	n/a
385.9445	0.12	771889	keystroke_i	i	n/a
386.0495	0.09	772099	keystroke_n	n	n/a
386.1545	0.06	772309	keystroke_g	g	n/a
386.2295	0.105	772459	keystroke_Key.space	Key.space	n/a
386.4095	0.135	772819	keystroke_l	l	n/a
386.5145	0.105	773029	keystroke_e	e	n/a
386.5745	0.135	773149	keystroke_a	a	n/a
386.8445	0.105	773689	keystroke_d	d	n/a
386.9345	0.12	773869	keystroke_e	e	n/a
387.0545	0.105	774109	keystroke_r	r	n/a
387.2495	0.18	774499	keystroke_Key.enter	Key.enter	n/a
387.436	6.85	774872	prompt	n/a	czech vast disposition leeds\n
388.72	0.09	777440	keystroke_c	c	n/a
388.915	0.09	777830	keystroke_z	z	n/a
389.095	0.059	778190	keystroke_e	e	n/a
389.274	0.105	778548	keystroke_c	c	n/a
389.409	0.075	778818	keystroke_h	h	n/a
389.619	0.0905	779238	keystroke_Key.space	Key.space	n/a
390.249	0.105	780498	keystroke_v	v	n/a
390.369	0.03	780738	keystroke_a	a	n/a
390.384	0.075	780768	keystroke_s	s	n/a
390.474	0.06	780948	keystroke_t	t	n/a
390.669	0.09	781338	keystroke_Key.space	Key.space	n/a
390.954	0.105	781908	keystroke_d	d	n/a
391.674	0.105	783348	keystroke_i	i	n/a
391.794	0.1055	783588	keystroke_s	s	n/a
391.9145	0.12	783829	keystroke_p	p	n/a
391.9895	0.105	783979	keystroke_o	o	n/a
392.0795	0.105	784159	keystroke_s	s	n/a
392.334	0.0905	784668	keystroke_i	i	n/a
392.4395	0.105	784879	keystroke_t	t	n/a
392.5295	0.105	785059	keystroke_i	i	n/a
392.6045	0.09	785209	keystroke_o	o	n/a
392.7995	0.075	785599	keystroke_n	n	n/a
392.9645	0.09	785929	keystroke_Key.space	Key.space	n/a
393.1745	0.09	786349	keystroke_l	l	n/a
393.2795	0.075	786559	keystroke_e	e	n/a
393.4145	0.075	786829	keystroke_e	e	n/a
393.6245	0.165	787249	keystroke_d	d	n/a
393.7445	0.12	787489	keystroke_s	s	n/a
394.1345	0.1495	788269	keystroke_Key.enter	Key.enter	n/a
394.289	7.977	788578	prompt	n/a	affiliated publication foundations deficit\n
395.019	0.09	790038	keystroke_a	a	n/a
395.41	0.075	790820	keystroke_f	f	n/a
395.59	0.06	791180	keystroke_f	f	n/a
395.754	0.091	791508	keystroke_i	i	n/a
395.9645	0.135	791929	keystroke_l	l	n/a
396.0845	0.09	792169	keystroke_i	i	n/a
396.1445	0.09	792289	keystroke_a	a	n/a
396.37	0.089	792740	keystroke_t	t	n/a
396.474	0.075	792948	keystroke_e	e	n/a
396.6545	0.09	793309	keystroke_d	d	n/a
396.7595	0.09	793519	keystroke_Key.space	Key.space	n/a
397.074	0.106	794148	keystroke_p	p	n/a
397.284	0.0605	794568	keystroke_u	u	n/a
397.4645	0.06	794929	keystroke_b	b	n/a
397.6595	0.12	795319	keystroke_l	l	n/a
397.7345	0.12	795469	keystroke_i	i	n/a
397.7945	0.045	795589	keystroke_c	c	n/a
397.9295	0.075	795859	keystroke_a	a	n/a
398.0945	0.075	796189	keystroke_t	t	n/a
398.1245	0.135	796249	keystroke_i	i	n/a
398.2145	0.075	796429	keystroke_o	o	n/a
398.3945	0.075	796789	keystroke_n	n	n/a
398.5745	0.09	797149	keystroke_Key.space	Key.space	n/a
399.369	0.09	798738	keystroke_f	f	n/a
399.444	0.1055	798888	keystroke_o	o	n/a
399.534	0.0605	799068	keystroke_u	u	n/a
399.6995	0.1045	799399	keystroke_n	n	n/a
399.744	0.075	799488	keystroke_d	d	n/a
399.849	0.106	799698	keystroke_a	a	n/a
400.029	0.1055	800058	keystroke_t	t	n/a
400.1195	0.12	800239	keystroke_i	i	n/a
400.1795	0.09	800359	keystroke_o	o	n/a
400.3595	0.075	800719	keystroke_n	n	n/a
400.4195	0.105	800839	keystroke_s	s	n/a
400.5695	0.09	801139	keystroke_Key.space	Key.space	n/a
400.8095	0.165	801619	keystroke_d	d	n/a
400.9145	0.12	801829	keystroke_e	e	n/a
401.0945	0.105	802189	keystroke_f	f	n/a
401.2595	0.06	802519	keystroke_i	i	n/a
401.3345	0.105	802669	keystroke_c	c	n/a
401.5295	0.15	803059	keystroke_i	i	n/a
401.6945	0.12	803389	keystroke_t	t	n/a
402.1445	0.1195	804289	keystroke_Key.enter	Key.enter	n/a
402.2775	5.0285	804555	prompt	n/a	italy ships convention draft\n
402.909	0.105	805818	keystroke_i	i	n/a
402.984	0.075	805968	keystroke_t	t	n/a
403.164	0.09	806328	keystroke_a	a	n/a
403.239	0.075	806478	keystroke_l	l	n/a
403.404	0.06	806808	keystroke_y	y	n/a
403.584	0.09	807168	keystroke_Key.space	Key.space	n/a
403.719	0.06	807438	keystroke_s	s	n/a
403.794	0.075	807588	keystroke_h	h	n/a
404.004	0.075	808008	keystroke_i	i	n/a
404.124	0.105	808248	keystroke_p	p	n/a
404.289	0.0905	808578	keystroke_s	s	n/a
404.4095	0.09	808819	keystroke_Key.space	Key.space	n/a
405.0095	0.12	810019	keystroke_c	c	n/a
405.0845	0.06	810169	keystroke_o	o	n/a
405.2495	0.0895	810499	keystroke_n	n	n/a
405.324	0.06	810648	keystroke_v	v	n/a
405.444	0.12	810888	keystroke_e	e	n/a
405.594	0.075	811188	keystroke_n	n	n/a
405.699	0.09	811398	keystroke_t	t	n/a
405.819	0.105	811638	keystroke_i	i	n/a
405.894	0.09	811788	keystroke_o	o	n/a
406.089	0.06	812178	keystroke_n	n	n/a
406.239	0.105	812478	keystroke_Key.space	Key.space	n/a
406.554	0.075	813108	keystroke_d	d	n/a
406.734	0.06	813468	keystroke_r	r	n/a
406.8545	0.1045	813709	keystroke_a	a	n/a
406.944	0.06	813888	keystroke_f	f	n/a
407.079	0.09	814158	keystroke_t	t	n/a
407.199	0.105	814398	keystroke_Key.enter	Key.enter	n/a
407.3085	4.422	814617	prompt	n/a	average echo mold finds\n
407.92	0.105	815840	keystroke_a	a	n/a
408.085	0.074	816170	keystroke_v	v	n/a
408.16	0.0745	816320	keystroke_e	e	n/a
408.3245	0.06	816649	keystroke_r	r	n/a
408.4295	0.09	816859	keystroke_a	a	n/a
408.5795	0.06	817159	keystroke_g	g	n/a
408.6545	0.09	817309	keystroke_e	e	n/a
408.7895	0.12	817579	keystroke_Key.space	Key.space	n/a
409.1495	0.09	818299	keystroke_e	e	n/a
409.3595	0.09	818719	keystroke_c	c	n/a
409.4645	0.06	818929	keystroke_h	h	n/a
409.5995	0.06	819199	keystroke_o	o	n/a
409.749	0.09	819498	keystroke_Key.space	Key.space	n/a
409.914	0.0755	819828	keystroke_m	m	n/a
410.0195	0.075	820039	keystroke_o	o	n/a
410.1545	0.075	820309	keystroke_l	l	n/a
410.2745	0.075	820549	keystroke_d	d	n/a
410.3645	0.09	820729	keystroke_Key.space	Key.space	n/a
410.4845	0.09	820969	keystroke_f	f	n/a
410.5895	0.075	821179	keystroke_o	o	n/a
410.9345	0.075	821869	keystroke_Key.backspace	Key.backspace	n/a
411.1595	0.105	822319	keystroke_i	i	n/a
411.2795	0.105	822559	keystroke_n	n	n/a
411.3995	0.135	822799	keystroke_d	d	n/a
411.4745	0.1355	822949	keystroke_s	s	n/a
411.594	0.135	823188	keystroke_Key.enter	Key.enter	n/a
411.7345	6.9115	823469	prompt	n/a	explanation albania massage giants\n
412.24	0.0895	824480	keystroke_e	e	n/a
412.4495	0.09	824899	keystroke_x	x	n/a
412.5405	0.134	825081	keystroke_p	p	n/a
412.6295	0.105	825259	keystroke_l	l	n/a
412.7645	0.105	825529	keystroke_a	a	n/a
412.9895	0.105	825979	keystroke_n	n	n/a
413.2295	0.045	826459	keystroke_t	t	n/a
413.5295	0.075	827059	keystroke_Key.backspace	Key.backspace	n/a
413.5895	0.075	827179	keystroke_a	a	n/a
413.7395	0.105	827479	keystroke_t	t	n/a
413.7995	0.12	827599	keystroke_i	i	n/a
413.8745	0.105	827749	keystroke_o	o	n/a
414.0545	0.09	828109	keystroke_n	n	n/a
414.2195	0.135	828439	keystroke_Key.space	Key.space	n/a
414.6995	0.1045	829399	keystroke_a	a	n/a
414.834	0.075	829668	keystroke_l	l	n/a
415.0445	0.09	830089	keystroke_b	b	n/a
415.1495	0.105	830299	keystroke_a	a	n/a
415.2845	0.0895	830569	keystroke_i	i	n/a
415.824	0.06	831648	keystroke_Key.backspace	Key.backspace	n/a
416.049	0.075	832098	keystroke_n	n	n/a
416.17	0.1195	832340	keystroke_i	i	n/a
416.3195	0.15	832639	keystroke_a	a	n/a
416.4245	0.09	832849	keystroke_Key.space	Key.space	n/a
416.5895	0.09	833179	keystroke_m	m	n/a
416.6945	0.105	833389	keystroke_a	a	n/a
416.8895	0.045	833779	keystroke_s	s	n/a
417.0545	0.075	834109	keystroke_s	s	n/a
417.1145	0.12	834229	keystroke_a	a	n/a
417.2795	0.09	834559	keystroke_g	g	n/a
417.3845	0.105	834769	keystroke_e	e	n/a
417.5195	0.12	835039	keystroke_Key.space	Key.space	n/a
417.85	0.06	835700	keystroke_g	g	n/a
417.955	0.09	835910	keystroke_i	i	n/a
418.06	0.075	836120	keystroke_a	a	n/a
418.18	0.089	836360	keystroke_n	n	n/a
418.27	0.074	836540	keystroke_t	t	n/a
418.389	0.12	836778	keystroke_s	s	n/a
418.5245	0.1195	837049	keystroke_Key.enter	Key.enter	n/a
418.6505	5.8905	837301	prompt	n/a	prescription trails wall attractions\n
419.215	0.1345	838430	keystroke_p	p	n/a
419.29	0.1195	838580	keystroke_r	r	n/a
419.3495	0.105	838699	keystroke_e	e	n/a
419.5295	0.075	839059	keystroke_s	s	n/a
419.6795	0.12	839359	keystroke_c	c	n/a
419.9045	0.105	839809	keystroke_r	r	n/a
420.0395	0.09	840079	keystroke_i	i	n/a
420.1745	0.1205	840349	keystroke_p	p	n/a
420.309	0.09	840618	keystroke_t	t	n/a
420.414	0.1055	840828	keystroke_i	i	n/a
420.474	0.0905	840948	keystroke_o	o	n/a
420.6545	0.06	841309	keystroke_n	n	n/a
420.8045	0.105	841609	keystroke_Key.space	Key.space	n/a
420.9995	0.075	841999	keystroke_t	t	n/a
421.2545	0.09	842509	keystroke_r	r	n/a
421.4345	0.105	842869	keystroke_a	a	n/a
421.5245	0.075	843049	keystroke_i	i	n/a
421.6895	0.06	843379	keystroke_l	l	n/a
421.7645	0.075	843529	keystroke_s	s	n/a
421.884	0.106	843768	keystroke_Key.space	Key.space	n/a
421.975	0.09	843950	keystroke_w	w	n/a
422.2	0.0745	844400	keystroke_a	a	n/a
422.3045	0.075	844609	keystroke_l	l	n/a
422.4695	0.06	844939	keystroke_l	l	n/a
422.6495	0.09	845299	keystroke_Key.space	Key.space	n/a
422.7545	0.09	845509	keystroke_a	a	n/a
422.9645	0.045	845929	keystroke_t	t	n/a
423.1595	0.09	846319	keystroke_t	t	n/a
423.429	0.075	846858	keystroke_r	r	n/a
423.549	0.105	847098	keystroke_a	a	n/a
423.744	0.075	847488	keystroke_c	c	n/a
423.909	0.105	847818	keystroke_t	t	n/a
423.969	0.12	847938	keystroke_i	i	n/a
424.044	0.075	848088	keystroke_o	o	n/a
424.239	0.0605	848478	keystroke_n	n	n/a
424.3145	0.09	848629	keystroke_s	s	n/a
424.42	0.1195	848840	keystroke_Key.enter	Key.enter	n/a
424.5455	6.8355	849091	prompt	n/a	hunt sufficiently operation symbol\n
425.395	0.059	850790	keystroke_h	h	n/a
425.559	0.091	851118	keystroke_u	u	n/a
425.769	0.09	851538	keystroke_n	n	n/a
425.89	0.1045	851780	keystroke_t	t	n/a
426.0245	0.105	852049	keystroke_Key.space	Key.space	n/a
426.2795	0.1045	852559	keystroke_s	s	n/a
426.714	0.105	853428	keystroke_u	u	n/a
426.894	0.075	853788	keystroke_f	f	n/a
427.074	0.06	854148	keystroke_f	f	n/a
427.194	0.09	854388	keystroke_i	i	n/a
427.239	0.105	854478	keystroke_c	c	n/a
427.404	0.06	854808	keystroke_i	i	n/a
427.584	0.075	855168	keystroke_n	n	n/a
427.929	0.06	855858	keystroke_Key.backspace	Key.backspace	n/a
428.004	0.09	856008	keystroke_e	e	n/a
428.139	0.105	856278	keystroke_n	n	n/a
428.229	0.09	856458	keystroke_t	t	n/a
428.334	0.105	856668	keystroke_l	l	n/a
428.529	0.06	857058	keystroke_y	y	n/a
428.724	0.075	857448	keystroke_Key.space	Key.space	n/a
428.919	0.075	857838	keystroke_o	o	n/a
429.084	0.105	858168	keystroke_p	p	n/a
429.099	0.135	858198	keystroke_e	e	n/a
429.219	0.105	858438	keystroke_r	r	n/a
429.354	0.06	858708	keystroke_a	a	n/a
429.519	0.075	859038	keystroke_t	t	n/a
429.564	0.12	859128	keystroke_i	i	n/a
429.624	0.09	859248	keystroke_o	o	n/a
429.804	0.06	859608	keystroke_n	n	n/a
429.969	0.091	859938	keystroke_Key.space	Key.space	n/a
430.165	0.105	860330	keystroke_s	s	n/a
430.33	0.09	860660	keystroke_y	y	n/a
430.54	0.045	861080	keystroke_m	m	n/a
430.705	0.06	861410	keystroke_b	b	n/a
430.87	0.1195	861740	keystroke_o	o	n/a
431.0495	0.12	862099	keystroke_l	l	n/a
431.2295	0.15	862459	keystroke_Key.enter	Key.enter	n/a
431.384	4.887	862768	prompt	n/a	amounts revenue salad bundle\n
432.0995	0.12	864199	keystroke_a	a	n/a
432.3395	0.18	864679	keystroke_m	m	n/a
432.5795	0.12	865159	keystroke_o	o	n/a
432.6845	0.075	865369	keystroke_u	u	n/a
432.8645	0.09	865729	keystroke_n	n	n/a
432.9245	0.09	865849	keystroke_t	t	n/a
433.0595	0.105	866119	keystroke_s	s	n/a
433.1345	0.105	866269	keystroke_Key.space	Key.space	n/a
433.329	0.135	866658	keystroke_r	r	n/a
433.404	0.12	866808	keystroke_e	e	n/a
433.584	0.09	867168	keystroke_v	v	n/a
433.719	0.09	867438	keystroke_e	e	n/a
433.824	0.12	867648	keystroke_n	n	n/a
433.959	0.12	867918	keystroke_u	u	n/a
434.094	0.091	868188	keystroke_e	e	n/a
434.215	0.105	868430	keystroke_Key.space	Key.space	n/a
434.44	0.105	868880	keystroke_s	s	n/a
434.635	0.075	869270	keystroke_a	a	n/a
434.74	0.089	869480	keystroke_l	l	n/a
434.814	0.09	869628	keystroke_a	a	n/a
435.055	0.089	870110	keystroke_d	d	n/a
435.219	0.075	870438	keystroke_Key.space	Key.space	n/a
435.444	0.105	870888	keystroke_b	b	n/a
435.519	0.1055	871038	keystroke_u	u	n/a
435.6995	0.105	871399	keystroke_n	n	n/a
435.8345	0.0745	871669	keystroke_d	d	n/a
435.939	0.0905	871878	keystroke_l	l	n/a
436.0305	0.0745	872061	keystroke_e	e	n/a
436.12	0.15	872240	keystroke_Key.enter	Key.enter	n/a
436.2735	4.3925	872547	prompt	n/a	wallpapers lost lens cream\n
436.855	0.105	873710	keystroke_w	w	n/a
437.05	0.075	874100	keystroke_a	a	n/a
437.14	0.075	874280	keystroke_l	l	n/a
437.29	0.0745	874580	keystroke_l	l	n/a
437.7245	0.105	875449	keystroke_p	p	n/a
437.8595	0.12	875719	keystroke_a	a	n/a
437.9945	0.105	875989	keystroke_p	p	n/a
438.0845	0.09	876169	keystroke_e	e	n/a
438.264	0.09	876528	keystroke_r	r	n/a
438.369	0.135	876738	keystroke_s	s	n/a
438.489	0.06	876978	keystroke_Key.space	Key.space	n/a
438.654	0.075	877308	keystroke_l	l	n/a
438.804	0.0905	877608	keystroke_o	o	n/a
438.8495	0.09	877699	keystroke_s	s	n/a
438.9845	0.09	877969	keystroke_t	t	n/a
439.0445	0.09	878089	keystroke_Key.space	Key.space	n/a
439.2245	0.075	878449	keystroke_l	l	n/a
439.3	0.0895	878600	keystroke_e	e	n/a
439.4345	0.075	878869	keystroke_n	n	n/a
439.5245	0.0905	879049	keystroke_s	s	n/a
439.645	0.09	879290	keystroke_Key.space	Key.space	n/a
439.8695	0.06	879739	keystroke_c	c	n/a
440.0345	0.135	880069	keystroke_r	r	n/a
440.0945	0.09	880189	keystroke_e	e	n/a
440.2745	0.09	880549	keystroke_a	a	n/a
440.3495	0.09	880699	keystroke_m	m	n/a
440.5145	0.15	881029	keystroke_Key.enter	Key.enter	n/a
440.67	17.711	881340	prompt	n/a	identification medicines separately pricing\n
441.325	0.104	882650	keystroke_i	i	n/a
441.489	0.135	882978	keystroke_n	n	n/a
441.609	0.105	883218	keystroke_d	d	n/a
441.669	0.135	883338	keystroke_e	e	n/a
441.864	0.105	883728	keystroke_t	t	n/a
441.999	0.12	883998	keystroke_i	i	n/a
442.134	0.09	884268	keystroke_f	f	n/a
442.269	0.1205	884538	keystroke_i	i	n/a
442.3745	0.075	884749	keystroke_c	c	n/a
442.5245	0.075	885049	keystroke_a	a	n/a
442.6895	0.075	885379	keystroke_t	t	n/a
442.7345	0.105	885469	keystroke_i	i	n/a
442.7945	0.09	885589	keystroke_o	o	n/a
442.974	0.075	885948	keystroke_n	n	n/a
443.139	0.06	886278	keystroke_Key.space	Key.space	n/a
443.289	0.1055	886578	keystroke_m	m	n/a
443.3795	0.09	886759	keystroke_e	e	n/a
443.6645	0.105	887329	keystroke_d	d	n/a
443.7845	0.1355	887569	keystroke_i	i	n/a
443.905	0.09	887810	keystroke_c	c	n/a
444.055	0.105	888110	keystroke_i	i	n/a
444.28	0.09	888560	keystroke_n	n	n/a
444.355	0.06	888710	keystroke_e	e	n/a
444.52	0.09	889040	keystroke_s	s	n/a
444.64	0.105	889280	keystroke_Key.space	Key.space	n/a
445.8995	0.015	891799	keystroke_Key.backspace	Key.backspace	n/a
446.0045	0.075	892009	keystroke_Key.backspace	Key.backspace	n/a
446.1545	0.105	892309	keystroke_Key.backspace	Key.backspace	n/a
446.3645	0.03	892729	keystroke_Key.backspace	Key.backspace	n/a
446.53	0.03	893060	keystroke_Key.backspace	Key.backspace	n/a
446.65	0.06	893300	keystroke_Key.backspace	Key.backspace	n/a
446.815	0.06	893630	keystroke_Key.backspace	Key.backspace	n/a
446.95	0.075	893900	keystroke_Key.backspace	Key.backspace	n/a
447.13	0.06	894260	keystroke_Key.backspace	Key.backspace	n/a
447.265	0.0745	894530	keystroke_Key.backspace	Key.backspace	n/a
447.4445	0.06	894889	keystroke_Key.backspace	Key.backspace	n/a
447.5945	0.06	895189	keystroke_Key.backspace	Key.backspace	n/a
447.7445	0.0595	895489	keystroke_Key.backspace	Key.backspace	n/a
447.909	0.06	895818	keystroke_Key.backspace	Key.backspace	n/a
448.059	0.06	896118	keystroke_Key.backspace	Key.backspace	n/a
448.2095	0.0605	896419	keystroke_Key.backspace	Key.backspace	n/a
448.36	0.06	896720	keystroke_Key.backspace	Key.backspace	n/a
448.525	0.06	897050	keystroke_Key.backspace	Key.backspace	n/a
448.6895	0.045	897379	keystroke_Key.backspace	Key.backspace	n/a
448.9145	0.015	897829	keystroke_Key.backspace	Key.backspace	n/a
448.9745	0.075	897949	keystroke_Key.backspace	Key.backspace	n/a
449.1995	0.015	898399	keystroke_Key.backspace	Key.backspace	n/a
449.2895	0.0745	898579	keystroke_Key.backspace	Key.backspace	n/a
449.4695	0.06	898939	keystroke_Key.backspace	Key.backspace	n/a
450.039	0.18	900078	keystroke_d	d	n/a
450.234	0.136	900468	keystroke_e	e	n/a
450.835	0.06	901670	keystroke_n	n	n/a
450.925	0.09	901850	keystroke_t	t	n/a
451.045	0.09	902090	keystroke_i	i	n/a
451.15	0.09	902300	keystroke_f	f	n/a
451.285	0.0745	902570	keystroke_i	i	n/a
451.3295	0.075	902659	keystroke_c	c	n/a
451.4795	0.075	902959	keystroke_a	a	n/a
451.6595	0.09	903319	keystroke_t	t	n/a
451.7345	0.1195	903469	keystroke_i	i	n/a
451.8095	0.0895	903619	keystroke_o	o	n/a
452.004	0.12	904008	keystroke_n	n	n/a
452.154	0.105	904308	keystroke_s	s	n/a
452.6645	0.075	905329	keystroke_Key.backspace	Key.backspace	n/a
452.9345	0.075	905869	keystroke_Key.space	Key.space	n/a
453.1595	0.105	906319	keystroke_m	m	n/a
453.2495	0.09	906499	keystroke_e	e	n/a
453.6245	0.075	907249	keystroke_d	d	n/a
453.7005	0.104	907401	keystroke_i	i	n/a
453.8345	0.12	907669	keystroke_c	c	n/a
453.9395	0.105	907879	keystroke_i	i	n/a
454.0895	0.12	908179	keystroke_n	n	n/a
454.1945	0.06	908389	keystroke_e	e	n/a
454.36	0.075	908720	keystroke_s	s	n/a
454.465	0.105	908930	keystroke_Key.space	Key.space	n/a
454.6295	0.1205	909259	keystroke_s	s	n/a
454.87	0.074	909740	keystroke_e	e	n/a
455.3795	0.09	910759	keystroke_p	p	n/a
455.5295	0.105	911059	keystroke_a	a	n/a
455.7395	0.09	911479	keystroke_r	r	n/a
455.9045	0.0895	911809	keystroke_a	a	n/a
456.234	0.09	912468	keystroke_t	t	n/a
456.384	0.12	912768	keystroke_e	e	n/a
456.519	0.075	913038	keystroke_l	l	n/a
456.909	0.06	913818	keystroke_y	y	n/a
457.119	0.075	914238	keystroke_Key.space	Key.space	n/a
457.299	0.0905	914598	keystroke_p	p	n/a
457.4195	0.105	914839	keystroke_r	r	n/a
457.5695	0.105	915139	keystroke_i	i	n/a
457.7045	0.09	915409	keystroke_c	c	n/a
457.8395	0.09	915679	keystroke_i	i	n/a
457.9595	0.105	915919	keystroke_n	n	n/a
458.0645	0.09	916129	keystroke_g	g	n/a
458.2595	0.12	916519	keystroke_Key.enter	Key.enter	n/a
458.4	7.631	916800	prompt	n/a	controversy lonely antarctica volt\n
459.0245	0.105	918049	keystroke_c	c	n/a
