onset	duration	sample	value	key	prompt_text
3.34	11.7785	6680	prompt	n/a	the quick brown fox jumps over a lazy dog\n
6.314	0.025	12628	keystroke_t	t	n/a
6.384	0.106	12768	keystroke_h	h	n/a
6.474	0.165	12948	keystroke_e	e	n/a
6.624	0.12	13248	keystroke_Key.space	Key.space	n/a
6.8355	0.135	13671	keystroke_q	q	n/a
7.781	0.06	15562	keystroke_u	u	n/a
8.035	0.061	16070	keystroke_i	i	n/a
8.246	0.135	16492	keystroke_c	c	n/a
8.605	0.091	17210	keystroke_k	k	n/a
8.7715	0.104	17543	keystroke_Key.space	Key.space	n/a
9.1015	0.09	18203	keystroke_f	f	n/a
9.3415	0.09	18683	keystroke_o	o	n/a
9.5665	0.1345	19133	keystroke_x	x	n/a
9.746	0.09	19492	keystroke_Key.space	Key.space	n/a
9.986	0.09	19972	keystroke_j	j	n/a
10.1515	0.075	20303	keystroke_u	u	n/a
10.4215	0.09	20843	keystroke_m	m	n/a
10.7065	0.045	21413	keystroke_p	p	n/a
10.8715	0.12	21743	keystroke_s	s	n/a
10.9615	0.12	21923	keystroke_Key.space	Key.space	n/a
11.2015	0.135	22403	keystroke_o	o	n/a
11.3515	0.135	22703	keystroke_v	v	n/a
11.4415	0.21	22883	keystroke_e	e	n/a
11.5765	0.165	23153	keystroke_r	r	n/a
11.7565	0.105	23513	keystroke_Key.space	Key.space	n/a
12.4015	0.18	24803	keystroke_a	a	n/a
12.5665	0.12	25133	keystroke_Key.space	Key.space	n/a
12.9265	0.09	25853	keystroke_l	l	n/a
13.0615	0.09	26123	keystroke_a	a	n/a
13.3165	0.18	26633	keystroke_z	z	n/a
13.4665	0.059	26933	keystroke_y	y	n/a
13.6005	0.135	27201	keystroke_Key.space	Key.space	n/a
13.9455	0.121	27891	keystroke_d	d	n/a
14.1105	0.105	28221	keystroke_o	o	n/a
14.2755	0.1505	28551	keystroke_g	g	n/a
15.0265	0.09	30053	keystroke_Key.enter	Key.enter	n/a
15.123	8.335	30246	prompt	n/a	scanned carolina holy surrey\n
15.9265	0.12	31853	keystroke_s	s	n/a
16.4365	0.18	32873	keystroke_c	c	n/a
16.5865	0.15	33173	keystroke_a	a	n/a
16.7965	0.09	33593	keystroke_n	n	n/a
16.9465	0.09	33893	keystroke_n	n	n/a
17.0665	0.105	34133	keystroke_e	e	n/a
17.2765	0.15	34553	keystroke_d	d	n/a
17.4415	0.135	34883	keystroke_Key.space	Key.space	n/a
17.7115	0.1645	35423	keystroke_c	c	n/a
17.831	0.135	35662	keystroke_a	a	n/a
18.0255	0.105	36051	keystroke_r	r	n/a
18.3855	0.091	36771	keystroke_o	o	n/a
18.641	0.0905	37282	keystroke_l	l	n/a
19.6165	0.0595	39233	keystroke_i	i	n/a
19.916	0.1055	39832	keystroke_n	n	n/a
20.0365	0.165	40073	keystroke_a	a	n/a
20.1865	0.135	40373	keystroke_Key.space	Key.space	n/a
20.5765	0.15	41153	keystroke_h	h	n/a
20.6965	0.105	41393	keystroke_o	o	n/a
20.9065	0.12	41813	keystroke_l	l	n/a
21.0715	0.195	42143	keystroke_y	y	n/a
21.3715	0.075	42743	keystroke_Key.space	Key.space	n/a
21.5815	0.135	43163	keystroke_s	s	n/a
21.8215	0.09	43643	keystroke_u	u	n/a
22.091	0.0755	44182	keystroke_r	r	n/a
22.286	0.09	44572	keystroke_r	r	n/a
22.481	0.12	44962	keystroke_e	e	n/a
22.646	0.1055	45292	keystroke_y	y	n/a
23.321	0.135	46642	keystroke_Key.enter	Key.enter	n/a
23.462	19.5115	46924	prompt	n/a	polyphonic civil mean continually\n
24.207	0.06	48414	keystroke_p	p	n/a
24.5065	0.12	49013	keystroke_l	l	n/a
25.3615	0.075	50723	keystroke_=	=	n/a
26.3815	0.03	52763	keystroke_Key.backspace	Key.backspace	n/a
26.5465	0.06	53093	keystroke_Key.backspace	Key.backspace	n/a
27.237	0.075	54474	keystroke_o	o	n/a
27.432	0.09	54864	keystroke_l	l	n/a
28.7665	0.015	57533	keystroke_y	y	n/a
29.381	0.09	58762	keystroke_p	p	n/a
29.696	0.075	59392	keystroke_h	h	n/a
30.086	0.166	60172	keystroke_o	o	n/a
31.046	0.1055	62092	keystroke_n	n	n/a
31.2715	0.0745	62543	keystroke_i	i	n/a
31.391	0.166	62782	keystroke_c	c	n/a
31.571	0.0905	63142	keystroke_Key.space	Key.space	n/a
32.127	0.12	64254	keystroke_c	c	n/a
32.292	0.075	64584	keystroke_i	i	n/a
32.517	0.135	65034	keystroke_v	v	n/a
32.667	0.09	65334	keystroke_i	i	n/a
32.8915	0.1055	65783	keystroke_l	l	n/a
33.117	0.149	66234	keystroke_Key.space	Key.space	n/a
33.552	0.12	67104	keystroke_m	m	n/a
33.7615	0.15	67523	keystroke_e	e	n/a
33.9115	0.165	67823	keystroke_a	a	n/a
34.0765	0.135	68153	keystroke_n	n	n/a
34.2265	0.15	68453	keystroke_Key.space	Key.space	n/a
34.7965	0.1505	69593	keystroke_c	c	n/a
34.917	0.15	69834	keystroke_o	o	n/a
34.977	0.15	69954	keystroke_n	n	n/a
35.277	0.1195	70554	keystroke_t	t	n/a
35.5165	0.09	71033	keystroke_u	u	n/a
36.4015	0.09	72803	keystroke_Key.backspace	Key.backspace	n/a
37.062	0.0895	74124	keystroke_i	i	n/a
37.377	0.105	74754	keystroke_n	n	n/a
37.662	0.09	75324	keystroke_u	u	n/a
40.1235	0.058	80247	keystroke_a	a	n/a
41.8015	0.075	83603	keystroke_l	l	n/a
41.9665	0.075	83933	keystroke_l	l	n/a
42.492	0.075	84984	keystroke_y	y	n/a
42.881	0.09	85762	keystroke_Key.enter	Key.enter	n/a
42.9765	11.247	85953	prompt	n/a	texture fold abuse sunrise\n
43.767	0.1345	87534	keystroke_t	t	n/a
43.9615	0.135	87923	keystroke_e	e	n/a
44.3215	0.105	88643	keystroke_x	x	n/a
44.9215	0.15	89843	keystroke_t	t	n/a
45.282	0.12	90564	keystroke_u	u	n/a
45.597	0.135	91194	keystroke_r	r	n/a
45.717	0.165	91434	keystroke_e	e	n/a
46.0465	0.135	92093	keystroke_Key.space	Key.space	n/a
46.4815	0.1655	92963	keystroke_d	d	n/a
46.617	0.135	93234	keystroke_o	o	n/a
46.857	0.135	93714	keystroke_l	l	n/a
47.652	0.075	95304	keystroke_Key.backspace	Key.backspace	n/a
47.802	0.06	95604	keystroke_Key.backspace	Key.backspace	n/a
47.937	0.105	95874	keystroke_Key.backspace	Key.backspace	n/a
48.867	0.105	97734	keystroke_f	f	n/a
49.107	0.075	98214	keystroke_o	o	n/a
49.302	0.105	98604	keystroke_l	l	n/a
49.497	0.15	98994	keystroke_d	d	n/a
49.632	0.15	99264	keystroke_Key.space	Key.space	n/a
50.352	0.12	100704	keystroke_a	a	n/a
50.8315	0.09	101663	keystroke_b	b	n/a
51.2965	0.09	102593	keystroke_u	u	n/a
51.5065	0.12	103013	keystroke_s	s	n/a
51.6715	0.165	103343	keystroke_e	e	n/a
51.8515	0.165	103703	keystroke_Key.space	Key.space	n/a
52.572	0.12	105144	keystroke_s	s	n/a
52.8565	0.075	105713	keystroke_u	u	n/a
53.0815	0.105	106163	keystroke_n	n	n/a
53.3365	0.091	106673	keystroke_r	r	n/a
53.5015	0.09	107003	keystroke_i	i	n/a
53.8015	0.165	107603	keystroke_s	s	n/a
53.9365	0.12	107873	keystroke_e	e	n/a
54.1165	0.105	108233	keystroke_Key.enter	Key.enter	n/a
54.227	7.2715	108454	prompt	n/a	ones nvidia petite catch\n
55.002	0.135	110004	keystroke_o	o	n/a
55.347	0.1195	110694	keystroke_n	n	n/a
55.4965	0.135	110993	keystroke_e	e	n/a
55.6615	0.166	111323	keystroke_s	s	n/a
55.8415	0.15	111683	keystroke_Key.space	Key.space	n/a
56.2765	0.105	112553	keystroke_n	n	n/a
56.6215	0.135	113243	keystroke_v	v	n/a
56.787	0.1045	113574	keystroke_i	i	n/a
57.1165	0.12	114233	keystroke_d	d	n/a
57.252	0.075	114504	keystroke_i	i	n/a
57.387	0.12	114774	keystroke_a	a	n/a
57.627	0.12	115254	keystroke_Key.space	Key.space	n/a
58.107	0.12	116214	keystroke_p	p	n/a
58.272	0.09	116544	keystroke_e	e	n/a
58.497	0.045	116994	keystroke_t	t	n/a
59.292	0.18	118584	keystroke_i	i	n/a
59.607	0.075	119214	keystroke_t	t	n/a
59.892	0.12	119784	keystroke_e	e	n/a
60.162	0.12	120324	keystroke_Key.space	Key.space	n/a
60.432	0.105	120864	keystroke_c	c	n/a
60.492	0.15	120984	keystroke_a	a	n/a
60.7465	0.075	121493	keystroke_t	t	n/a
61.0465	0.135	122093	keystroke_c	c	n/a
61.1665	0.09	122333	keystroke_h	h	n/a
61.4065	0.09	122813	keystroke_Key.enter	Key.enter	n/a
61.5045	10.645	123009	prompt	n/a	possibility workstation personal hyundai\n
62.2015	0.09	124403	keystroke_p	p	n/a
62.4115	0.09	124823	keystroke_o	o	n/a
62.6665	0.09	125333	keystroke_s	s	n/a
62.8315	0.15	125663	keystroke_s	s	n/a
62.9825	0.075	125965	keystroke_i	i	n/a
63.4015	0.075	126803	keystroke_b	b	n/a
63.5215	0.06	127043	keystroke_i	i	n/a
64.0765	0.09	128153	keystroke_l	l	n/a
64.2725	0.089	128545	keystroke_i	i	n/a
64.5415	0.135	129083	keystroke_t	t	n/a
64.7365	0.075	129473	keystroke_y	y	n/a
64.9615	0.1355	129923	keystroke_Key.space	Key.space	n/a
65.322	0.0895	130644	keystroke_w	w	n/a
65.4265	0.12	130853	keystroke_o	o	n/a
65.5615	0.12	131123	keystroke_r	r	n/a
65.6965	0.135	131393	keystroke_k	k	n/a
66.0115	0.12	132023	keystroke_s	s	n/a
66.2665	0.135	132533	keystroke_t	t	n/a
66.5215	0.12	133043	keystroke_a	a	n/a
66.8665	0.075	133733	keystroke_t	t	n/a
67.0465	0.195	134093	keystroke_i	i	n/a
67.1065	0.1805	134213	keystroke_o	o	n/a
67.1965	0.1355	134393	keystroke_n	n	n/a
67.392	0.12	134784	keystroke_Key.space	Key.space	n/a
67.797	0.075	135594	keystroke_p	p	n/a
67.932	0.195	135864	keystroke_e	e	n/a
68.037	0.15	136074	keystroke_r	r	n/a
68.292	0.15	136584	keystroke_s	s	n/a
68.457	0.105	136914	keystroke_o	o	n/a
68.502	0.12	137004	keystroke_n	n	n/a
68.652	0.12	137304	keystroke_a	a	n/a
68.757	0.135	137514	keystroke_l	l	n/a
68.967	0.135	137934	keystroke_Key.space	Key.space	n/a
69.492	0.105	138984	keystroke_h	h	n/a
69.747	0.105	139494	keystroke_y	y	n/a
70.152	0.06	140304	keystroke_u	u	n/a
70.752	0.12	141504	keystroke_n	n	n/a
71.3365	0.135	142673	keystroke_d	d	n/a
71.5315	0.135	143063	keystroke_a	a	n/a
71.7415	0.09	143483	keystroke_i	i	n/a
72.0715	0.075	144143	keystroke_Key.enter	Key.enter	n/a
72.1575	18.066	144315	prompt	n/a	friends speech coordinated blink\n
72.8815	0.12	145763	keystroke_f	f	n/a
73.1515	0.12	146303	keystroke_r	r	n/a
73.2415	0.12	146483	keystroke_e	e	n/a
73.3915	0.09	146783	keystroke_i	i	n/a
73.5865	0.075	147173	keystroke_d	d	n/a
73.7665	0.09	147533	keystroke_e	e	n/a
73.8865	0.105	147773	keystroke_n	n	n/a
74.052	0.12	148104	keystroke_d	d	n/a
74.457	0.075	148914	keystroke_Key.backspace	Key.backspace	n/a
74.682	0.015	149364	keystroke_Key.backspace	Key.backspace	n/a
74.757	0.06	149514	keystroke_Key.backspace	Key.backspace	n/a
74.892	0.075	149784	keystroke_Key.backspace	Key.backspace	n/a
75.207	0.1195	150414	keystroke_e	e	n/a
75.4015	0.12	150803	keystroke_n	n	n/a
75.582	0.165	151164	keystroke_d	d	n/a
75.807	0.1345	151614	keystroke_s	s	n/a
76.2415	0.12	152483	keystroke_Key.space	Key.space	n/a
76.5865	0.135	153173	keystroke_s	s	n/a
76.8565	0.1055	153713	keystroke_p	p	n/a
78.612	0.06	157224	keystroke_Key.backspace	Key.backspace	n/a
78.777	0.06	157554	keystroke_Key.backspace	Key.backspace	n/a
78.942	0.06	157884	keystroke_Key.backspace	Key.backspace	n/a
79.137	0.075	158274	keystroke_Key.backspace	Key.backspace	n/a
79.377	0.075	158754	keystroke_Key.backspace	Key.backspace	n/a
80.097	0.06	160194	keystroke_Key.backspace	Key.backspace	n/a
80.322	0.06	160644	keystroke_Key.backspace	Key.backspace	n/a
80.532	0.06	161064	keystroke_Key.backspace	Key.backspace	n/a
81.6115	0.06	163223	keystroke_Key.backspace	Key.backspace	n/a
82.1365	0.075	164273	keystroke_i	i	n/a
82.3915	0.075	164783	keystroke_e	e	n/a
82.5715	0.105	165143	keystroke_n	n	n/a
82.7815	0.135	165563	keystroke_d	d	n/a
83.292	0.1345	166584	keystroke_s	s	n/a
83.7715	0.12	167543	keystroke_Key.space	Key.space	n/a
84.1015	0.135	168203	keystroke_s	s	n/a
84.3565	0.12	168713	keystroke_p	p	n/a
84.6115	0.075	169223	keystroke_e	e	n/a
84.7765	0.09	169553	keystroke_e	e	n/a
85.0315	0.18	170063	keystroke_c	c	n/a
85.1965	0.105	170393	keystroke_h	h	n/a
85.3315	0.12	170663	keystroke_Key.space	Key.space	n/a
85.602	0.135	171204	keystroke_c	c	n/a
85.737	0.1045	171474	keystroke_o	o	n/a
86.4115	0.135	172823	keystroke_o	o	n/a
86.6215	0.09	173243	keystroke_r	r	n/a
87.402	0.12	174804	keystroke_d	d	n/a
87.552	0.075	175104	keystroke_i	i	n/a
87.822	0.135	175644	keystroke_n	n	n/a
87.972	0.105	175944	keystroke_a	a	n/a
88.137	0.12	176274	keystroke_t	t	n/a
88.287	0.12	176574	keystroke_e	e	n/a
88.497	0.15	176994	keystroke_d	d	n/a
88.632	0.135	177264	keystroke_Key.space	Key.space	n/a
89.112	0.12	178224	keystroke_b	b	n/a
89.262	0.09	178524	keystroke_l	l	n/a
89.457	0.0895	178914	keystroke_i	i	n/a
89.6815	0.09	179363	keystroke_n	n	n/a
89.8915	0.075	179783	keystroke_k	k	n/a
90.1465	0.075	180293	keystroke_Key.enter	Key.enter	n/a
90.23	9.113	180460	prompt	n/a	gary invite environment pillow\n
91.2565	0.165	182513	keystroke_g	g	n/a
91.4065	0.135	182813	keystroke_a	a	n/a
91.5715	0.165	183143	keystroke_r	r	n/a
91.7965	0.105	183593	keystroke_y	y	n/a
92.1265	0.135	184253	keystroke_Key.space	Key.space	n/a
92.6365	0.09	185273	keystroke_i	i	n/a
92.7715	0.105	185543	keystroke_n	n	n/a
93.0265	0.12	186053	keystroke_v	v	n/a
93.1615	0.09	186323	keystroke_i	i	n/a
93.3715	0.165	186743	keystroke_t	t	n/a
93.4915	0.165	186983	keystroke_e	e	n/a
93.6715	0.15	187343	keystroke_Key.space	Key.space	n/a
94.5115	0.12	189023	keystroke_e	e	n/a
94.7215	0.09	189443	keystroke_n	n	n/a
94.9765	0.12	189953	keystroke_v	v	n/a
95.1115	0.105	190223	keystroke_i	i	n/a
95.6815	0.105	191363	keystroke_r	r	n/a
95.8915	0.105	191783	keystroke_o	o	n/a
96.1465	0.075	192293	keystroke_n	n	n/a
96.372	0.075	192744	keystroke_m	m	n/a
96.507	0.1345	193014	keystroke_e	e	n/a
96.6415	0.09	193283	keystroke_n	n	n/a
96.7915	0.1355	193583	keystroke_t	t	n/a
97.062	0.1345	194124	keystroke_Key.space	Key.space	n/a
97.6165	0.046	195233	keystroke_p	p	n/a
98.262	0.075	196524	keystroke_i	i	n/a
98.532	0.075	197064	keystroke_l	l	n/a
98.697	0.075	197394	keystroke_l	l	n/a
98.892	0.075	197784	keystroke_o	o	n/a
99.057	0.12	198114	keystroke_w	w	n/a
99.267	0.075	198534	keystroke_Key.enter	Key.enter	n/a
99.348	8.785	198696	prompt	n/a	edmonton reasoning reply assess\n
100.2265	0.09	200453	keystroke_e	e	n/a
100.4525	0.104	200905	keystroke_d	d	n/a
101.037	0.0895	202074	keystroke_m	m	n/a
101.1865	0.105	202373	keystroke_o	o	n/a
101.3665	0.12	202733	keystroke_n	n	n/a
101.7415	0.105	203483	keystroke_t	t	n/a
101.8765	0.15	203753	keystroke_o	o	n/a
101.9815	0.12	203963	keystroke_n	n	n/a
102.2515	0.135	204503	keystroke_Key.space	Key.space	n/a
102.7165	0.18	205433	keystroke_r	r	n/a
102.8815	0.12	205763	keystroke_e	e	n/a
103.1065	0.105	206213	keystroke_a	a	n/a
103.3165	0.105	206633	keystroke_s	s	n/a
103.4665	0.135	206933	keystroke_o	o	n/a
103.5265	0.12	207053	keystroke_n	n	n/a
103.7665	0.165	207533	keystroke_i	i	n/a
103.8565	0.12	207713	keystroke_n	n	n/a
103.9465	0.18	207893	keystroke_g	g	n/a
104.1115	0.12	208223	keystroke_Key.space	Key.space	n/a
104.3365	0.12	208673	keystroke_r	r	n/a
104.4115	0.135	208823	keystroke_e	e	n/a
104.8015	0.075	209603	keystroke_p	p	n/a
104.9965	0.0905	209993	keystroke_l	l	n/a
105.282	0.06	210564	keystroke_y	y	n/a
105.6415	0.135	211283	keystroke_Key.space	Key.space	n/a
106.0765	0.105	212153	keystroke_a	a	n/a
106.2865	0.0905	212573	keystroke_d	d	n/a
106.7965	0.075	213593	keystroke_Key.backspace	Key.backspace	n/a
106.9165	0.075	213833	keystroke_s	s	n/a
107.0665	0.105	214133	keystroke_s	s	n/a
107.2915	0.1055	214583	keystroke_e	e	n/a
107.592	0.09	215184	keystroke_s	s	n/a
107.757	0.09	215514	keystroke_s	s	n/a
108.0415	0.09	216083	keystroke_Key.enter	Key.enter	n/a
108.136	9.1325	216272	prompt	n/a	mary chocolate ribbon tamil\n
108.9265	0.12	217853	keystroke_m	m	n/a
109.0615	0.12	218123	keystroke_a	a	n/a
109.2715	0.1055	218543	keystroke_r	r	n/a
109.482	0.105	218964	keystroke_t	t	n/a
109.947	0.075	219894	keystroke_Key.backspace	Key.backspace	n/a
110.307	0.075	220614	keystroke_y	y	n/a
110.547	0.105	221094	keystroke_Key.space	Key.space	n/a
110.847	0.135	221694	keystroke_c	c	n/a
110.982	0.105	221964	keystroke_h	h	n/a
111.207	0.105	222414	keystroke_o	o	n/a
111.567	0.105	223134	keystroke_c	c	n/a
111.8365	0.12	223673	keystroke_o	o	n/a
112.2115	0.0905	224423	keystroke_l	l	n/a
112.422	0.12	224844	keystroke_a	a	n/a
112.692	0.09	225384	keystroke_t	t	n/a
112.722	0.2095	225444	keystroke_e	e	n/a
112.9465	0.135	225893	keystroke_Key.space	Key.space	n/a
113.4265	0.12	226853	keystroke_r	r	n/a
113.5615	0.09	227123	keystroke_i	i	n/a
113.9515	0.105	227903	keystroke_b	b	n/a
114.1015	0.12	228203	keystroke_b	b	n/a
114.2665	0.105	228533	keystroke_o	o	n/a
114.4765	0.12	228953	keystroke_n	n	n/a
114.7015	0.1205	229403	keystroke_Key.space	Key.space	n/a
115.047	0.135	230094	keystroke_t	t	n/a
115.227	0.075	230454	keystroke_a	a	n/a
115.677	0.09	231354	keystroke_Key.backspace	Key.backspace	n/a
116.2465	0.12	232493	keystroke_a	a	n/a
116.5465	0.09	233093	keystroke_m	m	n/a
116.7265	0.075	233453	keystroke_i	i	n/a
116.9215	0.075	233843	keystroke_l	l	n/a
117.1915	0.075	234383	keystroke_Key.enter	Key.enter	n/a
117.2735	8.47	234547	prompt	n/a	twiki o'clock roster solar\n
118.077	0.105	236154	keystroke_t	t	n/a
118.392	0.09	236784	keystroke_w	w	n/a
118.647	0.105	237294	keystroke_i	i	n/a
119.0515	0.105	238103	keystroke_k	k	n/a
119.2765	0.09	238553	keystroke_i	i	n/a
119.787	0.135	239574	keystroke_Key.space	Key.space	n/a
120.162	0.09	240324	keystroke_o	o	n/a
120.5815	0.09	241163	keystroke_'	'	n/a
120.8365	0.12	241673	keystroke_c	c	n/a
121.1515	0.09	242303	keystroke_l	l	n/a
121.377	0.075	242754	keystroke_o	o	n/a
121.6165	0.105	243233	keystroke_c	c	n/a
121.8565	0.075	243713	keystroke_k	k	n/a
122.3215	0.1355	244643	keystroke_Key.space	Key.space	n/a
122.667	0.09	245334	keystroke_r	r	n/a
122.862	0.09	245724	keystroke_o	o	n/a
123.042	0.12	246084	keystroke_s	s	n/a
123.252	0.135	246504	keystroke_t	t	n/a
123.372	0.21	246744	keystroke_e	e	n/a
123.477	0.18	246954	keystroke_r	r	n/a
123.597	0.135	247194	keystroke_Key.space	Key.space	n/a
123.762	0.18	247524	keystroke_Key.space	Key.space	n/a
124.362	0.09	248724	keystroke_Key.backspace	Key.backspace	n/a
124.617	0.135	249234	keystroke_s	s	n/a
124.797	0.075	249594	keystroke_o	o	n/a
125.082	0.09	250164	keystroke_l	l	n/a
125.277	0.1195	250554	keystroke_a	a	n/a
125.4265	0.15	250853	keystroke_r	r	n/a
125.6665	0.075	251333	keystroke_Key.enter	Key.enter	n/a
125.7465	10.647	251493	prompt	n/a	manitoba determined lambda keyboard\n
126.5965	0.12	253193	keystroke_m	m	n/a
126.8065	0.12	253613	keystroke_a	a	n/a
126.9565	0.12	253913	keystroke_n	n	n/a
127.8115	0.09	255623	keystroke_i	i	n/a
128.127	0.105	256254	keystroke_t	t	n/a
128.232	0.105	256464	keystroke_o	o	n/a
128.502	0.105	257004	keystroke_b	b	n/a
128.637	0.1195	257274	keystroke_a	a	n/a
128.7865	0.1355	257573	keystroke_Key.space	Key.space	n/a
129.057	0.09	258114	keystroke_d	d	n/a
129.252	0.09	258504	keystroke_e	e	n/a
129.5065	0.12	259013	keystroke_t	t	n/a
129.6415	0.18	259283	keystroke_e	e	n/a
129.7315	0.135	259463	keystroke_r	r	n/a
129.9715	0.1055	259943	keystroke_m	m	n/a
130.1365	0.15	260273	keystroke_i	i	n/a
130.2415	0.12	260483	keystroke_n	n	n/a
130.3615	0.09	260723	keystroke_e	e	n/a
130.557	0.15	261114	keystroke_d	d	n/a
130.722	0.15	261444	keystroke_Key.space	Key.space	n/a
131.2765	0.09	262553	keystroke_l	l	n/a
131.3965	0.136	262793	keystroke_a	a	n/a
131.7425	0.105	263485	keystroke_m	m	n/a
132.657	0.09	265314	keystroke_b	b	n/a
133.242	0.135	266484	keystroke_d	d	n/a
133.392	0.135	266784	keystroke_a	a	n/a
133.677	0.135	267354	keystroke_Key.space	Key.space	n/a
134.5025	0.075	269005	keystroke_k	k	n/a
134.6675	0.12	269335	keystroke_e	e	n/a
134.8325	0.075	269665	keystroke_y	y	n/a
135.1925	0.089	270385	keystroke_b	b	n/a
135.3265	0.09	270653	keystroke_o	o	n/a
135.4615	0.135	270923	keystroke_a	a	n/a
135.6715	0.09	271343	keystroke_r	r	n/a
135.8965	0.165	271793	keystroke_d	d	n/a
136.2865	0.105	272573	keystroke_Key.enter	Key.enter	n/a
136.3985	10.03	272797	prompt	n/a	naturally conclusion dealtime conf\n
137.2165	0.105	274433	keystroke_n	n	n/a
137.3665	0.12	274733	keystroke_a	a	n/a
137.6065	0.105	275213	keystroke_t	t	n/a
137.7865	0.12	275573	keystroke_u	u	n/a
138.1315	0.1055	276263	keystroke_r	r	n/a
138.3115	0.135	276623	keystroke_a	a	n/a
138.4765	0.06	276953	keystroke_l	l	n/a
138.6115	0.09	277223	keystroke_l	l	n/a
138.7175	0.149	277435	keystroke_y	y	n/a
138.8965	0.18	277793	keystroke_Key.space	Key.space	n/a
139.1965	0.165	278393	keystroke_c	c	n/a
139.3165	0.15	278633	keystroke_o	o	n/a
139.3915	0.135	278783	keystroke_n	n	n/a
140.067	0.12	280134	keystroke_c	c	n/a
140.247	0.09	280494	keystroke_l	l	n/a
140.487	0.09	280974	keystroke_u	u	n/a
141.2965	0.12	282593	keystroke_s	s	n/a
141.5065	0.24	283013	keystroke_i	i	n/a
141.5815	0.15	283163	keystroke_o	o	n/a
141.6415	0.15	283283	keystroke_n	n	n/a
141.8065	0.12	283613	keystroke_Key.space	Key.space	n/a
142.047	0.09	284094	keystroke_d	d	n/a
142.242	0.0895	284484	keystroke_e	e	n/a
142.4815	0.1205	284963	keystroke_a	a	n/a
143.6815	0.105	287363	keystroke_l	l	n/a
144.387	0.075	288774	keystroke_t	t	n/a
144.522	0.0895	289044	keystroke_i	i	n/a
144.747	0.09	289494	keystroke_m	m	n/a
144.837	0.15	289674	keystroke_e	e	n/a
145.002	0.12	290004	keystroke_Key.space	Key.space	n/a
145.407	0.15	290814	keystroke_c	c	n/a
145.512	0.18	291024	keystroke_o	o	n/a
145.602	0.15	291204	keystroke_n	n	n/a
145.992	0.105	291984	keystroke_f	f	n/a
146.352	0.075	292704	keystroke_Key.enter	Key.enter	n/a
146.4315	9.0415	292863	prompt	n/a	books cleared attempting shows\n
147.612	0.12	295224	keystroke_b	b	n/a
147.867	0.09	295734	keystroke_o	o	n/a
148.002	0.09	296004	keystroke_o	o	n/a
148.1815	0.1205	296363	keystroke_k	k	n/a
148.377	0.135	296754	keystroke_s	s	n/a
148.497	0.135	296994	keystroke_Key.space	Key.space	n/a
148.8725	0.15	297745	keystroke_c	c	n/a
149.0825	0.12	298165	keystroke_l	l	n/a
149.2775	0.2545	298555	keystroke_e	e	n/a
149.352	0.165	298704	keystroke_a	a	n/a
149.487	0.165	298974	keystroke_r	r	n/a
149.937	0.0745	299874	keystroke_e	e	n/a
150.1315	0.12	300263	keystroke_d	d	n/a
150.3265	0.165	300653	keystroke_Key.space	Key.space	n/a
150.7015	0.12	301403	keystroke_a	a	n/a
150.9565	0.075	301913	keystroke_t	t	n/a
151.0915	0.12	302183	keystroke_t	t	n/a
151.2415	0.1355	302483	keystroke_e	e	n/a
151.422	0.09	302844	keystroke_m	m	n/a
151.632	0.075	303264	keystroke_p	p	n/a
152.007	0.09	304014	keystroke_i	i	n/a
152.6365	0.075	305273	keystroke_Key.backspace	Key.backspace	n/a
153.327	0.15	306654	keystroke_t	t	n/a
153.702	0.1945	307404	keystroke_i	i	n/a
153.747	0.1945	307494	keystroke_n	n	n/a
153.9115	0.1955	307823	keystroke_g	g	n/a
154.122	0.1645	308244	keystroke_Key.space	Key.space	n/a
154.5715	0.135	309143	keystroke_s	s	n/a
154.7075	0.179	309415	keystroke_h	h	n/a
154.7965	0.165	309593	keystroke_o	o	n/a
154.9465	0.105	309893	keystroke_w	w	n/a
155.1565	0.12	310313	keystroke_s	s	n/a
155.3965	0.075	310793	keystroke_Key.enter	Key.enter	n/a
155.4765	8.0975	310953	prompt	n/a	chubby strain applied trip\n
156.192	0.15	312384	keystroke_c	c	n/a
156.357	0.135	312714	keystroke_h	h	n/a
156.702	0.105	313404	keystroke_u	u	n/a
157.1665	0.015	314333	keystroke_b	b	n/a
157.3165	0.06	314633	keystroke_b	b	n/a
157.5865	0.09	315173	keystroke_y	y	n/a
158.0965	0.135	316193	keystroke_Key.space	Key.space	n/a
158.3065	0.1205	316613	keystroke_s	s	n/a
158.577	0.12	317154	keystroke_t	t	n/a
158.757	0.15	317514	keystroke_r	r	n/a
159.717	0.12	319434	keystroke_a	a	n/a
159.957	0.09	319914	keystroke_i	i	n/a
160.182	0.105	320364	keystroke_n	n	n/a
160.377	0.12	320754	keystroke_Key.space	Key.space	n/a
160.572	0.135	321144	keystroke_a	a	n/a
160.752	0.06	321504	keystroke_p	p	n/a
160.902	0.045	321804	keystroke_p	p	n/a
161.037	0.12	322074	keystroke_l	l	n/a
161.277	0.09	322554	keystroke_i	i	n/a
161.472	0.075	322944	keystroke_e	e	n/a
161.637	0.195	323274	keystroke_d	d	n/a
161.802	0.12	323604	keystroke_Key.space	Key.space	n/a
162.057	0.09	324114	keystroke_t	t	n/a
162.237	0.105	324474	keystroke_r	r	n/a
163.0025	0.089	326005	keystroke_i	i	n/a
163.2115	0.075	326423	keystroke_p	p	n/a
163.452	0.12	326904	keystroke_Key.enter	Key.enter	n/a
163.5785	10.36	327157	prompt	n/a	routers acids photographers mario\n
164.8015	0.12	329603	keystroke_r	r	n/a
164.9815	0.18	329963	keystroke_o	o	n/a
165.0415	0.15	330083	keystroke_u	u	n/a
165.2215	0.15	330443	keystroke_t	t	n/a
165.3725	0.2095	330745	keystroke_e	e	n/a
165.5065	0.1655	331013	keystroke_r	r	n/a
165.762	0.195	331524	keystroke_s	s	n/a
166.017	0.15	332034	keystroke_Key.space	Key.space	n/a
166.302	0.09	332604	keystroke_a	a	n/a
166.557	0.15	333114	keystroke_c	c	n/a
166.827	0.075	333654	keystroke_i	i	n/a
167.0375	0.135	334075	keystroke_d	d	n/a
167.232	0.12	334464	keystroke_s	s	n/a
167.4865	0.12	334973	keystroke_Key.space	Key.space	n/a
167.9965	0.105	335993	keystroke_p	p	n/a
168.1915	0.105	336383	keystroke_h	h	n/a
168.3715	0.0905	336743	keystroke_o	o	n/a
168.642	0.09	337284	keystroke_t	t	n/a
168.792	0.09	337584	keystroke_o	o	n/a
169.137	0.105	338274	keystroke_g	g	n/a
169.2715	0.135	338543	keystroke_r	r	n/a
169.4665	0.12	338933	keystroke_a	a	n/a
169.6765	0.09	339353	keystroke_p	p	n/a
169.8265	0.105	339653	keystroke_h	h	n/a
170.052	0.1655	340104	keystroke_e	e	n/a
170.1725	0.15	340345	keystroke_r	r	n/a
170.3975	0.1345	340795	keystroke_s	s	n/a
170.622	0.135	341244	keystroke_Key.space	Key.space	n/a
171.4315	0.1505	342863	keystroke_a	a	n/a
171.852	0.075	343704	keystroke_Key.backspace	Key.backspace	n/a
172.122	0.12	344244	keystroke_m	m	n/a
172.257	0.15	344514	keystroke_a	a	n/a
172.422	0.105	344844	keystroke_r	r	n/a
173.352	0.075	346704	keystroke_i	i	n/a
173.532	0.09	347064	keystroke_o	o	n/a
173.862	0.075	347724	keystroke_Key.enter	Key.enter	n/a
173.9415	10.002	347883	prompt	n/a	conspiracy arabia rankings polish\n
174.702	0.135	349404	keystroke_c	c	n/a
174.852	0.135	349704	keystroke_o	o	n/a
174.912	0.165	349824	keystroke_n	n	n/a
175.182	0.105	350364	keystroke_s	s	n/a
175.437	0.105	350874	keystroke_p	p	n/a
176.2175	0.075	352435	keystroke_i	i	n/a
176.4125	0.135	352825	keystroke_r	r	n/a
176.5175	0.15	353035	keystroke_a	a	n/a
176.787	0.15	353574	keystroke_c	c	n/a
176.997	0.09	353994	keystroke_y	y	n/a
177.372	0.105	354744	keystroke_Key.space	Key.space	n/a
177.687	0.12	355374	keystroke_a	a	n/a
178.137	0.12	356274	keystroke_r	r	n/a
178.5265	0.135	357053	keystroke_a	a	n/a
179.097	0.09	358194	keystroke_b	b	n/a
179.2315	0.12	358463	keystroke_i	i	n/a
179.3665	0.1355	358733	keystroke_a	a	n/a
179.6365	0.15	359273	keystroke_Key.space	Key.space	n/a
180.2975	0.15	360595	keystroke_r	r	n/a
180.5075	0.135	361015	keystroke_a	a	n/a
180.6575	0.09	361315	keystroke_n	n	n/a
181.2265	0.09	362453	keystroke_k	k	n/a
181.4665	0.21	362933	keystroke_i	i	n/a
181.5415	0.166	363083	keystroke_n	n	n/a
181.6775	0.1495	363355	keystroke_g	g	n/a
181.887	0.1645	363774	keystroke_s	s	n/a
182.2465	0.105	364493	keystroke_Key.space	Key.space	n/a
182.4265	0.09	364853	keystroke_p	p	n/a
182.877	0.075	365754	keystroke_o	o	n/a
183.102	0.09	366204	keystroke_l	l	n/a
183.327	0.075	366654	keystroke_i	i	n/a
183.477	0.12	366954	keystroke_s	s	n/a
183.642	0.09	367284	keystroke_h	h	n/a
183.882	0.06	367764	keystroke_Key.enter	Key.enter	n/a
183.9465	9.0265	367893	prompt	n/a	kiss controlling potentially alexander\n
184.7815	0.075	369563	keystroke_k	k	n/a
185.007	0.075	370014	keystroke_i	i	n/a
185.202	0.06	370404	keystroke_s	s	n/a
185.367	0.105	370734	keystroke_s	s	n/a
185.517	0.105	371034	keystroke_Key.space	Key.space	n/a
185.667	0.15	371334	keystroke_c	c	n/a
185.787	0.15	371574	keystroke_o	o	n/a
185.847	0.15	371694	keystroke_n	n	n/a
186.042	0.105	372084	keystroke_t	t	n/a
186.237	0.12	372474	keystroke_r	r	n/a
186.717	0.105	373434	keystroke_o	o	n/a
187.0165	0.075	374033	keystroke_l	l	n/a
187.1665	0.075	374333	keystroke_l	l	n/a
187.3925	0.195	374785	keystroke_i	i	n/a
187.4665	0.181	374933	keystroke_n	n	n/a
187.5725	0.149	375145	keystroke_g	g	n/a
187.7065	0.12	375413	keystroke_Key.space	Key.space	n/a
187.9325	0.075	375865	keystroke_p	p	n/a
188.1865	0.106	376373	keystroke_o	o	n/a
188.4725	0.119	376945	keystroke_t	t	n/a
188.5765	0.151	377153	keystroke_e	e	n/a
188.7415	0.106	377483	keystroke_n	n	n/a
188.8775	0.119	377755	keystroke_t	t	n/a
189.0425	0.075	378085	keystroke_i	i	n/a
189.2525	0.12	378505	keystroke_a	a	n/a
189.807	0.075	379614	keystroke_l	l	n/a
189.942	0.0905	379884	keystroke_l	l	n/a
190.0925	0.135	380185	keystroke_y	y	n/a
190.3625	0.1195	380725	keystroke_Key.space	Key.space	n/a
190.9175	0.1345	381835	keystroke_a	a	n/a
191.082	0.105	382164	keystroke_l	l	n/a
191.262	0.1045	382524	keystroke_e	e	n/a
191.517	0.12	383034	keystroke_x	x	n/a
191.9065	0.12	383813	keystroke_a	a	n/a
192.1015	0.105	384203	keystroke_n	n	n/a
192.2665	0.105	384533	keystroke_d	d	n/a
192.507	0.15	385014	keystroke_e	e	n/a
192.612	0.135	385224	keystroke_r	r	n/a
192.912	0.06	385824	keystroke_Key.enter	Key.enter	n/a
192.9765	8.8615	385953	prompt	n/a	info rider reduces notification\n
194.157	0.015	388314	keystroke_i	i	n/a
194.202	0.075	388404	keystroke_n	n	n/a
194.367	0.105	388734	keystroke_f	f	n/a
194.487	0.09	388974	keystroke_o	o	n/a
194.697	0.12	389394	keystroke_Key.space	Key.space	n/a
194.877	0.12	389754	keystroke_r	r	n/a
195.012	0.06	390024	keystroke_i	i	n/a
195.147	0.12	390294	keystroke_d	d	n/a
195.372	0.135	390744	keystroke_e	e	n/a
195.492	0.135	390984	keystroke_r	r	n/a
195.642	0.15	391284	keystroke_Key.space	Key.space	n/a
196.107	0.135	392214	keystroke_r	r	n/a
196.167	0.15	392334	keystroke_e	e	n/a
196.7815	0.165	393563	keystroke_d	d	n/a
196.9615	0.075	393923	keystroke_u	u	n/a
197.6665	0.15	395333	keystroke_c	c	n/a
197.9665	0.09	395933	keystroke_e	e	n/a
198.1165	0.12	396233	keystroke_s	s	n/a
198.3265	0.1205	396653	keystroke_Key.space	Key.space	n/a
199.0465	0.18	398093	keystroke_n	n	n/a
199.1815	0.1205	398363	keystroke_o	o	n/a
199.392	0.075	398784	keystroke_t	t	n/a
199.497	0.09	398994	keystroke_i	i	n/a
199.692	0.135	399384	keystroke_f	f	n/a
199.842	0.09	399684	keystroke_i	i	n/a
200.7565	0.105	401513	keystroke_c	c	n/a
200.8315	0.12	401663	keystroke_a	a	n/a
201.1465	0.105	402293	keystroke_t	t	n/a
201.3415	0.21	402683	keystroke_i	i	n/a
201.4015	0.12	402803	keystroke_o	o	n/a
201.4765	0.135	402953	keystroke_n	n	n/a
201.7615	0.075	403523	keystroke_Key.enter	Key.enter	n/a
201.8435	6.2645	403687	prompt	n/a	tulsa desperate lets legs\n
202.6465	0.105	405293	keystroke_t	t	n/a
202.8715	0.09	405743	keystroke_u	u	n/a
203.2165	0.09	406433	keystroke_l	l	n/a
203.4715	0.1355	406943	keystroke_s	s	n/a
203.622	0.12	407244	keystroke_a	a	n/a
203.772	0.15	407544	keystroke_Key.space	Key.space	n/a
204.012	0.075	408024	keystroke_d	d	n/a
204.237	0.045	408474	keystroke_e	e	n/a
204.4765	0.12	408953	keystroke_s	s	n/a
204.8515	0.105	409703	keystroke_p	p	n/a
205.0615	0.135	410123	keystroke_e	e	n/a
205.2415	0.09	410483	keystroke_r	r	n/a
205.4365	0.12	410873	keystroke_a	a	n/a
205.6165	0.12	411233	keystroke_t	t	n/a
205.7065	0.15	411413	keystroke_e	e	n/a
205.8865	0.135	411773	keystroke_Key.space	Key.space	n/a
206.307	0.105	412614	keystroke_l	l	n/a
206.427	0.135	412854	keystroke_e	e	n/a
206.532	0.135	413064	keystroke_t	t	n/a
206.712	0.165	413424	keystroke_s	s	n/a
206.861	0.135	413722	keystroke_Key.space	Key.space	n/a
207.117	0.09	414234	keystroke_l	l	n/a
207.222	0.119	414444	keystroke_e	e	n/a
207.4765	0.105	414953	keystroke_g	g	n/a
207.7015	0.105	415403	keystroke_s	s	n/a
208.0315	0.075	416063	keystroke_Key.enter	Key.enter	n/a
208.111	5.7875	416222	prompt	n/a	feeding chance plays rice\n
208.8115	0.105	417623	keystroke_f	f	n/a
209.0215	0.06	418043	keystroke_e	e	n/a
209.1715	0.105	418343	keystroke_e	e	n/a
209.4265	0.03	418853	keystroke_l	l	n/a
209.7715	0.045	419543	keystroke_Key.backspace	Key.backspace	n/a
209.8615	0.135	419723	keystroke_d	d	n/a
210.1165	0.2245	420233	keystroke_i	i	n/a
210.222	0.15	420444	keystroke_n	n	n/a
210.387	0.195	420774	keystroke_g	g	n/a
210.597	0.134	421194	keystroke_Key.space	Key.space	n/a
210.867	0.12	421734	keystroke_c	c	n/a
210.942	0.105	421884	keystroke_h	h	n/a
211.122	0.105	422244	keystroke_a	a	n/a
211.227	0.12	422454	keystroke_n	n	n/a
211.407	0.135	422814	keystroke_c	c	n/a
211.527	0.15	423054	keystroke_e	e	n/a
211.662	0.15	423324	keystroke_Key.space	Key.space	n/a
211.872	0.06	423744	keystroke_p	p	n/a
212.037	0.105	424074	keystroke_l	l	n/a
212.232	0.105	424464	keystroke_a	a	n/a
212.412	0.075	424824	keystroke_y	y	n/a
212.622	0.12	425244	keystroke_s	s	n/a
212.7715	0.12	425543	keystroke_Key.space	Key.space	n/a
213.087	0.105	426174	keystroke_r	r	n/a
213.207	0.075	426414	keystroke_i	i	n/a
213.417	0.15	426834	keystroke_c	c	n/a
213.537	0.12	427074	keystroke_e	e	n/a
213.822	0.075	427644	keystroke_Key.enter	Key.enter	n/a
213.9015	11.907	427803	prompt	n/a	durable phillips hollywood transfers\n
214.932	0.12	429864	keystroke_d	d	n/a
215.157	0.105	430314	keystroke_u	u	n/a
215.3665	0.105	430733	keystroke_r	r	n/a
215.5915	0.105	431183	keystroke_a	a	n/a
215.8015	0.135	431603	keystroke_b	b	n/a
215.9815	0.105	431963	keystroke_l	l	n/a
216.1165	0.12	432233	keystroke_e	e	n/a
216.2065	0.1345	432413	keystroke_Key.space	Key.space	n/a
216.971	0.0905	433942	keystroke_p	p	n/a
217.1965	0.09	434393	keystroke_h	h	n/a
217.4065	0.09	434813	keystroke_i	i	n/a
217.7515	0.075	435503	keystroke_l	l	n/a
218.862	0.06	437724	keystroke_i	i	n/a
219.072	0.09	438144	keystroke_p	p	n/a
219.447	0.135	438894	keystroke_s	s	n/a
219.597	0.105	439194	keystroke_Key.space	Key.space	n/a
220.0165	0.09	440033	keystroke_h	h	n/a
220.1515	0.0905	440303	keystroke_o	o	n/a
220.392	0.075	440784	keystroke_l	l	n/a
220.527	0.075	441054	keystroke_l	l	n/a
220.962	0.075	441924	keystroke_u	u	n/a
221.3665	0.0605	442733	keystroke_Key.backspace	Key.backspace	n/a
221.6215	0.075	443243	keystroke_y	y	n/a
221.8165	0.1055	443633	keystroke_w	w	n/a
221.997	0.0745	443994	keystroke_o	o	n/a
222.1315	0.105	444263	keystroke_o	o	n/a
222.2965	0.165	444593	keystroke_d	d	n/a
222.4765	0.15	444953	keystroke_Key.space	Key.space	n/a
222.897	0.15	445794	keystroke_t	t	n/a
223.062	0.18	446124	keystroke_r	r	n/a
223.227	0.18	446454	keystroke_a	a	n/a
223.422	0.09	446844	keystroke_n	n	n/a
223.677	0.135	447354	keystroke_s	s	n/a
224.172	0.15	448344	keystroke_f	f	n/a
224.4865	0.1955	448973	keystroke_e	e	n/a
224.622	0.1195	449244	keystroke_r	r	n/a
225.477	0.1195	450954	keystroke_s	s	n/a
225.7165	0.09	451433	keystroke_Key.enter	Key.enter	n/a
225.812	8.7565	451624	prompt	n/a	eliminate worldcat carroll complex\n
226.782	0.1345	453564	keystroke_e	e	n/a
227.1715	0.09	454343	keystroke_l	l	n/a
227.3515	0.06	454703	keystroke_i	i	n/a
227.6215	0.105	455243	keystroke_m	m	n/a
227.8315	0.075	455663	keystroke_i	i	n/a
228.0415	0.09	456083	keystroke_n	n	n/a
228.2815	0.135	456563	keystroke_a	a	n/a
228.4615	0.15	456923	keystroke_t	t	n/a
228.5215	0.165	457043	keystroke_e	e	n/a
228.6565	0.165	457313	keystroke_Key.space	Key.space	n/a
228.9415	0.105	457883	keystroke_w	w	n/a
229.0915	0.09	458183	keystroke_o	o	n/a
229.2265	0.135	458453	keystroke_r	r	n/a
229.3765	0.12	458753	keystroke_l	l	n/a
229.7965	0.12	459593	keystroke_d	d	n/a
230.1715	0.105	460343	keystroke_c	c	n/a
230.2915	0.0905	460583	keystroke_a	a	n/a
230.517	0.075	461034	keystroke_t	t	n/a
230.727	0.09	461454	keystroke_Key.space	Key.space	n/a
230.9815	0.135	461963	keystroke_c	c	n/a
231.1315	0.09	462263	keystroke_a	a	n/a
231.3265	0.12	462653	keystroke_r	r	n/a
231.5965	0.075	463193	keystroke_r	r	n/a
231.8665	0.06	463733	keystroke_o	o	n/a
232.1365	0.06	464273	keystroke_l	l	n/a
232.2865	0.061	464573	keystroke_l	l	n/a
232.4815	0.12	464963	keystroke_Key.space	Key.space	n/a
232.6915	0.1505	465383	keystroke_c	c	n/a
232.857	0.12	465714	keystroke_o	o	n/a
233.097	0.105	466194	keystroke_m	m	n/a
233.322	0.06	466644	keystroke_p	p	n/a
233.502	0.09	467004	keystroke_l	l	n/a
233.652	0.09	467304	keystroke_e	e	n/a
233.892	0.105	467784	keystroke_x	x	n/a
234.492	0.075	468984	keystroke_Key.enter	Key.enter	n/a
234.5715	6.747	469143	prompt	n/a	aware nursing told exclude\n
235.5415	0.135	471083	keystroke_a	a	n/a
235.7815	0.105	471563	keystroke_w	w	n/a
235.947	0.1495	471894	keystroke_a	a	n/a
236.217	0.165	472434	keystroke_r	r	n/a
236.337	0.225	472674	keystroke_e	e	n/a
236.622	0.165	473244	keystroke_Key.space	Key.space	n/a
236.922	0.105	473844	keystroke_n	n	n/a
237.102	0.135	474204	keystroke_u	u	n/a
237.327	0.15	474654	keystroke_r	r	n/a
237.897	0.1345	475794	keystroke_s	s	n/a
238.1515	0.225	476303	keystroke_i	i	n/a
238.2715	0.166	476543	keystroke_n	n	n/a
238.3615	0.18	476723	keystroke_g	g	n/a
238.4965	0.135	476993	keystroke_Key.space	Key.space	n/a
238.827	0.12	477654	keystroke_t	t	n/a
238.962	0.075	477924	keystroke_o	o	n/a
239.142	0.135	478284	keystroke_l	l	n/a
239.292	0.105	478584	keystroke_d	d	n/a
239.352	0.135	478704	keystroke_Key.space	Key.space	n/a
239.547	0.09	479094	keystroke_e	e	n/a
239.787	0.105	479574	keystroke_x	x	n/a
240.027	0.105	480054	keystroke_c	c	n/a
240.252	0.105	480504	keystroke_l	l	n/a
240.537	0.06	481074	keystroke_u	u	n/a
240.747	0.0905	481494	keystroke_d	d	n/a
240.9575	0.0895	481915	keystroke_e	e	n/a
241.242	0.075	482484	keystroke_Key.enter	Key.enter	n/a
241.3215	7.137	482643	prompt	n/a	rely casinos is sleeping\n
242.0365	0.135	484073	keystroke_r	r	n/a
242.1115	0.1655	484223	keystroke_e	e	n/a
242.3665	0.09	484733	keystroke_l	l	n/a
242.6515	0.09	485303	keystroke_y	y	n/a
243.117	0.1495	486234	keystroke_Key.space	Key.space	n/a
243.597	0.12	487194	keystroke_c	c	n/a
243.792	0.15	487584	keystroke_a	a	n/a
243.957	0.105	487914	keystroke_n	n	n/a
244.4365	0.09	488873	keystroke_Key.backspace	Key.backspace	n/a
244.6475	0.104	489295	keystroke_s	s	n/a
244.7965	0.105	489593	keystroke_i	i	n/a
245.1865	0.15	490373	keystroke_n	n	n/a
245.3065	0.12	490613	keystroke_o	o	n/a
245.4565	0.135	490913	keystroke_s	s	n/a
245.6515	0.1505	491303	keystroke_Key.space	Key.space	n/a
245.922	0.165	491844	keystroke_i	i	n/a
246.192	0.18	492384	keystroke_s	s	n/a
246.357	0.135	492714	keystroke_Key.space	Key.space	n/a
246.627	0.105	493254	keystroke_s	s	n/a
246.747	0.105	493494	keystroke_l	l	n/a
247.272	0.105	494544	keystroke_e	e	n/a
247.452	0.105	494904	keystroke_e	e	n/a
247.722	0.075	495444	keystroke_p	p	n/a
247.977	0.21	495954	keystroke_i	i	n/a
248.082	0.135	496164	keystroke_n	n	n/a
248.172	0.105	496344	keystroke_g	g	n/a
248.397	0.06	496794	keystroke_Key.enter	Key.enter	n/a
248.462	25.5115	496924	prompt	n/a	classifieds stocks commodity dispatch\n
249.6715	0.12	499343	keystroke_c	c	n/a
249.8065	0.09	499613	keystroke_l	l	n/a
249.9415	0.0905	499883	keystroke_a	a	n/a
250.167	0.075	500334	keystroke_s	s	n/a
250.347	0.09	500694	keystroke_s	s	n/a
250.677	0.12	501354	keystroke_f	f	n/a
250.917	0.09	501834	keystroke_i	i	n/a
251.3815	0.105	502763	keystroke_g	g	n/a
251.6215	0.09	503243	keystroke_i	i	n/a
251.7565	0.075	503513	keystroke_e	e	n/a
251.9365	0.1355	503873	keystroke_d	d	n/a
252.5965	0.075	505193	keystroke_Key.backspace	Key.backspace	n/a
252.7465	0.075	505493	keystroke_Key.backspace	Key.backspace	n/a
252.8965	0.09	505793	keystroke_Key.backspace	Key.backspace	n/a
253.5565	0.09	507113	keystroke_Key.backspace	Key.backspace	n/a
256.979	0.058	513958	keystroke_e	e	n/a
257.217	0.09	514434	keystroke_i	i	n/a
257.367	0.165	514734	keystroke_d	d	n/a
257.907	0.06	515814	keystroke_Key.backspace	Key.backspace	n/a
258.057	0.06	516114	keystroke_Key.backspace	Key.backspace	n/a
258.132	0.18	516264	keystroke_d	d	n/a
258.492	0.12	516984	keystroke_Key.space	Key.space	n/a
261.3445	0.001	522689	keystroke_Key.left	Key.left	n/a
262.287	0.06	524574	keystroke_Key.backspace	Key.backspace	n/a
262.482	0.075	524964	keystroke_Key.backspace	Key.backspace	n/a
262.677	0.0595	525354	keystroke_Key.backspace	Key.backspace	n/a
262.8715	0.075	525743	keystroke_Key.backspace	Key.backspace	n/a
264.102	0.06	528204	keystroke_i	i	n/a
264.8665	0.135	529733	keystroke_f	f	n/a
265.0615	0.106	530123	keystroke_i	i	n/a
265.2275	0.06	530455	keystroke_e	e	n/a
265.4375	0.164	530875	keystroke_d	d	n/a
265.7965	0.136	531593	keystroke_s	s	n/a
266.0515	0.1355	532103	keystroke_Key.space	Key.space	n/a
266.292	0.12	532584	keystroke_s	s	n/a
266.5165	0.105	533033	keystroke_t	t	n/a
266.6665	0.105	533333	keystroke_o	o	n/a
266.8465	0.15	533693	keystroke_c	c	n/a
267.1765	0.105	534353	keystroke_k	k	n/a
267.3865	0.1655	534773	keystroke_s	s	n/a
267.582	0.15	535164	keystroke_Key.space	Key.space	n/a
268.257	0.135	536514	keystroke_c	c	n/a
268.362	0.105	536724	keystroke_o	o	n/a
268.632	0.076	537264	keystroke_m	m	n/a
268.767	0.105	537534	keystroke_m	m	n/a
269.217	0.09	538434	keystroke_o	o	n/a
269.637	0.12	539274	keystroke_d	d	n/a
269.742	0.09	539484	keystroke_i	i	n/a
270.3425	0.09	540685	keystroke_t	t	n/a
270.5075	0.06	541015	keystroke_y	y	n/a
271.017	0.12	542034	keystroke_Key.space	Key.space	n/a
272.172	0.12	544344	keystroke_d	d	n/a
272.277	0.1045	544554	keystroke_i	i	n/a
272.3965	0.09	544793	keystroke_s	s	n/a
272.6515	0.09	545303	keystroke_p	p	n/a
272.7565	0.1655	545513	keystroke_a	a	n/a
273.207	0.09	546414	keystroke_t	t	n/a
273.507	0.135	547014	keystroke_c	c	n/a
273.627	0.09	547254	keystroke_h	h	n/a
273.897	0.075	547794	keystroke_Key.enter	Key.enter	n/a
273.9775	10.796	547955	prompt	n/a	sheer administered discussions simpsons\n
274.767	0.15	549534	keystroke_s	s	n/a
274.902	0.105	549804	keystroke_h	h	n/a
275.127	0.09	550254	keystroke_e	e	n/a
275.292	0.135	550584	keystroke_e	e	n/a
275.502	0.135	551004	keystroke_r	r	n/a
275.8765	0.12	551753	keystroke_Key.space	Key.space	n/a
276.1915	0.105	552383	keystroke_a	a	n/a
276.4165	0.135	552833	keystroke_d	d	n/a
276.7315	0.105	553463	keystroke_m	m	n/a
276.9115	0.0905	553823	keystroke_i	i	n/a
277.077	0.15	554154	keystroke_n	n	n/a
277.212	0.105	554424	keystroke_i	i	n/a
277.377	0.12	554754	keystroke_s	s	n/a
277.602	0.105	555204	keystroke_t	t	n/a
277.842	0.165	555684	keystroke_e	e	n/a
278.067	0.105	556134	keystroke_r	r	n/a
278.307	0.09	556614	keystroke_e	e	n/a
278.502	0.135	557004	keystroke_d	d	n/a
278.8625	0.1345	557725	keystroke_Key.space	Key.space	n/a
279.207	0.075	558414	keystroke_s	s	n/a
279.597	0.09	559194	keystroke_Key.backspace	Key.backspace	n/a
279.702	0.135	559404	keystroke_d	d	n/a
279.882	0.09	559764	keystroke_i	i	n/a
280.047	0.105	560094	keystroke_s	s	n/a
280.662	0.15	561324	keystroke_c	c	n/a
280.857	0.09	561714	keystroke_u	u	n/a
281.0665	0.075	562133	keystroke_s	s	n/a
281.2315	0.075	562463	keystroke_s	s	n/a
281.4265	0.21	562853	keystroke_i	i	n/a
281.5015	0.15	563003	keystroke_o	o	n/a
281.5915	0.135	563183	keystroke_n	n	n/a
281.7865	0.105	563573	keystroke_s	s	n/a
282.162	0.12	564324	keystroke_Key.space	Key.space	n/a
282.732	0.12	565464	keystroke_s	s	n/a
282.837	0.09	565674	keystroke_i	i	n/a
283.002	0.12	566004	keystroke_m	m	n/a
283.227	0.075	566454	keystroke_p	p	n/a
284.082	0.105	568164	keystroke_s	s	n/a
284.232	0.15	568464	keystroke_o	o	n/a
284.322	0.12	568644	keystroke_n	n	n/a
284.457	0.105	568914	keystroke_s	s	n/a
284.682	0.0905	569364	keystroke_Key.enter	Key.enter	n/a
284.7765	10.332	569553	prompt	n/a	commit chips explorer participate\n
285.5375	0.135	571075	keystroke_c	c	n/a
285.7025	0.105	571405	keystroke_o	o	n/a
285.9425	0.075	571885	keystroke_m	m	n/a
286.0925	0.075	572185	keystroke_m	m	n/a
286.3325	0.06	572665	keystroke_u	u	n/a
286.8415	0.06	573683	keystroke_Key.backspace	Key.backspace	n/a
287.0965	0.075	574193	keystroke_i	i	n/a
287.2465	0.15	574493	keystroke_t	t	n/a
287.4265	0.135	574853	keystroke_Key.space	Key.space	n/a
287.6665	0.15	575333	keystroke_c	c	n/a
287.7865	0.0905	575573	keystroke_h	h	n/a
288.012	0.075	576024	keystroke_o	o	n/a
289.077	0.12	578154	keystroke_Key.backspace	Key.backspace	n/a
289.3615	0.0455	578723	keystroke_i	i	n/a
289.587	0.06	579174	keystroke_p	p	n/a
289.8275	0.12	579655	keystroke_s	s	n/a
290.007	0.165	580014	keystroke_Key.space	Key.space	n/a
290.382	0.1045	580764	keystroke_e	e	n/a
290.6065	0.12	581213	keystroke_x	x	n/a
290.8165	0.09	581633	keystroke_p	p	n/a
291.0265	0.075	582053	keystroke_l	l	n/a
291.447	0.06	582894	keystroke_o	o	n/a
291.747	0.06	583494	keystroke_r	r	n/a
292.197	0.09	584394	keystroke_e	e	n/a
292.4075	0.0895	584815	keystroke_r	r	n/a
292.692	0.1195	585384	keystroke_Key.space	Key.space	n/a
293.157	0.105	586314	keystroke_p	p	n/a
293.277	0.1355	586554	keystroke_a	a	n/a
293.4575	0.12	586915	keystroke_r	r	n/a
293.6825	0.0895	587365	keystroke_t	t	n/a
293.787	0.075	587574	keystroke_i	i	n/a
293.997	0.12	587994	keystroke_c	c	n/a
294.132	0.075	588264	keystroke_i	i	n/a
294.387	0.075	588774	keystroke_p	p	n/a
294.522	0.135	589044	keystroke_a	a	n/a
294.672	0.15	589344	keystroke_t	t	n/a
294.7465	0.1355	589493	keystroke_e	e	n/a
295.017	0.09	590034	keystroke_Key.enter	Key.enter	n/a
295.114	10.2395	590228	prompt	n/a	controls dictionary pricing sandy\n
295.8565	0.165	591713	keystroke_c	c	n/a
295.977	0.1795	591954	keystroke_o	o	n/a
296.097	0.1645	592194	keystroke_n	n	n/a
296.3515	0.12	592703	keystroke_t	t	n/a
296.5465	0.135	593093	keystroke_r	r	n/a
296.7415	0.09	593483	keystroke_o	o	n/a
296.9965	0.105	593993	keystroke_l	l	n/a
297.2965	0.121	594593	keystroke_s	s	n/a
297.5065	0.135	595013	keystroke_Key.space	Key.space	n/a
297.8975	0.12	595795	keystroke_d	d	n/a
298.0025	0.075	596005	keystroke_i	i	n/a
298.1525	0.135	596305	keystroke_s	s	n/a
298.6325	0.045	597265	keystroke_Key.backspace	Key.backspace	n/a
298.7225	0.12	597445	keystroke_c	c	n/a
298.9925	0.105	597985	keystroke_t	t	n/a
299.3825	0.105	598765	keystroke_i	i	n/a
299.5925	0.09	599185	keystroke_o	o	n/a
299.6975	0.135	599395	keystroke_n	n	n/a
300.0575	0.12	600115	keystroke_a	a	n/a
300.282	0.1055	600564	keystroke_r	r	n/a
300.5375	0.075	601075	keystroke_y	y	n/a
301.167	0.18	602334	keystroke_Key.space	Key.space	n/a
301.9175	0.044	603835	keystroke_p	p	n/a
302.0365	0.12	604073	keystroke_r	r	n/a
302.6065	0.105	605213	keystroke_i	i	n/a
302.8915	0.135	605783	keystroke_c	c	n/a
303.1765	0.18	606353	keystroke_i	i	n/a
303.2515	0.165	606503	keystroke_n	n	n/a
303.4015	0.135	606803	keystroke_g	g	n/a
304.002	0.15	608004	keystroke_Key.space	Key.space	n/a
304.227	0.165	608454	keystroke_s	s	n/a
304.377	0.15	608754	keystroke_a	a	n/a
304.527	0.105	609054	keystroke_n	n	n/a
304.677	0.12	609354	keystroke_d	d	n/a
304.902	0.075	609804	keystroke_y	y	n/a
305.2925	0.059	610585	keystroke_Key.enter	Key.enter	n/a
305.3585	8.081	610717	prompt	n/a	exception cleveland nokia cottage\n
306.0565	0.12	612113	keystroke_e	e	n/a
306.2965	0.12	612593	keystroke_x	x	n/a
306.5815	0.12	613163	keystroke_c	c	n/a
306.7615	0.1205	613523	keystroke_e	e	n/a
306.9715	0.075	613943	keystroke_p	p	n/a
307.1665	0.09	614333	keystroke_t	t	n/a
307.3465	0.2555	614693	keystroke_i	i	n/a
307.4515	0.12	614903	keystroke_o	o	n/a
307.5115	0.1505	615023	keystroke_n	n	n/a
307.692	0.12	615384	keystroke_Key.space	Key.space	n/a
308.007	0.12	616014	keystroke_c	c	n/a
308.172	0.105	616344	keystroke_l	l	n/a
308.637	0.12	617274	keystroke_e	e	n/a
308.922	0.15	617844	keystroke_v	v	n/a
309.087	0.09	618174	keystroke_e	e	n/a
309.612	0.075	619224	keystroke_l	l	n/a
309.7325	0.105	619465	keystroke_a	a	n/a
309.8675	0.105	619735	keystroke_n	n	n/a
310.0325	0.18	620065	keystroke_d	d	n/a
310.1825	0.135	620365	keystroke_Key.space	Key.space	n/a
310.4515	0.121	620903	keystroke_n	n	n/a
310.6165	0.106	621233	keystroke_o	o	n/a
310.8865	0.075	621773	keystroke_k	k	n/a
311.097	0.045	622194	keystroke_i	i	n/a
311.262	0.12	622524	keystroke_a	a	n/a
311.427	0.12	622854	keystroke_Key.space	Key.space	n/a
311.682	0.135	623364	keystroke_c	c	n/a
311.832	0.0595	623664	keystroke_o	o	n/a
312.177	0.09	624354	keystroke_t	t	n/a
312.342	0.0745	624684	keystroke_t	t	n/a
312.5965	0.12	625193	keystroke_a	a	n/a
312.8515	0.15	625703	keystroke_g	g	n/a
312.9865	0.135	625973	keystroke_e	e	n/a
313.347	0.09	626694	keystroke_Key.enter	Key.enter	n/a
313.443	8.9505	626886	prompt	n/a	boom cancel tracker departmental\n
314.3065	0.09	628613	keystroke_b	b	n/a
314.5465	0.06	629093	keystroke_o	o	n/a
314.6815	0.09	629363	keystroke_o	o	n/a
314.9065	0.09	629813	keystroke_m	m	n/a
315.252	0.135	630504	keystroke_Key.space	Key.space	n/a
315.7165	0.165	631433	keystroke_c	c	n/a
315.8965	0.1355	631793	keystroke_a	a	n/a
316.017	0.105	632034	keystroke_n	n	n/a
316.182	0.195	632364	keystroke_c	c	n/a
316.362	0.135	632724	keystroke_e	e	n/a
316.512	0.105	633024	keystroke_l	l	n/a
316.662	0.09	633324	keystroke_Key.space	Key.space	n/a
316.857	0.135	633714	keystroke_t	t	n/a
317.022	0.15	634044	keystroke_r	r	n/a
317.232	0.09	634464	keystroke_a	a	n/a
317.427	0.135	634854	keystroke_c	c	n/a
317.607	0.09	635214	keystroke_k	k	n/a
317.787	0.1805	635574	keystroke_e	e	n/a
317.8925	0.194	635785	keystroke_r	r	n/a
318.0715	0.165	636143	keystroke_Key.space	Key.space	n/a
318.7765	0.09	637553	keystroke_d	d	n/a
318.9865	0.09	637973	keystroke_e	e	n/a
319.302	0.09	638604	keystroke_p	p	n/a
319.452	0.135	638904	keystroke_a	a	n/a
319.677	0.075	639354	keystroke_r	r	n/a
319.872	0.06	639744	keystroke_t	t	n/a
320.0965	0.09	640193	keystroke_m	m	n/a
320.2315	0.12	640463	keystroke_e	e	n/a
320.4265	0.105	640853	keystroke_n	n	n/a
320.742	0.105	641484	keystroke_t	t	n/a
321.102	0.075	642204	keystroke_l	l	n/a
321.6425	0.06	643285	keystroke_Key.backspace	Key.backspace	n/a
321.8225	0.09	643645	keystroke_a	a	n/a
322.0175	0.075	644035	keystroke_l	l	n/a
322.3175	0.075	644635	keystroke_Key.enter	Key.enter	n/a
322.396	14.743	644792	prompt	n/a	responding genealogy governance postposted\n
323.1415	0.1805	646283	keystroke_r	r	n/a
323.2615	0.1355	646523	keystroke_e	e	n/a
323.5765	0.12	647153	keystroke_s	s	n/a
323.8465	0.09	647693	keystroke_p	p	n/a
324.0715	0.09	648143	keystroke_o	o	n/a
324.3115	0.105	648623	keystroke_n	n	n/a
324.6415	0.1055	649283	keystroke_d	d	n/a
324.882	0.165	649764	keystroke_i	i	n/a
324.942	0.195	649884	keystroke_n	n	n/a
325.077	0.15	650154	keystroke_g	g	n/a
325.182	0.15	650364	keystroke_Key.space	Key.space	n/a
325.8415	0.12	651683	keystroke_g	g	n/a
326.0965	0.09	652193	keystroke_e	e	n/a
326.3815	0.09	652763	keystroke_n	n	n/a
326.5315	0.12	653063	keystroke_e	e	n/a
327.1475	0.12	654295	keystroke_a	a	n/a
327.462	0.075	654924	keystroke_l	l	n/a
327.657	0.075	655314	keystroke_o	o	n/a
327.807	0.15	655614	keystroke_g	g	n/a
328.0025	0.09	656005	keystroke_y	y	n/a
328.2115	0.12	656423	keystroke_Key.space	Key.space	n/a
328.797	0.105	657594	keystroke_g	g	n/a
328.962	0.09	657924	keystroke_o	o	n/a
329.112	0.15	658224	keystroke_v	v	n/a
329.277	0.15	658554	keystroke_e	e	n/a
329.3525	0.1645	658705	keystroke_r	r	n/a
330.6115	0.06	661223	keystroke_n	n	n/a
331.5875	0.12	663175	keystroke_a	a	n/a
333.854	0.043	667708	keystroke_n	n	n/a
333.987	0.165	667974	keystroke_c	c	n/a
334.137	0.15	668274	keystroke_e	e	n/a
334.257	0.135	668514	keystroke_Key.space	Key.space	n/a
334.6765	0.09	669353	keystroke_p	p	n/a
334.9015	0.091	669803	keystroke_o	o	n/a
335.022	0.12	670044	keystroke_s	s	n/a
335.232	0.12	670464	keystroke_t	t	n/a
335.6225	0.06	671245	keystroke_p	p	n/a
335.8025	0.075	671605	keystroke_o	o	n/a
335.9525	0.135	671905	keystroke_s	s	n/a
336.1175	0.135	672235	keystroke_t	t	n/a
336.2225	0.15	672445	keystroke_e	e	n/a
336.4475	0.18	672895	keystroke_d	d	n/a
337.077	0.06	674154	keystroke_Key.enter	Key.enter	n/a
337.1425	10.796	674285	prompt	n/a	processor colleagues accepting counters\n
337.992	0.09	675984	keystroke_p	p	n/a
338.247	0.1505	676494	keystroke_r	r	n/a
338.4725	0.09	676945	keystroke_o	o	n/a
338.7865	0.151	677573	keystroke_c	c	n/a
338.9525	0.105	677905	keystroke_e	e	n/a
339.1625	0.105	678325	keystroke_s	s	n/a
339.3425	0.075	678685	keystroke_s	s	n/a
339.5525	0.075	679105	keystroke_o	o	n/a
339.6575	0.1645	679315	keystroke_r	r	n/a
339.807	0.12	679614	keystroke_Key.space	Key.space	n/a
340.0465	0.151	680093	keystroke_c	c	n/a
340.2425	0.059	680485	keystroke_o	o	n/a
340.4375	0.0745	680875	keystroke_l	l	n/a
340.587	0.105	681174	keystroke_l	l	n/a
340.752	0.135	681504	keystroke_e	e	n/a
341.2165	0.136	682433	keystroke_a	a	n/a
341.5315	0.135	683063	keystroke_g	g	n/a
341.7265	0.105	683453	keystroke_u	u	n/a
341.9065	0.1505	683813	keystroke_e	e	n/a
342.162	0.15	684324	keystroke_s	s	n/a
342.5365	0.12	685073	keystroke_Key.space	Key.space	n/a
342.9565	0.105	685913	keystroke_a	a	n/a
343.1975	0.089	686395	keystroke_c	c	n/a
343.3465	0.105	686693	keystroke_c	c	n/a
343.6915	0.105	687383	keystroke_e	e	n/a
343.9315	0.09	687863	keystroke_p	p	n/a
344.3815	0.09	688763	keystroke_t	t	n/a
344.6365	0.21	689273	keystroke_i	i	n/a
344.7115	0.165	689423	keystroke_n	n	n/a
344.8615	0.165	689723	keystroke_g	g	n/a
345.0115	0.166	690023	keystroke_Key.space	Key.space	n/a
346.512	0.135	693024	keystroke_c	c	n/a
346.617	0.1655	693234	keystroke_o	o	n/a
346.8725	0.105	693745	keystroke_u	u	n/a
347.0075	0.135	694015	keystroke_n	n	n/a
347.1875	0.1345	694375	keystroke_t	t	n/a
347.307	0.225	694614	keystroke_e	e	n/a
347.457	0.15	694914	keystroke_r	r	n/a
347.637	0.135	695274	keystroke_s	s	n/a
347.862	0.075	695724	keystroke_Key.enter	Key.enter	n/a
347.9415	11.8175	695883	prompt	n/a	annex paxil cadillac latvia\n
348.762	0.165	697524	keystroke_a	a	n/a
349.002	0.075	698004	keystroke_n	n	n/a
349.137	0.0905	698274	keystroke_n	n	n/a
349.2565	0.121	698513	keystroke_e	e	n/a
349.5275	0.165	699055	keystroke_x	x	n/a
349.7065	0.165	699413	keystroke_Key.space	Key.space	n/a
350.3665	0.09	700733	keystroke_a	a	n/a
350.8165	0.03	701633	keystroke_Key.backspace	Key.backspace	n/a
351.5065	0.091	703013	keystroke_p	p	n/a
351.7015	0.121	703403	keystroke_a	a	n/a
352.1975	0.18	704395	keystroke_x	x	n/a
352.4515	0.105	704903	keystroke_i	i	n/a
352.7225	0.09	705445	keystroke_l	l	n/a
352.9925	0.15	705985	keystroke_Key.space	Key.space	n/a
353.7725	0.165	707545	keystroke_c	c	n/a
353.9075	0.1795	707815	keystroke_a	a	n/a
354.567	0.105	709134	keystroke_d	d	n/a
354.837	0.09	709674	keystroke_i	i	n/a
356.3675	0.059	712735	keystroke_l	l	n/a
356.5315	0.075	713063	keystroke_l	l	n/a
356.757	0.075	713514	keystroke_a	a	n/a
356.967	0.12	713934	keystroke_c	c	n/a
357.237	0.105	714474	keystroke_Key.space	Key.space	n/a
357.897	0.1045	715794	keystroke_l	l	n/a
358.0765	0.135	716153	keystroke_a	a	n/a
358.3915	0.075	716783	keystroke_t	t	n/a
359.3815	0.045	718763	keystroke_v	v	n/a
359.4415	0.015	718883	keystroke_i	i	n/a
359.5015	0.12	719003	keystroke_a	a	n/a
359.682	0.075	719364	keystroke_Key.enter	Key.enter	n/a
359.7615	7.677	719523	prompt	n/a	nightlife statistics cold benz\n
360.732	0.15	721464	keystroke_n	n	n/a
360.897	0.09	721794	keystroke_i	i	n/a
361.002	0.1355	722004	keystroke_g	g	n/a
361.1515	0.105	722303	keystroke_h	h	n/a
361.2265	0.1355	722453	keystroke_t	t	n/a
361.6015	0.105	723203	keystroke_l	l	n/a
361.7665	0.105	723533	keystroke_i	i	n/a
361.9315	0.165	723863	keystroke_f	f	n/a
362.0515	0.18	724103	keystroke_e	e	n/a
362.3065	0.18	724613	keystroke_Key.space	Key.space	n/a
362.922	0.09	725844	keystroke_s	s	n/a
363.162	0.135	726324	keystroke_t	t	n/a
363.372	0.15	726744	keystroke_a	a	n/a
363.627	0.12	727254	keystroke_t	t	n/a
364.1075	0.09	728215	keystroke_i	i	n/a
364.422	0.09	728844	keystroke_s	s	n/a
364.722	0.075	729444	keystroke_t	t	n/a
364.812	0.105	729624	keystroke_i	i	n/a
365.022	0.1205	730044	keystroke_c	c	n/a
365.2475	0.105	730495	keystroke_s	s	n/a
365.4715	0.1055	730943	keystroke_Key.space	Key.space	n/a
365.772	0.12	731544	keystroke_c	c	n/a
365.877	0.06	731754	keystroke_o	o	n/a
366.057	0.09	732114	keystroke_l	l	n/a
366.177	0.18	732354	keystroke_d	d	n/a
366.267	0.135	732534	keystroke_Key.space	Key.space	n/a
366.522	0.09	733044	keystroke_b	b	n/a
366.702	0.12	733404	keystroke_e	e	n/a
366.807	0.075	733614	keystroke_n	n	n/a
367.1065	0.105	734213	keystroke_z	z	n/a
367.3615	0.075	734723	keystroke_Key.enter	Key.enter	n/a
367.4415	8.202	734883	prompt	n/a	highlighted flux babes lodging\n
368.1725	0.1645	736345	keystroke_h	h	n/a
368.2775	0.1195	736555	keystroke_i	i	n/a
368.412	0.12	736824	keystroke_g	g	n/a
368.547	0.135	737094	keystroke_h	h	n/a
369.147	0.075	738294	keystroke_l	l	n/a
369.327	0.09	738654	keystroke_i	i	n/a
369.462	0.09	738924	keystroke_g	g	n/a
369.582	0.105	739164	keystroke_h	h	n/a
369.717	0.105	739434	keystroke_t	t	n/a
370.392	0.075	740784	keystroke_e	e	n/a
370.572	0.135	741144	keystroke_d	d	n/a
370.737	0.105	741474	keystroke_Key.space	Key.space	n/a
370.917	0.12	741834	keystroke_f	f	n/a
371.067	0.0905	742134	keystroke_l	l	n/a
371.3225	0.075	742645	keystroke_u	u	n/a
371.5325	0.12	743065	keystroke_x	x	n/a
371.6815	0.15	743363	keystroke_Key.space	Key.space	n/a
372.117	0.105	744234	keystroke_b	b	n/a
372.252	0.12	744504	keystroke_a	a	n/a
372.882	0.105	745764	keystroke_b	b	n/a
373.0325	0.09	746065	keystroke_e	e	n/a
373.3475	0.1495	746695	keystroke_s	s	n/a
373.557	0.12	747114	keystroke_Key.space	Key.space	n/a
373.9165	0.061	747833	keystroke_l	l	n/a
374.1115	0.076	748223	keystroke_o	o	n/a
374.3215	0.151	748643	keystroke_d	d	n/a
374.6075	0.105	749215	keystroke_g	g	n/a
374.9075	0.179	749815	keystroke_i	i	n/a
374.9815	0.165	749963	keystroke_n	n	n/a
375.1315	0.061	750263	keystroke_g	g	n/a
375.567	0.075	751134	keystroke_Key.enter	Key.enter	n/a
375.6465	9.267	751293	prompt	n/a	hitting richards accurately gently\n
376.392	0.09	752784	keystroke_h	h	n/a
376.677	0.015	753354	keystroke_o	o	n/a
376.857	0.0445	753714	keystroke_t	t	n/a
377.0065	0.12	754013	keystroke_t	t	n/a
377.4115	0.045	754823	keystroke_Key.backspace	Key.backspace	n/a
377.5615	0.045	755123	keystroke_Key.backspace	Key.backspace	n/a
377.6825	0.075	755365	keystroke_Key.backspace	Key.backspace	n/a
378.2215	0.075	756443	keystroke_i	i	n/a
378.4765	0.075	756953	keystroke_t	t	n/a
378.6125	0.105	757225	keystroke_t	t	n/a
378.8975	0.12	757795	keystroke_i	i	n/a
378.9125	0.15	757825	keystroke_n	n	n/a
379.0325	0.165	758065	keystroke_g	g	n/a
379.1525	0.135	758305	keystroke_Key.space	Key.space	n/a
379.557	0.135	759114	keystroke_r	r	n/a
379.707	0.105	759414	keystroke_i	i	n/a
379.9025	0.1645	759805	keystroke_c	c	n/a
380.052	0.09	760104	keystroke_h	h	n/a
380.187	0.09	760374	keystroke_a	a	n/a
380.352	0.12	760704	keystroke_r	r	n/a
380.592	0.12	761184	keystroke_d	d	n/a
380.832	0.12	761664	keystroke_s	s	n/a
381.027	0.135	762054	keystroke_Key.space	Key.space	n/a
381.282	0.12	762564	keystroke_a	a	n/a
381.537	0.06	763074	keystroke_c	c	n/a
381.687	0.105	763374	keystroke_c	c	n/a
381.822	0.105	763644	keystroke_u	u	n/a
382.0315	0.121	764063	keystroke_r	r	n/a
382.302	0.105	764604	keystroke_a	a	n/a
382.542	0.09	765084	keystroke_t	t	n/a
382.662	0.1195	765324	keystroke_e	e	n/a
382.9015	0.091	765803	keystroke_l	l	n/a
383.0365	0.135	766073	keystroke_y	y	n/a
383.2315	0.1655	766463	keystroke_Key.space	Key.space	n/a
383.547	0.15	767094	keystroke_g	g	n/a
383.712	0.135	767424	keystroke_e	e	n/a
383.907	0.12	767814	keystroke_n	n	n/a
384.132	0.12	768264	keystroke_t	t	n/a
384.372	0.09	768744	keystroke_l	l	n/a
384.537	0.1205	769074	keystroke_y	y	n/a
384.837	0.075	769674	keystroke_Key.enter	Key.enter	n/a
384.9165	12.957	769833	prompt	n/a	transactions requiring would've edgar\n
385.782	0.15	771564	keystroke_t	t	n/a
385.962	0.2545	771924	keystroke_r	r	n/a
386.2015	0.136	772403	keystroke_a	a	n/a
386.6065	0.1655	773213	keystroke_n	n	n/a
387.132	0.15	774264	keystroke_s	s	n/a
388.7525	0.104	777505	keystroke_a	a	n/a
389.0365	0.105	778073	keystroke_c	c	n/a
389.3215	0.105	778643	keystroke_t	t	n/a
389.5165	0.15	779033	keystroke_i	i	n/a
389.5465	0.15	779093	keystroke_o	o	n/a
389.6215	0.15	779243	keystroke_n	n	n/a
389.8315	0.12	779663	keystroke_s	s	n/a
389.9365	0.151	779873	keystroke_Key.space	Key.space	n/a
390.222	0.12	780444	keystroke_r	r	n/a
390.297	0.18	780594	keystroke_e	e	n/a
390.6725	0.1195	781345	keystroke_q	q	n/a
390.897	0.075	781794	keystroke_u	u	n/a
391.107	0.075	782214	keystroke_i	i	n/a
391.3775	0.119	782755	keystroke_r	r	n/a
392.6815	0.196	785363	keystroke_i	i	n/a
392.7565	0.181	785513	keystroke_n	n	n/a
392.9225	0.135	785845	keystroke_g	g	n/a
393.0725	0.135	786145	keystroke_Key.space	Key.space	n/a
393.6125	0.12	787225	keystroke_w	w	n/a
393.7025	0.18	787405	keystroke_o	o	n/a
393.8075	0.105	787615	keystroke_u	u	n/a
393.9875	0.12	787975	keystroke_l	l	n/a
394.197	0.09	788394	keystroke_d	d	n/a
395.097	0.075	790194	keystroke_'	'	n/a
395.262	0.225	790524	keystroke_v	v	n/a
395.457	0.165	790914	keystroke_e	e	n/a
395.667	0.135	791334	keystroke_Key.space	Key.space	n/a
396.0575	0.105	792115	keystroke_e	e	n/a
396.387	0.135	792774	keystroke_d	d	n/a
396.642	0.105	793284	keystroke_g	g	n/a
397.197	0.135	794394	keystroke_a	a	n/a
397.452	0.09	794904	keystroke_r	r	n/a
397.782	0.09	795564	keystroke_Key.enter	Key.enter	n/a
397.877	7.9915	795754	prompt	n/a	msie participate maintaining promo\n
398.607	0.12	797214	keystroke_m	m	n/a
398.907	0.12	797814	keystroke_s	s	n/a
399.1615	0.075	798323	keystroke_i	i	n/a
399.387	0.12	798774	keystroke_e	e	n/a
399.597	0.12	799194	keystroke_Key.space	Key.space	n/a
399.8515	0.105	799703	keystroke_p	p	n/a
400.0915	0.12	800183	keystroke_a	a	n/a
400.302	0.09	800604	keystroke_r	r	n/a
400.512	0.075	801024	keystroke_t	t	n/a
400.602	0.105	801204	keystroke_i	i	n/a
400.827	0.135	801654	keystroke_c	c	n/a
400.932	0.09	801864	keystroke_i	i	n/a
401.202	0.075	802404	keystroke_p	p	n/a
401.337	0.105	802674	keystroke_a	a	n/a
401.517	0.15	803034	keystroke_t	t	n/a
401.622	0.165	803244	keystroke_e	e	n/a
401.788	0.134	803576	keystroke_Key.space	Key.space	n/a
402.1325	0.075	804265	keystroke_m	m	n/a
402.2825	0.105	804565	keystroke_a	a	n/a
402.6265	0.106	805253	keystroke_i	i	n/a
402.7625	0.105	805525	keystroke_n	n	n/a
403.1075	0.135	806215	keystroke_t	t	n/a
403.3325	0.12	806665	keystroke_a	a	n/a
403.6475	0.105	807295	keystroke_i	i	n/a
403.8425	0.105	807685	keystroke_n	n	n/a
404.202	0.135	808404	keystroke_i	i	n/a
404.277	0.12	808554	keystroke_n	n	n/a
404.382	0.165	808764	keystroke_g	g	n/a
404.562	0.15	809124	keystroke_Key.space	Key.space	n/a
404.802	0.06	809604	keystroke_p	p	n/a
404.952	0.12	809904	keystroke_r	r	n/a
405.102	0.075	810204	keystroke_o	o	n/a
405.342	0.09	810684	keystroke_m	m	n/a
405.507	0.075	811014	keystroke_o	o	n/a
405.807	0.06	811614	keystroke_Key.enter	Key.enter	n/a
405.8735	10.84	811747	prompt	n/a	durable utilize movement commissions\n
406.587	0.15	813174	keystroke_d	d	n/a
406.767	0.105	813534	keystroke_u	u	n/a
407.0075	0.105	814015	keystroke_r	r	n/a
407.2325	0.12	814465	keystroke_a	a	n/a
407.4875	0.12	814975	keystroke_b	b	n/a
407.6525	0.105	815305	keystroke_l	l	n/a
407.7725	0.135	815545	keystroke_e	e	n/a
407.8625	0.134	815725	keystroke_Key.space	Key.space	n/a
408.0865	0.075	816173	keystroke_u	u	n/a
408.2815	0.09	816563	keystroke_t	t	n/a
408.4315	0.075	816863	keystroke_i	i	n/a
408.9115	0.06	817823	keystroke_l	l	n/a
409.0765	0.075	818153	keystroke_i	i	n/a
409.4065	0.105	818813	keystroke_z	z	n/a
409.6015	0.105	819203	keystroke_e	e	n/a
409.7665	0.12	819533	keystroke_Key.space	Key.space	n/a
410.0065	0.105	820013	keystroke_m	m	n/a
410.1565	0.076	820313	keystroke_o	o	n/a
410.3975	0.12	820795	keystroke_v	v	n/a
410.5325	0.12	821065	keystroke_e	e	n/a
410.8475	0.075	821695	keystroke_m	m	n/a
412.1075	0.105	824215	keystroke_e	e	n/a
412.3025	0.09	824605	keystroke_n	n	n/a
412.4525	0.18	824905	keystroke_t	t	n/a
412.6325	0.164	825265	keystroke_Key.space	Key.space	n/a
412.9765	0.12	825953	keystroke_c	c	n/a
413.2015	0.075	826403	keystroke_o	o	n/a
413.5465	0.06	827093	keystroke_m	m	n/a
413.6675	0.09	827335	keystroke_m	m	n/a
413.9225	0.075	827845	keystroke_u	u	n/a
414.0725	0.12	828145	keystroke_n	n	n/a
414.1775	0.12	828355	keystroke_i	i	n/a
414.6575	0.015	829315	keystroke_Key.backspace	Key.backspace	n/a
414.7925	0.03	829585	keystroke_Key.backspace	Key.backspace	n/a
414.8975	0.09	829795	keystroke_Key.backspace	Key.backspace	n/a
415.2725	0.075	830545	keystroke_i	i	n/a
415.7065	0.061	831413	keystroke_s	s	n/a
415.8725	0.075	831745	keystroke_s	s	n/a
416.0225	0.21	832045	keystroke_i	i	n/a
416.1125	0.134	832225	keystroke_o	o	n/a
416.2025	0.135	832405	keystroke_n	n	n/a
416.3825	0.12	832765	keystroke_s	s	n/a
416.6675	0.045	833335	keystroke_Key.enter	Key.enter	n/a
416.7165	14.2925	833433	prompt	n/a	amongst employers bangladesh savings\n
417.3865	0.12	834773	keystroke_a	a	n/a
417.627	0.09	835254	keystroke_m	m	n/a
417.8665	0.1955	835733	keystroke_o	o	n/a
420.5095	0.027	841019	keystroke_n	n	n/a
420.852	0.135	841704	keystroke_g	g	n/a
421.3775	0.12	842755	keystroke_s	s	n/a
421.5725	0.165	843145	keystroke_t	t	n/a
421.7525	0.135	843505	keystroke_Key.space	Key.space	n/a
422.037	0.12	844074	keystroke_e	e	n/a
422.337	0.075	844674	keystroke_m	m	n/a
422.577	0.09	845154	keystroke_p	p	n/a
422.7875	0.1045	845575	keystroke_l	l	n/a
423.492	0.075	846984	keystroke_o	o	n/a
423.8515	0.09	847703	keystroke_y	y	n/a
424.4525	0.2395	848905	keystroke_e	e	n/a
424.632	0.09	849264	keystroke_r	r	n/a
424.737	0.165	849474	keystroke_s	s	n/a
424.872	0.15	849744	keystroke_Key.space	Key.space	n/a
425.2775	0.12	850555	keystroke_b	b	n/a
425.517	0.1355	851034	keystroke_a	a	n/a
425.967	0.1055	851934	keystroke_n	n	n/a
426.3425	0.135	852685	keystroke_g	g	n/a
426.9125	0.105	853825	keystroke_l	l	n/a
427.0325	0.105	854065	keystroke_a	a	n/a
428.472	0.105	856944	keystroke_d	d	n/a
428.682	0.075	857364	keystroke_e	e	n/a
428.877	0.135	857754	keystroke_s	s	n/a
429.042	0.105	858084	keystroke_h	h	n/a
429.207	0.15	858414	keystroke_Key.space	Key.space	n/a
429.477	0.1645	858954	keystroke_s	s	n/a
429.7165	0.1205	859433	keystroke_a	a	n/a
429.9415	0.135	859883	keystroke_v	v	n/a
430.2115	0.1805	860423	keystroke_i	i	n/a
430.2865	0.165	860573	keystroke_n	n	n/a
430.3925	0.134	860785	keystroke_g	g	n/a
430.7525	0.09	861505	keystroke_s	s	n/a
430.9325	0.0745	861865	keystroke_Key.enter	Key.enter	n/a
431.012	9.5515	862024	prompt	n/a	frankfurt sugar tariff comes\n
431.7875	0.165	863575	keystroke_f	f	n/a
431.9665	0.1655	863933	keystroke_r	r	n/a
432.117	0.165	864234	keystroke_a	a	n/a
432.4625	0.12	864925	keystroke_n	n	n/a
433.107	0.12	866214	keystroke_k	k	n/a
433.872	0.09	867744	keystroke_f	f	n/a
434.0225	0.105	868045	keystroke_u	u	n/a
434.1425	0.105	868285	keystroke_r	r	n/a
434.3075	0.165	868615	keystroke_t	t	n/a
434.5025	0.1645	869005	keystroke_Key.space	Key.space	n/a
435.1615	0.12	870323	keystroke_s	s	n/a
435.3115	0.105	870623	keystroke_u	u	n/a
435.6425	0.1345	871285	keystroke_g	g	n/a
435.762	0.135	871524	keystroke_a	a	n/a
435.912	0.195	871824	keystroke_r	r	n/a
436.092	0.15	872184	keystroke_Key.space	Key.space	n/a
436.632	0.12	873264	keystroke_t	t	n/a
436.842	0.12	873684	keystroke_a	a	n/a
437.052	0.09	874104	keystroke_r	r	n/a
437.217	0.075	874434	keystroke_r	r	n/a
437.622	0.09	875244	keystroke_Key.backspace	Key.backspace	n/a
437.922	0.105	875844	keystroke_i	i	n/a
438.207	0.0905	876414	keystroke_f	f	n/a
438.3575	0.105	876715	keystroke_f	f	n/a
438.6875	0.12	877375	keystroke_Key.space	Key.space	n/a
439.0475	0.12	878095	keystroke_c	c	n/a
439.168	0.059	878336	keystroke_o	o	n/a
439.407	0.075	878814	keystroke_m	m	n/a
439.557	0.06	879114	keystroke_m	m	n/a
439.992	0.075	879984	keystroke_Key.backspace	Key.backspace	n/a
440.097	0.09	880194	keystroke_e	e	n/a
440.262	0.12	880524	keystroke_s	s	n/a
440.502	0.06	881004	keystroke_Key.enter	Key.enter	n/a
440.5665	8.0075	881133	prompt	n/a	she'd tears infection conduct\n
441.312	0.105	882624	keystroke_s	s	n/a
441.432	0.105	882864	keystroke_h	h	n/a
441.5975	0.075	883195	keystroke_w	w	n/a
442.317	0.09	884634	keystroke_Key.backspace	Key.backspace	n/a
442.452	0.15	884904	keystroke_e	e	n/a
442.677	0.075	885354	keystroke_'	'	n/a
443.067	0.12	886134	keystroke_d	d	n/a
443.4425	0.135	886885	keystroke_Key.space	Key.space	n/a
444.0725	0.12	888145	keystroke_t	t	n/a
444.1775	0.225	888355	keystroke_e	e	n/a
444.3575	0.15	888715	keystroke_a	a	n/a
444.4175	0.2245	888835	keystroke_r	r	n/a
444.7775	0.135	889555	keystroke_s	s	n/a
444.9725	0.15	889945	keystroke_Key.space	Key.space	n/a
445.6925	0.135	891385	keystroke_i	i	n/a
445.7975	0.135	891595	keystroke_n	n	n/a
445.9625	0.15	891925	keystroke_f	f	n/a
446.1275	0.09	892255	keystroke_e	e	n/a
446.3525	0.075	892705	keystroke_c	c	n/a
446.6075	0.09	893215	keystroke_t	t	n/a
446.7125	0.1945	893425	keystroke_i	i	n/a
446.757	0.135	893514	keystroke_o	o	n/a
446.817	0.12	893634	keystroke_n	n	n/a
446.982	0.135	893964	keystroke_Key.space	Key.space	n/a
447.297	0.135	894594	keystroke_c	c	n/a
447.402	0.1055	894804	keystroke_o	o	n/a
447.462	0.1355	894924	keystroke_n	n	n/a
447.7465	0.091	895493	keystroke_d	d	n/a
447.8825	0.105	895765	keystroke_u	u	n/a
448.0315	0.106	896063	keystroke_c	c	n/a
448.2715	0.09	896543	keystroke_t	t	n/a
448.4815	0.09	896963	keystroke_Key.enter	Key.enter	n/a
448.577	7.9165	897154	prompt	n/a	greenhouse data sleep bedding\n
449.322	0.105	898644	keystroke_g	g	n/a
449.502	0.105	899004	keystroke_e	e	n/a
449.577	0.285	899154	keystroke_r	r	n/a
450.057	0.075	900114	keystroke_Key.backspace	Key.backspace	n/a
450.207	0.09	900414	keystroke_Key.backspace	Key.backspace	n/a
450.282	0.1355	900564	keystroke_r	r	n/a
450.387	0.1355	900774	keystroke_e	e	n/a
450.6275	0.075	901255	keystroke_e	e	n/a
450.912	0.09	901824	keystroke_n	n	n/a
451.407	0.18	902814	keystroke_h	h	n/a
451.557	0.195	903114	keystroke_o	o	n/a
451.632	0.135	903264	keystroke_u	u	n/a
451.782	0.15	903564	keystroke_s	s	n/a
451.917	0.1505	903834	keystroke_e	e	n/a
452.2475	0.135	904495	keystroke_Key.space	Key.space	n/a
452.6525	0.1345	905305	keystroke_d	d	n/a
452.802	0.1205	905604	keystroke_a	a	n/a
453.0725	0.12	906145	keystroke_t	t	n/a
453.1775	0.135	906355	keystroke_a	a	n/a
453.3725	0.15	906745	keystroke_Key.space	Key.space	n/a
453.5975	0.105	907195	keystroke_s	s	n/a
453.7475	0.06	907495	keystroke_l	l	n/a
453.9425	0.075	907885	keystroke_e	e	n/a
454.1225	0.09	908245	keystroke_e	e	n/a
454.3175	0.075	908635	keystroke_p	p	n/a
454.6175	0.09	909235	keystroke_Key.space	Key.space	n/a
455.157	0.075	910314	keystroke_b	b	n/a
455.292	0.09	910584	keystroke_e	e	n/a
455.502	0.105	911004	keystroke_d	d	n/a
455.742	0.06	911484	keystroke_d	d	n/a
455.952	0.18	911904	keystroke_i	i	n/a
456.028	0.135	912056	keystroke_n	n	n/a
456.192	0.106	912384	keystroke_g	g	n/a
456.432	0.06	912864	keystroke_Key.enter	Key.enter	n/a
456.497	7.692	912994	prompt	n/a	properly freeware painting luggage\n
457.212	0.06	914424	keystroke_p	p	n/a
457.332	0.1205	914664	keystroke_r	r	n/a
457.4665	0.075	914933	keystroke_o	o	n/a
457.7815	0.0905	915563	keystroke_p	p	n/a
457.9325	0.1805	915865	keystroke_e	e	n/a
458.052	0.12	916104	keystroke_r	r	n/a
458.277	0.105	916554	keystroke_l	l	n/a
458.457	0.136	916914	keystroke_y	y	n/a
458.667	0.135	917334	keystroke_Key.space	Key.space	n/a
458.967	0.135	917934	keystroke_f	f	n/a
459.268	0.059	918536	keystroke_r	r	n/a
459.523	0.074	919046	keystroke_e	e	n/a
459.6875	0.09	919375	keystroke_e	e	n/a
460.047	0.09	920094	keystroke_w	w	n/a
460.197	0.12	920394	keystroke_a	a	n/a
460.423	0.134	920846	keystroke_r	r	n/a
460.497	0.18	920994	keystroke_e	e	n/a
460.707	0.15	921414	keystroke_Key.space	Key.space	n/a
460.9925	0.105	921985	keystroke_p	p	n/a
461.1425	0.105	922285	keystroke_a	a	n/a
461.2775	0.105	922555	keystroke_i	i	n/a
461.4725	0.075	922945	keystroke_n	n	n/a
461.9825	0.09	923965	keystroke_t	t	n/a
462.2525	0.1795	924505	keystroke_i	i	n/a
462.3425	0.1345	924685	keystroke_n	n	n/a
462.417	0.18	924834	keystroke_g	g	n/a
462.612	0.135	925224	keystroke_Key.space	Key.space	n/a
462.822	0.09	925644	keystroke_l	l	n/a
463.1225	0.075	926245	keystroke_u	u	n/a
463.3315	0.0755	926663	keystroke_g	g	n/a
463.482	0.1195	926964	keystroke_g	g	n/a
463.6625	0.1345	927325	keystroke_a	a	n/a
463.8125	0.105	927625	keystroke_g	g	n/a
463.857	0.1505	927714	keystroke_e	e	n/a
464.1275	0.06	928255	keystroke_Key.enter	Key.enter	n/a
464.192	11.1115	928384	prompt	n/a	mailing wendy dated alexandria\n
465.0425	0.09	930085	keystroke_m	m	n/a
465.2075	0.119	930415	keystroke_a	a	n/a
465.4025	0.119	930805	keystroke_i	i	n/a
465.5675	0.09	931135	keystroke_n	n	n/a
465.7615	0.106	931523	keystroke_l	l	n/a
465.9725	0.15	931945	keystroke_i	i	n/a
465.9865	0.121	931973	keystroke_u	u	n/a
466.0765	0.21	932153	keystroke_n	n	n/a
466.5715	0.075	933143	keystroke_Key.backspace	Key.backspace	n/a
466.7065	0.09	933413	keystroke_Key.backspace	Key.backspace	n/a
467.1115	0.105	934223	keystroke_Key.backspace	Key.backspace	n/a
467.2615	0.09	934523	keystroke_Key.backspace	Key.backspace	n/a
468.2675	0.06	936535	keystroke_Key.backspace	Key.backspace	n/a
468.762	0.075	937524	keystroke_l	l	n/a
468.987	0.2255	937974	keystroke_i	i	n/a
469.092	0.1505	938184	keystroke_n	n	n/a
469.2275	0.18	938455	keystroke_g	g	n/a
469.3775	0.165	938755	keystroke_Key.space	Key.space	n/a
469.9325	0.1495	939865	keystroke_w	w	n/a
470.067	0.15	940134	keystroke_e	e	n/a
470.263	0.104	940526	keystroke_n	n	n/a
470.457	0.12	940914	keystroke_d	d	n/a
470.682	0.09	941364	keystroke_y	y	n/a
470.847	0.105	941694	keystroke_Key.space	Key.space	n/a
471.057	0.09	942114	keystroke_d	d	n/a
471.237	0.12	942474	keystroke_e	e	n/a
471.462	0.12	942924	keystroke_a	a	n/a
471.567	0.135	943134	keystroke_t	t	n/a
471.672	0.106	943344	keystroke_e	e	n/a
471.867	0.165	943734	keystroke_d	d	n/a
472.017	0.135	944034	keystroke_Key.space	Key.space	n/a
472.542	0.12	945084	keystroke_a	a	n/a
472.677	0.105	945354	keystroke_l	l	n/a
472.797	0.075	945594	keystroke_e	e	n/a
473.037	0.1205	946074	keystroke_x	x	n/a
473.4875	0.105	946975	keystroke_a	a	n/a
473.6525	0.1045	947305	keystroke_n	n	n/a
473.937	0.1055	947874	keystroke_d	d	n/a
474.1925	0.09	948385	keystroke_r	r	n/a
474.717	0.061	949434	keystroke_i	i	n/a
474.882	0.09	949764	keystroke_a	a	n/a
475.2275	0.075	950455	keystroke_Key.enter	Key.enter	n/a
475.3065	8.0825	950613	prompt	n/a	times hosts glasses displaying\n
476.007	0.135	952014	keystroke_t	t	n/a
476.097	0.15	952194	keystroke_e	e	n/a
476.232	0.12	952464	keystroke_i	i	n/a
476.667	0.0755	953334	keystroke_Key.backspace	Key.backspace	n/a
476.952	0.075	953904	keystroke_Key.backspace	Key.backspace	n/a
477.252	0.0905	954504	keystroke_i	i	n/a
477.4475	0.09	954895	keystroke_m	m	n/a
477.5975	0.135	955195	keystroke_e	e	n/a
477.7175	0.15	955435	keystroke_s	s	n/a
477.8525	0.12	955705	keystroke_Key.space	Key.space	n/a
478.092	0.12	956184	keystroke_h	h	n/a
478.182	0.15	956364	keystroke_o	o	n/a
478.647	0.1055	957294	keystroke_s	s	n/a
478.8725	0.09	957745	keystroke_t	t	n/a
479.1425	0.0745	958285	keystroke_s	s	n/a
479.3825	0.1195	958765	keystroke_Key.space	Key.space	n/a
479.8625	0.0745	959725	keystroke_g	g	n/a
480.0275	0.0895	960055	keystroke_l	l	n/a
480.192	0.09	960384	keystroke_a	a	n/a
480.402	0.045	960804	keystroke_s	s	n/a
480.537	0.09	961074	keystroke_s	s	n/a
480.747	0.06	961494	keystroke_e	e	n/a
480.897	0.105	961794	keystroke_s	s	n/a
481.092	0.135	962184	keystroke_Key.space	Key.space	n/a
481.332	0.105	962664	keystroke_d	d	n/a
481.542	0.105	963084	keystroke_i	i	n/a
481.797	0.09	963594	keystroke_s	s	n/a
482.0975	0.06	964195	keystroke_p	p	n/a
482.2625	0.105	964525	keystroke_l	l	n/a
482.4125	0.09	964825	keystroke_a	a	n/a
482.6225	0.09	965245	keystroke_y	y	n/a
482.8475	0.195	965695	keystroke_i	i	n/a
482.9375	0.18	965875	keystroke_n	n	n/a
483.1025	0.09	966205	keystroke_g	g	n/a
483.3425	0.045	966685	keystroke_Key.enter	Key.enter	n/a
483.3935	8.0055	966787	prompt	n/a	wireless themes limits sperm\n
484.093	0.134	968186	keystroke_w	w	n/a
484.287	0.091	968574	keystroke_i	i	n/a
484.812	0.03	969624	keystroke_r	r	n/a
484.827	0.031	969654	keystroke_e	e	n/a
484.872	0.091	969744	keystroke_l	l	n/a
484.978	0.105	969956	keystroke_e	e	n/a
485.172	0.12	970344	keystroke_s	s	n/a
485.397	0.09	970794	keystroke_s	s	n/a
485.502	0.12	971004	keystroke_Key.space	Key.space	n/a
485.802	0.12	971604	keystroke_t	t	n/a
485.907	0.09	971814	keystroke_h	h	n/a
486.057	0.105	972114	keystroke_e	e	n/a
486.357	0.06	972714	keystroke_m	m	n/a
486.522	0.105	973044	keystroke_e	e	n/a
486.7475	0.12	973495	keystroke_s	s	n/a
486.9275	0.135	973855	keystroke_Key.space	Key.space	n/a
487.2425	0.09	974485	keystroke_l	l	n/a
487.4225	0.09	974845	keystroke_i	i	n/a
487.6625	0.075	975325	keystroke_m	m	n/a
487.8575	0.075	975715	keystroke_i	i	n/a
488.142	0.09	976284	keystroke_t	t	n/a
488.3825	0.06	976765	keystroke_e	e	n/a
488.7875	0.06	977575	keystroke_Key.backspace	Key.backspace	n/a
488.922	0.135	977844	keystroke_s	s	n/a
489.087	0.15	978174	keystroke_Key.space	Key.space	n/a
489.522	0.0905	979044	keystroke_p	p	n/a
489.987	0.06	979974	keystroke_Key.backspace	Key.backspace	n/a
490.107	0.1355	980214	keystroke_s	s	n/a
490.2575	0.105	980515	keystroke_p	p	n/a
490.4975	0.165	980995	keystroke_e	e	n/a
490.6475	0.135	981295	keystroke_r	r	n/a
490.9775	0.06	981955	keystroke_m	m	n/a
491.3225	0.075	982645	keystroke_Key.enter	Key.enter	n/a
491.403	7.421	982806	prompt	n/a	cases parker plots strongly\n
492.102	0.15	984204	keystroke_c	c	n/a
492.237	0.1055	984474	keystroke_a	a	n/a
492.508	0.09	985016	keystroke_s	s	n/a
492.8675	0.09	985735	keystroke_e	e	n/a
493.0775	0.09	986155	keystroke_s	s	n/a
493.7375	0.105	987475	keystroke_Key.space	Key.space	n/a
493.9475	0.09	987895	keystroke_p	p	n/a
494.0525	0.12	988105	keystroke_a	a	n/a
494.2325	0.12	988465	keystroke_r	r	n/a
494.4875	0.09	988975	keystroke_k	k	n/a
494.6675	0.1495	989335	keystroke_e	e	n/a
494.757	0.15	989514	keystroke_r	r	n/a
494.862	0.12	989724	keystroke_Key.space	Key.space	n/a
495.132	0.075	990264	keystroke_p	p	n/a
495.342	0.09	990684	keystroke_l	l	n/a
495.5825	0.09	991165	keystroke_o	o	n/a
495.8225	0.09	991645	keystroke_t	t	n/a
496.047	0.12	992094	keystroke_s	s	n/a
496.272	0.12	992544	keystroke_Key.space	Key.space	n/a
496.482	0.09	992964	keystroke_s	s	n/a
496.707	0.09	993414	keystroke_t	t	n/a
496.887	0.135	993774	keystroke_r	r	n/a
497.6675	0.195	995335	keystroke_o	o	n/a
497.8025	0.1495	995605	keystroke_n	n	n/a
497.983	0.1195	995966	keystroke_g	g	n/a
498.2975	0.105	996595	keystroke_l	l	n/a
498.4775	0.135	996955	keystroke_y	y	n/a
498.7475	0.075	997495	keystroke_Key.enter	Key.enter	n/a
498.8285	13.5255	997657	prompt	n/a	adventures compound painted frontier\n
499.5125	0.12	999025	keystroke_a	a	n/a
499.7675	0.105	999535	keystroke_d	d	n/a
500.008	0.135	1000016	keystroke_v	v	n/a
500.158	0.179	1000316	keystroke_e	e	n/a
500.262	0.09	1000524	keystroke_r	r	n/a
501.012	0.06	1002024	keystroke_Key.backspace	Key.backspace	n/a
501.252	0.105	1002504	keystroke_n	n	n/a
501.4325	0.12	1002865	keystroke_t	t	n/a
501.6425	0.12	1003285	keystroke_u	u	n/a
502.018	0.15	1004036	keystroke_r	r	n/a
502.122	0.1655	1004244	keystroke_e	e	n/a
502.3325	0.15	1004665	keystroke_s	s	n/a
502.5425	0.135	1005085	keystroke_Key.space	Key.space	n/a
502.8425	0.15	1005685	keystroke_c	c	n/a
502.9325	0.165	1005865	keystroke_o	o	n/a
503.0375	0.135	1006075	keystroke_m	m	n/a
503.8325	0.12	1007665	keystroke_p	p	n/a
504.072	0.12	1008144	keystroke_a	a	n/a
504.687	0.075	1009374	keystroke_Key.backspace	Key.backspace	n/a
505.6025	0.105	1011205	keystroke_o	o	n/a
505.857	0.075	1011714	keystroke_u	u	n/a
506.097	0.09	1012194	keystroke_n	n	n/a
506.367	0.12	1012734	keystroke_d	d	n/a
506.592	0.12	1013184	keystroke_Key.space	Key.space	n/a
507.462	0.09	1014924	keystroke_p	p	n/a
507.627	0.12	1015254	keystroke_a	a	n/a
507.792	0.165	1015584	keystroke_i	i	n/a
507.897	0.1355	1015794	keystroke_n	n	n/a
508.0175	0.12	1016035	keystroke_t	t	n/a
508.1075	0.105	1016215	keystroke_e	e	n/a
508.3025	0.165	1016605	keystroke_d	d	n/a
508.4825	0.12	1016965	keystroke_Key.space	Key.space	n/a
510.0125	0.1495	1020025	keystroke_f	f	n/a
510.297	0.135	1020594	keystroke_r	r	n/a
510.642	0.1955	1021284	keystroke_o	o	n/a
510.7775	0.135	1021555	keystroke_n	n	n/a
511.287	0.0905	1022574	keystroke_t	t	n/a
511.6475	0.09	1023295	keystroke_i	i	n/a
511.8875	0.135	1023775	keystroke_e	e	n/a
512.0075	0.1195	1024015	keystroke_r	r	n/a
512.277	0.075	1024554	keystroke_Key.enter	Key.enter	n/a
512.3565	10.0625	1024713	prompt	n/a	landing committee gregory photograph\n
513.147	0.105	1026294	keystroke_l	l	n/a
513.3275	0.12	1026655	keystroke_a	a	n/a
513.492	0.09	1026984	keystroke_n	n	n/a
513.627	0.12	1027254	keystroke_d	d	n/a
513.792	0.2255	1027584	keystroke_i	i	n/a
513.882	0.1805	1027764	keystroke_n	n	n/a
514.0325	0.165	1028065	keystroke_g	g	n/a
514.1825	0.165	1028365	keystroke_Key.space	Key.space	n/a
514.8425	0.06	1029685	keystroke_c	c	n/a
514.8875	0.075	1029775	keystroke_o	o	n/a
515.1275	0.06	1030255	keystroke_m	m	n/a
515.2625	0.075	1030525	keystroke_m	m	n/a
515.5175	0.105	1031035	keystroke_i	i	n/a
515.877	0.06	1031754	keystroke_t	t	n/a
515.997	0.12	1031994	keystroke_t	t	n/a
516.342	0.045	1032684	keystroke_e	e	n/a
516.492	0.105	1032984	keystroke_e	e	n/a
516.687	0.135	1033374	keystroke_Key.space	Key.space	n/a
516.912	0.09	1033824	keystroke_g	g	n/a
517.152	0.09	1034304	keystroke_r	r	n/a
517.317	0.105	1034634	keystroke_e	e	n/a
517.692	0.165	1035384	keystroke_g	g	n/a
517.902	0.09	1035804	keystroke_o	o	n/a
518.082	0.09	1036164	keystroke_r	r	n/a
518.3525	0.075	1036705	keystroke_y	y	n/a
518.9675	0.135	1037935	keystroke_Key.space	Key.space	n/a
519.2375	0.09	1038475	keystroke_p	p	n/a
519.4325	0.09	1038865	keystroke_h	h	n/a
519.5825	0.105	1039165	keystroke_o	o	n/a
520.3775	0.105	1040755	keystroke_t	t	n/a
520.4975	0.075	1040995	keystroke_o	o	n/a
521.3525	0.12	1042705	keystroke_g	g	n/a
521.4875	0.135	1042975	keystroke_r	r	n/a
521.7125	0.105	1043425	keystroke_a	a	n/a
521.9375	0.1345	1043875	keystroke_p	p	n/a
522.057	0.12	1044114	keystroke_h	h	n/a
522.342	0.075	1044684	keystroke_Key.enter	Key.enter	n/a
522.423	7.556	1044846	prompt	n/a	turner story repeat charter\n
523.122	0.12	1046244	keystroke_t	t	n/a
523.347	0.105	1046694	keystroke_u	u	n/a
524.008	0.1045	1048016	keystroke_r	r	n/a
524.2625	0.06	1048525	keystroke_n	n	n/a
524.3825	0.18	1048765	keystroke_e	e	n/a
524.5175	0.18	1049035	keystroke_r	r	n/a
524.7425	0.12	1049485	keystroke_Key.space	Key.space	n/a
524.9375	0.12	1049875	keystroke_s	s	n/a
525.1025	0.12	1050205	keystroke_t	t	n/a
525.2975	0.12	1050595	keystroke_o	o	n/a
525.4625	0.105	1050925	keystroke_r	r	n/a
525.6575	0.09	1051315	keystroke_y	y	n/a
526.033	0.105	1052066	keystroke_Key.space	Key.space	n/a
526.573	0.15	1053146	keystroke_r	r	n/a
526.648	0.195	1053296	keystroke_e	e	n/a
526.933	0.105	1053866	keystroke_p	p	n/a
527.098	0.24	1054196	keystroke_e	e	n/a
527.248	0.1345	1054496	keystroke_a	a	n/a
527.503	0.1195	1055006	keystroke_t	t	n/a
527.967	0.121	1055934	keystroke_Key.space	Key.space	n/a
528.5075	0.135	1057015	keystroke_c	c	n/a
528.6575	0.075	1057315	keystroke_h	h	n/a
528.8075	0.1045	1057615	keystroke_a	a	n/a
529.092	0.1205	1058184	keystroke_r	r	n/a
529.3025	0.105	1058605	keystroke_t	t	n/a
529.4825	0.135	1058965	keystroke_e	e	n/a
529.6025	0.135	1059205	keystroke_r	r	n/a
529.917	0.06	1059834	keystroke_Key.enter	Key.enter	n/a
529.983	9.131	1059966	prompt	n/a	nutrition subsection manor tomatoes\n
531.327	0.12	1062654	keystroke_n	n	n/a
531.567	0.075	1063134	keystroke_u	u	n/a
531.912	0.0905	1063824	keystroke_t	t	n/a
532.1675	0.105	1064335	keystroke_r	r	n/a
532.3625	0.06	1064725	keystroke_i	i	n/a
532.9625	0.12	1065925	keystroke_t	t	n/a
533.0975	0.2245	1066195	keystroke_i	i	n/a
533.1875	0.1355	1066375	keystroke_o	o	n/a
533.247	0.15	1066494	keystroke_n	n	n/a
533.622	0.135	1067244	keystroke_Key.space	Key.space	n/a
533.907	0.135	1067814	keystroke_s	s	n/a
534.012	0.09	1068024	keystroke_u	u	n/a
534.282	0.105	1068564	keystroke_b	b	n/a
534.8525	0.105	1069705	keystroke_s	s	n/a
535.0925	0.06	1070185	keystroke_e	e	n/a
535.3175	0.105	1070635	keystroke_c	c	n/a
535.5575	0.09	1071115	keystroke_t	t	n/a
535.6775	0.225	1071355	keystroke_i	i	n/a
535.7525	0.135	1071505	keystroke_o	o	n/a
535.8125	0.135	1071625	keystroke_n	n	n/a
535.9175	0.12	1071835	keystroke_Key.space	Key.space	n/a
536.1725	0.09	1072345	keystroke_m	m	n/a
536.3075	0.12	1072615	keystroke_a	a	n/a
536.4875	0.105	1072975	keystroke_n	n	n/a
536.787	0.12	1073574	keystroke_o	o	n/a
536.967	0.15	1073934	keystroke_r	r	n/a
537.087	0.135	1074174	keystroke_Key.space	Key.space	n/a
537.4325	0.09	1074865	keystroke_t	t	n/a
537.5375	0.105	1075075	keystroke_o	o	n/a
537.8525	0.075	1075705	keystroke_m	m	n/a
538.047	0.09	1076094	keystroke_a	a	n/a
538.287	0.09	1076574	keystroke_t	t	n/a
538.407	0.09	1076814	keystroke_o	o	n/a
538.602	0.12	1077204	keystroke_e	e	n/a
538.737	0.12	1077474	keystroke_s	s	n/a
539.052	0.06	1078104	keystroke_Key.enter	Key.enter	n/a
539.1165	10.1525	1078233	prompt	n/a	belt computation sans politics\n
539.9375	0.09	1079875	keystroke_b	b	n/a
540.0275	0.12	1080055	keystroke_e	e	n/a
540.2225	0.135	1080445	keystroke_l	l	n/a
540.5825	0.09	1081165	keystroke_t	t	n/a
540.7925	0.1195	1081585	keystroke_Key.space	Key.space	n/a
541.062	0.121	1082124	keystroke_c	c	n/a
541.152	0.1355	1082304	keystroke_o	o	n/a
541.2725	0.135	1082545	keystroke_m	m	n/a
541.7675	0.09	1083535	keystroke_p	p	n/a
541.9625	0.1045	1083925	keystroke_l	l	n/a
542.577	0.06	1085154	keystroke_Key.backspace	Key.backspace	n/a
542.8775	0.06	1085755	keystroke_u	u	n/a
543.1025	0.105	1086205	keystroke_l	l	n/a
544.5425	0.09	1089085	keystroke_Key.backspace	Key.backspace	n/a
544.7675	0.18	1089535	keystroke_t	t	n/a
544.9325	0.135	1089865	keystroke_a	a	n/a
545.0975	0.15	1090195	keystroke_t	t	n/a
545.3075	0.225	1090615	keystroke_i	i	n/a
545.3825	0.135	1090765	keystroke_o	o	n/a
545.4425	0.18	1090885	keystroke_n	n	n/a
545.6075	0.135	1091215	keystroke_Key.space	Key.space	n/a
546.3425	0.21	1092685	keystroke_s	s	n/a
546.5675	0.045	1093135	keystroke_s	s	n/a
546.5825	0.105	1093165	keystroke_a	a	n/a
546.7175	0.09	1093435	keystroke_n	n	n/a
546.9425	0.1195	1093885	keystroke_s	s	n/a
547.077	0.15	1094154	keystroke_Key.space	Key.space	n/a
547.407	0.075	1094814	keystroke_p	p	n/a
547.782	0.075	1095564	keystroke_o	o	n/a
547.992	0.09	1095984	keystroke_l	l	n/a
548.202	0.0755	1096404	keystroke_i	i	n/a
548.4125	0.09	1096825	keystroke_t	t	n/a
548.5175	0.075	1097035	keystroke_i	i	n/a
548.7575	0.135	1097515	keystroke_c	c	n/a
548.8625	0.165	1097725	keystroke_s	s	n/a
549.2075	0.0595	1098415	keystroke_Key.enter	Key.enter	n/a
549.2725	7.2415	1098545	prompt	n/a	ebay week tobacco dominant\n
550.362	0.12	1100724	keystroke_e	e	n/a
550.767	0.09	1101534	keystroke_b	b	n/a
550.977	0.12	1101954	keystroke_a	a	n/a
551.142	0.09	1102284	keystroke_y	y	n/a
551.322	0.105	1102644	keystroke_Key.space	Key.space	n/a
551.502	0.105	1103004	keystroke_w	w	n/a
551.712	0.0605	1103424	keystroke_e	e	n/a
551.8625	0.105	1103725	keystroke_e	e	n/a
552.0275	0.045	1104055	keystroke_k	k	n/a
552.1325	0.12	1104265	keystroke_Key.space	Key.space	n/a
552.387	0.12	1104774	keystroke_t	t	n/a
552.702	0.09	1105404	keystroke_o	o	n/a
553.032	0.075	1106064	keystroke_b	b	n/a
553.167	0.09	1106334	keystroke_a	a	n/a
553.501	0.086	1107002	keystroke_c	c	n/a
553.677	0.09	1107354	keystroke_c	c	n/a
553.812	0.09	1107624	keystroke_o	o	n/a
554.007	0.1055	1108014	keystroke_Key.space	Key.space	n/a
554.322	0.105	1108644	keystroke_d	d	n/a
554.442	0.09	1108884	keystroke_o	o	n/a
554.9975	0.015	1109995	keystroke_m	m	n/a
555.0875	0.0755	1110175	keystroke_i	i	n/a
555.373	0.09	1110746	keystroke_n	n	n/a
555.508	0.12	1111016	keystroke_a	a	n/a
556.0025	0.06	1112005	keystroke_n	n	n/a
556.1525	0.075	1112305	keystroke_t	t	n/a
556.4525	0.06	1112905	keystroke_Key.enter	Key.enter	n/a
556.5175	8.9515	1113035	prompt	n/a	returning briefly prevent icons\n
557.293	0.135	1114586	keystroke_r	r	n/a
557.368	0.135	1114736	keystroke_e	e	n/a
557.593	0.12	1115186	keystroke_t	t	n/a
557.758	0.059	1115516	keystroke_u	u	n/a
557.863	0.1345	1115726	keystroke_r	r	n/a
558.3125	0.21	1116625	keystroke_i	i	n/a
558.402	0.18	1116804	keystroke_n	n	n/a
558.5675	0.165	1117135	keystroke_g	g	n/a
559.362	0.1205	1118724	keystroke_Key.space	Key.space	n/a
559.8725	0.06	1119745	keystroke_b	b	n/a
559.9925	0.135	1119985	keystroke_r	r	n/a
560.1725	0.1055	1120345	keystroke_i	i	n/a
560.383	0.135	1120766	keystroke_e	e	n/a
560.743	0.135	1121486	keystroke_f	f	n/a
561.328	0.12	1122656	keystroke_l	l	n/a
561.523	0.15	1123046	keystroke_y	y	n/a
561.7625	0.12	1123525	keystroke_Key.space	Key.space	n/a
562.033	0.075	1124066	keystroke_p	p	n/a
562.198	0.165	1124396	keystroke_r	r	n/a
562.333	0.134	1124666	keystroke_e	e	n/a
562.6925	0.165	1125385	keystroke_v	v	n/a
562.8125	0.1655	1125625	keystroke_e	e	n/a
562.993	0.09	1125986	keystroke_n	n	n/a
563.203	0.18	1126406	keystroke_t	t	n/a
563.502	0.135	1127004	keystroke_Key.space	Key.space	n/a
563.9975	0.09	1127995	keystroke_i	i	n/a
564.357	0.135	1128714	keystroke_c	c	n/a
564.507	0.1655	1129014	keystroke_o	o	n/a
564.5975	0.15	1129195	keystroke_n	n	n/a
565.2125	0.045	1130425	keystroke_s	s	n/a
565.3925	0.075	1130785	keystroke_Key.enter	Key.enter	n/a
565.4715	12.2075	1130943	prompt	n/a	incentive palestine andrews trainers\n
566.517	0.12	1133034	keystroke_i	i	n/a
566.668	0.105	1133336	keystroke_n	n	n/a
566.923	0.135	1133846	keystroke_c	c	n/a
567.043	0.134	1134086	keystroke_e	e	n/a
567.192	0.106	1134384	keystroke_n	n	n/a
567.4025	0.12	1134805	keystroke_t	t	n/a
567.5375	0.1195	1135075	keystroke_i	i	n/a
567.747	0.165	1135494	keystroke_v	v	n/a
567.852	0.181	1135704	keystroke_e	e	n/a
567.972	0.15	1135944	keystroke_Key.space	Key.space	n/a
568.4075	0.075	1136815	keystroke_p	p	n/a
568.5725	0.12	1137145	keystroke_a	a	n/a
568.888	0.09	1137776	keystroke_l	l	n/a
569.578	0.105	1139156	keystroke_e	e	n/a
569.698	0.075	1139396	keystroke_s	s	n/a
570.163	0.075	1140326	keystroke_t	t	n/a
570.223	0.12	1140446	keystroke_i	i	n/a
570.358	0.12	1140716	keystroke_n	n	n/a
570.523	0.135	1141046	keystroke_e	e	n/a
570.913	0.149	1141826	keystroke_Key.space	Key.space	n/a
571.167	0.135	1142334	keystroke_a	a	n/a
571.6925	0.09	1143385	keystroke_n	n	n/a
571.9325	0.0895	1143865	keystroke_d	d	n/a
572.217	0.135	1144434	keystroke_r	r	n/a
572.397	0.135	1144794	keystroke_e	e	n/a
572.607	0.135	1145214	keystroke_s	s	n/a
574.032	0.075	1148064	keystroke_Key.backspace	Key.backspace	n/a
574.1525	0.12	1148305	keystroke_w	w	n/a
574.4825	0.105	1148965	keystroke_s	s	n/a
574.6925	0.135	1149385	keystroke_Key.space	Key.space	n/a
575.4725	0.075	1150945	keystroke_t	t	n/a
575.5925	0.15	1151185	keystroke_r	r	n/a
576.1775	0.135	1152355	keystroke_a	a	n/a
576.3725	0.105	1152745	keystroke_i	i	n/a
576.6125	0.105	1153225	keystroke_n	n	n/a
576.9875	0.165	1153975	keystroke_e	e	n/a
577.1075	0.135	1154215	keystroke_r	r	n/a
577.3025	0.12	1154605	keystroke_s	s	n/a
577.6025	0.075	1155205	keystroke_Key.enter	Key.enter	n/a
577.682	7.272	1155364	prompt	n/a	client played promotes wagner\n
578.4425	0.15	1156885	keystroke_c	c	n/a
578.5475	0.09	1157095	keystroke_l	l	n/a
579.1025	0.075	1158205	keystroke_i	i	n/a
579.3425	0.12	1158685	keystroke_e	e	n/a
579.5225	0.105	1159045	keystroke_n	n	n/a
579.6575	0.165	1159315	keystroke_t	t	n/a
579.8375	0.12	1159675	keystroke_Key.space	Key.space	n/a
580.047	0.06	1160094	keystroke_p	p	n/a
580.227	0.09	1160454	keystroke_l	l	n/a
580.392	0.12	1160784	keystroke_a	a	n/a
580.572	0.09	1161144	keystroke_y	y	n/a
580.737	0.09	1161474	keystroke_e	e	n/a
580.9625	0.105	1161925	keystroke_d	d	n/a
581.0825	0.12	1162165	keystroke_Key.space	Key.space	n/a
581.3225	0.0745	1162645	keystroke_p	p	n/a
581.457	0.105	1162914	keystroke_r	r	n/a
581.6075	0.12	1163215	keystroke_o	o	n/a
581.8775	0.09	1163755	keystroke_n	n	n/a
582.1025	0.075	1164205	keystroke_o	o	n/a
582.2975	0.105	1164595	keystroke_t	t	n/a
582.613	0.12	1165226	keystroke_e	e	n/a
582.988	0.135	1165976	keystroke_s	s	n/a
583.228	0.149	1166456	keystroke_Key.space	Key.space	n/a
583.632	0.1055	1167264	keystroke_w	w	n/a
583.7975	0.135	1167595	keystroke_a	a	n/a
583.9775	0.09	1167955	keystroke_n	n	n/a
584.1875	0.105	1168375	keystroke_g	g	n/a
584.4125	0.12	1168825	keystroke_e	e	n/a
584.4875	0.18	1168975	keystroke_r	r	n/a
584.8625	0.09	1169725	keystroke_Key.enter	Key.enter	n/a
584.9575	8.7565	1169915	prompt	n/a	petite frost front exhaust\n
585.972	0.0755	1171944	keystroke_p	p	n/a
586.1375	0.09	1172275	keystroke_e	e	n/a
586.3625	0.0895	1172725	keystroke_t	t	n/a
586.482	0.075	1172964	keystroke_i	i	n/a
586.7225	0.12	1173445	keystroke_t	t	n/a
587.0525	0.135	1174105	keystroke_e	e	n/a
587.5475	0.12	1175095	keystroke_Key.space	Key.space	n/a
587.863	0.119	1175726	keystroke_f	f	n/a
588.0575	0.135	1176115	keystroke_r	r	n/a
588.3425	0.135	1176685	keystroke_o	o	n/a
588.4175	0.12	1176835	keystroke_n	n	n/a
588.9275	0.075	1177855	keystroke_Key.backspace	Key.backspace	n/a
588.9875	0.105	1177975	keystroke_s	s	n/a
589.1525	0.165	1178305	keystroke_t	t	n/a
589.3325	0.15	1178665	keystroke_Key.space	Key.space	n/a
589.692	0.136	1179384	keystroke_f	f	n/a
589.872	0.165	1179744	keystroke_r	r	n/a
590.172	0.1505	1180344	keystroke_o	o	n/a
590.2625	0.165	1180525	keystroke_n	n	n/a
590.487	0.165	1180974	keystroke_t	t	n/a
590.952	0.105	1181904	keystroke_Key.space	Key.space	n/a
591.357	0.09	1182714	keystroke_e	e	n/a
591.6125	0.135	1183225	keystroke_x	x	n/a
591.897	0.1205	1183794	keystroke_h	h	n/a
592.1825	0.12	1184365	keystroke_a	a	n/a
592.6775	0.105	1185355	keystroke_u	u	n/a
593.0525	0.105	1186105	keystroke_s	s	n/a
593.3225	0.135	1186645	keystroke_t	t	n/a
593.6225	0.09	1187245	keystroke_Key.enter	Key.enter	n/a
593.7215	7.6125	1187443	prompt	n/a	replaced class argentina oxide\n
594.5075	0.135	1189015	keystroke_r	r	n/a
594.5825	0.18	1189165	keystroke_e	e	n/a
595.1675	0.075	1190335	keystroke_p	p	n/a
595.362	0.105	1190724	keystroke_l	l	n/a
595.812	0.12	1191624	keystroke_a	a	n/a
596.098	0.135	1192196	keystroke_c	c	n/a
596.247	0.09	1192494	keystroke_e	e	n/a
596.472	0.1505	1192944	keystroke_d	d	n/a
596.6075	0.12	1193215	keystroke_Key.space	Key.space	n/a
597.042	0.135	1194084	keystroke_c	c	n/a
597.162	0.09	1194324	keystroke_l	l	n/a
597.312	0.105	1194624	keystroke_a	a	n/a
597.552	0.075	1195104	keystroke_s	s	n/a
597.747	0.075	1195494	keystroke_s	s	n/a
597.882	0.12	1195764	keystroke_Key.space	Key.space	n/a
598.167	0.12	1196334	keystroke_a	a	n/a
598.332	0.15	1196664	keystroke_r	r	n/a
598.617	0.12	1197234	keystroke_g	g	n/a
598.782	0.12	1197564	keystroke_e	e	n/a
599.067	0.12	1198134	keystroke_t	t	n/a
599.202	0.075	1198404	keystroke_i	i	n/a
599.412	0.105	1198824	keystroke_n	n	n/a
599.607	0.15	1199214	keystroke_a	a	n/a
599.742	0.15	1199484	keystroke_Key.space	Key.space	n/a
600.237	0.075	1200474	keystroke_o	o	n/a
600.417	0.135	1200834	keystroke_x	x	n/a
600.627	0.105	1201254	keystroke_i	i	n/a
600.852	0.075	1201704	keystroke_d	d	n/a
601.047	0.09	1202094	keystroke_e	e	n/a
601.257	0.075	1202514	keystroke_Key.enter	Key.enter	n/a
601.3365	8.6975	1202673	prompt	n/a	retired prefix expressed treo\n
602.0825	0.12	1204165	keystroke_r	r	n/a
602.1425	0.135	1204285	keystroke_e	e	n/a
602.3825	0.135	1204765	keystroke_t	t	n/a
602.5025	0.09	1205005	keystroke_i	i	n/a
602.6525	0.15	1205305	keystroke_r	r	n/a
602.7575	0.1345	1205515	keystroke_e	e	n/a
603.012	0.195	1206024	keystroke_d	d	n/a
603.162	0.15	1206324	keystroke_Key.space	Key.space	n/a
603.898	0.12	1207796	keystroke_p	p	n/a
604.048	0.1795	1208096	keystroke_r	r	n/a
604.1675	0.15	1208335	keystroke_e	e	n/a
604.4675	0.165	1208935	keystroke_f	f	n/a
604.5875	0.09	1209175	keystroke_i	i	n/a
604.8575	0.09	1209715	keystroke_Key.space	Key.space	n/a
605.3675	0.06	1210735	keystroke_Key.backspace	Key.backspace	n/a
605.4425	0.165	1210885	keystroke_x	x	n/a
605.5925	0.12	1211185	keystroke_Key.space	Key.space	n/a
606.4475	0.06	1212895	keystroke_e	e	n/a
606.6425	0.135	1213285	keystroke_x	x	n/a
606.853	0.105	1213706	keystroke_p	p	n/a
607.062	0.135	1214124	keystroke_r	r	n/a
607.228	0.165	1214456	keystroke_e	e	n/a
607.498	0.06	1214996	keystroke_s	s	n/a
607.663	0.09	1215326	keystroke_s	s	n/a
607.828	0.075	1215656	keystroke_e	e	n/a
607.993	0.15	1215986	keystroke_d	d	n/a
608.128	0.119	1216256	keystroke_Key.space	Key.space	n/a
608.367	0.136	1216734	keystroke_t	t	n/a
608.893	0.119	1217786	keystroke_r	r	n/a
609.373	0.149	1218746	keystroke_e	e	n/a
609.672	0.061	1219344	keystroke_o	o	n/a
609.972	0.06	1219944	keystroke_Key.enter	Key.enter	n/a
610.037	10.453	1220074	prompt	n/a	eligibility contributors bacterial clinton\n
610.813	0.119	1221626	keystroke_e	e	n/a
610.9925	0.075	1221985	keystroke_l	l	n/a
611.1575	0.09	1222315	keystroke_i	i	n/a
611.3975	0.09	1222795	keystroke_g	g	n/a
611.5025	0.06	1223005	keystroke_i	i	n/a
611.9075	0.1045	1223815	keystroke_b	b	n/a
612.042	0.06	1224084	keystroke_i	i	n/a
612.237	0.09	1224474	keystroke_l	l	n/a
612.432	0.06	1224864	keystroke_i	i	n/a
612.5975	0.12	1225195	keystroke_t	t	n/a
612.7775	0.09	1225555	keystroke_y	y	n/a
612.9725	0.135	1225945	keystroke_Key.space	Key.space	n/a
613.4225	0.135	1226845	keystroke_c	c	n/a
613.543	0.1345	1227086	keystroke_o	o	n/a
613.6025	0.135	1227205	keystroke_n	n	n/a
613.7975	0.12	1227595	keystroke_t	t	n/a
613.993	0.135	1227986	keystroke_r	r	n/a
614.158	0.09	1228316	keystroke_i	i	n/a
614.788	0.09	1229576	keystroke_b	b	n/a
614.923	0.075	1229846	keystroke_u	u	n/a
615.3875	0.105	1230775	keystroke_t	t	n/a
615.552	0.09	1231104	keystroke_o	o	n/a
615.928	0.1045	1231856	keystroke_r	r	n/a
616.2875	0.1205	1232575	keystroke_s	s	n/a
616.467	0.15	1232934	keystroke_Key.space	Key.space	n/a
616.9775	0.09	1233955	keystroke_b	b	n/a
617.1725	0.105	1234345	keystroke_a	a	n/a
617.382	0.075	1234764	keystroke_c	c	n/a
617.622	0.12	1235244	keystroke_t	t	n/a
617.8175	0.165	1235635	keystroke_e	e	n/a
617.952	0.1205	1235904	keystroke_r	r	n/a
618.1175	0.075	1236235	keystroke_i	i	n/a
618.3125	0.105	1236625	keystroke_a	a	n/a
618.4625	0.0905	1236925	keystroke_l	l	n/a
618.673	0.12	1237346	keystroke_Key.space	Key.space	n/a
618.9125	0.12	1237825	keystroke_c	c	n/a
619.0175	0.075	1238035	keystroke_l	l	n/a
619.212	0.0755	1238424	keystroke_i	i	n/a
619.4375	0.105	1238875	keystroke_n	n	n/a
619.6025	0.135	1239205	keystroke_t	t	n/a
619.7825	0.09	1239565	keystroke_o	o	n/a
620.1275	0.045	1240255	keystroke_n	n	n/a
620.4125	0.0755	1240825	keystroke_Key.enter	Key.enter	n/a
620.493	7.736	1240986	prompt	n/a	norfolk wishes selections resulting\n
621.2975	0.135	1242595	keystroke_n	n	n/a
621.4775	0.075	1242955	keystroke_o	o	n/a
621.5675	0.105	1243135	keystroke_r	r	n/a
621.8075	0.12	1243615	keystroke_f	f	n/a
621.9275	0.075	1243855	keystroke_o	o	n/a
622.2425	0.075	1244485	keystroke_l	l	n/a
622.8125	0.075	1245625	keystroke_k	k	n/a
623.0975	0.1505	1246195	keystroke_Key.space	Key.space	n/a
623.578	0.1045	1247156	keystroke_w	w	n/a
623.6975	0.09	1247395	keystroke_i	i	n/a
623.8175	0.135	1247635	keystroke_s	s	n/a
623.9675	0.0755	1247935	keystroke_h	h	n/a
624.148	0.12	1248296	keystroke_e	e	n/a
624.478	0.014	1248956	keystroke_s	s	n/a
624.522	0.151	1249044	keystroke_Key.space	Key.space	n/a
624.838	0.105	1249676	keystroke_s	s	n/a
625.048	0.104	1250096	keystroke_e	e	n/a
625.318	0.09	1250636	keystroke_l	l	n/a
625.453	0.075	1250906	keystroke_e	e	n/a
625.677	0.105	1251354	keystroke_c	c	n/a
625.9325	0.09	1251865	keystroke_t	t	n/a
626.1275	0.2245	1252255	keystroke_i	i	n/a
626.1725	0.1645	1252345	keystroke_o	o	n/a
626.262	0.15	1252524	keystroke_n	n	n/a
626.382	0.105	1252764	keystroke_s	s	n/a
626.547	0.136	1253094	keystroke_Key.space	Key.space	n/a
626.818	0.075	1253636	keystroke_r	r	n/a
626.863	0.105	1253726	keystroke_e	e	n/a
627.088	0.135	1254176	keystroke_s	s	n/a
627.238	0.075	1254476	keystroke_u	u	n/a
627.433	0.09	1254866	keystroke_l	l	n/a
627.583	0.105	1255166	keystroke_t	t	n/a
627.763	0.18	1255526	keystroke_i	i	n/a
627.838	0.135	1255676	keystroke_n	n	n/a
627.988	0.09	1255976	keystroke_g	g	n/a
628.153	0.075	1256306	keystroke_Key.enter	Key.enter	n/a
628.232	7.677	1256464	prompt	n/a	morris cons absence promising\n
628.9475	0.12	1257895	keystroke_m	m	n/a
629.1425	0.09	1258285	keystroke_o	o	n/a
629.3675	0.06	1258735	keystroke_r	r	n/a
629.5025	0.09	1259005	keystroke_r	r	n/a
629.6675	0.09	1259335	keystroke_i	i	n/a
629.8625	0.165	1259725	keystroke_s	s	n/a
630.0575	0.135	1260115	keystroke_Key.space	Key.space	n/a
630.3575	0.09	1260715	keystroke_c	c	n/a
630.4625	0.15	1260925	keystroke_o	o	n/a
630.4925	0.165	1260985	keystroke_n	n	n/a
630.808	0.119	1261616	keystroke_s	s	n/a
631.002	0.12	1262004	keystroke_Key.space	Key.space	n/a
631.242	0.105	1262484	keystroke_a	a	n/a
631.7375	0.06	1263475	keystroke_b	b	n/a
632.0375	0.09	1264075	keystroke_s	s	n/a
632.2475	0.105	1264495	keystroke_e	e	n/a
632.4125	0.1045	1264825	keystroke_n	n	n/a
633.2975	0.15	1266595	keystroke_c	c	n/a
633.4925	0.135	1266985	keystroke_e	e	n/a
633.5975	0.1495	1267195	keystroke_Key.space	Key.space	n/a
634.002	0.091	1268004	keystroke_p	p	n/a
634.1375	0.135	1268275	keystroke_r	r	n/a
634.2875	0.075	1268575	keystroke_o	o	n/a
634.7825	0.09	1269565	keystroke_m	m	n/a
634.9775	0.075	1269955	keystroke_i	i	n/a
635.1425	0.1055	1270285	keystroke_s	s	n/a
635.293	0.18	1270586	keystroke_i	i	n/a
635.368	0.149	1270736	keystroke_n	n	n/a
635.518	0.135	1271036	keystroke_g	g	n/a
635.833	0.075	1271666	keystroke_Key.enter	Key.enter	n/a
635.912	11.157	1271824	prompt	n/a	reuters notebooks known betting\n
636.658	0.15	1273316	keystroke_r	r	n/a
636.748	0.164	1273496	keystroke_e	e	n/a
638.398	0.0895	1276796	keystroke_u	u	n/a
638.6525	0.135	1277305	keystroke_t	t	n/a
638.8325	0.195	1277665	keystroke_e	e	n/a
638.9225	0.18	1277845	keystroke_r	r	n/a
639.2975	0.165	1278595	keystroke_s	s	n/a
639.4775	0.1505	1278955	keystroke_Key.space	Key.space	n/a
640.0475	0.135	1280095	keystroke_o	o	n/a
640.1975	0.165	1280395	keystroke_t	t	n/a
640.3025	0.15	1280605	keystroke_e	e	n/a
640.9025	0.075	1281805	keystroke_Key.backspace	Key.backspace	n/a
641.0525	0.075	1282105	keystroke_Key.backspace	Key.backspace	n/a
641.2025	0.075	1282405	keystroke_Key.backspace	Key.backspace	n/a
641.8475	0.225	1283695	keystroke_n	n	n/a
641.9675	0.165	1283935	keystroke_o	o	n/a
642.297	0.21	1284594	keystroke_t	t	n/a
642.402	0.225	1284804	keystroke_e	e	n/a
643.5875	0.1055	1287175	keystroke_b	b	n/a
643.768	0.06	1287536	keystroke_o	o	n/a
643.903	0.09	1287806	keystroke_o	o	n/a
644.068	0.12	1288136	keystroke_k	k	n/a
644.218	0.15	1288436	keystroke_s	s	n/a
644.338	0.135	1288676	keystroke_Key.space	Key.space	n/a
644.743	0.285	1289486	keystroke_k	k	n/a
644.893	0.225	1289786	keystroke_n	n	n/a
644.983	0.165	1289966	keystroke_o	o	n/a
645.103	0.105	1290206	keystroke_w	w	n/a
645.328	0.075	1290656	keystroke_n	n	n/a
645.5525	0.12	1291105	keystroke_Key.space	Key.space	n/a
645.7625	0.105	1291525	keystroke_b	b	n/a
645.8975	0.09	1291795	keystroke_e	e	n/a
646.1375	0.045	1292275	keystroke_t	t	n/a
646.2875	0.0905	1292575	keystroke_t	t	n/a
646.438	0.21	1292876	keystroke_i	i	n/a
646.513	0.18	1293026	keystroke_n	n	n/a
646.708	0.075	1293416	keystroke_g	g	n/a
646.993	0.075	1293986	keystroke_Key.enter	Key.enter	n/a
647.072	8.967	1294144	prompt	n/a	intensive everybody investments breed\n
647.7275	0.165	1295455	keystroke_i	i	n/a
647.8325	0.15	1295665	keystroke_n	n	n/a
648.1925	0.12	1296385	keystroke_t	t	n/a
648.3425	0.24	1296685	keystroke_e	e	n/a
648.7475	0.12	1297495	keystroke_n	n	n/a
