onset	duration	sample	value	key	prompt_text
1.261	11.038	2522	prompt	n/a	the quick brown fox jumps over a lazy dog\n
3.1605	0.136	6321	keystroke	t	n/a
3.2405	0.12	6481	keystroke	h	n/a
3.3765	0.136	6753	keystroke	e	n/a
3.5285	0.072	7057	keystroke	Key.space	n/a
4.928	0.128	9856	keystroke	q	n/a
4.976	0.136	9952	keystroke	u	n/a
5.064	0.104	10128	keystroke	i	n/a
5.208	0.16	10416	keystroke	c	n/a
5.352	0.104	10704	keystroke	k	n/a
5.904	0.105	11808	keystroke	Key.space	n/a
6.1575	0.098	12315	keystroke	b	n/a
6.2955	0.1435	12591	keystroke	r	n/a
6.3835	0.1035	12767	keystroke	o	n/a
6.551	0.157	13102	keystroke	w	n/a
6.6725	0.103	13345	keystroke	n	n/a
6.8945	0.073	13789	keystroke	Key.space	n/a
6.9915	0.128	13983	keystroke	f	n/a
7.1275	0.088	14255	keystroke	o	n/a
7.4465	0.144	14893	keystroke	x	n/a
7.871	0.08	15742	keystroke	Key.space	n/a
8.127	0.08	16254	keystroke	j	n/a
8.2805	0.096	16561	keystroke	u	n/a
8.4555	0.12	16911	keystroke	m	n/a
8.6155	0.104	17231	keystroke	p	n/a
8.8315	0.136	17663	keystroke	s	n/a
8.9685	0.079	17937	keystroke	Key.space	n/a
9.321	0.064	18642	keystroke	v	n/a
9.593	0.072	19186	keystroke	Key.backspace	n/a
9.873	0.096	19746	keystroke	o	n/a
9.969	0.1205	19938	keystroke	v	n/a
10.0735	0.168	20147	keystroke	e	n/a
10.2255	0.1355	20451	keystroke	r	n/a
10.449	0.096	20898	keystroke	Key.space	n/a
10.617	0.1355	21234	keystroke	a	n/a
10.7205	0.08	21441	keystroke	Key.space	n/a
10.9125	0.112	21825	keystroke	l	n/a
11.0325	0.088	22065	keystroke	a	n/a
11.2245	0.12	22449	keystroke	z	n/a
11.4885	0.128	22977	keystroke	y	n/a
11.6565	0.088	23313	keystroke	Key.space	n/a
11.8325	0.128	23665	keystroke	d	n/a
11.9125	0.112	23825	keystroke	o	n/a
12.0805	0.096	24161	keystroke	g	n/a
12.1925	0.104	24385	keystroke	Key.enter	n/a
12.3025	9.4765	24605	prompt	n/a	experiment representatives ball compounds\n
12.8885	0.072	25777	keystroke	e	n/a
13.185	0.088	26370	keystroke	p	n/a
13.561	0.063	27122	keystroke	Key.backspace	n/a
14.097	0.112	28194	keystroke	p	n/a
14.504	0.073	29008	keystroke	Key.backspace	n/a
14.673	0.12	29346	keystroke	x	n/a
14.785	0.112	29570	keystroke	p	n/a
14.945	0.16	29890	keystroke	e	n/a
15.049	0.176	30098	keystroke	r	n/a
15.201	0.104	30402	keystroke	i	n/a
15.4565	0.104	30913	keystroke	m	n/a
15.5765	0.136	31153	keystroke	e	n/a
15.7045	0.096	31409	keystroke	n	n/a
15.7765	0.112	31553	keystroke	t	n/a
15.9765	0.0805	31953	keystroke	Key.space	n/a
16.0965	0.176	32193	keystroke	r	n/a
16.1845	0.144	32369	keystroke	e	n/a
16.841	0.112	33682	keystroke	p	n/a
17.017	0.16	34034	keystroke	r	n/a
17.089	0.104	34178	keystroke	e	n/a
17.305	0.104	34610	keystroke	s	n/a
17.6175	0.16	35235	keystroke	e	n/a
17.8015	0.08	35603	keystroke	n	n/a
17.9375	0.112	35875	keystroke	t	n/a
18.3775	0.152	36755	keystroke	a	n/a
18.6655	0.128	37331	keystroke	t	n/a
18.8095	0.112	37619	keystroke	i	n/a
18.9615	0.256	37923	keystroke	v	n/a
19.1135	0.152	38227	keystroke	e	n/a
19.3855	0.112	38771	keystroke	s	n/a
19.5055	0.056	39011	keystroke	Key.space	n/a
19.6735	0.096	39347	keystroke	b	n/a
19.7295	0.136	39459	keystroke	a	n/a
19.8975	0.072	39795	keystroke	l	n/a
20.0335	0.08	40067	keystroke	l	n/a
20.2095	0.104	40419	keystroke	Key.space	n/a
20.3375	0.16	40675	keystroke	c	n/a
20.4335	0.152	40867	keystroke	o	n/a
20.5455	0.112	41091	keystroke	m	n/a
20.7215	0.12	41443	keystroke	p	n/a
20.9455	0.12	41891	keystroke	o	n/a
21.1375	0.128	42275	keystroke	u	n/a
21.3215	0.128	42643	keystroke	n	n/a
21.4175	0.208	42835	keystroke	d	n/a
21.4975	0.16	42995	keystroke	s	n/a
21.6575	0.12	43315	keystroke	Key.enter	n/a
21.7815	5.6775	43563	prompt	n/a	parks brandon sociology bags\n
22.354	0.0955	44708	keystroke	p	n/a
22.4975	0.112	44995	keystroke	a	n/a
22.858	0.136	45716	keystroke	r	n/a
22.978	0.096	45956	keystroke	k	n/a
23.146	0.152	46292	keystroke	s	n/a
23.305	0.056	46610	keystroke	Key.space	n/a
23.474	0.104	46948	keystroke	b	n/a
23.57	0.152	47140	keystroke	r	n/a
23.642	0.184	47284	keystroke	a	n/a
23.786	0.1115	47572	keystroke	n	n/a
24.1695	0.136	48339	keystroke	d	n/a
24.2895	0.104	48579	keystroke	o	n/a
24.3855	0.08	48771	keystroke	n	n/a
24.5695	0.08	49139	keystroke	Key.space	n/a
24.682	0.112	49364	keystroke	s	n/a
24.794	0.063	49588	keystroke	o	n/a
24.9135	0.16	49827	keystroke	c	n/a
25.0575	0.088	50115	keystroke	i	n/a
25.3455	0.096	50691	keystroke	o	n/a
25.5775	0.072	51155	keystroke	l	n/a
25.7695	0.088	51539	keystroke	o	n/a
25.9055	0.104	51811	keystroke	g	n/a
26.1375	0.112	52275	keystroke	y	n/a
26.4015	0.088	52803	keystroke	Key.space	n/a
26.6175	0.096	53235	keystroke	b	n/a
26.8655	0.144	53731	keystroke	a	n/a
27.0655	0.112	54131	keystroke	g	n/a
27.2415	0.128	54483	keystroke	s	n/a
27.3775	0.08	54755	keystroke	Key.enter	n/a
27.4615	9.15	54923	prompt	n/a	nirvana buyers homes chemicals\n
28.1135	0.088	56227	keystroke	n	n/a
28.3135	0.112	56627	keystroke	i	n/a
28.4335	0.112	56867	keystroke	v	n/a
29.7455	0.128	59491	keystroke	Key.backspace	n/a
30.6655	0.12	61331	keystroke	r	n/a
30.9455	0.112	61891	keystroke	v	n/a
31.1375	0.176	62275	keystroke	a	n/a
31.2735	0.096	62547	keystroke	n	n/a
31.4335	0.144	62867	keystroke	a	n/a
31.6735	0.072	63347	keystroke	Key.space	n/a
31.8655	0.176	63731	keystroke	b	n/a
31.9775	0.144	63955	keystroke	u	n/a
32.2015	0.12	64403	keystroke	y	n/a
32.7695	0.184	65539	keystroke	e	n/a
32.8895	0.128	65779	keystroke	r	n/a
33.0895	0.136	66179	keystroke	s	n/a
33.2335	0.072	66467	keystroke	Key.space	n/a
33.4335	0.136	66867	keystroke	h	n/a
33.5295	0.144	67059	keystroke	o	n/a
33.7295	0.136	67459	keystroke	m	n/a
33.8335	0.08	67667	keystroke	e	n/a
34.0175	0.1205	68035	keystroke	s	n/a
34.106	0.0875	68212	keystroke	Key.space	n/a
34.2975	0.1595	68595	keystroke	c	n/a
34.433	0.0965	68866	keystroke	h	n/a
34.5455	0.1355	69091	keystroke	e	n/a
34.713	0.12	69426	keystroke	m	n/a
34.753	0.2005	69506	keystroke	c	n/a
34.8975	0.112	69795	keystroke	e	n/a
35.3615	0.072	70723	keystroke	Key.backspace	n/a
35.5215	0.088	71043	keystroke	Key.backspace	n/a
35.7695	0.104	71539	keystroke	i	n/a
35.9295	0.2	71859	keystroke	c	n/a
36.0575	0.168	72115	keystroke	a	n/a
36.1455	0.081	72291	keystroke	l	n/a
36.2895	0.136	72579	keystroke	s	n/a
36.4905	0.12	72981	keystroke	Key.enter	n/a
36.6145	8.4125	73229	prompt	n/a	lincoln slip levels criteria\n
37.2095	0.096	74419	keystroke	l	n/a
37.7055	0.168	75411	keystroke	i	n/a
37.8665	0.119	75733	keystroke	n	n/a
37.9935	0.192	75987	keystroke	c	n/a
38.1295	0.064	76259	keystroke	o	n/a
38.9375	0.12	77875	keystroke	l	n/a
39.0585	0.111	78117	keystroke	n	n/a
39.3295	0.088	78659	keystroke	Key.space	n/a
39.5375	0.2	79075	keystroke	s	n/a
39.6895	0.072	79379	keystroke	l	n/a
39.8815	0.104	79763	keystroke	i	n/a
40.0815	0.12	80163	keystroke	p	n/a
40.1935	0.136	80387	keystroke	s	n/a
40.3855	0.0805	80771	keystroke	Key.space	n/a
40.8175	0.104	81635	keystroke	l	n/a
41.0495	0.232	82099	keystroke	v	n/a
41.1535	0.184	82307	keystroke	e	n/a
42.0575	0.064	84115	keystroke	Key.backspace	n/a
42.2175	0.088	84435	keystroke	Key.backspace	n/a
42.3535	0.12	84707	keystroke	e	n/a
42.5215	0.208	85043	keystroke	v	n/a
42.6015	0.16	85203	keystroke	e	n/a
42.6575	0.096	85315	keystroke	l	n/a
42.9295	0.136	85859	keystroke	s	n/a
43.1295	0.088	86259	keystroke	Key.space	n/a
43.3855	0.144	86771	keystroke	c	n/a
43.6495	0.136	87299	keystroke	r	n/a
43.7535	0.112	87507	keystroke	i	n/a
44.0825	0.127	88165	keystroke	t	n/a
44.1855	0.16	88371	keystroke	e	n/a
44.3215	0.152	88643	keystroke	r	n/a
44.4655	0.096	88931	keystroke	i	n/a
44.5375	0.144	89075	keystroke	a	n/a
44.9135	0.112	89827	keystroke	Key.enter	n/a
45.03	12.2935	90060	prompt	n/a	wider canadian hypothetical already\n
45.7855	0.128	91571	keystroke	w	n/a
45.9615	0.128	91923	keystroke	i	n/a
46.0735	0.184	92147	keystroke	d	n/a
46.1855	0.216	92371	keystroke	e	n/a
46.3855	0.152	92771	keystroke	r	n/a
46.5135	0.096	93027	keystroke	Key.space	n/a
46.722	0.168	93444	keystroke	c	n/a
46.826	0.136	93652	keystroke	a	n/a
46.962	0.112	93924	keystroke	n	n/a
47.066	0.152	94132	keystroke	a	n/a
47.234	0.152	94468	keystroke	d	n/a
47.394	0.096	94788	keystroke	i	n/a
47.49	0.144	94980	keystroke	a	n/a
47.642	0.088	95284	keystroke	n	n/a
47.858	0.072	95716	keystroke	Key.space	n/a
48.0735	0.136	96147	keystroke	h	n/a
48.2255	0.1045	96451	keystroke	y	n/a
48.418	0.128	96836	keystroke	p	n/a
48.658	0.096	97316	keystroke	o	n/a
48.81	0.152	97620	keystroke	t	n/a
48.906	0.176	97812	keystroke	e	n/a
49.186	0.12	98372	keystroke	h	n/a
49.842	0.096	99684	keystroke	Key.backspace	n/a
50.034	0.08	100068	keystroke	Key.backspace	n/a
50.314	0.136	100628	keystroke	h	n/a
50.49	0.136	100980	keystroke	e	n/a
50.89	0.12	101780	keystroke	t	n/a
50.97	0.104	101940	keystroke	i	n/a
51.2975	0.1685	102595	keystroke	a	n/a
52.41	0.064	104820	keystroke	=	n/a
52.698	0.08	105396	keystroke	Key.backspace	n/a
52.866	0.088	105732	keystroke	Key.backspace	n/a
53.042	0.072	106084	keystroke	Key.backspace	n/a
53.818	0.088	107636	keystroke	u	n/a
54.218	0.096	108436	keystroke	=	n/a
54.506	0.088	109012	keystroke	Key.backspace	n/a
54.682	0.08	109364	keystroke	Key.backspace	n/a
55.146	0.088	110292	keystroke	i	n/a
55.466	0.176	110932	keystroke	c	n/a
55.578	0.168	111156	keystroke	a	n/a
55.65	0.096	111300	keystroke	l	n/a
55.858	0.072	111716	keystroke	Key.space	n/a
56.25	0.128	112500	keystroke	a	n/a
56.378	0.088	112756	keystroke	l	n/a
56.482	0.176	112964	keystroke	r	n/a
56.586	0.144	113172	keystroke	e	n/a
56.642	0.152	113284	keystroke	a	n/a
56.802	0.12	113604	keystroke	d	n/a
57.106	0.048	114212	keystroke	y	n/a
57.114	0.056	114228	keystroke	t	n/a
57.242	0.08	114484	keystroke	Key.enter	n/a
57.328	6.027	114656	prompt	n/a	shower reaches sort consultancy\n
57.946	0.136	115892	keystroke	s	n/a
58.026	0.104	116052	keystroke	h	n/a
58.09	0.104	116180	keystroke	o	n/a
58.186	0.096	116372	keystroke	w	n/a
58.378	0.184	116756	keystroke	e	n/a
58.474	0.176	116948	keystroke	r	n/a
58.626	0.088	117252	keystroke	Key.space	n/a
58.85	0.168	117700	keystroke	r	n/a
58.93	0.152	117860	keystroke	e	n/a
58.986	0.136	117972	keystroke	a	n/a
59.17	0.152	118340	keystroke	c	n/a
59.322	0.096	118644	keystroke	h	n/a
59.41	0.112	118820	keystroke	e	n/a
59.61	0.136	119220	keystroke	s	n/a
59.778	0.088	119556	keystroke	Key.space	n/a
59.978	0.144	119956	keystroke	s	n/a
60.258	0.104	120516	keystroke	o	n/a
60.378	0.12	120756	keystroke	r	n/a
60.594	0.128	121188	keystroke	t	n/a
61.05	0.096	122100	keystroke	Key.space	n/a
61.21	0.152	122420	keystroke	c	n/a
61.33	0.112	122660	keystroke	o	n/a
61.394	0.136	122788	keystroke	n	n/a
62.0575	0.152	124115	keystroke	s	n/a
62.1535	0.08	124307	keystroke	u	n/a
62.3455	0.104	124691	keystroke	l	n/a
62.4735	0.176	124947	keystroke	t	n/a
62.6015	0.144	125203	keystroke	a	n/a
62.7295	0.088	125459	keystroke	n	n/a
62.8895	0.112	125779	keystroke	c	n/a
63.2095	0.064	126419	keystroke	y	n/a
63.2575	0.096	126515	keystroke	Key.enter	n/a
63.358	7.429	126716	prompt	n/a	kodak draws regulated billy\n
64.0895	0.12	128179	keystroke	k	n/a
64.5615	0.096	129123	keystroke	o	n/a
64.8335	0.168	129667	keystroke	d	n/a
64.9375	0.176	129875	keystroke	a	n/a
65.0815	0.112	130163	keystroke	k	n/a
65.3535	0.072	130707	keystroke	Key.space	n/a
65.4495	0.136	130899	keystroke	d	n/a
65.6815	0.16	131363	keystroke	r	n/a
65.7775	0.176	131555	keystroke	a	n/a
66.5055	0.104	133011	keystroke	w	n/a
66.7535	0.12	133507	keystroke	s	n/a
66.9535	0.112	133907	keystroke	Key.space	n/a
67.0895	0.16	134179	keystroke	r	n/a
67.1695	0.144	134339	keystroke	e	n/a
67.3695	0.136	134739	keystroke	g	n/a
67.4655	0.104	134931	keystroke	u	n/a
67.7055	0.088	135411	keystroke	l	n/a
67.7775	0.16	135555	keystroke	a	n/a
67.9935	0.176	135987	keystroke	t	n/a
68.0815	0.136	136163	keystroke	e	n/a
68.3615	0.128	136723	keystroke	d	n/a
68.5615	0.08	137123	keystroke	Key.space	n/a
68.7615	0.152	137523	keystroke	b	n/a
68.8815	0.136	137763	keystroke	i	n/a
69.2175	0.08	138435	keystroke	l	n/a
69.3695	0.104	138739	keystroke	l	n/a
69.5135	0.136	139027	keystroke	y	n/a
70.1455	0.088	140291	keystroke	Key.backspace	n/a
70.3935	0.12	140787	keystroke	l	n/a
70.5055	0.112	141011	keystroke	y	n/a
70.6975	0.088	141395	keystroke	Key.enter	n/a
70.7895	6.6855	141579	prompt	n/a	sporting volumes reviewing tracker\n
71.6175	0.16	143235	keystroke	s	n/a
71.7295	0.088	143459	keystroke	p	n/a
71.9215	0.088	143843	keystroke	o	n/a
72.0015	0.112	144003	keystroke	r	n/a
72.2575	0.136	144515	keystroke	t	n/a
72.4495	0.152	144899	keystroke	i	n/a
72.5695	0.12	145139	keystroke	n	n/a
72.6335	0.128	145267	keystroke	g	n/a
72.7935	0.08	145587	keystroke	Key.space	n/a
73.1615	0.144	146323	keystroke	v	n/a
73.2415	0.088	146483	keystroke	o	n/a
73.4335	0.208	146867	keystroke	l	n/a
73.6095	0.136	147219	keystroke	u	n/a
73.8415	0.128	147683	keystroke	m	n/a
73.9935	0.104	147987	keystroke	e	n/a
74.2335	0.12	148467	keystroke	s	n/a
74.3615	0.088	148723	keystroke	Key.space	n/a
74.7295	0.16	149459	keystroke	r	n/a
74.8095	0.144	149619	keystroke	e	n/a
75.0415	0.184	150083	keystroke	v	n/a
75.1935	0.128	150387	keystroke	i	n/a
75.2415	0.192	150483	keystroke	e	n/a
75.3615	0.144	150723	keystroke	w	n/a
75.6895	0.16	151379	keystroke	i	n/a
75.7935	0.136	151587	keystroke	n	n/a
75.9055	0.128	151811	keystroke	g	n/a
76.0255	0.104	152051	keystroke	Key.space	n/a
76.1615	0.12	152323	keystroke	t	n/a
76.3855	0.136	152771	keystroke	r	n/a
76.4575	0.176	152915	keystroke	a	n/a
76.6735	0.152	153347	keystroke	c	n/a
77.0175	0.128	154035	keystroke	k	n/a
77.1695	0.168	154339	keystroke	e	n/a
77.2735	0.168	154547	keystroke	r	n/a
77.3775	0.096	154755	keystroke	Key.enter	n/a
77.478	6.757	154956	prompt	n/a	resulted speaker weren't beverages\n
78.1055	0.136	156211	keystroke	r	n/a
78.1855	0.072	156371	keystroke	e	n/a
78.3615	0.136	156723	keystroke	s	n/a
78.4735	0.08	156947	keystroke	u	n/a
78.6655	0.096	157331	keystroke	l	n/a
78.7455	0.128	157491	keystroke	t	n/a
78.8255	0.088	157651	keystroke	e	n/a
79.0095	0.12	158019	keystroke	d	n/a
79.0975	0.08	158195	keystroke	Key.space	n/a
79.2975	0.136	158595	keystroke	s	n/a
79.4655	0.128	158931	keystroke	p	n/a
79.6095	0.224	159219	keystroke	e	n/a
79.7055	0.136	159411	keystroke	a	n/a
79.9375	0.128	159875	keystroke	k	n/a
80.0735	0.16	160147	keystroke	e	n/a
80.1615	0.168	160323	keystroke	r	n/a
80.2895	0.096	160579	keystroke	Key.space	n/a
80.4495	0.096	160899	keystroke	w	n/a
80.6495	0.136	161299	keystroke	e	n/a
80.7695	0.192	161539	keystroke	r	n/a
80.9055	0.144	161811	keystroke	e	n/a
81.0335	0.112	162067	keystroke	n	n/a
81.3535	0.136	162707	keystroke	'	n/a
81.4975	0.136	162995	keystroke	t	n/a
81.6895	0.088	163379	keystroke	Key.space	n/a
81.9135	0.096	163827	keystroke	b	n/a
82.0095	0.16	164019	keystroke	e	n/a
82.8975	0.16	165795	keystroke	v	n/a
83.1775	0.16	166355	keystroke	e	n/a
83.2975	0.176	166595	keystroke	r	n/a
83.4415	0.144	166883	keystroke	a	n/a
83.6415	0.152	167283	keystroke	g	n/a
83.7295	0.096	167459	keystroke	e	n/a
84.0575	0.136	168115	keystroke	s	n/a
84.1535	0.08	168307	keystroke	Key.enter	n/a
84.238	7.469	168476	prompt	n/a	advance laughing faster cause\n
84.9055	0.184	169811	keystroke	a	n/a
85.2415	0.192	170483	keystroke	v	n/a
85.9375	0.088	171875	keystroke	Key.backspace	n/a
86.1055	0.112	172211	keystroke	d	n/a
86.3535	0.144	172707	keystroke	v	n/a
86.4415	0.2	172883	keystroke	a	n/a
86.5935	0.096	173187	keystroke	n	n/a
86.7375	0.112	173475	keystroke	c	n/a
86.9535	0.176	173907	keystroke	e	n/a
87.1775	0.096	174355	keystroke	Key.space	n/a
87.8015	0.12	175603	keystroke	l	n/a
88.0255	0.16	176051	keystroke	a	n/a
88.1775	0.112	176355	keystroke	u	n/a
88.4335	0.152	176867	keystroke	g	n/a
88.6655	0.104	177331	keystroke	h	n/a
88.9295	0.152	177859	keystroke	i	n/a
89.0415	0.136	178083	keystroke	n	n/a
89.1615	0.136	178323	keystroke	g	n/a
89.3855	0.112	178771	keystroke	Key.space	n/a
89.5375	0.12	179075	keystroke	f	n/a
89.6175	0.152	179235	keystroke	a	n/a
89.7935	0.144	179587	keystroke	s	n/a
90.0175	0.136	180035	keystroke	t	n/a
90.1215	0.24	180243	keystroke	e	n/a
90.2655	0.16	180531	keystroke	r	n/a
90.3855	0.104	180771	keystroke	Key.space	n/a
90.7615	0.208	181523	keystroke	c	n/a
90.9055	0.192	181811	keystroke	a	n/a
91.0735	0.104	182147	keystroke	u	n/a
91.2175	0.096	182435	keystroke	s	n/a
91.4175	0.128	182835	keystroke	e	n/a
91.6015	0.104	183203	keystroke	Key.enter	n/a
91.7095	7.661	183419	prompt	n/a	radius genes opponents healing\n
92.4895	0.144	184979	keystroke	r	n/a
92.5775	0.176	185155	keystroke	a	n/a
92.7935	0.152	185587	keystroke	d	n/a
92.9465	0.071	185893	keystroke	i	n/a
93.1135	0.104	186227	keystroke	u	n/a
93.3295	0.12	186659	keystroke	m	n/a
93.5135	0.176	187027	keystroke	s	n/a
93.9775	0.072	187955	keystroke	Key.backspace	n/a
94.1535	0.08	188307	keystroke	Key.backspace	n/a
94.3535	0.152	188707	keystroke	s	n/a
94.5535	0.072	189107	keystroke	Key.space	n/a
94.9695	0.184	189939	keystroke	g	n/a
95.0655	0.136	190131	keystroke	e	n/a
95.2015	0.096	190403	keystroke	n	n/a
95.3055	0.088	190611	keystroke	e	n/a
95.5055	0.12	191011	keystroke	s	n/a
95.6255	0.088	191251	keystroke	Key.space	n/a
95.9055	0.12	191811	keystroke	o	n/a
96.1455	0.112	192291	keystroke	p	n/a
96.3695	0.112	192739	keystroke	p	n/a
96.6895	0.088	193379	keystroke	o	n/a
97.1375	0.128	194275	keystroke	i	n/a
97.3055	0.104	194611	keystroke	n	n/a
97.5855	0.152	195171	keystroke	e	n/a
97.7535	0.112	195507	keystroke	n	n/a
97.8815	0.176	195763	keystroke	t	n/a
98.0335	0.144	196067	keystroke	s	n/a
98.209	0.0885	196418	keystroke	Key.space	n/a
98.4815	0.112	196963	keystroke	h	n/a
98.6015	0.2	197203	keystroke	e	n/a
98.6895	0.144	197379	keystroke	a	n/a
98.7535	0.072	197507	keystroke	l	n/a
98.9295	0.144	197859	keystroke	i	n/a
99.0335	0.112	198067	keystroke	n	n/a
99.1215	0.136	198243	keystroke	g	n/a
99.2655	0.104	198531	keystroke	Key.enter	n/a
99.373	9.0935	198746	prompt	n/a	internship player cnet consistent\n
100.0175	0.144	200035	keystroke	i	n/a
100.1135	0.12	200227	keystroke	n	n/a
100.2015	0.12	200403	keystroke	t	n/a
100.2815	0.184	200563	keystroke	e	n/a
100.4255	0.168	200851	keystroke	r	n/a
100.5295	0.096	201059	keystroke	n	n/a
100.9055	0.144	201811	keystroke	s	n/a
101.0015	0.144	202003	keystroke	h	n/a
101.0815	0.184	202163	keystroke	i	n/a
101.2255	0.128	202451	keystroke	p	n/a
101.5215	0.112	203043	keystroke	Key.space	n/a
101.8975	0.056	203795	keystroke	[	n/a
102.5135	0.104	205027	keystroke	Key.backspace	n/a
103.0815	0.08	206163	keystroke	p	n/a
103.2815	0.088	206563	keystroke	l	n/a
103.3775	0.12	206755	keystroke	a	n/a
103.5695	0.112	207139	keystroke	y	n/a
103.6495	0.224	207299	keystroke	e	n/a
103.8415	0.128	207683	keystroke	r	n/a
103.9935	0.064	207987	keystroke	Key.space	n/a
105.5775	0.12	211155	keystroke	c	n/a
105.7055	0.08	211411	keystroke	n	n/a
105.8575	0.112	211715	keystroke	e	n/a
105.9935	0.144	211987	keystroke	t	n/a
106.1295	0.104	212259	keystroke	Key.space	n/a
106.657	0.1765	213314	keystroke	c	n/a
106.8015	0.104	213603	keystroke	o	n/a
106.8175	0.112	213635	keystroke	n	n/a
106.993	0.136	213986	keystroke	s	n/a
107.137	0.0965	214274	keystroke	i	n/a
107.2735	0.128	214547	keystroke	s	n/a
107.5855	0.152	215171	keystroke	t	n/a
107.6975	0.152	215395	keystroke	a	n/a
107.8255	0.0955	215651	keystroke	n	n/a
108.113	0.176	216226	keystroke	t	n/a
108.361	0.104	216722	keystroke	Key.enter	n/a
108.4695	7.381	216939	prompt	n/a	click witness violations lost\n
109.4575	0.152	218915	keystroke	c	n/a
109.5615	0.192	219123	keystroke	l	n/a
109.6895	0.096	219379	keystroke	i	n/a
109.8015	0.136	219603	keystroke	c	n/a
109.9455	0.112	219891	keystroke	k	n/a
110.6655	0.088	221331	keystroke	Key.space	n/a
110.8335	0.12	221667	keystroke	w	n/a
110.9215	0.096	221843	keystroke	i	n/a
111.1615	0.104	222323	keystroke	t	n/a
111.3055	0.072	222611	keystroke	n	n/a
111.5455	0.08	223091	keystroke	Key.backspace	n/a
111.6975	0.088	223395	keystroke	Key.backspace	n/a
112.1775	0.128	224355	keystroke	t	n/a
112.3215	0.104	224643	keystroke	n	n/a
112.4095	0.08	224819	keystroke	e	n/a
112.6015	0.072	225203	keystroke	s	n/a
112.7535	0.136	225507	keystroke	s	n/a
112.8735	0.072	225747	keystroke	Key.space	n/a
113.225	0.128	226450	keystroke	v	n/a
113.353	0.168	226706	keystroke	i	n/a
113.465	0.1445	226930	keystroke	o	n/a
113.929	0.08	227858	keystroke	l	n/a
114.105	0.136	228210	keystroke	a	n/a
114.353	0.152	228706	keystroke	t	n/a
114.417	0.208	228834	keystroke	i	n/a
114.497	0.144	228994	keystroke	o	n/a
114.577	0.12	229154	keystroke	n	n/a
114.681	0.128	229362	keystroke	s	n/a
115.017	0.104	230034	keystroke	Key.space	n/a
115.201	0.104	230402	keystroke	l	n/a
115.393	0.104	230786	keystroke	o	n/a
115.441	0.12	230882	keystroke	s	n/a
115.641	0.128	231282	keystroke	t	n/a
115.729	0.12	231458	keystroke	Key.enter	n/a
115.853	8.733	231706	prompt	n/a	toll sodium lafayette cradle\n
117.6495	0.128	235299	keystroke	t	n/a
117.7535	0.096	235507	keystroke	o	n/a
118.0095	0.08	236019	keystroke	l	n/a
118.1775	0.064	236355	keystroke	l	n/a
118.3615	0.112	236723	keystroke	Key.space	n/a
118.6175	0.16	237235	keystroke	s	n/a
118.7295	0.096	237459	keystroke	o	n/a
118.9935	0.144	237987	keystroke	d	n/a
119.1615	0.104	238323	keystroke	i	n/a
119.3695	0.104	238739	keystroke	u	n/a
119.6095	0.072	239219	keystroke	m	n/a
119.9205	0.096	239841	keystroke	Key.space	n/a
120.1375	0.12	240275	keystroke	l	n/a
120.2495	0.144	240499	keystroke	a	n/a
121.3135	0.2	242627	keystroke	f	n/a
121.4575	0.152	242915	keystroke	a	n/a
122.1695	0.136	244339	keystroke	y	n/a
122.2975	0.104	244595	keystroke	e	n/a
122.4815	0.088	244963	keystroke	t	n/a
122.6415	0.144	245283	keystroke	t	n/a
122.7135	0.16	245427	keystroke	e	n/a
122.9605	0.104	245921	keystroke	Key.space	n/a
123.4255	0.112	246851	keystroke	c	n/a
123.7375	0.12	247475	keystroke	r	n/a
123.8335	0.168	247667	keystroke	a	n/a
123.9855	0.112	247971	keystroke	d	n/a
124.1295	0.088	248259	keystroke	l	n/a
124.1935	0.12	248387	keystroke	e	n/a
124.4965	0.088	248993	keystroke	Key.enter	n/a
124.5885	8.8295	249177	prompt	n/a	decide tramadol string queensland\n
125.321	0.1845	250642	keystroke	d	n/a
125.4575	0.112	250915	keystroke	e	n/a
125.6735	0.136	251347	keystroke	c	n/a
125.8575	0.104	251715	keystroke	i	n/a
125.9535	0.144	251907	keystroke	d	n/a
126.1215	0.136	252243	keystroke	e	n/a
126.4965	0.096	252993	keystroke	Key.space	n/a
126.9215	0.128	253843	keystroke	t	n/a
127.1535	0.176	254307	keystroke	r	n/a
127.2815	0.16	254563	keystroke	a	n/a
127.4175	0.112	254835	keystroke	m	n/a
127.6575	0.152	255315	keystroke	a	n/a
127.9695	0.136	255939	keystroke	d	n/a
128.1455	0.088	256291	keystroke	o	n/a
128.3535	0.08	256707	keystroke	l	n/a
128.5845	0.088	257169	keystroke	Key.space	n/a
128.8895	0.104	257779	keystroke	s	n/a
129.0735	0.088	258147	keystroke	t	n/a
129.2495	0.128	258499	keystroke	r	n/a
129.3935	0.176	258787	keystroke	i	n/a
129.5215	0.12	259043	keystroke	n	n/a
129.6485	0.129	259297	keystroke	g	n/a
129.8085	0.088	259617	keystroke	Key.space	n/a
130.1375	0.119	260275	keystroke	e	n/a
130.3135	0.176	260627	keystroke	q	n/a
130.5045	0.097	261009	keystroke	u	n/a
131.0895	0.079	262179	keystroke	Key.backspace	n/a
131.2565	0.08	262513	keystroke	Key.backspace	n/a
131.4165	0.104	262833	keystroke	Key.backspace	n/a
131.6495	0.152	263299	keystroke	q	n/a
131.8085	0.113	263617	keystroke	u	n/a
131.9695	0.088	263939	keystroke	e	n/a
132.1445	0.153	264289	keystroke	e	n/a
132.2735	0.087	264547	keystroke	n	n/a
132.5855	0.143	265171	keystroke	s	n/a
132.7855	0.088	265571	keystroke	l	n/a
132.8815	0.1505	265763	keystroke	a	n/a
133.033	0.0805	266066	keystroke	n	n/a
133.0815	0.1435	266163	keystroke	d	n/a
133.304	0.112	266608	keystroke	Key.enter	n/a
133.4205	9.4285	266841	prompt	n/a	alleged expired templates harrison\n
134.1215	0.136	268243	keystroke	a	n/a
134.2815	0.064	268563	keystroke	l	n/a
134.425	0.12	268850	keystroke	l	n/a
134.536	0.1605	269072	keystroke	e	n/a
134.7455	0.183	269491	keystroke	g	n/a
134.8415	0.159	269683	keystroke	e	n/a
135.5775	0.152	271155	keystroke	d	n/a
135.7845	0.0795	271569	keystroke	Key.space	n/a
136.024	0.0965	272048	keystroke	e	n/a
136.2655	0.096	272531	keystroke	x	n/a
136.3775	0.072	272755	keystroke	p	n/a
136.4895	0.143	272979	keystroke	e	n/a
136.8085	0.088	273617	keystroke	i	n/a
137.2005	0.072	274401	keystroke	Key.backspace	n/a
137.3525	0.088	274705	keystroke	Key.backspace	n/a
137.6015	0.087	275203	keystroke	i	n/a
137.6815	0.12	275363	keystroke	r	n/a
137.7605	0.088	275521	keystroke	e	n/a
137.9455	0.112	275891	keystroke	d	n/a
138.1285	0.0715	276257	keystroke	Key.space	n/a
138.449	0.151	276898	keystroke	t	n/a
138.521	0.168	277042	keystroke	e	n/a
138.592	0.112	277184	keystroke	m	n/a
138.777	0.096	277554	keystroke	p	n/a
138.977	0.112	277954	keystroke	l	n/a
139.096	0.128	278192	keystroke	a	n/a
139.273	0.151	278546	keystroke	t	n/a
139.552	0.184	279104	keystroke	r	n/a
139.673	0.127	279346	keystroke	e	n/a
139.937	0.1185	279874	keystroke	s	n/a
140.1595	0.072	280319	keystroke	Key.backspace	n/a
140.3115	0.072	280623	keystroke	Key.backspace	n/a
140.4635	0.088	280927	keystroke	Key.backspace	n/a
140.5595	0.08	281119	keystroke	e	n/a
140.7275	0.161	281455	keystroke	s	n/a
141.0155	0.088	282031	keystroke	Key.space	n/a
141.2555	0.097	282511	keystroke	h	n/a
141.3765	0.143	282753	keystroke	a	n/a
141.5205	0.095	283041	keystroke	r	n/a
141.696	0.1435	283392	keystroke	r	n/a
141.9115	0.113	283823	keystroke	i	n/a
142.3355	0.16	284671	keystroke	s	n/a
142.4555	0.129	284911	keystroke	o	n/a
142.5275	0.104	285055	keystroke	n	n/a
142.7355	0.112	285471	keystroke	Key.enter	n/a
142.8545	9.0925	285709	prompt	n/a	revenge retirement funded edwards\n
143.415	0.1205	286830	keystroke	r	n/a
143.4955	0.12	286991	keystroke	e	n/a
143.6875	0.1845	287375	keystroke	v	n/a
143.7675	0.176	287535	keystroke	e	n/a
143.895	0.1285	287790	keystroke	n	n/a
144.152	0.167	288304	keystroke	g	n/a
144.255	0.185	288510	keystroke	e	n/a
144.447	0.0965	288894	keystroke	Key.space	n/a
144.6805	0.1515	289361	keystroke	r	n/a
144.776	0.135	289552	keystroke	e	n/a
144.935	0.1205	289870	keystroke	t	n/a
145.1595	0.144	290319	keystroke	r	n/a
145.2315	0.128	290463	keystroke	i	n/a
145.7525	0.12	291505	keystroke	e	n/a
145.9765	0.071	291953	keystroke	m	n/a
146.0805	0.143	292161	keystroke	e	n/a
146.2155	0.097	292431	keystroke	n	n/a
146.2875	0.152	292575	keystroke	t	n/a
147.359	0.08	294718	keystroke	Key.backspace	n/a
147.743	0.0955	295486	keystroke	Key.backspace	n/a
148.0935	0.0695	296187	keystroke	i	n/a
148.3665	0.1605	296733	keystroke	r	n/a
148.47	0.16	296940	keystroke	e	n/a
148.7905	0.072	297581	keystroke	m	n/a
148.9345	0.144	297869	keystroke	e	n/a
149.0465	0.096	298093	keystroke	n	n/a
149.1505	0.1205	298301	keystroke	t	n/a
149.279	0.056	298558	keystroke	Key.space	n/a
149.7025	0.1365	299405	keystroke	f	n/a
149.824	0.119	299648	keystroke	u	n/a
149.959	0.1275	299918	keystroke	n	n/a
150.0385	0.193	300077	keystroke	d	n/a
150.1825	0.224	300365	keystroke	e	n/a
150.3825	0.1515	300765	keystroke	d	n/a
150.542	0.1115	301084	keystroke	Key.space	n/a
150.791	0.1265	301582	keystroke	e	n/a
150.9975	0.1315	301995	keystroke	d	n/a
151.2165	0.209	302433	keystroke	w	n/a
151.33	0.1515	302660	keystroke	a	n/a
151.4575	0.1035	302915	keystroke	r	n/a
151.665	0.1835	303330	keystroke	d	n/a
151.745	0.1695	303490	keystroke	s	n/a
151.8495	0.096	303699	keystroke	Key.enter	n/a
151.9495	7.421	303899	prompt	n/a	computed abortion bull outlined\n
152.8185	0.167	305637	keystroke	c	n/a
152.9135	0.184	305827	keystroke	o	n/a
153.0185	0.128	306037	keystroke	m	n/a
153.2415	0.136	306483	keystroke	p	n/a
153.5695	0.128	307139	keystroke	u	n/a
153.7375	0.128	307475	keystroke	t	n/a
153.8265	0.135	307653	keystroke	e	n/a
154.7695	0.145	309539	keystroke	d	n/a
154.9375	0.088	309875	keystroke	Key.space	n/a
155.609	0.1605	311218	keystroke	a	n/a
155.7525	0.1115	311505	keystroke	b	n/a
155.872	0.193	311744	keystroke	o	n/a
156.057	0.0955	312114	keystroke	r	n/a
156.2725	0.1685	312545	keystroke	t	n/a
156.369	0.216	312738	keystroke	i	n/a
156.465	0.128	312930	keystroke	o	n/a
156.529	0.112	313058	keystroke	n	n/a
156.745	0.096	313490	keystroke	Key.space	n/a
156.985	0.16	313970	keystroke	b	n/a
157.001	0.152	314002	keystroke	u	n/a
157.4325	0.1045	314865	keystroke	l	n/a
157.602	0.0955	315204	keystroke	l	n/a
157.8965	0.08	315793	keystroke	Key.space	n/a
158.281	0.241	316562	keystroke	o	n/a
158.433	0.112	316866	keystroke	u	n/a
158.585	0.112	317170	keystroke	t	n/a
158.673	0.208	317346	keystroke	l	n/a
158.793	0.16	317586	keystroke	i	n/a
158.905	0.128	317810	keystroke	n	n/a
158.985	0.104	317970	keystroke	e	n/a
159.193	0.112	318386	keystroke	d	n/a
159.265	0.104	318530	keystroke	Key.enter	n/a
159.373	7.357	318746	prompt	n/a	global determined hollow involvement\n
160.129	0.1355	320258	keystroke	g	n/a
160.233	0.0635	320466	keystroke	l	n/a
160.4165	0.08	320833	keystroke	o	n/a
160.6405	0.096	321281	keystroke	b	n/a
160.7765	0.1595	321553	keystroke	a	n/a
160.9125	0.0635	321825	keystroke	l	n/a
161.128	0.0885	322256	keystroke	Key.space	n/a
161.456	0.136	322912	keystroke	d	n/a
161.544	0.128	323088	keystroke	e	n/a
161.7365	0.136	323473	keystroke	t	n/a
161.8485	0.176	323697	keystroke	e	n/a
161.9765	0.128	323953	keystroke	r	n/a
162.0645	0.096	324129	keystroke	m	n/a
162.2085	0.136	324417	keystroke	i	n/a
162.3045	0.136	324609	keystroke	n	n/a
162.4005	0.096	324801	keystroke	e	n/a
162.5925	0.128	325185	keystroke	d	n/a
162.7215	0.095	325443	keystroke	Key.space	n/a
163.0405	0.16	326081	keystroke	h	n/a
163.1285	0.12	326257	keystroke	o	n/a
163.3605	0.072	326721	keystroke	l	n/a
163.5045	0.088	327009	keystroke	l	n/a
163.704	0.0965	327408	keystroke	o	n/a
163.8485	0.144	327697	keystroke	w	n/a
164.0885	0.088	328177	keystroke	Key.space	n/a
164.4485	0.192	328897	keystroke	i	n/a
164.5925	0.128	329185	keystroke	n	n/a
164.7605	0.145	329521	keystroke	v	n/a
164.9205	0.112	329841	keystroke	o	n/a
165.3925	0.0955	330785	keystroke	l	n/a
165.8475	0.1205	331695	keystroke	v	n/a
166.032	0.1275	332064	keystroke	e	n/a
166.2155	0.089	332431	keystroke	m	n/a
166.3115	0.136	332623	keystroke	e	n/a
166.4395	0.0725	332879	keystroke	n	n/a
166.536	0.096	333072	keystroke	t	n/a
166.632	0.096	333264	keystroke	Key.enter	n/a
166.7325	6.958	333465	prompt	n/a	careful events algebra seeds\n
167.424	0.16	334848	keystroke	c	n/a
167.544	0.216	335088	keystroke	a	n/a
167.744	0.168	335488	keystroke	r	n/a
167.84	0.144	335680	keystroke	e	n/a
168.056	0.1685	336112	keystroke	f	n/a
168.1685	0.088	336337	keystroke	u	n/a
168.3365	0.088	336673	keystroke	l	n/a
168.5685	0.08	337137	keystroke	Key.space	n/a
168.7045	0.104	337409	keystroke	e	n/a
168.8885	0.168	337777	keystroke	v	n/a
168.9925	0.16	337985	keystroke	e	n/a
169.0885	0.104	338177	keystroke	n	n/a
169.3045	0.08	338609	keystroke	t	n/a
169.3525	0.152	338705	keystroke	s	n/a
169.5365	0.088	339073	keystroke	Key.space	n/a
169.7205	0.16	339441	keystroke	a	n/a
169.8485	0.1045	339697	keystroke	l	n/a
170.361	0.136	340722	keystroke	g	n/a
170.457	0.08	340914	keystroke	e	n/a
170.7125	0.1445	341425	keystroke	b	n/a
170.825	0.2395	341650	keystroke	r	n/a
170.9685	0.208	341937	keystroke	a	n/a
171.4645	0.112	342929	keystroke	Key.backspace	n/a
172.0245	0.136	344049	keystroke	a	n/a
172.2165	0.096	344433	keystroke	Key.space	n/a
172.5365	0.096	345073	keystroke	s	n/a
172.7605	0.24	345521	keystroke	e	n/a
173.1205	0.128	346241	keystroke	e	n/a
173.3765	0.2	346753	keystroke	d	n/a
173.4725	0.176	346945	keystroke	s	n/a
173.5925	0.096	347185	keystroke	Key.enter	n/a
173.696	7.2425	347392	prompt	n/a	coated wondering marathon windsor\n
174.4005	0.1605	348801	keystroke	c	n/a
174.705	0.1115	349410	keystroke	o	n/a
174.8965	0.137	349793	keystroke	a	n/a
175.1935	0.2	350387	keystroke	t	n/a
175.345	0.1045	350690	keystroke	e	n/a
175.5455	0.12	351091	keystroke	d	n/a
175.6415	0.08	351283	keystroke	Key.space	n/a
175.7775	0.136	351555	keystroke	w	n/a
175.9055	0.144	351811	keystroke	o	n/a
175.9615	0.168	351923	keystroke	n	n/a
176.0415	0.136	352083	keystroke	d	n/a
176.1615	0.184	352323	keystroke	e	n/a
176.2895	0.136	352579	keystroke	r	n/a
176.3935	0.136	352787	keystroke	i	n/a
176.4735	0.12	352947	keystroke	n	n/a
176.5775	0.128	353155	keystroke	g	n/a
176.6975	0.096	353395	keystroke	Key.space	n/a
177.0335	0.128	354067	keystroke	m	n/a
177.1775	0.16	354355	keystroke	a	n/a
177.6495	0.208	355299	keystroke	r	n/a
177.8175	0.144	355635	keystroke	a	n/a
178.1615	0.176	356323	keystroke	t	n/a
178.2495	0.112	356499	keystroke	h	n/a
178.3455	0.152	356691	keystroke	o	n/a
178.4975	0.088	356995	keystroke	n	n/a
178.6975	0.088	357395	keystroke	Key.space	n/a
178.9055	0.176	357811	keystroke	w	n/a
178.9295	0.384	357859	keystroke	i	n/a
179.2815	0.208	358563	keystroke	n	n/a
179.7695	0.152	359539	keystroke	d	n/a
180.337	0.128	360674	keystroke	s	n/a
180.449	0.104	360898	keystroke	o	n/a
180.6495	0.136	361299	keystroke	r	n/a
180.8335	0.1035	361667	keystroke	Key.enter	n/a
180.9415	5.725	361883	prompt	n/a	takes pointed text block\n
181.657	0.144	363314	keystroke	t	n/a
181.729	0.136	363458	keystroke	a	n/a
181.833	0.096	363666	keystroke	k	n/a
181.913	0.096	363826	keystroke	e	n/a
182.145	0.096	364290	keystroke	s	n/a
182.265	0.096	364530	keystroke	Key.space	n/a
182.585	0.08	365170	keystroke	p	n/a
182.8655	0.208	365731	keystroke	o	n/a
182.9215	0.216	365843	keystroke	i	n/a
183.0815	0.152	366163	keystroke	n	n/a
183.2095	0.144	366419	keystroke	t	n/a
183.3135	0.104	366627	keystroke	e	n/a
183.5375	0.112	367075	keystroke	d	n/a
183.6575	0.072	367315	keystroke	Key.space	n/a
183.9215	0.16	367843	keystroke	t	n/a
183.9775	0.144	367955	keystroke	e	n/a
184.2655	0.064	368531	keystroke	x	n/a
184.4495	0.128	368899	keystroke	t	n/a
184.7935	0.088	369587	keystroke	Key.space	n/a
185.0015	0.136	370003	keystroke	b	n/a
185.0815	0.112	370163	keystroke	o	n/a
185.6175	0.072	371235	keystroke	Key.backspace	n/a
185.8895	0.088	371779	keystroke	l	n/a
186.0975	0.104	372195	keystroke	o	n/a
186.2255	0.144	372451	keystroke	c	n/a
186.3295	0.08	372659	keystroke	k	n/a
186.5695	0.096	373139	keystroke	Key.enter	n/a
186.67	5.8925	373340	prompt	n/a	closed seem epinions laws\n
187.2975	0.176	374595	keystroke	c	n/a
187.3775	0.088	374755	keystroke	l	n/a
187.5855	0.104	375171	keystroke	o	n/a
187.6575	0.088	375315	keystroke	s	n/a
187.8575	0.08	375715	keystroke	e	n/a
188.0575	0.0885	376115	keystroke	d	n/a
188.1375	0.08	376275	keystroke	Key.space	n/a
188.4815	0.08	376963	keystroke	s	n/a
188.6815	0.08	377363	keystroke	e	n/a
188.8495	0.136	377699	keystroke	e	n/a
189.0095	0.088	378019	keystroke	m	n/a
189.2095	0.08	378419	keystroke	Key.space	n/a
190.018	0.16	380036	keystroke	e	n/a
190.274	0.104	380548	keystroke	p	n/a
190.618	0.144	381236	keystroke	i	n/a
190.786	0.136	381572	keystroke	n	n/a
191.066	0.28	382132	keystroke	i	n/a
191.194	0.168	382388	keystroke	o	n/a
191.282	0.16	382564	keystroke	n	n/a
191.482	0.152	382964	keystroke	s	n/a
191.666	0.08	383332	keystroke	Key.space	n/a
191.858	0.128	383716	keystroke	l	n/a
192.034	0.192	384068	keystroke	a	n/a
192.178	0.104	384356	keystroke	w	n/a
192.394	0.136	384788	keystroke	s	n/a
192.474	0.088	384948	keystroke	Key.enter	n/a
192.5655	5.1415	385131	prompt	n/a	right appeal poland storage\n
193.17	0.112	386340	keystroke	r	n/a
193.274	0.088	386548	keystroke	i	n/a
193.394	0.096	386788	keystroke	g	n/a
193.482	0.088	386964	keystroke	h	n/a
193.602	0.104	387204	keystroke	t	n/a
193.722	0.088	387444	keystroke	Key.space	n/a
193.962	0.184	387924	keystroke	a	n/a
194.106	0.08	388212	keystroke	p	n/a
194.266	0.112	388532	keystroke	p	n/a
194.426	0.256	388852	keystroke	e	n/a
194.546	0.184	389092	keystroke	a	n/a
194.762	0.08	389524	keystroke	l	n/a
195.01	0.08	390020	keystroke	Key.space	n/a
195.322	0.128	390644	keystroke	p	n/a
195.586	0.096	391172	keystroke	o	n/a
195.826	0.112	391652	keystroke	l	n/a
195.986	0.16	391972	keystroke	a	n/a
196.114	0.104	392228	keystroke	n	n/a
196.25	0.152	392500	keystroke	d	n/a
196.41	0.088	392820	keystroke	Key.space	n/a
196.562	0.12	393124	keystroke	s	n/a
196.778	0.12	393556	keystroke	t	n/a
196.962	0.096	393924	keystroke	o	n/a
197.202	0.128	394404	keystroke	r	n/a
197.282	0.104	394564	keystroke	a	n/a
197.442	0.16	394884	keystroke	g	n/a
197.514	0.16	395028	keystroke	e	n/a
197.634	0.072	395268	keystroke	Key.enter	n/a
197.7095	7.694	395419	prompt	n/a	muslim promo adopted swiss\n
198.346	0.096	396692	keystroke	m	n/a
198.57	0.112	397140	keystroke	u	n/a
198.9785	0.1595	397957	keystroke	s	n/a
199.2825	0.232	398565	keystroke	l	n/a
199.4105	0.12	398821	keystroke	i	n/a
199.6985	0.128	399397	keystroke	m	n/a
199.9465	0.0955	399893	keystroke	Key.space	n/a
200.1625	0.104	400325	keystroke	p	n/a
200.2905	0.152	400581	keystroke	r	n/a
200.4185	0.1115	400837	keystroke	o	n/a
200.6425	0.2	401285	keystroke	m	n/a
200.7865	0.12	401573	keystroke	o	n/a
201.0425	0.104	402085	keystroke	Key.space	n/a
201.2105	0.152	402421	keystroke	a	n/a
201.3705	0.168	402741	keystroke	d	n/a
201.5465	0.104	403093	keystroke	p	n/a
202.3385	0.04	404677	keystroke	Key.backspace	n/a
203.3385	0.088	406677	keystroke	o	n/a
203.4905	0.112	406981	keystroke	p	n/a
203.7385	0.168	407477	keystroke	t	n/a
203.8585	0.112	407717	keystroke	e	n/a
204.0905	0.12	408181	keystroke	d	n/a
204.1785	0.112	408357	keystroke	Key.space	n/a
204.4025	0.136	408805	keystroke	s	n/a
204.6345	0.16	409269	keystroke	w	n/a
204.8025	0.112	409605	keystroke	i	n/a
205.0265	0.08	410053	keystroke	s	n/a
205.1945	0.144	410389	keystroke	s	n/a
205.3145	0.088	410629	keystroke	Key.enter	n/a
205.406	5.549	410812	prompt	n/a	lenders vector mambo album\n
206.0265	0.112	412053	keystroke	l	n/a
206.1305	0.128	412261	keystroke	e	n/a
206.2665	0.096	412533	keystroke	n	n/a
206.3705	0.152	412741	keystroke	d	n/a
206.4825	0.168	412965	keystroke	e	n/a
206.6105	0.192	413221	keystroke	r	n/a
206.8025	0.144	413605	keystroke	s	n/a
206.9545	0.104	413909	keystroke	Key.space	n/a
207.1465	0.208	414293	keystroke	v	n/a
207.2905	0.144	414581	keystroke	e	n/a
207.6585	0.112	415317	keystroke	c	n/a
207.9065	0.112	415813	keystroke	t	n/a
208.0345	0.128	416069	keystroke	o	n/a
208.1705	0.144	416341	keystroke	r	n/a
208.3305	0.088	416661	keystroke	Key.space	n/a
208.5945	0.112	417189	keystroke	m	n/a
208.7625	0.184	417525	keystroke	a	n/a
208.8745	0.096	417749	keystroke	n	n/a
209.1865	0.144	418373	keystroke	b	n/a
209.2745	0.144	418549	keystroke	o	n/a
209.6745	0.072	419349	keystroke	Key.space	n/a
209.8585	0.184	419717	keystroke	a	n/a
210.0185	0.096	420037	keystroke	l	n/a
210.2265	0.112	420453	keystroke	b	n/a
210.3705	0.1355	420741	keystroke	u	n/a
210.618	0.128	421236	keystroke	m	n/a
210.874	0.08	421748	keystroke	Key.enter	n/a
210.9575	8.39	421915	prompt	n/a	soul logo edited sheffield\n
211.602	0.208	423204	keystroke	s	n/a
211.706	0.224	423412	keystroke	o	n/a
211.794	0.112	423588	keystroke	u	n/a
212.194	0.096	424388	keystroke	Key.space	n/a
213.186	0.08	426372	keystroke	Key.backspace	n/a
213.45	0.088	426900	keystroke	l	n/a
213.682	0.056	427364	keystroke	Key.space	n/a
213.89	0.096	427780	keystroke	l	n/a
214.1065	0.0715	428213	keystroke	o	n/a
214.274	0.152	428548	keystroke	g	n/a
214.354	0.064	428708	keystroke	o	n/a
214.5545	0.0875	429109	keystroke	Key.space	n/a
214.746	0.136	429492	keystroke	e	n/a
214.994	0.1285	429988	keystroke	d	n/a
215.0985	0.1115	430197	keystroke	i	n/a
215.33	0.1365	430660	keystroke	t	n/a
215.4105	0.12	430821	keystroke	e	n/a
215.6505	0.104	431301	keystroke	d	n/a
215.7465	0.096	431493	keystroke	Key.space	n/a
215.9385	0.12	431877	keystroke	s	n/a
216.0665	0.112	432133	keystroke	h	n/a
216.1865	0.16	432373	keystroke	e	n/a
216.5145	0.104	433029	keystroke	l	n/a
217.0745	0.096	434149	keystroke	Key.backspace	n/a
217.9545	0.072	435909	keystroke	f	n/a
218.1225	0.12	436245	keystroke	f	n/a
218.2825	0.12	436565	keystroke	i	n/a
218.4665	0.168	436933	keystroke	e	n/a
218.7385	0.088	437477	keystroke	l	n/a
218.9225	0.144	437845	keystroke	d	n/a
219.2505	0.096	438501	keystroke	Key.enter	n/a
219.352	8.1475	438704	prompt	n/a	diesel belt chocolate recommended\n
220.2185	0.136	440437	keystroke	d	n/a
220.3865	0.112	440773	keystroke	i	n/a
220.8745	0.144	441749	keystroke	e	n/a
221.3305	0.096	442661	keystroke	s	n/a
221.5465	0.168	443093	keystroke	e	n/a
221.6985	0.088	443397	keystroke	l	n/a
221.9305	0.072	443861	keystroke	Key.space	n/a
222.1385	0.112	444277	keystroke	b	n/a
222.2665	0.184	444533	keystroke	e	n/a
222.4425	0.072	444885	keystroke	l	n/a
223.2825	0.152	446565	keystroke	t	n/a
223.4745	0.088	446949	keystroke	Key.space	n/a
223.8905	0.152	447781	keystroke	c	n/a
224.0025	0.104	448005	keystroke	h	n/a
224.0825	0.12	448165	keystroke	o	n/a
224.2745	0.16	448549	keystroke	c	n/a
224.3945	0.096	448789	keystroke	o	n/a
224.6265	0.112	449253	keystroke	l	n/a
224.7625	0.128	449525	keystroke	a	n/a
224.9545	0.16	449909	keystroke	t	n/a
225.0425	0.168	450085	keystroke	e	n/a
225.1785	0.104	450357	keystroke	Key.space	n/a
225.4585	0.16	450917	keystroke	r	n/a
225.5465	0.136	451093	keystroke	e	n/a
225.8105	0.176	451621	keystroke	c	n/a
225.9145	0.128	451829	keystroke	o	n/a
226.1225	0.096	452245	keystroke	m	n/a
226.2985	0.12	452597	keystroke	m	n/a
226.4585	0.168	452917	keystroke	e	n/a
226.5865	0.12	453173	keystroke	n	n/a
226.8905	0.16	453781	keystroke	d	n/a
227.0345	0.192	454069	keystroke	e	n/a
227.1945	0.16	454389	keystroke	d	n/a
227.3945	0.104	454789	keystroke	Key.enter	n/a
227.5025	8.7175	455005	prompt	n/a	inches recordings motors specification\n
228.1225	0.136	456245	keystroke	i	n/a
228.2265	0.096	456453	keystroke	n	n/a
228.3145	0.184	456629	keystroke	c	n/a
228.4665	0.12	456933	keystroke	h	n/a
228.6185	0.088	457237	keystroke	e	n/a
228.8505	0.152	457701	keystroke	s	n/a
229.1065	0.088	458213	keystroke	Key.space	n/a
229.3945	0.168	458789	keystroke	r	n/a
229.4985	0.12	458997	keystroke	e	n/a
229.7305	0.144	459461	keystroke	c	n/a
229.8425	0.112	459685	keystroke	o	n/a
230.0025	0.088	460005	keystroke	r	n/a
230.2105	0.128	460421	keystroke	d	n/a
230.3225	0.144	460645	keystroke	i	n/a
230.4185	0.136	460837	keystroke	n	n/a
230.5305	0.0965	461061	keystroke	g	n/a
230.7385	0.136	461477	keystroke	s	n/a
231.0345	0.088	462069	keystroke	Key.space	n/a
231.2425	0.144	462485	keystroke	m	n/a
231.3305	0.144	462661	keystroke	o	n/a
231.4505	0.144	462901	keystroke	t	n/a
231.6585	0.096	463317	keystroke	o	n/a
231.8425	0.208	463685	keystroke	r	n/a
232.0105	0.152	464021	keystroke	s	n/a
232.4505	0.096	464901	keystroke	Key.space	n/a
232.5785	0.144	465157	keystroke	s	n/a
232.8025	0.12	465605	keystroke	p	n/a
232.9545	0.128	465909	keystroke	e	n/a
233.2425	0.16	466485	keystroke	c	n/a
233.3865	0.088	466773	keystroke	i	n/a
234.8905	0.152	469781	keystroke	f	n/a
235.0185	0.112	470037	keystroke	i	n/a
235.2505	0.16	470501	keystroke	c	n/a
235.3785	0.112	470757	keystroke	a	n/a
235.5945	0.128	471189	keystroke	t	n/a
235.6505	0.232	471301	keystroke	i	n/a
235.7065	0.168	471413	keystroke	o	n/a
235.7705	0.176	471541	keystroke	n	n/a
236.1305	0.088	472261	keystroke	Key.enter	n/a
236.222	12.8855	472444	prompt	n/a	would've prairie suspension african\n
236.8665	0.168	473733	keystroke	w	n/a
236.9225	0.216	473845	keystroke	o	n/a
237.0265	0.096	474053	keystroke	u	n/a
237.2345	0.096	474469	keystroke	l	n/a
237.3145	0.128	474629	keystroke	d	n/a
237.5385	0.136	475077	keystroke	'	n/a
238.0825	0.192	476165	keystroke	v	n/a
238.1945	0.184	476389	keystroke	e	n/a
238.4025	0.096	476805	keystroke	Key.space	n/a
238.7865	0.128	477573	keystroke	p	n/a
238.9785	0.168	477957	keystroke	r	n/a
239.9865	0.216	479973	keystroke	a	n/a
240.1865	0.096	480373	keystroke	i	n/a
241.6985	0.128	483397	keystroke	r	n/a
241.8745	0.112	483749	keystroke	i	n/a
241.9865	0.096	483973	keystroke	e	n/a
242.2185	0.12	484437	keystroke	s	n/a
242.4505	0.12	484901	keystroke	Key.space	n/a
243.2105	0.08	486421	keystroke	Key.backspace	n/a
243.3545	0.088	486709	keystroke	Key.backspace	n/a
243.5945	0.088	487189	keystroke	Key.space	n/a
243.8345	0.152	487669	keystroke	s	n/a
243.9305	0.08	487861	keystroke	u	n/a
244.0825	0.152	488165	keystroke	s	n/a
244.3145	0.088	488629	keystroke	p	n/a
244.5385	0.144	489077	keystroke	e	n/a
244.6825	0.088	489365	keystroke	n	n/a
245.8665	0.2	491733	keystroke	s	n/a
245.9705	0.248	491941	keystroke	i	n/a
246.0665	0.16	492133	keystroke	o	n/a
246.1705	0.128	492341	keystroke	n	n/a
246.4105	0.096	492821	keystroke	Key.space	n/a
246.6025	0.136	493205	keystroke	a	n/a
246.7545	0.112	493509	keystroke	f	n/a
246.9625	0.168	493925	keystroke	r	n/a
247.0745	0.176	494149	keystroke	a	n/a
247.3625	0.12	494725	keystroke	i	n/a
247.9145	0.064	495829	keystroke	Key.backspace	n/a
248.0665	0.088	496133	keystroke	Key.backspace	n/a
248.2905	0.096	496581	keystroke	i	n/a
248.4905	0.192	496981	keystroke	c	n/a
248.5945	0.176	497189	keystroke	a	n/a
248.7385	0.088	497477	keystroke	n	n/a
249.0265	0.08	498053	keystroke	Key.enter	n/a
249.11	7.126	498220	prompt	n/a	accomplished condo rescue performed\n
249.8905	0.128	499781	keystroke	a	n/a
250.0745	0.096	500149	keystroke	c	n/a
250.2425	0.136	500485	keystroke	c	n/a
250.3145	0.184	500629	keystroke	o	n/a
250.4265	0.128	500853	keystroke	m	n/a
250.6345	0.088	501269	keystroke	p	n/a
250.8345	0.272	501669	keystroke	l	n/a
250.9945	0.144	501989	keystroke	i	n/a
251.2505	0.16	502501	keystroke	s	n/a
251.3705	0.128	502741	keystroke	h	n/a
251.5865	0.088	503173	keystroke	e	n/a
251.7785	0.104	503557	keystroke	d	n/a
251.9065	0.088	503813	keystroke	Key.space	n/a
252.0985	0.152	504197	keystroke	c	n/a
252.1865	0.16	504373	keystroke	o	n/a
252.2985	0.128	504597	keystroke	n	n/a
252.4905	0.16	504981	keystroke	d	n/a
252.6025	0.096	505205	keystroke	o	n/a
252.8585	0.088	505717	keystroke	Key.space	n/a
253.1945	0.176	506389	keystroke	r	n/a
253.2905	0.12	506581	keystroke	e	n/a
253.5465	0.112	507093	keystroke	s	n/a
253.8425	0.144	507685	keystroke	c	n/a
254.0265	0.112	508053	keystroke	u	n/a
254.5305	0.152	509061	keystroke	e	n/a
254.7945	0.072	509589	keystroke	Key.space	n/a
255.0025	0.112	510005	keystroke	p	n/a
255.1145	0.144	510229	keystroke	e	n/a
255.1945	0.104	510389	keystroke	r	n/a
255.4025	0.088	510805	keystroke	f	n/a
255.4825	0.112	510965	keystroke	o	n/a
255.6105	0.12	511221	keystroke	r	n/a
255.7385	0.12	511477	keystroke	m	n/a
255.8425	0.112	511685	keystroke	e	n/a
256.0505	0.104	512101	keystroke	d	n/a
256.1385	0.096	512277	keystroke	Key.enter	n/a
256.2385	10.19	512477	prompt	n/a	assumptions divided lighter classical\n
256.8265	0.136	513653	keystroke	s	n/a
257.2745	0.056	514549	keystroke	Key.backspace	n/a
257.4025	0.128	514805	keystroke	a	n/a
257.6105	0.088	515221	keystroke	s	n/a
257.7785	0.152	515557	keystroke	s	n/a
257.8745	0.096	515749	keystroke	u	n/a
258.0745	0.12	516149	keystroke	m	n/a
258.2425	0.12	516485	keystroke	p	n/a
258.4985	0.096	516997	keystroke	l	n/a
259.1785	0.08	518357	keystroke	Key.backspace	n/a
260.5865	0.144	521173	keystroke	t	n/a
260.6585	0.208	521317	keystroke	i	n/a
260.7385	0.136	521477	keystroke	o	n/a
260.7865	0.144	521573	keystroke	n	n/a
260.9145	0.144	521829	keystroke	s	n/a
261.0665	0.096	522133	keystroke	Key.space	n/a
261.3065	0.128	522613	keystroke	d	n/a
261.4185	0.088	522837	keystroke	i	n/a
261.6425	0.144	523285	keystroke	v	n/a
261.7625	0.096	523525	keystroke	i	n/a
261.9945	0.184	523989	keystroke	d	n/a
262.1225	0.176	524245	keystroke	e	n/a
262.8265	0.152	525653	keystroke	d	n/a
263.035	0.072	526070	keystroke	Key.space	n/a
263.5305	0.1125	527061	keystroke	l	n/a
263.7705	0.08	527541	keystroke	i	n/a
263.8905	0.12	527781	keystroke	g	n/a
264.0025	0.104	528005	keystroke	h	n/a
264.1385	0.184	528277	keystroke	t	n/a
264.2585	0.3045	528517	keystroke	e	n/a
264.443	0.144	528886	keystroke	r	n/a
264.7785	0.08	529557	keystroke	Key.space	n/a
265.019	0.168	530038	keystroke	c	n/a
265.123	0.1115	530246	keystroke	l	n/a
265.195	0.1675	530390	keystroke	a	n/a
265.3705	0.088	530741	keystroke	s	n/a
265.555	0.128	531110	keystroke	s	n/a
265.707	0.096	531414	keystroke	i	n/a
265.843	0.184	531686	keystroke	c	n/a
265.931	0.176	531862	keystroke	a	n/a
266.067	0.088	532134	keystroke	l	n/a
266.331	0.096	532662	keystroke	Key.enter	n/a
266.431	5.885	532862	prompt	n/a	allocated mostly howard payday\n
267.027	0.1595	534054	keystroke	a	n/a
267.1945	0.0645	534389	keystroke	l	n/a
267.347	0.08	534694	keystroke	l	n/a
267.547	0.096	535094	keystroke	o	n/a
267.731	0.168	535462	keystroke	c	n/a
267.835	0.136	535670	keystroke	a	n/a
268.099	0.136	536198	keystroke	t	n/a
268.187	0.104	536374	keystroke	e	n/a
268.403	0.12	536806	keystroke	d	n/a
268.483	0.08	536966	keystroke	Key.space	n/a
268.707	0.16	537414	keystroke	m	n/a
268.811	0.152	537622	keystroke	o	n/a
268.947	0.104	537894	keystroke	s	n/a
269.131	0.136	538262	keystroke	t	n/a
269.307	0.104	538614	keystroke	l	n/a
269.4505	0.144	538901	keystroke	y	n/a
269.779	0.104	539558	keystroke	Key.space	n/a
270.059	0.16	540118	keystroke	h	n/a
270.147	0.16	540294	keystroke	o	n/a
270.243	0.288	540486	keystroke	w	n/a
270.419	0.184	540838	keystroke	a	n/a
270.595	0.112	541190	keystroke	r	n/a
270.827	0.168	541654	keystroke	d	n/a
270.939	0.088	541878	keystroke	Key.space	n/a
271.155	0.16	542310	keystroke	p	n/a
271.251	0.104	542502	keystroke	a	n/a
271.451	0.12	542902	keystroke	y	n/a
271.7465	0.152	543493	keystroke	d	n/a
271.8505	0.136	543701	keystroke	a	n/a
272.0985	0.1205	544197	keystroke	y	n/a
272.235	0.08	544470	keystroke	Key.enter	n/a
272.3185	5.933	544637	prompt	n/a	manager behalf institute shadow\n
272.915	0.104	545830	keystroke	m	n/a
273.027	0.112	546054	keystroke	a	n/a
273.155	0.08	546310	keystroke	n	n/a
273.243	0.096	546486	keystroke	a	n/a
273.403	0.144	546806	keystroke	g	n/a
273.491	0.192	546982	keystroke	e	n/a
273.667	0.152	547334	keystroke	r	n/a
273.819	0.088	547638	keystroke	Key.space	n/a
274.171	0.104	548342	keystroke	b	n/a
274.283	0.12	548566	keystroke	e	n/a
274.467	0.096	548934	keystroke	h	n/a
274.611	0.16	549222	keystroke	a	n/a
274.715	0.072	549430	keystroke	l	n/a
274.939	0.08	549878	keystroke	Key.space	n/a
275.203	0.144	550406	keystroke	i	n/a
275.307	0.128	550614	keystroke	n	n/a
275.459	0.104	550918	keystroke	s	n/a
275.6585	0.136	551317	keystroke	t	n/a
275.7945	0.096	551589	keystroke	u	n/a
275.9785	0.152	551957	keystroke	t	n/a
276.3145	0.128	552629	keystroke	u	n/a
276.5065	0.168	553013	keystroke	t	n/a
276.5945	0.168	553189	keystroke	e	n/a
276.8345	0.08	553669	keystroke	Key.space	n/a
277.0505	0.2	554101	keystroke	s	n/a
277.2265	0.104	554453	keystroke	h	n/a
277.2985	0.16	554597	keystroke	a	n/a
277.5625	0.224	555125	keystroke	d	n/a
277.8585	0.112	555717	keystroke	o	n/a
277.9865	0.16	555973	keystroke	w	n/a
278.171	0.0795	556342	keystroke	Key.enter	n/a
278.254	6.9815	556508	prompt	n/a	donate structures levels mime\n
278.7865	0.1605	557573	keystroke	d	n/a
278.9225	0.144	557845	keystroke	o	n/a
279.0425	0.1125	558085	keystroke	n	n/a
279.1625	0.128	558325	keystroke	a	n/a
279.3705	0.152	558741	keystroke	t	n/a
279.6185	0.168	559237	keystroke	e	n/a
279.8905	0.088	559781	keystroke	Key.space	n/a
280.0425	0.128	560085	keystroke	s	n/a
280.2345	0.088	560469	keystroke	t	n/a
280.3785	0.168	560757	keystroke	r	n/a
280.5145	0.104	561029	keystroke	u	n/a
280.7945	0.104	561589	keystroke	c	n/a
281.8505	0.104	563701	keystroke	t	n/a
281.9865	0.08	563973	keystroke	u	n/a
282.0665	0.152	564133	keystroke	r	n/a
282.1545	0.104	564309	keystroke	e	n/a
282.3785	0.144	564757	keystroke	s	n/a
282.4825	0.08	564965	keystroke	Key.space	n/a
282.6745	0.128	565349	keystroke	l	n/a
282.7625	0.128	565525	keystroke	e	n/a
282.9385	0.176	565877	keystroke	v	n/a
283.0345	0.144	566069	keystroke	e	n/a
283.1545	0.088	566309	keystroke	l	n/a
283.3225	0.128	566645	keystroke	s	n/a
283.4585	0.096	566917	keystroke	Key.space	n/a
283.7945	0.064	567589	keystroke	s	n/a
284.1545	0.056	568309	keystroke	Key.backspace	n/a
284.3625	0.192	568725	keystroke	m	n/a
284.5385	0.176	569077	keystroke	i	n/a
284.8265	0.144	569653	keystroke	m	n/a
284.9785	0.112	569957	keystroke	e	n/a
285.1225	0.112	570245	keystroke	Key.enter	n/a
285.238	4.652	570476	prompt	n/a	help allen investors lived\n
285.842	0.112	571684	keystroke	h	n/a
285.986	0.16	571972	keystroke	e	n/a
286.066	0.096	572132	keystroke	l	n/a
286.25	0.08	572500	keystroke	p	n/a
286.506	0.088	573012	keystroke	Key.space	n/a
286.666	0.16	573332	keystroke	a	n/a
286.802	0.072	573604	keystroke	l	n/a
286.9455	0.088	573891	keystroke	l	n/a
287.0895	0.144	574179	keystroke	e	n/a
287.3535	0.088	574707	keystroke	n	n/a
287.6175	0.072	575235	keystroke	Key.space	n/a
287.8015	0.128	575603	keystroke	i	n/a
287.8815	0.12	575763	keystroke	n	n/a
287.9695	0.168	575939	keystroke	v	n/a
288.0495	0.136	576099	keystroke	e	n/a
288.2095	0.096	576419	keystroke	n	n/a
288.3535	0.112	576707	keystroke	s	n/a
288.6255	0.112	577251	keystroke	t	n/a
288.7375	0.096	577475	keystroke	o	n/a
288.8735	0.152	577747	keystroke	r	n/a
288.9455	0.16	577891	keystroke	s	n/a
289.1135	0.072	578227	keystroke	Key.space	n/a
289.2735	0.232	578547	keystroke	l	n/a
289.3935	0.12	578787	keystroke	i	n/a
289.449	0.152	578898	keystroke	v	n/a
289.537	0.12	579074	keystroke	e	n/a
289.7925	0.096	579585	keystroke	Key.enter	n/a
289.8925	6.718	579785	prompt	n/a	desert flour tags plenty\n
290.569	0.1755	581138	keystroke	d	n/a
290.697	0.0555	581394	keystroke	e	n/a
290.8645	0.104	581729	keystroke	s	n/a
291.065	0.144	582130	keystroke	e	n/a
291.153	0.128	582306	keystroke	r	n/a
291.369	0.128	582738	keystroke	t	n/a
291.537	0.096	583074	keystroke	Key.space	n/a
291.777	0.16	583554	keystroke	f	n/a
291.889	0.088	583778	keystroke	l	n/a
292.089	0.248	584178	keystroke	o	n/a
292.225	0.168	584450	keystroke	u	n/a
292.401	0.136	584802	keystroke	r	n/a
292.761	0.112	585522	keystroke	Key.space	n/a
292.953	0.144	585906	keystroke	t	n/a
293.065	0.12	586130	keystroke	a	n/a
293.233	0.192	586466	keystroke	g	n/a
293.377	0.168	586754	keystroke	e	n/a
293.713	0.144	587426	keystroke	s	n/a
294.577	0.072	589154	keystroke	Key.backspace	n/a
294.737	0.088	589474	keystroke	Key.backspace	n/a
294.881	0.136	589762	keystroke	s	n/a
295.049	0.112	590098	keystroke	Key.space	n/a
295.5445	0.1045	591089	keystroke	p	n/a
295.7605	0.104	591521	keystroke	l	n/a
295.8965	0.136	591793	keystroke	e	n/a
296.0325	0.104	592065	keystroke	n	n/a
296.1365	0.1045	592273	keystroke	t	n/a
296.345	0.136	592690	keystroke	y	n/a
296.505	0.104	593010	keystroke	Key.enter	n/a
296.615	6.691	593230	prompt	n/a	showers halloween vault closer\n
297.289	0.168	594578	keystroke	s	n/a
297.425	0.152	594850	keystroke	h	n/a
297.537	0.128	595074	keystroke	o	n/a
297.633	0.096	595266	keystroke	w	n/a
297.849	0.1595	595698	keystroke	e	n/a
297.9605	0.1445	595921	keystroke	r	n/a
298.3365	0.128	596673	keystroke	s	n/a
298.5205	0.096	597041	keystroke	Key.space	n/a
298.8805	0.104	597761	keystroke	h	n/a
299.0085	0.136	598017	keystroke	a	n/a
299.1365	0.096	598273	keystroke	l	n/a
299.2885	0.104	598577	keystroke	l	n/a
299.5765	0.12	599153	keystroke	o	n/a
300.0085	0.088	600017	keystroke	w	n/a
300.2245	0.096	600449	keystroke	e	n/a
300.4245	0.128	600849	keystroke	e	n/a
300.5445	0.064	601089	keystroke	n	n/a
300.7365	0.104	601473	keystroke	Key.space	n/a
300.9045	0.176	601809	keystroke	v	n/a
301.0245	0.192	602049	keystroke	a	n/a
301.2485	0.12	602497	keystroke	u	n/a
301.4725	0.112	602945	keystroke	l	n/a
301.7285	0.16	603457	keystroke	t	n/a
301.9285	0.096	603857	keystroke	Key.space	n/a
302.4245	0.16	604849	keystroke	c	n/a
302.5125	0.08	605025	keystroke	l	n/a
302.6965	0.128	605393	keystroke	o	n/a
302.7845	0.08	605569	keystroke	s	n/a
303.0005	0.168	606001	keystroke	e	n/a
303.1285	0.128	606257	keystroke	r	n/a
303.2165	0.088	606433	keystroke	Key.enter	n/a
303.3085	9.3015	606617	prompt	n/a	thursday protective architect personalized\n
304.1365	0.152	608273	keystroke	t	n/a
304.2485	0.152	608497	keystroke	h	n/a
304.3285	0.16	608657	keystroke	u	n/a
304.4165	0.144	608833	keystroke	r	n/a
304.7765	0.128	609553	keystroke	s	n/a
305.2565	0.128	610513	keystroke	d	n/a
305.3445	0.128	610689	keystroke	a	n/a
305.6005	0.12	611201	keystroke	y	n/a
305.7285	0.08	611457	keystroke	Key.space	n/a
305.945	0.1195	611890	keystroke	p	n/a
306.0725	0.128	612145	keystroke	r	n/a
306.1925	0.096	612385	keystroke	o	n/a
306.3125	0.144	612625	keystroke	t	n/a
306.3925	0.128	612785	keystroke	e	n/a
307.0325	0.128	614065	keystroke	c	n/a
307.3605	0.104	614721	keystroke	t	n/a
307.5205	0.112	615041	keystroke	i	n/a
307.6485	0.136	615297	keystroke	v	n/a
307.7525	0.128	615505	keystroke	e	n/a
307.8725	0.096	615745	keystroke	Key.space	n/a
308.0405	0.136	616081	keystroke	a	n/a
308.2165	0.1205	616433	keystroke	r	n/a
308.8405	0.144	617681	keystroke	c	n/a
308.9685	0.112	617937	keystroke	h	n/a
309.3925	0.12	618785	keystroke	i	n/a
309.7205	0.168	619441	keystroke	t	n/a
309.8325	0.192	619665	keystroke	e	n/a
310.1845	0.104	620369	keystroke	c	n/a
310.4805	0.136	620961	keystroke	t	n/a
310.5845	0.072	621169	keystroke	Key.space	n/a
310.7925	0.144	621585	keystroke	p	n/a
310.8645	0.16	621729	keystroke	e	n/a
310.9765	0.136	621953	keystroke	r	n/a
311.2085	0.1605	622417	keystroke	s	n/a
311.2965	0.1445	622593	keystroke	o	n/a
311.385	0.1515	622770	keystroke	n	n/a
311.5285	0.136	623057	keystroke	a	n/a
311.6485	0.088	623297	keystroke	l	n/a
311.9285	0.16	623857	keystroke	i	n/a
312.0485	0.136	624097	keystroke	z	n/a
312.1845	0.112	624369	keystroke	e	n/a
312.4165	0.12	624833	keystroke	d	n/a
312.5205	0.088	625041	keystroke	Key.enter	n/a
312.6125	7.5095	625225	prompt	n/a	mountain singh daisy intranet\n
313.2885	0.136	626577	keystroke	m	n/a
313.4085	0.24	626817	keystroke	o	n/a
313.5685	0.152	627137	keystroke	u	n/a
313.6885	0.12	627377	keystroke	n	n/a
313.8325	0.176	627665	keystroke	t	n/a
313.9445	0.216	627889	keystroke	a	n/a
314.0245	0.168	628049	keystroke	i	n/a
314.1365	0.104	628273	keystroke	n	n/a
314.3205	0.112	628641	keystroke	Key.space	n/a
314.4565	0.176	628913	keystroke	s	n/a
314.6245	0.136	629249	keystroke	i	n/a
314.8965	0.152	629793	keystroke	g	n/a
315.2005	0.096	630401	keystroke	n	n/a
315.6165	0.056	631233	keystroke	Key.backspace	n/a
315.7605	0.088	631521	keystroke	Key.backspace	n/a
315.9925	0.104	631985	keystroke	n	n/a
316.1125	0.144	632225	keystroke	g	n/a
316.9685	0.088	633937	keystroke	h	n/a
317.2085	0.104	634417	keystroke	Key.space	n/a
317.3925	0.16	634785	keystroke	d	n/a
317.4805	0.184	634961	keystroke	a	n/a
317.6085	0.12	635217	keystroke	i	n/a
317.8885	0.128	635777	keystroke	s	n/a
318.4165	0.12	636833	keystroke	y	n/a
318.6165	0.104	637233	keystroke	Key.space	n/a
318.8565	0.136	637713	keystroke	i	n/a
318.9365	0.144	637873	keystroke	n	n/a
319.0245	0.096	638049	keystroke	t	n/a
319.2245	0.16	638449	keystroke	r	n/a
319.3125	0.168	638625	keystroke	a	n/a
319.4965	0.104	638993	keystroke	n	n/a
319.6805	0.168	639361	keystroke	e	n/a
319.8565	0.184	639713	keystroke	t	n/a
320.0405	0.0795	640081	keystroke	Key.enter	n/a
320.1245	7.7895	640249	prompt	n/a	answered ciao edward horses\n
320.7685	0.144	641537	keystroke	a	n/a
320.9045	0.112	641809	keystroke	n	n/a
321.0405	0.104	642081	keystroke	s	n/a
321.2565	0.072	642513	keystroke	w	n/a
321.4485	0.168	642897	keystroke	e	n/a
321.5365	0.136	643073	keystroke	r	n/a
321.7365	0.128	643473	keystroke	e	n/a
321.9605	0.144	643921	keystroke	d	n/a
322.0965	0.096	644193	keystroke	Key.space	n/a
322.3925	0.184	644785	keystroke	c	n/a
322.5525	0.104	645105	keystroke	i	n/a
322.6485	0.184	645297	keystroke	a	n/a
323.1445	0.104	646289	keystroke	o	n/a
323.44	0.0965	646880	keystroke	Key.space	n/a
323.7605	0.112	647521	keystroke	e	n/a
323.9605	0.12	647921	keystroke	d	n/a
324.1285	0.2	648257	keystroke	w	n/a
324.2485	0.152	648497	keystroke	a	n/a
324.3925	0.12	648785	keystroke	r	n/a
324.8085	0.152	649617	keystroke	d	n/a
325.4085	0.104	650817	keystroke	Key.space	n/a
325.6565	0.184	651313	keystroke	h	n/a
325.7445	0.176	651489	keystroke	o	n/a
325.8325	0.216	651665	keystroke	r	n/a
325.9285	0.152	651857	keystroke	s	n/a
327.4085	0.096	654817	keystroke	e	n/a
327.6485	0.144	655297	keystroke	s	n/a
327.8165	0.096	655633	keystroke	Key.enter	n/a
327.9165	5.541	655833	prompt	n/a	breeding volume opposition one\n
328.5445	0.112	657089	keystroke	b	n/a
328.6485	0.168	657297	keystroke	r	n/a
328.7365	0.128	657473	keystroke	e	n/a
328.9445	0.136	657889	keystroke	e	n/a
329.1685	0.128	658337	keystroke	d	n/a
329.2885	0.168	658577	keystroke	i	n/a
329.4005	0.136	658801	keystroke	n	n/a
329.5045	0.152	659009	keystroke	g	n/a
329.6325	0.096	659265	keystroke	Key.space	n/a
329.9365	0.152	659873	keystroke	v	n/a
330.0325	0.072	660065	keystroke	o	n/a
330.2085	0.248	660417	keystroke	l	n/a
330.3765	0.112	660753	keystroke	u	n/a
330.5925	0.152	661185	keystroke	m	n/a
330.7365	0.16	661473	keystroke	e	n/a
330.8645	0.088	661729	keystroke	Key.space	n/a
331.0805	0.104	662161	keystroke	o	n/a
331.3125	0.072	662625	keystroke	p	n/a
331.4645	0.088	662929	keystroke	p	n/a
331.6805	0.104	663361	keystroke	o	n/a
332.2165	0.144	664433	keystroke	s	n/a
332.3445	0.072	664689	keystroke	i	n/a
332.4885	0.16	664977	keystroke	t	n/a
332.5685	0.232	665137	keystroke	i	n/a
332.6565	0.136	665313	keystroke	o	n/a
332.7205	0.112	665441	keystroke	n	n/a
332.9045	0.096	665809	keystroke	Key.space	n/a
333.0805	0.136	666161	keystroke	o	n/a
333.1125	0.152	666225	keystroke	n	n/a
333.2245	0.144	666449	keystroke	e	n/a
333.3605	0.096	666721	keystroke	Key.enter	n/a
333.4605	8.029	666921	prompt	n/a	prominent transmission heat configurations\n
334.0805	0.12	668161	keystroke	p	n/a
334.2805	0.152	668561	keystroke	r	n/a
334.3925	0.112	668785	keystroke	i	n/a
334.8725	0.064	669745	keystroke	Key.backspace	n/a
335.1205	0.104	670241	keystroke	o	n/a
335.3445	0.136	670689	keystroke	m	n/a
335.5525	0.144	671105	keystroke	i	n/a
335.6645	0.144	671329	keystroke	n	n/a
335.8485	0.136	671697	keystroke	e	n/a
335.9925	0.08	671985	keystroke	n	n/a
336.1685	0.144	672337	keystroke	t	n/a
336.3045	0.112	672609	keystroke	Key.space	n/a
336.4885	0.1115	672977	keystroke	t	n/a
336.68	0.168	673360	keystroke	r	n/a
336.768	0.192	673536	keystroke	a	n/a
336.904	0.112	673808	keystroke	n	n/a
337.064	0.144	674128	keystroke	s	n/a
337.248	0.144	674496	keystroke	m	n/a
337.424	0.12	674848	keystroke	i	n/a
337.656	0.064	675312	keystroke	s	n/a
337.824	0.144	675648	keystroke	s	n/a
337.904	0.24	675808	keystroke	i	n/a
338.008	0.16	676016	keystroke	o	n/a
338.072	0.12	676144	keystroke	n	n/a
338.296	0.08	676592	keystroke	Key.space	n/a
338.488	0.12	676976	keystroke	h	n/a
338.56	0.232	677120	keystroke	e	n/a
338.648	0.128	677296	keystroke	a	n/a
338.76	0.192	677520	keystroke	t	n/a
338.88	0.08	677760	keystroke	h	n/a
339.088	0.072	678176	keystroke	Key.space	n/a
339.32	0.152	678640	keystroke	c	n/a
339.392	0.144	678784	keystroke	o	n/a
339.472	0.112	678944	keystroke	n	n/a
339.608	0.144	679216	keystroke	f	n/a
339.736	0.088	679472	keystroke	i	n/a
339.944	0.112	679888	keystroke	g	n/a
340.072	0.096	680144	keystroke	u	n/a
340.192	0.192	680384	keystroke	r	n/a
340.328	0.16	680656	keystroke	a	n/a
340.536	0.168	681072	keystroke	t	n/a
340.728	0.296	681456	keystroke	i	n/a
340.832	0.184	681664	keystroke	o	n/a
340.928	0.152	681856	keystroke	n	n/a
341.304	0.088	682608	keystroke	s	n/a
341.416	0.072	682832	keystroke	Key.enter	n/a
341.492	5.125	682984	prompt	n/a	nine fetish humans south\n
342.272	0.0875	684544	keystroke	n	n/a
342.3595	0.16	684719	keystroke	i	n/a
342.4795	0.1125	684959	keystroke	n	n/a
342.528	0.144	685056	keystroke	e	n/a
342.768	0.088	685536	keystroke	Key.space	n/a
343.1435	0.136	686287	keystroke	f	n/a
343.2475	0.12	686495	keystroke	e	n/a
343.4315	0.1525	686863	keystroke	t	n/a
343.768	0.128	687536	keystroke	i	n/a
344.3675	0.168	688735	keystroke	s	n/a
344.4715	0.072	688943	keystroke	h	n/a
344.6715	0.072	689343	keystroke	Key.space	n/a
344.8635	0.144	689727	keystroke	h	n/a
344.9355	0.136	689871	keystroke	u	n/a
345.1755	0.104	690351	keystroke	m	n/a
345.3195	0.128	690639	keystroke	a	n/a
345.4075	0.08	690815	keystroke	n	n/a
345.5595	0.144	691119	keystroke	s	n/a
345.6555	0.088	691311	keystroke	Key.space	n/a
345.8075	0.168	691615	keystroke	s	n/a
345.9195	0.232	691839	keystroke	o	n/a
346.0315	0.144	692063	keystroke	u	n/a
346.1835	0.12	692367	keystroke	t	n/a
346.2955	0.088	692591	keystroke	h	n/a
346.5115	0.104	693023	keystroke	Key.enter	n/a
346.6195	7.2535	693239	prompt	n/a	government provide expenditure kernel\n
347.64	0.1515	695280	keystroke	g	n/a
347.7995	0.096	695599	keystroke	o	n/a
347.9595	0.112	695919	keystroke	v	n/a
348.0395	0.184	696079	keystroke	e	n/a
348.2315	0.16	696463	keystroke	r	n/a
348.3355	0.08	696671	keystroke	n	n/a
348.5115	0.0875	697023	keystroke	m	n/a
348.591	0.144	697182	keystroke	e	n/a
348.727	0.0885	697454	keystroke	n	n/a
348.791	0.1365	697582	keystroke	t	n/a
348.9355	0.08	697871	keystroke	Key.space	n/a
349.1755	0.112	698351	keystroke	p	n/a
349.3115	0.136	698623	keystroke	r	n/a
349.3995	0.12	698799	keystroke	o	n/a
349.7355	0.12	699471	keystroke	v	n/a
349.8475	0.088	699695	keystroke	i	n/a
349.9995	0.176	699999	keystroke	d	n/a
350.1115	0.16	700223	keystroke	e	n/a
350.4795	0.088	700959	keystroke	Key.space	n/a
350.9755	0.072	701951	keystroke	e	n/a
351.1835	0.08	702367	keystroke	x	n/a
351.2715	0.088	702543	keystroke	p	n/a
351.3835	0.096	702767	keystroke	e	n/a
351.5195	0.08	703039	keystroke	n	n/a
351.6235	0.128	703247	keystroke	d	n/a
351.7755	0.088	703551	keystroke	i	n/a
351.9915	0.12	703983	keystroke	t	n/a
352.1115	0.08	704223	keystroke	u	n/a
352.2075	0.176	704415	keystroke	r	n/a
352.3115	0.144	704623	keystroke	e	n/a
352.4635	0.072	704927	keystroke	Key.space	n/a
352.9355	0.112	705871	keystroke	k	n/a
353.0715	0.184	706143	keystroke	e	n/a
353.1915	0.144	706383	keystroke	r	n/a
353.3435	0.072	706687	keystroke	n	n/a
353.4235	0.16	706847	keystroke	e	n/a
353.5515	0.08	707103	keystroke	l	n/a
353.7915	0.08	707583	keystroke	Key.enter	n/a
353.8765	8.172	707753	prompt	n/a	engine freebsd deployment jeep\n
354.5755	0.144	709151	keystroke	e	n/a
354.6875	0.096	709375	keystroke	n	n/a
354.8395	0.168	709679	keystroke	g	n/a
355.0075	0.144	710015	keystroke	i	n/a
355.1195	0.136	710239	keystroke	n	n/a
355.2635	0.144	710527	keystroke	e	n/a
355.4155	0.104	710831	keystroke	Key.space	n/a
355.6235	0.128	711247	keystroke	f	n/a
355.8475	0.144	711695	keystroke	r	n/a
355.9435	0.112	711887	keystroke	e	n/a
356.1355	0.144	712271	keystroke	e	n/a
356.687	0.096	713374	keystroke	b	n/a
356.823	0.136	713646	keystroke	s	n/a
357.023	0.1285	714046	keystroke	d	n/a
357.3515	0.1525	714703	keystroke	d	n/a
357.823	0.072	715646	keystroke	Key.backspace	n/a
358.087	0.104	716174	keystroke	Key.space	n/a
358.272	0.176	716544	keystroke	d	n/a
358.432	0.168	716864	keystroke	e	n/a
358.68	0.088	717360	keystroke	p	n/a
358.887	0.073	717774	keystroke	l	n/a
359.08	0.104	718160	keystroke	o	n/a
359.376	0.112	718752	keystroke	y	n/a
359.488	0.088	718976	keystroke	m	n/a
359.592	0.143	719184	keystroke	e	n/a
359.712	0.072	719424	keystroke	n	n/a
359.792	0.152	719584	keystroke	t	n/a
359.912	0.079	719824	keystroke	Key.space	n/a
360.264	0.112	720528	keystroke	j	n/a
360.408	0.104	720816	keystroke	e	n/a
360.576	0.152	721152	keystroke	e	n/a
360.648	0.096	721296	keystroke	p	n/a
360.863	0.081	721726	keystroke	Key.space	n/a
361.671	0.096	723342	keystroke	Key.backspace	n/a
361.927	0.12	723854	keystroke	Key.enter	n/a
362.051	8.638	724102	prompt	n/a	tuesday argue innovations chelsea\n
362.888	0.128	725776	keystroke	t	n/a
363.016	0.111	726032	keystroke	u	n/a
363.712	0.072	727424	keystroke	e	n/a
363.912	0.112	727824	keystroke	s	n/a
364.144	0.136	728288	keystroke	d	n/a
364.232	0.135	728464	keystroke	a	n/a
364.488	0.08	728976	keystroke	y	n/a
364.591	0.096	729182	keystroke	Key.space	n/a
364.832	0.143	729664	keystroke	a	n/a
364.951	0.129	729902	keystroke	r	n/a
365.191	0.137	730382	keystroke	g	n/a
365.255	0.128	730510	keystroke	u	n/a
365.431	0.145	730862	keystroke	e	n/a
365.583	0.072	731166	keystroke	Key.space	n/a
365.864	0.176	731728	keystroke	i	n/a
366.031	0.112	732062	keystroke	n	n/a
366.223	0.097	732446	keystroke	n	n/a
366.376	0.12	732752	keystroke	o	n/a
366.559	0.112	733118	keystroke	v	n/a
366.743	0.136	733486	keystroke	a	n/a
367.023	0.136	734046	keystroke	t	n/a
367.096	0.184	734192	keystroke	i	n/a
367.151	0.137	734302	keystroke	o	n/a
367.223	0.113	734446	keystroke	n	n/a
367.423	0.104	734846	keystroke	Key.space	n/a
367.623	0.152	735246	keystroke	c	n/a
367.712	0.104	735424	keystroke	h	n/a
367.831	0.144	735662	keystroke	e	n/a
368.024	0.072	736048	keystroke	l	n/a
368.175	0.184	736350	keystroke	s	n/a
368.304	0.128	736608	keystroke	a	n/a
368.528	0.144	737056	keystroke	e	n/a
368.871	0.08	737742	keystroke	Key.backspace	n/a
369.039	0.096	738078	keystroke	Key.backspace	n/a
369.424	0.032	738848	keystroke	e	n/a
369.935	0.097	739870	keystroke	s	n/a
370.351	0.064	740702	keystroke	Key.backspace	n/a
370.472	0.128	740944	keystroke	a	n/a
370.608	0.079	741216	keystroke	Key.enter	n/a
370.692	6.5725	741384	prompt	n/a	perception rock indexed opened\n
371.344	0.12	742688	keystroke	p	n/a
371.416	0.176	742832	keystroke	e	n/a
371.512	0.135	743024	keystroke	r	n/a
371.935	0.201	743870	keystroke	c	n/a
372.024	0.192	744048	keystroke	e	n/a
372.168	0.071	744336	keystroke	p	n/a
372.416	0.151	744832	keystroke	t	n/a
372.463	0.249	744926	keystroke	i	n/a
372.544	0.168	745088	keystroke	o	n/a
372.663	0.129	745326	keystroke	n	n/a
372.967	0.104	745934	keystroke	Key.space	n/a
373.376	0.136	746752	keystroke	r	n/a
373.504	0.104	747008	keystroke	o	n/a
373.664	0.175	747328	keystroke	c	n/a
373.8	0.104	747600	keystroke	k	n/a
374.071	0.096	748142	keystroke	Key.space	n/a
374.327	0.152	748654	keystroke	i	n/a
374.423	0.128	748846	keystroke	n	n/a
374.559	0.2	749118	keystroke	d	n/a
374.664	0.176	749328	keystroke	e	n/a
375.191	0.072	750382	keystroke	x	n/a
375.383	0.08	750766	keystroke	e	n/a
375.591	0.104	751182	keystroke	d	n/a
375.743	0.08	751486	keystroke	Key.space	n/a
375.967	0.104	751934	keystroke	o	n/a
376.168	0.103	752336	keystroke	p	n/a
376.392	0.159	752784	keystroke	e	n/a
376.416	0.096	752832	keystroke	n	n/a
376.888	0.071	753776	keystroke	e	n/a
377.071	0.104	754142	keystroke	d	n/a
377.183	0.08	754366	keystroke	Key.enter	n/a
377.2695	7.2355	754539	prompt	n/a	folders herein manually catherine\n
377.912	0.151	755824	keystroke	f	n/a
378.016	0.079	756032	keystroke	o	n/a
378.207	0.089	756414	keystroke	l	n/a
378.296	0.135	756592	keystroke	d	n/a
378.408	0.159	756816	keystroke	e	n/a
378.535	0.185	757070	keystroke	r	n/a
378.695	0.16	757390	keystroke	s	n/a
378.895	0.08	757790	keystroke	Key.space	n/a
379.12	0.111	758240	keystroke	h	n/a
379.247	0.201	758494	keystroke	e	n/a
379.367	0.192	758734	keystroke	r	n/a
379.551	0.112	759102	keystroke	i	n/a
379.784	0.159	759568	keystroke	e	n/a
379.951	0.088	759902	keystroke	n	n/a
380.191	0.112	760382	keystroke	Key.space	n/a
380.479	0.088	760958	keystroke	m	n/a
380.639	0.16	761278	keystroke	a	n/a
380.727	0.089	761454	keystroke	n	n/a
380.967	0.12	761934	keystroke	u	n/a
381.135	0.144	762270	keystroke	a	n/a
381.247	0.064	762494	keystroke	l	n/a
381.392	0.096	762784	keystroke	l	n/a
381.751	0.176	763502	keystroke	y	n/a
381.9995	0.096	763999	keystroke	Key.space	n/a
382.3355	0.176	764671	keystroke	c	n/a
382.4635	0.152	764927	keystroke	a	n/a
382.6635	0.168	765327	keystroke	t	n/a
382.7835	0.112	765567	keystroke	h	n/a
382.8715	0.192	765743	keystroke	e	n/a
382.9755	0.176	765951	keystroke	r	n/a
383.8875	0.176	767775	keystroke	i	n/a
383.9995	0.104	767999	keystroke	n	n/a
384.0795	0.152	768159	keystroke	e	n/a
384.4075	0.096	768815	keystroke	Key.enter	n/a
384.5085	9.3485	769017	prompt	n/a	protocol surfaces vbulletin maximum\n
385.1675	0.096	770335	keystroke	p	n/a
385.2795	0.128	770559	keystroke	r	n/a
385.4155	0.072	770831	keystroke	o	n/a
385.5515	0.136	771103	keystroke	t	n/a
385.6875	0.072	771375	keystroke	o	n/a
385.9115	0.168	771823	keystroke	c	n/a
386.1515	0.08	772303	keystroke	o	n/a
386.3675	0.072	772735	keystroke	l	n/a
386.5915	0.08	773183	keystroke	Key.space	n/a
386.9115	0.128	773823	keystroke	s	n/a
387.0395	0.088	774079	keystroke	u	n/a
387.1355	0.152	774271	keystroke	r	n/a
387.6555	0.152	775311	keystroke	f	n/a
387.7675	0.152	775535	keystroke	a	n/a
387.9355	0.176	775871	keystroke	c	n/a
388.0635	0.112	776127	keystroke	e	n/a
388.3115	0.112	776623	keystroke	s	n/a
388.5835	0.088	777167	keystroke	Key.space	n/a
388.8235	0.152	777647	keystroke	v	n/a
389.1595	0.12	778319	keystroke	b	n/a
389.2395	0.144	778479	keystroke	u	n/a
389.5275	0.072	779055	keystroke	l	n/a
389.6875	0.096	779375	keystroke	l	n/a
389.7995	0.16	779599	keystroke	e	n/a
390.2475	0.104	780495	keystroke	n	n/a
390.6235	0.088	781247	keystroke	Key.backspace	n/a
390.8475	0.152	781695	keystroke	t	n/a
390.9355	0.176	781871	keystroke	i	n/a
391.0635	0.096	782127	keystroke	n	n/a
391.2795	0.072	782559	keystroke	Key.space	n/a
391.4715	0.104	782943	keystroke	m	n/a
391.6395	0.168	783279	keystroke	a	n/a
392.3115	0.144	784623	keystroke	x	n/a
392.9195	0.088	785839	keystroke	i	n/a
393.0955	0.112	786191	keystroke	m	n/a
393.3355	0.088	786671	keystroke	u	n/a
393.5275	0.104	787055	keystroke	m	n/a
393.7675	0.088	787535	keystroke	Key.enter	n/a
393.86	5.4975	787720	prompt	n/a	charleston harrison emily dining\n
394.575	0.168	789150	keystroke	c	n/a
394.695	0.096	789390	keystroke	h	n/a
394.775	0.144	789550	keystroke	a	n/a
394.943	0.136	789886	keystroke	r	n/a
395.119	0.088	790238	keystroke	l	n/a
395.215	0.08	790430	keystroke	e	n/a
395.431	0.088	790862	keystroke	s	n/a
395.679	0.144	791358	keystroke	t	n/a
395.799	0.128	791598	keystroke	o	n/a
395.895	0.104	791790	keystroke	n	n/a
396.151	0.08	792302	keystroke	Key.space	n/a
396.408	0.095	792816	keystroke	h	n/a
396.551	0.176	793102	keystroke	a	n/a
396.695	0.136	793390	keystroke	r	n/a
396.975	0.136	793950	keystroke	r	n/a
397.199	0.096	794398	keystroke	i	n/a
397.447	0.176	794894	keystroke	s	n/a
397.575	0.12	795150	keystroke	o	n/a
397.647	0.096	795294	keystroke	n	n/a
397.8465	0.096	795693	keystroke	Key.space	n/a
398.1895	0.1685	796379	keystroke	e	n/a
398.317	0.0865	796634	keystroke	m	n/a
398.482	0.0635	796964	keystroke	i	n/a
398.6165	0.044	797233	keystroke	l	n/a
398.6995	0.0605	797399	keystroke	y	n/a
398.816	0.0225	797632	keystroke	Key.space	n/a
398.868	0.071	797736	keystroke	d	n/a
398.868	0.0855	797736	keystroke	i	n/a
398.946	0.0715	797892	keystroke	n	n/a
399.0915	0.0965	798183	keystroke	i	n/a
399.1325	0.0875	798265	keystroke	n	n/a
399.204	0.0835	798408	keystroke	g	n/a
399.2995	0.056	798599	keystroke	Key.enter	n/a
399.3605	5.535	798721	prompt	n/a	screening preceding nationally wish\n
399.8805	0.0645	799761	keystroke	s	n/a
400.056	0.0765	800112	keystroke	c	n/a
400.252	0.1435	800504	keystroke	r	n/a
400.34	0.145	800680	keystroke	e	n/a
400.581	0.1435	801162	keystroke	e	n/a
400.78	0.096	801560	keystroke	n	n/a
400.997	0.144	801994	keystroke	i	n/a
401.077	0.112	802154	keystroke	n	n/a
401.165	0.12	802330	keystroke	g	n/a
401.286	0.079	802572	keystroke	Key.space	n/a
401.509	0.12	803018	keystroke	p	n/a
401.573	0.16	803146	keystroke	r	n/a
401.661	0.1365	803322	keystroke	e	n/a
401.9175	0.1835	803835	keystroke	c	n/a
401.997	0.2085	803994	keystroke	e	n/a
402.3815	0.1595	804763	keystroke	d	n/a
402.533	0.1445	805066	keystroke	i	n/a
402.637	0.1045	805274	keystroke	n	n/a
402.7255	0.144	805451	keystroke	g	n/a
402.8615	0.072	805723	keystroke	Key.space	n/a
403.053	0.12	806106	keystroke	n	n/a
403.157	0.0965	806314	keystroke	a	n/a
403.3495	0.1195	806699	keystroke	t	n/a
403.3735	0.216	806747	keystroke	i	n/a
403.4455	0.1355	806891	keystroke	o	n/a
403.477	0.1525	806954	keystroke	n	n/a
403.6055	0.12	807211	keystroke	a	n/a
403.7655	0.056	807531	keystroke	l	n/a
403.9015	0.0875	807803	keystroke	l	n/a
404.013	0.1045	808026	keystroke	y	n/a
404.1335	0.096	808267	keystroke	Key.space	n/a
404.3015	0.12	808603	keystroke	w	n/a
404.3975	0.0795	808795	keystroke	i	n/a
404.541	0.1365	809082	keystroke	s	n/a
404.5975	0.081	809195	keystroke	h	n/a
404.8135	0.08	809627	keystroke	Key.enter	n/a
404.8995	6.722	809799	prompt	n/a	ease threads educational dialogue\n
405.5015	0.128	811003	keystroke	e	n/a
405.6935	0.184	811387	keystroke	a	n/a
405.7905	0.127	811581	keystroke	s	n/a
406.0295	0.136	812059	keystroke	e	n/a
406.1895	0.096	812379	keystroke	Key.space	n/a
406.7495	0.096	813499	keystroke	t	n/a
406.8855	0.104	813771	keystroke	h	n/a
406.9495	0.145	813899	keystroke	r	n/a
407.0295	0.136	814059	keystroke	e	n/a
407.2215	0.16	814443	keystroke	a	n/a
407.3905	0.167	814781	keystroke	d	n/a
407.5255	0.176	815051	keystroke	s	n/a
407.9335	0.104	815867	keystroke	Key.space	n/a
408.581	0.0955	817162	keystroke	e	n/a
408.7325	0.1275	817465	keystroke	d	n/a
408.828	0.072	817656	keystroke	u	n/a
408.9555	0.1135	817911	keystroke	c	n/a
409.0035	0.1535	818007	keystroke	a	n/a
409.2925	0.112	818585	keystroke	t	n/a
409.3565	0.2315	818713	keystroke	i	n/a
409.4205	0.1595	818841	keystroke	o	n/a
409.492	0.137	818984	keystroke	n	n/a
409.693	0.152	819386	keystroke	a	n/a
409.861	0.096	819722	keystroke	l	n/a
410.1005	0.0885	820201	keystroke	Key.space	n/a
410.3485	0.128	820697	keystroke	d	n/a
410.4525	0.0885	820905	keystroke	i	n/a
410.565	0.152	821130	keystroke	a	n/a
410.741	0.08	821482	keystroke	l	n/a
410.9405	0.088	821881	keystroke	o	n/a
411.0765	0.12	822153	keystroke	g	n/a
411.2365	0.088	822473	keystroke	u	n/a
411.3165	0.12	822633	keystroke	e	n/a
411.5485	0.0715	823097	keystroke	Key.enter	n/a
411.625	5.093	823250	prompt	n/a	alert entered maria automated\n
412.3725	0.12	824745	keystroke	a	n/a
412.4935	0.103	824987	keystroke	l	n/a
412.5965	0.176	825193	keystroke	e	n/a
412.7485	0.128	825497	keystroke	r	n/a
412.9725	0.136	825945	keystroke	t	n/a
413.1325	0.088	826265	keystroke	Key.space	n/a
413.3165	0.136	826633	keystroke	e	n/a
413.4125	0.104	826825	keystroke	n	n/a
413.5325	0.128	827065	keystroke	t	n/a
413.6285	0.176	827257	keystroke	e	n/a
413.7565	0.192	827513	keystroke	r	n/a
413.9165	0.128	827833	keystroke	e	n/a
414.1325	0.144	828265	keystroke	d	n/a
414.2605	0.088	828521	keystroke	Key.space	n/a
414.4525	0.136	828905	keystroke	m	n/a
414.5405	0.144	829081	keystroke	a	n/a
414.6765	0.137	829353	keystroke	r	n/a
414.7965	0.096	829593	keystroke	i	n/a
414.9085	0.168	829817	keystroke	a	n/a
415.0605	0.08	830121	keystroke	Key.space	n/a
415.2925	0.136	830585	keystroke	a	n/a
415.4365	0.112	830873	keystroke	u	n/a
415.6045	0.152	831209	keystroke	t	n/a
415.7165	0.096	831433	keystroke	o	n/a
415.9485	0.128	831897	keystroke	m	n/a
416.0925	0.112	832185	keystroke	a	n/a
416.2205	0.152	832441	keystroke	t	n/a
416.3165	0.112	832633	keystroke	e	n/a
416.5325	0.12	833065	keystroke	d	n/a
416.6365	0.08	833273	keystroke	Key.enter	n/a
416.7215	5.8605	833443	prompt	n/a	frequent happening neural large\n
417.3405	0.104	834681	keystroke	f	n/a
417.5405	0.152	835081	keystroke	r	n/a
417.6285	0.088	835257	keystroke	e	n/a
417.7805	0.144	835561	keystroke	q	n/a
417.9085	0.12	835817	keystroke	u	n/a
418.0525	0.136	836105	keystroke	e	n/a
418.1965	0.104	836393	keystroke	n	n/a
418.6845	0.176	837369	keystroke	t	n/a
418.8365	0.096	837673	keystroke	Key.space	n/a
419.1405	0.112	838281	keystroke	h	n/a
419.2685	0.152	838537	keystroke	a	n/a
419.3725	0.072	838745	keystroke	p	n/a
419.5085	0.088	839017	keystroke	p	n/a
419.7085	0.144	839417	keystroke	e	n/a
419.7725	0.088	839545	keystroke	n	n/a
419.9805	0.136	839961	keystroke	i	n/a
420.0845	0.088	840169	keystroke	n	n/a
420.1325	0.12	840265	keystroke	g	n/a
420.2685	0.072	840537	keystroke	Key.space	n/a
420.4685	0.104	840937	keystroke	n	n/a
420.6765	0.16	841353	keystroke	e	n/a
421.0205	0.128	842041	keystroke	u	n/a
421.3805	0.16	842761	keystroke	r	n/a
421.4685	0.184	842937	keystroke	a	n/a
421.5645	0.096	843129	keystroke	l	n/a
421.7645	0.064	843529	keystroke	Key.space	n/a
421.9325	0.12	843865	keystroke	l	n/a
422.0125	0.16	844025	keystroke	a	n/a
422.1245	0.096	844249	keystroke	r	n/a
422.3165	0.168	844633	keystroke	g	n/a
422.3885	0.168	844777	keystroke	e	n/a
422.5085	0.072	845017	keystroke	Key.enter	n/a
422.585	8.373	845170	prompt	n/a	suspension bathroom sharon suffer\n
423.1965	0.128	846393	keystroke	e	n/a
423.5325	0.064	847065	keystroke	Key.backspace	n/a
423.7405	0.152	847481	keystroke	s	n/a
423.8285	0.072	847657	keystroke	u	n/a
424.2205	0.152	848441	keystroke	s	n/a
424.3725	0.104	848745	keystroke	p	n/a
424.5965	0.12	849193	keystroke	e	n/a
424.7245	0.08	849449	keystroke	n	n/a
424.8845	0.16	849769	keystroke	s	n/a
424.9885	0.208	849977	keystroke	i	n/a
425.0525	0.152	850105	keystroke	o	n/a
425.1245	0.136	850249	keystroke	n	n/a
426.9725	0.096	853945	keystroke	Key.space	n/a
427.2045	0.096	854409	keystroke	b	n/a
427.3085	0.128	854617	keystroke	a	n/a
427.477	0.16	854954	keystroke	t	n/a
427.733	0.08	855466	keystroke	h	n/a
428.253	0.168	856506	keystroke	r	n/a
428.341	0.072	856682	keystroke	o	n/a
428.485	0.096	856970	keystroke	o	n/a
428.605	0.096	857210	keystroke	m	n/a
428.789	0.104	857578	keystroke	Key.space	n/a
428.997	0.12	857994	keystroke	s	n/a
429.117	0.088	858234	keystroke	h	n/a
429.197	0.144	858394	keystroke	a	n/a
429.325	0.152	858650	keystroke	r	n/a
429.413	0.152	858826	keystroke	o	n/a
429.509	0.096	859018	keystroke	n	n/a
429.693	0.08	859386	keystroke	Key.space	n/a
429.765	0.128	859530	keystroke	s	n/a
429.901	0.104	859802	keystroke	u	n/a
430.085	0.12	860170	keystroke	f	n/a
430.293	0.12	860586	keystroke	f	n/a
430.437	0.192	860874	keystroke	e	n/a
430.605	0.12	861210	keystroke	r	n/a
430.885	0.072	861770	keystroke	Key.enter	n/a
430.9605	12.966	861921	prompt	n/a	destroy bouquet selling remain\n
435.4615	0.144	870923	keystroke	d	n/a
435.5495	0.128	871099	keystroke	e	n/a
435.7895	0.096	871579	keystroke	s	n/a
436.0135	0.096	872027	keystroke	t	n/a
436.1895	0.1435	872379	keystroke	r	n/a
437.021	0.12	874042	keystroke	o	n/a
437.165	0.104	874330	keystroke	y	n/a
437.285	0.088	874570	keystroke	Key.space	n/a
438.365	0.104	876730	keystroke	b	n/a
438.477	0.272	876954	keystroke	o	n/a
438.621	0.152	877242	keystroke	u	n/a
438.829	0.112	877658	keystroke	g	n/a
440.325	0.088	880650	keystroke	Key.backspace	n/a
440.765	0.16	881530	keystroke	q	n/a
440.909	0.096	881818	keystroke	u	n/a
441.029	0.1365	882058	keystroke	e	n/a
441.285	0.104	882570	keystroke	t	n/a
441.413	0.08	882826	keystroke	Key.space	n/a
441.8375	0.0715	883675	keystroke	s	n/a
442.021	0.1365	884042	keystroke	e	n/a
442.1495	0.0715	884299	keystroke	l	n/a
442.317	0.192	884634	keystroke	l	n/a
442.429	0.1685	884858	keystroke	i	n/a
442.5575	0.112	885115	keystroke	n	n/a
442.6455	0.128	885291	keystroke	g	n/a
442.7815	0.088	885563	keystroke	Key.space	n/a
443.0295	0.176	886059	keystroke	r	n/a
443.1335	0.152	886267	keystroke	e	n/a
443.2775	0.08	886555	keystroke	m	n/a
443.4135	0.16	886827	keystroke	a	n/a
443.4855	0.152	886971	keystroke	i	n/a
443.5815	0.104	887163	keystroke	n	n/a
443.8135	0.112	887627	keystroke	Key.enter	n/a
443.929	7.054	887858	prompt	n/a	mailed preview prototype complete\n
444.5655	0.088	889131	keystroke	m	n/a
444.6775	0.152	889355	keystroke	a	n/a
444.7335	0.168	889467	keystroke	i	n/a
444.8455	0.128	889691	keystroke	l	n/a
444.9415	0.096	889883	keystroke	e	n/a
445.1415	0.12	890283	keystroke	d	n/a
445.2455	0.088	890491	keystroke	Key.space	n/a
445.5975	0.128	891195	keystroke	p	n/a
445.7255	0.152	891451	keystroke	r	n/a
445.8135	0.12	891627	keystroke	e	n/a
446.0295	0.168	892059	keystroke	v	n/a
446.1575	0.248	892315	keystroke	i	n/a
446.2775	0.112	892555	keystroke	o	n/a
446.7255	0.08	893451	keystroke	Key.backspace	n/a
446.9975	0.2325	893995	keystroke	e	n/a
447.1095	0.1605	894219	keystroke	w	n/a
447.3655	0.096	894731	keystroke	Key.space	n/a
447.83	0.136	895660	keystroke	p	n/a
447.958	0.128	895916	keystroke	r	n/a
448.102	0.088	896204	keystroke	o	n/a
448.342	0.1195	896684	keystroke	t	n/a
448.4535	0.0805	896907	keystroke	o	n/a
448.766	0.12	897532	keystroke	t	n/a
448.998	0.112	897996	keystroke	y	n/a
449.086	0.064	898172	keystroke	p	n/a
449.198	0.16	898396	keystroke	e	n/a
449.326	0.08	898652	keystroke	Key.space	n/a
449.526	0.1755	899052	keystroke	c	n/a
449.6135	0.136	899227	keystroke	o	n/a
449.6935	0.1285	899387	keystroke	m	n/a
449.902	0.104	899804	keystroke	p	n/a
450.134	0.12	900268	keystroke	l	n/a
450.286	0.144	900572	keystroke	e	n/a
450.494	0.184	900988	keystroke	t	n/a
450.566	0.192	901132	keystroke	e	n/a
450.87	0.112	901740	keystroke	Key.enter	n/a
450.9855	5.0295	901971	prompt	n/a	window bits incl greatly\n
451.806	0.144	903612	keystroke	w	n/a
451.878	0.128	903756	keystroke	i	n/a
451.974	0.112	903948	keystroke	n	n/a
452.086	0.128	904172	keystroke	d	n/a
452.214	0.096	904428	keystroke	o	n/a
452.302	0.144	904604	keystroke	w	n/a
452.494	0.072	904988	keystroke	n	n/a
452.846	0.08	905692	keystroke	Key.backspace	n/a
453.102	0.088	906204	keystroke	Key.space	n/a
453.39	0.128	906780	keystroke	b	n/a
453.47	0.136	906940	keystroke	i	n/a
453.566	0.144	907132	keystroke	t	n/a
453.83	0.136	907660	keystroke	s	n/a
454.038	0.072	908076	keystroke	Key.space	n/a
454.23	0.136	908460	keystroke	i	n/a
454.318	0.12	908636	keystroke	n	n/a
454.454	0.176	908908	keystroke	c	n/a
454.606	0.088	909212	keystroke	l	n/a
454.838	0.096	909676	keystroke	Key.space	n/a
455.054	0.088	910108	keystroke	g	n/a
455.246	0.176	910492	keystroke	r	n/a
455.334	0.216	910668	keystroke	e	n/a
455.414	0.104	910828	keystroke	a	n/a
455.566	0.144	911132	keystroke	t	n/a
455.67	0.088	911340	keystroke	l	n/a
455.822	0.12	911644	keystroke	y	n/a
455.918	0.096	911836	keystroke	Key.enter	n/a
456.018	7.741	912036	prompt	n/a	approximately appearance revised acid\n
456.782	0.144	913564	keystroke	a	n/a
456.878	0.08	913756	keystroke	p	n/a
457.022	0.096	914044	keystroke	p	n/a
457.142	0.136	914284	keystroke	r	n/a
457.246	0.104	914492	keystroke	o	n/a
457.486	0.152	914972	keystroke	x	n/a
457.622	0.096	915244	keystroke	i	n/a
457.838	0.128	915676	keystroke	m	n/a
457.974	0.104	915948	keystroke	a	n/a
458.15	0.152	916300	keystroke	t	n/a
458.222	0.152	916444	keystroke	e	n/a
458.374	0.088	916748	keystroke	l	n/a
458.566	0.12	917132	keystroke	y	n/a
458.75	0.096	917500	keystroke	Key.space	n/a
459.03	0.136	918060	keystroke	a	n/a
459.15	0.096	918300	keystroke	p	n/a
459.31	0.112	918620	keystroke	p	n/a
459.39	0.272	918780	keystroke	e	n/a
459.494	0.144	918988	keystroke	a	n/a
459.622	0.144	919244	keystroke	r	n/a
460.246	0.144	920492	keystroke	a	n/a
460.398	0.088	920796	keystroke	n	n/a
460.614	0.184	921228	keystroke	c	n/a
460.718	0.152	921436	keystroke	e	n/a
460.862	0.08	921724	keystroke	Key.space	n/a
461.198	0.128	922396	keystroke	r	n/a
461.294	0.128	922588	keystroke	e	n/a
461.502	0.12	923004	keystroke	v	n/a
461.59	0.128	923180	keystroke	i	n/a
461.83	0.192	923660	keystroke	d	n/a
462.213	0.088	924426	keystroke	Key.backspace	n/a
462.358	0.08	924716	keystroke	s	n/a
462.534	0.072	925068	keystroke	e	n/a
462.734	0.12	925468	keystroke	d	n/a
462.846	0.096	925692	keystroke	Key.space	n/a
463.078	0.12	926156	keystroke	a	n/a
463.286	0.088	926572	keystroke	c	n/a
463.422	0.08	926844	keystroke	i	n/a
463.486	0.136	926972	keystroke	d	n/a
463.662	0.096	927324	keystroke	Key.enter	n/a
463.764	10.787	927528	prompt	n/a	democrats apparatus anthropology blackberry\n
464.5665	0.1675	929133	keystroke	d	n/a
464.662	0.144	929324	keystroke	e	n/a
464.8545	0.088	929709	keystroke	m	n/a
465.0385	0.0955	930077	keystroke	o	n/a
465.3585	0.12	930717	keystroke	c	n/a
465.742	0.1685	931484	keystroke	r	n/a
465.8385	0.184	931677	keystroke	a	n/a
466.166	0.128	932332	keystroke	t	n/a
466.318	0.1525	932636	keystroke	s	n/a
466.4935	0.104	932987	keystroke	Key.space	n/a
466.7665	0.136	933533	keystroke	a	n/a
466.8705	0.08	933741	keystroke	p	n/a
467.0385	0.12	934077	keystroke	p	n/a
467.3665	0.168	934733	keystroke	r	n/a
467.4625	0.176	934925	keystroke	a	n/a
467.8305	0.112	935661	keystroke	t	n/a
467.9345	0.112	935869	keystroke	u	n/a
468.0865	0.16	936173	keystroke	s	n/a
468.3345	0.096	936669	keystroke	Key.space	n/a
468.6145	0.16	937229	keystroke	a	n/a
468.7505	0.104	937501	keystroke	n	n/a
468.9905	0.136	937981	keystroke	t	n/a
469.1185	0.16	938237	keystroke	h	n/a
469.2625	0.12	938525	keystroke	o	n/a
470.805	0.08	941610	keystroke	Key.backspace	n/a
470.95	0.1525	941900	keystroke	r	n/a
471.0625	0.104	942125	keystroke	o	n/a
471.3185	0.096	942637	keystroke	p	n/a
471.5265	0.08	943053	keystroke	o	n/a
471.7265	0.072	943453	keystroke	l	n/a
471.9105	0.096	943821	keystroke	o	n/a
472.0305	0.096	944061	keystroke	g	n/a
472.2465	0.12	944493	keystroke	y	n/a
472.3895	0.072	944779	keystroke	Key.space	n/a
472.5745	0.104	945149	keystroke	b	n/a
472.7505	0.128	945501	keystroke	l	n/a
472.8705	0.112	945741	keystroke	a	n/a
473.0705	0.12	946141	keystroke	c	n/a
473.4385	0.08	946877	keystroke	k	n/a
473.7585	0.096	947517	keystroke	b	n/a
473.8785	0.144	947757	keystroke	e	n/a
473.9665	0.12	947933	keystroke	r	n/a
474.1505	0.12	948301	keystroke	r	n/a
474.3665	0.16	948733	keystroke	y	n/a
474.4625	0.088	948925	keystroke	Key.enter	n/a
474.554	9.1255	949108	prompt	n/a	tall museums semi rolls\n
475.3665	0.16	950733	keystroke	t	n/a
475.4785	0.192	950957	keystroke	a	n/a
475.5665	0.048	951133	keystroke	l	n/a
475.6945	0.072	951389	keystroke	l	n/a
475.8625	0.087	951725	keystroke	Key.space	n/a
476.0625	0.112	952125	keystroke	m	n/a
476.3105	0.096	952621	keystroke	u	n/a
476.4625	0.096	952925	keystroke	s	n/a
476.6785	0.151	953357	keystroke	e	n/a
476.8385	0.104	953677	keystroke	m	n/a
477.2855	0.081	954571	keystroke	Key.backspace	n/a
477.5825	0.128	955165	keystroke	u	n/a
477.8145	0.12	955629	keystroke	m	n/a
478.0705	0.168	956141	keystroke	s	n/a
478.2215	0.056	956443	keystroke	Key.space	n/a
478.4215	0.185	956843	keystroke	s	n/a
478.5665	0.08	957133	keystroke	i	n/a
478.7425	0.112	957485	keystroke	m	n/a
478.9585	0.104	957917	keystroke	i	n/a
479.2615	0.097	958523	keystroke	Key.space	n/a
479.6295	0.08	959259	keystroke	Key.backspace	n/a
479.8215	0.064	959643	keystroke	Key.backspace	n/a
479.9895	0.081	959979	keystroke	Key.backspace	n/a
480.1735	0.104	960347	keystroke	Key.backspace	n/a
480.3665	0.128	960733	keystroke	e	n/a
480.5105	0.12	961021	keystroke	m	n/a
480.7105	0.112	961421	keystroke	i	n/a
480.9745	0.071	961949	keystroke	Key.space	n/a
481.0705	0.144	962141	keystroke	r	n/a
481.1745	0.08	962349	keystroke	o	n/a
481.3345	0.08	962669	keystroke	o	n/a
481.5265	0.08	963053	keystroke	l	n/a
481.6705	0.072	963341	keystroke	s	n/a
481.9095	0.048	963819	keystroke	Key.backspace	n/a
482.0615	0.072	964123	keystroke	Key.backspace	n/a
482.2055	0.064	964411	keystroke	Key.backspace	n/a
482.6065	0.064	965213	keystroke	l	n/a
483.2625	0.104	966525	keystroke	l	n/a
483.4385	0.128	966877	keystroke	s	n/a
483.5825	0.095	967165	keystroke	Key.enter	n/a
483.6825	8.0525	967365	prompt	n/a	packs reached consequence mongolia\n
484.4465	0.112	968893	keystroke	p	n/a
484.6065	0.1355	969213	keystroke	a	n/a
484.814	0.152	969628	keystroke	c	n/a
484.958	0.112	969916	keystroke	k	n/a
485.198	0.152	970396	keystroke	s	n/a
485.502	0.096	971004	keystroke	Key.space	n/a
485.718	0.168	971436	keystroke	r	n/a
485.798	0.152	971596	keystroke	e	n/a
485.862	0.128	971724	keystroke	a	n/a
486.054	0.128	972108	keystroke	c	n/a
486.142	0.096	972284	keystroke	h	n/a
486.246	0.088	972492	keystroke	e	n/a
486.43	0.12	972860	keystroke	d	n/a
486.494	0.08	972988	keystroke	Key.space	n/a
486.694	0.16	973388	keystroke	c	n/a
486.79	0.152	973580	keystroke	o	n/a
486.886	0.128	973772	keystroke	n	n/a
487.006	0.104	974012	keystroke	s	n/a
487.206	0.128	974412	keystroke	e	n/a
487.502	0.152	975004	keystroke	q	n/a
487.718	0.104	975436	keystroke	u	n/a
487.894	0.16	975788	keystroke	e	n/a
488.062	0.104	976124	keystroke	n	n/a
488.19	0.184	976380	keystroke	c	n/a
488.294	0.152	976588	keystroke	e	n/a
488.59	0.096	977180	keystroke	Key.space	n/a
488.91	0.12	977820	keystroke	m	n/a
489.022	0.12	978044	keystroke	o	n/a
490.438	0.12	980876	keystroke	n	n/a
490.822	0.144	981644	keystroke	g	n/a
490.958	0.08	981916	keystroke	o	n/a
491.166	0.248	982332	keystroke	l	n/a
491.302	0.136	982604	keystroke	i	n/a
491.422	0.184	982844	keystroke	a	n/a
491.646	0.088	983292	keystroke	Key.enter	n/a
491.738	5.3095	983476	prompt	n/a	uncle kenneth seems late\n
492.494	0.152	984988	keystroke	u	n/a
492.67	0.128	985340	keystroke	n	n/a
492.846	0.168	985692	keystroke	c	n/a
492.982	0.088	985964	keystroke	l	n/a
493.102	0.168	986204	keystroke	e	n/a
493.318	0.112	986636	keystroke	Key.space	n/a
493.974	0.128	987948	keystroke	k	n/a
494.206	0.16	988412	keystroke	e	n/a
494.382	0.104	988764	keystroke	n	n/a
494.678	0.08	989356	keystroke	e	n/a
494.838	0.088	989676	keystroke	e	n/a
494.998	0.128	989996	keystroke	t	n/a
495.062	0.08	990124	keystroke	h	n/a
495.286	0.088	990572	keystroke	Key.space	n/a
495.47	0.08	990940	keystroke	s	n/a
495.67	0.088	991340	keystroke	e	n/a
495.846	0.112	991692	keystroke	e	n/a
495.982	0.072	991964	keystroke	m	n/a
496.086	0.144	992172	keystroke	s	n/a
496.214	0.088	992428	keystroke	Key.space	n/a
496.486	0.104	992972	keystroke	l	n/a
496.558	0.096	993116	keystroke	a	n/a
496.702	0.168	993404	keystroke	t	n/a
496.766	0.176	993532	keystroke	e	n/a
496.958	0.088	993916	keystroke	Key.enter	n/a
497.0505	7.845	994101	prompt	n/a	other institutes ecological visiting\n
497.75	0.112	995500	keystroke	o	n/a
497.894	0.144	995788	keystroke	t	n/a
497.982	0.096	995964	keystroke	h	n/a
498.046	0.224	996092	keystroke	e	n/a
498.182	0.144	996364	keystroke	r	n/a
498.294	0.08	996588	keystroke	Key.space	n/a
498.614	0.16	997228	keystroke	i	n/a
498.718	0.152	997436	keystroke	n	n/a
499.038	0.096	998076	keystroke	s	n/a
499.214	0.144	998428	keystroke	t	n/a
499.334	0.112	998668	keystroke	u	n/a
499.854	0.088	999708	keystroke	Key.backspace	n/a
500.11	0.096	1000220	keystroke	i	n/a
500.334	0.16	1000668	keystroke	t	n/a
500.462	0.112	1000924	keystroke	u	n/a
500.71	0.144	1001420	keystroke	t	n/a
500.798	0.12	1001596	keystroke	e	n/a
501.022	0.152	1002044	keystroke	s	n/a
501.158	0.08	1002316	keystroke	Key.space	n/a
501.438	0.136	1002876	keystroke	e	n/a
501.686	0.184	1003372	keystroke	c	n/a
501.8865	0.096	1003773	keystroke	o	n/a
502.1265	0.0875	1004253	keystroke	l	n/a
502.3185	0.096	1004637	keystroke	o	n/a
502.4705	0.144	1004941	keystroke	g	n/a
502.6705	0.112	1005341	keystroke	i	n/a
502.8145	0.24	1005629	keystroke	c	n/a
502.9425	0.208	1005885	keystroke	a	n/a
503.0705	0.08	1006141	keystroke	l	n/a
503.3265	0.072	1006653	keystroke	Key.space	n/a
503.7265	0.136	1007453	keystroke	v	n/a
503.8465	0.072	1007693	keystroke	i	n/a
504.0305	0.168	1008061	keystroke	s	n/a
504.1745	0.072	1008349	keystroke	i	n/a
504.3345	0.128	1008669	keystroke	t	n/a
504.4465	0.152	1008893	keystroke	i	n/a
504.5425	0.12	1009085	keystroke	n	n/a
504.6385	0.128	1009277	keystroke	g	n/a
504.8225	0.072	1009645	keystroke	Key.enter	n/a
504.8985	10.125	1009797	prompt	n/a	mrna traditional enabling cathedral\n
505.6225	0.096	1011245	keystroke	m	n/a
506.2385	0.136	1012477	keystroke	r	n/a
506.4225	0.088	1012845	keystroke	n	n/a
506.6785	0.168	1013357	keystroke	a	n/a
506.9025	0.088	1013805	keystroke	Key.space	n/a
507.1185	0.072	1014237	keystroke	t	n/a
507.2945	0.128	1014589	keystroke	r	n/a
507.3665	0.16	1014733	keystroke	a	n/a
507.7185	0.08	1015437	keystroke	t	n/a
508.0865	0.08	1016173	keystroke	Key.backspace	n/a
508.7665	0.152	1017533	keystroke	d	n/a
508.9425	0.08	1017885	keystroke	i	n/a
509.1345	0.192	1018269	keystroke	t	n/a
509.2145	0.232	1018429	keystroke	i	n/a
509.3185	0.136	1018637	keystroke	o	n/a
509.3665	0.136	1018733	keystroke	n	n/a
509.5025	0.176	1019005	keystroke	a	n/a
509.5985	0.088	1019197	keystroke	l	n/a
509.7745	0.088	1019549	keystroke	Key.space	n/a
509.9505	0.136	1019901	keystroke	e	n/a
510.0545	0.072	1020109	keystroke	n	n/a
510.1985	0.176	1020397	keystroke	a	n/a
510.3345	0.144	1020669	keystroke	b	n/a
510.4625	0.112	1020925	keystroke	l	n/a
510.7825	0.208	1021565	keystroke	i	n/a
510.9585	0.128	1021917	keystroke	n	n/a
511.1185	0.12	1022237	keystroke	g	n/a
511.2305	0.096	1022461	keystroke	Key.space	n/a
511.5505	0.152	1023101	keystroke	c	n/a
511.6545	0.152	1023309	keystroke	a	n/a
511.8785	0.168	1023757	keystroke	t	n/a
511.9985	0.12	1023997	keystroke	h	n/a
512.5905	0.136	1025181	keystroke	e	n/a
513.0385	0.112	1026077	keystroke	d	n/a
513.2465	0.176	1026493	keystroke	r	n/a
513.3505	0.216	1026701	keystroke	a	n/a
514.2225	0.088	1028445	keystroke	l	n/a
514.9425	0.08	1029885	keystroke	Key.enter	n/a
515.0265	5.301	1030053	prompt	n/a	wiley intensive fields samsung\n
515.6945	0.168	1031389	keystroke	w	n/a
515.8065	0.088	1031613	keystroke	i	n/a
516.0465	0.112	1032093	keystroke	l	n/a
516.1585	0.112	1032317	keystroke	e	n/a
516.4145	0.064	1032829	keystroke	y	n/a
516.4785	0.08	1032957	keystroke	Key.space	n/a
516.6945	0.136	1033389	keystroke	i	n/a
516.7745	0.136	1033549	keystroke	n	n/a
516.8705	0.152	1033741	keystroke	t	n/a
516.9665	0.144	1033933	keystroke	e	n/a
517.1265	0.096	1034253	keystroke	n	n/a
517.2865	0.12	1034573	keystroke	s	n/a
517.3905	0.088	1034781	keystroke	i	n/a
517.5185	0.168	1035037	keystroke	v	n/a
517.6145	0.176	1035229	keystroke	e	n/a
517.7505	0.088	1035501	keystroke	Key.space	n/a
517.9905	0.152	1035981	keystroke	f	n/a
518.1345	0.104	1036269	keystroke	i	n/a
518.2305	0.168	1036461	keystroke	e	n/a
518.4305	0.08	1036861	keystroke	l	n/a
518.5665	0.232	1037133	keystroke	d	n/a
518.6865	0.192	1037373	keystroke	s	n/a
518.8545	0.088	1037709	keystroke	Key.space	n/a
519.0145	0.2	1038029	keystroke	s	n/a
519.1905	0.192	1038381	keystroke	a	n/a
519.3985	0.112	1038797	keystroke	m	n/a
519.6145	0.216	1039229	keystroke	s	n/a
519.7745	0.152	1039549	keystroke	u	n/a
519.8865	0.128	1039773	keystroke	n	n/a
519.9905	0.16	1039981	keystroke	g	n/a
520.2065	0.12	1040413	keystroke	Key.enter	n/a
520.33	7.8935	1040660	prompt	n/a	plaintiff imported politics managers\n
520.9905	0.104	1041981	keystroke	p	n/a
521.2225	0.096	1042445	keystroke	l	n/a
521.3745	0.16	1042749	keystroke	a	n/a
522.0545	0.184	1044109	keystroke	i	n/a
522.2145	0.112	1044429	keystroke	n	n/a
522.6385	0.176	1045277	keystroke	t	n/a
522.8785	0.112	1045757	keystroke	i	n/a
523.0865	0.096	1046173	keystroke	f	n/a
523.2705	0.136	1046541	keystroke	f	n/a
523.4225	0.08	1046845	keystroke	Key.space	n/a
523.6225	0.16	1047245	keystroke	i	n/a
523.7265	0.144	1047453	keystroke	m	n/a
523.9505	0.128	1047901	keystroke	p	n/a
524.2065	0.128	1048413	keystroke	o	n/a
524.3425	0.096	1048685	keystroke	r	n/a
524.5345	0.152	1049069	keystroke	t	n/a
524.6385	0.096	1049277	keystroke	e	n/a
524.8465	0.136	1049693	keystroke	d	n/a
524.9505	0.08	1049901	keystroke	Key.space	n/a
525.1985	0.12	1050397	keystroke	p	n/a
525.4305	0.096	1050861	keystroke	o	n/a
525.6305	0.112	1051261	keystroke	l	n/a
525.8545	0.136	1051709	keystroke	i	n/a
526.23	0.144	1052460	keystroke	t	n/a
526.422	0.12	1052844	keystroke	i	n/a
526.574	0.28	1053148	keystroke	c	n/a
526.742	0.192	1053484	keystroke	s	n/a
526.926	0.088	1053852	keystroke	Key.space	n/a
527.142	0.096	1054284	keystroke	m	n/a
527.246	0.12	1054492	keystroke	a	n/a
527.366	0.096	1054732	keystroke	n	n/a
527.454	0.104	1054908	keystroke	a	n/a
527.622	0.136	1055244	keystroke	g	n/a
527.7025	0.1675	1055405	keystroke	e	n/a
527.87	0.1765	1055740	keystroke	r	n/a
528.0305	0.152	1056061	keystroke	s	n/a
528.1265	0.096	1056253	keystroke	Key.enter	n/a
528.2265	9.2285	1056453	prompt	n/a	listprice assets chip forestry\n
528.9585	0.12	1057917	keystroke	l	n/a
529.1985	0.104	1058397	keystroke	i	n/a
529.3505	0.136	1058701	keystroke	s	n/a
529.8705	0.128	1059741	keystroke	t	n/a
530.3105	0.096	1060621	keystroke	p	n/a
530.4225	0.088	1060845	keystroke	r	n/a
530.5505	0.104	1061101	keystroke	i	n/a
530.6625	0.232	1061325	keystroke	c	n/a
530.7825	0.208	1061565	keystroke	e	n/a
531.0225	0.088	1062045	keystroke	Key.space	n/a
531.3105	0.168	1062621	keystroke	a	n/a
531.4545	0.112	1062909	keystroke	s	n/a
531.6545	0.096	1063309	keystroke	s	n/a
531.8385	0.128	1063677	keystroke	e	n/a
531.9585	0.216	1063917	keystroke	t	n/a
532.1585	0.16	1064317	keystroke	s	n/a
532.3265	0.08	1064653	keystroke	Key.space	n/a
532.6545	0.128	1065309	keystroke	h	n/a
533.0545	0.096	1066109	keystroke	Key.backspace	n/a
533.2865	0.184	1066573	keystroke	c	n/a
533.3985	0.176	1066797	keystroke	h	n/a
533.5025	0.136	1067005	keystroke	i	n/a
533.7025	0.1115	1067405	keystroke	p	n/a
533.966	0.088	1067932	keystroke	Key.space	n/a
534.35	0.136	1068700	keystroke	f	n/a
534.534	0.08	1069068	keystroke	o	n/a
534.862	0.136	1069724	keystroke	r	n/a
535.846	0.096	1071692	keystroke	e	n/a
536.062	0.112	1072124	keystroke	s	n/a
536.2775	0.1365	1072555	keystroke	t	n/a
536.918	0.128	1073836	keystroke	r	n/a
537.198	0.152	1074396	keystroke	y	n/a
537.374	0.08	1074748	keystroke	Key.enter	n/a
537.4575	9.19	1074915	prompt	n/a	chevy kept underwear reed\n
538.342	0.144	1076684	keystroke	c	n/a
538.494	0.104	1076988	keystroke	h	n/a
538.614	0.136	1077228	keystroke	e	n/a
538.838	0.112	1077676	keystroke	c	n/a
539.3895	0.0965	1078779	keystroke	Key.backspace	n/a
539.51	0.128	1079020	keystroke	v	n/a
539.8455	0.104	1079691	keystroke	y	n/a
540.0215	0.1045	1080043	keystroke	Key.space	n/a
540.326	0.1195	1080652	keystroke	k	n/a
540.4775	0.152	1080955	keystroke	e	n/a
541.1735	0.096	1082347	keystroke	Key.backspace	n/a
541.3655	0.096	1082731	keystroke	Key.backspace	n/a
541.5815	0.104	1083163	keystroke	Key.backspace	n/a
542.3495	0.096	1084699	keystroke	Key.space	n/a
542.5655	0.128	1085131	keystroke	k	n/a
542.7095	0.152	1085419	keystroke	e	n/a
542.8615	0.104	1085723	keystroke	p	n/a
543.0455	0.152	1086091	keystroke	t	n/a
543.2135	0.08	1086427	keystroke	Key.space	n/a
543.9015	0.128	1087803	keystroke	u	n/a
544.0775	0.144	1088155	keystroke	n	n/a
544.1415	0.128	1088283	keystroke	d	n/a
544.2375	0.2085	1088475	keystroke	e	n/a
544.3735	0.152	1088747	keystroke	r	n/a
544.5735	0.16	1089147	keystroke	w	n/a
544.862	0.3595	1089724	keystroke	e	n/a
544.982	0.1755	1089964	keystroke	a	n/a
545.1495	0.2	1090299	keystroke	r	n/a
545.4055	0.096	1090811	keystroke	Key.space	n/a
545.9095	0.168	1091819	keystroke	r	n/a
546.0135	0.112	1092027	keystroke	e	n/a
546.2055	0.112	1092411	keystroke	e	n/a
