onset	duration	sample	value	key	prompt_text
8.516	12.722	17032	prompt	n/a	the quick brown fox jumps over a lazy dog\n
15.1035	0.042	30207	keystroke_t	t	n/a
15.161	0.0895	30322	keystroke_h	h	n/a
15.2515	0.104	30503	keystroke_e	e	n/a
15.3705	0.12	30741	keystroke_Key.space	Key.space	n/a
15.4465	0.164	30893	keystroke_q	q	n/a
15.6115	0.134	31223	keystroke_u	u	n/a
15.7005	0.135	31401	keystroke_i	i	n/a
15.8515	0.134	31703	keystroke_c	c	n/a
15.9405	0.15	31881	keystroke_k	k	n/a
16.0455	0.105	32091	keystroke_Key.space	Key.space	n/a
16.1955	0.09	32391	keystroke_b	b	n/a
16.2865	0.119	32573	keystroke_r	r	n/a
16.3905	0.121	32781	keystroke_o	o	n/a
16.4815	0.12	32963	keystroke_w	w	n/a
16.5715	0.134	33143	keystroke_n	n	n/a
16.6455	0.12	33291	keystroke_Key.space	Key.space	n/a
16.7805	0.105	33561	keystroke_f	f	n/a
16.9005	0.1055	33801	keystroke_o	o	n/a
17.0665	0.149	34133	keystroke_z	z	n/a
17.5155	0.09	35031	keystroke_Key.backspace	Key.backspace	n/a
17.6655	0.075	35331	keystroke_x	x	n/a
17.7855	0.075	35571	keystroke_Key.space	Key.space	n/a
18.3105	0.06	36621	keystroke_j	j	n/a
18.4455	0.06	36891	keystroke_u	u	n/a
18.6105	0.135	37221	keystroke_m	m	n/a
18.7005	0.135	37401	keystroke_p	p	n/a
18.8205	0.135	37641	keystroke_s	s	n/a
18.9705	0.06	37941	keystroke_Key.space	Key.space	n/a
19.0765	0.12	38153	keystroke_o	o	n/a
19.1365	0.105	38273	keystroke_v	v	n/a
19.361	0.15	38722	keystroke_e	e	n/a
19.451	0.15	38902	keystroke_r	r	n/a
19.571	0.075	39142	keystroke_Key.space	Key.space	n/a
19.647	0.104	39294	keystroke_a	a	n/a
19.766	0.075	39532	keystroke_Key.space	Key.space	n/a
19.886	0.105	39772	keystroke_l	l	n/a
19.961	0.075	39922	keystroke_a	a	n/a
20.156	0.12	40312	keystroke_z	z	n/a
20.261	0.135	40522	keystroke_y	y	n/a
20.336	0.12	40672	keystroke_Key.space	Key.space	n/a
20.531	0.105	41062	keystroke_d	d	n/a
20.621	0.135	41242	keystroke_o	o	n/a
20.816	0.09	41632	keystroke_g	g	n/a
21.146	0.09	42292	keystroke_Key.enter	Key.enter	n/a
21.2435	5.919	42487	prompt	n/a	immigrants paul famous planned\n
21.881	0.1505	43762	keystroke_i	i	n/a
21.9715	0.165	43943	keystroke_m	m	n/a
22.5415	0.15	45083	keystroke_m	m	n/a
22.6315	0.15	45263	keystroke_i	i	n/a
22.9765	0.135	45953	keystroke_g	g	n/a
23.0365	0.12	46073	keystroke_r	r	n/a
23.2465	0.135	46493	keystroke_a	a	n/a
23.3965	0.09	46793	keystroke_n	n	n/a
23.4715	0.195	46943	keystroke_t	t	n/a
23.5765	0.15	47153	keystroke_s	s	n/a
23.7565	0.12	47513	keystroke_Key.space	Key.space	n/a
23.951	0.12	47902	keystroke_p	p	n/a
24.296	0.105	48592	keystroke_a	a	n/a
24.506	0.075	49012	keystroke_u	u	n/a
24.716	0.135	49432	keystroke_l	l	n/a
24.806	0.12	49612	keystroke_Key.space	Key.space	n/a
24.941	0.165	49882	keystroke_f	f	n/a
25.031	0.135	50062	keystroke_a	a	n/a
25.151	0.2545	50302	keystroke_m	m	n/a
25.6005	0.226	51201	keystroke_o	o	n/a
25.7515	0.18	51503	keystroke_u	u	n/a
25.9155	0.105	51831	keystroke_s	s	n/a
26.0355	0.09	52071	keystroke_Key.space	Key.space	n/a
26.2755	0.105	52551	keystroke_p	p	n/a
26.4255	0.09	52851	keystroke_l	l	n/a
26.5455	0.105	53091	keystroke_a	a	n/a
26.6655	0.06	53331	keystroke_n	n	n/a
26.7705	0.075	53541	keystroke_n	n	n/a
26.8155	0.09	53631	keystroke_e	e	n/a
27.0105	0.0905	54021	keystroke_d	d	n/a
27.116	0.045	54232	keystroke_Key.enter	Key.enter	n/a
27.1735	6.019	54347	prompt	n/a	generators button airport bufing\n
27.9565	0.1945	55913	keystroke_g	g	n/a
28.061	0.135	56122	keystroke_e	e	n/a
28.211	0.09	56422	keystroke_n	n	n/a
28.271	0.165	56542	keystroke_e	e	n/a
28.361	0.18	56722	keystroke_r	r	n/a
28.481	0.12	56962	keystroke_a	a	n/a
28.661	0.105	57322	keystroke_t	t	n/a
28.751	0.135	57502	keystroke_o	o	n/a
28.871	0.135	57742	keystroke_r	r	n/a
29.0365	0.135	58073	keystroke_s	s	n/a
29.1865	0.09	58373	keystroke_Key.space	Key.space	n/a
29.4115	0.075	58823	keystroke_b	b	n/a
29.5165	0.105	59033	keystroke_u	u	n/a
29.6515	0.06	59303	keystroke_t	t	n/a
29.7865	0.09	59573	keystroke_t	t	n/a
29.8615	0.1645	59723	keystroke_o	o	n/a
29.9965	0.1195	59993	keystroke_n	n	n/a
30.101	0.09	60202	keystroke_Key.space	Key.space	n/a
30.176	0.09	60352	keystroke_a	a	n/a
30.281	0.09	60562	keystroke_i	i	n/a
30.401	0.105	60802	keystroke_r	r	n/a
30.491	0.18	60982	keystroke_p	p	n/a
30.596	0.165	61192	keystroke_o	o	n/a
30.746	0.15	61492	keystroke_r	r	n/a
30.836	0.12	61672	keystroke_t	t	n/a
30.986	0.09	61972	keystroke_Key.space	Key.space	n/a
31.736	0.135	63472	keystroke_b	b	n/a
31.826	0.15	63652	keystroke_u	u	n/a
32.006	0.09	64012	keystroke_f	f	n/a
32.126	0.165	64252	keystroke_i	i	n/a
32.216	0.135	64432	keystroke_n	n	n/a
32.321	0.09	64642	keystroke_g	g	n/a
33.0565	0.135	66113	keystroke_Key.enter	Key.enter	n/a
33.2075	6.4955	66415	prompt	n/a	writers policies surgical dale\n
33.9115	0.105	67823	keystroke_w	w	n/a
34.0915	0.105	68183	keystroke_r	r	n/a
34.2265	0.105	68453	keystroke_i	i	n/a
34.3165	0.06	68633	keystroke_t	t	n/a
34.4065	0.15	68813	keystroke_e	e	n/a
34.4965	0.18	68993	keystroke_r	r	n/a
34.6315	0.15	69263	keystroke_s	s	n/a
34.7665	0.09	69533	keystroke_Key.space	Key.space	n/a
34.8565	0.21	69713	keystroke_p	p	n/a
34.9765	0.165	69953	keystroke_o	o	n/a
35.246	0.1055	70492	keystroke_l	l	n/a
35.4715	0.075	70943	keystroke_i	i	n/a
35.8765	0.09	71753	keystroke_c	c	n/a
35.9965	0.105	71993	keystroke_i	i	n/a
36.1315	0.225	72263	keystroke_e	e	n/a
36.2665	0.135	72533	keystroke_s	s	n/a
36.5665	0.119	73133	keystroke_Key.space	Key.space	n/a
36.8365	0.1195	73673	keystroke_s	s	n/a
37.001	0.135	74002	keystroke_u	u	n/a
37.121	0.105	74242	keystroke_r	r	n/a
37.331	0.091	74662	keystroke_g	g	n/a
37.436	0.106	74872	keystroke_i	i	n/a
37.661	0.211	75322	keystroke_c	c	n/a
37.781	0.165	75562	keystroke_a	a	n/a
37.961	0.165	75922	keystroke_l	l	n/a
38.066	0.135	76132	keystroke_Key.space	Key.space	n/a
38.336	0.226	76672	keystroke_d	d	n/a
38.441	0.15	76882	keystroke_a	a	n/a
38.636	0.15	77272	keystroke_l	l	n/a
38.801	0.075	77602	keystroke_e	e	n/a
39.581	0.12	79162	keystroke_Key.enter	Key.enter	n/a
39.7085	5.1845	79417	prompt	n/a	misc journey john alike\n
40.496	0.075	80992	keystroke_m	m	n/a
40.631	0.105	81262	keystroke_i	i	n/a
40.691	0.285	81382	keystroke_s	s	n/a
40.871	0.15	81742	keystroke_c	c	n/a
41.036	0.105	82072	keystroke_Key.space	Key.space	n/a
41.186	0.12	82372	keystroke_j	j	n/a
41.531	0.285	83062	keystroke_o	o	n/a
41.726	0.15	83452	keystroke_u	u	n/a
41.921	0.106	83842	keystroke_r	r	n/a
42.041	0.121	84082	keystroke_n	n	n/a
42.146	0.135	84292	keystroke_e	e	n/a
42.326	0.195	84652	keystroke_y	y	n/a
42.446	0.105	84892	keystroke_Key.space	Key.space	n/a
43.3615	0.27	86723	keystroke_j	j	n/a
43.5715	0.165	87143	keystroke_o	o	n/a
43.7665	0.1045	87533	keystroke_h	h	n/a
43.976	0.135	87952	keystroke_n	n	n/a
44.066	0.12	88132	keystroke_Key.space	Key.space	n/a
44.201	0.12	88402	keystroke_a	a	n/a
44.291	0.075	88582	keystroke_l	l	n/a
44.456	0.09	88912	keystroke_i	i	n/a
44.606	0.105	89212	keystroke_k	k	n/a
44.696	0.075	89392	keystroke_e	e	n/a
44.816	0.075	89632	keystroke_Key.enter	Key.enter	n/a
44.896	5.292	89792	prompt	n/a	owen marco take jamaica\n
45.581	0.15	91162	keystroke_o	o	n/a
45.746	0.1955	91492	keystroke_w	w	n/a
45.896	0.135	91792	keystroke_e	e	n/a
46.061	0.135	92122	keystroke_n	n	n/a
46.151	0.105	92302	keystroke_Key.space	Key.space	n/a
46.331	0.105	92662	keystroke_m	m	n/a
46.391	0.1355	92782	keystroke_a	a	n/a
46.5115	0.09	93023	keystroke_r	r	n/a
46.7665	0.09	93533	keystroke_c	c	n/a
46.9315	0.15	93863	keystroke_o	o	n/a
47.0215	0.135	94043	keystroke_Key.space	Key.space	n/a
47.2765	0.12	94553	keystroke_t	t	n/a
47.4415	0.15	94883	keystroke_a	a	n/a
47.6065	0.12	95213	keystroke_k	k	n/a
47.7565	0.12	95513	keystroke_e	e	n/a
47.8915	0.09	95783	keystroke_Key.space	Key.space	n/a
48.6265	0.09	97253	keystroke_j	j	n/a
48.7315	0.075	97463	keystroke_a	a	n/a
48.8365	0.09	97673	keystroke_m	m	n/a
48.9265	0.09	97853	keystroke_a	a	n/a
49.0615	0.09	98123	keystroke_i	i	n/a
49.1665	0.15	98333	keystroke_c	c	n/a
49.2265	0.15	98453	keystroke_a	a	n/a
50.066	0.1205	100132	keystroke_Key.enter	Key.enter	n/a
50.1905	5.203	100381	prompt	n/a	logic brush almost motivated\n
50.8315	0.105	101663	keystroke_l	l	n/a
51.0415	0.075	102083	keystroke_o	o	n/a
51.1315	0.105	102263	keystroke_g	g	n/a
51.2515	0.105	102503	keystroke_i	i	n/a
51.4465	0.135	102893	keystroke_c	c	n/a
51.5665	0.12	103133	keystroke_Key.space	Key.space	n/a
51.8515	0.1045	103703	keystroke_b	b	n/a
51.986	0.18	103972	keystroke_r	r	n/a
52.136	0.135	104272	keystroke_u	u	n/a
52.241	0.15	104482	keystroke_s	s	n/a
52.361	0.195	104722	keystroke_h	h	n/a
52.451	0.195	104902	keystroke_Key.space	Key.space	n/a
52.601	0.135	105202	keystroke_a	a	n/a
52.766	0.12	105532	keystroke_l	l	n/a
53.066	0.165	106132	keystroke_m	m	n/a
53.156	0.1655	106312	keystroke_o	o	n/a
53.246	0.195	106492	keystroke_s	s	n/a
53.381	0.135	106762	keystroke_t	t	n/a
53.501	0.105	107002	keystroke_Key.space	Key.space	n/a
53.636	0.135	107272	keystroke_m	m	n/a
53.726	0.09	107452	keystroke_o	o	n/a
54.206	0.076	108412	keystroke_t	t	n/a
54.386	0.105	108772	keystroke_i	i	n/a
54.521	0.181	109042	keystroke_v	v	n/a
54.626	0.135	109252	keystroke_a	a	n/a
54.851	0.151	109702	keystroke_t	t	n/a
54.956	0.12	109912	keystroke_e	e	n/a
55.151	0.12	110302	keystroke_d	d	n/a
55.286	0.105	110572	keystroke_Key.enter	Key.enter	n/a
55.398	5.5445	110796	prompt	n/a	delivery prove dude long\n
56.036	0.196	112072	keystroke_d	d	n/a
56.141	0.15	112282	keystroke_e	e	n/a
56.261	0.09	112522	keystroke_l	l	n/a
56.427	0.089	112854	keystroke_i	i	n/a
56.471	0.12	112942	keystroke_v	v	n/a
56.666	0.21	113332	keystroke_e	e	n/a
56.802	0.179	113604	keystroke_r	r	n/a
56.951	0.135	113902	keystroke_y	y	n/a
57.026	0.135	114052	keystroke_Key.space	Key.space	n/a
57.206	0.12	114412	keystroke_p	p	n/a
57.356	0.105	114712	keystroke_r	r	n/a
57.476	0.135	114952	keystroke_o	o	n/a
57.671	0.24	115342	keystroke_v	v	n/a
57.806	0.18	115612	keystroke_e	e	n/a
58.046	0.12	116092	keystroke_Key.space	Key.space	n/a
58.226	0.105	116452	keystroke_d	d	n/a
58.361	0.06	116722	keystroke_u	u	n/a
58.451	0.21	116902	keystroke_d	d	n/a
58.496	0.015	116992	keystroke_u	u	n/a
58.616	0.165	117232	keystroke_e	e	n/a
59.006	0.075	118012	keystroke_Key.backspace	Key.backspace	n/a
59.171	0.045	118342	keystroke_Key.backspace	Key.backspace	n/a
59.711	0.06	119422	keystroke_e	e	n/a
59.906	0.0905	119812	keystroke_Key.space	Key.space	n/a
60.1015	0.12	120203	keystroke_l	l	n/a
60.3265	0.165	120653	keystroke_o	o	n/a
60.4015	0.1345	120803	keystroke_n	n	n/a
60.5215	0.0745	121043	keystroke_g	g	n/a
60.851	0.09	121702	keystroke_Key.enter	Key.enter	n/a
60.945	5.0675	121890	prompt	n/a	these selling cruises often\n
61.6165	0.1045	123233	keystroke_t	t	n/a
61.766	0.06	123532	keystroke_h	h	n/a
61.796	0.225	123592	keystroke_e	e	n/a
61.961	0.255	123922	keystroke_s	s	n/a
62.126	0.195	124252	keystroke_e	e	n/a
62.306	0.1055	124612	keystroke_Key.space	Key.space	n/a
62.4865	0.195	124973	keystroke_s	s	n/a
62.6365	0.165	125273	keystroke_e	e	n/a
62.7865	0.06	125573	keystroke_l	l	n/a
62.921	0.09	125842	keystroke_l	l	n/a
63.1165	0.1505	126233	keystroke_i	i	n/a
63.1915	0.1505	126383	keystroke_n	n	n/a
63.311	0.106	126622	keystroke_g	g	n/a
63.431	0.09	126862	keystroke_Key.space	Key.space	n/a
63.627	0.105	127254	keystroke_c	c	n/a
63.912	0.12	127824	keystroke_r	r	n/a
64.062	0.164	128124	keystroke_u	u	n/a
64.182	0.1195	128364	keystroke_i	i	n/a
64.2865	0.15	128573	keystroke_s	s	n/a
64.4965	0.24	128993	keystroke_e	e	n/a
64.6465	0.18	129293	keystroke_s	s	n/a
64.8565	0.105	129713	keystroke_Key.space	Key.space	n/a
64.9765	0.1345	129953	keystroke_o	o	n/a
65.051	0.12	130102	keystroke_f	f	n/a
65.322	0.195	130644	keystroke_t	t	n/a
65.397	0.18	130794	keystroke_e	e	n/a
65.622	0.149	131244	keystroke_n	n	n/a
65.937	0.074	131874	keystroke_Key.enter	Key.enter	n/a
66.015	6.673	132030	prompt	n/a	nurses voltage employ scared\n
66.837	0.044	133674	keystroke_n	n	n/a
66.956	0.09	133912	keystroke_n	n	n/a
67.391	0.06	134782	keystroke_Key.backspace	Key.backspace	n/a
67.676	0.075	135352	keystroke_u	u	n/a
67.826	0.121	135652	keystroke_r	r	n/a
68.051	0.195	136102	keystroke_s	s	n/a
68.172	0.254	136344	keystroke_e	e	n/a
68.336	0.18	136672	keystroke_s	s	n/a
68.906	0.12	137812	keystroke_Key.space	Key.space	n/a
69.072	0.089	138144	keystroke_v	v	n/a
69.147	0.059	138294	keystroke_o	o	n/a
69.326	0.091	138652	keystroke_l	l	n/a
69.431	0.09	138862	keystroke_t	t	n/a
69.567	0.135	139134	keystroke_a	a	n/a
69.746	0.1805	139492	keystroke_g	g	n/a
69.8665	0.135	139733	keystroke_e	e	n/a
70.0165	0.15	140033	keystroke_Key.space	Key.space	n/a
70.3015	0.135	140603	keystroke_e	e	n/a
70.4215	0.12	140843	keystroke_m	m	n/a
70.4965	0.18	140993	keystroke_p	p	n/a
70.6465	0.12	141293	keystroke_l	l	n/a
70.8415	0.09	141683	keystroke_o	o	n/a
71.051	0.165	142102	keystroke_y	y	n/a
71.201	0.12	142402	keystroke_Key.space	Key.space	n/a
71.472	0.225	142944	keystroke_s	s	n/a
71.591	0.21	143182	keystroke_c	c	n/a
71.741	0.165	143482	keystroke_a	a	n/a
71.981	0.151	143962	keystroke_r	r	n/a
72.086	0.165	144172	keystroke_e	e	n/a
72.296	0.105	144592	keystroke_d	d	n/a
72.581	0.105	145162	keystroke_Key.enter	Key.enter	n/a
72.69	7.033	145380	prompt	n/a	bizrate parents dublin cheap\n
73.6615	0.105	147323	keystroke_b	b	n/a
73.7215	0.135	147443	keystroke_i	i	n/a
73.9615	0.105	147923	keystroke_z	z	n/a
74.1415	0.105	148283	keystroke_r	r	n/a
74.2915	0.12	148583	keystroke_a	a	n/a
74.4265	0.105	148853	keystroke_t	t	n/a
74.5915	0.12	149183	keystroke_e	e	n/a
74.7415	0.1045	149483	keystroke_Key.space	Key.space	n/a
75.0865	0.105	150173	keystroke_p	p	n/a
75.1465	0.105	150293	keystroke_a	a	n/a
75.3415	0.165	150683	keystroke_r	r	n/a
75.4315	0.135	150863	keystroke_e	e	n/a
75.5815	0.105	151163	keystroke_n	n	n/a
75.6715	0.225	151343	keystroke_t	t	n/a
75.8065	0.165	151613	keystroke_s	s	n/a
76.1515	0.12	152303	keystroke_Key.space	Key.space	n/a
76.4515	0.105	152903	keystroke_d	d	n/a
76.6165	0.12	153233	keystroke_u	u	n/a
76.7065	0.105	153413	keystroke_b	b	n/a
76.9015	0.105	153803	keystroke_l	l	n/a
77.081	0.1355	154162	keystroke_i	i	n/a
77.156	0.2105	154312	keystroke_n	n	n/a
77.3215	0.12	154643	keystroke_Key.space	Key.space	n/a
77.5015	0.135	155003	keystroke_c	c	n/a
77.6215	0.105	155243	keystroke_h	h	n/a
77.7265	0.2255	155453	keystroke_e	e	n/a
77.816	0.196	155632	keystroke_a	a	n/a
78.056	0.15	156112	keystroke_p	p	n/a
79.616	0.105	159232	keystroke_Key.enter	Key.enter	n/a
79.7325	6.11	159465	prompt	n/a	repeated feof moreover dying\n
80.4115	0.135	160823	keystroke_r	r	n/a
80.4715	0.135	160943	keystroke_e	e	n/a
80.5915	0.12	161183	keystroke_p	p	n/a
80.6965	0.135	161393	keystroke_e	e	n/a
80.8015	0.135	161603	keystroke_a	a	n/a
80.9815	0.12	161963	keystroke_t	t	n/a
81.0565	0.105	162113	keystroke_e	e	n/a
81.2815	0.09	162563	keystroke_d	d	n/a
81.3865	0.105	162773	keystroke_Key.space	Key.space	n/a
81.5065	0.135	163013	keystroke_f	f	n/a
81.8665	0.1345	163733	keystroke_e	e	n/a
82.106	0.135	164212	keystroke_o	o	n/a
82.526	0.135	165052	keystroke_f	f	n/a
82.841	0.12	165682	keystroke_Key.space	Key.space	n/a
83.156	0.075	166312	keystroke_m	m	n/a
83.321	0.09	166642	keystroke_o	o	n/a
83.396	0.12	166792	keystroke_r	r	n/a
83.591	0.12	167182	keystroke_e	e	n/a
83.786	0.12	167572	keystroke_o	o	n/a
83.891	0.1505	167782	keystroke_v	v	n/a
84.0565	0.2545	168113	keystroke_e	e	n/a
84.2065	0.1645	168413	keystroke_r	r	n/a
84.476	0.165	168952	keystroke_Key.space	Key.space	n/a
84.671	0.105	169342	keystroke_d	d	n/a
84.821	0.075	169642	keystroke_y	y	n/a
85.061	0.18	170122	keystroke_i	i	n/a
85.181	0.121	170362	keystroke_n	n	n/a
85.286	0.09	170572	keystroke_g	g	n/a
85.721	0.12	171442	keystroke_Key.enter	Key.enter	n/a
85.8495	7.9135	171699	prompt	n/a	forward upcoming kenneth discovery\n
86.606	0.09	173212	keystroke_f	f	n/a
86.711	0.09	173422	keystroke_o	o	n/a
86.786	0.075	173572	keystroke_r	r	n/a
86.981	0.15	173962	keystroke_w	w	n/a
87.056	0.165	174112	keystroke_a	a	n/a
87.236	0.09	174472	keystroke_r	r	n/a
87.431	0.09	174862	keystroke_d	d	n/a
87.491	0.09	174982	keystroke_Key.space	Key.space	n/a
87.641	0.075	175282	keystroke_u	u	n/a
87.821	0.09	175642	keystroke_p	p	n/a
88.1365	0.105	176273	keystroke_c	c	n/a
88.2265	0.135	176453	keystroke_o	o	n/a
88.3165	0.165	176633	keystroke_m	m	n/a
88.5415	0.03	177083	keystroke_o	o	n/a
88.6015	0.18	177203	keystroke_i	i	n/a
89.156	0.09	178312	keystroke_Key.backspace	Key.backspace	n/a
89.381	0.06	178762	keystroke_Key.backspace	Key.backspace	n/a
89.606	0.135	179212	keystroke_i	i	n/a
89.697	0.149	179394	keystroke_n	n	n/a
89.891	0.09	179782	keystroke_g	g	n/a
90.0565	0.1045	180113	keystroke_Key.space	Key.space	n/a
90.836	0.135	181672	keystroke_k	k	n/a
90.987	0.0595	181974	keystroke_e	e	n/a
91.0615	0.075	182123	keystroke_n	n	n/a
91.1965	0.105	182393	keystroke_n	n	n/a
91.2865	0.15	182573	keystroke_e	e	n/a
91.4515	0.15	182903	keystroke_t	t	n/a
91.5865	0.135	183173	keystroke_h	h	n/a
91.6615	0.134	183323	keystroke_Key.space	Key.space	n/a
91.8565	0.105	183713	keystroke_d	d	n/a
91.9915	0.12	183983	keystroke_i	i	n/a
92.0965	0.18	184193	keystroke_s	s	n/a
92.2315	0.135	184463	keystroke_c	c	n/a
92.4115	0.105	184823	keystroke_o	o	n/a
92.5615	0.1045	185123	keystroke_v	v	n/a
92.8165	0.1645	185633	keystroke_e	e	n/a
92.906	0.15	185812	keystroke_r	r	n/a
93.311	0.12	186622	keystroke_y	y	n/a
93.641	0.12	187282	keystroke_Key.enter	Key.enter	n/a
93.7725	5.2405	187545	prompt	n/a	busy millions stones roads\n
94.5115	0.165	189023	keystroke_b	b	n/a
94.5715	0.015	189143	keystroke_u	u	n/a
94.6315	0.135	189263	keystroke_u	u	n/a
95.081	0.06	190162	keystroke_Key.backspace	Key.backspace	n/a
95.651	0.105	191302	keystroke_s	s	n/a
95.771	0.09	191542	keystroke_y	y	n/a
95.816	0.105	191632	keystroke_Key.space	Key.space	n/a
96.041	0.075	192082	keystroke_m	m	n/a
96.176	0.075	192352	keystroke_i	i	n/a
96.371	0.06	192742	keystroke_l	l	n/a
96.491	0.105	192982	keystroke_l	l	n/a
96.686	0.165	193372	keystroke_i	i	n/a
96.761	0.226	193522	keystroke_o	o	n/a
96.896	0.18	193792	keystroke_n	n	n/a
97.046	0.135	194092	keystroke_s	s	n/a
97.166	0.105	194332	keystroke_Key.space	Key.space	n/a
97.301	0.105	194602	keystroke_s	s	n/a
97.496	0.12	194992	keystroke_t	t	n/a
97.571	0.21	195142	keystroke_o	o	n/a
97.646	0.15	195292	keystroke_n	n	n/a
97.706	0.255	195412	keystroke_e	e	n/a
97.841	0.1805	195682	keystroke_s	s	n/a
98.051	0.105	196102	keystroke_Key.space	Key.space	n/a
98.216	0.105	196432	keystroke_r	r	n/a
98.2915	0.1195	196583	keystroke_o	o	n/a
98.366	0.165	196732	keystroke_a	a	n/a
98.501	0.225	197002	keystroke_d	d	n/a
98.651	0.18	197302	keystroke_s	s	n/a
98.921	0.09	197842	keystroke_Key.enter	Key.enter	n/a
99.0155	8.4875	198031	prompt	n/a	permalink fixtures frequency reduce\n
99.7165	0.135	199433	keystroke_p	p	n/a
99.7915	0.165	199583	keystroke_e	e	n/a
99.8815	0.15	199763	keystroke_r	r	n/a
100.0155	0.106	200031	keystroke_m	m	n/a
100.1065	0.135	200213	keystroke_a	a	n/a
100.4815	0.09	200963	keystroke_l	l	n/a
100.6615	0.105	201323	keystroke_i	i	n/a
100.7665	0.149	201533	keystroke_n	n	n/a
100.8865	0.15	201773	keystroke_k	k	n/a
101.0215	0.12	202043	keystroke_Key.space	Key.space	n/a
101.547	0.104	203094	keystroke_f	f	n/a
101.667	0.105	203334	keystroke_i	i	n/a
101.801	0.076	203602	keystroke_x	x	n/a
102.071	0.076	204142	keystroke_t	t	n/a
102.191	0.0905	204382	keystroke_u	u	n/a
102.251	0.2405	204502	keystroke_r	r	n/a
102.3715	0.255	204743	keystroke_e	e	n/a
102.4915	0.165	204983	keystroke_s	s	n/a
102.6865	0.09	205373	keystroke_Key.space	Key.space	n/a
102.8515	0.225	205703	keystroke_f	f	n/a
103.2565	0.195	206513	keystroke_r	r	n/a
103.3615	0.18	206723	keystroke_e	e	n/a
104.1265	0.09	208253	keystroke_q	q	n/a
104.2315	0.1195	208463	keystroke_u	u	n/a
104.336	0.12	208672	keystroke_e	e	n/a
104.471	0.09	208942	keystroke_n	n	n/a
104.682	0.149	209364	keystroke_c	c	n/a
104.861	0.165	209722	keystroke_y	y	n/a
104.966	0.135	209932	keystroke_Key.space	Key.space	n/a
105.281	0.195	210562	keystroke_r	r	n/a
105.326	0.03	210652	keystroke_e	e	n/a
105.431	0.12	210862	keystroke_e	e	n/a
105.926	0.09	211852	keystroke_Key.backspace	Key.backspace	n/a
106.316	0.105	212632	keystroke_d	d	n/a
106.497	0.104	212994	keystroke_u	u	n/a
106.587	0.075	213174	keystroke_c	c	n/a
106.812	0.06	213624	keystroke_e	e	n/a
107.397	0.104	214794	keystroke_Key.enter	Key.enter	n/a
107.513	10.2655	215026	prompt	n/a	arrangement validity occupational genetics\n
108.252	0.0895	216504	keystroke_a	a	n/a
108.4615	0.06	216923	keystroke_r	r	n/a
108.5815	0.15	217163	keystroke_r	r	n/a
108.6715	0.135	217343	keystroke_a	a	n/a
108.8965	0.135	217793	keystroke_n	n	n/a
109.0165	0.15	218033	keystroke_g	g	n/a
109.0765	0.15	218153	keystroke_e	e	n/a
109.991	0.075	219982	keystroke_m	m	n/a
110.051	0.12	220102	keystroke_e	e	n/a
110.172	0.104	220344	keystroke_n	n	n/a
110.246	0.105	220492	keystroke_t	t	n/a
110.381	0.09	220762	keystroke_Key.space	Key.space	n/a
110.621	0.255	221242	keystroke_v	v	n/a
110.816	0.15	221632	keystroke_a	a	n/a
110.936	0.105	221872	keystroke_l	l	n/a
111.161	0.06	222322	keystroke_i	i	n/a
111.251	0.09	222502	keystroke_d	d	n/a
111.356	0.075	222712	keystroke_i	i	n/a
111.446	0.09	222892	keystroke_d	d	n/a
111.746	0.106	223492	keystroke_t	t	n/a
111.837	0.1495	223674	keystroke_y	y	n/a
111.9565	0.105	223913	keystroke_Key.space	Key.space	n/a
112.2865	0.06	224573	keystroke_Key.backspace	Key.backspace	n/a
112.4365	0.045	224873	keystroke_Key.backspace	Key.backspace	n/a
112.5715	0.06	225143	keystroke_Key.backspace	Key.backspace	n/a
112.7215	0.075	225443	keystroke_Key.backspace	Key.backspace	n/a
113.5915	0.075	227183	keystroke_t	t	n/a
113.6665	0.165	227333	keystroke_y	y	n/a
113.7565	0.15	227513	keystroke_Key.space	Key.space	n/a
114.2965	0.105	228593	keystroke_o	o	n/a
114.4765	0.09	228953	keystroke_c	c	n/a
114.6415	0.105	229283	keystroke_c	c	n/a
114.7605	0.0765	229521	keystroke_u	u	n/a
114.882	0.135	229764	keystroke_p	p	n/a
114.972	0.104	229944	keystroke_a	a	n/a
115.137	0.12	230274	keystroke_t	t	n/a
115.227	0.225	230454	keystroke_i	i	n/a
115.332	0.18	230664	keystroke_o	o	n/a
115.437	0.15	230874	keystroke_n	n	n/a
115.587	0.135	231174	keystroke_a	a	n/a
115.707	0.135	231414	keystroke_l	l	n/a
115.797	0.105	231594	keystroke_Key.space	Key.space	n/a
116.216	0.165	232432	keystroke_g	g	n/a
116.321	0.12	232642	keystroke_e	e	n/a
116.456	0.076	232912	keystroke_n	n	n/a
116.516	0.135	233032	keystroke_e	e	n/a
116.741	0.09	233482	keystroke_t	t	n/a
116.891	0.1505	233782	keystroke_i	i	n/a
117.0265	0.18	234053	keystroke_c	c	n/a
117.1315	0.135	234263	keystroke_s	s	n/a
117.6865	0.09	235373	keystroke_Key.enter	Key.enter	n/a
117.7875	14.3305	235575	prompt	n/a	interventions aggressive evaluation schemes\n
118.4215	0.135	236843	keystroke_i	i	n/a
118.5265	0.1205	237053	keystroke_n	n	n/a
118.721	0.1055	237442	keystroke_t	t	n/a
118.7965	0.21	237593	keystroke_e	e	n/a
118.9465	0.1795	237893	keystroke_r	r	n/a
119.141	0.105	238282	keystroke_v	v	n/a
119.261	0.12	238522	keystroke_e	e	n/a
119.426	0.09	238852	keystroke_n	n	n/a
119.531	0.09	239062	keystroke_t	t	n/a
119.996	0.195	239992	keystroke_i	i	n/a
120.116	0.21	240232	keystroke_o	o	n/a
120.236	0.165	240472	keystroke_n	n	n/a
120.416	0.136	240832	keystroke_s	s	n/a
120.566	0.12	241132	keystroke_Key.space	Key.space	n/a
120.806	0.075	241612	keystroke_a	a	n/a
121.016	0.075	242032	keystroke_g	g	n/a
121.166	0.15	242332	keystroke_g	g	n/a
121.271	0.12	242542	keystroke_r	r	n/a
121.4805	0.1205	242961	keystroke_e	e	n/a
121.871	0.09	243742	keystroke_s	s	n/a
122.051	0.105	244102	keystroke_s	s	n/a
122.186	0.135	244372	keystroke_i	i	n/a
122.306	0.135	244612	keystroke_v	v	n/a
122.531	0.105	245062	keystroke_e	e	n/a
122.651	0.105	245302	keystroke_Key.space	Key.space	n/a
122.771	0.075	245542	keystroke_e	e	n/a
122.996	0.166	245992	keystroke_c	c	n/a
123.086	0.135	246172	keystroke_a	a	n/a
123.237	0.089	246474	keystroke_l	l	n/a
123.477	0.074	246954	keystroke_u	u	n/a
123.671	0.12	247342	keystroke_a	a	n/a
123.881	0.105	247762	keystroke_t	t	n/a
124.002	0.209	248004	keystroke_i	i	n/a
124.122	0.18	248244	keystroke_o	o	n/a
124.181	0.211	248362	keystroke_n	n	n/a
124.361	0.09	248722	keystroke_Key.space	Key.space	n/a
124.421	0.12	248842	keystroke_s	s	n/a
124.631	0.121	249262	keystroke_c	c	n/a
124.706	0.136	249412	keystroke_h	h	n/a
124.857	0.074	249714	keystroke_e	e	n/a
124.992	0.09	249984	keystroke_m	m	n/a
125.082	0.089	250164	keystroke_e	e	n/a
125.906	0.06	251812	keystroke_Key.backspace	Key.backspace	n/a
126.086	0.045	252172	keystroke_Key.backspace	Key.backspace	n/a
126.236	0.045	252472	keystroke_Key.backspace	Key.backspace	n/a
126.386	0.06	252772	keystroke_Key.backspace	Key.backspace	n/a
126.536	0.06	253072	keystroke_Key.backspace	Key.backspace	n/a
126.716	0.045	253432	keystroke_Key.backspace	Key.backspace	n/a
126.896	0.06	253792	keystroke_Key.backspace	Key.backspace	n/a
127.0615	0.045	254123	keystroke_Key.backspace	Key.backspace	n/a
127.2415	0.045	254483	keystroke_Key.backspace	Key.backspace	n/a
127.4065	0.06	254813	keystroke_Key.backspace	Key.backspace	n/a
127.5715	0.045	255143	keystroke_Key.backspace	Key.backspace	n/a
127.7365	0.06	255473	keystroke_Key.backspace	Key.backspace	n/a
127.9015	0.06	255803	keystroke_Key.backspace	Key.backspace	n/a
128.0665	0.06	256133	keystroke_Key.backspace	Key.backspace	n/a
128.2765	0.045	256553	keystroke_Key.backspace	Key.backspace	n/a
128.6065	0.045	257213	keystroke_Key.backspace	Key.backspace	n/a
129.1615	0.15	258323	keystroke_v	v	n/a
129.222	0.1495	258444	keystroke_a	a	n/a
129.3415	0.075	258683	keystroke_l	l	n/a
129.5215	0.09	259043	keystroke_u	u	n/a
129.6565	0.1055	259313	keystroke_a	a	n/a
129.8365	0.12	259673	keystroke_t	t	n/a
129.9415	0.21	259883	keystroke_i	i	n/a
130.0165	0.21	260033	keystroke_o	o	n/a
130.1065	0.195	260213	keystroke_n	n	n/a
130.2715	0.135	260543	keystroke_s	s	n/a
130.4515	0.075	260903	keystroke_Key.space	Key.space	n/a
130.8715	0.105	261743	keystroke_s	s	n/a
131.052	0.1045	262104	keystroke_c	c	n/a
131.1865	0.105	262373	keystroke_h	h	n/a
131.3065	0.09	262613	keystroke_e	e	n/a
131.412	0.1045	262824	keystroke_m	m	n/a
131.5015	0.225	263003	keystroke_e	e	n/a
131.6515	0.135	263303	keystroke_s	s	n/a
132.0265	0.09	264053	keystroke_Key.enter	Key.enter	n/a
132.127	6.591	264254	prompt	n/a	financial vessel scary kinda\n
132.776	0.136	265552	keystroke_f	f	n/a
132.927	0.164	265854	keystroke_i	i	n/a
133.016	0.165	266032	keystroke_n	n	n/a
133.196	0.165	266392	keystroke_i	i	n/a
134.336	0.15	268672	keystroke_Key.backspace	Key.backspace	n/a
134.8015	0.09	269603	keystroke_a	a	n/a
134.9065	0.105	269813	keystroke_n	n	n/a
135.0265	0.09	270053	keystroke_c	c	n/a
135.1615	0.105	270323	keystroke_i	i	n/a
135.2815	0.105	270563	keystroke_a	a	n/a
135.4015	0.12	270803	keystroke_l	l	n/a
135.4915	0.12	270983	keystroke_Key.space	Key.space	n/a
135.8665	0.105	271733	keystroke_v	v	n/a
136.0765	0.135	272153	keystroke_e	e	n/a
136.1965	0.105	272393	keystroke_s	s	n/a
136.3765	0.18	272753	keystroke_s	s	n/a
136.5115	0.135	273023	keystroke_e	e	n/a
136.6315	0.135	273263	keystroke_l	l	n/a
136.6915	0.12	273383	keystroke_Key.space	Key.space	n/a
136.7365	0.21	273473	keystroke_s	s	n/a
136.9165	0.24	273833	keystroke_c	c	n/a
137.0815	0.15	274163	keystroke_a	a	n/a
137.3665	0.105	274733	keystroke_r	r	n/a
137.4565	0.12	274913	keystroke_y	y	n/a
137.5315	0.12	275063	keystroke_Key.space	Key.space	n/a
137.7415	0.09	275483	keystroke_k	k	n/a
137.9815	0.195	275963	keystroke_i	i	n/a
138.0715	0.165	276143	keystroke_n	n	n/a
138.2065	0.18	276413	keystroke_d	d	n/a
138.3265	0.18	276653	keystroke_a	a	n/a
138.6415	0.075	277283	keystroke_Key.enter	Key.enter	n/a
138.734	6.194	277468	prompt	n/a	hills vintage higher abilities\n
139.511	0.12	279022	keystroke_h	h	n/a
139.571	0.135	279142	keystroke_i	i	n/a
139.811	0.075	279622	keystroke_l	l	n/a
139.9465	0.105	279893	keystroke_l	l	n/a
140.0365	0.105	280073	keystroke_s	s	n/a
140.1265	0.1195	280253	keystroke_Key.space	Key.space	n/a
140.291	0.135	280582	keystroke_v	v	n/a
140.396	0.165	280792	keystroke_i	i	n/a
140.502	0.149	281004	keystroke_n	n	n/a
140.606	0.12	281212	keystroke_t	t	n/a
140.741	0.12	281482	keystroke_a	a	n/a
140.921	0.15	281842	keystroke_g	g	n/a
141.026	0.15	282052	keystroke_e	e	n/a
141.191	0.1355	282382	keystroke_Key.space	Key.space	n/a
141.5965	0.105	283193	keystroke_h	h	n/a
141.6565	0.15	283313	keystroke_i	i	n/a
141.7765	0.105	283553	keystroke_g	g	n/a
141.8965	0.12	283793	keystroke_h	h	n/a
142.0465	0.135	284093	keystroke_t	t	n/a
142.4665	0.09	284933	keystroke_Key.backspace	Key.backspace	n/a
142.5715	0.1655	285143	keystroke_e	e	n/a
142.6765	0.1495	285353	keystroke_r	r	n/a
142.841	0.105	285682	keystroke_Key.space	Key.space	n/a
142.962	0.104	285924	keystroke_a	a	n/a
143.082	0.059	286164	keystroke_l	l	n/a
143.3815	0.09	286763	keystroke_Key.backspace	Key.backspace	n/a
143.4865	0.09	286973	keystroke_b	b	n/a
143.6065	0.09	287213	keystroke_i	i	n/a
143.7715	0.09	287543	keystroke_l	l	n/a
143.9515	0.075	287903	keystroke_i	i	n/a
144.0715	0.135	288143	keystroke_t	t	n/a
144.1915	0.1045	288383	keystroke_i	i	n/a
144.3115	0.18	288623	keystroke_e	e	n/a
144.4015	0.165	288803	keystroke_s	s	n/a
144.8215	0.105	289643	keystroke_Key.enter	Key.enter	n/a
144.933	5.065	289866	prompt	n/a	income what've comes orleans\n
145.5715	0.18	291143	keystroke_i	i	n/a
145.6615	0.135	291323	keystroke_n	n	n/a
145.8565	0.1495	291713	keystroke_c	c	n/a
146.051	0.15	292102	keystroke_o	o	n/a
146.111	0.135	292222	keystroke_m	m	n/a
146.247	0.119	292494	keystroke_e	e	n/a
146.351	0.105	292702	keystroke_Key.space	Key.space	n/a
146.471	0.15	292942	keystroke_w	w	n/a
146.531	0.12	293062	keystroke_h	h	n/a
146.606	0.12	293212	keystroke_a	a	n/a
146.786	0.105	293572	keystroke_t	t	n/a
146.906	0.135	293812	keystroke_'	'	n/a
147.056	0.165	294112	keystroke_v	v	n/a
147.161	0.135	294322	keystroke_e	e	n/a
147.7315	0.1195	295463	keystroke_Key.space	Key.space	n/a
148.061	0.12	296122	keystroke_c	c	n/a
148.151	0.24	296302	keystroke_o	o	n/a
148.271	0.15	296542	keystroke_m	m	n/a
148.407	0.209	296814	keystroke_e	e	n/a
148.511	0.165	297022	keystroke_s	s	n/a
148.646	0.105	297292	keystroke_Key.space	Key.space	n/a
148.781	0.135	297562	keystroke_o	o	n/a
148.917	0.164	297834	keystroke_r	r	n/a
149.006	0.12	298012	keystroke_e	e	n/a
149.141	0.121	298282	keystroke_l	l	n/a
149.246	0.15	298492	keystroke_e	e	n/a
149.321	0.18	298642	keystroke_a	a	n/a
149.486	0.09	298972	keystroke_n	n	n/a
149.561	0.09	299122	keystroke_s	s	n/a
149.936	0.0605	299872	keystroke_Key.enter	Key.enter	n/a
150.0025	4.7505	300005	prompt	n/a	belong tribes july islands\n
150.7465	0.075	301493	keystroke_b	b	n/a
150.7915	0.12	301583	keystroke_e	e	n/a
150.9265	0.09	301853	keystroke_l	l	n/a
151.1365	0.15	302273	keystroke_o	o	n/a
151.2265	0.165	302453	keystroke_n	n	n/a
151.3765	0.12	302753	keystroke_g	g	n/a
151.5115	0.135	303023	keystroke_Key.space	Key.space	n/a
151.8115	0.165	303623	keystroke_t	t	n/a
151.8715	0.15	303743	keystroke_r	r	n/a
152.0065	0.18	304013	keystroke_i	i	n/a
152.1565	0.1805	304313	keystroke_b	b	n/a
152.2915	0.1945	304583	keystroke_e	e	n/a
152.396	0.18	304792	keystroke_s	s	n/a
152.591	0.09	305182	keystroke_Key.space	Key.space	n/a
152.712	0.089	305424	keystroke_j	j	n/a
152.861	0.09	305722	keystroke_u	u	n/a
153.071	0.075	306142	keystroke_l	l	n/a
153.191	0.09	306382	keystroke_y	y	n/a
153.311	0.06	306622	keystroke_Key.space	Key.space	n/a
153.491	0.075	306982	keystroke_i	i	n/a
153.641	0.105	307282	keystroke_s	s	n/a
153.747	0.074	307494	keystroke_l	l	n/a
153.851	0.09	307702	keystroke_a	a	n/a
153.956	0.09	307912	keystroke_n	n	n/a
154.076	0.2555	308152	keystroke_d	d	n/a
154.2265	0.15	308453	keystroke_s	s	n/a
154.6615	0.09	309323	keystroke_Key.enter	Key.enter	n/a
154.756	6.327	309512	prompt	n/a	accepts guru compact advertisers\n
155.4265	0.09	310853	keystroke_a	a	n/a
155.6215	0.0745	311243	keystroke_c	c	n/a
155.741	0.105	311482	keystroke_c	c	n/a
155.891	0.105	311782	keystroke_e	e	n/a
156.041	0.12	312082	keystroke_p	p	n/a
156.101	0.255	312202	keystroke_t	t	n/a
156.251	0.18	312502	keystroke_s	s	n/a
156.446	0.12	312892	keystroke_Key.space	Key.space	n/a
157.106	0.105	314212	keystroke_g	g	n/a
157.166	0.18	314332	keystroke_u	u	n/a
157.331	0.135	314662	keystroke_r	r	n/a
157.436	0.165	314872	keystroke_u	u	n/a
157.556	0.135	315112	keystroke_Key.space	Key.space	n/a
157.736	0.105	315472	keystroke_c	c	n/a
157.856	0.165	315712	keystroke_o	o	n/a
157.931	0.15	315862	keystroke_m	m	n/a
158.036	0.225	316072	keystroke_p	p	n/a
158.126	0.18	316252	keystroke_a	a	n/a
158.216	0.15	316432	keystroke_c	c	n/a
158.531	0.105	317062	keystroke_t	t	n/a
158.651	0.12	317302	keystroke_Key.space	Key.space	n/a
158.741	0.1655	317482	keystroke_a	a	n/a
158.8615	0.12	317723	keystroke_d	d	n/a
159.1315	0.045	318263	keystroke_v	v	n/a
159.4765	0.15	318953	keystroke_e	e	n/a
159.5665	0.12	319133	keystroke_r	r	n/a
159.9415	0.105	319883	keystroke_t	t	n/a
160.0915	0.165	320183	keystroke_i	i	n/a
160.2265	0.21	320453	keystroke_s	s	n/a
160.3465	0.165	320693	keystroke_e	e	n/a
160.4515	0.255	320903	keystroke_r	r	n/a
160.6165	0.165	321233	keystroke_s	s	n/a
161.007	0.075	322014	keystroke_Key.enter	Key.enter	n/a
161.086	5.4415	322172	prompt	n/a	laugh circus football shakira\n
161.606	0.12	323212	keystroke_l	l	n/a
161.681	0.105	323362	keystroke_a	a	n/a
161.847	0.09	323694	keystroke_u	u	n/a
161.922	0.09	323844	keystroke_g	g	n/a
162.041	0.1505	324082	keystroke_h	h	n/a
162.146	0.1205	324292	keystroke_Key.space	Key.space	n/a
162.2965	0.135	324593	keystroke_c	c	n/a
162.6415	0.15	325283	keystroke_i	i	n/a
163.6465	0.075	327293	keystroke_r	r	n/a
163.8715	0.09	327743	keystroke_c	c	n/a
164.0215	0.105	328043	keystroke_u	u	n/a
164.1415	0.12	328283	keystroke_s	s	n/a
164.2465	0.12	328493	keystroke_Key.space	Key.space	n/a
164.3965	0.12	328793	keystroke_f	f	n/a
164.5175	0.074	329035	keystroke_o	o	n/a
164.6665	0.09	329333	keystroke_o	o	n/a
164.771	0.1055	329542	keystroke_t	t	n/a
164.9065	0.0895	329813	keystroke_b	b	n/a
165.011	0.12	330022	keystroke_a	a	n/a
165.146	0.045	330292	keystroke_l	l	n/a
165.281	0.12	330562	keystroke_l	l	n/a
165.386	0.105	330772	keystroke_Key.space	Key.space	n/a
165.506	0.09	331012	keystroke_s	s	n/a
165.612	0.089	331224	keystroke_h	h	n/a
165.716	0.106	331432	keystroke_a	a	n/a
165.836	0.09	331672	keystroke_k	k	n/a
166.002	0.134	332004	keystroke_i	i	n/a
166.121	0.18	332242	keystroke_r	r	n/a
166.211	0.1655	332422	keystroke_a	a	n/a
166.4365	0.09	332873	keystroke_Key.enter	Key.enter	n/a
166.5305	9.4325	333061	prompt	n/a	indonesian predictions programmes permits\n
167.3515	0.195	334703	keystroke_i	i	n/a
167.5015	0.135	335003	keystroke_n	n	n/a
167.7115	0.15	335423	keystroke_d	d	n/a
167.8765	0.135	335753	keystroke_o	o	n/a
168.372	0.1345	336744	keystroke_n	n	n/a
168.4765	0.2105	336953	keystroke_e	e	n/a
168.6115	0.15	337223	keystroke_s	s	n/a
168.7915	0.12	337583	keystroke_i	i	n/a
168.8965	0.12	337793	keystroke_a	a	n/a
169.0315	0.15	338063	keystroke_n	n	n/a
169.167	0.119	338334	keystroke_Key.space	Key.space	n/a
169.347	0.164	338694	keystroke_p	p	n/a
169.496	0.135	338992	keystroke_r	r	n/a
169.571	0.151	339142	keystroke_e	e	n/a
170.7865	0.09	341573	keystroke_d	d	n/a
170.9065	0.09	341813	keystroke_i	i	n/a
171.0115	0.105	342023	keystroke_c	c	n/a
171.282	0.0895	342564	keystroke_t	t	n/a
171.3725	0.149	342745	keystroke_i	i	n/a
171.4915	0.21	342983	keystroke_o	o	n/a
171.6115	0.135	343223	keystroke_n	n	n/a
171.7615	0.12	343523	keystroke_s	s	n/a
171.9115	0.135	343823	keystroke_Key.space	Key.space	n/a
172.1965	0.12	344393	keystroke_p	p	n/a
172.3765	0.12	344753	keystroke_r	r	n/a
172.5115	0.105	345023	keystroke_o	o	n/a
172.6615	0.12	345323	keystroke_g	g	n/a
172.7215	0.12	345443	keystroke_r	r	n/a
172.9465	0.1055	345893	keystroke_a	a	n/a
173.036	0.061	346072	keystroke_m	m	n/a
173.187	0.105	346374	keystroke_m	m	n/a
173.2765	0.1945	346553	keystroke_e	e	n/a
173.367	0.15	346734	keystroke_s	s	n/a
173.547	0.105	347094	keystroke_Key.space	Key.space	n/a
174.2515	0.12	348503	keystroke_p	p	n/a
174.3415	0.15	348683	keystroke_e	e	n/a
174.4315	0.15	348863	keystroke_r	r	n/a
174.5215	0.165	349043	keystroke_m	m	n/a
174.6415	0.18	349283	keystroke_i	i	n/a
174.7465	0.21	349493	keystroke_t	t	n/a
174.8515	0.2245	349703	keystroke_e	e	n/a
175.0165	0.0745	350033	keystroke_s	s	n/a
175.331	0.075	350662	keystroke_Key.backspace	Key.backspace	n/a
175.481	0.09	350962	keystroke_Key.backspace	Key.backspace	n/a
175.601	0.09	351202	keystroke_s	s	n/a
175.886	0.0755	351772	keystroke_Key.enter	Key.enter	n/a
175.9725	7.355	351945	prompt	n/a	mrna lift magical prayer\n
176.907	0.105	353814	keystroke_m	m	n/a
177.041	0.24	354082	keystroke_r	r	n/a
177.192	0.045	354384	keystroke_a	a	n/a
177.596	0.06	355192	keystroke_Key.backspace	Key.backspace	n/a
177.8365	0.105	355673	keystroke_n	n	n/a
177.9565	0.0895	355913	keystroke_a	a	n/a
178.061	0.0905	356122	keystroke_Key.space	Key.space	n/a
178.2415	0.075	356483	keystroke_l	l	n/a
178.407	0.09	356814	keystroke_i	i	n/a
178.542	0.045	357084	keystroke_g	g	n/a
178.917	0.09	357834	keystroke_Key.backspace	Key.backspace	n/a
179.022	0.1045	358044	keystroke_f	f	n/a
179.2615	0.075	358523	keystroke_t	t	n/a
180.011	0.09	360022	keystroke_Key.space	Key.space	n/a
180.191	0.105	360382	keystroke_m	m	n/a
180.281	0.09	360562	keystroke_a	a	n/a
180.566	0.091	361132	keystroke_i	i	n/a
181.301	0.075	362602	keystroke_Key.backspace	Key.backspace	n/a
181.436	0.105	362872	keystroke_g	g	n/a
181.556	0.12	363112	keystroke_i	i	n/a
181.736	0.195	363472	keystroke_c	c	n/a
181.841	0.195	363682	keystroke_a	a	n/a
181.976	0.135	363952	keystroke_l	l	n/a
182.081	0.105	364162	keystroke_Key.space	Key.space	n/a
182.246	0.1205	364492	keystroke_p	p	n/a
182.336	0.1805	364672	keystroke_r	r	n/a
182.4415	0.21	364883	keystroke_a	a	n/a
182.6665	0.135	365333	keystroke_y	y	n/a
182.7865	0.255	365573	keystroke_e	e	n/a
182.8915	0.21	365783	keystroke_r	r	n/a
183.266	0.06	366532	keystroke_Key.enter	Key.enter	n/a
183.3325	6.0715	366665	prompt	n/a	photograph harper keyboard powell\n
184.016	0.1805	368032	keystroke_p	p	n/a
184.151	0.1205	368302	keystroke_h	h	n/a
184.2415	0.105	368483	keystroke_o	o	n/a
184.3615	0.105	368723	keystroke_t	t	n/a
184.4515	0.12	368903	keystroke_o	o	n/a
184.6165	0.15	369233	keystroke_g	g	n/a
184.7065	0.135	369413	keystroke_r	r	n/a
184.9015	0.1645	369803	keystroke_a	a	n/a
185.0215	0.2395	370043	keystroke_p	p	n/a
185.126	0.165	370252	keystroke_h	h	n/a
185.231	0.12	370462	keystroke_Key.space	Key.space	n/a
185.396	0.105	370792	keystroke_h	h	n/a
185.441	0.18	370882	keystroke_a	a	n/a
185.561	0.135	371122	keystroke_r	r	n/a
186.206	0.1355	372412	keystroke_p	p	n/a
186.267	0.209	372534	keystroke_e	e	n/a
186.386	0.166	372772	keystroke_r	r	n/a
186.566	0.09	373132	keystroke_Key.space	Key.space	n/a
186.686	0.105	373372	keystroke_k	k	n/a
186.806	0.09	373612	keystroke_e	e	n/a
186.911	0.105	373822	keystroke_y	y	n/a
187.136	0.15	374272	keystroke_b	b	n/a
187.226	0.195	374452	keystroke_o	o	n/a
187.301	0.165	374602	keystroke_a	a	n/a
187.406	0.105	374812	keystroke_r	r	n/a
187.9465	0.12	375893	keystroke_d	d	n/a
188.1115	0.09	376223	keystroke_Key.space	Key.space	n/a
188.3065	0.225	376613	keystroke_p	p	n/a
188.4265	0.165	376853	keystroke_o	o	n/a
188.6065	0.18	377213	keystroke_w	w	n/a
188.7115	0.135	377423	keystroke_e	e	n/a
188.982	0.075	377964	keystroke_l	l	n/a
189.117	0.09	378234	keystroke_l	l	n/a
189.327	0.075	378654	keystroke_Key.enter	Key.enter	n/a
189.4185	6.435	378837	prompt	n/a	roger ultram mask wallpapers\n
190.2715	0.075	380543	keystroke_r	r	n/a
190.3915	0.105	380783	keystroke_o	o	n/a
190.4665	0.12	380933	keystroke_g	g	n/a
190.6765	0.165	381353	keystroke_e	e	n/a
190.7665	0.165	381533	keystroke_r	r	n/a
190.9755	0.106	381951	keystroke_Key.space	Key.space	n/a
191.1415	0.09	382283	keystroke_u	u	n/a
191.3665	0.105	382733	keystroke_l	l	n/a
191.7115	0.165	383423	keystroke_t	t	n/a
191.802	0.15	383604	keystroke_r	r	n/a
192.1315	0.1505	384263	keystroke_a	a	n/a
192.2965	0.15	384593	keystroke_m	m	n/a
192.4015	0.119	384803	keystroke_Key.space	Key.space	n/a
193.6465	0.105	387293	keystroke_m	m	n/a
193.7215	0.21	387443	keystroke_a	a	n/a
193.8565	0.15	387713	keystroke_s	s	n/a
193.9765	0.135	387953	keystroke_k	k	n/a
194.0655	0.105	388131	keystroke_Key.space	Key.space	n/a
194.1715	0.165	388343	keystroke_w	w	n/a
194.2765	0.21	388553	keystroke_a	a	n/a
194.4415	0.06	388883	keystroke_l	l	n/a
194.5915	0.09	389183	keystroke_l	l	n/a
194.8915	0.105	389783	keystroke_p	p	n/a
195.0415	0.12	390083	keystroke_a	a	n/a
195.1465	0.09	390293	keystroke_p	p	n/a
195.2815	0.18	390563	keystroke_e	e	n/a
195.3865	0.24	390773	keystroke_r	r	n/a
195.5515	0.165	391103	keystroke_s	s	n/a
195.7465	0.105	391493	keystroke_Key.enter	Key.enter	n/a
195.858	4.9595	391716	prompt	n/a	sole classified shine where've\n
196.4215	0.12	392843	keystroke_s	s	n/a
196.5715	0.105	393143	keystroke_o	o	n/a
196.7815	0.09	393563	keystroke_l	l	n/a
196.8415	0.105	393683	keystroke_e	e	n/a
196.9765	0.105	393953	keystroke_Key.space	Key.space	n/a
197.1415	0.135	394283	keystroke_c	c	n/a
197.2315	0.105	394463	keystroke_l	l	n/a
197.3365	0.15	394673	keystroke_a	a	n/a
197.4865	0.09	394973	keystroke_s	s	n/a
197.6665	0.075	395333	keystroke_s	s	n/a
197.8015	0.09	395603	keystroke_i	i	n/a
197.8915	0.105	395783	keystroke_f	f	n/a
198.0115	0.105	396023	keystroke_i	i	n/a
198.1015	0.105	396203	keystroke_e	e	n/a
198.3115	0.105	396623	keystroke_d	d	n/a
198.4315	0.105	396863	keystroke_Key.space	Key.space	n/a
198.5665	0.12	397133	keystroke_s	s	n/a
198.6415	0.12	397283	keystroke_h	h	n/a
198.7465	0.195	397493	keystroke_i	i	n/a
198.8515	0.165	397703	keystroke_n	n	n/a
198.9715	0.135	397943	keystroke_e	e	n/a
199.1215	0.105	398243	keystroke_Key.space	Key.space	n/a
199.2415	0.21	398483	keystroke_w	w	n/a
199.5115	0.135	399023	keystroke_h	h	n/a
199.6315	0.12	399263	keystroke_e	e	n/a
199.7065	0.2395	399413	keystroke_r	r	n/a
199.8415	0.1495	399683	keystroke_e	e	n/a
199.992	0.134	399984	keystroke_'	'	n/a
200.306	0.2405	400612	keystroke_v	v	n/a
200.441	0.1805	400882	keystroke_e	e	n/a
200.7415	0.075	401483	keystroke_Key.enter	Key.enter	n/a
200.823	5.2745	401646	prompt	n/a	emotional carb collapse firms\n
201.4315	0.105	402863	keystroke_e	e	n/a
201.5215	0.15	403043	keystroke_m	m	n/a
201.6265	0.135	403253	keystroke_o	o	n/a
201.7615	0.135	403523	keystroke_t	t	n/a
201.8665	0.224	403733	keystroke_i	i	n/a
201.9715	0.179	403943	keystroke_o	o	n/a
202.0765	0.135	404153	keystroke_n	n	n/a
202.2265	0.12	404453	keystroke_a	a	n/a
202.3005	0.136	404601	keystroke_l	l	n/a
202.4055	0.12	404811	keystroke_Key.space	Key.space	n/a
202.5865	0.12	405173	keystroke_c	c	n/a
202.8115	0.119	405623	keystroke_a	a	n/a
202.9765	0.12	405953	keystroke_r	r	n/a
203.1255	0.1505	406251	keystroke_b	b	n/a
203.2465	0.1345	406493	keystroke_Key.space	Key.space	n/a
203.486	0.12	406972	keystroke_c	c	n/a
203.561	0.09	407122	keystroke_o	o	n/a
203.756	0.06	407512	keystroke_l	l	n/a
203.891	0.075	407782	keystroke_l	l	n/a
203.936	0.105	407872	keystroke_a	a	n/a
204.101	0.12	408202	keystroke_p	p	n/a
204.431	0.21	408862	keystroke_s	s	n/a
204.536	0.195	409072	keystroke_e	e	n/a
204.716	0.105	409432	keystroke_Key.space	Key.space	n/a
204.911	0.105	409822	keystroke_f	f	n/a
204.986	0.0905	409972	keystroke_i	i	n/a
205.1065	0.09	410213	keystroke_r	r	n/a
205.2115	0.12	410423	keystroke_m	m	n/a
205.3465	0.135	410693	keystroke_s	s	n/a
205.9915	0.1045	411983	keystroke_Key.enter	Key.enter	n/a
206.1	7.1075	412200	prompt	n/a	abstract denmark maybe couples\n
206.771	0.12	413542	keystroke_a	a	n/a
206.921	0.09	413842	keystroke_b	b	n/a
207.026	0.09	414052	keystroke_s	s	n/a
207.191	0.06	414382	keystroke_t	t	n/a
207.341	0.09	414682	keystroke_r	r	n/a
207.401	0.165	414802	keystroke_a	a	n/a
207.506	0.1355	415012	keystroke_c	c	n/a
207.6565	0.12	415313	keystroke_t	t	n/a
207.7465	0.135	415493	keystroke_Key.space	Key.space	n/a
208.496	0.15	416992	keystroke_d	d	n/a
208.601	0.1355	417202	keystroke_e	e	n/a
208.7215	0.075	417443	keystroke_n	n	n/a
208.9015	0.06	417803	keystroke_m	m	n/a
208.9765	0.12	417953	keystroke_a	a	n/a
209.1865	0.105	418373	keystroke_r	r	n/a
209.3065	0.135	418613	keystroke_k	k	n/a
209.3965	0.12	418793	keystroke_Key.space	Key.space	n/a
209.6365	0.09	419273	keystroke_m	m	n/a
209.7415	0.12	419483	keystroke_a	a	n/a
209.8915	0.1945	419783	keystroke_y	y	n/a
210.012	0.239	420024	keystroke_b	b	n/a
210.326	0.135	420652	keystroke_e	e	n/a
211.1365	0.105	422273	keystroke_Key.space	Key.space	n/a
211.3465	0.15	422693	keystroke_c	c	n/a
211.4815	0.135	422963	keystroke_o	o	n/a
211.5265	0.105	423053	keystroke_i	i	n/a
212.1865	0.075	424373	keystroke_Key.backspace	Key.backspace	n/a
212.4115	0.045	424823	keystroke_u	u	n/a
212.5765	0.165	425153	keystroke_p	p	n/a
212.6815	0.135	425363	keystroke_l	l	n/a
212.8015	0.165	425603	keystroke_e	e	n/a
212.8765	0.135	425753	keystroke_s	s	n/a
213.1315	0.075	426263	keystroke_Key.enter	Key.enter	n/a
213.2115	5.486	426423	prompt	n/a	scared pens charlie orleans\n
213.8065	0.12	427613	keystroke_s	s	n/a
213.9415	0.165	427883	keystroke_c	c	n/a
214.0315	0.15	428063	keystroke_a	a	n/a
214.3015	0.135	428603	keystroke_r	r	n/a
214.4065	0.18	428813	keystroke_e	e	n/a
214.5415	0.15	429083	keystroke_d	d	n/a
214.6915	0.105	429383	keystroke_Key.space	Key.space	n/a
214.8115	0.15	429623	keystroke_p	p	n/a
214.9465	0.0895	429893	keystroke_e	e	n/a
215.0515	0.105	430103	keystroke_n	n	n/a
215.4115	0.1345	430823	keystroke_s	s	n/a
215.5615	0.1045	431123	keystroke_Key.space	Key.space	n/a
215.8765	0.105	431753	keystroke_c	c	n/a
215.9665	0.135	431933	keystroke_h	h	n/a
216.0565	0.105	432113	keystroke_a	a	n/a
216.2215	0.12	432443	keystroke_r	r	n/a
216.3265	0.075	432653	keystroke_l	l	n/a
216.4915	0.09	432983	keystroke_i	i	n/a
216.6265	0.105	433253	keystroke_e	e	n/a
216.7465	0.075	433493	keystroke_Key.space	Key.space	n/a
216.8665	0.12	433733	keystroke_o	o	n/a
216.9875	0.1785	433975	keystroke_r	r	n/a
217.061	0.195	434122	keystroke_e	e	n/a
217.8715	0.135	435743	keystroke_l	l	n/a
217.9465	0.2095	435893	keystroke_e	e	n/a
218.0515	0.135	436103	keystroke_a	a	n/a
218.1715	0.135	436343	keystroke_n	n	n/a
218.3365	0.135	436673	keystroke_s	s	n/a
218.6365	0.06	437273	keystroke_Key.enter	Key.enter	n/a
218.7005	5.4575	437401	prompt	n/a	cisco tulsa advertiser fence\n
219.3265	0.12	438653	keystroke_c	c	n/a
219.4615	0.09	438923	keystroke_i	i	n/a
219.5365	0.165	439073	keystroke_s	s	n/a
219.6565	0.15	439313	keystroke_c	c	n/a
219.8215	0.1645	439643	keystroke_o	o	n/a
219.911	0.135	439822	keystroke_Key.space	Key.space	n/a
220.226	0.12	440452	keystroke_t	t	n/a
220.316	0.075	440632	keystroke_u	u	n/a
220.511	0.105	441022	keystroke_l	l	n/a
220.601	0.21	441202	keystroke_s	s	n/a
220.961	0.1205	441922	keystroke_a	a	n/a
221.096	0.09	442192	keystroke_Key.space	Key.space	n/a
221.246	0.075	442492	keystroke_a	a	n/a
221.546	0.21	443092	keystroke_d	d	n/a
221.8765	0.105	443753	keystroke_v	v	n/a
221.936	0.1805	443872	keystroke_e	e	n/a
222.0415	0.136	444083	keystroke_r	r	n/a
222.2665	0.09	444533	keystroke_t	t	n/a
222.3865	0.105	444773	keystroke_i	i	n/a
222.5515	0.3	445103	keystroke_s	s	n/a
222.6865	0.225	445373	keystroke_e	e	n/a
222.8365	0.15	445673	keystroke_r	r	n/a
223.0015	0.105	446003	keystroke_Key.space	Key.space	n/a
223.1215	0.1645	446243	keystroke_f	f	n/a
223.226	0.135	446452	keystroke_e	e	n/a
223.376	0.106	446752	keystroke_n	n	n/a
223.496	0.1955	446992	keystroke_c	c	n/a
223.6165	0.15	447233	keystroke_e	e	n/a
224.0665	0.09	448133	keystroke_Key.enter	Key.enter	n/a
224.161	7.8865	448322	prompt	n/a	occupation return freebsd chambers\n
225.206	0.09	450412	keystroke_o	o	n/a
225.326	0.075	450652	keystroke_c	c	n/a
225.4615	0.105	450923	keystroke_c	c	n/a
225.5515	0.135	451103	keystroke_u	u	n/a
225.6265	0.15	451253	keystroke_p	p	n/a
225.7015	0.12	451403	keystroke_a	a	n/a
225.8965	0.135	451793	keystroke_t	t	n/a
225.9715	0.225	451943	keystroke_i	i	n/a
226.0765	0.24	452153	keystroke_o	o	n/a
226.1815	0.225	452363	keystroke_n	n	n/a
226.3315	0.12	452663	keystroke_Key.space	Key.space	n/a
226.436	0.1955	452872	keystroke_r	r	n/a
226.5265	0.15	453053	keystroke_e	e	n/a
226.8115	0.12	453623	keystroke_t	t	n/a
226.9915	0.105	453983	keystroke_u	u	n/a
227.0815	0.1205	454163	keystroke_r	r	n/a
227.1865	0.15	454373	keystroke_n	n	n/a
227.3065	0.1205	454613	keystroke_Key.space	Key.space	n/a
227.442	0.195	454884	keystroke_f	f	n/a
227.592	0.18	455184	keystroke_e	e	n/a
228.102	0.104	456204	keystroke_Key.backspace	Key.backspace	n/a
228.192	0.15	456384	keystroke_r	r	n/a
228.297	0.135	456594	keystroke_e	e	n/a
228.522	0.105	457044	keystroke_e	e	n/a
229.541	0.105	459082	keystroke_b	b	n/a
229.631	0.1355	459262	keystroke_s	s	n/a
229.946	0.15	459892	keystroke_d	d	n/a
230.5315	0.12	461063	keystroke_Key.space	Key.space	n/a
230.6065	0.1505	461213	keystroke_c	c	n/a
230.7415	0.1055	461483	keystroke_h	h	n/a
230.8315	0.12	461663	keystroke_a	a	n/a
230.9665	0.075	461933	keystroke_m	m	n/a
231.1615	0.09	462323	keystroke_b	b	n/a
231.2365	0.18	462473	keystroke_e	e	n/a
231.3265	0.225	462653	keystroke_r	r	n/a
231.5365	0.165	463073	keystroke_s	s	n/a
231.911	0.1355	463822	keystroke_Key.enter	Key.enter	n/a
232.0505	5.0075	464101	prompt	n/a	testimonials ugly wait tunes\n
232.767	0.15	465534	keystroke_t	t	n/a
232.842	0.225	465684	keystroke_e	e	n/a
232.962	0.18	465924	keystroke_s	s	n/a
233.172	0.12	466344	keystroke_t	t	n/a
233.307	0.105	466614	keystroke_i	i	n/a
233.652	0.105	467304	keystroke_m	m	n/a
233.787	0.075	467574	keystroke_o	o	n/a
233.9965	0.135	467993	keystroke_n	n	n/a
234.0715	0.165	468143	keystroke_i	i	n/a
234.2215	0.12	468443	keystroke_a	a	n/a
234.3715	0.105	468743	keystroke_l	l	n/a
234.5065	0.105	469013	keystroke_s	s	n/a
234.6265	0.075	469253	keystroke_Key.space	Key.space	n/a
234.7765	0.075	469553	keystroke_u	u	n/a
235.106	0.12	470212	keystroke_g	g	n/a
235.241	0.09	470482	keystroke_l	l	n/a
235.361	0.105	470722	keystroke_y	y	n/a
235.451	0.105	470902	keystroke_Key.space	Key.space	n/a
235.571	0.21	471142	keystroke_w	w	n/a
235.676	0.165	471352	keystroke_a	a	n/a
235.842	0.149	471684	keystroke_i	i	n/a
235.9765	0.0895	471953	keystroke_t	t	n/a
236.066	0.12	472132	keystroke_Key.space	Key.space	n/a
236.2765	0.105	472553	keystroke_t	t	n/a
236.3515	0.225	472703	keystroke_u	u	n/a
236.4265	0.18	472853	keystroke_n	n	n/a
236.5615	0.225	473123	keystroke_e	e	n/a
236.7115	0.135	473423	keystroke_s	s	n/a
236.9515	0.1045	473903	keystroke_Key.enter	Key.enter	n/a
237.0625	9.6255	474125	prompt	n/a	daughters athletic hospitals assist\n
237.8065	0.165	475613	keystroke_d	d	n/a
237.9115	0.1355	475823	keystroke_a	a	n/a
238.0615	0.09	476123	keystroke_u	u	n/a
238.1665	0.09	476333	keystroke_g	g	n/a
238.2415	0.09	476483	keystroke_h	h	n/a
238.3915	0.1805	476783	keystroke_t	t	n/a
238.5265	0.3005	477053	keystroke_e	e	n/a
238.6765	0.2405	477353	keystroke_r	r	n/a
238.7815	0.1955	477563	keystroke_s	s	n/a
239.037	0.105	478074	keystroke_Key.space	Key.space	n/a
239.337	0.135	478674	keystroke_a	a	n/a
239.577	0.045	479154	keystroke_l	l	n/a
240.0415	0.0755	480083	keystroke_Key.backspace	Key.backspace	n/a
240.192	0.09	480384	keystroke_t	t	n/a
240.327	0.12	480654	keystroke_h	h	n/a
240.552	0.06	481104	keystroke_e	e	n/a
241.707	0.089	483414	keystroke_l	l	n/a
241.812	0.179	483624	keystroke_e	e	n/a
242.396	0.06	484792	keystroke_Key.backspace	Key.backspace	n/a
242.546	0.06	485092	keystroke_Key.backspace	Key.backspace	n/a
242.6965	0.0595	485393	keystroke_Key.backspace	Key.backspace	n/a
243.0415	0.12	486083	keystroke_l	l	n/a
243.1465	0.165	486293	keystroke_e	e	n/a
243.2515	0.135	486503	keystroke_t	t	n/a
243.4465	0.135	486893	keystroke_i	i	n/a
243.5965	0.12	487193	keystroke_c	c	n/a
243.7315	0.06	487463	keystroke_Key.space	Key.space	n/a
243.8515	0.15	487703	keystroke_h	h	n/a
243.9415	0.12	487883	keystroke_o	o	n/a
244.0915	0.09	488183	keystroke_s	s	n/a
244.1665	0.18	488333	keystroke_p	p	n/a
244.2865	0.15	488573	keystroke_i	i	n/a
244.3765	0.18	488753	keystroke_t	t	n/a
244.5265	0.135	489053	keystroke_a	a	n/a
244.6625	0.149	489325	keystroke_l	l	n/a
244.7965	0.105	489593	keystroke_s	s	n/a
244.9165	0.09	489833	keystroke_Key.space	Key.space	n/a
245.037	0.059	490074	keystroke_s	s	n/a
245.3965	0.1195	490793	keystroke_Key.backspace	Key.backspace	n/a
245.5015	0.135	491003	keystroke_a	a	n/a
245.6665	0.09	491333	keystroke_s	s	n/a
245.8765	0.06	491753	keystroke_s	s	n/a
245.9815	0.105	491963	keystroke_i	i	n/a
246.0415	0.12	492083	keystroke_s	s	n/a
246.3415	0.09	492683	keystroke_t	t	n/a
246.5815	0.105	493163	keystroke_Key.enter	Key.enter	n/a
246.699	7.639	493398	prompt	n/a	thesaurus treasurer files enquiries\n
247.2715	0.105	494543	keystroke_t	t	n/a
247.3615	0.12	494723	keystroke_h	h	n/a
247.4365	0.15	494873	keystroke_e	e	n/a
247.7215	0.1505	495443	keystroke_s	s	n/a
247.962	0.105	495924	keystroke_a	a	n/a
248.052	0.12	496104	keystroke_u	u	n/a
248.202	0.12	496404	keystroke_r	r	n/a
248.382	0.12	496764	keystroke_u	u	n/a
248.667	0.12	497334	keystroke_s	s	n/a
248.772	0.105	497544	keystroke_Key.space	Key.space	n/a
249.0565	0.12	498113	keystroke_t	t	n/a
249.2965	0.18	498593	keystroke_r	r	n/a
249.4615	0.135	498923	keystroke_e	e	n/a
249.641	0.135	499282	keystroke_a	a	n/a
249.972	0.09	499944	keystroke_s	s	n/a
250.121	0.106	500242	keystroke_u	u	n/a
250.197	0.135	500394	keystroke_r	r	n/a
250.287	0.21	500574	keystroke_e	e	n/a
250.452	0.225	500904	keystroke_r	r	n/a
250.617	0.09	501234	keystroke_e	e	n/a
251.246	0.09	502492	keystroke_Key.backspace	Key.backspace	n/a
251.546	0.075	503092	keystroke_Key.space	Key.space	n/a
251.966	0.1355	503932	keystroke_f	f	n/a
252.056	0.0905	504112	keystroke_i	i	n/a
252.2215	0.12	504443	keystroke_l	l	n/a
252.3265	0.135	504653	keystroke_e	e	n/a
252.3715	0.135	504743	keystroke_s	s	n/a
252.5215	0.09	505043	keystroke_Key.space	Key.space	n/a
252.822	0.135	505644	keystroke_e	e	n/a
252.957	0.1045	505914	keystroke_n	n	n/a
253.0765	0.165	506153	keystroke_q	q	n/a
253.1965	0.12	506393	keystroke_u	u	n/a
253.2865	0.105	506573	keystroke_i	i	n/a
253.4665	0.105	506933	keystroke_r	r	n/a
253.5565	0.12	507113	keystroke_i	i	n/a
253.7215	0.195	507443	keystroke_e	e	n/a
253.8265	0.165	507653	keystroke_s	s	n/a
254.2615	0.075	508523	keystroke_Key.enter	Key.enter	n/a
254.347	9.5915	508694	prompt	n/a	davidson pottery commitment keen\n
255.087	0.15	510174	keystroke_f	f	n/a
255.162	0.135	510324	keystroke_a	a	n/a
255.372	0.105	510744	keystroke_v	v	n/a
255.627	0.18	511254	keystroke_i	i	n/a
256.137	0.105	512274	keystroke_d	d	n/a
256.512	0.075	513024	keystroke_Key.backspace	Key.backspace	n/a
256.677	0.06	513354	keystroke_Key.backspace	Key.backspace	n/a
256.827	0.06	513654	keystroke_Key.backspace	Key.backspace	n/a
256.977	0.074	513954	keystroke_Key.backspace	Key.backspace	n/a
257.187	0.06	514374	keystroke_Key.backspace	Key.backspace	n/a
257.652	0.105	515304	keystroke_d	d	n/a
257.696	0.121	515392	keystroke_a	a	n/a
257.922	0.075	515844	keystroke_v	v	n/a
258.042	0.09	516084	keystroke_i	i	n/a
258.162	0.09	516324	keystroke_d	d	n/a
258.327	0.12	516654	keystroke_s	s	n/a
258.432	0.209	516864	keystroke_o	o	n/a
258.567	0.179	517134	keystroke_n	n	n/a
258.701	0.12	517402	keystroke_Key.space	Key.space	n/a
259.0465	0.1345	518093	keystroke_p	p	n/a
260.0215	0.1045	520043	keystroke_o	o	n/a
260.201	0.075	520402	keystroke_t	t	n/a
260.336	0.135	520672	keystroke_t	t	n/a
260.441	0.226	520882	keystroke_e	e	n/a
260.562	0.149	521124	keystroke_r	r	n/a
260.741	0.165	521482	keystroke_y	y	n/a
260.831	0.15	521662	keystroke_Key.space	Key.space	n/a
261.146	0.136	522292	keystroke_c	c	n/a
261.206	0.09	522412	keystroke_o	o	n/a
261.386	0.075	522772	keystroke_m	m	n/a
261.521	0.091	523042	keystroke_m	m	n/a
261.686	0.105	523372	keystroke_i	i	n/a
261.792	0.119	523584	keystroke_t	t	n/a
262.001	0.106	524002	keystroke_m	m	n/a
262.827	0.105	525654	keystroke_e	e	n/a
262.947	0.105	525894	keystroke_n	n	n/a
263.037	0.12	526074	keystroke_t	t	n/a
263.202	0.015	526404	keystroke_Key.space	Key.space	n/a
263.262	0.15	526524	keystroke_k	k	n/a
263.367	0.075	526734	keystroke_e	e	n/a
263.502	0.105	527004	keystroke_e	e	n/a
263.637	0.105	527274	keystroke_n	n	n/a
263.861	0.076	527722	keystroke_Key.enter	Key.enter	n/a
263.95	8.9585	527900	prompt	n/a	breaking he's phenomenon orleans\n
264.7015	0.135	529403	keystroke_b	b	n/a
264.7915	0.165	529583	keystroke_r	r	n/a
264.8515	0.195	529703	keystroke_e	e	n/a
265.0315	0.135	530063	keystroke_a	a	n/a
265.1515	0.075	530303	keystroke_k	k	n/a
265.3015	0.12	530603	keystroke_i	i	n/a
265.3915	0.12	530783	keystroke_n	n	n/a
265.4815	0.105	530963	keystroke_g	g	n/a
265.5715	0.075	531143	keystroke_Key.space	Key.space	n/a
265.6915	0.09	531383	keystroke_h	h	n/a
265.7965	0.105	531593	keystroke_e	e	n/a
265.8865	0.12	531773	keystroke_'	'	n/a
266.0065	0.1345	532013	keystroke_s	s	n/a
266.126	0.09	532252	keystroke_Key.space	Key.space	n/a
266.441	0.12	532882	keystroke_p	p	n/a
266.606	0.151	533212	keystroke_h	h	n/a
266.861	0.09	533722	keystroke_e	e	n/a
266.952	0.1195	533904	keystroke_n	n	n/a
267.0565	0.165	534113	keystroke_o	o	n/a
267.1765	0.12	534353	keystroke_n	n	n/a
268.3465	0.075	536693	keystroke_Key.backspace	Key.backspace	n/a
268.5865	0.1045	537173	keystroke_m	m	n/a
268.721	0.105	537442	keystroke_e	e	n/a
269.2765	0.12	538553	keystroke_n	n	n/a
269.3815	0.1645	538763	keystroke_o	o	n/a
269.486	0.12	538972	keystroke_n	n	n/a
269.726	0.075	539452	keystroke_Key.space	Key.space	n/a
270.147	0.12	540294	keystroke_o	o	n/a
270.297	0.15	540594	keystroke_r	r	n/a
270.612	0.105	541224	keystroke_l	l	n/a
271.226	0.061	542452	keystroke_Key.backspace	Key.backspace	n/a
272.051	0.136	544102	keystroke_l	l	n/a
272.171	0.18	544342	keystroke_e	e	n/a
272.261	0.165	544522	keystroke_a	a	n/a
272.381	0.121	544762	keystroke_n	n	n/a
272.546	0.135	545092	keystroke_s	s	n/a
272.831	0.075	545662	keystroke_Key.enter	Key.enter	n/a
272.9215	6.766	545843	prompt	n/a	pearl workstation journalists those\n
273.806	0.135	547612	keystroke_p	p	n/a
273.851	0.18	547702	keystroke_e	e	n/a
273.956	0.165	547912	keystroke_a	a	n/a
274.196	0.046	548392	keystroke_r	r	n/a
274.571	0.15	549142	keystroke_l	l	n/a
274.676	0.12	549352	keystroke_Key.space	Key.space	n/a
275.1265	0.12	550253	keystroke_w	w	n/a
275.2315	0.135	550463	keystroke_o	o	n/a
275.3815	0.105	550763	keystroke_r	r	n/a
275.4715	0.12	550943	keystroke_k	k	n/a
275.6515	0.075	551303	keystroke_s	s	n/a
275.8615	0.12	551723	keystroke_t	t	n/a
276.0265	0.12	552053	keystroke_a	a	n/a
276.2065	0.12	552413	keystroke_t	t	n/a
276.3265	0.15	552653	keystroke_i	i	n/a
276.4465	0.21	552893	keystroke_o	o	n/a
276.5515	0.15	553103	keystroke_n	n	n/a
276.6715	0.09	553343	keystroke_Key.space	Key.space	n/a
276.8815	0.21	553763	keystroke_j	j	n/a
277.0315	0.285	554063	keystroke_o	o	n/a
277.2115	0.15	554423	keystroke_u	u	n/a
277.3765	0.105	554753	keystroke_r	r	n/a
277.4665	0.105	554933	keystroke_n	n	n/a
277.5865	0.135	555173	keystroke_a	a	n/a
277.7215	0.09	555443	keystroke_l	l	n/a
277.8865	0.105	555773	keystroke_i	i	n/a
278.0065	0.135	556013	keystroke_s	s	n/a
278.1265	0.2545	556253	keystroke_t	t	n/a
278.261	0.18	556522	keystroke_s	s	n/a
278.681	0.105	557362	keystroke_Key.space	Key.space	n/a
279.056	0.12	558112	keystroke_t	t	n/a
279.116	0.15	558232	keystroke_h	h	n/a
279.191	0.18	558382	keystroke_o	o	n/a
279.281	0.225	558562	keystroke_s	s	n/a
279.401	0.165	558802	keystroke_e	e	n/a
279.581	0.105	559162	keystroke_Key.enter	Key.enter	n/a
279.6925	5.8755	559385	prompt	n/a	yoga floral wizard certified\n
280.526	0.15	561052	keystroke_y	y	n/a
280.631	0.1655	561262	keystroke_o	o	n/a
280.7215	0.2545	561443	keystroke_g	g	n/a
280.8565	0.1945	561713	keystroke_a	a	n/a
281.0665	0.105	562133	keystroke_Key.space	Key.space	n/a
281.2315	0.09	562463	keystroke_f	f	n/a
281.3215	0.09	562643	keystroke_l	l	n/a
281.4865	0.0895	562973	keystroke_o	o	n/a
281.591	0.2105	563182	keystroke_r	r	n/a
282.0265	0.135	564053	keystroke_a	a	n/a
282.1915	0.195	564383	keystroke_l	l	n/a
282.3565	0.15	564713	keystroke_Key.space	Key.space	n/a
282.5515	0.105	565103	keystroke_w	w	n/a
282.6865	0.135	565373	keystroke_i	i	n/a
282.8365	0.105	565673	keystroke_z	z	n/a
283.0765	0.12	566153	keystroke_a	a	n/a
283.301	0.0905	566602	keystroke_r	r	n/a
283.5565	0.12	567113	keystroke_d	d	n/a
283.691	0.12	567382	keystroke_Key.space	Key.space	n/a
283.841	0.15	567682	keystroke_c	c	n/a
284.111	0.135	568222	keystroke_e	e	n/a
284.156	0.15	568312	keystroke_r	r	n/a
284.381	0.075	568762	keystroke_t	t	n/a
284.516	0.06	569032	keystroke_i	i	n/a
284.591	0.12	569182	keystroke_f	f	n/a
284.726	0.075	569452	keystroke_i	i	n/a
285.026	0.0905	570052	keystroke_e	e	n/a
285.2365	0.075	570473	keystroke_d	d	n/a
285.476	0.09	570952	keystroke_Key.enter	Key.enter	n/a
285.575	7.6585	571150	prompt	n/a	printers assured behavioral forge\n
286.3315	0.1195	572663	keystroke_p	p	n/a
286.466	0.165	572932	keystroke_e	e	n/a
286.646	0.045	573292	keystroke_i	i	n/a
287.0365	0.06	574073	keystroke_Key.backspace	Key.backspace	n/a
287.1715	0.075	574343	keystroke_Key.backspace	Key.backspace	n/a
287.6665	0.105	575333	keystroke_r	r	n/a
287.7565	0.135	575513	keystroke_i	i	n/a
287.8315	0.165	575663	keystroke_n	n	n/a
287.9365	0.165	575873	keystroke_t	t	n/a
288.1015	0.24	576203	keystroke_e	e	n/a
288.2515	0.21	576503	keystroke_r	r	n/a
288.4915	0.12	576983	keystroke_s	s	n/a
288.6265	0.12	577253	keystroke_Key.space	Key.space	n/a
288.7315	0.075	577463	keystroke_a	a	n/a
288.8815	0.105	577763	keystroke_s	s	n/a
289.0465	0.09	578093	keystroke_s	s	n/a
289.1515	0.1495	578303	keystroke_u	u	n/a
289.286	0.12	578572	keystroke_r	r	n/a
289.346	0.135	578692	keystroke_e	e	n/a
289.616	0.09	579232	keystroke_d	d	n/a
289.751	0.09	579502	keystroke_Key.space	Key.space	n/a
289.9315	0.0895	579863	keystroke_b	b	n/a
290.022	0.12	580044	keystroke_e	e	n/a
290.156	0.15	580312	keystroke_h	h	n/a
290.351	0.135	580702	keystroke_a	a	n/a
290.802	0.044	581604	keystroke_v	v	n/a
291.041	0.225	582082	keystroke_i	i	n/a
291.162	0.179	582324	keystroke_o	o	n/a
291.281	0.21	582562	keystroke_r	r	n/a
291.476	0.15	582952	keystroke_a	a	n/a
291.611	0.18	583222	keystroke_l	l	n/a
291.716	0.165	583432	keystroke_Key.space	Key.space	n/a
291.926	0.1505	583852	keystroke_f	f	n/a
292.1215	0.135	584243	keystroke_o	o	n/a
292.2115	0.105	584423	keystroke_r	r	n/a
292.2865	0.24	584573	keystroke_g	g	n/a
292.4065	0.225	584813	keystroke_e	e	n/a
293.1565	0.075	586313	keystroke_Key.enter	Key.enter	n/a
293.2445	5.8835	586489	prompt	n/a	fears clear compressed persons\n
294.0565	0.18	588113	keystroke_f	f	n/a
294.1315	0.33	588263	keystroke_e	e	n/a
294.2665	0.21	588533	keystroke_a	a	n/a
294.4915	0.285	588983	keystroke_r	r	n/a
294.6265	0.18	589253	keystroke_s	s	n/a
294.7915	0.105	589583	keystroke_Key.space	Key.space	n/a
294.9565	0.135	589913	keystroke_c	c	n/a
295.0765	0.135	590153	keystroke_l	l	n/a
295.1965	0.195	590393	keystroke_e	e	n/a
295.3015	0.15	590603	keystroke_a	a	n/a
295.5115	0.15	591023	keystroke_r	r	n/a
295.6465	0.105	591293	keystroke_Key.space	Key.space	n/a
295.9015	0.12	591803	keystroke_c	c	n/a
295.9915	0.15	591983	keystroke_o	o	n/a
296.1115	0.135	592223	keystroke_m	m	n/a
296.1715	0.21	592343	keystroke_p	p	n/a
296.3665	0.195	592733	keystroke_r	r	n/a
296.4415	0.225	592883	keystroke_e	e	n/a
296.6965	0.135	593393	keystroke_s	s	n/a
296.9065	0.18	593813	keystroke_s	s	n/a
297.0415	0.12	594083	keystroke_e	e	n/a
297.2515	0.12	594503	keystroke_d	d	n/a
297.3865	0.09	594773	keystroke_Key.space	Key.space	n/a
297.5215	0.1195	595043	keystroke_p	p	n/a
297.5665	0.1795	595133	keystroke_e	e	n/a
297.671	0.165	595342	keystroke_r	r	n/a
297.821	0.166	595642	keystroke_s	s	n/a
297.957	0.2245	595914	keystroke_o	o	n/a
298.0765	0.135	596153	keystroke_n	n	n/a
298.2565	0.15	596513	keystroke_s	s	n/a
299.0515	0.075	598103	keystroke_Key.enter	Key.enter	n/a
299.135	10.6435	598270	prompt	n/a	oxide commodity discussion quickly\n
300.236	0.12	600472	keystroke_o	o	n/a
300.341	0.09	600682	keystroke_x	x	n/a
300.491	0.09	600982	keystroke_i	i	n/a
300.596	0.09	601192	keystroke_d	d	n/a
300.701	0.09	601402	keystroke_Key.space	Key.space	n/a
300.866	0.075	601732	keystroke_c	c	n/a
300.911	0.105	601822	keystroke_o	o	n/a
301.031	0.105	602062	keystroke_m	m	n/a
301.212	0.135	602424	keystroke_m	m	n/a
301.332	0.149	602664	keystroke_o	o	n/a
302.171	0.075	604342	keystroke_Key.backspace	Key.backspace	n/a
302.351	0.045	604702	keystroke_Key.backspace	Key.backspace	n/a
302.531	0.03	605062	keystroke_Key.backspace	Key.backspace	n/a
302.681	0.075	605362	keystroke_Key.backspace	Key.backspace	n/a
302.876	0.0755	605752	keystroke_Key.backspace	Key.backspace	n/a
303.2215	0.06	606443	keystroke_Key.backspace	Key.backspace	n/a
303.4765	0.06	606953	keystroke_e	e	n/a
303.8365	0.105	607673	keystroke_Key.space	Key.space	n/a
304.2865	0.105	608573	keystroke_c	c	n/a
304.3615	0.15	608723	keystroke_o	o	n/a
304.5565	0.09	609113	keystroke_m	m	n/a
304.7215	0.12	609443	keystroke_m	m	n/a
304.8115	0.18	609623	keystroke_o	o	n/a
305.0215	0.12	610043	keystroke_d	d	n/a
305.1565	0.1345	610313	keystroke_i	i	n/a
305.3215	0.105	610643	keystroke_t	t	n/a
305.5165	0.165	611033	keystroke_y	y	n/a
305.6215	0.12	611243	keystroke_Key.space	Key.space	n/a
305.8315	0.105	611663	keystroke_d	d	n/a
305.9515	0.105	611903	keystroke_i	i	n/a
306.0575	0.224	612115	keystroke_s	s	n/a
306.4165	0.285	612833	keystroke_c	c	n/a
307.1665	0.105	614333	keystroke_u	u	n/a
307.2865	0.075	614573	keystroke_s	s	n/a
307.4665	0.1055	614933	keystroke_s	s	n/a
307.542	0.24	615084	keystroke_i	i	n/a
307.662	0.33	615324	keystroke_o	o	n/a
307.797	0.18	615594	keystroke_n	n	n/a
308.3215	0.105	616643	keystroke_Key.space	Key.space	n/a
308.847	0.12	617694	keystroke_q	q	n/a
308.997	0.1195	617994	keystroke_u	u	n/a
309.0865	0.09	618173	keystroke_i	i	n/a
309.1915	0.12	618383	keystroke_c	c	n/a
309.3265	0.165	618653	keystroke_k	k	n/a
309.4315	0.135	618863	keystroke_l	l	n/a
309.5515	0.0755	619103	keystroke_y	y	n/a
309.702	0.075	619404	keystroke_Key.enter	Key.enter	n/a
309.7885	6.1095	619577	prompt	n/a	i'm enjoy browsing sides\n
311.036	0.076	622072	keystroke_i	i	n/a
311.097	0.194	622194	keystroke_'	'	n/a
311.216	0.1505	622432	keystroke_m	m	n/a
311.321	0.1355	622642	keystroke_Key.space	Key.space	n/a
311.5615	0.075	623123	keystroke_e	e	n/a
311.6215	0.09	623243	keystroke_n	n	n/a
311.8165	0.1205	623633	keystroke_j	j	n/a
311.8915	0.15	623783	keystroke_o	o	n/a
312.0415	0.105	624083	keystroke_y	y	n/a
312.1915	0.075	624383	keystroke_Key.space	Key.space	n/a
312.8215	0.105	625643	keystroke_b	b	n/a
312.9715	0.12	625943	keystroke_r	r	n/a
313.0765	0.15	626153	keystroke_o	o	n/a
313.2715	0.105	626543	keystroke_w	w	n/a
313.9465	0.12	627893	keystroke_s	s	n/a
314.0815	0.18	628163	keystroke_i	i	n/a
314.2315	0.15	628463	keystroke_n	n	n/a
314.4715	0.135	628943	keystroke_g	g	n/a
314.9515	0.09	629903	keystroke_Key.space	Key.space	n/a
315.1465	0.105	630293	keystroke_s	s	n/a
315.2365	0.12	630473	keystroke_i	i	n/a
315.3115	0.225	630623	keystroke_d	d	n/a
315.4615	0.27	630923	keystroke_e	e	n/a
315.5815	0.225	631163	keystroke_s	s	n/a
315.7765	0.12	631553	keystroke_Key.enter	Key.enter	n/a
315.908	9.1855	631816	prompt	n/a	profit suppose welsh faces\n
316.6315	0.15	633263	keystroke_p	p	n/a
316.7515	0.12	633503	keystroke_r	r	n/a
316.8865	0.105	633773	keystroke_o	o	n/a
316.9765	0.1055	633953	keystroke_f	f	n/a
317.111	0.105	634222	keystroke_i	i	n/a
317.321	0.151	634642	keystroke_t	t	n/a
317.456	0.075	634912	keystroke_Key.space	Key.space	n/a
317.592	0.104	635184	keystroke_s	s	n/a
317.682	0.059	635364	keystroke_u	u	n/a
317.861	0.06	635722	keystroke_p	p	n/a
318.0115	0.165	636023	keystroke_p	p	n/a
318.1015	0.225	636203	keystroke_s	s	n/a
318.1165	0.165	636233	keystroke_o	o	n/a
318.2515	0.15	636503	keystroke_e	e	n/a
318.6865	0.105	637373	keystroke_Key.space	Key.space	n/a
318.8215	0.12	637643	keystroke_w	w	n/a
319.661	0.075	639322	keystroke_Key.backspace	Key.backspace	n/a
319.826	0.06	639652	keystroke_Key.backspace	Key.backspace	n/a
319.991	0.06	639982	keystroke_Key.backspace	Key.backspace	n/a
320.157	0.0745	640314	keystroke_Key.backspace	Key.backspace	n/a
320.3665	0.075	640733	keystroke_Key.backspace	Key.backspace	n/a
320.952	0.09	641904	keystroke_o	o	n/a
321.012	0.225	642024	keystroke_s	s	n/a
321.177	0.12	642354	keystroke_e	e	n/a
321.297	0.105	642594	keystroke_Key.space	Key.space	n/a
321.417	0.135	642834	keystroke_w	w	n/a
321.567	0.075	643134	keystroke_l	l	n/a
321.8965	0.165	643793	keystroke_s	s	n/a
322.0915	0.18	644183	keystroke_h	h	n/a
322.5115	0.06	645023	keystroke_Key.backspace	Key.backspace	n/a
322.6765	0.075	645353	keystroke_Key.backspace	Key.backspace	n/a
322.8265	0.09	645653	keystroke_Key.backspace	Key.backspace	n/a
322.9315	0.105	645863	keystroke_e	e	n/a
323.2315	0.12	646463	keystroke_l	l	n/a
323.4115	0.12	646823	keystroke_s	s	n/a
323.6815	0.18	647363	keystroke_h	h	n/a
323.7865	0.135	647573	keystroke_Key.space	Key.space	n/a
324.1465	0.15	648293	keystroke_f	f	n/a
324.2365	0.135	648473	keystroke_a	a	n/a
324.4315	0.2095	648863	keystroke_c	c	n/a
324.5665	0.2395	649133	keystroke_e	e	n/a
324.686	0.166	649372	keystroke_s	s	n/a
324.971	0.121	649942	keystroke_Key.enter	Key.enter	n/a
325.1025	4.7605	650205	prompt	n/a	upper valley inventory chat\n
325.977	0.104	651954	keystroke_u	u	n/a
326.037	0.12	652074	keystroke_p	p	n/a
326.216	0.136	652432	keystroke_p	p	n/a
326.322	0.179	652644	keystroke_e	e	n/a
326.426	0.121	652852	keystroke_r	r	n/a
326.561	0.09	653122	keystroke_Key.space	Key.space	n/a
326.772	0.209	653544	keystroke_v	v	n/a
326.816	0.226	653632	keystroke_a	a	n/a
327.026	0.06	654052	keystroke_l	l	n/a
327.176	0.091	654352	keystroke_l	l	n/a
327.3115	0.1345	654623	keystroke_e	e	n/a
327.431	0.165	654862	keystroke_y	y	n/a
327.551	0.12	655102	keystroke_Key.space	Key.space	n/a
327.776	0.165	655552	keystroke_i	i	n/a
327.866	0.1655	655732	keystroke_n	n	n/a
328.1065	0.21	656213	keystroke_v	v	n/a
328.2265	0.165	656453	keystroke_e	e	n/a
328.4065	0.105	656813	keystroke_n	n	n/a
328.5265	0.09	657053	keystroke_t	t	n/a
328.6465	0.1045	657293	keystroke_o	o	n/a
328.736	0.09	657472	keystroke_r	r	n/a
328.901	0.18	657802	keystroke_y	y	n/a
328.991	0.15	657982	keystroke_Key.space	Key.space	n/a
329.186	0.151	658372	keystroke_c	c	n/a
329.306	0.075	658612	keystroke_h	h	n/a
329.397	0.104	658794	keystroke_a	a	n/a
329.622	0.089	659244	keystroke_t	t	n/a
329.786	0.0755	659572	keystroke_Key.enter	Key.enter	n/a
329.8725	7.776	659745	prompt	n/a	downloadable tons invision place\n
330.7915	0.03	661583	keystroke_d	d	n/a
330.8365	0.075	661673	keystroke_o	o	n/a
330.9265	0.105	661853	keystroke_w	w	n/a
331.0165	0.0755	662033	keystroke_n	n	n/a
331.182	0.075	662364	keystroke_l	l	n/a
331.362	0.0895	662724	keystroke_o	o	n/a
331.4365	0.18	662873	keystroke_a	a	n/a
331.5415	0.15	663083	keystroke_d	d	n/a
331.7815	0.135	663563	keystroke_a	a	n/a
331.8865	0.195	663773	keystroke_b	b	n/a
332.0065	0.165	664013	keystroke_l	l	n/a
332.1565	0.12	664313	keystroke_e	e	n/a
332.3215	0.105	664643	keystroke_Key.space	Key.space	n/a
332.6215	0.12	665243	keystroke_t	t	n/a
332.7115	0.165	665423	keystroke_o	o	n/a
332.8165	0.21	665633	keystroke_n	n	n/a
333.0415	0.15	666083	keystroke_s	s	n/a
333.1615	0.105	666323	keystroke_Key.space	Key.space	n/a
333.3415	0.165	666683	keystroke_i	i	n/a
333.4465	0.165	666893	keystroke_n	n	n/a
334.1215	0.105	668243	keystroke_v	v	n/a
334.2415	0.1055	668483	keystroke_i	i	n/a
334.361	0.136	668722	keystroke_s	s	n/a
334.482	0.195	668964	keystroke_i	i	n/a
334.617	0.27	669234	keystroke_o	o	n/a
334.782	0.18	669564	keystroke_n	n	n/a
334.932	0.09	669864	keystroke_Key.space	Key.space	n/a
335.067	0.21	670134	keystroke_p	p	n/a
335.172	0.195	670344	keystroke_l	l	n/a
335.262	0.195	670524	keystroke_a	a	n/a
335.427	0.195	670854	keystroke_c	c	n/a
335.697	0.12	671394	keystroke_e	e	n/a
337.497	0.15	674994	keystroke_Key.enter	Key.enter	n/a
337.661	6.8425	675322	prompt	n/a	person wagner lamb const\n
338.577	0.12	677154	keystroke_p	p	n/a
338.652	0.165	677304	keystroke_e	e	n/a
338.727	0.195	677454	keystroke_r	r	n/a
338.892	0.135	677784	keystroke_s	s	n/a
338.997	0.2245	677994	keystroke_o	o	n/a
339.1015	0.18	678203	keystroke_n	n	n/a
339.2215	0.12	678443	keystroke_Key.space	Key.space	n/a
339.3865	0.1795	678773	keystroke_w	w	n/a
339.492	0.15	678984	keystroke_a	a	n/a
339.776	0.076	679552	keystroke_g	g	n/a
339.881	0.121	679762	keystroke_n	n	n/a
339.986	0.196	679972	keystroke_e	e	n/a
340.077	0.18	680154	keystroke_r	r	n/a
340.271	0.12	680542	keystroke_Key.space	Key.space	n/a
340.617	0.105	681234	keystroke_l	l	n/a
340.692	0.105	681384	keystroke_a	a	n/a
340.856	0.151	681712	keystroke_b	b	n/a
341.321	0.075	682642	keystroke_Key.backspace	Key.backspace	n/a
341.771	0.075	683542	keystroke_m	m	n/a
341.996	0.165	683992	keystroke_b	b	n/a
342.131	0.1055	684262	keystroke_Key.space	Key.space	n/a
342.7165	0.12	685433	keystroke_c	c	n/a
342.8065	0.165	685613	keystroke_o	o	n/a
342.9265	0.135	685853	keystroke_n	n	n/a
343.0465	0.09	686093	keystroke_s	s	n/a
343.2565	0.09	686513	keystroke_t	t	n/a
344.3815	0.12	688763	keystroke_Key.enter	Key.enter	n/a
344.515	9.1235	689030	prompt	n/a	sociology consolidated cars literacy\n
345.477	0.12	690954	keystroke_s	s	n/a
345.792	0.105	691584	keystroke_o	o	n/a
345.972	0.075	691944	keystroke_c	c	n/a
346.032	0.075	692064	keystroke_i	i	n/a
346.242	0.09	692484	keystroke_o	o	n/a
346.422	0.045	692844	keystroke_l	l	n/a
346.542	0.09	693084	keystroke_o	o	n/a
346.662	0.075	693324	keystroke_g	g	n/a
346.782	0.165	693564	keystroke_y	y	n/a
346.917	0.105	693834	keystroke_Key.space	Key.space	n/a
347.427	0.105	694854	keystroke_c	c	n/a
347.502	0.2845	695004	keystroke_o	o	n/a
347.637	0.1345	695274	keystroke_n	n	n/a
347.997	0.12	695994	keystroke_s	s	n/a
348.102	0.06	696204	keystroke_o	o	n/a
348.267	0.06	696534	keystroke_l	l	n/a
348.417	0.12	696834	keystroke_i	i	n/a
348.522	0.135	697044	keystroke_d	d	n/a
348.597	0.12	697194	keystroke_a	a	n/a
348.822	0.135	697644	keystroke_t	t	n/a
348.897	0.12	697794	keystroke_e	e	n/a
349.092	0.135	698184	keystroke_d	d	n/a
349.242	0.075	698484	keystroke_Key.space	Key.space	n/a
349.377	0.15	698754	keystroke_c	c	n/a
349.467	0.135	698934	keystroke_a	a	n/a
349.737	0.105	699474	keystroke_r	r	n/a
349.9765	0.165	699953	keystroke_d	d	n/a
350.0665	0.135	700133	keystroke_s	s	n/a
350.6515	0.045	701303	keystroke_Key.backspace	Key.backspace	n/a
350.7265	0.075	701453	keystroke_Key.backspace	Key.backspace	n/a
350.8315	0.1055	701663	keystroke_s	s	n/a
350.9965	0.105	701993	keystroke_Key.space	Key.space	n/a
351.2815	0.06	702563	keystroke_l	l	n/a
351.5065	0.09	703013	keystroke_i	i	n/a
351.6265	0.12	703253	keystroke_t	t	n/a
351.7315	0.18	703463	keystroke_e	e	n/a
351.8365	0.1645	703673	keystroke_r	r	n/a
352.092	0.134	704184	keystroke_a	a	n/a
352.331	0.076	704662	keystroke_r	r	n/a
352.6465	0.09	705293	keystroke_Key.backspace	Key.backspace	n/a
352.8265	0.15	705653	keystroke_c	c	n/a
352.9615	0.105	705923	keystroke_y	y	n/a
353.516	0.12	707032	keystroke_Key.enter	Key.enter	n/a
353.6485	4.5945	707297	prompt	n/a	joan phase giving decent\n
354.627	0.165	709254	keystroke_j	j	n/a
354.717	0.18	709434	keystroke_o	o	n/a
354.867	0.18	709734	keystroke_a	a	n/a
355.017	0.135	710034	keystroke_n	n	n/a
355.122	0.09	710244	keystroke_Key.space	Key.space	n/a
355.227	0.21	710454	keystroke_p	p	n/a
355.362	0.165	710724	keystroke_h	h	n/a
355.512	0.195	711024	keystroke_a	a	n/a
355.602	0.165	711204	keystroke_s	s	n/a
355.887	0.105	711774	keystroke_e	e	n/a
356.006	0.105	712012	keystroke_Key.space	Key.space	n/a
356.2015	0.12	712403	keystroke_g	g	n/a
356.3065	0.09	712613	keystroke_i	i	n/a
356.4265	0.12	712853	keystroke_v	v	n/a
356.5315	0.21	713063	keystroke_i	i	n/a
356.6815	0.165	713363	keystroke_n	n	n/a
356.8615	0.09	713723	keystroke_g	g	n/a
356.9965	0.105	713993	keystroke_Key.space	Key.space	n/a
357.2665	0.1505	714533	keystroke_d	d	n/a
357.372	0.12	714744	keystroke_e	e	n/a
357.597	0.165	715194	keystroke_c	c	n/a
357.732	0.12	715464	keystroke_e	e	n/a
357.882	0.12	715764	keystroke_n	n	n/a
358.017	0.075	716034	keystroke_t	t	n/a
358.1665	0.075	716333	keystroke_Key.enter	Key.enter	n/a
358.2455	6.5825	716491	prompt	n/a	blind since louise rate\n
358.976	0.105	717952	keystroke_b	b	n/a
359.111	0.135	718222	keystroke_l	l	n/a
359.291	0.195	718582	keystroke_i	i	n/a
359.396	0.165	718792	keystroke_n	n	n/a
359.516	0.135	719032	keystroke_d	d	n/a
359.666	0.075	719332	keystroke_Key.space	Key.space	n/a
359.831	0.121	719662	keystroke_s	s	n/a
359.907	0.1645	719814	keystroke_i	i	n/a
360.0265	0.15	720053	keystroke_n	n	n/a
360.2065	0.1055	720413	keystroke_g	g	n/a
360.597	0.075	721194	keystroke_Key.backspace	Key.backspace	n/a
360.687	0.18	721374	keystroke_c	c	n/a
360.807	0.15	721614	keystroke_e	e	n/a
360.972	0.105	721944	keystroke_Key.space	Key.space	n/a
361.347	0.06	722694	keystroke_l	l	n/a
361.557	0.195	723114	keystroke_o	o	n/a
361.692	0.225	723384	keystroke_u	u	n/a
361.872	0.165	723744	keystroke_i	i	n/a
362.052	0.255	724104	keystroke_s	s	n/a
362.217	0.18	724434	keystroke_e	e	n/a
362.682	0.135	725364	keystroke_Key.space	Key.space	n/a
362.832	0.165	725664	keystroke_r	r	n/a
362.922	0.1355	725844	keystroke_a	a	n/a
363.2215	0.165	726443	keystroke_t	t	n/a
363.4465	0.105	726893	keystroke_e	e	n/a
364.6915	0.135	729383	keystroke_Key.enter	Key.enter	n/a
364.8325	4.4505	729665	prompt	n/a	meaning opinion go fold\n
365.5015	0.135	731003	keystroke_m	m	n/a
365.5615	0.225	731123	keystroke_e	e	n/a
365.6515	0.18	731303	keystroke_a	a	n/a
365.8015	0.09	731603	keystroke_n	n	n/a
365.8615	0.18	731723	keystroke_i	i	n/a
365.9665	0.135	731933	keystroke_n	n	n/a
366.0865	0.15	732173	keystroke_g	g	n/a
366.2215	0.12	732443	keystroke_Key.space	Key.space	n/a
366.3715	0.21	732743	keystroke_o	o	n/a
366.5065	0.15	733013	keystroke_p	p	n/a
366.7615	0.195	733523	keystroke_i	i	n/a
366.8815	0.195	733763	keystroke_n	n	n/a
367.0465	0.21	734093	keystroke_i	i	n/a
367.2115	0.255	734423	keystroke_o	o	n/a
367.3315	0.255	734663	keystroke_n	n	n/a
367.5115	0.12	735023	keystroke_Key.space	Key.space	n/a
367.6615	0.135	735323	keystroke_g	g	n/a
367.7515	0.15	735503	keystroke_o	o	n/a
367.8415	0.12	735683	keystroke_Key.space	Key.space	n/a
368.6815	0.075	737363	keystroke_f	f	n/a
368.7865	0.075	737573	keystroke_o	o	n/a
368.9665	0.075	737933	keystroke_l	l	n/a
369.0865	0.045	738173	keystroke_d	d	n/a
369.2515	0.03	738503	keystroke_Key.enter	Key.enter	n/a
369.286	5.4275	738572	prompt	n/a	crash brother brunswick deal\n
369.9565	0.075	739913	keystroke_c	c	n/a
370.2115	0.135	740423	keystroke_r	r	n/a
370.3165	0.225	740633	keystroke_a	a	n/a
370.4965	0.135	740993	keystroke_s	s	n/a
370.6165	0.12	741233	keystroke_h	h	n/a
370.7065	0.09	741413	keystroke_Key.space	Key.space	n/a
370.8415	0.09	741683	keystroke_b	b	n/a
370.9325	0.089	741865	keystroke_r	r	n/a
371.0365	0.135	742073	keystroke_o	o	n/a
371.1565	0.09	742313	keystroke_t	t	n/a
371.2765	0.09	742553	keystroke_h	h	n/a
371.3815	0.18	742763	keystroke_e	e	n/a
371.4865	0.135	742973	keystroke_r	r	n/a
371.6515	0.105	743303	keystroke_Key.space	Key.space	n/a
371.8315	0.09	743663	keystroke_b	b	n/a
371.9665	0.105	743933	keystroke_r	r	n/a
372.0865	0.195	744173	keystroke_u	u	n/a
372.2665	0.195	744533	keystroke_n	n	n/a
372.4765	0.135	744953	keystroke_s	s	n/a
373.0315	0.105	746063	keystroke_w	w	n/a
373.1515	0.105	746303	keystroke_i	i	n/a
373.3165	0.12	746633	keystroke_c	c	n/a
373.4375	0.149	746875	keystroke_k	k	n/a
373.5415	0.1055	747083	keystroke_Key.space	Key.space	n/a
373.9015	0.135	747803	keystroke_d	d	n/a
374.0515	0.2105	748103	keystroke_e	e	n/a
374.202	0.165	748404	keystroke_a	a	n/a
374.352	0.105	748704	keystroke_l	l	n/a
374.637	0.075	749274	keystroke_Key.enter	Key.enter	n/a
374.7185	7.4205	749437	prompt	n/a	cubic dollar buses enhanced\n
375.447	0.105	750894	keystroke_c	c	n/a
375.567	0.15	751134	keystroke_u	u	n/a
375.657	0.119	751314	keystroke_b	b	n/a
376.362	0.12	752724	keystroke_i	i	n/a
376.482	0.105	752964	keystroke_c	c	n/a
376.602	0.12	753204	keystroke_Key.space	Key.space	n/a
376.797	0.12	753594	keystroke_d	d	n/a
376.902	0.06	753804	keystroke_o	o	n/a
377.051	0.06	754102	keystroke_l	l	n/a
377.186	0.105	754372	keystroke_l	l	n/a
377.231	0.165	754462	keystroke_a	a	n/a
377.366	0.15	754732	keystroke_r	r	n/a
377.591	0.09	755182	keystroke_Key.space	Key.space	n/a
377.771	0.12	755542	keystroke_b	b	n/a
377.876	0.165	755752	keystroke_u	u	n/a
378.026	0.15	756052	keystroke_s	s	n/a
378.191	0.255	756382	keystroke_e	e	n/a
378.326	0.18	756652	keystroke_s	s	n/a
378.566	0.105	757132	keystroke_Key.space	Key.space	n/a
378.926	0.105	757852	keystroke_e	e	n/a
379.046	0.105	758092	keystroke_n	n	n/a
379.586	0.12	759172	keystroke_h	h	n/a
379.751	0.12	759502	keystroke_a	a	n/a
379.886	0.151	759772	keystroke_n	n	n/a
379.9915	0.1055	759983	keystroke_c	c	n/a
380.367	0.09	760734	keystroke_e	e	n/a
380.6365	0.06	761273	keystroke_d	d	n/a
382.002	0.1345	764004	keystroke_Key.enter	Key.enter	n/a
382.1495	7.609	764299	prompt	n/a	alternate evaluated hawaiian missing\n
382.887	0.12	765774	keystroke_a	a	n/a
383.022	0.12	766044	keystroke_l	l	n/a
383.157	0.12	766314	keystroke_t	t	n/a
383.307	0.165	766614	keystroke_e	e	n/a
383.412	0.15	766824	keystroke_r	r	n/a
383.607	0.12	767214	keystroke_n	n	n/a
383.697	0.09	767394	keystroke_a	a	n/a
383.877	0.09	767754	keystroke_t	t	n/a
384.087	0.135	768174	keystroke_e	e	n/a
384.236	0.091	768472	keystroke_Key.space	Key.space	n/a
384.357	0.09	768714	keystroke_e	e	n/a
384.582	0.21	769164	keystroke_v	v	n/a
384.717	0.15	769434	keystroke_a	a	n/a
384.852	0.105	769704	keystroke_l	l	n/a
385.0765	0.12	770153	keystroke_u	u	n/a
386.0215	0.1055	772043	keystroke_a	a	n/a
386.202	0.15	772404	keystroke_t	t	n/a
386.277	0.1195	772554	keystroke_e	e	n/a
386.502	0.09	773004	keystroke_d	d	n/a
386.622	0.09	773244	keystroke_Key.space	Key.space	n/a
386.817	0.12	773634	keystroke_h	h	n/a
386.952	0.105	773904	keystroke_a	a	n/a
387.147	0.195	774294	keystroke_w	w	n/a
387.252	0.15	774504	keystroke_a	a	n/a
387.447	0.075	774894	keystroke_i	i	n/a
387.597	0.09	775194	keystroke_i	i	n/a
387.747	0.105	775494	keystroke_a	a	n/a
387.882	0.1495	775764	keystroke_n	n	n/a
388.017	0.105	776034	keystroke_Key.space	Key.space	n/a
388.272	0.06	776544	keystroke_m	m	n/a
388.421	0.076	776842	keystroke_i	i	n/a
388.767	0.09	777534	keystroke_s	s	n/a
388.962	0.089	777924	keystroke_s	s	n/a
389.096	0.18	778192	keystroke_i	i	n/a
389.186	0.15	778372	keystroke_n	n	n/a
389.321	0.09	778642	keystroke_g	g	n/a
389.681	0.075	779362	keystroke_Key.enter	Key.enter	n/a
389.7675	5.9905	779535	prompt	n/a	entering talking aerial thesaurus\n
390.342	0.105	780684	keystroke_e	e	n/a
390.462	0.09	780924	keystroke_n	n	n/a
390.567	0.105	781134	keystroke_t	t	n/a
390.717	0.165	781434	keystroke_e	e	n/a
390.807	0.135	781614	keystroke_r	r	n/a
391.002	0.1345	782004	keystroke_i	i	n/a
391.0765	0.165	782153	keystroke_n	n	n/a
391.1965	0.09	782393	keystroke_g	g	n/a
391.3015	0.09	782603	keystroke_Key.space	Key.space	n/a
391.4665	0.255	782933	keystroke_t	t	n/a
391.5415	0.015	783083	keystroke_a	a	n/a
391.6615	0.165	783323	keystroke_a	a	n/a
392.1865	0.075	784373	keystroke_Key.backspace	Key.backspace	n/a
392.4265	0.18	784853	keystroke_l	l	n/a
392.5615	0.135	785123	keystroke_k	k	n/a
392.7565	0.165	785513	keystroke_i	i	n/a
392.8465	0.1945	785693	keystroke_n	n	n/a
392.9965	0.1045	785993	keystroke_g	g	n/a
393.102	0.104	786204	keystroke_Key.space	Key.space	n/a
393.222	0.12	786444	keystroke_a	a	n/a
393.431	0.166	786862	keystroke_e	e	n/a
393.537	0.149	787074	keystroke_r	r	n/a
393.687	0.1045	787374	keystroke_i	i	n/a
393.7765	0.15	787553	keystroke_a	a	n/a
393.9275	0.119	787855	keystroke_l	l	n/a
394.0165	0.135	788033	keystroke_Key.space	Key.space	n/a
394.2115	0.105	788423	keystroke_t	t	n/a
394.3175	0.134	788635	keystroke_h	h	n/a
394.4215	0.15	788843	keystroke_e	e	n/a
394.5865	0.1795	789173	keystroke_s	s	n/a
394.8865	0.12	789773	keystroke_a	a	n/a
395.0215	0.135	790043	keystroke_u	u	n/a
395.1715	0.135	790343	keystroke_r	r	n/a
395.3515	0.1205	790703	keystroke_u	u	n/a
395.502	0.15	791004	keystroke_s	s	n/a
395.682	0.075	791364	keystroke_Key.enter	Key.enter	n/a
395.7625	6.3105	791525	prompt	n/a	cookbook implications sounds colombia\n
396.4465	0.105	792893	keystroke_c	c	n/a
396.5665	0.06	793133	keystroke_o	o	n/a
396.6865	0.135	793373	keystroke_o	o	n/a
396.7915	0.105	793583	keystroke_k	k	n/a
397.2115	0.09	794423	keystroke_b	b	n/a
397.3165	0.06	794633	keystroke_o	o	n/a
397.4515	0.18	794903	keystroke_o	o	n/a
397.5715	0.165	795143	keystroke_k	k	n/a
397.6765	0.12	795353	keystroke_Key.space	Key.space	n/a
397.8415	0.1205	795683	keystroke_i	i	n/a
397.9165	0.1355	795833	keystroke_m	m	n/a
398.022	0.18	796044	keystroke_p	p	n/a
398.157	0.12	796314	keystroke_l	l	n/a
398.382	0.105	796764	keystroke_i	i	n/a
398.457	0.18	796914	keystroke_c	c	n/a
398.562	0.15	797124	keystroke_a	a	n/a
398.832	0.135	797664	keystroke_t	t	n/a
398.907	0.255	797814	keystroke_i	i	n/a
399.012	0.21	798024	keystroke_o	o	n/a
399.132	0.18	798264	keystroke_n	n	n/a
399.282	0.09	798564	keystroke_s	s	n/a
399.387	0.12	798774	keystroke_Key.space	Key.space	n/a
399.492	0.12	798984	keystroke_s	s	n/a
399.597	0.315	799194	keystroke_o	o	n/a
399.717	0.224	799434	keystroke_u	u	n/a
399.852	0.165	799704	keystroke_n	n	n/a
399.926	0.271	799852	keystroke_d	d	n/a
400.062	0.21	800124	keystroke_s	s	n/a
400.287	0.074	800574	keystroke_Key.space	Key.space	n/a
400.392	0.12	800784	keystroke_c	c	n/a
400.481	0.061	800962	keystroke_o	o	n/a
400.662	0.045	801324	keystroke_l	l	n/a
400.842	0.105	801684	keystroke_o	o	n/a
401.2765	0.09	802553	keystroke_m	m	n/a
401.5315	0.105	803063	keystroke_b	b	n/a
401.6065	0.12	803213	keystroke_i	i	n/a
401.7415	0.09	803483	keystroke_a	a	n/a
402.0415	0.03	804083	keystroke_Key.enter	Key.enter	n/a
402.076	6.777	804152	prompt	n/a	regulated voters pieces generating\n
402.882	0.1495	805764	keystroke_r	r	n/a
402.956	0.1655	805912	keystroke_e	e	n/a
403.1065	0.09	806213	keystroke_g	g	n/a
403.1365	0.105	806273	keystroke_u	u	n/a
403.3615	0.09	806723	keystroke_l	l	n/a
403.4965	0.21	806993	keystroke_a	a	n/a
403.842	0.135	807684	keystroke_t	t	n/a
403.932	0.135	807864	keystroke_e	e	n/a
404.187	0.105	808374	keystroke_d	d	n/a
404.397	0.09	808794	keystroke_Key.space	Key.space	n/a
404.637	0.09	809274	keystroke_v	v	n/a
404.727	0.105	809454	keystroke_o	o	n/a
404.892	0.12	809784	keystroke_t	t	n/a
405.042	0.195	810084	keystroke_e	e	n/a
405.147	0.225	810294	keystroke_r	r	n/a
405.327	0.165	810654	keystroke_s	s	n/a
405.477	0.09	810954	keystroke_Key.space	Key.space	n/a
405.627	0.195	811254	keystroke_p	p	n/a
405.777	0.21	811554	keystroke_i	i	n/a
405.927	0.135	811854	keystroke_e	e	n/a
406.077	0.225	812154	keystroke_c	c	n/a
406.257	0.165	812514	keystroke_e	e	n/a
406.662	0.1345	813324	keystroke_s	s	n/a
406.8715	0.105	813743	keystroke_Key.space	Key.space	n/a
407.502	0.135	815004	keystroke_g	g	n/a
407.577	0.119	815154	keystroke_e	e	n/a
407.712	0.12	815424	keystroke_n	n	n/a
407.802	0.194	815604	keystroke_e	e	n/a
407.906	0.165	815812	keystroke_r	r	n/a
408.086	0.121	816172	keystroke_a	a	n/a
408.281	0.106	816562	keystroke_t	t	n/a
408.387	0.179	816774	keystroke_i	i	n/a
408.446	0.1805	816892	keystroke_n	n	n/a
408.6115	0.09	817223	keystroke_g	g	n/a
408.7615	0.09	817523	keystroke_Key.enter	Key.enter	n/a
408.857	6.221	817714	prompt	n/a	deliver underlying origin extends\n
409.5415	0.135	819083	keystroke_d	d	n/a
409.6315	0.135	819263	keystroke_e	e	n/a
409.7515	0.075	819503	keystroke_l	l	n/a
409.9015	0.09	819803	keystroke_i	i	n/a
409.9165	0.135	819833	keystroke_v	v	n/a
410.0965	0.24	820193	keystroke_e	e	n/a
410.2315	0.15	820463	keystroke_r	r	n/a
410.4115	0.09	820823	keystroke_Key.space	Key.space	n/a
410.6065	0.165	821213	keystroke_u	u	n/a
410.697	0.1645	821394	keystroke_n	n	n/a
410.8465	0.105	821693	keystroke_d	d	n/a
411.0715	0.21	822143	keystroke_e	e	n/a
411.1765	0.165	822353	keystroke_r	r	n/a
411.4015	0.09	822803	keystroke_l	l	n/a
411.6715	0.09	823343	keystroke_y	y	n/a
411.8365	0.165	823673	keystroke_i	i	n/a
411.9115	0.165	823823	keystroke_n	n	n/a
412.0315	0.12	824063	keystroke_g	g	n/a
412.1365	0.09	824273	keystroke_Key.space	Key.space	n/a
412.2565	0.135	824513	keystroke_o	o	n/a
412.4065	0.105	824813	keystroke_r	r	n/a
412.5565	0.105	825113	keystroke_i	i	n/a
413.292	0.09	826584	keystroke_g	g	n/a
413.382	0.195	826764	keystroke_i	i	n/a
413.517	0.21	827034	keystroke_n	n	n/a
413.682	0.1345	827364	keystroke_Key.space	Key.space	n/a
413.802	0.09	827604	keystroke_e	e	n/a
414.027	0.075	828054	keystroke_x	x	n/a
414.282	0.12	828564	keystroke_t	t	n/a
414.342	0.15	828684	keystroke_e	e	n/a
414.477	0.12	828954	keystroke_n	n	n/a
414.612	0.195	829224	keystroke_d	d	n/a
414.717	0.15	829434	keystroke_s	s	n/a
414.957	0.12	829914	keystroke_Key.enter	Key.enter	n/a
415.0805	5.5475	830161	prompt	n/a	outlets perfectly millions an\n
415.737	0.18	831474	keystroke_o	o	n/a
415.857	0.135	831714	keystroke_u	u	n/a
415.977	0.09	831954	keystroke_t	t	n/a
416.217	0.135	832434	keystroke_l	l	n/a
416.277	0.225	832554	keystroke_e	e	n/a
416.412	0.285	832824	keystroke_t	t	n/a
416.577	0.18	833154	keystroke_s	s	n/a
416.772	0.105	833544	keystroke_Key.space	Key.space	n/a
417.027	0.165	834054	keystroke_p	p	n/a
417.132	0.15	834264	keystroke_e	e	n/a
417.207	0.105	834414	keystroke_r	r	n/a
417.432	0.12	834864	keystroke_f	f	n/a
417.507	0.105	835014	keystroke_e	e	n/a
417.732	0.075	835464	keystroke_c	c	n/a
417.987	0.075	835974	keystroke_t	t	n/a
418.107	0.105	836214	keystroke_l	l	n/a
418.197	0.105	836394	keystroke_y	y	n/a
418.317	0.105	836634	keystroke_Key.space	Key.space	n/a
418.9615	0.09	837923	keystroke_m	m	n/a
419.1265	0.075	838253	keystroke_i	i	n/a
419.3065	0.075	838613	keystroke_l	l	n/a
419.4415	0.105	838883	keystroke_l	l	n/a
419.6515	0.165	839303	keystroke_i	i	n/a
419.7415	0.24	839483	keystroke_o	o	n/a
419.892	0.1495	839784	keystroke_n	n	n/a
420.0265	0.135	840053	keystroke_s	s	n/a
420.1765	0.09	840353	keystroke_Key.space	Key.space	n/a
420.2965	0.105	840593	keystroke_a	a	n/a
420.3865	0.105	840773	keystroke_n	n	n/a
420.5515	0.075	841103	keystroke_Key.enter	Key.enter	n/a
420.6315	9.072	841263	prompt	n/a	possibly operator saskatchewan chain\n
421.332	0.105	842664	keystroke_p	p	n/a
421.512	0.09	843024	keystroke_o	o	n/a
421.812	0.075	843624	keystroke_s	s	n/a
421.992	0.105	843984	keystroke_s	s	n/a
422.112	0.165	844224	keystroke_i	i	n/a
422.247	0.18	844494	keystroke_b	b	n/a
422.382	0.165	844764	keystroke_l	l	n/a
422.622	0.12	845244	keystroke_y	y	n/a
422.772	0.09	845544	keystroke_Key.space	Key.space	n/a
422.967	0.165	845934	keystroke_o	o	n/a
423.237	0.135	846474	keystroke_p	p	n/a
423.357	0.18	846714	keystroke_e	e	n/a
423.462	0.15	846924	keystroke_r	r	n/a
423.687	0.105	847374	keystroke_a	a	n/a
423.912	0.15	847824	keystroke_t	t	n/a
424.107	0.15	848214	keystroke_o	o	n/a
424.212	0.105	848424	keystroke_r	r	n/a
424.332	0.12	848664	keystroke_Key.space	Key.space	n/a
424.557	0.09	849114	keystroke_s	s	n/a
424.752	0.135	849504	keystroke_a	a	n/a
424.917	0.12	849834	keystroke_s	s	n/a
425.172	0.135	850344	keystroke_k	k	n/a
425.322	0.105	850644	keystroke_a	a	n/a
425.637	0.12	851274	keystroke_t	t	n/a
426.327	0.135	852654	keystroke_c	c	n/a
426.597	0.12	853194	keystroke_h	h	n/a
426.732	0.165	853464	keystroke_e	e	n/a
426.837	0.21	853674	keystroke_w	w	n/a
427.272	0.15	854544	keystroke_a	a	n/a
427.527	0.195	855054	keystroke_n	n	n/a
427.677	0.135	855354	keystroke_Key.space	Key.space	n/a
427.932	0.12	855864	keystroke_c	c	n/a
428.022	0.135	856044	keystroke_h	h	n/a
428.142	0.1195	856284	keystroke_a	a	n/a
428.2465	0.105	856493	keystroke_i	i	n/a
428.3815	0.075	856763	keystroke_r	r	n/a
429.0715	0.075	858143	keystroke_Key.backspace	Key.backspace	n/a
429.3865	0.075	858773	keystroke_n	n	n/a
429.6415	0.06	859283	keystroke_Key.enter	Key.enter	n/a
429.7125	6.7105	859425	prompt	n/a	tuition adaptation fallen salvador\n
430.5715	0.09	861143	keystroke_t	t	n/a
430.6465	0.075	861293	keystroke_u	u	n/a
431.0365	0.06	862073	keystroke_i	i	n/a
431.5015	0.105	863003	keystroke_t	t	n/a
431.5915	0.225	863183	keystroke_i	i	n/a
431.6815	0.24	863363	keystroke_o	o	n/a
431.8015	0.21	863603	keystroke_n	n	n/a
431.9665	0.105	863933	keystroke_Key.space	Key.space	n/a
432.3115	0.135	864623	keystroke_a	a	n/a
432.4765	0.24	864953	keystroke_d	d	n/a
432.5965	0.1655	865193	keystroke_a	a	n/a
432.7465	0.165	865493	keystroke_p	p	n/a
432.9565	0.105	865913	keystroke_t	t	n/a
433.1665	0.105	866333	keystroke_a	a	n/a
433.3315	0.12	866663	keystroke_t	t	n/a
433.4365	0.2105	866873	keystroke_i	i	n/a
433.587	0.255	867174	keystroke_o	o	n/a
433.692	0.195	867384	keystroke_n	n	n/a
433.857	0.09	867714	keystroke_Key.space	Key.space	n/a
434.022	0.135	868044	keystroke_f	f	n/a
434.277	0.135	868554	keystroke_a	a	n/a
434.397	0.06	868794	keystroke_l	l	n/a
434.532	0.105	869064	keystroke_l	l	n/a
434.652	0.12	869304	keystroke_e	e	n/a
434.757	0.12	869514	keystroke_n	n	n/a
434.847	0.135	869694	keystroke_Key.space	Key.space	n/a
435.042	0.135	870084	keystroke_s	s	n/a
435.267	0.105	870534	keystroke_a	a	n/a
435.387	0.105	870774	keystroke_l	l	n/a
435.537	0.12	871074	keystroke_v	v	n/a
435.582	0.15	871164	keystroke_a	a	n/a
435.807	0.09	871614	keystroke_d	d	n/a
435.927	0.12	871854	keystroke_o	o	n/a
436.077	0.075	872154	keystroke_r	r	n/a
436.392	0.03	872784	keystroke_Key.enter	Key.enter	n/a
436.4255	5.7575	872851	prompt	n/a	suppose assignment order triangle\n
437.112	0.15	874224	keystroke_s	s	n/a
437.277	0.12	874554	keystroke_u	u	n/a
437.352	0.105	874704	keystroke_p	p	n/a
437.532	0.2395	875064	keystroke_p	p	n/a
437.652	0.1945	875304	keystroke_o	o	n/a
437.7415	0.225	875483	keystroke_s	s	n/a
437.8915	0.15	875783	keystroke_e	e	n/a
438.0565	0.12	876113	keystroke_Key.space	Key.space	n/a
438.2365	0.18	876473	keystroke_a	a	n/a
438.3565	0.135	876713	keystroke_s	s	n/a
438.5665	0.105	877133	keystroke_s	s	n/a
438.6565	0.105	877313	keystroke_i	i	n/a
438.7915	0.105	877583	keystroke_g	g	n/a
438.8665	0.075	877733	keystroke_n	n	n/a
439.032	0.09	878064	keystroke_m	m	n/a
439.137	0.12	878274	keystroke_e	e	n/a
439.242	0.09	878484	keystroke_n	n	n/a
439.347	0.105	878694	keystroke_t	t	n/a
439.527	0.09	879054	keystroke_Key.space	Key.space	n/a
439.722	0.105	879444	keystroke_o	o	n/a
439.857	0.075	879714	keystroke_r	r	n/a
440.052	0.09	880104	keystroke_d	d	n/a
440.277	0.195	880554	keystroke_e	e	n/a
440.367	0.15	880734	keystroke_r	r	n/a
440.532	0.09	881064	keystroke_Key.space	Key.space	n/a
440.637	0.165	881274	keystroke_t	t	n/a
440.727	0.15	881454	keystroke_r	r	n/a
440.951	0.106	881902	keystroke_i	i	n/a
441.041	0.09	882082	keystroke_a	a	n/a
441.296	0.12	882592	keystroke_n	n	n/a
441.402	0.105	882804	keystroke_g	g	n/a
441.522	0.089	883044	keystroke_l	l	n/a
441.627	0.06	883254	keystroke_e	e	n/a
442.107	0.075	884214	keystroke_Key.enter	Key.enter	n/a
442.1855	6.2375	884371	prompt	n/a	sucking specialist baking connected\n
442.767	0.135	885534	keystroke_s	s	n/a
442.902	0.09	885804	keystroke_u	u	n/a
443.007	0.105	886014	keystroke_c	c	n/a
443.127	0.0745	886254	keystroke_k	k	n/a
443.2765	0.135	886553	keystroke_i	i	n/a
443.3515	0.18	886703	keystroke_n	n	n/a
443.4865	0.12	886973	keystroke_g	g	n/a
443.5915	0.09	887183	keystroke_Key.space	Key.space	n/a
443.7115	0.105	887423	keystroke_s	s	n/a
443.7715	0.165	887543	keystroke_p	p	n/a
443.8915	0.075	887783	keystroke_e	e	n/a
444.1165	0.075	888233	keystroke_c	c	n/a
444.2065	0.105	888413	keystroke_i	i	n/a
444.7165	0.15	889433	keystroke_a	a	n/a
444.9415	0.105	889883	keystroke_l	l	n/a
445.1365	0.105	890273	keystroke_i	i	n/a
445.2265	0.135	890453	keystroke_s	s	n/a
445.4215	0.135	890843	keystroke_t	t	n/a
445.6015	0.105	891203	keystroke_Key.space	Key.space	n/a
445.9465	0.09	891893	keystroke_b	b	n/a
446.0375	0.135	892075	keystroke_a	a	n/a
446.1865	0.076	892373	keystroke_k	k	n/a
446.3375	0.179	892675	keystroke_i	i	n/a
446.4265	0.18	892853	keystroke_n	n	n/a
446.6215	0.135	893243	keystroke_g	g	n/a
446.7715	0.1205	893543	keystroke_Key.space	Key.space	n/a
446.997	0.12	893994	keystroke_c	c	n/a
447.087	0.09	894174	keystroke_o	o	n/a
447.252	0.0595	894504	keystroke_n	n	n/a
447.3715	0.12	894743	keystroke_n	n	n/a
447.4165	0.15	894833	keystroke_e	e	n/a
447.4925	0.134	894985	keystroke_c	c	n/a
447.7615	0.165	895523	keystroke_t	t	n/a
447.8815	0.135	895763	keystroke_e	e	n/a
448.1065	0.12	896213	keystroke_d	d	n/a
448.3165	0.105	896633	keystroke_Key.enter	Key.enter	n/a
448.426	7.4375	896852	prompt	n/a	recorder magnitude fantasy he've\n
449.172	0.075	898344	keystroke_s	s	n/a
449.532	0.09	899064	keystroke_Key.backspace	Key.backspace	n/a
449.607	0.15	899214	keystroke_r	r	n/a
449.697	0.12	899394	keystroke_e	e	n/a
450.1315	0.135	900263	keystroke_c	c	n/a
450.3265	0.15	900653	keystroke_o	o	n/a
450.4465	0.09	900893	keystroke_r	r	n/a
450.6415	0.075	901283	keystroke_d	d	n/a
450.8815	0.1645	901763	keystroke_e	e	n/a
450.9415	0.1805	901883	keystroke_r	r	n/a
451.361	0.105	902722	keystroke_Key.space	Key.space	n/a
451.556	0.105	903112	keystroke_m	m	n/a
451.616	0.121	903232	keystroke_a	a	n/a
451.9765	0.09	903953	keystroke_g	g	n/a
452.1415	0.12	904283	keystroke_n	n	n/a
452.2165	0.18	904433	keystroke_i	i	n/a
452.4715	0.09	904943	keystroke_t	t	n/a
452.5915	0.135	905183	keystroke_u	u	n/a
453.0115	0.2395	906023	keystroke_d	d	n/a
453.206	0.151	906412	keystroke_e	e	n/a
453.371	0.12	906742	keystroke_Key.space	Key.space	n/a
453.476	0.21	906952	keystroke_f	f	n/a
453.596	0.15	907192	keystroke_a	a	n/a
453.761	0.1205	907522	keystroke_n	n	n/a
453.9115	0.09	907823	keystroke_t	t	n/a
454.1065	0.256	908213	keystroke_a	a	n/a
454.3015	0.165	908603	keystroke_s	s	n/a
454.6165	0.15	909233	keystroke_y	y	n/a
454.7065	0.135	909413	keystroke_Key.space	Key.space	n/a
454.9175	0.1195	909835	keystroke_h	h	n/a
455.0215	0.1205	910043	keystroke_e	e	n/a
455.127	0.135	910254	keystroke_'	'	n/a
455.277	0.18	910554	keystroke_v	v	n/a
455.397	0.135	910794	keystroke_e	e	n/a
455.757	0.105	911514	keystroke_Key.enter	Key.enter	n/a
455.873	6.215	911746	prompt	n/a	doctors mounts addiction round\n
456.522	0.135	913044	keystroke_d	d	n/a
456.792	0.1195	913584	keystroke_o	o	n/a
456.8965	0.0895	913793	keystroke_c	c	n/a
457.137	0.074	914274	keystroke_t	t	n/a
457.256	0.106	914512	keystroke_o	o	n/a
457.391	0.151	914782	keystroke_r	r	n/a
457.587	0.179	915174	keystroke_s	s	n/a
457.721	0.09	915442	keystroke_Key.space	Key.space	n/a
457.886	0.151	915772	keystroke_m	m	n/a
458.081	0.301	916162	keystroke_o	o	n/a
458.217	0.225	916434	keystroke_u	u	n/a
458.337	0.195	916674	keystroke_n	n	n/a
458.472	0.24	916944	keystroke_t	t	n/a
458.622	0.195	917244	keystroke_s	s	n/a
458.847	0.105	917694	keystroke_Key.space	Key.space	n/a
459.102	0.12	918204	keystroke_a	a	n/a
459.387	0.015	918774	keystroke_d	d	n/a
459.477	0.075	918954	keystroke_d	d	n/a
459.582	0.105	919164	keystroke_i	i	n/a
459.702	0.09	919404	keystroke_c	c	n/a
459.972	0.12	919944	keystroke_t	t	n/a
460.107	0.21	920214	keystroke_i	i	n/a
460.257	0.3	920514	keystroke_o	o	n/a
460.377	0.315	920754	keystroke_n	n	n/a
460.617	0.18	921234	keystroke_Key.space	Key.space	n/a
460.9615	0.135	921923	keystroke_r	r	n/a
461.0665	0.285	922133	keystroke_o	o	n/a
461.1715	0.225	922343	keystroke_u	u	n/a
461.4115	0.165	922823	keystroke_n	n	n/a
461.5915	0.09	923183	keystroke_d	d	n/a
461.9965	0.0905	923993	keystroke_Key.enter	Key.enter	n/a
462.0915	7.3475	924183	prompt	n/a	joyce exec penalties strand\n
462.971	0.106	925942	keystroke_j	j	n/a
463.0315	0.1205	926063	keystroke_o	o	n/a
463.287	0.105	926574	keystroke_y	y	n/a
463.422	0.225	926844	keystroke_c	c	n/a
463.557	0.165	927114	keystroke_e	e	n/a
463.767	0.105	927534	keystroke_Key.space	Key.space	n/a
463.976	0.106	927952	keystroke_e	e	n/a
464.337	0.105	928674	keystroke_x	x	n/a
464.622	0.105	929244	keystroke_e	e	n/a
465.072	0.044	930144	keystroke_c	c	n/a
465.672	0.105	931344	keystroke_Key.space	Key.space	n/a
465.822	0.105	931644	keystroke_p	p	n/a
465.957	0.12	931914	keystroke_e	e	n/a
466.077	0.12	932154	keystroke_n	n	n/a
466.227	0.1055	932454	keystroke_a	a	n/a
466.3175	0.09	932635	keystroke_l	l	n/a
466.6925	0.135	933385	keystroke_t	t	n/a
466.7975	0.135	933595	keystroke_i	i	n/a
466.9025	0.239	933805	keystroke_e	e	n/a
467.0075	0.195	934015	keystroke_s	s	n/a
467.1565	0.09	934313	keystroke_Key.space	Key.space	n/a
467.5625	0.105	935125	keystroke_s	s	n/a
467.7865	0.09	935573	keystroke_t	t	n/a
467.9375	0.15	935875	keystroke_a	a	n/a
468.3565	0.105	936713	keystroke_Key.backspace	Key.backspace	n/a
468.7025	0.194	937405	keystroke_r	r	n/a
468.8065	0.166	937613	keystroke_a	a	n/a
468.9725	0.119	937945	keystroke_n	n	n/a
469.1215	0.105	938243	keystroke_d	d	n/a
469.3315	0.105	938663	keystroke_Key.enter	Key.enter	n/a
469.448	5.3005	938896	prompt	n/a	ne'er condo memo starring\n
470.2015	0.121	940403	keystroke_n	n	n/a
470.3375	0.119	940675	keystroke_e	e	n/a
470.4415	0.105	940883	keystroke_'	'	n/a
470.7715	0.21	941543	keystroke_e	e	n/a
470.9065	0.165	941813	keystroke_r	r	n/a
471.1165	0.1055	942233	keystroke_Key.space	Key.space	n/a
471.462	0.12	942924	keystroke_c	c	n/a
471.567	0.1805	943134	keystroke_o	o	n/a
471.687	0.12	943374	keystroke_n	n	n/a
472.047	0.195	944094	keystroke_d	d	n/a
472.452	0.18	944904	keystroke_o	o	n/a
472.572	0.105	945144	keystroke_Key.space	Key.space	n/a
472.797	0.09	945594	keystroke_m	m	n/a
472.872	0.105	945744	keystroke_e	e	n/a
472.992	0.165	945984	keystroke_m	m	n/a
473.142	0.18	946284	keystroke_o	o	n/a
473.307	0.12	946614	keystroke_Key.space	Key.space	n/a
473.457	0.075	946914	keystroke_s	s	n/a
473.637	0.09	947274	keystroke_t	t	n/a
473.787	0.105	947574	keystroke_a	a	n/a
474.027	0.09	948054	keystroke_r	r	n/a
474.207	0.075	948414	keystroke_r	r	n/a
474.312	0.195	948624	keystroke_i	i	n/a
474.417	0.135	948834	keystroke_n	n	n/a
