onset	duration	sample	value	key	prompt_text
4.311	11.46	8622	prompt	n/a	the quick brown fox jumps over a lazy dog\n
9.32	0.073	18640	keystroke_t	t	n/a
9.4525	0.105	18905	keystroke_h	h	n/a
9.498	0.15	18996	keystroke_e	e	n/a
9.6025	0.195	19205	keystroke_Key.space	Key.space	n/a
9.783	0.1495	19566	keystroke_q	q	n/a
9.917	0.136	19834	keystroke_u	u	n/a
10.0535	0.0745	20107	keystroke_i	i	n/a
10.1875	0.1205	20375	keystroke_c	c	n/a
10.323	0.12	20646	keystroke_k	k	n/a
10.4125	0.1495	20825	keystroke_Key.space	Key.space	n/a
10.668	0.045	21336	keystroke_b	b	n/a
10.922	0.0755	21844	keystroke_r	r	n/a
11.0735	0.074	22147	keystroke_o	o	n/a
11.1485	0.1645	22297	keystroke_w	w	n/a
11.2985	0.09	22597	keystroke_n	n	n/a
11.4175	0.1505	22835	keystroke_Key.space	Key.space	n/a
11.5375	0.106	23075	keystroke_f	f	n/a
11.733	0.0895	23466	keystroke_o	o	n/a
11.853	0.1345	23706	keystroke_x	x	n/a
12.003	0.1195	24006	keystroke_Key.space	Key.space	n/a
12.1675	0.061	24335	keystroke_j	j	n/a
12.3325	0.0905	24665	keystroke_u	u	n/a
12.557	0.0905	25114	keystroke_m	m	n/a
12.738	0.0755	25476	keystroke_p	p	n/a
12.8575	0.121	25715	keystroke_s	s	n/a
12.9475	0.1955	25895	keystroke_Key.space	Key.space	n/a
13.173	0.09	26346	keystroke_o	o	n/a
13.3535	0.0745	26707	keystroke_v	v	n/a
13.594	0.1345	27188	keystroke_e	e	n/a
13.683	0.15	27366	keystroke_r	r	n/a
13.803	0.1645	27606	keystroke_Key.space	Key.space	n/a
13.9535	0.1645	27907	keystroke_a	a	n/a
14.0885	0.134	28177	keystroke_Key.space	Key.space	n/a
14.238	0.1205	28476	keystroke_l	l	n/a
14.373	0.1345	28746	keystroke_a	a	n/a
14.7325	0.105	29465	keystroke_z	z	n/a
14.913	0.075	29826	keystroke_y	y	n/a
15.063	0.12	30126	keystroke_Key.space	Key.space	n/a
15.228	0.1045	30456	keystroke_d	d	n/a
15.348	0.0895	30696	keystroke_o	o	n/a
15.4825	0.091	30965	keystroke_g	g	n/a
15.678	0.09	31356	keystroke_Key.enter	Key.enter	n/a
15.777	5.738	31554	prompt	n/a	norman flour passengers invalid\n
16.4285	0.1345	32857	keystroke_n	n	n/a
16.578	0.074	33156	keystroke_o	o	n/a
16.6535	0.1345	33307	keystroke_r	r	n/a
16.8035	0.1045	33607	keystroke_m	m	n/a
16.9525	0.1355	33905	keystroke_a	a	n/a
17.2375	0.1055	34475	keystroke_n	n	n/a
17.418	0.1195	34836	keystroke_Key.space	Key.space	n/a
17.6735	0.0745	35347	keystroke_f	f	n/a
17.778	0.0755	35556	keystroke_l	l	n/a
17.958	0.1505	35916	keystroke_o	o	n/a
18.078	0.1055	36156	keystroke_u	u	n/a
18.3785	0.1195	36757	keystroke_r	r	n/a
18.513	0.1355	37026	keystroke_Key.space	Key.space	n/a
18.7535	0.1045	37507	keystroke_p	p	n/a
18.9035	0.164	37807	keystroke_a	a	n/a
19.0535	0.0895	38107	keystroke_s	s	n/a
19.248	0.105	38496	keystroke_s	s	n/a
19.383	0.1045	38766	keystroke_e	e	n/a
19.503	0.12	39006	keystroke_n	n	n/a
19.6375	0.0905	39275	keystroke_g	g	n/a
19.8175	0.091	39635	keystroke_e	e	n/a
19.8785	0.105	39757	keystroke_r	r	n/a
20.1025	0.1055	40205	keystroke_s	s	n/a
20.1775	0.15	40355	keystroke_Key.space	Key.space	n/a
20.313	0.1355	40626	keystroke_i	i	n/a
20.3735	0.1495	40747	keystroke_n	n	n/a
20.5685	0.105	41137	keystroke_v	v	n/a
20.748	0.1355	41496	keystroke_a	a	n/a
20.9135	0.1045	41827	keystroke_l	l	n/a
21.093	0.12	42186	keystroke_i	i	n/a
21.1985	0.0895	42397	keystroke_d	d	n/a
21.4075	0.105	42815	keystroke_Key.enter	Key.enter	n/a
21.5195	6.5505	43039	prompt	n/a	strict bedding copy hypothesis\n
22.1585	0.1645	44317	keystroke_s	s	n/a
22.3085	0.0745	44617	keystroke_t	t	n/a
22.4585	0.09	44917	keystroke_r	r	n/a
22.6085	0.0895	45217	keystroke_i	i	n/a
22.7575	0.0905	45515	keystroke_c	c	n/a
23.2085	0.105	46417	keystroke_t	t	n/a
23.372	0.1515	46744	keystroke_Key.space	Key.space	n/a
23.628	0.075	47256	keystroke_b	b	n/a
23.8085	0.0745	47617	keystroke_e	e	n/a
24.0325	0.0455	48065	keystroke_d	d	n/a
24.1675	0.0755	48335	keystroke_d	d	n/a
24.3035	0.104	48607	keystroke_i	i	n/a
24.393	0.12	48786	keystroke_n	n	n/a
24.498	0.1505	48996	keystroke_g	g	n/a
24.6175	0.1505	49235	keystroke_Key.space	Key.space	n/a
24.9035	0.12	49807	keystroke_c	c	n/a
25.053	0.1645	50106	keystroke_o	o	n/a
25.233	0.105	50466	keystroke_p	p	n/a
25.3985	0.09	50797	keystroke_y	y	n/a
25.533	0.105	51066	keystroke_Key.space	Key.space	n/a
25.9835	0.0895	51967	keystroke_h	h	n/a
26.2235	0.075	52447	keystroke_y	y	n/a
26.4025	0.0905	52805	keystroke_p	p	n/a
26.6585	0.0745	53317	keystroke_o	o	n/a
26.838	0.09	53676	keystroke_t	t	n/a
26.9435	0.1045	53887	keystroke_h	h	n/a
27.1225	0.1055	54245	keystroke_e	e	n/a
27.3635	0.15	54727	keystroke_s	s	n/a
27.5885	0.1195	55177	keystroke_i	i	n/a
27.7535	0.119	55507	keystroke_s	s	n/a
27.978	0.0905	55956	keystroke_Key.enter	Key.enter	n/a
28.075	5.86	56150	prompt	n/a	bicycle proved sorted remote\n
28.7585	0.0895	57517	keystroke_b	b	n/a
28.923	0.075	57846	keystroke_i	i	n/a
29.163	0.075	58326	keystroke_c	c	n/a
29.3435	0.105	58687	keystroke_y	y	n/a
29.4785	0.12	58957	keystroke_c	c	n/a
29.6585	0.1045	59317	keystroke_l	l	n/a
29.8085	0.1195	59617	keystroke_e	e	n/a
29.913	0.165	59826	keystroke_Key.space	Key.space	n/a
30.0935	0.09	60187	keystroke_p	p	n/a
30.1985	0.09	60397	keystroke_r	r	n/a
30.3185	0.12	60637	keystroke_o	o	n/a
30.468	0.0905	60936	keystroke_v	v	n/a
30.663	0.06	61326	keystroke_e	e	n/a
30.8585	0.0745	61717	keystroke_d	d	n/a
30.9185	0.1795	61837	keystroke_Key.space	Key.space	n/a
31.0525	0.15	62105	keystroke_s	s	n/a
31.1875	0.12	62375	keystroke_o	o	n/a
31.2925	0.09	62585	keystroke_r	r	n/a
31.4735	0.075	62947	keystroke_t	t	n/a
31.6825	0.046	63365	keystroke_e	e	n/a
31.8335	0.075	63667	keystroke_e	e	n/a
32.3725	0.075	64745	keystroke_Key.backspace	Key.backspace	n/a
32.4635	0.074	64927	keystroke_d	d	n/a
32.6425	0.135	65285	keystroke_Key.space	Key.space	n/a
32.9735	0.105	65947	keystroke_r	r	n/a
33.108	0.1205	66216	keystroke_e	e	n/a
33.2135	0.1195	66427	keystroke_m	m	n/a
33.318	0.1495	66636	keystroke_o	o	n/a
33.4535	0.06	66907	keystroke_t	t	n/a
33.6175	0.0755	67235	keystroke_e	e	n/a
33.8425	0.0905	67685	keystroke_Key.enter	Key.enter	n/a
33.9395	5.8925	67879	prompt	n/a	peoples durham marion wider\n
34.713	0.03	69426	keystroke_p	p	n/a
34.728	0.0905	69456	keystroke_e	e	n/a
34.8325	0.136	69665	keystroke_o	o	n/a
34.9535	0.09	69907	keystroke_p	p	n/a
35.2075	0.106	70415	keystroke_l	l	n/a
35.403	0.1055	70806	keystroke_e	e	n/a
35.823	0.165	71646	keystroke_s	s	n/a
36.018	0.105	72036	keystroke_Key.space	Key.space	n/a
36.2585	0.12	72517	keystroke_d	d	n/a
36.438	0.105	72876	keystroke_u	u	n/a
36.558	0.09	73116	keystroke_r	r	n/a
36.7235	0.1045	73447	keystroke_h	h	n/a
36.8735	0.12	73747	keystroke_a	a	n/a
37.0085	0.09	74017	keystroke_m	m	n/a
37.233	0.1505	74466	keystroke_Key.space	Key.space	n/a
37.4735	0.1045	74947	keystroke_m	m	n/a
37.6085	0.1645	75217	keystroke_a	a	n/a
37.803	0.106	75606	keystroke_r	r	n/a
37.969	0.1345	75938	keystroke_i	i	n/a
38.088	0.1355	76176	keystroke_o	o	n/a
38.583	0.1055	77166	keystroke_n	n	n/a
38.763	0.135	77526	keystroke_Key.space	Key.space	n/a
39.018	0.135	78036	keystroke_w	w	n/a
39.138	0.1355	78276	keystroke_i	i	n/a
39.2885	0.074	78577	keystroke_d	d	n/a
39.453	0.12	78906	keystroke_e	e	n/a
39.558	0.09	79116	keystroke_r	r	n/a
39.708	0.1205	79416	keystroke_Key.enter	Key.enter	n/a
39.8445	7.5905	79689	prompt	n/a	qualification sprint couple excellent\n
40.5785	0.135	81157	keystroke_q	q	n/a
40.7285	0.09	81457	keystroke_u	u	n/a
40.9835	0.1195	81967	keystroke_a	a	n/a
41.133	0.15	82266	keystroke_l	l	n/a
41.253	0.105	82506	keystroke_i	i	n/a
41.418	0.105	82836	keystroke_f	f	n/a
41.553	0.1205	83106	keystroke_i	i	n/a
41.703	0.105	83406	keystroke_c	c	n/a
41.9135	0.135	83827	keystroke_a	a	n/a
42.093	0.076	84186	keystroke_t	t	n/a
42.2435	0.1505	84487	keystroke_i	i	n/a
42.363	0.1955	84726	keystroke_o	o	n/a
42.528	0.105	85056	keystroke_n	n	n/a
42.828	0.2245	85656	keystroke_Key.space	Key.space	n/a
43.008	0.1055	86016	keystroke_s	s	n/a
43.2335	0.12	86467	keystroke_p	p	n/a
43.5035	0.105	87007	keystroke_r	r	n/a
43.7135	0.18	87427	keystroke_i	i	n/a
43.8335	0.12	87667	keystroke_n	n	n/a
44.1635	0.105	88327	keystroke_t	t	n/a
44.3275	0.151	88655	keystroke_Key.space	Key.space	n/a
44.583	0.105	89166	keystroke_c	c	n/a
44.7935	0.135	89587	keystroke_o	o	n/a
45.0035	0.1045	90007	keystroke_u	u	n/a
45.168	0.1055	90336	keystroke_p	p	n/a
45.3925	0.0905	90785	keystroke_l	l	n/a
45.4975	0.135	90995	keystroke_e	e	n/a
45.618	0.1345	91236	keystroke_Key.space	Key.space	n/a
45.7675	0.09	91535	keystroke_e	e	n/a
45.978	0.105	91956	keystroke_x	x	n/a
46.188	0.09	92376	keystroke_c	c	n/a
46.383	0.106	92766	keystroke_e	e	n/a
46.5485	0.06	93097	keystroke_l	l	n/a
46.6685	0.12	93337	keystroke_l	l	n/a
46.7735	0.105	93547	keystroke_e	e	n/a
46.9385	0.105	93877	keystroke_n	n	n/a
47.1635	0.06	94327	keystroke_t	t	n/a
47.3435	0.0895	94687	keystroke_Key.enter	Key.enter	n/a
47.4405	7.9	94881	prompt	n/a	thereby residential attraction fate\n
48.0185	0.075	96037	keystroke_t	t	n/a
48.1085	0.12	96217	keystroke_h	h	n/a
48.2435	0.135	96487	keystroke_e	e	n/a
48.3485	0.135	96697	keystroke_r	r	n/a
48.5135	0.09	97027	keystroke_e	e	n/a
48.783	0.0305	97566	keystroke_v	v	n/a
49.263	0.09	98526	keystroke_Key.backspace	Key.backspace	n/a
49.4135	0.0895	98827	keystroke_b	b	n/a
49.548	0.0605	99096	keystroke_y	y	n/a
49.968	0.1055	99936	keystroke_Key.space	Key.space	n/a
50.2085	0.105	100417	keystroke_r	r	n/a
50.3435	0.09	100687	keystroke_e	e	n/a
50.5675	0.106	101135	keystroke_s	s	n/a
50.6885	0.135	101377	keystroke_i	i	n/a
50.8385	0.075	101677	keystroke_d	d	n/a
51.0035	0.06	102007	keystroke_e	e	n/a
51.1085	0.105	102217	keystroke_n	n	n/a
51.2285	0.075	102457	keystroke_t	t	n/a
51.4385	0.09	102877	keystroke_i	i	n/a
51.5885	0.1045	103177	keystroke_a	a	n/a
51.723	0.105	103446	keystroke_l	l	n/a
51.8885	0.1195	103777	keystroke_Key.space	Key.space	n/a
52.0235	0.15	104047	keystroke_a	a	n/a
52.1575	0.0755	104315	keystroke_t	t	n/a
52.3085	0.075	104617	keystroke_t	t	n/a
52.488	0.0905	104976	keystroke_r	r	n/a
52.638	0.1355	105276	keystroke_a	a	n/a
53.283	0.0755	106566	keystroke_c	c	n/a
53.5085	0.045	107017	keystroke_t	t	n/a
53.658	0.135	107316	keystroke_i	i	n/a
53.763	0.1955	107526	keystroke_o	o	n/a
53.9285	0.1045	107857	keystroke_n	n	n/a
54.3935	0.135	108787	keystroke_Key.space	Key.space	n/a
54.633	0.1055	109266	keystroke_f	f	n/a
54.7985	0.1045	109597	keystroke_a	a	n/a
54.8885	0.0895	109777	keystroke_t	t	n/a
55.068	0.0755	110136	keystroke_e	e	n/a
55.2325	0.1055	110465	keystroke_Key.enter	Key.enter	n/a
55.349	7.506	110698	prompt	n/a	discovery manufactured capable reserves\n
56.0135	0.105	112027	keystroke_d	d	n/a
56.1485	0.12	112297	keystroke_i	i	n/a
56.2835	0.06	112567	keystroke_s	s	n/a
56.4635	0.105	112927	keystroke_c	c	n/a
56.599	0.1195	113198	keystroke_o	o	n/a
56.8535	0.0895	113707	keystroke_v	v	n/a
57.048	0.0905	114096	keystroke_e	e	n/a
57.109	0.104	114218	keystroke_r	r	n/a
57.2875	0.09	114575	keystroke_y	y	n/a
57.4225	0.1055	114845	keystroke_Key.space	Key.space	n/a
57.573	0.105	115146	keystroke_m	m	n/a
57.7085	0.15	115417	keystroke_a	a	n/a
57.8135	0.0595	115627	keystroke_n	n	n/a
57.9935	0.09	115987	keystroke_u	u	n/a
58.3385	0.12	116677	keystroke_f	f	n/a
58.5935	0.15	117187	keystroke_a	a	n/a
58.7585	0.0745	117517	keystroke_c	c	n/a
58.983	0.06	117966	keystroke_t	t	n/a
59.1035	0.1355	118207	keystroke_u	u	n/a
59.2235	0.105	118447	keystroke_r	r	n/a
59.433	0.0905	118866	keystroke_e	e	n/a
59.673	0.06	119346	keystroke_d	d	n/a
59.7035	0.0445	119407	keystroke_Key.space	Key.space	n/a
59.7785	0.089	119557	keystroke_Key.space	Key.space	n/a
59.8835	0.12	119767	keystroke_c	c	n/a
60.0485	0.135	120097	keystroke_a	a	n/a
60.2735	0.0895	120547	keystroke_p	p	n/a
60.393	0.1205	120786	keystroke_a	a	n/a
60.5885	0.075	121177	keystroke_b	b	n/a
60.7835	0.09	121567	keystroke_l	l	n/a
60.993	0.105	121986	keystroke_e	e	n/a
61.203	0.12	122406	keystroke_Key.space	Key.space	n/a
61.4735	0.135	122947	keystroke_r	r	n/a
61.5935	0.06	123187	keystroke_e	e	n/a
61.9225	0.031	123845	keystroke_s	s	n/a
61.9375	0.1355	123875	keystroke_e	e	n/a
62.0285	0.089	124057	keystroke_r	r	n/a
62.2235	0.075	124447	keystroke_v	v	n/a
62.403	0.0605	124806	keystroke_e	e	n/a
62.5675	0.105	125135	keystroke_s	s	n/a
62.7325	0.1205	125465	keystroke_Key.enter	Key.enter	n/a
62.8595	9.791	125719	prompt	n/a	libraries voyeurweb newspapers hotel\n
63.3335	0.075	126667	keystroke_d	d	n/a
63.5285	0.0445	127057	keystroke_l	l	n/a
63.753	0.06	127506	keystroke_Key.backspace	Key.backspace	n/a
63.8885	0.0745	127777	keystroke_Key.backspace	Key.backspace	n/a
64.113	0.09	128226	keystroke_l	l	n/a
64.2185	0.09	128437	keystroke_i	i	n/a
64.4585	0.015	128917	keystroke_b	b	n/a
64.9685	0.075	129937	keystroke_r	r	n/a
65.4635	0.1495	130927	keystroke_a	a	n/a
65.5985	0.0895	131197	keystroke_r	r	n/a
65.838	0.1355	131676	keystroke_i	i	n/a
65.9435	0.09	131887	keystroke_e	e	n/a
66.108	0.165	132216	keystroke_s	s	n/a
66.2285	0.1495	132457	keystroke_Key.space	Key.space	n/a
66.4835	0.105	132967	keystroke_v	v	n/a
66.843	0.09	133686	keystroke_o	o	n/a
67.113	0.09	134226	keystroke_y	y	n/a
67.3985	0.18	134797	keystroke_e	e	n/a
67.7135	0.105	135427	keystroke_u	u	n/a
68.0735	0.12	136147	keystroke_r	r	n/a
68.6285	0.134	137257	keystroke_w	w	n/a
69.0935	0.105	138187	keystroke_e	e	n/a
69.3335	0.075	138667	keystroke_b	b	n/a
69.618	0.105	139236	keystroke_Key.space	Key.space	n/a
69.8435	0.09	139687	keystroke_n	n	n/a
69.9185	0.135	139837	keystroke_e	e	n/a
70.1135	0.12	140227	keystroke_w	w	n/a
70.368	0.075	140736	keystroke_s	s	n/a
70.578	0.0905	141156	keystroke_p	p	n/a
70.698	0.121	141396	keystroke_a	a	n/a
70.788	0.121	141576	keystroke_p	p	n/a
70.938	0.105	141876	keystroke_e	e	n/a
71.0135	0.12	142027	keystroke_r	r	n/a
71.2375	0.151	142475	keystroke_s	s	n/a
71.4185	0.12	142837	keystroke_Key.space	Key.space	n/a
71.6435	0.105	143287	keystroke_h	h	n/a
71.7935	0.06	143587	keystroke_o	o	n/a
71.9135	0.075	143827	keystroke_t	t	n/a
72.0635	0.0905	144127	keystroke_e	e	n/a
72.3335	0.09	144667	keystroke_l	l	n/a
72.5585	0.09	145117	keystroke_Key.enter	Key.enter	n/a
72.655	5.4245	145310	prompt	n/a	finger evans float angeles\n
73.3235	0.119	146647	keystroke_f	f	n/a
73.4585	0.1645	146917	keystroke_i	i	n/a
73.5635	0.15	147127	keystroke_n	n	n/a
73.6985	0.075	147397	keystroke_g	g	n/a
73.8625	0.121	147725	keystroke_e	e	n/a
73.9235	0.15	147847	keystroke_r	r	n/a
74.0425	0.1805	148085	keystroke_Key.space	Key.space	n/a
74.1935	0.075	148387	keystroke_e	e	n/a
74.3735	0.074	148747	keystroke_v	v	n/a
74.5075	0.046	149015	keystroke_e	e	n/a
74.8975	0.0755	149795	keystroke_Key.backspace	Key.backspace	n/a
75.003	0.0905	150006	keystroke_a	a	n/a
75.1535	0.0745	150307	keystroke_n	n	n/a
75.438	0.0905	150876	keystroke_s	s	n/a
75.6325	0.1355	151265	keystroke_Key.space	Key.space	n/a
75.7835	0.1195	151567	keystroke_f	f	n/a
75.8885	0.0745	151777	keystroke_l	l	n/a
76.068	0.075	152136	keystroke_o	o	n/a
76.263	0.15	152526	keystroke_a	a	n/a
76.443	0.12	152886	keystroke_t	t	n/a
76.548	0.165	153096	keystroke_Key.space	Key.space	n/a
76.7285	0.105	153457	keystroke_a	a	n/a
76.8185	0.1195	153637	keystroke_n	n	n/a
76.968	0.075	153936	keystroke_g	g	n/a
77.1785	0.1045	154357	keystroke_e	e	n/a
77.3585	0.075	154717	keystroke_l	l	n/a
77.4635	0.0745	154927	keystroke_e	e	n/a
77.703	0.075	155406	keystroke_s	s	n/a
77.9885	0.089	155977	keystroke_Key.enter	Key.enter	n/a
78.0825	4.587	156165	prompt	n/a	nation continually beam a\n
78.708	0.1355	157416	keystroke_n	n	n/a
78.8275	0.1205	157655	keystroke_a	a	n/a
78.9625	0.076	157925	keystroke_t	t	n/a
79.083	0.1645	158166	keystroke_i	i	n/a
79.2185	0.1495	158437	keystroke_o	o	n/a
79.3225	0.12	158645	keystroke_n	n	n/a
79.5485	0.149	159097	keystroke_Key.space	Key.space	n/a
79.713	0.105	159426	keystroke_c	c	n/a
79.833	0.135	159666	keystroke_o	o	n/a
79.938	0.0905	159876	keystroke_n	n	n/a
80.0885	0.12	160177	keystroke_t	t	n/a
80.2385	0.09	160477	keystroke_i	i	n/a
80.3885	0.09	160777	keystroke_n	n	n/a
80.583	0.0755	161166	keystroke_u	u	n/a
80.7035	0.135	161407	keystroke_a	a	n/a
80.8085	0.09	161617	keystroke_l	l	n/a
80.9585	0.09	161917	keystroke_l	l	n/a
81.1235	0.075	162247	keystroke_y	y	n/a
81.2885	0.1645	162577	keystroke_Key.space	Key.space	n/a
81.423	0.09	162846	keystroke_b	b	n/a
81.618	0.09	163236	keystroke_e	e	n/a
81.798	0.1355	163596	keystroke_a	a	n/a
81.963	0.1205	163926	keystroke_m	m	n/a
82.1885	0.1495	164377	keystroke_Key.space	Key.space	n/a
82.353	0.1205	164706	keystroke_a	a	n/a
82.5935	0.075	165187	keystroke_Key.enter	Key.enter	n/a
82.6735	5.9215	165347	prompt	n/a	symbol robert tony nano\n
83.3135	0.12	166627	keystroke_s	s	n/a
83.478	0.0905	166956	keystroke_y	y	n/a
83.7035	0.105	167407	keystroke_m	m	n/a
84.0635	0.1195	168127	keystroke_b	b	n/a
84.2575	0.091	168515	keystroke_o	o	n/a
84.4825	0.09	168965	keystroke_l	l	n/a
84.708	0.0755	169416	keystroke_Key.space	Key.space	n/a
84.933	0.105	169866	keystroke_r	r	n/a
85.1435	0.0595	170287	keystroke_o	o	n/a
85.233	0.09	170466	keystroke_v	v	n/a
85.4435	0.15	170887	keystroke_e	e	n/a
85.533	0.1205	171066	keystroke_r	r	n/a
85.7735	0.09	171547	keystroke_t	t	n/a
86.043	0.15	172086	keystroke_Key.space	Key.space	n/a
86.2075	0.091	172415	keystroke_t	t	n/a
86.4635	0.104	172927	keystroke_o	o	n/a
86.6875	0.075	173375	keystroke_n	n	n/a
86.928	0.0605	173856	keystroke_y	y	n/a
87.2275	0.135	174455	keystroke_Key.space	Key.space	n/a
87.5285	0.0745	175057	keystroke_n	n	n/a
87.6485	0.1355	175297	keystroke_a	a	n/a
87.9485	0.09	175897	keystroke_n	n	n/a
88.248	0.1355	176496	keystroke_o	o	n/a
88.503	0.09	177006	keystroke_Key.enter	Key.enter	n/a
88.599	7.541	177198	prompt	n/a	provision electoral shipment books\n
89.283	0.1205	178566	keystroke_p	p	n/a
89.4185	0.09	178837	keystroke_r	r	n/a
89.5235	0.12	179047	keystroke_o	o	n/a
89.6735	0.12	179347	keystroke_v	v	n/a
89.8395	0.089	179679	keystroke_i	i	n/a
89.9585	0.12	179917	keystroke_s	s	n/a
90.0935	0.135	180187	keystroke_i	i	n/a
90.213	0.18	180426	keystroke_o	o	n/a
90.768	0.105	181536	keystroke_n	n	n/a
91.069	0.149	182138	keystroke_Key.space	Key.space	n/a
91.2035	0.1345	182407	keystroke_e	e	n/a
91.3535	0.0895	182707	keystroke_l	l	n/a
91.458	0.075	182916	keystroke_e	e	n/a
91.653	0.0905	183306	keystroke_c	c	n/a
91.893	0.0905	183786	keystroke_t	t	n/a
92.1635	0.09	184327	keystroke_r	r	n/a
92.643	0.0755	185286	keystroke_Key.backspace	Key.backspace	n/a
93.0035	0.1045	186007	keystroke_o	o	n/a
93.198	0.105	186396	keystroke_r	r	n/a
93.393	0.1205	186786	keystroke_a	a	n/a
93.5585	0.075	187117	keystroke_l	l	n/a
93.768	0.15	187536	keystroke_Key.space	Key.space	n/a
93.963	0.1055	187926	keystroke_s	s	n/a
94.1135	0.1045	188227	keystroke_h	h	n/a
94.233	0.1355	188466	keystroke_i	i	n/a
94.3835	0.135	188767	keystroke_p	p	n/a
94.6385	0.09	189277	keystroke_m	m	n/a
94.6985	0.135	189397	keystroke_e	e	n/a
94.9975	0.091	189995	keystroke_t	t	n/a
95.1025	0.211	190205	keystroke_Key.space	Key.space	n/a
95.2985	0.074	190597	keystroke_b	b	n/a
95.4185	0.0745	190837	keystroke_o	o	n/a
95.583	0.0755	191166	keystroke_o	o	n/a
95.7635	0.075	191527	keystroke_k	k	n/a
95.8675	0.106	191735	keystroke_s	s	n/a
96.0335	0.105	192067	keystroke_Key.enter	Key.enter	n/a
96.1445	7.4505	192289	prompt	n/a	specification represents seed bathroom\n
96.7685	0.135	193537	keystroke_s	s	n/a
96.8735	0.105	193747	keystroke_p	p	n/a
97.2035	0.0895	194407	keystroke_e	e	n/a
97.4285	0.0895	194857	keystroke_c	c	n/a
97.548	0.1055	195096	keystroke_i	i	n/a
97.7285	0.09	195457	keystroke_f	f	n/a
97.878	0.09	195756	keystroke_i	i	n/a
98.014	0.119	196028	keystroke_c	c	n/a
98.1935	0.1195	196387	keystroke_a	a	n/a
98.358	0.0455	196716	keystroke_t	t	n/a
98.628	0.165	197256	keystroke_i	i	n/a
98.823	0.181	197646	keystroke_o	o	n/a
98.9585	0.1195	197917	keystroke_n	n	n/a
99.2735	0.15	198547	keystroke_Key.space	Key.space	n/a
99.6625	0.106	199325	keystroke_r	r	n/a
99.798	0.12	199596	keystroke_e	e	n/a
100.0085	0.0895	200017	keystroke_p	p	n/a
100.308	0.1205	200616	keystroke_r	r	n/a
100.4435	0.12	200887	keystroke_e	e	n/a
100.623	0.165	201246	keystroke_s	s	n/a
100.758	0.12	201516	keystroke_e	e	n/a
100.8935	0.09	201787	keystroke_n	n	n/a
101.0285	0.089	202057	keystroke_t	t	n/a
101.2685	0.12	202537	keystroke_s	s	n/a
101.4035	0.15	202807	keystroke_Key.space	Key.space	n/a
101.5235	0.135	203047	keystroke_s	s	n/a
101.6435	0.09	203287	keystroke_e	e	n/a
101.8235	0.075	203647	keystroke_e	e	n/a
102.0185	0.105	204037	keystroke_d	d	n/a
102.1085	0.165	204217	keystroke_Key.space	Key.space	n/a
102.2885	0.0905	204577	keystroke_b	b	n/a
102.468	0.135	204936	keystroke_a	a	n/a
102.618	0.0905	205236	keystroke_t	t	n/a
102.753	0.105	205506	keystroke_h	h	n/a
102.843	0.09	205686	keystroke_r	r	n/a
102.978	0.0755	205956	keystroke_o	o	n/a
103.128	0.1655	206256	keystroke_o	o	n/a
103.2785	0.105	206557	keystroke_m	m	n/a
103.488	0.105	206976	keystroke_Key.enter	Key.enter	n/a
103.599	8.726	207198	prompt	n/a	initiated robbie separate characterized\n
104.2085	0.1655	208417	keystroke_i	i	n/a
104.3435	0.12	208687	keystroke_n	n	n/a
104.5085	0.09	209017	keystroke_i	i	n/a
104.6735	0.105	209347	keystroke_t	t	n/a
104.8085	0.105	209617	keystroke_i	i	n/a
104.9735	0.1645	209947	keystroke_a	a	n/a
105.139	0.0895	210278	keystroke_t	t	n/a
105.3485	0.0595	210697	keystroke_e	e	n/a
105.5285	0.06	211057	keystroke_d	d	n/a
105.573	0.195	211146	keystroke_Key.space	Key.space	n/a
105.7385	0.1045	211477	keystroke_r	r	n/a
105.873	0.105	211746	keystroke_o	o	n/a
106.008	0.0905	212016	keystroke_b	b	n/a
106.1585	0.09	212317	keystroke_b	b	n/a
106.2785	0.12	212557	keystroke_i	i	n/a
106.4125	0.091	212825	keystroke_e	e	n/a
106.8185	0.135	213637	keystroke_Key.space	Key.space	n/a
107.0735	0.135	214147	keystroke_s	s	n/a
107.3135	0.1195	214627	keystroke_e	e	n/a
107.8085	0.135	215617	keystroke_p	p	n/a
108.0785	0.15	216157	keystroke_a	a	n/a
108.3485	0.12	216697	keystroke_r	r	n/a
108.5435	0.09	217087	keystroke_a	a	n/a
108.6785	0.1205	217357	keystroke_t	t	n/a
108.8885	0.03	217777	keystroke_e	e	n/a
109.6985	0.0895	219397	keystroke_Key.space	Key.space	n/a
109.908	0.1345	219816	keystroke_c	c	n/a
110.028	0.1045	220056	keystroke_h	h	n/a
110.134	0.165	220268	keystroke_a	a	n/a
110.2835	0.104	220567	keystroke_r	r	n/a
110.4785	0.15	220957	keystroke_a	a	n/a
110.6135	0.1195	221227	keystroke_c	c	n/a
110.8985	0.0595	221797	keystroke_t	t	n/a
111.0785	0.09	222157	keystroke_e	e	n/a
111.1535	0.1045	222307	keystroke_r	r	n/a
111.438	0.105	222876	keystroke_i	i	n/a
111.603	0.12	223206	keystroke_z	z	n/a
111.9185	0.0745	223837	keystroke_e	e	n/a
112.083	0.091	224166	keystroke_d	d	n/a
112.233	0.09	224466	keystroke_Key.enter	Key.enter	n/a
112.3295	6.837	224659	prompt	n/a	julia built columns separately\n
113.028	0.075	226056	keystroke_j	j	n/a
113.208	0.09	226416	keystroke_u	u	n/a
113.403	0.135	226806	keystroke_l	l	n/a
113.5385	0.074	227077	keystroke_i	i	n/a
113.7185	0.135	227437	keystroke_a	a	n/a
113.8375	0.12	227675	keystroke_Key.space	Key.space	n/a
114.0175	0.076	228035	keystroke_b	b	n/a
114.153	0.1505	228306	keystroke_u	u	n/a
114.333	0.1505	228666	keystroke_i	i	n/a
114.4685	0.1195	228937	keystroke_l	l	n/a
114.649	0.1195	229298	keystroke_t	t	n/a
114.753	0.165	229506	keystroke_Key.space	Key.space	n/a
115.009	0.119	230018	keystroke_c	c	n/a
115.1285	0.09	230257	keystroke_o	o	n/a
115.3235	0.09	230647	keystroke_l	l	n/a
115.504	0.089	231008	keystroke_u	u	n/a
115.6985	0.0895	231397	keystroke_m	m	n/a
115.9085	0.09	231817	keystroke_n	n	n/a
116.223	0.12	232446	keystroke_s	s	n/a
116.403	0.1355	232806	keystroke_Key.space	Key.space	n/a
116.643	0.1345	233286	keystroke_s	s	n/a
116.7785	0.15	233557	keystroke_e	e	n/a
116.9885	0.09	233977	keystroke_p	p	n/a
117.124	0.1645	234248	keystroke_e	e	n/a
117.2425	0.136	234485	keystroke_r	r	n/a
117.4535	0.12	234907	keystroke_a	a	n/a
117.5435	0.1205	235087	keystroke_t	t	n/a
117.9035	0.105	235807	keystroke_a	a	n/a
118.4435	0.075	236887	keystroke_Key.backspace	Key.backspace	n/a
118.5035	0.09	237007	keystroke_e	e	n/a
118.669	0.09	237338	keystroke_l	l	n/a
118.863	0.06	237726	keystroke_y	y	n/a
119.043	0.12	238086	keystroke_Key.enter	Key.enter	n/a
119.177	7.533	238354	prompt	n/a	research cholesterol pressed you'd\n
119.8835	0.165	239767	keystroke_r	r	n/a
120.0335	0.12	240067	keystroke_e	e	n/a
120.2585	0.135	240517	keystroke_s	s	n/a
120.379	0.1645	240758	keystroke_e	e	n/a
120.664	0.1495	241328	keystroke_a	a	n/a
120.918	0.09	241836	keystroke_r	r	n/a
121.158	0.09	242316	keystroke_c	c	n/a
121.323	0.0745	242646	keystroke_h	h	n/a
121.4135	0.134	242827	keystroke_Key.space	Key.space	n/a
121.6385	0.12	243277	keystroke_c	c	n/a
121.789	0.1495	243578	keystroke_h	h	n/a
121.9235	0.0905	243847	keystroke_o	o	n/a
122.1185	0.09	244237	keystroke_l	l	n/a
122.2235	0.105	244447	keystroke_e	e	n/a
122.3875	0.136	244775	keystroke_s	s	n/a
122.5675	0.106	245135	keystroke_t	t	n/a
122.8835	0.18	245767	keystroke_e	e	n/a
123.0325	0.1215	246065	keystroke_r	r	n/a
123.2585	0.0895	246517	keystroke_o	o	n/a
123.469	0.075	246938	keystroke_l	l	n/a
123.6485	0.12	247297	keystroke_Key.space	Key.space	n/a
123.7975	0.106	247595	keystroke_p	p	n/a
123.9635	0.105	247927	keystroke_r	r	n/a
124.2335	0.1195	248467	keystroke_s	s	n/a
124.623	0.0755	249246	keystroke_Key.backspace	Key.backspace	n/a
124.758	0.1055	249516	keystroke_e	e	n/a
124.9685	0.0895	249937	keystroke_s	s	n/a
125.1335	0.1345	250267	keystroke_s	s	n/a
125.2985	0.1055	250597	keystroke_e	e	n/a
125.5235	0.105	251047	keystroke_d	d	n/a
125.643	0.105	251286	keystroke_Key.space	Key.space	n/a
125.8685	0.1195	251737	keystroke_y	y	n/a
125.973	0.18	251946	keystroke_o	o	n/a
126.078	0.1055	252156	keystroke_u	u	n/a
126.259	0.1195	252518	keystroke_'	'	n/a
126.393	0.105	252786	keystroke_d	d	n/a
126.6035	0.105	253207	keystroke_Key.enter	Key.enter	n/a
126.715	6.01	253430	prompt	n/a	readers zambia criterion stamp\n
127.279	0.1195	254558	keystroke_r	r	n/a
127.384	0.1345	254768	keystroke_e	e	n/a
127.5485	0.165	255097	keystroke_a	a	n/a
127.6985	0.09	255397	keystroke_d	d	n/a
127.8485	0.165	255697	keystroke_e	e	n/a
127.9685	0.12	255937	keystroke_r	r	n/a
128.1635	0.1645	256327	keystroke_s	s	n/a
128.2835	0.1195	256567	keystroke_Key.space	Key.space	n/a
128.4785	0.135	256957	keystroke_z	z	n/a
128.8385	0.12	257677	keystroke_a	a	n/a
128.9885	0.12	257977	keystroke_m	m	n/a
129.3025	0.121	258605	keystroke_b	b	n/a
129.439	0.134	258878	keystroke_i	i	n/a
129.6185	0.135	259237	keystroke_a	a	n/a
129.7085	0.165	259417	keystroke_Key.space	Key.space	n/a
129.933	0.1205	259866	keystroke_c	c	n/a
130.2635	0.06	260527	keystroke_r	r	n/a
130.4435	0.135	260887	keystroke_i	i	n/a
130.7585	0.0755	261517	keystroke_t	t	n/a
130.9385	0.1055	261877	keystroke_e	e	n/a
130.9985	0.1205	261997	keystroke_r	r	n/a
131.2085	0.15	262417	keystroke_i	i	n/a
131.3435	0.105	262687	keystroke_o	o	n/a
131.524	0.1045	263048	keystroke_n	n	n/a
131.6435	0.18	263287	keystroke_Key.space	Key.space	n/a
131.8085	0.1355	263617	keystroke_s	s	n/a
131.9285	0.105	263857	keystroke_t	t	n/a
132.0935	0.15	264187	keystroke_a	a	n/a
132.2135	0.12	264427	keystroke_m	m	n/a
132.4235	0.0905	264847	keystroke_p	p	n/a
132.6635	0.06	265327	keystroke_Key.enter	Key.enter	n/a
132.729	6.446	265458	prompt	n/a	polls nodes humans contributing\n
133.4885	0.1955	266977	keystroke_p	p	n/a
133.639	0.104	267278	keystroke_o	o	n/a
134.043	0.09	268086	keystroke_l	l	n/a
134.1935	0.1045	268387	keystroke_l	l	n/a
134.343	0.1355	268686	keystroke_s	s	n/a
134.433	0.15	268866	keystroke_Key.space	Key.space	n/a
134.943	0.106	269886	keystroke_n	n	n/a
135.183	0.0755	270366	keystroke_o	o	n/a
135.3185	0.0905	270637	keystroke_d	d	n/a
135.469	0.089	270938	keystroke_e	e	n/a
135.6635	0.1345	271327	keystroke_s	s	n/a
135.7685	0.1345	271537	keystroke_Key.space	Key.space	n/a
135.963	0.106	271926	keystroke_h	h	n/a
136.2485	0.0905	272497	keystroke_u	u	n/a
136.5035	0.1055	273007	keystroke_m	m	n/a
136.654	0.1495	273308	keystroke_a	a	n/a
136.759	0.1345	273518	keystroke_n	n	n/a
136.9385	0.165	273877	keystroke_s	s	n/a
137.0585	0.1645	274117	keystroke_Key.space	Key.space	n/a
137.343	0.1055	274686	keystroke_c	c	n/a
137.464	0.149	274928	keystroke_o	o	n/a
137.5835	0.1195	275167	keystroke_n	n	n/a
137.718	0.09	275436	keystroke_t	t	n/a
137.869	0.0895	275738	keystroke_r	r	n/a
137.988	0.12	275976	keystroke_i	i	n/a
138.1535	0.105	276307	keystroke_b	b	n/a
138.3185	0.1205	276637	keystroke_u	u	n/a
138.4985	0.075	276997	keystroke_t	t	n/a
138.6335	0.1805	277267	keystroke_i	i	n/a
138.7685	0.1355	277537	keystroke_n	n	n/a
138.9185	0.075	277837	keystroke_g	g	n/a
139.0985	0.075	278197	keystroke_Key.enter	Key.enter	n/a
139.1815	6.6835	278363	prompt	n/a	criminal ghana healing slovak\n
139.8485	0.1505	279697	keystroke_c	c	n/a
140.0135	0.0155	280027	keystroke_r	r	n/a
140.0585	0.1055	280117	keystroke_i	i	n/a
140.2835	0.105	280567	keystroke_m	m	n/a
140.4485	0.15	280897	keystroke_i	i	n/a
140.5685	0.12	281137	keystroke_n	n	n/a
140.8985	0.1505	281797	keystroke_a	a	n/a
141.0335	0.105	282067	keystroke_l	l	n/a
141.1535	0.135	282307	keystroke_Key.space	Key.space	n/a
141.949	0.0745	283898	keystroke_g	g	n/a
142.1135	0.09	284227	keystroke_h	h	n/a
142.2335	0.12	284467	keystroke_a	a	n/a
142.369	0.1195	284738	keystroke_n	n	n/a
142.5185	0.105	285037	keystroke_a	a	n/a
142.7585	0.15	285517	keystroke_Key.space	Key.space	n/a
143.0285	0.15	286057	keystroke_h	h	n/a
143.2085	0.12	286417	keystroke_e	e	n/a
143.374	0.1495	286748	keystroke_a	a	n/a
143.494	0.1945	286988	keystroke_l	l	n/a
143.614	0.18	287228	keystroke_i	i	n/a
143.764	0.1195	287528	keystroke_n	n	n/a
143.8685	0.12	287737	keystroke_g	g	n/a
143.959	0.164	287918	keystroke_Key.space	Key.space	n/a
144.1385	0.1195	288277	keystroke_s	s	n/a
144.288	0.1055	288576	keystroke_l	l	n/a
144.709	0.1195	289418	keystroke_o	o	n/a
144.948	0.12	289896	keystroke_v	v	n/a
145.188	0.1205	290376	keystroke_a	a	n/a
145.5035	0.105	291007	keystroke_k	k	n/a
145.7435	0.12	291487	keystroke_Key.enter	Key.enter	n/a
145.8675	7.9175	291735	prompt	n/a	anthropology kinase explicit scanning\n
146.644	0.135	293288	keystroke_a	a	n/a
146.7185	0.1205	293437	keystroke_n	n	n/a
146.9145	0.089	293829	keystroke_t	t	n/a
147.1535	0.12	294307	keystroke_h	h	n/a
147.468	0.105	294936	keystroke_r	r	n/a
147.633	0.105	295266	keystroke_o	o	n/a
147.873	0.21	295746	keystroke_p	p	n/a
148.069	0.119	296138	keystroke_o	o	n/a
148.2935	0.09	296587	keystroke_l	l	n/a
148.503	0.075	297006	keystroke_o	o	n/a
148.669	0.119	297338	keystroke_g	g	n/a
148.803	0.091	297606	keystroke_y	y	n/a
148.923	0.15	297846	keystroke_Key.space	Key.space	n/a
149.178	0.091	298356	keystroke_k	k	n/a
149.3735	0.165	298747	keystroke_i	i	n/a
149.4935	0.12	298987	keystroke_n	n	n/a
149.6735	0.165	299347	keystroke_a	a	n/a
149.8835	0.12	299767	keystroke_s	s	n/a
150.063	0.1055	300126	keystroke_e	e	n/a
150.2135	0.15	300427	keystroke_Key.space	Key.space	n/a
150.3935	0.09	300787	keystroke_e	e	n/a
150.6035	0.1045	301207	keystroke_x	x	n/a
150.798	0.121	301596	keystroke_p	p	n/a
151.0085	0.1645	302017	keystroke_l	l	n/a
151.1585	0.105	302317	keystroke_i	i	n/a
151.7135	0.105	303427	keystroke_c	c	n/a
151.939	0.12	303878	keystroke_i	i	n/a
152.089	0.1045	304178	keystroke_t	t	n/a
152.2975	0.1355	304595	keystroke_Key.space	Key.space	n/a
152.539	0.12	305078	keystroke_s	s	n/a
152.7035	0.1205	305407	keystroke_c	c	n/a
152.8835	0.15	305767	keystroke_a	a	n/a
153.0035	0.06	306007	keystroke_n	n	n/a
153.1535	0.1055	306307	keystroke_n	n	n/a
153.303	0.1505	306606	keystroke_i	i	n/a
153.3785	0.135	306757	keystroke_n	n	n/a
153.4985	0.0755	306997	keystroke_g	g	n/a
153.648	0.1355	307296	keystroke_Key.enter	Key.enter	n/a
153.789	8.126	307578	prompt	n/a	there're message mambo centre\n
154.369	0.2245	308738	keystroke_a	a	n/a
154.6985	0.075	309397	keystroke_Key.backspace	Key.backspace	n/a
154.8335	0.105	309667	keystroke_t	t	n/a
154.9535	0.1205	309907	keystroke_h	h	n/a
155.0885	0.12	310177	keystroke_e	e	n/a
155.164	0.1945	310328	keystroke_r	r	n/a
155.328	0.1205	310656	keystroke_e	e	n/a
155.688	0.121	311376	keystroke_'	'	n/a
155.9585	0.1505	311917	keystroke_r	r	n/a
156.123	0.136	312246	keystroke_e	e	n/a
156.228	0.1355	312456	keystroke_Key.space	Key.space	n/a
156.498	0.1655	312996	keystroke_m	m	n/a
156.603	0.1205	313206	keystroke_e	e	n/a
156.798	0.121	313596	keystroke_s	s	n/a
157.0085	0.135	314017	keystroke_s	s	n/a
157.2185	0.15	314437	keystroke_a	a	n/a
157.3535	0.105	314707	keystroke_g	g	n/a
157.534	0.1345	315068	keystroke_e	e	n/a
157.6385	0.15	315277	keystroke_Key.space	Key.space	n/a
157.8185	0.12	315637	keystroke_m	m	n/a
157.9535	0.12	315907	keystroke_a	a	n/a
158.0745	0.044	316149	keystroke_n	n	n/a
158.328	0.09	316656	keystroke_b	b	n/a
158.493	0.0915	316986	keystroke_o	o	n/a
159.003	0.06	318006	keystroke_Key.backspace	Key.backspace	n/a
159.153	0.06	318306	keystroke_Key.backspace	Key.backspace	n/a
159.318	0.061	318636	keystroke_Key.backspace	Key.backspace	n/a
159.634	0.074	319268	keystroke_m	m	n/a
159.918	0.091	319836	keystroke_b	b	n/a
160.129	0.074	320258	keystroke_o	o	n/a
160.3835	0.1195	320767	keystroke_Key.space	Key.space	n/a
160.6085	0.09	321217	keystroke_c	c	n/a
160.8185	0.15	321637	keystroke_e	e	n/a
161.0135	0.12	322027	keystroke_n	n	n/a
161.1485	0.0905	322297	keystroke_t	t	n/a
161.313	0.1055	322626	keystroke_r	r	n/a
161.4785	0.135	322957	keystroke_e	e	n/a
161.8085	0.105	323617	keystroke_Key.enter	Key.enter	n/a
161.9195	7.1955	323839	prompt	n/a	rogers meetings madagascar bahamas\n
162.649	0.12	325298	keystroke_r	r	n/a
162.784	0.1495	325568	keystroke_i	i	n/a
162.918	0.0755	325836	keystroke_g	g	n/a
163.099	0.105	326198	keystroke_e	e	n/a
163.1585	0.105	326317	keystroke_r	r	n/a
163.368	0.12	326736	keystroke_s	s	n/a
163.458	0.136	326916	keystroke_Key.space	Key.space	n/a
163.579	0.134	327158	keystroke_m	m	n/a
163.669	0.1195	327338	keystroke_e	e	n/a
163.8635	0.135	327727	keystroke_e	e	n/a
164.029	0.1045	328058	keystroke_t	t	n/a
164.179	0.15	328358	keystroke_i	i	n/a
164.2685	0.15	328537	keystroke_n	n	n/a
164.434	0.1195	328868	keystroke_g	g	n/a
164.7635	0.15	329527	keystroke_s	s	n/a
164.9135	0.09	329827	keystroke_Key.space	Key.space	n/a
165.079	0.149	330158	keystroke_m	m	n/a
165.229	0.135	330458	keystroke_a	a	n/a
165.424	0.09	330848	keystroke_d	d	n/a
165.589	0.135	331178	keystroke_a	a	n/a
165.769	0.09	331538	keystroke_g	g	n/a
166.2185	0.12	332437	keystroke_a	a	n/a
166.399	0.119	332798	keystroke_s	s	n/a
166.6835	0.12	333367	keystroke_c	c	n/a
166.8635	0.1355	333727	keystroke_a	a	n/a
167.164	0.1045	334328	keystroke_r	r	n/a
167.298	0.1355	334596	keystroke_Key.space	Key.space	n/a
167.7485	0.12	335497	keystroke_b	b	n/a
167.959	0.1345	335918	keystroke_a	a	n/a
168.168	0.105	336336	keystroke_h	h	n/a
168.289	0.12	336578	keystroke_a	a	n/a
168.454	0.105	336908	keystroke_m	m	n/a
168.574	0.105	337148	keystroke_a	a	n/a
168.783	0.075	337566	keystroke_s	s	n/a
168.9935	0.1205	337987	keystroke_Key.enter	Key.enter	n/a
169.1195	4.946	338239	prompt	n/a	catherine cotton mess tuition\n
169.849	0.1195	339698	keystroke_c	c	n/a
170.0285	0.135	340057	keystroke_a	a	n/a
170.2235	0.0905	340447	keystroke_t	t	n/a
170.3585	0.135	340717	keystroke_h	h	n/a
170.4785	0.105	340957	keystroke_e	e	n/a
170.5385	0.105	341077	keystroke_r	r	n/a
170.6585	0.18	341317	keystroke_i	i	n/a
170.8085	0.12	341617	keystroke_n	n	n/a
170.9435	0.15	341887	keystroke_e	e	n/a
171.0335	0.165	342067	keystroke_Key.space	Key.space	n/a
171.243	0.106	342486	keystroke_c	c	n/a
171.3785	0.1055	342757	keystroke_o	o	n/a
171.513	0.0755	343026	keystroke_t	t	n/a
171.648	0.09	343296	keystroke_t	t	n/a
171.7535	0.165	343507	keystroke_o	o	n/a
171.873	0.1055	343746	keystroke_n	n	n/a
172.0535	0.135	344107	keystroke_Key.space	Key.space	n/a
172.2175	0.121	344435	keystroke_m	m	n/a
172.3075	0.106	344615	keystroke_e	e	n/a
172.488	0.091	344976	keystroke_s	s	n/a
172.684	0.105	345368	keystroke_s	s	n/a
172.7585	0.209	345517	keystroke_Key.space	Key.space	n/a
172.939	0.1045	345878	keystroke_t	t	n/a
173.074	0.1045	346148	keystroke_u	u	n/a
173.2535	0.075	346507	keystroke_i	i	n/a
173.3735	0.09	346747	keystroke_t	t	n/a
173.4785	0.15	346957	keystroke_i	i	n/a
173.5985	0.1805	347197	keystroke_o	o	n/a
173.7635	0.09	347527	keystroke_n	n	n/a
173.9735	0.0905	347947	keystroke_Key.enter	Key.enter	n/a
174.0695	5.0955	348139	prompt	n/a	breaking elegant morning heat\n
174.739	0.06	349478	keystroke_b	b	n/a
175.2035	0.1645	350407	keystroke_r	r	n/a
175.383	0.1355	350766	keystroke_e	e	n/a
175.5485	0.15	351097	keystroke_a	a	n/a
175.714	0.06	351428	keystroke_k	k	n/a
175.879	0.15	351758	keystroke_i	i	n/a
175.984	0.105	351968	keystroke_n	n	n/a
176.0435	0.0905	352087	keystroke_g	g	n/a
176.0735	0.2245	352147	keystroke_Key.space	Key.space	n/a
176.268	0.1055	352536	keystroke_e	e	n/a
176.419	0.104	352838	keystroke_l	l	n/a
176.508	0.09	353016	keystroke_e	e	n/a
176.7485	0.075	353497	keystroke_g	g	n/a
176.914	0.12	353828	keystroke_a	a	n/a
177.019	0.1495	354038	keystroke_n	n	n/a
177.244	0.12	354488	keystroke_t	t	n/a
177.3785	0.1345	354757	keystroke_Key.space	Key.space	n/a
177.498	0.151	354996	keystroke_m	m	n/a
177.664	0.119	355328	keystroke_o	o	n/a
177.769	0.104	355538	keystroke_r	r	n/a
177.9035	0.1345	355807	keystroke_n	n	n/a
178.053	0.135	356106	keystroke_i	i	n/a
178.174	0.104	356348	keystroke_n	n	n/a
178.2485	0.1055	356497	keystroke_g	g	n/a
178.3085	0.195	356617	keystroke_Key.space	Key.space	n/a
178.473	0.136	356946	keystroke_h	h	n/a
178.594	0.1195	357188	keystroke_e	e	n/a
178.7285	0.15	357457	keystroke_a	a	n/a
178.894	0.09	357788	keystroke_t	t	n/a
179.0435	0.12	358087	keystroke_Key.enter	Key.enter	n/a
179.1695	5.8905	358339	prompt	n/a	theta pulled globe drunk\n
179.7785	0.12	359557	keystroke_t	t	n/a
179.8835	0.1505	359767	keystroke_h	h	n/a
180.019	0.1945	360038	keystroke_e	e	n/a
180.168	0.0755	360336	keystroke_r	r	n/a
180.573	0.0755	361146	keystroke_Key.backspace	Key.backspace	n/a
181.294	0.09	362588	keystroke_t	t	n/a
181.474	0.1345	362948	keystroke_a	a	n/a
181.6685	0.15	363337	keystroke_Key.space	Key.space	n/a
181.879	0.164	363758	keystroke_p	p	n/a
182.028	0.105	364056	keystroke_u	u	n/a
182.208	0.076	364416	keystroke_l	l	n/a
182.359	0.15	364718	keystroke_l	l	n/a
182.449	0.104	364898	keystroke_e	e	n/a
182.659	0.089	365318	keystroke_d	d	n/a
182.703	0.165	365406	keystroke_Key.space	Key.space	n/a
182.914	0.119	365828	keystroke_g	g	n/a
183.048	0.09	366096	keystroke_l	l	n/a
183.243	0.1055	366486	keystroke_o	o	n/a
183.394	0.075	366788	keystroke_b	b	n/a
183.6335	0.1205	367267	keystroke_e	e	n/a
183.783	0.15	367566	keystroke_Key.space	Key.space	n/a
184.054	0.1495	368108	keystroke_d	d	n/a
184.309	0.09	368618	keystroke_r	r	n/a
184.4135	0.09	368827	keystroke_u	u	n/a
184.609	0.074	369218	keystroke_n	n	n/a
184.7585	0.0745	369517	keystroke_k	k	n/a
184.9385	0.1195	369877	keystroke_Key.enter	Key.enter	n/a
185.0705	6.109	370141	prompt	n/a	removed fails possess trance\n
185.7185	0.105	371437	keystroke_r	r	n/a
185.8385	0.135	371677	keystroke_e	e	n/a
185.958	0.121	371916	keystroke_m	m	n/a
186.0635	0.15	372127	keystroke_o	o	n/a
186.1685	0.105	372337	keystroke_v	v	n/a
186.3485	0.09	372697	keystroke_e	e	n/a
186.559	0.104	373118	keystroke_d	d	n/a
186.603	0.195	373206	keystroke_Key.space	Key.space	n/a
187.3385	0.1045	374677	keystroke_f	f	n/a
187.504	0.1495	375008	keystroke_a	a	n/a
187.654	0.134	375308	keystroke_i	i	n/a
187.743	0.1505	375486	keystroke_l	l	n/a
187.894	0.15	375788	keystroke_s	s	n/a
187.983	0.15	375966	keystroke_Key.space	Key.space	n/a
188.179	0.1495	376358	keystroke_p	p	n/a
188.269	0.1345	376538	keystroke_o	o	n/a
188.3885	0.105	376777	keystroke_s	s	n/a
188.5985	0.12	377197	keystroke_s	s	n/a
188.7335	0.105	377467	keystroke_e	e	n/a
188.929	0.0895	377858	keystroke_s	s	n/a
189.1235	0.09	378247	keystroke_s	s	n/a
189.2435	0.0895	378487	keystroke_Key.space	Key.space	n/a
189.7685	0.0905	379537	keystroke_t	t	n/a
189.963	0.075	379926	keystroke_r	r	n/a
190.0835	0.15	380167	keystroke_a	a	n/a
190.203	0.12	380406	keystroke_n	n	n/a
190.353	0.0755	380706	keystroke_c	c	n/a
190.8035	0.06	381607	keystroke_e	e	n/a
191.073	0.1055	382146	keystroke_Key.enter	Key.enter	n/a
191.183	6.0275	382366	prompt	n/a	sponsors delight waiting toddler\n
191.928	0.1355	383856	keystroke_s	s	n/a
192.094	0.1195	384188	keystroke_p	p	n/a
192.3485	0.135	384697	keystroke_o	o	n/a
192.544	0.105	385088	keystroke_n	n	n/a
192.7085	0.135	385417	keystroke_s	s	n/a
192.8585	0.105	385717	keystroke_o	o	n/a
192.9935	0.1055	385987	keystroke_r	r	n/a
193.1735	0.1505	386347	keystroke_s	s	n/a
193.3085	0.18	386617	keystroke_Key.space	Key.space	n/a
193.4585	0.1055	386917	keystroke_d	d	n/a
193.6535	0.059	387307	keystroke_e	e	n/a
193.774	0.2245	387548	keystroke_l	l	n/a
194	0.1185	388000	keystroke_i	i	n/a
194.2385	0.075	388477	keystroke_g	g	n/a
194.4485	0.12	388897	keystroke_h	h	n/a
194.5835	0.0755	389167	keystroke_t	t	n/a
194.7785	0.15	389557	keystroke_Key.space	Key.space	n/a
194.944	0.1645	389888	keystroke_w	w	n/a
195.1235	0.165	390247	keystroke_a	a	n/a
195.2585	0.12	390517	keystroke_i	i	n/a
195.393	0.09	390786	keystroke_t	t	n/a
195.5135	0.1805	391027	keystroke_i	i	n/a
195.634	0.1195	391268	keystroke_n	n	n/a
195.7685	0.12	391537	keystroke_g	g	n/a
195.8285	0.165	391657	keystroke_Key.space	Key.space	n/a
196.1735	0.09	392347	keystroke_t	t	n/a
196.3235	0.104	392647	keystroke_o	o	n/a
196.4445	0.0735	392889	keystroke_d	d	n/a
196.608	0.076	393216	keystroke_d	d	n/a
196.744	0.12	393488	keystroke_l	l	n/a
196.849	0.105	393698	keystroke_e	e	n/a
196.939	0.0895	393878	keystroke_r	r	n/a
197.1035	0.105	394207	keystroke_Key.enter	Key.enter	n/a
197.2145	7.781	394429	prompt	n/a	additional weapons labels boolean\n
197.823	0.1505	395646	keystroke_a	a	n/a
197.959	0.1195	395918	keystroke_d	d	n/a
198.1535	0.1055	396307	keystroke_d	d	n/a
198.3635	0.09	396727	keystroke_i	i	n/a
198.4825	0.0765	396965	keystroke_t	t	n/a
198.5885	0.165	397177	keystroke_i	i	n/a
198.7085	0.165	397417	keystroke_o	o	n/a
198.8435	0.09	397687	keystroke_n	n	n/a
198.994	0.1495	397988	keystroke_a	a	n/a
199.0985	0.09	398197	keystroke_l	l	n/a
199.2035	0.165	398407	keystroke_Key.space	Key.space	n/a
199.3985	0.15	398797	keystroke_w	w	n/a
199.534	0.1045	399068	keystroke_e	e	n/a
199.7435	0.15	399487	keystroke_a	a	n/a
199.864	0.1045	399728	keystroke_p	p	n/a
200.029	0.2095	400058	keystroke_o	o	n/a
200.1635	0.075	400327	keystroke_i	i	n/a
200.7035	0.075	401407	keystroke_Key.backspace	Key.backspace	n/a
200.9285	0.0605	401857	keystroke_n	n	n/a
201.0635	0.1505	402127	keystroke_s	s	n/a
201.2285	0.12	402457	keystroke_Key.space	Key.space	n/a
201.514	0.12	403028	keystroke_l	l	n/a
201.6485	0.135	403297	keystroke_a	a	n/a
201.8435	0.09	403687	keystroke_b	b	n/a
202.0235	0.0605	404047	keystroke_b	b	n/a
202.6535	0.045	405307	keystroke_Key.backspace	Key.backspace	n/a
202.849	0.105	405698	keystroke_e	e	n/a
203.0135	0.045	406027	keystroke_l	l	n/a
203.209	0.135	406418	keystroke_s	s	n/a
203.3585	0.1045	406717	keystroke_Key.space	Key.space	n/a
203.718	0.1055	407436	keystroke_b	b	n/a
203.8685	0.0605	407737	keystroke_o	o	n/a
204.0035	0.135	408007	keystroke_o	o	n/a
204.2885	0.09	408577	keystroke_l	l	n/a
204.3935	0.1055	408787	keystroke_e	e	n/a
204.589	0.119	409178	keystroke_a	a	n/a
204.694	0.0895	409388	keystroke_n	n	n/a
204.888	0.105	409776	keystroke_Key.enter	Key.enter	n/a
205	5.605	410000	prompt	n/a	efficiently measuring local booking\n
205.6685	0.106	411337	keystroke_e	e	n/a
205.8785	0.06	411757	keystroke_f	f	n/a
206.029	0.09	412058	keystroke_f	f	n/a
206.179	0.105	412358	keystroke_i	i	n/a
206.299	0.105	412598	keystroke_c	c	n/a
206.449	0.135	412898	keystroke_i	i	n/a
206.629	0.105	413258	keystroke_e	e	n/a
206.719	0.12	413438	keystroke_n	n	n/a
206.869	0.09	413738	keystroke_t	t	n/a
207.004	0.074	414008	keystroke_l	l	n/a
207.199	0.06	414398	keystroke_y	y	n/a
207.288	0.1355	414576	keystroke_Key.space	Key.space	n/a
207.4385	0.0905	414877	keystroke_m	m	n/a
207.5435	0.105	415087	keystroke_e	e	n/a
207.6635	0.18	415327	keystroke_a	a	n/a
207.8135	0.1645	415627	keystroke_s	s	n/a
207.9935	0.0895	415987	keystroke_u	u	n/a
208.128	0.0905	416256	keystroke_r	r	n/a
208.279	0.164	416558	keystroke_i	i	n/a
208.3985	0.1355	416797	keystroke_n	n	n/a
208.4735	0.1345	416947	keystroke_g	g	n/a
208.578	0.1655	417156	keystroke_Key.space	Key.space	n/a
208.6985	0.0905	417397	keystroke_l	l	n/a
208.909	0.104	417818	keystroke_o	o	n/a
208.9985	0.1205	417997	keystroke_c	c	n/a
209.179	0.1645	418358	keystroke_a	a	n/a
209.3135	0.1045	418627	keystroke_l	l	n/a
209.433	0.18	418866	keystroke_Key.space	Key.space	n/a
209.568	0.106	419136	keystroke_b	b	n/a
209.658	0.076	419316	keystroke_o	o	n/a
209.809	0.1045	419618	keystroke_o	o	n/a
210.004	0.0595	420008	keystroke_k	k	n/a
210.1685	0.12	420337	keystroke_i	i	n/a
210.244	0.12	420488	keystroke_n	n	n/a
210.3485	0.075	420697	keystroke_g	g	n/a
210.5285	0.0755	421057	keystroke_Key.enter	Key.enter	n/a
210.612	5.7535	421224	prompt	n/a	attempting reveal tackle dice\n
211.188	0.166	422376	keystroke_a	a	n/a
211.474	0.0745	422948	keystroke_t	t	n/a
211.6385	0.0905	423277	keystroke_t	t	n/a
211.7735	0.1505	423547	keystroke_e	e	n/a
211.9085	0.12	423817	keystroke_m	m	n/a
212.0735	0.15	424147	keystroke_p	p	n/a
212.2085	0.09	424417	keystroke_t	t	n/a
212.3435	0.15	424687	keystroke_i	i	n/a
212.464	0.1195	424928	keystroke_n	n	n/a
212.5985	0.1355	425197	keystroke_g	g	n/a
212.7185	0.165	425437	keystroke_Key.space	Key.space	n/a
213.079	0.1045	426158	keystroke_r	r	n/a
213.2435	0.12	426487	keystroke_e	e	n/a
213.469	0.09	426938	keystroke_v	v	n/a
213.6185	0.1055	427237	keystroke_e	e	n/a
213.7985	0.1805	427597	keystroke_a	a	n/a
213.964	0.0895	427928	keystroke_l	l	n/a
214.0685	0.165	428137	keystroke_Key.space	Key.space	n/a
214.2035	0.105	428407	keystroke_t	t	n/a
214.3835	0.15	428767	keystroke_a	a	n/a
214.6835	0.09	429367	keystroke_c	c	n/a
214.849	0.1045	429698	keystroke_k	k	n/a
215.179	0.105	430358	keystroke_l	l	n/a
215.2985	0.105	430597	keystroke_e	e	n/a
215.4335	0.225	430867	keystroke_Key.space	Key.space	n/a
215.629	0.105	431258	keystroke_d	d	n/a
215.734	0.12	431468	keystroke_i	i	n/a
215.8835	0.0905	431767	keystroke_c	c	n/a
216.1235	0.045	432247	keystroke_e	e	n/a
216.2585	0.105	432517	keystroke_Key.enter	Key.enter	n/a
216.369	6.9115	432738	prompt	n/a	notifications grace petition rapids\n
217.069	0.105	434138	keystroke_n	n	n/a
217.189	0.09	434378	keystroke_o	o	n/a
217.293	0.0905	434586	keystroke_t	t	n/a
217.4885	0.06	434977	keystroke_o	o	n/a
217.8335	0.0605	435667	keystroke_Key.backspace	Key.backspace	n/a
218.103	0.0605	436206	keystroke_i	i	n/a
218.3285	0.0905	436657	keystroke_f	f	n/a
218.4485	0.075	436897	keystroke_i	i	n/a
218.5685	0.105	437137	keystroke_c	c	n/a
218.7185	0.135	437437	keystroke_a	a	n/a
218.869	0.0745	437738	keystroke_t	t	n/a
219.0035	0.135	438007	keystroke_i	i	n/a
219.094	0.1795	438188	keystroke_o	o	n/a
219.2285	0.12	438457	keystroke_n	n	n/a
219.3035	0.151	438607	keystroke_s	s	n/a
219.4235	0.21	438847	keystroke_Key.space	Key.space	n/a
219.619	0.06	439238	keystroke_g	g	n/a
219.784	0.074	439568	keystroke_r	r	n/a
219.904	0.15	439808	keystroke_a	a	n/a
220.144	0.09	440288	keystroke_c	c	n/a
220.339	0.12	440678	keystroke_e	e	n/a
220.429	0.1645	440858	keystroke_Key.space	Key.space	n/a
220.6835	0.09	441367	keystroke_p	p	n/a
220.758	0.1355	441516	keystroke_e	e	n/a
220.983	0.0905	441966	keystroke_t	t	n/a
221.1185	0.105	442237	keystroke_i	i	n/a
221.254	0.1045	442508	keystroke_t	t	n/a
221.3735	0.09	442747	keystroke_i	i	n/a
221.6285	0.1355	443257	keystroke_o	o	n/a
221.8685	0.1055	443737	keystroke_n	n	n/a
222.0335	0.135	444067	keystroke_Key.space	Key.space	n/a
222.2135	0.12	444427	keystroke_r	r	n/a
222.408	0.135	444816	keystroke_a	a	n/a
222.528	0.105	445056	keystroke_p	p	n/a
222.693	0.1205	445386	keystroke_i	i	n/a
222.7985	0.0905	445597	keystroke_d	d	n/a
223.054	0.075	446108	keystroke_s	s	n/a
223.188	0.0905	446376	keystroke_Key.enter	Key.enter	n/a
223.2845	5.816	446569	prompt	n/a	built replace exotic floors\n
223.9385	0.1045	447877	keystroke_b	b	n/a
224.059	0.134	448118	keystroke_u	u	n/a
224.1785	0.1205	448357	keystroke_i	i	n/a
224.254	0.149	448508	keystroke_l	l	n/a
224.4185	0.1195	448837	keystroke_t	t	n/a
224.523	0.2105	449046	keystroke_Key.space	Key.space	n/a
224.7195	0.119	449439	keystroke_r	r	n/a
224.854	0.104	449708	keystroke_e	e	n/a
225.004	0.1195	450008	keystroke_p	p	n/a
225.1985	0.105	450397	keystroke_l	l	n/a
225.3185	0.1645	450637	keystroke_a	a	n/a
225.468	0.076	450936	keystroke_c	c	n/a
225.6335	0.1205	451267	keystroke_e	e	n/a
225.7235	0.195	451447	keystroke_Key.space	Key.space	n/a
225.8885	0.0905	451777	keystroke_e	e	n/a
226.1135	0.105	452227	keystroke_x	x	n/a
226.2785	0.135	452557	keystroke_o	o	n/a
226.4885	0.0745	452977	keystroke_t	t	n/a
226.668	0.091	453336	keystroke_i	i	n/a
226.818	0.09	453636	keystroke_c	c	n/a
227.088	0.076	454176	keystroke_e	e	n/a
227.4935	0.075	454987	keystroke_Key.backspace	Key.backspace	n/a
227.703	0.151	455406	keystroke_Key.space	Key.space	n/a
227.899	0.119	455798	keystroke_f	f	n/a
228.034	0.06	456068	keystroke_l	l	n/a
228.228	0.031	456456	keystroke_o	o	n/a
228.364	0.104	456728	keystroke_o	o	n/a
228.649	0.074	457298	keystroke_r	r	n/a
228.814	0.104	457628	keystroke_s	s	n/a
229.024	0.074	458048	keystroke_Key.enter	Key.enter	n/a
229.1045	8.906	458209	prompt	n/a	omissions screen viewpicture egyptian\n
229.759	0.12	459518	keystroke_o	o	n/a
230.0285	0.1205	460057	keystroke_m	m	n/a
230.179	0.0895	460358	keystroke_i	i	n/a
230.2835	0.075	460567	keystroke_s	s	n/a
230.4335	0.1195	460867	keystroke_s	s	n/a
230.5385	0.135	461077	keystroke_i	i	n/a
230.6585	0.1205	461317	keystroke_o	o	n/a
230.7935	0.09	461587	keystroke_n	n	n/a
230.9285	0.105	461857	keystroke_s	s	n/a
231.0035	0.195	462007	keystroke_Key.space	Key.space	n/a
231.1685	0.1355	462337	keystroke_s	s	n/a
231.334	0.0895	462668	keystroke_c	c	n/a
231.573	0.061	463146	keystroke_r	r	n/a
231.6945	0.0895	463389	keystroke_e	e	n/a
231.8735	0.105	463747	keystroke_e	e	n/a
232.068	0.0905	464136	keystroke_n	n	n/a
232.174	0.119	464348	keystroke_Key.space	Key.space	n/a
232.4435	0.0745	464887	keystroke_v	v	n/a
232.594	0.104	465188	keystroke_i	i	n/a
233.209	0.1195	466418	keystroke_e	e	n/a
233.404	0.135	466808	keystroke_w	w	n/a
233.704	0.105	467408	keystroke_p	p	n/a
233.869	0.12	467738	keystroke_i	i	n/a
234.034	0.09	468068	keystroke_c	c	n/a
234.259	0.059	468518	keystroke_t	t	n/a
234.379	0.1195	468758	keystroke_u	u	n/a
234.994	0.0745	469988	keystroke_r	r	n/a
235.114	0.1045	470228	keystroke_e	e	n/a
235.368	0.105	470736	keystroke_Key.space	Key.space	n/a
235.669	0.089	471338	keystroke_e	e	n/a
236.0285	0.075	472057	keystroke_g	g	n/a
236.224	0.0895	472448	keystroke_y	y	n/a
236.3435	0.12	472687	keystroke_p	p	n/a
236.674	0.12	473348	keystroke_t	t	n/a
236.853	0.165	473706	keystroke_i	i	n/a
236.9885	0.1045	473977	keystroke_o	o	n/a
237.4685	0.105	474937	keystroke_a	a	n/a
237.6035	0.075	475207	keystroke_n	n	n/a
237.8885	0.12	475777	keystroke_Key.enter	Key.enter	n/a
238.0155	7.5695	476031	prompt	n/a	conferencing attempts informational trustees\n
238.819	0.105	477638	keystroke_c	c	n/a
238.938	0.151	477876	keystroke_o	o	n/a
239.044	0.12	478088	keystroke_n	n	n/a
239.193	0.121	478386	keystroke_f	f	n/a
239.4485	0.0905	478897	keystroke_e	e	n/a
239.509	0.1195	479018	keystroke_r	r	n/a
239.6735	0.1345	479347	keystroke_e	e	n/a
239.8235	0.12	479647	keystroke_n	n	n/a
239.959	0.105	479918	keystroke_c	c	n/a
240.273	0.15	480546	keystroke_i	i	n/a
240.363	0.136	480726	keystroke_n	n	n/a
240.4835	0.105	480967	keystroke_g	g	n/a
240.574	0.18	481148	keystroke_Key.space	Key.space	n/a
240.724	0.195	481448	keystroke_a	a	n/a
240.904	0.075	481808	keystroke_t	t	n/a
241.039	0.09	482078	keystroke_t	t	n/a
241.189	0.104	482378	keystroke_e	e	n/a
241.294	0.1345	482588	keystroke_m	m	n/a
241.4735	0.12	482947	keystroke_p	p	n/a
241.5945	0.104	483189	keystroke_t	t	n/a
241.7885	0.12	483577	keystroke_s	s	n/a
241.879	0.1345	483758	keystroke_Key.space	Key.space	n/a
241.9985	0.135	483997	keystroke_i	i	n/a
242.1035	0.105	484207	keystroke_n	n	n/a
242.2235	0.12	484447	keystroke_f	f	n/a
242.389	0.1055	484778	keystroke_o	o	n/a
242.479	0.0745	484958	keystroke_r	r	n/a
242.6285	0.1055	485257	keystroke_m	m	n/a
242.748	0.1355	485496	keystroke_a	a	n/a
242.8835	0.0755	485767	keystroke_t	t	n/a
242.9735	0.1505	485947	keystroke_i	i	n/a
243.1085	0.1655	486217	keystroke_o	o	n/a
243.2285	0.105	486457	keystroke_n	n	n/a
243.3485	0.1355	486697	keystroke_a	a	n/a
243.4985	0.09	486997	keystroke_l	l	n/a
243.6035	0.1655	487207	keystroke_Key.space	Key.space	n/a
243.739	0.0895	487478	keystroke_t	t	n/a
243.9185	0.09	487837	keystroke_r	r	n/a
244.279	0.12	488558	keystroke_u	u	n/a
244.624	0.075	489248	keystroke_s	s	n/a
244.819	0.075	489638	keystroke_t	t	n/a
244.984	0.09	489968	keystroke_e	e	n/a
245.149	0.0895	490298	keystroke_e	e	n/a
245.3285	0.0905	490657	keystroke_s	s	n/a
245.4785	0.105	490957	keystroke_Key.enter	Key.enter	n/a
245.5885	6.2815	491177	prompt	n/a	globe citations expiration jewish\n
246.258	0.09	492516	keystroke_g	g	n/a
246.364	0.074	492728	keystroke_l	l	n/a
246.544	0.075	493088	keystroke_o	o	n/a
246.679	0.09	493358	keystroke_b	b	n/a
246.9035	0.09	493807	keystroke_e	e	n/a
247.0235	0.1345	494047	keystroke_Key.space	Key.space	n/a
247.2485	0.0905	494497	keystroke_c	c	n/a
247.3835	0.135	494767	keystroke_i	i	n/a
247.534	0.0895	495068	keystroke_t	t	n/a
247.7135	0.135	495427	keystroke_a	a	n/a
247.8335	0.105	495667	keystroke_t	t	n/a
247.984	0.1495	495968	keystroke_i	i	n/a
248.089	0.195	496178	keystroke_o	o	n/a
248.253	0.1205	496506	keystroke_n	n	n/a
248.358	0.121	496716	keystroke_s	s	n/a
248.448	0.195	496896	keystroke_Key.space	Key.space	n/a
248.6285	0.1045	497257	keystroke_e	e	n/a
248.8685	0.1055	497737	keystroke_x	x	n/a
249.018	0.106	498036	keystroke_p	p	n/a
249.319	0.1345	498638	keystroke_i	i	n/a
249.5435	0.105	499087	keystroke_r	r	n/a
249.7535	0.1505	499507	keystroke_a	a	n/a
249.8745	0.089	499749	keystroke_t	t	n/a
250.0085	0.135	500017	keystroke_i	i	n/a
250.1135	0.18	500227	keystroke_o	o	n/a
250.2335	0.135	500467	keystroke_n	n	n/a
250.354	0.149	500708	keystroke_Key.space	Key.space	n/a
250.8335	0.135	501667	keystroke_j	j	n/a
250.9835	0.1355	501967	keystroke_e	e	n/a
251.1635	0.1355	502327	keystroke_w	w	n/a
251.314	0.134	502628	keystroke_i	i	n/a
251.4635	0.105	502927	keystroke_s	s	n/a
251.583	0.09	503166	keystroke_h	h	n/a
251.763	0.105	503526	keystroke_Key.enter	Key.enter	n/a
251.8745	6.0105	503749	prompt	n/a	casio objectives kidney permit\n
252.769	0.15	505538	keystroke_c	c	n/a
252.949	0.164	505898	keystroke_a	a	n/a
253.099	0.15	506198	keystroke_s	s	n/a
253.279	0.1795	506558	keystroke_i	i	n/a
253.414	0.1345	506828	keystroke_o	o	n/a
253.6085	0.135	507217	keystroke_Key.space	Key.space	n/a
253.8335	0.1055	507667	keystroke_o	o	n/a
253.9535	0.105	507907	keystroke_b	b	n/a
254.2685	0.105	508537	keystroke_j	j	n/a
254.3885	0.1055	508777	keystroke_e	e	n/a
254.6135	0.0755	509227	keystroke_c	c	n/a
254.8245	0.0445	509649	keystroke_t	t	n/a
254.914	0.1495	509828	keystroke_i	i	n/a
255.0335	0.0745	510067	keystroke_v	v	n/a
255.214	0.0595	510428	keystroke_e	e	n/a
255.3785	0.105	510757	keystroke_s	s	n/a
255.4685	0.135	510937	keystroke_Key.space	Key.space	n/a
255.5885	0.076	511177	keystroke_k	k	n/a
255.7235	0.1055	511447	keystroke_i	i	n/a
255.8735	0.1045	511747	keystroke_d	d	n/a
256.008	0.1355	512016	keystroke_n	n	n/a
256.158	0.106	512316	keystroke_e	e	n/a
256.5035	0.0755	513007	keystroke_y	y	n/a
256.7285	0.135	513457	keystroke_Key.space	Key.space	n/a
256.9235	0.12	513847	keystroke_p	p	n/a
257.0285	0.1505	514057	keystroke_e	e	n/a
257.1335	0.12	514267	keystroke_r	r	n/a
257.2985	0.105	514597	keystroke_m	m	n/a
257.449	0.09	514898	keystroke_i	i	n/a
257.584	0.06	515168	keystroke_t	t	n/a
257.7935	0.09	515587	keystroke_Key.enter	Key.enter	n/a
257.889	5.576	515778	prompt	n/a	death trusts highway junior\n
258.498	0.121	516996	keystroke_d	d	n/a
258.799	0.12	517598	keystroke_e	e	n/a
259.038	0.1355	518076	keystroke_a	a	n/a
259.234	0.09	518468	keystroke_t	t	n/a
259.353	0.106	518706	keystroke_h	h	n/a
259.474	0.1945	518948	keystroke_Key.space	Key.space	n/a
259.6085	0.0905	519217	keystroke_t	t	n/a
259.7735	0.0905	519547	keystroke_r	r	n/a
259.879	0.12	519758	keystroke_u	u	n/a
260.014	0.18	520028	keystroke_s	s	n/a
260.179	0.105	520358	keystroke_t	t	n/a
260.389	0.1345	520778	keystroke_s	s	n/a
260.5085	0.15	521017	keystroke_Key.space	Key.space	n/a
260.734	0.105	521468	keystroke_h	h	n/a
260.884	0.135	521768	keystroke_i	i	n/a
261.019	0.105	522038	keystroke_g	g	n/a
261.109	0.135	522218	keystroke_h	h	n/a
261.304	0.1045	522608	keystroke_w	w	n/a
261.4835	0.15	522967	keystroke_a	a	n/a
261.6185	0.075	523237	keystroke_y	y	n/a
261.6935	0.1645	523387	keystroke_Key.space	Key.space	n/a
261.888	0.0905	523776	keystroke_j	j	n/a
262.084	0.09	524168	keystroke_u	u	n/a
262.308	0.0755	524616	keystroke_m	m	n/a
262.639	0.12	525278	keystroke_i	i	n/a
262.833	0.1205	525666	keystroke_o	o	n/a
263.1935	0.06	526387	keystroke_r	r	n/a
263.3735	0.0905	526747	keystroke_Key.enter	Key.enter	n/a
263.469	6.5665	526938	prompt	n/a	recycling adipex does currencies\n
264.1835	0.12	528367	keystroke_r	r	n/a
264.3185	0.075	528637	keystroke_e	e	n/a
264.5135	0.09	529027	keystroke_c	c	n/a
264.618	0.106	529236	keystroke_y	y	n/a
264.7835	0.1205	529567	keystroke_c	c	n/a
264.9485	0.1655	529897	keystroke_l	l	n/a
265.099	0.18	530198	keystroke_i	i	n/a
265.219	0.12	530438	keystroke_n	n	n/a
265.294	0.1345	530588	keystroke_g	g	n/a
265.3835	0.195	530767	keystroke_Key.space	Key.space	n/a
265.5635	0.18	531127	keystroke_a	a	n/a
265.728	0.121	531456	keystroke_d	d	n/a
265.864	0.1195	531728	keystroke_i	i	n/a
266.044	0.105	532088	keystroke_p	p	n/a
266.329	0.09	532658	keystroke_e	e	n/a
266.554	0.09	533108	keystroke_x	x	n/a
266.674	0.239	533348	keystroke_Key.space	Key.space	n/a
266.869	0.135	533738	keystroke_d	d	n/a
267.303	0.136	534606	keystroke_o	o	n/a
267.4685	0.1205	534937	keystroke_e	e	n/a
267.694	0.1355	535388	keystroke_s	s	n/a
267.784	0.135	535568	keystroke_Key.space	Key.space	n/a
268.264	0.1045	536528	keystroke_c	c	n/a
268.414	0.105	536828	keystroke_u	u	n/a
268.564	0.09	537128	keystroke_r	r	n/a
268.729	0.09	537458	keystroke_r	r	n/a
268.894	0.105	537788	keystroke_e	e	n/a
269.044	0.09	538088	keystroke_n	n	n/a
269.164	0.075	538328	keystroke_c	c	n/a
269.329	0.12	538658	keystroke_i	i	n/a
269.538	0.075	539076	keystroke_e	e	n/a
269.734	0.074	539468	keystroke_s	s	n/a
269.928	0.106	539856	keystroke_Key.enter	Key.enter	n/a
270.0395	6.3105	540079	prompt	n/a	jaguar trucks advance portugal\n
270.663	0.0755	541326	keystroke_j	j	n/a
270.8435	0.15	541687	keystroke_a	a	n/a
271.1885	0.1055	542377	keystroke_g	g	n/a
271.4735	0.1055	542947	keystroke_u	u	n/a
271.6835	0.1645	543367	keystroke_a	a	n/a
271.834	0.09	543668	keystroke_r	r	n/a
272.044	0.135	544088	keystroke_Key.space	Key.space	n/a
272.2235	0.0745	544447	keystroke_t	t	n/a
272.388	0.076	544776	keystroke_r	r	n/a
272.494	0.12	544988	keystroke_u	u	n/a
272.764	0.1195	545528	keystroke_c	c	n/a
272.899	0.09	545798	keystroke_k	k	n/a
273.049	0.1195	546098	keystroke_s	s	n/a
273.154	0.195	546308	keystroke_Key.space	Key.space	n/a
273.334	0.1655	546668	keystroke_a	a	n/a
273.469	0.105	546938	keystroke_d	d	n/a
273.6795	0.1045	547359	keystroke_v	v	n/a
273.8435	0.18	547687	keystroke_a	a	n/a
274.009	0.09	548018	keystroke_n	n	n/a
274.1135	0.0905	548227	keystroke_c	c	n/a
274.2645	0.1345	548529	keystroke_e	e	n/a
274.369	0.164	548738	keystroke_Key.space	Key.space	n/a
274.504	0.135	549008	keystroke_p	p	n/a
274.789	0.12	549578	keystroke_o	o	n/a
275.029	0.105	550058	keystroke_r	r	n/a
275.299	0.09	550598	keystroke_t	t	n/a
275.419	0.105	550838	keystroke_u	u	n/a
275.6885	0.075	551377	keystroke_g	g	n/a
275.839	0.1345	551678	keystroke_a	a	n/a
276.0335	0.0905	552067	keystroke_l	l	n/a
276.258	0.091	552516	keystroke_Key.enter	Key.enter	n/a
276.3535	6.6585	552707	prompt	n/a	simplified exception phillips cuisine\n
277.039	0.12	554078	keystroke_s	s	n/a
277.189	0.09	554378	keystroke_i	i	n/a
277.3835	0.105	554767	keystroke_m	m	n/a
277.5485	0.1055	555097	keystroke_p	p	n/a
277.729	0.1945	555458	keystroke_l	l	n/a
277.8785	0.1055	555757	keystroke_i	i	n/a
278.059	0.1505	556118	keystroke_f	f	n/a
278.2235	0.135	556447	keystroke_i	i	n/a
278.374	0.09	556748	keystroke_e	e	n/a
278.5985	0.09	557197	keystroke_d	d	n/a
278.6435	0.1655	557287	keystroke_Key.space	Key.space	n/a
278.839	0.0595	557678	keystroke_e	e	n/a
279.0035	0.12	558007	keystroke_x	x	n/a
279.2135	0.0905	558427	keystroke_c	c	n/a
279.394	0.075	558788	keystroke_e	e	n/a
279.544	0.0895	559088	keystroke_p	p	n/a
279.6485	0.075	559297	keystroke_t	t	n/a
279.7845	0.15	559569	keystroke_i	i	n/a
279.919	0.1495	559838	keystroke_o	o	n/a
280.0395	0.1045	560079	keystroke_n	n	n/a
280.114	0.1345	560228	keystroke_Key.space	Key.space	n/a
280.2935	0.0905	560587	keystroke_p	p	n/a
280.5485	0.0755	561097	keystroke_h	h	n/a
280.698	0.1655	561396	keystroke_i	i	n/a
280.8485	0.075	561697	keystroke_l	l	n/a
280.9985	0.12	561997	keystroke_l	l	n/a
281.104	0.1195	562208	keystroke_i	i	n/a
281.2395	0.119	562479	keystroke_p	p	n/a
281.4035	0.1355	562807	keystroke_s	s	n/a
281.4935	0.1505	562987	keystroke_Key.space	Key.space	n/a
281.749	0.105	563498	keystroke_c	c	n/a
281.869	0.075	563738	keystroke_u	u	n/a
281.989	0.119	563978	keystroke_i	i	n/a
282.3185	0.1505	564637	keystroke_s	s	n/a
282.454	0.18	564908	keystroke_i	i	n/a
282.574	0.12	565148	keystroke_n	n	n/a
282.709	0.075	565418	keystroke_g	g	n/a
282.904	0.105	565808	keystroke_Key.enter	Key.enter	n/a
283.0155	6.7	566031	prompt	n/a	research drum thinks adsl\n
284.133	0.091	568266	keystroke_r	r	n/a
284.269	0.105	568538	keystroke_e	e	n/a
284.493	0.1355	568986	keystroke_s	s	n/a
284.5995	0.1635	569199	keystroke_e	e	n/a
284.929	0.1645	569858	keystroke_a	a	n/a
285.0785	0.06	570157	keystroke_r	r	n/a
285.304	0.0905	570608	keystroke_c	c	n/a
285.4535	0.12	570907	keystroke_h	h	n/a
285.5435	0.165	571087	keystroke_Key.space	Key.space	n/a
285.6945	0.1195	571389	keystroke_d	d	n/a
285.829	0.09	571658	keystroke_r	r	n/a
285.919	0.1045	571838	keystroke_u	u	n/a
286.159	0.059	572318	keystroke_n	n	n/a
287.014	0.06	574028	keystroke_Key.backspace	Key.backspace	n/a
287.224	0.06	574448	keystroke_m	m	n/a
287.388	0.2105	574776	keystroke_Key.space	Key.space	n/a
287.5685	0.135	575137	keystroke_t	t	n/a
287.689	0.074	575378	keystroke_h	h	n/a
287.7785	0.15	575557	keystroke_i	i	n/a
287.9435	0.0905	575887	keystroke_n	n	n/a
288.079	0.105	576158	keystroke_k	k	n/a
288.259	0.15	576518	keystroke_Key.space	Key.space	n/a
288.979	0.165	577958	keystroke_a	a	n/a
289.129	0.09	578258	keystroke_d	d	n/a
289.3085	0.09	578617	keystroke_s	s	n/a
289.4135	0.09	578827	keystroke_l	l	n/a
289.639	0.0745	579278	keystroke_Key.enter	Key.enter	n/a
289.722	5.1235	579444	prompt	n/a	signatures narrow hood turn\n
290.2835	0.1505	580567	keystroke_s	s	n/a
290.4185	0.091	580837	keystroke_i	i	n/a
290.5385	0.09	581077	keystroke_g	g	n/a
290.7045	0.1045	581409	keystroke_n	n	n/a
290.838	0.121	581676	keystroke_a	a	n/a
290.9735	0.0905	581947	keystroke_t	t	n/a
291.094	0.165	582188	keystroke_u	u	n/a
291.2135	0.1055	582427	keystroke_r	r	n/a
291.364	0.0895	582728	keystroke_e	e	n/a
291.574	0.105	583148	keystroke_s	s	n/a
291.663	0.12	583326	keystroke_Key.space	Key.space	n/a
291.769	0.1195	583538	keystroke_n	n	n/a
291.919	0.1345	583838	keystroke_a	a	n/a
292.204	0.12	584408	keystroke_r	r	n/a
292.4435	0.1355	584887	keystroke_r	r	n/a
292.7885	0.1055	585577	keystroke_o	o	n/a
292.954	0.09	585908	keystroke_w	w	n/a
293.2235	0.1355	586447	keystroke_Key.space	Key.space	n/a
293.434	0.09	586868	keystroke_h	h	n/a
293.6135	0.076	587227	keystroke_o	o	n/a
293.7785	0.0905	587557	keystroke_o	o	n/a
293.884	0.15	587768	keystroke_d	d	n/a
293.9885	0.195	587977	keystroke_Key.space	Key.space	n/a
294.1685	0.105	588337	keystroke_t	t	n/a
294.289	0.1045	588578	keystroke_u	u	n/a
294.4085	0.09	588817	keystroke_r	r	n/a
294.5435	0.075	589087	keystroke_n	n	n/a
294.739	0.1045	589478	keystroke_Key.enter	Key.enter	n/a
294.849	5.9065	589698	prompt	n/a	trailers latinas mixture geology\n
295.459	0.0905	590918	keystroke_t	t	n/a
295.624	0.105	591248	keystroke_r	r	n/a
295.774	0.1495	591548	keystroke_a	a	n/a
295.909	0.1045	591818	keystroke_i	i	n/a
296.0885	0.1505	592177	keystroke_l	l	n/a
296.209	0.1045	592418	keystroke_e	e	n/a
296.2835	0.1055	592567	keystroke_r	r	n/a
296.5095	0.134	593019	keystroke_s	s	n/a
296.6135	0.135	593227	keystroke_Key.space	Key.space	n/a
296.794	0.1495	593588	keystroke_l	l	n/a
296.9285	0.1505	593857	keystroke_a	a	n/a
297.169	0.1195	594338	keystroke_t	t	n/a
297.334	0.135	594668	keystroke_i	i	n/a
297.439	0.12	594878	keystroke_n	n	n/a
297.589	0.15	595178	keystroke_a	a	n/a
297.784	0.18	595568	keystroke_s	s	n/a
297.903	0.151	595806	keystroke_Key.space	Key.space	n/a
298.069	0.105	596138	keystroke_m	m	n/a
298.204	0.135	596408	keystroke_i	i	n/a
298.324	0.12	596648	keystroke_x	x	n/a
298.639	0.06	597278	keystroke_t	t	n/a
298.759	0.135	597518	keystroke_u	u	n/a
298.8785	0.0905	597757	keystroke_r	r	n/a
299.029	0.12	598058	keystroke_e	e	n/a
299.1635	0.18	598327	keystroke_Key.space	Key.space	n/a
299.314	0.09	598628	keystroke_g	g	n/a
299.479	0.105	598958	keystroke_e	e	n/a
299.6285	0.105	599257	keystroke_o	o	n/a
299.9585	0.105	599917	keystroke_l	l	n/a
300.1685	0.0905	600337	keystroke_o	o	n/a
300.2745	0.104	600549	keystroke_g	g	n/a
300.4245	0.0745	600849	keystroke_y	y	n/a
300.649	0.105	601298	keystroke_Key.enter	Key.enter	n/a
300.7595	6.641	601519	prompt	n/a	implications elvis superb enjoying\n
301.384	0.135	602768	keystroke_i	i	n/a
301.6385	0.105	603277	keystroke_m	m	n/a
301.834	0.12	603668	keystroke_p	p	n/a
302.0435	0.09	604087	keystroke_l	l	n/a
302.1635	0.1205	604327	keystroke_i	i	n/a
302.299	0.1045	604598	keystroke_c	c	n/a
302.4335	0.166	604867	keystroke_a	a	n/a
302.584	0.0595	605168	keystroke_t	t	n/a
302.704	0.1495	605408	keystroke_i	i	n/a
302.8235	0.2095	605647	keystroke_o	o	n/a
303.003	0.091	606006	keystroke_n	n	n/a
303.019	0.135	606038	keystroke_s	s	n/a
303.109	0.1645	606218	keystroke_Key.space	Key.space	n/a
303.288	0.1055	606576	keystroke_e	e	n/a
303.4235	0.1205	606847	keystroke_l	l	n/a
303.619	0.09	607238	keystroke_v	v	n/a
303.7695	0.1195	607539	keystroke_i	i	n/a
304.204	0.135	608408	keystroke_s	s	n/a
304.369	0.15	608738	keystroke_Key.space	Key.space	n/a
304.624	0.12	609248	keystroke_s	s	n/a
304.804	0.105	609608	keystroke_u	u	n/a
304.998	0.1065	609996	keystroke_p	p	n/a
305.164	0.15	610328	keystroke_e	e	n/a
305.2985	0.1055	610597	keystroke_r	r	n/a
305.539	0.09	611078	keystroke_b	b	n/a
305.734	0.1345	611468	keystroke_Key.space	Key.space	n/a
305.988	0.105	611976	keystroke_e	e	n/a
306.154	0.09	612308	keystroke_n	n	n/a
306.394	0.075	612788	keystroke_j	j	n/a
306.529	0.105	613058	keystroke_o	o	n/a
306.664	0.09	613328	keystroke_y	y	n/a
306.8735	0.1495	613747	keystroke_i	i	n/a
307.009	0.075	614018	keystroke_n	n	n/a
307.0995	0.0895	614199	keystroke_g	g	n/a
307.2935	0.1045	614587	keystroke_Key.enter	Key.enter	n/a
307.4045	5.683	614809	prompt	n/a	weekend bias bookmarks lonely\n
308.104	0.15	616208	keystroke_w	w	n/a
308.239	0.105	616478	keystroke_e	e	n/a
308.4185	0.1045	616837	keystroke_e	e	n/a
308.569	0.105	617138	keystroke_k	k	n/a
308.6885	0.0905	617377	keystroke_e	e	n/a
308.7935	0.1205	617587	keystroke_n	n	n/a
308.899	0.1345	617798	keystroke_d	d	n/a
308.988	0.15	617976	keystroke_Key.space	Key.space	n/a
309.198	0.1065	618396	keystroke_b	b	n/a
309.3635	0.1055	618727	keystroke_i	i	n/a
309.5135	0.1505	619027	keystroke_a	a	n/a
309.829	0.1495	619658	keystroke_s	s	n/a
309.9635	0.165	619927	keystroke_Key.space	Key.space	n/a
310.114	0.1195	620228	keystroke_b	b	n/a
310.279	0.0145	620558	keystroke_o	o	n/a
310.3685	0.105	620737	keystroke_o	o	n/a
310.5635	0.0895	621127	keystroke_k	k	n/a
310.789	0.0745	621578	keystroke_m	m	n/a
311.149	0.1645	622298	keystroke_a	a	n/a
311.299	0.0895	622598	keystroke_r	r	n/a
311.5085	0.105	623017	keystroke_k	k	n/a
311.629	0.1345	623258	keystroke_s	s	n/a
311.7485	0.135	623497	keystroke_Key.space	Key.space	n/a
311.8985	0.0755	623797	keystroke_l	l	n/a
312.1085	0.1505	624217	keystroke_o	o	n/a
312.2435	0.1055	624487	keystroke_n	n	n/a
312.3945	0.1045	624789	keystroke_e	e	n/a
312.574	0.105	625148	keystroke_l	l	n/a
312.799	0.06	625598	keystroke_y	y	n/a
312.964	0.12	625928	keystroke_Key.enter	Key.enter	n/a
313.0975	6.303	626195	prompt	n/a	stick finishing visible tutorials\n
313.6235	0.1505	627247	keystroke_s	s	n/a
313.759	0.105	627518	keystroke_i	i	n/a
314.104	0.09	628208	keystroke_Key.backspace	Key.backspace	n/a
314.239	0.075	628478	keystroke_t	t	n/a
314.374	0.09	628748	keystroke_i	i	n/a
314.539	0.105	629078	keystroke_c	c	n/a
314.659	0.09	629318	keystroke_k	k	n/a
314.764	0.135	629528	keystroke_Key.space	Key.space	n/a
314.989	0.1195	629978	keystroke_f	f	n/a
315.0785	0.15	630157	keystroke_i	i	n/a
315.1985	0.1205	630397	keystroke_n	n	n/a
315.3335	0.105	630667	keystroke_i	i	n/a
315.4535	0.1355	630907	keystroke_s	s	n/a
315.5735	0.105	631147	keystroke_h	h	n/a
315.9035	0.0755	631807	keystroke_i	i	n/a
316.0685	0.0755	632137	keystroke_n	n	n/a
316.1885	0.1205	632377	keystroke_g	g	n/a
316.309	0.1495	632618	keystroke_Key.space	Key.space	n/a
316.5635	0.105	633127	keystroke_v	v	n/a
316.684	0.12	633368	keystroke_i	i	n/a
316.8335	0.105	633667	keystroke_s	s	n/a
316.9535	0.165	633907	keystroke_i	i	n/a
317.149	0.105	634298	keystroke_b	b	n/a
317.359	0.105	634718	keystroke_l	l	n/a
317.479	0.12	634958	keystroke_e	e	n/a
317.569	0.1795	635138	keystroke_Key.space	Key.space	n/a
317.7035	0.1055	635407	keystroke_t	t	n/a
317.8095	0.1195	635619	keystroke_u	u	n/a
317.9585	0.1055	635917	keystroke_t	t	n/a
318.124	0.12	636248	keystroke_o	o	n/a
318.499	0.105	636998	keystroke_r	r	n/a
318.694	0.06	637388	keystroke_i	i	n/a
318.859	0.09	637718	keystroke_a	a	n/a
318.979	0.1045	637958	keystroke_l	l	n/a
319.129	0.09	638258	keystroke_s	s	n/a
319.294	0.1045	638588	keystroke_Key.enter	Key.enter	n/a
319.4045	5.6085	638809	prompt	n/a	except waiver planned scales\n
320.013	0.0765	640026	keystroke_e	e	n/a
320.208	0.09	640416	keystroke_x	x	n/a
320.5995	0.0445	641199	keystroke_c	c	n/a
320.734	0.075	641468	keystroke_e	e	n/a
320.884	0.1045	641768	keystroke_p	p	n/a
321.004	0.1055	642008	keystroke_t	t	n/a
321.0935	0.21	642187	keystroke_Key.space	Key.space	n/a
321.2885	0.135	642577	keystroke_w	w	n/a
321.4535	0.1805	642907	keystroke_a	a	n/a
321.649	0.1195	643298	keystroke_i	i	n/a
321.979	0.0895	643958	keystroke_v	v	n/a
322.204	0.1495	644408	keystroke_e	e	n/a
322.2935	0.136	644587	keystroke_r	r	n/a
322.5335	0.12	645067	keystroke_Key.space	Key.space	n/a
322.788	0.09	645576	keystroke_p	p	n/a
323.014	0.105	646028	keystroke_l	l	n/a
323.134	0.12	646268	keystroke_a	a	n/a
323.224	0.06	646448	keystroke_n	n	n/a
323.374	0.09	646748	keystroke_n	n	n/a
323.509	0.0745	647018	keystroke_e	e	n/a
323.704	0.075	647408	keystroke_d	d	n/a
323.749	0.165	647498	keystroke_Key.space	Key.space	n/a
323.929	0.12	647858	keystroke_s	s	n/a
324.094	0.105	648188	keystroke_c	c	n/a
324.244	0.15	648488	keystroke_a	a	n/a
324.4085	0.1205	648817	keystroke_l	l	n/a
324.5595	0.059	649119	keystroke_e	e	n/a
324.783	0.09	649566	keystroke_s	s	n/a
324.9035	0.1045	649807	keystroke_Key.enter	Key.enter	n/a
325.016	8.9795	650032	prompt	n/a	realized regression expansys steam\n
325.594	0.06	651188	keystroke_e	e	n/a
325.984	0.0745	651968	keystroke_Key.backspace	Key.backspace	n/a
326.0885	0.1055	652177	keystroke_r	r	n/a
326.2085	0.075	652417	keystroke_e	e	n/a
326.3735	0.15	652747	keystroke_a	a	n/a
326.7635	0.1055	653527	keystroke_l	l	n/a
326.9435	0.1505	653887	keystroke_i	i	n/a
327.079	0.12	654158	keystroke_z	z	n/a
327.3035	0.0605	654607	keystroke_e	e	n/a
327.529	0.105	655058	keystroke_d	d	n/a
327.619	0.24	655238	keystroke_Key.space	Key.space	n/a
327.829	0.135	655658	keystroke_r	r	n/a
328.174	0.09	656348	keystroke_e	e	n/a
328.519	0.1045	657038	keystroke_g	g	n/a
328.7285	0.135	657457	keystroke_r	r	n/a
328.834	0.135	657668	keystroke_e	e	n/a
328.999	0.105	657998	keystroke_s	s	n/a
329.1785	0.1505	658357	keystroke_s	s	n/a
329.314	0.1195	658628	keystroke_i	i	n/a
329.4185	0.1505	658837	keystroke_o	o	n/a
329.539	0.1345	659078	keystroke_n	n	n/a
329.659	0.1645	659318	keystroke_Key.space	Key.space	n/a
329.7785	0.09	659557	keystroke_e	e	n/a
330.0035	0.1355	660007	keystroke_x	x	n/a
330.124	0.12	660248	keystroke_p	p	n/a
330.304	0.1055	660608	keystroke_n	n	n/a
331.429	0.0745	662858	keystroke_Key.backspace	Key.backspace	n/a
331.6385	0.106	663277	keystroke_a	a	n/a
331.7445	0.0745	663489	keystroke_n	n	n/a
332.3585	0.105	664717	keystroke_s	s	n/a
332.479	0.0745	664958	keystroke_y	y	n/a
332.5835	0.09	665167	keystroke_s	s	n/a
332.974	0.15	665948	keystroke_Key.space	Key.space	n/a
333.109	0.15	666218	keystroke_s	s	n/a
333.259	0.075	666518	keystroke_t	t	n/a
333.409	0.105	666818	keystroke_e	e	n/a
333.529	0.165	667058	keystroke_a	a	n/a
333.709	0.075	667418	keystroke_m	m	n/a
333.889	0.105	667778	keystroke_Key.enter	Key.enter	n/a
333.9995	7.151	667999	prompt	n/a	jill ma'am gentleman speech\n
334.5935	0.165	669187	keystroke_j	j	n/a
334.729	0.1795	669458	keystroke_i	i	n/a
334.8495	0.089	669699	keystroke_l	l	n/a
335.0135	0.1355	670027	keystroke_l	l	n/a
335.134	0.135	670268	keystroke_Key.space	Key.space	n/a
335.2395	0.119	670479	keystroke_m	m	n/a
335.539	0.12	671078	keystroke_a	a	n/a
335.9435	0.12	671887	keystroke_'	'	n/a
336.2435	0.1205	672487	keystroke_a	a	n/a
336.6185	0.105	673237	keystroke_m	m	n/a
337.2185	0.1205	674437	keystroke_Key.space	Key.space	n/a
337.3835	0.0905	674767	keystroke_g	g	n/a
337.5485	0.106	675097	keystroke_e	e	n/a
337.6235	0.1205	675247	keystroke_n	n	n/a
338.1485	0.1045	676297	keystroke_t	t	n/a
338.374	0.135	676748	keystroke_l	l	n/a
338.4935	0.12	676987	keystroke_e	e	n/a
338.6595	0.1195	677319	keystroke_m	m	n/a
338.7935	0.0905	677587	keystroke_e	e	n/a
339.183	0.076	678366	keystroke_Key.backspace	Key.backspace	n/a
339.319	0.0905	678638	keystroke_a	a	n/a
339.4245	0.075	678849	keystroke_n	n	n/a
339.6035	0.105	679207	keystroke_Key.space	Key.space	n/a
340.1595	0.044	680319	keystroke_s	s	n/a
340.249	0.0595	680498	keystroke_p	p	n/a
340.3385	0.076	680677	keystroke_e	e	n/a
340.5035	0.075	681007	keystroke_e	e	n/a
340.7285	0.075	681457	keystroke_c	c	n/a
340.8495	0.0745	681699	keystroke_h	h	n/a
341.029	0.12	682058	keystroke_Key.enter	Key.enter	n/a
341.1545	12.131	682309	prompt	n/a	telecommunications shopping victorian dedicated\n
341.764	0.1055	683528	keystroke_t	t	n/a
341.929	0.1355	683858	keystroke_e	e	n/a
342.079	0.12	684158	keystroke_l	l	n/a
342.184	0.1205	684368	keystroke_e	e	n/a
342.469	0.105	684938	keystroke_c	c	n/a
342.619	0.1795	685238	keystroke_o	o	n/a
342.7685	0.105	685537	keystroke_m	m	n/a
342.949	0.0895	685898	keystroke_m	m	n/a
343.1735	0.0755	686347	keystroke_u	u	n/a
343.3545	0.074	686709	keystroke_n	n	n/a
343.4735	0.105	686947	keystroke_i	i	n/a
343.594	0.1355	687188	keystroke_c	c	n/a
343.774	0.135	687548	keystroke_a	a	n/a
347.091	0.0125	694182	keystroke_t	t	n/a
347.1495	0.15	694299	keystroke_i	i	n/a
347.254	0.15	694508	keystroke_o	o	n/a
347.419	0.09	694838	keystroke_n	n	n/a
347.5395	0.1495	695079	keystroke_s	s	n/a
347.644	0.15	695288	keystroke_Key.space	Key.space	n/a
347.854	0.1195	695708	keystroke_s	s	n/a
347.944	0.1495	695888	keystroke_h	h	n/a
348.079	0.1045	696158	keystroke_o	o	n/a
348.2435	0.105	696487	keystroke_p	p	n/a
348.4245	0.044	696849	keystroke_p	p	n/a
348.6185	0.195	697237	keystroke_i	i	n/a
348.7685	0.105	697537	keystroke_n	n	n/a
348.844	0.1195	697688	keystroke_g	g	n/a
348.919	0.1645	697838	keystroke_Key.space	Key.space	n/a
349.1435	0.1205	698287	keystroke_v	v	n/a
349.2785	0.121	698557	keystroke_i	i	n/a
349.4135	0.1355	698827	keystroke_c	c	n/a
349.744	0.0595	699488	keystroke_t	t	n/a
349.848	0.121	699696	keystroke_o	o	n/a
349.9985	0.1055	699997	keystroke_r	r	n/a
350.164	0.1045	700328	keystroke_i	i	n/a
350.2835	0.165	700567	keystroke_a	a	n/a
350.7495	0.089	701499	keystroke_n	n	n/a
351.1835	0.1355	702367	keystroke_Key.space	Key.space	n/a
351.5135	0.12	703027	keystroke_d	d	n/a
351.7535	0.091	703507	keystroke_e	e	n/a
351.9635	0.0905	703927	keystroke_d	d	n/a
352.084	0.105	704168	keystroke_i	i	n/a
352.174	0.105	704348	keystroke_c	c	n/a
352.339	0.135	704678	keystroke_a	a	n/a
352.489	0.09	704978	keystroke_t	t	n/a
352.639	0.105	705278	keystroke_e	e	n/a
352.864	0.105	705728	keystroke_d	d	n/a
353.164	0.12	706328	keystroke_Key.enter	Key.enter	n/a
353.2895	8.906	706579	prompt	n/a	mountains let's makeup hartford\n
353.8995	0.149	707799	keystroke_m	m	n/a
354.0635	0.046	708127	keystroke_o	o	n/a
354.2885	0.1655	708577	keystroke_o	o	n/a
354.409	0.1045	708818	keystroke_u	u	n/a
354.6795	0.0595	709359	keystroke_n	n	n/a
354.934	0.06	709868	keystroke_Key.backspace	Key.backspace	n/a
355.084	0.075	710168	keystroke_Key.backspace	Key.backspace	n/a
355.263	0.0605	710526	keystroke_Key.backspace	Key.backspace	n/a
355.5195	0.0595	711039	keystroke_o	o	n/a
356.014	0.06	712028	keystroke_Key.backspace	Key.backspace	n/a
356.2095	0.0745	712419	keystroke_u	u	n/a
356.554	0.0905	713108	keystroke_n	n	n/a
356.719	0.105	713438	keystroke_t	t	n/a
356.8995	0.1495	713799	keystroke_a	a	n/a
357.019	0.18	714038	keystroke_i	i	n/a
357.154	0.105	714308	keystroke_n	n	n/a
357.2745	0.119	714549	keystroke_s	s	n/a
357.3785	0.1505	714757	keystroke_Key.space	Key.space	n/a
357.484	0.165	714968	keystroke_l	l	n/a
357.6935	0.1355	715387	keystroke_e	e	n/a
358.3385	0.075	716677	keystroke_t	t	n/a
358.5485	0.0755	717097	keystroke_'	'	n/a
358.729	0.135	717458	keystroke_s	s	n/a
358.849	0.15	717698	keystroke_Key.space	Key.space	n/a
358.999	0.135	717998	keystroke_m	m	n/a
359.149	0.1505	718298	keystroke_a	a	n/a
359.345	0.134	718690	keystroke_k	k	n/a
359.539	0.12	719078	keystroke_e	e	n/a
359.719	0.15	719438	keystroke_u	u	n/a
359.8545	0.1195	719709	keystroke_p	p	n/a
360.004	0.135	720008	keystroke_Key.space	Key.space	n/a
360.214	0.1045	720428	keystroke_h	h	n/a
360.3335	0.1505	720667	keystroke_a	a	n/a
360.454	0.1045	720908	keystroke_r	r	n/a
360.6485	0.075	721297	keystroke_t	t	n/a
360.8585	0.105	721717	keystroke_f	f	n/a
361.0095	0.1645	722019	keystroke_o	o	n/a
361.189	0.105	722378	keystroke_e	e	n/a
361.564	0.075	723128	keystroke_Key.backspace	Key.backspace	n/a
361.654	0.0755	723308	keystroke_r	r	n/a
361.879	0.075	723758	keystroke_d	d	n/a
362.104	0.09	724208	keystroke_Key.enter	Key.enter	n/a
362.1995	6.251	724399	prompt	n/a	everything michael requested align\n
362.8845	0.0895	725769	keystroke_e	e	n/a
363.094	0.0755	726188	keystroke_v	v	n/a
363.2595	0.105	726519	keystroke_e	e	n/a
363.3185	0.1055	726637	keystroke_r	r	n/a
363.454	0.105	726908	keystroke_y	y	n/a
363.619	0.09	727238	keystroke_t	t	n/a
363.724	0.09	727448	keystroke_h	h	n/a
363.8295	0.1795	727659	keystroke_i	i	n/a
363.964	0.1205	727928	keystroke_n	n	n/a
364.069	0.12	728138	keystroke_g	g	n/a
364.144	0.15	728288	keystroke_Key.space	Key.space	n/a
364.264	0.09	728528	keystroke_m	m	n/a
364.429	0.1055	728858	keystroke_i	i	n/a
364.549	0.105	729098	keystroke_c	c	n/a
364.669	0.105	729338	keystroke_h	h	n/a
364.894	0.135	729788	keystroke_a	a	n/a
365.1485	0.075	730297	keystroke_e	e	n/a
365.314	0.09	730628	keystroke_l	l	n/a
365.479	0.135	730958	keystroke_Key.space	Key.space	n/a
365.704	0.119	731408	keystroke_r	r	n/a
365.839	0.1055	731678	keystroke_e	e	n/a
366.079	0.105	732158	keystroke_q	q	n/a
366.199	0.105	732398	keystroke_u	u	n/a
366.3335	0.1055	732667	keystroke_e	e	n/a
366.5595	0.135	733119	keystroke_s	s	n/a
366.8745	0.089	733749	keystroke_t	t	n/a
367.0535	0.105	734107	keystroke_e	e	n/a
367.294	0.12	734588	keystroke_d	d	n/a
367.414	0.1355	734828	keystroke_Key.space	Key.space	n/a
367.6835	0.12	735367	keystroke_a	a	n/a
367.7595	0.164	735519	keystroke_l	l	n/a
367.8945	0.105	735789	keystroke_i	i	n/a
368.0135	0.1055	736027	keystroke_g	g	n/a
368.1345	0.105	736269	keystroke_h	h	n/a
368.329	0.12	736658	keystroke_Key.enter	Key.enter	n/a
368.4545	6.5065	736909	prompt	n/a	ncaa consortium claim bhutan\n
369.0345	0.1195	738069	keystroke_n	n	n/a
369.3345	0.104	738669	keystroke_c	c	n/a
369.499	0.1055	738998	keystroke_a	a	n/a
369.7095	0.12	739419	keystroke_a	a	n/a
369.8435	0.15	739687	keystroke_Key.space	Key.space	n/a
370.0545	0.12	740109	keystroke_c	c	n/a
370.1895	0.18	740379	keystroke_o	o	n/a
370.3245	0.119	740649	keystroke_n	n	n/a
370.5495	0.12	741099	keystroke_s	s	n/a
370.9545	0.09	741909	keystroke_o	o	n/a
371.1645	0.089	742329	keystroke_r	r	n/a
371.359	0.09	742718	keystroke_t	t	n/a
371.5235	0.135	743047	keystroke_i	i	n/a
371.7335	0.0905	743467	keystroke_u	u	n/a
371.974	0.09	743948	keystroke_m	m	n/a
372.1695	0.12	744339	keystroke_Key.space	Key.space	n/a
372.3345	0.134	744669	keystroke_c	c	n/a
372.454	0.12	744908	keystroke_l	l	n/a
372.5885	0.165	745177	keystroke_a	a	n/a
372.8435	0.09	745687	keystroke_i	i	n/a
373.024	0.105	746048	keystroke_m	m	n/a
373.1885	0.165	746377	keystroke_Key.space	Key.space	n/a
373.4285	0.12	746857	keystroke_b	b	n/a
373.6995	0.15	747399	keystroke_h	h	n/a
373.9995	0.12	747999	keystroke_u	u	n/a
374.2845	0.075	748569	keystroke_t	t	n/a
374.4485	0.136	748897	keystroke_a	a	n/a
374.6135	0.09	749227	keystroke_n	n	n/a
374.8535	0.105	749707	keystroke_Key.enter	Key.enter	n/a
374.9675	9.939	749935	prompt	n/a	shopping specially dakota guarantee\n
375.6795	0.135	751359	keystroke_s	s	n/a
375.7685	0.1205	751537	keystroke_h	h	n/a
375.9045	0.15	751809	keystroke_o	o	n/a
376.0395	0.09	752079	keystroke_p	p	n/a
376.2335	0.0905	752467	keystroke_[	[	n/a
376.384	0.1505	752768	keystroke_i	i	n/a
376.564	0.075	753128	keystroke_n	n	n/a
376.594	0.1355	753188	keystroke_g	g	n/a
376.669	0.18	753338	keystroke_Key.space	Key.space	n/a
377.1335	0.0605	754267	keystroke_Key.backspace	Key.backspace	n/a
377.2985	0.0605	754597	keystroke_Key.backspace	Key.backspace	n/a
377.4635	0.0605	754927	keystroke_Key.backspace	Key.backspace	n/a
377.6145	0.0745	755229	keystroke_Key.backspace	Key.backspace	n/a
377.989	0.075	755978	keystroke_Key.backspace	Key.backspace	n/a
378.349	0.06	756698	keystroke_p	p	n/a
378.739	0.165	757478	keystroke_i	i	n/a
378.8895	0.0895	757779	keystroke_n	n	n/a
379.009	0.135	758018	keystroke_g	g	n/a
379.129	0.24	758258	keystroke_Key.space	Key.space	n/a
379.354	0.1055	758708	keystroke_e	e	n/a
379.834	0.105	759668	keystroke_p	p	n/a
380.0285	0.0905	760057	keystroke_e	e	n/a
380.239	0.105	760478	keystroke_c	c	n/a
380.359	0.1195	760718	keystroke_i	i	n/a
380.5095	0.1345	761019	keystroke_a	a	n/a
380.614	0.0605	761228	keystroke_l	l	n/a
380.749	0.135	761498	keystroke_l	l	n/a
380.8985	0.0755	761797	keystroke_y	y	n/a
381.0035	0.15	762007	keystroke_Key.space	Key.space	n/a
381.1385	0.105	762277	keystroke_d	d	n/a
381.3045	0.1345	762609	keystroke_a	a	n/a
381.439	0.105	762878	keystroke_k	k	n/a
381.634	0.12	763268	keystroke_o	o	n/a
381.829	0.1045	763658	keystroke_t	t	n/a
382.0245	0.135	764049	keystroke_a	a	n/a
382.1295	0.164	764259	keystroke_Key.space	Key.space	n/a
382.3095	0.105	764619	keystroke_g	g	n/a
382.4745	0.135	764949	keystroke_u	u	n/a
382.7445	0.165	765489	keystroke_a	a	n/a
383.1495	0.149	766299	keystroke_a	a	n/a
383.3145	0.1195	766629	keystroke_n	n	n/a
383.4795	0.074	766959	keystroke_t	t	n/a
383.6885	0.075	767377	keystroke_t	t	n/a
384.3645	0.09	768729	keystroke_e	e	n/a
384.529	0.045	769058	keystroke_e	e	n/a
384.814	0.09	769628	keystroke_Key.enter	Key.enter	n/a
384.911	8.14	769822	prompt	n/a	pantyhose instances prospective reseller\n
385.729	0.1045	771458	keystroke_p	p	n/a
385.8495	0.1495	771699	keystroke_a	a	n/a
385.939	0.0905	771878	keystroke_n	n	n/a
386.134	0.075	772268	keystroke_t	t	n/a
386.239	0.0905	772478	keystroke_y	y	n/a
386.539	0.09	773078	keystroke_h	h	n/a
386.674	0.1355	773348	keystroke_o	o	n/a
387.0795	0.0145	774159	keystroke_s	s	n/a
387.1095	0.165	774219	keystroke_e	e	n/a
387.229	0.135	774458	keystroke_Key.space	Key.space	n/a
387.379	0.15	774758	keystroke_i	i	n/a
387.469	0.165	774938	keystroke_n	n	n/a
387.754	0.18	775508	keystroke_s	s	n/a
387.9345	0.105	775869	keystroke_t	t	n/a
388.144	0.18	776288	keystroke_a	a	n/a
388.399	0.165	776798	keystroke_n	n	n/a
388.744	0.09	777488	keystroke_c	c	n/a
388.9235	0.09	777847	keystroke_e	e	n/a
389.1185	0.151	778237	keystroke_s	s	n/a
389.2235	0.1205	778447	keystroke_Key.space	Key.space	n/a
389.374	0.135	778748	keystroke_p	p	n/a
389.4945	0.1045	778989	keystroke_r	r	n/a
389.644	0.105	779288	keystroke_o	o	n/a
389.8395	0.1045	779679	keystroke_s	s	n/a
390.409	0.015	780818	keystroke_p	p	n/a
390.574	0.12	781148	keystroke_e	e	n/a
390.8895	0.0745	781779	keystroke_c	c	n/a
391.099	0.06	782198	keystroke_t	t	n/a
391.204	0.165	782408	keystroke_i	i	n/a
391.339	0.09	782678	keystroke_v	v	n/a
391.549	0.1055	783098	keystroke_e	e	n/a
391.639	0.225	783278	keystroke_Key.space	Key.space	n/a
391.804	0.15	783608	keystroke_r	r	n/a
391.969	0.0905	783938	keystroke_e	e	n/a
392.179	0.135	784358	keystroke_s	s	n/a
392.284	0.1355	784568	keystroke_e	e	n/a
392.434	0.045	784868	keystroke_l	l	n/a
392.554	0.135	785108	keystroke_l	l	n/a
392.659	0.1345	785318	keystroke_e	e	n/a
392.7795	0.0895	785559	keystroke_r	r	n/a
392.959	0.0895	785918	keystroke_Key.enter	Key.enter	n/a
393.055	8.366	786110	prompt	n/a	inappropriate forever pirates give\n
393.709	0.1945	787418	keystroke_i	i	n/a
394.0395	0.089	788079	keystroke_n	n	n/a
394.2945	0.1345	788589	keystroke_a	a	n/a
394.4445	0.0595	788889	keystroke_p	p	n/a
394.5945	0.0895	789189	keystroke_p	p	n/a
394.864	0.105	789728	keystroke_r	r	n/a
394.999	0.12	789998	keystroke_o	o	n/a
395.179	0.105	790358	keystroke_p	p	n/a
395.359	0.12	790718	keystroke_r	r	n/a
395.494	0.1195	790988	keystroke_i	i	n/a
395.6735	0.1355	791347	keystroke_a	a	n/a
395.854	0.0745	791708	keystroke_t	t	n/a
396.0785	0.136	792157	keystroke_e	e	n/a
396.2285	0.15	792457	keystroke_Key.space	Key.space	n/a
396.4085	0.1205	792817	keystroke_f	f	n/a
396.5585	0.1505	793117	keystroke_o	o	n/a
397.0835	0.09	794167	keystroke_r	r	n/a
397.219	0.1195	794438	keystroke_e	e	n/a
397.4585	0.0755	794917	keystroke_v	v	n/a
397.729	0.1345	795458	keystroke_r	r	n/a
398.0135	0.1055	796027	keystroke_Key.space	Key.space	n/a
398.7195	0.09	797439	keystroke_p	p	n/a
398.8235	0.0905	797647	keystroke_r	r	n/a
399.2295	0.06	798459	keystroke_Key.backspace	Key.backspace	n/a
399.484	0.0755	798968	keystroke_i	i	n/a
399.7845	0.12	799569	keystroke_r	r	n/a
400.0235	0.1655	800047	keystroke_a	a	n/a
400.1745	0.105	800349	keystroke_t	t	n/a
400.3245	0.105	800649	keystroke_e	e	n/a
400.4745	0.149	800949	keystroke_s	s	n/a
400.5935	0.165	801187	keystroke_Key.space	Key.space	n/a
400.7145	0.105	801429	keystroke_g	g	n/a
400.8335	0.1505	801667	keystroke_i	i	n/a
400.969	0.06	801938	keystroke_v	v	n/a
401.134	0.06	802268	keystroke_e	e	n/a
401.329	0.09	802658	keystroke_Key.enter	Key.enter	n/a
401.4255	7.54	802851	prompt	n/a	hampshire function swimming discussions\n
402.154	0.0905	804308	keystroke_h	h	n/a
402.2585	0.1655	804517	keystroke_a	a	n/a
402.9485	0.06	805897	keystroke_m	m	n/a
403.279	0.105	806558	keystroke_p	p	n/a
403.5935	0.135	807187	keystroke_s	s	n/a
403.7135	0.1205	807427	keystroke_h	h	n/a
403.8345	0.135	807669	keystroke_i	i	n/a
404.0285	0.106	808057	keystroke_r	r	n/a
404.1635	0.135	808327	keystroke_e	e	n/a
404.2535	0.21	808507	keystroke_Key.space	Key.space	n/a
404.4345	0.119	808869	keystroke_f	f	n/a
404.5845	0.0745	809169	keystroke_u	u	n/a
404.7635	0.075	809527	keystroke_n	n	n/a
404.8545	0.09	809709	keystroke_c	c	n/a
405.0645	0.045	810129	keystroke_t	t	n/a
405.1845	0.134	810369	keystroke_i	i	n/a
405.2745	0.18	810549	keystroke_o	o	n/a
405.4095	0.12	810819	keystroke_n	n	n/a
405.4845	0.194	810969	keystroke_Key.space	Key.space	n/a
405.6345	0.105	811269	keystroke_s	s	n/a
405.8745	0.09	811749	keystroke_w	w	n/a
405.9795	0.105	811959	keystroke_i	i	n/a
406.1745	0.075	812349	keystroke_m	m	n/a
406.4295	0.014	812859	keystroke_m	m	n/a
406.5195	0.15	813039	keystroke_i	i	n/a
406.6395	0.12	813279	keystroke_n	n	n/a
406.7745	0.105	813549	keystroke_g	g	n/a
406.819	0.2095	813638	keystroke_Key.space	Key.space	n/a
407.0745	0.134	814149	keystroke_d	d	n/a
407.2095	0.18	814419	keystroke_i	i	n/a
407.3435	0.136	814687	keystroke_s	s	n/a
407.5995	0.105	815199	keystroke_c	c	n/a
407.7195	0.135	815439	keystroke_u	u	n/a
407.9295	0.09	815859	keystroke_s	s	n/a
408.109	0.12	816218	keystroke_s	s	n/a
408.244	0.15	816488	keystroke_i	i	n/a
408.349	0.21	816698	keystroke_o	o	n/a
408.5295	0.1045	817059	keystroke_n	n	n/a
408.649	0.105	817298	keystroke_s	s	n/a
408.829	0.135	817658	keystroke_Key.enter	Key.enter	n/a
408.9715	6.4895	817943	prompt	n/a	operations frames descending width\n
409.759	0.03	819518	keystroke_o	o	n/a
409.774	0.12	819548	keystroke_p	p	n/a
409.909	0.1205	819818	keystroke_e	e	n/a
409.9845	0.135	819969	keystroke_r	r	n/a
410.209	0.1345	820418	keystroke_a	a	n/a
410.314	0.0895	820628	keystroke_t	t	n/a
410.4635	0.1505	820927	keystroke_i	i	n/a
410.599	0.1805	821198	keystroke_o	o	n/a
410.749	0.1055	821498	keystroke_n	n	n/a
410.839	0.09	821678	keystroke_s	s	n/a
410.884	0.18	821768	keystroke_Key.space	Key.space	n/a
411.019	0.09	822038	keystroke_f	f	n/a
411.1845	0.0745	822369	keystroke_r	r	n/a
411.319	0.1505	822638	keystroke_a	a	n/a
411.4395	0.12	822879	keystroke_m	m	n/a
411.5895	0.09	823179	keystroke_e	e	n/a
411.754	0.135	823508	keystroke_s	s	n/a
411.844	0.2095	823688	keystroke_Key.space	Key.space	n/a
412.009	0.09	824018	keystroke_d	d	n/a
412.219	0.09	824438	keystroke_e	e	n/a
412.414	0.105	824828	keystroke_s	s	n/a
412.5795	0.1045	825159	keystroke_c	c	n/a
412.789	0.0895	825578	keystroke_e	e	n/a
412.8945	0.12	825789	keystroke_n	n	n/a
413.0595	0.0445	826119	keystroke_t	t	n/a
413.4635	0.075	826927	keystroke_Key.backspace	Key.backspace	n/a
413.57	0.1045	827140	keystroke_d	d	n/a
413.7345	0.165	827469	keystroke_i	i	n/a
413.8545	0.134	827709	keystroke_n	n	n/a
413.9745	0.1495	827949	keystroke_g	g	n/a
414.0795	0.1345	828159	keystroke_Key.space	Key.space	n/a
414.484	0.075	828968	keystroke_w	w	n/a
414.574	0.1205	829148	keystroke_i	i	n/a
414.7395	0.09	829479	keystroke_d	d	n/a
415.009	0.06	830018	keystroke_t	t	n/a
415.1145	0.0895	830229	keystroke_h	h	n/a
415.3395	0.1195	830679	keystroke_Key.enter	Key.enter	n/a
415.465	5.636	830930	prompt	n/a	relay winston maria presenting\n
416.2085	0.105	832417	keystroke_r	r	n/a
416.3295	0.1345	832659	keystroke_e	e	n/a
416.5095	0.105	833019	keystroke_l	l	n/a
416.6895	0.12	833379	keystroke_a	a	n/a
416.8245	0.06	833649	keystroke_y	y	n/a
416.9445	0.12	833889	keystroke_Key.space	Key.space	n/a
417.1095	0.15	834219	keystroke_w	w	n/a
417.2745	0.119	834549	keystroke_i	i	n/a
417.4545	0.09	834909	keystroke_n	n	n/a
417.709	0.1205	835418	keystroke_s	s	n/a
417.9185	0.091	835837	keystroke_t	t	n/a
418.0845	0.18	836169	keystroke_o	o	n/a
418.2495	0.105	836499	keystroke_n	n	n/a
418.3395	0.15	836679	keystroke_Key.space	Key.space	n/a
418.5195	0.135	837039	keystroke_m	m	n/a
418.6385	0.151	837277	keystroke_a	a	n/a
418.7445	0.135	837489	keystroke_r	r	n/a
418.9085	0.091	837817	keystroke_i	i	n/a
419.1195	0.135	838239	keystroke_a	a	n/a
419.2095	0.135	838419	keystroke_Key.space	Key.space	n/a
419.479	0.105	838958	keystroke_p	p	n/a
419.5995	0.1645	839199	keystroke_r	r	n/a
419.764	0.1355	839528	keystroke_e	e	n/a
420.0195	0.15	840039	keystroke_s	s	n/a
420.1245	0.15	840249	keystroke_e	e	n/a
420.2895	0.12	840579	keystroke_n	n	n/a
420.4245	0.075	840849	keystroke_t	t	n/a
420.574	0.151	841148	keystroke_i	i	n/a
420.694	0.105	841388	keystroke_n	n	n/a
420.8145	0.0745	841629	keystroke_g	g	n/a
421.009	0.0905	842018	keystroke_Key.enter	Key.enter	n/a
421.104	7.572	842208	prompt	n/a	increasingly bulk command harrison\n
421.804	0.1505	843608	keystroke_i	i	n/a
421.909	0.135	843818	keystroke_n	n	n/a
422.0595	0.1045	844119	keystroke_c	c	n/a
422.284	0.09	844568	keystroke_r	r	n/a
422.4345	0.1045	844869	keystroke_e	e	n/a
423.034	0.1505	846068	keystroke_a	a	n/a
423.47	0.1195	846940	keystroke_s	s	n/a
423.664	0.1355	847328	keystroke_i	i	n/a
423.784	0.1205	847568	keystroke_n	n	n/a
423.889	0.105	847778	keystroke_g	g	n/a
424.0695	0.075	848139	keystroke_l	l	n/a
424.279	0.075	848558	keystroke_y	y	n/a
424.4295	0.1045	848859	keystroke_Key.space	Key.space	n/a
424.639	0.075	849278	keystroke_b	b	n/a
424.744	0.165	849488	keystroke_u	u	n/a
424.97	0.119	849940	keystroke_l	l	n/a
425.6145	0.0755	851229	keystroke_k	k	n/a
426.0335	0.12	852067	keystroke_Key.space	Key.space	n/a
426.2135	0.121	852427	keystroke_c	c	n/a
426.3045	0.18	852609	keystroke_o	o	n/a
426.4395	0.105	852879	keystroke_m	m	n/a
426.6345	0.09	853269	keystroke_m	m	n/a
426.769	0.15	853538	keystroke_a	a	n/a
426.8595	0.0895	853719	keystroke_n	n	n/a
426.994	0.135	853988	keystroke_d	d	n/a
427.084	0.1655	854168	keystroke_Key.space	Key.space	n/a
427.174	0.1655	854348	keystroke_h	h	n/a
427.3545	0.12	854709	keystroke_a	a	n/a
427.4445	0.09	854889	keystroke_r	r	n/a
427.6095	0.105	855219	keystroke_r	r	n/a
427.7295	0.135	855459	keystroke_i	i	n/a
427.8495	0.105	855699	keystroke_s	s	n/a
428.1495	0.105	856299	keystroke_o	o	n/a
428.3735	0.09	856747	keystroke_n	n	n/a
428.5835	0.09	857167	keystroke_Key.enter	Key.enter	n/a
428.6795	8.0815	857359	prompt	n/a	item cleaning textbooks choices\n
429.3345	0.119	858669	keystroke_i	i	n/a
429.4245	0.09	858849	keystroke_t	t	n/a
429.6495	0.105	859299	keystroke_e	e	n/a
429.8295	0.105	859659	keystroke_m	m	n/a
430.0245	0.105	860049	keystroke_Key.space	Key.space	n/a
430.2795	0.105	860559	keystroke_c	c	n/a
430.3695	0.12	860739	keystroke_l	l	n/a
430.5345	0.1195	861069	keystroke_e	e	n/a
430.684	0.15	861368	keystroke_a	a	n/a
430.8195	0.09	861639	keystroke_n	n	n/a
430.924	0.1355	861848	keystroke_i	i	n/a
431.089	0.1505	862178	keystroke_g	g	n/a
431.104	0.0905	862208	keystroke_n	n	n/a
431.2095	0.165	862419	keystroke_Key.space	Key.space	n/a
432.0945	0.059	864189	keystroke_Key.backspace	Key.backspace	n/a
432.2595	0.06	864519	keystroke_Key.backspace	Key.backspace	n/a
432.4095	0.074	864819	keystroke_Key.backspace	Key.backspace	n/a
432.6945	0.059	865389	keystroke_n	n	n/a
432.8585	0.076	865717	keystroke_g	g	n/a
433.0535	0.15	866107	keystroke_Key.space	Key.space	n/a
433.3395	0.1045	866679	keystroke_t	t	n/a
433.534	0.1055	867068	keystroke_e	e	n/a
434.0595	0.0895	868119	keystroke_x	x	n/a
434.2695	0.0745	868539	keystroke_t	t	n/a
434.614	0.06	869228	keystroke_b	b	n/a
434.719	0.075	869438	keystroke_o	o	n/a
434.8545	0.1345	869709	keystroke_o	o	n/a
435.064	0.105	870128	keystroke_k	k	n/a
435.214	0.075	870428	keystroke_s	s	n/a
435.244	0.165	870488	keystroke_Key.space	Key.space	n/a
435.439	0.12	870878	keystroke_c	c	n/a
435.589	0.12	871178	keystroke_h	h	n/a
435.7245	0.15	871449	keystroke_o	o	n/a
435.9045	0.105	871809	keystroke_i	i	n/a
436.0995	0.09	872199	keystroke_c	c	n/a
436.2795	0.0895	872559	keystroke_e	e	n/a
436.4295	0.1195	872859	keystroke_s	s	n/a
436.6395	0.12	873279	keystroke_Key.enter	Key.enter	n/a
436.766	6.07	873532	prompt	n/a	store bill clinics broadcast\n
437.3745	0.165	874749	keystroke_s	s	n/a
437.5235	0.106	875047	keystroke_t	t	n/a
437.6885	0.1205	875377	keystroke_o	o	n/a
437.795	0.1195	875590	keystroke_r	r	n/a
437.944	0.1355	875888	keystroke_e	e	n/a
438.094	0.1795	876188	keystroke_Key.space	Key.space	n/a
438.26	0.0885	876520	keystroke_b	b	n/a
438.3935	0.105	876787	keystroke_i	i	n/a
438.4685	0.075	876937	keystroke_l	l	n/a
438.6195	0.135	877239	keystroke_l	l	n/a
438.7695	0.135	877539	keystroke_Key.space	Key.space	n/a
438.8895	0.135	877779	keystroke_c	c	n/a
439.129	0.165	878258	keystroke_l	l	n/a
439.2495	0.195	878499	keystroke_i	i	n/a
439.4145	0.1045	878829	keystroke_n	n	n/a
439.669	0.12	879338	keystroke_i	i	n/a
439.834	0.1055	879668	keystroke_c	c	n/a
440.134	0.0905	880268	keystroke_s	s	n/a
440.2085	0.181	880417	keystroke_Key.space	Key.space	n/a
440.3745	0.075	880749	keystroke_b	b	n/a
440.5695	0.075	881139	keystroke_r	r	n/a
440.764	0.15	881528	keystroke_a	a	n/a
441.2435	0.045	882487	keystroke_Key.backspace	Key.backspace	n/a
441.394	0.0905	882788	keystroke_o	o	n/a
441.5295	0.1495	883059	keystroke_a	a	n/a
441.769	0.09	883538	keystroke_d	d	n/a
442.0245	0.0745	884049	keystroke_c	c	n/a
442.1895	0.1195	884379	keystroke_a	a	n/a
442.3545	0.1195	884709	keystroke_s	s	n/a
442.534	0.0755	885068	keystroke_e	e	n/a
442.7295	0.1045	885459	keystroke_Key.enter	Key.enter	n/a
442.841	7.36	885682	prompt	n/a	decorative gimme personalized owned\n
443.734	0.105	887468	keystroke_d	d	n/a
443.944	0.09	887888	keystroke_e	e	n/a
444.214	0.0905	888428	keystroke_c	c	n/a
444.454	0.1055	888908	keystroke_o	o	n/a
444.589	0.105	889178	keystroke_r	r	n/a
444.814	0.105	889628	keystroke_a	a	n/a
444.9045	0.0745	889809	keystroke_t	t	n/a
445.0545	0.165	890109	keystroke_i	i	n/a
445.189	0.0905	890378	keystroke_v	v	n/a
445.3695	0.1505	890739	keystroke_e	e	n/a
445.4445	0.225	890889	keystroke_Key.space	Key.space	n/a
445.6395	0.12	891279	keystroke_g	g	n/a
445.745	0.089	891490	keystroke_i	i	n/a
445.9545	0.075	891909	keystroke_m	m	n/a
446.1045	0.105	892209	keystroke_m	m	n/a
446.2395	0.119	892479	keystroke_e	e	n/a
446.314	0.195	892628	keystroke_Key.space	Key.space	n/a
446.5685	0.1205	893137	keystroke_p	p	n/a
446.7035	0.136	893407	keystroke_e	e	n/a
446.7945	0.105	893589	keystroke_r	r	n/a
447.0195	0.09	894039	keystroke_s	s	n/a
447.1245	0.15	894249	keystroke_o	o	n/a
447.2595	0.09	894519	keystroke_n	n	n/a
447.379	0.1205	894758	keystroke_a	a	n/a
447.514	0.1355	895028	keystroke_l	l	n/a
447.619	0.1205	895238	keystroke_i	i	n/a
447.7095	0.12	895419	keystroke_z	z	n/a
447.9345	0.09	895869	keystroke_e	e	n/a
448.115	0.1345	896230	keystroke_d	d	n/a
448.234	0.135	896468	keystroke_Key.space	Key.space	n/a
448.4145	0.0895	896829	keystroke_o	o	n/a
449.2995	0.135	898599	keystroke_w	w	n/a
449.4645	0.135	898929	keystroke_n	n	n/a
449.7795	0.075	899559	keystroke_e	e	n/a
449.9595	0.075	899919	keystroke_d	d	n/a
450.1095	0.0895	900219	keystroke_Key.enter	Key.enter	n/a
450.2075	7.463	900415	prompt	n/a	anticipated pretty correlation exhibitions\n
450.8745	0.135	901749	keystroke_a	a	n/a
450.9645	0.09	901929	keystroke_n	n	n/a
451.1445	0.075	902289	keystroke_t	t	n/a
451.2335	0.121	902467	keystroke_i	i	n/a
451.3995	0.1055	902799	keystroke_c	c	n/a
451.5195	0.12	903039	keystroke_i	i	n/a
451.7445	0.119	903489	keystroke_p	p	n/a
451.9395	0.12	903879	keystroke_a	a	n/a
452.09	0.0895	904180	keystroke_t	t	n/a
452.2545	0.075	904509	keystroke_e	e	n/a
452.4495	0.09	904899	keystroke_d	d	n/a
452.5245	0.135	905049	keystroke_Key.space	Key.space	n/a
452.644	0.1205	905288	keystroke_p	p	n/a
452.7495	0.105	905499	keystroke_r	r	n/a
452.8685	0.135	905737	keystroke_e	e	n/a
453.0195	0.045	906039	keystroke_t	t	n/a
453.1385	0.091	906277	keystroke_t	t	n/a
453.2595	0.09	906519	keystroke_y	y	n/a
453.3645	0.18	906729	keystroke_Key.space	Key.space	n/a
453.5145	0.12	907029	keystroke_c	c	n/a
453.6645	0.09	907329	keystroke_o	o	n/a
453.9945	0.075	907989	keystroke_r	r	n/a
454.1295	0.09	908259	keystroke_r	r	n/a
454.3395	0.1045	908679	keystroke_e	e	n/a
454.4585	0.1215	908917	keystroke_l	l	n/a
454.639	0.151	909278	keystroke_a	a	n/a
454.8045	0.0745	909609	keystroke_t	t	n/a
454.9395	0.135	909879	keystroke_i	i	n/a
455.044	0.165	910088	keystroke_o	o	n/a
455.1795	0.12	910359	keystroke_n	n	n/a
455.3135	0.136	910627	keystroke_Key.space	Key.space	n/a
455.4645	0.0895	910929	keystroke_e	e	n/a
455.6895	0.1195	911379	keystroke_x	x	n/a
455.8995	0.1195	911799	keystroke_h	h	n/a
456.0495	0.0895	912099	keystroke_i	i	n/a
456.454	0.0155	912908	keystroke_b	b	n/a
456.694	0.09	913388	keystroke_i	i	n/a
456.829	0.075	913658	keystroke_t	t	n/a
456.949	0.15	913898	keystroke_i	i	n/a
457.069	0.12	914138	keystroke_o	o	n/a
457.2495	0.0745	914499	keystroke_n	n	n/a
457.369	0.0905	914738	keystroke_s	s	n/a
457.579	0.09	915158	keystroke_Key.enter	Key.enter	n/a
457.6745	5.576	915349	prompt	n/a	achieve all ethernet what'd\n
458.2695	0.1495	916539	keystroke_a	a	n/a
458.5995	0.105	917199	keystroke_c	c	n/a
458.749	0.1055	917498	keystroke_h	h	n/a
458.9445	0.18	917889	keystroke_i	i	n/a
459.079	0.09	918158	keystroke_e	e	n/a
459.2895	0.074	918579	keystroke_v	v	n/a
459.4395	0.135	918879	keystroke_e	e	n/a
459.559	0.135	919118	keystroke_Key.space	Key.space	n/a
459.7095	0.15	919419	keystroke_a	a	n/a
459.829	0.075	919658	keystroke_l	l	n/a
459.9795	0.1205	919959	keystroke_l	l	n/a
460.129	0.1505	920258	keystroke_Key.space	Key.space	n/a
460.384	0.105	920768	keystroke_e	e	n/a
460.624	0.075	921248	keystroke_t	t	n/a
460.7	0.119	921400	keystroke_h	h	n/a
460.834	0.105	921668	keystroke_e	e	n/a
460.894	0.136	921788	keystroke_r	r	n/a
461.104	0.0905	922208	keystroke_n	n	n/a
461.224	0.12	922448	keystroke_e	e	n/a
461.359	0.15	922718	keystroke_t	t	n/a
461.4795	0.1495	922959	keystroke_Key.space	Key.space	n/a
461.809	0.1505	923618	keystroke_w	w	n/a
461.944	0.075	923888	keystroke_h	h	n/a
462.1095	0.135	924219	keystroke_a	a	n/a
462.2895	0.0905	924579	keystroke_t	t	n/a
462.499	0.1055	924998	keystroke_'	'	n/a
462.769	0.0755	925538	keystroke_d	d	n/a
463.1595	0.0895	926319	keystroke_Key.enter	Key.enter	n/a
463.254	5.502	926508	prompt	n/a	tickets dude statistics menus\n
464.1795	0.0895	928359	keystroke_t	t	n/a
464.3145	0.0895	928629	keystroke_i	i	n/a
464.4795	0.09	928959	keystroke_c	c	n/a
464.585	0.1195	929170	keystroke_k	k	n/a
464.719	0.105	929438	keystroke_e	e	n/a
464.8845	0.0745	929769	keystroke_t	t	n/a
465.0945	0.12	930189	keystroke_s	s	n/a
465.199	0.2095	930398	keystroke_Key.space	Key.space	n/a
465.3795	0.09	930759	keystroke_d	d	n/a
465.4985	0.136	930997	keystroke_u	u	n/a
465.604	0.0905	931208	keystroke_d	d	n/a
465.815	0.0895	931630	keystroke_e	e	n/a
465.934	0.1655	931868	keystroke_Key.space	Key.space	n/a
466.0845	0.18	932169	keystroke_s	s	n/a
466.2495	0.105	932499	keystroke_t	t	n/a
466.4295	0.179	932859	keystroke_a	a	n/a
