onset	duration	sample	value	key	prompt_text
1.507	18.8945	3014	prompt	n/a	the quick brown fox jumps over a lazy dog\n
5.5845	0.193	11169	keystroke_Key.space	Key.space	n/a
6.5975	0.225	13195	keystroke_t	t	n/a
6.7485	0.225	13497	keystroke_h	h	n/a
8.2325	0.12	16465	keystroke_Key.backspace	Key.backspace	n/a
8.4725	0.135	16945	keystroke_Key.backspace	Key.backspace	n/a
8.6685	0.134	17337	keystroke_Key.backspace	Key.backspace	n/a
8.8925	0.075	17785	keystroke_Key.backspace	Key.backspace	n/a
9.673	0.21	19346	keystroke_t	t	n/a
9.898	0.21	19796	keystroke_h	h	n/a
10.018	0.225	20036	keystroke_e	e	n/a
10.303	0.21	20606	keystroke_Key.space	Key.space	n/a
10.633	0.255	21266	keystroke_q	q	n/a
10.933	0.195	21866	keystroke_u	u	n/a
11.038	0.165	22076	keystroke_i	i	n/a
11.278	0.24	22556	keystroke_c	c	n/a
11.443	0.18	22886	keystroke_k	k	n/a
11.863	0.135	23726	keystroke_Key.space	Key.space	n/a
12.283	0.21	24566	keystroke_b	b	n/a
12.523	0.21	25046	keystroke_r	r	n/a
12.778	0.21	25556	keystroke_o	o	n/a
12.943	0.15	25886	keystroke_w	w	n/a
13.153	0.225	26306	keystroke_n	n	n/a
13.363	0.165	26726	keystroke_Key.space	Key.space	n/a
13.513	0.225	27026	keystroke_f	f	n/a
13.753	0.24	27506	keystroke_o	o	n/a
13.948	0.18	27896	keystroke_x	x	n/a
14.473	0.21	28946	keystroke_Key.space	Key.space	n/a
15.0435	0.165	30087	keystroke_j	j	n/a
15.3285	0.179	30657	keystroke_u	u	n/a
15.6585	0.2245	31317	keystroke_m	m	n/a
15.853	0.225	31706	keystroke_p	p	n/a
15.973	0.1795	31946	keystroke_s	s	n/a
16.348	0.21	32696	keystroke_Key.space	Key.space	n/a
16.618	0.2255	33236	keystroke_o	o	n/a
16.8585	0.18	33717	keystroke_v	v	n/a
17.0835	0.195	34167	keystroke_e	e	n/a
17.2175	0.226	34435	keystroke_r	r	n/a
17.3375	0.21	34675	keystroke_Key.space	Key.space	n/a
17.5935	0.209	35187	keystroke_a	a	n/a
17.7875	0.21	35575	keystroke_Key.space	Key.space	n/a
18.0275	0.255	36055	keystroke_l	l	n/a
18.1925	0.18	36385	keystroke_a	a	n/a
18.6875	0.211	37375	keystroke_z	z	n/a
18.9875	0.21	37975	keystroke_y	y	n/a
19.2885	0.209	38577	keystroke_Key.space	Key.space	n/a
19.5425	0.166	39085	keystroke_d	d	n/a
19.7085	0.224	39417	keystroke_o	o	n/a
19.9935	0.164	39987	keystroke_g	g	n/a
20.2035	0.194	40407	keystroke_Key.enter	Key.enter	n/a
20.4085	8.5585	40817	prompt	n/a	talking cloudy disk fibre\n
21.2985	0.225	42597	keystroke_t	t	n/a
21.4775	0.181	42955	keystroke_a	a	n/a
21.5675	0.211	43135	keystroke_l	l	n/a
21.6885	0.195	43377	keystroke_k	k	n/a
22.0035	0.3	44007	keystroke_i	i	n/a
22.1825	0.151	44365	keystroke_n	n	n/a
22.3175	0.18	44635	keystroke_g	g	n/a
22.4675	0.166	44935	keystroke_Key.space	Key.space	n/a
22.873	0.21	45746	keystroke_c	c	n/a
23.008	0.18	46016	keystroke_l	l	n/a
23.353	0.225	46706	keystroke_o	o	n/a
23.503	0.195	47006	keystroke_u	u	n/a
23.653	0.195	47306	keystroke_d	d	n/a
24.328	0.195	48656	keystroke_y	y	n/a
24.643	0.15	49286	keystroke_Key.space	Key.space	n/a
24.853	0.165	49706	keystroke_d	d	n/a
25.033	0.21	50066	keystroke_i	i	n/a
25.258	0.165	50516	keystroke_s	s	n/a
26.173	0.18	52346	keystroke_k	k	n/a
26.548	0.165	53096	keystroke_Key.space	Key.space	n/a
27.463	0.195	54926	keystroke_f	f	n/a
27.613	0.195	55226	keystroke_i	i	n/a
28.048	0.21	56096	keystroke_b	b	n/a
28.333	0.24	56666	keystroke_r	r	n/a
28.498	0.15	56996	keystroke_e	e	n/a
28.798	0.165	57596	keystroke_Key.enter	Key.enter	n/a
28.973	16.3425	57946	prompt	n/a	persian exchanges taxation grain\n
29.984	0.239	59968	keystroke_p	p	n/a
30.118	0.18	60236	keystroke_e	e	n/a
30.208	0.27	60416	keystroke_r	r	n/a
30.403	0.21	60806	keystroke_s	s	n/a
30.583	0.15	61166	keystroke_i	i	n/a
30.688	0.285	61376	keystroke_o	o	n/a
30.883	0.18	61766	keystroke_n	n	n/a
31.468	0.12	62936	keystroke_Key.backspace	Key.backspace	n/a
31.678	0.12	63356	keystroke_Key.backspace	Key.backspace	n/a
32.038	0.21	64076	keystroke_a	a	n/a
32.398	0.225	64796	keystroke_n	n	n/a
32.818	0.18	65636	keystroke_Key.space	Key.space	n/a
33.178	0.105	66356	keystroke_e	e	n/a
33.553	0.195	67106	keystroke_x	x	n/a
35.3685	0.15	70737	keystroke_Key.backspace	Key.backspace	n/a
35.6385	0.105	71277	keystroke_Key.backspace	Key.backspace	n/a
37.2575	0.12	74515	keystroke_Key.space	Key.space	n/a
37.8275	0.135	75655	keystroke_Key.backspace	Key.backspace	n/a
37.9485	0.225	75897	keystroke_e	e	n/a
38.5175	0.196	77035	keystroke_x	x	n/a
39.0135	0.209	78027	keystroke_h	h	n/a
39.5225	0.15	79045	keystroke_Key.backspace	Key.backspace	n/a
39.6585	0.225	79317	keystroke_c	c	n/a
39.9585	0.21	79917	keystroke_h	h	n/a
40.1535	0.24	80307	keystroke_a	a	n/a
40.4385	0.24	80877	keystroke_n	n	n/a
40.6185	0.24	81237	keystroke_g	g	n/a
40.8875	0.271	81775	keystroke_e	e	n/a
41.0835	0.195	82167	keystroke_s	s	n/a
41.3975	0.256	82795	keystroke_Key.space	Key.space	n/a
41.6975	0.301	83395	keystroke_t	t	n/a
41.9385	0.18	83877	keystroke_a	a	n/a
42.3135	0.165	84627	keystroke_x	x	n/a
42.5235	0.225	85047	keystroke_a	a	n/a
42.7635	0.225	85527	keystroke_t	t	n/a
42.9735	0.21	85947	keystroke_i	i	n/a
43.1235	0.315	86247	keystroke_o	o	n/a
43.2735	0.255	86547	keystroke_n	n	n/a
43.5135	0.224	87027	keystroke_Key.space	Key.space	n/a
43.7535	0.18	87507	keystroke_g	g	n/a
44.0985	0.3	88197	keystroke_r	r	n/a
44.4135	0.195	88827	keystroke_a	a	n/a
44.5485	0.315	89097	keystroke_i	i	n/a
44.6385	0.255	89277	keystroke_n	n	n/a
45.1035	0.21	90207	keystroke_Key.enter	Key.enter	n/a
45.3215	8.1385	90643	prompt	n/a	quite bond destiny strain\n
46.2285	0.195	92457	keystroke_q	q	n/a
46.3635	0.255	92727	keystroke_u	u	n/a
46.5285	0.27	93057	keystroke_i	i	n/a
46.6635	0.3	93327	keystroke_t	t	n/a
46.8585	0.225	93717	keystroke_e	e	n/a
47.1285	0.165	94257	keystroke_Key.space	Key.space	n/a
47.5335	0.225	95067	keystroke_b	b	n/a
47.7735	0.375	95547	keystroke_o	o	n/a
48.0135	0.195	96027	keystroke_n	n	n/a
48.1935	0.18	96387	keystroke_d	d	n/a
48.4625	0.2255	96925	keystroke_Key.space	Key.space	n/a
49.033	0.135	98066	keystroke_d	d	n/a
49.453	0.195	98906	keystroke_e	e	n/a
49.588	0.18	99176	keystroke_s	s	n/a
50.068	0.195	100136	keystroke_t	t	n/a
50.264	0.314	100528	keystroke_i	i	n/a
50.458	0.21	100916	keystroke_n	n	n/a
50.938	0.195	101876	keystroke_y	y	n/a
51.433	0.21	102866	keystroke_Key.space	Key.space	n/a
51.673	0.21	103346	keystroke_s	s	n/a
51.868	0.195	103736	keystroke_t	t	n/a
52.198	0.225	104396	keystroke_r	r	n/a
52.393	0.195	104786	keystroke_a	a	n/a
52.618	0.3	105236	keystroke_i	i	n/a
52.813	0.21	105626	keystroke_n	n	n/a
53.278	0.1805	106556	keystroke_Key.enter	Key.enter	n/a
53.4655	20.5005	106931	prompt	n/a	really separated windsor belief\n
54.3135	0.21	108627	keystroke_r	r	n/a
54.4185	0.18	108837	keystroke_e	e	n/a
54.5835	0.195	109167	keystroke_a	a	n/a
54.6135	0.165	109227	keystroke_l	l	n/a
54.8685	0.21	109737	keystroke_l	l	n/a
55.1835	0.21	110367	keystroke_y	y	n/a
55.3935	0.18	110787	keystroke_Key.space	Key.space	n/a
55.7685	0.18	111537	keystroke_s	s	n/a
56.0685	0.195	112137	keystroke_e	e	n/a
56.4435	0.27	112887	keystroke_p	p	n/a
56.5935	0.165	113187	keystroke_e	e	n/a
56.7285	0.285	113457	keystroke_r	r	n/a
57.0285	0.225	114057	keystroke_a	a	n/a
57.2685	0.21	114537	keystroke_t	t	n/a
57.4335	0.21	114867	keystroke_e	e	n/a
57.8235	0.15	115647	keystroke_d	d	n/a
57.9285	0.225	115857	keystroke_Key.space	Key.space	n/a
58.1685	0.18	116337	keystroke_w	w	n/a
58.3635	0.3	116727	keystroke_i	i	n/a
58.5285	0.21	117057	keystroke_n	n	n/a
58.6485	0.18	117297	keystroke_d	d	n/a
58.9485	0.255	117897	keystroke_o	o	n/a
59.1885	0.255	118377	keystroke_r	r	n/a
59.7135	0.09	119427	keystroke_Key.backspace	Key.backspace	n/a
59.9235	0.06	119847	keystroke_Key.backspace	Key.backspace	n/a
60.0885	0.105	120177	keystroke_Key.backspace	Key.backspace	n/a
60.3135	0.075	120627	keystroke_Key.backspace	Key.backspace	n/a
60.4785	0.075	120957	keystroke_Key.backspace	Key.backspace	n/a
60.8385	0.12	121677	keystroke_Key.backspace	Key.backspace	n/a
61.1685	0.12	122337	keystroke_Key.backspace	Key.backspace	n/a
61.4235	0.06	122847	keystroke_Key.backspace	Key.backspace	n/a
61.7535	0.075	123507	keystroke_Key.backspace	Key.backspace	n/a
61.9335	0.105	123867	keystroke_Key.backspace	Key.backspace	n/a
62.3085	0.15	124617	keystroke_Key.backspace	Key.backspace	n/a
62.6685	0.135	125337	keystroke_Key.backspace	Key.backspace	n/a
63.1485	0.135	126297	keystroke_Key.backspace	Key.backspace	n/a
63.4635	0.285	126927	keystroke_a	a	n/a
63.7185	0.24	127437	keystroke_r	r	n/a
64.0035	0.225	128007	keystroke_a	a	n/a
64.2135	0.225	128427	keystroke_t	t	n/a
64.3935	0.18	128787	keystroke_e	e	n/a
64.7385	0.165	129477	keystroke_d	d	n/a
64.9335	0.255	129867	keystroke_Key.space	Key.space	n/a
65.2035	0.195	130407	keystroke_w	w	n/a
65.3835	0.3	130767	keystroke_i	i	n/a
65.5335	0.195	131067	keystroke_n	n	n/a
65.7135	0.18	131427	keystroke_d	d	n/a
66.1635	0.15	132327	keystroke_s	s	n/a
66.3735	0.24	132747	keystroke_o	o	n/a
66.6285	0.165	133257	keystroke_r	r	n/a
67.6935	0.15	135387	keystroke_Key.space	Key.space	n/a
68.0685	0.195	136137	keystroke_b	b	n/a
68.2185	0.18	136437	keystroke_e	e	n/a
68.4735	0.255	136947	keystroke_l	l	n/a
68.5185	0.315	137037	keystroke_i	i	n/a
69.2985	0.24	138597	keystroke_f	f	n/a
69.7935	0.21	139587	keystroke_t	t	n/a
70.2735	0.12	140547	keystroke_Key.backspace	Key.backspace	n/a
70.4985	0.18	140997	keystroke_Key.backspace	Key.backspace	n/a
70.8585	0.135	141717	keystroke_Key.backspace	Key.backspace	n/a
71.0985	0.21	142197	keystroke_e	e	n/a
72.0285	0.105	144057	keystroke_Key.backspace	Key.backspace	n/a
72.4185	0.225	144837	keystroke_i	i	n/a
72.5835	0.21	145167	keystroke_e	e	n/a
72.8385	0.15	145677	keystroke_f	f	n/a
73.7835	0.18	147567	keystroke_Key.enter	Key.enter	n/a
73.974	14.768	147948	prompt	n/a	producer solely logitech servers\n
74.9385	0.21	149877	keystroke_p	p	n/a
75.0735	0.195	150147	keystroke_r	r	n/a
75.2835	0.27	150567	keystroke_o	o	n/a
75.4635	0.165	150927	keystroke_d	d	n/a
75.7635	0.225	151527	keystroke_u	u	n/a
75.9585	0.195	151917	keystroke_c	c	n/a
76.2135	0.225	152427	keystroke_e	e	n/a
76.3635	0.18	152727	keystroke_r	r	n/a
76.5735	0.27	153147	keystroke_Key.space	Key.space	n/a
76.8585	0.135	153717	keystroke_s	s	n/a
76.9485	0.15	153897	keystroke_o	o	n/a
77.2185	0.195	154437	keystroke_l	l	n/a
77.3535	0.165	154707	keystroke_e	e	n/a
78.0585	0.195	156117	keystroke_y	y	n/a
78.5835	0.12	157167	keystroke_Key.backspace	Key.backspace	n/a
78.9735	0.225	157947	keystroke_l	l	n/a
79.3185	0.225	158637	keystroke_y	y	n/a
79.5585	0.21	159117	keystroke_Key.space	Key.space	n/a
79.8285	0.165	159657	keystroke_l	l	n/a
80.1135	0.27	160227	keystroke_o	o	n/a
80.3535	0.15	160707	keystroke_g	g	n/a
80.8935	0.195	161787	keystroke_i	i	n/a
81.2385	0.181	162477	keystroke_t	t	n/a
82.1985	0.165	164397	keystroke_e	e	n/a
82.5435	0.195	165087	keystroke_c	c	n/a
82.7395	0.224	165479	keystroke_h	h	n/a
83.1135	0.21	166227	keystroke_Key.space	Key.space	n/a
84.6585	0.255	169317	keystroke_s	s	n/a
84.8985	0.21	169797	keystroke_e	e	n/a
85.0335	0.165	170067	keystroke_r	r	n/a
85.4685	0.12	170937	keystroke_v	v	n/a
85.6185	0.256	171237	keystroke_e	e	n/a
85.8435	0.225	171687	keystroke_r	r	n/a
85.9935	0.195	171987	keystroke_e	e	n/a
86.1435	0.165	172287	keystroke_s	s	n/a
87.0435	0.165	174087	keystroke_Key.backspace	Key.backspace	n/a
87.2235	0.15	174447	keystroke_Key.backspace	Key.backspace	n/a
87.4185	0.18	174837	keystroke_s	s	n/a
88.529	0.21	177058	keystroke_Key.enter	Key.enter	n/a
88.748	8.124	177496	prompt	n/a	rise plenty we'll shared\n
89.744	0.24	179488	keystroke_r	r	n/a
89.999	0.24	179998	keystroke_i	i	n/a
90.194	0.225	180388	keystroke_s	s	n/a
90.329	0.21	180658	keystroke_e	e	n/a
90.509	0.21	181018	keystroke_Key.space	Key.space	n/a
90.899	0.165	181798	keystroke_p	p	n/a
91.214	0.255	182428	keystroke_l	l	n/a
91.379	0.18	182758	keystroke_e	e	n/a
91.649	0.24	183298	keystroke_n	n	n/a
91.874	0.195	183748	keystroke_t	t	n/a
92.609	0.21	185218	keystroke_y	y	n/a
92.954	0.18	185908	keystroke_Key.space	Key.space	n/a
93.269	0.24	186538	keystroke_w	w	n/a
93.464	0.165	186928	keystroke_e	e	n/a
93.734	0.21	187468	keystroke_'	'	n/a
94.049	0.15	188098	keystroke_l	l	n/a
94.334	0.165	188668	keystroke_l	l	n/a
94.694	0.24	189388	keystroke_Key.space	Key.space	n/a
95.099	0.195	190198	keystroke_s	s	n/a
95.279	0.24	190558	keystroke_h	h	n/a
95.534	0.195	191068	keystroke_a	a	n/a
95.669	0.21	191338	keystroke_r	r	n/a
95.834	0.15	191668	keystroke_e	e	n/a
96.179	0.165	192358	keystroke_d	d	n/a
96.599	0.27	193198	keystroke_Key.enter	Key.enter	n/a
96.8795	15.5465	193759	prompt	n/a	delete signal independently counter\n
97.784	0.15	195568	keystroke_d	d	n/a
98.054	0.15	196108	keystroke_e	e	n/a
98.279	0.225	196558	keystroke_l	l	n/a
98.354	0.195	196708	keystroke_e	e	n/a
98.819	0.075	197638	keystroke_t	t	n/a
99.239	0.18	198478	keystroke_e	e	n/a
99.584	0.225	199168	keystroke_Key.space	Key.space	n/a
99.794	0.195	199588	keystroke_s	s	n/a
99.929	0.225	199858	keystroke_i	i	n/a
100.169	0.165	200338	keystroke_g	g	n/a
100.379	0.225	200758	keystroke_n	n	n/a
100.619	0.165	201238	keystroke_a	a	n/a
100.769	0.225	201538	keystroke_l	l	n/a
101.054	0.18	202108	keystroke_Key.space	Key.space	n/a
101.339	0.285	202678	keystroke_i	i	n/a
101.459	0.21	202918	keystroke_n	n	n/a
101.609	0.12	203218	keystroke_d	d	n/a
101.849	0.18	203698	keystroke_e	e	n/a
102.074	0.255	204148	keystroke_p	p	n/a
102.254	0.195	204508	keystroke_e	e	n/a
102.464	0.24	204928	keystroke_n	n	n/a
102.734	0.195	205468	keystroke_t	t	n/a
102.884	0.165	205768	keystroke_e	e	n/a
103.709	0.135	207418	keystroke_Key.backspace	Key.backspace	n/a
103.949	0.12	207898	keystroke_Key.backspace	Key.backspace	n/a
104.204	0.12	208408	keystroke_d	d	n/a
104.654	0.135	209308	keystroke_Key.backspace	Key.backspace	n/a
104.819	0.195	209638	keystroke_e	e	n/a
105.314	0.165	210628	keystroke_m	m	n/a
105.794	0.12	211588	keystroke_Key.backspace	Key.backspace	n/a
106.004	0.105	212008	keystroke_Key.backspace	Key.backspace	n/a
106.454	0.15	212908	keystroke_d	d	n/a
106.739	0.195	213478	keystroke_e	e	n/a
107.024	0.225	214048	keystroke_n	n	n/a
107.04	0.089	214080	keystroke_m	m	n/a
107.669	0.21	215338	keystroke_Key.backspace	Key.backspace	n/a
108.584	0.195	217168	keystroke_t	t	n/a
109.154	0.255	218308	keystroke_l	l	n/a
109.634	0.225	219268	keystroke_y	y	n/a
110.069	0.18	220138	keystroke_Key.space	Key.space	n/a
110.804	0.21	221608	keystroke_c	c	n/a
110.924	0.3	221848	keystroke_o	o	n/a
111.089	0.18	222178	keystroke_u	u	n/a
111.449	0.195	222898	keystroke_n	n	n/a
111.629	0.24	223258	keystroke_t	t	n/a
111.899	0.195	223798	keystroke_e	e	n/a
112.064	0.15	224128	keystroke_r	r	n/a
112.199	0.225	224398	keystroke_Key.enter	Key.enter	n/a
112.432	10.224	224864	prompt	n/a	billy cookbook territories weights\n
113.699	0.225	227398	keystroke_b	b	n/a
113.984	0.2845	227968	keystroke_i	i	n/a
114.209	0.1345	228418	keystroke_l	l	n/a
114.4335	0.18	228867	keystroke_l	l	n/a
114.8685	0.165	229737	keystroke_y	y	n/a
115.1235	0.18	230247	keystroke_Key.space	Key.space	n/a
115.3935	0.151	230787	keystroke_c	c	n/a
115.5445	0.134	231089	keystroke_o	o	n/a
115.7995	0.149	231599	keystroke_o	o	n/a
116.2635	0.1645	232527	keystroke_k	k	n/a
116.7745	0.24	233549	keystroke_b	b	n/a
116.9995	0.1345	233999	keystroke_o	o	n/a
117.209	0.2405	234418	keystroke_o	o	n/a
117.419	0.209	234838	keystroke_k	k	n/a
117.959	0.179	235918	keystroke_Key.space	Key.space	n/a
118.289	0.2255	236578	keystroke_t	t	n/a
118.499	0.2105	236998	keystroke_e	e	n/a
118.694	0.149	237388	keystroke_r	r	n/a
118.949	0.18	237898	keystroke_r	r	n/a
119.249	0.195	238498	keystroke_i	i	n/a
119.4145	0.1945	238829	keystroke_t	t	n/a
119.624	0.24	239248	keystroke_o	o	n/a
119.864	0.165	239728	keystroke_r	r	n/a
120.089	0.285	240178	keystroke_i	i	n/a
120.299	0.225	240598	keystroke_e	e	n/a
120.479	0.165	240958	keystroke_s	s	n/a
120.763	0.21	241526	keystroke_Key.space	Key.space	n/a
121.079	0.179	242158	keystroke_w	w	n/a
121.214	0.18	242428	keystroke_e	e	n/a
121.408	0.226	242816	keystroke_i	i	n/a
121.634	0.179	243268	keystroke_g	g	n/a
121.874	0.24	243748	keystroke_h	h	n/a
122.054	0.195	244108	keystroke_t	t	n/a
122.174	0.165	244348	keystroke_s	s	n/a
122.474	0.18	244948	keystroke_Key.enter	Key.enter	n/a
122.6615	9.219	245323	prompt	n/a	classes farming shapes identifying\n
123.509	0.165	247018	keystroke_c	c	n/a
123.689	0.21	247378	keystroke_l	l	n/a
123.914	0.225	247828	keystroke_a	a	n/a
124.094	0.15	248188	keystroke_s	s	n/a
124.349	0.165	248698	keystroke_s	s	n/a
124.649	0.21	249298	keystroke_e	e	n/a
124.814	0.15	249628	keystroke_s	s	n/a
125.084	0.24	250168	keystroke_Key.space	Key.space	n/a
125.294	0.255	250588	keystroke_f	f	n/a
125.504	0.24	251008	keystroke_a	a	n/a
125.714	0.18	251428	keystroke_r	r	n/a
125.864	0.195	251728	keystroke_m	m	n/a
126.149	0.33	252298	keystroke_i	i	n/a
126.314	0.21	252628	keystroke_n	n	n/a
126.539	0.195	253078	keystroke_g	g	n/a
126.749	0.195	253498	keystroke_Key.space	Key.space	n/a
126.899	0.18	253798	keystroke_s	s	n/a
127.094	0.255	254188	keystroke_h	h	n/a
127.364	0.18	254728	keystroke_a	a	n/a
127.574	0.27	255148	keystroke_p	p	n/a
127.769	0.21	255538	keystroke_e	e	n/a
127.934	0.12	255868	keystroke_s	s	n/a
128.114	0.165	256228	keystroke_Key.space	Key.space	n/a
128.444	0.195	256888	keystroke_i	i	n/a
128.684	0.165	257368	keystroke_d	d	n/a
129.509	0.165	259018	keystroke_e	e	n/a
129.644	0.195	259288	keystroke_n	n	n/a
129.914	0.195	259828	keystroke_t	t	n/a
130.139	0.21	260278	keystroke_i	i	n/a
130.379	0.1795	260758	keystroke_f	f	n/a
130.6935	0.21	261387	keystroke_y	y	n/a
130.9785	0.33	261957	keystroke_i	i	n/a
131.1585	0.21	262317	keystroke_n	n	n/a
131.3835	0.195	262767	keystroke_g	g	n/a
131.6985	0.18	263397	keystroke_Key.enter	Key.enter	n/a
131.8865	8.7845	263773	prompt	n/a	company relax he'd shooting\n
132.7335	0.165	265467	keystroke_c	c	n/a
132.8535	0.2705	265707	keystroke_o	o	n/a
132.9885	0.1955	265977	keystroke_m	m	n/a
133.259	0.225	266518	keystroke_p	p	n/a
133.424	0.165	266848	keystroke_a	a	n/a
133.664	0.18	267328	keystroke_n	n	n/a
134.084	0.195	268168	keystroke_y	y	n/a
134.324	0.21	268648	keystroke_Key.space	Key.space	n/a
134.549	0.24	269098	keystroke_r	r	n/a
134.819	0.21	269638	keystroke_l	l	n/a
135.014	0.24	270028	keystroke_e	e	n/a
135.539	0.105	271078	keystroke_Key.backspace	Key.backspace	n/a
135.764	0.075	271528	keystroke_Key.backspace	Key.backspace	n/a
135.869	0.27	271738	keystroke_e	e	n/a
136.319	0.165	272638	keystroke_l	l	n/a
136.529	0.165	273058	keystroke_a	a	n/a
136.904	0.21	273808	keystroke_x	x	n/a
137.204	0.21	274408	keystroke_Key.space	Key.space	n/a
137.714	0.27	275428	keystroke_h	h	n/a
137.849	0.165	275698	keystroke_e	e	n/a
138.119	0.225	276238	keystroke_'	'	n/a
138.269	0.195	276538	keystroke_d	d	n/a
138.524	0.21	277048	keystroke_Key.space	Key.space	n/a
138.764	0.195	277528	keystroke_s	s	n/a
138.974	0.21	277948	keystroke_h	h	n/a
139.169	0.105	278338	keystroke_o	o	n/a
139.364	0.21	278728	keystroke_o	o	n/a
139.559	0.15	279118	keystroke_t	t	n/a
139.814	0.33	279628	keystroke_i	i	n/a
139.979	0.195	279958	keystroke_n	n	n/a
140.129	0.18	280258	keystroke_g	g	n/a
140.474	0.195	280948	keystroke_Key.enter	Key.enter	n/a
140.6765	9.4445	281353	prompt	n/a	window ridge studios furnishings\n
141.434	0.1955	282868	keystroke_w	w	n/a
141.539	0.255	283078	keystroke_i	i	n/a
141.704	0.21	283408	keystroke_n	n	n/a
141.944	0.165	283888	keystroke_d	d	n/a
142.139	0.225	284278	keystroke_o	o	n/a
142.319	0.18	284638	keystroke_w	w	n/a
142.649	0.195	285298	keystroke_Key.space	Key.space	n/a
142.874	0.18	285748	keystroke_r	r	n/a
143.354	0.21	286708	keystroke_i	i	n/a
143.534	0.21	287068	keystroke_d	d	n/a
143.894	0.225	287788	keystroke_g	g	n/a
144.134	0.195	288268	keystroke_e	e	n/a
144.344	0.24	288688	keystroke_Key.space	Key.space	n/a
144.599	0.225	289198	keystroke_s	s	n/a
144.809	0.15	289618	keystroke_t	t	n/a
145.064	0.21	290128	keystroke_u	u	n/a
145.304	0.15	290608	keystroke_d	d	n/a
145.499	0.24	290998	keystroke_i	i	n/a
145.769	0.21	291538	keystroke_o	o	n/a
145.994	0.21	291988	keystroke_s	s	n/a
146.309	0.225	292618	keystroke_Key.space	Key.space	n/a
146.894	0.195	293788	keystroke_f	f	n/a
147.209	0.165	294418	keystroke_u	u	n/a
147.599	0.18	295198	keystroke_r	r	n/a
148.034	0.255	296068	keystroke_n	n	n/a
148.319	0.24	296638	keystroke_i	i	n/a
148.514	0.195	297028	keystroke_s	s	n/a
148.709	0.255	297418	keystroke_h	h	n/a
148.949	0.315	297898	keystroke_i	i	n/a
149.114	0.225	298228	keystroke_n	n	n/a
149.309	0.255	298618	keystroke_g	g	n/a
149.534	0.15	299068	keystroke_s	s	n/a
149.909	0.21	299818	keystroke_Key.enter	Key.enter	n/a
150.1275	9.214	300255	prompt	n/a	atomic nuclear grew reid\n
150.854	0.225	301708	keystroke_a	a	n/a
151.094	0.195	302188	keystroke_t	t	n/a
151.229	0.225	302458	keystroke_o	o	n/a
151.379	0.285	302758	keystroke_m	m	n/a
151.589	0.255	303178	keystroke_i	i	n/a
151.769	0.18	303538	keystroke_c	c	n/a
152.084	0.21	304168	keystroke_Key.space	Key.space	n/a
152.444	0.15	304888	keystroke_n	n	n/a
152.759	0.225	305518	keystroke_u	u	n/a
152.999	0.18	305998	keystroke_c	c	n/a
153.209	0.255	306418	keystroke_l	l	n/a
153.434	0.255	306868	keystroke_e	e	n/a
153.704	0.27	307408	keystroke_a	a	n/a
153.944	0.21	307888	keystroke_r	r	n/a
154.274	0.225	308548	keystroke_Key.space	Key.space	n/a
155.8945	0.1645	311789	keystroke_g	g	n/a
156.224	0.2395	312448	keystroke_r	r	n/a
156.3735	0.21	312747	keystroke_e	e	n/a
156.5385	0.1345	313077	keystroke_w	w	n/a
156.688	0.239	313376	keystroke_Key.space	Key.space	n/a
157.0025	0.21	314005	keystroke_r	r	n/a
157.1225	0.1945	314245	keystroke_e	e	n/a
157.542	0.1345	315084	keystroke_d	d	n/a
158.111	0.119	316222	keystroke_Key.backspace	Key.backspace	n/a
158.5305	0.2245	317061	keystroke_i	i	n/a
158.71	0.1655	317420	keystroke_d	d	n/a
159.145	0.1945	318290	keystroke_Key.enter	Key.enter	n/a
159.3475	9.1725	318695	prompt	n/a	searched colon lucky creates\n
160.2085	0.135	320417	keystroke_r	r	n/a
160.672	0.105	321344	keystroke_Key.backspace	Key.backspace	n/a
160.8835	0.2245	321767	keystroke_s	s	n/a
161.048	0.21	322096	keystroke_e	e	n/a
161.273	0.24	322546	keystroke_a	a	n/a
161.468	0.1645	322936	keystroke_r	r	n/a
161.873	0.195	323746	keystroke_c	c	n/a
162.053	0.1945	324106	keystroke_h	h	n/a
162.1875	0.1955	324375	keystroke_e	e	n/a
162.548	0.2245	325096	keystroke_d	d	n/a
162.727	0.271	325454	keystroke_Key.space	Key.space	n/a
163.163	0.225	326326	keystroke_c	c	n/a
163.3725	0.3155	326745	keystroke_o	o	n/a
163.597	0.211	327194	keystroke_n	n	n/a
163.973	0.195	327946	keystroke_Key.space	Key.space	n/a
164.453	0.2845	328906	keystroke_l	l	n/a
164.6925	0.1955	329385	keystroke_u	u	n/a
165.443	0.195	330886	keystroke_c	c	n/a
165.638	0.2245	331276	keystroke_k	k	n/a
166.148	0.195	332296	keystroke_y	y	n/a
166.3885	0.2095	332777	keystroke_Key.space	Key.space	n/a
166.583	0.165	333166	keystroke_c	c	n/a
166.898	0.2395	333796	keystroke_r	r	n/a
167.033	0.269	334066	keystroke_e	e	n/a
167.287	0.2405	334574	keystroke_a	a	n/a
167.5425	0.2545	335085	keystroke_t	t	n/a
167.767	0.1805	335534	keystroke_e	e	n/a
167.8875	0.135	335775	keystroke_s	s	n/a
168.307	0.2105	336614	keystroke_Key.enter	Key.enter	n/a
168.526	12.6545	337052	prompt	n/a	andrews promises hartford scripts\n
169.2375	0.165	338475	keystroke_a	a	n/a
169.4775	0.255	338955	keystroke_n	n	n/a
169.6125	0.2095	339225	keystroke_d	d	n/a
170.0925	0.2695	340185	keystroke_r	r	n/a
170.257	0.1955	340514	keystroke_e	e	n/a
170.392	0.1805	340784	keystroke_w	w	n/a
170.7225	0.1645	341445	keystroke_s	s	n/a
170.872	0.2255	341744	keystroke_Key.space	Key.space	n/a
171.2775	0.225	342555	keystroke_p	p	n/a
171.4725	0.21	342945	keystroke_r	r	n/a
171.6675	0.315	343335	keystroke_o	o	n/a
171.9075	0.36	343815	keystroke_m	m	n/a
173.3175	0.165	346635	keystroke_i	i	n/a
173.5575	0.2245	347115	keystroke_s	s	n/a
173.842	0.2555	347684	keystroke_e	e	n/a
174.0225	0.2095	348045	keystroke_s	s	n/a
174.307	0.2105	348614	keystroke_Key.space	Key.space	n/a
174.7275	0.2705	349455	keystroke_h	h	n/a
174.862	0.2855	349724	keystroke_a	a	n/a
175.0725	0.165	350145	keystroke_r	r	n/a
176.2425	0.165	352485	keystroke_t	t	n/a
176.918	0.225	353836	keystroke_f	f	n/a
177.233	0.2545	354466	keystroke_o	o	n/a
177.4125	0.1805	354825	keystroke_r	r	n/a
177.773	0.195	355546	keystroke_d	d	n/a
178.0135	0.224	356027	keystroke_Key.space	Key.space	n/a
178.2685	0.179	356537	keystroke_s	s	n/a
178.583	0.2095	357166	keystroke_c	c	n/a
178.8225	0.2865	357645	keystroke_i	i	n/a
179.423	0.241	358846	keystroke_p	p	n/a
179.9175	0.285	359835	keystroke_t	t	n/a
180.2175	0.15	360435	keystroke_s	s	n/a
180.9375	0.24	361875	keystroke_Key.enter	Key.enter	n/a
181.1865	31.3145	362373	prompt	n/a	veteran mating participate leather\n
182.1085	0.194	364217	keystroke_v	v	n/a
182.3175	0.225	364635	keystroke_e	e	n/a
182.497	0.2565	364994	keystroke_r	r	n/a
183.1425	0.195	366285	keystroke_t	t	n/a
183.3395	0.2235	366679	keystroke_e	e	n/a
183.968	0.1205	367936	keystroke_Key.backspace	Key.backspace	n/a
184.1925	0.15	368385	keystroke_Key.backspace	Key.backspace	n/a
184.4185	0.225	368837	keystroke_e	e	n/a
184.5985	0.194	369197	keystroke_r	r	n/a
185.4835	0.2255	370967	keystroke_a	a	n/a
185.7525	0.195	371505	keystroke_n	n	n/a
186.203	0.1345	372406	keystroke_Key.backspace	Key.backspace	n/a
186.4125	0.075	372825	keystroke_Key.backspace	Key.backspace	n/a
186.8775	0.1365	373755	keystroke_Key.backspace	Key.backspace	n/a
187.628	0.1495	375256	keystroke_Key.backspace	Key.backspace	n/a
188.169	0.2235	376338	keystroke_t	t	n/a
188.588	0.1345	377176	keystroke_Key.backspace	Key.backspace	n/a
188.8125	0.12	377625	keystroke_Key.backspace	Key.backspace	n/a
188.9635	0.211	377927	keystroke_t	t	n/a
189.788	0.21	379576	keystroke_e	e	n/a
189.953	0.27	379906	keystroke_r	r	n/a
190.163	0.24	380326	keystroke_a	a	n/a
190.433	0.2405	380866	keystroke_n	n	n/a
190.733	0.18	381466	keystroke_Key.space	Key.space	n/a
191.0185	0.2395	382037	keystroke_m	m	n/a
191.1835	0.2095	382367	keystroke_a	a	n/a
191.408	0.18	382816	keystroke_t	t	n/a
191.558	0.315	383116	keystroke_i	i	n/a
191.693	0.24	383386	keystroke_n	n	n/a
191.903	0.225	383806	keystroke_g	g	n/a
192.068	0.195	384136	keystroke_Key.space	Key.space	n/a
192.488	0.27	384976	keystroke_p	p	n/a
192.623	0.21	385246	keystroke_a	a	n/a
192.788	0.18	385576	keystroke_r	r	n/a
193.148	0.255	386296	keystroke_i	i	n/a
193.568	0.195	387136	keystroke_c	c	n/a
193.823	0.3	387646	keystroke_i	i	n/a
194.453	0.12	388906	keystroke_Key.backspace	Key.backspace	n/a
194.678	0.09	389356	keystroke_Key.backspace	Key.backspace	n/a
194.888	0.12	389776	keystroke_Key.backspace	Key.backspace	n/a
195.293	0.1645	390586	keystroke_Key.backspace	Key.backspace	n/a
196.028	0.225	392056	keystroke_t	t	n/a
196.4475	0.2405	392895	keystroke_i	i	n/a
197.588	0.195	395176	keystroke_c	c	n/a
197.708	0.255	395416	keystroke_i	i	n/a
198.053	0.3	396106	keystroke_p	p	n/a
198.263	0.225	396526	keystroke_a	a	n/a
198.503	0.225	397006	keystroke_t	t	n/a
198.668	0.21	397336	keystroke_e	e	n/a
198.908	0.21	397816	keystroke_Key.space	Key.space	n/a
199.298	0.3	398596	keystroke_l	l	n/a
199.703	0.285	399406	keystroke_e	e	n/a
200.003	0.196	400006	keystroke_a	a	n/a
200.303	0.18	400606	keystroke_h	h	n/a
200.798	0.135	401596	keystroke_Key.backspace	Key.backspace	n/a
201.068	0.075	402136	keystroke_Key.backspace	Key.backspace	n/a
201.203	0.12	402406	keystroke_Key.backspace	Key.backspace	n/a
201.443	0.09	402886	keystroke_Key.backspace	Key.backspace	n/a
201.623	0.105	403246	keystroke_Key.backspace	Key.backspace	n/a
201.758	0.135	403516	keystroke_Key.backspace	Key.backspace	n/a
201.998	0.105	403996	keystroke_Key.backspace	Key.backspace	n/a
202.208	0.045	404416	keystroke_Key.backspace	Key.backspace	n/a
202.373	0.12	404746	keystroke_Key.backspace	Key.backspace	n/a
202.523	0.15	405046	keystroke_Key.backspace	Key.backspace	n/a
202.943	0.24	405886	keystroke_Key.backspace	Key.backspace	n/a
203.498	0.315	406996	keystroke_Key.backspace	Key.backspace	n/a
203.933	0.135	407866	keystroke_Key.backspace	Key.backspace	n/a
204.308	0.27	408616	keystroke_r	r	n/a
204.864	0.179	409728	keystroke_t	t	n/a
205.253	0.225	410506	keystroke_i	i	n/a
205.553	0.195	411106	keystroke_c	c	n/a
205.733	0.24	411466	keystroke_i	i	n/a
206.543	0.255	413086	keystroke_p	p	n/a
206.813	0.2255	413626	keystroke_a	a	n/a
207.0835	0.21	414167	keystroke_t	t	n/a
207.2485	0.18	414497	keystroke_e	e	n/a
207.4735	0.21	414947	keystroke_Key.space	Key.space	n/a
208.0285	0.27	416057	keystroke_l	l	n/a
208.1635	0.225	416327	keystroke_e	e	n/a
208.3735	0.18	416747	keystroke_a	a	n/a
208.4035	0.015	416807	keystroke_l	l	n/a
208.5385	0.18	417077	keystroke_t	t	n/a
208.6885	0.195	417377	keystroke_h	h	n/a
208.9135	0.225	417827	keystroke_e	e	n/a
209.0935	0.15	418187	keystroke_r	r	n/a
209.4235	0.12	418847	keystroke_Key.backspace	Key.backspace	n/a
209.6635	0.075	419327	keystroke_Key.backspace	Key.backspace	n/a
209.903	0.075	419806	keystroke_Key.backspace	Key.backspace	n/a
210.1135	0.12	420227	keystroke_Key.backspace	Key.backspace	n/a
210.3685	0.09	420737	keystroke_Key.backspace	Key.backspace	n/a
211.1785	0.21	422357	keystroke_t	t	n/a
211.5085	0.21	423017	keystroke_h	h	n/a
211.6735	0.165	423347	keystroke_e	e	n/a
211.7935	0.165	423587	keystroke_r	r	n/a
212.2585	0.24	424517	keystroke_Key.enter	Key.enter	n/a
212.507	24.1585	425014	prompt	n/a	reload astrology terminology travelers\n
213.428	0.1955	426856	keystroke_r	r	n/a
213.488	0.2405	426976	keystroke_e	e	n/a
213.8035	0.225	427607	keystroke_l	l	n/a
214.1185	0.27	428237	keystroke_o	o	n/a
214.3285	0.195	428657	keystroke_a	a	n/a
214.6435	0.195	429287	keystroke_d	d	n/a
215.2735	0.1795	430547	keystroke_Key.space	Key.space	n/a
215.5285	0.255	431057	keystroke_a	a	n/a
215.7385	0.21	431477	keystroke_s	s	n/a
216.0535	0.165	432107	keystroke_t	t	n/a
216.398	0.2105	432796	keystroke_r	r	n/a
216.5635	0.27	433127	keystroke_o	o	n/a
216.8185	0.165	433637	keystroke_n	n	n/a
217.3285	0.135	434657	keystroke_Key.backspace	Key.backspace	n/a
217.7335	0.165	435467	keystroke_l	l	n/a
218.0335	0.18	436067	keystroke_o	o	n/a
218.2585	0.21	436517	keystroke_g	g	n/a
218.4235	0.1805	436847	keystroke_l	l	n/a
218.9035	0.15	437807	keystroke_Key.backspace	Key.backspace	n/a
220.8085	0.21	441617	keystroke_y	y	n/a
221.2135	0.225	442427	keystroke_Key.space	Key.space	n/a
221.9035	0.24	443807	keystroke_t	t	n/a
222.1285	0.195	444257	keystroke_e	e	n/a
222.2635	0.2245	444527	keystroke_r	r	n/a
222.4135	0.2095	444827	keystroke_m	m	n/a
222.608	0.315	445216	keystroke_i	i	n/a
222.7885	0.2245	445577	keystroke_n	n	n/a
223.2535	0.195	446507	keystroke_i	i	n/a
223.7635	0.24	447527	keystroke_n	n	n/a
223.9435	0.195	447887	keystroke_o	o	n/a
224.4385	0.15	448877	keystroke_l	l	n/a
224.7385	0.225	449477	keystroke_o	o	n/a
224.9185	0.195	449837	keystroke_g	g	n/a
225.1585	0.18	450317	keystroke_y	y	n/a
225.6235	0.165	451247	keystroke_Key.space	Key.space	n/a
226.6585	0.135	453317	keystroke_Key.backspace	Key.backspace	n/a
226.9285	0.105	453857	keystroke_Key.backspace	Key.backspace	n/a
227.1385	0.18	454277	keystroke_Key.backspace	Key.backspace	n/a
227.7385	0.15	455477	keystroke_Key.backspace	Key.backspace	n/a
228.5785	0.15	457157	keystroke_Key.backspace	Key.backspace	n/a
229.7335	0.135	459467	keystroke_Key.backspace	Key.backspace	n/a
230.1385	0.165	460277	keystroke_Key.backspace	Key.backspace	n/a
230.4685	0.105	460937	keystroke_Key.backspace	Key.backspace	n/a
231.7885	0.195	463577	keystroke_o	o	n/a
232.0885	0.166	464177	keystroke_l	l	n/a
232.3885	0.195	464777	keystroke_o	o	n/a
232.6135	0.18	465227	keystroke_g	g	n/a
232.8085	0.18	465617	keystroke_y	y	n/a
233.1835	0.255	466367	keystroke_Key.space	Key.space	n/a
233.9485	0.151	467897	keystroke_t	t	n/a
234.2335	0.255	468467	keystroke_r	r	n/a
234.5035	0.225	469007	keystroke_a	a	n/a
234.9235	0.18	469847	keystroke_v	v	n/a
235.1185	0.195	470237	keystroke_e	e	n/a
235.3735	0.24	470747	keystroke_l	l	n/a
235.5535	0.225	471107	keystroke_e	e	n/a
235.6735	0.24	471347	keystroke_r	r	n/a
235.8535	0.165	471707	keystroke_s	s	n/a
236.3785	0.285	472757	keystroke_Key.enter	Key.enter	n/a
236.671	27.445	473342	prompt	n/a	advert competitors chess cooperative\n
237.3845	0.194	474769	keystroke_a	a	n/a
237.5935	0.165	475187	keystroke_d	d	n/a
238.0285	0.2095	476057	keystroke_v	v	n/a
238.284	0.195	476568	keystroke_e	e	n/a
238.434	0.209	476868	keystroke_r	r	n/a
238.808	0.285	477616	keystroke_Key.space	Key.space	n/a
239.648	0.1655	479296	keystroke_Key.backspace	Key.backspace	n/a
239.8295	0.194	479659	keystroke_t	t	n/a
240.1435	0.195	480287	keystroke_Key.space	Key.space	n/a
240.4895	0.21	480979	keystroke_c	c	n/a
240.6535	0.286	481307	keystroke_o	o	n/a
240.8195	0.299	481639	keystroke_m	m	n/a
241.1045	0.284	482209	keystroke_p	p	n/a
241.3145	0.21	482629	keystroke_t	t	n/a
241.4645	0.21	482929	keystroke_e	e	n/a
242.0035	0.18	484007	keystroke_i	i	n/a
242.1995	0.18	484399	keystroke_t	t	n/a
242.3635	0.255	484727	keystroke_o	o	n/a
242.5745	0.285	485149	keystroke_r	r	n/a
242.7685	0.151	485537	keystroke_s	s	n/a
243.1135	0.12	486227	keystroke_Key.backspace	Key.backspace	n/a
243.3535	0.075	486707	keystroke_Key.backspace	Key.backspace	n/a
243.5485	0.076	487097	keystroke_Key.backspace	Key.backspace	n/a
243.7735	0.09	487547	keystroke_Key.backspace	Key.backspace	n/a
244.0135	0.15	488027	keystroke_Key.backspace	Key.backspace	n/a
245.0485	0.165	490097	keystroke_Key.backspace	Key.backspace	n/a
245.7545	0.224	491509	keystroke_i	i	n/a
246.0695	0.225	492139	keystroke_t	t	n/a
247.3585	0.1965	494717	keystroke_o	o	n/a
247.5085	0.255	495017	keystroke_r	r	n/a
247.7045	0.165	495409	keystroke_s	s	n/a
248.1995	0.21	496399	keystroke_Key.space	Key.space	n/a
248.9335	0.15	497867	keystroke_Key.backspace	Key.backspace	n/a
249.3685	0.136	498737	keystroke_Key.backspace	Key.backspace	n/a
249.6385	0.271	499277	keystroke_Key.backspace	Key.backspace	n/a
250.0435	0.106	500087	keystroke_Key.backspace	Key.backspace	n/a
250.3295	0.149	500659	keystroke_Key.backspace	Key.backspace	n/a
250.5835	0.105	501167	keystroke_Key.backspace	Key.backspace	n/a
251.0495	0.15	502099	keystroke_Key.backspace	Key.backspace	n/a
251.5445	0.21	503089	keystroke_e	e	n/a
251.9495	0.18	503899	keystroke_t	t	n/a
252.4895	0.18	504979	keystroke_i	i	n/a
252.6995	0.18	505399	keystroke_t	t	n/a
252.9245	0.27	505849	keystroke_o	o	n/a
253.2995	0.225	506599	keystroke_r	r	n/a
253.4345	0.18	506869	keystroke_s	s	n/a
253.8685	0.256	507737	keystroke_Key.space	Key.space	n/a
254.5445	0.18	509089	keystroke_c	c	n/a
254.7545	0.18	509509	keystroke_h	h	n/a
254.8745	0.24	509749	keystroke_e	e	n/a
255.0545	0.135	510109	keystroke_s	s	n/a
255.3095	0.18	510619	keystroke_s	s	n/a
255.5495	0.24	511099	keystroke_Key.space	Key.space	n/a
256.1045	0.1795	512209	keystroke_c	c	n/a
256.2245	0.2245	512449	keystroke_o	o	n/a
256.644	0.2255	513288	keystroke_o	o	n/a
257.169	0.2405	514338	keystroke_p	p	n/a
257.4095	0.225	514819	keystroke_e	e	n/a
257.9945	0.135	515989	keystroke_r	r	n/a
258.6545	0.18	517309	keystroke_Key.backspace	Key.backspace	n/a
261.2375	0.132	522475	keystroke_Key.backspace	Key.backspace	n/a
262.0895	0.21	524179	keystroke_e	e	n/a
262.2845	0.165	524569	keystroke_r	r	n/a
262.7795	0.225	525559	keystroke_a	a	n/a
262.9895	0.15	525979	keystroke_t	t	n/a
263.1695	0.285	526339	keystroke_i	i	n/a
263.4395	0.21	526879	keystroke_v	v	n/a
263.6345	0.195	527269	keystroke_e	e	n/a
263.8895	0.225	527779	keystroke_Key.enter	Key.enter	n/a
264.1235	18.5935	528247	prompt	n/a	purse assistant acting hughes\n
264.9545	0.255	529909	keystroke_p	p	n/a
265.1795	0.195	530359	keystroke_u	u	n/a
265.4345	0.195	530869	keystroke_r	r	n/a
265.5545	0.225	531109	keystroke_s	s	n/a
265.7195	0.12	531439	keystroke_e	e	n/a
265.9745	0.2545	531949	keystroke_Key.space	Key.space	n/a
266.7995	0.3	533599	keystroke_a	a	n/a
267.0695	0.15	534139	keystroke_s	s	n/a
267.3395	0.165	534679	keystroke_s	s	n/a
267.6695	0.24	535339	keystroke_i	i	n/a
268.4645	0.135	536929	keystroke_s	s	n/a
268.7045	0.195	537409	keystroke_s	s	n/a
269.2745	0.135	538549	keystroke_t	t	n/a
269.4245	0.165	538849	keystroke_i	i	n/a
270.0845	0.165	540169	keystroke_Key.backspace	Key.backspace	n/a
270.3995	0.24	540799	keystroke_a	a	n/a
270.6695	0.255	541339	keystroke_n	n	n/a
270.8795	0.195	541759	keystroke_t	t	n/a
271.0895	0.21	542179	keystroke_Key.space	Key.space	n/a
271.3145	0.255	542629	keystroke_a	a	n/a
272.1095	0.135	544219	keystroke_Key.backspace	Key.backspace	n/a
272.3645	0.075	544729	keystroke_Key.backspace	Key.backspace	n/a
272.5445	0.09	545089	keystroke_Key.backspace	Key.backspace	n/a
272.7545	0.105	545509	keystroke_Key.backspace	Key.backspace	n/a
272.9795	0.105	545959	keystroke_Key.backspace	Key.backspace	n/a
273.3095	0.135	546619	keystroke_Key.backspace	Key.backspace	n/a
273.5795	0.12	547159	keystroke_Key.backspace	Key.backspace	n/a
275.9975	0.177	551995	keystroke_a	a	n/a
276.7145	0.18	553429	keystroke_Key.backspace	Key.backspace	n/a
276.8645	0.255	553729	keystroke_t	t	n/a
277.1795	0.225	554359	keystroke_a	a	n/a
277.3895	0.27	554779	keystroke_n	n	n/a
277.5995	0.24	555199	keystroke_t	t	n/a
277.8245	0.225	555649	keystroke_Key.space	Key.space	n/a
278.4995	0.24	556999	keystroke_a	a	n/a
278.8595	0.195	557719	keystroke_c	c	n/a
279.3095	0.18	558619	keystroke_t	t	n/a
279.4745	0.39	558949	keystroke_i	i	n/a
279.6545	0.24	559309	keystroke_n	n	n/a
279.8655	0.209	559731	keystroke_g	g	n/a
280.0595	0.24	560119	keystroke_Key.space	Key.space	n/a
280.5845	0.18	561169	keystroke_h	h	n/a
281.0045	0.225	562009	keystroke_u	u	n/a
281.2145	0.18	562429	keystroke_g	g	n/a
281.4695	0.27	562939	keystroke_h	h	n/a
281.6645	0.21	563329	keystroke_e	e	n/a
281.9945	0.165	563989	keystroke_s	s	n/a
282.4445	0.27	564889	keystroke_Key.enter	Key.enter	n/a
282.7285	9.694	565457	prompt	n/a	hiring joke engines virtue\n
284.1245	0.255	568249	keystroke_h	h	n/a
284.2745	0.24	568549	keystroke_i	i	n/a
284.5295	0.195	569059	keystroke_r	r	n/a
284.6945	0.36	569389	keystroke_i	i	n/a
284.8755	0.194	569751	keystroke_n	n	n/a
285.0845	0.225	570169	keystroke_g	g	n/a
285.2795	0.18	570559	keystroke_Key.space	Key.space	n/a
285.5195	0.21	571039	keystroke_j	j	n/a
285.6845	0.315	571369	keystroke_o	o	n/a
285.9095	0.24	571819	keystroke_k	k	n/a
286.1045	0.21	572209	keystroke_e	e	n/a
286.33	0.165	572660	keystroke_Key.space	Key.space	n/a
286.54	0.1805	573080	keystroke_e	e	n/a
286.7805	0.269	573561	keystroke_i	i	n/a
287.0645	0.24	574129	keystroke_n	n	n/a
287.5595	0.12	575119	keystroke_Key.backspace	Key.backspace	n/a
287.7695	0.136	575539	keystroke_Key.backspace	Key.backspace	n/a
288.2955	0.194	576591	keystroke_n	n	n/a
288.5495	0.1655	577099	keystroke_g	g	n/a
288.8645	0.255	577729	keystroke_i	i	n/a
288.9545	0.21	577909	keystroke_n	n	n/a
289.1795	0.225	578359	keystroke_e	e	n/a
289.3595	0.135	578719	keystroke_s	s	n/a
289.7495	0.225	579499	keystroke_Key.space	Key.space	n/a
290.2145	0.195	580429	keystroke_v	v	n/a
290.7855	0.21	581571	keystroke_i	i	n/a
291.1145	0.165	582229	keystroke_r	r	n/a
291.4595	0.195	582919	keystroke_t	t	n/a
291.6245	0.241	583249	keystroke_u	u	n/a
291.8495	0.1965	583699	keystroke_e	e	n/a
292.21	0.2095	584420	keystroke_Key.enter	Key.enter	n/a
292.4275	9.8645	584855	prompt	n/a	shelf resulted animation who're\n
293.1095	0.135	586219	keystroke_s	s	n/a
293.3495	0.255	586699	keystroke_h	h	n/a
293.5595	0.18	587119	keystroke_e	e	n/a
293.6645	0.27	587329	keystroke_l	l	n/a
294.4145	0.12	588829	keystroke_s	s	n/a
295.0445	0.165	590089	keystroke_Key.backspace	Key.backspace	n/a
295.1955	0.225	590391	keystroke_f	f	n/a
295.6295	0.225	591259	keystroke_Key.space	Key.space	n/a
295.8995	0.24	591799	keystroke_r	r	n/a
296.0495	0.21	592099	keystroke_e	e	n/a
296.2155	0.224	592431	keystroke_s	s	n/a
296.5445	0.2705	593089	keystroke_u	u	n/a
296.7095	0.2405	593419	keystroke_l	l	n/a
297.025	0.18	594050	keystroke_t	t	n/a
297.7	0.15	595400	keystroke_e	e	n/a
298.045	0.1645	596090	keystroke_d	d	n/a
298.2695	0.24	596539	keystroke_Key.space	Key.space	n/a
298.7795	0.196	597559	keystroke_a	a	n/a
298.9295	0.241	597859	keystroke_n	n	n/a
299.1395	0.301	598279	keystroke_i	i	n/a
299.3195	0.24	598639	keystroke_m	m	n/a
299.4845	0.226	598969	keystroke_a	a	n/a
299.7105	0.164	599421	keystroke_t	t	n/a
299.8155	0.15	599631	keystroke_i	i	n/a
299.8905	0.314	599781	keystroke_o	o	n/a
300.0545	0.181	600109	keystroke_n	n	n/a
300.2495	0.285	600499	keystroke_Key.space	Key.space	n/a
300.5955	0.15	601191	keystroke_w	w	n/a
300.9095	0.211	601819	keystroke_h	h	n/a
301.0295	0.211	602059	keystroke_o	o	n/a
301.4345	0.255	602869	keystroke_'	'	n/a
301.6305	0.21	603261	keystroke_r	r	n/a
301.7645	0.151	603529	keystroke_e	e	n/a
302.1095	0.18	604219	keystroke_Key.enter	Key.enter	n/a
302.2965	8.3955	604593	prompt	n/a	boxed tomato tuning focused\n
303.2355	0.24	606471	keystroke_b	b	n/a
303.4595	0.165	606919	keystroke_o	o	n/a
303.4895	0.21	606979	keystroke_x	x	n/a
303.9405	0.164	607881	keystroke_e	e	n/a
304.3155	0.18	608631	keystroke_d	d	n/a
304.5395	0.271	609079	keystroke_Key.space	Key.space	n/a
304.8405	0.209	609681	keystroke_t	t	n/a
304.9605	0.345	609921	keystroke_o	o	n/a
305.1255	0.254	610251	keystroke_m	m	n/a
305.3495	0.256	610699	keystroke_a	a	n/a
305.5905	0.165	611181	keystroke_t	t	n/a
305.8155	0.21	611631	keystroke_o	o	n/a
306.3095	0.211	612619	keystroke_Key.space	Key.space	n/a
306.9405	0.165	613881	keystroke_t	t	n/a
307.3305	0.195	614661	keystroke_u	u	n/a
307.7055	0.165	615411	keystroke_n	n	n/a
307.9305	0.314	615861	keystroke_i	i	n/a
308.0795	0.241	616159	keystroke_n	n	n/a
308.3355	0.135	616671	keystroke_g	g	n/a
308.4845	0.196	616969	keystroke_Key.space	Key.space	n/a
308.7405	0.195	617481	keystroke_f	f	n/a
308.9505	0.285	617901	keystroke_o	o	n/a
309.2805	0.21	618561	keystroke_c	c	n/a
309.5205	0.194	619041	keystroke_u	u	n/a
309.7455	0.21	619491	keystroke_s	s	n/a
309.8955	0.15	619791	keystroke_e	e	n/a
310.2255	0.165	620451	keystroke_d	d	n/a
310.4805	0.21	620961	keystroke_Key.enter	Key.enter	n/a
310.6975	8.5595	621395	prompt	n/a	proved insurance steady custody\n
311.5455	0.24	623091	keystroke_p	p	n/a
311.7255	0.195	623451	keystroke_r	r	n/a
311.9355	0.285	623871	keystroke_o	o	n/a
312.1755	0.165	624351	keystroke_v	v	n/a
312.3555	0.18	624711	keystroke_e	e	n/a
312.6855	0.24	625371	keystroke_d	d	n/a
312.9545	0.241	625909	keystroke_Key.space	Key.space	n/a
313.2705	0.33	626541	keystroke_i	i	n/a
313.4355	0.195	626871	keystroke_n	n	n/a
313.6155	0.165	627231	keystroke_s	s	n/a
314.1405	0.195	628281	keystroke_u	u	n/a
314.3055	0.24	628611	keystroke_r	r	n/a
314.5905	0.195	629181	keystroke_a	a	n/a
314.8455	0.21	629691	keystroke_n	n	n/a
315.0405	0.225	630081	keystroke_c	c	n/a
315.2505	0.21	630501	keystroke_e	e	n/a
315.4305	0.255	630861	keystroke_Key.space	Key.space	n/a
315.7005	0.255	631401	keystroke_s	s	n/a
315.9705	0.18	631941	keystroke_t	t	n/a
316.1055	0.24	632211	keystroke_e	e	n/a
316.3605	0.165	632721	keystroke_a	a	n/a
316.66	0.1955	633320	keystroke_d	d	n/a
316.8405	0.225	633681	keystroke_y	y	n/a
317.08	0.2105	634160	keystroke_Key.space	Key.space	n/a
317.2755	0.18	634551	keystroke_c	c	n/a
317.4705	0.225	634941	keystroke_u	u	n/a
317.6655	0.255	635331	keystroke_s	s	n/a
317.9355	0.1795	635871	keystroke_t	t	n/a
318.22	0.255	636440	keystroke_o	o	n/a
318.46	0.1505	636920	keystroke_d	d	n/a
318.6705	0.21	637341	keystroke_y	y	n/a
319.0605	0.195	638121	keystroke_Key.enter	Key.enter	n/a
319.263	16.615	638526	prompt	n/a	clothes bridge automobile scuba\n
320.065	0.195	640130	keystroke_c	c	n/a
320.125	0.21	640250	keystroke_l	l	n/a
320.4705	0.2395	640941	keystroke_o	o	n/a
320.68	0.18	641360	keystroke_t	t	n/a
320.875	0.2405	641750	keystroke_h	h	n/a
321.0255	0.225	642051	keystroke_e	e	n/a
321.4155	0.18	642831	keystroke_s	s	n/a
321.7305	0.165	643461	keystroke_Key.space	Key.space	n/a
322.0755	0.21	644151	keystroke_b	b	n/a
322.2405	0.24	644481	keystroke_r	r	n/a
322.6305	0.225	645261	keystroke_i	i	n/a
322.7805	0.195	645561	keystroke_d	d	n/a
323.1705	0.225	646341	keystroke_g	g	n/a
323.3505	0.195	646701	keystroke_e	e	n/a
323.8455	0.195	647691	keystroke_Key.space	Key.space	n/a
324.0555	0.225	648111	keystroke_a	a	n/a
324.2505	0.195	648501	keystroke_u	u	n/a
324.4755	0.18	648951	keystroke_t	t	n/a
324.6105	0.27	649221	keystroke_o	o	n/a
325.0455	0.225	650091	keystroke_m	m	n/a
325.4955	0.225	650991	keystroke_b	b	n/a
325.7055	0.255	651411	keystroke_o	o	n/a
326.8905	0.18	653781	keystroke_Key.backspace	Key.backspace	n/a
327.1155	0.135	654231	keystroke_Key.backspace	Key.backspace	n/a
329.6835	0.072	659367	keystroke_j	j	n/a
329.6845	0.176	659369	keystroke_o	o	n/a
330.3105	0.135	660621	keystroke_Key.backspace	Key.backspace	n/a
330.5505	0.105	661101	keystroke_Key.backspace	Key.backspace	n/a
331.2555	0.195	662511	keystroke_o	o	n/a
331.6605	0.27	663321	keystroke_b	b	n/a
331.9005	0.225	663801	keystroke_l	l	n/a
332.1405	0.225	664281	keystroke_e	e	n/a
332.5605	0.0755	665121	keystroke_Key.backspace	Key.backspace	n/a
332.741	0.105	665482	keystroke_Key.backspace	Key.backspace	n/a
333.311	0.2245	666622	keystroke_i	i	n/a
333.5205	0.1805	667041	keystroke_l	l	n/a
333.551	0.195	667102	keystroke_e	e	n/a
334.076	0.24	668152	keystroke_Key.space	Key.space	n/a
334.6005	0.18	669201	keystroke_s	s	n/a
334.886	0.2095	669772	keystroke_c	c	n/a
335.0955	0.2405	670191	keystroke_u	u	n/a
335.291	0.21	670582	keystroke_a	a	n/a
335.651	0.225	671302	keystroke_Key.enter	Key.enter	n/a
335.8835	16.09	671767	prompt	n/a	blocking stranger accommodate paperbacks\n
336.746	0.195	673492	keystroke_b	b	n/a
336.866	0.2245	673732	keystroke_l	l	n/a
337.6605	0.24	675321	keystroke_o	o	n/a
337.9755	0.195	675951	keystroke_c	c	n/a
338.1555	0.21	676311	keystroke_k	k	n/a
338.5005	0.42	677001	keystroke_i	i	n/a
338.6505	0.271	677301	keystroke_n	n	n/a
338.8005	0.21	677601	keystroke_g	g	n/a
339.0555	0.225	678111	keystroke_Key.space	Key.space	n/a
339.2505	0.225	678501	keystroke_s	s	n/a
339.4605	0.165	678921	keystroke_t	t	n/a
339.7005	0.255	679401	keystroke_r	r	n/a
339.9255	0.21	679851	keystroke_a	a	n/a
340.1505	0.255	680301	keystroke_n	n	n/a
340.3755	0.195	680751	keystroke_g	g	n/a
340.6455	0.24	681291	keystroke_e	e	n/a
340.8255	0.225	681651	keystroke_r	r	n/a
341.1105	0.225	682221	keystroke_Key.space	Key.space	n/a
341.5005	0.165	683001	keystroke_a	a	n/a
341.7105	0.15	683421	keystroke_c	c	n/a
341.9955	0.225	683991	keystroke_c	c	n/a
342.2055	0.345	684411	keystroke_o	o	n/a
342.3855	0.21	684771	keystroke_m	m	n/a
343.7205	0.195	687441	keystroke_m	m	n/a
344.0805	0.21	688161	keystroke_o	o	n/a
344.2305	0.195	688461	keystroke_d	d	n/a
344.546	0.21	689092	keystroke_a	a	n/a
344.711	0.21	689422	keystroke_t	t	n/a
344.981	0.255	689962	keystroke_Key.space	Key.space	n/a
345.701	0.196	691402	keystroke_Key.backspace	Key.backspace	n/a
347.876	0.18	695752	keystroke_e	e	n/a
348.326	0.21	696652	keystroke_Key.space	Key.space	n/a
349.106	0.195	698212	keystroke_p	p	n/a
349.256	0.18	698512	keystroke_a	a	n/a
349.421	0.255	698842	keystroke_p	p	n/a
349.691	0.24	699382	keystroke_e	e	n/a
349.826	0.24	699652	keystroke_r	r	n/a
350.456	0.255	700912	keystroke_b	b	n/a
350.651	0.195	701302	keystroke_a	a	n/a
350.981	0.24	701962	keystroke_c	c	n/a
351.161	0.21	702322	keystroke_k	k	n/a
351.401	0.21	702802	keystroke_s	s	n/a
351.761	0.21	703522	keystroke_Key.enter	Key.enter	n/a
351.979	7.1945	703958	prompt	n/a	lovers ping nations merger\n
352.721	0.18	705442	keystroke_l	l	n/a
353.0055	0.2255	706011	keystroke_o	o	n/a
353.1105	0.1655	706221	keystroke_v	v	n/a
353.306	0.2395	706612	keystroke_e	e	n/a
353.4405	0.285	706881	keystroke_r	r	n/a
353.6055	0.225	707211	keystroke_s	s	n/a
353.8315	0.209	707663	keystroke_Key.space	Key.space	n/a
354.1755	0.195	708351	keystroke_p	p	n/a
354.4155	0.315	708831	keystroke_i	i	n/a
354.6255	0.195	709251	keystroke_n	n	n/a
354.8055	0.225	709611	keystroke_g	g	n/a
355.0155	0.135	710031	keystroke_Key.space	Key.space	n/a
355.2255	0.21	710451	keystroke_n	n	n/a
355.3605	0.18	710721	keystroke_a	a	n/a
355.5105	0.21	711021	keystroke_t	t	n/a
355.6005	0.21	711201	keystroke_i	i	n/a
355.7055	0.3	711411	keystroke_o	o	n/a
355.8405	0.195	711681	keystroke_n	n	n/a
356.1855	0.18	712371	keystroke_s	s	n/a
356.4855	0.21	712971	keystroke_Key.space	Key.space	n/a
357.0405	0.21	714081	keystroke_m	m	n/a
357.1755	0.21	714351	keystroke_e	e	n/a
357.3865	0.224	714773	keystroke_r	r	n/a
358.1355	0.285	716271	keystroke_g	g	n/a
358.4805	0.24	716961	keystroke_e	e	n/a
358.6305	0.18	717261	keystroke_r	r	n/a
358.9455	0.225	717891	keystroke_Key.enter	Key.enter	n/a
359.1795	5.4685	718359	prompt	n/a	kind brake duck be\n
359.9205	0.2105	719841	keystroke_k	k	n/a
360.341	0.315	720682	keystroke_i	i	n/a
360.521	0.21	721042	keystroke_n	n	n/a
360.686	0.18	721372	keystroke_d	d	n/a
360.926	0.135	721852	keystroke_Key.space	Key.space	n/a
361.226	0.195	722452	keystroke_b	b	n/a
361.346	0.2395	722692	keystroke_r	r	n/a
361.5405	0.165	723081	keystroke_a	a	n/a
361.6605	0.2255	723321	keystroke_k	k	n/a
361.826	0.2245	723652	keystroke_e	e	n/a
362.0355	0.195	724071	keystroke_Key.space	Key.space	n/a
362.276	0.15	724552	keystroke_d	d	n/a
362.486	0.21	724972	keystroke_u	u	n/a
362.801	0.2245	725602	keystroke_c	c	n/a
363.2655	0.21	726531	keystroke_k	k	n/a
363.6255	0.135	727251	keystroke_Key.space	Key.space	n/a
363.9255	0.195	727851	keystroke_b	b	n/a
364.0755	0.196	728151	keystroke_e	e	n/a
364.4205	0.2255	728841	keystroke_Key.enter	Key.enter	n/a
364.653	11.41	729306	prompt	n/a	preparing cheats lottery endif\n
365.517	0.225	731034	keystroke_p	p	n/a
365.681	0.225	731362	keystroke_r	r	n/a
365.846	0.195	731692	keystroke_e	e	n/a
366.116	0.24	732232	keystroke_p	p	n/a
366.387	0.209	732774	keystroke_a	a	n/a
366.581	0.21	733162	keystroke_r	r	n/a
366.806	0.361	733612	keystroke_i	i	n/a
367.046	0.196	734092	keystroke_n	n	n/a
367.286	0.1645	734572	keystroke_g	g	n/a
367.4955	0.2105	734991	keystroke_Key.space	Key.space	n/a
367.826	0.18	735652	keystroke_c	c	n/a
368.051	0.285	736102	keystroke_h	h	n/a
368.321	0.241	736642	keystroke_e	e	n/a
368.592	0.194	737184	keystroke_a	a	n/a
368.801	0.18	737602	keystroke_t	t	n/a
369.371	0.18	738742	keystroke_s	s	n/a
369.671	0.225	739342	keystroke_Key.space	Key.space	n/a
369.987	0.149	739974	keystroke_l	l	n/a
370.271	0.18	740542	keystroke_o	o	n/a
370.377	0.089	740754	keystroke_t	t	n/a
370.661	0.21	741322	keystroke_t	t	n/a
370.9005	0.2555	741801	keystroke_e	e	n/a
371.0355	0.2415	742071	keystroke_r	r	n/a
371.9655	0.226	743931	keystroke_y	y	n/a
372.4755	0.195	744951	keystroke_Key.space	Key.space	n/a
372.8805	0.18	745761	keystroke_e	e	n/a
373.0915	0.21	746183	keystroke_n	n	n/a
373.4665	0.074	746933	keystroke_d	d	n/a
373.9455	0.12	747891	keystroke_Key.backspace	Key.backspace	n/a
374.8165	0.164	749633	keystroke_d	d	n/a
375.3265	0.224	750653	keystroke_i	i	n/a
375.4905	0.211	750981	keystroke_f	f	n/a
375.8665	0.194	751733	keystroke_Key.enter	Key.enter	n/a
376.071	8.8275	752142	prompt	n/a	twist smallest villa poverty\n
377.1555	0.181	754311	keystroke_t	t	n/a
377.2755	0.226	754551	keystroke_w	w	n/a
377.5165	0.27	755033	keystroke_i	i	n/a
377.7115	0.225	755423	keystroke_s	s	n/a
378.1165	0.2995	756233	keystroke_t	t	n/a
378.402	0.194	756804	keystroke_Key.space	Key.space	n/a
378.762	0.18	757524	keystroke_s	s	n/a
379.047	0.21	758094	keystroke_m	m	n/a
379.227	0.18	758454	keystroke_a	a	n/a
379.392	0.15	758784	keystroke_l	l	n/a
379.631	0.196	759262	keystroke_l	l	n/a
379.782	0.255	759564	keystroke_e	e	n/a
380.007	0.195	760014	keystroke_s	s	n/a
380.277	0.21	760554	keystroke_t	t	n/a
380.502	0.224	761004	keystroke_Key.space	Key.space	n/a
381.012	0.195	762024	keystroke_v	v	n/a
381.162	0.1945	762324	keystroke_i	i	n/a
381.327	0.1645	762654	keystroke_l	l	n/a
381.5515	0.225	763103	keystroke_l	l	n/a
381.762	0.2085	763524	keystroke_a	a	n/a
382.0615	0.194	764123	keystroke_Key.space	Key.space	n/a
382.5715	0.27	765143	keystroke_p	p	n/a
382.8715	0.225	765743	keystroke_o	o	n/a
383.2015	0.195	766403	keystroke_v	v	n/a
383.5315	0.225	767063	keystroke_e	e	n/a
383.7265	0.18	767453	keystroke_r	r	n/a
384.0865	0.225	768173	keystroke_t	t	n/a
384.2665	0.24	768533	keystroke_y	y	n/a
384.717	0.1795	769434	keystroke_Key.enter	Key.enter	n/a
384.903	9.7455	769806	prompt	n/a	aurora cnet anytime african\n
385.6915	0.195	771383	keystroke_a	a	n/a
385.9315	0.21	771863	keystroke_u	u	n/a
386.4125	0.179	772825	keystroke_r	r	n/a
386.6365	0.18	773273	keystroke_o	o	n/a
386.9215	0.285	773843	keystroke_r	r	n/a
387.1915	0.165	774383	keystroke_a	a	n/a
387.5515	0.24	775103	keystroke_Key.space	Key.space	n/a
388.4215	0.18	776843	keystroke_c	c	n/a
388.7665	0.21	777533	keystroke_n	n	n/a
388.9165	0.225	777833	keystroke_e	e	n/a
389.2015	0.18	778403	keystroke_t	t	n/a
389.3965	0.21	778793	keystroke_Key.space	Key.space	n/a
389.6665	0.195	779333	keystroke_a	a	n/a
389.8165	0.165	779633	keystroke_n	n	n/a
390.2665	0.18	780533	keystroke_y	y	n/a
390.5665	0.195	781133	keystroke_t	t	n/a
390.8065	0.255	781613	keystroke_h	h	n/a
391.0765	0.36	782153	keystroke_i	i	n/a
391.2715	0.21	782543	keystroke_n	n	n/a
391.4665	0.165	782933	keystroke_g	g	n/a
391.6315	0.195	783263	keystroke_Key.space	Key.space	n/a
391.8865	0.255	783773	keystroke_a	a	n/a
392.1115	0.15	784223	keystroke_f	f	n/a
392.3815	0.195	784763	keystroke_r	r	n/a
392.5465	0.24	785093	keystroke_i	i	n/a
392.7715	0.24	785543	keystroke_a	a	n/a
393.5065	0.135	787013	keystroke_Key.backspace	Key.backspace	n/a
393.6265	0.24	787253	keystroke_c	c	n/a
393.8515	0.15	787703	keystroke_a	a	n/a
394.0315	0.21	788063	keystroke_n	n	n/a
394.4515	0.195	788903	keystroke_Key.enter	Key.enter	n/a
394.654	31.72	789308	prompt	n/a	fonts liability cooler territories\n
395.3515	0.165	790703	keystroke_f	f	n/a
395.5315	0.3005	791063	keystroke_o	o	n/a
395.696	0.21	791392	keystroke_n	n	n/a
395.846	0.225	791692	keystroke_t	t	n/a
396.011	0.181	792022	keystroke_s	s	n/a
396.266	0.21	792532	keystroke_Key.space	Key.space	n/a
396.582	0.225	793164	keystroke_l	l	n/a
396.701	0.211	793402	keystroke_i	i	n/a
396.926	0.181	793852	keystroke_a	a	n/a
397.0915	0.2095	794183	keystroke_b	b	n/a
397.317	0.315	794634	keystroke_l	l	n/a
397.482	0.209	794964	keystroke_i	i	n/a
397.826	0.1505	795652	keystroke_t	t	n/a
398.0375	0.179	796075	keystroke_i	i	n/a
398.3515	0.165	796703	keystroke_t	t	n/a
398.5465	0.166	797093	keystroke_y	y	n/a
398.9515	0.15	797903	keystroke_Key.space	Key.space	n/a
399.8515	0.12	799703	keystroke_Key.backspace	Key.backspace	n/a
400.0765	0.105	800153	keystroke_Key.backspace	Key.backspace	n/a
400.286	0.105	800572	keystroke_Key.backspace	Key.backspace	n/a
400.5565	0.181	801113	keystroke_Key.backspace	Key.backspace	n/a
400.8575	0.165	801715	keystroke_Key.backspace	Key.backspace	n/a
402.0425	0.224	804085	keystroke_l	l	n/a
402.2215	0.2095	804443	keystroke_i	i	n/a
402.5215	0.165	805043	keystroke_t	t	n/a
403.6325	0.195	807265	keystroke_y	y	n/a
403.946	0.1665	807892	keystroke_Key.space	Key.space	n/a
404.8015	0.12	809603	keystroke_Key.backspace	Key.backspace	n/a
405.0265	0.09	810053	keystroke_Key.backspace	Key.backspace	n/a
405.2365	0.3	810473	keystroke_Key.backspace	Key.backspace	n/a
405.7915	0.12	811583	keystroke_Key.backspace	Key.backspace	n/a
407.0375	0.224	814075	keystroke_i	i	n/a
407.3225	0.21	814645	keystroke_t	t	n/a
407.5925	0.195	815185	keystroke_y	y	n/a
407.9515	0.181	815903	keystroke_Key.space	Key.space	n/a
409.2125	0.15	818425	keystroke_Key.backspace	Key.backspace	n/a
409.5575	0.194	819115	keystroke_Key.backspace	Key.backspace	n/a
409.8265	0.12	819653	keystroke_Key.backspace	Key.backspace	n/a
410.0975	0.165	820195	keystroke_Key.backspace	Key.backspace	n/a
413.97	0.162	827940	keystroke_i	i	n/a
414.342	0.21	828684	keystroke_t	t	n/a
414.537	0.18	829074	keystroke_y	y	n/a
414.882	0.18	829764	keystroke_Key.space	Key.space	n/a
416.622	0.195	833244	keystroke_c	c	n/a
416.727	0.12	833454	keystroke_o	o	n/a
416.967	0.105	833934	keystroke_o	o	n/a
417.222	0.255	834444	keystroke_l	l	n/a
417.432	0.225	834864	keystroke_e	e	n/a
417.627	0.165	835254	keystroke_r	r	n/a
417.837	0.255	835674	keystroke_Key.space	Key.space	n/a
418.287	0.195	836574	keystroke_t	t	n/a
418.452	0.21	836904	keystroke_e	e	n/a
418.632	0.165	837264	keystroke_r	r	n/a
418.902	0.21	837804	keystroke_r	r	n/a
419.187	0.225	838374	keystroke_i	i	n/a
419.352	0.1345	838704	keystroke_e	e	n/a
419.9065	0.15	839813	keystroke_Key.backspace	Key.backspace	n/a
420.0575	0.209	840115	keystroke_t	t	n/a
420.4465	0.225	840893	keystroke_p	p	n/a
420.6115	0.1205	841223	keystroke_r	r	n/a
421.1665	0.15	842333	keystroke_Key.backspace	Key.backspace	n/a
421.4065	0.105	842813	keystroke_Key.backspace	Key.backspace	n/a
423.87	0.147	847740	keystroke_o	o	n/a
424.002	0.225	848004	keystroke_r	r	n/a
424.407	0.195	848814	keystroke_i	i	n/a
424.572	0.2555	849144	keystroke_e	e	n/a
424.7525	0.195	849505	keystroke_s	s	n/a
426.1775	0.1945	852355	keystroke_Key.enter	Key.enter	n/a
426.3785	14.006	852757	prompt	n/a	circumstances builder warning authority\n
427.3625	0.18	854725	keystroke_c	c	n/a
427.4975	0.21	854995	keystroke_i	i	n/a
427.7225	0.165	855445	keystroke_r	r	n/a
428.0975	0.18	856195	keystroke_c	c	n/a
428.2325	0.15	856465	keystroke_u	u	n/a
428.5925	0.225	857185	keystroke_m	m	n/a
428.6975	0.21	857395	keystroke_s	s	n/a
429.6575	0.165	859315	keystroke_Key.backspace	Key.backspace	n/a
431.0525	0.165	862105	keystroke_s	s	n/a
431.1875	0.2255	862375	keystroke_t	t	n/a
431.3825	0.24	862765	keystroke_a	a	n/a
431.6375	0.225	863275	keystroke_n	n	n/a
431.9525	0.3	863905	keystroke_c	c	n/a
432.2225	0.225	864445	keystroke_e	e	n/a
432.3725	0.225	864745	keystroke_s	s	n/a
432.7625	0.21	865525	keystroke_Key.space	Key.space	n/a
433.1975	0.165	866395	keystroke_b	b	n/a
433.6175	0.24	867235	keystroke_u	u	n/a
433.7525	0.195	867505	keystroke_i	i	n/a
433.8725	0.27	867745	keystroke_l	l	n/a
434.1275	0.165	868255	keystroke_d	d	n/a
434.4275	0.225	868855	keystroke_e	e	n/a
434.563	0.1945	869126	keystroke_r	r	n/a
434.8325	0.21	869665	keystroke_Key.space	Key.space	n/a
435.9275	0.24	871855	keystroke_w	w	n/a
436.0925	0.225	872185	keystroke_a	a	n/a
436.3025	0.195	872605	keystroke_n	n	n/a
436.722	0.105	873444	keystroke_r	r	n/a
437.0675	0.105	874135	keystroke_Key.backspace	Key.backspace	n/a
437.2775	0.105	874555	keystroke_Key.backspace	Key.backspace	n/a
437.3525	0.255	874705	keystroke_r	r	n/a
437.7575	0.21	875515	keystroke_n	n	n/a
437.9525	0.345	875905	keystroke_i	i	n/a
438.1475	0.165	876295	keystroke_n	n	n/a
438.2675	0.255	876535	keystroke_g	g	n/a
438.4025	0.27	876805	keystroke_Key.space	Key.space	n/a
438.5975	0.21	877195	keystroke_a	a	n/a
438.8525	0.225	877705	keystroke_u	u	n/a
439.0625	0.165	878125	keystroke_t	t	n/a
439.2275	0.24	878455	keystroke_h	h	n/a
439.4225	0.255	878845	keystroke_o	o	n/a
439.6025	0.195	879205	keystroke_r	r	n/a
439.8125	0.195	879625	keystroke_y	y	n/a
440.1875	0.195	880375	keystroke_Key.enter	Key.enter	n/a
440.389	18.796	880778	prompt	n/a	milan humanitarian traditions story\n
441.4325	0.27	882865	keystroke_m	m	n/a
441.6725	0.15	883345	keystroke_i	i	n/a
441.762	0.2705	883524	keystroke_l	l	n/a
442.1075	0.255	884215	keystroke_a	a	n/a
442.3175	0.255	884635	keystroke_n	n	n/a
442.5875	0.225	885175	keystroke_Key.space	Key.space	n/a
443.0975	0.195	886195	keystroke_h	h	n/a
443.4575	0.18	886915	keystroke_u	u	n/a
443.8325	0.255	887665	keystroke_m	m	n/a
444.2375	0.21	888475	keystroke_a	a	n/a
444.3725	0.27	888745	keystroke_n	n	n/a
444.5825	0.285	889165	keystroke_i	i	n/a
444.9425	0.225	889885	keystroke_t	t	n/a
445.3025	0.225	890605	keystroke_a	a	n/a
445.4975	0.21	890995	keystroke_r	r	n/a
445.8125	0.225	891625	keystroke_i	i	n/a
446.0225	0.211	892045	keystroke_a	a	n/a
446.2175	0.165	892435	keystroke_n	n	n/a
446.6075	0.21	893215	keystroke_Key.space	Key.space	n/a
447.1625	0.21	894325	keystroke_t	t	n/a
448.1375	0.225	896275	keystroke_r	r	n/a
448.3475	0.195	896695	keystroke_a	a	n/a
448.7525	0.165	897505	keystroke_d	d	n/a
449.0825	0.225	898165	keystroke_i	i	n/a
449.3225	0.135	898645	keystroke_d	d	n/a
449.5475	0.24	899095	keystroke_i	i	n/a
449.7425	0.21	899485	keystroke_t	t	n/a
449.8775	0.195	899755	keystroke_i	i	n/a
450.0125	0.315	900025	keystroke_o	o	n/a
450.2225	0.181	900445	keystroke_n	n	n/a
450.3125	0.15	900625	keystroke_s	s	n/a
450.6875	0.195	901375	keystroke_Key.space	Key.space	n/a
451.4225	0.1355	902845	keystroke_Key.backspace	Key.backspace	n/a
451.663	0.075	903326	keystroke_Key.backspace	Key.backspace	n/a
451.8575	0.12	903715	keystroke_Key.backspace	Key.backspace	n/a
452.083	0.1495	904166	keystroke_Key.backspace	Key.backspace	n/a
452.413	0.075	904826	keystroke_Key.backspace	Key.backspace	n/a
452.518	0.165	905036	keystroke_Key.backspace	Key.backspace	n/a
452.9075	0.1205	905815	keystroke_Key.backspace	Key.backspace	n/a
453.8225	0.165	907645	keystroke_Key.backspace	Key.backspace	n/a
454.1075	0.15	908215	keystroke_Key.backspace	Key.backspace	n/a
454.6175	0.165	909235	keystroke_Key.backspace	Key.backspace	n/a
455.4125	0.21	910825	keystroke_d	d	n/a
456.4035	0.18	912807	keystroke_i	i	n/a
456.5685	0.1955	913137	keystroke_t	t	n/a
456.689	0.165	913378	keystroke_i	i	n/a
456.809	0.3005	913618	keystroke_o	o	n/a
456.989	0.2565	913978	keystroke_n	n	n/a
457.0945	0.195	914189	keystroke_s	s	n/a
457.3945	0.2255	914789	keystroke_Key.space	Key.space	n/a
457.665	0.1955	915330	keystroke_s	s	n/a
457.8905	0.165	915781	keystroke_t	t	n/a
458.0105	0.2855	916021	keystroke_o	o	n/a
458.311	0.135	916622	keystroke_r	r	n/a
458.5525	0.194	917105	keystroke_y	y	n/a
458.972	0.21	917944	keystroke_Key.enter	Key.enter	n/a
459.1905	14.442	918381	prompt	n/a	injuries licenses large silence\n
460.3535	0.3005	920707	keystroke_i	i	n/a
460.504	0.165	921008	keystroke_n	n	n/a
460.804	0.2115	921608	keystroke_j	j	n/a
461.1945	0.2255	922389	keystroke_u	u	n/a
461.33	0.24	922660	keystroke_r	r	n/a
461.45	0.21	922900	keystroke_e	e	n/a
462.396	0.1355	924792	keystroke_Key.backspace	Key.backspace	n/a
463.268	0.2995	926536	keystroke_i	i	n/a
463.4625	0.2405	926925	keystroke_e	e	n/a
463.5975	0.1965	927195	keystroke_s	s	n/a
463.853	0.2255	927706	keystroke_Key.space	Key.space	n/a
464.3335	0.2405	928667	keystroke_l	l	n/a
464.514	0.226	929028	keystroke_i	i	n/a
464.845	0.2555	929690	keystroke_c	c	n/a
465.0845	0.18	930169	keystroke_e	e	n/a
466.0755	0.1355	932151	keystroke_Key.backspace	Key.backspace	n/a
466.317	0.1645	932634	keystroke_Key.backspace	Key.backspace	n/a
468.3595	0.2105	936719	keystroke_c	c	n/a
468.9455	0.195	937891	keystroke_e	e	n/a
469.1555	0.1955	938311	keystroke_n	n	n/a
469.335	0.181	938670	keystroke_s	s	n/a
469.456	0.18	938912	keystroke_e	e	n/a
469.8155	0.225	939631	keystroke_Key.space	Key.space	n/a
470.222	0.2855	940444	keystroke_l	l	n/a
470.402	0.2405	940804	keystroke_a	a	n/a
470.6125	0.134	941225	keystroke_r	r	n/a
470.898	0.225	941796	keystroke_g	g	n/a
471.108	0.2255	942216	keystroke_e	e	n/a
471.3185	0.239	942637	keystroke_Key.space	Key.space	n/a
472.053	0.1665	944106	keystroke_s	s	n/a
472.1885	0.241	944377	keystroke_i	i	n/a
472.3545	0.3005	944709	keystroke_l	l	n/a
472.58	0.18	945160	keystroke_e	e	n/a
472.805	0.2555	945610	keystroke_n	n	n/a
473.0455	0.21	946091	keystroke_c	c	n/a
473.2255	0.1355	946451	keystroke_e	e	n/a
473.421	0.21	946842	keystroke_Key.enter	Key.enter	n/a
473.638	14.533	947276	prompt	n/a	mystery kelly warranties fridge\n
474.7425	0.15	949485	keystroke_m	m	n/a
475.148	0.1955	950296	keystroke_y	y	n/a
475.3445	0.224	950689	keystroke_s	s	n/a
475.5985	0.2255	951197	keystroke_t	t	n/a
475.839	0.255	951678	keystroke_e	e	n/a
476.004	0.1805	952008	keystroke_r	r	n/a
476.2885	0.226	952577	keystroke_Key.space	Key.space	n/a
477.37	0.151	954740	keystroke_Key.backspace	Key.backspace	n/a
477.9715	0.09	955943	keystroke_y	y	n/a
478.5875	0.24	957175	keystroke_Key.space	Key.space	n/a
479.248	0.1805	958496	keystroke_k	k	n/a
479.4735	0.21	958947	keystroke_e	e	n/a
479.7135	0.1055	959427	keystroke_l	l	n/a
479.923	0.226	959846	keystroke_l	l	n/a
480.3295	0.195	960659	keystroke_y	y	n/a
480.87	0.2105	961740	keystroke_Key.space	Key.space	n/a
481.1855	0.195	962371	keystroke_w	w	n/a
481.3955	0.2105	962791	keystroke_a	a	n/a
481.636	0.06	963272	keystroke_r	r	n/a
481.8315	0.255	963663	keystroke_r	r	n/a
482.1615	0.1955	964323	keystroke_a	a	n/a
482.582	0.1955	965164	keystroke_n	n	n/a
483.213	0.12	966426	keystroke_t	t	n/a
483.468	0.2405	966936	keystroke_i	i	n/a
483.6335	0.225	967267	keystroke_e	e	n/a
483.7985	0.1655	967597	keystroke_s	s	n/a
484.024	0.195	968048	keystroke_Key.space	Key.space	n/a
484.4145	0.225	968829	keystroke_f	f	n/a
485.3155	0.195	970631	keystroke_r	r	n/a
485.736	0.21	971472	keystroke_i	i	n/a
485.976	0.1655	971952	keystroke_d	d	n/a
486.577	0.105	973154	keystroke_d	d	n/a
487.1925	0.1655	974385	keystroke_Key.backspace	Key.backspace	n/a
487.373	0.195	974746	keystroke_g	g	n/a
487.553	0.1955	975106	keystroke_e	e	n/a
488.0335	0.1355	976067	keystroke_Key.enter	Key.enter	n/a
488.1765	16.0815	976353	prompt	n/a	armstrong mainly estimate post\n
489.0845	0.1955	978169	keystroke_a	a	n/a
489.295	0.135	978590	keystroke_r	r	n/a
489.431	0.1645	978862	keystroke_m	m	n/a
489.7905	0.2855	979581	keystroke_i	i	n/a
489.9255	0.1955	979851	keystroke_n	n	n/a
490.151	0.195	980302	keystroke_g	g	n/a
490.812	0.12	981624	keystroke_Key.backspace	Key.backspace	n/a
491.037	0.09	982074	keystroke_Key.backspace	Key.backspace	n/a
491.2325	0.105	982465	keystroke_Key.backspace	Key.backspace	n/a
491.4575	0.09	982915	keystroke_Key.backspace	Key.backspace	n/a
492.1635	0.18	984327	keystroke_r	r	n/a
492.629	0.18	985258	keystroke_Key.backspace	Key.backspace	n/a
493.1995	0.21	986399	keystroke_m	m	n/a
493.815	0.2405	987630	keystroke_s	s	n/a
494.0255	0.135	988051	keystroke_t	t	n/a
494.446	0.18	988892	keystroke_r	r	n/a
494.581	0.3005	989162	keystroke_o	o	n/a
494.701	0.1955	989402	keystroke_n	n	n/a
495.1965	0.2255	990393	keystroke_g	g	n/a
495.602	0.2255	991204	keystroke_Key.space	Key.space	n/a
496.173	0.21	992346	keystroke_m	m	n/a
496.443	0.2555	992886	keystroke_a	a	n/a
496.6385	0.285	993277	keystroke_i	i	n/a
496.8035	0.18	993607	keystroke_n	n	n/a
497.0585	0.2855	994117	keystroke_l	l	n/a
497.464	0.2105	994928	keystroke_u	u	n/a
498.23	0.18	996460	keystroke_Key.backspace	Key.backspace	n/a
498.9355	0.21	997871	keystroke_u	u	n/a
499.716	0.1505	999432	keystroke_Key.backspace	Key.backspace	n/a
500.2565	0.15	1000513	keystroke_y	y	n/a
501.0525	0.18	1002105	keystroke_Key.space	Key.space	n/a
501.3375	0.2255	1002675	keystroke_e	e	n/a
501.4725	0.2405	1002945	keystroke_s	s	n/a
501.803	0.18	1003606	keystroke_t	t	n/a
501.923	0.3005	1003846	keystroke_i	i	n/a
502.073	0.2405	1004146	keystroke_m	m	n/a
502.2385	0.21	1004477	keystroke_a	a	n/a
502.4035	0.1955	1004807	keystroke_t	t	n/a
502.5385	0.1955	1005077	keystroke_e	e	n/a
502.809	0.21	1005618	keystroke_Key.space	Key.space	n/a
503.2595	0.3	1006519	keystroke_p	p	n/a
503.4545	0.285	1006909	keystroke_o	o	n/a
503.5445	0.255	1007089	keystroke_s	s	n/a
503.7695	0.165	1007539	keystroke_t	t	n/a
504.01	0.24	1008020	keystroke_Key.enter	Key.enter	n/a
504.258	10.733	1008516	prompt	n/a	ladies searched lloyd joint\n
504.9255	0.4355	1009851	keystroke_l	l	n/a
505.1205	0.2255	1010241	keystroke_a	a	n/a
505.421	0.1795	1010842	keystroke_d	d	n/a
505.6155	0.2255	1011231	keystroke_i	i	n/a
505.946	0.21	1011892	keystroke_e	e	n/a
506.246	0.18	1012492	keystroke_s	s	n/a
506.6355	0.2255	1013271	keystroke_Key.space	Key.space	n/a
506.891	0.2245	1013782	keystroke_s	s	n/a
507.0405	0.24	1014081	keystroke_e	e	n/a
507.3255	0.225	1014651	keystroke_a	a	n/a
507.4905	0.195	1014981	keystroke_r	r	n/a
507.9855	0.18	1015971	keystroke_c	c	n/a
508.2555	0.24	1016511	keystroke_h	h	n/a
509.0955	0.195	1018191	keystroke_e	e	n/a
509.4405	0.1645	1018881	keystroke_d	d	n/a
509.62	0.2405	1019240	keystroke_Key.space	Key.space	n/a
509.9205	0.1795	1019841	keystroke_l	l	n/a
510.16	0.1805	1020320	keystroke_l	l	n/a
510.7	0.315	1021400	keystroke_o	o	n/a
511	0.21	1022000	keystroke_y	y	n/a
511.195	0.15	1022390	keystroke_d	d	n/a
511.4945	0.1955	1022989	keystroke_Key.space	Key.space	n/a
512.0645	0.225	1024129	keystroke_j	j	n/a
512.3195	0.345	1024639	keystroke_o	o	n/a
512.4845	0.271	1024969	keystroke_i	i	n/a
512.6495	0.225	1025299	keystroke_n	n	n/a
512.95	0.18	1025900	keystroke_g	g	n/a
513.639	0.241	1027278	keystroke_Key.backspace	Key.backspace	n/a
513.835	0.21	1027670	keystroke_t	t	n/a
514.81	0.1795	1029620	keystroke_Key.enter	Key.enter	n/a
514.9975	14.706	1029995	prompt	n/a	notre headphones surface warriors\n
516.2345	0.2545	1032469	keystroke_n	n	n/a
516.429	0.225	1032858	keystroke_o	o	n/a
516.639	0.18	1033278	keystroke_t	t	n/a
516.984	0.225	1033968	keystroke_r	r	n/a
517.089	0.195	1034178	keystroke_e	e	n/a
517.374	0.225	1034748	keystroke_Key.space	Key.space	n/a
517.839	0.24	1035678	keystroke_h	h	n/a
517.959	0.255	1035918	keystroke_e	e	n/a
518.169	0.2245	1036338	keystroke_a	a	n/a
518.5735	0.1805	1037147	keystroke_d	d	n/a
519.234	0.1945	1038468	keystroke_p	p	n/a
519.4585	0.1805	1038917	keystroke_h	h	n/a
519.669	0.3445	1039338	keystroke_o	o	n/a
519.8635	0.21	1039727	keystroke_n	n	n/a
520.0285	0.225	1040057	keystroke_e	e	n/a
520.5235	0.195	1041047	keystroke_s	s	n/a
521.0935	0.225	1042187	keystroke_Key.space	Key.space	n/a
521.3335	0.1945	1042667	keystroke_s	s	n/a
521.723	0.225	1043446	keystroke_u	u	n/a
521.873	0.27	1043746	keystroke_r	r	n/a
522.803	0.225	1045606	keystroke_f	f	n/a
523.013	0.27	1046026	keystroke_a	a	n/a
523.358	0.18	1046716	keystroke_c	c	n/a
523.508	0.195	1047016	keystroke_e	e	n/a
523.748	0.225	1047496	keystroke_Key.space	Key.space	n/a
524.093	0.18	1048186	keystroke_s	s	n/a
524.903	0.21	1049806	keystroke_u	u	n/a
525.863	0.1645	1051726	keystroke_Key.backspace	Key.backspace	n/a
526.1475	0.15	1052295	keystroke_Key.backspace	Key.backspace	n/a
527.3625	0.27	1054725	keystroke_w	w	n/a
527.6475	0.2545	1055295	keystroke_a	a	n/a
527.887	0.165	1055774	keystroke_r	r	n/a
528.142	0.165	1056284	keystroke_r	r	n/a
528.337	0.225	1056674	keystroke_i	i	n/a
528.652	0.225	1057304	keystroke_o	o	n/a
528.847	0.315	1057694	keystroke_r	r	n/a
529.102	0.165	1058204	keystroke_s	s	n/a
529.4915	0.21	1058983	keystroke_Key.enter	Key.enter	n/a
529.7105	20.0595	1059421	prompt	n/a	mazda buying breath organizational\n
530.6165	0.2245	1061233	keystroke_m	m	n/a
530.7815	0.21	1061563	keystroke_a	a	n/a
531.5165	0.21	1063033	keystroke_z	z	n/a
531.951	0.225	1063902	keystroke_d	d	n/a
532.221	0.24	1064442	keystroke_a	a	n/a
532.626	0.24	1065252	keystroke_Key.space	Key.space	n/a
533.271	0.195	1066542	keystroke_b	b	n/a
533.706	0.2095	1067412	keystroke_u	u	n/a
534.0955	0.18	1068191	keystroke_y	y	n/a
534.4105	0.285	1068821	keystroke_i	i	n/a
534.6655	0.135	1069331	keystroke_n	n	n/a
534.8155	0.18	1069631	keystroke_g	g	n/a
535.0105	0.165	1070021	keystroke_Key.space	Key.space	n/a
535.88	0.18	1071760	keystroke_b	b	n/a
536.195	0.09	1072390	keystroke_w	w	n/a
536.525	0.27	1073050	keystroke_r	r	n/a
537.02	0.165	1074040	keystroke_Key.backspace	Key.backspace	n/a
537.29	0.105	1074580	keystroke_Key.backspace	Key.backspace	n/a
537.89	0.18	1075780	keystroke_r	r	n/a
537.98	0.18	1075960	keystroke_e	e	n/a
538.73	0.2545	1077460	keystroke_a	a	n/a
539.0895	0.18	1078179	keystroke_t	t	n/a
539.4945	0.21	1078989	keystroke_h	h	n/a
540.0645	0.21	1080129	keystroke_Key.space	Key.space	n/a
540.4695	0.21	1080939	keystroke_o	o	n/a
540.5895	0.21	1081179	keystroke_r	r	n/a
541.3245	0.2395	1082649	keystroke_g	g	n/a
541.579	0.2705	1083158	keystroke_a	a	n/a
542.719	0.315	1085438	keystroke_i	i	n/a
542.944	0.165	1085888	keystroke_n	n	n/a
543.124	0.24	1086248	keystroke_z	z	n/a
543.5895	0.27	1087179	keystroke_a	a	n/a
544.0535	0.136	1088107	keystroke_Key.backspace	Key.backspace	n/a
544.3395	0.1195	1088679	keystroke_Key.backspace	Key.backspace	n/a
544.624	0.105	1089248	keystroke_Key.backspace	Key.backspace	n/a
544.999	0.12	1089998	keystroke_Key.backspace	Key.backspace	n/a
547.3115	0.1615	1094623	keystroke_n	n	n/a
547.638	0.18	1095276	keystroke_i	i	n/a
547.8485	0.18	1095697	keystroke_z	z	n/a
548.1485	0.2245	1096297	keystroke_a	a	n/a
548.418	0.195	1096836	keystroke_t	t	n/a
548.538	0.225	1097076	keystroke_i	i	n/a
548.658	0.24	1097316	keystroke_o	o	n/a
548.778	0.18	1097556	keystroke_n	n	n/a
548.928	0.21	1097856	keystroke_a	a	n/a
549.093	0.225	1098186	keystroke_l	l	n/a
549.573	0.195	1099146	keystroke_Key.enter	Key.enter	n/a
549.776	22.428	1099552	prompt	n/a	replacing submissions conclude drives\n
550.6075	0.2105	1101215	keystroke_r	r	n/a
550.7425	0.195	1101485	keystroke_e	e	n/a
550.9525	0.195	1101905	keystroke_p	p	n/a
551.3425	0.21	1102685	keystroke_l	l	n/a
551.4625	0.24	1102925	keystroke_a	a	n/a
551.822	0.18	1103644	keystroke_c	c	n/a
552.137	0.27	1104274	keystroke_i	i	n/a
553.472	0.195	1106944	keystroke_n	n	n/a
553.622	0.21	1107244	keystroke_g	g	n/a
553.997	0.135	1107994	keystroke_Key.space	Key.space	n/a
554.7615	0.1795	1109523	keystroke_s	s	n/a
555.001	0.18	1110002	keystroke_u	u	n/a
555.421	0.18	1110842	keystroke_b	b	n/a
555.856	0.21	1111712	keystroke_u	u	n/a
556.051	0.135	1112102	keystroke_s	s	n/a
556.666	0.15	1113332	keystroke_Key.backspace	Key.backspace	n/a
556.906	0.105	1113812	keystroke_Key.backspace	Key.backspace	n/a
557.341	0.27	1114682	keystroke_m	m	n/a
557.626	0.1345	1115252	keystroke_i	i	n/a
557.641	0.1195	1115282	keystroke_s	s	n/a
557.8955	0.165	1115791	keystroke_s	s	n/a
558.5555	0.24	1117111	keystroke_i	i	n/a
558.7805	0.315	1117561	keystroke_o	o	n/a
558.9755	0.195	1117951	keystroke_n	n	n/a
559.0805	0.195	1118161	keystroke_s	s	n/a
559.4105	0.18	1118821	keystroke_Key.space	Key.space	n/a
559.785	0.135	1119570	keystroke_c	c	n/a
559.815	0.255	1119630	keystroke_o	o	n/a
559.95	0.24	1119900	keystroke_n	n	n/a
560.205	0.195	1120410	keystroke_d	d	n/a
560.385	0.27	1120770	keystroke_l	l	n/a
560.5805	0.1645	1121161	keystroke_u	u	n/a
560.625	0.15	1121250	keystroke_d	d	n/a
560.91	0.18	1121820	keystroke_e	e	n/a
561.3	0.18	1122600	keystroke_Key.space	Key.space	n/a
561.87	0.165	1123740	keystroke_d	d	n/a
562.155	0.18	1124310	keystroke_r	r	n/a
562.35	0.255	1124700	keystroke_i	i	n/a
562.95	0.12	1125900	keystroke_Key.backspace	Key.backspace	n/a
563.205	0.0745	1126410	keystroke_Key.backspace	Key.backspace	n/a
563.3995	0.045	1126799	keystroke_Key.backspace	Key.backspace	n/a
563.5795	0.09	1127159	keystroke_Key.backspace	Key.backspace	n/a
563.7895	0.09	1127579	keystroke_Key.backspace	Key.backspace	n/a
563.9845	0.075	1127969	keystroke_Key.backspace	Key.backspace	n/a
564.1795	0.0895	1128359	keystroke_Key.backspace	Key.backspace	n/a
564.374	0.09	1128748	keystroke_Key.backspace	Key.backspace	n/a
564.824	0.135	1129648	keystroke_Key.backspace	Key.backspace	n/a
565.319	0.135	1130638	keystroke_Key.backspace	Key.backspace	n/a
566.339	0.181	1132678	keystroke_b	b	n/a
566.9985	0.165	1133997	keystroke_Key.backspace	Key.backspace	n/a
568.2435	0.21	1136487	keystroke_n	n	n/a
568.5735	0.195	1137147	keystroke_c	c	n/a
568.7695	0.299	1137539	keystroke_l	l	n/a
569.0385	0.1945	1138077	keystroke_u	u	n/a
569.1735	0.15	1138347	keystroke_d	d	n/a
569.458	0.18	1138916	keystroke_e	e	n/a
569.668	0.21	1139336	keystroke_Key.space	Key.space	n/a
570.193	0.12	1140386	keystroke_d	d	n/a
570.553	0.2095	1141106	keystroke_r	r	n/a
570.7175	0.27	1141435	keystroke_i	i	n/a
571.1825	0.225	1142365	keystroke_v	v	n/a
571.409	0.2385	1142818	keystroke_e	e	n/a
571.5875	0.18	1143175	keystroke_s	s	n/a
571.9925	0.21	1143985	keystroke_Key.enter	Key.enter	n/a
572.209	10.7035	1144418	prompt	n/a	beer fault diane stunning\n
573.1475	0.211	1146295	keystroke_b	b	n/a
573.2675	0.166	1146535	keystroke_e	e	n/a
573.5225	0.195	1147045	keystroke_e	e	n/a
573.8225	0.195	1147645	keystroke_r	r	n/a
574.0925	0.2695	1148185	keystroke_Key.space	Key.space	n/a
574.377	0.225	1148754	keystroke_f	f	n/a
574.557	0.195	1149114	keystroke_a	a	n/a
574.797	0.24	1149594	keystroke_u	u	n/a
574.977	0.24	1149954	keystroke_l	l	n/a
575.097	0.21	1150194	keystroke_t	t	n/a
575.352	0.225	1150704	keystroke_Key.space	Key.space	n/a
575.7115	0.195	1151423	keystroke_d	d	n/a
575.9215	0.24	1151843	keystroke_i	i	n/a
576.1015	0.24	1152203	keystroke_a	a	n/a
576.3265	0.24	1152653	keystroke_n	n	n/a
576.6415	0.255	1153283	keystroke_Key.space	Key.space	n/a
576.8975	0.209	1153795	keystroke_s	s	n/a
577.211	0.135	1154422	keystroke_t	t	n/a
577.631	0.12	1155262	keystroke_Key.backspace	Key.backspace	n/a
577.886	0.105	1155772	keystroke_Key.backspace	Key.backspace	n/a
578.126	0.15	1156252	keystroke_Key.backspace	Key.backspace	n/a
578.442	0.179	1156884	keystroke_e	e	n/a
578.726	0.315	1157452	keystroke_Key.space	Key.space	n/a
579.237	0.194	1158474	keystroke_s	s	n/a
579.432	0.179	1158864	keystroke_t	t	n/a
579.566	0.165	1159132	keystroke_u	u	n/a
579.956	0.12	1159912	keystroke_n	n	n/a
580.1955	0.165	1160391	keystroke_n	n	n/a
580.5105	0.33	1161021	keystroke_i	i	n/a
580.6905	0.195	1161381	keystroke_n	n	n/a
581.0355	0.165	1162071	keystroke_n	n	n/a
581.7555	0.18	1163511	keystroke_Key.backspace	Key.backspace	n/a
582.0865	0.179	1164173	keystroke_g	g	n/a
582.6705	0.2395	1165341	keystroke_Key.enter	Key.enter	n/a
582.919	8.332	1165838	prompt	n/a	roommate punk close spice\n
583.946	0.194	1167892	keystroke_r	r	n/a
584.08	0.151	1168160	keystroke_o	o	n/a
584.35	0.24	1168700	keystroke_o	o	n/a
584.71	0.196	1169420	keystroke_m	m	n/a
585.01	0.165	1170020	keystroke_m	m	n/a
585.355	0.2245	1170710	keystroke_a	a	n/a
585.6245	0.195	1171249	keystroke_t	t	n/a
585.7895	0.1955	1171579	keystroke_e	e	n/a
586	0.2545	1172000	keystroke_Key.space	Key.space	n/a
586.3745	0.195	1172749	keystroke_p	p	n/a
586.4805	0.209	1172961	keystroke_u	u	n/a
587.0205	0.2995	1174041	keystroke_n	n	n/a
587.274	0.27	1174548	keystroke_k	k	n/a
587.799	0.256	1175598	keystroke_Key.space	Key.space	n/a
588.339	0.225	1176678	keystroke_c	c	n/a
588.489	0.151	1176978	keystroke_l	l	n/a
588.774	0.316	1177548	keystroke_o	o	n/a
588.91	0.225	1177820	keystroke_s	s	n/a
589.074	0.1945	1178148	keystroke_e	e	n/a
589.2835	0.21	1178567	keystroke_Key.space	Key.space	n/a
589.9445	0.24	1179889	keystroke_s	s	n/a
590.1395	0.225	1180279	keystroke_p	p	n/a
590.3195	0.269	1180639	keystroke_i	i	n/a
590.5295	0.194	1181059	keystroke_c	c	n/a
590.6795	0.179	1181359	keystroke_e	e	n/a
591.0245	0.224	1182049	keystroke_Key.enter	Key.enter	n/a
591.258	16.624	1182516	prompt	n/a	mortgage decided assault plastics\n
592.2385	0.24	1184477	keystroke_m	m	n/a
592.4335	0.225	1184867	keystroke_o	o	n/a
592.5535	0.24	1185107	keystroke_r	r	n/a
593.0035	0.12	1186007	keystroke_t	t	n/a
593.228	0.225	1186456	keystroke_a	a	n/a
593.483	0.225	1186966	keystroke_g	g	n/a
593.918	0.12	1187836	keystroke_Key.backspace	Key.backspace	n/a
594.143	0.105	1188286	keystroke_Key.backspace	Key.backspace	n/a
594.323	0.195	1188646	keystroke_g	g	n/a
594.728	0.06	1189456	keystroke_g	g	n/a
594.743	0.315	1189486	keystroke_a	a	n/a
595.373	0.1495	1190746	keystroke_Key.backspace	Key.backspace	n/a
595.8225	0.12	1191645	keystroke_a	a	n/a
596.2575	0.135	1192515	keystroke_Key.backspace	Key.backspace	n/a
596.4975	0.135	1192995	keystroke_Key.backspace	Key.backspace	n/a
596.9325	0.225	1193865	keystroke_a	a	n/a
597.5325	0.2245	1195065	keystroke_g	g	n/a
597.772	0.21	1195544	keystroke_e	e	n/a
598.282	0.225	1196564	keystroke_Key.space	Key.space	n/a
599.167	0.12	1198334	keystroke_d	d	n/a
599.407	0.135	1198814	keystroke_e	e	n/a
599.677	0.1945	1199354	keystroke_c	c	n/a
599.902	0.2845	1199804	keystroke_i	i	n/a
600.1265	0.12	1200253	keystroke_d	d	n/a
600.4415	0.12	1200883	keystroke_e	e	n/a
600.8015	0.195	1201603	keystroke_d	d	n/a
601.1615	0.315	1202323	keystroke_Key.space	Key.space	n/a
601.671	0.3	1203342	keystroke_a	a	n/a
602.047	0.209	1204094	keystroke_s	s	n/a
602.391	0.12	1204782	keystroke_s	s	n/a
602.811	0.24	1205622	keystroke_u	u	n/a
603.456	0.15	1206912	keystroke_Key.backspace	Key.backspace	n/a
603.621	0.2245	1207242	keystroke_a	a	n/a
603.9355	0.3	1207871	keystroke_u	u	n/a
604.1455	0.225	1208291	keystroke_l	l	n/a
604.3555	0.225	1208711	keystroke_t	t	n/a
604.6855	0.225	1209371	keystroke_Key.space	Key.space	n/a
605.2555	0.21	1210511	keystroke_p	p	n/a
605.7205	0.255	1211441	keystroke_l	l	n/a
605.8855	0.225	1211771	keystroke_a	a	n/a
606.0655	0.225	1212131	keystroke_s	s	n/a
606.53	0.18	1213060	keystroke_t	t	n/a
606.83	0.24	1213660	keystroke_i	i	n/a
607.055	0.24	1214110	keystroke_c	c	n/a
607.25	0.18	1214500	keystroke_s	s	n/a
607.685	0.195	1215370	keystroke_Key.enter	Key.enter	n/a
607.89	19.7875	1215780	prompt	n/a	jordan pressure catalyst recipient\n
608.6895	0.225	1217379	keystroke_j	j	n/a
608.8695	0.255	1217739	keystroke_o	o	n/a
609.0495	0.135	1218099	keystroke_r	r	n/a
609.3945	0.24	1218789	keystroke_d	d	n/a
609.6795	0.165	1219359	keystroke_a	a	n/a
609.7845	0.2545	1219569	keystroke_n	n	n/a
610.024	0.18	1220048	keystroke_Key.space	Key.space	n/a
610.369	0.27	1220738	keystroke_p	p	n/a
610.564	0.225	1221128	keystroke_r	r	n/a
610.714	0.211	1221428	keystroke_e	e	n/a
611.044	0.15	1222088	keystroke_s	s	n/a
611.329	0.181	1222658	keystroke_s	s	n/a
611.614	0.12	1223228	keystroke_s	s	n/a
611.884	0.24	1223768	keystroke_u	u	n/a
614.9585	0.15	1229917	keystroke_Key.backspace	Key.backspace	n/a
615.3185	0.15	1230637	keystroke_Key.backspace	Key.backspace	n/a
615.678	0.1055	1231356	keystroke_Key.backspace	Key.backspace	n/a
617.208	0.195	1234416	keystroke_s	s	n/a
617.973	0.2395	1235946	keystroke_u	u	n/a
618.2425	0.195	1236485	keystroke_r	r	n/a
618.3925	0.15	1236785	keystroke_e	e	n/a
619.3525	0.241	1238705	keystroke_Key.space	Key.space	n/a
619.7735	0.2095	1239547	keystroke_c	c	n/a
619.968	0.21	1239936	keystroke_a	a	n/a
620.223	0.224	1240446	keystroke_t	t	n/a
620.448	0.135	1240896	keystroke_a	a	n/a
620.852	0.21	1241704	keystroke_l	l	n/a
621.258	0.21	1242516	keystroke_y	y	n/a
621.333	0.33	1242666	keystroke_s	s	n/a
621.618	0.15	1243236	keystroke_t	t	n/a
621.768	0.225	1243536	keystroke_Key.space	Key.space	n/a
622.262	0.2255	1244524	keystroke_r	r	n/a
622.4425	0.194	1244885	keystroke_e	e	n/a
622.8475	0.18	1245695	keystroke_c	c	n/a
623.1325	0.195	1246265	keystroke_p	p	n/a
623.4325	0.18	1246865	keystroke_i	i	n/a
624.196	0.12	1248392	keystroke_Key.backspace	Key.backspace	n/a
624.422	0.12	1248844	keystroke_Key.backspace	Key.backspace	n/a
625.126	0.136	1250252	keystroke_i	i	n/a
625.727	0.24	1251454	keystroke_p	p	n/a
626.2365	0.255	1252473	keystroke_i	i	n/a
626.4615	0.225	1252923	keystroke_e	e	n/a
626.7915	0.225	1253583	keystroke_n	n	n/a
627.0165	0.195	1254033	keystroke_t	t	n/a
627.4815	0.194	1254963	keystroke_Key.enter	Key.enter	n/a
627.6825	14.663	1255365	prompt	n/a	mediawiki century rose several\n
628.6365	0.2245	1257273	keystroke_m	m	n/a
628.756	0.179	1257512	keystroke_e	e	n/a
629.101	0.21	1258202	keystroke_d	d	n/a
629.716	0.21	1259432	keystroke_i	i	n/a
629.866	0.21	1259732	keystroke_a	a	n/a
630.226	0.18	1260452	keystroke_w	w	n/a
631.3655	0.135	1262731	keystroke_i	i	n/a
631.8155	0.195	1263631	keystroke_k	k	n/a
632.4605	0.1795	1264921	keystroke_i	i	n/a
633.12	0.195	1266240	keystroke_Key.space	Key.space	n/a
633.6	0.225	1267200	keystroke_c	c	n/a
633.795	0.195	1267590	keystroke_e	e	n/a
633.96	0.21	1267920	keystroke_n	n	n/a
634.185	0.165	1268370	keystroke_t	t	n/a
634.5	0.1345	1269000	keystroke_r	r	n/a
635.0845	0.105	1270169	keystroke_Key.backspace	Key.backspace	n/a
635.5045	0.21	1271009	keystroke_u	u	n/a
635.6845	0.225	1271369	keystroke_r	r	n/a
635.8945	0.195	1271789	keystroke_a	a	n/a
636.7945	0.225	1273589	keystroke_Key.backspace	Key.backspace	n/a
637.6495	0.18	1275299	keystroke_y	y	n/a
638.729	0.165	1277458	keystroke_Key.space	Key.space	n/a
639.029	0.24	1278058	keystroke_r	r	n/a
639.224	0.375	1278448	keystroke_o	o	n/a
639.374	0.195	1278748	keystroke_s	s	n/a
639.509	0.18	1279018	keystroke_e	e	n/a
639.809	0.225	1279618	keystroke_Key.space	Key.space	n/a
640.124	0.3	1280248	keystroke_s	s	n/a
640.229	0.21	1280458	keystroke_e	e	n/a
640.604	0.2245	1281208	keystroke_v	v	n/a
640.8135	0.255	1281627	keystroke_e	e	n/a
640.9785	0.255	1281957	keystroke_r	r	n/a
641.1735	0.225	1282347	keystroke_a	a	n/a
641.3835	0.27	1282767	keystroke_l	l	n/a
642.1635	0.1795	1284327	keystroke_Key.enter	Key.enter	n/a
642.3495	20.632	1284699	prompt	n/a	sharp replies carolina capitol\n
643.168	0.18	1286336	keystroke_s	s	n/a
643.633	0.195	1287266	keystroke_h	h	n/a
643.813	0.255	1287626	keystroke_a	a	n/a
644.038	0.18	1288076	keystroke_r	r	n/a
644.203	0.225	1288406	keystroke_p	p	n/a
645.1325	0.225	1290265	keystroke_Key.space	Key.space	n/a
645.3425	0.195	1290685	keystroke_r	r	n/a
645.4775	0.195	1290955	keystroke_e	e	n/a
645.6575	0.27	1291315	keystroke_l	l	n/a
645.8075	0.18	1291615	keystroke_i	i	n/a
645.8525	0.225	1291705	keystroke_e	e	n/a
646.0325	0.15	1292065	keystroke_s	s	n/a
646.8125	0.135	1293625	keystroke_Key.backspace	Key.backspace	n/a
647.0675	0.09	1294135	keystroke_Key.backspace	Key.backspace	n/a
647.2925	0.09	1294585	keystroke_Key.backspace	Key.backspace	n/a
647.5025	0.105	1295005	keystroke_Key.backspace	Key.backspace	n/a
648.672	0.24	1297344	keystroke_[	[	n/a
649.107	0.3	1298214	keystroke_;	;	n/a
649.377	0.195	1298754	keystroke_o	o	n/a
650.157	0.2545	1300314	keystroke_Key.backspace	Key.backspace	n/a
650.5165	0.18	1301033	keystroke_Key.backspace	Key.backspace	n/a
650.8615	0.15	1301723	keystroke_Key.backspace	Key.backspace	n/a
653.2945	0.132	1306589	keystroke_p	p	n/a
653.5915	0.2995	1307183	keystroke_l	l	n/a
653.861	0.165	1307722	keystroke_i	i	n/a
654.041	0.18	1308082	keystroke_e	e	n/a
654.161	0.165	1308322	keystroke_s	s	n/a
654.491	0.24	1308982	keystroke_Key.space	Key.space	n/a
654.851	0.24	1309702	keystroke_c	c	n/a
655.092	0.254	1310184	keystroke_a	a	n/a
655.331	0.195	1310662	keystroke_r	r	n/a
655.527	0.284	1311054	keystroke_o	o	n/a
656.516	0.315	1313032	keystroke_l	l	n/a
656.711	0.255	1313422	keystroke_i	i	n/a
656.816	0.225	1313632	keystroke_n	n	n/a
657.026	0.225	1314052	keystroke_a	a	n/a
657.401	0.2095	1314802	keystroke_Key.space	Key.space	n/a
658.1205	0.27	1316241	keystroke_c	c	n/a
658.3305	0.21	1316661	keystroke_a	a	n/a
659.0805	0.195	1318161	keystroke_p	p	n/a
659.3955	0.21	1318791	keystroke_i	i	n/a
659.5905	0.2545	1319181	keystroke_t	t	n/a
659.815	0.21	1319630	keystroke_a	a	n/a
660.04	0.225	1320080	keystroke_l	l	n/a
660.76	0.165	1321520	keystroke_Key.backspace	Key.backspace	n/a
661.045	0.135	1322090	keystroke_Key.backspace	Key.backspace	n/a
661.525	0.1945	1323050	keystroke_o	o	n/a
661.9295	0.24	1323859	keystroke_l	l	n/a
662.6945	0.285	1325389	keystroke_Key.enter	Key.enter	n/a
662.9865	11.273	1325973	prompt	n/a	perform rise dependence computation\n
664.0155	0.299	1328031	keystroke_p	p	n/a
664.1505	0.239	1328301	keystroke_e	e	n/a
664.2995	0.2245	1328599	keystroke_r	r	n/a
665.124	0.165	1330248	keystroke_f	f	n/a
665.469	0.195	1330938	keystroke_o	o	n/a
665.634	0.21	1331268	keystroke_r	r	n/a
665.889	0.24	1331778	keystroke_m	m	n/a
666.234	0.2245	1332468	keystroke_Key.space	Key.space	n/a
666.4295	0.1655	1332859	keystroke_r	r	n/a
666.609	0.3455	1333218	keystroke_i	i	n/a
666.76	0.164	1333520	keystroke_s	s	n/a
666.864	0.2095	1333728	keystroke_e	e	n/a
667.0435	0.27	1334087	keystroke_Key.space	Key.space	n/a
667.2985	0.15	1334597	keystroke_d	d	n/a
667.6135	0.211	1335227	keystroke_e	e	n/a
668.1535	0.285	1336307	keystroke_p	p	n/a
668.3035	0.18	1336607	keystroke_e	e	n/a
668.6495	0.2395	1337299	keystroke_n	n	n/a
668.9485	0.15	1337897	keystroke_d	d	n/a
669.2185	0.211	1338437	keystroke_e	e	n/a
669.4435	0.225	1338887	keystroke_n	n	n/a
669.7295	0.225	1339459	keystroke_c	c	n/a
669.8935	0.21	1339787	keystroke_e	e	n/a
670.1485	0.2395	1340297	keystroke_Key.space	Key.space	n/a
670.569	0.224	1341138	keystroke_c	c	n/a
670.659	0.315	1341318	keystroke_o	o	n/a
670.823	0.18	1341646	keystroke_m	m	n/a
671.498	0.241	1342996	keystroke_p	p	n/a
671.768	0.195	1343536	keystroke_u	u	n/a
672.203	0.196	1344406	keystroke_t	t	n/a
672.428	0.181	1344856	keystroke_a	a	n/a
672.593	0.195	1345186	keystroke_t	t	n/a
672.803	0.211	1345606	keystroke_i	i	n/a
672.984	0.27	1345968	keystroke_o	o	n/a
673.149	0.27	1346298	keystroke_n	n	n/a
674.0475	0.21	1348095	keystroke_Key.enter	Key.enter	n/a
674.265	11.004	1348530	prompt	n/a	lamp cookbook provinces weeks\n
675.4885	0.209	1350977	keystroke_l	l	n/a
675.6675	0.211	1351335	keystroke_a	a	n/a
675.8475	0.225	1351695	keystroke_m	m	n/a
676.1185	0.209	1352237	keystroke_p	p	n/a
676.2975	0.24	1352595	keystroke_Key.space	Key.space	n/a
676.6575	0.2245	1353315	keystroke_c	c	n/a
676.8085	0.2095	1353617	keystroke_o	o	n/a
677.137	0.226	1354274	keystroke_o	o	n/a
677.483	0.225	1354966	keystroke_k	k	n/a
677.963	0.209	1355926	keystroke_b	b	n/a
678.203	0.09	1356406	keystroke_o	o	n/a
678.368	0.239	1356736	keystroke_o	o	n/a
678.743	0.21	1357486	keystroke_k	k	n/a
679.042	0.1795	1358084	keystroke_Key.space	Key.space	n/a
679.358	0.2395	1358716	keystroke_p	p	n/a
679.5825	0.21	1359165	keystroke_r	r	n/a
679.7925	0.33	1359585	keystroke_o	o	n/a
680.0925	0.225	1360185	keystroke_n	n	n/a
680.7665	0.181	1361533	keystroke_Key.backspace	Key.backspace	n/a
680.9325	0.18	1361865	keystroke_v	v	n/a
681.3975	0.24	1362795	keystroke_i	i	n/a
681.9075	0.21	1363815	keystroke_n	n	n/a
682.1175	0.225	1364235	keystroke_c	c	n/a
682.3575	0.3	1364715	keystroke_e	e	n/a
682.5675	0.225	1365135	keystroke_s	s	n/a
683.0325	0.24	1366065	keystroke_Key.space	Key.space	n/a
683.4675	0.18	1366935	keystroke_w	w	n/a
683.5875	0.164	1367175	keystroke_e	e	n/a
683.8425	0.1195	1367685	keystroke_e	e	n/a
683.977	0.225	1367954	keystroke_k	k	n/a
684.487	0.15	1368974	keystroke_s	s	n/a
685.042	0.225	1370084	keystroke_Key.enter	Key.enter	n/a
685.275	14.122	1370550	prompt	n/a	judge difficulties components journalism\n
686.062	0.195	1372124	keystroke_j	j	n/a
686.437	0.195	1372874	keystroke_u	u	n/a
686.512	0.1795	1373024	keystroke_d	d	n/a
686.857	0.2095	1373714	keystroke_g	g	n/a
687.0215	0.225	1374043	keystroke_e	e	n/a
687.2315	0.225	1374463	keystroke_Key.space	Key.space	n/a
687.5915	0.18	1375183	keystroke_d	d	n/a
687.7265	0.225	1375453	keystroke_i	i	n/a
687.9965	0.18	1375993	keystroke_f	f	n/a
688.2815	0.195	1376563	keystroke_f	f	n/a
688.7015	0.21	1377403	keystroke_i	i	n/a
689.1365	0.18	1378273	keystroke_c	c	n/a
689.3015	0.24	1378603	keystroke_u	u	n/a
689.4815	0.27	1378963	keystroke_l	l	n/a
689.7215	0.1945	1379443	keystroke_t	t	n/a
689.931	0.225	1379862	keystroke_i	i	n/a
690.141	0.27	1380282	keystroke_e	e	n/a
690.351	0.18	1380702	keystroke_s	s	n/a
690.546	0.315	1381092	keystroke_Key.space	Key.space	n/a
690.936	0.195	1381872	keystroke_c	c	n/a
691.041	0.345	1382082	keystroke_o	o	n/a
691.221	0.225	1382442	keystroke_m	m	n/a
691.806	0.255	1383612	keystroke_p	p	n/a
693.6215	0.209	1387243	keystroke_o	o	n/a
694.3265	0.179	1388653	keystroke_n	n	n/a
694.4465	0.1785	1388893	keystroke_e	e	n/a
694.626	0.209	1389252	keystroke_n	n	n/a
694.895	0.255	1389790	keystroke_t	t	n/a
695.135	0.21	1390270	keystroke_s	s	n/a
695.405	0.21	1390810	keystroke_Key.space	Key.space	n/a
695.885	0.21	1391770	keystroke_j	j	n/a
696.14	0.285	1392280	keystroke_o	o	n/a
696.29	0.21	1392580	keystroke_u	u	n/a
696.455	0.241	1392910	keystroke_r	r	n/a
696.696	0.164	1393392	keystroke_a	a	n/a
697.205	0.12	1394410	keystroke_Key.backspace	Key.backspace	n/a
697.6245	0.196	1395249	keystroke_n	n	n/a
697.8505	0.18	1395701	keystroke_a	a	n/a
698.1195	0.255	1396239	keystroke_l	l	n/a
698.3145	0.195	1396629	keystroke_i	i	n/a
698.4795	0.15	1396959	keystroke_s	s	n/a
698.6905	0.24	1397381	keystroke_m	m	n/a
699.1845	0.21	1398369	keystroke_Key.enter	Key.enter	n/a
699.4025	19.8515	1398805	prompt	n/a	arthritis heaven professor complex\n
700.4605	0.239	1400921	keystroke_a	a	n/a
700.8045	0.21	1401609	keystroke_r	r	n/a
701.2705	0.209	1402541	keystroke_t	t	n/a
701.4955	0.2395	1402991	keystroke_h	h	n/a
701.704	0.195	1403408	keystroke_r	r	n/a
701.99	0.119	1403980	keystroke_i	i	n/a
702.004	0.135	1404008	keystroke_8	8	n/a
704.104	0.12	1408208	keystroke_Key.backspace	Key.backspace	n/a
705.5745	0.209	1411149	keystroke_t	t	n/a
705.7535	0.226	1411507	keystroke_i	i	n/a
705.9195	0.21	1411839	keystroke_s	s	n/a
706.5635	0.24	1413127	keystroke_Key.space	Key.space	n/a
707.0735	0.226	1414147	keystroke_h	h	n/a
707.1645	0.194	1414329	keystroke_e	e	n/a
707.3595	0.24	1414719	keystroke_a	a	n/a
707.6135	0.211	1415227	keystroke_v	v	n/a
707.8085	0.196	1415617	keystroke_e	e	n/a
708.3795	0.2395	1416759	keystroke_b	b	n/a
708.994	0.014	1417988	keystroke_Key.space	Key.space	n/a
709.774	0.15	1419548	keystroke_Key.backspace	Key.backspace	n/a
710.058	0.121	1420116	keystroke_Key.backspace	Key.backspace	n/a
711.394	0.21	1422788	keystroke_n	n	n/a
711.8275	0.21	1423655	keystroke_Key.space	Key.space	n/a
713.0435	0.255	1426087	keystroke_p	p	n/a
713.2535	0.195	1426507	keystroke_r	r	n/a
713.4785	0.255	1426957	keystroke_o	o	n/a
713.7485	0.225	1427497	keystroke_f	f	n/a
714.2285	0.24	1428457	keystroke_e	e	n/a
714.4385	0.15	1428877	keystroke_s	s	n/a
714.6935	0.1795	1429387	keystroke_s	s	n/a
714.918	0.33	1429836	keystroke_o	o	n/a
715.143	0.1955	1430286	keystroke_r	r	n/a
716.013	0.225	1432026	keystroke_Key.space	Key.space	n/a
716.523	0.21	1433046	keystroke_c	c	n/a
716.673	0.315	1433346	keystroke_o	o	n/a
716.913	0.3	1433826	keystroke_m	m	n/a
717.453	0.225	1434906	keystroke_p	p	n/a
717.693	0.165	1435386	keystroke_e	e	n/a
718.143	0.225	1436286	keystroke_x	x	n/a
718.593	0.2245	1437186	keystroke_t	t	n/a
719.1025	0.15	1438205	keystroke_Key.enter	Key.enter	n/a
719.26	13.1635	1438520	prompt	n/a	giving meaning quality velocity\n
723.665	0.117	1447330	keystroke_g	g	n/a
723.722	0.21	1447444	keystroke_i	i	n/a
724.022	0.21	1448044	keystroke_v	v	n/a
724.217	0.405	1448434	keystroke_i	i	n/a
724.472	0.165	1448944	keystroke_n	n	n/a
724.682	0.165	1449364	keystroke_g	g	n/a
724.877	0.165	1449754	keystroke_Key.space	Key.space	n/a
725.237	0.24	1450474	keystroke_m	m	n/a
725.417	0.24	1450834	keystroke_e	e	n/a
725.612	0.21	1451224	keystroke_a	a	n/a
725.747	0.18	1451494	keystroke_n	n	n/a
725.942	0.285	1451884	keystroke_i	i	n/a
726.077	0.135	1452154	keystroke_n	n	n/a
726.242	0.255	1452484	keystroke_g	g	n/a
726.437	0.18	1452874	keystroke_Key.space	Key.space	n/a
727.007	0.18	1454014	keystroke_q	q	n/a
727.157	0.2245	1454314	keystroke_u	u	n/a
727.8015	0.195	1455603	keystroke_a	a	n/a
728.0265	0.435	1456053	keystroke_l	l	n/a
728.1915	0.225	1456383	keystroke_i	i	n/a
728.4465	0.21	1456893	keystroke_t	t	n/a
728.6415	0.15	1457283	keystroke_y	y	n/a
728.8515	0.195	1457703	keystroke_Key.space	Key.space	n/a
729.1365	0.21	1458273	keystroke_v	v	n/a
729.3475	0.224	1458695	keystroke_e	e	n/a
729.5865	0.3	1459173	keystroke_l	l	n/a
729.8115	0.15	1459623	keystroke_i	i	n/a
730.2615	0.135	1460523	keystroke_Key.backspace	Key.backspace	n/a
730.6515	0.24	1461303	keystroke_o	o	n/a
730.8315	0.21	1461663	keystroke_c	c	n/a
731.1765	0.165	1462353	keystroke_i	i	n/a
731.3565	0.21	1462713	keystroke_t	t	n/a
731.6715	0.21	1463343	keystroke_y	y	n/a
732.241	0.18	1464482	keystroke_Key.enter	Key.enter	n/a
732.428	19.7935	1464856	prompt	n/a	explicitly clicking cambodia polish\n
733.306	0.135	1466612	keystroke_e	e	n/a
733.681	0.195	1467362	keystroke_x	x	n/a
734.386	0.15	1468772	keystroke_p	p	n/a
734.761	0.285	1469522	keystroke_l	l	n/a
734.971	0.15	1469942	keystroke_i	i	n/a
735.136	0.165	1470272	keystroke_c	c	n/a
735.286	0.27	1470572	keystroke_i	i	n/a
735.616	0.18	1471232	keystroke_t	t	n/a
735.841	0.18	1471682	keystroke_y	y	n/a
736.2005	0.195	1472401	keystroke_Key.space	Key.space	n/a
737.1605	0.18	1474321	keystroke_Key.backspace	Key.backspace	n/a
737.5505	0.21	1475101	keystroke_Key.backspace	Key.backspace	n/a
737.8805	0.165	1475761	keystroke_Key.backspace	Key.backspace	n/a
739.2005	0.195	1478401	keystroke_t	t	n/a
739.6205	0.21	1479241	keystroke_l	l	n/a
740.0855	0.18	1480171	keystroke_y	y	n/a
740.4905	0.18	1480981	keystroke_Key.space	Key.space	n/a
741.66	0.18	1483320	keystroke_c	c	n/a
741.78	0.24	1483560	keystroke_l	l	n/a
741.945	0.196	1483890	keystroke_i	i	n/a
742.155	0.18	1484310	keystroke_c	c	n/a
742.32	0.18	1484640	keystroke_k	k	n/a
742.65	0.285	1485300	keystroke_i	i	n/a
742.785	0.24	1485570	keystroke_n	n	n/a
742.95	0.165	1485900	keystroke_g	g	n/a
743.13	0.24	1486260	keystroke_Key.space	Key.space	n/a
743.415	0.225	1486830	keystroke_c	c	n/a
743.641	0.209	1487282	keystroke_a	a	n/a
743.805	0.225	1487610	keystroke_m	m	n/a
744.39	0.225	1488780	keystroke_b	b	n/a
744.57	0.27	1489140	keystroke_o	o	n/a
744.81	0.195	1489620	keystroke_d	d	n/a
745.02	0.2395	1490040	keystroke_i	i	n/a
745.3795	0.225	1490759	keystroke_a	a	n/a
745.9045	0.24	1491809	keystroke_Key.space	Key.space	n/a
746.5355	0.195	1493071	keystroke_p	p	n/a
746.8945	0.285	1493789	keystroke_l	l	n/a
747.1495	0.24	1494299	keystroke_i	i	n/a
747.4195	0.18	1494839	keystroke_s	s	n/a
747.9745	0.15	1495949	keystroke_Key.backspace	Key.backspace	n/a
748.2295	0.12	1496459	keystroke_Key.backspace	Key.backspace	n/a
748.4545	0.12	1496909	keystroke_Key.backspace	Key.backspace	n/a
749.0395	0.255	1498079	keystroke_o	o	n/a
749.76	0.1795	1499520	keystroke_s	s	n/a
750.209	0.15	1500418	keystroke_Key.backspace	Key.backspace	n/a
750.69	0.209	1501380	keystroke_l	l	n/a
751.139	0.255	1502278	keystroke_i	i	n/a
751.305	0.164	1502610	keystroke_s	s	n/a
751.515	0.225	1503030	keystroke_h	h	n/a
751.995	0.224	1503990	keystroke_Key.enter	Key.enter	n/a
752.227	15.6535	1504454	prompt	n/a	fault amateur forever harassment\n
752.955	0.2545	1505910	keystroke_f	f	n/a
753.1635	0.2255	1506327	keystroke_a	a	n/a
753.479	0.225	1506958	keystroke_u	u	n/a
753.645	0.194	1507290	keystroke_l	l	n/a
753.81	0.2085	1507620	keystroke_t	t	n/a
754.0195	0.209	1508039	keystroke_Key.space	Key.space	n/a
754.3035	0.166	1508607	keystroke_a	a	n/a
754.5295	0.224	1509059	keystroke_m	m	n/a
754.7385	0.211	1509477	keystroke_a	a	n/a
755.6695	0.225	1511339	keystroke_t	t	n/a
755.8495	0.179	1511699	keystroke_e	e	n/a
756.5395	0.225	1513079	keystroke_u	u	n/a
757.453	0.195	1514906	keystroke_r	r	n/a
757.829	0.24	1515658	keystroke_Key.space	Key.space	n/a
758.084	0.21	1516168	keystroke_f	f	n/a
758.369	0.285	1516738	keystroke_o	o	n/a
758.669	0.345	1517338	keystroke_v	v	n/a
759.208	0.316	1518416	keystroke_e	e	n/a
760.394	0.165	1520788	keystroke_Key.backspace	Key.backspace	n/a
760.664	0.134	1521328	keystroke_Key.backspace	Key.backspace	n/a
760.844	0.18	1521688	keystroke_r	r	n/a
761.4885	0.165	1522977	keystroke_e	e	n/a
761.8785	0.21	1523757	keystroke_v	v	n/a
762.1035	0.33	1524207	keystroke_e	e	n/a
762.3735	0.164	1524747	keystroke_r	r	n/a
763.5425	0.226	1527085	keystroke_Key.space	Key.space	n/a
763.9785	0.225	1527957	keystroke_h	h	n/a
764.0975	0.226	1528195	keystroke_a	a	n/a
764.3685	0.21	1528737	keystroke_r	r	n/a
765.3885	0.255	1530777	keystroke_a	a	n/a
765.8535	0.12	1531707	keystroke_s	s	n/a
766.1085	0.195	1532217	keystroke_s	s	n/a
766.4835	0.255	1532967	keystroke_m	m	n/a
766.7235	0.195	1533447	keystroke_e	e	n/a
766.9785	0.225	1533957	keystroke_n	n	n/a
767.2185	0.195	1534437	keystroke_t	t	n/a
767.653	0.225	1535306	keystroke_Key.enter	Key.enter	n/a
767.8855	11.0645	1535771	prompt	n/a	tokyo melissa slot ever\n
769.408	0.18	1538816	keystroke_t	t	n/a
769.543	0.21	1539086	keystroke_o	o	n/a
770.023	0.165	1540046	keystroke_y	y	n/a
770.638	0.135	1541276	keystroke_Key.backspace	Key.backspace	n/a
771.058	0.24	1542116	keystroke_k	k	n/a
771.718	0.21	1543436	keystroke_y	y	n/a
771.868	0.285	1543736	keystroke_o	o	n/a
772.183	0.21	1544366	keystroke_Key.space	Key.space	n/a
772.618	0.18	1545236	keystroke_m	m	n/a
772.783	0.18	1545566	keystroke_e	e	n/a
772.948	0.195	1545896	keystroke_l	l	n/a
773.248	0.24	1546496	keystroke_l	l	n/a
773.413	0.195	1546826	keystroke_i	i	n/a
773.833	0.12	1547666	keystroke_Key.backspace	Key.backspace	n/a
774.043	0.105	1548086	keystroke_Key.backspace	Key.backspace	n/a
774.478	0.2395	1548956	keystroke_i	i	n/a
774.6875	0.15	1549375	keystroke_s	s	n/a
774.9425	0.27	1549885	keystroke_s	s	n/a
775.1975	0.2245	1550395	keystroke_a	a	n/a
775.782	0.21	1551564	keystroke_Key.space	Key.space	n/a
776.608	0.195	1553216	keystroke_s	s	n/a
776.712	0.256	1553424	keystroke_l	l	n/a
777.027	0.27	1554054	keystroke_o	o	n/a
777.133	0.225	1554266	keystroke_t	t	n/a
777.417	0.225	1554834	keystroke_Key.space	Key.space	n/a
777.657	0.165	1555314	keystroke_e	e	n/a
777.972	0.24	1555944	keystroke_v	v	n/a
778.242	0.27	1556484	keystroke_e	e	n/a
778.467	0.165	1556934	keystroke_r	r	n/a
778.692	0.255	1557384	keystroke_Key.enter	Key.enter	n/a
778.9555	16.043	1557911	prompt	n/a	levy michelle wife protocols\n
779.847	0.2395	1559694	keystroke_l	l	n/a
780.0115	0.196	1560023	keystroke_e	e	n/a
780.342	0.241	1560684	keystroke_v	v	n/a
780.628	0.194	1561256	keystroke_y	y	n/a
780.8965	0.2255	1561793	keystroke_Key.space	Key.space	n/a
781.4525	0.27	1562905	keystroke_m	m	n/a
781.6915	0.256	1563383	keystroke_i	i	n/a
781.9165	0.21	1563833	keystroke_c	c	n/a
782.2165	0.241	1564433	keystroke_h	h	n/a
782.5915	0.211	1565183	keystroke_i	i	n/a
783.1325	0.164	1566265	keystroke_e	e	n/a
783.4025	0.375	1566805	keystroke_l	l	n/a
784.1525	0.134	1568305	keystroke_Key.backspace	Key.backspace	n/a
784.3765	0.1495	1568753	keystroke_Key.backspace	Key.backspace	n/a
784.6465	0.1055	1569293	keystroke_Key.backspace	Key.backspace	n/a
784.977	0.225	1569954	keystroke_e	e	n/a
785.247	0.165	1570494	keystroke_l	l	n/a
785.561	0.0915	1571122	keystroke_l	l	n/a
785.6825	0.165	1571365	keystroke_e	e	n/a
786.221	0.256	1572442	keystroke_Key.space	Key.space	n/a
786.777	0.18	1573554	keystroke_w	w	n/a
786.972	0.239	1573944	keystroke_i	i	n/a
787.7215	0.195	1575443	keystroke_f	f	n/a
788.0665	0.195	1576133	keystroke_e	e	n/a
788.5165	0.27	1577033	keystroke_Key.space	Key.space	n/a
789.3115	0.21	1578623	keystroke_r	r	n/a
789.6115	0.135	1579223	keystroke_p	p	n/a
789.9415	0.18	1579883	keystroke_Key.backspace	Key.backspace	n/a
790.1965	0.105	1580393	keystroke_Key.backspace	Key.backspace	n/a
790.7365	0.21	1581473	keystroke_p	p	n/a
790.9165	0.195	1581833	keystroke_r	r	n/a
