onset	duration	sample	value	key	prompt_text
5.0725	16.363	10145	prompt	n/a	the quick brown fox jumps over a lazy dog\n
7.213	0.013	14426	keystroke	t	n/a
7.226	0.105	14452	keystroke	h	n/a
7.331	0.075	14662	keystroke	e	n/a
7.421	0.0905	14842	keystroke	Key.space	n/a
7.8415	0.06	15683	keystroke	q	n/a
8.0075	0.12	16015	keystroke	u	n/a
8.0975	0.12	16195	keystroke	i	n/a
8.2625	0.06	16525	keystroke	c	n/a
8.352	0.15	16704	keystroke	k	n/a
8.4875	0.105	16975	keystroke	Key.space	n/a
9.1625	0.06	18325	keystroke	f	n/a
9.7475	0.105	19495	keystroke	o	n/a
9.8975	0.06	19795	keystroke	x	n/a
10.0025	0.105	20005	keystroke	Key.space	n/a
10.1675	0.09	20335	keystroke	j	n/a
10.3475	0.06	20695	keystroke	u	n/a
12.297	0.045	24594	keystroke	Key.backspace	n/a
12.432	0.045	24864	keystroke	Key.backspace	n/a
12.567	0.06	25134	keystroke	Key.backspace	n/a
12.717	0.045	25434	keystroke	Key.backspace	n/a
12.867	0.03	25734	keystroke	Key.backspace	n/a
13.002	0.03	26004	keystroke	Key.backspace	n/a
13.722	0.091	27444	keystroke	b	n/a
13.858	0.074	27716	keystroke	r	n/a
13.947	0.106	27894	keystroke	o	n/a
14.082	0.06	28164	keystroke	w	n/a
14.202	0.12	28404	keystroke	n	n/a
14.367	0.075	28734	keystroke	Key.space	n/a
14.862	0.075	29724	keystroke	f	n/a
14.997	0.09	29994	keystroke	o	n/a
15.822	0.075	31644	keystroke	x	n/a
15.912	0.12	31824	keystroke	Key.space	n/a
16.033	0.059	32066	keystroke	j	n/a
16.227	0.075	32454	keystroke	u	n/a
16.482	0.061	32964	keystroke	m	n/a
16.587	0.09	33174	keystroke	p	n/a
16.812	0.075	33624	keystroke	s	n/a
17.022	0.09	34044	keystroke	Key.space	n/a
17.397	0.075	34794	keystroke	o	n/a
17.517	0.061	35034	keystroke	v	n/a
17.668	0.134	35336	keystroke	e	n/a
17.758	0.134	35516	keystroke	r	n/a
17.907	0.09	35814	keystroke	Key.space	n/a
18.012	0.105	36024	keystroke	a	n/a
18.162	0.06	36324	keystroke	Key.space	n/a
18.387	0.061	36774	keystroke	l	n/a
18.538	0.075	37076	keystroke	a	n/a
19.183	0.06	38366	keystroke	z	n/a
19.333	0.09	38666	keystroke	t	n/a
19.738	0.075	39476	keystroke	Key.backspace	n/a
19.993	0.149	39986	keystroke	y	n/a
20.157	0.12	40314	keystroke	Key.space	n/a
20.412	0.09	40824	keystroke	d	n/a
20.547	0.075	41094	keystroke	o	n/a
20.727	0.045	41454	keystroke	g	n/a
21.342	0.09	42684	keystroke	Key.enter	n/a
21.4395	10.105	42879	prompt	n/a	long myrtle friend shelter\n
22.3325	0.06	44665	keystroke	l	n/a
22.4975	0.15	44995	keystroke	o	n/a
22.5875	0.12	45175	keystroke	n	n/a
22.7085	0.089	45417	keystroke	g	n/a
22.8275	0.105	45655	keystroke	Key.space	n/a
23.2175	0.105	46435	keystroke	m	n/a
24.687	0.075	49374	keystroke	y	n/a
24.972	0.06	49944	keystroke	r	n/a
26.593	0.014	53186	keystroke	t	n/a
26.622	0.015	53244	keystroke	l	n/a
26.653	0.044	53306	keystroke	e	n/a
26.727	0.135	53454	keystroke	Key.space	n/a
26.997	0.046	53994	keystroke	f	n/a
27.162	0.135	54324	keystroke	i	n/a
27.282	0.105	54564	keystroke	r	n/a
27.402	0.045	54804	keystroke	e	n/a
27.747	0.06	55494	keystroke	Key.backspace	n/a
27.882	0.06	55764	keystroke	Key.backspace	n/a
28.227	0.045	56454	keystroke	Key.backspace	n/a
28.332	0.075	56664	keystroke	r	n/a
28.452	0.105	56904	keystroke	i	n/a
28.542	0.105	57084	keystroke	e	n/a
28.617	0.12	57234	keystroke	n	n/a
28.767	0.075	57534	keystroke	d	n/a
28.872	0.105	57744	keystroke	Key.space	n/a
29.397	0.045	58794	keystroke	s	n/a
29.457	0.09	58914	keystroke	h	n/a
30.853	0.059	61706	keystroke	e	n/a
30.957	0.075	61914	keystroke	l	n/a
31.062	0.075	62124	keystroke	t	n/a
31.242	0.12	62484	keystroke	e	n/a
31.333	0.074	62666	keystroke	r	n/a
31.452	0.09	62904	keystroke	Key.enter	n/a
31.548	7.706	63096	prompt	n/a	diff cache boolean cloudy\n
32.428	0.074	64856	keystroke	d	n/a
32.517	0.09	65034	keystroke	i	n/a
32.622	0.015	65244	keystroke	f	n/a
32.742	0.045	65484	keystroke	f	n/a
32.877	0.09	65754	keystroke	Key.space	n/a
33.042	0.105	66084	keystroke	c	n/a
33.177	0.09	66354	keystroke	a	n/a
33.297	0.075	66594	keystroke	h	n/a
33.417	0.09	66834	keystroke	c	n/a
33.523	0.074	67046	keystroke	e	n/a
34.0025	0.03	68005	keystroke	Key.backspace	n/a
34.1225	0.045	68245	keystroke	Key.backspace	n/a
34.2425	0.06	68485	keystroke	Key.backspace	n/a
34.3775	0.06	68755	keystroke	c	n/a
34.4825	0.06	68965	keystroke	h	n/a
34.5725	0.09	69145	keystroke	e	n/a
35.1575	0.105	70315	keystroke	Key.space	n/a
35.4125	0.09	70825	keystroke	b	n/a
35.6075	0.06	71215	keystroke	o	n/a
35.742	0.075	71484	keystroke	o	n/a
35.937	0.105	71874	keystroke	l	n/a
36.102	0.09	72204	keystroke	e	n/a
36.177	0.09	72354	keystroke	a	n/a
36.297	0.09	72594	keystroke	n	n/a
36.852	0.09	73704	keystroke	Key.space	n/a
37.002	0.09	74004	keystroke	c	n/a
37.137	0.09	74274	keystroke	l	n/a
37.362	0.15	74724	keystroke	o	n/a
37.527	0.105	75054	keystroke	u	n/a
38.292	0.105	76584	keystroke	d	n/a
38.817	0.06	77634	keystroke	y	n/a
39.177	0.075	78354	keystroke	Key.enter	n/a
39.2575	11.1125	78515	prompt	n/a	frontpage wrapped approved router\n
42.045	0.001	84090	keystroke	f	n/a
42.162	0.045	84324	keystroke	r	n/a
42.267	0.12	84534	keystroke	o	n/a
42.448	0.074	84896	keystroke	n	n/a
42.567	0.045	85134	keystroke	t	n/a
42.687	0.105	85374	keystroke	a	n/a
43.317	0.06	86634	keystroke	Key.backspace	n/a
43.573	0.104	87146	keystroke	p	n/a
43.722	0.091	87444	keystroke	a	n/a
43.767	0.09	87534	keystroke	g	n/a
43.902	0.09	87804	keystroke	e	n/a
44.007	0.135	88014	keystroke	Key.space	n/a
44.682	0.105	89364	keystroke	w	n/a
45.417	0.09	90834	keystroke	r	n/a
45.522	0.075	91044	keystroke	a	n/a
45.672	0.076	91344	keystroke	p	n/a
45.852	0.046	91704	keystroke	p	n/a
46.077	0.06	92154	keystroke	e	n/a
46.2575	0.06	92515	keystroke	d	n/a
46.3325	0.12	92665	keystroke	Key.space	n/a
46.7825	0.06	93565	keystroke	a	n/a
46.8725	0.09	93745	keystroke	p	n/a
47.0375	0.06	94075	keystroke	p	n/a
47.1125	0.075	94225	keystroke	r	n/a
47.2325	0.075	94465	keystroke	o	n/a
47.3225	0.075	94645	keystroke	v	n/a
47.4425	0.09	94885	keystroke	e	n/a
47.6075	0.0745	95215	keystroke	d	n/a
47.772	0.105	95544	keystroke	Key.space	n/a
48.942	0.045	97884	keystroke	r	n/a
49.047	0.15	98094	keystroke	o	n/a
49.212	0.09	98424	keystroke	u	n/a
49.303	0.059	98606	keystroke	t	n/a
49.527	0.09	99054	keystroke	e	n/a
49.632	0.03	99264	keystroke	r	n/a
50.2775	0.09	100555	keystroke	Key.enter	n/a
50.374	11.426	100748	prompt	n/a	behind rendering audio expertise\n
51.0725	0.105	102145	keystroke	b	n/a
51.1925	0.09	102385	keystroke	e	n/a
51.3575	0.105	102715	keystroke	h	n/a
51.4775	0.18	102955	keystroke	i	n/a
51.5975	0.12	103195	keystroke	n	n/a
51.7325	0.09	103465	keystroke	d	n/a
51.8375	0.105	103675	keystroke	Key.space	n/a
52.0025	0.09	104005	keystroke	r	n/a
52.1525	0.06	104305	keystroke	e	n/a
52.2425	0.075	104485	keystroke	n	n/a
52.3475	0.09	104695	keystroke	f	n/a
52.6025	0.165	105205	keystroke	e	n/a
52.7375	0.075	105475	keystroke	r	n/a
52.8275	0.135	105655	keystroke	i	n/a
52.9025	0.105	105805	keystroke	n	n/a
53.1725	0.075	106345	keystroke	Key.space	n/a
53.5925	0.045	107185	keystroke	Key.backspace	n/a
53.7275	0.06	107455	keystroke	Key.backspace	n/a
53.8625	0.075	107725	keystroke	Key.backspace	n/a
54.0125	0.06	108025	keystroke	Key.backspace	n/a
54.1625	0.06	108325	keystroke	Key.backspace	n/a
54.612	0.075	109224	keystroke	Key.backspace	n/a
56.098	0.09	112196	keystroke	d	n/a
56.293	0.105	112586	keystroke	e	n/a
56.383	0.09	112766	keystroke	r	n/a
56.533	0.15	113066	keystroke	i	n/a
56.668	0.075	113336	keystroke	n	n/a
56.758	0.06	113516	keystroke	g	n/a
56.893	0.09	113786	keystroke	Key.space	n/a
56.998	0.105	113996	keystroke	a	n/a
57.208	0.075	114416	keystroke	u	n/a
57.628	0.09	115256	keystroke	d	n/a
57.793	0.135	115586	keystroke	i	n/a
57.943	0.075	115886	keystroke	o	n/a
58.1675	0.12	116335	keystroke	Key.space	n/a
58.4525	0.075	116905	keystroke	e	n/a
59.713	0.075	119426	keystroke	x	n/a
59.983	0.074	119966	keystroke	p	n/a
60.102	0.1805	120204	keystroke	e	n/a
60.2225	0.075	120445	keystroke	r	n/a
60.4175	0.075	120835	keystroke	t	n/a
60.5075	0.075	121015	keystroke	i	n/a
60.6425	0.135	121285	keystroke	s	n/a
60.7625	0.075	121525	keystroke	e	n/a
61.7225	0.075	123445	keystroke	Key.enter	n/a
61.8045	8.2445	123609	prompt	n/a	builds wherever lesson cast\n
62.653	0.089	125306	keystroke	b	n/a
62.878	0.195	125756	keystroke	u	n/a
63.987	0.105	127974	keystroke	i	n/a
64.182	0.091	128364	keystroke	l	n/a
64.377	0.151	128754	keystroke	d	n/a
64.512	0.076	129024	keystroke	s	n/a
64.632	0.12	129264	keystroke	Key.space	n/a
65.082	0.046	130164	keystroke	w	n/a
65.158	0.089	130316	keystroke	h	n/a
65.367	0.135	130734	keystroke	e	n/a
66.028	0.074	132056	keystroke	r	n/a
66.282	0.09	132564	keystroke	e	n/a
66.612	0.076	133224	keystroke	v	n/a
66.778	0.149	133556	keystroke	e	n/a
66.898	0.104	133796	keystroke	r	n/a
67.032	0.135	134064	keystroke	Key.space	n/a
67.332	0.045	134664	keystroke	l	n/a
67.392	0.105	134784	keystroke	e	n/a
68.3375	0.015	136675	keystroke	s	n/a
68.4125	0.03	136825	keystroke	s	n/a
68.4725	0.15	136945	keystroke	o	n/a
68.5775	0.15	137155	keystroke	n	n/a
68.7125	0.105	137425	keystroke	Key.space	n/a
68.8325	0.12	137665	keystroke	c	n/a
68.9375	0.24	137875	keystroke	a	n/a
69.3125	0.09	138625	keystroke	s	n/a
69.6875	0.075	139375	keystroke	t	n/a
69.9725	0.075	139945	keystroke	Key.enter	n/a
70.0525	8.772	140105	prompt	n/a	mario warren mobility indices\n
71.0375	0.105	142075	keystroke	m	n/a
71.1425	0.105	142285	keystroke	a	n/a
71.2325	0.105	142465	keystroke	r	n/a
71.4125	0.12	142825	keystroke	i	n/a
71.6825	0.06	143365	keystroke	o	n/a
72.1325	0.105	144265	keystroke	Key.space	n/a
72.2525	0.12	144505	keystroke	w	n/a
72.3875	0.09	144775	keystroke	a	n/a
72.5075	0.075	145015	keystroke	r	n/a
72.7625	0.075	145525	keystroke	e	n/a
73.167	0.075	146334	keystroke	Key.backspace	n/a
73.302	0.06	146604	keystroke	r	n/a
73.377	0.075	146754	keystroke	e	n/a
74.7125	0.135	149425	keystroke	n	n/a
74.8325	0.09	149665	keystroke	Key.space	n/a
75.1025	0.105	150205	keystroke	m	n/a
75.2375	0.09	150475	keystroke	o	n/a
75.4925	0.09	150985	keystroke	b	n/a
75.6425	0.09	151285	keystroke	i	n/a
75.8825	0.12	151765	keystroke	l	n/a
75.9725	0.12	151945	keystroke	i	n/a
76.1075	0.075	152215	keystroke	t	n/a
76.2275	0.09	152455	keystroke	y	n/a
76.4675	0.12	152935	keystroke	Key.space	n/a
76.7225	0.105	153445	keystroke	i	n/a
77.1275	0.09	154255	keystroke	n	n/a
77.9375	0.075	155875	keystroke	d	n/a
78.0725	0.075	156145	keystroke	i	n/a
78.2665	0.076	156533	keystroke	c	n/a
78.3725	0.09	156745	keystroke	e	n/a
78.5825	0.045	157165	keystroke	s	n/a
78.7475	0.075	157495	keystroke	Key.enter	n/a
78.83	7.689	157660	prompt	n/a	call blair pharmacy transcript\n
79.782	0.105	159564	keystroke	c	n/a
79.872	0.105	159744	keystroke	a	n/a
80.172	0.09	160344	keystroke	l	n/a
80.352	0.12	160704	keystroke	l	n/a
80.473	0.119	160946	keystroke	Key.space	n/a
80.698	0.089	161396	keystroke	b	n/a
81.162	0.12	162324	keystroke	l	n/a
81.327	0.09	162654	keystroke	a	n/a
81.522	0.09	163044	keystroke	i	n/a
81.613	0.074	163226	keystroke	r	n/a
82.062	0.105	164124	keystroke	Key.space	n/a
82.257	0.075	164514	keystroke	p	n/a
82.452	0.06	164904	keystroke	h	n/a
82.542	0.15	165084	keystroke	a	n/a
82.707	0.105	165414	keystroke	r	n/a
82.887	0.09	165774	keystroke	m	n/a
83.007	0.12	166014	keystroke	a	n/a
83.202	0.09	166404	keystroke	c	n/a
83.367	0.075	166734	keystroke	y	n/a
83.967	0.12	167934	keystroke	Key.space	n/a
84.237	0.0905	168474	keystroke	t	n/a
84.4325	0.105	168865	keystroke	r	n/a
84.5525	0.105	169105	keystroke	a	n/a
84.6875	0.105	169375	keystroke	n	n/a
84.8525	0.09	169705	keystroke	s	n/a
85.1375	0.09	170275	keystroke	c	n/a
85.4975	0.075	170995	keystroke	r	n/a
85.5875	0.15	171175	keystroke	i	n/a
85.7525	0.105	171505	keystroke	p	n/a
86.1425	0.06	172285	keystroke	t	n/a
86.4875	0.03	172975	keystroke	Key.enter	n/a
86.5215	12.3575	173043	prompt	n/a	packs district browsing tourism\n
87.3425	0.1195	174685	keystroke	p	n/a
87.492	0.105	174984	keystroke	a	n/a
87.657	0.09	175314	keystroke	c	n/a
87.807	0.075	175614	keystroke	k	n/a
87.927	0.09	175854	keystroke	s	n/a
88.062	0.09	176124	keystroke	Key.space	n/a
88.602	0.18	177204	keystroke	d	n/a
88.8125	0.0595	177625	keystroke	i	n/a
89.6075	0.06	179215	keystroke	s	n/a
89.8175	0.015	179635	keystroke	t	n/a
89.9225	0.075	179845	keystroke	r	n/a
90.0125	0.12	180025	keystroke	i	n/a
90.1475	0.045	180295	keystroke	c	n/a
90.402	0.06	180804	keystroke	t	n/a
90.612	0.105	181224	keystroke	Key.space	n/a
90.837	0.09	181674	keystroke	b	n/a
90.972	0.06	181944	keystroke	r	n/a
91.092	0.106	182184	keystroke	o	n/a
91.182	0.075	182364	keystroke	w	n/a
91.7525	0.045	183505	keystroke	s	n/a
91.8125	0.105	183625	keystroke	i	n/a
91.8575	0.105	183715	keystroke	n	n/a
93.0425	0.06	186085	keystroke	g	n/a
93.1475	0.15	186295	keystroke	Key.space	n/a
94.5725	0.06	189145	keystroke	t	n/a
94.9475	0.135	189895	keystroke	i	n/a
95.4575	0.09	190915	keystroke	Key.backspace	n/a
95.7125	0.135	191425	keystroke	o	n/a
95.9375	0.09	191875	keystroke	u	n/a
96.2525	0.075	192505	keystroke	r	n/a
96.3575	0.135	192715	keystroke	i	n/a
97.0475	0.09	194095	keystroke	s	n/a
97.3175	0.06	194635	keystroke	n	n/a
97.8575	0.075	195715	keystroke	Key.backspace	n/a
98.1725	0.06	196345	keystroke	m	n/a
98.7725	0.105	197545	keystroke	Key.enter	n/a
98.8825	9.3115	197765	prompt	n/a	winner toll skirts carnival\n
99.627	0.075	199254	keystroke	w	n/a
99.732	0.075	199464	keystroke	i	n/a
99.8675	0.0745	199735	keystroke	n	n/a
100.107	0.015	200214	keystroke	n	n/a
100.362	0.075	200724	keystroke	d	n/a
100.557	0.135	201114	keystroke	e	n/a
100.677	0.075	201354	keystroke	r	n/a
101.127	0.045	202254	keystroke	Key.backspace	n/a
101.277	0.045	202554	keystroke	Key.backspace	n/a
101.397	0.075	202794	keystroke	Key.backspace	n/a
101.997	0.12	203994	keystroke	w	n/a
102.042	0.15	204084	keystroke	e	n/a
102.522	0.045	205044	keystroke	Key.backspace	n/a
102.597	0.075	205194	keystroke	Key.backspace	n/a
102.702	0.135	205404	keystroke	e	n/a
102.807	0.075	205614	keystroke	r	n/a
103.107	0.12	206214	keystroke	Key.space	n/a
103.212	0.105	206424	keystroke	t	n/a
103.362	0.105	206724	keystroke	o	n/a
104.022	0.045	208044	keystroke	l	n/a
104.157	0.135	208314	keystroke	l	n/a
104.262	0.09	208524	keystroke	Key.space	n/a
104.367	0.12	208734	keystroke	s	n/a
104.517	0.06	209034	keystroke	k	n/a
104.712	0.09	209424	keystroke	i	n/a
104.787	0.06	209574	keystroke	r	n/a
104.952	0.06	209904	keystroke	t	n/a
105.087	0.075	210174	keystroke	s	n/a
105.687	0.12	211374	keystroke	Key.space	n/a
105.912	0.105	211824	keystroke	c	n/a
106.062	0.09	212124	keystroke	a	n/a
106.272	0.075	212544	keystroke	r	n/a
107.082	0.105	214164	keystroke	n	n/a
107.202	0.12	214404	keystroke	i	n/a
107.337	0.09	214674	keystroke	v	n/a
107.652	0.09	215304	keystroke	a	n/a
107.892	0.075	215784	keystroke	l	n/a
108.102	0.09	216204	keystroke	Key.enter	n/a
108.197	7.4965	216394	prompt	n/a	kenneth almost july jill\n
108.852	0.075	217704	keystroke	k	n/a
108.972	0.105	217944	keystroke	e	n/a
109.107	0.06	218214	keystroke	n	n/a
109.257	0.075	218514	keystroke	n	n/a
109.377	0.075	218754	keystroke	e	n/a
109.557	0.105	219114	keystroke	t	n/a
109.677	0.06	219354	keystroke	h	n/a
109.902	0.105	219804	keystroke	Key.space	n/a
110.067	0.09	220134	keystroke	a	n/a
111.207	0.09	222414	keystroke	l	n/a
111.342	0.18	222684	keystroke	m	n/a
111.5365	0.0755	223073	keystroke	o	n/a
111.642	0.195	223284	keystroke	s	n/a
111.7915	0.12	223583	keystroke	t	n/a
111.9265	0.12	223853	keystroke	Key.space	n/a
112.1365	0.12	224273	keystroke	j	n/a
112.4815	0.09	224963	keystroke	u	n/a
112.8415	0.075	225683	keystroke	l	n/a
113.0515	0.09	226103	keystroke	y	n/a
113.3665	0.105	226733	keystroke	Key.space	n/a
114.8365	0.15	229673	keystroke	j	n/a
115.0015	0.09	230003	keystroke	i	n/a
115.2565	0.03	230513	keystroke	l	n/a
115.3915	0.06	230783	keystroke	l	n/a
115.6465	0.0455	231293	keystroke	Key.enter	n/a
115.697	17.1115	231394	prompt	n/a	mary personalized dept mpegs\n
118.9485	0.088	237897	keystroke	m	n/a
119.0215	0.195	238043	keystroke	a	n/a
119.2915	0.09	238583	keystroke	r	n/a
119.5765	0.15	239153	keystroke	y	n/a
119.7115	0.12	239423	keystroke	Key.space	n/a
119.9515	0.09	239903	keystroke	p	n/a
120.2065	0.165	240413	keystroke	e	n/a
120.3265	0.12	240653	keystroke	r	n/a
120.5665	0.12	241133	keystroke	s	n/a
120.6875	0.134	241375	keystroke	o	n/a
120.8065	0.09	241613	keystroke	n	n/a
121.5265	0.09	243053	keystroke	a	n/a
121.7065	0.15	243413	keystroke	l	n/a
121.8415	0.06	243683	keystroke	i	n/a
122.7115	0.075	245423	keystroke	z	n/a
122.8315	0.18	245663	keystroke	i	n/a
122.9815	0.12	245963	keystroke	n	n/a
123.1165	0.075	246233	keystroke	g	n/a
123.2665	0.135	246533	keystroke	Key.space	n/a
123.6565	0.045	247313	keystroke	d	n/a
123.8215	0.075	247643	keystroke	e	n/a
123.9565	0.105	247913	keystroke	p	n/a
124.1065	0.09	248213	keystroke	t	n/a
125.6065	0.12	251213	keystroke	Key.space	n/a
127.467	0.165	254934	keystroke	m	n/a
127.737	0.0895	255474	keystroke	s	n/a
127.9015	0.075	255803	keystroke	p	n/a
128.802	0.075	257604	keystroke	e	n/a
128.967	0.075	257934	keystroke	g	n/a
129.9565	0.06	259913	keystroke	Key.backspace	n/a
130.0915	0.075	260183	keystroke	Key.backspace	n/a
130.2265	0.075	260453	keystroke	Key.backspace	n/a
130.3615	0.06	260723	keystroke	Key.backspace	n/a
131.8165	0.09	263633	keystroke	p	n/a
132.0265	0.12	264053	keystroke	e	n/a
132.3115	0.09	264623	keystroke	g	n/a
132.4465	0.12	264893	keystroke	s	n/a
132.7165	0.09	265433	keystroke	Key.enter	n/a
132.8115	7.497	265623	prompt	n/a	wanna grove vertex satellite\n
133.542	0.075	267084	keystroke	w	n/a
133.677	0.105	267354	keystroke	a	n/a
133.797	0.06	267594	keystroke	n	n/a
133.947	0.075	267894	keystroke	n	n/a
134.157	0.12	268314	keystroke	Key.space	n/a
134.577	0.059	269154	keystroke	Key.backspace	n/a
134.667	0.12	269334	keystroke	a	n/a
134.772	0.12	269544	keystroke	Key.space	n/a
134.922	0.09	269844	keystroke	g	n/a
135.132	0.09	270264	keystroke	r	n/a
135.237	0.09	270474	keystroke	o	n/a
135.372	0.075	270744	keystroke	v	n/a
135.507	0.105	271014	keystroke	e	n/a
136.227	0.12	272454	keystroke	Key.space	n/a
136.422	0.09	272844	keystroke	v	n/a
136.632	0.135	273264	keystroke	e	n/a
136.707	0.075	273414	keystroke	r	n/a
136.872	0.09	273744	keystroke	t	n/a
137.037	0.045	274074	keystroke	e	n/a
137.322	0.09	274644	keystroke	x	n/a
137.487	0.12	274974	keystroke	Key.space	n/a
137.727	0.075	275454	keystroke	s	n/a
137.847	0.105	275694	keystroke	a	n/a
138.282	0.075	276564	keystroke	t	n/a
138.747	0.09	277494	keystroke	e	n/a
139.107	0.135	278214	keystroke	l	n/a
139.512	0.135	279024	keystroke	l	n/a
139.617	0.105	279234	keystroke	i	n/a
139.737	0.09	279474	keystroke	t	n/a
140.0215	0.06	280043	keystroke	e	n/a
140.2315	0.075	280463	keystroke	Key.enter	n/a
140.312	9.4915	280624	prompt	n/a	devil britney eagles matrix\n
141.1915	0.075	282383	keystroke	d	n/a
141.5365	0.045	283073	keystroke	v	n/a
141.9115	0.075	283823	keystroke	Key.backspace	n/a
141.9875	0.089	283975	keystroke	e	n/a
142.1665	0.09	284333	keystroke	v	n/a
142.3015	0.075	284603	keystroke	i	n/a
142.7665	0.09	285533	keystroke	l	n/a
143.0515	0.105	286103	keystroke	Key.space	n/a
144.552	0.105	289104	keystroke	b	n/a
144.7015	0.0905	289403	keystroke	r	n/a
145.3915	0.0905	290783	keystroke	i	n/a
145.5415	0.105	291083	keystroke	t	n/a
145.7065	0.1045	291413	keystroke	n	n/a
145.871	0.09	291742	keystroke	e	n/a
146.021	0.0605	292042	keystroke	y	n/a
146.471	0.12	292942	keystroke	Key.space	n/a
146.921	0.075	293842	keystroke	e	n/a
147.042	0.089	294084	keystroke	a	n/a
147.221	0.075	294442	keystroke	g	n/a
147.506	0.06	295012	keystroke	l	n/a
147.6115	0.1195	295223	keystroke	e	n/a
147.686	0.12	295372	keystroke	s	n/a
147.836	0.105	295672	keystroke	Key.space	n/a
148.0315	0.1045	296063	keystroke	m	n/a
148.1665	0.0745	296333	keystroke	a	n/a
148.271	0.105	296542	keystroke	t	n/a
148.496	0.045	296992	keystroke	r	n/a
149.5015	0.0895	299003	keystroke	i	n/a
149.576	0.1055	299152	keystroke	x	n/a
149.726	0.075	299452	keystroke	Key.enter	n/a
149.808	9.5655	299616	prompt	n/a	wishes pdas clearance beastality\n
150.776	0.09	301552	keystroke	w	n/a
150.896	0.105	301792	keystroke	i	n/a
151.016	0.105	302032	keystroke	s	n/a
151.106	0.09	302212	keystroke	h	n/a
151.211	0.105	302422	keystroke	e	n/a
151.406	0.06	302812	keystroke	s	n/a
151.481	0.075	302962	keystroke	Key.space	n/a
151.946	0.09	303892	keystroke	p	n/a
152.066	0.12	304132	keystroke	d	n/a
152.201	0.105	304402	keystroke	a	n/a
152.426	0.09	304852	keystroke	s	n/a
152.831	0.12	305662	keystroke	Key.space	n/a
153.716	0.105	307432	keystroke	c	n/a
153.8665	0.0895	307733	keystroke	l	n/a
153.941	0.135	307882	keystroke	e	n/a
154.046	0.165	308092	keystroke	a	n/a
154.256	0.12	308512	keystroke	r	n/a
154.451	0.12	308902	keystroke	a	n/a
154.601	0.075	309202	keystroke	n	n/a
154.691	0.12	309382	keystroke	c	n/a
154.796	0.09	309592	keystroke	e	n/a
154.946	0.09	309892	keystroke	Key.space	n/a
156.1015	0.12	312203	keystroke	b	n/a
156.2665	0.135	312533	keystroke	e	n/a
156.3865	0.105	312773	keystroke	a	n/a
156.642	0.119	313284	keystroke	s	n/a
156.956	0.105	313912	keystroke	t	n/a
158.486	0.045	316972	keystroke	a	n/a
158.651	0.135	317302	keystroke	l	n/a
158.756	0.106	317512	keystroke	i	n/a
158.862	0.06	317724	keystroke	t	n/a
158.997	0.074	317994	keystroke	y	n/a
159.296	0.075	318592	keystroke	Key.enter	n/a
159.377	10.5565	318754	prompt	n/a	workshops rachel remark amazing\n
160.4065	0.15	320813	keystroke	w	n/a
160.5715	0.15	321143	keystroke	o	n/a
160.7065	0.105	321413	keystroke	r	n/a
160.7815	0.12	321563	keystroke	k	n/a
161.0365	0.075	322073	keystroke	s	n/a
161.1265	0.06	322253	keystroke	h	n/a
161.4115	0.09	322823	keystroke	i	n/a
162.3715	0.09	324743	keystroke	Key.backspace	n/a
162.7465	0.09	325493	keystroke	o	n/a
162.9115	0.075	325823	keystroke	p	n/a
163.0465	0.105	326093	keystroke	s	n/a
163.2415	0.09	326483	keystroke	Key.space	n/a
164.4265	0.09	328853	keystroke	r	n/a
164.5165	0.09	329033	keystroke	a	n/a
164.7265	0.0755	329453	keystroke	c	n/a
164.862	0.09	329724	keystroke	h	n/a
165.027	0.06	330054	keystroke	e	n/a
165.207	0.105	330414	keystroke	l	n/a
165.372	0.12	330744	keystroke	Key.space	n/a
165.837	0.045	331674	keystroke	m	n/a
166.167	0.06	332334	keystroke	Key.backspace	n/a
166.317	0.09	332634	keystroke	r	n/a
166.392	0.09	332784	keystroke	e	n/a
166.497	0.12	332994	keystroke	m	n/a
166.632	0.15	333264	keystroke	a	n/a
166.827	0.09	333654	keystroke	r	n/a
166.977	0.06	333954	keystroke	k	n/a
167.696	0.105	335392	keystroke	Key.space	n/a
167.816	0.046	335632	keystroke	a	n/a
167.877	0.105	335754	keystroke	m	n/a
167.997	0.105	335994	keystroke	a	n/a
169.032	0.135	338064	keystroke	z	n/a
169.151	0.151	338302	keystroke	i	n/a
169.257	0.135	338514	keystroke	n	n/a
169.377	0.089	338754	keystroke	g	n/a
169.856	0.0755	339712	keystroke	Key.enter	n/a
169.9365	5.1115	339873	prompt	n/a	counter capital susan ware\n
170.7715	0.12	341543	keystroke	c	n/a
170.9365	0.135	341873	keystroke	o	n/a
171.0415	0.06	342083	keystroke	u	n/a
171.2065	0.12	342413	keystroke	n	n/a
171.2965	0.075	342593	keystroke	t	n/a
171.4765	0.12	342953	keystroke	e	n/a
171.5665	0.09	343133	keystroke	r	n/a
171.6715	0.09	343343	keystroke	Key.space	n/a
171.8215	0.09	343643	keystroke	c	n/a
171.8965	0.12	343793	keystroke	a	n/a
172.0615	0.09	344123	keystroke	p	n/a
172.2715	0.09	344543	keystroke	i	n/a
172.3915	0.075	344783	keystroke	t	n/a
172.5115	0.06	345023	keystroke	a	n/a
172.6615	0.12	345323	keystroke	l	n/a
173.2015	0.105	346403	keystroke	Key.space	n/a
173.3965	0.09	346793	keystroke	s	n/a
173.5015	0.06	347003	keystroke	u	n/a
173.6215	0.135	347243	keystroke	s	n/a
173.8015	0.09	347603	keystroke	a	n/a
173.9365	0.105	347873	keystroke	n	n/a
174.1165	0.105	348233	keystroke	Key.space	n/a
174.2365	0.075	348473	keystroke	w	n/a
174.4015	0.105	348803	keystroke	a	n/a
174.6715	0.09	349343	keystroke	r	n/a
174.7315	0.12	349463	keystroke	e	n/a
174.9565	0.09	349913	keystroke	Key.enter	n/a
175.0505	9.8675	350101	prompt	n/a	army spencer description afterwards\n
175.7665	0.09	351533	keystroke	a	n/a
176.3065	0.105	352613	keystroke	r	n/a
176.4715	0.075	352943	keystroke	m	n/a
176.7115	0.105	353423	keystroke	y	n/a
176.8765	0.105	353753	keystroke	Key.space	n/a
177.0565	0.105	354113	keystroke	s	n/a
177.2065	0.09	354413	keystroke	p	n/a
177.3265	0.09	354653	keystroke	e	n/a
177.4465	0.105	354893	keystroke	n	n/a
177.5965	0.105	355193	keystroke	c	n/a
178.0165	0.135	356033	keystroke	e	n/a
178.1065	0.105	356213	keystroke	r	n/a
178.1965	0.135	356393	keystroke	Key.space	n/a
178.736	0.075	357472	keystroke	d	n/a
178.886	0.12	357772	keystroke	e	n/a
179.036	0.105	358072	keystroke	s	n/a
179.246	0.1055	358492	keystroke	c	n/a
179.4565	0.075	358913	keystroke	r	n/a
179.5165	0.12	359033	keystroke	i	n/a
179.7115	0.12	359423	keystroke	p	n/a
179.8165	0.075	359633	keystroke	t	n/a
179.9515	0.105	359903	keystroke	i	n/a
180.0715	0.135	360143	keystroke	o	n/a
180.1765	0.09	360353	keystroke	n	n/a
180.5515	0.105	361103	keystroke	Key.space	n/a
180.7765	0.105	361553	keystroke	a	n/a
180.9415	0.105	361883	keystroke	f	n/a
181.2865	0.09	362573	keystroke	e	n/a
181.7815	0.015	363563	keystroke	Key.backspace	n/a
181.8115	0.03	363623	keystroke	g	n/a
182.4415	0.0745	364883	keystroke	Key.backspace	n/a
183.326	0.06	366652	keystroke	t	n/a
183.491	0.12	366982	keystroke	e	n/a
183.566	0.09	367132	keystroke	r	n/a
183.866	0.105	367732	keystroke	w	n/a
184.0015	0.1345	368003	keystroke	a	n/a
184.061	0.15	368122	keystroke	r	n/a
184.301	0.15	368602	keystroke	d	n/a
184.421	0.12	368842	keystroke	s	n/a
184.826	0.09	369652	keystroke	Key.enter	n/a
184.921	9.207	369842	prompt	n/a	academic sandy appendix atlantic\n
185.561	0.09	371122	keystroke	a	n/a
185.756	0.12	371512	keystroke	c	n/a
185.906	0.0905	371812	keystroke	a	n/a
186.191	0.06	372382	keystroke	d	n/a
186.341	0.09	372682	keystroke	e	n/a
186.446	0.09	372892	keystroke	m	n/a
186.701	0.075	373402	keystroke	i	n/a
186.926	0.075	373852	keystroke	c	n/a
187.076	0.12	374152	keystroke	Key.space	n/a
187.256	0.1205	374512	keystroke	s	n/a
187.4215	0.075	374843	keystroke	a	n/a
187.5415	0.105	375083	keystroke	n	n/a
187.766	0.105	375532	keystroke	d	n/a
187.886	0.09	375772	keystroke	y	n/a
188.381	0.135	376762	keystroke	Key.space	n/a
188.831	0.06	377662	keystroke	a	n/a
188.981	0.06	377962	keystroke	p	n/a
189.1315	0.06	378263	keystroke	p	n/a
189.2365	0.075	378473	keystroke	e	n/a
189.4165	0.045	378833	keystroke	n	n/a
189.6265	0.0745	379253	keystroke	d	n/a
189.731	0.09	379462	keystroke	i	n/a
190.796	0.09	381592	keystroke	x	n/a
190.916	0.135	381832	keystroke	Key.space	n/a
191.186	0.12	382372	keystroke	a	n/a
192.851	0.075	385702	keystroke	t	n/a
193.061	0.075	386122	keystroke	l	n/a
193.181	0.12	386362	keystroke	a	n/a
193.316	0.09	386632	keystroke	n	n/a
193.496	0.09	386992	keystroke	t	n/a
193.616	0.075	387232	keystroke	i	n/a
193.781	0.105	387562	keystroke	c	n/a
194.051	0.075	388102	keystroke	Key.enter	n/a
194.1325	8.14	388265	prompt	n/a	such disease modelling complaints\n
195.0415	0.09	390083	keystroke	s	n/a
195.1765	0.075	390353	keystroke	u	n/a
195.2665	0.135	390533	keystroke	c	n/a
195.4165	0.075	390833	keystroke	h	n/a
196.0315	0.12	392063	keystroke	Key.space	n/a
196.1665	0.105	392333	keystroke	d	n/a
196.2865	0.075	392573	keystroke	i	n/a
196.5565	0.105	393113	keystroke	s	n/a
196.7215	0.12	393443	keystroke	e	n/a
196.9465	0.105	393893	keystroke	a	n/a
197.9665	0.135	395933	keystroke	s	n/a
198.0715	0.105	396143	keystroke	e	n/a
198.1915	0.135	396383	keystroke	Key.space	n/a
198.4765	0.12	396953	keystroke	m	n/a
198.6115	0.12	397223	keystroke	o	n/a
198.7165	0.075	397433	keystroke	d	n/a
198.9115	0.045	397823	keystroke	e	n/a
199.0015	0.12	398003	keystroke	l	n/a
199.3315	0.09	398663	keystroke	l	n/a
199.4815	0.165	398963	keystroke	i	n/a
199.5865	0.1195	399173	keystroke	n	n/a
199.707	0.089	399414	keystroke	g	n/a
199.856	0.105	399712	keystroke	Key.space	n/a
200.126	0.09	400252	keystroke	c	n/a
200.201	0.105	400402	keystroke	o	n/a
200.471	0.135	400942	keystroke	m	n/a
200.966	0.09	401932	keystroke	p	n/a
201.206	0.105	402412	keystroke	l	n/a
201.341	0.075	402682	keystroke	a	n/a
201.431	0.135	402862	keystroke	i	n/a
201.536	0.09	403072	keystroke	n	n/a
201.641	0.105	403282	keystroke	t	n/a
201.851	0.09	403702	keystroke	s	n/a
202.001	0.105	404002	keystroke	Key.space	n/a
202.196	0.075	404392	keystroke	Key.enter	n/a
202.276	8.863	404552	prompt	n/a	monitoring retreat wondering installations\n
203.1405	0.09	406281	keystroke	m	n/a
203.2605	0.15	406521	keystroke	o	n/a
203.3955	0.105	406791	keystroke	n	n/a
204.0115	0.09	408023	keystroke	i	n/a
204.1315	0.075	408263	keystroke	t	n/a
204.3265	0.105	408653	keystroke	o	n/a
204.4765	0.075	408953	keystroke	r	n/a
204.5815	0.105	409163	keystroke	i	n/a
204.7465	0.105	409493	keystroke	n	n/a
204.8665	0.09	409733	keystroke	g	n/a
205.0165	0.075	410033	keystroke	Key.space	n/a
205.7665	0.105	411533	keystroke	r	n/a
205.8865	0.09	411773	keystroke	e	n/a
206.0515	0.09	412103	keystroke	t	n/a
206.2465	0.12	412493	keystroke	r	n/a
206.3515	0.15	412703	keystroke	e	n/a
206.4865	0.12	412973	keystroke	a	n/a
206.6365	0.09	413273	keystroke	t	n/a
206.9965	0.135	413993	keystroke	Key.space	n/a
207.3865	0.06	414773	keystroke	w	n/a
207.4615	0.105	414923	keystroke	o	n/a
207.5065	0.12	415013	keystroke	n	n/a
207.6115	0.06	415223	keystroke	d	n/a
207.7615	0.15	415523	keystroke	e	n/a
207.8665	0.12	415733	keystroke	r	n/a
207.9715	0.12	415943	keystroke	i	n/a
208.0465	0.09	416093	keystroke	n	n/a
208.1515	0.0745	416303	keystroke	g	n/a
208.271	0.105	416542	keystroke	Key.space	n/a
208.976	0.075	417952	keystroke	i	n/a
209.636	0.105	419272	keystroke	n	n/a
209.756	0.09	419512	keystroke	s	n/a
209.876	0.105	419752	keystroke	t	n/a
209.996	0.09	419992	keystroke	a	n/a
210.191	0.045	420382	keystroke	l	n/a
210.341	0.075	420682	keystroke	l	n/a
210.431	0.075	420862	keystroke	a	n/a
210.521	0.09	421042	keystroke	t	n/a
210.626	0.12	421252	keystroke	i	n/a
210.716	0.12	421432	keystroke	o	n/a
210.806	0.09	421612	keystroke	n	n/a
210.881	0.09	421762	keystroke	s	n/a
211.046	0.09	422092	keystroke	Key.enter	n/a
211.1425	10.48	422285	prompt	n/a	chile output pendant signature\n
212.111	0.06	424222	keystroke	s	n/a
212.156	0.15	424312	keystroke	h	n/a
212.261	0.09	424522	keystroke	i	n/a
212.441	0.105	424882	keystroke	l	n/a
212.606	0.075	425212	keystroke	e	n/a
213.431	0.12	426862	keystroke	Key.space	n/a
213.896	0.06	427792	keystroke	Key.backspace	n/a
214.046	0.06	428092	keystroke	Key.backspace	n/a
214.181	0.06	428362	keystroke	Key.backspace	n/a
214.331	0.06	428662	keystroke	Key.backspace	n/a
214.466	0.045	428932	keystroke	Key.backspace	n/a
214.631	0.06	429262	keystroke	Key.backspace	n/a
214.766	0.09	429532	keystroke	c	n/a
214.901	0.045	429802	keystroke	h	n/a
215.141	0.09	430282	keystroke	i	n/a
215.321	0.075	430642	keystroke	l	n/a
215.441	0.06	430882	keystroke	e	n/a
215.546	0.12	431092	keystroke	Key.space	n/a
216.281	0.135	432562	keystroke	o	n/a
216.446	0.105	432892	keystroke	u	n/a
216.521	0.09	433042	keystroke	t	n/a
216.731	0.09	433462	keystroke	p	n/a
216.896	0.12	433792	keystroke	u	n/a
217.001	0.09	434002	keystroke	t	n/a
217.8255	0.03	435651	keystroke	Key.space	n/a
218.4105	0.09	436821	keystroke	p	n/a
218.5455	0.075	437091	keystroke	e	n/a
218.6665	0.074	437333	keystroke	n	n/a
218.8455	0.09	437691	keystroke	d	n/a
218.9205	0.105	437841	keystroke	a	n/a
219.0405	0.075	438081	keystroke	n	n/a
219.1605	0.075	438321	keystroke	t	n/a
219.641	0.1195	439282	keystroke	Key.space	n/a
220.016	0.09	440032	keystroke	s	n/a
220.136	0.09	440272	keystroke	i	n/a
220.271	0.09	440542	keystroke	g	n/a
220.826	0.105	441652	keystroke	n	n/a
220.932	0.134	441864	keystroke	a	n/a
221.081	0.105	442162	keystroke	t	n/a
221.187	0.119	442374	keystroke	u	n/a
221.321	0.105	442642	keystroke	r	n/a
221.411	0.09	442822	keystroke	e	n/a
221.546	0.075	443092	keystroke	Key.enter	n/a
221.626	8.817	443252	prompt	n/a	same enclosed together universe\n
222.521	0.09	445042	keystroke	s	n/a
222.686	0.06	445372	keystroke	a	n/a
222.791	0.105	445582	keystroke	m	n/a
222.941	0.09	445882	keystroke	e	n/a
223.031	0.075	446062	keystroke	Key.space	n/a
223.1505	0.105	446301	keystroke	e	n/a
223.2265	0.09	446453	keystroke	n	n/a
223.3765	0.09	446753	keystroke	c	n/a
223.6915	0.06	447383	keystroke	l	n/a
223.8565	0.06	447713	keystroke	o	n/a
223.9615	0.045	447923	keystroke	s	n/a
224.4555	0.076	448911	keystroke	e	n/a
224.6365	0.045	449273	keystroke	d	n/a
224.6955	0.106	449391	keystroke	Key.space	n/a
225.5065	0.06	451013	keystroke	t	n/a
225.5815	0.09	451163	keystroke	o	n/a
225.7615	0.09	451523	keystroke	g	n/a
225.8815	0.09	451763	keystroke	h	n/a
226.4515	0.075	452903	keystroke	Key.backspace	n/a
226.9165	0.045	453833	keystroke	Key.backspace	n/a
227.7565	0.06	455513	keystroke	g	n/a
227.8915	0.075	455783	keystroke	e	n/a
228.0265	0.075	456053	keystroke	t	n/a
228.1315	0.075	456263	keystroke	h	n/a
228.2815	0.075	456563	keystroke	e	n/a
228.3105	0.136	456621	keystroke	r	n/a
228.7915	0.1045	457583	keystroke	Key.space	n/a
229.001	0.075	458002	keystroke	u	n/a
229.196	0.105	458392	keystroke	n	n/a
229.316	0.075	458632	keystroke	i	n/a
229.376	0.075	458752	keystroke	v	n/a
229.571	0.195	459142	keystroke	e	n/a
229.661	0.135	459322	keystroke	r	n/a
229.856	0.045	459712	keystroke	s	n/a
230.216	0.075	460432	keystroke	e	n/a
230.351	0.09	460702	keystroke	Key.enter	n/a
230.446	10.2265	460892	prompt	n/a	hardwood cruz florida interaction\n
231.956	0.075	463912	keystroke	h	n/a
232.046	0.165	464092	keystroke	a	n/a
232.166	0.105	464332	keystroke	r	n/a
232.391	0.075	464782	keystroke	d	n/a
232.556	0.06	465112	keystroke	w	n/a
232.631	0.06	465262	keystroke	o	n/a
232.781	0.075	465562	keystroke	o	n/a
232.946	0.12	465892	keystroke	d	n/a
233.516	0.12	467032	keystroke	Key.space	n/a
234.3705	0.091	468741	keystroke	c	n/a
234.6105	0.09	469221	keystroke	r	n/a
234.7755	0.09	469551	keystroke	u	n/a
235.0905	0.105	470181	keystroke	z	n/a
235.6305	0.12	471261	keystroke	Key.space	n/a
236.1555	0.12	472311	keystroke	f	n/a
236.2455	0.06	472491	keystroke	l	n/a
237.1005	0.06	474201	keystroke	o	n/a
237.1755	0.105	474351	keystroke	r	n/a
237.6255	0.075	475251	keystroke	i	n/a
237.7455	0.12	475491	keystroke	d	n/a
237.8505	0.12	475701	keystroke	a	n/a
238.2255	0.105	476451	keystroke	Key.space	n/a
238.6755	0.09	477351	keystroke	i	n/a
239.2605	0.12	478521	keystroke	n	n/a
239.3815	0.059	478763	keystroke	t	n/a
239.5305	0.165	479061	keystroke	e	n/a
239.6205	0.12	479241	keystroke	r	n/a
239.7555	0.135	479511	keystroke	a	n/a
239.9505	0.105	479901	keystroke	c	n/a
240.1605	0.09	480321	keystroke	t	n/a
240.2515	0.134	480503	keystroke	i	n/a
240.3405	0.09	480681	keystroke	o	n/a
240.4005	0.09	480801	keystroke	n	n/a
240.6105	0.06	481221	keystroke	Key.enter	n/a
240.6755	6.372	481351	prompt	n/a	angels holdings nails listings\n
241.3755	0.105	482751	keystroke	a	n/a
241.4655	0.105	482931	keystroke	n	n/a
241.5855	0.09	483171	keystroke	d	n/a
242.0505	0.06	484101	keystroke	Key.backspace	n/a
242.1555	0.045	484311	keystroke	g	n/a
242.2905	0.12	484581	keystroke	e	n/a
242.4555	0.075	484911	keystroke	l	n/a
242.6205	0.075	485241	keystroke	s	n/a
242.8305	0.135	485661	keystroke	Key.space	n/a
243.1455	0.09	486291	keystroke	h	n/a
243.2655	0.06	486531	keystroke	o	n/a
243.4455	0.075	486891	keystroke	l	n/a
243.5355	0.12	487071	keystroke	d	n/a
243.6105	0.165	487221	keystroke	i	n/a
243.7005	0.12	487401	keystroke	n	n/a
243.8055	0.09	487611	keystroke	g	n/a
243.9705	0.09	487941	keystroke	s	n/a
244.0755	0.075	488151	keystroke	Key.space	n/a
244.2555	0.12	488511	keystroke	n	n/a
244.3605	0.1055	488721	keystroke	a	n/a
244.481	0.06	488962	keystroke	i	n/a
244.616	0.09	489232	keystroke	l	n/a
244.751	0.075	489502	keystroke	s	n/a
244.826	0.12	489652	keystroke	Key.space	n/a
244.961	0.135	489922	keystroke	l	n/a
245.066	0.105	490132	keystroke	i	n/a
245.156	0.12	490312	keystroke	s	n/a
245.291	0.075	490582	keystroke	t	n/a
246.1605	0.18	492321	keystroke	i	n/a
246.2655	0.135	492531	keystroke	n	n/a
246.3855	0.075	492771	keystroke	g	n/a
246.536	0.105	493072	keystroke	s	n/a
246.925	0.12	493850	keystroke	Key.enter	n/a
247.05	18.0725	494100	prompt	n/a	interior winners continues comments\n
247.736	0.119	495472	keystroke	i	n/a
247.856	0.1355	495712	keystroke	n	n/a
247.9605	0.076	495921	keystroke	t	n/a
248.1115	0.119	496223	keystroke	e	n/a
248.425	0.18	496850	keystroke	i	n/a
249.0855	0.0595	498171	keystroke	Key.backspace	n/a
249.205	0.106	498410	keystroke	r	n/a
249.325	0.1055	498650	keystroke	i	n/a
249.655	0.061	499310	keystroke	o	n/a
249.745	0.091	499490	keystroke	r	n/a
250.195	0.1055	500390	keystroke	Key.space	n/a
250.541	0.0745	501082	keystroke	w	n/a
250.646	0.135	501292	keystroke	i	n/a
250.796	0.075	501592	keystroke	n	n/a
250.946	0.074	501892	keystroke	n	n/a
251.036	0.075	502072	keystroke	d	n/a
251.23	0.151	502460	keystroke	e	n/a
251.336	0.119	502672	keystroke	r	n/a
251.725	0.045	503450	keystroke	Key.backspace	n/a
251.875	0.045	503750	keystroke	Key.backspace	n/a
252.01	0.06	504020	keystroke	Key.backspace	n/a
252.176	0.135	504352	keystroke	e	n/a
252.28	0.106	504560	keystroke	r	n/a
252.595	0.091	505190	keystroke	s	n/a
252.73	0.12	505460	keystroke	Key.space	n/a
253.3005	0.1205	506601	keystroke	c	n/a
253.406	0.135	506812	keystroke	o	n/a
253.526	0.06	507052	keystroke	u	n/a
253.705	0.091	507410	keystroke	n	n/a
253.765	0.046	507530	keystroke	t	n/a
253.885	0.105	507770	keystroke	i	n/a
256.1085	0.0565	512217	keystroke	n	n/a
256.286	0.104	512572	keystroke	u	n/a
256.42	0.09	512840	keystroke	e	n/a
256.511	0.1195	513022	keystroke	s	n/a
256.645	0.1055	513290	keystroke	Key.space	n/a
257.725	0.06	515450	keystroke	Key.backspace	n/a
257.89	0.045	515780	keystroke	Key.backspace	n/a
258.04	0.045	516080	keystroke	Key.backspace	n/a
258.205	0.03	516410	keystroke	Key.backspace	n/a
258.325	0.045	516650	keystroke	Key.backspace	n/a
258.46	0.06	516920	keystroke	Key.backspace	n/a
258.61	0.06	517220	keystroke	Key.backspace	n/a
258.94	0.075	517880	keystroke	Key.backspace	n/a
259.045	0.091	518090	keystroke	t	n/a
259.196	0.09	518392	keystroke	i	n/a
259.376	0.074	518752	keystroke	n	n/a
259.571	0.059	519142	keystroke	u	n/a
259.9455	0.045	519891	keystroke	Key.backspace	n/a
260.0805	0.06	520161	keystroke	Key.backspace	n/a
260.2305	0.06	520461	keystroke	Key.backspace	n/a
260.3655	0.075	520731	keystroke	Key.backspace	n/a
260.6505	0.075	521301	keystroke	Key.backspace	n/a
260.9655	0.09	521931	keystroke	n	n/a
261.326	0.105	522652	keystroke	t	n/a
261.536	0.105	523072	keystroke	i	n/a
261.851	0.06	523702	keystroke	u	n/a
262.316	0.074	524632	keystroke	Key.backspace	n/a
262.556	0.09	525112	keystroke	n	n/a
262.766	0.075	525532	keystroke	u	n/a
262.886	0.12	525772	keystroke	e	n/a
262.991	0.105	525982	keystroke	s	n/a
263.156	0.09	526312	keystroke	Key.space	n/a
263.981	0.03	527962	keystroke	c	n/a
263.996	0.075	527992	keystroke	o	n/a
264.161	0.06	528322	keystroke	m	n/a
264.311	0.06	528622	keystroke	m	n/a
264.386	0.1195	528772	keystroke	e	n/a
264.5205	0.075	529041	keystroke	n	n/a
264.5355	0.09	529071	keystroke	t	n/a
264.7005	0.09	529401	keystroke	s	n/a
265.0305	0.09	530061	keystroke	Key.enter	n/a
265.126	16.4665	530252	prompt	n/a	politicians republic clinton competent\n
265.826	0.06	531652	keystroke	p	n/a
267.026	0.045	534052	keystroke	o	n/a
267.236	0.075	534472	keystroke	l	n/a
267.386	0.075	534772	keystroke	i	n/a
267.506	0.09	535012	keystroke	t	n/a
267.611	0.105	535222	keystroke	i	n/a
267.881	0.09	535762	keystroke	c	n/a
267.986	0.09	535972	keystroke	i	n/a
268.106	0.105	536212	keystroke	a	n/a
268.226	0.09	536452	keystroke	n	n/a
268.436	0.075	536872	keystroke	s	n/a
268.571	0.075	537142	keystroke	Key.space	n/a
269.411	0.06	538822	keystroke	r	n/a
269.456	0.075	538912	keystroke	e	n/a
269.651	0.075	539302	keystroke	p	n/a
269.846	0.06	539692	keystroke	u	n/a
270.056	0.075	540112	keystroke	b	n/a
270.266	0.12	540532	keystroke	l	n/a
270.371	0.075	540742	keystroke	i	n/a
270.476	0.105	540952	keystroke	c	n/a
270.911	0.12	541822	keystroke	Key.space	n/a
271.286	0.09	542572	keystroke	c	n/a
271.421	0.105	542842	keystroke	l	n/a
271.541	0.15	543082	keystroke	i	n/a
271.646	0.105	543292	keystroke	n	n/a
271.766	0.09	543532	keystroke	t	n/a
271.886	0.09	543772	keystroke	o	n/a
272.111	0.075	544222	keystroke	Key.space	n/a
272.321	0.105	544642	keystroke	c	n/a
272.456	0.06	544912	keystroke	o	n/a
272.876	0.045	545752	keystroke	Key.backspace	n/a
272.981	0.06	545962	keystroke	Key.backspace	n/a
273.116	0.06	546232	keystroke	Key.backspace	n/a
273.326	0.09	546652	keystroke	b	n/a
273.461	0.09	546922	keystroke	Key.space	n/a
273.596	0.105	547192	keystroke	c	n/a
273.731	0.075	547462	keystroke	o	n/a
274.061	0.03	548122	keystroke	Key.backspace	n/a
274.181	0.045	548362	keystroke	Key.backspace	n/a
274.316	0.06	548632	keystroke	Key.backspace	n/a
274.796	0.045	549592	keystroke	Key.backspace	n/a
275.846	0.03	551692	keystroke	n	n/a
276.341	0.06	552682	keystroke	Key.space	n/a
278.8325	0.013	557665	keystroke	c	n/a
279.0255	0.09	558051	keystroke	o	n/a
279.2055	0.105	558411	keystroke	m	n/a
280.1505	0.075	560301	keystroke	p	n/a
280.3005	0.105	560601	keystroke	e	n/a
280.4955	0.075	560991	keystroke	t	n/a
280.6755	0.09	561351	keystroke	e	n/a
280.8105	0.045	561621	keystroke	n	n/a
281.3505	0.09	562701	keystroke	t	n/a
281.5005	0.09	563001	keystroke	Key.enter	n/a
281.5955	7.317	563191	prompt	n/a	he's where'd myth only\n
282.296	0.09	564592	keystroke	h	n/a
282.401	0.105	564802	keystroke	e	n/a
282.986	0.165	565972	keystroke	'	n/a
283.226	0.135	566452	keystroke	s	n/a
283.66	0.15	567320	keystroke	Key.space	n/a
284.9205	0.075	569841	keystroke	w	n/a
285.0105	0.09	570021	keystroke	h	n/a
285.1155	0.09	570231	keystroke	e	n/a
285.1905	0.15	570381	keystroke	r	n/a
285.3255	0.075	570651	keystroke	e	n/a
285.5655	0.075	571131	keystroke	'	n/a
285.761	0.075	571522	keystroke	s	n/a
286.645	0.06	573290	keystroke	Key.backspace	n/a
286.75	0.075	573500	keystroke	d	n/a
286.87	0.105	573740	keystroke	Key.space	n/a
287.2	0.09	574400	keystroke	m	n/a
287.425	0.09	574850	keystroke	y	n/a
287.545	0.091	575090	keystroke	t	n/a
287.651	0.0895	575302	keystroke	h	n/a
287.8455	0.12	575691	keystroke	Key.space	n/a
288.0705	0.075	576141	keystroke	o	n/a
288.2205	0.09	576441	keystroke	n	n/a
288.3855	0.06	576771	keystroke	l	n/a
288.5655	0.09	577131	keystroke	y	n/a
288.8355	0.075	577671	keystroke	Key.enter	n/a
288.915	9.4175	577830	prompt	n/a	norfolk screens result portion\n
290.6655	0.09	581331	keystroke	n	n/a
290.8155	0.075	581631	keystroke	o	n/a
290.9805	0.06	581961	keystroke	r	n/a
291.2505	0.03	582501	keystroke	f	n/a
291.3405	0.075	582681	keystroke	o	n/a
291.5355	0.06	583071	keystroke	l	n/a
291.6405	0.0595	583281	keystroke	d	n/a
291.775	0.075	583550	keystroke	Key.space	n/a
292.015	0.075	584030	keystroke	s	n/a
292.165	0.12	584330	keystroke	c	n/a
292.45	0.15	584900	keystroke	r	n/a
292.84	0.06	585680	keystroke	Key.backspace	n/a
292.975	0.06	585950	keystroke	Key.backspace	n/a
293.125	0.045	586250	keystroke	Key.backspace	n/a
293.275	0.045	586550	keystroke	Key.backspace	n/a
293.68	0.06	587360	keystroke	Key.backspace	n/a
293.92	0.12	587840	keystroke	k	n/a
294.055	0.105	588110	keystroke	Key.space	n/a
294.295	0.06	588590	keystroke	s	n/a
294.43	0.09	588860	keystroke	c	n/a
294.64	0.15	589280	keystroke	r	n/a
294.805	0.06	589610	keystroke	e	n/a
294.97	0.075	589940	keystroke	e	n/a
295.51	0.09	591020	keystroke	n	n/a
295.616	0.104	591232	keystroke	s	n/a
295.705	0.105	591410	keystroke	Key.space	n/a
295.825	0.165	591650	keystroke	r	n/a
295.945	0.105	591890	keystroke	e	n/a
296.14	0.105	592280	keystroke	s	n/a
296.246	0.119	592492	keystroke	u	n/a
296.395	0.105	592790	keystroke	l	n/a
296.545	0.105	593090	keystroke	t	n/a
296.695	0.105	593390	keystroke	Key.space	n/a
297.2805	0.06	594561	keystroke	p	n/a
297.4305	0.075	594861	keystroke	o	n/a
297.5355	0.029	595071	keystroke	r	n/a
297.6855	0.044	595371	keystroke	t	n/a
297.7455	0.1045	595491	keystroke	i	n/a
297.9105	0.135	595821	keystroke	o	n/a
298.0305	0.06	596061	keystroke	n	n/a
298.2705	0.06	596541	keystroke	Key.enter	n/a
298.335	9.4165	596670	prompt	n/a	lonely designated innovative cigarette\n
299.065	0.06	598130	keystroke	l	n/a
299.23	0.105	598460	keystroke	o	n/a
299.305	0.105	598610	keystroke	n	n/a
299.425	0.075	598850	keystroke	e	n/a
299.545	0.06	599090	keystroke	l	n/a
299.725	0.105	599450	keystroke	y	n/a
299.845	0.135	599690	keystroke	Key.space	n/a
300.085	0.06	600170	keystroke	d	n/a
300.22	0.075	600440	keystroke	e	n/a
300.4	0.075	600800	keystroke	s	n/a
300.49	0.105	600980	keystroke	i	n/a
300.685	0.06	601370	keystroke	g	n/a
300.79	0.09	601580	keystroke	n	n/a
300.91	0.075	601820	keystroke	a	n/a
301.03	0.06	602060	keystroke	t	n/a
301.195	0.075	602390	keystroke	e	n/a
301.405	0.06	602810	keystroke	d	n/a
301.525	0.105	603050	keystroke	Key.space	n/a
301.69	0.12	603380	keystroke	i	n/a
301.825	0.075	603650	keystroke	n	n/a
302.08	0.09	604160	keystroke	n	n/a
302.245	0.075	604490	keystroke	o	n/a
302.335	0.075	604670	keystroke	v	n/a
302.515	0.075	605030	keystroke	a	n/a
302.65	0.075	605300	keystroke	t	n/a
302.785	0.09	605570	keystroke	i	n/a
303.73	0.075	607460	keystroke	v	n/a
303.85	0.09	607700	keystroke	e	n/a
304	0.045	608000	keystroke	Key.space	n/a
305.8445	0.09	611689	keystroke	c	n/a
305.9495	0.09	611899	keystroke	i	n/a
306.3545	0.075	612709	keystroke	g	n/a
306.4895	0.0905	612979	keystroke	a	n/a
306.625	0.15	613250	keystroke	r	n/a
306.76	0.09	613520	keystroke	e	n/a
307.285	0.06	614570	keystroke	t	n/a
307.405	0.06	614810	keystroke	t	n/a
307.54	0.075	615080	keystroke	e	n/a
307.675	0.075	615350	keystroke	Key.enter	n/a
307.757	10.0295	615514	prompt	n/a	advisor displayed chargers masters\n
308.635	0.075	617270	keystroke	a	n/a
308.785	0.09	617570	keystroke	d	n/a
308.95	0.09	617900	keystroke	i	n/a
309.055	0.105	618110	keystroke	v	n/a
309.655	0.075	619310	keystroke	s	n/a
309.775	0.075	619550	keystroke	o	n/a
310.135	0.045	620270	keystroke	Key.backspace	n/a
310.285	0.06	620570	keystroke	Key.backspace	n/a
310.42	0.045	620840	keystroke	Key.backspace	n/a
310.555	0.045	621110	keystroke	Key.backspace	n/a
311.455	0.075	622910	keystroke	v	n/a
311.575	0.075	623150	keystroke	i	n/a
311.77	0.09	623540	keystroke	s	n/a
311.89	0.09	623780	keystroke	o	n/a
311.995	0.09	623990	keystroke	r	n/a
312.16	0.075	624320	keystroke	Key.space	n/a
312.655	0.03	625310	keystroke	d	n/a
312.7	0.075	625400	keystroke	i	n/a
313.255	0.0605	626510	keystroke	s	n/a
313.3595	0.09	626719	keystroke	p	n/a
313.5705	0.074	627141	keystroke	l	n/a
313.6595	0.061	627319	keystroke	a	n/a
313.7795	0.105	627559	keystroke	y	n/a
313.8995	0.09	627799	keystroke	e	n/a
314.0945	0.075	628189	keystroke	d	n/a
314.1995	0.09	628399	keystroke	Key.space	n/a
314.4395	0.09	628879	keystroke	c	n/a
314.5445	0.075	629089	keystroke	h	n/a
314.6345	0.09	629269	keystroke	a	n/a
314.965	0.06	629930	keystroke	r	n/a
315.16	0.06	630320	keystroke	g	n/a
315.31	0.105	630620	keystroke	e	n/a
315.715	0.06	631430	keystroke	r	n/a
315.88	0.06	631760	keystroke	s	n/a
316	0.135	632000	keystroke	Key.space	n/a
316.165	0.09	632330	keystroke	m	n/a
316.27	0.06	632540	keystroke	a	n/a
316.45	0.075	632900	keystroke	s	n/a
316.585	0.09	633170	keystroke	t	n/a
316.765	0.135	633530	keystroke	e	n/a
316.885	0.06	633770	keystroke	r	n/a
317.56	0.045	635120	keystroke	s	n/a
317.74	0.045	635480	keystroke	Key.enter	n/a
317.79	8.0215	635580	prompt	n/a	simple ampland highway isle\n
318.7605	0.06	637521	keystroke	s	n/a
318.8655	0.105	637731	keystroke	i	n/a
319.855	0.09	639710	keystroke	m	n/a
320.065	0.03	640130	keystroke	p	n/a
320.245	0.06	640490	keystroke	l	n/a
320.35	0.09	640700	keystroke	e	n/a
320.485	0.09	640970	keystroke	Key.space	n/a
320.905	0.06	641810	keystroke	a	n/a
321.4305	0.06	642861	keystroke	m	n/a
322.1955	0.045	644391	keystroke	p	n/a
322.3905	0.074	644781	keystroke	l	n/a
322.5255	0.06	645051	keystroke	a	n/a
322.6005	0.09	645201	keystroke	n	n/a
322.7495	0.09	645499	keystroke	d	n/a
322.8705	0.089	645741	keystroke	Key.space	n/a
323.0495	0.076	646099	keystroke	h	n/a
323.1855	0.09	646371	keystroke	i	n/a
323.2905	0.075	646581	keystroke	g	n/a
323.3955	0.06	646791	keystroke	h	n/a
323.8605	0.075	647721	keystroke	w	n/a
323.9805	0.105	647961	keystroke	a	n/a
324.1445	0.091	648289	keystroke	y	n/a
324.4005	0.089	648801	keystroke	Key.space	n/a
325.0745	0.091	650149	keystroke	i	n/a
325.2255	0.075	650451	keystroke	s	n/a
325.3755	0.074	650751	keystroke	l	n/a
325.4655	0.059	650931	keystroke	e	n/a
325.7655	0.044	651531	keystroke	Key.enter	n/a
325.815	9.9265	651630	prompt	n/a	annotated center leaving fitted\n
326.605	0.09	653210	keystroke	a	n/a
326.74	0.06	653480	keystroke	n	n/a
326.905	0.06	653810	keystroke	n	n/a
327.04	0.09	654080	keystroke	o	n/a
328.57	0.09	657140	keystroke	t	n/a
328.72	0.09	657440	keystroke	a	n/a
328.825	0.075	657650	keystroke	t	n/a
328.99	0.06	657980	keystroke	e	n/a
329.17	0.075	658340	keystroke	d	n/a
329.275	0.09	658550	keystroke	Key.space	n/a
330.3545	0.075	660709	keystroke	c	n/a
330.5195	0.09	661039	keystroke	e	n/a
330.6245	0.09	661249	keystroke	n	n/a
330.6995	0.075	661399	keystroke	t	n/a
330.8795	0.106	661759	keystroke	e	n/a
331.0305	0.0595	662061	keystroke	r	n/a
331.15	0.09	662300	keystroke	Key.space	n/a
331.435	0.075	662870	keystroke	l	n/a
331.495	0.135	662990	keystroke	e	n/a
331.615	0.06	663230	keystroke	a	n/a
331.795	0.075	663590	keystroke	v	n/a
331.8995	0.15	663799	keystroke	i	n/a
332.0945	0.09	664189	keystroke	g	n/a
332.2145	0.12	664429	keystroke	Key.space	n/a
332.9345	0.06	665869	keystroke	Key.backspace	n/a
333.0695	0.06	666139	keystroke	Key.backspace	n/a
333.3545	0.06	666709	keystroke	n	n/a
333.7895	0.075	667579	keystroke	d	n/a
334.375	0.06	668750	keystroke	Key.backspace	n/a
334.42	0.09	668840	keystroke	g	n/a
334.6295	0.105	669259	keystroke	Key.space	n/a
334.8995	0.09	669799	keystroke	f	n/a
335.0045	0.06	670009	keystroke	i	n/a
335.1095	0.06	670219	keystroke	t	n/a
335.2445	0.045	670489	keystroke	t	n/a
335.3645	0.06	670729	keystroke	e	n/a
335.5295	0.06	671059	keystroke	d	n/a
335.6945	0.045	671389	keystroke	Key.enter	n/a
335.7445	14.802	671489	prompt	n/a	miscellaneous computing assault disorders\n
336.6395	0.105	673279	keystroke	n	n/a
336.8195	0.09	673639	keystroke	i	n/a
337.0145	0.075	674029	keystroke	s	n/a
337.2095	0.075	674419	keystroke	c	n/a
337.3595	0.0605	674719	keystroke	e	n/a
337.51	0.045	675020	keystroke	l	n/a
337.645	0.06	675290	keystroke	l	n/a
338.125	0.06	676250	keystroke	a	n/a
338.41	0.09	676820	keystroke	n	n/a
339.16	0.09	678320	keystroke	e	n/a
340.54	0.15	681080	keystroke	o	n/a
340.675	0.12	681350	keystroke	u	n/a
340.915	0.06	681830	keystroke	s	n/a
341.335	0.135	682670	keystroke	Key.space	n/a
342.07	0.105	684140	keystroke	c	n/a
342.19	0.09	684380	keystroke	o	n/a
342.295	0.09	684590	keystroke	m	n/a
342.49	0.09	684980	keystroke	p	n/a
342.715	0.105	685430	keystroke	u	n/a
342.835	0.075	685670	keystroke	t	n/a
342.955	0.135	685910	keystroke	i	n/a
343.03	0.105	686060	keystroke	n	n/a
343.165	0.06	686330	keystroke	g	n/a
343.27	0.0895	686540	keystroke	Key.space	n/a
343.4195	0.06	686839	keystroke	a	n/a
343.5845	0.06	687169	keystroke	s	n/a
343.7645	0.045	687529	keystroke	s	n/a
344.1245	0.09	688249	keystroke	a	n/a
344.2605	0.075	688521	keystroke	u	n/a
344.4245	0.06	688849	keystroke	l	n/a
344.5305	0.075	689061	keystroke	t	n/a
344.9045	0.12	689809	keystroke	Key.space	n/a
345.4295	0.105	690859	keystroke	d	n/a
345.5505	0.105	691101	keystroke	i	n/a
345.7145	0.091	691429	keystroke	s	n/a
345.8195	0.09	691639	keystroke	o	n/a
346.495	0.09	692990	keystroke	r	n/a
346.765	0.105	693530	keystroke	f	n/a
346.99	0.135	693980	keystroke	e	n/a
347.095	0.09	694190	keystroke	r	n/a
347.455	0.045	694910	keystroke	Key.backspace	n/a
347.59	0.06	695180	keystroke	Key.backspace	n/a
347.725	0.03	695450	keystroke	Key.backspace	n/a
348.655	0.075	697310	keystroke	d	n/a
348.85	0.12	697700	keystroke	e	n/a
348.955	0.09	697910	keystroke	r	n/a
349.075	0.09	698150	keystroke	Key.space	n/a
350.035	0.09	700070	keystroke	Key.backspace	n/a
350.2295	0.06	700459	keystroke	s	n/a
350.4695	0.075	700939	keystroke	Key.enter	n/a
350.5495	10.122	701099	prompt	n/a	glen subscription operations veterans\n
352.195	0.06	704390	keystroke	g	n/a
352.36	0.075	704720	keystroke	l	n/a
352.465	0.075	704930	keystroke	e	n/a
352.585	0.165	705170	keystroke	n	n/a
352.735	0.09	705470	keystroke	Key.space	n/a
352.9455	0.09	705891	keystroke	s	n/a
353.1245	0.075	706249	keystroke	u	n/a
353.3805	0.075	706761	keystroke	b	n/a
353.6055	0.074	707211	keystroke	s	n/a
353.8905	0.06	707781	keystroke	c	n/a
354.1755	0.06	708351	keystroke	r	n/a
354.2805	0.089	708561	keystroke	i	n/a
355.0305	0.075	710061	keystroke	p	n/a
355.3305	0.06	710661	keystroke	t	n/a
355.4495	0.15	710899	keystroke	i	n/a
355.5705	0.119	711141	keystroke	o	n/a
355.6605	0.09	711321	keystroke	n	n/a
355.9895	0.105	711979	keystroke	Key.space	n/a
356.1855	0.075	712371	keystroke	o	n/a
356.3805	0.075	712761	keystroke	p	n/a
356.4695	0.136	712939	keystroke	e	n/a
356.5445	0.121	713089	keystroke	r	n/a
356.7105	0.12	713421	keystroke	a	n/a
356.8145	0.106	713629	keystroke	t	n/a
356.9495	0.12	713899	keystroke	i	n/a
357.0245	0.181	714049	keystroke	o	n/a
357.1755	0.105	714351	keystroke	n	n/a
357.2945	0.075	714589	keystroke	s	n/a
357.4445	0.09	714889	keystroke	Key.space	n/a
357.8645	0.06	715729	keystroke	v	n/a
358.0445	0.136	716089	keystroke	e	n/a
358.1205	0.179	716241	keystroke	r	n/a
358.9145	0.09	717829	keystroke	Key.backspace	n/a
359.0355	0.075	718071	keystroke	t	n/a
359.2145	0.136	718429	keystroke	e	n/a
359.3355	0.09	718671	keystroke	r	n/a
359.4995	0.09	718999	keystroke	a	n/a
359.6955	0.105	719391	keystroke	n	n/a
359.8145	0.1055	719629	keystroke	s	n/a
360.595	0.075	721190	keystroke	Key.enter	n/a
360.6745	6.957	721349	prompt	n/a	type crossing reputation rugs\n
362.05	0.075	724100	keystroke	t	n/a
362.305	0.09	724610	keystroke	y	n/a
362.5	0.105	725000	keystroke	p	n/a
362.65	0.075	725300	keystroke	e	n/a
362.74	0.105	725480	keystroke	Key.space	n/a
362.92	0.09	725840	keystroke	c	n/a
363.115	0.06	726230	keystroke	r	n/a
363.19	0.09	726380	keystroke	o	n/a
363.325	0.075	726650	keystroke	s	n/a
363.475	0.075	726950	keystroke	s	n/a
363.58	0.105	727160	keystroke	i	n/a
363.64	0.105	727280	keystroke	n	n/a
363.76	0.075	727520	keystroke	g	n/a
363.85	0.105	727700	keystroke	Key.space	n/a
364.06	0.09	728120	keystroke	p	n/a
364.675	0.075	729350	keystroke	Key.backspace	n/a
364.765	0.09	729530	keystroke	r	n/a
364.885	0.075	729770	keystroke	e	n/a
365.185	0.135	730370	keystroke	p	n/a
365.56	0.09	731120	keystroke	u	n/a
365.9045	0.075	731809	keystroke	t	n/a
366.0695	0.15	732139	keystroke	a	n/a
366.1895	0.105	732379	keystroke	t	n/a
366.3245	0.135	732649	keystroke	i	n/a
366.4445	0.1055	732889	keystroke	o	n/a
366.5045	0.1505	733009	keystroke	n	n/a
366.67	0.0895	733340	keystroke	Key.space	n/a
366.9095	0.105	733819	keystroke	r	n/a
367.0595	0.0905	734119	keystroke	u	n/a
367.165	0.0745	734330	keystroke	g	n/a
367.2995	0.09	734599	keystroke	s	n/a
367.5545	0.075	735109	keystroke	Key.enter	n/a
367.636	10.3305	735272	prompt	n/a	ways zealand locked counseling\n
368.3945	0.105	736789	keystroke	w	n/a
368.5295	0.105	737059	keystroke	a	n/a
368.6495	0.105	737299	keystroke	y	n/a
368.7995	0.105	737599	keystroke	s	n/a
368.9195	0.09	737839	keystroke	Key.space	n/a
369.235	0.075	738470	keystroke	s	n/a
369.355	0.135	738710	keystroke	e	n/a
369.475	0.075	738950	keystroke	a	n/a
369.805	0.06	739610	keystroke	Key.backspace	n/a
369.97	0.03	739940	keystroke	Key.backspace	n/a
370.105	0.06	740210	keystroke	Key.backspace	n/a
370.15	0.06	740300	keystroke	z	n/a
370.315	0.105	740630	keystroke	e	n/a
370.495	0.09	740990	keystroke	a	n/a
370.825	0.09	741650	keystroke	l	n/a
371.05	0.03	742100	keystroke	a	n/a
371.065	0.12	742130	keystroke	n	n/a
371.26	0.075	742520	keystroke	d	n/a
371.8145	0.105	743629	keystroke	Key.space	n/a
374.1425	0.028	748285	keystroke	l	n/a
374.2895	0.075	748579	keystroke	o	n/a
374.3945	0.09	748789	keystroke	c	n/a
374.4995	0.076	748999	keystroke	k	n/a
374.6045	0.06	749209	keystroke	e	n/a
374.7705	0.06	749541	keystroke	d	n/a
374.8445	0.075	749689	keystroke	Key.space	n/a
374.9645	0.075	749929	keystroke	c	n/a
375.0995	0.106	750199	keystroke	o	n/a
376.165	0.06	752330	keystroke	u	n/a
376.3745	0.075	752749	keystroke	n	n/a
376.4945	0.061	752989	keystroke	d	n/a
376.929	0.075	753858	keystroke	Key.backspace	n/a
377.05	0.119	754100	keystroke	s	n/a
377.139	0.091	754278	keystroke	e	n/a
377.289	0.06	754578	keystroke	l	n/a
377.484	0.135	754968	keystroke	i	n/a
377.589	0.12	755178	keystroke	n	n/a
377.725	0.074	755450	keystroke	g	n/a
377.904	0.06	755808	keystroke	Key.enter	n/a
377.97	7.9165	755940	prompt	n/a	moisture contamination terry classic\n
378.82	0.089	757640	keystroke	m	n/a
378.939	0.12	757878	keystroke	o	n/a
379.074	0.12	758148	keystroke	i	n/a
379.255	0.074	758510	keystroke	s	n/a
379.374	0.105	758748	keystroke	t	n/a
379.524	0.0755	759048	keystroke	u	n/a
379.6295	0.12	759259	keystroke	r	n/a
379.7495	0.09	759499	keystroke	e	n/a
379.8695	0.09	759739	keystroke	Key.space	n/a
380.034	0.09	760068	keystroke	c	n/a
380.139	0.12	760278	keystroke	o	n/a
380.2145	0.135	760429	keystroke	n	n/a
380.5445	0.135	761089	keystroke	t	n/a
380.7395	0.075	761479	keystroke	a	n/a
381.0095	0.075	762019	keystroke	m	n/a
381.1145	0.135	762229	keystroke	i	n/a
381.2345	0.076	762469	keystroke	n	n/a
381.3255	0.119	762651	keystroke	a	n/a
381.3995	0.105	762799	keystroke	t	n/a
381.5345	0.075	763069	keystroke	i	n/a
381.5945	0.15	763189	keystroke	o	n/a
381.7145	0.1045	763429	keystroke	n	n/a
381.939	0.09	763878	keystroke	Key.space	n/a
382.119	0.06	764238	keystroke	t	n/a
382.254	0.12	764508	keystroke	e	n/a
382.509	0.045	765018	keystroke	r	n/a
382.599	0.12	765198	keystroke	y	n/a
382.734	0.1205	765468	keystroke	Key.space	n/a
383.3795	0.06	766759	keystroke	Key.backspace	n/a
383.5145	0.06	767029	keystroke	Key.backspace	n/a
383.5895	0.075	767179	keystroke	r	n/a
383.7845	0.06	767569	keystroke	y	n/a
384.3545	0.105	768709	keystroke	Key.space	n/a
384.5345	0.075	769069	keystroke	c	n/a
384.6395	0.075	769279	keystroke	l	n/a
384.7295	0.06	769459	keystroke	a	n/a
384.8945	0.06	769789	keystroke	s	n/a
385.0295	0.06	770059	keystroke	s	n/a
385.2395	0.075	770479	keystroke	i	n/a
385.6145	0.0755	771229	keystroke	c	n/a
385.795	0.09	771590	keystroke	Key.enter	n/a
385.8895	5.7125	771779	prompt	n/a	holmes tell round trend\n
386.605	0.075	773210	keystroke	h	n/a
386.74	0.075	773480	keystroke	o	n/a
386.965	0.135	773930	keystroke	l	n/a
387.325	0.06	774650	keystroke	m	n/a
387.43	0.105	774860	keystroke	e	n/a
387.58	0.075	775160	keystroke	s	n/a
387.715	0.105	775430	keystroke	Key.space	n/a
388.2545	0.045	776509	keystroke	t	n/a
388.3745	0.06	776749	keystroke	e	n/a
388.4795	0.045	776959	keystroke	l	n/a
388.6295	0.105	777259	keystroke	l	n/a
388.7495	0.075	777499	keystroke	Key.space	n/a
388.8395	0.075	777679	keystroke	r	n/a
388.9445	0.12	777889	keystroke	o	n/a
389.0495	0.075	778099	keystroke	u	n/a
389.2445	0.09	778489	keystroke	n	n/a
389.4095	0.075	778819	keystroke	d	n/a
390.0995	0.12	780199	keystroke	Key.space	n/a
390.2645	0.075	780529	keystroke	t	n/a
390.8495	0.09	781699	keystroke	r	n/a
390.9695	0.09	781939	keystroke	e	n/a
391.1495	0.06	782299	keystroke	n	n/a
391.2995	0.075	782599	keystroke	d	n/a
391.5395	0.06	783079	keystroke	Key.enter	n/a
391.6055	8.7715	783211	prompt	n/a	alone funded punch respective\n
392.2745	0.09	784549	keystroke	a	n/a
392.4245	0.06	784849	keystroke	l	n/a
392.5895	0.105	785179	keystroke	o	n/a
392.6645	0.12	785329	keystroke	n	n/a
392.7995	0.06	785599	keystroke	e	n/a
392.8745	0.105	785749	keystroke	Key.space	n/a
393.1145	0.075	786229	keystroke	u	n/a
393.4745	0.06	786949	keystroke	Key.backspace	n/a
393.6245	0.06	787249	keystroke	f	n/a
393.7295	0.075	787459	keystroke	u	n/a
393.9395	0.09	787879	keystroke	n	n/a
394.0445	0.06	788089	keystroke	d	n/a
394.1795	0.06	788359	keystroke	e	n/a
394.3745	0.06	788749	keystroke	d	n/a
394.8245	0.105	789649	keystroke	Key.space	n/a
395.7245	0.075	791449	keystroke	p	n/a
395.9495	0.075	791899	keystroke	u	n/a
396.1895	0.09	792379	keystroke	n	n/a
396.759	0.09	793518	keystroke	c	n/a
396.984	0.12	793968	keystroke	h	n/a
397.074	0.12	794148	keystroke	Key.space	n/a
397.239	0.135	794478	keystroke	r	n/a
397.404	0.12	794808	keystroke	e	n/a
397.899	0.06	795798	keystroke	s	n/a
398.709	0.105	797418	keystroke	p	n/a
398.799	0.075	797598	keystroke	e	n/a
398.964	0.075	797928	keystroke	c	n/a
399.189	0.09	798378	keystroke	t	n/a
399.309	0.09	798618	keystroke	i	n/a
399.489	0.075	798978	keystroke	v	n/a
399.609	0.09	799218	keystroke	e	n/a
400.269	0.105	800538	keystroke	Key.enter	n/a
400.3815	9.1145	800763	prompt	n/a	praise sandwich aboriginal driving\n
401.259	0.09	802518	keystroke	p	n/a
401.409	0.105	802818	keystroke	r	n/a
401.544	0.075	803088	keystroke	a	n/a
401.679	0.09	803358	keystroke	i	n/a
401.829	0.12	803658	keystroke	s	n/a
401.919	0.105	803838	keystroke	e	n/a
402.069	0.09	804138	keystroke	Key.space	n/a
402.234	0.09	804468	keystroke	s	n/a
402.954	0.09	805908	keystroke	a	n/a
403.089	0.075	806178	keystroke	n	n/a
403.239	0.09	806478	keystroke	d	n/a
403.614	0.045	807228	keystroke	w	n/a
403.704	0.105	807408	keystroke	i	n/a
403.824	0.09	807648	keystroke	c	n/a
403.944	0.09	807888	keystroke	h	n/a
404.334	0.09	808668	keystroke	Key.space	n/a
405.415	0.09	810830	keystroke	a	n/a
405.88	0.06	811760	keystroke	b	n/a
406.104	0.105	812208	keystroke	o	n/a
406.284	0.105	812568	keystroke	r	n/a
406.434	0.09	812868	keystroke	i	n/a
407.064	0.075	814128	keystroke	g	n/a
407.184	0.135	814368	keystroke	i	n/a
407.289	0.12	814578	keystroke	n	n/a
407.439	0.06	814878	keystroke	a	n/a
407.574	0.135	815148	keystroke	l	n/a
407.754	0.105	815508	keystroke	Key.space	n/a
408.084	0.075	816168	keystroke	d	n/a
408.564	0.09	817128	keystroke	r	n/a
408.699	0.09	817398	keystroke	i	n/a
408.8495	0.075	817699	keystroke	v	n/a
408.9395	0.15	817879	keystroke	i	n/a
409.0745	0.075	818149	keystroke	n	n/a
409.1645	0.075	818329	keystroke	g	n/a
409.4345	0.06	818869	keystroke	Key.enter	n/a
409.499	19.1215	818998	prompt	n/a	tripadvisor messages tions distribution\n
410.439	0.06	820878	keystroke	t	n/a
410.634	0.06	821268	keystroke	r	n/a
410.709	0.09	821418	keystroke	i	n/a
410.859	0.105	821718	keystroke	p	n/a
411.069	0.075	822138	keystroke	a	n/a
411.669	0.09	823338	keystroke	d	n/a
412.089	0.075	824178	keystroke	v	n/a
412.494	0.06	824988	keystroke	i	n/a
412.974	0.06	825948	keystroke	s	n/a
413.094	0.06	826188	keystroke	o	n/a
413.184	0.075	826368	keystroke	r	n/a
413.769	0.105	827538	keystroke	Key.space	n/a
414.054	0.105	828108	keystroke	m	n/a
414.324	0.076	828648	keystroke	e	n/a
414.535	0.059	829070	keystroke	s	n/a
414.669	0.09	829338	keystroke	s	n/a
414.909	0.105	829818	keystroke	g	n/a
415.149	0.15	830298	keystroke	e	n/a
415.285	0.134	830570	keystroke	s	n/a
415.509	0.09	831018	keystroke	Key.space	n/a
416.169	0.09	832338	keystroke	t	n/a
416.289	0.12	832578	keystroke	i	n/a
416.394	0.15	832788	keystroke	o	n/a
416.499	0.135	832998	keystroke	n	n/a
416.71	0.074	833420	keystroke	s	n/a
418.7335	0.0155	837467	keystroke	Key.backspace	n/a
419.3485	0.045	838697	keystroke	Key.backspace	n/a
419.5135	0.03	839027	keystroke	Key.backspace	n/a
419.649	0.06	839298	keystroke	Key.backspace	n/a
419.799	0.06	839598	keystroke	Key.backspace	n/a
419.9645	0.045	839929	keystroke	Key.backspace	n/a
420.0995	0.06	840199	keystroke	Key.backspace	n/a
420.2645	0.03	840529	keystroke	Key.backspace	n/a
420.4145	0.03	840829	keystroke	Key.backspace	n/a
421.1345	0.12	842269	keystroke	a	n/a
421.3595	0.09	842719	keystroke	g	n/a
421.539	0.15	843078	keystroke	e	n/a
421.704	0.075	843408	keystroke	s	n/a
421.914	0.135	843828	keystroke	Key.space	n/a
422.229	0.015	844458	keystroke	t	n/a
422.259	0.135	844518	keystroke	i	n/a
422.379	0.165	844758	keystroke	o	n/a
422.514	0.105	845028	keystroke	n	n/a
422.694	0.105	845388	keystroke	s	n/a
422.844	0.105	845688	keystroke	Key.space	n/a
423.204	0.105	846408	keystroke	d	n/a
424.9885	0.075	849977	keystroke	i	n/a
425.6335	0.045	851267	keystroke	s	n/a
425.8285	0.0905	851657	keystroke	t	n/a
426.039	0.06	852078	keystroke	r	n/a
426.159	0.075	852318	keystroke	i	n/a
427.314	0.21	854628	keystroke	b	n/a
427.554	0.075	855108	keystroke	u	n/a
427.914	0.0595	855828	keystroke	t	n/a
428.0185	0.12	856037	keystroke	i	n/a
428.1235	0.135	856247	keystroke	o	n/a
428.2285	0.135	856457	keystroke	n	n/a
428.5585	0.06	857117	keystroke	Key.enter	n/a
428.6235	9.117	857247	prompt	n/a	regard empire russia refurbished\n
429.5485	0.045	859097	keystroke	r	n/a
429.6535	0.075	859307	keystroke	e	n/a
429.8185	0.09	859637	keystroke	g	n/a
429.9685	0.165	859937	keystroke	a	n/a
430.0735	0.105	860147	keystroke	r	n/a
430.2985	0.09	860597	keystroke	d	n/a
430.3735	0.105	860747	keystroke	Key.space	n/a
430.4935	0.075	860987	keystroke	e	n/a
430.5985	0.135	861197	keystroke	m	n/a
430.7635	0.03	861527	keystroke	i	n/a
431.3635	0.075	862727	keystroke	Key.backspace	n/a
431.6195	0.074	863239	keystroke	p	n/a
431.8135	0.09	863627	keystroke	i	n/a
431.9335	0.135	863867	keystroke	r	n/a
432.0385	0.09	864077	keystroke	e	n/a
432.3085	0.09	864617	keystroke	Key.space	n/a
432.8485	0.045	865697	keystroke	r	n/a
432.9385	0.075	865877	keystroke	u	n/a
433.0885	0.075	866177	keystroke	s	n/a
433.2385	0.06	866477	keystroke	s	n/a
433.3285	0.075	866657	keystroke	i	n/a
433.7635	0.09	867527	keystroke	a	n/a
433.9135	0.105	867827	keystroke	Key.space	n/a
434.3035	0.06	868607	keystroke	r	n/a
434.5135	0.075	869027	keystroke	e	n/a
434.8735	0.075	869747	keystroke	b	n/a
435.0985	0.076	870197	keystroke	u	n/a
435.4735	0.075	870947	keystroke	r	n/a
436.3585	0.105	872717	keystroke	n	n/a
436.5235	0.075	873047	keystroke	i	n/a
436.6285	0.075	873257	keystroke	s	n/a
436.7485	0.06	873497	keystroke	h	n/a
436.8385	0.075	873677	keystroke	e	n/a
437.0485	0.03	874097	keystroke	d	n/a
437.1085	0.0605	874217	keystroke	Key.space	n/a
437.664	0.075	875328	keystroke	Key.enter	n/a
437.744	9.9115	875488	prompt	n/a	void load animals enclosure\n
439.5235	0.03	879047	keystroke	v	n/a
439.5835	0.105	879167	keystroke	o	n/a
439.6735	0.12	879347	keystroke	i	n/a
440.124	0.075	880248	keystroke	d	n/a
440.259	0.104	880518	keystroke	Key.space	n/a
440.844	0.075	881688	keystroke	l	n/a
441.039	0.045	882078	keystroke	o	n/a
441.054	0.075	882108	keystroke	a	n/a
441.9085	0.06	883817	keystroke	d	n/a
442.0735	0.09	884147	keystroke	Key.space	n/a
442.2995	0.059	884599	keystroke	a	n/a
442.464	0.075	884928	keystroke	n	n/a
442.599	0.09	885198	keystroke	i	n/a
442.884	0.015	885768	keystroke	m	n/a
442.929	0.06	885858	keystroke	a	n/a
443.004	0.09	886008	keystroke	l	n/a
443.154	0.06	886308	keystroke	s	n/a
443.229	0.09	886458	keystroke	Key.space	n/a
443.349	0.075	886698	keystroke	e	n/a
443.454	0.09	886908	keystroke	n	n/a
443.694	0.105	887388	keystroke	c	n/a
443.844	0.105	887688	keystroke	o	n/a
443.919	0.09	887838	keystroke	u	n/a
445.3435	0.06	890687	keystroke	Key.backspace	n/a
445.4935	0.06	890987	keystroke	Key.backspace	n/a
446.739	0.045	893478	keystroke	l	n/a
446.9195	0.074	893839	keystroke	o	n/a
447.069	0.075	894138	keystroke	s	n/a
447.1745	0.089	894349	keystroke	u	n/a
447.2785	0.121	894557	keystroke	r	n/a
447.3845	0.089	894769	keystroke	e	n/a
447.5785	0.075	895157	keystroke	Key.enter	n/a
447.659	11.7565	895318	prompt	n/a	database entity echo text\n
448.4035	0.075	896807	keystroke	d	n/a
448.8235	0.015	897647	keystroke	a	n/a
448.9285	0.12	897857	keystroke	t	n/a
449.0635	0.09	898127	keystroke	a	n/a
449.5285	0.075	899057	keystroke	b	n/a
449.6635	0.06	899327	keystroke	a	n/a
449.8285	0.121	899657	keystroke	s	n/a
449.9185	0.105	899837	keystroke	e	n/a
450.0535	0.09	900107	keystroke	Key.space	n/a
451.2985	0.06	902597	keystroke	e	n/a
451.4185	0.075	902837	keystroke	b	n/a
451.6285	0.09	903257	keystroke	t	n/a
451.7335	0.09	903467	keystroke	i	n/a
451.9285	0.075	903857	keystroke	t	n/a
452.1085	0.075	904217	keystroke	y	n/a
452.6185	0.045	905237	keystroke	Key.backspace	n/a
452.7835	0.03	905567	keystroke	Key.backspace	n/a
452.9035	0.06	905807	keystroke	Key.backspace	n/a
453.0385	0.06	906077	keystroke	Key.backspace	n/a
453.2935	0.075	906587	keystroke	n	n/a
453.6535	0.045	907307	keystroke	Key.backspace	n/a
453.7885	0.06	907577	keystroke	Key.backspace	n/a
454.1335	0.09	908267	keystroke	n	n/a
455.0185	0.075	910037	keystroke	t	n/a
455.1685	0.105	910337	keystroke	i	n/a
455.4385	0.09	910877	keystroke	t	n/a
455.6635	0.105	911327	keystroke	y	n/a
455.9035	0.075	911807	keystroke	Key.space	n/a
456.2785	0.075	912557	keystroke	e	n/a
456.4735	0.09	912947	keystroke	c	n/a
456.6085	0.091	913217	keystroke	h	n/a
456.7735	0.075	913547	keystroke	o	n/a
456.9985	0.075	913997	keystroke	Key.space	n/a
457.1035	0.09	914207	keystroke	t	n/a
457.2395	0.074	914479	keystroke	e	n/a
458.544	0.075	917088	keystroke	x	n/a
458.754	0.06	917508	keystroke	t	n/a
459.324	0.09	918648	keystroke	Key.enter	n/a
459.4185	6.822	918837	prompt	n/a	urban animals losses contact\n
460.929	0.075	921858	keystroke	u	n/a
461.124	0.075	922248	keystroke	r	n/a
461.409	0.075	922818	keystroke	b	n/a
461.559	0.09	923118	keystroke	a	n/a
461.709	0.135	923418	keystroke	n	n/a
461.829	0.09	923658	keystroke	Key.space	n/a
461.949	0.075	923898	keystroke	a	n/a
462.084	0.09	924168	keystroke	n	n/a
462.324	0.015	924648	keystroke	i	n/a
462.954	0.09	925908	keystroke	m	n/a
463.104	0.075	926208	keystroke	a	n/a
463.209	0.075	926418	keystroke	l	n/a
463.629	0.09	927258	keystroke	s	n/a
463.749	0.105	927498	keystroke	Key.space	n/a
463.884	0.09	927768	keystroke	l	n/a
464.079	0.06	928158	keystroke	o	n/a
464.244	0.06	928488	keystroke	s	n/a
464.409	0.06	928818	keystroke	s	n/a
464.574	0.09	929148	keystroke	e	n/a
464.799	0.09	929598	keystroke	s	n/a
464.949	0.09	929898	keystroke	Key.space	n/a
465.099	0.105	930198	keystroke	c	n/a
465.219	0.12	930438	keystroke	o	n/a
465.294	0.105	930588	keystroke	n	n/a
465.399	0.09	930798	keystroke	t	n/a
465.624	0.105	931248	keystroke	a	n/a
465.774	0.105	931548	keystroke	c	n/a
466.014	0.06	932028	keystroke	t	n/a
466.164	0.075	932328	keystroke	Key.enter	n/a
466.244	1.7215	932488	prompt	n/a	chart cigarettes clause operates\n
467.214	0.03	934428	keystroke	c	n/a
467.229	0.075	934458	keystroke	h	n/a
467.349	0.135	934698	keystroke	a	n/a
467.469	0.075	934938	keystroke	r	n/a
467.664	0.075	935328	keystroke	t	n/a
467.904	0.06	935808	keystroke	Key.enter	n/a
467.9685	13.662	935937	prompt	n/a	recycling promised baskets royalty\n
472.871	0.013	945742	keystroke	r	n/a
473.004	0.045	946008	keystroke	e	n/a
473.439	0.015	946878	keystroke	c	n/a
473.7995	0.075	947599	keystroke	y	n/a
474.4895	0.135	948979	keystroke	c	n/a
474.6395	0.015	949279	keystroke	l	n/a
474.7445	0.135	949489	keystroke	i	n/a
474.8495	0.105	949699	keystroke	n	n/a
474.9685	0.106	949937	keystroke	g	n/a
475.1185	0.075	950237	keystroke	Key.space	n/a
475.2545	0.104	950509	keystroke	p	n/a
475.4185	0.09	950837	keystroke	r	n/a
475.5395	0.044	951079	keystroke	o	n/a
475.8095	0.135	951619	keystroke	m	n/a
475.9295	0.09	951859	keystroke	i	n/a
476.0495	0.15	952099	keystroke	s	n/a
476.2135	0.06	952427	keystroke	e	n/a
476.4385	0.076	952877	keystroke	d	n/a
476.5735	0.105	953147	keystroke	Key.space	n/a
476.9495	0.075	953899	keystroke	b	n/a
477.0545	0.105	954109	keystroke	a	n/a
477.2785	0.091	954557	keystroke	s	n/a
477.7435	0.075	955487	keystroke	k	n/a
477.8785	0.105	955757	keystroke	e	n/a
478.0135	0.105	956027	keystroke	t	n/a
478.2395	0.045	956479	keystroke	s	n/a
478.3585	0.105	956717	keystroke	Key.space	n/a
479.4245	0.059	958849	keystroke	r	n/a
479.7995	0.06	959599	keystroke	o	n/a
480.0545	0.075	960109	keystroke	y	n/a
480.2645	0.06	960529	keystroke	a	n/a
480.4145	0.075	960829	keystroke	l	n/a
480.6085	0.076	961217	keystroke	t	n/a
480.7585	0.045	961517	keystroke	y	n/a
481.5235	0.105	963047	keystroke	Key.enter	n/a
481.634	5.487	963268	prompt	n/a	poor hence quiet device\n
482.4095	0.03	964819	keystroke	p	n/a
482.5745	0.06	965149	keystroke	o	n/a
482.7395	0.03	965479	keystroke	o	n/a
482.8595	0.06	965719	keystroke	r	n/a
483.0085	0.09	966017	keystroke	Key.space	n/a
483.3095	0.09	966619	keystroke	h	n/a
483.4445	0.06	966889	keystroke	e	n/a
483.5495	0.075	967099	keystroke	n	n/a
483.6845	0.105	967369	keystroke	c	n/a
483.7745	0.105	967549	keystroke	e	n/a
484.1795	0.104	968359	keystroke	Key.space	n/a
484.8395	0.075	969679	keystroke	q	n/a
485.0495	0.075	970099	keystroke	u	n/a
485.2135	0.106	970427	keystroke	i	n/a
485.3345	0.09	970669	keystroke	e	n/a
485.4685	0.09	970937	keystroke	t	n/a
485.6335	0.075	971267	keystroke	Key.space	n/a
486.174	0.075	972348	keystroke	d	n/a
486.339	0.075	972678	keystroke	e	n/a
486.519	0.075	973038	keystroke	v	n/a
486.624	0.075	973248	keystroke	i	n/a
486.729	0.15	973458	keystroke	c	n/a
486.849	0.105	973698	keystroke	e	n/a
487.059	0.06	974118	keystroke	Key.enter	n/a
487.1235	8.337	974247	prompt	n/a	income narrative shaft simplified\n
487.8235	0.075	975647	keystroke	i	n/a
487.9885	0.09	975977	keystroke	n	n/a
488.1085	0.09	976217	keystroke	c	n/a
488.2285	0.12	976457	keystroke	o	n/a
488.3935	0.09	976787	keystroke	m	n/a
488.5135	0.075	977027	keystroke	e	n/a
488.6185	0.09	977237	keystroke	Key.space	n/a
488.8435	0.105	977687	keystroke	n	n/a
488.9785	0.09	977957	keystroke	a	n/a
489.1135	0.075	978227	keystroke	r	n/a
489.2635	0.06	978527	keystroke	r	n/a
489.6235	0.075	979247	keystroke	t	n/a
490.1485	0.09	980297	keystroke	Key.backspace	n/a
490.2835	0.105	980567	keystroke	a	n/a
490.4035	0.105	980807	keystroke	t	n/a
490.6435	0.0905	981287	keystroke	i	n/a
490.749	0.075	981498	keystroke	v	n/a
490.884	0.075	981768	keystroke	e	n/a
491.079	0.09	982158	keystroke	Key.space	n/a
491.559	0.075	983118	keystroke	s	n/a
491.679	0.075	983358	keystroke	h	n/a
491.784	0.18	983568	keystroke	a	n/a
492.234	0.09	984468	keystroke	f	n/a
492.444	0.075	984888	keystroke	t	n/a
492.804	0.105	985608	keystroke	Key.space	n/a
493.449	0.045	986898	keystroke	s	n/a
493.599	0.09	987198	keystroke	i	n/a
493.869	0.12	987738	keystroke	m	n/a
494.184	0.045	988368	keystroke	p	n/a
494.409	0.09	988818	keystroke	l	n/a
494.634	0.06	989268	keystroke	i	n/a
494.829	0.06	989658	keystroke	f	n/a
494.919	0.09	989838	keystroke	i	n/a
495.024	0.06	990048	keystroke	e	n/a
495.219	0.06	990438	keystroke	d	n/a
495.384	0.075	990768	keystroke	Key.enter	n/a
495.4635	8.397	990927	prompt	n/a	unavailable prime massage leaf\n
496.2835	0.09	992567	keystroke	u	n/a
496.5085	0.09	993017	keystroke	n	n/a
496.6585	0.075	993317	keystroke	a	n/a
496.9585	0.09	993917	keystroke	v	n/a
497.0935	0.09	994187	keystroke	a	n/a
498.1735	0.06	996347	keystroke	i	n/a
498.3685	0.045	996737	keystroke	l	n/a
498.4735	0.075	996947	keystroke	a	n/a
498.5935	0.075	997187	keystroke	b	n/a
498.7885	0.075	997577	keystroke	l	n/a
498.9235	0.075	997847	keystroke	e	n/a
499.0585	0.09	998117	keystroke	Key.space	n/a
499.3885	0.075	998777	keystroke	p	n/a
499.5085	0.075	999017	keystroke	r	n/a
499.6135	0.12	999227	keystroke	i	n/a
499.7635	0.12	999527	keystroke	m	n/a
499.9285	0.075	999857	keystroke	e	n/a
500.0335	0.105	1000067	keystroke	Key.space	n/a
500.2135	0.09	1000427	keystroke	m	n/a
500.3785	0.06	1000757	keystroke	e	n/a
501.6385	0.06	1003277	keystroke	Key.backspace	n/a
501.7885	0.075	1003577	keystroke	a	n/a
501.9835	0.06	1003967	keystroke	s	n/a
502.1485	0.075	1004297	keystroke	s	n/a
502.2985	0.03	1004597	keystroke	a	n/a
502.4035	0.06	1004807	keystroke	g	n/a
502.584	0.0745	1005168	keystroke	e	n/a
502.7335	0.105	1005467	keystroke	Key.space	n/a
502.9885	0.075	1005977	keystroke	l	n/a
503.0935	0.12	1006187	keystroke	e	n/a
503.1985	0.06	1006397	keystroke	a	n/a
503.3035	0.09	1006607	keystroke	f	n/a
503.784	0.075	1007568	keystroke	Key.enter	n/a
503.865	5.545	1007730	prompt	n/a	abuse accessory latter adult\n
504.534	0.075	1009068	keystroke	a	n/a
504.804	0.075	1009608	keystroke	b	n/a
505.044	0.075	1010088	keystroke	u	n/a
505.164	0.135	1010328	keystroke	s	n/a
505.284	0.09	1010568	keystroke	e	n/a
505.434	0.09	1010868	keystroke	Key.space	n/a
505.539	0.075	1011078	keystroke	a	n/a
505.719	0.06	1011438	keystroke	c	n/a
505.944	0.015	1011888	keystroke	c	n/a
506.019	0.075	1012038	keystroke	e	n/a
506.213	0.076	1012426	keystroke	s	n/a
506.394	0.06	1012788	keystroke	s	n/a
506.499	0.06	1012998	keystroke	o	n/a
506.603	0.076	1013206	keystroke	r	n/a
506.754	0.135	1013508	keystroke	y	n/a
506.844	0.119	1013688	keystroke	Key.space	n/a
507.024	0.09	1014048	keystroke	l	n/a
507.129	0.075	1014258	keystroke	a	n/a
507.234	0.06	1014468	keystroke	t	n/a
507.369	0.06	1014738	keystroke	t	n/a
507.564	0.119	1015128	keystroke	e	n/a
507.698	0.046	1015396	keystroke	r	n/a
507.788	0.091	1015576	keystroke	Key.space	n/a
507.924	0.059	1015848	keystroke	a	n/a
508.134	0.06	1016268	keystroke	d	n/a
508.3135	0.075	1016627	keystroke	u	n/a
508.5085	0.075	1017017	keystroke	l	n/a
508.9135	0.09	1017827	keystroke	t	n/a
509.3485	0.06	1018697	keystroke	Key.enter	n/a
509.413	9.9125	1018826	prompt	n/a	life dividend specified males\n
510.2485	0.15	1020497	keystroke	l	n/a
510.3685	0.12	1020737	keystroke	i	n/a
510.6235	0.075	1021247	keystroke	f	n/a
510.7735	0.075	1021547	keystroke	e	n/a
510.9235	0.12	1021847	keystroke	Key.space	n/a
511.1635	0.09	1022327	keystroke	d	n/a
511.2685	0.09	1022537	keystroke	i	n/a
511.9585	0.075	1023917	keystroke	v	n/a
512.678	0.09	1025356	keystroke	i	n/a
512.858	0.09	1025716	keystroke	d	n/a
513.069	0.059	1026138	keystroke	e	n/a
513.323	0.06	1026646	keystroke	n	n/a
513.548	0.06	1027096	keystroke	d	n/a
513.773	0.09	1027546	keystroke	Key.space	n/a
514.733	0.09	1029466	keystroke	s	n/a
514.898	0.09	1029796	keystroke	p	n/a
515.003	0.0905	1030006	keystroke	e	n/a
515.3035	0.075	1030607	keystroke	c	n/a
515.3935	0.06	1030787	keystroke	i	n/a
515.6635	0.105	1031327	keystroke	f	n/a
515.8285	0.09	1031657	keystroke	i	n/a
515.9335	0.075	1031867	keystroke	e	n/a
516.1285	0.075	1032257	keystroke	d	n/a
516.2185	0.12	1032437	keystroke	Key.space	n/a
516.3535	0.0895	1032707	keystroke	m	n/a
516.474	0.059	1032948	keystroke	a	n/a
516.594	0.074	1033188	keystroke	k	n/a
516.683	0.105	1033366	keystroke	e	n/a
516.804	0.089	1033608	keystroke	s	n/a
517.268	0.045	1034536	keystroke	Key.backspace	n/a
517.418	0.045	1034836	keystroke	Key.backspace	n/a
517.883	0.06	1035766	keystroke	Key.backspace	n/a
518.588	0.09	1037176	keystroke	l	n/a
518.723	0.091	1037446	keystroke	e	n/a
518.799	0.104	1037598	keystroke	s	n/a
519.233	0.09	1038466	keystroke	Key.enter	n/a
519.3295	7.6915	1038659	prompt	n/a	issue healthcare breaking left\n
520.014	0.074	1040028	keystroke	i	n/a
520.178	0.06	1040356	keystroke	s	n/a
520.328	0.075	1040656	keystroke	s	n/a
520.448	0.076	1040896	keystroke	u	n/a
520.553	0.075	1041106	keystroke	e	n/a
520.658	0.105	1041316	keystroke	Key.space	n/a
520.883	0.06	1041766	keystroke	e	n/a
521.798	0.12	1043596	keystroke	Key.backspace	n/a
522.174	0.06	1044348	keystroke	h	n/a
522.309	0.135	1044618	keystroke	e	n/a
522.429	0.089	1044858	keystroke	a	n/a
523.2685	0.075	1046537	keystroke	l	n/a
523.4635	0.06	1046927	keystroke	t	n/a
523.5685	0.03	1047137	keystroke	h	n/a
523.7785	0.09	1047557	keystroke	c	n/a
523.8835	0.165	1047767	keystroke	a	n/a
523.9885	0.15	1047977	keystroke	r	n/a
524.1085	0.09	1048217	keystroke	e	n/a
524.2585	0.105	1048517	keystroke	Key.space	n/a
524.5585	0.06	1049117	keystroke	b	n/a
524.7085	0.09	1049417	keystroke	r	n/a
524.7685	0.105	1049537	keystroke	e	n/a
524.8585	0.09	1049717	keystroke	a	n/a
525.0085	0.06	1050017	keystroke	k	n/a
525.1735	0.12	1050347	keystroke	i	n/a
525.2335	0.12	1050467	keystroke	n	n/a
525.3685	0.06	1050737	keystroke	g	n/a
525.4135	0.09	1050827	keystroke	Key.space	n/a
525.5335	0.105	1051067	keystroke	l	n/a
525.6085	0.105	1051217	keystroke	e	n/a
526.6135	0.045	1053227	keystroke	f	n/a
526.7935	0.06	1053587	keystroke	t	n/a
526.9285	0.09	1053857	keystroke	Key.enter	n/a
527.024	11.021	1054048	prompt	n/a	completing gate appreciate hosting\n
527.738	0.09	1055476	keystroke	c	n/a
527.858	0.105	1055716	keystroke	o	n/a
528.263	0.09	1056526	keystroke	m	n/a
528.488	0.075	1056976	keystroke	p	n/a
528.878	0.075	1057756	keystroke	l	n/a
529.058	0.06	1058116	keystroke	e	n/a
529.238	0.075	1058476	keystroke	t	n/a
529.328	0.135	1058656	keystroke	i	n/a
529.403	0.135	1058806	keystroke	n	n/a
529.553	0.045	1059106	keystroke	g	n/a
529.628	0.105	1059256	keystroke	Key.space	n/a
529.868	0.075	1059736	keystroke	g	n/a
530.003	0.135	1060006	keystroke	a	n/a
530.123	0.075	1060246	keystroke	t	n/a
530.318	0.06	1060636	keystroke	e	n/a
530.423	0.09	1060846	keystroke	Key.space	n/a
530.528	0.075	1061056	keystroke	a	n/a
530.663	0.06	1061326	keystroke	p	n/a
530.828	0.075	1061656	keystroke	p	n/a
530.948	0.12	1061896	keystroke	r	n/a
532.253	0.06	1064506	keystroke	e	n/a
532.8385	0.075	1065677	keystroke	c	n/a
532.9285	0.015	1065857	keystroke	i	n/a
532.9585	0.105	1065917	keystroke	a	n/a
533.1985	0.06	1066397	keystroke	e	n/a
533.7235	0.09	1067447	keystroke	Key.backspace	n/a
533.8435	0.0745	1067687	keystroke	t	n/a
533.933	0.075	1067866	keystroke	e	n/a
534.1585	0.135	1068317	keystroke	Key.space	n/a
534.4285	0.075	1068857	keystroke	o	n/a
535.2985	0.06	1070597	keystroke	Key.backspace	n/a
535.6585	0.09	1071317	keystroke	h	n/a
535.8685	0.09	1071737	keystroke	o	n/a
536.0185	0.075	1072037	keystroke	s	n/a
536.2285	0.09	1072457	keystroke	t	n/a
536.3635	0.15	1072727	keystroke	i	n/a
536.4535	0.135	1072907	keystroke	n	n/a
536.5885	0.075	1073177	keystroke	g	n/a
537.968	0.075	1075936	keystroke	Key.enter	n/a
538.048	11.637	1076096	prompt	n/a	knock rotary draft characteristics\n
539.393	0.09	1078786	keystroke	k	n/a
539.498	0.135	1078996	keystroke	n	n/a
539.618	0.105	1079236	keystroke	o	n/a
539.768	0.09	1079536	keystroke	c	n/a
540.113	0.18	1080226	keystroke	k	n/a
540.278	0.075	1080556	keystroke	Key.space	n/a
541.403	0.075	1082806	keystroke	r	n/a
541.583	0.0905	1083166	keystroke	o	n/a
542.3485	0.06	1084697	keystroke	t	n/a
542.5585	0.09	1085117	keystroke	a	n/a
542.6935	0.075	1085387	keystroke	r	n/a
543.0535	0.105	1086107	keystroke	y	n/a
543.3985	0.105	1086797	keystroke	Key.space	n/a
544.1485	0.09	1088297	keystroke	d	n/a
544.3135	0.15	1088627	keystroke	r	n/a
544.4485	0.105	1088897	keystroke	a	n/a
544.6285	0.135	1089257	keystroke	f	n/a
545.333	0.075	1090666	keystroke	t	n/a
545.468	0.105	1090936	keystroke	Key.space	n/a
545.693	0.09	1091386	keystroke	c	n/a
545.798	0.075	1091596	keystroke	h	n/a
545.903	0.12	1091806	keystroke	a	n/a
546.038	0.09	1092076	keystroke	r	n/a
546.203	0.12	1092406	keystroke	a	n/a
546.353	0.06	1092706	keystroke	c	n/a
546.548	0.045	1093096	keystroke	t	n/a
546.698	0.12	1093396	keystroke	e	n/a
546.803	0.06	1093606	keystroke	r	n/a
546.908	0.09	1093816	keystroke	i	n/a
547.058	0.12	1094116	keystroke	s	n/a
547.238	0.06	1094476	keystroke	t	n/a
547.343	0.09	1094686	keystroke	i	n/a
547.493	0.075	1094986	keystroke	c	n/a
547.673	0.03	1095346	keystroke	a	n/a
548.483	0.045	1096966	keystroke	Key.backspace	n/a
548.543	0.03	1097086	keystroke	s	n/a
549.608	0.075	1099216	keystroke	Key.enter	n/a
549.688	14.1265	1099376	prompt	n/a	wrestling mozilla topics occasion\n
550.748	0.09	1101496	keystroke	w	n/a
551.4835	0.12	1102967	keystroke	r	n/a
551.6185	0.09	1103237	keystroke	e	n/a
551.843	0.0905	1103686	keystroke	s	n/a
551.9935	0.09	1103987	keystroke	t	n/a
552.1285	0.165	1104257	keystroke	i	n/a
552.2335	0.1195	1104467	keystroke	n	n/a
552.368	0.015	1104736	keystroke	g	n/a
553.148	0.105	1106296	keystroke	Key.backspace	n/a
553.5825	0.091	1107165	keystroke	Key.backspace	n/a
554.3475	0.076	1108695	keystroke	Key.backspace	n/a
555.968	0.06	1111936	keystroke	l	n/a
556.043	0.18	1112086	keystroke	i	n/a
556.163	0.12	1112326	keystroke	n	n/a
556.313	0.075	1112626	keystroke	g	n/a
556.418	0.135	1112836	keystroke	Key.space	n/a
556.613	0.12	1113226	keystroke	m	n/a
556.748	0.09	1113496	keystroke	o	n/a
557.183	0.075	1114366	keystroke	z	n/a
557.303	0.045	1114606	keystroke	i	n/a
557.453	0.06	1114906	keystroke	l	n/a
557.603	0.075	1115206	keystroke	l	n/a
557.738	0.06	1115476	keystroke	a	n/a
557.828	0.105	1115656	keystroke	Key.space	n/a
557.963	0.12	1115926	keystroke	t	n/a
558.068	0.075	1116136	keystroke	i	n/a
558.578	0.075	1117156	keystroke	p	n/a
558.758	0.12	1117516	keystroke	i	n/a
559.328	0.045	1118656	keystroke	Key.backspace	n/a
559.493	0.03	1118986	keystroke	Key.backspace	n/a
559.613	0.06	1119226	keystroke	Key.backspace	n/a
560.378	0.09	1120756	keystroke	o	n/a
560.573	0.075	1121146	keystroke	p	n/a
560.753	0.09	1121506	keystroke	i	n/a
560.993	0.105	1121986	keystroke	c	n/a
561.128	0.09	1122256	keystroke	s	n/a
561.293	0.105	1122586	keystroke	Key.space	n/a
561.938	0.09	1123876	keystroke	o	n/a
562.088	0.045	1124176	keystroke	c	n/a
562.688	0.075	1125376	keystroke	c	n/a
562.793	0.09	1125586	keystroke	a	n/a
563.033	0.09	1126066	keystroke	s	n/a
563.333	0.105	1126666	keystroke	i	n/a
563.408	0.135	1126816	keystroke	o	n/a
563.513	0.09	1127026	keystroke	n	n/a
563.753	0.06	1127506	keystroke	Key.enter	n/a
563.8175	14.1575	1127635	prompt	n/a	marriott attempts raymond diesel\n
564.758	0.105	1129516	keystroke	m	n/a
564.893	0.09	1129786	keystroke	a	n/a
565.073	0.06	1130146	keystroke	r	n/a
565.208	0.06	1130416	keystroke	r	n/a
565.853	0.105	1131706	keystroke	i	n/a
565.988	0.135	1131976	keystroke	o	n/a
566.348	0.045	1132696	keystroke	t	n/a
566.468	0.06	1132936	keystroke	t	n/a
566.678	0.09	1133356	keystroke	Key.space	n/a
566.813	0.09	1133626	keystroke	s	n/a
567.023	0.075	1134046	keystroke	t	n/a
567.233	0.06	1134466	keystroke	t	n/a
567.443	0.075	1134886	keystroke	e	n/a
567.593	0.105	1135186	keystroke	m	n/a
567.698	0.105	1135396	keystroke	p	n/a
567.833	0.0905	1135666	keystroke	t	n/a
567.9835	0.09	1135967	keystroke	s	n/a
568.6135	0.015	1137227	keystroke	Key.backspace	n/a
568.7185	0.045	1137437	keystroke	Key.backspace	n/a
568.8535	0.045	1137707	keystroke	Key.backspace	n/a
569.0035	0.045	1138007	keystroke	Key.backspace	n/a
569.1535	0.045	1138307	keystroke	Key.backspace	n/a
569.3035	0.045	1138607	keystroke	Key.backspace	n/a
569.4535	0.03	1138907	keystroke	Key.backspace	n/a
569.7235	0.06	1139447	keystroke	Key.backspace	n/a
569.8285	0.105	1139657	keystroke	a	n/a
570.008	0.075	1140016	keystroke	t	n/a
570.173	0.06	1140346	keystroke	t	n/a
570.368	0.075	1140736	keystroke	e	n/a
570.623	0.09	1141246	keystroke	m	n/a
571.388	0.09	1142776	keystroke	p	n/a
571.988	0.075	1143976	keystroke	t	n/a
572.243	0.075	1144486	keystroke	s	n/a
572.513	0.135	1145026	keystroke	Key.space	n/a
573.758	0.105	1147516	keystroke	r	n/a
573.878	0.09	1147756	keystroke	a	n/a
574.103	0.075	1148206	keystroke	y	n/a
574.508	0.06	1149016	keystroke	m	n/a
574.598	0.15	1149196	keystroke	o	n/a
574.973	0.09	1149946	keystroke	n	n/a
575.168	0.06	1150336	keystroke	d	n/a
575.618	0.105	1151236	keystroke	Key.space	n/a
575.888	0.075	1151776	keystroke	d	n/a
576.458	0.075	1152916	keystroke	i	n/a
576.683	0.075	1153366	keystroke	e	n/a
576.938	0.12	1153876	keystroke	s	n/a
577.043	0.09	1154086	keystroke	e	n/a
577.433	0.105	1154866	keystroke	l	n/a
577.913	0.06	1155826	keystroke	Key.enter	n/a
577.9785	12.4165	1155957	prompt	n/a	jump duties implementing regression\n
579.4285	0.074	1158857	keystroke	j	n/a
579.6385	0.074	1159277	keystroke	u	n/a
579.8935	0.09	1159787	keystroke	m	n/a
580.4935	0.195	1160987	keystroke	p	n/a
580.6125	0.151	1161225	keystroke	Key.space	n/a
581.888	0.12	1163776	keystroke	d	n/a
582.098	0.12	1164196	keystroke	u	n/a
582.323	0.075	1164646	keystroke	t	n/a
582.458	0.075	1164916	keystroke	i	n/a
582.578	0.12	1165156	keystroke	e	n/a
582.713	0.105	1165426	keystroke	s	n/a
582.998	0.12	1165996	keystroke	Key.space	n/a
583.268	0.09	1166536	keystroke	i	n/a
583.448	0.12	1166896	keystroke	m	n/a
583.6885	0.075	1167377	keystroke	p	n/a
583.9135	0.09	1167827	keystroke	l	n/a
584.6185	0.09	1169237	keystroke	e	n/a
585.0685	0.075	1170137	keystroke	m	n/a
585.2335	0.105	1170467	keystroke	e	n/a
585.3235	0.075	1170647	keystroke	n	n/a
585.4735	0.105	1170947	keystroke	t	n/a
585.6385	0.18	1171277	keystroke	i	n/a
585.7585	0.12	1171517	keystroke	n	n/a
586.2235	0.075	1172447	keystroke	g	n/a
586.3735	0.09	1172747	keystroke	Key.space	n/a
587.4535	0.045	1174907	keystroke	r	n/a
587.6035	0.075	1175207	keystroke	e	n/a
587.7985	0.06	1175597	keystroke	g	n/a
587.9185	0.105	1175837	keystroke	r	n/a
588.0085	0.12	1176017	keystroke	e	n/a
588.2935	0.075	1176587	keystroke	s	n/a
588.4435	0.075	1176887	keystroke	s	n/a
588.5485	0.09	1177097	keystroke	i	n/a
589.3725	0.091	1178745	keystroke	o	n/a
589.5085	0.075	1179017	keystroke	n	n/a
590.3475	0.045	1180695	keystroke	Key.enter	n/a
590.3985	10.046	1180797	prompt	n/a	vegetation baby nuts forgotten\n
591.6985	0.105	1183397	keystroke	g	n/a
592.0435	0.104	1184087	keystroke	Key.backspace	n/a
592.1785	0.09	1184357	keystroke	v	n/a
592.3885	0.06	1184777	keystroke	e	n/a
592.6575	0.076	1185315	keystroke	g	n/a
592.7785	0.09	1185557	keystroke	e	n/a
593.0485	0.089	1186097	keystroke	t	n/a
593.1835	0.12	1186367	keystroke	a	n/a
593.2885	0.09	1186577	keystroke	t	n/a
593.4535	0.15	1186907	keystroke	i	n/a
593.5735	0.15	1187147	keystroke	o	n/a
593.6935	0.12	1187387	keystroke	n	n/a
593.8875	0.0905	1187775	keystroke	Key.space	n/a
594.128	0.075	1188256	keystroke	b	n/a
594.248	0.0745	1188496	keystroke	a	n/a
594.3375	0.091	1188675	keystroke	b	n/a
595.3725	0.105	1190745	keystroke	y	n/a
595.8675	0.075	1191735	keystroke	Key.space	n/a
596.8875	0.09	1193775	keystroke	n	n/a
597.1425	0.075	1194285	keystroke	u	n/a
597.3825	0.075	1194765	keystroke	t	n/a
597.5775	0.076	1195155	keystroke	s	n/a
597.7125	0.105	1195425	keystroke	Key.space	n/a
597.8775	0.09	1195755	keystroke	f	n/a
597.9985	0.089	1195997	keystroke	o	n/a
598.1325	0.075	1196265	keystroke	r	n/a
598.3425	0.06	1196685	keystroke	g	n/a
598.4185	0.089	1196837	keystroke	o	n/a
598.5825	0.075	1197165	keystroke	t	n/a
598.7625	0.031	1197525	keystroke	t	n/a
598.9275	0.075	1197855	keystroke	e	n/a
599.0775	0.075	1198155	keystroke	n	n/a
600.3825	0.06	1200765	keystroke	Key.enter	n/a
600.4475	9.102	1200895	prompt	n/a	comic sitting therapist lucia\n
601.3275	0.075	1202655	keystroke	c	n/a
601.4625	0.12	1202925	keystroke	i	n/a
601.5675	0.15	1203135	keystroke	n	n/a
601.7625	0.06	1203525	keystroke	u	n/a
602.048	0.045	1204096	keystroke	c	n/a
602.318	0.06	1204636	keystroke	Key.backspace	n/a
602.468	0.045	1204936	keystroke	Key.backspace	n/a
602.603	0.045	1205206	keystroke	Key.backspace	n/a
602.933	0.075	1205866	keystroke	Key.backspace	n/a
603.578	0.0895	1207156	keystroke	o	n/a
604.1625	0.12	1208325	keystroke	m	n/a
604.2975	0.105	1208595	keystroke	i	n/a
604.613	0.09	1209226	keystroke	c	n/a
604.733	0.09	1209466	keystroke	Key.space	n/a
604.9875	0.045	1209975	keystroke	s	n/a
605.0925	0.075	1210185	keystroke	i	n/a
605.2125	0.06	1210425	keystroke	t	n/a
605.3475	0.06	1210695	keystroke	t	n/a
605.4085	0.164	1210817	keystroke	i	n/a
605.5425	0.075	1211085	keystroke	n	n/a
605.6325	0.075	1211265	keystroke	g	n/a
605.7525	0.12	1211505	keystroke	Key.space	n/a
606.0375	0.09	1212075	keystroke	t	n/a
606.1575	0.0905	1212315	keystroke	h	n/a
607.133	0.09	1214266	keystroke	e	n/a
607.298	0.09	1214596	keystroke	r	n/a
607.463	0.09	1214926	keystroke	a	n/a
607.658	0.075	1215316	keystroke	p	n/a
607.853	0.075	1215706	keystroke	i	n/a
607.973	0.12	1215946	keystroke	s	n/a
608.078	0.09	1216156	keystroke	t	n/a
608.228	0.105	1216456	keystroke	Key.space	n/a
608.408	0.09	1216816	keystroke	l	n/a
608.588	0.075	1217176	keystroke	u	n/a
608.738	0.075	1217476	keystroke	c	n/a
609.2175	0.075	1218435	keystroke	i	n/a
609.3075	0.09	1218615	keystroke	a	n/a
609.4875	0.06	1218975	keystroke	Key.enter	n/a
609.552	7.902	1219104	prompt	n/a	crowd wouldn't stone message\n
610.8225	0.09	1221645	keystroke	c	n/a
611.0775	0.075	1222155	keystroke	r	n/a
611.2875	0.09	1222575	keystroke	o	n/a
611.4375	0.09	1222875	keystroke	w	n/a
611.6925	0.09	1223385	keystroke	d	n/a
611.9175	0.105	1223835	keystroke	Key.space	n/a
612.3225	0.06	1224645	keystroke	w	n/a
612.412	0.135	1224824	keystroke	o	n/a
612.517	0.0905	1225034	keystroke	u	n/a
612.772	0.0905	1225544	keystroke	l	n/a
613.327	0.09	1226654	keystroke	d	n/a
613.522	0.09	1227044	keystroke	n	n/a
613.613	0.074	1227226	keystroke	'	n/a
613.717	0.075	1227434	keystroke	t	n/a
613.987	0.105	1227974	keystroke	Key.space	n/a
614.407	0.075	1228814	keystroke	s	n/a
614.527	0.09	1229054	keystroke	t	n/a
615.067	0.105	1230134	keystroke	o	n/a
615.217	0.105	1230434	keystroke	n	n/a
615.367	0.06	1230734	keystroke	e	n/a
615.532	0.075	1231064	keystroke	Key.space	n/a
615.952	0.09	1231904	keystroke	m	n/a
616.087	0.06	1232174	keystroke	e	n/a
616.312	0.06	1232624	keystroke	s	n/a
616.462	0.0755	1232924	keystroke	s	n/a
616.5975	0.12	1233195	keystroke	a	n/a
616.7025	0.105	1233405	keystroke	g	n/a
616.8225	0.075	1233645	keystroke	e	n/a
617.3775	0.075	1234755	keystroke	Key.enter	n/a
617.457	9.987	1234914	prompt	n/a	traditions attractive visual national\n
618.2775	0.075	1236555	keystroke	t	n/a
619.5225	0.09	1239045	keystroke	r	n/a
619.6275	0.0895	1239255	keystroke	a	n/a
619.987	0.075	1239974	keystroke	d	n/a
620.092	0.06	1240184	keystroke	i	n/a
620.197	0.06	1240394	keystroke	t	n/a
620.287	0.105	1240574	keystroke	i	n/a
620.362	0.165	1240724	keystroke	o	n/a
620.467	0.12	1240934	keystroke	n	n/a
620.722	0.06	1241444	keystroke	s	n/a
620.827	0.105	1241654	keystroke	Key.space	n/a
620.947	0.075	1241894	keystroke	a	n/a
621.112	0.075	1242224	keystroke	t	n/a
621.262	0.06	1242524	keystroke	t	n/a
621.907	0.075	1243814	keystroke	r	n/a
621.997	0.12	1243994	keystroke	a	n/a
622.177	0.09	1244354	keystroke	c	n/a
622.402	0.06	1244804	keystroke	t	n/a
622.507	0.09	1245014	keystroke	i	n/a
622.642	0.09	1245284	keystroke	v	n/a
622.8075	0.09	1245615	keystroke	e	n/a
622.9275	0.105	1245855	keystroke	Key.space	n/a
623.0625	0.09	1246125	keystroke	s	n/a
623.1975	0.075	1246395	keystroke	i	n/a
623.977	0.045	1247954	keystroke	Key.backspace	n/a
624.112	0.075	1248224	keystroke	Key.backspace	n/a
625.012	0.075	1250024	keystroke	v	n/a
625.222	0.075	1250444	keystroke	i	n/a
625.402	0.09	1250804	keystroke	s	n/a
625.537	0.09	1251074	keystroke	u	n/a
625.657	0.075	1251314	keystroke	a	n/a
625.837	0.165	1251674	keystroke	l	n/a
625.972	0.12	1251944	keystroke	Key.space	n/a
626.242	0.105	1252484	keystroke	n	n/a
626.377	0.075	1252754	keystroke	a	n/a
626.4965	0.045	1252993	keystroke	t	n/a
626.5865	0.106	1253173	keystroke	i	n/a
626.6765	0.15	1253353	keystroke	o	n/a
626.7965	0.076	1253593	keystroke	n	n/a
626.9025	0.12	1253805	keystroke	a	n/a
627.1575	0.105	1254315	keystroke	l	n/a
627.3825	0.06	1254765	keystroke	Key.enter	n/a
627.4495	7.539	1254899	prompt	n/a	eddie outlets integral basket\n
628.072	0.105	1256144	keystroke	e	n/a
628.252	0.0605	1256504	keystroke	d	n/a
628.4025	0.0145	1256805	keystroke	d	n/a
628.462	0.075	1256924	keystroke	i	n/a
628.567	0.105	1257134	keystroke	e	n/a
628.6875	0.1045	1257375	keystroke	Key.space	n/a
628.8225	0.1195	1257645	keystroke	o	n/a
628.9125	0.0895	1257825	keystroke	u	n/a
629.0775	0.0445	1258155	keystroke	t	n/a
629.1825	0.0895	1258365	keystroke	l	n/a
629.332	0.105	1258664	keystroke	e	n/a
629.497	0.105	1258994	keystroke	t	n/a
629.677	0.09	1259354	keystroke	s	n/a
629.887	0.075	1259774	keystroke	Key.space	n/a
630.007	0.135	1260014	keystroke	i	n/a
630.112	0.105	1260224	keystroke	n	n/a
630.697	0.0605	1261394	keystroke	t	n/a
630.8925	0.06	1261785	keystroke	e	n/a
631.2675	0.075	1262535	keystroke	g	n/a
631.4625	0.105	1262925	keystroke	r	n/a
631.5525	0.09	1263105	keystroke	a	n/a
631.7475	0.12	1263495	keystroke	l	n/a
631.8825	0.09	1263765	keystroke	Key.space	n/a
632.0475	0.075	1264095	keystroke	b	n/a
632.1675	0.075	1264335	keystroke	a	n/a
632.362	0.09	1264724	keystroke	s	n/a
632.602	0.06	1265204	keystroke	k	n/a
632.7215	0.105	1265443	keystroke	e	n/a
632.8415	0.0605	1265683	keystroke	t	n/a
633.502	0.0745	1267004	keystroke	s	n/a
634.6265	0.075	1269253	keystroke	Key.backspace	n/a
634.8965	0.09	1269793	keystroke	Key.enter	n/a
634.9915	8.052	1269983	prompt	n/a	both criminal scheme solely\n
635.7515	0.09	1271503	keystroke	b	n/a
635.8875	0.105	1271775	keystroke	o	n/a
636.022	0.06	1272044	keystroke	t	n/a
636.097	0.15	1272194	keystroke	h	n/a
636.232	0.105	1272464	keystroke	Key.space	n/a
636.472	0.06	1272944	keystroke	c	n/a
636.652	0.075	1273304	keystroke	r	n/a
636.787	0.105	1273574	keystroke	i	n/a
636.967	0.09	1273934	keystroke	m	n/a
637.117	0.165	1274234	keystroke	i	n/a
637.252	0.105	1274504	keystroke	n	n/a
637.387	0.06	1274774	keystroke	a	n/a
637.537	0.12	1275074	keystroke	l	n/a
637.672	0.12	1275344	keystroke	Key.space	n/a
637.972	0.09	1275944	keystroke	c	n/a
638.092	0.075	1276184	keystroke	h	n/a
638.257	0.105	1276514	keystroke	e	n/a
638.512	0.09	1277024	keystroke	m	n/a
638.662	0.075	1277324	keystroke	e	n/a
638.842	0.075	1277684	keystroke	Key.space	n/a
639.322	0.045	1278644	keystroke	Key.backspace	n/a
639.457	0.045	1278914	keystroke	Key.backspace	n/a
639.5915	0.06	1279183	keystroke	Key.backspace	n/a
639.742	0.06	1279484	keystroke	Key.backspace	n/a
639.877	0.06	1279754	keystroke	Key.backspace	n/a
640.222	0.045	1280444	keystroke	Key.backspace	n/a
640.342	0.15	1280684	keystroke	s	n/a
640.507	0.075	1281014	keystroke	c	n/a
640.732	0.09	1281464	keystroke	h	n/a
641.017	0.075	1282034	keystroke	e	n/a
641.152	0.075	1282304	keystroke	m	n/a
641.287	0.03	1282574	keystroke	e	n/a
641.437	0.075	1282874	keystroke	Key.space	n/a
641.767	0.06	1283534	keystroke	s	n/a
641.857	0.0595	1283714	keystroke	o	n/a
642.1265	0.045	1284253	keystroke	l	n/a
642.2765	0.045	1284553	keystroke	e	n/a
642.4265	0.045	1284853	keystroke	l	n/a
642.6365	0.06	1285273	keystroke	y	n/a
642.9515	0.09	1285903	keystroke	Key.enter	n/a
643.0465	7.7225	1286093	prompt	n/a	enables pair shanghai antenna\n
643.8515	0.075	1287703	keystroke	e	n/a
643.9565	0.09	1287913	keystroke	n	n/a
644.1065	0.06	1288213	keystroke	a	n/a
644.3465	0.016	1288693	keystroke	b	n/a
644.4665	0.075	1288933	keystroke	l	n/a
644.5565	0.135	1289113	keystroke	e	n/a
644.6625	0.104	1289325	keystroke	s	n/a
644.8115	0.075	1289623	keystroke	Key.space	n/a
644.9015	0.105	1289803	keystroke	p	n/a
645.0215	0.06	1290043	keystroke	a	n/a
645.1265	0.105	1290253	keystroke	i	n/a
645.2775	0.059	1290555	keystroke	r	n/a
645.727	0.105	1291454	keystroke	Key.space	n/a
645.937	0.09	1291874	keystroke	s	n/a
646.042	0.075	1292084	keystroke	h	n/a
646.162	0.075	1292324	keystroke	a	n/a
646.282	0.09	1292564	keystroke	n	n/a
646.762	0.075	1293524	keystroke	g	n/a
646.912	0.075	1293824	keystroke	h	n/a
647.182	0.045	1294364	keystroke	a	n/a
647.332	0.03	1294664	keystroke	i	n/a
647.902	0.06	1295804	keystroke	Key.space	n/a
648.367	0.075	1296734	keystroke	a	n/a
648.502	0.075	1297004	keystroke	n	n/a
648.712	0.075	1297424	keystroke	t	n/a
648.877	0.06	1297754	keystroke	e	n/a
649.057	0.045	1298114	keystroke	n	n/a
650.392	0.09	1300784	keystroke	n	n/a
650.527	0.075	1301054	keystroke	a	n/a
650.692	0.075	1301384	keystroke	Key.enter	n/a
650.772	16.182	1301544	prompt	n/a	passion injury norway caution\n
651.697	0.105	1303394	keystroke	p	n/a
651.847	0.0595	1303694	keystroke	a	n/a
652.0115	0.06	1304023	keystroke	s	n/a
652.1465	0.06	1304293	keystroke	s	n/a
652.2515	0.12	1304503	keystroke	i	n/a
652.3865	0.12	1304773	keystroke	o	n/a
652.4915	0.105	1304983	keystroke	n	n/a
652.7315	0.09	1305463	keystroke	Key.space	n/a
652.8965	0.075	1305793	keystroke	u	n/a
653.1215	0.075	1306243	keystroke	n	n/a
654.0365	0.06	1308073	keystroke	j	n/a
654.2325	0.074	1308465	keystroke	u	n/a
654.3825	0.074	1308765	keystroke	r	n/a
654.742	0.18	1309484	keystroke	y	n/a
654.907	0.105	1309814	keystroke	Key.space	n/a
655.282	0.135	1310564	keystroke	n	n/a
655.492	0.105	1310984	keystroke	o	n/a
659.169	0.001	1318338	keystroke	Key.backspace	n/a
659.257	0.045	1318514	keystroke	Key.backspace	n/a
659.392	0.06	1318784	keystroke	Key.backspace	n/a
659.557	0.045	1319114	keystroke	Key.backspace	n/a
659.692	0.06	1319384	keystroke	Key.backspace	n/a
659.842	0.06	1319684	keystroke	Key.backspace	n/a
660.007	0.045	1320014	keystroke	Key.backspace	n/a
660.157	0.06	1320314	keystroke	Key.backspace	n/a
660.337	0.045	1320674	keystroke	Key.backspace	n/a
660.997	0.09	1321994	keystroke	i	n/a
661.252	0.075	1322504	keystroke	n	n/a
661.837	0.09	1323674	keystroke	j	n/a
662.047	0.075	1324094	keystroke	u	n/a
662.497	0.045	1324994	keystroke	r	n/a
662.557	0.195	1325114	keystroke	y	n/a
662.722	0.105	1325444	keystroke	Key.space	n/a
664.342	0.105	1328684	keystroke	n	n/a
664.492	0.12	1328984	keystroke	o	n/a
664.897	0.09	1329794	keystroke	r	n/a
665.197	0.105	1330394	keystroke	w	n/a
665.347	0.105	1330694	keystroke	a	n/a
665.542	0.105	1331084	keystroke	y	n/a
665.722	0.12	1331444	keystroke	Key.space	n/a
665.932	0.12	1331864	keystroke	c	n/a
666.082	0.09	1332164	keystroke	a	n/a
666.247	0.09	1332494	keystroke	u	n/a
666.367	0.0595	1332734	keystroke	t	n/a
666.4715	0.15	1332943	keystroke	i	n/a
666.6065	0.075	1333213	keystroke	o	n/a
666.6365	0.105	1333273	keystroke	n	n/a
666.9065	0.045	1333813	keystroke	Key.enter	n/a
666.957	12.716	1333914	prompt	n/a	toolbar minneapolis option limousines\n
668.0465	0.06	1336093	keystroke	t	n/a
668.1215	0.075	1336243	keystroke	o	n/a
668.3015	0.061	1336603	keystroke	o	n/a
668.4965	0.06	1336993	keystroke	l	n/a
668.7215	0.075	1337443	keystroke	b	n/a
668.8875	0.044	1337775	keystroke	a	n/a
669.3365	0.075	1338673	keystroke	r	n/a
669.8315	0.075	1339663	keystroke	Key.space	n/a
670.0265	0.091	1340053	keystroke	m	n/a
670.1615	0.09	1340323	keystroke	i	n/a
670.4465	0.06	1340893	keystroke	n	n/a
670.6715	0.075	1341343	keystroke	n	n/a
671.1365	0.09	1342273	keystroke	e	n/a
671.3465	0.06	1342693	keystroke	a	n/a
671.9765	0.045	1343953	keystroke	p	n/a
672.1565	0.045	1344313	keystroke	o	n/a
672.3365	0.076	1344673	keystroke	l	n/a
672.4715	0.06	1344943	keystroke	i	n/a
672.6365	0.075	1345273	keystroke	s	n/a
