onset	duration	sample	value	key	prompt_text
1.5165	14.4935	3033	prompt	n/a	the quick brown fox jumps over a lazy dog\n
5.3305	0.042	10661	keystroke_t	t	n/a
5.3425	0.075	10685	keystroke_h	h	n/a
5.5525	0.09	11105	keystroke_e	e	n/a
5.7925	0.105	11585	keystroke_Key.space	Key.space	n/a
5.9875	0.09	11975	keystroke_q	q	n/a
6.0925	0.1055	12185	keystroke_u	u	n/a
6.183	0.12	12366	keystroke_i	i	n/a
6.317	0.135	12634	keystroke_c	c	n/a
6.468	0.09	12936	keystroke_k	k	n/a
6.588	0.1045	13176	keystroke_Key.space	Key.space	n/a
6.7975	0.0755	13595	keystroke_b	b	n/a
6.858	0.105	13716	keystroke_r	r	n/a
7.0985	0.105	14197	keystroke_w	w	n/a
7.217	0.09	14434	keystroke_o	o	n/a
7.487	0.06	14974	keystroke_Key.backspace	Key.backspace	n/a
7.607	0.0905	15214	keystroke_Key.backspace	Key.backspace	n/a
8.0425	0.075	16085	keystroke_p	p	n/a
8.1925	0.105	16385	keystroke_w	w	n/a
8.3425	0.075	16685	keystroke_n	n	n/a
8.4625	0.105	16925	keystroke_Key.space	Key.space	n/a
8.5825	0.0755	17165	keystroke_f	f	n/a
8.7325	0.105	17465	keystroke_o	o	n/a
8.9575	0.09	17915	keystroke_x	x	n/a
9.4225	0.015	18845	keystroke_Key.backspace	Key.backspace	n/a
9.6775	0.09	19355	keystroke_Key.backspace	Key.backspace	n/a
9.8125	0.0755	19625	keystroke_Key.backspace	Key.backspace	n/a
9.978	0.06	19956	keystroke_Key.backspace	Key.backspace	n/a
10.098	0.09	20196	keystroke_Key.backspace	Key.backspace	n/a
10.248	0.06	20496	keystroke_Key.backspace	Key.backspace	n/a
10.383	0.075	20766	keystroke_Key.backspace	Key.backspace	n/a
10.818	0.09	21636	keystroke_o	o	n/a
10.938	0.075	21876	keystroke_w	w	n/a
11.043	0.12	22086	keystroke_n	n	n/a
11.178	0.089	22356	keystroke_Key.space	Key.space	n/a
11.568	0.03	23136	keystroke_f	f	n/a
11.613	0.06	23226	keystroke_o	o	n/a
11.883	0.105	23766	keystroke_x	x	n/a
12.048	0.12	24096	keystroke_Key.space	Key.space	n/a
12.198	0.105	24396	keystroke_j	j	n/a
12.3625	0.09	24725	keystroke_u	u	n/a
12.5875	0.0905	25175	keystroke_m	m	n/a
12.828	0.06	25656	keystroke_p	p	n/a
12.948	0.134	25896	keystroke_s	s	n/a
13.067	0.075	26134	keystroke_Key.space	Key.space	n/a
13.143	0.089	26286	keystroke_o	o	n/a
13.248	0.089	26496	keystroke_v	v	n/a
13.397	0.121	26794	keystroke_e	e	n/a
13.473	0.0895	26946	keystroke_r	r	n/a
13.5775	0.075	27155	keystroke_Key.space	Key.space	n/a
13.7275	0.12	27455	keystroke_a	a	n/a
13.8625	0.075	27725	keystroke_Key.space	Key.space	n/a
14.1625	0.09	28325	keystroke_l	l	n/a
14.2535	0.059	28507	keystroke_a	a	n/a
14.762	0.075	29524	keystroke_z	z	n/a
15.017	0.105	30034	keystroke_y	y	n/a
15.152	0.075	30304	keystroke_Key.space	Key.space	n/a
15.392	0.09	30784	keystroke_d	d	n/a
15.467	0.09	30934	keystroke_o	o	n/a
15.587	0.105	31174	keystroke_g	g	n/a
15.9175	0.09	31835	keystroke_Key.enter	Key.enter	n/a
16.0135	5.7255	32027	prompt	n/a	bare works scientist sectors\n
16.6675	0.12	33335	keystroke_b	b	n/a
16.7725	0.09	33545	keystroke_a	a	n/a
16.9675	0.075	33935	keystroke_r	r	n/a
17.1775	0.075	34355	keystroke_e	e	n/a
17.3275	0.09	34655	keystroke_Key.space	Key.space	n/a
17.3875	0.105	34775	keystroke_w	w	n/a
17.5075	0.09	35015	keystroke_o	o	n/a
17.613	0.135	35226	keystroke_r	r	n/a
17.763	0.075	35526	keystroke_k	k	n/a
17.883	0.09	35766	keystroke_s	s	n/a
18.048	0.0745	36096	keystroke_Key.space	Key.space	n/a
18.1375	0.075	36275	keystroke_s	s	n/a
18.2875	0.105	36575	keystroke_c	c	n/a
18.4225	0.0905	36845	keystroke_i	i	n/a
18.6325	0.1055	37265	keystroke_e	e	n/a
18.753	0.1045	37506	keystroke_n	n	n/a
18.8425	0.06	37685	keystroke_t	t	n/a
18.9625	0.105	37925	keystroke_e	e	n/a
19.1875	0.015	38375	keystroke_s	s	n/a
19.4125	0.045	38825	keystroke_Key.backspace	Key.backspace	n/a
19.5175	0.075	39035	keystroke_Key.backspace	Key.backspace	n/a
19.7125	0.075	39425	keystroke_i	i	n/a
19.7725	0.075	39545	keystroke_s	s	n/a
19.9225	0.105	39845	keystroke_t	t	n/a
20.0875	0.105	40175	keystroke_Key.space	Key.space	n/a
20.2075	0.06	40415	keystroke_s	s	n/a
20.4925	0.075	40985	keystroke_e	e	n/a
20.687	0.06	41374	keystroke_c	c	n/a
20.8975	0.075	41795	keystroke_t	t	n/a
20.9875	0.12	41975	keystroke_o	o	n/a
21.0925	0.075	42185	keystroke_r	r	n/a
21.287	0.121	42574	keystroke_s	s	n/a
21.632	0.105	43264	keystroke_Key.enter	Key.enter	n/a
21.742	8.247	43484	prompt	n/a	individually isolated roll be\n
22.277	0.151	44554	keystroke_i	i	n/a
22.428	0.119	44856	keystroke_n	n	n/a
22.532	0.091	45064	keystroke_d	d	n/a
22.652	0.075	45304	keystroke_i	i	n/a
23.012	0.105	46024	keystroke_v	v	n/a
23.312	0.076	46624	keystroke_i	i	n/a
26.105	0.042	52210	keystroke_d	d	n/a
26.297	0.09	52594	keystroke_u	u	n/a
26.447	0.075	52894	keystroke_a	a	n/a
26.537	0.075	53074	keystroke_l	l	n/a
26.6725	0.075	53345	keystroke_l	l	n/a
26.8825	0.12	53765	keystroke_y	y	n/a
27.0175	0.12	54035	keystroke_Key.space	Key.space	n/a
27.1825	0.09	54365	keystroke_i	i	n/a
27.3025	0.12	54605	keystroke_s	s	n/a
27.4075	0.06	54815	keystroke_o	o	n/a
27.6025	0.075	55205	keystroke_l	l	n/a
27.6625	0.075	55325	keystroke_a	a	n/a
27.8575	0.105	55715	keystroke_t	t	n/a
28.0075	0.075	56015	keystroke_e	e	n/a
28.2025	0.105	56405	keystroke_d	d	n/a
28.3675	0.075	56735	keystroke_Key.space	Key.space	n/a
28.5625	0.09	57125	keystroke_r	r	n/a
28.9075	0.06	57815	keystroke_o	o	n/a
29.0875	0.06	58175	keystroke_l	l	n/a
29.2075	0.12	58415	keystroke_l	l	n/a
29.3275	0.1045	58655	keystroke_Key.space	Key.space	n/a
29.627	0.075	59254	keystroke_b	b	n/a
29.687	0.09	59374	keystroke_e	e	n/a
29.912	0.075	59824	keystroke_Key.enter	Key.enter	n/a
29.994	6.07	59988	prompt	n/a	leeds nursing poem tutorial\n
30.6175	0.1195	61235	keystroke_l	l	n/a
30.752	0.09	61504	keystroke_e	e	n/a
31.337	0.03	62674	keystroke_e	e	n/a
31.487	0.12	62974	keystroke_s	s	n/a
32.147	0.045	64294	keystroke_Key.backspace	Key.backspace	n/a
32.207	0.09	64414	keystroke_d	d	n/a
32.372	0.09	64744	keystroke_s	s	n/a
32.463	0.089	64926	keystroke_Key.space	Key.space	n/a
32.612	0.09	65224	keystroke_n	n	n/a
32.732	0.12	65464	keystroke_u	u	n/a
32.822	0.09	65644	keystroke_r	r	n/a
33.002	0.105	66004	keystroke_s	s	n/a
33.122	0.15	66244	keystroke_i	i	n/a
33.227	0.105	66454	keystroke_n	n	n/a
33.317	0.105	66634	keystroke_g	g	n/a
33.452	0.135	66904	keystroke_Key.space	Key.space	n/a
33.662	0.18	67324	keystroke_p	p	n/a
33.797	0.09	67594	keystroke_o	o	n/a
33.932	0.12	67864	keystroke_e	e	n/a
34.097	0.045	68194	keystroke_n	n	n/a
34.397	0.03	68794	keystroke_Key.backspace	Key.backspace	n/a
34.622	0.075	69244	keystroke_m	m	n/a
34.682	0.105	69364	keystroke_Key.space	Key.space	n/a
34.847	0.091	69694	keystroke_t	t	n/a
34.923	0.059	69846	keystroke_u	u	n/a
35.073	0.135	70146	keystroke_t	t	n/a
35.298	0.074	70596	keystroke_o	o	n/a
35.418	0.06	70836	keystroke_r	r	n/a
35.508	0.09	71016	keystroke_i	i	n/a
35.643	0.09	71286	keystroke_a	a	n/a
35.718	0.12	71436	keystroke_l	l	n/a
35.9575	0.105	71915	keystroke_Key.enter	Key.enter	n/a
36.068	5.576	72136	prompt	n/a	direction field charm matched\n
36.558	0.059	73116	keystroke_d	d	n/a
36.7975	0.09	73595	keystroke_i	i	n/a
36.9475	0.06	73895	keystroke_s	s	n/a
37.3825	0.075	74765	keystroke_Key.backspace	Key.backspace	n/a
37.4425	0.075	74885	keystroke_r	r	n/a
37.622	0.06	75244	keystroke_e	e	n/a
37.862	0.105	75724	keystroke_c	c	n/a
38.102	0.09	76204	keystroke_t	t	n/a
38.207	0.195	76414	keystroke_i	i	n/a
38.312	0.18	76624	keystroke_o	o	n/a
38.387	0.15	76774	keystroke_n	n	n/a
38.538	0.089	77076	keystroke_Key.space	Key.space	n/a
38.642	0.0905	77284	keystroke_f	f	n/a
38.7475	0.105	77495	keystroke_i	i	n/a
38.9275	0.105	77855	keystroke_e	e	n/a
39.1675	0.105	78335	keystroke_l	l	n/a
39.3025	0.075	78605	keystroke_d	d	n/a
39.3925	0.105	78785	keystroke_Key.space	Key.space	n/a
39.5575	0.075	79115	keystroke_c	c	n/a
39.6475	0.105	79295	keystroke_h	h	n/a
39.7375	0.105	79475	keystroke_a	a	n/a
39.9175	0.09	79835	keystroke_r	r	n/a
40.0825	0.06	80165	keystroke_m	m	n/a
40.262	0.075	80524	keystroke_Key.space	Key.space	n/a
40.442	0.105	80884	keystroke_m	m	n/a
40.517	0.09	81034	keystroke_a	a	n/a
40.757	0.03	81514	keystroke_t	t	n/a
40.937	0.09	81874	keystroke_c	c	n/a
41.042	0.091	82084	keystroke_h	h	n/a
41.117	0.075	82234	keystroke_e	e	n/a
41.312	0.09	82624	keystroke_s	s	n/a
41.522	0.1205	83044	keystroke_Key.enter	Key.enter	n/a
41.6475	5.5015	83295	prompt	n/a	bean andreas owns credit\n
42.5425	0.105	85085	keystroke_b	b	n/a
42.6175	0.0745	85235	keystroke_e	e	n/a
42.812	0.075	85624	keystroke_a	a	n/a
42.872	0.09	85744	keystroke_n	n	n/a
42.977	0.1055	85954	keystroke_Key.space	Key.space	n/a
43.0975	0.075	86195	keystroke_a	a	n/a
43.2175	0.075	86435	keystroke_n	n	n/a
43.2775	0.09	86555	keystroke_d	d	n/a
43.4725	0.075	86945	keystroke_r	r	n/a
43.6525	0.09	87305	keystroke_e	e	n/a
43.8475	0.075	87695	keystroke_a	a	n/a
44.0425	0.075	88085	keystroke_s	s	n/a
44.1325	0.075	88265	keystroke_Key.space	Key.space	n/a
44.3425	0.1045	88685	keystroke_w	w	n/a
44.657	0.0905	89314	keystroke_Key.backspace	Key.backspace	n/a
44.9125	0.09	89825	keystroke_o	o	n/a
45.0175	0.09	90035	keystroke_w	w	n/a
45.1375	0.1045	90275	keystroke_n	n	n/a
45.407	0.105	90814	keystroke_s	s	n/a
45.527	0.075	91054	keystroke_Key.space	Key.space	n/a
45.9475	0.09	91895	keystroke_c	c	n/a
46.1725	0.075	92345	keystroke_r	r	n/a
46.3225	0.075	92645	keystroke_e	e	n/a
46.4875	0.105	92975	keystroke_d	d	n/a
46.5925	0.0745	93185	keystroke_i	i	n/a
46.772	0.075	93544	keystroke_t	t	n/a
47.042	0.105	94084	keystroke_Key.enter	Key.enter	n/a
47.1515	5.652	94303	prompt	n/a	tones leave disturbed ours\n
47.837	0.105	95674	keystroke_t	t	n/a
47.927	0.165	95854	keystroke_o	o	n/a
48.047	0.12	96094	keystroke_n	n	n/a
48.137	0.06	96274	keystroke_e	e	n/a
48.302	0.09	96604	keystroke_s	s	n/a
48.407	0.12	96814	keystroke_Key.space	Key.space	n/a
48.512	0.075	97024	keystroke_l	l	n/a
48.588	0.059	97176	keystroke_e	e	n/a
48.752	0.09	97504	keystroke_a	a	n/a
48.872	0.09	97744	keystroke_v	v	n/a
48.977	0.075	97954	keystroke_e	e	n/a
49.097	0.105	98194	keystroke_Key.space	Key.space	n/a
49.187	0.06	98374	keystroke_d	d	n/a
49.292	0.12	98584	keystroke_i	i	n/a
49.427	0.045	98854	keystroke_s	s	n/a
49.8625	0.0895	99725	keystroke_t	t	n/a
50.027	0.075	100054	keystroke_u	u	n/a
50.132	0.105	100264	keystroke_r	r	n/a
50.372	0.09	100744	keystroke_b	b	n/a
50.477	0.075	100954	keystroke_e	e	n/a
50.687	0.09	101374	keystroke_d	d	n/a
50.912	0.105	101824	keystroke_Key.space	Key.space	n/a
51.062	0.1205	102124	keystroke_o	o	n/a
51.122	0.0905	102244	keystroke_u	u	n/a
51.8275	0.135	103655	keystroke_t	t	n/a
52.2925	0.105	104585	keystroke_Key.backspace	Key.backspace	n/a
52.3225	0.105	104645	keystroke_r	r	n/a
52.547	0.12	105094	keystroke_s	s	n/a
52.712	0.09	105424	keystroke_Key.enter	Key.enter	n/a
52.809	8.7095	105618	prompt	n/a	vacancies humidity expo observe\n
53.4475	0.105	106895	keystroke_v	v	n/a
53.5975	0.105	107195	keystroke_a	a	n/a
53.912	0.075	107824	keystroke_c	c	n/a
54.077	0.06	108154	keystroke_a	a	n/a
54.152	0.09	108304	keystroke_n	n	n/a
54.332	0.075	108664	keystroke_d	d	n/a
54.662	0.075	109324	keystroke_Key.backspace	Key.backspace	n/a
54.722	0.105	109444	keystroke_c	c	n/a
54.917	0.075	109834	keystroke_i	i	n/a
55.022	0.06	110044	keystroke_e	e	n/a
55.2625	0.12	110525	keystroke_s	s	n/a
55.4275	0.135	110855	keystroke_Key.space	Key.space	n/a
55.6075	0.09	111215	keystroke_h	h	n/a
55.7425	0.09	111485	keystroke_u	u	n/a
55.9075	0.09	111815	keystroke_b	b	n/a
56.4925	0.06	112985	keystroke_Key.backspace	Key.backspace	n/a
56.7025	0.105	113405	keystroke_m	m	n/a
56.8525	0.075	113705	keystroke_i	i	n/a
57.7825	0.075	115565	keystroke_d	d	n/a
58.1125	0.089	116225	keystroke_i	i	n/a
58.3965	0.091	116793	keystroke_t	t	n/a
58.5475	0.104	117095	keystroke_y	y	n/a
58.7715	0.105	117543	keystroke_Key.space	Key.space	n/a
58.8615	0.075	117723	keystroke_e	e	n/a
59.0875	0.119	118175	keystroke_x	x	n/a
59.2515	0.165	118503	keystroke_p	p	n/a
59.492	0.12	118984	keystroke_o	o	n/a
59.672	0.075	119344	keystroke_Key.space	Key.space	n/a
59.867	0.09	119734	keystroke_o	o	n/a
60.092	0.09	120184	keystroke_b	b	n/a
60.302	0.105	120604	keystroke_s	s	n/a
60.572	0.075	121144	keystroke_e	e	n/a
60.7215	0.075	121443	keystroke_r	r	n/a
60.9475	0.074	121895	keystroke_v	v	n/a
61.0965	0.12	122193	keystroke_e	e	n/a
61.4115	0.105	122823	keystroke_Key.enter	Key.enter	n/a
61.5215	8.2025	123043	prompt	n/a	street miscellaneous thursday nevada\n
62.207	0.09	124414	keystroke_s	s	n/a
62.372	0.09	124744	keystroke_t	t	n/a
62.567	0.09	125134	keystroke_r	r	n/a
62.792	0.015	125584	keystroke_e	e	n/a
62.882	0.06	125764	keystroke_e	e	n/a
63.077	0.075	126154	keystroke_t	t	n/a
63.212	0.09	126424	keystroke_Key.space	Key.space	n/a
63.362	0.12	126724	keystroke_m	m	n/a
63.497	0.09	126994	keystroke_i	i	n/a
63.572	0.06	127144	keystroke_s	s	n/a
63.707	0.09	127414	keystroke_c	c	n/a
63.947	0.09	127894	keystroke_e	e	n/a
64.157	0.045	128314	keystroke_l	l	n/a
64.277	0.105	128554	keystroke_l	l	n/a
64.352	0.075	128704	keystroke_a	a	n/a
64.592	0.09	129184	keystroke_n	n	n/a
64.802	0.06	129604	keystroke_e	e	n/a
64.967	0.12	129934	keystroke_o	o	n/a
65.042	0.075	130084	keystroke_u	u	n/a
65.177	0.09	130354	keystroke_s	s	n/a
65.762	0.09	131524	keystroke_Key.space	Key.space	n/a
66.152	0.12	132304	keystroke_t	t	n/a
66.227	0.12	132454	keystroke_h	h	n/a
66.332	0.12	132664	keystroke_u	u	n/a
66.407	0.075	132814	keystroke_r	r	n/a
66.662	0.06	133324	keystroke_s	s	n/a
66.857	0.075	133714	keystroke_d	d	n/a
67.037	0.09	134074	keystroke_a	a	n/a
67.157	0.12	134314	keystroke_y	y	n/a
67.292	0.075	134584	keystroke_Key.space	Key.space	n/a
67.9815	0.075	135963	keystroke_n	n	n/a
68.1015	0.06	136203	keystroke_e	e	n/a
68.2965	0.06	136593	keystroke_d	d	n/a
68.5965	0.0905	137193	keystroke_Key.backspace	Key.backspace	n/a
68.6415	0.0755	137283	keystroke_v	v	n/a
68.837	0.1055	137674	keystroke_a	a	n/a
69.0475	0.045	138095	keystroke_d	d	n/a
69.1675	0.12	138335	keystroke_a	a	n/a
69.662	0.06	139324	keystroke_Key.enter	Key.enter	n/a
69.726	6.5975	139452	prompt	n/a	nascar around matters arrange\n
70.352	0.105	140704	keystroke_n	n	n/a
70.412	0.06	140824	keystroke_a	a	n/a
70.592	0.06	141184	keystroke_s	s	n/a
70.802	0.075	141604	keystroke_c	c	n/a
70.952	0.09	141904	keystroke_a	a	n/a
71.147	0.075	142294	keystroke_r	r	n/a
71.282	0.105	142564	keystroke_Key.space	Key.space	n/a
71.477	0.105	142954	keystroke_a	a	n/a
71.687	0.09	143374	keystroke_r	r	n/a
71.792	0.12	143584	keystroke_o	o	n/a
71.867	0.046	143734	keystroke_u	u	n/a
72.062	0.075	144124	keystroke_n	n	n/a
72.167	0.075	144334	keystroke_d	d	n/a
72.272	0.09	144544	keystroke_Key.space	Key.space	n/a
72.422	0.09	144844	keystroke_m	m	n/a
72.497	0.09	144994	keystroke_a	a	n/a
72.797	0.075	145594	keystroke_t	t	n/a
73.2325	0.03	146465	keystroke_t	t	n/a
73.4875	0.15	146975	keystroke_e	e	n/a
73.5625	0.12	147125	keystroke_r	r	n/a
73.9675	0.09	147935	keystroke_s	s	n/a
74.1025	0.12	148205	keystroke_Key.space	Key.space	n/a
74.2075	0.09	148415	keystroke_a	a	n/a
74.417	0.165	148834	keystroke_r	r	n/a
74.747	0.045	149494	keystroke_a	a	n/a
75.062	0.105	150124	keystroke_Key.backspace	Key.backspace	n/a
75.137	0.075	150274	keystroke_r	r	n/a
75.362	0.09	150724	keystroke_a	a	n/a
75.512	0.075	151024	keystroke_n	n	n/a
75.647	0.1205	151294	keystroke_g	g	n/a
75.8875	0.075	151775	keystroke_e	e	n/a
76.217	0.105	152434	keystroke_Key.enter	Key.enter	n/a
76.3265	7.392	152653	prompt	n/a	switch depot dependence brass\n
76.8475	0.06	153695	keystroke_s	s	n/a
77.0575	0.0595	154115	keystroke_w	w	n/a
77.132	0.075	154264	keystroke_i	i	n/a
77.252	0.075	154504	keystroke_t	t	n/a
77.462	0.12	154924	keystroke_c	c	n/a
77.567	0.09	155134	keystroke_h	h	n/a
77.658	0.089	155316	keystroke_Key.space	Key.space	n/a
77.807	0.12	155614	keystroke_d	d	n/a
77.942	0.06	155884	keystroke_i	i	n/a
78.122	0.075	156244	keystroke_p	p	n/a
78.572	0.06	157144	keystroke_o	o	n/a
78.707	0.105	157414	keystroke_t	t	n/a
78.842	0.075	157684	keystroke_Key.space	Key.space	n/a
79.547	0.075	159094	keystroke_Key.backspace	Key.backspace	n/a
79.712	0.075	159424	keystroke_Key.backspace	Key.backspace	n/a
79.832	0.075	159664	keystroke_Key.backspace	Key.backspace	n/a
79.982	0.06	159964	keystroke_Key.backspace	Key.backspace	n/a
80.117	0.09	160234	keystroke_Key.backspace	Key.backspace	n/a
80.252	0.06	160504	keystroke_e	e	n/a
80.417	0.15	160834	keystroke_p	p	n/a
80.522	0.105	161044	keystroke_o	o	n/a
80.7765	0.135	161553	keystroke_t	t	n/a
80.8965	0.106	161793	keystroke_Key.space	Key.space	n/a
81.1675	0.015	162335	keystroke_d	d	n/a
81.2725	0.06	162545	keystroke_e	e	n/a
81.3025	0.105	162605	keystroke_p	p	n/a
81.4375	0.09	162875	keystroke_e	e	n/a
81.5425	0.089	163085	keystroke_n	n	n/a
81.6775	0.06	163355	keystroke_d	d	n/a
81.8725	0.06	163745	keystroke_e	e	n/a
82.1875	0.06	164375	keystroke_n	n	n/a
82.3075	0.09	164615	keystroke_c	c	n/a
82.4575	0.105	164915	keystroke_e	e	n/a
82.5775	0.075	165155	keystroke_Key.space	Key.space	n/a
82.7425	0.09	165485	keystroke_b	b	n/a
82.7875	0.075	165575	keystroke_r	r	n/a
82.9825	0.06	165965	keystroke_a	a	n/a
83.2075	0.045	166415	keystroke_s	s	n/a
83.342	0.09	166684	keystroke_s	s	n/a
83.627	0.09	167254	keystroke_Key.enter	Key.enter	n/a
83.721	8.9225	167442	prompt	n/a	mardi microphone volkswagen intersection\n
84.3775	0.075	168755	keystroke_m	m	n/a
84.5125	0.075	169025	keystroke_a	a	n/a
84.6925	0.075	169385	keystroke_r	r	n/a
84.8875	0.105	169775	keystroke_d	d	n/a
85.0825	0.075	170165	keystroke_i	i	n/a
85.3525	0.074	170705	keystroke_Key.space	Key.space	n/a
85.6975	0.089	171395	keystroke_m	m	n/a
85.8325	0.074	171665	keystroke_i	i	n/a
85.9515	0.0755	171903	keystroke_c	c	n/a
86.162	0.09	172324	keystroke_r	r	n/a
86.267	0.0745	172534	keystroke_o	o	n/a
86.6115	0.0905	173223	keystroke_p	p	n/a
86.7315	0.105	173463	keystroke_h	h	n/a
86.8965	0.15	173793	keystroke_o	o	n/a
86.9715	0.105	173943	keystroke_n	n	n/a
87.1065	0.06	174213	keystroke_e	e	n/a
87.1965	0.075	174393	keystroke_Key.space	Key.space	n/a
87.6615	0.165	175323	keystroke_v	v	n/a
87.7215	0.09	175443	keystroke_o	o	n/a
87.9475	0.089	175895	keystroke_l	l	n/a
88.1265	0.121	176253	keystroke_c	c	n/a
88.5165	0.045	177033	keystroke_Key.backspace	Key.backspace	n/a
88.6965	0.075	177393	keystroke_k	k	n/a
88.7565	0.075	177513	keystroke_s	s	n/a
89.0565	0.075	178113	keystroke_w	w	n/a
89.2665	0.09	178533	keystroke_a	a	n/a
89.5365	0.075	179073	keystroke_g	g	n/a
89.7165	0.09	179433	keystroke_e	e	n/a
89.8365	0.09	179673	keystroke_n	n	n/a
89.9715	0.075	179943	keystroke_Key.space	Key.space	n/a
90.1365	0.09	180273	keystroke_i	i	n/a
90.3315	0.075	180663	keystroke_n	n	n/a
90.6775	0.0745	181355	keystroke_t	t	n/a
90.797	0.105	181594	keystroke_e	e	n/a
90.887	0.09	181774	keystroke_r	r	n/a
91.112	0.105	182224	keystroke_s	s	n/a
91.218	0.089	182436	keystroke_e	e	n/a
91.772	0.075	183544	keystroke_c	c	n/a
91.967	0.075	183934	keystroke_t	t	n/a
92.072	0.165	184144	keystroke_i	i	n/a
92.177	0.105	184354	keystroke_o	o	n/a
92.222	0.12	184444	keystroke_n	n	n/a
92.552	0.09	185104	keystroke_Key.enter	Key.enter	n/a
92.646	8.8025	185292	prompt	n/a	theology appointments robbie featuring\n
93.287	0.075	186574	keystroke_t	t	n/a
93.377	0.075	186754	keystroke_h	h	n/a
93.497	0.135	186994	keystroke_e	e	n/a
93.647	0.075	187294	keystroke_o	o	n/a
93.857	0.06	187714	keystroke_l	l	n/a
94.052	0.09	188104	keystroke_o	o	n/a
94.202	0.105	188404	keystroke_g	g	n/a
94.442	0.105	188884	keystroke_y	y	n/a
94.592	0.105	189184	keystroke_Key.space	Key.space	n/a
94.712	0.1045	189424	keystroke_a	a	n/a
94.8765	0.045	189753	keystroke_p	p	n/a
95.0115	0.12	190023	keystroke_p	p	n/a
95.1015	0.09	190203	keystroke_o	o	n/a
95.2965	0.135	190593	keystroke_i	i	n/a
95.4465	0.09	190893	keystroke_n	n	n/a
95.5815	0.09	191163	keystroke_t	t	n/a
95.7015	0.075	191403	keystroke_m	m	n/a
95.8215	0.09	191643	keystroke_e	e	n/a
95.9125	0.0895	191825	keystroke_n	n	n/a
96.0325	0.0745	192065	keystroke_t	t	n/a
96.2565	0.105	192513	keystroke_s	s	n/a
96.3765	0.06	192753	keystroke_Key.space	Key.space	n/a
96.6465	0.12	193293	keystroke_r	r	n/a
96.7515	0.0755	193503	keystroke_o	o	n/a
96.932	0.045	193864	keystroke_b	b	n/a
97.037	0.12	194074	keystroke_b	b	n/a
97.172	0.12	194344	keystroke_i	i	n/a
97.277	0.09	194554	keystroke_e	e	n/a
97.397	0.09	194794	keystroke_Key.space	Key.space	n/a
97.5475	0.09	195095	keystroke_r	r	n/a
97.7575	0.105	195515	keystroke_a	a	n/a
98.4175	0.06	196835	keystroke_Key.backspace	Key.backspace	n/a
98.5525	0.105	197105	keystroke_Key.backspace	Key.backspace	n/a
98.867	0.09	197734	keystroke_g	g	n/a
99.362	0.075	198724	keystroke_Key.backspace	Key.backspace	n/a
99.482	0.075	198964	keystroke_f	f	n/a
99.767	0.09	199534	keystroke_e	e	n/a
99.962	0.09	199924	keystroke_a	a	n/a
100.172	0.1055	200344	keystroke_t	t	n/a
100.2625	0.075	200525	keystroke_u	u	n/a
100.3675	0.12	200735	keystroke_r	r	n/a
100.6375	0.12	201275	keystroke_i	i	n/a
100.7125	0.12	201425	keystroke_n	n	n/a
100.8175	0.105	201635	keystroke_g	g	n/a
101.3425	0.105	202685	keystroke_Key.enter	Key.enter	n/a
101.451	6.0725	202902	prompt	n/a	seconds fathers greene lobby\n
102.017	0.105	204034	keystroke_s	s	n/a
102.152	0.075	204304	keystroke_e	e	n/a
102.392	0.09	204784	keystroke_c	c	n/a
102.527	0.135	205054	keystroke_o	o	n/a
102.602	0.12	205204	keystroke_n	n	n/a
102.737	0.105	205474	keystroke_d	d	n/a
102.872	0.1055	205744	keystroke_s	s	n/a
103.0375	0.09	206075	keystroke_Key.space	Key.space	n/a
103.6375	0.09	207275	keystroke_f	f	n/a
103.8175	0.09	207635	keystroke_a	a	n/a
104.0125	0.075	208025	keystroke_t	t	n/a
104.1025	0.075	208205	keystroke_h	h	n/a
104.2075	0.105	208415	keystroke_e	e	n/a
104.2675	0.105	208535	keystroke_r	r	n/a
104.5525	0.105	209105	keystroke_s	s	n/a
104.6725	0.105	209345	keystroke_Key.space	Key.space	n/a
105.1375	0.12	210275	keystroke_g	g	n/a
105.3775	0.075	210755	keystroke_r	r	n/a
105.5725	0.045	211145	keystroke_e	e	n/a
105.6775	0.12	211355	keystroke_e	e	n/a
105.8125	0.075	211625	keystroke_n	n	n/a
105.9025	0.105	211805	keystroke_e	e	n/a
106.0375	0.075	212075	keystroke_Key.space	Key.space	n/a
106.2625	0.0895	212525	keystroke_l	l	n/a
106.457	0.075	212914	keystroke_o	o	n/a
106.6975	0.045	213395	keystroke_b	b	n/a
106.8175	0.105	213635	keystroke_b	b	n/a
107.0425	0.075	214085	keystroke_y	y	n/a
107.4325	0.09	214865	keystroke_Key.enter	Key.enter	n/a
107.5265	9.177	215053	prompt	n/a	bass mentioned meetup spokesman\n
111.35	0.012	222700	keystroke_b	b	n/a
111.422	0.09	222844	keystroke_a	a	n/a
111.752	0.135	223504	keystroke_s	s	n/a
111.902	0.135	223804	keystroke_s	s	n/a
112.262	0.12	224524	keystroke_Key.space	Key.space	n/a
112.442	0.075	224884	keystroke_m	m	n/a
112.547	0.075	225094	keystroke_e	e	n/a
112.667	0.06	225334	keystroke_n	n	n/a
112.7875	0.105	225575	keystroke_t	t	n/a
112.8775	0.165	225755	keystroke_i	i	n/a
112.9675	0.15	225935	keystroke_o	o	n/a
113.0275	0.12	226055	keystroke_n	n	n/a
113.1325	0.045	226265	keystroke_e	e	n/a
113.3575	0.09	226715	keystroke_d	d	n/a
113.5675	0.105	227135	keystroke_Key.space	Key.space	n/a
113.7175	0.06	227435	keystroke_m	m	n/a
113.8075	0.03	227615	keystroke_e	e	n/a
113.9275	0.075	227855	keystroke_e	e	n/a
114.1825	0.09	228365	keystroke_d	d	n/a
114.4225	0.09	228845	keystroke_u	u	n/a
114.5425	0.135	229085	keystroke_p	p	n/a
114.6925	0.06	229385	keystroke_Key.space	Key.space	n/a
114.9775	0.09	229955	keystroke_s	s	n/a
115.0975	0.15	230195	keystroke_p	p	n/a
115.2325	0.075	230465	keystroke_o	o	n/a
115.5475	0.09	231095	keystroke_k	k	n/a
115.6225	0.075	231245	keystroke_e	e	n/a
115.8325	0.09	231665	keystroke_s	s	n/a
116.0275	0.09	232055	keystroke_m	m	n/a
116.1325	0.075	232265	keystroke_a	a	n/a
116.2375	0.045	232475	keystroke_n	n	n/a
116.6275	0.075	233255	keystroke_Key.enter	Key.enter	n/a
116.707	7.5565	233414	prompt	n/a	butler laura goals similarly\n
117.4075	0.15	234815	keystroke_b	b	n/a
117.5875	0.105	235175	keystroke_u	u	n/a
117.7375	0.105	235475	keystroke_t	t	n/a
117.9175	0.105	235835	keystroke_l	l	n/a
118.1275	0.15	236255	keystroke_e	e	n/a
118.3975	0.105	236795	keystroke_r	r	n/a
118.787	0.06	237574	keystroke_Key.space	Key.space	n/a
118.892	0.135	237784	keystroke_l	l	n/a
119.042	0.105	238084	keystroke_a	a	n/a
119.237	0.105	238474	keystroke_u	u	n/a
119.447	0.09	238894	keystroke_r	r	n/a
119.657	0.105	239314	keystroke_a	a	n/a
119.882	0.09	239764	keystroke_Key.space	Key.space	n/a
120.182	0.075	240364	keystroke_g	g	n/a
120.287	0.09	240574	keystroke_o	o	n/a
120.392	0.135	240784	keystroke_a	a	n/a
120.572	0.09	241144	keystroke_l	l	n/a
120.677	0.075	241354	keystroke_s	s	n/a
120.782	0.09	241564	keystroke_Key.space	Key.space	n/a
121.112	0.105	242224	keystroke_s	s	n/a
121.187	0.09	242374	keystroke_m	m	n/a
121.532	0.075	243064	keystroke_Key.backspace	Key.backspace	n/a
121.772	0.09	243544	keystroke_i	i	n/a
121.952	0.105	243904	keystroke_m	m	n/a
122.087	0.075	244174	keystroke_i	i	n/a
122.252	0.09	244504	keystroke_l	l	n/a
122.357	0.075	244714	keystroke_a	a	n/a
122.912	0.12	245824	keystroke_r	r	n/a
123.5725	0.075	247145	keystroke_l	l	n/a
123.8725	0.09	247745	keystroke_y	y	n/a
124.1875	0.075	248375	keystroke_Key.enter	Key.enter	n/a
124.266	5.1425	248532	prompt	n/a	refund cooler stylus manitoba\n
124.937	0.075	249874	keystroke_r	r	n/a
125.117	0.06	250234	keystroke_e	e	n/a
125.312	0.09	250624	keystroke_f	f	n/a
125.417	0.075	250834	keystroke_u	u	n/a
125.627	0.09	251254	keystroke_n	n	n/a
125.732	0.09	251464	keystroke_d	d	n/a
125.882	0.09	251764	keystroke_Key.space	Key.space	n/a
126.092	0.105	252184	keystroke_c	c	n/a
126.167	0.075	252334	keystroke_o	o	n/a
126.3475	0.06	252695	keystroke_o	o	n/a
126.5425	0.075	253085	keystroke_l	l	n/a
126.5725	0.135	253145	keystroke_e	e	n/a
126.6925	0.075	253385	keystroke_r	r	n/a
126.7825	0.075	253565	keystroke_Key.space	Key.space	n/a
126.8875	0.105	253775	keystroke_s	s	n/a
127.0815	0.121	254163	keystroke_t	t	n/a
127.2475	0.075	254495	keystroke_y	y	n/a
127.4575	0.09	254915	keystroke_l	l	n/a
127.7575	0.075	255515	keystroke_u	u	n/a
127.8775	0.12	255755	keystroke_s	s	n/a
127.9675	0.105	255935	keystroke_Key.space	Key.space	n/a
128.1475	0.075	256295	keystroke_m	m	n/a
128.2375	0.12	256475	keystroke_a	a	n/a
128.3425	0.075	256685	keystroke_n	n	n/a
128.4625	0.105	256925	keystroke_i	i	n/a
128.6125	0.12	257225	keystroke_t	t	n/a
128.7325	0.105	257465	keystroke_o	o	n/a
128.8975	0.075	257795	keystroke_b	b	n/a
129.1525	0.12	258305	keystroke_a	a	n/a
129.332	0.075	258664	keystroke_Key.enter	Key.enter	n/a
129.4125	4.571	258825	prompt	n/a	team white suburban nutten\n
129.947	0.075	259894	keystroke_t	t	n/a
130.157	0.06	260314	keystroke_e	e	n/a
130.292	0.09	260584	keystroke_a	a	n/a
130.383	0.074	260766	keystroke_m	m	n/a
130.547	0.105	261094	keystroke_Key.space	Key.space	n/a
130.637	0.1205	261274	keystroke_w	w	n/a
130.7425	0.104	261485	keystroke_h	h	n/a
130.8325	0.135	261665	keystroke_i	i	n/a
130.9525	0.075	261905	keystroke_t	t	n/a
131.0875	0.09	262175	keystroke_e	e	n/a
131.2075	0.09	262415	keystroke_Key.space	Key.space	n/a
131.3565	0.15	262713	keystroke_s	s	n/a
131.6275	0.12	263255	keystroke_u	u	n/a
131.7915	0.076	263583	keystroke_b	b	n/a
132.137	0.09	264274	keystroke_u	u	n/a
132.242	0.105	264484	keystroke_r	r	n/a
132.497	0.06	264994	keystroke_b	b	n/a
132.572	0.105	265144	keystroke_a	a	n/a
132.722	0.09	265444	keystroke_n	n	n/a
132.992	0.075	265984	keystroke_Key.space	Key.space	n/a
133.127	0.09	266254	keystroke_n	n	n/a
133.247	0.09	266494	keystroke_u	u	n/a
133.322	0.06	266644	keystroke_t	t	n/a
133.4415	0.09	266883	keystroke_t	t	n/a
133.5765	0.12	267153	keystroke_e	e	n/a
133.6515	0.09	267303	keystroke_n	n	n/a
133.8925	0.089	267785	keystroke_Key.enter	Key.enter	n/a
133.994	6.0195	267988	prompt	n/a	able astrology processors unwrap\n
134.537	0.12	269074	keystroke_a	a	n/a
134.762	0.06	269524	keystroke_b	b	n/a
134.927	0.09	269854	keystroke_l	l	n/a
134.972	0.09	269944	keystroke_e	e	n/a
135.092	0.0905	270184	keystroke_Key.space	Key.space	n/a
135.2425	0.135	270485	keystroke_a	a	n/a
135.4825	0.105	270965	keystroke_s	s	n/a
135.6775	0.0755	271355	keystroke_t	t	n/a
135.857	0.09	271714	keystroke_r	r	n/a
135.902	0.06	271804	keystroke_o	o	n/a
136.083	0.045	272166	keystroke_l	l	n/a
136.247	0.0755	272494	keystroke_o	o	n/a
136.3525	0.09	272705	keystroke_g	g	n/a
136.5475	0.075	273095	keystroke_y	y	n/a
136.6375	0.0895	273275	keystroke_Key.space	Key.space	n/a
136.787	0.09	273574	keystroke_p	p	n/a
136.862	0.105	273724	keystroke_r	r	n/a
137.0575	0.075	274115	keystroke_o	o	n/a
137.2225	0.105	274445	keystroke_c	c	n/a
137.4025	0.09	274805	keystroke_e	e	n/a
137.5975	0.075	275195	keystroke_s	s	n/a
137.6875	0.135	275375	keystroke_s	s	n/a
138.0025	0.075	276005	keystroke_o	o	n/a
138.0925	0.09	276185	keystroke_r	r	n/a
138.2875	0.09	276575	keystroke_s	s	n/a
138.3915	0.1055	276783	keystroke_Key.space	Key.space	n/a
138.557	0.09	277114	keystroke_u	u	n/a
138.722	0.1055	277444	keystroke_n	n	n/a
139.0225	0.134	278045	keystroke_w	w	n/a
139.3065	0.105	278613	keystroke_r	r	n/a
139.547	0.1205	279094	keystroke_a	a	n/a
139.6825	0.0755	279365	keystroke_p	p	n/a
139.9215	0.09	279843	keystroke_Key.enter	Key.enter	n/a
140.0165	7.077	280033	prompt	n/a	induced doing semiconductor smithsonian\n
140.822	0.135	281644	keystroke_i	i	n/a
140.927	0.105	281854	keystroke_n	n	n/a
141.107	0.06	282214	keystroke_c	c	n/a
141.4525	0.075	282905	keystroke_Key.backspace	Key.backspace	n/a
141.5425	0.075	283085	keystroke_d	d	n/a
141.7375	0.06	283475	keystroke_u	u	n/a
141.8275	0.075	283655	keystroke_c	c	n/a
141.9925	0.09	283985	keystroke_e	e	n/a
142.1875	0.105	284375	keystroke_d	d	n/a
142.3075	0.075	284615	keystroke_Key.space	Key.space	n/a
142.5025	0.09	285005	keystroke_d	d	n/a
142.6075	0.15	285215	keystroke_o	o	n/a
142.7125	0.105	285425	keystroke_i	i	n/a
142.9225	0.075	285845	keystroke_n	n	n/a
143.0125	0.075	286025	keystroke_g	g	n/a
143.1025	0.105	286205	keystroke_Key.space	Key.space	n/a
143.3125	0.15	286625	keystroke_s	s	n/a
143.5675	0.105	287135	keystroke_e	e	n/a
143.7325	0.09	287465	keystroke_m	m	n/a
143.8825	0.09	287765	keystroke_i	i	n/a
144.0325	0.09	288065	keystroke_c	c	n/a
144.1675	0.12	288335	keystroke_o	o	n/a
144.2425	0.12	288485	keystroke_n	n	n/a
144.3775	0.09	288755	keystroke_d	d	n/a
144.5125	0.075	289025	keystroke_u	u	n/a
144.7375	0.06	289475	keystroke_c	c	n/a
144.9775	0.06	289955	keystroke_t	t	n/a
145.0975	0.075	290195	keystroke_o	o	n/a
145.1875	0.09	290375	keystroke_r	r	n/a
145.3225	0.075	290645	keystroke_Key.space	Key.space	n/a
145.4725	0.12	290945	keystroke_s	s	n/a
145.6075	0.09	291215	keystroke_m	m	n/a
145.7425	0.075	291485	keystroke_i	i	n/a
145.8625	0.06	291725	keystroke_t	t	n/a
145.9375	0.06	291875	keystroke_h	h	n/a
146.0875	0.12	292175	keystroke_s	s	n/a
146.1625	0.075	292325	keystroke_o	o	n/a
146.3425	0.09	292685	keystroke_n	n	n/a
146.4475	0.105	292895	keystroke_i	i	n/a
146.6275	0.09	293255	keystroke_a	a	n/a
146.7775	0.09	293555	keystroke_n	n	n/a
147.0325	0.06	294065	keystroke_Key.enter	Key.enter	n/a
147.096	6.3875	294192	prompt	n/a	wizard treated happiness nation\n
147.6925	0.075	295385	keystroke_w	w	n/a
147.7825	0.075	295565	keystroke_i	i	n/a
147.977	0.09	295954	keystroke_a	a	n/a
148.382	0.075	296764	keystroke_Key.backspace	Key.backspace	n/a
148.458	0.074	296916	keystroke_z	z	n/a
148.637	0.09	297274	keystroke_a	a	n/a
148.907	0.09	297814	keystroke_r	r	n/a
149.102	0.12	298204	keystroke_d	d	n/a
149.207	0.105	298414	keystroke_Key.space	Key.space	n/a
149.4025	0.074	298805	keystroke_t	t	n/a
149.5815	0.06	299163	keystroke_r	r	n/a
149.7315	0.09	299463	keystroke_e	e	n/a
150.0015	0.015	300003	keystroke_a	a	n/a
150.2715	0.06	300543	keystroke_t	t	n/a
150.3915	0.09	300783	keystroke_e	e	n/a
150.5565	0.075	301113	keystroke_d	d	n/a
150.6615	0.0905	301323	keystroke_Key.space	Key.space	n/a
150.857	0.09	301714	keystroke_h	h	n/a
150.932	0.135	301864	keystroke_a	a	n/a
151.052	0.06	302104	keystroke_p	p	n/a
151.187	0.09	302374	keystroke_p	p	n/a
151.6215	0.09	303243	keystroke_i	i	n/a
151.7865	0.09	303573	keystroke_n	n	n/a
151.8475	0.089	303695	keystroke_e	e	n/a
152.057	0.045	304114	keystroke_s	s	n/a
152.177	0.09	304354	keystroke_s	s	n/a
152.342	0.105	304684	keystroke_Key.space	Key.space	n/a
152.642	0.075	305284	keystroke_n	n	n/a
152.702	0.105	305404	keystroke_a	a	n/a
152.927	0.075	305854	keystroke_t	t	n/a
152.972	0.18	305944	keystroke_i	i	n/a
153.062	0.135	306124	keystroke_o	o	n/a
153.137	0.12	306274	keystroke_n	n	n/a
153.422	0.06	306844	keystroke_Key.enter	Key.enter	n/a
153.4865	7.092	306973	prompt	n/a	recreation footage provider foundations\n
154.112	0.075	308224	keystroke_r	r	n/a
154.292	0.045	308584	keystroke_e	e	n/a
154.457	0.06	308914	keystroke_c	c	n/a
154.637	0.075	309274	keystroke_r	r	n/a
155.1015	0.075	310203	keystroke_e	e	n/a
155.3115	0.03	310623	keystroke_a	a	n/a
155.4765	0.105	310953	keystroke_t	t	n/a
155.6115	0.18	311223	keystroke_i	i	n/a
155.7315	0.121	311463	keystroke_o	o	n/a
155.7765	0.15	311553	keystroke_n	n	n/a
155.9565	0.105	311913	keystroke_Key.space	Key.space	n/a
156.2115	0.091	312423	keystroke_f	f	n/a
156.362	0.045	312724	keystroke_o	o	n/a
156.497	0.1355	312994	keystroke_o	o	n/a
156.7075	0.105	313415	keystroke_t	t	n/a
156.9625	0.105	313925	keystroke_a	a	n/a
157.2175	0.09	314435	keystroke_g	g	n/a
157.382	0.09	314764	keystroke_e	e	n/a
157.502	0.105	315004	keystroke_Key.space	Key.space	n/a
157.667	0.09	315334	keystroke_p	p	n/a
157.742	0.09	315484	keystroke_r	r	n/a
157.8475	0.1045	315695	keystroke_o	o	n/a
158.042	0.105	316084	keystroke_v	v	n/a
158.2075	0.0895	316415	keystroke_i	i	n/a
158.357	0.09	316714	keystroke_d	d	n/a
158.582	0.0745	317164	keystroke_e	e	n/a
158.7315	0.105	317463	keystroke_r	r	n/a
158.8665	0.09	317733	keystroke_Key.space	Key.space	n/a
158.9715	0.0755	317943	keystroke_f	f	n/a
159.0765	0.15	318153	keystroke_o	o	n/a
159.1965	0.045	318393	keystroke_u	u	n/a
159.3765	0.09	318753	keystroke_n	n	n/a
159.4215	0.06	318843	keystroke_d	d	n/a
159.5565	0.09	319113	keystroke_a	a	n/a
159.7665	0.09	319533	keystroke_t	t	n/a
159.8415	0.15	319683	keystroke_i	i	n/a
159.9165	0.135	319833	keystroke_o	o	n/a
159.9765	0.12	319953	keystroke_n	n	n/a
160.262	0.09	320524	keystroke_s	s	n/a
160.517	0.06	321034	keystroke_Key.enter	Key.enter	n/a
160.5835	4.48	321167	prompt	n/a	opening view depends leaves\n
161.162	0.06	322324	keystroke_o	o	n/a
161.3575	0.06	322715	keystroke_p	p	n/a
161.4475	0.105	322895	keystroke_e	e	n/a
161.5675	0.105	323135	keystroke_n	n	n/a
161.7025	0.15	323405	keystroke_i	i	n/a
161.8075	0.09	323615	keystroke_n	n	n/a
161.9275	0.075	323855	keystroke_g	g	n/a
162.0175	0.09	324035	keystroke_Key.space	Key.space	n/a
162.2425	0.135	324485	keystroke_v	v	n/a
162.3925	0.075	324785	keystroke_i	i	n/a
162.7225	0.075	325445	keystroke_e	e	n/a
162.9025	0.09	325805	keystroke_w	w	n/a
163.0975	0.075	326195	keystroke_Key.space	Key.space	n/a
163.1875	0.075	326375	keystroke_d	d	n/a
163.3675	0.075	326735	keystroke_e	e	n/a
163.4575	0.06	326915	keystroke_p	p	n/a
163.5325	0.075	327065	keystroke_e	e	n/a
163.6375	0.09	327275	keystroke_n	n	n/a
163.7425	0.075	327485	keystroke_d	d	n/a
163.9375	0.09	327875	keystroke_s	s	n/a
164.0575	0.105	328115	keystroke_Key.space	Key.space	n/a
164.2075	0.09	328415	keystroke_l	l	n/a
164.2525	0.06	328505	keystroke_e	e	n/a
164.3875	0.12	328775	keystroke_a	a	n/a
164.4925	0.12	328985	keystroke_v	v	n/a
164.5975	0.09	329195	keystroke_e	e	n/a
164.8075	0.12	329615	keystroke_s	s	n/a
164.9725	0.09	329945	keystroke_Key.enter	Key.enter	n/a
165.066	4.7525	330132	prompt	n/a	aqua giant ours closes\n
165.6475	0.1195	331295	keystroke_a	a	n/a
165.917	0.12	331834	keystroke_q	q	n/a
166.067	0.09	332134	keystroke_u	u	n/a
166.187	0.135	332374	keystroke_a	a	n/a
166.412	0.075	332824	keystroke_Key.space	Key.space	n/a
167.0275	0.1045	334055	keystroke_g	g	n/a
167.177	0.075	334354	keystroke_i	i	n/a
167.267	0.105	334534	keystroke_a	a	n/a
167.387	0.09	334774	keystroke_n	n	n/a
167.507	0.12	335014	keystroke_t	t	n/a
167.642	0.105	335284	keystroke_Key.space	Key.space	n/a
167.762	0.18	335524	keystroke_o	o	n/a
167.882	0.105	335764	keystroke_u	u	n/a
168.002	0.1055	336004	keystroke_r	r	n/a
168.347	0.105	336694	keystroke_s	s	n/a
168.482	0.09	336964	keystroke_Key.space	Key.space	n/a
168.692	0.09	337384	keystroke_c	c	n/a
168.812	0.045	337624	keystroke_l	l	n/a
169.112	0.09	338224	keystroke_o	o	n/a
169.217	0.12	338434	keystroke_s	s	n/a
169.367	0.12	338734	keystroke_e	e	n/a
169.547	0.135	339094	keystroke_s	s	n/a
169.7565	0.0605	339513	keystroke_Key.enter	Key.enter	n/a
169.8225	4.5415	339645	prompt	n/a	weed kids camping post\n
170.417	0.09	340834	keystroke_w	w	n/a
170.567	0.06	341134	keystroke_e	e	n/a
170.702	0.09	341404	keystroke_e	e	n/a
170.897	0.09	341794	keystroke_d	d	n/a
170.972	0.12	341944	keystroke_Key.space	Key.space	n/a
171.1365	0.075	342273	keystroke_k	k	n/a
171.2865	0.105	342573	keystroke_i	i	n/a
171.3765	0.105	342753	keystroke_d	d	n/a
171.5865	0.12	343173	keystroke_s	s	n/a
171.7815	0.09	343563	keystroke_Key.space	Key.space	n/a
172.0365	0.075	344073	keystroke_c	c	n/a
172.1865	0.106	344373	keystroke_a	a	n/a
172.3975	0.119	344795	keystroke_m	m	n/a
172.5615	0.09	345123	keystroke_p	p	n/a
172.742	0.18	345484	keystroke_i	i	n/a
172.847	0.105	345694	keystroke_n	n	n/a
173.162	0.06	346324	keystroke_g	g	n/a
173.237	0.09	346474	keystroke_Key.space	Key.space	n/a
173.4775	0.09	346955	keystroke_p	p	n/a
173.5375	0.135	347075	keystroke_o	o	n/a
173.6425	0.09	347285	keystroke_s	s	n/a
173.8225	0.105	347645	keystroke_t	t	n/a
174.302	0.06	348604	keystroke_Key.enter	Key.enter	n/a
174.367	6.4165	348734	prompt	n/a	mile scanner carol collection\n
174.977	0.09	349954	keystroke_m	m	n/a
175.142	0.09	350284	keystroke_i	i	n/a
175.322	0.09	350644	keystroke_l	l	n/a
175.457	0.09	350914	keystroke_e	e	n/a
175.727	0.075	351454	keystroke_Key.space	Key.space	n/a
175.967	0.09	351934	keystroke_s	s	n/a
176.147	0.075	352294	keystroke_c	c	n/a
176.432	0.015	352864	keystroke_n	n	n/a
176.7475	0.06	353495	keystroke_Key.backspace	Key.backspace	n/a
176.8225	0.135	353645	keystroke_a	a	n/a
177.0325	0.06	354065	keystroke_n	n	n/a
177.1675	0.09	354335	keystroke_n	n	n/a
177.2725	0.12	354545	keystroke_e	e	n/a
177.3475	0.12	354695	keystroke_r	r	n/a
177.5125	0.105	355025	keystroke_Key.space	Key.space	n/a
178.0675	0.105	356135	keystroke_c	c	n/a
178.2775	0.105	356555	keystroke_a	a	n/a
178.4725	0.09	356945	keystroke_r	r	n/a
178.5775	0.045	357155	keystroke_o	o	n/a
178.7575	0.06	357515	keystroke_l	l	n/a
178.8325	0.075	357665	keystroke_Key.space	Key.space	n/a
178.9975	0.105	357995	keystroke_c	c	n/a
179.0875	0.03	358175	keystroke_o	o	n/a
179.2525	0.03	358505	keystroke_l	l	n/a
179.3575	0.105	358715	keystroke_l	l	n/a
179.4775	0.09	358955	keystroke_e	e	n/a
179.6725	0.075	359345	keystroke_c	c	n/a
179.8825	0.12	359765	keystroke_t	t	n/a
180.0175	0.12	360035	keystroke_i	i	n/a
180.0925	0.24	360185	keystroke_o	o	n/a
180.2725	0.135	360545	keystroke_n	n	n/a
180.7075	0.075	361415	keystroke_Key.enter	Key.enter	n/a
180.786	9.2975	361572	prompt	n/a	improvement actively administrative even\n
181.4125	0.135	362825	keystroke_i	i	n/a
181.7425	0.12	363485	keystroke_m	m	n/a
181.9375	0.1345	363875	keystroke_p	p	n/a
182.087	0.09	364174	keystroke_r	r	n/a
182.237	0.075	364474	keystroke_o	o	n/a
182.507	0.075	365014	keystroke_v	v	n/a
182.657	0.1345	365314	keystroke_e	e	n/a
182.7465	0.09	365493	keystroke_r	r	n/a
183.2565	0.03	366513	keystroke_Key.backspace	Key.backspace	n/a
183.482	0.09	366964	keystroke_m	m	n/a
183.557	0.09	367114	keystroke_e	e	n/a
183.677	0.075	367354	keystroke_n	n	n/a
183.752	0.105	367504	keystroke_t	t	n/a
183.932	0.06	367864	keystroke_Key.space	Key.space	n/a
184.052	0.105	368104	keystroke_a	a	n/a
184.322	0.105	368644	keystroke_c	c	n/a
184.9365	0.091	369873	keystroke_t	t	n/a
185.0865	0.075	370173	keystroke_i	i	n/a
185.1765	0.091	370353	keystroke_v	v	n/a
185.3565	0.135	370713	keystroke_e	e	n/a
185.4765	0.075	370953	keystroke_l	l	n/a
185.7165	0.12	371433	keystroke_y	y	n/a
185.8065	0.1205	371613	keystroke_Key.space	Key.space	n/a
186.107	0.09	372214	keystroke_a	a	n/a
186.302	0.09	372604	keystroke_d	d	n/a
186.437	0.06	372874	keystroke_n	n	n/a
186.8425	0.045	373685	keystroke_Key.backspace	Key.backspace	n/a
187.0375	0.09	374075	keystroke_m	m	n/a
187.1875	0.135	374375	keystroke_i	i	n/a
187.3075	0.09	374615	keystroke_n	n	n/a
187.4125	0.1045	374825	keystroke_i	i	n/a
187.532	0.12	375064	keystroke_s	s	n/a
187.802	0.06	375604	keystroke_t	t	n/a
187.952	0.06	375904	keystroke_r	r	n/a
188.117	0.075	376234	keystroke_a	a	n/a
188.357	0.075	376714	keystroke_t	t	n/a
188.522	0.075	377044	keystroke_i	i	n/a
188.612	0.075	377224	keystroke_v	v	n/a
188.882	0.015	377764	keystroke_e	e	n/a
188.912	0.09	377824	keystroke_Key.space	Key.space	n/a
188.987	0.09	377974	keystroke_e	e	n/a
189.197	0.075	378394	keystroke_v	v	n/a
189.377	0.075	378754	keystroke_e	e	n/a
189.482	0.09	378964	keystroke_n	n	n/a
189.992	0.09	379984	keystroke_Key.enter	Key.enter	n/a
190.088	7.0605	380176	prompt	n/a	gilbert click refurbished patches\n
190.787	0.12	381574	keystroke_g	g	n/a
190.892	0.09	381784	keystroke_i	i	n/a
191.057	0.06	382114	keystroke_l	l	n/a
191.252	0.105	382504	keystroke_b	b	n/a
191.342	0.105	382684	keystroke_e	e	n/a
191.417	0.105	382834	keystroke_r	r	n/a
191.6875	0.09	383375	keystroke_t	t	n/a
191.8075	0.09	383615	keystroke_Key.space	Key.space	n/a
192.0475	0.12	384095	keystroke_c	c	n/a
192.1525	0.135	384305	keystroke_l	l	n/a
192.2275	0.105	384455	keystroke_i	i	n/a
192.3625	0.09	384725	keystroke_c	c	n/a
192.4525	0.135	384905	keystroke_k	k	n/a
192.5715	0.076	385143	keystroke_Key.space	Key.space	n/a
192.992	0.09	385984	keystroke_r	r	n/a
193.187	0.06	386374	keystroke_e	e	n/a
193.352	0.09	386704	keystroke_f	f	n/a
193.487	0.06	386974	keystroke_i	i	n/a
193.817	0.06	387634	keystroke_Key.backspace	Key.backspace	n/a
193.997	0.09	387994	keystroke_u	u	n/a
194.102	0.105	388204	keystroke_r	r	n/a
194.3565	0.09	388713	keystroke_b	b	n/a
194.5665	0.015	389133	keystroke_i	i	n/a
195.0925	0.105	390185	keystroke_s	s	n/a
195.2125	0.06	390425	keystroke_h	h	n/a
195.3025	0.075	390605	keystroke_e	e	n/a
195.5275	0.09	391055	keystroke_d	d	n/a
195.6325	0.0745	391265	keystroke_Key.space	Key.space	n/a
195.812	0.105	391624	keystroke_p	p	n/a
195.962	0.045	391924	keystroke_a	a	n/a
196.127	0.075	392254	keystroke_t	t	n/a
196.337	0.105	392674	keystroke_c	c	n/a
196.427	0.09	392854	keystroke_h	h	n/a
196.532	0.075	393064	keystroke_e	e	n/a
196.7115	0.12	393423	keystroke_s	s	n/a
197.0565	0.09	394113	keystroke_Key.enter	Key.enter	n/a
197.1525	7.691	394305	prompt	n/a	loving boss cite flyer\n
198.1975	0.059	396395	keystroke_l	l	n/a
198.392	0.09	396784	keystroke_o	o	n/a
198.527	0.165	397054	keystroke_b	b	n/a
199.262	0.09	398524	keystroke_Key.backspace	Key.backspace	n/a
199.412	0.12	398824	keystroke_v	v	n/a
199.682	0.195	399364	keystroke_i	i	n/a
199.817	0.1345	399634	keystroke_n	n	n/a
199.997	0.135	399994	keystroke_g	g	n/a
200.147	0.09	400294	keystroke_Key.space	Key.space	n/a
200.312	0.06	400624	keystroke_b	b	n/a
200.537	0.105	401074	keystroke_o	o	n/a
200.6875	0.075	401375	keystroke_s	s	n/a
200.8525	0.075	401705	keystroke_s	s	n/a
201.0025	0.075	402005	keystroke_Key.space	Key.space	n/a
201.2125	0.105	402425	keystroke_c	c	n/a
201.2875	0.105	402575	keystroke_i	i	n/a
201.5275	0.075	403055	keystroke_t	t	n/a
201.6925	0.06	403385	keystroke_e	e	n/a
201.7825	0.105	403565	keystroke_Key.space	Key.space	n/a
201.8875	0.1045	403775	keystroke_c	c	n/a
201.977	0.121	403954	keystroke_l	l	n/a
202.157	0.09	404314	keystroke_y	y	n/a
202.442	0.06	404884	keystroke_Key.backspace	Key.backspace	n/a
202.592	0.06	405184	keystroke_Key.backspace	Key.backspace	n/a
202.697	0.105	405394	keystroke_Key.backspace	Key.backspace	n/a
202.862	0.09	405724	keystroke_f	f	n/a
203.057	0.15	406114	keystroke_l	l	n/a
203.387	0.06	406774	keystroke_y	y	n/a
203.507	0.09	407014	keystroke_i	i	n/a
204.017	0.075	408034	keystroke_Key.backspace	Key.backspace	n/a
204.138	0.119	408276	keystroke_e	e	n/a
204.227	0.12	408454	keystroke_r	r	n/a
204.797	0.045	409594	keystroke_Key.enter	Key.enter	n/a
204.846	14.564	409692	prompt	n/a	weren't dialog vitamin incidents\n
210.709	0.118	421418	keystroke_w	w	n/a
210.767	0.135	421534	keystroke_e	e	n/a
210.977	0.09	421954	keystroke_r	r	n/a
211.157	0.09	422314	keystroke_e	e	n/a
211.277	0.075	422554	keystroke_n	n	n/a
211.532	0.075	423064	keystroke_Key.space	Key.space	n/a
211.892	0.09	423784	keystroke_Key.backspace	Key.backspace	n/a
212.2075	0.12	424415	keystroke_'	'	n/a
212.3425	0.09	424685	keystroke_t	t	n/a
212.4925	0.045	424985	keystroke_Key.space	Key.space	n/a
212.6125	0.12	425225	keystroke_a	a	n/a
212.7175	0.09	425435	keystroke_b	b	n/a
212.8975	0.105	425795	keystroke_l	l	n/a
212.9725	0.105	425945	keystroke_e	e	n/a
213.3175	0.045	426635	keystroke_Key.backspace	Key.backspace	n/a
213.4375	0.074	426875	keystroke_Key.backspace	Key.backspace	n/a
213.5725	0.06	427145	keystroke_Key.backspace	Key.backspace	n/a
213.7215	0.076	427443	keystroke_Key.backspace	Key.backspace	n/a
213.8125	0.15	427625	keystroke_d	d	n/a
214.1575	0.09	428315	keystroke_i	i	n/a
214.2615	0.121	428523	keystroke_a	a	n/a
214.427	0.06	428854	keystroke_l	l	n/a
214.622	0.075	429244	keystroke_o	o	n/a
214.757	0.105	429514	keystroke_g	g	n/a
214.8925	0.06	429785	keystroke_Key.space	Key.space	n/a
215.132	0.12	430264	keystroke_v	v	n/a
215.237	0.09	430474	keystroke_i	i	n/a
215.447	0.135	430894	keystroke_c	c	n/a
215.627	0.075	431254	keystroke_a	a	n/a
216.107	0.06	432214	keystroke_Key.backspace	Key.backspace	n/a
216.242	0.09	432484	keystroke_Key.backspace	Key.backspace	n/a
216.302	0.075	432604	keystroke_t	t	n/a
216.5125	0.15	433025	keystroke_a	a	n/a
216.6175	0.105	433235	keystroke_m	m	n/a
216.8575	0.06	433715	keystroke_i	i	n/a
217.1425	0.045	434285	keystroke_n	n	n/a
217.2925	0.105	434585	keystroke_Key.space	Key.space	n/a
217.5925	0.075	435185	keystroke_i	i	n/a
217.7275	0.105	435455	keystroke_n	n	n/a
217.952	0.105	435904	keystroke_c	c	n/a
218.072	0.09	436144	keystroke_i	i	n/a
218.298	0.059	436596	keystroke_d	d	n/a
218.462	0.075	436924	keystroke_e	e	n/a
218.582	0.12	437164	keystroke_n	n	n/a
218.687	0.075	437374	keystroke_t	t	n/a
218.882	0.091	437764	keystroke_s	s	n/a
219.302	0.105	438604	keystroke_Key.enter	Key.enter	n/a
219.4195	7.594	438839	prompt	n/a	rome stories there equilibrium\n
220.322	0.12	440644	keystroke_r	r	n/a
220.487	0.12	440974	keystroke_o	o	n/a
220.682	0.105	441364	keystroke_m	m	n/a
220.802	0.12	441604	keystroke_e	e	n/a
220.937	0.09	441874	keystroke_Key.space	Key.space	n/a
221.462	0.09	442924	keystroke_s	s	n/a
221.642	0.105	443284	keystroke_t	t	n/a
221.732	0.105	443464	keystroke_o	o	n/a
221.867	0.105	443734	keystroke_r	r	n/a
222.062	0.075	444124	keystroke_i	i	n/a
222.212	0.075	444424	keystroke_e	e	n/a
222.407	0.09	444814	keystroke_s	s	n/a
222.587	0.075	445174	keystroke_Key.space	Key.space	n/a
223.562	0.105	447124	keystroke_t	t	n/a
223.742	0.06	447484	keystroke_h	h	n/a
223.817	0.12	447634	keystroke_e	e	n/a
223.907	0.1955	447814	keystroke_r	r	n/a
224.0725	0.135	448145	keystroke_e	e	n/a
224.372	0.09	448744	keystroke_Key.space	Key.space	n/a
224.807	0.09	449614	keystroke_e	e	n/a
224.987	0.105	449974	keystroke_q	q	n/a
225.152	0.135	450304	keystroke_u	u	n/a
225.257	0.105	450514	keystroke_i	i	n/a
225.513	0.104	451026	keystroke_l	l	n/a
225.6615	0.0905	451323	keystroke_i	i	n/a
225.887	0.075	451774	keystroke_b	b	n/a
226.127	0.12	452254	keystroke_r	r	n/a
226.217	0.09	452434	keystroke_i	i	n/a
226.427	0.0745	452854	keystroke_u	u	n/a
226.682	0.075	453364	keystroke_m	m	n/a
226.952	0.0595	453904	keystroke_Key.enter	Key.enter	n/a
227.016	6.0875	454032	prompt	n/a	revenge sticky helena groundwater\n
227.6115	0.075	455223	keystroke_r	r	n/a
228.0465	0.1055	456093	keystroke_e	e	n/a
228.242	0.09	456484	keystroke_v	v	n/a
228.407	0.105	456814	keystroke_e	e	n/a
228.602	0.075	457204	keystroke_n	n	n/a
228.752	0.09	457504	keystroke_g	g	n/a
228.962	0.075	457924	keystroke_e	e	n/a
229.0825	0.0895	458165	keystroke_Key.space	Key.space	n/a
229.187	0.09	458374	keystroke_s	s	n/a
229.337	0.075	458674	keystroke_t	t	n/a
229.427	0.075	458854	keystroke_i	i	n/a
229.547	0.12	459094	keystroke_c	c	n/a
229.682	0.0895	459364	keystroke_k	k	n/a
229.8465	0.075	459693	keystroke_y	y	n/a
229.9965	0.09	459993	keystroke_Key.space	Key.space	n/a
230.2515	0.105	460503	keystroke_h	h	n/a
230.3415	0.09	460683	keystroke_e	e	n/a
230.4465	0.09	460893	keystroke_l	l	n/a
230.5665	0.09	461133	keystroke_e	e	n/a
230.8065	0.09	461613	keystroke_n	n	n/a
230.9715	0.091	461943	keystroke_a	a	n/a
231.1515	0.075	462303	keystroke_Key.space	Key.space	n/a
231.3915	0.06	462783	keystroke_g	g	n/a
231.5875	0.09	463175	keystroke_r	r	n/a
231.6625	0.12	463325	keystroke_o	o	n/a
231.7225	0.045	463445	keystroke_u	u	n/a
231.9325	0.06	463865	keystroke_n	n	n/a
231.9925	0.09	463985	keystroke_d	d	n/a
232.2475	0.075	464495	keystroke_w	w	n/a
232.4425	0.09	464885	keystroke_a	a	n/a
232.6365	0.09	465273	keystroke_t	t	n/a
232.7865	0.106	465573	keystroke_e	e	n/a
232.8475	0.09	465695	keystroke_r	r	n/a
232.9975	0.105	465995	keystroke_Key.enter	Key.enter	n/a
233.108	5.6505	466216	prompt	n/a	comp lock extension parcel\n
233.7325	0.1195	467465	keystroke_c	c	n/a
233.837	0.15	467674	keystroke_o	o	n/a
233.942	0.075	467884	keystroke_m	m	n/a
234.152	0.06	468304	keystroke_p	p	n/a
234.452	0.06	468904	keystroke_Key.space	Key.space	n/a
234.7675	0.104	469535	keystroke_l	l	n/a
234.9475	0.089	469895	keystroke_o	o	n/a
235.1125	0.105	470225	keystroke_c	c	n/a
235.2175	0.105	470435	keystroke_k	k	n/a
235.3065	0.091	470613	keystroke_Key.space	Key.space	n/a
235.832	0.06	471664	keystroke_e	e	n/a
236.012	0.09	472024	keystroke_x	x	n/a
236.402	0.075	472804	keystroke_t	t	n/a
236.582	0.075	473164	keystroke_e	e	n/a
236.6715	0.075	473343	keystroke_n	n	n/a
236.9415	0.12	473883	keystroke_s	s	n/a
237.0315	0.151	474063	keystroke_i	i	n/a
237.0915	0.135	474183	keystroke_o	o	n/a
237.1665	0.1655	474333	keystroke_n	n	n/a
237.527	0.075	475054	keystroke_Key.space	Key.space	n/a
237.617	0.06	475234	keystroke_p	p	n/a
237.662	0.09	475324	keystroke_a	a	n/a
237.812	0.09	475624	keystroke_r	r	n/a
238.037	0.075	476074	keystroke_c	c	n/a
238.172	0.105	476344	keystroke_e	e	n/a
238.4115	0.12	476823	keystroke_l	l	n/a
238.6665	0.09	477333	keystroke_Key.enter	Key.enter	n/a
238.761	8.5025	477522	prompt	n/a	somehow disclosure navigate shopper\n
239.3275	0.104	478655	keystroke_s	s	n/a
239.5065	0.061	479013	keystroke_o	o	n/a
239.6715	0.105	479343	keystroke_m	m	n/a
239.7775	0.089	479555	keystroke_e	e	n/a
240.0015	0.09	480003	keystroke_h	h	n/a
240.1075	0.135	480215	keystroke_o	o	n/a
240.2725	0.104	480545	keystroke_w	w	n/a
240.4815	0.06	480963	keystroke_Key.space	Key.space	n/a
240.8265	0.09	481653	keystroke_d	d	n/a
240.9465	0.105	481893	keystroke_i	i	n/a
241.0215	0.06	482043	keystroke_s	s	n/a
241.1865	0.075	482373	keystroke_c	c	n/a
241.607	0.06	483214	keystroke_l	l	n/a
241.802	0.045	483604	keystroke_o	o	n/a
242.117	0.105	484234	keystroke_s	s	n/a
242.282	0.06	484564	keystroke_u	u	n/a
242.627	0.0745	485254	keystroke_r	r	n/a
242.7915	0.075	485583	keystroke_e	e	n/a
243.1365	0.03	486273	keystroke_Key.space	Key.space	n/a
243.2715	0.105	486543	keystroke_n	n	n/a
243.3915	0.075	486783	keystroke_a	a	n/a
243.7065	0.09	487413	keystroke_t	t	n/a
244.0365	0.09	488073	keystroke_Key.backspace	Key.backspace	n/a
244.0815	0.105	488163	keystroke_g	g	n/a
244.5765	0.075	489153	keystroke_Key.backspace	Key.backspace	n/a
244.6665	0.09	489333	keystroke_v	v	n/a
244.8015	0.075	489603	keystroke_i	i	n/a
244.9065	0.09	489813	keystroke_g	g	n/a
245.1465	0.075	490293	keystroke_a	a	n/a
245.3715	0.09	490743	keystroke_t	t	n/a
245.5065	0.12	491013	keystroke_e	e	n/a
245.6565	0.09	491313	keystroke_Key.space	Key.space	n/a
245.8215	0.1205	491643	keystroke_s	s	n/a
245.927	0.105	491854	keystroke_h	h	n/a
246.017	0.075	492034	keystroke_o	o	n/a
246.332	0.075	492664	keystroke_p	p	n/a
246.557	0.09	493114	keystroke_p	p	n/a
246.692	0.15	493384	keystroke_e	e	n/a
246.797	0.135	493594	keystroke_r	r	n/a
247.187	0.075	494374	keystroke_Key.enter	Key.enter	n/a
247.2655	6.0135	494531	prompt	n/a	gmbh york adopt entity\n
248.0875	0.15	496175	keystroke_g	g	n/a
248.2675	0.075	496535	keystroke_m	m	n/a
248.7025	0.105	497405	keystroke_b	b	n/a
248.8825	0.09	497765	keystroke_h	h	n/a
249.1375	0.015	498275	keystroke_Key.space	Key.space	n/a
249.6025	0.105	499205	keystroke_y	y	n/a
249.7525	0.135	499505	keystroke_o	o	n/a
249.9175	0.135	499835	keystroke_r	r	n/a
250.0675	0.105	500135	keystroke_k	k	n/a
250.2025	0.12	500405	keystroke_Key.space	Key.space	n/a
250.5775	0.12	501155	keystroke_a	a	n/a
250.7725	0.1045	501545	keystroke_d	d	n/a
250.937	0.075	501874	keystroke_o	o	n/a
251.327	0.03	502654	keystroke_p	p	n/a
251.6125	0.09	503225	keystroke_t	t	n/a
251.8225	0.105	503645	keystroke_Key.space	Key.space	n/a
252.0925	0.09	504185	keystroke_e	e	n/a
252.2275	0.09	504455	keystroke_n	n	n/a
252.3775	0.105	504755	keystroke_t	t	n/a
252.4975	0.075	504995	keystroke_i	i	n/a
252.5875	0.1345	505175	keystroke_t	t	n/a
253.007	0.12	506014	keystroke_y	y	n/a
253.232	0.045	506464	keystroke_Key.enter	Key.enter	n/a
253.283	8.321	506566	prompt	n/a	citizens travesti previously substitute\n
254.192	0.12	508384	keystroke_c	c	n/a
254.282	0.09	508564	keystroke_i	i	n/a
254.462	0.09	508924	keystroke_t	t	n/a
254.537	0.075	509074	keystroke_i	i	n/a
254.7625	0.119	509525	keystroke_z	z	n/a
255.0175	0.075	510035	keystroke_e	e	n/a
255.1665	0.061	510333	keystroke_n	n	n/a
255.3025	0.119	510605	keystroke_s	s	n/a
255.4515	0.105	510903	keystroke_Key.space	Key.space	n/a
255.722	0.105	511444	keystroke_t	t	n/a
255.947	0.0895	511894	keystroke_r	r	n/a
256.1265	0.06	512253	keystroke_a	a	n/a
256.3215	0.045	512643	keystroke_v	v	n/a
256.4415	0.09	512883	keystroke_e	e	n/a
256.787	0.045	513574	keystroke_s	s	n/a
256.952	0.09	513904	keystroke_t	t	n/a
257.027	0.075	514054	keystroke_i	i	n/a
257.252	0.09	514504	keystroke_Key.space	Key.space	n/a
257.522	0.09	515044	keystroke_p	p	n/a
257.9415	0.075	515883	keystroke_r	r	n/a
258.0915	0.075	516183	keystroke_e	e	n/a
258.3165	0.106	516633	keystroke_v	v	n/a
258.5125	0.06	517025	keystroke_i	i	n/a
258.6925	0.135	517385	keystroke_o	o	n/a
258.7675	0.105	517535	keystroke_u	u	n/a
258.8875	0.09	517775	keystroke_s	s	n/a
259.0225	0.12	518045	keystroke_l	l	n/a
259.1575	0.135	518315	keystroke_y	y	n/a
259.3075	0.09	518615	keystroke_Key.space	Key.space	n/a
259.7275	0.15	519455	keystroke_s	s	n/a
259.9675	0.06	519935	keystroke_u	u	n/a
260.1175	0.105	520235	keystroke_b	b	n/a
260.3725	0.105	520745	keystroke_s	s	n/a
260.6125	0.0745	521225	keystroke_t	t	n/a
260.688	0.075	521376	keystroke_i	i	n/a
260.852	0.09	521704	keystroke_t	t	n/a
261.002	0.06	522004	keystroke_u	u	n/a
261.077	0.075	522154	keystroke_t	t	n/a
261.2875	0.105	522575	keystroke_e	e	n/a
261.5275	0.075	523055	keystroke_Key.enter	Key.enter	n/a
261.609	6.115	523218	prompt	n/a	dictionary lycos organizer many\n
262.1425	0.105	524285	keystroke_d	d	n/a
262.2775	0.075	524555	keystroke_i	i	n/a
262.3675	0.075	524735	keystroke_s	s	n/a
262.7875	0.075	525575	keystroke_Key.backspace	Key.backspace	n/a
262.8175	0.105	525635	keystroke_c	c	n/a
263.0575	0.075	526115	keystroke_t	t	n/a
263.1475	0.135	526295	keystroke_i	i	n/a
263.2675	0.15	526535	keystroke_o	o	n/a
263.3425	0.135	526685	keystroke_n	n	n/a
263.5075	0.09	527015	keystroke_a	a	n/a
263.7325	0.1195	527465	keystroke_r	r	n/a
263.897	0.105	527794	keystroke_y	y	n/a
264.017	0.09	528034	keystroke_Key.space	Key.space	n/a
264.257	0.06	528514	keystroke_l	l	n/a
264.467	0.06	528934	keystroke_y	y	n/a
264.6625	0.1195	529325	keystroke_c	c	n/a
264.797	0.075	529594	keystroke_o	o	n/a
264.992	0.09	529984	keystroke_s	s	n/a
265.157	0.075	530314	keystroke_Key.space	Key.space	n/a
265.4125	0.1045	530825	keystroke_o	o	n/a
265.532	0.09	531064	keystroke_r	r	n/a
265.7575	0.075	531515	keystroke_g	g	n/a
265.9375	0.09	531875	keystroke_a	a	n/a
266.0425	0.075	532085	keystroke_n	n	n/a
266.1775	0.075	532355	keystroke_i	i	n/a
266.2525	0.09	532505	keystroke_z	z	n/a
266.5225	0.165	533045	keystroke_e	e	n/a
266.6575	0.12	533315	keystroke_r	r	n/a
266.8225	0.075	533645	keystroke_Key.space	Key.space	n/a
266.9875	0.09	533975	keystroke_m	m	n/a
267.0625	0.105	534125	keystroke_a	a	n/a
267.1975	0.075	534395	keystroke_n	n	n/a
267.4075	0.075	534815	keystroke_y	y	n/a
267.6475	0.075	535295	keystroke_Key.enter	Key.enter	n/a
267.7265	4.5725	535453	prompt	n/a	projection wolf less making\n
268.3075	0.105	536615	keystroke_p	p	n/a
268.3975	0.09	536795	keystroke_r	r	n/a
268.5025	0.075	537005	keystroke_o	o	n/a
268.8325	0.09	537665	keystroke_j	j	n/a
268.9375	0.045	537875	keystroke_e	e	n/a
269.0875	0.075	538175	keystroke_c	c	n/a
269.2975	0.105	538595	keystroke_t	t	n/a
269.3875	0.15	538775	keystroke_i	i	n/a
269.4775	0.15	538955	keystroke_o	o	n/a
269.5675	0.1205	539135	keystroke_n	n	n/a
269.673	0.0895	539346	keystroke_Key.space	Key.space	n/a
269.9425	0.03	539885	keystroke_w	w	n/a
269.9575	0.06	539915	keystroke_o	o	n/a
270.1225	0.105	540245	keystroke_l	l	n/a
270.2425	0.09	540485	keystroke_f	f	n/a
270.4375	0.09	540875	keystroke_Key.space	Key.space	n/a
270.6175	0.1355	541235	keystroke_l	l	n/a
270.708	0.09	541416	keystroke_e	e	n/a
270.918	0.06	541836	keystroke_s	s	n/a
271.053	0.09	542106	keystroke_s	s	n/a
271.158	0.105	542316	keystroke_Key.space	Key.space	n/a
271.473	0.105	542946	keystroke_m	m	n/a
271.548	0.12	543096	keystroke_a	a	n/a
271.653	0.09	543306	keystroke_k	k	n/a
271.833	0.135	543666	keystroke_i	i	n/a
271.908	0.12	543816	keystroke_n	n	n/a
271.983	0.105	543966	keystroke_g	g	n/a
272.208	0.09	544416	keystroke_Key.enter	Key.enter	n/a
272.303	14.9815	544606	prompt	n/a	vegetable updated prairie research\n
272.973	0.119	545946	keystroke_v	v	n/a
273.107	0.106	546214	keystroke_e	e	n/a
273.333	0.09	546666	keystroke_g	g	n/a
273.617	0.015	547234	keystroke_e	e	n/a
273.722	0.075	547444	keystroke_t	t	n/a
273.947	0.105	547894	keystroke_a	a	n/a
274.022	0.075	548044	keystroke_b	b	n/a
274.202	0.091	548404	keystroke_l	l	n/a
274.277	0.09	548554	keystroke_e	e	n/a
274.397	0.09	548794	keystroke_Key.space	Key.space	n/a
274.637	0.06	549274	keystroke_u	u	n/a
274.847	0.06	549694	keystroke_p	p	n/a
274.892	0.09	549784	keystroke_d	d	n/a
275.043	0.104	550086	keystroke_a	a	n/a
275.267	0.075	550534	keystroke_t	t	n/a
275.357	0.105	550714	keystroke_e	e	n/a
275.567	0.105	551134	keystroke_d	d	n/a
275.657	0.105	551314	keystroke_Key.space	Key.space	n/a
275.763	0.089	551526	keystroke_p	p	n/a
275.822	0.09	551644	keystroke_r	r	n/a
276.032	0.0605	552064	keystroke_a	a	n/a
276.3925	0.09	552785	keystroke_r	r	n/a
276.5425	0.09	553085	keystroke_i	i	n/a
276.6775	0.105	553355	keystroke_e	e	n/a
277.0375	0.09	554075	keystroke_Key.space	Key.space	n/a
277.3375	0.09	554675	keystroke_r	r	n/a
277.5175	0.09	555035	keystroke_e	e	n/a
277.7875	0.15	555575	keystroke_s	s	n/a
277.9225	0.09	555845	keystroke_e	e	n/a
278.1175	0.0905	556235	keystroke_a	a	n/a
279.032	0.09	558064	keystroke_g	g	n/a
279.737	0.09	559474	keystroke_Key.backspace	Key.backspace	n/a
279.903	0.104	559806	keystroke_r	r	n/a
280.142	0.1205	560284	keystroke_c	c	n/a
280.2775	0.09	560555	keystroke_h	h	n/a
283.64	0	567280	keystroke_Key.left	Key.left	n/a
283.713	0.09	567426	keystroke_Key.left	Key.left	n/a
283.863	0.075	567726	keystroke_Key.left	Key.left	n/a
284.133	0.045	568266	keystroke_Key.left	Key.left	n/a
284.253	0.0595	568506	keystroke_Key.left	Key.left	n/a
284.5075	0.045	569015	keystroke_Key.left	Key.left	n/a
284.6425	0.09	569285	keystroke_Key.left	Key.left	n/a
284.9575	0.06	569915	keystroke_Key.left	Key.left	n/a
285.2125	0.045	570425	keystroke_Key.left	Key.left	n/a
285.4825	0.045	570965	keystroke_Key.left	Key.left	n/a
285.6025	0.06	571205	keystroke_Key.left	Key.left	n/a
285.8725	0.045	571745	keystroke_Key.left	Key.left	n/a
286.4725	0.03	572945	keystroke_i	i	n/a
287.238	0.045	574476	keystroke_Key.enter	Key.enter	n/a
287.2945	5.33	574589	prompt	n/a	petition thorough offline documented\n
288.063	0.105	576126	keystroke_p	p	n/a
288.198	0.09	576396	keystroke_e	e	n/a
288.3925	0.075	576785	keystroke_t	t	n/a
288.4975	0.075	576995	keystroke_i	i	n/a
288.5875	0.1055	577175	keystroke_t	t	n/a
288.6935	0.149	577387	keystroke_i	i	n/a
288.8125	0.165	577625	keystroke_o	o	n/a
288.9025	0.135	577805	keystroke_n	n	n/a
289.0975	0.105	578195	keystroke_Key.space	Key.space	n/a
289.3075	0.075	578615	keystroke_t	t	n/a
289.3675	0.0905	578735	keystroke_h	h	n/a
289.473	0.12	578946	keystroke_r	r	n/a
289.548	0.09	579096	keystroke_o	o	n/a
289.608	0.045	579216	keystroke_u	u	n/a
289.713	0.09	579426	keystroke_g	g	n/a
289.773	0.12	579546	keystroke_h	h	n/a
289.878	0.09	579756	keystroke_Key.space	Key.space	n/a
290.058	0.09	580116	keystroke_o	o	n/a
290.178	0.06	580356	keystroke_f	f	n/a
290.313	0.075	580626	keystroke_f	f	n/a
290.478	0.15	580956	keystroke_l	l	n/a
290.583	0.105	581166	keystroke_i	i	n/a
290.763	0.09	581526	keystroke_n	n	n/a
290.853	0.105	581706	keystroke_e	e	n/a
290.973	0.075	581946	keystroke_Key.space	Key.space	n/a
291.3325	0.06	582665	keystroke_d	d	n/a
291.4075	0.075	582815	keystroke_o	o	n/a
291.4975	0.106	582995	keystroke_c	c	n/a
291.5875	0.0755	583175	keystroke_u	u	n/a
291.813	0.06	583626	keystroke_m	m	n/a
291.903	0.075	583806	keystroke_e	e	n/a
292.008	0.06	584016	keystroke_n	n	n/a
292.053	0.09	584106	keystroke_t	t	n/a
292.218	0.075	584436	keystroke_e	e	n/a
292.383	0.0745	584766	keystroke_d	d	n/a
292.5475	0.075	585095	keystroke_Key.enter	Key.enter	n/a
292.629	6.5955	585258	prompt	n/a	flux nation impression haven't\n
293.2225	0.12	586445	keystroke_f	f	n/a
293.2975	0.105	586595	keystroke_l	l	n/a
293.4925	0.09	586985	keystroke_u	u	n/a
293.6125	0.135	587225	keystroke_x	x	n/a
293.7775	0.105	587555	keystroke_Key.space	Key.space	n/a
294.1525	0.03	588305	keystroke_n	n	n/a
294.6775	0.1055	589355	keystroke_a	a	n/a
294.918	0.09	589836	keystroke_t	t	n/a
295.023	0.15	590046	keystroke_i	i	n/a
295.098	0.165	590196	keystroke_o	o	n/a
295.188	0.12	590376	keystroke_n	n	n/a
295.323	0.105	590646	keystroke_Key.space	Key.space	n/a
295.623	0.09	591246	keystroke_i	i	n/a
295.833	0.075	591666	keystroke_m	m	n/a
296.043	0.0605	592086	keystroke_p	p	n/a
296.118	0.0905	592236	keystroke_r	r	n/a
296.328	0.075	592656	keystroke_e	e	n/a
296.5235	0.0595	593047	keystroke_s	s	n/a
296.658	0.075	593316	keystroke_s	s	n/a
296.748	0.1345	593496	keystroke_i	i	n/a
296.8075	0.135	593615	keystroke_o	o	n/a
296.8835	0.119	593767	keystroke_n	n	n/a
297.0175	0.09	594035	keystroke_Key.space	Key.space	n/a
297.9625	0.075	595925	keystroke_h	h	n/a
298.0525	0.075	596105	keystroke_a	a	n/a
298.2175	0.105	596435	keystroke_v	v	n/a
298.3825	0.075	596765	keystroke_e	e	n/a
298.4875	0.06	596975	keystroke_n	n	n/a
298.6375	0.12	597275	keystroke_'	'	n/a
298.6975	0.09	597395	keystroke_t	t	n/a
298.8475	0.06	597695	keystroke_Key.space	Key.space	n/a
299.1775	0.045	598355	keystroke_Key.enter	Key.enter	n/a
299.2285	4.301	598457	prompt	n/a	ball innocent voice space\n
299.8675	0.015	599735	keystroke_b	b	n/a
299.8975	0.105	599795	keystroke_a	a	n/a
299.9875	0.06	599975	keystroke_l	l	n/a
300.1225	0.105	600245	keystroke_l	l	n/a
300.2425	0.09	600485	keystroke_Key.space	Key.space	n/a
300.3475	0.12	600695	keystroke_i	i	n/a
300.4225	0.09	600845	keystroke_n	n	n/a
300.7525	0.075	601505	keystroke_n	n	n/a
300.9025	0.075	601805	keystroke_o	o	n/a
300.9925	0.09	601985	keystroke_c	c	n/a
301.1425	0.105	602285	keystroke_e	e	n/a
301.2775	0.075	602555	keystroke_n	n	n/a
301.3675	0.09	602735	keystroke_t	t	n/a
301.4875	0.075	602975	keystroke_Key.space	Key.space	n/a
301.7275	0.09	603455	keystroke_v	v	n/a
301.8635	0.134	603727	keystroke_o	o	n/a
301.9525	0.105	603905	keystroke_i	i	n/a
302.0725	0.15	604145	keystroke_c	c	n/a
302.2235	0.104	604447	keystroke_e	e	n/a
302.3425	0.075	604685	keystroke_Key.space	Key.space	n/a
302.6125	0.0905	605225	keystroke_s	s	n/a
302.6725	0.0755	605345	keystroke_p	p	n/a
302.793	0.045	605586	keystroke_a	a	n/a
302.958	0.09	605916	keystroke_c	c	n/a
303.078	0.105	606156	keystroke_e	e	n/a
303.438	0.09	606876	keystroke_Key.enter	Key.enter	n/a
303.5345	5.89	607069	prompt	n/a	hitachi assumption beta incurred\n
304.2025	0.075	608405	keystroke_h	h	n/a
304.2925	0.0455	608585	keystroke_a	a	n/a
304.623	0.045	609246	keystroke_Key.backspace	Key.backspace	n/a
304.8485	0.06	609697	keystroke_i	i	n/a
304.9685	0.075	609937	keystroke_t	t	n/a
305.2385	0.075	610477	keystroke_a	a	n/a
305.4335	0.09	610867	keystroke_c	c	n/a
305.4935	0.075	610987	keystroke_h	h	n/a
305.6585	0.06	611317	keystroke_i	i	n/a
305.9285	0.045	611857	keystroke_Key.space	Key.space	n/a
306.1085	0.0895	612217	keystroke_a	a	n/a
306.333	0.045	612666	keystroke_s	s	n/a
306.483	0.09	612966	keystroke_s	s	n/a
306.648	0.075	613296	keystroke_u	u	n/a
306.873	0.075	613746	keystroke_m	m	n/a
307.053	0.06	614106	keystroke_p	p	n/a
307.143	0.09	614286	keystroke_t	t	n/a
307.263	0.18	614526	keystroke_i	i	n/a
307.383	0.135	614766	keystroke_o	o	n/a
307.443	0.09	614886	keystroke_n	n	n/a
307.548	0.105	615096	keystroke_Key.space	Key.space	n/a
307.668	0.06	615336	keystroke_b	b	n/a
307.713	0.06	615426	keystroke_e	e	n/a
307.848	0.09	615696	keystroke_t	t	n/a
308.058	0.09	616116	keystroke_a	a	n/a
308.133	0.105	616266	keystroke_Key.space	Key.space	n/a
308.298	0.18	616596	keystroke_i	i	n/a
308.403	0.12	616806	keystroke_n	n	n/a
308.508	0.09	617016	keystroke_c	c	n/a
308.658	0.075	617316	keystroke_u	u	n/a
308.778	0.06	617556	keystroke_r	r	n/a
308.898	0.075	617796	keystroke_r	r	n/a
309.048	0.075	618096	keystroke_e	e	n/a
309.198	0.105	618396	keystroke_d	d	n/a
309.333	0.09	618666	keystroke_Key.enter	Key.enter	n/a
309.432	8.5125	618864	prompt	n/a	specialties realized probably adjusted\n
309.963	0.09	619926	keystroke_s	s	n/a
310.113	0.075	620226	keystroke_p	p	n/a
310.173	0.075	620346	keystroke_e	e	n/a
310.368	0.09	620736	keystroke_c	c	n/a
310.428	0.09	620856	keystroke_i	i	n/a
310.548	0.105	621096	keystroke_a	a	n/a
310.668	0.06	621336	keystroke_l	l	n/a
310.893	0.09	621786	keystroke_t	t	n/a
310.998	0.105	621996	keystroke_i	i	n/a
311.073	0.09	622146	keystroke_e	e	n/a
311.268	0.135	622536	keystroke_s	s	n/a
311.418	0.09	622836	keystroke_Key.space	Key.space	n/a
312.9175	0.09	625835	keystroke_r	r	n/a
313.0675	0.091	626135	keystroke_e	e	n/a
313.2175	0.09	626435	keystroke_a	a	n/a
313.3375	0.165	626675	keystroke_l	l	n/a
313.4875	0.09	626975	keystroke_i	i	n/a
313.6975	0.09	627395	keystroke_z	z	n/a
313.8775	0.09	627755	keystroke_e	e	n/a
314.1325	0.12	628265	keystroke_d	d	n/a
314.2975	0.075	628595	keystroke_Key.space	Key.space	n/a
314.5525	0.09	629105	keystroke_p	p	n/a
314.6275	0.105	629255	keystroke_r	r	n/a
314.7775	0.045	629555	keystroke_o	o	n/a
314.9875	0.075	629975	keystroke_b	b	n/a
315.0475	0.105	630095	keystroke_a	a	n/a
315.1375	0.09	630275	keystroke_b	b	n/a
315.2725	0.12	630545	keystroke_l	l	n/a
315.4825	0.12	630965	keystroke_y	y	n/a
315.6175	0.075	631235	keystroke_Key.space	Key.space	n/a
315.7975	0.075	631595	keystroke_a	a	n/a
315.9625	0.06	631925	keystroke_d	d	n/a
316.4725	0.06	632945	keystroke_j	j	n/a
316.6375	0.075	633275	keystroke_u	u	n/a
316.6975	0.075	633395	keystroke_s	s	n/a
316.968	0.03	633936	keystroke_t	t	n/a
317.058	0.09	634116	keystroke_e	e	n/a
317.238	0.12	634476	keystroke_d	d	n/a
317.883	0.06	635766	keystroke_Key.enter	Key.enter	n/a
317.9485	8.891	635897	prompt	n/a	hazardous obtaining permission frequently\n
318.738	0.06	637476	keystroke_h	h	n/a
318.828	0.075	637656	keystroke_a	a	n/a
319.158	0.12	638316	keystroke_z	z	n/a
319.383	0.09	638766	keystroke_a	a	n/a
319.593	0.105	639186	keystroke_r	r	n/a
319.848	0.105	639696	keystroke_d	d	n/a
320.2075	0.135	640415	keystroke_o	o	n/a
320.3125	0.06	640625	keystroke_u	u	n/a
320.4475	0.105	640895	keystroke_s	s	n/a
320.5975	0.09	641195	keystroke_Key.space	Key.space	n/a
321.0475	0.075	642095	keystroke_o	o	n/a
321.2425	0.09	642485	keystroke_b	b	n/a
321.723	0.09	643446	keystroke_t	t	n/a
321.933	0.105	643866	keystroke_a	a	n/a
322.008	0.12	644016	keystroke_i	i	n/a
322.098	0.06	644196	keystroke_n	n	n/a
322.203	0.135	644406	keystroke_i	i	n/a
322.293	0.09	644586	keystroke_n	n	n/a
322.353	0.06	644706	keystroke_g	g	n/a
322.443	0.09	644886	keystroke_Key.space	Key.space	n/a
322.503	0.105	645006	keystroke_p	p	n/a
322.593	0.1045	645186	keystroke_e	e	n/a
322.653	0.1195	645306	keystroke_r	r	n/a
322.9375	0.03	645875	keystroke_n	n	n/a
323.2225	0.045	646445	keystroke_Key.backspace	Key.backspace	n/a
323.4175	0.075	646835	keystroke_m	m	n/a
323.5525	0.076	647105	keystroke_i	i	n/a
323.6435	0.06	647287	keystroke_s	s	n/a
323.7635	0.105	647527	keystroke_s	s	n/a
323.8385	0.18	647677	keystroke_i	i	n/a
323.9285	0.15	647857	keystroke_o	o	n/a
324.0035	0.12	648007	keystroke_n	n	n/a
324.1085	0.09	648217	keystroke_Key.space	Key.space	n/a
324.3485	0.075	648697	keystroke_r	r	n/a
324.753	0.09	649506	keystroke_Key.backspace	Key.backspace	n/a
324.798	0.06	649596	keystroke_f	f	n/a
324.963	0.075	649926	keystroke_r	r	n/a
325.128	0.0755	650256	keystroke_e	e	n/a
325.3835	0.119	650767	keystroke_q	q	n/a
325.4885	0.105	650977	keystroke_u	u	n/a
325.6085	0.075	651217	keystroke_e	e	n/a
325.7885	0.09	651577	keystroke_n	n	n/a
325.9385	0.089	651877	keystroke_t	t	n/a
326.088	0.075	652176	keystroke_l	l	n/a
326.193	0.09	652386	keystroke_y	y	n/a
326.763	0.075	653526	keystroke_Key.enter	Key.enter	n/a
326.8415	6.853	653683	prompt	n/a	saying tune salvation everyone's\n
327.378	0.03	654756	keystroke_s	s	n/a
327.513	0.105	655026	keystroke_a	a	n/a
327.648	0.09	655296	keystroke_y	y	n/a
327.873	0.1505	655746	keystroke_i	i	n/a
327.9475	0.09	655895	keystroke_n	n	n/a
328.0075	0.09	656015	keystroke_g	g	n/a
328.3075	0.09	656615	keystroke_Key.space	Key.space	n/a
328.4585	0.09	656917	keystroke_t	t	n/a
328.5185	0.09	657037	keystroke_u	u	n/a
328.728	0.075	657456	keystroke_n	n	n/a
328.833	0.09	657666	keystroke_e	e	n/a
328.938	0.075	657876	keystroke_Key.space	Key.space	n/a
329.148	0.075	658296	keystroke_s	s	n/a
329.283	0.0895	658566	keystroke_a	a	n/a
329.3585	0.09	658717	keystroke_l	l	n/a
329.5085	0.074	659017	keystroke_v	v	n/a
329.6735	0.089	659347	keystroke_a	a	n/a
329.8975	0.091	659795	keystroke_t	t	n/a
330.0025	0.165	660005	keystroke_i	i	n/a
330.0325	0.076	660065	keystroke_o	o	n/a
330.1525	0.091	660305	keystroke_o	o	n/a
330.7075	0.045	661415	keystroke_Key.backspace	Key.backspace	n/a
330.9175	0.091	661835	keystroke_n	n	n/a
330.9925	0.1055	661985	keystroke_Key.space	Key.space	n/a
331.233	0.075	662466	keystroke_e	e	n/a
331.383	0.075	662766	keystroke_v	v	n/a
331.473	0.09	662946	keystroke_e	e	n/a
331.653	0.09	663306	keystroke_r	r	n/a
331.713	0.075	663426	keystroke_y	y	n/a
331.938	0.1945	663876	keystroke_o	o	n/a
332.0725	0.12	664145	keystroke_n	n	n/a
332.5225	0.075	665045	keystroke_e	e	n/a
332.808	0.105	665616	keystroke_'	'	n/a
332.928	0.12	665856	keystroke_s	s	n/a
333.093	0.09	666186	keystroke_Key.space	Key.space	n/a
333.633	0.06	667266	keystroke_Key.enter	Key.enter	n/a
333.6985	5.726	667397	prompt	n/a	not automotive moore workplace\n
334.338	0.105	668676	keystroke_n	n	n/a
334.473	0.09	668946	keystroke_o	o	n/a
334.563	0.12	669126	keystroke_t	t	n/a
334.668	0.075	669336	keystroke_Key.space	Key.space	n/a
334.803	0.15	669606	keystroke_a	a	n/a
335.058	0.09	670116	keystroke_u	u	n/a
335.223	0.075	670446	keystroke_t	t	n/a
335.418	0.06	670836	keystroke_o	o	n/a
335.568	0.105	671136	keystroke_m	m	n/a
335.718	0.075	671436	keystroke_o	o	n/a
335.958	0.075	671916	keystroke_t	t	n/a
336.048	0.075	672096	keystroke_i	i	n/a
336.198	0.09	672396	keystroke_v	v	n/a
336.363	0.12	672726	keystroke_e	e	n/a
336.603	0.09	673206	keystroke_Key.space	Key.space	n/a
336.738	0.075	673476	keystroke_m	m	n/a
336.858	0.045	673716	keystroke_o	o	n/a
336.993	0.105	673986	keystroke_o	o	n/a
337.083	0.075	674166	keystroke_r	r	n/a
337.263	0.105	674526	keystroke_e	e	n/a
337.353	0.135	674706	keystroke_Key.space	Key.space	n/a
337.518	0.105	675036	keystroke_w	w	n/a
337.608	0.09	675216	keystroke_o	o	n/a
337.713	0.075	675426	keystroke_r	r	n/a
337.818	0.075	675636	keystroke_k	k	n/a
338.2685	0.075	676537	keystroke_p	p	n/a
338.5985	0.06	677197	keystroke_l	l	n/a
338.7185	0.074	677437	keystroke_a	a	n/a
338.9585	0.15	677917	keystroke_c	c	n/a
339.0935	0.105	678187	keystroke_e	e	n/a
339.3185	0.105	678637	keystroke_Key.enter	Key.enter	n/a
339.427	4.6325	678854	prompt	n/a	misc fraud colleagues intro\n
340.0835	0.09	680167	keystroke_m	m	n/a
340.2035	0.105	680407	keystroke_i	i	n/a
340.2935	0.06	680587	keystroke_s	s	n/a
340.4285	0.09	680857	keystroke_c	c	n/a
340.5335	0.09	681067	keystroke_Key.space	Key.space	n/a
340.7285	0.075	681457	keystroke_f	f	n/a
340.9235	0.045	681847	keystroke_r	r	n/a
341.0585	0.09	682117	keystroke_a	a	n/a
341.2235	0.075	682447	keystroke_u	u	n/a
341.5085	0.075	683017	keystroke_d	d	n/a
341.6125	0.075	683225	keystroke_Key.space	Key.space	n/a
341.8235	0.105	683647	keystroke_c	c	n/a
341.9585	0.06	683917	keystroke_o	o	n/a
342.1535	0.06	684307	keystroke_l	l	n/a
342.2735	0.105	684547	keystroke_l	l	n/a
342.3035	0.089	684607	keystroke_e	e	n/a
342.4685	0.06	684937	keystroke_a	a	n/a
342.678	0.075	685356	keystroke_g	g	n/a
342.768	0.075	685536	keystroke_u	u	n/a
342.844	0.0745	685688	keystroke_e	e	n/a
343.0085	0.119	686017	keystroke_s	s	n/a
343.1285	0.059	686257	keystroke_Key.space	Key.space	n/a
343.2175	0.15	686435	keystroke_i	i	n/a
343.3225	0.105	686645	keystroke_n	n	n/a
343.3975	0.076	686795	keystroke_t	t	n/a
343.5785	0.09	687157	keystroke_r	r	n/a
343.6375	0.076	687275	keystroke_o	o	n/a
343.9675	0.09	687935	keystroke_Key.enter	Key.enter	n/a
344.063	4.871	688126	prompt	n/a	niagara apart jerusalem below\n
344.6285	0.0745	689257	keystroke_n	n	n/a
344.853	0.075	689706	keystroke_i	i	n/a
345.0175	0.06	690035	keystroke_a	a	n/a
345.2135	0.075	690427	keystroke_g	g	n/a
345.4075	0.076	690815	keystroke_a	a	n/a
345.5725	0.075	691145	keystroke_r	r	n/a
345.7385	0.089	691477	keystroke_a	a	n/a
345.8425	0.09	691685	keystroke_Key.space	Key.space	n/a
345.9485	0.104	691897	keystroke_a	a	n/a
346.0385	0.089	692077	keystroke_p	p	n/a
346.1575	0.045	692315	keystroke_a	a	n/a
346.3825	0.075	692765	keystroke_r	r	n/a
346.5475	0.09	693095	keystroke_t	t	n/a
346.6525	0.09	693305	keystroke_Key.space	Key.space	n/a
346.8625	0.061	693725	keystroke_j	j	n/a
346.9075	0.0755	693815	keystroke_e	e	n/a
347.058	0.09	694116	keystroke_r	r	n/a
347.208	0.075	694416	keystroke_u	u	n/a
347.313	0.075	694626	keystroke_s	s	n/a
347.478	0.09	694956	keystroke_a	a	n/a
347.583	0.075	695166	keystroke_l	l	n/a
347.718	0.09	695436	keystroke_e	e	n/a
347.838	0.09	695676	keystroke_m	m	n/a
348.003	0.09	696006	keystroke_Key.space	Key.space	n/a
348.243	0.075	696486	keystroke_b	b	n/a
348.288	0.0895	696576	keystroke_e	e	n/a
348.4375	0.045	696875	keystroke_l	l	n/a
348.5875	0.075	697175	keystroke_o	o	n/a
348.678	0.1045	697356	keystroke_w	w	n/a
348.8875	0.045	697775	keystroke_Key.enter	Key.enter	n/a
348.937	6.552	697874	prompt	n/a	hobbies borders chosen dispatched\n
349.8025	0.075	699605	keystroke_h	h	n/a
349.8925	0.105	699785	keystroke_o	o	n/a
350.2375	0.076	700475	keystroke_b	b	n/a
350.3725	0.075	700745	keystroke_b	b	n/a
350.5375	0.105	701075	keystroke_i	i	n/a
350.6575	0.045	701315	keystroke_e	e	n/a
350.8375	0.045	701675	keystroke_s	s	n/a
350.8975	0.135	701795	keystroke_Key.space	Key.space	n/a
351.063	0.0905	702126	keystroke_b	b	n/a
351.1675	0.12	702335	keystroke_o	o	n/a
351.2425	0.075	702485	keystroke_r	r	n/a
351.453	0.074	702906	keystroke_d	d	n/a
351.677	0.09	703354	keystroke_e	e	n/a
351.857	0.06	703714	keystroke_r	r	n/a
352.037	0.075	704074	keystroke_s	s	n/a
352.157	0.105	704314	keystroke_Key.space	Key.space	n/a
352.322	0.136	704644	keystroke_c	c	n/a
352.442	0.09	704884	keystroke_h	h	n/a
352.547	0.12	705094	keystroke_o	o	n/a
352.652	0.06	705304	keystroke_c	c	n/a
353.132	0.06	706264	keystroke_Key.backspace	Key.backspace	n/a
353.208	0.134	706416	keystroke_s	s	n/a
353.282	0.12	706564	keystroke_e	e	n/a
353.522	0.06	707044	keystroke_n	n	n/a
353.657	0.0755	707314	keystroke_Key.space	Key.space	n/a
353.8375	0.105	707675	keystroke_d	d	n/a
353.9435	0.0735	707887	keystroke_i	i	n/a
354.032	0.09	708064	keystroke_s	s	n/a
354.167	0.075	708334	keystroke_p	p	n/a
354.272	0.06	708544	keystroke_a	a	n/a
354.513	0.059	709026	keystroke_t	t	n/a
354.7075	0.09	709415	keystroke_c	c	n/a
354.8125	0.06	709625	keystroke_h	h	n/a
354.9025	0.06	709805	keystroke_e	e	n/a
355.0825	0.09	710165	keystroke_d	d	n/a
355.4125	0.075	710825	keystroke_Key.enter	Key.enter	n/a
355.492	5.472	710984	prompt	n/a	penetration moderate broker ought\n
356.0575	0.09	712115	keystroke_p	p	n/a
356.1625	0.09	712325	keystroke_e	e	n/a
356.2825	0.09	712565	keystroke_n	n	n/a
356.3425	0.09	712685	keystroke_e	e	n/a
356.5675	0.075	713135	keystroke_d	d	n/a
356.973	0.045	713946	keystroke_Key.backspace	Key.backspace	n/a
357.003	0.06	714006	keystroke_t	t	n/a
357.183	0.06	714366	keystroke_r	r	n/a
357.348	0.075	714696	keystroke_a	a	n/a
357.588	0.09	715176	keystroke_t	t	n/a
357.663	0.18	715326	keystroke_i	i	n/a
357.768	0.1345	715536	keystroke_o	o	n/a
357.813	0.1195	715626	keystroke_n	n	n/a
357.9475	0.09	715895	keystroke_Key.space	Key.space	n/a
358.0975	0.075	716195	keystroke_m	m	n/a
358.1875	0.12	716375	keystroke_o	o	n/a
358.3085	0.059	716617	keystroke_d	d	n/a
358.4725	0.075	716945	keystroke_e	e	n/a
358.6225	0.0905	717245	keystroke_r	r	n/a
358.803	0.09	717606	keystroke_a	a	n/a
359.013	0.06	718026	keystroke_t	t	n/a
359.133	0.105	718266	keystroke_e	e	n/a
359.223	0.12	718446	keystroke_Key.space	Key.space	n/a
359.358	0.075	718716	keystroke_b	b	n/a
359.418	0.12	718836	keystroke_r	r	n/a
359.523	0.075	719046	keystroke_o	o	n/a
359.763	0.06	719526	keystroke_k	k	n/a
359.838	0.105	719676	keystroke_e	e	n/a
359.913	0.09	719826	keystroke_r	r	n/a
360.018	0.105	720036	keystroke_Key.space	Key.space	n/a
360.153	0.12	720306	keystroke_o	o	n/a
360.228	0.09	720456	keystroke_u	u	n/a
360.393	0.09	720786	keystroke_g	g	n/a
360.498	0.06	720996	keystroke_h	h	n/a
360.588	0.06	721176	keystroke_t	t	n/a
360.8875	0.0755	721775	keystroke_Key.enter	Key.enter	n/a
360.9665	6.343	721933	prompt	n/a	accompanying dennis crazy cell\n
361.713	0.09	723426	keystroke_a	a	n/a
361.938	0.045	723876	keystroke_c	c	n/a
362.073	0.075	724146	keystroke_c	c	n/a
362.223	0.09	724446	keystroke_o	o	n/a
362.283	0.09	724566	keystroke_m	m	n/a
362.463	0.075	724926	keystroke_p	p	n/a
362.583	0.0895	725166	keystroke_a	a	n/a
362.6875	0.09	725375	keystroke_n	n	n/a
362.9575	0.075	725915	keystroke_y	y	n/a
363.2275	0.1195	726455	keystroke_i	i	n/a
363.318	0.074	726636	keystroke_n	n	n/a
363.377	0.09	726754	keystroke_g	g	n/a
363.497	0.075	726994	keystroke_Key.space	Key.space	n/a
363.632	0.075	727264	keystroke_d	d	n/a
363.812	0.075	727624	keystroke_e	e	n/a
363.902	0.061	727804	keystroke_n	n	n/a
364.052	0.075	728104	keystroke_n	n	n/a
364.143	0.089	728286	keystroke_i	i	n/a
364.412	0.046	728824	keystroke_c	c	n/a
364.6825	0.0755	729365	keystroke_Key.backspace	Key.backspace	n/a
364.773	0.09	729546	keystroke_s	s	n/a
364.9075	0.09	729815	keystroke_Key.space	Key.space	n/a
365.0125	0.075	730025	keystroke_c	c	n/a
365.1925	0.06	730385	keystroke_r	r	n/a
365.3575	0.075	730715	keystroke_a	a	n/a
365.5525	0.105	731105	keystroke_z	z	n/a
365.6275	0.09	731255	keystroke_y	y	n/a
365.7025	0.09	731405	keystroke_Key.space	Key.space	n/a
365.838	0.0895	731676	keystroke_d	d	n/a
366.0625	0.045	732125	keystroke_e	e	n/a
366.3325	0.06	732665	keystroke_Key.backspace	Key.backspace	n/a
366.4525	0.075	732905	keystroke_Key.backspace	Key.backspace	n/a
366.5125	0.06	733025	keystroke_c	c	n/a
366.6775	0.06	733355	keystroke_e	e	n/a
366.7375	0.045	733475	keystroke_l	l	n/a
366.8725	0.075	733745	keystroke_l	l	n/a
367.2175	0.09	734435	keystroke_Key.enter	Key.enter	n/a
367.3145	4.585	734629	prompt	n/a	berlin emission dept admitted\n
368.0725	0.105	736145	keystroke_b	b	n/a
368.1475	0.06	736295	keystroke_e	e	n/a
368.2975	0.105	736595	keystroke_r	r	n/a
368.3875	0.06	736775	keystroke_l	l	n/a
368.5225	0.135	737045	keystroke_i	i	n/a
368.6275	0.075	737255	keystroke_n	n	n/a
368.7175	0.09	737435	keystroke_Key.space	Key.space	n/a
368.8675	0.09	737735	keystroke_e	e	n/a
368.9875	0.075	737975	keystroke_m	m	n/a
369.1525	0.06	738305	keystroke_i	i	n/a
369.2425	0.06	738485	keystroke_s	s	n/a
369.3775	0.09	738755	keystroke_s	s	n/a
369.4825	0.165	738965	keystroke_i	i	n/a
369.5575	0.135	739115	keystroke_o	o	n/a
369.6325	0.105	739265	keystroke_n	n	n/a
369.7675	0.105	739535	keystroke_Key.space	Key.space	n/a
370.0825	0.0755	740165	keystroke_d	d	n/a
370.263	0.06	740526	keystroke_e	e	n/a
370.338	0.09	740676	keystroke_p	p	n/a
370.458	0.075	740916	keystroke_t	t	n/a
370.548	0.09	741096	keystroke_Key.space	Key.space	n/a
370.668	0.09	741336	keystroke_a	a	n/a
370.818	0.09	741636	keystroke_d	d	n/a
370.968	0.105	741936	keystroke_m	m	n/a
371.118	0.06	742236	keystroke_i	i	n/a
371.253	0.03	742506	keystroke_t	t	n/a
371.358	0.075	742716	keystroke_t	t	n/a
371.5075	0.075	743015	keystroke_e	e	n/a
371.6725	0.105	743345	keystroke_d	d	n/a
371.8075	0.09	743615	keystroke_Key.enter	Key.enter	n/a
371.9025	5.6965	743805	prompt	n/a	sustainability jean lauren would\n
372.4525	0.09	744905	keystroke_s	s	n/a
372.6625	0.09	745325	keystroke_u	u	n/a
372.7375	0.18	745475	keystroke_s	s	n/a
372.9325	0.06	745865	keystroke_t	t	n/a
373.1125	0.12	746225	keystroke_a	a	n/a
373.2475	0.105	746495	keystroke_i	i	n/a
373.2925	0.105	746585	keystroke_n	n	n/a
373.4125	0.105	746825	keystroke_a	a	n/a
373.5325	0.075	747065	keystroke_b	b	n/a
373.9375	0.06	747875	keystroke_i	i	n/a
374.1325	0.06	748265	keystroke_l	l	n/a
374.298	0.09	748596	keystroke_i	i	n/a
374.493	0.105	748986	keystroke_t	t	n/a
374.643	0.12	749286	keystroke_y	y	n/a
374.778	0.09	749556	keystroke_Key.space	Key.space	n/a
375.018	0.09	750036	keystroke_j	j	n/a
375.093	0.075	750186	keystroke_e	e	n/a
375.243	0.105	750486	keystroke_a	a	n/a
375.333	0.045	750666	keystroke_n	n	n/a
375.408	0.09	750816	keystroke_Key.space	Key.space	n/a
375.558	0.1045	751116	keystroke_l	l	n/a
375.7075	0.105	751415	keystroke_a	a	n/a
375.8275	0.105	751655	keystroke_u	u	n/a
375.9775	0.075	751955	keystroke_d	d	n/a
376.3675	0.045	752735	keystroke_Key.backspace	Key.backspace	n/a
376.3975	0.06	752795	keystroke_r	r	n/a
376.5625	0.075	753125	keystroke_e	e	n/a
376.6225	0.105	753245	keystroke_n	n	n/a
376.7125	0.09	753425	keystroke_Key.space	Key.space	n/a
376.8475	0.1055	753695	keystroke_w	w	n/a
376.9375	0.09	753875	keystroke_o	o	n/a
376.9975	0.06	753995	keystroke_u	u	n/a
377.2675	0.03	754535	keystroke_l	l	n/a
377.2825	0.075	754565	keystroke_d	d	n/a
377.5375	0.06	755075	keystroke_Key.enter	Key.enter	n/a
377.6015	9.1925	755203	prompt	n/a	marshall cycling retrieved evaluation\n
378.408	0.135	756816	keystroke_m	m	n/a
378.498	0.105	756996	keystroke_a	a	n/a
378.813	0.09	757626	keystroke_r	r	n/a
379.083	0.045	758166	keystroke_c	c	n/a
379.443	0.06	758886	keystroke_Key.backspace	Key.backspace	n/a
379.503	0.105	759006	keystroke_s	s	n/a
379.653	0.105	759306	keystroke_h	h	n/a
379.743	0.105	759486	keystroke_a	a	n/a
379.878	0.06	759756	keystroke_l	l	n/a
380.013	0.12	760026	keystroke_l	l	n/a
380.103	0.09	760206	keystroke_Key.space	Key.space	n/a
380.313	0.09	760626	keystroke_c	c	n/a
380.463	0.075	760926	keystroke_y	y	n/a
380.553	0.075	761106	keystroke_c	c	n/a
380.703	0.075	761406	keystroke_l	l	n/a
380.943	0.1495	761886	keystroke_i	i	n/a
381.0475	0.09	762095	keystroke_n	n	n/a
381.1075	0.09	762215	keystroke_g	g	n/a
381.2125	0.09	762425	keystroke_Key.space	Key.space	n/a
381.5275	0.075	763055	keystroke_r	r	n/a
381.7075	0.045	763415	keystroke_e	e	n/a
381.9025	0.06	763805	keystroke_t	t	n/a
382.0675	0.0905	764135	keystroke_r	r	n/a
382.172	0.075	764344	keystroke_i	i	n/a
382.263	0.075	764526	keystroke_e	e	n/a
382.473	0.045	764946	keystroke_v	v	n/a
382.623	0.0445	765246	keystroke_e	e	n/a
383.2075	0.045	766415	keystroke_v	v	n/a
383.5075	0.06	767015	keystroke_Key.backspace	Key.backspace	n/a
383.5375	0.105	767075	keystroke_d	d	n/a
383.762	0.075	767524	keystroke_Key.space	Key.space	n/a
383.852	0.091	767704	keystroke_a	a	n/a
384.242	0.061	768484	keystroke_Key.backspace	Key.backspace	n/a
384.318	0.075	768636	keystroke_e	e	n/a
384.528	0.075	769056	keystroke_v	v	n/a
384.768	0.09	769536	keystroke_a	a	n/a
385.038	0.075	770076	keystroke_l	l	n/a
385.382	0.061	770764	keystroke_u	u	n/a
385.503	0.09	771006	keystroke_a	a	n/a
385.758	0.075	771516	keystroke_t	t	n/a
385.893	0.165	771786	keystroke_i	i	n/a
385.998	0.135	771996	keystroke_o	o	n/a
386.073	0.105	772146	keystroke_n	n	n/a
386.703	0.09	773406	keystroke_Key.enter	Key.enter	n/a
386.7965	13.0025	773593	prompt	n/a	prohibited italic structured who'd've\n
387.393	0.105	774786	keystroke_p	p	n/a
387.453	0.075	774906	keystroke_r	r	n/a
387.633	0.075	775266	keystroke_o	o	n/a
387.812	0.105	775624	keystroke_h	h	n/a
387.978	0.074	775956	keystroke_i	i	n/a
388.157	0.075	776314	keystroke_b	b	n/a
388.307	0.105	776614	keystroke_i	i	n/a
388.472	0.105	776944	keystroke_t	t	n/a
388.637	0.0605	777274	keystroke_y	y	n/a
389.1325	0.03	778265	keystroke_Key.backspace	Key.backspace	n/a
389.1775	0.06	778355	keystroke_e	e	n/a
389.3575	0.105	778715	keystroke_d	d	n/a
389.4475	0.105	778895	keystroke_Key.space	Key.space	n/a
389.7025	0.09	779405	keystroke_i	i	n/a
389.9725	0.045	779945	keystroke_t	t	n/a
390.153	0.09	780306	keystroke_a	a	n/a
390.288	0.135	780576	keystroke_l	l	n/a
390.408	0.12	780816	keystroke_i	i	n/a
390.513	0.075	781026	keystroke_c	c	n/a
390.618	0.1045	781236	keystroke_Key.space	Key.space	n/a
390.7375	0.075	781475	keystroke_s	s	n/a
390.8875	0.045	781775	keystroke_c	c	n/a
391.2925	0.045	782585	keystroke_Key.backspace	Key.backspace	n/a
391.3225	0.06	782645	keystroke_t	t	n/a
391.4725	0.09	782945	keystroke_r	r	n/a
391.7875	0.105	783575	keystroke_u	u	n/a
392.1475	0.09	784295	keystroke_g	g	n/a
392.523	0.045	785046	keystroke_Key.backspace	Key.backspace	n/a
392.8225	0.15	785645	keystroke_c	c	n/a
393.1375	0.09	786275	keystroke_t	t	n/a
393.3325	0.09	786665	keystroke_u	u	n/a
393.4375	0.09	786875	keystroke_r	r	n/a
393.6475	0.045	787295	keystroke_e	e	n/a
393.8275	0.075	787655	keystroke_d	d	n/a
393.9775	0.09	787955	keystroke_Key.space	Key.space	n/a
394.3675	0.15	788735	keystroke_w	w	n/a
394.4575	0.09	788915	keystroke_h	h	n/a
394.5325	0.09	789065	keystroke_o	o	n/a
394.7575	0.09	789515	keystroke_d	d	n/a
395.1625	0.12	790325	keystroke_'	'	n/a
395.2675	0.075	790535	keystroke_v	v	n/a
396.213	0.06	792426	keystroke_Key.backspace	Key.backspace	n/a
396.363	0.075	792726	keystroke_Key.backspace	Key.backspace	n/a
396.858	0.075	793716	keystroke_Key.backspace	Key.backspace	n/a
397.488	0.09	794976	keystroke_'	'	n/a
397.818	0.06	795636	keystroke_d	d	n/a
398.373	0.09	796746	keystroke_'	'	n/a
398.763	0.06	797526	keystroke_v	v	n/a
399.078	0.06	798156	keystroke_e	e	n/a
399.768	0.03	799536	keystroke_Key.enter	Key.enter	n/a
399.8095	5.4945	799619	prompt	n/a	fork tires select economic\n
400.698	0.09	801396	keystroke_f	f	n/a
400.832	0.0755	801664	keystroke_o	o	n/a
400.9375	0.075	801875	keystroke_r	r	n/a
401.0735	0.119	802147	keystroke_k	k	n/a
401.208	0.075	802416	keystroke_Key.space	Key.space	n/a
401.418	0.06	802836	keystroke_t	t	n/a
401.463	0.09	802926	keystroke_i	i	n/a
401.583	0.06	803166	keystroke_r	r	n/a
401.748	0.06	803496	keystroke_e	e	n/a
401.973	0.075	803946	keystroke_s	s	n/a
402.078	0.09	804156	keystroke_Key.space	Key.space	n/a
402.393	0.105	804786	keystroke_s	s	n/a
402.588	0.06	805176	keystroke_e	e	n/a
402.648	0.075	805296	keystroke_l	l	n/a
402.768	0.075	805536	keystroke_e	e	n/a
403.0225	0.015	806045	keystroke_t	t	n/a
403.2785	0.059	806557	keystroke_Key.backspace	Key.backspace	n/a
403.3085	0.074	806617	keystroke_c	c	n/a
403.5175	0.075	807035	keystroke_t	t	n/a
403.6075	0.075	807215	keystroke_Key.space	Key.space	n/a
403.7575	0.045	807515	keystroke_e	e	n/a
404.0875	0.09	808175	keystroke_c	c	n/a
404.2075	0.1055	808415	keystroke_o	o	n/a
404.4475	0.06	808895	keystroke_n	n	n/a
404.5675	0.135	809135	keystroke_o	o	n/a
404.7325	0.105	809465	keystroke_m	m	n/a
404.9125	0.075	809825	keystroke_i	i	n/a
405.0325	0.09	810065	keystroke_c	c	n/a
405.2275	0.075	810455	keystroke_Key.enter	Key.enter	n/a
405.3065	7.1675	810613	prompt	n/a	menu brother subsidiary unusual\n
405.9175	0.075	811835	keystroke_m	m	n/a
406.0375	0.09	812075	keystroke_e	e	n/a
406.203	0.075	812406	keystroke_n	n	n/a
406.383	0.09	812766	keystroke_u	u	n/a
406.503	0.075	813006	keystroke_Key.space	Key.space	n/a
406.728	0.09	813456	keystroke_b	b	n/a
406.833	0.09	813666	keystroke_r	r	n/a
406.938	0.09	813876	keystroke_o	o	n/a
407.0575	0.075	814115	keystroke_t	t	n/a
407.1775	0.075	814355	keystroke_h	h	n/a
407.2675	0.075	814535	keystroke_e	e	n/a
407.2975	0.09	814595	keystroke_r	r	n/a
407.3725	0.0905	814745	keystroke_Key.space	Key.space	n/a
407.568	0.12	815136	keystroke_s	s	n/a
407.733	0.075	815466	keystroke_i	i	n/a
407.928	0.09	815856	keystroke_b	b	n/a
408.4225	0.03	816845	keystroke_Key.backspace	Key.backspace	n/a
408.5125	0.075	817025	keystroke_Key.backspace	Key.backspace	n/a
408.708	0.06	817416	keystroke_u	u	n/a
408.933	0.09	817866	keystroke_b	b	n/a
409.128	0.12	818256	keystroke_s	s	n/a
409.278	0.075	818556	keystroke_i	i	n/a
409.593	0.0895	819186	keystroke_d	d	n/a
409.6975	0.06	819395	keystroke_i	i	n/a
409.7725	0.105	819545	keystroke_a	a	n/a
410.0575	0.105	820115	keystroke_r	r	n/a
410.252	0.075	820504	keystroke_y	y	n/a
410.477	0.09	820954	keystroke_Key.space	Key.space	n/a
411.122	0.06	822244	keystroke_u	u	n/a
411.287	0.075	822574	keystroke_n	n	n/a
411.467	0.06	822934	keystroke_u	u	n/a
411.602	0.09	823204	keystroke_s	s	n/a
411.917	0.045	823834	keystroke_u	u	n/a
412.022	0.105	824044	keystroke_a	a	n/a
412.113	0.059	824226	keystroke_l	l	n/a
412.397	0.0755	824794	keystroke_Key.enter	Key.enter	n/a
412.4775	6.671	824955	prompt	n/a	benefits integrate situations contests\n
413.178	0.06	826356	keystroke_b	b	n/a
413.268	0.075	826536	keystroke_e	e	n/a
413.403	0.09	826806	keystroke_n	n	n/a
413.598	0.105	827196	keystroke_e	e	n/a
413.883	0.075	827766	keystroke_f	f	n/a
413.988	0.09	827976	keystroke_i	i	n/a
414.093	0.06	828186	keystroke_t	t	n/a
414.288	0.135	828576	keystroke_s	s	n/a
414.438	0.105	828876	keystroke_Key.space	Key.space	n/a
414.588	0.105	829176	keystroke_i	i	n/a
414.6475	0.1205	829295	keystroke_n	n	n/a
414.828	0.06	829656	keystroke_t	t	n/a
414.993	0.075	829986	keystroke_e	e	n/a
415.473	0.075	830946	keystroke_g	g	n/a
415.668	0.06	831336	keystroke_r	r	n/a
416.013	0.075	832026	keystroke_a	a	n/a
416.238	0.06	832476	keystroke_t	t	n/a
416.373	0.09	832746	keystroke_e	e	n/a
416.478	0.075	832956	keystroke_Key.space	Key.space	n/a
416.613	0.09	833226	keystroke_s	s	n/a
416.673	0.075	833346	keystroke_i	i	n/a
416.853	0.075	833706	keystroke_t	t	n/a
416.943	0.06	833886	keystroke_u	u	n/a
417.093	0.09	834186	keystroke_a	a	n/a
417.318	0.09	834636	keystroke_t	t	n/a
417.4525	0.165	834905	keystroke_i	i	n/a
417.5425	0.15	835085	keystroke_o	o	n/a
417.6325	0.105	835265	keystroke_n	n	n/a
417.7225	0.075	835445	keystroke_s	s	n/a
417.8275	0.075	835655	keystroke_Key.space	Key.space	n/a
417.9475	0.075	835895	keystroke_c	c	n/a
418.0075	0.105	836015	keystroke_o	o	n/a
418.0525	0.135	836105	keystroke_n	n	n/a
418.2475	0.06	836495	keystroke_t	t	n/a
418.3825	0.075	836765	keystroke_e	e	n/a
418.5775	0.09	837155	keystroke_s	s	n/a
418.758	0.06	837516	keystroke_t	t	n/a
418.938	0.09	837876	keystroke_s	s	n/a
419.058	0.089	838116	keystroke_Key.enter	Key.enter	n/a
419.151	5.008	838302	prompt	n/a	carey lies extended updated\n
419.763	0.089	839526	keystroke_c	c	n/a
419.898	0.105	839796	keystroke_a	a	n/a
420.078	0.075	840156	keystroke_r	r	n/a
420.258	0.105	840516	keystroke_e	e	n/a
420.393	0.09	840786	keystroke_y	y	n/a
420.497	0.091	840994	keystroke_Key.space	Key.space	n/a
420.737	0.135	841474	keystroke_l	l	n/a
420.857	0.106	841714	keystroke_i	i	n/a
420.978	0.059	841956	keystroke_e	e	n/a
421.158	0.119	842316	keystroke_s	s	n/a
421.247	0.09	842494	keystroke_Key.space	Key.space	n/a
421.382	0.046	842764	keystroke_e	e	n/a
421.562	0.06	843124	keystroke_x	x	n/a
421.832	0.075	843664	keystroke_t	t	n/a
422.0125	0.09	844025	keystroke_e	e	n/a
422.1775	0.09	844355	keystroke_n	n	n/a
422.3275	0.045	844655	keystroke_d	d	n/a
422.477	0.061	844954	keystroke_e	e	n/a
422.627	0.1055	845254	keystroke_d	d	n/a
422.7175	0.105	845435	keystroke_Key.space	Key.space	n/a
422.8675	0.09	845735	keystroke_u	u	n/a
422.9425	0.09	845885	keystroke_p	p	n/a
423.0025	0.075	846005	keystroke_d	d	n/a
423.1375	0.09	846275	keystroke_a	a	n/a
423.3625	0.06	846725	keystroke_t	t	n/a
423.4375	0.1045	846875	keystroke_e	e	n/a
423.632	0.075	847264	keystroke_d	d	n/a
424.067	0.09	848134	keystroke_Key.enter	Key.enter	n/a
424.162	7.782	848324	prompt	n/a	worldwide alpha blade zinc\n
425.132	0.105	850264	keystroke_w	w	n/a
425.207	0.105	850414	keystroke_o	o	n/a
425.297	0.105	850594	keystroke_r	r	n/a
425.672	0.075	851344	keystroke_d	d	n/a
426.227	0.045	852454	keystroke_Key.backspace	Key.backspace	n/a
426.423	0.059	852846	keystroke_l	l	n/a
426.527	0.09	853054	keystroke_d	d	n/a
426.842	0.105	853684	keystroke_w	w	n/a
426.932	0.09	853864	keystroke_i	i	n/a
427.082	0.09	854164	keystroke_d	d	n/a
427.397	0.0755	854794	keystroke_e	e	n/a
427.5475	0.09	855095	keystroke_Key.space	Key.space	n/a
427.6525	0.12	855305	keystroke_a	a	n/a
427.7575	0.09	855515	keystroke_l	l	n/a
428.0275	0.03	856055	keystroke_p	p	n/a
428.1925	0.09	856385	keystroke_h	h	n/a
428.2975	0.105	856595	keystroke_a	a	n/a
428.4175	0.09	856835	keystroke_Key.space	Key.space	n/a
428.777	0.105	857554	keystroke_b	b	n/a
428.972	0.106	857944	keystroke_l	l	n/a
429.5875	0.09	859175	keystroke_a	a	n/a
429.8275	0.075	859655	keystroke_d	d	n/a
430.0375	0.06	860075	keystroke_e	e	n/a
430.1425	0.105	860285	keystroke_Key.space	Key.space	n/a
430.2925	0.135	860585	keystroke_s	s	n/a
430.683	0.045	861366	keystroke_Key.backspace	Key.backspace	n/a
430.728	0.15	861456	keystroke_z	z	n/a
430.968	0.135	861936	keystroke_i	i	n/a
431.028	0.15	862056	keystroke_n	n	n/a
431.5075	0.09	863015	keystroke_c	c	n/a
431.8375	0.105	863675	keystroke_Key.enter	Key.enter	n/a
431.9465	5.5025	863893	prompt	n/a	granny chester deviant creation\n
432.602	0.106	865204	keystroke_g	g	n/a
432.798	0.09	865596	keystroke_r	r	n/a
432.993	0.09	865986	keystroke_a	a	n/a
433.113	0.044	866226	keystroke_n	n	n/a
433.247	0.076	866494	keystroke_n	n	n/a
433.518	0.075	867036	keystroke_y	y	n/a
433.578	0.104	867156	keystroke_Key.space	Key.space	n/a
433.668	0.12	867336	keystroke_c	c	n/a
433.772	0.076	867544	keystroke_h	h	n/a
433.862	0.091	867724	keystroke_e	e	n/a
434.058	0.12	868116	keystroke_s	s	n/a
434.298	0.074	868596	keystroke_t	t	n/a
434.477	0.105	868954	keystroke_e	e	n/a
434.538	0.09	869076	keystroke_r	r	n/a
434.642	0.09	869284	keystroke_Key.space	Key.space	n/a
434.792	0.045	869584	keystroke_d	d	n/a
434.927	0.06	869854	keystroke_e	e	n/a
435.182	0.09	870364	keystroke_v	v	n/a
435.332	0.075	870664	keystroke_i	i	n/a
435.467	0.075	870934	keystroke_a	a	n/a
435.573	0.119	871146	keystroke_n	n	n/a
435.798	0.089	871596	keystroke_t	t	n/a
435.902	0.091	871804	keystroke_Key.space	Key.space	n/a
436.052	0.076	872104	keystroke_c	c	n/a
436.247	0.076	872494	keystroke_r	r	n/a
436.413	0.074	872826	keystroke_e	e	n/a
436.562	0.09	873124	keystroke_a	a	n/a
436.7875	0.06	873575	keystroke_t	t	n/a
436.8925	0.165	873785	keystroke_i	i	n/a
437.0125	0.135	874025	keystroke_o	o	n/a
437.0875	0.09	874175	keystroke_n	n	n/a
437.4025	0.045	874805	keystroke_Key.enter	Key.enter	n/a
437.451	5.383	874902	prompt	n/a	annual rats jason experiences\n
438.0475	0.15	876095	keystroke_a	a	n/a
438.2425	0.015	876485	keystroke_n	n	n/a
438.3475	0.075	876695	keystroke_n	n	n/a
438.5125	0.06	877025	keystroke_u	u	n/a
438.6025	0.1195	877205	keystroke_a	a	n/a
438.723	0.104	877446	keystroke_l	l	n/a
438.842	0.105	877684	keystroke_Key.space	Key.space	n/a
439.217	0.075	878434	keystroke_r	r	n/a
439.397	0.09	878794	keystroke_a	a	n/a
439.7125	0.09	879425	keystroke_t	t	n/a
439.9225	0.12	879845	keystroke_s	s	n/a
440.0575	0.09	880115	keystroke_Key.space	Key.space	n/a
440.1625	0.09	880325	keystroke_j	j	n/a
440.2675	0.075	880535	keystroke_a	a	n/a
440.4625	0.12	880925	keystroke_s	s	n/a
440.5975	0.15	881195	keystroke_o	o	n/a
440.6875	0.09	881375	keystroke_n	n	n/a
440.763	0.1195	881526	keystroke_Key.space	Key.space	n/a
440.9875	0.06	881975	keystroke_e	e	n/a
441.1825	0.0605	882365	keystroke_x	x	n/a
441.258	0.12	882516	keystroke_p	p	n/a
441.498	0.075	882996	keystroke_e	e	n/a
441.678	0.075	883356	keystroke_r	r	n/a
441.768	0.075	883536	keystroke_i	i	n/a
441.903	0.075	883806	keystroke_e	e	n/a
441.993	0.12	883986	keystroke_n	n	n/a
442.143	0.09	884286	keystroke_c	c	n/a
442.278	0.09	884556	keystroke_e	e	n/a
442.473	0.15	884946	keystroke_s	s	n/a
442.713	0.12	885426	keystroke_Key.enter	Key.enter	n/a
442.8365	5.4875	885673	prompt	n/a	interface seeds element greene\n
443.508	0.135	887016	keystroke_i	i	n/a
443.598	0.105	887196	keystroke_n	n	n/a
443.658	0.09	887316	keystroke_t	t	n/a
443.808	0.105	887616	keystroke_e	e	n/a
443.853	0.105	887706	keystroke_r	r	n/a
444.108	0.075	888216	keystroke_f	f	n/a
444.7225	0.09	889445	keystroke_a	a	n/a
444.9325	0.075	889865	keystroke_c	c	n/a
445.0825	0.0605	890165	keystroke_e	e	n/a
445.203	0.105	890406	keystroke_Key.space	Key.space	n/a
445.353	0.12	890706	keystroke_s	s	n/a
445.443	0.09	890886	keystroke_e	e	n/a
445.608	0.09	891216	keystroke_e	e	n/a
445.878	0.075	891756	keystroke_d	d	n/a
446.058	0.105	892116	keystroke_s	s	n/a
446.193	0.105	892386	keystroke_Key.space	Key.space	n/a
446.313	0.075	892626	keystroke_e	e	n/a
446.403	0.075	892806	keystroke_l	l	n/a
446.493	0.09	892986	keystroke_e	e	n/a
446.598	0.09	893196	keystroke_m	m	n/a
446.688	0.09	893376	keystroke_e	e	n/a
446.793	0.09	893586	keystroke_n	n	n/a
446.913	0.075	893826	keystroke_t	t	n/a
447.003	0.075	894006	keystroke_Key.space	Key.space	n/a
447.213	0.105	894426	keystroke_g	g	n/a
447.423	0.075	894846	keystroke_r	r	n/a
447.603	0.045	895206	keystroke_e	e	n/a
447.723	0.09	895446	keystroke_e	e	n/a
447.8575	0.09	895715	keystroke_n	n	n/a
447.9775	0.0905	895955	keystroke_e	e	n/a
448.278	0.045	896556	keystroke_Key.enter	Key.enter	n/a
448.336	7.608	896672	prompt	n/a	derby emotional collecting legs\n
448.8475	0.09	897695	keystroke_d	d	n/a
449.0425	0.075	898085	keystroke_e	e	n/a
449.2075	0.105	898415	keystroke_r	r	n/a
449.357	0.09	898714	keystroke_b	b	n/a
449.687	0.075	899374	keystroke_Key.space	Key.space	n/a
450.032	0.075	900064	keystroke_Key.backspace	Key.backspace	n/a
450.257	0.106	900514	keystroke_y	y	n/a
450.332	0.105	900664	keystroke_Key.space	Key.space	n/a
450.497	0.12	900994	keystroke_e	e	n/a
450.647	0.091	901294	keystroke_m	m	n/a
450.768	0.104	901536	keystroke_o	o	n/a
450.903	0.119	901806	keystroke_t	t	n/a
451.052	0.15	902104	keystroke_i	i	n/a
451.128	0.15	902256	keystroke_o	o	n/a
451.217	0.09	902434	keystroke_n	n	n/a
451.337	0.105	902674	keystroke_a	a	n/a
451.487	0.09	902974	keystroke_l	l	n/a
451.697	0.06	903394	keystroke_Key.space	Key.space	n/a
452.178	0.164	904356	keystroke_c	c	n/a
452.222	0.06	904444	keystroke_o	o	n/a
452.432	0.031	904864	keystroke_l	l	n/a
452.567	0.075	905134	keystroke_l	l	n/a
452.897	0.09	905794	keystroke_e	e	n/a
453.062	0.09	906124	keystroke_c	c	n/a
453.287	0.0905	906574	keystroke_t	t	n/a
453.3625	0.15	906725	keystroke_i	i	n/a
453.4525	0.135	906905	keystroke_o	o	n/a
453.5425	0.09	907085	keystroke_n	n	n/a
453.9025	0.045	907805	keystroke_Key.backspace	Key.backspace	n/a
454.0225	0.075	908045	keystroke_Key.backspace	Key.backspace	n/a
454.292	0.075	908584	keystroke_n	n	n/a
454.457	0.105	908914	keystroke_g	g	n/a
454.592	0.075	909184	keystroke_Key.space	Key.space	n/a
454.833	0.09	909666	keystroke_l	l	n/a
454.908	0.075	909816	keystroke_e	e	n/a
455.118	0.075	910236	keystroke_g	g	n/a
455.342	0.091	910684	keystroke_s	s	n/a
455.868	0.075	911736	keystroke_Key.enter	Key.enter	n/a
455.948	8.291	911896	prompt	n/a	spencer academics creation python\n
456.647	0.1055	913294	keystroke_s	s	n/a
456.7825	0.09	913565	keystroke_p	p	n/a
456.8575	0.06	913715	keystroke_e	e	n/a
457.0225	0.09	914045	keystroke_n	n	n/a
457.0975	0.0895	914195	keystroke_c	c	n/a
457.307	0.15	914614	keystroke_e	e	n/a
457.397	0.105	914794	keystroke_r	r	n/a
457.532	0.09	915064	keystroke_Key.space	Key.space	n/a
457.757	0.09	915514	keystroke_a	a	n/a
457.937	0.06	915874	keystroke_d	d	n/a
458.372	0.06	916744	keystroke_Key.backspace	Key.backspace	n/a
458.447	0.06	916894	keystroke_c	c	n/a
458.612	0.075	917224	keystroke_a	a	n/a
458.837	0.045	917674	keystroke_d	d	n/a
458.987	0.075	917974	keystroke_e	e	n/a
459.0935	0.0885	918187	keystroke_m	m	n/a
459.302	0.06	918604	keystroke_i	i	n/a
459.392	0.075	918784	keystroke_c	c	n/a
459.587	0.105	919174	keystroke_s	s	n/a
459.752	0.075	919504	keystroke_Key.space	Key.space	n/a
460.022	0.075	920044	keystroke_c	c	n/a
460.2175	0.06	920435	keystroke_r	r	n/a
460.607	0.0755	921214	keystroke_e	e	n/a
460.8175	0.09	921635	keystroke_a	a	n/a
461.0275	0.105	922055	keystroke_t	t	n/a
461.1775	0.1645	922355	keystroke_i	i	n/a
461.282	0.135	922564	keystroke_n	n	n/a
461.7625	0.045	923525	keystroke_Key.backspace	Key.backspace	n/a
462.0325	0.105	924065	keystroke_o	o	n/a
462.2425	0.09	924485	keystroke_n	n	n/a
462.3625	0.09	924725	keystroke_Key.space	Key.space	n/a
462.6475	0.09	925295	keystroke_p	p	n/a
463.052	0.0905	926104	keystroke_y	y	n/a
463.4275	0.1045	926855	keystroke_t	t	n/a
463.502	0.075	927004	keystroke_h	h	n/a
463.682	0.09	927364	keystroke_o	o	n/a
463.8325	0.09	927665	keystroke_n	n	n/a
464.1625	0.075	928325	keystroke_Key.enter	Key.enter	n/a
464.2465	7.6275	928493	prompt	n/a	princeton fossil dispatch we'll\n
464.8815	0.061	929763	keystroke_p	p	n/a
465.0475	0.12	930095	keystroke_r	r	n/a
465.3925	0.12	930785	keystroke_i	i	n/a
465.4675	0.1645	930935	keystroke_n	n	n/a
