onset	duration	sample	value	key	prompt_text
22.216	0.12	44432	keystroke_Key.tab	Key.tab	n/a
26.0855	0.2405	52171	keystroke_Key.cmd	Key.cmd	n/a
26.162	0.139	52324	keystroke_4	4	n/a
28.471	0.21	56942	keystroke_Key.cmd	Key.cmd	n/a
29.086	0.3035	58172	keystroke_Key.cmd	Key.cmd	n/a
29.281	0.1425	58562	keystroke_2	2	n/a
34.276	0.1195	68552	keystroke_a	a	n/a
34.351	0.12	68702	keystroke_d	d	n/a
34.456	0.12	68912	keystroke_a	a	n/a
34.5155	0.1055	69031	keystroke_m	m	n/a
34.696	0.105	69392	keystroke_b	b	n/a
38.776	0.09	77552	keystroke_l	l	n/a
39.571	0.0745	79142	keystroke_Key.backspace	Key.backspace	n/a
40.381	0.09	80762	keystroke_k	k	n/a
40.546	0.075	81092	keystroke_e	e	n/a
40.71	0.0455	81420	keystroke_y	y	n/a
40.8155	0.045	81631	keystroke_s	s	n/a
40.966	0.0445	81932	keystroke_t	t	n/a
41.086	0.09	82172	keystroke_r	r	n/a
41.161	0.1345	82322	keystroke_o	o	n/a
41.251	0.135	82502	keystroke_k	k	n/a
41.341	0.09	82682	keystroke_e	e	n/a
41.506	0.1045	83012	keystroke_s	s	n/a
41.716	0.135	83432	keystroke_Key.space	Key.space	n/a
43.2005	0.1055	86401	keystroke_p	p	n/a
43.351	0.0895	86702	keystroke_r	r	n/a
44.161	0.0155	88322	keystroke_o	o	n/a
44.191	0.1355	88382	keystroke_t	t	n/a
44.3405	0.0455	88681	keystroke_o	o	n/a
44.431	0.12	88862	keystroke_c	c	n/a
44.536	0.0905	89072	keystroke_o	o	n/a
44.731	0.075	89462	keystroke_l	l	n/a
45.421	0.093	90842	keystroke_Key.cmd	Key.cmd	n/a
45.4355	0.09	90871	keystroke_1	1	n/a
46.562	0.4935	93124	keystroke_Key.cmd	Key.cmd	n/a
46.936	0.1045	93872	keystroke_2	2	n/a
49.036	0.0745	98072	keystroke_Key.backspace	Key.backspace	n/a
49.248	0.0125	98496	keystroke_Key.backspace	Key.backspace	n/a
49.366	0.0445	98732	keystroke_Key.backspace	Key.backspace	n/a
49.516	0.075	99032	keystroke_Key.backspace	Key.backspace	n/a
49.666	0.0745	99332	keystroke_Key.backspace	Key.backspace	n/a
49.816	0.075	99632	keystroke_Key.backspace	Key.backspace	n/a
49.966	0.0745	99932	keystroke_Key.backspace	Key.backspace	n/a
50.2655	0.1505	100531	keystroke_o	o	n/a
50.401	0.12	100802	keystroke_n	n	n/a
50.656	0.135	101312	keystroke_Key.shift	Key.shift	n/a
50.701	0.075	101402	keystroke__	_	n/a
50.9255	0.0755	101851	keystroke_k	k	n/a
51.016	0.075	102032	keystroke_e	e	n/a
51.1355	0.0605	102271	keystroke_y	y	n/a
51.182	0.1185	102364	keystroke_b	b	n/a
51.8405	0.076	103681	keystroke_o	o	n/a
51.8855	0.1205	103771	keystroke_a	a	n/a
51.961	0.06	103922	keystroke_r	r	n/a
52.1255	0.1055	104251	keystroke_d	d	n/a
52.246	0.105	104492	keystroke_Key.space	Key.space	n/a
52.4105	0.0755	104821	keystroke_p	p	n/a
52.501	0.075	105002	keystroke_r	r	n/a
52.591	0.075	105182	keystroke_o	o	n/a
52.681	0.075	105362	keystroke_t	t	n/a
52.771	0.075	105542	keystroke_o	o	n/a
52.861	0.12	105722	keystroke_c	c	n/a
52.936	0.1045	105872	keystroke_o	o	n/a
53.116	0.12	106232	keystroke_l	l	n/a
53.221	0.1195	106442	keystroke_Key.space	Key.space	n/a
53.956	0.09	107912	keystroke_6	6	n/a
54.061	0.075	108122	keystroke_.	.	n/a
54.271	0.0745	108542	keystroke_3	3	n/a
67.6805	7.698	135361	prompt	n/a	the quick brown fox jumps over a lazy dog\n
69.5255	0.091	139051	keystroke_t	t	n/a
69.631	0.105	139262	keystroke_h	h	n/a
69.751	0.0745	139502	keystroke_e	e	n/a
69.8405	0.1215	139681	keystroke_Key.space	Key.space	n/a
69.946	0.1345	139892	keystroke_q	q	n/a
70.1255	0.1505	140251	keystroke_u	u	n/a
70.231	0.12	140462	keystroke_i	i	n/a
70.366	0.165	140732	keystroke_c	c	n/a
70.531	0.09	141062	keystroke_k	k	n/a
70.576	0.1495	141152	keystroke_Key.space	Key.space	n/a
70.741	0.075	141482	keystroke_b	b	n/a
70.921	0.075	141842	keystroke_r	r	n/a
71.0405	0.107	142081	keystroke_o	o	n/a
71.161	0.075	142322	keystroke_w	w	n/a
71.281	0.1195	142562	keystroke_n	n	n/a
71.3855	0.1205	142771	keystroke_Key.space	Key.space	n/a
71.6105	0.0755	143221	keystroke_f	f	n/a
71.731	0.09	143462	keystroke_o	o	n/a
71.836	0.1045	143672	keystroke_x	x	n/a
71.986	0.105	143972	keystroke_Key.space	Key.space	n/a
72.166	0.0745	144332	keystroke_j	j	n/a
72.316	0.075	144632	keystroke_u	u	n/a
72.5255	0.0755	145051	keystroke_m	m	n/a
72.616	0.15	145232	keystroke_p	p	n/a
72.751	0.0895	145502	keystroke_s	s	n/a
72.8555	0.1055	145711	keystroke_Key.space	Key.space	n/a
72.976	0.12	145952	keystroke_o	o	n/a
73.1105	0.0755	146221	keystroke_v	v	n/a
73.2905	0.12	146581	keystroke_e	e	n/a
73.396	0.09	146792	keystroke_r	r	n/a
73.561	0.09	147122	keystroke_Key.space	Key.space	n/a
73.636	0.0895	147272	keystroke_a	a	n/a
73.801	0.075	147602	keystroke_Key.space	Key.space	n/a
74.0105	0.0455	148021	keystroke_l	l	n/a
74.071	0.105	148142	keystroke_a	a	n/a
74.491	0.105	148982	keystroke_z	z	n/a
74.701	0.075	149402	keystroke_y	y	n/a
74.821	0.1045	149642	keystroke_Key.space	Key.space	n/a
74.971	0.075	149942	keystroke_d	d	n/a
75.061	0.075	150122	keystroke_o	o	n/a
75.151	0.1045	150302	keystroke_g	g	n/a
75.2705	0.1055	150541	keystroke_Key.enter	Key.enter	n/a
75.384	7.898	150768	prompt	n/a	breakdown recipe consortium older\n
77.161	0.075	154322	keystroke_b	b	n/a
77.356	0.12	154712	keystroke_r	r	n/a
77.461	0.12	154922	keystroke_e	e	n/a
77.971	0.075	155942	keystroke_a	a	n/a
78.121	0.1045	156242	keystroke_k	k	n/a
78.331	0.105	156662	keystroke_d	d	n/a
78.481	0.105	156962	keystroke_o	o	n/a
78.586	0.075	157172	keystroke_w	w	n/a
78.706	0.09	157412	keystroke_n	n	n/a
78.781	0.09	157562	keystroke_Key.space	Key.space	n/a
78.916	0.1495	157832	keystroke_r	r	n/a
79.021	0.1195	158042	keystroke_e	e	n/a
79.246	0.135	158492	keystroke_c	c	n/a
79.396	0.135	158792	keystroke_i	i	n/a
79.576	0.105	159152	keystroke_p	p	n/a
79.786	0.045	159572	keystroke_e	e	n/a
79.876	0.105	159752	keystroke_Key.space	Key.space	n/a
80.551	0.15	161102	keystroke_c	c	n/a
80.596	0.135	161192	keystroke_o	o	n/a
80.716	0.09	161432	keystroke_n	n	n/a
80.881	0.1045	161762	keystroke_s	s	n/a
81.061	0.076	162122	keystroke_o	o	n/a
81.151	0.045	162302	keystroke_r	r	n/a
81.301	0.075	162602	keystroke_t	t	n/a
81.421	0.1195	162842	keystroke_i	i	n/a
81.5255	0.09	163051	keystroke_u	u	n/a
81.751	0.135	163502	keystroke_m	m	n/a
81.886	0.135	163772	keystroke_Key.space	Key.space	n/a
82.306	0.075	164612	keystroke_o	o	n/a
82.486	0.09	164972	keystroke_l	l	n/a
82.561	0.09	165122	keystroke_d	d	n/a
82.756	0.105	165512	keystroke_e	e	n/a
82.8755	0.105	165751	keystroke_r	r	n/a
83.176	0.105	166352	keystroke_Key.enter	Key.enter	n/a
83.286	7.316	166572	prompt	n/a	singh awareness streets mobility\n
83.9255	0.0905	167851	keystroke_s	s	n/a
84.031	0.105	168062	keystroke_i	i	n/a
84.271	0.075	168542	keystroke_g	g	n/a
84.361	0.075	168722	keystroke_n	n	n/a
84.946	0.075	169892	keystroke_Key.backspace	Key.backspace	n/a
85.096	0.0445	170192	keystroke_Key.backspace	Key.backspace	n/a
85.306	0.045	170612	keystroke_n	n	n/a
85.4105	0.045	170821	keystroke_g	g	n/a
85.531	0.0755	171062	keystroke_h	h	n/a
85.741	0.105	171482	keystroke_Key.space	Key.space	n/a
86.0705	0.0755	172141	keystroke_a	a	n/a
86.251	0.165	172502	keystroke_w	w	n/a
86.701	0.18	173402	keystroke_a	a	n/a
86.776	0.1495	173552	keystroke_r	r	n/a
86.911	0.0305	173822	keystroke_e	e	n/a
87.046	0.135	174092	keystroke_n	n	n/a
87.151	0.0745	174302	keystroke_e	e	n/a
87.301	0.0745	174602	keystroke_s	s	n/a
87.451	0.1195	174902	keystroke_s	s	n/a
87.5555	0.1205	175111	keystroke_Key.space	Key.space	n/a
87.706	0.045	175412	keystroke_s	s	n/a
87.8265	0.0745	175653	keystroke_t	t	n/a
88.0055	0.12	176011	keystroke_r	r	n/a
88.1105	0.0605	176221	keystroke_e	e	n/a
88.216	0.105	176432	keystroke_e	e	n/a
88.396	0.135	176792	keystroke_t	t	n/a
88.576	0.105	177152	keystroke_s	s	n/a
88.726	0.1045	177452	keystroke_Key.space	Key.space	n/a
88.9355	0.1205	177871	keystroke_m	m	n/a
89.0105	0.1505	178021	keystroke_o	o	n/a
89.176	0.1195	178352	keystroke_b	b	n/a
89.2805	0.0905	178561	keystroke_i	i	n/a
89.446	0.1945	178892	keystroke_l	l	n/a
89.521	0.1055	179042	keystroke_i	i	n/a
89.7765	0.134	179553	keystroke_t	t	n/a
90.196	0.105	180392	keystroke_y	y	n/a
90.496	0.105	180992	keystroke_Key.enter	Key.enter	n/a
90.606	4.5725	181212	prompt	n/a	death sheet themes genetics\n
91.2155	0.0755	182431	keystroke_d	d	n/a
91.366	0.165	182732	keystroke_e	e	n/a
91.471	0.15	182942	keystroke_a	a	n/a
91.576	0.105	183152	keystroke_t	t	n/a
91.666	0.12	183332	keystroke_h	h	n/a
91.786	0.105	183572	keystroke_Key.space	Key.space	n/a
91.936	0.0755	183872	keystroke_s	s	n/a
92.0115	0.1045	184023	keystroke_h	h	n/a
92.1605	0.0455	184321	keystroke_e	e	n/a
92.311	0.075	184622	keystroke_e	e	n/a
92.401	0.1045	184802	keystroke_t	t	n/a
92.581	0.075	185162	keystroke_Key.space	Key.space	n/a
92.701	0.09	185402	keystroke_t	t	n/a
92.776	0.12	185552	keystroke_h	h	n/a
92.9105	0.0755	185821	keystroke_e	e	n/a
93.031	0.12	186062	keystroke_m	m	n/a
93.1355	0.09	186271	keystroke_e	e	n/a
93.331	0.075	186662	keystroke_s	s	n/a
93.481	0.105	186962	keystroke_Key.space	Key.space	n/a
93.631	0.0745	187262	keystroke_g	g	n/a
93.751	0.105	187502	keystroke_e	e	n/a
93.871	0.09	187742	keystroke_n	n	n/a
93.9465	0.0895	187893	keystroke_e	e	n/a
94.261	0.105	188522	keystroke_t	t	n/a
94.381	0.105	188762	keystroke_i	i	n/a
94.531	0.135	189062	keystroke_c	c	n/a
94.681	0.105	189362	keystroke_s	s	n/a
95.1015	0.0745	190203	keystroke_Key.enter	Key.enter	n/a
95.184	19.179	190368	prompt	n/a	sellers beginning engines shirts\n
95.866	0.0745	191732	keystroke_s	s	n/a
96.046	0.075	192092	keystroke_e	e	n/a
96.2255	0.0455	192451	keystroke_l	l	n/a
96.3755	0.1205	192751	keystroke_l	l	n/a
96.451	0.105	192902	keystroke_e	e	n/a
96.5105	0.1505	193021	keystroke_r	r	n/a
96.676	0.12	193352	keystroke_s	s	n/a
96.871	0.135	193742	keystroke_Key.space	Key.space	n/a
97.051	0.0745	194102	keystroke_g	g	n/a
97.561	0.0595	195122	keystroke_Key.backspace	Key.backspace	n/a
97.576	0.09	195152	keystroke_b	b	n/a
97.771	0.075	195542	keystroke_e	e	n/a
97.936	0.0745	195872	keystroke_g	g	n/a
98.056	0.076	196112	keystroke_i	i	n/a
98.2655	0.045	196531	keystroke_n	n	n/a
98.386	0.075	196772	keystroke_n	n	n/a
98.461	0.1645	196922	keystroke_i	i	n/a
98.581	0.105	197162	keystroke_n	n	n/a
98.6405	0.0905	197281	keystroke_g	g	n/a
98.746	0.105	197492	keystroke_Key.space	Key.space	n/a
112.1715	0.045	224343	keystroke_e	e	n/a
112.3065	0.1045	224613	keystroke_n	n	n/a
112.4865	0.135	224973	keystroke_g	g	n/a
112.636	0.1505	225272	keystroke_i	i	n/a
112.741	0.1505	225482	keystroke_n	n	n/a
112.966	0.075	225932	keystroke_e	e	n/a
113.1465	0.12	226293	keystroke_s	s	n/a
113.311	0.1055	226622	keystroke_Key.space	Key.space	n/a
113.5515	0.105	227103	keystroke_s	s	n/a
113.656	0.09	227312	keystroke_h	h	n/a
113.7315	0.135	227463	keystroke_i	i	n/a
113.8515	0.06	227703	keystroke_r	r	n/a
113.9865	0.0755	227973	keystroke_t	t	n/a
114.1665	0.12	228333	keystroke_s	s	n/a
114.271	0.091	228542	keystroke_Key.enter	Key.enter	n/a
114.367	5.8305	228734	prompt	n/a	heading specialty particle fathers\n
115.066	0.1055	230132	keystroke_h	h	n/a
115.126	0.0905	230252	keystroke_e	e	n/a
115.262	0.179	230524	keystroke_a	a	n/a
115.426	0.1205	230852	keystroke_d	d	n/a
115.5915	0.1495	231183	keystroke_i	i	n/a
115.6665	0.105	231333	keystroke_n	n	n/a
115.7565	0.06	231513	keystroke_g	g	n/a
115.8315	0.135	231663	keystroke_Key.space	Key.space	n/a
116.011	0.1205	232022	keystroke_s	s	n/a
116.176	0.0755	232352	keystroke_p	p	n/a
116.2515	0.0745	232503	keystroke_e	e	n/a
116.4015	0.105	232803	keystroke_c	c	n/a
116.5215	0.1045	233043	keystroke_i	i	n/a
116.641	0.1355	233282	keystroke_a	a	n/a
116.8815	0.135	233763	keystroke_l	l	n/a
117.211	0.0905	234422	keystroke_t	t	n/a
117.3165	0.105	234633	keystroke_y	y	n/a
117.496	0.1055	234992	keystroke_Key.space	Key.space	n/a
117.826	0.0905	235652	keystroke_p	p	n/a
117.871	0.1055	235742	keystroke_a	a	n/a
117.9615	0.0595	235923	keystroke_r	r	n/a
118.126	0.0755	236252	keystroke_t	t	n/a
118.2315	0.075	236463	keystroke_i	i	n/a
118.3215	0.1045	236643	keystroke_c	c	n/a
118.441	0.1355	236882	keystroke_l	l	n/a
118.5915	0.0445	237183	keystroke_e	e	n/a
118.6815	0.135	237363	keystroke_Key.space	Key.space	n/a
118.9665	0.105	237933	keystroke_f	f	n/a
119.2365	0.1045	238473	keystroke_a	a	n/a
119.356	0.1055	238712	keystroke_t	t	n/a
119.5365	0.0745	239073	keystroke_h	h	n/a
119.626	0.12	239252	keystroke_e	e	n/a
119.7015	0.12	239403	keystroke_r	r	n/a
119.911	0.1355	239822	keystroke_s	s	n/a
120.0615	0.135	240123	keystroke_Key.enter	Key.enter	n/a
120.2035	5.484	240407	prompt	n/a	trick experiments realtors shelf\n
120.841	0.0905	241682	keystroke_t	t	n/a
121.0365	0.045	242073	keystroke_r	r	n/a
121.0965	0.105	242193	keystroke_i	i	n/a
121.217	0.1195	242434	keystroke_c	c	n/a
121.3215	0.135	242643	keystroke_k	k	n/a
121.411	0.1505	242822	keystroke_Key.space	Key.space	n/a
121.5765	0.0445	243153	keystroke_e	e	n/a
121.7565	0.045	243513	keystroke_x	x	n/a
121.8175	0.1185	243635	keystroke_p	p	n/a
121.921	0.1355	243842	keystroke_e	e	n/a
122.041	0.0605	244082	keystroke_r	r	n/a
122.117	0.074	244234	keystroke_i	i	n/a
122.2965	0.121	244593	keystroke_m	m	n/a
122.371	0.0905	244742	keystroke_e	e	n/a
122.506	0.105	245012	keystroke_n	n	n/a
122.566	0.0905	245132	keystroke_t	t	n/a
122.7615	0.075	245523	keystroke_s	s	n/a
122.8815	0.105	245763	keystroke_Key.space	Key.space	n/a
123.0915	0.1195	246183	keystroke_r	r	n/a
123.1665	0.1195	246333	keystroke_e	e	n/a
123.3615	0.105	246723	keystroke_a	a	n/a
123.511	0.1055	247022	keystroke_l	l	n/a
123.6615	0.075	247323	keystroke_t	t	n/a
123.752	0.104	247504	keystroke_o	o	n/a
123.871	0.1055	247742	keystroke_r	r	n/a
124.0815	0.105	248163	keystroke_s	s	n/a
124.202	0.1045	248404	keystroke_Key.space	Key.space	n/a
124.441	0.0755	248882	keystroke_s	s	n/a
124.5315	0.105	249063	keystroke_h	h	n/a
124.921	0.105	249842	keystroke_e	e	n/a
125.1615	0.105	250323	keystroke_l	l	n/a
125.2815	0.105	250563	keystroke_f	f	n/a
125.5515	0.135	251103	keystroke_Key.enter	Key.enter	n/a
125.691	4.197	251382	prompt	n/a	cyber handled cycle at\n
126.361	0.1205	252722	keystroke_c	c	n/a
126.526	0.0755	253052	keystroke_y	y	n/a
126.6165	0.105	253233	keystroke_b	b	n/a
126.826	0.1205	253652	keystroke_e	e	n/a
126.9315	0.09	253863	keystroke_r	r	n/a
127.036	0.075	254072	keystroke_Key.space	Key.space	n/a
127.2165	0.075	254433	keystroke_h	h	n/a
127.456	0.0905	254912	keystroke_a	a	n/a
127.5315	0.12	255063	keystroke_n	n	n/a
127.6665	0.106	255333	keystroke_d	d	n/a
127.8465	0.0755	255693	keystroke_l	l	n/a
127.996	0.1355	255992	keystroke_e	e	n/a
128.2365	0.0745	256473	keystroke_d	d	n/a
128.356	0.1055	256712	keystroke_Key.space	Key.space	n/a
128.5065	0.1045	257013	keystroke_c	c	n/a
128.626	0.1055	257252	keystroke_y	y	n/a
128.746	0.1055	257492	keystroke_c	c	n/a
128.911	0.1055	257822	keystroke_l	l	n/a
129.1815	0.0445	258363	keystroke_e	e	n/a
129.3615	0.075	258723	keystroke_Key.space	Key.space	n/a
129.4515	0.135	258903	keystroke_a	a	n/a
129.601	0.0755	259202	keystroke_t	t	n/a
129.7815	0.105	259563	keystroke_Key.enter	Key.enter	n/a
129.892	4.4205	259784	prompt	n/a	gaming kidney playlist lands\n
130.5315	0.0895	261063	keystroke_g	g	n/a
130.6965	0.045	261393	keystroke_a	a	n/a
130.7415	0.09	261483	keystroke_m	m	n/a
130.8765	0.1195	261753	keystroke_i	i	n/a
130.9815	0.105	261963	keystroke_n	n	n/a
131.011	0.1055	262022	keystroke_g	g	n/a
131.1015	0.12	262203	keystroke_Key.space	Key.space	n/a
131.2365	0.105	262473	keystroke_k	k	n/a
131.4765	0.135	262953	keystroke_i	i	n/a
131.611	0.0455	263222	keystroke_d	d	n/a
131.8215	0.06	263643	keystroke_n	n	n/a
131.9865	0.075	263973	keystroke_e	e	n/a
132.0765	0.075	264153	keystroke_y	y	n/a
132.1965	0.075	264393	keystroke_Key.space	Key.space	n/a
132.4065	0.045	264813	keystroke_p	p	n/a
132.5865	0.06	265173	keystroke_l	l	n/a
132.6015	0.091	265203	keystroke_a	a	n/a
132.827	0.044	265654	keystroke_y	y	n/a
132.9765	0.135	265953	keystroke_l	l	n/a
133.0665	0.15	266133	keystroke_i	i	n/a
133.2015	0.105	266403	keystroke_s	s	n/a
133.2925	0.089	266585	keystroke_t	t	n/a
133.3815	0.105	266763	keystroke_Key.space	Key.space	n/a
133.5315	0.12	267063	keystroke_l	l	n/a
133.6365	0.0895	267273	keystroke_a	a	n/a
133.742	0.1045	267484	keystroke_n	n	n/a
133.8615	0.1345	267723	keystroke_d	d	n/a
134.011	0.1055	268022	keystroke_s	s	n/a
134.221	0.09	268442	keystroke_Key.enter	Key.enter	n/a
134.316	5.9965	268632	prompt	n/a	heaven calvin skilled june\n
135.016	0.1355	270032	keystroke_h	h	n/a
135.0775	0.089	270155	keystroke_e	e	n/a
135.1815	0.135	270363	keystroke_a	a	n/a
135.3465	0.075	270693	keystroke_v	v	n/a
135.5865	0.075	271173	keystroke_e	e	n/a
135.7065	0.1195	271413	keystroke_n	n	n/a
135.811	0.121	271622	keystroke_Key.space	Key.space	n/a
136.006	0.12	272012	keystroke_c	c	n/a
136.112	0.1195	272224	keystroke_a	a	n/a
136.3365	0.1045	272673	keystroke_l	l	n/a
136.607	0.014	273214	keystroke_b	b	n/a
136.666	0.0905	273332	keystroke_i	i	n/a
136.712	0.0895	273424	keystroke_n	n	n/a
136.9065	0.075	273813	keystroke_Key.backspace	Key.backspace	n/a
137.0565	0.045	274113	keystroke_Key.backspace	Key.backspace	n/a
137.2065	0.075	274413	keystroke_Key.backspace	Key.backspace	n/a
137.477	0.0895	274954	keystroke_v	v	n/a
137.582	0.1045	275164	keystroke_i	i	n/a
137.8215	0.1045	275643	keystroke_n	n	n/a
138.0315	0.135	276063	keystroke_Key.space	Key.space	n/a
138.482	0.089	276964	keystroke_s	s	n/a
138.5865	0.045	277173	keystroke_k	k	n/a
138.7965	0.015	277593	keystroke_i	i	n/a
138.887	0.075	277774	keystroke_l	l	n/a
139.0365	0.1045	278073	keystroke_l	l	n/a
139.1565	0.075	278313	keystroke_e	e	n/a
139.337	0.0745	278674	keystroke_d	d	n/a
139.4265	0.075	278853	keystroke_Key.space	Key.space	n/a
139.5765	0.075	279153	keystroke_j	j	n/a
139.7265	0.1055	279453	keystroke_u	u	n/a
139.967	0.0745	279934	keystroke_n	n	n/a
140.117	0.0745	280234	keystroke_e	e	n/a
140.237	0.0745	280474	keystroke_Key.enter	Key.enter	n/a
140.316	11.847	280632	prompt	n/a	cloud conventions indices fears\n
141.1065	0.15	282213	keystroke_c	c	n/a
141.1965	0.09	282393	keystroke_l	l	n/a
141.362	0.1645	282724	keystroke_o	o	n/a
141.4515	0.09	282903	keystroke_u	u	n/a
141.557	0.0895	283114	keystroke_d	d	n/a
141.6325	0.1195	283265	keystroke_Key.space	Key.space	n/a
141.917	0.12	283834	keystroke_c	c	n/a
141.992	0.105	283984	keystroke_o	o	n/a
142.083	0.074	284166	keystroke_n	n	n/a
142.1415	0.0605	284283	keystroke_v	v	n/a
142.277	0.075	284554	keystroke_e	e	n/a
142.4265	0.1055	284853	keystroke_n	n	n/a
142.607	0.1045	285214	keystroke_t	t	n/a
142.757	0.2845	285514	keystroke_i	i	n/a
142.892	0.1645	285784	keystroke_o	o	n/a
142.9675	0.1495	285935	keystroke_n	n	n/a
143.0715	0.0905	286143	keystroke_s	s	n/a
143.177	0.1345	286354	keystroke_Key.space	Key.space	n/a
143.417	0.0155	286834	keystroke_l	l	n/a
143.7915	0.0455	287583	keystroke_Key.backspace	Key.backspace	n/a
144.122	0.1195	288244	keystroke_i	i	n/a
144.197	0.1345	288394	keystroke_n	n	n/a
144.257	0.15	288514	keystroke_c	c	n/a
144.422	0.0745	288844	keystroke_i	i	n/a
144.5115	0.1055	289023	keystroke_d	d	n/a
145.141	0.1055	290282	keystroke_c	c	n/a
145.3215	0.075	290643	keystroke_e	e	n/a
145.502	0.1045	291004	keystroke_s	s	n/a
145.6815	0.1055	291363	keystroke_Key.space	Key.space	n/a
145.892	0.1045	291784	keystroke_f	f	n/a
146.0715	0.105	292143	keystroke_e	e	n/a
146.7025	0.0745	293405	keystroke_Key.backspace	Key.backspace	n/a
146.8515	0.06	293703	keystroke_Key.backspace	Key.backspace	n/a
146.987	0.0745	293974	keystroke_Key.backspace	Key.backspace	n/a
147.1665	0.045	294333	keystroke_Key.backspace	Key.backspace	n/a
147.3165	0.045	294633	keystroke_Key.backspace	Key.backspace	n/a
147.587	0.0445	295174	keystroke_Key.backspace	Key.backspace	n/a
147.797	0.1045	295594	keystroke_Key.backspace	Key.backspace	n/a
148.0965	0.1055	296193	keystroke_c	c	n/a
148.2765	0.075	296553	keystroke_e	e	n/a
148.8765	0.075	297753	keystroke_Key.backspace	Key.backspace	n/a
149.026	0.0455	298052	keystroke_Key.backspace	Key.backspace	n/a
149.1765	0.045	298353	keystroke_Key.backspace	Key.backspace	n/a
149.641	0.0465	299282	keystroke_Key.backspace	Key.backspace	n/a
149.7615	0.105	299523	keystroke_d	d	n/a
149.8815	0.105	299763	keystroke_i	i	n/a
150.0315	0.105	300063	keystroke_c	c	n/a
150.211	0.0455	300422	keystroke_e	e	n/a
150.4515	0.0745	300903	keystroke_s	s	n/a
151.0515	0.105	302103	keystroke_Key.space	Key.space	n/a
151.2315	0.1795	302463	keystroke_f	f	n/a
151.457	0.1345	302914	keystroke_e	e	n/a
151.6065	0.15	303213	keystroke_a	a	n/a
151.6815	0.12	303363	keystroke_r	r	n/a
151.9065	0.1045	303813	keystroke_s	s	n/a
152.0865	0.075	304173	keystroke_Key.enter	Key.enter	n/a
152.166	13.587	304332	prompt	n/a	environment faqs josh bless\n
160.3065	0.0745	320613	keystroke_e	e	n/a
160.426	0.015	320852	keystroke_n	n	n/a
160.4865	0.105	320973	keystroke_v	v	n/a
160.5765	0.09	321153	keystroke_i	i	n/a
161.1915	0.105	322383	keystroke_r	r	n/a
161.311	0.1205	322622	keystroke_o	o	n/a
161.3865	0.09	322773	keystroke_n	n	n/a
161.5815	0.0745	323163	keystroke_m	m	n/a
161.671	0.1055	323342	keystroke_e	e	n/a
161.7915	0.075	323583	keystroke_n	n	n/a
161.8815	0.09	323763	keystroke_t	t	n/a
161.9565	0.0905	323913	keystroke_Key.space	Key.space	n/a
162.181	0.075	324362	keystroke_f	f	n/a
162.3615	0.1055	324723	keystroke_a	a	n/a
162.8715	0.105	325743	keystroke_q	q	n/a
163.562	0.105	327124	keystroke_s	s	n/a
163.9515	0.165	327903	keystroke_Key.space	Key.space	n/a
164.3715	0.105	328743	keystroke_j	j	n/a
164.4915	0.1195	328983	keystroke_o	o	n/a
164.597	0.0895	329194	keystroke_s	s	n/a
164.7015	0.135	329403	keystroke_h	h	n/a
164.8215	0.1195	329643	keystroke_Key.space	Key.space	n/a
164.9565	0.076	329913	keystroke_b	b	n/a
165.0765	0.106	330153	keystroke_l	l	n/a
165.2265	0.075	330453	keystroke_e	e	n/a
165.4065	0.076	330813	keystroke_s	s	n/a
165.557	0.1345	331114	keystroke_s	s	n/a
165.7065	0.045	331413	keystroke_Key.enter	Key.enter	n/a
165.7565	5.832	331513	prompt	n/a	shoes cottage cassette applies\n
166.4115	0.0605	332823	keystroke_s	s	n/a
166.487	0.12	332974	keystroke_h	h	n/a
166.592	0.105	333184	keystroke_o	o	n/a
166.682	0.089	333364	keystroke_e	e	n/a
166.847	0.1205	333694	keystroke_s	s	n/a
167.0115	0.12	334023	keystroke_Key.space	Key.space	n/a
167.177	0.1345	334354	keystroke_c	c	n/a
167.4465	0.075	334893	keystroke_o	o	n/a
167.5665	0.075	335133	keystroke_t	t	n/a
167.717	0.105	335434	keystroke_t	t	n/a
167.867	0.18	335734	keystroke_a	a	n/a
168.032	0.0895	336064	keystroke_g	g	n/a
168.2115	0.075	336423	keystroke_e	e	n/a
168.332	0.135	336664	keystroke_Key.space	Key.space	n/a
168.467	0.105	336934	keystroke_c	c	n/a
168.587	0.135	337174	keystroke_a	a	n/a
168.767	0.09	337534	keystroke_s	s	n/a
168.932	0.105	337864	keystroke_s	s	n/a
169.082	0.12	338164	keystroke_e	e	n/a
169.262	0.075	338524	keystroke_t	t	n/a
169.4115	0.091	338823	keystroke_t	t	n/a
169.532	0.12	339064	keystroke_e	e	n/a
169.7415	0.1205	339483	keystroke_Key.space	Key.space	n/a
170.447	0.105	340894	keystroke_a	a	n/a
170.6265	0.0755	341253	keystroke_p	p	n/a
170.777	0.105	341554	keystroke_p	p	n/a
170.9875	0.15	341975	keystroke_l	l	n/a
171.062	0.1345	342124	keystroke_i	i	n/a
171.2115	0.0755	342423	keystroke_e	e	n/a
171.3615	0.1055	342723	keystroke_s	s	n/a
171.482	0.105	342964	keystroke_Key.enter	Key.enter	n/a
171.5925	6.176	343185	prompt	n/a	makeup animated planner wagon\n
172.247	0.135	344494	keystroke_m	m	n/a
172.337	0.12	344674	keystroke_a	a	n/a
172.472	0.075	344944	keystroke_k	k	n/a
172.562	0.075	345124	keystroke_e	e	n/a
172.787	0.105	345574	keystroke_f	f	n/a
173.387	0.09	346774	keystroke_Key.backspace	Key.backspace	n/a
173.687	0.0895	347374	keystroke_u	u	n/a
173.7615	0.0905	347523	keystroke_p	p	n/a
174.077	0.105	348154	keystroke_Key.space	Key.space	n/a
174.467	0.0745	348934	keystroke_a	a	n/a
174.557	0.09	349114	keystroke_n	n	n/a
174.647	0.135	349294	keystroke_i	i	n/a
174.797	0.12	349594	keystroke_m	m	n/a
174.902	0.195	349804	keystroke_a	a	n/a
174.992	0.1495	349984	keystroke_t	t	n/a
175.1115	0.1055	350223	keystroke_e	e	n/a
175.307	0.18	350614	keystroke_d	d	n/a
175.502	0.045	351004	keystroke_Key.space	Key.space	n/a
175.592	0.045	351184	keystroke_p	p	n/a
175.772	0.06	351544	keystroke_l	l	n/a
175.817	0.0915	351634	keystroke_a	a	n/a
175.9515	0.06	351903	keystroke_n	n	n/a
176.072	0.136	352144	keystroke_n	n	n/a
176.222	0.1345	352444	keystroke_e	e	n/a
176.3415	0.1205	352683	keystroke_r	r	n/a
176.477	0.1345	352954	keystroke_Key.space	Key.space	n/a
176.627	0.09	353254	keystroke_w	w	n/a
176.807	0.105	353614	keystroke_a	a	n/a
177.032	0.075	354064	keystroke_g	g	n/a
177.182	0.135	354364	keystroke_o	o	n/a
177.332	0.135	354664	keystroke_n	n	n/a
177.6935	0.0735	355387	keystroke_Key.enter	Key.enter	n/a
177.772	5.381	355544	prompt	n/a	nursing acquired mountain credits\n
178.577	0.06	357154	keystroke_n	n	n/a
178.742	0.075	357484	keystroke_u	u	n/a
178.862	0.0445	357724	keystroke_r	r	n/a
179.0115	0.1055	358023	keystroke_s	s	n/a
179.162	0.1495	358324	keystroke_i	i	n/a
179.267	0.1205	358534	keystroke_n	n	n/a
179.3875	0.0745	358775	keystroke_g	g	n/a
179.447	0.12	358894	keystroke_Key.space	Key.space	n/a
179.642	0.135	359284	keystroke_a	a	n/a
179.852	0.12	359704	keystroke_c	c	n/a
180.002	0.09	360004	keystroke_q	q	n/a
180.137	0.135	360274	keystroke_u	u	n/a
180.257	0.09	360514	keystroke_i	i	n/a
180.362	0.09	360724	keystroke_r	r	n/a
180.542	0.075	361084	keystroke_e	e	n/a
180.722	0.1055	361444	keystroke_d	d	n/a
180.8275	0.1045	361655	keystroke_Key.space	Key.space	n/a
180.9625	0.0895	361925	keystroke_m	m	n/a
181.097	0.1655	362194	keystroke_o	o	n/a
181.187	0.0905	362374	keystroke_u	u	n/a
181.352	0.1195	362704	keystroke_n	n	n/a
181.457	0.106	362914	keystroke_t	t	n/a
181.637	0.075	363274	keystroke_a	a	n/a
181.727	0.135	363454	keystroke_i	i	n/a
181.772	0.15	363544	keystroke_n	n	n/a
181.877	0.135	363754	keystroke_Key.space	Key.space	n/a
181.967	0.12	363934	keystroke_c	c	n/a
182.1925	0.12	364385	keystroke_r	r	n/a
182.282	0.105	364564	keystroke_e	e	n/a
182.507	0.0755	365014	keystroke_d	d	n/a
182.627	0.09	365254	keystroke_i	i	n/a
182.762	0.0755	365524	keystroke_t	t	n/a
182.987	0.09	365974	keystroke_s	s	n/a
183.062	0.09	366124	keystroke_Key.enter	Key.enter	n/a
183.156	10.9775	366312	prompt	n/a	reads toner conclusion cordless\n
185.012	0.12	370024	keystroke_r	r	n/a
185.1175	0.105	370235	keystroke_e	e	n/a
185.282	0.1355	370564	keystroke_a	a	n/a
185.3575	0.12	370715	keystroke_d	d	n/a
185.5225	0.1045	371045	keystroke_Key.space	Key.space	n/a
186.1225	0.075	372245	keystroke_Key.backspace	Key.backspace	n/a
186.6625	0.06	373325	keystroke_s	s	n/a
186.812	0.1055	373624	keystroke_Key.space	Key.space	n/a
186.9625	0.06	373925	keystroke_t	t	n/a
187.0375	0.0745	374075	keystroke_o	o	n/a
187.1875	0.105	374375	keystroke_n	n	n/a
187.2775	0.1495	374555	keystroke_e	e	n/a
187.3675	0.105	374735	keystroke_r	r	n/a
187.4875	0.105	374975	keystroke_Key.space	Key.space	n/a
187.6075	0.15	375215	keystroke_c	c	n/a
187.712	0.0905	375424	keystroke_o	o	n/a
187.8925	0.075	375785	keystroke_n	n	n/a
187.9825	0.135	375965	keystroke_c	c	n/a
188.133	0.1195	376266	keystroke_l	l	n/a
188.1775	0.105	376355	keystroke_u	u	n/a
188.312	0.0755	376624	keystroke_s	s	n/a
188.4325	0.225	376865	keystroke_i	i	n/a
188.5375	0.135	377075	keystroke_o	o	n/a
188.642	0.1055	377284	keystroke_n	n	n/a
188.7475	0.12	377495	keystroke_Key.space	Key.space	n/a
192.3925	0.105	384785	keystroke_c	c	n/a
192.483	0.09	384966	keystroke_o	o	n/a
192.588	0.0745	385176	keystroke_r	r	n/a
192.888	0.0895	385776	keystroke_d	d	n/a
193.1125	0.0755	386225	keystroke_l	l	n/a
193.233	0.0745	386466	keystroke_e	e	n/a
193.788	0.075	387576	keystroke_s	s	n/a
193.968	0.09	387936	keystroke_s	s	n/a
194.0425	0.09	388085	keystroke_Key.enter	Key.enter	n/a
194.1365	8.0975	388273	prompt	n/a	letter mice identifier reservations\n
194.853	0.12	389706	keystroke_l	l	n/a
194.9885	0.059	389977	keystroke_e	e	n/a
195.123	0.0745	390246	keystroke_t	t	n/a
195.2725	0.105	390545	keystroke_t	t	n/a
195.453	0.0895	390906	keystroke_e	e	n/a
195.4975	0.105	390995	keystroke_r	r	n/a
195.573	0.15	391146	keystroke_Key.space	Key.space	n/a
195.783	0.1495	391566	keystroke_m	m	n/a
195.8875	0.1055	391775	keystroke_i	i	n/a
196.0375	0.1355	392075	keystroke_c	c	n/a
196.1275	0.1055	392255	keystroke_e	e	n/a
196.218	0.075	392436	keystroke_Key.space	Key.space	n/a
198.3625	0.0465	396725	keystroke_i	i	n/a
198.483	0.09	396966	keystroke_d	d	n/a
198.6325	0.1205	397265	keystroke_e	e	n/a
198.7375	0.105	397475	keystroke_n	n	n/a
198.858	0.105	397716	keystroke_t	t	n/a
198.948	0.06	397896	keystroke_i	i	n/a
199.053	0.106	398106	keystroke_f	f	n/a
199.173	0.045	398346	keystroke_i	i	n/a
199.653	0.12	399306	keystroke_e	e	n/a
199.758	0.09	399516	keystroke_r	r	n/a
200.0725	0.1355	400145	keystroke_Key.space	Key.space	n/a
200.493	0.09	400986	keystroke_r	r	n/a
200.538	0.06	401076	keystroke_e	e	n/a
200.6725	0.121	401345	keystroke_s	s	n/a
200.7785	0.1045	401557	keystroke_e	e	n/a
200.838	0.06	401676	keystroke_r	r	n/a
201.003	0.105	402006	keystroke_v	v	n/a
201.2275	0.1355	402455	keystroke_a	a	n/a
201.3785	0.1045	402757	keystroke_t	t	n/a
201.588	0.18	403176	keystroke_i	i	n/a
201.663	0.195	403326	keystroke_o	o	n/a
201.8125	0.12	403625	keystroke_n	n	n/a
201.978	0.105	403956	keystroke_s	s	n/a
202.128	0.105	404256	keystroke_Key.enter	Key.enter	n/a
202.2365	6.5975	404473	prompt	n/a	adaptive polar final atmosphere\n
202.938	0.0745	405876	keystroke_a	a	n/a
203.358	0.075	406716	keystroke_d	d	n/a
203.448	0.135	406896	keystroke_a	a	n/a
203.598	0.075	407196	keystroke_p	p	n/a
203.823	0.06	407646	keystroke_t	t	n/a
203.9125	0.1205	407825	keystroke_i	i	n/a
204.048	0.135	408096	keystroke_v	v	n/a
204.168	0.15	408336	keystroke_e	e	n/a
204.363	0.1345	408726	keystroke_Key.space	Key.space	n/a
205.038	0.1045	410076	keystroke_p	p	n/a
205.218	0.09	410436	keystroke_o	o	n/a
205.4135	0.1045	410827	keystroke_l	l	n/a
205.503	0.12	411006	keystroke_a	a	n/a
205.578	0.105	411156	keystroke_r	r	n/a
205.668	0.135	411336	keystroke_Key.space	Key.space	n/a
205.818	0.12	411636	keystroke_f	f	n/a
205.923	0.1195	411846	keystroke_i	i	n/a
206.118	0.1645	412236	keystroke_n	n	n/a
206.298	0.1045	412596	keystroke_a	a	n/a
206.433	0.15	412866	keystroke_l	l	n/a
206.5685	0.18	413137	keystroke_Key.space	Key.space	n/a
206.763	0.0155	413526	keystroke_a	a	n/a
207.153	0.0745	414306	keystroke_t	t	n/a
207.333	0.12	414666	keystroke_m	m	n/a
207.438	0.1045	414876	keystroke_o	o	n/a
207.513	0.0905	415026	keystroke_s	s	n/a
208.068	0.1505	416136	keystroke_p	p	n/a
208.1735	0.1495	416347	keystroke_h	h	n/a
208.3375	0.0905	416675	keystroke_e	e	n/a
208.4585	0.1345	416917	keystroke_r	r	n/a
208.5335	0.1195	417067	keystroke_e	e	n/a
208.758	0.075	417516	keystroke_Key.enter	Key.enter	n/a
208.8385	7.121	417677	prompt	n/a	configurations crack treo copyrights\n
209.478	0.12	418956	keystroke_c	c	n/a
209.613	0.1205	419226	keystroke_o	o	n/a
209.688	0.09	419376	keystroke_n	n	n/a
209.748	0.09	419496	keystroke_f	f	n/a
209.8385	0.1345	419677	keystroke_i	i	n/a
209.958	0.076	419916	keystroke_g	g	n/a
210.0485	0.0745	420097	keystroke_u	u	n/a
210.138	0.135	420276	keystroke_r	r	n/a
210.288	0.1505	420576	keystroke_a	a	n/a
210.3935	0.105	420787	keystroke_t	t	n/a
210.483	0.24	420966	keystroke_i	i	n/a
210.603	0.1355	421206	keystroke_o	o	n/a
210.678	0.135	421356	keystroke_n	n	n/a
210.7835	0.0745	421567	keystroke_s	s	n/a
210.8735	0.1495	421747	keystroke_Key.space	Key.space	n/a
211.0085	0.1195	422017	keystroke_c	c	n/a
211.203	0.105	422406	keystroke_r	r	n/a
211.3235	0.1645	422647	keystroke_a	a	n/a
211.728	0.1055	423456	keystroke_x	x	n/a
211.908	0.105	423816	keystroke_k	k	n/a
212.2985	0.0445	424597	keystroke_Key.backspace	Key.backspace	n/a
212.419	0.074	424838	keystroke_Key.backspace	Key.backspace	n/a
212.5235	0.15	425047	keystroke_c	c	n/a
212.6735	0.1345	425347	keystroke_k	k	n/a
212.7935	0.1495	425587	keystroke_Key.space	Key.space	n/a
213.3635	0.06	426727	keystroke_t	t	n/a
213.513	0.1355	427026	keystroke_r	r	n/a
213.6635	0.12	427327	keystroke_e	e	n/a
213.9935	0.1345	427987	keystroke_o	o	n/a
214.143	0.1055	428286	keystroke_Key.space	Key.space	n/a
214.3235	0.135	428647	keystroke_c	c	n/a
214.4735	0.135	428947	keystroke_o	o	n/a
214.5935	0.1345	429187	keystroke_p	p	n/a
214.758	0.0905	429516	keystroke_y	y	n/a
215.1785	0.06	430357	keystroke_r	r	n/a
215.2235	0.0895	430447	keystroke_i	i	n/a
215.313	0.0905	430626	keystroke_g	g	n/a
215.4185	0.12	430837	keystroke_h	h	n/a
215.5235	0.075	431047	keystroke_t	t	n/a
215.7335	0.12	431467	keystroke_s	s	n/a
215.8685	0.09	431737	keystroke_Key.enter	Key.enter	n/a
215.9625	5.6665	431925	prompt	n/a	duck glossary break pleasant\n
216.648	0.0755	433296	keystroke_d	d	n/a
216.7085	0.1045	433417	keystroke_u	u	n/a
216.843	0.1505	433686	keystroke_c	c	n/a
216.979	0.164	433958	keystroke_k	k	n/a
217.128	0.1205	434256	keystroke_Key.space	Key.space	n/a
217.4735	0.075	434947	keystroke_g	g	n/a
217.5635	0.075	435127	keystroke_l	l	n/a
217.713	0.075	435426	keystroke_o	o	n/a
217.803	0.0905	435606	keystroke_s	s	n/a
217.9685	0.12	435937	keystroke_s	s	n/a
218.1035	0.167	436207	keystroke_a	a	n/a
218.2535	0.0595	436507	keystroke_r	r	n/a
218.3585	0.09	436717	keystroke_y	y	n/a
218.4635	0.1195	436927	keystroke_Key.space	Key.space	n/a
218.568	0.06	437136	keystroke_b	b	n/a
218.7635	0.1645	437527	keystroke_r	r	n/a
218.8985	0.135	437797	keystroke_e	e	n/a
219.0785	0.1345	438157	keystroke_a	a	n/a
219.228	0.1355	438456	keystroke_k	k	n/a
219.3635	0.135	438727	keystroke_Key.space	Key.space	n/a
219.9335	0.135	439867	keystroke_p	p	n/a
220.128	0.0905	440256	keystroke_l	l	n/a
220.2035	0.12	440407	keystroke_e	e	n/a
220.7885	0.105	441577	keystroke_a	a	n/a
221.013	0.0905	442026	keystroke_s	s	n/a
221.2085	0.1045	442417	keystroke_a	a	n/a
221.328	0.0905	442656	keystroke_n	n	n/a
221.4335	0.075	442867	keystroke_t	t	n/a
221.5385	0.0895	443077	keystroke_Key.enter	Key.enter	n/a
221.632	7.8875	443264	prompt	n/a	dvds seeking shouldn't've maker\n
223.893	0.0755	447786	keystroke_d	d	n/a
224.043	0.1205	448086	keystroke_v	v	n/a
224.1485	0.075	448297	keystroke_d	d	n/a
224.5685	0.0595	449137	keystroke_s	s	n/a
224.6885	0.135	449377	keystroke_Key.space	Key.space	n/a
224.973	0.0605	449946	keystroke_s	s	n/a
225.1085	0.1045	450217	keystroke_e	e	n/a
225.2885	0.075	450577	keystroke_e	e	n/a
225.4535	0.0745	450907	keystroke_k	k	n/a
225.618	0.1355	451236	keystroke_i	i	n/a
225.679	0.134	451358	keystroke_n	n	n/a
225.7685	0.09	451537	keystroke_g	g	n/a
225.8735	0.1055	451747	keystroke_Key.space	Key.space	n/a
225.9935	0.1195	451987	keystroke_s	s	n/a
226.0685	0.09	452137	keystroke_h	h	n/a
226.1735	0.12	452347	keystroke_o	o	n/a
226.263	0.15	452526	keystroke_u	u	n/a
226.3985	0.135	452797	keystroke_l	l	n/a
226.4885	0.09	452977	keystroke_d	d	n/a
226.6235	0.0895	453247	keystroke_n	n	n/a
226.8035	0.1045	453607	keystroke_'	'	n/a
226.9535	0.0745	453907	keystroke_t	t	n/a
227.1785	0.105	454357	keystroke_'	'	n/a
227.2985	0.15	454597	keystroke_v	v	n/a
227.4635	0.0595	454927	keystroke_e	e	n/a
227.9585	0.1055	455917	keystroke_Key.space	Key.space	n/a
228.468	0.1055	456936	keystroke_m	m	n/a
228.543	0.0755	457086	keystroke_a	a	n/a
228.8885	0.09	457777	keystroke_k	k	n/a
228.9935	0.21	457987	keystroke_e	e	n/a
229.2185	0.135	458437	keystroke_r	r	n/a
229.428	0.0905	458856	keystroke_Key.enter	Key.enter	n/a
229.5225	5.217	459045	prompt	n/a	zope chicago process conduct\n
230.313	0.0905	460626	keystroke_z	z	n/a
230.449	0.1505	460898	keystroke_o	o	n/a
230.5535	0.15	461107	keystroke_p	p	n/a
230.718	0.0755	461436	keystroke_e	e	n/a
230.8385	0.135	461677	keystroke_Key.space	Key.space	n/a
231.1385	0.045	462277	keystroke_c	c	n/a
231.1535	0.105	462307	keystroke_h	h	n/a
231.243	0.135	462486	keystroke_i	i	n/a
231.5735	0.12	463147	keystroke_c	c	n/a
231.6785	0.105	463357	keystroke_a	a	n/a
231.8735	0.075	463747	keystroke_g	g	n/a
231.9935	0.105	463987	keystroke_o	o	n/a
232.143	0.1205	464286	keystroke_Key.space	Key.space	n/a
232.3985	0.09	464797	keystroke_p	p	n/a
232.8035	0.1045	465607	keystroke_r	r	n/a
232.9385	0.045	465877	keystroke_o	o	n/a
233.028	0.1505	466056	keystroke_c	c	n/a
233.1185	0.105	466237	keystroke_e	e	n/a
233.298	0.09	466596	keystroke_s	s	n/a
233.4785	0.106	466957	keystroke_s	s	n/a
233.5685	0.12	467137	keystroke_Key.space	Key.space	n/a
233.6885	0.12	467377	keystroke_c	c	n/a
233.7785	0.12	467557	keystroke_o	o	n/a
233.8685	0.0745	467737	keystroke_n	n	n/a
233.943	0.1055	467886	keystroke_d	d	n/a
234.0935	0.105	468187	keystroke_u	u	n/a
234.243	0.1205	468486	keystroke_c	c	n/a
234.454	0.104	468908	keystroke_t	t	n/a
234.6335	0.105	469267	keystroke_Key.enter	Key.enter	n/a
234.743	8.5015	469486	prompt	n/a	widespread authentic built casino\n
235.6235	0.075	471247	keystroke_w	w	n/a
235.743	0.105	471486	keystroke_i	i	n/a
236.313	0.0755	472626	keystroke_d	d	n/a
236.4635	0.075	472927	keystroke_e	e	n/a
236.704	0.0895	473408	keystroke_s	s	n/a
236.8085	0.105	473617	keystroke_p	p	n/a
236.9285	0.15	473857	keystroke_r	r	n/a
237.004	0.1195	474008	keystroke_e	e	n/a
237.1985	0.12	474397	keystroke_a	a	n/a
237.274	0.1195	474548	keystroke_d	d	n/a
237.4685	0.135	474937	keystroke_Key.space	Key.space	n/a
237.6485	0.0905	475297	keystroke_a	a	n/a
237.724	0.0445	475448	keystroke_u	u	n/a
237.8735	0.0605	475747	keystroke_t	t	n/a
237.8895	0.0895	475779	keystroke_h	h	n/a
238.0535	0.105	476107	keystroke_e	e	n/a
238.1285	0.12	476257	keystroke_n	n	n/a
238.2635	0.09	476527	keystroke_t	t	n/a
238.3685	0.105	476737	keystroke_i	i	n/a
238.5335	0.12	477067	keystroke_c	c	n/a
238.7135	0.1505	477427	keystroke_Key.space	Key.space	n/a
239.0285	0.075	478057	keystroke_b	b	n/a
239.1185	0.03	478237	keystroke_i	i	n/a
239.5235	0.075	479047	keystroke_Key.backspace	Key.backspace	n/a
239.734	0.1345	479468	keystroke_u	u	n/a
239.913	0.121	479826	keystroke_i	i	n/a
240.0035	0.15	480007	keystroke_l	l	n/a
240.1835	0.09	480367	keystroke_t	t	n/a
240.3485	0.15	480697	keystroke_Key.space	Key.space	n/a
240.513	0.1655	481026	keystroke_c	c	n/a
240.724	0.119	481448	keystroke_a	a	n/a
241.0385	0.136	482077	keystroke_i	i	n/a
241.4735	0.06	482947	keystroke_Key.backspace	Key.backspace	n/a
241.5185	0.1045	483037	keystroke_s	s	n/a
241.7585	0.06	483517	keystroke_u	u	n/a
242.1185	0.06	484237	keystroke_Key.backspace	Key.backspace	n/a
242.313	0.0905	484626	keystroke_i	i	n/a
242.4785	0.1805	484957	keystroke_n	n	n/a
242.674	0.0745	485348	keystroke_o	o	n/a
243.1535	0.0895	486307	keystroke_Key.enter	Key.enter	n/a
243.2475	4.872	486495	prompt	n/a	thing snap raised concentration\n
243.919	0.0745	487838	keystroke_t	t	n/a
243.9785	0.075	487957	keystroke_h	h	n/a
244.0985	0.15	488197	keystroke_i	i	n/a
244.173	0.136	488346	keystroke_n	n	n/a
244.2635	0.09	488527	keystroke_g	g	n/a
244.3685	0.105	488737	keystroke_Key.space	Key.space	n/a
244.5185	0.12	489037	keystroke_s	s	n/a
244.5935	0.105	489187	keystroke_n	n	n/a
244.7435	0.12	489487	keystroke_a	a	n/a
244.864	0.1195	489728	keystroke_p	p	n/a
244.9685	0.135	489937	keystroke_Key.space	Key.space	n/a
245.1035	0.105	490207	keystroke_r	r	n/a
245.2535	0.1355	490507	keystroke_a	a	n/a
245.4035	0.075	490807	keystroke_i	i	n/a
245.494	0.1495	490988	keystroke_s	s	n/a
245.6135	0.075	491227	keystroke_e	e	n/a
245.8235	0.075	491647	keystroke_d	d	n/a
245.928	0.1055	491856	keystroke_Key.space	Key.space	n/a
246.049	0.1195	492098	keystroke_c	c	n/a
246.1535	0.0745	492307	keystroke_o	o	n/a
246.2135	0.09	492427	keystroke_n	n	n/a
246.3185	0.18	492637	keystroke_c	c	n/a
246.7085	0.09	493417	keystroke_e	e	n/a
246.8735	0.0755	493747	keystroke_n	n	n/a
246.9635	0.075	493927	keystroke_t	t	n/a
247.1135	0.105	494227	keystroke_r	r	n/a
247.2935	0.0745	494587	keystroke_a	a	n/a
247.5185	0.09	495037	keystroke_t	t	n/a
247.6535	0.15	495307	keystroke_i	i	n/a
247.7435	0.195	495487	keystroke_o	o	n/a
247.8485	0.105	495697	keystroke_n	n	n/a
248.0285	0.09	496057	keystroke_Key.enter	Key.enter	n/a
248.123	10.8115	496246	prompt	n/a	anybody casting hundred recall\n
249.5135	0.075	499027	keystroke_a	a	n/a
249.664	0.0745	499328	keystroke_n	n	n/a
249.8885	0.0445	499777	keystroke_y	y	n/a
250.189	0.1195	500378	keystroke_b	b	n/a
250.3235	0.075	500647	keystroke_o	o	n/a
250.443	0.0755	500886	keystroke_d	d	n/a
250.534	0.1045	501068	keystroke_y	y	n/a
250.6535	0.1055	501307	keystroke_Key.space	Key.space	n/a
250.894	0.105	501788	keystroke_c	c	n/a
251.0435	0.1205	502087	keystroke_a	a	n/a
251.119	0.0895	502238	keystroke_s	s	n/a
251.2835	0.105	502567	keystroke_t	t	n/a
251.404	0.12	502808	keystroke_i	i	n/a
251.509	0.1195	503018	keystroke_n	n	n/a
251.584	0.105	503168	keystroke_g	g	n/a
251.704	0.045	503408	keystroke_Key.space	Key.space	n/a
255.6785	0.0755	511357	keystroke_h	h	n/a
255.9935	0.0455	511987	keystroke_n	n	n/a
256.384	0.075	512768	keystroke_Key.backspace	Key.backspace	n/a
256.639	0.06	513278	keystroke_u	u	n/a
256.819	0.09	513638	keystroke_n	n	n/a
256.894	0.0895	513788	keystroke_d	d	n/a
257.059	0.12	514118	keystroke_r	r	n/a
257.104	0.12	514208	keystroke_e	e	n/a
257.3285	0.105	514657	keystroke_d	d	n/a
257.479	0.06	514958	keystroke_Key.space	Key.space	n/a
257.854	0.105	515708	keystroke_r	r	n/a
257.9285	0.1055	515857	keystroke_e	e	n/a
258.109	0.1195	516218	keystroke_c	c	n/a
258.2735	0.1055	516547	keystroke_a	a	n/a
258.454	0.045	516908	keystroke_l	l	n/a
258.604	0.09	517208	keystroke_l	l	n/a
258.8885	0.045	517777	keystroke_Key.enter	Key.enter	n/a
258.9385	5.937	517877	prompt	n/a	operated harold securely floating\n
259.624	0.135	519248	keystroke_o	o	n/a
259.7435	0.1505	519487	keystroke_p	p	n/a
259.879	0.195	519758	keystroke_e	e	n/a
260.0285	0.135	520057	keystroke_r	r	n/a
260.089	0.21	520178	keystroke_a	a	n/a
260.224	0.165	520448	keystroke_t	t	n/a
260.374	0.12	520748	keystroke_e	e	n/a
260.569	0.105	521138	keystroke_d	d	n/a
260.689	0.1345	521378	keystroke_Key.space	Key.space	n/a
261.004	0.09	522008	keystroke_h	h	n/a
261.124	0.1195	522248	keystroke_a	a	n/a
261.2135	0.0905	522427	keystroke_r	r	n/a
261.484	0.09	522968	keystroke_o	o	n/a
261.649	0.135	523298	keystroke_l	l	n/a
261.724	0.0895	523448	keystroke_d	d	n/a
261.8285	0.1355	523657	keystroke_Key.space	Key.space	n/a
262.009	0.06	524018	keystroke_s	s	n/a
262.1435	0.0755	524287	keystroke_e	e	n/a
262.294	0.105	524588	keystroke_c	c	n/a
262.4135	0.0755	524827	keystroke_u	u	n/a
262.534	0.135	525068	keystroke_r	r	n/a
262.639	0.0895	525278	keystroke_e	e	n/a
262.7435	0.1805	525487	keystroke_l	l	n/a
262.909	0.1195	525818	keystroke_y	y	n/a
263.104	0.09	526208	keystroke_Key.space	Key.space	n/a
263.689	0.12	527378	keystroke_f	f	n/a
263.824	0.1045	527648	keystroke_l	l	n/a
264.0035	0.09	528007	keystroke_o	o	n/a
264.049	0.1645	528098	keystroke_a	a	n/a
264.199	0.09	528398	keystroke_t	t	n/a
264.364	0.1495	528728	keystroke_i	i	n/a
264.439	0.1345	528878	keystroke_n	n	n/a
264.559	0.0895	529118	keystroke_g	g	n/a
264.769	0.1045	529538	keystroke_Key.enter	Key.enter	n/a
264.8785	9.2655	529757	prompt	n/a	sized heavily perry knowledgestorm\n
265.519	0.075	531038	keystroke_s	s	n/a
265.669	0.1345	531338	keystroke_i	i	n/a
265.834	0.1495	531668	keystroke_z	z	n/a
266.0285	0.09	532057	keystroke_e	e	n/a
266.224	0.1045	532448	keystroke_d	d	n/a
266.3435	0.0755	532687	keystroke_Key.space	Key.space	n/a
266.479	0.1045	532958	keystroke_h	h	n/a
266.554	0.0895	533108	keystroke_e	e	n/a
266.689	0.135	533378	keystroke_a	a	n/a
266.839	0.1205	533678	keystroke_v	v	n/a
267.034	0.105	534068	keystroke_i	i	n/a
267.7985	0.015	535597	keystroke_l	l	n/a
267.8435	0.1055	535687	keystroke_y	y	n/a
268.039	0.135	536078	keystroke_Key.space	Key.space	n/a
268.4285	0.075	536857	keystroke_p	p	n/a
268.549	0.105	537098	keystroke_e	e	n/a
268.654	0.0745	537308	keystroke_r	r	n/a
268.804	0.1195	537608	keystroke_r	r	n/a
268.9085	0.12	537817	keystroke_y	y	n/a
269.044	0.0295	538088	keystroke_Key.space	Key.space	n/a
269.299	0.2695	538598	keystroke_k	k	n/a
269.419	0.1345	538838	keystroke_n	n	n/a
269.494	0.1495	538988	keystroke_o	o	n/a
270.904	0.0145	541808	keystroke_w	w	n/a
271.7435	0.105	543487	keystroke_l	l	n/a
271.8035	0.09	543607	keystroke_e	e	n/a
272.0285	0.09	544057	keystroke_d	d	n/a
272.524	0.1495	545048	keystroke_g	g	n/a
272.659	0.0595	545318	keystroke_e	e	n/a
273.3935	0.06	546787	keystroke_s	s	n/a
273.514	0.0895	547028	keystroke_t	t	n/a
273.6485	0.1355	547297	keystroke_o	o	n/a
273.769	0.0895	547538	keystroke_r	r	n/a
273.8885	0.105	547777	keystroke_m	m	n/a
274.0685	0.075	548137	keystroke_Key.enter	Key.enter	n/a
274.147	4.108	548294	prompt	n/a	subject acquire auto intl\n
274.7735	0.0755	549547	keystroke_s	s	n/a
274.8785	0.1055	549757	keystroke_u	u	n/a
274.9995	0.0745	549999	keystroke_b	b	n/a
275.119	0.105	550238	keystroke_j	j	n/a
275.239	0.135	550478	keystroke_e	e	n/a
275.389	0.045	550778	keystroke_c	c	n/a
275.5385	0.075	551077	keystroke_t	t	n/a
275.689	0.075	551378	keystroke_Key.space	Key.space	n/a
275.779	0.12	551558	keystroke_a	a	n/a
275.9435	0.1055	551887	keystroke_c	c	n/a
276.094	0.1195	552188	keystroke_q	q	n/a
276.2285	0.1355	552457	keystroke_u	u	n/a
276.319	0.09	552638	keystroke_i	i	n/a
276.5285	0.1205	553057	keystroke_r	r	n/a
276.619	0.1045	553238	keystroke_e	e	n/a
276.7985	0.105	553597	keystroke_Key.space	Key.space	n/a
276.919	0.1045	553838	keystroke_a	a	n/a
277.039	0.0745	554078	keystroke_u	u	n/a
277.219	0.06	554438	keystroke_t	t	n/a
277.264	0.12	554528	keystroke_o	o	n/a
277.399	0.105	554798	keystroke_Key.space	Key.space	n/a
277.579	0.1345	555158	keystroke_i	i	n/a
277.7135	0.1355	555427	keystroke_n	n	n/a
277.8635	0.0755	555727	keystroke_t	t	n/a
277.954	0.0895	555908	keystroke_l	l	n/a
278.149	0.105	556298	keystroke_Key.enter	Key.enter	n/a
278.258	5.4715	556516	prompt	n/a	eyes supplied johnston hear\n
278.9285	0.075	557857	keystroke_e	e	n/a
279.079	0.09	558158	keystroke_y	y	n/a
279.154	0.0895	558308	keystroke_e	e	n/a
279.3785	0.0605	558757	keystroke_s	s	n/a
279.5435	0.15	559087	keystroke_Key.space	Key.space	n/a
279.739	0.1045	559478	keystroke_s	s	n/a
279.859	0.09	559718	keystroke_u	u	n/a
279.934	0.105	559868	keystroke_p	p	n/a
280.1435	0.105	560287	keystroke_p	p	n/a
280.384	0.2395	560768	keystroke_l	l	n/a
280.609	0.15	561218	keystroke_i	i	n/a
280.774	0.15	561548	keystroke_e	e	n/a
280.969	0.105	561938	keystroke_d	d	n/a
281.089	0.105	562178	keystroke_Key.space	Key.space	n/a
281.209	0.15	562418	keystroke_j	j	n/a
281.3435	0.1655	562687	keystroke_o	o	n/a
281.434	0.12	562868	keystroke_h	h	n/a
281.689	0.105	563378	keystroke_n	n	n/a
281.899	0.0595	563798	keystroke_s	s	n/a
282.0045	0.1045	564009	keystroke_t	t	n/a
282.2285	0.1355	564457	keystroke_o	o	n/a
282.409	0.1495	564818	keystroke_n	n	n/a
282.5735	0.0755	565147	keystroke_Key.space	Key.space	n/a
282.724	0.0895	565448	keystroke_h	h	n/a
282.8285	0.1505	565657	keystroke_e	e	n/a
283.0235	0.1355	566047	keystroke_a	a	n/a
283.1135	0.1205	566227	keystroke_r	r	n/a
283.624	0.1045	567248	keystroke_Key.enter	Key.enter	n/a
283.7325	4.887	567465	prompt	n/a	kept instances checked you've\n
284.4185	0.1205	568837	keystroke_k	k	n/a
284.6135	0.076	569227	keystroke_e	e	n/a
284.719	0.1205	569438	keystroke_p	p	n/a
284.854	0.1355	569708	keystroke_t	t	n/a
284.974	0.06	569948	keystroke_Key.space	Key.space	n/a
285.079	0.12	570158	keystroke_i	i	n/a
285.154	0.165	570308	keystroke_n	n	n/a
285.259	0.105	570518	keystroke_s	s	n/a
285.379	0.075	570758	keystroke_t	t	n/a
285.499	0.105	570998	keystroke_a	a	n/a
285.634	0.1345	571268	keystroke_n	n	n/a
285.8135	0.2105	571627	keystroke_c	c	n/a
285.949	0.105	571898	keystroke_e	e	n/a
286.189	0.105	572378	keystroke_s	s	n/a
286.4285	0.0905	572857	keystroke_Key.space	Key.space	n/a
286.609	0.1495	573218	keystroke_c	c	n/a
286.699	0.105	573398	keystroke_h	h	n/a
286.819	0.1055	573638	keystroke_e	e	n/a
286.999	0.15	573998	keystroke_c	c	n/a
287.134	0.075	574268	keystroke_k	k	n/a
287.2245	0.0595	574449	keystroke_e	e	n/a
287.374	0.1045	574748	keystroke_d	d	n/a
287.494	0.09	574988	keystroke_Key.space	Key.space	n/a
287.6585	0.0755	575317	keystroke_y	y	n/a
287.794	0.1195	575588	keystroke_o	o	n/a
287.869	0.09	575738	keystroke_u	u	n/a
288.034	0.105	576068	keystroke_'	'	n/a
288.154	0.135	576308	keystroke_v	v	n/a
288.364	0.105	576728	keystroke_e	e	n/a
288.5285	0.0905	577057	keystroke_Key.enter	Key.enter	n/a
288.6225	5.562	577245	prompt	n/a	lending won't invision week\n
289.1435	0.0455	578287	keystroke_k	k	n/a
289.489	0.06	578978	keystroke_Key.backspace	Key.backspace	n/a
289.819	0.105	579638	keystroke_l	l	n/a
290.3285	0.0455	580657	keystroke_n	n	n/a
290.689	0.075	581378	keystroke_Key.backspace	Key.backspace	n/a
290.869	0.105	581738	keystroke_e	e	n/a
291.019	0.135	582038	keystroke_n	n	n/a
291.169	0.0745	582338	keystroke_d	d	n/a
291.259	0.15	582518	keystroke_i	i	n/a
291.364	0.1045	582728	keystroke_n	n	n/a
291.424	0.0895	582848	keystroke_g	g	n/a
291.5285	0.166	583057	keystroke_Key.space	Key.space	n/a
291.709	0.1045	583418	keystroke_w	w	n/a
291.8285	0.0905	583657	keystroke_o	o	n/a
291.904	0.09	583808	keystroke_n	n	n/a
292.039	0.134	584078	keystroke_'	'	n/a
292.188	0.0755	584376	keystroke_t	t	n/a
292.279	0.0745	584558	keystroke_Key.space	Key.space	n/a
292.429	0.0895	584858	keystroke_i	i	n/a
292.474	0.1345	584948	keystroke_n	n	n/a
292.564	0.09	585128	keystroke_v	v	n/a
292.7285	0.0745	585457	keystroke_i	i	n/a
292.879	0.1045	585758	keystroke_s	s	n/a
293.029	0.1945	586058	keystroke_i	i	n/a
293.1035	0.165	586207	keystroke_o	o	n/a
293.2085	0.18	586417	keystroke_n	n	n/a
293.3435	0.1195	586687	keystroke_Key.space	Key.space	n/a
293.4795	0.119	586959	keystroke_w	w	n/a
293.5835	0.09	587167	keystroke_e	e	n/a
293.7485	0.105	587497	keystroke_e	e	n/a
293.8985	0.075	587797	keystroke_k	k	n/a
294.0785	0.105	588157	keystroke_Key.enter	Key.enter	n/a
294.1895	7.135	588379	prompt	n/a	attached spotlight pharmacology laundry\n
294.7385	0.06	589477	keystroke_a	a	n/a
294.9035	0.075	589807	keystroke_t	t	n/a
295.0685	0.0745	590137	keystroke_t	t	n/a
295.2485	0.1195	590497	keystroke_a	a	n/a
295.3235	0.1045	590647	keystroke_c	c	n/a
295.413	0.1355	590826	keystroke_h	h	n/a
295.5335	0.06	591067	keystroke_e	e	n/a
295.6985	0.075	591397	keystroke_d	d	n/a
295.7885	0.12	591577	keystroke_Key.space	Key.space	n/a
295.8935	0.09	591787	keystroke_s	s	n/a
295.998	0.1355	591996	keystroke_p	p	n/a
296.2985	0.075	592597	keystroke_o	o	n/a
296.7485	0.105	593497	keystroke_t	t	n/a
296.928	0.1505	593856	keystroke_l	l	n/a
297.0335	0.135	594067	keystroke_i	i	n/a
297.1535	0.0895	594307	keystroke_g	g	n/a
297.2585	0.12	594517	keystroke_h	h	n/a
297.3635	0.09	594727	keystroke_t	t	n/a
297.4685	0.105	594937	keystroke_Key.space	Key.space	n/a
297.6785	0.105	595357	keystroke_p	p	n/a
298.249	0.1345	596498	keystroke_h	h	n/a
298.6535	0.1505	597307	keystroke_a	a	n/a
298.728	0.121	597456	keystroke_r	r	n/a
298.9235	0.135	597847	keystroke_m	m	n/a
299.0735	0.076	598147	keystroke_a	a	n/a
299.3735	0.12	598747	keystroke_c	c	n/a
299.4785	0.0595	598957	keystroke_o	o	n/a
299.6735	0.015	599347	keystroke_l	l	n/a
299.7935	0.0745	599587	keystroke_o	o	n/a
299.913	0.121	599826	keystroke_g	g	n/a
300.0185	0.075	600037	keystroke_y	y	n/a
300.1085	0.1045	600217	keystroke_Key.space	Key.space	n/a
300.2735	0.075	600547	keystroke_l	l	n/a
300.3635	0.105	600727	keystroke_a	a	n/a
300.483	0.0755	600966	keystroke_u	u	n/a
300.6635	0.105	601327	keystroke_n	n	n/a
300.7685	0.0745	601537	keystroke_d	d	n/a
300.9485	0.1045	601897	keystroke_r	r	n/a
301.0685	0.0745	602137	keystroke_y	y	n/a
301.2485	0.075	602497	keystroke_Key.enter	Key.enter	n/a
301.328	4.3165	602656	prompt	n/a	filled perfume fraud stone\n
302.0585	0.09	604117	keystroke_f	f	n/a
302.1635	0.1055	604327	keystroke_i	i	n/a
302.3735	0.075	604747	keystroke_l	l	n/a
302.5535	0.0895	605107	keystroke_l	l	n/a
302.628	0.0905	605256	keystroke_e	e	n/a
302.8235	0.1045	605647	keystroke_d	d	n/a
302.8985	0.135	605797	keystroke_Key.space	Key.space	n/a
303.1385	0.0895	606277	keystroke_p	p	n/a
303.213	0.1355	606426	keystroke_e	e	n/a
303.3035	0.09	606607	keystroke_r	r	n/a
303.4985	0.12	606997	keystroke_f	f	n/a
303.6035	0.06	607207	keystroke_u	u	n/a
303.7985	0.12	607597	keystroke_m	m	n/a
303.8735	0.09	607747	keystroke_e	e	n/a
303.9635	0.1345	607927	keystroke_Key.space	Key.space	n/a
304.084	0.1195	608168	keystroke_f	f	n/a
304.2485	0.15	608497	keystroke_r	r	n/a
304.3835	0.0595	608767	keystroke_a	a	n/a
304.5185	0.105	609037	keystroke_u	u	n/a
304.6685	0.0745	609337	keystroke_d	d	n/a
304.7885	0.15	609577	keystroke_Key.space	Key.space	n/a
304.8935	0.0605	609787	keystroke_s	s	n/a
304.9985	0.105	609997	keystroke_t	t	n/a
305.1185	0.15	610237	keystroke_o	o	n/a
305.2235	0.1195	610447	keystroke_n	n	n/a
305.3585	0.105	610717	keystroke_e	e	n/a
305.5385	0.1045	611077	keystroke_Key.enter	Key.enter	n/a
305.6485	5.366	611297	prompt	n/a	anger seem equal establishment\n
306.228	0.0905	612456	keystroke_a	a	n/a
306.3335	0.12	612667	keystroke_n	n	n/a
306.4535	0.1075	612907	keystroke_g	g	n/a
306.7535	0.18	613507	keystroke_e	e	n/a
306.9185	0.1205	613837	keystroke_r	r	n/a
307.113	0.1055	614226	keystroke_Key.space	Key.space	n/a
307.2335	0.135	614467	keystroke_s	s	n/a
307.443	0.1205	614886	keystroke_e	e	n/a
307.6385	0.1045	615277	keystroke_e	e	n/a
307.8185	0.18	615637	keystroke_m	m	n/a
307.9235	0.15	615847	keystroke_Key.space	Key.space	n/a
308.0885	0.12	616177	keystroke_e	e	n/a
308.313	0.0455	616626	keystroke_q	q	n/a
308.4635	0.105	616927	keystroke_u	u	n/a
308.5835	0.105	617167	keystroke_a	a	n/a
308.7335	0.15	617467	keystroke_l	l	n/a
308.868	0.1505	617736	keystroke_Key.space	Key.space	n/a
309.0635	0.075	618127	keystroke_e	e	n/a
309.243	0.0455	618486	keystroke_s	s	n/a
309.3035	0.105	618607	keystroke_t	t	n/a
309.453	0.1355	618906	keystroke_a	a	n/a
309.6635	0.105	619327	keystroke_b	b	n/a
309.813	0.1355	619626	keystroke_l	l	n/a
309.9635	0.164	619927	keystroke_i	i	n/a
310.1425	0.0755	620285	keystroke_s	s	n/a
310.263	0.105	620526	keystroke_h	h	n/a
310.4885	0.09	620977	keystroke_m	m	n/a
310.5635	0.1195	621127	keystroke_e	e	n/a
310.6985	0.105	621397	keystroke_n	n	n/a
310.8185	0.1145	621637	keystroke_t	t	n/a
310.9385	0.0745	621877	keystroke_Key.enter	Key.enter	n/a
311.0175	7.497	622035	prompt	n/a	plasma fragrances toner capable\n
311.5985	0.075	623197	keystroke_l	l	n/a
312.528	0.1055	625056	keystroke_Key.backspace	Key.backspace	n/a
313.0385	0.0745	626077	keystroke_p	p	n/a
313.1885	0.1195	626377	keystroke_l	l	n/a
313.2635	0.12	626527	keystroke_a	a	n/a
313.428	0.135	626856	keystroke_s	s	n/a
313.683	0.1655	627366	keystroke_m	m	n/a
313.848	0.0745	627696	keystroke_a	a	n/a
313.9985	0.105	627997	keystroke_Key.space	Key.space	n/a
314.2385	0.0745	628477	keystroke_f	f	n/a
314.388	0.106	628776	keystroke_r	r	n/a
314.508	0.135	629016	keystroke_a	a	n/a
314.7185	0.0755	629437	keystroke_g	g	n/a
315.0785	0.105	630157	keystroke_r	r	n/a
315.258	0.1355	630516	keystroke_a	a	n/a
315.5885	0.1045	631177	keystroke_n	n	n/a
315.738	0.18	631476	keystroke_c	c	n/a
315.8425	0.1205	631685	keystroke_e	e	n/a
316.098	0.075	632196	keystroke_s	s	n/a
316.338	0.075	632676	keystroke_Key.space	Key.space	n/a
316.458	0.075	632916	keystroke_t	t	n/a
316.548	0.105	633096	keystroke_o	o	n/a
316.698	0.165	633396	keystroke_n	n	n/a
316.878	0.12	633756	keystroke_e	e	n/a
316.953	0.12	633906	keystroke_r	r	n/a
317.103	0.12	634206	keystroke_Key.space	Key.space	n/a
317.298	0.15	634596	keystroke_c	c	n/a
317.4335	0.1195	634867	keystroke_a	a	n/a
317.598	0.12	635196	keystroke_p	p	n/a
317.703	0.18	635406	keystroke_a	a	n/a
317.988	0.105	635976	keystroke_b	b	n/a
318.168	0.09	636336	keystroke_l	l	n/a
318.288	0.1055	636576	keystroke_e	e	n/a
318.4075	0.1055	636815	keystroke_Key.enter	Key.enter	n/a
318.518	4.8865	637036	prompt	n/a	active intimate he concerts\n
319.0675	0.1055	638135	keystroke_a	a	n/a
319.2185	0.1045	638437	keystroke_c	c	n/a
319.398	0.075	638796	keystroke_t	t	n/a
319.4885	0.1045	638977	keystroke_i	i	n/a
319.608	0.1345	639216	keystroke_v	v	n/a
319.818	0.1055	639636	keystroke_e	e	n/a
319.968	0.12	639936	keystroke_Key.space	Key.space	n/a
320.163	0.136	640326	keystroke_i	i	n/a
320.253	0.165	640506	keystroke_n	n	n/a
320.403	0.09	640806	keystroke_t	t	n/a
320.508	0.18	641016	keystroke_i	i	n/a
320.6425	0.1505	641285	keystroke_m	m	n/a
320.808	0.2255	641616	keystroke_a	a	n/a
320.9275	0.1215	641855	keystroke_t	t	n/a
321.153	0.135	642306	keystroke_e	e	n/a
321.3935	0.1045	642787	keystroke_Key.space	Key.space	n/a
321.6025	0.1355	643205	keystroke_h	h	n/a
321.693	0.1195	643386	keystroke_e	e	n/a
321.858	0.105	643716	keystroke_Key.space	Key.space	n/a
322.038	0.135	644076	keystroke_c	c	n/a
322.188	0.12	644376	keystroke_o	o	n/a
322.2625	0.15	644525	keystroke_n	n	n/a
322.4275	0.1055	644855	keystroke_c	c	n/a
322.608	0.15	645216	keystroke_e	e	n/a
322.7425	0.1205	645485	keystroke_r	r	n/a
322.938	0.135	645876	keystroke_t	t	n/a
323.148	0.1365	646296	keystroke_s	s	n/a
323.328	0.075	646656	keystroke_Key.enter	Key.enter	n/a
323.408	10.151	646816	prompt	n/a	lenses slovakia shame consecutive\n
324.678	0.09	649356	keystroke_l	l	n/a
324.753	0.0745	649506	keystroke_e	e	n/a
324.8575	0.1205	649715	keystroke_n	n	n/a
324.993	0.12	649986	keystroke_s	s	n/a
325.098	0.105	650196	keystroke_e	e	n/a
325.278	0.12	650556	keystroke_s	s	n/a
325.4725	0.106	650945	keystroke_Key.space	Key.space	n/a
325.833	0.09	651666	keystroke_s	s	n/a
325.968	0.0595	651936	keystroke_o	o	n/a
326.163	0.12	652326	keystroke_l	l	n/a
326.238	0.135	652476	keystroke_v	v	n/a
326.418	0.075	652836	keystroke_a	a	n/a
326.8985	0.0445	653797	keystroke_Key.backspace	Key.backspace	n/a
326.9885	0.0745	653977	keystroke_Key.backspace	Key.backspace	n/a
327.1535	0.0445	654307	keystroke_Key.backspace	Key.backspace	n/a
327.304	0.074	654608	keystroke_Key.backspace	Key.backspace	n/a
327.678	0.0455	655356	keystroke_l	l	n/a
327.7985	0.105	655597	keystroke_o	o	n/a
327.9185	0.1045	655837	keystroke_v	v	n/a
328.0685	0.105	656137	keystroke_a	a	n/a
328.6085	0.0745	657217	keystroke_k	k	n/a
328.7585	0.1195	657517	keystroke_i	i	n/a
328.863	0.12	657726	keystroke_a	a	n/a
328.998	0.1655	657996	keystroke_Key.space	Key.space	n/a
329.2235	0.1045	658447	keystroke_s	s	n/a
329.298	0.12	658596	keystroke_h	h	n/a
329.4635	0.1045	658927	keystroke_a	a	n/a
329.613	0.15	659226	keystroke_m	m	n/a
329.7785	0.1045	659557	keystroke_e	e	n/a
329.898	0.1055	659796	keystroke_Key.space	Key.space	n/a
331.143	0.105	662286	keystroke_c	c	n/a
331.293	0.1195	662586	keystroke_o	o	n/a
331.3685	0.1195	662737	keystroke_n	n	n/a
331.593	0.075	663186	keystroke_s	s	n/a
331.803	0.0445	663606	keystroke_e	e	n/a
331.9835	0.09	663967	keystroke_c	c	n/a
332.088	0.075	664176	keystroke_u	u	n/a
332.208	0.075	664416	keystroke_t	t	n/a
332.358	0.12	664716	keystroke_i	i	n/a
332.478	0.1345	664956	keystroke_v	v	n/a
333.2275	0.0905	666455	keystroke_e	e	n/a
333.483	0.075	666966	keystroke_Key.enter	Key.enter	n/a
333.563	6.176	667126	prompt	n/a	opera fleece you're tribe\n
334.383	0.15	668766	keystroke_o	o	n/a
334.548	0.165	669096	keystroke_p	p	n/a
334.698	0.15	669396	keystroke_e	e	n/a
334.893	0.15	669786	keystroke_r	r	n/a
335.0725	0.1055	670145	keystroke_a	a	n/a
335.613	0.1055	671226	keystroke_Key.space	Key.space	n/a
335.7935	0.1045	671587	keystroke_f	f	n/a
335.9435	0.0745	671887	keystroke_l	l	n/a
336.033	0.105	672066	keystroke_e	e	n/a
336.213	0.105	672426	keystroke_e	e	n/a
336.3935	0.2545	672787	keystroke_c	c	n/a
336.5435	0.1495	673087	keystroke_e	e	n/a
336.768	0.09	673536	keystroke_Key.space	Key.space	n/a
336.888	0.045	673776	keystroke_t	t	n/a
337.293	0.075	674586	keystroke_Key.backspace	Key.backspace	n/a
337.5635	0.0595	675127	keystroke_y	y	n/a
337.698	0.15	675396	keystroke_o	o	n/a
337.788	0.12	675576	keystroke_u	u	n/a
338.013	0.135	676026	keystroke_'	'	n/a
338.2235	0.1045	676447	keystroke_r	r	n/a
338.433	0.105	676866	keystroke_e	e	n/a
338.553	0.105	677106	keystroke_Key.space	Key.space	n/a
338.643	0.045	677286	keystroke_t	t	n/a
338.823	0.1045	677646	keystroke_r	r	n/a
338.973	0.1055	677946	keystroke_i	i	n/a
339.123	0.105	678246	keystroke_b	b	n/a
339.393	0.1055	678786	keystroke_e	e	n/a
339.6335	0.1045	679267	keystroke_Key.enter	Key.enter	n/a
339.742	7.257	679484	prompt	n/a	hosting connection oklahoma monkey\n
340.414	0.0895	680828	keystroke_h	h	n/a
340.5485	0.12	681097	keystroke_o	o	n/a
340.7135	0.075	681427	keystroke_s	s	n/a
340.803	0.0755	681606	keystroke_t	t	n/a
340.9535	0.135	681907	keystroke_i	i	n/a
341.028	0.136	682056	keystroke_n	n	n/a
341.1035	0.09	682207	keystroke_g	g	n/a
341.2085	0.1195	682417	keystroke_Key.space	Key.space	n/a
341.4335	0.1045	682867	keystroke_c	c	n/a
341.5235	0.1195	683047	keystroke_o	o	n/a
341.6885	0.0755	683377	keystroke_n	n	n/a
341.868	0.09	683736	keystroke_n	n	n/a
341.943	0.1055	683886	keystroke_e	e	n/a
342.0335	0.12	684067	keystroke_c	c	n/a
342.2885	0.0745	684577	keystroke_t	t	n/a
342.378	0.195	684756	keystroke_i	i	n/a
342.483	0.166	684966	keystroke_o	o	n/a
342.558	0.15	685116	keystroke_n	n	n/a
342.693	0.15	685386	keystroke_Key.space	Key.space	n/a
343.098	0.0145	686196	keystroke_a	a	n/a
343.758	0.0905	687516	keystroke_Key.backspace	Key.backspace	n/a
343.998	0.135	687996	keystroke_o	o	n/a
344.178	0.105	688356	keystroke_k	k	n/a
344.388	0.1055	688776	keystroke_l	l	n/a
344.538	0.0455	689076	keystroke_a	a	n/a
345.0785	0.12	690157	keystroke_h	h	n/a
345.228	0.165	690456	keystroke_o	o	n/a
345.3785	0.1345	690757	keystroke_m	m	n/a
345.4685	0.1045	690937	keystroke_a	a	n/a
345.634	0.0745	691268	keystroke_Key.space	Key.space	n/a
345.784	0.104	691568	keystroke_m	m	n/a
345.9035	0.15	691807	keystroke_o	o	n/a
346.038	0.045	692076	keystroke_n	n	n/a
346.488	0.0605	692976	keystroke_k	k	n/a
346.5935	0.0895	693187	keystroke_e	e	n/a
346.6985	0.06	693397	keystroke_y	y	n/a
346.9085	0.0895	693817	keystroke_Key.enter	Key.enter	n/a
347.0025	6.0885	694005	prompt	n/a	texture belfast makers corrected\n
347.598	0.0905	695196	keystroke_t	t	n/a
347.7635	0.0745	695527	keystroke_e	e	n/a
347.9585	0.0445	695917	keystroke_x	x	n/a
348.1085	0.03	696217	keystroke_t	t	n/a
348.3485	0.075	696697	keystroke_u	u	n/a
348.5585	0.135	697117	keystroke_r	r	n/a
348.6635	0.075	697327	keystroke_e	e	n/a
348.813	0.1655	697626	keystroke_Key.space	Key.space	n/a
349.173	0.0755	698346	keystroke_b	b	n/a
349.3535	0.0745	698707	keystroke_e	e	n/a
349.4735	0.09	698947	keystroke_l	l	n/a
349.6085	0.09	699217	keystroke_f	f	n/a
349.758	0.1655	699516	keystroke_a	a	n/a
350.028	0.1355	700056	keystroke_s	s	n/a
350.1785	0.105	700357	keystroke_t	t	n/a
350.2985	0.1045	700597	keystroke_Key.space	Key.space	n/a
350.4635	0.135	700927	keystroke_m	m	n/a
350.5535	0.0595	701107	keystroke_a	a	n/a
350.688	0.1205	701376	keystroke_k	k	n/a
350.7935	0.1345	701587	keystroke_e	e	n/a
350.8835	0.12	701767	keystroke_r	r	n/a
351.0785	0.105	702157	keystroke_s	s	n/a
351.2585	0.105	702517	keystroke_Key.space	Key.space	n/a
351.7835	0.09	703567	keystroke_c	c	n/a
351.8585	0.12	703717	keystroke_o	o	n/a
351.9935	0.046	703987	keystroke_r	r	n/a
352.143	0.0755	704286	keystroke_r	r	n/a
352.203	0.0905	704406	keystroke_e	e	n/a
352.3835	0.0445	704767	keystroke_c	c	n/a
352.5035	0.136	705007	keystroke_t	t	n/a
352.6535	0.136	705307	keystroke_e	e	n/a
352.8635	0.1045	705727	keystroke_d	d	n/a
352.983	0.1055	705966	keystroke_Key.enter	Key.enter	n/a
353.095	4.2095	706190	prompt	n/a	cube teeth bother charging\n
353.763	0.0905	707526	keystroke_c	c	n/a
353.9135	0.045	707827	keystroke_u	u	n/a
354.003	0.0905	708006	keystroke_b	b	n/a
354.228	0.0905	708456	keystroke_e	e	n/a
354.3335	0.12	708667	keystroke_Key.space	Key.space	n/a
354.4385	0.0595	708877	keystroke_t	t	n/a
354.5885	0.075	709177	keystroke_e	e	n/a
354.7385	0.1045	709477	keystroke_e	e	n/a
354.9635	0.135	709927	keystroke_t	t	n/a
355.113	0.1055	710226	keystroke_h	h	n/a
355.2335	0.105	710467	keystroke_Key.space	Key.space	n/a
355.3835	0.105	710767	keystroke_b	b	n/a
355.5035	0.105	711007	keystroke_o	o	n/a
355.6235	0.1045	711247	keystroke_t	t	n/a
355.743	0.1355	711486	keystroke_h	h	n/a
355.8335	0.135	711667	keystroke_e	e	n/a
355.9235	0.0895	711847	keystroke_r	r	n/a
356.028	0.1055	712056	keystroke_Key.space	Key.space	n/a
356.1485	0.105	712297	keystroke_c	c	n/a
356.2985	0.105	712597	keystroke_h	h	n/a
356.4185	0.12	712837	keystroke_a	a	n/a
356.5235	0.0895	713047	keystroke_r	r	n/a
356.7185	0.1045	713437	keystroke_g	g	n/a
356.8685	0.135	713737	keystroke_i	i	n/a
356.959	0.1195	713918	keystroke_n	n	n/a
357.0935	0.06	714187	keystroke_g	g	n/a
357.1985	0.105	714397	keystroke_Key.enter	Key.enter	n/a
357.309	8.0955	714618	prompt	n/a	preceding pennsylvania biodiversity experiencing\n
357.9635	0.105	715927	keystroke_p	p	n/a
358.113	0.0755	716226	keystroke_r	r	n/a
358.413	0.1055	716826	keystroke_e	e	n/a
358.594	0.1045	717188	keystroke_c	c	n/a
358.8035	0.105	717607	keystroke_e	e	n/a
358.9985	0.09	717997	keystroke_d	d	n/a
359.1485	0.12	718297	keystroke_i	i	n/a
359.2235	0.1205	718447	keystroke_n	n	n/a
359.313	0.075	718626	keystroke_g	g	n/a
359.4035	0.105	718807	keystroke_Key.space	Key.space	n/a
359.5685	0.09	719137	keystroke_p	p	n/a
359.6735	0.075	719347	keystroke_e	e	n/a
359.7935	0.0745	719587	keystroke_n	n	n/a
359.913	0.105	719826	keystroke_n	n	n/a
360.213	0.1055	720426	keystroke_s	s	n/a
360.3635	0.075	720727	keystroke_y	y	n/a
360.6335	0.0145	721267	keystroke_l	l	n/a
360.6935	0.09	721387	keystroke_v	v	n/a
360.828	0.1055	721656	keystroke_a	a	n/a
360.9785	0.075	721957	keystroke_n	n	n/a
361.1585	0.105	722317	keystroke_i	i	n/a
361.279	0.0745	722558	keystroke_a	a	n/a
361.368	0.1355	722736	keystroke_Key.space	Key.space	n/a
361.6535	0.0595	723307	keystroke_b	b	n/a
361.6985	0.135	723397	keystroke_i	i	n/a
361.7885	0.09	723577	keystroke_o	o	n/a
362.343	0.0755	724686	keystroke_d	d	n/a
362.4935	0.105	724987	keystroke_i	i	n/a
362.6135	0.105	725227	keystroke_v	v	n/a
362.7635	0.12	725527	keystroke_e	e	n/a
362.8685	0.09	725737	keystroke_r	r	n/a
363.0635	0.105	726127	keystroke_s	s	n/a
363.1835	0.105	726367	keystroke_i	i	n/a
363.3035	0.105	726607	keystroke_t	t	n/a
363.4235	0.075	726847	keystroke_y	y	n/a
363.5135	0.105	727027	keystroke_Key.space	Key.space	n/a
363.6485	0.045	727297	keystroke_e	e	n/a
363.828	0.0905	727656	keystroke_x	x	n/a
363.903	0.0905	727806	keystroke_p	p	n/a
363.9935	0.105	727987	keystroke_e	e	n/a
364.0985	0.12	728197	keystroke_r	r	n/a
364.3385	0.0745	728677	keystroke_i	i	n/a
364.428	0.1205	728856	keystroke_e	e	n/a
364.564	0.1195	729128	keystroke_n	n	n/a
364.6985	0.12	729397	keystroke_c	c	n/a
364.9385	0.15	729877	keystroke_i	i	n/a
365.013	0.1355	730026	keystroke_n	n	n/a
365.1035	0.09	730207	keystroke_g	g	n/a
365.2985	0.105	730597	keystroke_Key.enter	Key.enter	n/a
365.4075	5.397	730815	prompt	n/a	inclusive jason accepting strong\n
366.1085	0.1345	732217	keystroke_i	i	n/a
366.1985	0.12	732397	keystroke_n	n	n/a
366.3035	0.135	732607	keystroke_c	c	n/a
366.423	0.1955	732846	keystroke_l	l	n/a
366.513	0.1205	733026	keystroke_u	u	n/a
366.6185	0.09	733237	keystroke_s	s	n/a
366.784	0.1345	733568	keystroke_i	i	n/a
366.9335	0.1345	733867	keystroke_v	v	n/a
367.0835	0.105	734167	keystroke_e	e	n/a
367.2035	0.075	734407	keystroke_Key.space	Key.space	n/a
367.3385	0.0895	734677	keystroke_j	j	n/a
367.413	0.0905	734826	keystroke_a	a	n/a
367.7735	0.105	735547	keystroke_s	s	n/a
368.013	0.1055	736026	keystroke_o	o	n/a
368.0735	0.12	736147	keystroke_n	n	n/a
368.2085	0.1045	736417	keystroke_Key.space	Key.space	n/a
368.538	0.105	737076	keystroke_a	a	n/a
368.6885	0.105	737377	keystroke_c	c	n/a
368.8685	0.1195	737737	keystroke_c	c	n/a
368.928	0.1205	737856	keystroke_e	e	n/a
369.0635	0.135	738127	keystroke_p	p	n/a
369.1845	0.089	738369	keystroke_t	t	n/a
369.2885	0.105	738577	keystroke_i	i	n/a
369.4985	0.135	738997	keystroke_n	n	n/a
369.6185	0.06	739237	keystroke_g	g	n/a
369.6935	0.1495	739387	keystroke_Key.space	Key.space	n/a
369.813	0.0905	739626	keystroke_s	s	n/a
369.9485	0.0745	739897	keystroke_t	t	n/a
370.143	0.077	740286	keystroke_r	r	n/a
370.2935	0.1195	740587	keystroke_o	o	n/a
370.3985	0.1205	740797	keystroke_n	n	n/a
370.5335	0.12	741067	keystroke_g	g	n/a
370.728	0.0755	741456	keystroke_Key.enter	Key.enter	n/a
370.808	5.3515	741616	prompt	n/a	seating specially genes beliefs\n
371.4335	0.1045	742867	keystroke_s	s	n/a
371.554	0.1645	743108	keystroke_e	e	n/a
371.7335	0.12	743467	keystroke_a	a	n/a
371.8385	0.12	743677	keystroke_t	t	n/a
372.0335	0.1205	744067	keystroke_i	i	n/a
372.1085	0.1045	744217	keystroke_n	n	n/a
372.1985	0.09	744397	keystroke_g	g	n/a
372.3045	0.134	744609	keystroke_Key.space	Key.space	n/a
372.4985	0.0445	744997	keystroke_s	s	n/a
372.5585	0.135	745117	keystroke_p	p	n/a
372.7085	0.045	745417	keystroke_e	e	n/a
372.858	0.1205	745716	keystroke_c	c	n/a
372.9635	0.091	745927	keystroke_i	i	n/a
373.054	0.1045	746108	keystroke_a	a	n/a
373.1735	0.075	746347	keystroke_l	l	n/a
373.3235	0.1805	746647	keystroke_l	l	n/a
373.428	0.1355	746856	keystroke_y	y	n/a
373.5485	0.105	747097	keystroke_Key.space	Key.space	n/a
373.6385	0.0895	747277	keystroke_g	g	n/a
373.8335	0.075	747667	keystroke_e	e	n/a
373.9085	0.1045	747817	keystroke_n	n	n/a
374.028	0.1355	748056	keystroke_e	e	n/a
374.2385	0.074	748477	keystroke_s	s	n/a
374.358	0.1655	748716	keystroke_Key.space	Key.space	n/a
374.598	0.0755	749196	keystroke_b	b	n/a
374.7785	0.09	749557	keystroke_e	e	n/a
374.8685	0.15	749737	keystroke_l	l	n/a
374.989	0.1195	749978	keystroke_i	i	n/a
375.0635	0.226	750127	keystroke_e	e	n/a
375.363	0.15	750726	keystroke_f	f	n/a
375.9485	0.105	751897	keystroke_s	s	n/a
376.0385	0.12	752077	keystroke_Key.enter	Key.enter	n/a
376.163	6.7765	752326	prompt	n/a	contrary contact investigated plains\n
376.9085	0.1195	753817	keystroke_c	c	n/a
377.013	0.1055	754026	keystroke_o	o	n/a
377.1035	0.105	754207	keystroke_n	n	n/a
377.1635	0.0605	754327	keystroke_t	t	n/a
377.2685	0.135	754537	keystroke_r	r	n/a
377.4485	0.135	754897	keystroke_a	a	n/a
377.6885	0.12	755377	keystroke_r	r	n/a
377.7935	0.09	755587	keystroke_y	y	n/a
377.8985	0.105	755797	keystroke_Key.space	Key.space	n/a
378.0335	0.135	756067	keystroke_c	c	n/a
378.1535	0.0895	756307	keystroke_o	o	n/a
378.213	0.1205	756426	keystroke_n	n	n/a
378.3185	0.09	756637	keystroke_t	t	n/a
378.513	0.1355	757026	keystroke_a	a	n/a
378.8585	0.105	757717	keystroke_c	c	n/a
379.0835	0.0595	758167	keystroke_t	t	n/a
379.1735	0.12	758347	keystroke_Key.space	Key.space	n/a
379.4885	0.105	758977	keystroke_n	n	n/a
379.6385	0.1045	759277	keystroke_v	v	n/a
379.8335	0.105	759667	keystroke_e	e	n/a
380.0735	0.075	760147	keystroke_s	s	n/a
380.2235	0.06	760447	keystroke_t	t	n/a
380.8985	0.0745	761797	keystroke_i	i	n/a
381.0335	0.1045	762067	keystroke_g	g	n/a
381.1985	0.12	762397	keystroke_a	a	n/a
381.3035	0.105	762607	keystroke_t	t	n/a
381.4685	0.105	762937	keystroke_e	e	n/a
381.6785	0.075	763357	keystroke_d	d	n/a
381.7985	0.105	763597	keystroke_Key.space	Key.space	n/a
381.9485	0.075	763897	keystroke_p	p	n/a
382.128	0.1355	764256	keystroke_l	l	n/a
382.2335	0.105	764467	keystroke_a	a	n/a
382.3685	0.165	764737	keystroke_i	i	n/a
382.503	0.1355	765006	keystroke_n	n	n/a
382.6535	0.0755	765307	keystroke_s	s	n/a
382.8335	0.105	765667	keystroke_Key.enter	Key.enter	n/a
382.942	6.3275	765884	prompt	n/a	discovered reported adams miles\n
383.643	0.06	767286	keystroke_d	d	n/a
383.7185	0.09	767437	keystroke_i	i	n/a
383.7935	0.135	767587	keystroke_s	s	n/a
383.913	0.0905	767826	keystroke_c	c	n/a
384.0185	0.105	768037	keystroke_o	o	n/a
384.1385	0.1045	768277	keystroke_v	v	n/a
384.3035	0.165	768607	keystroke_e	e	n/a
384.4085	0.24	768817	keystroke_r	r	n/a
384.6035	0.09	769207	keystroke_e	e	n/a
385.0385	0.1045	770077	keystroke_d	d	n/a
385.1585	0.135	770317	keystroke_Key.space	Key.space	n/a
385.3985	0.135	770797	keystroke_r	r	n/a
385.5035	0.1045	771007	keystroke_e	e	n/a
385.7585	0.105	771517	keystroke_p	p	n/a
385.9385	0.12	771877	keystroke_o	o	n/a
386.1035	0.1345	772207	keystroke_r	r	n/a
386.313	0.1205	772626	keystroke_t	t	n/a
386.3885	0.09	772777	keystroke_e	e	n/a
386.5685	0.12	773137	keystroke_d	d	n/a
386.7185	0.105	773437	keystroke_Key.space	Key.space	n/a
386.8685	0.12	773737	keystroke_a	a	n/a
387.0635	0.135	774127	keystroke_d	d	n/a
387.1835	0.12	774367	keystroke_a	a	n/a
387.4085	0.1345	774817	keystroke_m	m	n/a
387.588	0.1055	775176	keystroke_s	s	n/a
387.7235	0.135	775447	keystroke_Key.space	Key.space	n/a
388.0535	0.1505	776107	keystroke_m	m	n/a
388.2035	0.105	776407	keystroke_i	i	n/a
388.3535	0.1195	776707	keystroke_l	l	n/a
388.5635	0.09	777127	keystroke_e	e	n/a
388.8635	0.075	777727	keystroke_s	s	n/a
389.1935	0.075	778387	keystroke_Key.enter	Key.enter	n/a
389.2725	8.427	778545	prompt	n/a	sacramento thesis may consultancy\n
389.913	0.0755	779826	keystroke_s	s	n/a
390.513	0.1655	781026	keystroke_a	a	n/a
391.3535	0.0745	782707	keystroke_c	c	n/a
391.533	0.1055	783066	keystroke_r	r	n/a
391.713	0.0755	783426	keystroke_a	a	n/a
391.8635	0.1645	783727	keystroke_m	m	n/a
392.1335	0.12	784267	keystroke_e	e	n/a
392.2835	0.105	784567	keystroke_n	n	n/a
392.4035	0.105	784807	keystroke_t	t	n/a
392.7635	0.1495	785527	keystroke_o	o	n/a
392.928	0.1655	785856	keystroke_Key.space	Key.space	n/a
393.288	0.0755	786576	keystroke_t	t	n/a
393.3785	0.105	786757	keystroke_h	h	n/a
393.4835	0.09	786967	keystroke_e	e	n/a
393.6785	0.075	787357	keystroke_s	s	n/a
393.7985	0.1195	787597	keystroke_i	i	n/a
393.8735	0.12	787747	keystroke_s	s	n/a
394.4585	0.1045	788917	keystroke_Key.space	Key.space	n/a
394.6835	0.075	789367	keystroke_m	m	n/a
394.7735	0.105	789547	keystroke_a	a	n/a
394.9235	0.1045	789847	keystroke_y	y	n/a
395.0735	0.105	790147	keystroke_Key.space	Key.space	n/a
395.5685	0.15	791137	keystroke_c	c	n/a
395.7035	0.09	791407	keystroke_o	o	n/a
395.7635	0.105	791527	keystroke_n	n	n/a
395.943	0.0755	791886	keystroke_s	s	n/a
396.0335	0.12	792067	keystroke_u	u	n/a
396.1385	0.12	792277	keystroke_l	l	n/a
396.213	0.0915	792426	keystroke_a	a	n/a
396.3185	0.105	792637	keystroke_t	t	n/a
396.5285	0.09	793057	keystroke_a	a	n/a
396.634	0.0895	793268	keystroke_n	n	n/a
396.8585	0.195	793717	keystroke_c	c	n/a
397.2785	0.105	794557	keystroke_y	y	n/a
397.5935	0.105	795187	keystroke_Key.enter	Key.enter	n/a
397.704	7.526	795408	prompt	n/a	meta styles thereafter bosnia\n
398.539	0.1345	797078	keystroke_m	m	n/a
398.613	0.1205	797226	keystroke_e	e	n/a
398.7335	0.105	797467	keystroke_t	t	n/a
398.8835	0.0595	797767	keystroke_a	a	n/a
399.0485	0.09	798097	keystroke_Key.space	Key.space	n/a
399.1235	0.1195	798247	keystroke_s	s	n/a
399.2585	0.075	798517	keystroke_t	t	n/a
399.3785	0.15	798757	keystroke_y	y	n/a
399.4835	0.135	798967	keystroke_l	l	n/a
399.5735	0.1195	799147	keystroke_e	e	n/a
399.7685	0.135	799537	keystroke_s	s	n/a
399.919	0.1645	799838	keystroke_Key.space	Key.space	n/a
400.2785	0.045	800557	keystroke_t	t	n/a
400.428	0.1205	800856	keystroke_h	h	n/a
400.5335	0.075	801067	keystroke_e	e	n/a
400.6245	0.119	801249	keystroke_r	r	n/a
400.699	0.09	801398	keystroke_e	e	n/a
400.864	0.149	801728	keystroke_a	a	n/a
401.2685	0.12	802537	keystroke_t	t	n/a
401.749	0.0895	803498	keystroke_e	e	n/a
401.7935	0.105	803587	keystroke_r	r	n/a
402.5285	0.0455	805057	keystroke_Key.backspace	Key.backspace	n/a
402.6485	0.045	805297	keystroke_Key.backspace	Key.backspace	n/a
402.7835	0.0905	805567	keystroke_Key.backspace	Key.backspace	n/a
402.8885	0.0755	805777	keystroke_f	f	n/a
403.039	0.105	806078	keystroke_t	t	n/a
403.324	0.1195	806648	keystroke_e	e	n/a
403.3985	0.12	806797	keystroke_r	r	n/a
403.5485	0.1505	807097	keystroke_Key.space	Key.space	n/a
403.789	0.075	807578	keystroke_b	b	n/a
403.8785	0.0755	807757	keystroke_o	o	n/a
403.984	0.105	807968	keystroke_s	s	n/a
404.134	0.105	808268	keystroke_i	i	n/a
404.554	0.0595	809108	keystroke_Key.backspace	Key.backspace	n/a
404.8085	0.0755	809617	keystroke_n	n	n/a
404.9285	0.1055	809857	keystroke_i	i	n/a
405.049	0.09	810098	keystroke_a	a	n/a
405.154	0.0745	810308	keystroke_Key.enter	Key.enter	n/a
405.234	8.3365	810468	prompt	n/a	headline slim enhancements degrees\n
406.1285	0.1055	812257	keystroke_h	h	n/a
406.219	0.09	812438	keystroke_e	e	n/a
406.369	0.12	812738	keystroke_a	a	n/a
406.474	0.1055	812948	keystroke_d	d	n/a
406.654	0.1045	813308	keystroke_l	l	n/a
406.804	0.165	813608	keystroke_i	i	n/a
406.909	0.1195	813818	keystroke_n	n	n/a
407.0135	0.0905	814027	keystroke_e	e	n/a
407.119	0.075	814238	keystroke_Key.space	Key.space	n/a
409.4435	0.0455	818887	keystroke_s	s	n/a
409.534	0.075	819068	keystroke_l	l	n/a
409.699	0.105	819398	keystroke_i	i	n/a
409.865	0.134	819730	keystroke_m	m	n/a
409.984	0.12	819968	keystroke_Key.space	Key.space	n/a
410.239	0.135	820478	keystroke_e	e	n/a
410.449	0.075	820898	keystroke_n	n	n/a
410.599	0.105	821198	keystroke_h	h	n/a
410.719	0.06	821438	keystroke_a	a	n/a
411.154	0.1045	822308	keystroke_n	n	n/a
411.2285	0.1955	822457	keystroke_c	c	n/a
411.364	0.09	822728	keystroke_e	e	n/a
411.574	0.135	823148	keystroke_m	m	n/a
411.709	0.075	823418	keystroke_e	e	n/a
411.7995	0.1045	823599	keystroke_n	n	n/a
411.919	0.045	823838	keystroke_t	t	n/a
412.069	0.105	824138	keystroke_s	s	n/a
412.189	0.135	824378	keystroke_Key.space	Key.space	n/a
412.339	0.0745	824678	keystroke_d	d	n/a
412.519	0.045	825038	keystroke_e	e	n/a
412.639	0.0745	825278	keystroke_g	g	n/a
412.849	0.12	825698	keystroke_r	r	n/a
412.894	0.091	825788	keystroke_e	e	n/a
413.059	0.105	826118	keystroke_e	e	n/a
413.269	0.105	826538	keystroke_s	s	n/a
413.479	0.09	826958	keystroke_Key.enter	Key.enter	n/a
413.5745	5.3955	827149	prompt	n/a	martin village routers directive\n
414.2285	0.1055	828457	keystroke_m	m	n/a
414.319	0.1045	828638	keystroke_a	a	n/a
414.394	0.06	828788	keystroke_r	r	n/a
414.574	0.09	829148	keystroke_t	t	n/a
414.679	0.075	829358	keystroke_i	i	n/a
414.874	0.105	829748	keystroke_n	n	n/a
414.979	0.105	829958	keystroke_Key.space	Key.space	n/a
415.099	0.09	830198	keystroke_v	v	n/a
415.204	0.0745	830408	keystroke_i	i	n/a
415.384	0.0595	830768	keystroke_l	l	n/a
415.534	0.1495	831068	keystroke_l	l	n/a
415.6105	0.133	831221	keystroke_a	a	n/a
415.6985	0.1505	831397	keystroke_g	g	n/a
415.849	0.075	831698	keystroke_e	e	n/a
415.984	0.12	831968	keystroke_Key.space	Key.space	n/a
416.239	0.0895	832478	keystroke_r	r	n/a
416.3435	0.1505	832687	keystroke_o	o	n/a
416.404	0.105	832808	keystroke_u	u	n/a
416.554	0.0895	833108	keystroke_t	t	n/a
416.779	0.12	833558	keystroke_e	e	n/a
416.854	0.1195	833708	keystroke_r	r	n/a
417.079	0.105	834158	keystroke_s	s	n/a
417.199	0.15	834398	keystroke_Key.space	Key.space	n/a
417.349	0.105	834698	keystroke_d	d	n/a
417.499	0.075	834998	keystroke_i	i	n/a
417.589	0.15	835178	keystroke_r	r	n/a
417.694	0.1195	835388	keystroke_e	e	n/a
417.979	0.105	835958	keystroke_c	c	n/a
418.279	0.0755	836558	keystroke_t	t	n/a
418.4135	0.1355	836827	keystroke_i	i	n/a
418.564	0.135	837128	keystroke_v	v	n/a
418.7435	0.1055	837487	keystroke_e	e	n/a
418.8935	0.0755	837787	keystroke_Key.enter	Key.enter	n/a
418.973	12.0565	837946	prompt	n/a	vista violence lounge construction\n
419.7035	0.0905	839407	keystroke_v	v	n/a
419.809	0.1195	839618	keystroke_i	i	n/a
419.9135	0.12	839827	keystroke_s	s	n/a
420.049	0.06	840098	keystroke_t	t	n/a
420.1835	0.0755	840367	keystroke_a	a	n/a
420.304	0.15	840608	keystroke_Key.space	Key.space	n/a
420.5285	0.1055	841057	keystroke_v	v	n/a
420.649	0.135	841298	keystroke_i	i	n/a
420.769	0.12	841538	keystroke_o	o	n/a
421.054	0.105	842108	keystroke_l	l	n/a
421.189	0.075	842378	keystroke_e	e	n/a
421.309	0.1495	842618	keystroke_n	n	n/a
421.4745	0.059	842949	keystroke_e	e	n/a
421.624	0.1505	843248	keystroke_c	c	n/a
421.699	0.12	843398	keystroke_e	e	n/a
421.834	0.12	843668	keystroke_Key.space	Key.space	n/a
426.454	0.03	852908	keystroke_Key.backspace	Key.backspace	n/a
426.5885	0.0455	853177	keystroke_Key.backspace	Key.backspace	n/a
426.754	0.0595	853508	keystroke_Key.backspace	Key.backspace	n/a
426.934	0.045	853868	keystroke_Key.backspace	Key.backspace	n/a
427.2035	0.1655	854407	keystroke_c	c	n/a
427.4135	0.1205	854827	keystroke_e	e	n/a
427.5945	0.0895	855189	keystroke_Key.space	Key.space	n/a
427.834	0.045	855668	keystroke_l	l	n/a
427.984	0.12	855968	keystroke_o	o	n/a
428.0135	0.0755	856027	keystroke_u	u	n/a
428.239	0.045	856478	keystroke_n	n	n/a
428.359	0.075	856718	keystroke_g	g	n/a
428.569	0.0595	857138	keystroke_e	e	n/a
428.764	0.105	857528	keystroke_Key.space	Key.space	n/a
429.004	0.12	858008	keystroke_c	c	n/a
429.289	0.12	858578	keystroke_o	o	n/a
429.334	0.135	858668	keystroke_n	n	n/a
429.454	0.045	858908	keystroke_s	s	n/a
429.5435	0.1055	859087	keystroke_t	t	n/a
429.724	0.075	859448	keystroke_r	r	n/a
429.8435	0.1055	859687	keystroke_u	u	n/a
430.024	0.0895	860048	keystroke_c	c	n/a
430.219	0.075	860438	keystroke_t	t	n/a
430.369	0.27	860738	keystroke_i	i	n/a
430.504	0.165	861008	keystroke_o	o	n/a
430.624	0.1195	861248	keystroke_n	n	n/a
430.9695	0.059	861939	keystroke_Key.enter	Key.enter	n/a
431.033	8.04	862066	prompt	n/a	anything projected scenic attention\n
431.659	0.1055	863318	keystroke_a	a	n/a
431.7645	0.0445	863529	keystroke_n	n	n/a
431.884	0.09	863768	keystroke_y	y	n/a
432.004	0.105	864008	keystroke_t	t	n/a
432.124	0.1045	864248	keystroke_h	h	n/a
432.274	0.18	864548	keystroke_i	i	n/a
432.379	0.1345	864758	keystroke_n	n	n/a
432.499	0.075	864998	keystroke_g	g	n/a
432.559	0.12	865118	keystroke_Key.space	Key.space	n/a
432.754	0.0895	865508	keystroke_p	p	n/a
432.874	0.0895	865748	keystroke_r	r	n/a
432.9785	0.1055	865957	keystroke_o	o	n/a
433.1285	0.1215	866257	keystroke_j	j	n/a
433.234	0.12	866468	keystroke_e	e	n/a
433.3985	0.0905	866797	keystroke_c	c	n/a
433.594	0.09	867188	keystroke_t	t	n/a
433.789	0.075	867578	keystroke_e	e	n/a
433.984	0.075	867968	keystroke_d	d	n/a
434.134	0.1045	868268	keystroke_Key.space	Key.space	n/a
434.2535	0.075	868507	keystroke_s	s	n/a
434.404	0.18	868808	keystroke_c	c	n/a
434.539	0.12	869078	keystroke_e	e	n/a
434.794	0.075	869588	keystroke_n	n	n/a
434.9435	0.1055	869887	keystroke_i	i	n/a
435.439	0.0745	870878	keystroke_c	c	n/a
435.5885	0.1355	871177	keystroke_Key.space	Key.space	n/a
436.354	0.0745	872708	keystroke_a	a	n/a
436.5045	0.0745	873009	keystroke_t	t	n/a
436.685	0.1185	873370	keystroke_t	t	n/a
436.759	0.105	873518	keystroke_e	e	n/a
436.894	0.1495	873788	keystroke_n	n	n/a
437.149	0.09	874298	keystroke_s	s	n/a
437.3285	0.1955	874657	keystroke_i	i	n/a
437.359	0.2105	874718	keystroke_o	o	n/a
437.509	0.1195	875018	keystroke_n	n	n/a
437.794	0.076	875588	keystroke_Key.backspace	Key.backspace	n/a
437.974	0.045	875948	keystroke_Key.backspace	Key.backspace	n/a
438.0935	0.0455	876187	keystroke_Key.backspace	Key.backspace	n/a
438.2285	0.0755	876457	keystroke_Key.backspace	Key.backspace	n/a
438.379	0.0905	876758	keystroke_t	t	n/a
438.499	0.165	876998	keystroke_i	i	n/a
438.574	0.21	877148	keystroke_o	o	n/a
438.77	0.119	877540	keystroke_n	n	n/a
438.964	0.1075	877928	keystroke_Key.enter	Key.enter	n/a
439.0765	6.2935	878153	prompt	n/a	trace parenting substantially town\n
439.7285	0.1205	879457	keystroke_t	t	n/a
439.924	0.1045	879848	keystroke_r	r	n/a
440.0435	0.1355	880087	keystroke_a	a	n/a
440.194	0.195	880388	keystroke_c	c	n/a
440.4045	0.0895	880809	keystroke_e	e	n/a
440.599	0.106	881198	keystroke_Key.space	Key.space	n/a
440.899	0.09	881798	keystroke_p	p	n/a
440.974	0.1355	881948	keystroke_a	a	n/a
441.064	0.091	882128	keystroke_r	r	n/a
441.259	0.12	882518	keystroke_e	e	n/a
441.394	0.1195	882788	keystroke_n	n	n/a
441.5285	0.0905	883057	keystroke_t	t	n/a
441.605	0.1345	883210	keystroke_i	i	n/a
441.694	0.1345	883388	keystroke_n	n	n/a
441.7835	0.0905	883567	keystroke_g	g	n/a
441.8895	0.1195	883779	keystroke_Key.space	Key.space	n/a
442.054	0.1055	884108	keystroke_s	s	n/a
442.1595	0.0745	884319	keystroke_u	u	n/a
442.294	0.075	884588	keystroke_b	b	n/a
442.49	0.104	884980	keystroke_s	s	n/a
442.609	0.09	885218	keystroke_t	t	n/a
442.7435	0.1055	885487	keystroke_a	a	n/a
442.864	0.105	885728	keystroke_n	n	n/a
443.0435	0.0905	886087	keystroke_t	t	n/a
443.119	0.105	886238	keystroke_i	i	n/a
443.269	0.105	886538	keystroke_a	a	n/a
443.404	0.045	886808	keystroke_l	l	n/a
443.554	0.18	887108	keystroke_l	l	n/a
443.689	0.1645	887378	keystroke_y	y	n/a
443.9435	0.0905	887887	keystroke_Key.space	Key.space	n/a
444.694	0.06	889388	keystroke_t	t	n/a
444.799	0.105	889598	keystroke_o	o	n/a
444.949	0.0755	889898	keystroke_w	w	n/a
445.039	0.0895	890078	keystroke_n	n	n/a
445.249	0.12	890498	keystroke_Key.enter	Key.enter	n/a
445.3735	8.3815	890747	prompt	n/a	enormous denial happy columbus\n
446.104	0.09	892208	keystroke_e	e	n/a
446.2095	0.0745	892419	keystroke_n	n	n/a
446.359	0.12	892718	keystroke_o	o	n/a
446.5545	0.105	893109	keystroke_r	r	n/a
446.749	0.0905	893498	keystroke_m	m	n/a
446.9595	0.1045	893919	keystroke_o	o	n/a
447.0045	0.1195	894009	keystroke_u	u	n/a
447.0945	0.075	894189	keystroke_s	s	n/a
447.199	0.1205	894398	keystroke_Key.space	Key.space	n/a
447.709	0.045	895418	keystroke_d	d	n/a
447.9345	0.045	895869	keystroke_e	e	n/a
448.714	0.0755	897428	keystroke_n	n	n/a
449.074	0.0905	898148	keystroke_i	i	n/a
449.194	0.105	898388	keystroke_a	a	n/a
449.344	0.1355	898688	keystroke_l	l	n/a
449.4795	0.1045	898959	keystroke_Key.space	Key.space	n/a
449.6285	0.1055	899257	keystroke_h	h	n/a
449.7945	0.1045	899589	keystroke_a	a	n/a
449.9135	0.0455	899827	keystroke_p	p	n/a
450.0795	0.1195	900159	keystroke_p	p	n/a
450.1545	0.119	900309	keystroke_y	y	n/a
450.289	0.1355	900578	keystroke_Key.space	Key.space	n/a
450.5595	0.1195	901119	keystroke_c	c	n/a
450.814	0.075	901628	keystroke_o	o	n/a
451.0095	0.1345	902019	keystroke_l	l	n/a
451.069	0.12	902138	keystroke_u	u	n/a
451.2045	0.1045	902409	keystroke_b	b	n/a
451.324	0.1505	902648	keystroke_m	m	n/a
452.824	0.06	905648	keystroke_Key.backspace	Key.backspace	n/a
452.9745	0.045	905949	keystroke_Key.backspace	Key.backspace	n/a
453.1545	0.0745	906309	keystroke_m	m	n/a
453.244	0.075	906488	keystroke_b	b	n/a
453.3495	0.0895	906699	keystroke_u	u	n/a
453.544	0.09	907088	keystroke_s	s	n/a
453.664	0.09	907328	keystroke_Key.enter	Key.enter	n/a
453.758	5.052	907516	prompt	n/a	vary none solutions courts\n
454.594	0.075	909188	keystroke_v	v	n/a
454.7145	0.1645	909429	keystroke_a	a	n/a
454.8495	0.0745	909699	keystroke_r	r	n/a
454.909	0.0755	909818	keystroke_y	y	n/a
454.999	0.0755	909998	keystroke_Key.space	Key.space	n/a
455.134	0.09	910268	keystroke_n	n	n/a
455.2395	0.134	910479	keystroke_o	o	n/a
455.3285	0.1205	910657	keystroke_n	n	n/a
455.419	0.09	910838	keystroke_e	e	n/a
455.494	0.12	910988	keystroke_Key.space	Key.space	n/a
455.629	0.1205	911258	keystroke_s	s	n/a
455.734	0.06	911468	keystroke_o	o	n/a
455.8995	0.1045	911799	keystroke_l	l	n/a
455.974	0.15	911948	keystroke_u	u	n/a
456.1395	0.1195	912279	keystroke_t	t	n/a
456.244	0.15	912488	keystroke_i	i	n/a
456.304	0.135	912608	keystroke_o	o	n/a
456.3795	0.149	912759	keystroke_n	n	n/a
456.5135	0.0905	913027	keystroke_s	s	n/a
456.619	0.135	913238	keystroke_Key.space	Key.space	n/a
456.8745	0.12	913749	keystroke_c	c	n/a
457.009	0.15	914018	keystroke_o	o	n/a
457.144	0.06	914288	keystroke_u	u	n/a
457.249	0.0755	914498	keystroke_r	r	n/a
457.3995	0.105	914799	keystroke_t	t	n/a
457.6395	0.1045	915279	keystroke_s	s	n/a
457.879	0.0905	915758	keystroke_Key.space	Key.space	n/a
458.5545	0.0445	917109	keystroke_Key.backspace	Key.backspace	n/a
458.7345	0.075	917469	keystroke_Key.enter	Key.enter	n/a
458.8135	6.4915	917627	prompt	n/a	tobacco campaigns basement qualified\n
459.574	0.0905	919148	keystroke_t	t	n/a
459.6795	0.075	919359	keystroke_o	o	n/a
459.829	0.1055	919658	keystroke_b	b	n/a
460.039	0.12	920078	keystroke_a	a	n/a
460.144	0.12	920288	keystroke_c	c	n/a
460.339	0.09	920678	keystroke_c	c	n/a
460.459	0.105	920918	keystroke_o	o	n/a
460.6095	0.1345	921219	keystroke_Key.space	Key.space	n/a
460.879	0.1205	921758	keystroke_c	c	n/a
460.97	0.1045	921940	keystroke_a	a	n/a
461.0895	0.12	922179	keystroke_m	m	n/a
461.1945	0.09	922389	keystroke_p	p	n/a
461.389	0.1055	922778	keystroke_a	a	n/a
461.5095	0.09	923019	keystroke_i	i	n/a
461.6595	0.075	923319	keystroke_g	g	n/a
461.7495	0.12	923499	keystroke_n	n	n/a
461.8845	0.105	923769	keystroke_s	s	n/a
462.1095	0.075	924219	keystroke_Key.space	Key.space	n/a
462.5745	0.1045	925149	keystroke_b	b	n/a
462.784	0.135	925568	keystroke_a	a	n/a
462.844	0.195	925688	keystroke_s	s	n/a
462.9945	0.09	925989	keystroke_e	e	n/a
463.3245	0.0895	926649	keystroke_m	m	n/a
463.3995	0.1055	926799	keystroke_e	e	n/a
463.505	0.1195	927010	keystroke_n	n	n/a
463.6095	0.0895	927219	keystroke_t	t	n/a
463.714	0.1355	927428	keystroke_Key.space	Key.space	n/a
463.9545	0.0745	927909	keystroke_q	q	n/a
464.0595	0.06	928119	keystroke_u	u	n/a
464.2545	0.1345	928509	keystroke_a	a	n/a
464.434	0.0755	928868	keystroke_l	l	n/a
464.4795	0.09	928959	keystroke_i	i	n/a
464.629	0.0755	929258	keystroke_f	f	n/a
464.7195	0.105	929439	keystroke_i	i	n/a
464.8395	0.0745	929679	keystroke_e	e	n/a
465.0345	0.09	930069	keystroke_d	d	n/a
465.29	0.0145	930580	keystroke_Key.enter	Key.enter	n/a
465.308	6.4325	930616	prompt	n/a	repairs subaru experts probably\n
466.2945	0.06	932589	keystroke_r	r	n/a
466.309	0.105	932618	keystroke_e	e	n/a
466.8045	0.1045	933609	keystroke_p	p	n/a
466.894	0.0905	933788	keystroke_a	a	n/a
467.0745	0.0745	934149	keystroke_i	i	n/a
467.164	0.1055	934328	keystroke_r	r	n/a
467.3745	0.105	934749	keystroke_s	s	n/a
467.4945	0.1195	934989	keystroke_Key.space	Key.space	n/a
467.719	0.106	935438	keystroke_s	s	n/a
467.8845	0.0445	935769	keystroke_u	u	n/a
467.944	0.0905	935888	keystroke_b	b	n/a
468.1095	0.1195	936219	keystroke_a	a	n/a
468.214	0.1355	936428	keystroke_r	r	n/a
468.4545	0.121	936909	keystroke_u	u	n/a
468.5895	0.15	937179	keystroke_Key.space	Key.space	n/a
468.814	0.06	937628	keystroke_e	e	n/a
469.0095	0.1195	938019	keystroke_x	x	n/a
469.2345	0.105	938469	keystroke_p	p	n/a
469.7745	0.105	939549	keystroke_e	e	n/a
469.8495	0.1795	939699	keystroke_r	r	n/a
470.044	0.0755	940088	keystroke_t	t	n/a
470.1645	0.075	940329	keystroke_s	s	n/a
470.2845	0.135	940569	keystroke_Key.space	Key.space	n/a
470.5245	0.075	941049	keystroke_p	p	n/a
470.629	0.0605	941258	keystroke_r	r	n/a
470.734	0.1205	941468	keystroke_o	o	n/a
470.8395	0.0895	941679	keystroke_b	b	n/a
470.9745	0.18	941949	keystroke_a	a	n/a
471.1095	0.165	942219	keystroke_b	b	n/a
471.2895	0.21	942579	keystroke_l	l	n/a
471.4545	0.0745	942909	keystroke_y	y	n/a
471.6645	0.075	943329	keystroke_Key.enter	Key.enter	n/a
471.7435	6.6865	943487	prompt	n/a	choose choice porcelain agree\n
472.3395	0.12	944679	keystroke_c	c	n/a
472.3845	0.09	944769	keystroke_h	h	n/a
472.5195	0.0755	945039	keystroke_o	o	n/a
472.669	0.1055	945338	keystroke_o	o	n/a
472.744	0.1205	945488	keystroke_s	s	n/a
472.8345	0.135	945669	keystroke_e	e	n/a
472.9845	0.105	945969	keystroke_Key.space	Key.space	n/a
473.1045	0.12	946209	keystroke_c	c	n/a
473.2095	0.0895	946419	keystroke_h	h	n/a
473.314	0.2105	946628	keystroke_o	o	n/a
473.4345	0.135	946869	keystroke_i	i	n/a
473.5995	0.195	947199	keystroke_c	c	n/a
473.7345	0.1045	947469	keystroke_e	e	n/a
473.8095	0.1495	947619	keystroke_Key.space	Key.space	n/a
474.1245	0.105	948249	keystroke_p	p	n/a
474.3645	0.06	948729	keystroke_r	r	n/a
474.844	0.0755	949688	keystroke_Key.backspace	Key.backspace	n/a
475.0845	0.105	950169	keystroke_o	o	n/a
475.204	0.0605	950408	keystroke_r	r	n/a
475.565	0.15	951130	keystroke_c	c	n/a
475.6845	0.105	951369	keystroke_e	e	n/a
475.8945	0.1345	951789	keystroke_l	l	n/a
476.044	0.0755	952088	keystroke_a	a	n/a
476.1945	0.21	952389	keystroke_i	i	n/a
476.2995	0.15	952599	keystroke_n	n	n/a
476.4645	0.105	952929	keystroke_Key.space	Key.space	n/a
476.959	0.1505	953918	keystroke_g	g	n/a
477.4245	0.045	954849	keystroke_Key.backspace	Key.backspace	n/a
477.514	0.0905	955028	keystroke_a	a	n/a
477.5595	0.105	955119	keystroke_g	g	n/a
477.769	0.1355	955538	keystroke_r	r	n/a
477.8745	0.0755	955749	keystroke_e	e	n/a
478.0395	0.1045	956079	keystroke_e	e	n/a
478.3545	0.0745	956709	keystroke_Key.enter	Key.enter	n/a
478.434	5.3815	956868	prompt	n/a	equal why's christine rank\n
479.1195	0.105	958239	keystroke_e	e	n/a
479.2395	0.1045	958479	keystroke_q	q	n/a
479.3895	0.09	958779	keystroke_u	u	n/a
479.5245	0.15	959049	keystroke_a	a	n/a
479.6595	0.195	959319	keystroke_l	l	n/a
479.7795	0.1205	959559	keystroke_Key.space	Key.space	n/a
480.035	0.0895	960070	keystroke_w	w	n/a
480.1095	0.06	960219	keystroke_h	h	n/a
480.2745	0.0445	960549	keystroke_y	y	n/a
480.4845	0.075	960969	keystroke_'	'	n/a
480.5745	0.12	961149	keystroke_s	s	n/a
480.7095	0.1345	961419	keystroke_Key.space	Key.space	n/a
481.0095	0.15	962019	keystroke_c	c	n/a
481.144	0.1055	962288	keystroke_h	h	n/a
481.729	0.0455	963458	keystroke_r	r	n/a
481.8795	0.09	963759	keystroke_i	i	n/a
481.9845	0.105	963969	keystroke_s	s	n/a
482.0895	0.09	964179	keystroke_t	t	n/a
482.344	0.1205	964688	keystroke_i	i	n/a
482.3895	0.15	964779	keystroke_n	n	n/a
482.5545	0.0745	965109	keystroke_e	e	n/a
482.644	0.1355	965288	keystroke_Key.space	Key.space	n/a
483.0795	0.075	966159	keystroke_r	r	n/a
483.229	0.0915	966458	keystroke_a	a	n/a
483.3645	0.1495	966729	keystroke_n	n	n/a
483.529	0.1055	967058	keystroke_k	k	n/a
483.7245	0.0895	967449	keystroke_Key.enter	Key.enter	n/a
483.819	7.3765	967638	prompt	n/a	be stationery newsletter ambassador\n
484.5495	0.075	969099	keystroke_b	b	n/a
484.729	0.075	969458	keystroke_e	e	n/a
484.8345	0.105	969669	keystroke_Key.space	Key.space	n/a
485.044	0.0305	970088	keystroke_s	s	n/a
485.0595	0.12	970119	keystroke_t	t	n/a
485.1945	0.1345	970389	keystroke_a	a	n/a
485.2995	0.105	970599	keystroke_t	t	n/a
485.449	0.106	970898	keystroke_i	i	n/a
485.5095	0.195	971019	keystroke_o	o	n/a
485.644	0.1205	971288	keystroke_n	n	n/a
486.1395	0.1945	972279	keystroke_e	e	n/a
486.319	0.0905	972638	keystroke_r	r	n/a
486.4245	0.1195	972849	keystroke_y	y	n/a
486.529	0.1355	973058	keystroke_Key.space	Key.space	n/a
487.0845	0.135	974169	keystroke_n	n	n/a
487.1745	0.135	974349	keystroke_e	e	n/a
487.2945	0.0895	974589	keystroke_w	w	n/a
487.4895	0.075	974979	keystroke_s	s	n/a
487.5945	0.1195	975189	keystroke_l	l	n/a
487.729	0.1055	975458	keystroke_e	e	n/a
487.9095	0.075	975819	keystroke_t	t	n/a
488.0905	0.074	976181	keystroke_t	t	n/a
488.24	0.1505	976480	keystroke_e	e	n/a
488.314	0.1355	976628	keystroke_r	r	n/a
488.4345	0.105	976869	keystroke_Key.space	Key.space	n/a
488.69	0.1345	977380	keystroke_a	a	n/a
488.8995	0.135	977799	keystroke_m	m	n/a
489.0495	0.105	978099	keystroke_b	b	n/a
489.229	0.1355	978458	keystroke_a	a	n/a
489.4395	0.0745	978879	keystroke_d	d	n/a
489.919	0.03	979838	keystroke_Key.backspace	Key.backspace	n/a
489.934	0.1055	979868	keystroke_s	s	n/a
490.144	0.1205	980288	keystroke_s	s	n/a
490.3695	0.105	980739	keystroke_a	a	n/a
490.6245	0.135	981249	keystroke_d	d	n/a
490.8045	0.135	981609	keystroke_o	o	n/a
490.9245	0.1045	981849	keystroke_r	r	n/a
491.0755	0.119	982151	keystroke_Key.enter	Key.enter	n/a
491.2005	9.2795	982401	prompt	n/a	joshua similar systematic really\n
492.514	0.0905	985028	keystroke_j	j	n/a
493.3245	0.0745	986649	keystroke_o	o	n/a
493.4895	0.06	986979	keystroke_s	s	n/a
493.6995	0.075	987399	keystroke_h	h	n/a
493.9105	0.044	987821	keystroke_u	u	n/a
494.285	0.09	988570	keystroke_a	a	n/a
494.704	0.1055	989408	keystroke_Key.space	Key.space	n/a
494.914	0.1205	989828	keystroke_s	s	n/a
495.1095	0.1195	990219	keystroke_i	i	n/a
495.244	0.1955	990488	keystroke_m	m	n/a
495.4695	0.0745	990939	keystroke_i	i	n/a
495.5895	0.1195	991179	keystroke_l	l	n/a
496.1895	0.18	992379	keystroke_a	a	n/a
496.2945	0.1195	992589	keystroke_r	r	n/a
496.429	0.1355	992858	keystroke_Key.space	Key.space	n/a
496.9245	0.1045	993849	keystroke_s	s	n/a
497.044	0.0755	994088	keystroke_y	y	n/a
497.1195	0.075	994239	keystroke_s	s	n/a
497.2395	0.12	994479	keystroke_t	t	n/a
497.314	0.0905	994628	keystroke_e	e	n/a
497.4195	0.135	994839	keystroke_m	m	n/a
497.5845	0.12	995169	keystroke_a	a	n/a
497.8395	0.135	995679	keystroke_i	i	n/a
497.929	0.1055	995858	keystroke_t	t	n/a
498.529	0.0455	997058	keystroke_Key.backspace	Key.backspace	n/a
498.6345	0.075	997269	keystroke_Key.backspace	Key.backspace	n/a
498.7245	0.1045	997449	keystroke_t	t	n/a
498.844	0.105	997688	keystroke_i	i	n/a
499.0395	0.195	998079	keystroke_c	c	n/a
499.2495	0.135	998499	keystroke_Key.space	Key.space	n/a
499.5945	0.1205	999189	keystroke_r	r	n/a
499.729	0.0605	999458	keystroke_e	e	n/a
499.865	0.0745	999730	keystroke_a	a	n/a
499.9845	0.0445	999969	keystroke_l	l	n/a
500.1045	0.15	1000209	keystroke_l	l	n/a
500.1945	0.075	1000389	keystroke_y	y	n/a
500.4045	0.0745	1000809	keystroke_Key.enter	Key.enter	n/a
500.4835	5.6675	1000967	prompt	n/a	leader theories wrist source\n
501.1095	0.15	1002219	keystroke_l	l	n/a
501.244	0.0905	1002488	keystroke_e	e	n/a
501.3495	0.135	1002699	keystroke_a	a	n/a
501.5	0.1045	1003000	keystroke_d	d	n/a
501.7095	0.09	1003419	keystroke_e	e	n/a
501.7845	0.12	1003569	keystroke_r	r	n/a
501.9495	0.075	1003899	keystroke_Key.space	Key.space	n/a
502.129	0.0755	1004258	keystroke_t	t	n/a
502.25	0.1195	1004500	keystroke_h	h	n/a
502.3845	0.075	1004769	keystroke_e	e	n/a
502.5345	0.105	1005069	keystroke_o	o	n/a
502.746	0.1335	1005492	keystroke_r	r	n/a
502.9245	0.075	1005849	keystroke_i	i	n/a
503.4045	0.075	1006809	keystroke_e	e	n/a
503.614	0.1055	1007228	keystroke_s	s	n/a
503.8245	0.135	1007649	keystroke_Key.space	Key.space	n/a
504.0945	0.105	1008189	keystroke_w	w	n/a
504.214	0.1205	1008428	keystroke_r	r	n/a
504.3495	0.075	1008699	keystroke_i	i	n/a
504.529	0.1055	1009058	keystroke_s	s	n/a
504.6345	0.075	1009269	keystroke_t	t	n/a
504.7545	0.135	1009509	keystroke_Key.space	Key.space	n/a
504.9945	0.0745	1009989	keystroke_s	s	n/a
505.114	0.2255	1010228	keystroke_o	o	n/a
505.2195	0.105	1010439	keystroke_u	u	n/a
505.3845	0.105	1010769	keystroke_r	r	n/a
505.6545	0.21	1011309	keystroke_c	c	n/a
505.82	0.1195	1011640	keystroke_e	e	n/a
506.044	0.1055	1012088	keystroke_Key.enter	Key.enter	n/a
506.155	5.3805	1012310	prompt	n/a	value karaoke vendor sites\n
507.064	0.1205	1014128	keystroke_v	v	n/a
507.1705	0.149	1014341	keystroke_a	a	n/a
507.3345	0.15	1014669	keystroke_l	l	n/a
507.4095	0.09	1014819	keystroke_u	u	n/a
507.514	0.0755	1015028	keystroke_e	e	n/a
507.6045	0.09	1015209	keystroke_Key.space	Key.space	n/a
507.8595	0.12	1015719	keystroke_k	k	n/a
507.9645	0.105	1015929	keystroke_a	a	n/a
508.0545	0.105	1016109	keystroke_r	r	n/a
508.144	0.1205	1016288	keystroke_a	a	n/a
508.4595	0.105	1016919	keystroke_o	o	n/a
508.714	0.1205	1017428	keystroke_k	k	n/a
508.8195	0.12	1017639	keystroke_e	e	n/a
509.0745	0.135	1018149	keystroke_Key.space	Key.space	n/a
509.255	0.1045	1018510	keystroke_v	v	n/a
509.8545	0.0745	1019709	keystroke_e	e	n/a
509.9745	0.105	1019949	keystroke_n	n	n/a
510.0945	0.105	1020189	keystroke_d	d	n/a
510.244	0.1055	1020488	keystroke_o	o	n/a
510.3645	0.105	1020729	keystroke_r	r	n/a
510.4845	0.135	1020969	keystroke_Key.space	Key.space	n/a
510.6945	0.105	1021389	keystroke_s	s	n/a
510.814	0.076	1021628	keystroke_i	i	n/a
510.9345	0.09	1021869	keystroke_t	t	n/a
511.129	0.075	1022258	keystroke_e	e	n/a
511.2795	0.105	1022559	keystroke_s	s	n/a
511.429	0.1055	1022858	keystroke_Key.enter	Key.enter	n/a
511.5385	6.192	1023077	prompt	n/a	kirk layers banks scratch\n
512.449	0.0905	1024898	keystroke_i	i	n/a
513.125	0.0445	1026250	keystroke_Key.backspace	Key.backspace	n/a
513.3345	0.045	1026669	keystroke_k	k	n/a
513.4845	0.0445	1026969	keystroke_i	i	n/a
513.5745	0.09	1027149	keystroke_r	r	n/a
513.6795	0.1645	1027359	keystroke_k	k	n/a
513.844	0.1055	1027688	keystroke_Key.space	Key.space	n/a
514.0545	0.0895	1028109	keystroke_l	l	n/a
514.129	0.0905	1028258	keystroke_a	a	n/a
514.264	0.0905	1028528	keystroke_y	y	n/a
514.3695	0.1645	1028739	keystroke_e	e	n/a
514.4745	0.105	1028949	keystroke_r	r	n/a
514.6845	0.105	1029369	keystroke_s	s	n/a
514.8345	0.135	1029669	keystroke_Key.space	Key.space	n/a
515.3745	0.105	1030749	keystroke_b	b	n/a
515.5545	0.0745	1031109	keystroke_a	a	n/a
515.644	0.1505	1031288	keystroke_n	n	n/a
515.7795	0.12	1031559	keystroke_k	k	n/a
515.914	0.1055	1031828	keystroke_s	s	n/a
516.0945	0.105	1032189	keystroke_Key.space	Key.space	n/a
516.3645	0.045	1032729	keystroke_s	s	n/a
516.6345	0.105	1033269	keystroke_c	c	n/a
516.814	0.1355	1033628	keystroke_r	r	n/a
516.9645	0.1495	1033929	keystroke_a	a	n/a
517.0695	0.09	1034139	keystroke_t	t	n/a
517.3245	0.1495	1034649	keystroke_c	c	n/a
517.459	0.0905	1034918	keystroke_h	h	n/a
517.6545	0.0745	1035309	keystroke_Key.enter	Key.enter	n/a
517.7335	7.4515	1035467	prompt	n/a	military colony studied christmas\n
518.674	0.06	1037348	keystroke_m	m	n/a
518.749	0.1055	1037498	keystroke_i	i	n/a
518.8995	0.18	1037799	keystroke_l	l	n/a
519.0345	0.0895	1038069	keystroke_i	i	n/a
519.5595	0.105	1039119	keystroke_t	t	n/a
519.7695	0.12	1039539	keystroke_a	a	n/a
519.844	0.1205	1039688	keystroke_r	r	n/a
520.009	0.0905	1040018	keystroke_y	y	n/a
520.0995	0.105	1040199	keystroke_Key.space	Key.space	n/a
520.2495	0.1495	1040499	keystroke_c	c	n/a
520.384	0.06	1040768	keystroke_o	o	n/a
520.5795	0.0445	1041159	keystroke_l	l	n/a
520.6995	0.1045	1041399	keystroke_o	o	n/a
520.9095	0.0745	1041819	keystroke_n	n	n/a
521.0895	0.105	1042179	keystroke_y	y	n/a
521.2095	0.1045	1042419	keystroke_Key.space	Key.space	n/a
521.7195	0.105	1043439	keystroke_s	s	n/a
521.8245	0.1045	1043649	keystroke_t	t	n/a
521.974	0.0755	1043948	keystroke_u	u	n/a
522.0795	0.18	1044159	keystroke_d	d	n/a
522.4545	0.1045	1044909	keystroke_i	i	n/a
522.7845	0.0145	1045569	keystroke_e	e	n/a
522.8745	0.075	1045749	keystroke_d	d	n/a
523.0245	0.1045	1046049	keystroke_Key.space	Key.space	n/a
523.429	0.1505	1046858	keystroke_c	c	n/a
523.5345	0.09	1047069	keystroke_h	h	n/a
523.9095	0.075	1047819	keystroke_r	r	n/a
524.0595	0.105	1048119	keystroke_i	i	n/a
524.1795	0.105	1048359	keystroke_s	s	n/a
524.2995	0.1055	1048599	keystroke_t	t	n/a
524.4495	0.135	1048899	keystroke_m	m	n/a
524.6	0.074	1049200	keystroke_a	a	n/a
524.809	0.105	1049618	keystroke_s	s	n/a
