onset	duration	sample	value	key	prompt_text
33.1935	0.089	66387	keystroke_a	a	n/a
33.268	0.0745	66536	keystroke_l	l	n/a
33.358	0.1045	66716	keystroke_a	a	n/a
33.418	0.0895	66836	keystroke_n	n	n/a
33.523	0.0745	67046	keystroke_d	d	n/a
33.613	0.0595	67226	keystroke_u	u	n/a
33.718	0.0895	67436	keystroke_Key.tab	Key.tab	n/a
36.7475	0.135	73495	keystroke_o	o	n/a
36.793	0.1045	73586	keystroke_n	n	n/a
36.928	0.15	73856	keystroke_Key.shift	Key.shift	n/a
37.0025	0.06	74005	keystroke__	_	n/a
37.153	0.0895	74306	keystroke_k	k	n/a
37.213	0.1045	74426	keystroke_e	e	n/a
37.333	0.0895	74666	keystroke_y	y	n/a
37.408	0.1195	74816	keystroke_b	b	n/a
37.498	0.0895	74996	keystroke_o	o	n/a
37.618	0.1345	75236	keystroke_a	a	n/a
37.6785	0.1645	75357	keystroke_r	r	n/a
37.858	0.1045	75716	keystroke_d	d	n/a
37.918	0.1045	75836	keystroke_Key.space	Key.space	n/a
38.0075	0.1055	76015	keystroke_p	p	n/a
38.143	0.0745	76286	keystroke_r	r	n/a
38.188	0.0895	76376	keystroke_o	o	n/a
38.293	0.0895	76586	keystroke_t	t	n/a
38.398	0.0745	76796	keystroke_o	o	n/a
38.458	0.12	76916	keystroke_c	c	n/a
38.548	0.0745	77096	keystroke_o	o	n/a
38.713	0.0895	77426	keystroke_l	l	n/a
38.848	0.0595	77696	keystroke_Key.space	Key.space	n/a
38.968	0.0895	77936	keystroke_6	6	n/a
39.088	0.0745	78176	keystroke_.	.	n/a
39.163	0.0895	78326	keystroke_3	3	n/a
43.744	4.483	87488	prompt	n/a	the quick brown fox jumps over a lazy dog\n
44.563	0.1045	89126	keystroke_t	t	n/a
44.623	0.075	89246	keystroke_h	h	n/a
44.713	0.0745	89426	keystroke_e	e	n/a
44.773	0.0745	89546	keystroke_Key.space	Key.space	n/a
44.833	0.1045	89666	keystroke_q	q	n/a
44.923	0.12	89846	keystroke_u	u	n/a
44.998	0.0745	89996	keystroke_i	i	n/a
45.058	0.1645	90116	keystroke_c	c	n/a
45.178	0.1045	90356	keystroke_k	k	n/a
45.268	0.09	90536	keystroke_Key.space	Key.space	n/a
45.3435	0.074	90687	keystroke_b	b	n/a
45.523	0.1195	91046	keystroke_r	r	n/a
45.583	0.09	91166	keystroke_o	o	n/a
45.658	0.15	91316	keystroke_w	w	n/a
45.748	0.0895	91496	keystroke_n	n	n/a
45.823	0.0895	91646	keystroke_Key.space	Key.space	n/a
45.898	0.0745	91796	keystroke_f	f	n/a
45.943	0.1045	91886	keystroke_o	o	n/a
46.033	0.0895	92066	keystroke_x	x	n/a
46.078	0.1045	92156	keystroke_Key.space	Key.space	n/a
46.138	0.0595	92276	keystroke_j	j	n/a
46.273	0.0745	92546	keystroke_u	u	n/a
46.453	0.0895	92906	keystroke_m	m	n/a
46.5285	0.1195	93057	keystroke_p	p	n/a
46.633	0.0895	93266	keystroke_s	s	n/a
46.693	0.105	93386	keystroke_Key.space	Key.space	n/a
46.753	0.1045	93506	keystroke_o	o	n/a
46.813	0.1045	93626	keystroke_v	v	n/a
46.963	0.1195	93926	keystroke_e	e	n/a
47.023	0.1195	94046	keystroke_r	r	n/a
47.098	0.0895	94196	keystroke_Key.space	Key.space	n/a
47.173	0.1495	94346	keystroke_a	a	n/a
47.293	0.1045	94586	keystroke_Key.space	Key.space	n/a
47.3835	0.0745	94767	keystroke_l	l	n/a
47.4585	0.089	94917	keystroke_a	a	n/a
47.638	0.1645	95276	keystroke_z	z	n/a
47.683	0.1045	95366	keystroke_y	y	n/a
47.818	0.0595	95636	keystroke_Key.space	Key.space	n/a
47.893	0.1195	95786	keystroke_d	d	n/a
47.968	0.0745	95936	keystroke_o	o	n/a
48.0585	0.059	96117	keystroke_g	g	n/a
48.148	0.0745	96296	keystroke_Key.enter	Key.enter	n/a
48.235	4.235	96470	prompt	n/a	herald expects suggested jacksonville\n
48.8085	0.104	97617	keystroke_h	h	n/a
48.898	0.1345	97796	keystroke_e	e	n/a
48.973	0.1345	97946	keystroke_r	r	n/a
49.078	0.12	98156	keystroke_a	a	n/a
49.153	0.0895	98306	keystroke_l	l	n/a
49.228	0.1195	98456	keystroke_d	d	n/a
49.333	0.0895	98666	keystroke_Key.space	Key.space	n/a
49.438	0.0745	98876	keystroke_e	e	n/a
49.5585	0.119	99117	keystroke_x	x	n/a
49.693	0.0895	99386	keystroke_p	p	n/a
49.753	0.09	99506	keystroke_e	e	n/a
49.918	0.09	99836	keystroke_c	c	n/a
50.069	0.0885	100138	keystroke_t	t	n/a
50.1435	0.089	100287	keystroke_s	s	n/a
50.203	0.0745	100406	keystroke_Key.space	Key.space	n/a
50.3085	0.104	100617	keystroke_s	s	n/a
50.398	0.0745	100796	keystroke_u	u	n/a
50.488	0.0745	100976	keystroke_g	g	n/a
50.638	0.0895	101276	keystroke_g	g	n/a
50.743	0.1495	101486	keystroke_e	e	n/a
50.803	0.1345	101606	keystroke_s	s	n/a
50.878	0.1345	101756	keystroke_t	t	n/a
50.968	0.09	101936	keystroke_e	e	n/a
51.118	0.0895	102236	keystroke_d	d	n/a
51.163	0.1195	102326	keystroke_Key.space	Key.space	n/a
51.253	0.1045	102506	keystroke_j	j	n/a
51.343	0.0895	102686	keystroke_a	a	n/a
51.448	0.0895	102896	keystroke_c	c	n/a
51.508	0.0745	103016	keystroke_k	k	n/a
51.613	0.1345	103226	keystroke_s	s	n/a
51.703	0.105	103406	keystroke_o	o	n/a
51.748	0.1045	103496	keystroke_n	n	n/a
51.838	0.1045	103676	keystroke_v	v	n/a
51.928	0.0595	103856	keystroke_i	i	n/a
52.063	0.0595	104126	keystroke_l	l	n/a
52.1835	0.0745	104367	keystroke_l	l	n/a
52.273	0.0745	104546	keystroke_e	e	n/a
52.378	0.0895	104756	keystroke_Key.enter	Key.enter	n/a
52.478	6.1575	104956	prompt	n/a	adelaide feedback recording gets\n
53.068	0.1195	106136	keystroke_a	a	n/a
53.173	0.0895	106346	keystroke_d	d	n/a
53.338	0.0895	106676	keystroke_e	e	n/a
53.4585	0.119	106917	keystroke_l	l	n/a
53.593	0.0445	107186	keystroke_e	e	n/a
53.848	0.0745	107696	keystroke_Key.backspace	Key.backspace	n/a
54.028	0.1045	108056	keystroke_a	a	n/a
54.118	0.0745	108236	keystroke_i	i	n/a
54.208	0.0745	108416	keystroke_d	d	n/a
54.3585	0.074	108717	keystroke_e	e	n/a
54.418	0.0895	108836	keystroke_Key.space	Key.space	n/a
54.5235	0.074	109047	keystroke_f	f	n/a
54.583	0.075	109166	keystroke_e	e	n/a
54.703	0.09	109406	keystroke_e	e	n/a
54.883	0.0595	109766	keystroke_d	d	n/a
55.003	0.1045	110006	keystroke_b	b	n/a
55.078	0.1195	110156	keystroke_a	a	n/a
55.168	0.1645	110336	keystroke_c	c	n/a
55.273	0.0745	110546	keystroke_k	k	n/a
55.363	0.1045	110726	keystroke_Key.space	Key.space	n/a
55.483	0.1195	110966	keystroke_r	r	n/a
55.588	0.0595	111176	keystroke_e	e	n/a
55.768	0.0595	111536	keystroke_c	c	n/a
55.828	0.0895	111656	keystroke_o	o	n/a
56.0235	0.104	112047	keystroke_d	d	n/a
56.173	0.1195	112346	keystroke_i	i	n/a
56.233	0.1195	112466	keystroke_n	n	n/a
56.368	0.105	112736	keystroke_g	g	n/a
56.533	0.0745	113066	keystroke_Key.space	Key.space	n/a
56.953	0.06	113906	keystroke_Key.backspace	Key.backspace	n/a
57.088	0.0745	114176	keystroke_Key.backspace	Key.backspace	n/a
57.223	0.0745	114446	keystroke_Key.backspace	Key.backspace	n/a
57.388	0.0445	114776	keystroke_Key.backspace	Key.backspace	n/a
57.538	0.0595	115076	keystroke_Key.backspace	Key.backspace	n/a
57.688	0.105	115376	keystroke_r	r	n/a
57.808	0.0895	115616	keystroke_d	d	n/a
57.943	0.075	115886	keystroke_i	i	n/a
57.973	0.0895	115946	keystroke_n	n	n/a
58.033	0.0895	116066	keystroke_g	g	n/a
58.108	0.0745	116216	keystroke_Key.space	Key.space	n/a
58.198	0.09	116396	keystroke_g	g	n/a
58.303	0.105	116606	keystroke_e	e	n/a
58.378	0.0895	116756	keystroke_t	t	n/a
58.438	0.1045	116876	keystroke_s	s	n/a
58.558	0.0745	117116	keystroke_Key.enter	Key.enter	n/a
58.643	3.082	117286	prompt	n/a	cream obtained blog pumps\n
59.203	0.0895	118406	keystroke_c	c	n/a
59.383	0.0895	118766	keystroke_r	r	n/a
59.428	0.1045	118856	keystroke_e	e	n/a
59.503	0.1345	119006	keystroke_a	a	n/a
59.593	0.0895	119186	keystroke_m	m	n/a
59.698	0.0895	119396	keystroke_Key.space	Key.space	n/a
59.803	0.105	119606	keystroke_o	o	n/a
59.893	0.0745	119786	keystroke_b	b	n/a
60.0585	0.104	120117	keystroke_t	t	n/a
60.148	0.1195	120296	keystroke_a	a	n/a
60.223	0.1195	120446	keystroke_i	i	n/a
60.283	0.0895	120566	keystroke_n	n	n/a
60.313	0.0745	120626	keystroke_e	e	n/a
60.448	0.1045	120896	keystroke_d	d	n/a
60.538	0.0595	121076	keystroke_Key.space	Key.space	n/a
60.628	0.0895	121256	keystroke_b	b	n/a
60.718	0.0595	121436	keystroke_l	l	n/a
60.868	0.0745	121736	keystroke_o	o	n/a
60.913	0.0895	121826	keystroke_g	g	n/a
60.9735	0.104	121947	keystroke_Key.space	Key.space	n/a
61.063	0.1045	122126	keystroke_p	p	n/a
61.1235	0.089	122247	keystroke_u	u	n/a
61.318	0.1045	122636	keystroke_m	m	n/a
61.393	0.0895	122786	keystroke_p	p	n/a
61.513	0.0745	123026	keystroke_s	s	n/a
61.648	0.075	123296	keystroke_Key.enter	Key.enter	n/a
61.733	3.9815	123466	prompt	n/a	friendly saying physically cards\n
62.338	0.075	124676	keystroke_f	f	n/a
62.4735	0.119	124947	keystroke_r	r	n/a
62.578	0.0745	125156	keystroke_i	i	n/a
62.683	0.0745	125366	keystroke_e	e	n/a
62.743	0.0895	125486	keystroke_n	n	n/a
62.848	0.105	125696	keystroke_d	d	n/a
62.938	0.0895	125876	keystroke_l	l	n/a
62.983	0.1045	125966	keystroke_y	y	n/a
63.043	0.0895	126086	keystroke_Key.space	Key.space	n/a
63.148	0.09	126296	keystroke_s	s	n/a
63.2235	0.149	126447	keystroke_a	a	n/a
63.343	0.0595	126686	keystroke_y	y	n/a
63.433	0.1195	126866	keystroke_i	i	n/a
63.508	0.1045	127016	keystroke_n	n	n/a
63.598	0.0895	127196	keystroke_g	g	n/a
63.658	0.0895	127316	keystroke_Key.space	Key.space	n/a
63.718	0.105	127436	keystroke_p	p	n/a
63.778	0.1045	127556	keystroke_h	h	n/a
64.033	0.1045	128066	keystroke_y	y	n/a
64.348	0.0895	128696	keystroke_s	s	n/a
64.453	0.0895	128906	keystroke_i	i	n/a
64.5735	0.059	129147	keystroke_c	c	n/a
64.633	0.1345	129266	keystroke_a	a	n/a
64.708	0.0745	129416	keystroke_l	l	n/a
64.858	0.105	129716	keystroke_l	l	n/a
64.918	0.09	129836	keystroke_y	y	n/a
64.993	0.0895	129986	keystroke_Key.space	Key.space	n/a
65.113	0.0895	130226	keystroke_c	c	n/a
65.218	0.1195	130436	keystroke_a	a	n/a
65.308	0.0895	130616	keystroke_r	r	n/a
65.413	0.1045	130826	keystroke_d	d	n/a
65.4735	0.104	130947	keystroke_s	s	n/a
65.6235	0.089	131247	keystroke_Key.enter	Key.enter	n/a
65.723	3.412	131446	prompt	n/a	hair payment yukon hotmail\n
66.253	0.0745	132506	keystroke_h	h	n/a
66.313	0.1495	132626	keystroke_a	a	n/a
66.418	0.0895	132836	keystroke_i	i	n/a
66.478	0.1045	132956	keystroke_r	r	n/a
66.553	0.0895	133106	keystroke_Key.space	Key.space	n/a
66.598	0.09	133196	keystroke_p	p	n/a
66.703	0.1495	133406	keystroke_a	a	n/a
66.793	0.0745	133586	keystroke_y	y	n/a
67.003	0.0895	134006	keystroke_m	m	n/a
67.138	0.1195	134276	keystroke_e	e	n/a
67.228	0.1195	134456	keystroke_n	n	n/a
67.333	0.0895	134666	keystroke_t	t	n/a
67.378	0.105	134756	keystroke_Key.space	Key.space	n/a
67.498	0.09	134996	keystroke_y	y	n/a
67.663	0.0895	135326	keystroke_u	u	n/a
67.858	0.0895	135716	keystroke_k	k	n/a
67.993	0.1045	135986	keystroke_o	o	n/a
68.068	0.0895	136136	keystroke_n	n	n/a
68.203	0.0745	136406	keystroke_Key.space	Key.space	n/a
68.308	0.0895	136616	keystroke_h	h	n/a
68.458	0.0745	136916	keystroke_o	o	n/a
68.548	0.1045	137096	keystroke_t	t	n/a
68.639	0.104	137278	keystroke_m	m	n/a
68.758	0.0895	137516	keystroke_a	a	n/a
68.818	0.0895	137636	keystroke_i	i	n/a
68.8635	0.089	137727	keystroke_l	l	n/a
69.058	0.0745	138116	keystroke_Key.enter	Key.enter	n/a
69.153	2.787	138306	prompt	n/a	twin copied game shopper\n
69.7185	0.104	139437	keystroke_t	t	n/a
69.808	0.1345	139616	keystroke_w	w	n/a
69.868	0.1195	139736	keystroke_i	i	n/a
69.958	0.0745	139916	keystroke_n	n	n/a
70.018	0.0745	140036	keystroke_Key.space	Key.space	n/a
70.138	0.0895	140276	keystroke_c	c	n/a
70.198	0.1345	140396	keystroke_o	o	n/a
70.273	0.1195	140546	keystroke_p	p	n/a
70.378	0.1045	140756	keystroke_i	i	n/a
70.438	0.0895	140876	keystroke_e	e	n/a
70.603	0.084	141206	keystroke_d	d	n/a
70.687	0.0655	141374	keystroke_Key.space	Key.space	n/a
70.739	0.1185	141478	keystroke_g	g	n/a
70.843	0.1345	141686	keystroke_a	a	n/a
70.933	0.1045	141866	keystroke_m	m	n/a
71.008	0.1055	142016	keystroke_e	e	n/a
71.083	0.076	142166	keystroke_Key.space	Key.space	n/a
71.1745	0.103	142349	keystroke_s	s	n/a
71.233	0.1195	142466	keystroke_h	h	n/a
71.3385	0.074	142677	keystroke_o	o	n/a
71.398	0.0745	142796	keystroke_p	p	n/a
71.548	0.0895	143096	keystroke_p	p	n/a
71.668	0.1045	143336	keystroke_e	e	n/a
71.743	0.075	143486	keystroke_r	r	n/a
71.863	0.075	143726	keystroke_Key.enter	Key.enter	n/a
71.9505	4.384	143901	prompt	n/a	underwear hiking retreat darwin\n
72.598	0.0745	145196	keystroke_u	u	n/a
72.7635	0.089	145527	keystroke_n	n	n/a
72.8385	0.074	145677	keystroke_d	d	n/a
73.003	0.0895	146006	keystroke_e	e	n/a
73.0485	0.119	146097	keystroke_r	r	n/a
73.153	0.1495	146306	keystroke_w	w	n/a
73.2735	0.104	146547	keystroke_e	e	n/a
73.468	0.1345	146936	keystroke_a	a	n/a
73.543	0.15	147086	keystroke_r	r	n/a
73.633	0.105	147266	keystroke_Key.space	Key.space	n/a
73.7525	0.105	147505	keystroke_h	h	n/a
73.828	0.0895	147656	keystroke_i	i	n/a
73.978	0.0895	147956	keystroke_k	k	n/a
74.173	0.0895	148346	keystroke_i	i	n/a
74.203	0.1045	148406	keystroke_n	n	n/a
74.263	0.1045	148526	keystroke_g	g	n/a
74.353	0.075	148706	keystroke_Key.space	Key.space	n/a
74.458	0.1195	148916	keystroke_r	r	n/a
74.533	0.1645	149066	keystroke_e	e	n/a
74.6835	0.089	149367	keystroke_t	t	n/a
74.848	0.1345	149696	keystroke_r	r	n/a
74.893	0.1645	149786	keystroke_e	e	n/a
75.013	0.1495	150026	keystroke_a	a	n/a
75.073	0.1195	150146	keystroke_t	t	n/a
75.148	0.0895	150296	keystroke_Key.space	Key.space	n/a
75.268	0.1195	150536	keystroke_d	d	n/a
75.628	0.135	151256	keystroke_a	a	n/a
75.748	0.105	151496	keystroke_r	r	n/a
75.868	0.1345	151736	keystroke_w	w	n/a
75.9885	0.119	151977	keystroke_i	i	n/a
76.048	0.0895	152096	keystroke_n	n	n/a
76.258	0.0745	152516	keystroke_Key.enter	Key.enter	n/a
76.3435	3.7865	152687	prompt	n/a	bhutan systems floating giants\n
77.023	0.1195	154046	keystroke_b	b	n/a
77.158	0.0595	154316	keystroke_h	h	n/a
77.323	0.0895	154646	keystroke_u	u	n/a
77.398	0.09	154796	keystroke_t	t	n/a
77.504	0.164	155008	keystroke_a	a	n/a
77.608	0.1045	155216	keystroke_n	n	n/a
77.728	0.0895	155456	keystroke_Key.space	Key.space	n/a
77.863	0.1045	155726	keystroke_s	s	n/a
77.9535	0.089	155907	keystroke_y	y	n/a
78.058	0.0745	156116	keystroke_s	s	n/a
78.148	0.0895	156296	keystroke_t	t	n/a
78.193	0.12	156386	keystroke_e	e	n/a
78.299	0.0885	156598	keystroke_m	m	n/a
78.3885	0.119	156777	keystroke_s	s	n/a
78.493	0.0745	156986	keystroke_Key.space	Key.space	n/a
78.583	0.1045	157166	keystroke_f	f	n/a
78.688	0.0745	157376	keystroke_l	l	n/a
78.8535	0.074	157707	keystroke_o	o	n/a
78.943	0.1495	157886	keystroke_a	a	n/a
79.078	0.0895	158156	keystroke_t	t	n/a
79.1535	0.104	158307	keystroke_i	i	n/a
79.213	0.09	158426	keystroke_n	n	n/a
79.2885	0.104	158577	keystroke_g	g	n/a
79.378	0.0595	158756	keystroke_Key.space	Key.space	n/a
79.453	0.1045	158906	keystroke_g	g	n/a
79.543	0.0745	159086	keystroke_i	i	n/a
79.633	0.1795	159266	keystroke_a	a	n/a
79.738	0.0895	159476	keystroke_n	n	n/a
79.843	0.0745	159686	keystroke_t	t	n/a
79.8885	0.104	159777	keystroke_s	s	n/a
80.038	0.0895	160076	keystroke_Key.enter	Key.enter	n/a
80.1375	3.1425	160275	prompt	n/a	founder username feels vote\n
80.698	0.1045	161396	keystroke_f	f	n/a
80.773	0.0895	161546	keystroke_o	o	n/a
80.818	0.1045	161636	keystroke_u	u	n/a
80.998	0.09	161996	keystroke_n	n	n/a
81.073	0.06	162146	keystroke_d	d	n/a
81.193	0.1345	162386	keystroke_e	e	n/a
81.268	0.1345	162536	keystroke_r	r	n/a
81.313	0.1195	162626	keystroke_Key.space	Key.space	n/a
81.448	0.0895	162896	keystroke_u	u	n/a
81.5535	0.134	163107	keystroke_s	s	n/a
81.628	0.1045	163256	keystroke_e	e	n/a
81.688	0.1195	163376	keystroke_r	r	n/a
81.778	0.105	163556	keystroke_n	n	n/a
81.898	0.1345	163796	keystroke_a	a	n/a
81.958	0.12	163916	keystroke_m	m	n/a
82.063	0.09	164126	keystroke_e	e	n/a
82.138	0.0595	164276	keystroke_Key.space	Key.space	n/a
82.198	0.0895	164396	keystroke_f	f	n/a
82.273	0.06	164546	keystroke_e	e	n/a
82.4085	0.119	164817	keystroke_e	e	n/a
82.543	0.09	165086	keystroke_l	l	n/a
82.618	0.1345	165236	keystroke_s	s	n/a
82.723	0.0895	165446	keystroke_Key.space	Key.space	n/a
82.858	0.1045	165716	keystroke_v	v	n/a
82.948	0.0745	165896	keystroke_o	o	n/a
83.0535	0.0895	166107	keystroke_t	t	n/a
83.113	0.1045	166226	keystroke_e	e	n/a
83.233	0.0445	166466	keystroke_Key.enter	Key.enter	n/a
83.289	2.7505	166578	prompt	n/a	told join lands wanted\n
83.893	0.1045	167786	keystroke_t	t	n/a
83.9535	0.089	167907	keystroke_o	o	n/a
84.193	0.0295	168386	keystroke_l	l	n/a
84.208	0.0895	168416	keystroke_d	d	n/a
84.2675	0.12	168535	keystroke_Key.space	Key.space	n/a
84.343	0.1045	168686	keystroke_j	j	n/a
84.433	0.12	168866	keystroke_o	o	n/a
84.508	0.1345	169016	keystroke_i	i	n/a
84.568	0.1195	169136	keystroke_n	n	n/a
84.658	0.1195	169316	keystroke_s	s	n/a
84.7325	0.12	169465	keystroke_Key.space	Key.space	n/a
84.7935	0.089	169587	keystroke_l	l	n/a
84.898	0.1345	169796	keystroke_a	a	n/a
84.988	0.075	169976	keystroke_n	n	n/a
85.048	0.1345	170096	keystroke_d	d	n/a
85.138	0.1045	170276	keystroke_s	s	n/a
85.213	0.0745	170426	keystroke_Key.space	Key.space	n/a
85.333	0.1045	170666	keystroke_w	w	n/a
85.408	0.1345	170816	keystroke_a	a	n/a
85.483	0.0895	170966	keystroke_n	n	n/a
85.573	0.1045	171146	keystroke_t	t	n/a
85.648	0.0895	171296	keystroke_e	e	n/a
85.798	0.0895	171596	keystroke_d	d	n/a
85.948	0.0895	171896	keystroke_Key.enter	Key.enter	n/a
86.0475	4.012	172095	prompt	n/a	holdem contents clock accessories\n
86.638	0.0895	173276	keystroke_h	h	n/a
86.713	0.075	173426	keystroke_o	o	n/a
86.893	0.0895	173786	keystroke_l	l	n/a
86.968	0.0595	173936	keystroke_d	d	n/a
87.1035	0.119	174207	keystroke_e	e	n/a
87.178	0.0895	174356	keystroke_m	m	n/a
87.283	0.1045	174566	keystroke_Key.space	Key.space	n/a
87.448	0.1045	174896	keystroke_c	c	n/a
87.523	0.1045	175046	keystroke_o	o	n/a
87.598	0.1045	175196	keystroke_n	n	n/a
87.673	0.1045	175346	keystroke_t	t	n/a
87.733	0.1195	175466	keystroke_e	e	n/a
87.823	0.1045	175646	keystroke_n	n	n/a
87.913	0.1195	175826	keystroke_t	t	n/a
87.988	0.1195	175976	keystroke_s	s	n/a
88.063	0.0745	176126	keystroke_Key.space	Key.space	n/a
88.183	0.1045	176366	keystroke_c	c	n/a
88.243	0.075	176486	keystroke_l	l	n/a
88.393	0.1045	176786	keystroke_o	o	n/a
88.4685	0.164	176937	keystroke_c	c	n/a
88.588	0.1045	177176	keystroke_k	k	n/a
88.678	0.0895	177356	keystroke_Key.space	Key.space	n/a
88.783	0.0895	177566	keystroke_a	a	n/a
88.8875	0.075	177775	keystroke_c	c	n/a
89.038	0.0745	178076	keystroke_c	c	n/a
89.203	0.0595	178406	keystroke_e	e	n/a
89.293	0.1045	178586	keystroke_s	s	n/a
89.488	0.1045	178976	keystroke_s	s	n/a
89.548	0.1045	179096	keystroke_o	o	n/a
89.668	0.1195	179336	keystroke_r	r	n/a
89.743	0.0895	179486	keystroke_i	i	n/a
89.818	0.1045	179636	keystroke_e	e	n/a
89.863	0.1195	179726	keystroke_s	s	n/a
89.998	0.0595	179996	keystroke_Key.enter	Key.enter	n/a
90.0675	3.7575	180135	prompt	n/a	indices weird pressure strain\n
90.6425	0.12	181285	keystroke_i	i	n/a
90.703	0.1045	181406	keystroke_n	n	n/a
90.793	0.0895	181586	keystroke_d	d	n/a
90.898	0.0895	181796	keystroke_i	i	n/a
91.003	0.0445	182006	keystroke_c	c	n/a
91.1685	0.089	182337	keystroke_e	e	n/a
91.213	0.1345	182426	keystroke_s	s	n/a
91.333	0.0895	182666	keystroke_Key.space	Key.space	n/a
91.453	0.1195	182906	keystroke_w	w	n/a
91.558	0.1495	183116	keystroke_e	e	n/a
91.723	0.0745	183446	keystroke_i	i	n/a
91.843	0.0895	183686	keystroke_r	r	n/a
92.023	0.0895	184046	keystroke_d	d	n/a
92.098	0.0895	184196	keystroke_Key.space	Key.space	n/a
92.203	0.1045	184406	keystroke_p	p	n/a
92.278	0.1045	184556	keystroke_r	r	n/a
92.338	0.0895	184676	keystroke_e	e	n/a
92.443	0.1045	184886	keystroke_s	s	n/a
92.623	0.1195	185246	keystroke_s	s	n/a
92.728	0.09	185456	keystroke_u	u	n/a
92.803	0.1195	185606	keystroke_r	r	n/a
92.863	0.1045	185726	keystroke_e	e	n/a
92.953	0.0895	185906	keystroke_Key.space	Key.space	n/a
93.043	0.1345	186086	keystroke_s	s	n/a
93.148	0.0595	186296	keystroke_t	t	n/a
93.298	0.0895	186596	keystroke_r	r	n/a
93.3585	0.134	186717	keystroke_a	a	n/a
93.448	0.1345	186896	keystroke_i	i	n/a
93.523	0.1045	187046	keystroke_n	n	n/a
93.7325	0.09	187465	keystroke_Key.enter	Key.enter	n/a
93.8325	4.162	187665	prompt	n/a	typically generated insurance wines\n
94.4535	0.104	188907	keystroke_t	t	n/a
94.543	0.1045	189086	keystroke_y	y	n/a
94.633	0.1045	189266	keystroke_p	p	n/a
94.738	0.0895	189476	keystroke_i	i	n/a
94.843	0.0895	189686	keystroke_c	c	n/a
94.9335	0.1345	189867	keystroke_a	a	n/a
95.008	0.0745	190016	keystroke_l	l	n/a
95.1725	0.105	190345	keystroke_l	l	n/a
95.233	0.1045	190466	keystroke_y	y	n/a
95.308	0.0745	190616	keystroke_Key.space	Key.space	n/a
95.398	0.0595	190796	keystroke_g	g	n/a
95.4885	0.1045	190977	keystroke_e	e	n/a
95.6085	0.074	191217	keystroke_n	n	n/a
95.6685	0.1195	191337	keystroke_e	e	n/a
95.743	0.1045	191486	keystroke_r	r	n/a
95.833	0.1195	191666	keystroke_a	a	n/a
95.923	0.0895	191846	keystroke_t	t	n/a
95.9685	0.074	191937	keystroke_e	e	n/a
96.118	0.1195	192236	keystroke_d	d	n/a
96.193	0.1195	192386	keystroke_Key.space	Key.space	n/a
96.283	0.1195	192566	keystroke_i	i	n/a
96.343	0.1045	192686	keystroke_n	n	n/a
96.448	0.105	192896	keystroke_s	s	n/a
96.568	0.1045	193136	keystroke_u	u	n/a
96.658	0.1195	193316	keystroke_r	r	n/a
96.733	0.1045	193466	keystroke_a	a	n/a
96.883	0.1195	193766	keystroke_n	n	n/a
96.9725	0.09	193945	keystroke_c	c	n/a
97.153	0.1195	194306	keystroke_e	e	n/a
97.243	0.1045	194486	keystroke_Key.space	Key.space	n/a
97.363	0.0895	194726	keystroke_w	w	n/a
97.438	0.0895	194876	keystroke_i	i	n/a
97.483	0.0895	194966	keystroke_n	n	n/a
97.588	0.0895	195176	keystroke_e	e	n/a
97.723	0.1195	195446	keystroke_s	s	n/a
97.903	0.0895	195806	keystroke_Key.enter	Key.enter	n/a
98.003	3.6515	196006	prompt	n/a	visible browser doll musical\n
98.608	0.1045	197216	keystroke_v	v	n/a
98.668	0.0895	197336	keystroke_i	i	n/a
98.773	0.12	197546	keystroke_s	s	n/a
98.863	0.1045	197726	keystroke_i	i	n/a
98.953	0.0895	197906	keystroke_b	b	n/a
99.058	0.1045	198116	keystroke_l	l	n/a
99.148	0.0895	198296	keystroke_e	e	n/a
99.223	0.0745	198446	keystroke_Key.space	Key.space	n/a
99.328	0.0895	198656	keystroke_b	b	n/a
99.538	0.0895	199076	keystroke_r	r	n/a
99.613	0.1045	199226	keystroke_o	o	n/a
99.703	0.0895	199406	keystroke_w	w	n/a
99.868	0.1345	199736	keystroke_s	s	n/a
99.958	0.135	199916	keystroke_e	e	n/a
100.018	0.1495	200036	keystroke_r	r	n/a
100.153	0.0745	200306	keystroke_Key.space	Key.space	n/a
100.243	0.0895	200486	keystroke_d	d	n/a
100.319	0.0435	200638	keystroke_o	o	n/a
100.468	0.0745	200936	keystroke_l	l	n/a
100.603	0.0895	201206	keystroke_l	l	n/a
100.708	0.1045	201416	keystroke_Key.space	Key.space	n/a
100.783	0.0745	201566	keystroke_m	m	n/a
100.963	0.0745	201926	keystroke_u	u	n/a
101.053	0.09	202106	keystroke_s	s	n/a
101.158	0.1045	202316	keystroke_i	i	n/a
101.218	0.0745	202436	keystroke_c	c	n/a
101.308	0.135	202616	keystroke_a	a	n/a
101.383	0.0745	202766	keystroke_l	l	n/a
101.5635	0.089	203127	keystroke_Key.enter	Key.enter	n/a
101.6625	3.5625	203325	prompt	n/a	usual navigator its additional\n
102.253	0.0745	204506	keystroke_u	u	n/a
102.343	0.1045	204686	keystroke_s	s	n/a
102.433	0.0595	204866	keystroke_u	u	n/a
102.508	0.1495	205016	keystroke_a	a	n/a
102.598	0.0895	205196	keystroke_l	l	n/a
102.7335	0.089	205467	keystroke_Key.space	Key.space	n/a
102.793	0.1045	205586	keystroke_n	n	n/a
102.913	0.12	205826	keystroke_a	a	n/a
103.018	0.1045	206036	keystroke_v	v	n/a
103.093	0.09	206186	keystroke_i	i	n/a
103.198	0.1195	206396	keystroke_g	g	n/a
103.3335	0.134	206667	keystroke_a	a	n/a
103.408	0.1045	206816	keystroke_t	t	n/a
103.528	0.0895	207056	keystroke_o	o	n/a
103.588	0.1345	207176	keystroke_r	r	n/a
103.663	0.12	207326	keystroke_Key.space	Key.space	n/a
103.7835	0.104	207567	keystroke_i	i	n/a
103.873	0.1195	207746	keystroke_t	t	n/a
103.978	0.0895	207956	keystroke_s	s	n/a
104.038	0.1045	208076	keystroke_Key.space	Key.space	n/a
104.173	0.0745	208346	keystroke_a	a	n/a
104.218	0.0895	208436	keystroke_d	d	n/a
104.3835	0.104	208767	keystroke_d	d	n/a
104.503	0.0745	209006	keystroke_i	i	n/a
104.593	0.1195	209186	keystroke_t	t	n/a
104.683	0.15	209366	keystroke_i	i	n/a
104.728	0.1195	209456	keystroke_o	o	n/a
104.788	0.1195	209576	keystroke_n	n	n/a
104.863	0.1045	209726	keystroke_a	a	n/a
104.953	0.0895	209906	keystroke_l	l	n/a
105.1335	0.089	210267	keystroke_Key.enter	Key.enter	n/a
105.2335	3.9365	210467	prompt	n/a	sacrifice bias compiler witness\n
105.838	0.1045	211676	keystroke_s	s	n/a
105.973	0.1045	211946	keystroke_a	a	n/a
106.168	0.06	212336	keystroke_c	c	n/a
106.318	0.0895	212636	keystroke_r	r	n/a
106.438	0.0745	212876	keystroke_i	i	n/a
106.498	0.1045	212996	keystroke_f	f	n/a
106.618	0.09	213236	keystroke_i	i	n/a
106.693	0.0595	213386	keystroke_c	c	n/a
106.858	0.0595	213716	keystroke_e	e	n/a
106.9185	0.089	213837	keystroke_Key.space	Key.space	n/a
107.0235	0.104	214047	keystroke_b	b	n/a
107.143	0.0745	214286	keystroke_i	i	n/a
107.263	0.1045	214526	keystroke_a	a	n/a
107.278	0.1645	214556	keystroke_s	s	n/a
107.413	0.0895	214826	keystroke_Key.space	Key.space	n/a
107.5185	0.104	215037	keystroke_c	c	n/a
107.608	0.1045	215216	keystroke_o	o	n/a
107.653	0.1645	215306	keystroke_m	m	n/a
107.728	0.1195	215456	keystroke_p	p	n/a
107.8335	0.1945	215667	keystroke_i	i	n/a
107.938	0.1495	215876	keystroke_l	l	n/a
108.043	0.1345	216086	keystroke_e	e	n/a
108.1335	0.1045	216267	keystroke_r	r	n/a
108.193	0.0895	216386	keystroke_Key.space	Key.space	n/a
108.298	0.1195	216596	keystroke_w	w	n/a
108.403	0.1045	216806	keystroke_i	i	n/a
108.493	0.105	216986	keystroke_t	t	n/a
108.5835	0.089	217167	keystroke_n	n	n/a
108.658	0.09	217316	keystroke_e	e	n/a
108.793	0.0895	217586	keystroke_s	s	n/a
108.958	0.0745	217916	keystroke_s	s	n/a
109.093	0.075	218186	keystroke_Key.enter	Key.enter	n/a
109.181	5.014	218362	prompt	n/a	demonstrated oldest extra rogers\n
109.738	0.0745	219476	keystroke_d	d	n/a
109.888	0.105	219776	keystroke_e	e	n/a
109.9335	0.089	219867	keystroke_m	m	n/a
110.053	0.1045	220106	keystroke_o	o	n/a
110.113	0.12	220226	keystroke_n	n	n/a
110.203	0.0895	220406	keystroke_s	s	n/a
110.278	0.0595	220556	keystroke_t	t	n/a
110.413	0.1195	220826	keystroke_r	r	n/a
110.488	0.1645	220976	keystroke_a	a	n/a
110.623	0.1045	221246	keystroke_t	t	n/a
110.683	0.0895	221366	keystroke_e	e	n/a
110.818	0.1195	221636	keystroke_d	d	n/a
110.908	0.1045	221816	keystroke_Key.space	Key.space	n/a
110.968	0.0745	221936	keystroke_o	o	n/a
111.1185	0.104	222237	keystroke_l	l	n/a
111.178	0.0745	222356	keystroke_d	d	n/a
111.343	0.09	222686	keystroke_e	e	n/a
111.388	0.1345	222776	keystroke_s	s	n/a
111.538	0.075	223076	keystroke_t	t	n/a
111.928	0.075	223856	keystroke_Key.backspace	Key.backspace	n/a
112.363	0.1045	224726	keystroke_t	t	n/a
112.4985	0.119	224997	keystroke_Key.space	Key.space	n/a
112.768	0.0745	225536	keystroke_e	e	n/a
112.9485	0.1045	225897	keystroke_x	x	n/a
113.068	0.0445	226136	keystroke_t	t	n/a
113.203	0.1195	226406	keystroke_r	r	n/a
113.278	0.165	226556	keystroke_a	a	n/a
113.3985	0.089	226797	keystroke_Key.space	Key.space	n/a
113.503	0.0895	227006	keystroke_r	r	n/a
113.608	0.075	227216	keystroke_o	o	n/a
113.6985	0.0895	227397	keystroke_g	g	n/a
113.833	0.105	227666	keystroke_e	e	n/a
113.908	0.09	227816	keystroke_r	r	n/a
113.9835	0.074	227967	keystroke_s	s	n/a
114.118	0.075	228236	keystroke_Key.enter	Key.enter	n/a
114.2075	4.698	228415	prompt	n/a	dated username enquiries locate\n
114.718	0.135	229436	keystroke_d	d	n/a
114.868	0.1195	229736	keystroke_a	a	n/a
114.943	0.1195	229886	keystroke_t	t	n/a
115.018	0.0745	230036	keystroke_e	e	n/a
115.153	0.12	230306	keystroke_d	d	n/a
115.2285	0.1195	230457	keystroke_Key.space	Key.space	n/a
115.303	0.135	230606	keystroke_u	u	n/a
115.4235	0.134	230847	keystroke_s	s	n/a
115.483	0.1045	230966	keystroke_e	e	n/a
115.543	0.135	231086	keystroke_r	r	n/a
115.633	0.12	231266	keystroke_n	n	n/a
115.768	0.135	231536	keystroke_a	a	n/a
115.858	0.1195	231716	keystroke_m	m	n/a
115.9485	0.1195	231897	keystroke_e	e	n/a
116.053	0.105	232106	keystroke_Key.space	Key.space	n/a
116.218	0.105	232436	keystroke_e	e	n/a
116.293	0.105	232586	keystroke_n	n	n/a
116.413	0.135	232826	keystroke_q	q	n/a
116.668	0.1045	233336	keystroke_u	u	n/a
116.863	0.0895	233726	keystroke_i	i	n/a
117.028	0.12	234056	keystroke_r	r	n/a
117.133	0.0895	234266	keystroke_i	i	n/a
117.223	0.135	234446	keystroke_e	e	n/a
117.298	0.135	234596	keystroke_s	s	n/a
117.388	0.1195	234776	keystroke_Key.space	Key.space	n/a
117.4635	0.074	234927	keystroke_l	l	n/a
117.613	0.0895	235226	keystroke_o	o	n/a
117.673	0.0895	235346	keystroke_c	c	n/a
117.808	0.105	235616	keystroke_a	a	n/a
117.868	0.1195	235736	keystroke_t	t	n/a
117.928	0.12	235856	keystroke_e	e	n/a
118.813	0.09	237626	keystroke_Key.enter	Key.enter	n/a
118.9125	2.9925	237825	prompt	n/a	kits moment profile relying\n
119.458	0.0595	238916	keystroke_k	k	n/a
119.608	0.105	239216	keystroke_i	i	n/a
119.653	0.135	239306	keystroke_t	t	n/a
119.728	0.1345	239456	keystroke_s	s	n/a
119.803	0.1045	239606	keystroke_Key.space	Key.space	n/a
119.878	0.1045	239756	keystroke_m	m	n/a
119.968	0.1045	239936	keystroke_o	o	n/a
120.043	0.105	240086	keystroke_m	m	n/a
120.133	0.1045	240266	keystroke_e	e	n/a
120.223	0.09	240446	keystroke_n	n	n/a
120.283	0.1345	240566	keystroke_t	t	n/a
120.358	0.09	240716	keystroke_Key.space	Key.space	n/a
120.4035	0.104	240807	keystroke_p	p	n/a
120.523	0.1045	241046	keystroke_r	r	n/a
120.568	0.09	241136	keystroke_o	o	n/a
120.718	0.1345	241436	keystroke_f	f	n/a
120.748	0.15	241496	keystroke_i	i	n/a
120.868	0.09	241736	keystroke_l	l	n/a
120.928	0.12	241856	keystroke_e	e	n/a
121.033	0.0895	242066	keystroke_Key.space	Key.space	n/a
121.108	0.09	242216	keystroke_r	r	n/a
121.168	0.1195	242336	keystroke_e	e	n/a
121.258	0.1195	242516	keystroke_l	l	n/a
121.348	0.1195	242696	keystroke_y	y	n/a
121.5135	0.1495	243027	keystroke_i	i	n/a
121.588	0.1195	243176	keystroke_n	n	n/a
121.693	0.0895	243386	keystroke_g	g	n/a
121.828	0.075	243656	keystroke_Key.enter	Key.enter	n/a
121.9125	3.5775	243825	prompt	n/a	replica unix endif simple\n
122.518	0.12	245036	keystroke_r	r	n/a
122.593	0.105	245186	keystroke_e	e	n/a
122.683	0.0745	245366	keystroke_p	p	n/a
122.8485	0.119	245697	keystroke_l	l	n/a
122.908	0.1195	245816	keystroke_i	i	n/a
122.998	0.1045	245996	keystroke_c	c	n/a
123.088	0.1645	246176	keystroke_a	a	n/a
123.223	0.1045	246446	keystroke_Key.space	Key.space	n/a
123.373	0.075	246746	keystroke_u	u	n/a
123.568	0.1195	247136	keystroke_n	n	n/a
123.643	0.1195	247286	keystroke_i	i	n/a
123.973	0.1045	247946	keystroke_x	x	n/a
124.108	0.09	248216	keystroke_Key.space	Key.space	n/a
124.258	0.105	248516	keystroke_e	e	n/a
124.3635	0.1045	248727	keystroke_n	n	n/a
124.483	0.0895	248966	keystroke_d	d	n/a
124.558	0.09	249116	keystroke_i	i	n/a
124.633	0.105	249266	keystroke_f	f	n/a
124.708	0.0895	249416	keystroke_Key.space	Key.space	n/a
124.7985	0.1045	249597	keystroke_s	s	n/a
124.8735	0.134	249747	keystroke_i	i	n/a
124.918	0.1645	249836	keystroke_m	m	n/a
125.023	0.1045	250046	keystroke_p	p	n/a
125.143	0.1045	250286	keystroke_l	l	n/a
125.263	0.0745	250526	keystroke_e	e	n/a
125.398	0.0895	250796	keystroke_Key.enter	Key.enter	n/a
125.4985	4.596	250997	prompt	n/a	bonds scheduling classes experiencing\n
126.193	0.105	252386	keystroke_b	b	n/a
126.2685	0.119	252537	keystroke_o	o	n/a
126.358	0.1195	252716	keystroke_n	n	n/a
126.4635	0.1645	252927	keystroke_d	d	n/a
126.538	0.1195	253076	keystroke_s	s	n/a
126.643	0.09	253286	keystroke_Key.space	Key.space	n/a
126.748	0.09	253496	keystroke_s	s	n/a
126.8685	0.104	253737	keystroke_c	c	n/a
127.003	0.0745	254006	keystroke_h	h	n/a
127.0635	0.0745	254127	keystroke_e	e	n/a
127.2135	0.0895	254427	keystroke_d	d	n/a
127.2585	0.1045	254517	keystroke_u	u	n/a
127.378	0.135	254756	keystroke_l	l	n/a
127.468	0.135	254936	keystroke_i	i	n/a
127.528	0.1045	255056	keystroke_n	n	n/a
127.588	0.1195	255176	keystroke_g	g	n/a
127.6635	0.089	255327	keystroke_Key.space	Key.space	n/a
127.813	0.0745	255626	keystroke_c	c	n/a
127.888	0.0895	255776	keystroke_l	l	n/a
128.008	0.09	256016	keystroke_a	a	n/a
128.053	0.0895	256106	keystroke_s	s	n/a
128.218	0.1195	256436	keystroke_s	s	n/a
128.353	0.0745	256706	keystroke_e	e	n/a
128.4885	0.1395	256977	keystroke_s	s	n/a
128.593	0.075	257186	keystroke_Key.space	Key.space	n/a
128.698	0.0745	257396	keystroke_e	e	n/a
128.878	0.09	257756	keystroke_x	x	n/a
128.983	0.09	257966	keystroke_p	p	n/a
129.088	0.12	258176	keystroke_e	e	n/a
129.1635	0.119	258327	keystroke_r	r	n/a
129.238	0.075	258476	keystroke_i	i	n/a
129.328	0.09	258656	keystroke_e	e	n/a
129.418	0.0895	258836	keystroke_n	n	n/a
129.568	0.1345	259136	keystroke_c	c	n/a
129.718	0.0895	259436	keystroke_i	i	n/a
129.7635	0.1195	259527	keystroke_n	n	n/a
129.868	0.09	259736	keystroke_g	g	n/a
130.018	0.0745	260036	keystroke_Key.enter	Key.enter	n/a
130.106	3.079	260212	prompt	n/a	me nose inspiration partially\n
130.663	0.0895	261326	keystroke_m	m	n/a
130.723	0.1345	261446	keystroke_e	e	n/a
130.8285	0.104	261657	keystroke_Key.space	Key.space	n/a
130.888	0.1045	261776	keystroke_n	n	n/a
130.9785	0.0895	261957	keystroke_o	o	n/a
131.023	0.1195	262046	keystroke_s	s	n/a
131.083	0.105	262166	keystroke_e	e	n/a
131.158	0.1045	262316	keystroke_Key.space	Key.space	n/a
131.233	0.105	262466	keystroke_i	i	n/a
131.293	0.1045	262586	keystroke_n	n	n/a
131.413	0.1045	262826	keystroke_s	s	n/a
131.488	0.1195	262976	keystroke_p	p	n/a
131.5635	0.119	263127	keystroke_i	i	n/a
131.638	0.1195	263276	keystroke_r	r	n/a
131.773	0.1195	263546	keystroke_a	a	n/a
131.818	0.1345	263636	keystroke_t	t	n/a
131.908	0.1345	263816	keystroke_i	i	n/a
131.968	0.12	263936	keystroke_o	o	n/a
132.0135	0.104	264027	keystroke_n	n	n/a
132.073	0.1195	264146	keystroke_Key.space	Key.space	n/a
132.1785	0.104	264357	keystroke_p	p	n/a
132.253	0.1045	264506	keystroke_a	a	n/a
132.298	0.1045	264596	keystroke_r	r	n/a
132.4635	0.1045	264927	keystroke_t	t	n/a
132.508	0.075	265016	keystroke_i	i	n/a
132.598	0.1345	265196	keystroke_a	a	n/a
132.718	0.0445	265436	keystroke_l	l	n/a
132.853	0.1045	265706	keystroke_l	l	n/a
132.943	0.09	265886	keystroke_y	y	n/a
133.123	0.0595	266246	keystroke_Key.enter	Key.enter	n/a
133.195	3.0795	266390	prompt	n/a	wrapped ratings paths kate\n
133.753	0.1345	267506	keystroke_w	w	n/a
133.858	0.1195	267716	keystroke_r	r	n/a
133.963	0.1195	267926	keystroke_a	a	n/a
134.053	0.075	268106	keystroke_p	p	n/a
134.203	0.1045	268406	keystroke_p	p	n/a
134.293	0.075	268586	keystroke_e	e	n/a
134.443	0.09	268886	keystroke_d	d	n/a
134.548	0.0745	269096	keystroke_Key.space	Key.space	n/a
134.623	0.105	269246	keystroke_r	r	n/a
134.698	0.1495	269396	keystroke_a	a	n/a
134.803	0.1045	269606	keystroke_t	t	n/a
134.908	0.1045	269816	keystroke_i	i	n/a
134.953	0.1195	269906	keystroke_n	n	n/a
135.0285	0.1195	270057	keystroke_g	g	n/a
135.118	0.1045	270236	keystroke_s	s	n/a
135.1785	0.119	270357	keystroke_Key.space	Key.space	n/a
135.313	0.0895	270626	keystroke_p	p	n/a
135.418	0.1495	270836	keystroke_a	a	n/a
135.508	0.1345	271016	keystroke_t	t	n/a
135.613	0.0895	271226	keystroke_h	h	n/a
135.748	0.09	271496	keystroke_Key.space	Key.space	n/a
135.9285	0.0745	271857	keystroke_k	k	n/a
135.988	0.12	271976	keystroke_a	a	n/a
136.063	0.09	272126	keystroke_t	t	n/a
136.123	0.105	272246	keystroke_e	e	n/a
136.213	0.06	272426	keystroke_Key.enter	Key.enter	n/a
136.282	3.758	272564	prompt	n/a	measured queen double passport\n
136.888	0.09	273776	keystroke_m	m	n/a
136.9635	0.1495	273927	keystroke_e	e	n/a
137.1285	0.1495	274257	keystroke_a	a	n/a
137.323	0.0895	274646	keystroke_s	s	n/a
137.4285	0.089	274857	keystroke_u	u	n/a
137.548	0.0745	275096	keystroke_r	r	n/a
137.593	0.0745	275186	keystroke_e	e	n/a
137.743	0.12	275486	keystroke_d	d	n/a
137.848	0.0895	275696	keystroke_Key.space	Key.space	n/a
137.968	0.12	275936	keystroke_q	q	n/a
138.043	0.105	276086	keystroke_u	u	n/a
138.133	0.075	276266	keystroke_e	e	n/a
138.283	0.1345	276566	keystroke_e	e	n/a
138.3435	0.0895	276687	keystroke_n	n	n/a
138.463	0.075	276926	keystroke_Key.space	Key.space	n/a
138.553	0.105	277106	keystroke_d	d	n/a
138.643	0.1195	277286	keystroke_o	o	n/a
138.703	0.105	277406	keystroke_u	u	n/a
138.823	0.105	277646	keystroke_b	b	n/a
138.868	0.1045	277736	keystroke_l	l	n/a
139.018	0.1045	278036	keystroke_e	e	n/a
139.108	0.0895	278216	keystroke_Key.space	Key.space	n/a
139.168	0.1045	278336	keystroke_p	p	n/a
139.258	0.075	278516	keystroke_a	a	n/a
139.318	0.0895	278636	keystroke_s	s	n/a
139.468	0.1045	278936	keystroke_s	s	n/a
139.573	0.1195	279146	keystroke_p	p	n/a
139.6785	0.1045	279357	keystroke_o	o	n/a
139.738	0.075	279476	keystroke_r	r	n/a
139.903	0.075	279806	keystroke_t	t	n/a
139.9635	0.0745	279927	keystroke_Key.enter	Key.enter	n/a
140.048	5.7215	280096	prompt	n/a	transparency degree regression belongs\n
140.6835	0.0745	281367	keystroke_t	t	n/a
140.848	0.105	281696	keystroke_r	r	n/a
140.923	0.105	281846	keystroke_a	a	n/a
141.058	0.1045	282116	keystroke_n	n	n/a
141.298	0.1045	282596	keystroke_s	s	n/a
141.4635	0.1045	282927	keystroke_p	p	n/a
141.553	0.1195	283106	keystroke_a	a	n/a
141.6285	0.119	283257	keystroke_r	r	n/a
141.703	0.1045	283406	keystroke_e	e	n/a
141.7785	0.089	283557	keystroke_n	n	n/a
141.913	0.165	283826	keystroke_c	c	n/a
142.018	0.09	284036	keystroke_y	y	n/a
142.108	0.075	284216	keystroke_Key.space	Key.space	n/a
142.198	0.09	284396	keystroke_d	d	n/a
142.363	0.03	284726	keystroke_g	g	n/a
142.3935	0.104	284787	keystroke_e	e	n/a
142.9935	0.0595	285987	keystroke_Key.backspace	Key.backspace	n/a
143.143	0.075	286286	keystroke_Key.backspace	Key.backspace	n/a
143.323	0.0895	286646	keystroke_e	e	n/a
143.443	0.075	286886	keystroke_g	g	n/a
143.5935	0.104	287187	keystroke_r	r	n/a
143.653	0.0745	287306	keystroke_e	e	n/a
143.803	0.1195	287606	keystroke_e	e	n/a
143.908	0.0895	287816	keystroke_Key.space	Key.space	n/a
144.028	0.105	288056	keystroke_r	r	n/a
144.088	0.12	288176	keystroke_e	e	n/a
144.223	0.0745	288446	keystroke_g	g	n/a
144.388	0.1345	288776	keystroke_r	r	n/a
144.4185	0.119	288837	keystroke_e	e	n/a
144.508	0.075	289016	keystroke_s	s	n/a
144.658	0.135	289316	keystroke_s	s	n/a
144.763	0.1495	289526	keystroke_i	i	n/a
144.823	0.12	289646	keystroke_o	o	n/a
144.8835	0.1195	289767	keystroke_n	n	n/a
144.958	0.06	289916	keystroke_Key.space	Key.space	n/a
145.063	0.0745	290126	keystroke_b	b	n/a
145.1535	0.119	290307	keystroke_e	e	n/a
145.2435	0.059	290487	keystroke_l	l	n/a
145.3785	0.1195	290757	keystroke_o	o	n/a
145.438	0.1195	290876	keystroke_n	n	n/a
145.528	0.075	291056	keystroke_g	g	n/a
145.573	0.105	291146	keystroke_s	s	n/a
145.694	0.0735	291388	keystroke_Key.enter	Key.enter	n/a
145.7795	4.1	291559	prompt	n/a	reproduced figure tune grammar\n
146.368	0.12	292736	keystroke_r	r	n/a
146.4435	0.1195	292887	keystroke_e	e	n/a
146.548	0.12	293096	keystroke_p	p	n/a
146.6835	0.1195	293367	keystroke_r	r	n/a
146.728	0.1195	293456	keystroke_o	o	n/a
147.058	0.1045	294116	keystroke_d	d	n/a
147.1935	0.0895	294387	keystroke_u	u	n/a
147.2985	0.059	294597	keystroke_c	c	n/a
147.4785	0.0745	294957	keystroke_e	e	n/a
147.613	0.105	295226	keystroke_d	d	n/a
147.703	0.075	295406	keystroke_Key.space	Key.space	n/a
147.7935	0.1045	295587	keystroke_f	f	n/a
147.8685	0.1045	295737	keystroke_i	i	n/a
147.9885	0.074	295977	keystroke_g	g	n/a
148.078	0.1045	296156	keystroke_u	u	n/a
148.153	0.1045	296306	keystroke_r	r	n/a
148.198	0.0895	296396	keystroke_e	e	n/a
148.273	0.0895	296546	keystroke_Key.space	Key.space	n/a
148.348	0.135	296696	keystroke_t	t	n/a
148.423	0.1045	296846	keystroke_u	u	n/a
148.618	0.105	297236	keystroke_n	n	n/a
148.708	0.1495	297416	keystroke_e	e	n/a
148.828	0.0895	297656	keystroke_Key.space	Key.space	n/a
149.0085	0.0595	298017	keystroke_g	g	n/a
149.173	0.1045	298346	keystroke_r	r	n/a
149.263	0.135	298526	keystroke_a	a	n/a
149.338	0.0895	298676	keystroke_m	m	n/a
149.4885	0.104	298977	keystroke_m	m	n/a
149.608	0.09	299216	keystroke_a	a	n/a
149.638	0.105	299276	keystroke_r	r	n/a
149.788	0.09	299576	keystroke_Key.enter	Key.enter	n/a
149.887	3.968	299774	prompt	n/a	stranger lover meaningful remarks\n
150.523	0.12	301046	keystroke_s	s	n/a
150.613	0.09	301226	keystroke_t	t	n/a
150.7935	0.119	301587	keystroke_r	r	n/a
150.883	0.1495	301766	keystroke_a	a	n/a
150.988	0.105	301976	keystroke_n	n	n/a
151.078	0.1045	302156	keystroke_g	g	n/a
151.213	0.1195	302426	keystroke_e	e	n/a
151.288	0.1345	302576	keystroke_r	r	n/a
151.363	0.1345	302726	keystroke_Key.space	Key.space	n/a
151.438	0.0745	302876	keystroke_l	l	n/a
151.603	0.075	303206	keystroke_o	o	n/a
151.663	0.075	303326	keystroke_v	v	n/a
151.813	0.1195	303626	keystroke_e	e	n/a
151.8585	0.1495	303717	keystroke_r	r	n/a
151.963	0.12	303926	keystroke_Key.space	Key.space	n/a
152.053	0.0895	304106	keystroke_m	m	n/a
152.1585	0.0745	304317	keystroke_e	e	n/a
152.218	0.1345	304436	keystroke_a	a	n/a
152.3085	0.104	304617	keystroke_n	n	n/a
152.428	0.1495	304856	keystroke_i	i	n/a
152.503	0.1195	305006	keystroke_n	n	n/a
152.6085	0.074	305217	keystroke_g	g	n/a
152.773	0.1045	305546	keystroke_f	f	n/a
152.833	0.0895	305666	keystroke_u	u	n/a
152.953	0.1345	305906	keystroke_l	l	n/a
153.073	0.0595	306146	keystroke_Key.space	Key.space	n/a
153.103	0.1345	306206	keystroke_r	r	n/a
153.193	0.105	306386	keystroke_e	e	n/a
153.283	0.09	306566	keystroke_m	m	n/a
153.388	0.1645	306776	keystroke_a	a	n/a
153.4935	0.089	306987	keystroke_r	r	n/a
153.568	0.0595	307136	keystroke_k	k	n/a
153.673	0.0595	307346	keystroke_s	s	n/a
153.793	0.0595	307586	keystroke_Key.enter	Key.enter	n/a
153.8655	4.669	307731	prompt	n/a	premiere emails regulation deeply\n
154.498	0.1345	308996	keystroke_p	p	n/a
154.618	0.1195	309236	keystroke_r	r	n/a
154.708	0.1195	309416	keystroke_e	e	n/a
154.813	0.1345	309626	keystroke_m	m	n/a
154.903	0.1195	309806	keystroke_i	i	n/a
154.963	0.1195	309926	keystroke_e	e	n/a
155.053	0.1195	310106	keystroke_r	r	n/a
155.1585	0.089	310317	keystroke_Key.space	Key.space	n/a
155.518	0.075	311036	keystroke_Key.backspace	Key.backspace	n/a
155.698	0.0895	311396	keystroke_e	e	n/a
155.788	0.0895	311576	keystroke_Key.space	Key.space	n/a
155.953	0.105	311906	keystroke_e	e	n/a
156.028	0.1045	312056	keystroke_m	m	n/a
156.1785	0.134	312357	keystroke_a	a	n/a
156.238	0.1345	312476	keystroke_i	i	n/a
156.328	0.1045	312656	keystroke_l	l	n/a
156.373	0.12	312746	keystroke_s	s	n/a
156.5085	0.074	313017	keystroke_Key.space	Key.space	n/a
156.6585	0.104	313317	keystroke_r	r	n/a
156.733	0.09	313466	keystroke_e	e	n/a
156.868	0.1045	313736	keystroke_g	g	n/a
156.928	0.105	313856	keystroke_u	u	n/a
157.018	0.09	314036	keystroke_l	l	n/a
157.093	0.1195	314186	keystroke_a	a	n/a
157.138	0.1345	314276	keystroke_t	t	n/a
157.228	0.1645	314456	keystroke_i	i	n/a
157.288	0.1195	314576	keystroke_o	o	n/a
157.348	0.0895	314696	keystroke_n	n	n/a
157.423	0.0895	314846	keystroke_Key.space	Key.space	n/a
157.528	0.0745	315056	keystroke_d	d	n/a
157.678	0.0745	315356	keystroke_e	e	n/a
157.8275	0.105	315655	keystroke_e	e	n/a
157.918	0.0745	315836	keystroke_p	p	n/a
158.098	0.0445	316196	keystroke_l	l	n/a
158.2935	0.0895	316587	keystroke_y	y	n/a
158.459	0.0735	316918	keystroke_Key.enter	Key.enter	n/a
158.543	3.697	317086	prompt	n/a	centres users primarily latter\n
159.133	0.0745	318266	keystroke_c	c	n/a
159.298	0.0895	318596	keystroke_e	e	n/a
159.373	0.0895	318746	keystroke_n	n	n/a
159.478	0.0895	318956	keystroke_t	t	n/a
159.643	0.165	319286	keystroke_r	r	n/a
159.703	0.1795	319406	keystroke_e	e	n/a
159.793	0.1495	319586	keystroke_s	s	n/a
159.928	0.105	319856	keystroke_Key.space	Key.space	n/a
160.0635	0.089	320127	keystroke_u	u	n/a
160.153	0.1195	320306	keystroke_s	s	n/a
160.228	0.135	320456	keystroke_e	e	n/a
160.318	0.1345	320636	keystroke_r	r	n/a
160.4085	0.119	320817	keystroke_s	s	n/a
160.498	0.0895	320996	keystroke_Key.space	Key.space	n/a
160.618	0.09	321236	keystroke_p	p	n/a
160.723	0.1045	321446	keystroke_r	r	n/a
160.813	0.105	321626	keystroke_i	i	n/a
160.873	0.12	321746	keystroke_m	m	n/a
160.933	0.1495	321866	keystroke_a	a	n/a
161.023	0.1195	322046	keystroke_r	r	n/a
161.0685	0.149	322137	keystroke_i	i	n/a
161.1585	0.1645	322317	keystroke_l	l	n/a
161.293	0.105	322586	keystroke_y	y	n/a
161.383	0.0895	322766	keystroke_Key.space	Key.space	n/a
161.503	0.0895	323006	keystroke_l	l	n/a
161.518	0.1495	323036	keystroke_a	a	n/a
161.668	0.0595	323336	keystroke_t	t	n/a
161.803	0.105	323606	keystroke_t	t	n/a
161.953	0.105	323906	keystroke_e	e	n/a
162.013	0.1195	324026	keystroke_r	r	n/a
162.148	0.0895	324296	keystroke_Key.enter	Key.enter	n/a
162.249	3.936	324498	prompt	n/a	recipients producers light medium\n
162.883	0.1345	325766	keystroke_r	r	n/a
162.988	0.0895	325976	keystroke_e	e	n/a
163.198	0.0745	326396	keystroke_c	c	n/a
163.258	0.105	326516	keystroke_i	i	n/a
163.348	0.1345	326696	keystroke_p	p	n/a
163.453	0.105	326906	keystroke_i	i	n/a
163.543	0.12	327086	keystroke_e	e	n/a
163.648	0.1045	327296	keystroke_n	n	n/a
163.693	0.1345	327386	keystroke_t	t	n/a
163.798	0.1045	327596	keystroke_s	s	n/a
163.8735	0.0895	327747	keystroke_Key.space	Key.space	n/a
163.933	0.1195	327866	keystroke_p	p	n/a
164.068	0.1045	328136	keystroke_r	r	n/a
164.128	0.1045	328256	keystroke_o	o	n/a
164.2485	0.0745	328497	keystroke_d	d	n/a
164.338	0.105	328676	keystroke_u	u	n/a
164.428	0.0595	328856	keystroke_c	c	n/a
164.6085	0.0745	329217	keystroke_e	e	n/a
164.653	0.1195	329306	keystroke_r	r	n/a
164.728	0.1345	329456	keystroke_s	s	n/a
164.833	0.0895	329666	keystroke_Key.space	Key.space	n/a
164.878	0.105	329756	keystroke_l	l	n/a
164.938	0.1045	329876	keystroke_i	i	n/a
165.028	0.0745	330056	keystroke_g	g	n/a
165.103	0.105	330206	keystroke_h	h	n/a
165.178	0.1345	330356	keystroke_t	t	n/a
165.253	0.09	330506	keystroke_Key.space	Key.space	n/a
165.328	0.0895	330656	keystroke_m	m	n/a
165.403	0.0895	330806	keystroke_e	e	n/a
165.568	0.1045	331136	keystroke_d	d	n/a
165.628	0.1045	331256	keystroke_i	i	n/a
165.718	0.105	331436	keystroke_u	u	n/a
165.913	0.0895	331826	keystroke_m	m	n/a
166.1235	0.059	332247	keystroke_Key.enter	Key.enter	n/a
166.1985	3.811	332397	prompt	n/a	eastern rural counted validity\n
166.7235	0.104	333447	keystroke_e	e	n/a
166.903	0.165	333806	keystroke_a	a	n/a
167.053	0.1495	334106	keystroke_s	s	n/a
167.1585	0.119	334317	keystroke_t	t	n/a
167.293	0.1195	334586	keystroke_e	e	n/a
167.368	0.165	334736	keystroke_r	r	n/a
167.4735	0.104	334947	keystroke_n	n	n/a
167.593	0.075	335186	keystroke_Key.space	Key.space	n/a
167.683	0.1195	335366	keystroke_r	r	n/a
167.818	0.09	335636	keystroke_u	u	n/a
167.878	0.1345	335756	keystroke_r	r	n/a
167.998	0.1795	335996	keystroke_a	a	n/a
168.103	0.0895	336206	keystroke_l	l	n/a
168.2085	0.0595	336417	keystroke_Key.space	Key.space	n/a
168.328	0.1045	336656	keystroke_c	c	n/a
168.388	0.1045	336776	keystroke_o	o	n/a
168.448	0.1045	336896	keystroke_u	u	n/a
168.643	0.09	337286	keystroke_n	n	n/a
168.688	0.1045	337376	keystroke_t	t	n/a
168.763	0.0745	337526	keystroke_e	e	n/a
168.8985	0.134	337797	keystroke_d	d	n/a
169.018	0.0895	338036	keystroke_Key.space	Key.space	n/a
169.093	0.1345	338186	keystroke_v	v	n/a
169.213	0.1345	338426	keystroke_a	a	n/a
169.333	0.0895	338666	keystroke_l	l	n/a
169.378	0.1045	338756	keystroke_i	i	n/a
169.453	0.12	338906	keystroke_d	d	n/a
169.5735	0.104	339147	keystroke_i	i	n/a
169.648	0.1045	339296	keystroke_t	t	n/a
169.768	0.0745	339536	keystroke_y	y	n/a
169.918	0.09	339836	keystroke_Key.enter	Key.enter	n/a
170.018	3.3665	340036	prompt	n/a	influenced known howdy soul\n
170.5785	0.104	341157	keystroke_i	i	n/a
170.623	0.1195	341246	keystroke_n	n	n/a
170.728	0.12	341456	keystroke_f	f	n/a
170.833	0.1045	341666	keystroke_l	l	n/a
170.893	0.1045	341786	keystroke_u	u	n/a
170.953	0.0895	341906	keystroke_e	e	n/a
171.133	0.0895	342266	keystroke_n	n	n/a
171.193	0.0745	342386	keystroke_c	c	n/a
171.3585	0.074	342717	keystroke_e	e	n/a
171.493	0.12	342986	keystroke_d	d	n/a
171.568	0.1345	343136	keystroke_Key.space	Key.space	n/a
171.628	0.105	343256	keystroke_k	k	n/a
171.718	0.12	343436	keystroke_n	n	n/a
171.808	0.0895	343616	keystroke_o	o	n/a
171.898	0.1645	343796	keystroke_w	w	n/a
172.033	0.09	344066	keystroke_n	n	n/a
172.183	0.1045	344366	keystroke_Key.space	Key.space	n/a
172.303	0.0895	344606	keystroke_h	h	n/a
172.363	0.1345	344726	keystroke_o	o	n/a
172.483	0.0895	344966	keystroke_w	w	n/a
172.603	0.1645	345206	keystroke_d	d	n/a
172.708	0.0895	345416	keystroke_y	y	n/a
172.813	0.075	345626	keystroke_Key.space	Key.space	n/a
172.903	0.105	345806	keystroke_s	s	n/a
172.933	0.09	345866	keystroke_o	o	n/a
172.993	0.09	345986	keystroke_u	u	n/a
173.128	0.0895	346256	keystroke_l	l	n/a
173.308	0.0745	346616	keystroke_Key.enter	Key.enter	n/a
173.393	3.1265	346786	prompt	n/a	brass latter frank aimed\n
173.998	0.0745	347996	keystroke_b	b	n/a
174.208	0.12	348416	keystroke_r	r	n/a
174.283	0.1195	348566	keystroke_a	a	n/a
174.403	0.0745	348806	keystroke_s	s	n/a
174.5385	0.104	349077	keystroke_s	s	n/a
174.628	0.09	349256	keystroke_Key.space	Key.space	n/a
174.733	0.09	349466	keystroke_l	l	n/a
174.778	0.1195	349556	keystroke_a	a	n/a
174.868	0.0895	349736	keystroke_t	t	n/a
175.003	0.1045	350006	keystroke_t	t	n/a
175.153	0.1045	350306	keystroke_e	e	n/a
175.198	0.12	350396	keystroke_r	r	n/a
175.2885	0.104	350577	keystroke_Key.space	Key.space	n/a
175.423	0.06	350846	keystroke_f	f	n/a
175.558	0.0895	351116	keystroke_r	r	n/a
175.618	0.1495	351236	keystroke_a	a	n/a
175.693	0.1045	351386	keystroke_n	n	n/a
175.7685	0.119	351537	keystroke_k	k	n/a
175.858	0.1045	351716	keystroke_Key.space	Key.space	n/a
175.918	0.1345	351836	keystroke_a	a	n/a
176.023	0.1195	352046	keystroke_i	i	n/a
176.0835	0.134	352167	keystroke_m	m	n/a
176.158	0.09	352316	keystroke_e	e	n/a
176.323	0.09	352646	keystroke_d	d	n/a
176.428	0.0895	352856	keystroke_Key.enter	Key.enter	n/a
176.528	4.5815	353056	prompt	n/a	colon jaguar brighton departure\n
177.133	0.105	354266	keystroke_c	c	n/a
177.208	0.0745	354416	keystroke_o	o	n/a
177.3735	0.059	354747	keystroke_l	l	n/a
177.5385	0.119	355077	keystroke_o	o	n/a
177.598	0.1345	355196	keystroke_n	n	n/a
177.718	0.0895	355436	keystroke_Key.space	Key.space	n/a
177.8385	0.104	355677	keystroke_j	j	n/a
177.9885	0.119	355977	keystroke_a	a	n/a
178.1235	0.119	356247	keystroke_g	g	n/a
178.198	0.0895	356396	keystroke_u	u	n/a
178.333	0.1345	356666	keystroke_a	a	n/a
178.393	0.1345	356786	keystroke_r	r	n/a
178.483	0.105	356966	keystroke_Key.space	Key.space	n/a
178.663	0.105	357326	keystroke_b	b	n/a
178.8735	0.119	357747	keystroke_r	r	n/a
178.978	0.0895	357956	keystroke_i	i	n/a
179.098	0.1195	358196	keystroke_g	g	n/a
179.233	0.0895	358466	keystroke_h	h	n/a
179.383	0.12	358766	keystroke_t	t	n/a
179.503	0.1195	359006	keystroke_o	o	n/a
179.5635	0.104	359127	keystroke_n	n	n/a
179.653	0.09	359306	keystroke_Key.space	Key.space	n/a
180.043	0.0745	360086	keystroke_d	d	n/a
180.208	0.09	360416	keystroke_e	e	n/a
180.328	0.105	360656	keystroke_p	p	n/a
180.418	0.1045	360836	keystroke_a	a	n/a
180.493	0.0745	360986	keystroke_r	r	n/a
180.628	0.105	361256	keystroke_t	t	n/a
180.7035	0.089	361407	keystroke_u	u	n/a
180.823	0.1045	361646	keystroke_r	r	n/a
180.868	0.12	361736	keystroke_e	e	n/a
181.018	0.0895	362036	keystroke_Key.enter	Key.enter	n/a
181.1175	4.5375	362235	prompt	n/a	anticipated howto alto federation\n
181.633	0.1195	363266	keystroke_a	a	n/a
181.738	0.1045	363476	keystroke_n	n	n/a
181.8285	0.119	363657	keystroke_t	t	n/a
181.963	0.0895	363926	keystroke_i	i	n/a
182.0235	0.119	364047	keystroke_c	c	n/a
182.158	0.0895	364316	keystroke_i	i	n/a
182.218	0.1495	364436	keystroke_p	p	n/a
182.608	0.1495	365216	keystroke_a	a	n/a
182.818	0.105	365636	keystroke_t	t	n/a
182.893	0.09	365786	keystroke_e	e	n/a
183.073	0.0895	366146	keystroke_d	d	n/a
183.133	0.1205	366266	keystroke_Key.space	Key.space	n/a
183.223	0.105	366446	keystroke_h	h	n/a
183.298	0.105	366596	keystroke_o	o	n/a
183.373	0.1345	366746	keystroke_w	w	n/a
183.5235	0.119	367047	keystroke_t	t	n/a
183.613	0.1045	367226	keystroke_o	o	n/a
183.763	0.09	367526	keystroke_Key.space	Key.space	n/a
184.093	0.1045	368186	keystroke_a	a	n/a
184.1535	0.1045	368307	keystroke_l	l	n/a
184.2885	0.134	368577	keystroke_t	t	n/a
184.378	0.09	368756	keystroke_o	o	n/a
184.4535	0.0745	368907	keystroke_Key.space	Key.space	n/a
184.5585	0.089	369117	keystroke_f	f	n/a
184.618	0.09	369236	keystroke_e	e	n/a
184.813	0.0445	369626	keystroke_d	d	n/a
184.948	0.0895	369896	keystroke_e	e	n/a
185.008	0.1045	370016	keystroke_r	r	n/a
185.113	0.1195	370226	keystroke_a	a	n/a
185.158	0.135	370316	keystroke_t	t	n/a
185.248	0.1795	370496	keystroke_i	i	n/a
185.338	0.1045	370676	keystroke_o	o	n/a
185.413	0.075	370826	keystroke_n	n	n/a
185.548	0.105	371096	keystroke_Key.enter	Key.enter	n/a
185.6645	3.6955	371329	prompt	n/a	explorer occupied marking bali\n
186.1935	0.0595	372387	keystroke_e	e	n/a
186.358	0.0895	372716	keystroke_x	x	n/a
186.418	0.0895	372836	keystroke_p	p	n/a
186.568	0.0895	373136	keystroke_l	l	n/a
186.748	0.09	373496	keystroke_o	o	n/a
186.808	0.105	373616	keystroke_r	r	n/a
186.883	0.135	373766	keystroke_e	e	n/a
186.988	0.135	373976	keystroke_r	r	n/a
187.108	0.09	374216	keystroke_Key.space	Key.space	n/a
187.213	0.09	374426	keystroke_o	o	n/a
187.318	0.06	374636	keystroke_c	c	n/a
187.4535	0.0895	374907	keystroke_c	c	n/a
187.5285	0.104	375057	keystroke_u	u	n/a
187.618	0.105	375236	keystroke_p	p	n/a
187.693	0.105	375386	keystroke_i	i	n/a
187.768	0.075	375536	keystroke_e	e	n/a
187.9035	0.119	375807	keystroke_d	d	n/a
187.993	0.1195	375986	keystroke_Key.space	Key.space	n/a
188.098	0.105	376196	keystroke_m	m	n/a
188.1885	0.1195	376377	keystroke_a	a	n/a
188.248	0.1705	376496	keystroke_r	r	n/a
188.368	0.0595	376736	keystroke_k	k	n/a
188.533	0.1055	377066	keystroke_i	i	n/a
188.5785	0.104	377157	keystroke_n	n	n/a
188.6235	0.1195	377247	keystroke_g	g	n/a
188.7285	0.0595	377457	keystroke_Key.space	Key.space	n/a
188.833	0.0745	377666	keystroke_b	b	n/a
188.893	0.15	377786	keystroke_a	a	n/a
188.998	0.137	377996	keystroke_l	l	n/a
189.073	0.075	378146	keystroke_i	i	n/a
189.268	0.0895	378536	keystroke_Key.enter	Key.enter	n/a
189.369	4.1605	378738	prompt	n/a	worldwide outlet cutting court\n
190.048	0.1195	380096	keystroke_w	w	n/a
190.588	0.1045	381176	keystroke_o	o	n/a
190.708	0.1045	381416	keystroke_r	r	n/a
190.843	0.0895	381686	keystroke_l	l	n/a
190.918	0.0895	381836	keystroke_d	d	n/a
191.0535	0.1345	382107	keystroke_w	w	n/a
191.1735	0.0745	382347	keystroke_i	i	n/a
191.233	0.06	382466	keystroke_d	d	n/a
191.383	0.105	382766	keystroke_e	e	n/a
191.458	0.105	382916	keystroke_Key.space	Key.space	n/a
191.5485	0.1045	383097	keystroke_o	o	n/a
191.608	0.105	383216	keystroke_u	u	n/a
191.683	0.15	383366	keystroke_t	t	n/a
191.8035	0.1345	383607	keystroke_l	l	n/a
191.923	0.105	383846	keystroke_e	e	n/a
191.9985	0.134	383997	keystroke_t	t	n/a
192.0885	0.1195	384177	keystroke_Key.space	Key.space	n/a
192.283	0.0895	384566	keystroke_c	c	n/a
192.388	0.105	384776	keystroke_u	u	n/a
192.478	0.06	384956	keystroke_t	t	n/a
192.6135	0.0895	385227	keystroke_t	t	n/a
192.673	0.12	385346	keystroke_i	i	n/a
192.7185	0.1195	385437	keystroke_n	n	n/a
192.808	0.105	385616	keystroke_g	g	n/a
192.883	0.075	385766	keystroke_Key.space	Key.space	n/a
192.988	0.105	385976	keystroke_c	c	n/a
193.078	0.075	386156	keystroke_o	o	n/a
193.108	0.105	386216	keystroke_u	u	n/a
193.198	0.06	386396	keystroke_r	r	n/a
193.333	0.1045	386666	keystroke_t	t	n/a
193.4385	0.089	386877	keystroke_Key.enter	Key.enter	n/a
193.5375	3.3375	387075	prompt	n/a	wrist deliver writes findings\n
194.0685	0.119	388137	keystroke_w	w	n/a
194.2185	0.1345	388437	keystroke_r	r	n/a
194.338	0.12	388676	keystroke_i	i	n/a
194.428	0.1195	388856	keystroke_s	s	n/a
194.488	0.1345	388976	keystroke_t	t	n/a
194.578	0.105	389156	keystroke_Key.space	Key.space	n/a
194.788	0.105	389576	keystroke_d	d	n/a
194.9685	0.104	389937	keystroke_e	e	n/a
195.1035	0.1045	390207	keystroke_l	l	n/a
195.148	0.12	390296	keystroke_i	i	n/a
195.193	0.09	390386	keystroke_v	v	n/a
195.328	0.12	390656	keystroke_e	e	n/a
195.4035	0.134	390807	keystroke_r	r	n/a
195.463	0.12	390926	keystroke_Key.space	Key.space	n/a
195.5535	0.134	391107	keystroke_w	w	n/a
195.643	0.1195	391286	keystroke_r	r	n/a
195.778	0.0745	391556	keystroke_i	i	n/a
195.8385	0.134	391677	keystroke_t	t	n/a
195.898	0.1495	391796	keystroke_e	e	n/a
195.958	0.135	391916	keystroke_s	s	n/a
196.0185	0.104	392037	keystroke_Key.space	Key.space	n/a
196.1385	0.119	392277	keystroke_f	f	n/a
196.213	0.135	392426	keystroke_i	i	n/a
196.288	0.1195	392576	keystroke_n	n	n/a
196.393	0.1195	392786	keystroke_d	d	n/a
196.4985	0.1045	392997	keystroke_i	i	n/a
196.543	0.1045	393086	keystroke_n	n	n/a
196.618	0.075	393236	keystroke_g	g	n/a
196.678	0.1195	393356	keystroke_s	s	n/a
196.7985	0.074	393597	keystroke_Key.enter	Key.enter	n/a
196.882	3.533	393764	prompt	n/a	gathering outcomes rosa buffer\n
197.413	0.105	394826	keystroke_g	g	n/a
197.548	0.135	395096	keystroke_a	a	n/a
197.638	0.1195	395276	keystroke_t	t	n/a
197.728	0.09	395456	keystroke_h	h	n/a
197.8035	0.0895	395607	keystroke_e	e	n/a
197.848	0.12	395696	keystroke_r	r	n/a
197.9535	0.119	395907	keystroke_i	i	n/a
197.998	0.12	395996	keystroke_n	n	n/a
198.088	0.105	396176	keystroke_g	g	n/a
198.163	0.1195	396326	keystroke_Key.space	Key.space	n/a
198.2385	0.1045	396477	keystroke_o	o	n/a
198.298	0.105	396596	keystroke_u	u	n/a
198.358	0.09	396716	keystroke_t	t	n/a
198.523	0.09	397046	keystroke_c	c	n/a
198.628	0.09	397256	keystroke_o	o	n/a
198.658	0.12	397316	keystroke_m	m	n/a
198.748	0.15	397496	keystroke_e	e	n/a
198.793	0.165	397586	keystroke_s	s	n/a
198.913	0.0895	397826	keystroke_Key.space	Key.space	n/a
199.0785	0.119	398157	keystroke_r	r	n/a
199.183	0.09	398366	keystroke_o	o	n/a
199.288	0.135	398576	keystroke_s	s	n/a
199.408	0.15	398816	keystroke_a	a	n/a
199.528	0.09	399056	keystroke_Key.space	Key.space	n/a
199.633	0.09	399266	keystroke_b	b	n/a
199.738	0.1045	399476	keystroke_u	u	n/a
199.858	0.06	399716	keystroke_f	f	n/a
199.993	0.105	399986	keystroke_f	f	n/a
200.083	0.12	400166	keystroke_e	e	n/a
200.173	0.105	400346	keystroke_r	r	n/a
200.323	0.09	400646	keystroke_Key.enter	Key.enter	n/a
200.422	4.643	400844	prompt	n/a	diagnosis knights represented boutique\n
201.013	0.12	402026	keystroke_d	d	n/a
201.1785	0.1195	402357	keystroke_i	i	n/a
201.343	0.165	402686	keystroke_a	a	n/a
201.493	0.105	402986	keystroke_g	g	n/a
201.613	0.105	403226	keystroke_n	n	n/a
201.688	0.105	403376	keystroke_o	o	n/a
201.8085	0.1045	403617	keystroke_s	s	n/a
201.9285	0.0745	403857	keystroke_i	i	n/a
202.0035	0.1045	404007	keystroke_s	s	n/a
202.078	0.12	404156	keystroke_Key.space	Key.space	n/a
202.138	0.105	404276	keystroke_k	k	n/a
202.213	0.135	404426	keystroke_n	n	n/a
202.333	0.1045	404666	keystroke_i	i	n/a
202.408	0.09	404816	keystroke_g	g	n/a
202.513	0.105	405026	keystroke_h	h	n/a
202.558	0.135	405116	keystroke_t	t	n/a
202.648	0.135	405296	keystroke_s	s	n/a
202.753	0.105	405506	keystroke_Key.space	Key.space	n/a
202.873	0.135	405746	keystroke_r	r	n/a
202.978	0.105	405956	keystroke_e	e	n/a
203.098	0.105	406196	keystroke_p	p	n/a
203.218	0.12	406436	keystroke_r	r	n/a
203.278	0.12	406556	keystroke_e	e	n/a
203.3535	0.1645	406707	keystroke_s	s	n/a
203.488	0.1195	406976	keystroke_e	e	n/a
203.593	0.09	407186	keystroke_n	n	n/a
203.6535	0.1195	407307	keystroke_t	t	n/a
203.728	0.075	407456	keystroke_e	e	n/a
203.863	0.105	407726	keystroke_d	d	n/a
203.9535	0.0895	407907	keystroke_Key.space	Key.space	n/a
204.073	0.09	408146	keystroke_b	b	n/a
204.148	0.135	408296	keystroke_o	o	n/a
204.208	0.12	408416	keystroke_u	u	n/a
204.3735	0.1045	408747	keystroke_t	t	n/a
204.508	0.09	409016	keystroke_i	i	n/a
204.613	0.1345	409226	keystroke_q	q	n/a
204.734	0.074	409468	keystroke_u	u	n/a
204.7785	0.1045	409557	keystroke_e	e	n/a
204.958	0.105	409916	keystroke_Key.enter	Key.enter	n/a
205.073	4.7625	410146	prompt	n/a	takes balanced rich payroll\n
205.678	0.12	411356	keystroke_t	t	n/a
205.783	0.135	411566	keystroke_a	a	n/a
205.888	0.09	411776	keystroke_k	k	n/a
205.948	0.165	411896	keystroke_e	e	n/a
206.0235	0.1345	412047	keystroke_s	s	n/a
206.1435	0.0745	412287	keystroke_Key.space	Key.space	n/a
206.2335	0.1195	412467	keystroke_b	b	n/a
206.3685	0.1045	412737	keystroke_a	a	n/a
206.488	0.105	412976	keystroke_l	l	n/a
206.5935	0.134	413187	keystroke_a	a	n/a
206.713	0.105	413426	keystroke_n	n	n/a
206.803	0.0745	413606	keystroke_c	c	n/a
206.998	0.09	413996	keystroke_e	e	n/a
207.1335	0.0145	414267	keystroke_h	h	n/a
207.613	0.0445	415226	keystroke_Key.backspace	Key.backspace	n/a
208.018	0.1045	416036	keystroke_d	d	n/a
208.169	0.104	416338	keystroke_Key.space	Key.space	n/a
208.303	0.135	416606	keystroke_r	r	n/a
208.423	0.105	416846	keystroke_i	i	n/a
208.528	0.1495	417056	keystroke_c	c	n/a
208.603	0.09	417206	keystroke_h	h	n/a
208.708	0.09	417416	keystroke_Key.space	Key.space	n/a
208.918	0.12	417836	keystroke_p	p	n/a
209.023	0.12	418046	keystroke_a	a	n/a
209.113	0.105	418226	keystroke_y	y	n/a
209.2335	0.0895	418467	keystroke_r	r	n/a
209.308	0.0895	418616	keystroke_o	o	n/a
209.473	0.075	418946	keystroke_l	l	n/a
209.623	0.045	419246	keystroke_l	l	n/a
209.758	0.075	419516	keystroke_Key.enter	Key.enter	n/a
209.844	3.021	419688	prompt	n/a	frog colin gray indices\n
210.523	0.0745	421046	keystroke_f	f	n/a
210.703	0.075	421406	keystroke_r	r	n/a
210.763	0.09	421526	keystroke_o	o	n/a
210.8685	0.0895	421737	keystroke_g	g	n/a
210.928	0.075	421856	keystroke_Key.space	Key.space	n/a
211.0335	0.0895	422067	keystroke_c	c	n/a
211.108	0.0595	422216	keystroke_o	o	n/a
211.303	0.09	422606	keystroke_l	l	n/a
211.348	0.135	422696	keystroke_i	i	n/a
211.408	0.12	422816	keystroke_n	n	n/a
211.513	0.0745	423026	keystroke_Key.space	Key.space	n/a
211.573	0.075	423146	keystroke_g	g	n/a
211.753	0.105	423506	keystroke_r	r	n/a
211.828	0.15	423656	keystroke_a	a	n/a
211.9035	0.1045	423807	keystroke_y	y	n/a
212.024	0.0735	424048	keystroke_Key.space	Key.space	n/a
212.143	0.1045	424286	keystroke_i	i	n/a
212.188	0.105	424376	keystroke_n	n	n/a
212.278	0.075	424556	keystroke_d	d	n/a
212.3685	0.0895	424737	keystroke_i	i	n/a
212.473	0.06	424946	keystroke_c	c	n/a
212.638	0.1045	425276	keystroke_e	e	n/a
212.6835	0.1345	425367	keystroke_s	s	n/a
212.773	0.09	425546	keystroke_Key.enter	Key.enter	n/a
212.8765	4.143	425753	prompt	n/a	tall designs tobago celebration\n
213.553	0.105	427106	keystroke_t	t	n/a
213.643	0.135	427286	keystroke_a	a	n/a
213.763	0.06	427526	keystroke_l	l	n/a
213.9135	0.0895	427827	keystroke_l	l	n/a
214.048	0.06	428096	keystroke_Key.space	Key.space	n/a
214.123	0.0895	428246	keystroke_d	d	n/a
214.2885	0.0895	428577	keystroke_e	e	n/a
214.393	0.1495	428786	keystroke_s	s	n/a
214.4985	0.1045	428997	keystroke_i	i	n/a
214.618	0.12	429236	keystroke_g	g	n/a
214.708	0.09	429416	keystroke_n	n	n/a
214.813	0.09	429626	keystroke_s	s	n/a
214.888	0.075	429776	keystroke_Key.space	Key.space	n/a
214.978	0.09	429956	keystroke_t	t	n/a
215.053	0.09	430106	keystroke_o	o	n/a
215.173	0.0895	430346	keystroke_b	b	n/a
215.293	0.1345	430586	keystroke_a	a	n/a
215.353	0.165	430706	keystroke_g	g	n/a
215.473	0.075	430946	keystroke_o	o	n/a
215.563	0.0745	431126	keystroke_Key.space	Key.space	n/a
215.668	0.105	431336	keystroke_c	c	n/a
215.878	0.09	431756	keystroke_e	e	n/a
215.953	0.09	431906	keystroke_l	l	n/a
216.043	0.0895	432086	keystroke_e	e	n/a
216.193	0.0745	432386	keystroke_b	b	n/a
216.388	0.0895	432776	keystroke_r	r	n/a
216.4485	0.1345	432897	keystroke_a	a	n/a
216.538	0.12	433076	keystroke_t	t	n/a
216.628	0.1645	433256	keystroke_i	i	n/a
216.703	0.105	433406	keystroke_o	o	n/a
216.763	0.09	433526	keystroke_n	n	n/a
216.928	0.09	433856	keystroke_Key.enter	Key.enter	n/a
217.029	7.761	434058	prompt	n/a	traffic agent death illustrations\n
217.5885	0.074	435177	keystroke_t	t	n/a
217.738	0.135	435476	keystroke_r	r	n/a
217.9335	0.119	435867	keystroke_a	a	n/a
218.038	0.075	436076	keystroke_f	f	n/a
218.188	0.1195	436376	keystroke_f	f	n/a
218.308	0.075	436616	keystroke_i	i	n/a
218.3985	0.0745	436797	keystroke_c	c	n/a
218.563	0.0745	437126	keystroke_e	e	n/a
218.653	0.0895	437306	keystroke_Key.space	Key.space	n/a
218.7585	0.119	437517	keystroke_a	a	n/a
218.863	0.075	437726	keystroke_g	g	n/a
218.968	0.105	437936	keystroke_e	e	n/a
219.088	0.0745	438176	keystroke_n	n	n/a
219.1485	0.1045	438297	keystroke_t	t	n/a
219.223	0.075	438446	keystroke_Key.space	Key.space	n/a
219.343	0.06	438686	keystroke_d	d	n/a
219.478	0.09	438956	keystroke_e	e	n/a
219.538	0.165	439076	keystroke_a	a	n/a
219.628	0.1045	439256	keystroke_t	t	n/a
219.913	0.0745	439826	keystroke_Key.backspace	Key.backspace	n/a
220.078	0.0595	440156	keystroke_Key.backspace	Key.backspace	n/a
220.213	0.075	440426	keystroke_Key.backspace	Key.backspace	n/a
220.363	0.075	440726	keystroke_Key.backspace	Key.backspace	n/a
220.528	0.06	441056	keystroke_Key.backspace	Key.backspace	n/a
220.663	0.075	441326	keystroke_Key.backspace	Key.backspace	n/a
220.813	0.0745	441626	keystroke_Key.backspace	Key.backspace	n/a
220.978	0.06	441956	keystroke_Key.backspace	Key.backspace	n/a
221.128	0.075	442256	keystroke_Key.backspace	Key.backspace	n/a
221.278	0.075	442556	keystroke_Key.backspace	Key.backspace	n/a
221.443	0.0595	442886	keystroke_Key.backspace	Key.backspace	n/a
221.593	0.0595	443186	keystroke_Key.backspace	Key.backspace	n/a
221.9835	0.0595	443967	keystroke_Key.space	Key.space	n/a
222.118	0.12	444236	keystroke_a	a	n/a
222.223	0.075	444446	keystroke_g	g	n/a
222.313	0.0895	444626	keystroke_e	e	n/a
222.418	0.0745	444836	keystroke_n	n	n/a
222.478	0.135	444956	keystroke_t	t	n/a
222.5835	0.089	445167	keystroke_Key.space	Key.space	n/a
222.688	0.0745	445376	keystroke_d	d	n/a
222.868	0.105	445736	keystroke_e	e	n/a
222.943	0.1495	445886	keystroke_a	a	n/a
223.063	0.12	446126	keystroke_t	t	n/a
223.168	0.09	446336	keystroke_h	h	n/a
223.273	0.0895	446546	keystroke_Key.space	Key.space	n/a
223.393	0.075	446786	keystroke_i	i	n/a
223.528	0.075	447056	keystroke_l	l	n/a
223.678	0.09	447356	keystroke_l	l	n/a
223.7985	0.104	447597	keystroke_u	u	n/a
223.888	0.0895	447776	keystroke_s	s	n/a
223.9485	0.074	447897	keystroke_t	t	n/a
224.0985	0.104	448197	keystroke_r	r	n/a
224.173	0.15	448346	keystroke_a	a	n/a
224.263	0.1495	448526	keystroke_t	t	n/a
224.353	0.1345	448706	keystroke_i	i	n/a
224.428	0.1345	448856	keystroke_o	o	n/a
224.5335	0.044	449067	keystroke_n	n	n/a
224.548	0.09	449096	keystroke_s	s	n/a
224.728	0.0595	449456	keystroke_Key.enter	Key.enter	n/a
224.796	4.629	449592	prompt	n/a	period pathology endorsement insulation\n
225.418	0.12	450836	keystroke_p	p	n/a
225.553	0.1195	451106	keystroke_e	e	n/a
225.628	0.135	451256	keystroke_r	r	n/a
225.718	0.1195	451436	keystroke_i	i	n/a
225.778	0.12	451556	keystroke_o	o	n/a
225.853	0.1195	451706	keystroke_d	d	n/a
225.943	0.105	451886	keystroke_Key.space	Key.space	n/a
226.003	0.12	452006	keystroke_p	p	n/a
226.138	0.1195	452276	keystroke_a	a	n/a
226.243	0.1495	452486	keystroke_t	t	n/a
226.378	0.105	452756	keystroke_h	h	n/a
226.453	0.0895	452906	keystroke_o	o	n/a
226.618	0.075	453236	keystroke_l	l	n/a
226.7985	0.089	453597	keystroke_o	o	n/a
226.903	0.15	453806	keystroke_g	g	n/a
226.993	0.0895	453986	keystroke_y	y	n/a
227.0985	0.074	454197	keystroke_Key.space	Key.space	n/a
227.188	0.105	454376	keystroke_e	e	n/a
227.308	0.0895	454616	keystroke_n	n	n/a
227.413	0.1045	454826	keystroke_d	d	n/a
227.503	0.0895	455006	keystroke_o	o	n/a
227.608	0.1345	455216	keystroke_r	r	n/a
227.7135	0.1495	455427	keystroke_s	s	n/a
227.803	0.1195	455606	keystroke_e	e	n/a
227.908	0.09	455816	keystroke_m	m	n/a
228.0135	0.1195	456027	keystroke_e	e	n/a
228.103	0.09	456206	keystroke_n	n	n/a
228.193	0.1195	456386	keystroke_t	t	n/a
228.268	0.12	456536	keystroke_Key.space	Key.space	n/a
228.358	0.1195	456716	keystroke_i	i	n/a
228.418	0.09	456836	keystroke_n	n	n/a
228.493	0.1495	456986	keystroke_s	s	n/a
228.628	0.0745	457256	keystroke_u	u	n/a
228.733	0.105	457466	keystroke_l	l	n/a
228.853	0.1195	457706	keystroke_a	a	n/a
228.8985	0.134	457797	keystroke_t	t	n/a
229.003	0.15	458006	keystroke_i	i	n/a
229.0635	0.134	458127	keystroke_o	o	n/a
229.138	0.1195	458276	keystroke_n	n	n/a
229.348	0.075	458696	keystroke_Key.enter	Key.enter	n/a
229.433	3.6075	458866	prompt	n/a	nature memories ballot reputation\n
230.0085	0.1045	460017	keystroke_n	n	n/a
230.0985	0.1345	460197	keystroke_a	a	n/a
230.1885	0.1045	460377	keystroke_t	t	n/a
230.3085	0.089	460617	keystroke_u	u	n/a
230.368	0.135	460736	keystroke_r	r	n/a
230.4285	0.1345	460857	keystroke_e	e	n/a
230.518	0.105	461036	keystroke_Key.space	Key.space	n/a
230.593	0.0905	461186	keystroke_m	m	n/a
230.6995	0.119	461399	keystroke_e	e	n/a
230.7895	0.103	461579	keystroke_m	m	n/a
230.849	0.0885	461698	keystroke_o	o	n/a
230.923	0.12	461846	keystroke_r	r	n/a
231.028	0.0895	462056	keystroke_i	i	n/a
231.103	0.15	462206	keystroke_e	e	n/a
231.178	0.1055	462356	keystroke_s	s	n/a
231.268	0.0595	462536	keystroke_Key.space	Key.space	n/a
231.358	0.0895	462716	keystroke_b	b	n/a
231.4635	0.119	462927	keystroke_a	a	n/a
231.568	0.06	463136	keystroke_l	l	n/a
231.718	0.045	463436	keystroke_l	l	n/a
231.853	0.0895	463706	keystroke_o	o	n/a
231.928	0.1195	463856	keystroke_t	t	n/a
232.033	0.0745	464066	keystroke_Key.space	Key.space	n/a
232.123	0.12	464246	keystroke_r	r	n/a
232.168	0.135	464336	keystroke_e	e	n/a
232.288	0.105	464576	keystroke_p	p	n/a
232.333	0.1195	464666	keystroke_u	u	n/a
232.408	0.09	464816	keystroke_t	t	n/a
232.5135	0.134	465027	keystroke_a	a	n/a
232.573	0.1195	465146	keystroke_t	t	n/a
232.648	0.165	465296	keystroke_i	i	n/a
232.708	0.12	465416	keystroke_o	o	n/a
232.783	0.09	465566	keystroke_n	n	n/a
232.948	0.09	465896	keystroke_Key.enter	Key.enter	n/a
233.049	3.8005	466098	prompt	n/a	prediction blend equipped piece\n
233.593	0.12	467186	keystroke_p	p	n/a
233.653	0.135	467306	keystroke_r	r	n/a
233.758	0.09	467516	keystroke_e	e	n/a
233.938	0.075	467876	keystroke_d	d	n/a
234.028	0.075	468056	keystroke_i	i	n/a
234.118	0.0745	468236	keystroke_c	c	n/a
234.283	0.09	468566	keystroke_t	t	n/a
234.3585	0.1495	468717	keystroke_i	i	n/a
234.418	0.105	468836	keystroke_o	o	n/a
234.479	0.119	468958	keystroke_n	n	n/a
234.583	0.0895	469166	keystroke_Key.space	Key.space	n/a
234.658	0.09	469316	keystroke_b	b	n/a
234.793	0.09	469586	keystroke_l	l	n/a
234.868	0.12	469736	keystroke_e	e	n/a
234.973	0.075	469946	keystroke_n	n	n/a
235.0635	0.0895	470127	keystroke_d	d	n/a
235.168	0.0595	470336	keystroke_Key.space	Key.space	n/a
235.303	0.12	470606	keystroke_e	e	n/a
235.3935	0.134	470787	keystroke_q	q	n/a
235.483	0.1345	470966	keystroke_u	u	n/a
235.543	0.105	471086	keystroke_i	i	n/a
235.588	0.0895	471176	keystroke_p	p	n/a
235.768	0.0895	471536	keystroke_p	p	n/a
235.873	0.1045	471746	keystroke_e	e	n/a
236.023	0.105	472046	keystroke_d	d	n/a
236.1135	0.0745	472227	keystroke_Key.space	Key.space	n/a
236.173	0.105	472346	keystroke_p	p	n/a
236.233	0.105	472466	keystroke_i	i	n/a
236.293	0.0745	472586	keystroke_e	e	n/a
236.458	0.06	472916	keystroke_c	c	n/a
236.623	0.0745	473246	keystroke_e	e	n/a
236.743	0.1045	473486	keystroke_Key.enter	Key.enter	n/a
236.8575	3.367	473715	prompt	n/a	coast lose paying recommend\n
237.433	0.0895	474866	keystroke_c	c	n/a
237.4935	0.0745	474987	keystroke_o	o	n/a
237.583	0.135	475166	keystroke_a	a	n/a
237.658	0.1495	475316	keystroke_s	s	n/a
237.718	0.15	475436	keystroke_t	t	n/a
237.823	0.135	475646	keystroke_Key.space	Key.space	n/a
237.8685	0.074	475737	keystroke_l	l	n/a
238.018	0.1195	476036	keystroke_o	o	n/a
238.063	0.1495	476126	keystroke_s	s	n/a
238.123	0.1345	476246	keystroke_e	e	n/a
238.198	0.105	476396	keystroke_Key.space	Key.space	n/a
238.273	0.1045	476546	keystroke_p	p	n/a
238.393	0.12	476786	keystroke_a	a	n/a
238.453	0.0895	476906	keystroke_y	y	n/a
238.603	0.12	477206	keystroke_i	i	n/a
238.6635	0.119	477327	keystroke_n	n	n/a
238.738	0.105	477476	keystroke_g	g	n/a
238.8135	0.0895	477627	keystroke_Key.space	Key.space	n/a
238.933	0.0895	477866	keystroke_r	r	n/a
238.9785	0.089	477957	keystroke_e	e	n/a
239.158	0.1045	478316	keystroke_c	c	n/a
239.233	0.0895	478466	keystroke_o	o	n/a
239.2785	0.089	478557	keystroke_m	m	n/a
239.429	0.1035	478858	keystroke_m	m	n/a
239.5785	0.1045	479157	keystroke_e	e	n/a
239.593	0.09	479186	keystroke_n	n	n/a
239.788	0.075	479576	keystroke_d	d	n/a
240.148	0.0745	480296	keystroke_Key.enter	Key.enter	n/a
240.232	4.238	480464	prompt	n/a	ethical inputs thehun province\n
240.823	0.105	481646	keystroke_e	e	n/a
240.988	0.12	481976	keystroke_t	t	n/a
241.138	0.1045	482276	keystroke_h	h	n/a
241.2135	0.119	482427	keystroke_i	i	n/a
241.318	0.0895	482636	keystroke_c	c	n/a
241.423	0.1645	482846	keystroke_a	a	n/a
241.483	0.0895	482966	keystroke_l	l	n/a
241.618	0.09	483236	keystroke_Key.space	Key.space	n/a
241.693	0.1195	483386	keystroke_i	i	n/a
241.753	0.1045	483506	keystroke_n	n	n/a
241.888	0.1195	483776	keystroke_p	p	n/a
241.963	0.105	483926	keystroke_u	u	n/a
242.038	0.1195	484076	keystroke_t	t	n/a
242.098	0.1495	484196	keystroke_s	s	n/a
242.218	0.12	484436	keystroke_Key.space	Key.space	n/a
242.323	0.1195	484646	keystroke_t	t	n/a
242.398	0.09	484796	keystroke_h	h	n/a
242.458	0.1345	484916	keystroke_e	e	n/a
242.563	0.075	485126	keystroke_h	h	n/a
242.7285	0.089	485457	keystroke_u	u	n/a
242.893	0.09	485786	keystroke_n	n	n/a
243.028	0.0895	486056	keystroke_Key.space	Key.space	n/a
243.133	0.09	486266	keystroke_p	p	n/a
243.223	0.105	486446	keystroke_r	r	n/a
243.3135	0.1045	486627	keystroke_o	o	n/a
243.448	0.09	486896	keystroke_v	v	n/a
243.553	0.12	487106	keystroke_i	i	n/a
243.613	0.1045	487226	keystroke_n	n	n/a
244.063	0.075	488126	keystroke_c	c	n/a
244.214	0.0885	488428	keystroke_e	e	n/a
244.3785	0.0895	488757	keystroke_Key.enter	Key.enter	n/a
244.479	3.9535	488958	prompt	n/a	bedding dear antibody decade\n
245.053	0.0905	490106	keystroke_b	b	n/a
245.218	0.0745	490436	keystroke_e	e	n/a
245.383	0.0595	490766	keystroke_d	d	n/a
245.518	0.1045	491036	keystroke_d	d	n/a
245.608	0.1195	491216	keystroke_i	i	n/a
245.668	0.09	491336	keystroke_n	n	n/a
245.713	0.1345	491426	keystroke_g	g	n/a
245.803	0.0895	491606	keystroke_Key.space	Key.space	n/a
245.923	0.0745	491846	keystroke_d	d	n/a
246.103	0.105	492206	keystroke_e	e	n/a
246.1635	0.1645	492327	keystroke_a	a	n/a
246.223	0.165	492446	keystroke_r	r	n/a
246.3435	0.0895	492687	keystroke_Key.space	Key.space	n/a
246.448	0.12	492896	keystroke_a	a	n/a
246.523	0.0895	493046	keystroke_n	n	n/a
246.6285	0.104	493257	keystroke_t	t	n/a
246.718	0.075	493436	keystroke_i	i	n/a
246.808	0.12	493616	keystroke_b	b	n/a
246.913	0.0745	493826	keystroke_o	o	n/a
247.048	0.1345	494096	keystroke_d	d	n/a
247.108	0.09	494216	keystroke_y	y	n/a
247.213	0.0745	494426	keystroke_Key.space	Key.space	n/a
247.483	0.0895	494966	keystroke_d	d	n/a
247.648	0.0745	495296	keystroke_e	e	n/a
247.8285	0.0745	495657	keystroke_c	c	n/a
247.9785	0.1195	495957	keystroke_a	a	n/a
248.053	0.09	496106	keystroke_d	d	n/a
248.218	0.0895	496436	keystroke_e	e	n/a
248.338	0.09	496676	keystroke_Key.enter	Key.enter	n/a
248.4415	5.1485	496883	prompt	n/a	completely istanbul calculated berkeley\n
249.1635	0.0895	498327	keystroke_c	c	n/a
249.2685	0.104	498537	keystroke_o	o	n/a
249.313	0.165	498626	keystroke_m	m	n/a
249.433	0.0925	498866	keystroke_p	p	n/a
249.613	0.09	499226	keystroke_l	l	n/a
249.688	0.105	499376	keystroke_e	e	n/a
249.778	0.12	499556	keystroke_t	t	n/a
249.8685	0.1195	499737	keystroke_e	e	n/a
249.944	0.1185	499888	keystroke_l	l	n/a
250.033	0.12	500066	keystroke_y	y	n/a
250.138	0.09	500276	keystroke_Key.space	Key.space	n/a
250.303	0.12	500606	keystroke_i	i	n/a
250.348	0.1195	500696	keystroke_n	n	n/a
250.498	0.105	500996	keystroke_s	s	n/a
250.588	0.105	501176	keystroke_t	t	n/a
250.6755	0.1525	501351	keystroke_a	a	n/a
250.769	0.1035	501538	keystroke_n	n	n/a
250.9635	0.104	501927	keystroke_b	b	n/a
251.053	0.09	502106	keystroke_u	u	n/a
251.1585	0.104	502317	keystroke_l	l	n/a
251.2785	0.0895	502557	keystroke_Key.space	Key.space	n/a
251.398	0.09	502796	keystroke_c	c	n/a
251.533	0.1195	503066	keystroke_a	a	n/a
251.668	0.075	503336	keystroke_l	l	n/a
251.773	0.0745	503546	keystroke_c	c	n/a
251.863	0.09	503726	keystroke_u	u	n/a
251.968	0.09	503936	keystroke_l	l	n/a
252.0285	0.1045	504057	keystroke_a	a	n/a
252.088	0.12	504176	keystroke_t	t	n/a
252.163	0.075	504326	keystroke_e	e	n/a
252.313	0.1045	504626	keystroke_d	d	n/a
252.418	0.075	504836	keystroke_Key.space	Key.space	n/a
252.508	0.0895	505016	keystroke_b	b	n/a
252.658	0.12	505316	keystroke_e	e	n/a
252.748	0.135	505496	keystroke_r	r	n/a
252.898	0.09	505796	keystroke_k	k	n/a
253.033	0.045	506066	keystroke_e	e	n/a
253.123	0.105	506246	keystroke_l	l	n/a
253.198	0.075	506396	keystroke_e	e	n/a
253.3335	0.0595	506667	keystroke_y	y	n/a
253.513	0.075	507026	keystroke_Key.enter	Key.enter	n/a
253.5995	4.911	507199	prompt	n/a	voters algeria premiere reaching\n
254.203	0.105	508406	keystroke_v	v	n/a
254.2935	0.0895	508587	keystroke_o	o	n/a
254.4435	0.1045	508887	keystroke_t	t	n/a
254.563	0.135	509126	keystroke_e	e	n/a
254.653	0.12	509306	keystroke_r	r	n/a
254.7285	0.134	509457	keystroke_s	s	n/a
254.8485	0.089	509697	keystroke_Key.space	Key.space	n/a
254.968	0.1645	509936	keystroke_a	a	n/a
255.1035	0.0895	510207	keystroke_l	l	n/a
255.1785	0.1045	510357	keystroke_g	g	n/a
255.298	0.12	510596	keystroke_e	e	n/a
255.433	0.15	510866	keystroke_r	r	n/a
255.5835	0.1195	511167	keystroke_i	i	n/a
255.688	0.15	511376	keystroke_a	a	n/a
255.7935	0.1045	511587	keystroke_Key.space	Key.space	n/a
255.913	0.12	511826	keystroke_p	p	n/a
256.018	0.105	512036	keystroke_r	r	n/a
256.153	0.1345	512306	keystroke_e	e	n/a
256.288	0.12	512576	keystroke_m	m	n/a
256.363	0.12	512726	keystroke_i	i	n/a
256.4535	0.1045	512907	keystroke_e	e	n/a
256.528	0.15	513056	keystroke_r	r	n/a
256.648	0.1345	513296	keystroke_e	e	n/a
256.798	0.09	513596	keystroke_Key.space	Key.space	n/a
256.948	0.12	513896	keystroke_t	t	n/a
257.2635	0.0745	514527	keystroke_Key.backspace	Key.backspace	n/a
257.398	0.135	514796	keystroke_r	r	n/a
257.4885	0.1495	514977	keystroke_e	e	n/a
257.653	0.105	515306	keystroke_a	a	n/a
257.803	0.105	515606	keystroke_c	c	n/a
257.8935	0.089	515787	keystroke_h	h	n/a
257.968	0.1645	515936	keystroke_i	i	n/a
258.088	0.105	516176	keystroke_n	n	n/a
258.178	0.075	516356	keystroke_g	g	n/a
258.463	0.0445	516926	keystroke_Key.enter	Key.enter	n/a
258.519	4.041	517038	prompt	n/a	valuable keyword assist backing\n
259.138	0.12	518276	keystroke_v	v	n/a
259.273	0.12	518546	keystroke_a	a	n/a
259.3785	0.089	518757	keystroke_l	l	n/a
259.423	0.105	518846	keystroke_u	u	n/a
259.4985	0.119	518997	keystroke_a	a	n/a
259.5585	0.104	519117	keystroke_b	b	n/a
259.678	0.105	519356	keystroke_l	l	n/a
259.768	0.09	519536	keystroke_e	e	n/a
259.8435	0.1045	519687	keystroke_Key.space	Key.space	n/a
259.918	0.0895	519836	keystroke_k	k	n/a
260.023	0.135	520046	keystroke_e	e	n/a
260.1435	0.0595	520287	keystroke_y	y	n/a
260.3085	0.1345	520617	keystroke_w	w	n/a
260.4585	0.0895	520917	keystroke_o	o	n/a
260.5935	0.104	521187	keystroke_r	r	n/a
260.743	0.1195	521486	keystroke_d	d	n/a
260.8485	0.1045	521697	keystroke_Key.space	Key.space	n/a
260.983	0.105	521966	keystroke_a	a	n/a
261.073	0.0745	522146	keystroke_s	s	n/a
261.238	0.0895	522476	keystroke_s	s	n/a
261.343	0.1045	522686	keystroke_i	i	n/a
261.433	0.1045	522866	keystroke_s	s	n/a
261.5085	0.104	523017	keystroke_t	t	n/a
261.598	0.0895	523196	keystroke_Key.space	Key.space	n/a
261.718	0.1045	523436	keystroke_b	b	n/a
261.838	0.105	523676	keystroke_a	a	n/a
261.913	0.1195	523826	keystroke_c	c	n/a
262.048	0.06	524096	keystroke_k	k	n/a
262.213	0.0895	524426	keystroke_i	i	n/a
262.2585	0.089	524517	keystroke_n	n	n/a
262.333	0.105	524666	keystroke_g	g	n/a
262.483	0.075	524966	keystroke_Key.enter	Key.enter	n/a
262.5675	5.5875	525135	prompt	n/a	burn united hazards christian\n
263.2935	0.0745	526587	keystroke_b	b	n/a
263.473	0.12	526946	keystroke_r	r	n/a
263.518	0.1045	527036	keystroke_u	u	n/a
263.698	0.1045	527396	keystroke_n	n	n/a
263.818	0.09	527636	keystroke_Key.space	Key.space	n/a
263.953	0.0745	527906	keystroke_u	u	n/a
264.223	0.0595	528446	keystroke_Key.backspace	Key.backspace	n/a
264.373	0.075	528746	keystroke_Key.backspace	Key.backspace	n/a
264.5095	0.074	529019	keystroke_Key.backspace	Key.backspace	n/a
264.6585	0.074	529317	keystroke_Key.backspace	Key.backspace	n/a
264.808	0.0745	529616	keystroke_Key.backspace	Key.backspace	n/a
265.018	0.075	530036	keystroke_u	u	n/a
265.1085	0.134	530217	keystroke_r	r	n/a
265.198	0.0895	530396	keystroke_n	n	n/a
265.333	0.0895	530666	keystroke_Key.space	Key.space	n/a
265.453	0.0745	530906	keystroke_u	u	n/a
265.618	0.12	531236	keystroke_n	n	n/a
265.693	0.105	531386	keystroke_i	i	n/a
265.753	0.09	531506	keystroke_t	t	n/a
265.813	0.0745	531626	keystroke_e	e	n/a
265.963	0.12	531926	keystroke_d	d	n/a
266.053	0.105	532106	keystroke_Key.space	Key.space	n/a
266.1435	0.059	532287	keystroke_h	h	n/a
266.233	0.1045	532466	keystroke_a	a	n/a
266.428	0.075	532856	keystroke_z	z	n/a
266.6085	0.1345	533217	keystroke_a	a	n/a
266.683	0.1795	533366	keystroke_r	r	n/a
266.818	0.1645	533636	keystroke_d	d	n/a
266.9085	0.164	533817	keystroke_s	s	n/a
267.0435	0.0745	534087	keystroke_Key.space	Key.space	n/a
267.148	0.105	534296	keystroke_c	c	n/a
267.283	0.0895	534566	keystroke_h	h	n/a
267.388	0.12	534776	keystroke_r	r	n/a
267.493	0.09	534986	keystroke_i	i	n/a
267.583	0.1195	535166	keystroke_s	s	n/a
267.6585	0.1195	535317	keystroke_t	t	n/a
267.748	0.0755	535496	keystroke_i	i	n/a
267.838	0.12	535676	keystroke_a	a	n/a
267.928	0.0745	535856	keystroke_n	n	n/a
268.078	0.075	536156	keystroke_Key.enter	Key.enter	n/a
268.1645	3.3205	536329	prompt	n/a	glory permit bedding irish\n
268.918	0.1055	537836	keystroke_g	g	n/a
268.993	0.0745	537986	keystroke_l	l	n/a
269.1585	0.0745	538317	keystroke_o	o	n/a
269.203	0.1345	538406	keystroke_r	r	n/a
269.3235	0.0895	538647	keystroke_y	y	n/a
269.398	0.1045	538796	keystroke_Key.space	Key.space	n/a
269.4735	0.104	538947	keystroke_p	p	n/a
269.563	0.0895	539126	keystroke_e	e	n/a
269.623	0.135	539246	keystroke_r	r	n/a
269.7435	0.0895	539487	keystroke_m	m	n/a
269.788	0.105	539576	keystroke_i	i	n/a
269.848	0.1045	539696	keystroke_t	t	n/a
269.938	0.075	539876	keystroke_Key.space	Key.space	n/a
270.0435	0.0745	540087	keystroke_b	b	n/a
270.178	0.075	540356	keystroke_e	e	n/a
270.343	0.06	540686	keystroke_d	d	n/a
270.478	0.105	540956	keystroke_d	d	n/a
270.553	0.12	541106	keystroke_i	i	n/a
270.628	0.0895	541256	keystroke_n	n	n/a
270.688	0.105	541376	keystroke_g	g	n/a
270.7635	0.0895	541527	keystroke_Key.space	Key.space	n/a
270.838	0.0895	541676	keystroke_i	i	n/a
270.943	0.0895	541886	keystroke_r	r	n/a
271.048	0.09	542096	keystroke_i	i	n/a
271.1235	0.1345	542247	keystroke_s	s	n/a
271.2435	0.0745	542487	keystroke_h	h	n/a
271.4235	0.0595	542847	keystroke_Key.enter	Key.enter	n/a
271.4945	5.06	542989	prompt	n/a	size territories definition charitable\n
272.113	0.06	544226	keystroke_s	s	n/a
272.188	0.075	544376	keystroke_i	i	n/a
272.2785	0.149	544557	keystroke_z	z	n/a
272.3685	0.1345	544737	keystroke_e	e	n/a
272.4735	0.074	544947	keystroke_Key.space	Key.space	n/a
272.563	0.12	545126	keystroke_t	t	n/a
272.698	0.105	545396	keystroke_e	e	n/a
272.774	0.119	545548	keystroke_r	r	n/a
272.953	0.075	545906	keystroke_i	i	n/a
273.238	0.09	546476	keystroke_Key.backspace	Key.backspace	n/a
273.448	0.105	546896	keystroke_r	r	n/a
273.568	0.0745	547136	keystroke_i	i	n/a
273.674	0.104	547348	keystroke_t	t	n/a
273.7785	0.0895	547557	keystroke_o	o	n/a
273.8685	0.1345	547737	keystroke_r	r	n/a
273.958	0.09	547916	keystroke_i	i	n/a
274.018	0.15	548036	keystroke_e	e	n/a
274.078	0.135	548156	keystroke_s	s	n/a
274.183	0.075	548366	keystroke_Key.space	Key.space	n/a
274.303	0.06	548606	keystroke_d	d	n/a
274.438	0.09	548876	keystroke_e	e	n/a
274.468	0.15	548936	keystroke_f	f	n/a
274.5585	0.1045	549117	keystroke_i	i	n/a
274.633	0.135	549266	keystroke_n	n	n/a
274.753	0.075	549506	keystroke_i	i	n/a
274.813	0.135	549626	keystroke_t	t	n/a
274.933	0.15	549866	keystroke_i	i	n/a
274.978	0.1345	549956	keystroke_o	o	n/a
275.0235	0.134	550047	keystroke_n	n	n/a
275.143	0.06	550286	keystroke_Key.space	Key.space	n/a
275.2635	0.0895	550527	keystroke_c	c	n/a
275.338	0.1045	550676	keystroke_h	h	n/a
275.4585	0.1045	550917	keystroke_a	a	n/a
275.5035	0.1045	551007	keystroke_r	r	n/a
275.638	0.1045	551276	keystroke_i	i	n/a
275.683	0.105	551366	keystroke_t	t	n/a
275.968	0.12	551936	keystroke_a	a	n/a
276.133	0.105	552266	keystroke_b	b	n/a
276.253	0.06	552506	keystroke_l	l	n/a
276.3445	0.0885	552689	keystroke_e	e	n/a
276.478	0.075	552956	keystroke_Key.enter	Key.enter	n/a
276.563	2.9775	553126	prompt	n/a	emirates bread boss for\n
277.1535	0.134	554307	keystroke_e	e	n/a
277.2735	0.0895	554547	keystroke_m	m	n/a
277.333	0.105	554666	keystroke_i	i	n/a
277.4085	0.134	554817	keystroke_r	r	n/a
277.528	0.135	555056	keystroke_a	a	n/a
277.6185	0.1345	555237	keystroke_t	t	n/a
277.6785	0.1645	555357	keystroke_e	e	n/a
277.753	0.135	555506	keystroke_s	s	n/a
277.8585	0.0895	555717	keystroke_Key.space	Key.space	n/a
277.9635	0.0895	555927	keystroke_b	b	n/a
278.1585	0.1495	556317	keystroke_r	r	n/a
278.218	0.105	556436	keystroke_e	e	n/a
278.293	0.135	556586	keystroke_a	a	n/a
278.413	0.12	556826	keystroke_d	d	n/a
278.5185	0.0745	557037	keystroke_Key.space	Key.space	n/a
278.6235	0.0745	557247	keystroke_b	b	n/a
278.728	0.075	557456	keystroke_o	o	n/a
278.8335	0.0595	557667	keystroke_s	s	n/a
278.983	0.12	557966	keystroke_s	s	n/a
279.118	0.09	558236	keystroke_Key.space	Key.space	n/a
279.2085	0.0745	558417	keystroke_f	f	n/a
279.268	0.06	558536	keystroke_o	o	n/a
279.343	0.105	558686	keystroke_r	r	n/a
279.4635	0.0745	558927	keystroke_Key.enter	Key.enter	n/a
279.5485	3.427	559097	prompt	n/a	affiliates ripe month focused\n
280.1385	0.1045	560277	keystroke_a	a	n/a
280.258	0.075	560516	keystroke_f	f	n/a
280.408	0.105	560816	keystroke_f	f	n/a
280.498	0.12	560996	keystroke_i	i	n/a
280.6035	0.1495	561207	keystroke_l	l	n/a
280.693	0.15	561386	keystroke_i	i	n/a
280.768	0.135	561536	keystroke_a	a	n/a
280.8585	0.1195	561717	keystroke_t	t	n/a
280.9335	0.1495	561867	keystroke_e	e	n/a
280.993	0.135	561986	keystroke_s	s	n/a
281.1135	0.0745	562227	keystroke_Key.space	Key.space	n/a
281.158	0.165	562316	keystroke_r	r	n/a
281.263	0.12	562526	keystroke_i	i	n/a
281.3385	0.1045	562677	keystroke_p	p	n/a
281.3985	0.1195	562797	keystroke_e	e	n/a
281.443	0.12	562886	keystroke_Key.space	Key.space	n/a
281.5635	0.1045	563127	keystroke_m	m	n/a
281.653	0.135	563306	keystroke_o	o	n/a
281.7435	0.1195	563487	keystroke_n	n	n/a
281.833	0.15	563666	keystroke_t	t	n/a
281.968	0.09	563936	keystroke_h	h	n/a
282.0885	0.0895	564177	keystroke_Key.space	Key.space	n/a
282.163	0.12	564326	keystroke_f	f	n/a
282.2385	0.1045	564477	keystroke_o	o	n/a
282.3735	0.0895	564747	keystroke_c	c	n/a
282.4485	0.0895	564897	keystroke_u	u	n/a
282.568	0.105	565136	keystroke_s	s	n/a
282.628	0.09	565256	keystroke_e	e	n/a
282.7935	0.1045	565587	keystroke_d	d	n/a
282.898	0.075	565796	keystroke_Key.enter	Key.enter	n/a
282.987	4.0825	565974	prompt	n/a	halifax staff monetary blogs\n
283.7235	0.1045	567447	keystroke_h	h	n/a
283.813	0.135	567626	keystroke_a	a	n/a
283.9335	0.1345	567867	keystroke_l	l	n/a
284.0235	0.1195	568047	keystroke_i	i	n/a
284.128	0.105	568256	keystroke_f	f	n/a
284.293	0.12	568586	keystroke_a	a	n/a
284.458	0.12	568916	keystroke_x	x	n/a
284.548	0.105	569096	keystroke_Key.space	Key.space	n/a
284.713	0.12	569426	keystroke_s	s	n/a
284.848	0.105	569696	keystroke_t	t	n/a
285.118	0.105	570236	keystroke_a	a	n/a
285.208	0.075	570416	keystroke_f	f	n/a
285.3585	0.1195	570717	keystroke_f	f	n/a
285.508	0.09	571016	keystroke_Key.space	Key.space	n/a
285.5835	0.0895	571167	keystroke_m	m	n/a
285.703	0.135	571406	keystroke_o	o	n/a
285.778	0.12	571556	keystroke_n	n	n/a
285.868	0.105	571736	keystroke_e	e	n/a
285.958	0.105	571916	keystroke_t	t	n/a
286.108	0.12	572216	keystroke_a	a	n/a
286.1685	0.1645	572337	keystroke_r	r	n/a
286.289	0.089	572578	keystroke_y	y	n/a
286.4085	0.0895	572817	keystroke_Key.space	Key.space	n/a
286.513	0.105	573026	keystroke_b	b	n/a
286.589	0.059	573178	keystroke_l	l	n/a
286.7385	0.0895	573477	keystroke_o	o	n/a
286.798	0.09	573596	keystroke_g	g	n/a
286.858	0.12	573716	keystroke_s	s	n/a
286.9935	0.0745	573987	keystroke_Key.enter	Key.enter	n/a
287.0775	6.6075	574155	prompt	n/a	equilibrium diameter liable analyze\n
287.683	0.15	575366	keystroke_e	e	n/a
287.818	0.12	575636	keystroke_q	q	n/a
287.8935	0.1495	575787	keystroke_u	u	n/a
287.9835	0.1495	575967	keystroke_i	i	n/a
288.0885	0.1495	576177	keystroke_l	l	n/a
288.2985	0.1195	576597	keystroke_b	b	n/a
288.808	0.09	577616	keystroke_Key.backspace	Key.backspace	n/a
289.033	0.09	578066	keystroke_i	i	n/a
289.108	0.075	578216	keystroke_b	b	n/a
289.2885	0.1045	578577	keystroke_r	r	n/a
289.333	0.09	578666	keystroke_i	i	n/a
289.4685	0.0895	578937	keystroke_u	u	n/a
289.768	0.075	579536	keystroke_Key.space	Key.space	n/a
289.8735	0.0895	579747	keystroke_d	d	n/a
290.2785	0.0745	580557	keystroke_Key.backspace	Key.backspace	n/a
290.4285	0.0895	580857	keystroke_Key.backspace	Key.backspace	n/a
290.6385	0.0895	581277	keystroke_m	m	n/a
290.743	0.075	581486	keystroke_Key.space	Key.space	n/a
290.848	0.09	581696	keystroke_d	d	n/a
290.9535	0.0895	581907	keystroke_i	i	n/a
291.0735	0.1345	582147	keystroke_a	a	n/a
291.1635	0.1045	582327	keystroke_m	m	n/a
291.493	0.09	582986	keystroke_t	t	n/a
291.7935	0.0745	583587	keystroke_Key.backspace	Key.backspace	n/a
291.883	0.105	583766	keystroke_e	e	n/a
291.958	0.105	583916	keystroke_t	t	n/a
292.078	0.135	584156	keystroke_e	e	n/a
292.168	0.12	584336	keystroke_r	r	n/a
292.2435	0.1045	584487	keystroke_Key.space	Key.space	n/a
292.378	0.105	584756	keystroke_l	l	n/a
292.4535	0.1195	584907	keystroke_i	i	n/a
292.588	0.1195	585176	keystroke_a	a	n/a
292.693	0.0745	585386	keystroke_b	b	n/a
292.783	0.0895	585566	keystroke_l	l	n/a
292.873	0.075	585746	keystroke_e	e	n/a
292.933	0.075	585866	keystroke_Key.space	Key.space	n/a
293.023	0.09	586046	keystroke_a	a	n/a
293.083	0.09	586166	keystroke_n	n	n/a
293.188	0.09	586376	keystroke_a	a	n/a
293.263	0.1195	586526	keystroke_l	l	n/a
293.3385	0.1045	586677	keystroke_y	y	n/a
293.428	0.105	586856	keystroke_z	z	n/a
293.4885	0.0895	586977	keystroke_e	e	n/a
293.593	0.09	587186	keystroke_Key.enter	Key.enter	n/a
293.6925	3.4875	587385	prompt	n/a	restricted audi watts logan\n
294.2535	0.1495	588507	keystroke_r	r	n/a
294.3435	0.1045	588687	keystroke_e	e	n/a
294.4935	0.1345	588987	keystroke_s	s	n/a
294.5985	0.0895	589197	keystroke_t	t	n/a
294.748	0.105	589496	keystroke_r	r	n/a
294.8385	0.1045	589677	keystroke_i	i	n/a
294.9885	0.0295	589977	keystroke_c	c	n/a
295.078	0.12	590156	keystroke_t	t	n/a
295.1535	0.0895	590307	keystroke_e	e	n/a
295.3035	0.1195	590607	keystroke_d	d	n/a
295.4085	0.0895	590817	keystroke_Key.space	Key.space	n/a
295.528	0.15	591056	keystroke_a	a	n/a
295.558	0.105	591116	keystroke_u	u	n/a
295.693	0.165	591386	keystroke_d	d	n/a
295.798	0.075	591596	keystroke_i	i	n/a
295.933	0.09	591866	keystroke_Key.space	Key.space	n/a
296.0835	0.1045	592167	keystroke_w	w	n/a
296.1735	0.134	592347	keystroke_a	a	n/a
296.2785	0.0595	592557	keystroke_t	t	n/a
296.398	0.135	592796	keystroke_t	t	n/a
296.5035	0.1345	593007	keystroke_s	s	n/a
296.5935	0.1345	593187	keystroke_Key.space	Key.space	n/a
296.623	0.06	593246	keystroke_l	l	n/a
296.758	0.105	593516	keystroke_o	o	n/a
296.8185	0.089	593637	keystroke_g	g	n/a
296.878	0.135	593756	keystroke_a	a	n/a
296.938	0.09	593876	keystroke_n	n	n/a
297.0735	0.1045	594147	keystroke_Key.enter	Key.enter	n/a
297.1885	4.1015	594377	prompt	n/a	deaths exploring appearing surface\n
297.748	0.0745	595496	keystroke_d	d	n/a
297.913	0.12	595826	keystroke_e	e	n/a
298.0035	0.1645	596007	keystroke_a	a	n/a
298.093	0.12	596186	keystroke_t	t	n/a
298.1985	0.0895	596397	keystroke_h	h	n/a
298.2585	0.1045	596517	keystroke_s	s	n/a
298.3485	0.0895	596697	keystroke_Key.space	Key.space	n/a
298.4235	0.0745	596847	keystroke_e	e	n/a
298.5735	0.1045	597147	keystroke_x	x	n/a
298.6335	0.0895	597267	keystroke_p	p	n/a
298.783	0.075	597566	keystroke_l	l	n/a
298.9335	0.0895	597867	keystroke_o	o	n/a
299.008	0.12	598016	keystroke_r	r	n/a
299.1285	0.1195	598257	keystroke_i	i	n/a
299.173	0.135	598346	keystroke_n	n	n/a
299.293	0.06	598586	keystroke_g	g	n/a
299.323	0.075	598646	keystroke_Key.space	Key.space	n/a
299.4285	0.1495	598857	keystroke_a	a	n/a
299.563	0.06	599126	keystroke_p	p	n/a
299.713	0.075	599426	keystroke_p	p	n/a
299.773	0.15	599546	keystroke_e	e	n/a
299.848	0.105	599696	keystroke_a	a	n/a
299.878	0.135	599756	keystroke_r	r	n/a
299.998	0.1205	599996	keystroke_i	i	n/a
300.058	0.12	600116	keystroke_n	n	n/a
300.148	0.1205	600296	keystroke_g	g	n/a
300.2235	0.1045	600447	keystroke_Key.space	Key.space	n/a
300.373	0.135	600746	keystroke_s	s	n/a
300.463	0.105	600926	keystroke_u	u	n/a
300.5535	0.0595	601107	keystroke_r	r	n/a
300.7185	0.1045	601437	keystroke_f	f	n/a
300.808	0.075	601616	keystroke_a	a	n/a
300.913	0.075	601826	keystroke_c	c	n/a
301.093	0.075	602186	keystroke_e	e	n/a
301.1985	0.0895	602397	keystroke_Key.enter	Key.enter	n/a
301.298	3.638	602596	prompt	n/a	dame mapping pennsylvania homes\n
301.8135	0.0745	603627	keystroke_d	d	n/a
301.9635	0.1645	603927	keystroke_a	a	n/a
302.083	0.105	604166	keystroke_m	m	n/a
302.233	0.105	604466	keystroke_e	e	n/a
302.3685	0.0895	604737	keystroke_Key.space	Key.space	n/a
302.473	0.09	604946	keystroke_m	m	n/a
302.5935	0.1045	605187	keystroke_a	a	n/a
302.683	0.075	605366	keystroke_p	p	n/a
302.848	0.075	605696	keystroke_p	p	n/a
302.923	0.135	605846	keystroke_i	i	n/a
302.9985	0.1045	605997	keystroke_n	n	n/a
303.0435	0.1195	606087	keystroke_g	g	n/a
303.1185	0.1045	606237	keystroke_Key.space	Key.space	n/a
303.2085	0.1045	606417	keystroke_p	p	n/a
303.3285	0.1045	606657	keystroke_e	e	n/a
303.4185	0.0745	606837	keystroke_n	n	n/a
303.5385	0.0895	607077	keystroke_n	n	n/a
303.6435	0.0895	607287	keystroke_s	s	n/a
303.748	0.06	607496	keystroke_y	y	n/a
303.8685	0.1045	607737	keystroke_l	l	n/a
303.9585	0.1045	607917	keystroke_v	v	n/a
304.0485	0.1195	608097	keystroke_a	a	n/a
304.123	0.12	608246	keystroke_n	n	n/a
304.1985	0.1045	608397	keystroke_i	i	n/a
304.2735	0.1195	608547	keystroke_a	a	n/a
304.348	0.1195	608696	keystroke_Key.space	Key.space	n/a
304.408	0.09	608816	keystroke_h	h	n/a
304.483	0.135	608966	keystroke_o	o	n/a
304.589	0.104	609178	keystroke_m	m	n/a
304.6785	0.1195	609357	keystroke_e	e	n/a
304.738	0.105	609476	keystroke_s	s	n/a
304.858	0.075	609716	keystroke_Key.enter	Key.enter	n/a
304.946	4.264	609892	prompt	n/a	lawyer injured aqua punk\n
305.5485	0.0895	611097	keystroke_l	l	n/a
305.6085	0.1195	611217	keystroke_a	a	n/a
305.713	0.135	611426	keystroke_w	w	n/a
305.8335	0.0595	611667	keystroke_y	y	n/a
306.1785	0.1195	612357	keystroke_e	e	n/a
306.2685	0.1495	612537	keystroke_r	r	n/a
306.433	0.105	612866	keystroke_Key.space	Key.space	n/a
306.5985	0.1345	613197	keystroke_i	i	n/a
306.673	0.075	613346	keystroke_n	n	n/a
306.853	0.075	613706	keystroke_j	j	n/a
307.0185	0.0895	614037	keystroke_u	u	n/a
307.0635	0.1345	614127	keystroke_r	r	n/a
307.1685	0.0745	614337	keystroke_e	e	n/a
307.3185	0.1045	614637	keystroke_d	d	n/a
307.4085	0.0895	614817	keystroke_Key.space	Key.space	n/a
307.4535	0.1345	614907	keystroke_a	a	n/a
307.6785	0.0895	615357	keystroke_q	q	n/a
307.7535	0.0895	615507	keystroke_u	u	n/a
307.873	0.12	615746	keystroke_a	a	n/a
307.9785	0.1045	615957	keystroke_Key.space	Key.space	n/a
308.098	0.105	616196	keystroke_p	p	n/a
308.2485	0.0895	616497	keystroke_a	a	n/a
308.4835	0.0645	616967	keystroke_Key.backspace	Key.backspace	n/a
308.6685	0.0895	617337	keystroke_u	u	n/a
308.8835	0.0995	617767	keystroke_n	n	n/a
308.938	0.105	617876	keystroke_k	k	n/a
309.1185	0.0895	618237	keystroke_Key.enter	Key.enter	n/a
309.2175	4.283	618435	prompt	n/a	warcraft yeast newport mercedes\n
309.8685	0.0895	619737	keystroke_w	w	n/a
309.9585	0.1345	619917	keystroke_a	a	n/a
310.083	0.085	620166	keystroke_r	r	n/a
310.288	0.075	620576	keystroke_c	c	n/a
310.438	0.105	620876	keystroke_r	r	n/a
310.5285	0.1345	621057	keystroke_a	a	n/a
310.6185	0.0895	621237	keystroke_f	f	n/a
310.7835	0.1195	621567	keystroke_t	t	n/a
310.873	0.12	621746	keystroke_Key.space	Key.space	n/a
311.038	0.09	622076	keystroke_y	y	n/a
311.098	0.165	622196	keystroke_e	e	n/a
311.173	0.18	622346	keystroke_a	a	n/a
311.248	0.165	622496	keystroke_s	s	n/a
311.3685	0.1045	622737	keystroke_t	t	n/a
311.428	0.12	622856	keystroke_Key.space	Key.space	n/a
311.563	0.135	623126	keystroke_n	n	n/a
311.6385	0.1345	623277	keystroke_e	e	n/a
311.713	0.135	623426	keystroke_w	w	n/a
311.8185	0.1195	623637	keystroke_p	p	n/a
311.908	0.105	623816	keystroke_o	o	n/a
311.9835	0.0745	623967	keystroke_r	r	n/a
312.1185	0.1195	624237	keystroke_t	t	n/a
312.193	0.12	624386	keystroke_Key.space	Key.space	n/a
312.2985	0.1195	624597	keystroke_m	m	n/a
312.403	0.15	624806	keystroke_e	e	n/a
312.494	0.104	624988	keystroke_r	r	n/a
312.703	0.075	625406	keystroke_c	c	n/a
312.8835	0.0745	625767	keystroke_e	e	n/a
313.034	0.074	626068	keystroke_d	d	n/a
313.213	0.105	626426	keystroke_e	e	n/a
313.258	0.135	626516	keystroke_s	s	n/a
313.408	0.09	626816	keystroke_Key.enter	Key.enter	n/a
313.508	3.952	627016	prompt	n/a	maritime dishes bennett dual\n
314.1285	0.0895	628257	keystroke_m	m	n/a
314.188	0.15	628376	keystroke_a	a	n/a
314.293	0.105	628586	keystroke_r	r	n/a
314.3835	0.1045	628767	keystroke_i	i	n/a
314.473	0.135	628946	keystroke_t	t	n/a
314.6685	0.119	629337	keystroke_i	i	n/a
314.7735	0.1345	629547	keystroke_m	m	n/a
314.893	0.12	629786	keystroke_e	e	n/a
314.9685	0.1045	629937	keystroke_Key.space	Key.space	n/a
315.1185	0.0745	630237	keystroke_d	d	n/a
315.298	0.09	630596	keystroke_i	i	n/a
315.389	0.134	630778	keystroke_s	s	n/a
315.493	0.09	630986	keystroke_h	h	n/a
315.598	0.12	631196	keystroke_e	e	n/a
315.703	0.12	631406	keystroke_s	s	n/a
315.808	0.075	631616	keystroke_Key.space	Key.space	n/a
315.913	0.09	631826	keystroke_b	b	n/a
316.078	0.12	632156	keystroke_e	e	n/a
316.1835	0.0895	632367	keystroke_n	n	n/a
316.3335	0.0745	632667	keystroke_n	n	n/a
316.453	0.12	632906	keystroke_e	e	n/a
316.558	0.075	633116	keystroke_t	t	n/a
316.693	0.1345	633386	keystroke_t	t	n/a
316.798	0.12	633596	keystroke_Key.space	Key.space	n/a
316.9335	0.0745	633867	keystroke_d	d	n/a
316.993	0.09	633986	keystroke_u	u	n/a
317.098	0.135	634196	keystroke_a	a	n/a
317.173	0.09	634346	keystroke_l	l	n/a
317.3835	0.0745	634767	keystroke_Key.enter	Key.enter	n/a
317.4705	3.6495	634941	prompt	n/a	gras rica aberdeen glass\n
318.1185	0.0745	636237	keystroke_g	g	n/a
318.298	0.135	636596	keystroke_r	r	n/a
318.388	0.135	636776	keystroke_a	a	n/a
318.493	0.135	636986	keystroke_s	s	n/a
318.613	0.09	637226	keystroke_Key.space	Key.space	n/a
318.733	0.1195	637466	keystroke_r	r	n/a
318.8685	0.0895	637737	keystroke_i	i	n/a
318.9885	0.1195	637977	keystroke_c	c	n/a
319.093	0.135	638186	keystroke_a	a	n/a
319.2135	0.1045	638427	keystroke_Key.space	Key.space	n/a
319.3335	0.1195	638667	keystroke_a	a	n/a
319.438	0.0895	638876	keystroke_b	b	n/a
319.6185	0.0895	639237	keystroke_e	e	n/a
319.738	0.075	639476	keystroke_r	r	n/a
319.873	0.0895	639746	keystroke_d	d	n/a
320.0535	0.0595	640107	keystroke_e	e	n/a
320.203	0.135	640406	keystroke_e	e	n/a
320.2935	0.0895	640587	keystroke_n	n	n/a
320.413	0.105	640826	keystroke_Key.space	Key.space	n/a
320.5035	0.1045	641007	keystroke_g	g	n/a
320.5935	0.0895	641187	keystroke_l	l	n/a
320.6685	0.1045	641337	keystroke_a	a	n/a
320.7435	0.0895	641487	keystroke_s	s	n/a
320.9085	0.1045	641817	keystroke_s	s	n/a
321.043	0.075	642086	keystroke_Key.enter	Key.enter	n/a
321.1275	3.577	642255	prompt	n/a	turning salon plates cookies\n
321.808	0.12	643616	keystroke_t	t	n/a
321.913	0.105	643826	keystroke_u	u	n/a
322.213	0.12	644426	keystroke_r	r	n/a
322.318	0.105	644636	keystroke_n	n	n/a
322.438	0.135	644876	keystroke_i	i	n/a
322.513	0.12	645026	keystroke_n	n	n/a
322.618	0.09	645236	keystroke_g	g	n/a
322.6785	0.0895	645357	keystroke_Key.space	Key.space	n/a
322.7835	0.1045	645567	keystroke_s	s	n/a
322.873	0.135	645746	keystroke_a	a	n/a
322.9335	0.06	645867	keystroke_l	l	n/a
323.0835	0.1045	646167	keystroke_o	o	n/a
323.1285	0.1195	646257	keystroke_n	n	n/a
323.2185	0.0895	646437	keystroke_Key.space	Key.space	n/a
323.293	0.09	646586	keystroke_p	p	n/a
323.458	0.105	646916	keystroke_l	l	n/a
323.518	0.1505	647036	keystroke_a	a	n/a
323.608	0.105	647216	keystroke_t	t	n/a
323.669	0.119	647338	keystroke_e	e	n/a
323.728	0.105	647456	keystroke_s	s	n/a
323.8035	0.074	647607	keystroke_Key.space	Key.space	n/a
323.9235	0.0895	647847	keystroke_c	c	n/a
323.9985	0.0595	647997	keystroke_o	o	n/a
324.1485	0.1045	648297	keystroke_o	o	n/a
324.2085	0.0895	648417	keystroke_k	k	n/a
324.3885	0.0895	648777	keystroke_i	i	n/a
324.449	0.119	648898	keystroke_e	e	n/a
324.508	0.135	649016	keystroke_s	s	n/a
324.628	0.075	649256	keystroke_Key.enter	Key.enter	n/a
324.7125	4.1475	649425	prompt	n/a	thunder burlington harbor welding\n
325.3185	0.1045	650637	keystroke_t	t	n/a
325.378	0.075	650756	keystroke_h	h	n/a
325.543	0.075	651086	keystroke_u	u	n/a
325.678	0.105	651356	keystroke_n	n	n/a
325.753	0.0595	651506	keystroke_d	d	n/a
325.873	0.105	651746	keystroke_e	e	n/a
325.9335	0.1195	651867	keystroke_r	r	n/a
326.008	0.105	652016	keystroke_Key.space	Key.space	n/a
326.1735	0.089	652347	keystroke_b	b	n/a
326.278	0.105	652556	keystroke_u	u	n/a
326.3835	0.1195	652767	keystroke_r	r	n/a
326.473	0.135	652946	keystroke_l	l	n/a
326.563	0.135	653126	keystroke_i	i	n/a
326.623	0.1195	653246	keystroke_n	n	n/a
326.7735	0.0745	653547	keystroke_g	g	n/a
326.923	0.12	653846	keystroke_t	t	n/a
327.013	0.12	654026	keystroke_o	o	n/a
327.0735	0.1345	654147	keystroke_n	n	n/a
327.238	0.06	654476	keystroke_Key.space	Key.space	n/a
327.299	0.119	654598	keystroke_h	h	n/a
327.403	0.105	654806	keystroke_a	a	n/a
