onset	duration	sample	value	key	prompt_text
4.1475	12.255	8295	prompt	n/a	the quick brown fox jumps over a lazy dog\n
6.0865	0.168	12173	keystroke_t	t	n/a
6.154	0.1645	12308	keystroke_e	e	n/a
6.1685	0.094	12337	keystroke_h	h	n/a
6.2305	0.088	12461	keystroke_Key.space	Key.space	n/a
6.2945	0.12	12589	keystroke_q	q	n/a
6.4225	0.1045	12845	keystroke_u	u	n/a
6.4785	0.0645	12957	keystroke_i	i	n/a
6.535	0.0955	13070	keystroke_c	c	n/a
6.7185	0.04	13437	keystroke_=	=	n/a
6.83	0.024	13660	keystroke_=	=	n/a
6.902	0.056	13804	keystroke_=	=	n/a
7.006	0.13	14012	keystroke_=	=	n/a
7.273	0.032	14546	keystroke_Key.backspace	Key.backspace	n/a
8.169	0.048	16338	keystroke_Key.backspace	Key.backspace	n/a
8.273	0.064	16546	keystroke_Key.backspace	Key.backspace	n/a
8.361	0.064	16722	keystroke_Key.backspace	Key.backspace	n/a
8.481	0.064	16962	keystroke_Key.backspace	Key.backspace	n/a
8.609	0.048	17218	keystroke_Key.backspace	Key.backspace	n/a
8.713	0.048	17426	keystroke_Key.backspace	Key.backspace	n/a
8.817	0.064	17634	keystroke_Key.backspace	Key.backspace	n/a
8.929	0.048	17858	keystroke_Key.backspace	Key.backspace	n/a
9.017	0.072	18034	keystroke_Key.backspace	Key.backspace	n/a
9.4885	0.08	18977	keystroke_Key.backspace	Key.backspace	n/a
10.161	0.112	20322	keystroke_h	h	n/a
10.209	0.112	20418	keystroke_e	e	n/a
10.265	0.088	20530	keystroke_Key.space	Key.space	n/a
10.361	0.104	20722	keystroke_q	q	n/a
10.473	0.1045	20946	keystroke_u	u	n/a
10.5375	0.048	21075	keystroke_i	i	n/a
10.5695	0.119	21139	keystroke_c	c	n/a
10.6815	0.103	21363	keystroke_k	k	n/a
10.7525	0.073	21505	keystroke_Key.space	Key.space	n/a
10.8735	0.064	21747	keystroke_b	b	n/a
11.0335	0.079	22067	keystroke_r	r	n/a
11.1215	0.088	22243	keystroke_o	o	n/a
11.1935	0.1345	22387	keystroke_w	w	n/a
11.257	0.079	22514	keystroke_n	n	n/a
11.337	0.055	22674	keystroke_Key.space	Key.space	n/a
11.44	0.057	22880	keystroke_j	j	n/a
12.016	0.072	24032	keystroke_f	f	n/a
12.152	0.056	24304	keystroke_Key.backspace	Key.backspace	n/a
12.6085	0.04	25217	keystroke_Key.backspace	Key.backspace	n/a
13.1605	0.064	26321	keystroke_f	f	n/a
13.2805	0.112	26561	keystroke_o	o	n/a
13.3765	0.1115	26753	keystroke_x	x	n/a
13.56	0.072	27120	keystroke_j	j	n/a
13.728	0.064	27456	keystroke_u	u	n/a
13.984	0.048	27968	keystroke_Key.backspace	Key.backspace	n/a
14.08	0.072	28160	keystroke_Key.backspace	Key.backspace	n/a
14.224	0.064	28448	keystroke_Key.space	Key.space	n/a
14.32	0.056	28640	keystroke_j	j	n/a
14.456	0.064	28912	keystroke_u	u	n/a
14.6245	0.1275	29249	keystroke_m	m	n/a
14.672	0.128	29344	keystroke_p	p	n/a
14.753	0.103	29506	keystroke_s	s	n/a
14.792	0.08	29584	keystroke_Key.space	Key.space	n/a
14.912	0.1445	29824	keystroke_o	o	n/a
14.976	0.0725	29952	keystroke_v	v	n/a
15.1205	0.12	30241	keystroke_e	e	n/a
15.1765	0.104	30353	keystroke_r	r	n/a
15.2005	0.064	30401	keystroke_Key.space	Key.space	n/a
15.2885	0.1035	30577	keystroke_a	a	n/a
15.3845	0.0635	30769	keystroke_Key.space	Key.space	n/a
15.5045	0.104	31009	keystroke_l	l	n/a
15.6005	0.064	31201	keystroke_a	a	n/a
15.761	0.119	31522	keystroke_z	z	n/a
15.888	0.104	31776	keystroke_y	y	n/a
15.928	0.088	31856	keystroke_Key.space	Key.space	n/a
16.025	0.079	32050	keystroke_d	d	n/a
16.129	0.072	32258	keystroke_o	o	n/a
16.209	0.072	32418	keystroke_g	g	n/a
16.328	0.072	32656	keystroke_Key.enter	Key.enter	n/a
16.407	5.7155	32814	prompt	n/a	greene chevy identifying carefully\n
17.0005	0.0555	34001	keystroke_g	g	n/a
17.1685	0.04	34337	keystroke_r	r	n/a
17.296	0.032	34592	keystroke_e	e	n/a
17.4	0.08	34800	keystroke_e	e	n/a
17.481	0.111	34962	keystroke_n	n	n/a
17.536	0.08	35072	keystroke_Key.space	Key.space	n/a
18.0485	0.0565	36097	keystroke_Key.backspace	Key.backspace	n/a
18.4725	0.1115	36945	keystroke_e	e	n/a
18.544	0.097	37088	keystroke_Key.space	Key.space	n/a
18.8245	0.072	37649	keystroke_c	c	n/a
18.9285	0.096	37857	keystroke_h	h	n/a
18.9845	0.056	37969	keystroke_e	e	n/a
19.0885	0.112	38177	keystroke_v	v	n/a
19.2565	0.104	38513	keystroke_y	y	n/a
19.3125	0.088	38625	keystroke_Key.space	Key.space	n/a
19.4645	0.088	38929	keystroke_i	i	n/a
19.5605	0.08	39121	keystroke_d	d	n/a
19.7445	0.048	39489	keystroke_e	e	n/a
19.9605	0.096	39921	keystroke_n	n	n/a
20.1285	0.064	40257	keystroke_t	t	n/a
20.2325	0.08	40465	keystroke_i	i	n/a
20.3285	0.088	40657	keystroke_f	f	n/a
20.4965	0.112	40993	keystroke_y	y	n/a
20.5765	0.072	41153	keystroke_i	i	n/a
20.7285	0.136	41457	keystroke_n	n	n/a
20.7845	0.072	41569	keystroke_g	g	n/a
20.8325	0.08	41665	keystroke_Key.space	Key.space	n/a
20.9925	0.088	41985	keystroke_c	c	n/a
21.0725	0.08	42145	keystroke_a	a	n/a
21.1845	0.08	42369	keystroke_r	r	n/a
21.2645	0.048	42529	keystroke_e	e	n/a
21.3845	0.08	42769	keystroke_f	f	n/a
21.4885	0.048	42977	keystroke_u	u	n/a
21.6245	0.056	43249	keystroke_l	l	n/a
21.7445	0.056	43489	keystroke_l	l	n/a
21.888	0.064	43776	keystroke_y	y	n/a
22.0405	0.0795	44081	keystroke_Key.enter	Key.enter	n/a
22.1255	5.0045	44251	prompt	n/a	sell organisation ethical watches\n
22.6405	0.096	45281	keystroke_s	s	n/a
22.7605	0.104	45521	keystroke_e	e	n/a
22.8805	0.096	45761	keystroke_l	l	n/a
22.9445	0.088	45889	keystroke_f	f	n/a
23.0805	0.128	46161	keystroke_o	o	n/a
23.1925	0.064	46385	keystroke_r	r	n/a
23.4485	0.056	46897	keystroke_Key.backspace	Key.backspace	n/a
23.5685	0.048	47137	keystroke_Key.backspace	Key.backspace	n/a
23.6005	0.088	47201	keystroke_Key.space	Key.space	n/a
23.7605	0.112	47521	keystroke_o	o	n/a
23.8085	0.056	47617	keystroke_r	r	n/a
23.9365	0.072	47873	keystroke_g	g	n/a
23.9605	0.08	47921	keystroke_a	a	n/a
24.0725	0.136	48145	keystroke_n	n	n/a
24.1445	0.104	48289	keystroke_i	i	n/a
24.4165	0.104	48833	keystroke_s	s	n/a
24.6405	0.104	49281	keystroke_a	a	n/a
24.8725	0.072	49745	keystroke_t	t	n/a
24.9845	0.136	49969	keystroke_i	i	n/a
25.0405	0.144	50081	keystroke_o	o	n/a
25.0725	0.152	50145	keystroke_n	n	n/a
25.1365	0.096	50273	keystroke_Key.space	Key.space	n/a
25.3925	0.096	50785	keystroke_e	e	n/a
25.5205	0.0965	51041	keystroke_t	t	n/a
25.5925	0.1195	51185	keystroke_h	h	n/a
25.6405	0.1115	51281	keystroke_i	i	n/a
25.776	0.112	51552	keystroke_c	c	n/a
25.856	0.096	51712	keystroke_a	a	n/a
25.936	0.129	51872	keystroke_l	l	n/a
26.016	0.08	52032	keystroke_Key.space	Key.space	n/a
26.152	0.128	52304	keystroke_w	w	n/a
26.273	0.072	52546	keystroke_a	a	n/a
26.353	0.08	52706	keystroke_t	t	n/a
26.569	0.072	53138	keystroke_c	c	n/a
26.673	0.128	53346	keystroke_h	h	n/a
26.793	0.128	53586	keystroke_e	e	n/a
26.865	0.104	53730	keystroke_s	s	n/a
27.041	0.088	54082	keystroke_Key.enter	Key.enter	n/a
27.133	3.413	54266	prompt	n/a	labs guess driving migration\n
27.6085	0.104	55217	keystroke_l	l	n/a
27.6565	0.096	55313	keystroke_a	a	n/a
27.7765	0.056	55553	keystroke_b	b	n/a
27.8885	0.112	55777	keystroke_s	s	n/a
27.9765	0.064	55953	keystroke_Key.space	Key.space	n/a
28.28	0.0645	56560	keystroke_g	g	n/a
28.384	0.088	56768	keystroke_u	u	n/a
28.464	0.0485	56928	keystroke_e	e	n/a
28.6	0.0565	57200	keystroke_s	s	n/a
28.7285	0.0645	57457	keystroke_s	s	n/a
28.744	0.096	57488	keystroke_Key.space	Key.space	n/a
28.905	0.048	57810	keystroke_d	d	n/a
29.0245	0.072	58049	keystroke_r	r	n/a
29.128	0.08	58256	keystroke_i	i	n/a
29.217	0.071	58434	keystroke_v	v	n/a
29.28	0.0725	58560	keystroke_i	i	n/a
29.4245	0.096	58849	keystroke_n	n	n/a
29.4405	0.096	58881	keystroke_g	g	n/a
29.4965	0.088	58993	keystroke_Key.space	Key.space	n/a
29.6485	0.112	59297	keystroke_m	m	n/a
29.7285	0.072	59457	keystroke_i	i	n/a
29.7935	0.063	59587	keystroke_g	g	n/a
29.9525	0.0805	59905	keystroke_r	r	n/a
29.993	0.064	59986	keystroke_a	a	n/a
30.121	0.096	60242	keystroke_t	t	n/a
30.161	0.12	60322	keystroke_i	i	n/a
30.209	0.096	60418	keystroke_o	o	n/a
30.257	0.112	60514	keystroke_n	n	n/a
30.449	0.0955	60898	keystroke_Key.enter	Key.enter	n/a
30.5485	3.398	61097	prompt	n/a	tion herbs medline implied\n
31.2325	0.08	62465	keystroke_t	t	n/a
31.2885	0.128	62577	keystroke_i	i	n/a
31.3525	0.128	62705	keystroke_o	o	n/a
31.4245	0.088	62849	keystroke_n	n	n/a
31.4885	0.056	62977	keystroke_Key.space	Key.space	n/a
31.6645	0.104	63329	keystroke_h	h	n/a
31.7365	0.088	63473	keystroke_e	e	n/a
31.7845	0.048	63569	keystroke_r	r	n/a
31.9605	0.08	63921	keystroke_b	b	n/a
32.1045	0.104	64209	keystroke_s	s	n/a
32.1605	0.096	64321	keystroke_Key.space	Key.space	n/a
32.3205	0.136	64641	keystroke_m	m	n/a
32.4005	0.048	64801	keystroke_e	e	n/a
32.5605	0.08	65121	keystroke_d	d	n/a
32.6645	0.056	65329	keystroke_l	l	n/a
32.729	0.08	65458	keystroke_i	i	n/a
32.849	0.12	65698	keystroke_n	n	n/a
32.897	0.112	65794	keystroke_e	e	n/a
32.96	0.064	65920	keystroke_Key.space	Key.space	n/a
33.041	0.071	66082	keystroke_i	i	n/a
33.168	0.104	66336	keystroke_m	m	n/a
33.2165	0.08	66433	keystroke_p	p	n/a
33.3695	0.055	66739	keystroke_l	l	n/a
33.4735	0.119	66947	keystroke_i	i	n/a
33.568	0.032	67136	keystroke_e	e	n/a
33.688	0.0725	67376	keystroke_d	d	n/a
33.864	0.08	67728	keystroke_Key.enter	Key.enter	n/a
33.949	4.6245	67898	prompt	n/a	mounted pressing photographs periodically\n
34.592	0.0725	69184	keystroke_m	m	n/a
34.6725	0.1035	69345	keystroke_o	o	n/a
34.784	0.0645	69568	keystroke_u	u	n/a
34.936	0.129	69872	keystroke_n	n	n/a
34.993	0.096	69986	keystroke_t	t	n/a
35.041	0.08	70082	keystroke_e	e	n/a
35.1925	0.088	70385	keystroke_d	d	n/a
35.2245	0.064	70449	keystroke_Key.space	Key.space	n/a
35.3605	0.104	70721	keystroke_p	p	n/a
35.4325	0.104	70865	keystroke_r	r	n/a
35.4965	0.08	70993	keystroke_e	e	n/a
35.6645	0.064	71329	keystroke_s	s	n/a
35.7925	0.096	71585	keystroke_s	s	n/a
35.8645	0.056	71729	keystroke_i	i	n/a
35.9445	0.12	71889	keystroke_n	n	n/a
36.0005	0.072	72001	keystroke_g	g	n/a
36.0405	0.064	72081	keystroke_Key.space	Key.space	n/a
36.1205	0.112	72241	keystroke_p	p	n/a
36.2805	0.088	72561	keystroke_h	h	n/a
36.3445	0.08	72689	keystroke_o	o	n/a
36.4885	0.072	72977	keystroke_t	t	n/a
36.5685	0.096	73137	keystroke_o	o	n/a
36.6565	0.072	73313	keystroke_g	g	n/a
36.8005	0.0965	73601	keystroke_r	r	n/a
36.841	0.088	73682	keystroke_a	a	n/a
36.921	0.096	73842	keystroke_p	p	n/a
37.009	0.128	74018	keystroke_h	h	n/a
37.097	0.064	74194	keystroke_s	s	n/a
37.145	0.047	74290	keystroke_Key.space	Key.space	n/a
37.257	0.096	74514	keystroke_p	p	n/a
37.329	0.096	74658	keystroke_e	e	n/a
37.401	0.072	74802	keystroke_r	r	n/a
37.497	0.12	74994	keystroke_i	i	n/a
37.561	0.104	75122	keystroke_o	o	n/a
37.649	0.08	75298	keystroke_d	d	n/a
37.777	0.08	75554	keystroke_i	i	n/a
37.825	0.112	75650	keystroke_c	c	n/a
37.929	0.072	75858	keystroke_a	a	n/a
38.009	0.032	76018	keystroke_l	l	n/a
38.121	0.072	76242	keystroke_l	l	n/a
38.313	0.064	76626	keystroke_y	y	n/a
38.5045	0.064	77009	keystroke_Key.enter	Key.enter	n/a
38.58	3.867	77160	prompt	n/a	velocity tabs long script\n
39.2005	0.064	78401	keystroke_v	v	n/a
39.3605	0.064	78721	keystroke_e	e	n/a
39.4565	0.064	78913	keystroke_l	l	n/a
39.616	0.08	79232	keystroke_o	o	n/a
39.673	0.079	79346	keystroke_c	c	n/a
39.817	0.072	79634	keystroke_i	i	n/a
39.92	0.113	79840	keystroke_t	t	n/a
40	0.12	80000	keystroke_y	y	n/a
40.033	0.079	80066	keystroke_Key.space	Key.space	n/a
40.128	0.112	80256	keystroke_t	t	n/a
40.361	0.119	80722	keystroke_a	a	n/a
40.656	0.08	81312	keystroke_b	b	n/a
40.856	0.112	81712	keystroke_s	s	n/a
40.944	0.088	81888	keystroke_Key.space	Key.space	n/a
41.216	0.056	82432	keystroke_l	l	n/a
41.344	0.128	82688	keystroke_o	o	n/a
41.416	0.12	82832	keystroke_n	n	n/a
41.456	0.088	82912	keystroke_g	g	n/a
41.512	0.0725	83024	keystroke_Key.space	Key.space	n/a
41.6165	0.088	83233	keystroke_s	s	n/a
41.7205	0.072	83441	keystroke_c	c	n/a
41.9045	0.088	83809	keystroke_r	r	n/a
41.9845	0.128	83969	keystroke_i	i	n/a
42.0485	0.128	84097	keystroke_p	p	n/a
42.1925	0.072	84385	keystroke_t	t	n/a
42.3845	0.056	84769	keystroke_Key.enter	Key.enter	n/a
42.4525	4.853	84905	prompt	n/a	duncan cancellation idaho internal\n
42.968	0.096	85936	keystroke_d	d	n/a
43.1605	0.08	86321	keystroke_u	u	n/a
43.3685	0.088	86737	keystroke_n	n	n/a
43.6325	0.136	87265	keystroke_c	c	n/a
43.7365	0.112	87473	keystroke_a	a	n/a
43.8485	0.112	87697	keystroke_n	n	n/a
43.9205	0.08	87841	keystroke_Key.space	Key.space	n/a
44.0565	0.104	88113	keystroke_c	c	n/a
44.1445	0.088	88289	keystroke_a	a	n/a
44.2245	0.104	88449	keystroke_n	n	n/a
44.3205	0.048	88641	keystroke_c	c	n/a
44.504	0.057	89008	keystroke_e	e	n/a
44.721	0.048	89442	keystroke_l	l	n/a
44.856	0.04	89712	keystroke_l	l	n/a
44.976	0.096	89952	keystroke_a	a	n/a
45.08	0.072	90160	keystroke_t	t	n/a
45.144	0.105	90288	keystroke_i	i	n/a
45.193	0.127	90386	keystroke_o	o	n/a
45.232	0.128	90464	keystroke_n	n	n/a
45.312	0.056	90624	keystroke_Key.space	Key.space	n/a
45.457	0.087	90914	keystroke_i	i	n/a
45.729	0.143	91458	keystroke_d	d	n/a
45.856	0.08	91712	keystroke_a	a	n/a
45.992	0.153	91984	keystroke_h	h	n/a
46.072	0.128	92144	keystroke_o	o	n/a
46.201	0.063	92402	keystroke_Key.space	Key.space	n/a
46.32	0.04	92640	keystroke_i	i	n/a
46.393	0.12	92786	keystroke_n	n	n/a
46.472	0.056	92944	keystroke_t	t	n/a
46.536	0.129	93072	keystroke_e	e	n/a
46.632	0.0725	93264	keystroke_r	r	n/a
46.6965	0.096	93393	keystroke_n	n	n/a
46.7925	0.072	93585	keystroke_a	a	n/a
47.0565	0.08	94113	keystroke_l	l	n/a
47.2485	0.056	94497	keystroke_Key.enter	Key.enter	n/a
47.3085	4.5895	94617	prompt	n/a	earning indicating efficient prefix\n
47.856	0.088	95712	keystroke_e	e	n/a
48	0.112	96000	keystroke_a	a	n/a
48.104	0.096	96208	keystroke_r	r	n/a
48.241	0.095	96482	keystroke_n	n	n/a
48.32	0.048	96640	keystroke_i	i	n/a
48.424	0.1125	96848	keystroke_n	n	n/a
48.48	0.0725	96960	keystroke_g	g	n/a
48.5285	0.064	97057	keystroke_Key.space	Key.space	n/a
48.6325	0.064	97265	keystroke_i	i	n/a
48.7285	0.088	97457	keystroke_n	n	n/a
48.7925	0.0795	97585	keystroke_d	d	n/a
48.944	0.072	97888	keystroke_i	i	n/a
49.1845	0.096	98369	keystroke_c	c	n/a
49.2725	0.08	98545	keystroke_a	a	n/a
49.4485	0.088	98897	keystroke_t	t	n/a
49.5205	0.072	99041	keystroke_i	i	n/a
49.5845	0.136	99169	keystroke_n	n	n/a
49.6805	0.048	99361	keystroke_g	g	n/a
49.7205	0.048	99441	keystroke_Key.space	Key.space	n/a
49.8245	0.064	99649	keystroke_e	e	n/a
49.9845	0.048	99969	keystroke_f	f	n/a
50.1045	0.048	100209	keystroke_f	f	n/a
50.1925	0.072	100385	keystroke_i	i	n/a
50.2725	0.056	100545	keystroke_c	c	n/a
50.3365	0.08	100673	keystroke_i	i	n/a
50.4245	0.08	100849	keystroke_e	e	n/a
50.5125	0.136	101025	keystroke_n	n	n/a
50.5845	0.08	101169	keystroke_t	t	n/a
50.6565	0.063	101313	keystroke_Key.space	Key.space	n/a
51.0485	0.104	102097	keystroke_p	p	n/a
51.1205	0.088	102241	keystroke_r	r	n/a
51.1845	0.096	102369	keystroke_e	e	n/a
51.4725	0.064	102945	keystroke_f	f	n/a
51.5445	0.08	103089	keystroke_i	i	n/a
51.6565	0.08	103313	keystroke_x	x	n/a
51.8165	0.08	103633	keystroke_Key.enter	Key.enter	n/a
51.901	4.3405	103802	prompt	n/a	mono blink colin boring\n
52.4565	0.088	104913	keystroke_m	m	n/a
52.6085	0.0795	105217	keystroke_o	o	n/a
52.72	0.112	105440	keystroke_n	n	n/a
52.792	0.112	105584	keystroke_o	o	n/a
52.928	0.08	105856	keystroke_Key.space	Key.space	n/a
53.289	0.071	106578	keystroke_b	b	n/a
53.448	0.072	106896	keystroke_l	l	n/a
53.552	0.064	107104	keystroke_i	i	n/a
53.664	0.168	107328	keystroke_n	n	n/a
53.848	0.056	107696	keystroke_Key.space	Key.space	n/a
54.144	0.032	108288	keystroke_Key.backspace	Key.backspace	n/a
54.288	0.112	108576	keystroke_k	k	n/a
54.384	0.104	108768	keystroke_Key.space	Key.space	n/a
54.504	0.104	109008	keystroke_c	c	n/a
54.584	0.056	109168	keystroke_o	o	n/a
54.728	0.072	109456	keystroke_l	l	n/a
54.856	0.056	109712	keystroke_i	i	n/a
54.968	0.112	109936	keystroke_n	n	n/a
55.4005	0.072	110801	keystroke_Key.space	Key.space	n/a
55.5205	0.064	111041	keystroke_b	b	n/a
55.6165	0.096	111233	keystroke_o	o	n/a
55.7365	0.08	111473	keystroke_r	r	n/a
55.7925	0.064	111585	keystroke_i	i	n/a
55.8885	0.1115	111777	keystroke_n	n	n/a
55.968	0.072	111936	keystroke_g	g	n/a
56.168	0.072	112336	keystroke_Key.enter	Key.enter	n/a
56.245	6.1005	112490	prompt	n/a	panama museums writes overview\n
56.848	0.088	113696	keystroke_p	p	n/a
57.24	0.0885	114480	keystroke_a	a	n/a
57.3365	0.088	114673	keystroke_n	n	n/a
57.4565	0.056	114913	keystroke_a	a	n/a
57.5445	0.136	115089	keystroke_m	m	n/a
57.6485	0.104	115297	keystroke_a	a	n/a
57.7285	0.088	115457	keystroke_Key.space	Key.space	n/a
57.8805	0.12	115761	keystroke_m	m	n/a
58.0085	0.064	116017	keystroke_e	e	n/a
58.4485	0.048	116897	keystroke_Key.backspace	Key.backspace	n/a
58.6	0.096	117200	keystroke_u	u	n/a
58.9125	0.088	117825	keystroke_s	s	n/a
59.1045	0.04	118209	keystroke_e	e	n/a
59.4805	0.064	118961	keystroke_u	u	n/a
59.7205	0.12	119441	keystroke_m	m	n/a
59.8005	0.08	119601	keystroke_s	s	n/a
59.8485	0.08	119697	keystroke_Key.space	Key.space	n/a
60.104	0.088	120208	keystroke_w	w	n/a
60.24	0.08	120480	keystroke_r	r	n/a
60.352	0.1605	120704	keystroke_i	i	n/a
60.416	0.1605	120832	keystroke_t	t	n/a
60.472	0.1525	120944	keystroke_e	e	n/a
60.5925	0.088	121185	keystroke_Key.space	Key.space	n/a
61.0565	0.064	122113	keystroke_Key.backspace	Key.backspace	n/a
61.1205	0.096	122241	keystroke_s	s	n/a
61.1685	0.096	122337	keystroke_Key.space	Key.space	n/a
61.2805	0.1275	122561	keystroke_o	o	n/a
61.376	0.064	122752	keystroke_v	v	n/a
61.488	0.152	122976	keystroke_e	e	n/a
61.593	0.063	123186	keystroke_r	r	n/a
61.768	0.064	123536	keystroke_v	v	n/a
61.88	0.136	123760	keystroke_i	i	n/a
62	0.12	124000	keystroke_e	e	n/a
62.048	0.096	124096	keystroke_w	w	n/a
62.256	0.088	124512	keystroke_Key.enter	Key.enter	n/a
62.349	4.4845	124698	prompt	n/a	stock basically puzzles medicare\n
62.864	0.08	125728	keystroke_s	s	n/a
62.968	0.097	125936	keystroke_t	t	n/a
63.056	0.072	126112	keystroke_o	o	n/a
63.208	0.12	126416	keystroke_c	c	n/a
63.273	0.104	126546	keystroke_k	k	n/a
63.344	0.088	126688	keystroke_Key.space	Key.space	n/a
63.456	0.088	126912	keystroke_b	b	n/a
63.537	0.111	127074	keystroke_a	a	n/a
63.632	0.088	127264	keystroke_s	s	n/a
63.768	0.08	127536	keystroke_i	i	n/a
63.832	0.104	127664	keystroke_c	c	n/a
63.92	0.056	127840	keystroke_a	a	n/a
64.08	0.0805	128160	keystroke_l	l	n/a
64.2725	0.048	128545	keystroke_l	l	n/a
64.512	0.128	129024	keystroke_y	y	n/a
64.632	0.104	129264	keystroke_Key.space	Key.space	n/a
64.8	0.088	129600	keystroke_p	p	n/a
64.952	0.096	129904	keystroke_u	u	n/a
65.056	0.064	130112	keystroke_z	z	n/a
65.192	0.088	130384	keystroke_z	z	n/a
65.304	0.144	130608	keystroke_l	l	n/a
65.416	0.1685	130832	keystroke_e	e	n/a
65.504	0.1205	131008	keystroke_s	s	n/a
65.56	0.1115	131120	keystroke_Key.space	Key.space	n/a
65.7925	0.135	131585	keystroke_m	m	n/a
65.8725	0.047	131745	keystroke_e	e	n/a
65.9915	0.089	131983	keystroke_d	d	n/a
66.0715	0.128	132143	keystroke_i	i	n/a
66.1515	0.097	132303	keystroke_c	c	n/a
66.2565	0.071	132513	keystroke_a	a	n/a
66.3995	0.081	132799	keystroke_r	r	n/a
66.5285	0.0875	133057	keystroke_e	e	n/a
66.744	0.088	133488	keystroke_Key.enter	Key.enter	n/a
66.837	3.5565	133674	prompt	n/a	model newton a sussex\n
67.352	0.104	134704	keystroke_m	m	n/a
67.4955	0.096	134991	keystroke_o	o	n/a
67.576	0.0635	135152	keystroke_d	d	n/a
67.712	0.0955	135424	keystroke_e	e	n/a
67.784	0.1125	135568	keystroke_l	l	n/a
67.8715	0.072	135743	keystroke_Key.space	Key.space	n/a
68.0005	0.119	136001	keystroke_n	n	n/a
68.0795	0.112	136159	keystroke_e	e	n/a
68.1275	0.096	136255	keystroke_w	w	n/a
68.3755	0.097	136751	keystroke_t	t	n/a
68.4875	0.137	136975	keystroke_o	o	n/a
68.5925	0.12	137185	keystroke_n	n	n/a
68.6565	0.104	137313	keystroke_Key.space	Key.space	n/a
68.8085	0.104	137617	keystroke_a	a	n/a
68.9205	0.0715	137841	keystroke_Key.space	Key.space	n/a
69.161	0.079	138322	keystroke_s	s	n/a
69.288	0.072	138576	keystroke_u	u	n/a
69.4	0.08	138800	keystroke_s	s	n/a
69.56	0.056	139120	keystroke_s	s	n/a
69.832	0.056	139664	keystroke_e	e	n/a
70.016	0.096	140032	keystroke_x	x	n/a
70.312	0.0805	140624	keystroke_Key.enter	Key.enter	n/a
70.3965	4.421	140793	prompt	n/a	galleries safer appreciated problem\n
71.096	0.104	142192	keystroke_g	g	n/a
71.184	0.072	142368	keystroke_a	a	n/a
71.296	0.048	142592	keystroke_l	l	n/a
71.408	0.104	142816	keystroke_l	l	n/a
71.472	0.128	142944	keystroke_e	e	n/a
71.552	0.096	143104	keystroke_r	r	n/a
71.704	0.136	143408	keystroke_i	i	n/a
71.768	0.128	143536	keystroke_e	e	n/a
71.832	0.112	143664	keystroke_s	s	n/a
71.88	0.12	143760	keystroke_Key.space	Key.space	n/a
72.072	0.088	144144	keystroke_s	s	n/a
72.232	0.112	144464	keystroke_a	a	n/a
72.328	0.096	144656	keystroke_f	f	n/a
72.456	0.168	144912	keystroke_e	e	n/a
72.552	0.112	145104	keystroke_r	r	n/a
72.616	0.08	145232	keystroke_Key.space	Key.space	n/a
72.7365	0.096	145473	keystroke_a	a	n/a
72.8405	0.071	145681	keystroke_p	p	n/a
72.9675	0.104	145935	keystroke_p	p	n/a
73.0395	0.08	146079	keystroke_r	r	n/a
73.0965	0.0715	146193	keystroke_e	e	n/a
73.248	0.104	146496	keystroke_c	c	n/a
73.36	0.12	146720	keystroke_i	i	n/a
73.424	0.08	146848	keystroke_a	a	n/a
73.512	0.104	147024	keystroke_t	t	n/a
73.576	0.064	147152	keystroke_e	e	n/a
73.728	0.088	147456	keystroke_d	d	n/a
73.76	0.088	147520	keystroke_Key.space	Key.space	n/a
73.896	0.088	147792	keystroke_p	p	n/a
73.944	0.064	147888	keystroke_r	r	n/a
74.112	0.088	148224	keystroke_o	o	n/a
74.144	0.056	148288	keystroke_b	b	n/a
74.312	0.096	148624	keystroke_l	l	n/a
74.392	0.072	148784	keystroke_e	e	n/a
74.52	0.088	149040	keystroke_m	m	n/a
74.736	0.08	149472	keystroke_Key.enter	Key.enter	n/a
74.821	5.508	149642	prompt	n/a	blades baseline symposium speakers\n
75.432	0.088	150864	keystroke_b	b	n/a
75.568	0.112	151136	keystroke_l	l	n/a
75.648	0.072	151296	keystroke_a	a	n/a
75.792	0.072	151584	keystroke_d	d	n/a
75.984	0.104	151968	keystroke_e	e	n/a
76.024	0.12	152048	keystroke_s	s	n/a
76.096	0.072	152192	keystroke_Key.space	Key.space	n/a
76.28	0.056	152560	keystroke_b	b	n/a
76.328	0.104	152656	keystroke_a	a	n/a
76.5275	0.128	153055	keystroke_s	s	n/a
76.6315	0.097	153263	keystroke_e	e	n/a
76.7835	0.056	153567	keystroke_l	l	n/a
76.9675	0.064	153935	keystroke_i	i	n/a
77.1035	0.144	154207	keystroke_n	n	n/a
77.1995	0.136	154399	keystroke_e	e	n/a
77.2715	0.112	154543	keystroke_s	s	n/a
77.3195	0.072	154639	keystroke_Key.space	Key.space	n/a
77.5115	0.08	155023	keystroke_s	s	n/a
77.5925	0.055	155185	keystroke_y	y	n/a
77.7915	0.112	155583	keystroke_m	m	n/a
78.1675	0.096	156335	keystroke_p	p	n/a
78.3755	0.08	156751	keystroke_o	o	n/a
78.624	0.112	157248	keystroke_s	s	n/a
78.776	0.104	157552	keystroke_i	i	n/a
78.92	0.064	157840	keystroke_u	u	n/a
79.104	0.1275	158208	keystroke_m	m	n/a
79.1995	0.088	158399	keystroke_Key.space	Key.space	n/a
79.3355	0.0955	158671	keystroke_s	s	n/a
79.439	0.096	158878	keystroke_p	p	n/a
79.504	0.104	159008	keystroke_e	e	n/a
79.568	0.087	159136	keystroke_a	a	n/a
79.672	0.12	159344	keystroke_k	k	n/a
79.776	0.167	159552	keystroke_e	e	n/a
79.847	0.137	159694	keystroke_r	r	n/a
79.928	0.072	159856	keystroke_s	s	n/a
80.2795	0.048	160559	keystroke_Key.enter	Key.enter	n/a
80.3325	4.381	160665	prompt	n/a	listening deemed agencies novel\n
80.8235	0.04	161647	keystroke_l	l	n/a
80.9275	0.112	161855	keystroke_i	i	n/a
81.0075	0.096	162015	keystroke_s	s	n/a
81.0875	0.112	162175	keystroke_t	t	n/a
81.1595	0.112	162319	keystroke_e	e	n/a
81.2155	0.088	162431	keystroke_n	n	n/a
81.3115	0.056	162623	keystroke_i	i	n/a
81.4075	0.12	162815	keystroke_n	n	n/a
81.4875	0.072	162975	keystroke_g	g	n/a
81.5275	0.088	163055	keystroke_Key.space	Key.space	n/a
81.7275	0.056	163455	keystroke_d	d	n/a
81.8635	0.072	163727	keystroke_e	e	n/a
81.9995	0.072	163999	keystroke_e	e	n/a
82.1035	0.144	164207	keystroke_m	m	n/a
82.1675	0.032	164335	keystroke_e	e	n/a
82.3435	0.08	164687	keystroke_Key.space	Key.space	n/a
82.896	0.072	165792	keystroke_Key.backspace	Key.backspace	n/a
82.936	0.104	165872	keystroke_d	d	n/a
83.024	0.088	166048	keystroke_Key.space	Key.space	n/a
83.2235	0.121	166447	keystroke_a	a	n/a
83.3755	0.056	166751	keystroke_g	g	n/a
83.4565	0.104	166913	keystroke_e	e	n/a
83.5675	0.096	167135	keystroke_n	n	n/a
83.6795	0.072	167359	keystroke_c	c	n/a
83.7595	0.128	167519	keystroke_i	i	n/a
83.8475	0.1445	167695	keystroke_e	e	n/a
83.912	0.128	167824	keystroke_s	s	n/a
83.96	0.072	167920	keystroke_Key.space	Key.space	n/a
84.08	0.104	168160	keystroke_n	n	n/a
84.16	0.104	168320	keystroke_o	o	n/a
84.24	0.072	168480	keystroke_v	v	n/a
84.36	0.088	168720	keystroke_e	e	n/a
84.464	0.072	168928	keystroke_l	l	n/a
84.624	0.088	169248	keystroke_Key.enter	Key.enter	n/a
84.716	5.029	169432	prompt	n/a	liabilities promises onion restoration\n
85.256	0.064	170512	keystroke_l	l	n/a
85.384	0.096	170768	keystroke_i	i	n/a
85.448	0.088	170896	keystroke_a	a	n/a
85.56	0.08	171120	keystroke_b	b	n/a
85.64	0.056	171280	keystroke_i	i	n/a
85.752	0.08	171504	keystroke_l	l	n/a
85.872	0.08	171744	keystroke_i	i	n/a
85.984	0.08	171968	keystroke_t	t	n/a
86.04	0.136	172080	keystroke_i	i	n/a
86.128	0.144	172256	keystroke_e	e	n/a
86.224	0.08	172448	keystroke_s	s	n/a
86.248	0.064	172496	keystroke_Key.space	Key.space	n/a
86.36	0.096	172720	keystroke_p	p	n/a
86.48	0.072	172960	keystroke_r	r	n/a
86.528	0.0875	173056	keystroke_o	o	n/a
86.6715	0.112	173343	keystroke_m	m	n/a
86.7595	0.104	173519	keystroke_i	i	n/a
86.8555	0.104	173711	keystroke_s	s	n/a
86.9435	0.144	173887	keystroke_e	e	n/a
87.0235	0.096	174047	keystroke_s	s	n/a
87.0395	0.104	174079	keystroke_Key.space	Key.space	n/a
87.1915	0.0965	174383	keystroke_o	o	n/a
87.351	0.128	174702	keystroke_n	n	n/a
87.496	0.159	174992	keystroke_i	i	n/a
87.647	0.128	175294	keystroke_o	o	n/a
87.719	0.128	175438	keystroke_n	n	n/a
88.135	0.048	176270	keystroke_Key.space	Key.space	n/a
88.463	0.128	176926	keystroke_r	r	n/a
88.543	0.096	177086	keystroke_e	e	n/a
88.599	0.088	177198	keystroke_s	s	n/a
88.719	0.08	177438	keystroke_t	t	n/a
88.751	0.08	177502	keystroke_o	o	n/a
89.143	0.112	178286	keystroke_r	r	n/a
89.232	0.087	178464	keystroke_a	a	n/a
89.327	0.08	178654	keystroke_t	t	n/a
89.392	0.1115	178784	keystroke_i	i	n/a
89.399	0.1285	178798	keystroke_o	o	n/a
89.4715	0.096	178943	keystroke_n	n	n/a
89.6555	0.088	179311	keystroke_Key.enter	Key.enter	n/a
89.7495	5.3315	179499	prompt	n/a	accepts castle unified consisting\n
90.2075	0.072	180415	keystroke_a	a	n/a
90.3595	0.08	180719	keystroke_c	c	n/a
90.4965	0.055	180993	keystroke_c	c	n/a
90.6475	0.096	181295	keystroke_e	e	n/a
90.7755	0.12	181551	keystroke_p	p	n/a
90.8795	0.1355	181759	keystroke_t	t	n/a
90.9435	0.12	181887	keystroke_s	s	n/a
91.007	0.096	182014	keystroke_Key.space	Key.space	n/a
91.1915	0.104	182383	keystroke_c	c	n/a
91.263	0.1125	182526	keystroke_a	a	n/a
91.3515	0.128	182703	keystroke_s	s	n/a
91.5035	0.096	183007	keystroke_t	t	n/a
91.6475	0.136	183295	keystroke_l	l	n/a
91.7035	0.112	183407	keystroke_e	e	n/a
91.7595	0.064	183519	keystroke_Key.space	Key.space	n/a
91.9195	0.064	183839	keystroke_u	u	n/a
92.0875	0.064	184175	keystroke_n	n	n/a
92.2315	0.064	184463	keystroke_i	i	n/a
92.3355	0.056	184671	keystroke_f	f	n/a
92.3835	0.112	184767	keystroke_i	i	n/a
92.4635	0.064	184927	keystroke_e	e	n/a
92.6075	0.072	185215	keystroke_d	d	n/a
92.6155	0.1285	185231	keystroke_Key.space	Key.space	n/a
92.8	0.112	185600	keystroke_o	o	n/a
92.824	0.096	185648	keystroke_c	c	n/a
93.039	0.097	186078	keystroke_n	n	n/a
93.344	0.023	186688	keystroke_Key.backspace	Key.backspace	n/a
93.424	0.064	186848	keystroke_Key.backspace	Key.backspace	n/a
93.544	0.063	187088	keystroke_Key.backspace	Key.backspace	n/a
93.632	0.104	187264	keystroke_c	c	n/a
93.752	0.112	187504	keystroke_o	o	n/a
93.84	0.112	187680	keystroke_n	n	n/a
94.024	0.0715	188048	keystroke_s	s	n/a
94.1195	0.096	188239	keystroke_i	i	n/a
94.2155	0.064	188431	keystroke_s	s	n/a
94.3115	0.104	188623	keystroke_t	t	n/a
94.4235	0.04	188847	keystroke_i	i	n/a
94.4715	0.128	188943	keystroke_n	n	n/a
94.5435	0.072	189087	keystroke_g	g	n/a
94.5995	0.088	189199	keystroke_Key.space	Key.space	n/a
94.8715	0.04	189743	keystroke_Key.backspace	Key.backspace	n/a
94.9835	0.096	189967	keystroke_Key.enter	Key.enter	n/a
95.0835	5.533	190167	prompt	n/a	garlic writers entrepreneur hebrew\n
95.7115	0.064	191423	keystroke_g	g	n/a
95.8155	0.12	191631	keystroke_a	a	n/a
95.9275	0.072	191855	keystroke_r	r	n/a
96.0395	0.064	192079	keystroke_l	l	n/a
96.1355	0.136	192271	keystroke_i	i	n/a
96.2395	0.088	192479	keystroke_c	c	n/a
96.2955	0.104	192591	keystroke_Key.space	Key.space	n/a
96.4075	0.08	192815	keystroke_w	w	n/a
96.5275	0.072	193055	keystroke_r	r	n/a
96.6395	0.1435	193279	keystroke_i	i	n/a
96.7035	0.0875	193407	keystroke_t	t	n/a
96.7595	0.1835	193519	keystroke_e	e	n/a
96.879	0.12	193758	keystroke_r	r	n/a
96.903	0.112	193806	keystroke_s	s	n/a
96.967	0.096	193934	keystroke_Key.space	Key.space	n/a
97.111	0.096	194222	keystroke_e	e	n/a
97.208	0.111	194416	keystroke_n	n	n/a
97.279	0.064	194558	keystroke_t	t	n/a
97.423	0.096	194846	keystroke_r	r	n/a
97.479	0.072	194958	keystroke_e	e	n/a
97.599	0.088	195198	keystroke_p	p	n/a
97.671	0.104	195342	keystroke_r	r	n/a
97.735	0.12	195470	keystroke_e	e	n/a
97.919	0.08	195838	keystroke_n	n	n/a
98.007	0.08	196014	keystroke_e	e	n/a
98.199	0.088	196398	keystroke_u	u	n/a
98.295	0.12	196590	keystroke_r	r	n/a
98.391	0.096	196782	keystroke_Key.space	Key.space	n/a
98.551	0.056	197102	keystroke_b	b	n/a
98.823	0.04	197646	keystroke_Key.backspace	Key.backspace	n/a
98.951	0.0805	197902	keystroke_h	h	n/a
98.9915	0.072	197983	keystroke_e	e	n/a
99.1435	0.064	198287	keystroke_b	b	n/a
99.3035	0.12	198607	keystroke_r	r	n/a
99.4635	0.1195	198927	keystroke_w	w	n/a
99.5035	0.0875	199007	keystroke_e	e	n/a
100.1675	0.056	200335	keystroke_=	=	n/a
100.3115	0.04	200623	keystroke_=	=	n/a
100.3595	0.136	200719	keystroke_e	e	n/a
100.4395	0.08	200879	keystroke_w	w	n/a
100.5515	0.0635	201103	keystroke_Key.enter	Key.enter	n/a
100.62	6.381	201240	prompt	n/a	rise slots instructor julian\n
100.807	0.041	201614	keystroke_Key.backspace	Key.backspace	n/a
101.655	0.104	203310	keystroke_r	r	n/a
101.775	0.128	203550	keystroke_i	i	n/a
101.823	0.112	203646	keystroke_s	s	n/a
101.887	0.096	203774	keystroke_e	e	n/a
101.959	0.08	203918	keystroke_Key.space	Key.space	n/a
102.063	0.088	204126	keystroke_s	s	n/a
102.191	0.04	204382	keystroke_o	o	n/a
102.279	0.064	204558	keystroke_l	l	n/a
102.551	0.048	205102	keystroke_Key.backspace	Key.backspace	n/a
102.999	0.048	205998	keystroke_Key.backspace	Key.backspace	n/a
103.191	0.064	206382	keystroke_l	l	n/a
103.343	0.12	206686	keystroke_o	o	n/a
103.399	0.16	206798	keystroke_t	t	n/a
103.487	0.104	206974	keystroke_s	s	n/a
103.543	0.0725	207086	keystroke_Key.space	Key.space	n/a
103.7115	0.072	207423	keystroke_i	i	n/a
103.8395	0.104	207679	keystroke_n	n	n/a
103.9115	0.12	207823	keystroke_s	s	n/a
103.9995	0.072	207999	keystroke_t	t	n/a
104.1515	0.088	208303	keystroke_r	r	n/a
104.2635	0.12	208527	keystroke_u	u	n/a
104.4315	0.064	208863	keystroke_c	c	n/a
104.5995	0.088	209199	keystroke_t	t	n/a
105.951	0.136	211902	keystroke_o	o	n/a
106.039	0.104	212078	keystroke_r	r	n/a
106.135	0.056	212270	keystroke_Key.space	Key.space	n/a
106.255	0.04	212510	keystroke_j	j	n/a
106.359	0.064	212718	keystroke_u	u	n/a
106.479	0.0485	212958	keystroke_l	l	n/a
106.5515	0.064	213103	keystroke_i	i	n/a
106.6715	0.08	213343	keystroke_a	a	n/a
106.7355	0.072	213471	keystroke_n	n	n/a
106.9105	0.089	213821	keystroke_Key.enter	Key.enter	n/a
107.004	6.293	214008	prompt	n/a	camcorder staff spent downloading\n
107.5675	0.104	215135	keystroke_c	c	n/a
107.6555	0.0715	215311	keystroke_a	a	n/a
108.087	0.096	216174	keystroke_m	m	n/a
108.343	0.088	216686	keystroke_c	c	n/a
108.4945	0.121	216989	keystroke_o	o	n/a
108.5755	0.048	217151	keystroke_r	r	n/a
108.6945	0.072	217389	keystroke_d	d	n/a
108.8315	0.136	217663	keystroke_e	e	n/a
108.9115	0.095	217823	keystroke_r	r	n/a
108.9585	0.08	217917	keystroke_Key.space	Key.space	n/a
109.303	0.088	218606	keystroke_s	s	n/a
109.407	0.088	218814	keystroke_t	t	n/a
109.511	0.096	219022	keystroke_a	a	n/a
109.6785	0.0645	219357	keystroke_f	f	n/a
109.8065	0.0885	219613	keystroke_f	f	n/a
109.911	0.0955	219822	keystroke_Key.space	Key.space	n/a
110.1755	0.088	220351	keystroke_s	s	n/a
110.2795	0.088	220559	keystroke_p	p	n/a
110.3355	0.104	220671	keystroke_e	e	n/a
110.4635	0.128	220927	keystroke_n	n	n/a
110.5275	0.08	221055	keystroke_t	t	n/a
110.5755	0.096	221151	keystroke_Key.space	Key.space	n/a
110.7595	0.096	221519	keystroke_d	d	n/a
110.8955	0.08	221791	keystroke_o	o	n/a
111.0155	0.072	222031	keystroke_w	w	n/a
111.1995	0.056	222399	keystroke_l	l	n/a
111.3515	0.08	222703	keystroke_o	o	n/a
111.5275	0.08	223055	keystroke_a	a	n/a
111.8795	0.056	223759	keystroke_Key.backspace	Key.backspace	n/a
111.9755	0.056	223951	keystroke_Key.backspace	Key.backspace	n/a
112.0955	0.08	224191	keystroke_Key.backspace	Key.backspace	n/a
112.3035	0.088	224607	keystroke_n	n	n/a
112.4875	0.072	224975	keystroke_l	l	n/a
112.6395	0.12	225279	keystroke_o	o	n/a
112.7365	0.103	225473	keystroke_a	a	n/a
112.8315	0.112	225663	keystroke_d	d	n/a
112.9195	0.08	225839	keystroke_i	i	n/a
112.9915	0.096	225983	keystroke_n	n	n/a
113.0955	0.064	226191	keystroke_g	g	n/a
113.2075	0.088	226415	keystroke_Key.enter	Key.enter	n/a
113.2995	3.9895	226599	prompt	n/a	forge positions marine flickr\n
113.8235	0.104	227647	keystroke_f	f	n/a
113.9675	0.144	227935	keystroke_o	o	n/a
114.0555	0.064	228111	keystroke_r	r	n/a
114.2075	0.12	228415	keystroke_g	g	n/a
114.2715	0.112	228543	keystroke_e	e	n/a
114.3515	0.056	228703	keystroke_Key.space	Key.space	n/a
114.4475	0.056	228895	keystroke_p	p	n/a
114.5755	0.1035	229151	keystroke_o	o	n/a
114.671	0.08	229342	keystroke_s	s	n/a
114.791	0.072	229582	keystroke_i	i	n/a
114.919	0.088	229838	keystroke_t	t	n/a
114.975	0.128	229950	keystroke_i	i	n/a
115.047	0.144	230094	keystroke_o	o	n/a
115.111	0.104	230222	keystroke_n	n	n/a
115.167	0.0955	230334	keystroke_s	s	n/a
115.207	0.0635	230414	keystroke_Key.space	Key.space	n/a
115.3425	0.112	230685	keystroke_m	m	n/a
115.4145	0.088	230829	keystroke_a	a	n/a
115.4625	0.097	230925	keystroke_r	r	n/a
115.5595	0.103	231119	keystroke_i	i	n/a
115.6545	0.128	231309	keystroke_n	n	n/a
115.7425	0.112	231485	keystroke_e	e	n/a
115.8145	0.088	231629	keystroke_Key.space	Key.space	n/a
115.9905	0.088	231981	keystroke_f	f	n/a
116.0705	0.056	232141	keystroke_l	l	n/a
116.1825	0.072	232365	keystroke_i	i	n/a
116.2785	0.08	232557	keystroke_c	c	n/a
116.7345	0.08	233469	keystroke_k	k	n/a
116.8305	0.064	233661	keystroke_r	r	n/a
117.2145	0.072	234429	keystroke_Key.enter	Key.enter	n/a
117.2915	4.2855	234583	prompt	n/a	swim advertising recently approx\n
117.855	0.08	235710	keystroke_s	s	n/a
118.023	0.08	236046	keystroke_w	w	n/a
118.119	0.064	236238	keystroke_i	i	n/a
118.2705	0.136	236541	keystroke_m	m	n/a
118.3505	0.0965	236701	keystroke_Key.space	Key.space	n/a
118.511	0.088	237022	keystroke_a	a	n/a
118.639	0.0805	237278	keystroke_d	d	n/a
118.8315	0.072	237663	keystroke_v	v	n/a
118.9595	0.128	237919	keystroke_e	e	n/a
119.0475	0.072	238095	keystroke_r	r	n/a
119.1915	0.072	238383	keystroke_t	t	n/a
119.2875	0.072	238575	keystroke_i	i	n/a
119.3755	0.104	238751	keystroke_s	s	n/a
119.4395	0.096	238879	keystroke_i	i	n/a
119.5275	0.12	239055	keystroke_n	n	n/a
119.5675	0.072	239135	keystroke_g	g	n/a
119.6315	0.064	239263	keystroke_Key.space	Key.space	n/a
119.7435	0.08	239487	keystroke_r	r	n/a
119.8075	0.064	239615	keystroke_e	e	n/a
119.9515	0.08	239903	keystroke_c	c	n/a
120.0395	0.088	240079	keystroke_e	e	n/a
120.1195	0.096	240239	keystroke_n	n	n/a
120.2395	0.096	240479	keystroke_t	t	n/a
120.3515	0.08	240703	keystroke_l	l	n/a
120.511	0.128	241022	keystroke_y	y	n/a
120.599	0.08	241198	keystroke_Key.space	Key.space	n/a
120.775	0.088	241550	keystroke_a	a	n/a
120.871	0.048	241742	keystroke_p	p	n/a
120.975	0.096	241950	keystroke_p	p	n/a
121.111	0.072	242222	keystroke_r	r	n/a
121.191	0.112	242382	keystroke_o	o	n/a
121.319	0.096	242638	keystroke_x	x	n/a
121.503	0.072	243006	keystroke_Key.enter	Key.enter	n/a
121.58	5.573	243160	prompt	n/a	supervisor angry instantly wedding\n
122.111	0.056	244222	keystroke_s	s	n/a
122.199	0.048	244398	keystroke_s	s	n/a
122.319	0.136	244638	keystroke_u	u	n/a
122.415	0.104	244830	keystroke_p	p	n/a
122.487	0.144	244974	keystroke_e	e	n/a
122.583	0.072	245166	keystroke_r	r	n/a
122.8385	0.04	245677	keystroke_Key.backspace	Key.backspace	n/a
122.9345	0.048	245869	keystroke_Key.backspace	Key.backspace	n/a
123.0305	0.048	246061	keystroke_Key.backspace	Key.backspace	n/a
123.1425	0.072	246285	keystroke_Key.backspace	Key.backspace	n/a
123.279	0.064	246558	keystroke_Key.backspace	Key.backspace	n/a
123.471	0.087	246942	keystroke_u	u	n/a
123.599	0.112	247198	keystroke_p	p	n/a
123.759	0.104	247518	keystroke_e	e	n/a
123.807	0.072	247614	keystroke_r	r	n/a
123.999	0.072	247998	keystroke_v	v	n/a
124.079	0.096	248158	keystroke_i	i	n/a
124.231	0.088	248462	keystroke_s	s	n/a
124.343	0.128	248686	keystroke_o	o	n/a
124.431	0.0955	248862	keystroke_r	r	n/a
124.502	0.081	249004	keystroke_Key.space	Key.space	n/a
124.623	0.1115	249246	keystroke_a	a	n/a
124.7265	0.1045	249453	keystroke_n	n	n/a
124.7985	0.064	249597	keystroke_g	g	n/a
124.967	0.136	249934	keystroke_r	r	n/a
125.063	0.096	250126	keystroke_y	y	n/a
125.111	0.08	250222	keystroke_Key.space	Key.space	n/a
125.2785	0.0405	250557	keystroke_i	i	n/a
125.3745	0.097	250749	keystroke_n	n	n/a
125.4315	0.087	250863	keystroke_s	s	n/a
125.5025	0.12	251005	keystroke_t	t	n/a
125.6235	0.095	251247	keystroke_a	a	n/a
125.6955	0.095	251391	keystroke_n	n	n/a
125.8305	0.105	251661	keystroke_t	t	n/a
125.9435	0.055	251887	keystroke_l	l	n/a
126.0865	0.137	252173	keystroke_y	y	n/a
126.1585	0.104	252317	keystroke_Key.space	Key.space	n/a
126.2475	0.047	252495	keystroke_w	w	n/a
126.4065	0.064	252813	keystroke_e	e	n/a
126.5745	0.056	253149	keystroke_d	d	n/a
126.6945	0.056	253389	keystroke_d	d	n/a
126.767	0.1035	253534	keystroke_i	i	n/a
126.8545	0.088	253709	keystroke_n	n	n/a
126.9435	0.063	253887	keystroke_g	g	n/a
127.0705	0.08	254141	keystroke_Key.enter	Key.enter	n/a
127.158	4.1785	254316	prompt	n/a	fancy started bulgarian gnome\n
127.6785	0.096	255357	keystroke_f	f	n/a
127.7665	0.104	255533	keystroke_a	a	n/a
127.8785	0.08	255757	keystroke_n	n	n/a
127.9905	0.096	255981	keystroke_c	c	n/a
128.0945	0.1125	256189	keystroke_y	y	n/a
128.167	0.104	256334	keystroke_Key.space	Key.space	n/a
128.263	0.08	256526	keystroke_s	s	n/a
128.3745	0.096	256749	keystroke_t	t	n/a
128.5745	0.08	257149	keystroke_r	r	n/a
128.9265	0.072	257853	keystroke_Key.backspace	Key.backspace	n/a
129.0075	0.095	258015	keystroke_a	a	n/a
129.0705	0.08	258141	keystroke_r	r	n/a
129.2305	0.104	258461	keystroke_t	t	n/a
129.3025	0.081	258605	keystroke_e	e	n/a
129.4545	0.096	258909	keystroke_d	d	n/a
129.5105	0.072	259021	keystroke_Key.space	Key.space	n/a
129.6475	0.079	259295	keystroke_b	b	n/a
129.7425	0.065	259485	keystroke_u	u	n/a
129.8465	0.113	259693	keystroke_l	l	n/a
129.9115	0.079	259823	keystroke_g	g	n/a
129.9745	0.1125	259949	keystroke_a	a	n/a
130.111	0.096	260222	keystroke_r	r	n/a
130.191	0.112	260382	keystroke_i	i	n/a
130.311	0.096	260622	keystroke_a	a	n/a
130.399	0.104	260798	keystroke_n	n	n/a
130.471	0.088	260942	keystroke_Key.space	Key.space	n/a
130.575	0.08	261150	keystroke_g	g	n/a
130.703	0.096	261406	keystroke_n	n	n/a
130.847	0.0955	261694	keystroke_o	o	n/a
130.9985	0.088	261997	keystroke_m	m	n/a
131.0785	0.064	262157	keystroke_e	e	n/a
131.2545	0.08	262509	keystroke_Key.enter	Key.enter	n/a
131.339	8.221	262678	prompt	n/a	loving representations appropriations luxembourg\n
131.9035	0.047	263807	keystroke_l	l	n/a
132.0625	0.048	264125	keystroke_o	o	n/a
132.5025	0.08	265005	keystroke_v	v	n/a
132.6065	0.064	265213	keystroke_i	i	n/a
132.6865	0.136	265373	keystroke_n	n	n/a
132.7265	0.088	265453	keystroke_g	g	n/a
132.8065	0.064	265613	keystroke_Key.space	Key.space	n/a
132.9185	0.104	265837	keystroke_r	r	n/a
132.9745	0.096	265949	keystroke_e	e	n/a
133.0865	0.104	266173	keystroke_p	p	n/a
133.1745	0.128	266349	keystroke_r	r	n/a
133.2785	0.072	266557	keystroke_e	e	n/a
133.3345	0.144	266669	keystroke_s	s	n/a
133.4385	0.096	266877	keystroke_e	e	n/a
133.5185	0.104	267037	keystroke_n	n	n/a
133.6065	0.088	267213	keystroke_t	t	n/a
133.6785	0.12	267357	keystroke_a	a	n/a
133.7825	0.112	267565	keystroke_t	t	n/a
133.8955	0.119	267791	keystroke_i	i	n/a
133.9585	0.096	267917	keystroke_o	o	n/a
133.9985	0.096	267997	keystroke_n	n	n/a
134.4065	0.1365	268813	keystroke_s	s	n/a
134.4785	0.0885	268957	keystroke_Key.space	Key.space	n/a
134.687	0.0875	269374	keystroke_a	a	n/a
134.7905	0.064	269581	keystroke_p	p	n/a
134.9185	0.088	269837	keystroke_p	p	n/a
135.0145	0.08	270029	keystroke_r	r	n/a
135.0945	0.12	270189	keystroke_o	o	n/a
135.2785	0.056	270557	keystroke_r	r	n/a
135.6705	0.0635	271341	keystroke_Key.backspace	Key.backspace	n/a
135.862	0.12	271724	keystroke_p	p	n/a
136.014	0.064	272028	keystroke_r	r	n/a
136.086	0.104	272172	keystroke_i	i	n/a
136.207	0.087	272414	keystroke_a	a	n/a
136.454	0.072	272908	keystroke_t	t	n/a
136.558	0.112	273116	keystroke_i	i	n/a
136.582	0.152	273164	keystroke_o	o	n/a
136.639	0.152	273278	keystroke_n	n	n/a
136.7105	0.1115	273421	keystroke_s	s	n/a
136.791	0.064	273582	keystroke_Key.space	Key.space	n/a
137.206	0.0805	274412	keystroke_l	l	n/a
137.3905	0.08	274781	keystroke_u	u	n/a
137.814	0.096	275628	keystroke_x	x	n/a
138.0385	0.073	276077	keystroke_e	e	n/a
138.287	0.112	276574	keystroke_m	m	n/a
138.5745	0.113	277149	keystroke_b	b	n/a
138.7345	0.152	277469	keystroke_o	o	n/a
138.8465	0.136	277693	keystroke_u	u	n/a
138.9835	0.0795	277967	keystroke_r	r	n/a
139.167	0.072	278334	keystroke_g	g	n/a
139.447	0.112	278894	keystroke_Key.enter	Key.enter	n/a
139.5635	4.6445	279127	prompt	n/a	proceedings ralph winner gates\n
140.238	0.096	280476	keystroke_p	p	n/a
140.311	0.095	280622	keystroke_r	r	n/a
140.454	0.1205	280908	keystroke_o	o	n/a
140.5825	0.056	281165	keystroke_c	c	n/a
140.7265	0.064	281453	keystroke_e	e	n/a
140.8545	0.064	281709	keystroke_e	e	n/a
140.9985	0.112	281997	keystroke_d	d	n/a
141.0865	0.096	282173	keystroke_i	i	n/a
141.175	0.152	282350	keystroke_n	n	n/a
141.2225	0.128	282445	keystroke_g	g	n/a
141.2945	0.096	282589	keystroke_s	s	n/a
141.3585	0.072	282717	keystroke_Key.space	Key.space	n/a
141.5665	0.112	283133	keystroke_r	r	n/a
141.6385	0.088	283277	keystroke_a	a	n/a
141.7745	0.072	283549	keystroke_l	l	n/a
141.935	0.096	283870	keystroke_p	p	n/a
142.078	0.144	284156	keystroke_h	h	n/a
142.198	0.096	284396	keystroke_Key.space	Key.space	n/a
142.326	0.072	284652	keystroke_w	w	n/a
142.406	0.056	284812	keystroke_i	i	n/a
142.534	0.056	285068	keystroke_n	n	n/a
142.6465	0.144	285293	keystroke_n	n	n/a
142.7105	0.144	285421	keystroke_e	e	n/a
142.7585	0.112	285517	keystroke_r	r	n/a
143.015	0.0315	286030	keystroke_g	g	n/a
143.303	0.0715	286606	keystroke_Key.backspace	Key.backspace	n/a
143.3825	0.072	286765	keystroke_Key.space	Key.space	n/a
143.4465	0.0965	286893	keystroke_g	g	n/a
143.543	0.128	287086	keystroke_a	a	n/a
143.663	0.176	287326	keystroke_t	t	n/a
143.7345	0.1365	287469	keystroke_e	e	n/a
143.8065	0.1125	287613	keystroke_s	s	n/a
144.1185	0.088	288237	keystroke_Key.enter	Key.enter	n/a
144.211	5.957	288422	prompt	n/a	elliott subscription contributed divorce\n
144.823	0.072	289646	keystroke_e	e	n/a
144.927	0.056	289854	keystroke_l	l	n/a
145.063	0.064	290126	keystroke_l	l	n/a
145.223	0.104	290446	keystroke_i	i	n/a
145.479	0.08	290958	keystroke_o	o	n/a
145.695	0.056	291390	keystroke_t	t	n/a
145.807	0.0875	291614	keystroke_t	t	n/a
145.9185	0.08	291837	keystroke_Key.space	Key.space	n/a
146.3185	0.032	292637	keystroke_s	s	n/a
146.4225	0.0725	292845	keystroke_u	u	n/a
146.615	0.072	293230	keystroke_b	b	n/a
146.791	0.088	293582	keystroke_s	s	n/a
146.943	0.072	293886	keystroke_c	c	n/a
147.135	0.064	294270	keystroke_r	r	n/a
147.239	0.112	294478	keystroke_i	i	n/a
147.303	0.112	294606	keystroke_p	p	n/a
147.463	0.096	294926	keystroke_t	t	n/a
147.535	0.128	295070	keystroke_i	i	n/a
147.567	0.152	295134	keystroke_o	o	n/a
147.631	0.12	295262	keystroke_n	n	n/a
147.727	0.072	295454	keystroke_Key.space	Key.space	n/a
147.887	0.104	295774	keystroke_c	c	n/a
147.967	0.136	295934	keystroke_o	o	n/a
148.055	0.096	296110	keystroke_n	n	n/a
148.159	0.056	296318	keystroke_t	t	n/a
148.303	0.072	296606	keystroke_r	r	n/a
148.359	0.104	296718	keystroke_i	i	n/a
148.519	0.087	297038	keystroke_b	b	n/a
148.623	0.127	297246	keystroke_u	u	n/a
148.734	0.128	297468	keystroke_t	t	n/a
148.806	0.08	297612	keystroke_e	e	n/a
148.975	0.104	297950	keystroke_d	d	n/a
149.039	0.079	298078	keystroke_Key.space	Key.space	n/a
149.158	0.089	298316	keystroke_d	d	n/a
149.254	0.112	298508	keystroke_i	i	n/a
149.351	0.079	298702	keystroke_v	v	n/a
149.487	0.136	298974	keystroke_o	o	n/a
149.591	0.055	299182	keystroke_r	r	n/a
149.775	0.12	299550	keystroke_c	c	n/a
149.871	0.071	299742	keystroke_e	e	n/a
150.062	0.104	300124	keystroke_Key.enter	Key.enter	n/a
150.173	4.027	300346	prompt	n/a	bench cindy excess britannica\n
150.7105	0.0645	301421	keystroke_b	b	n/a
150.823	0.103	301646	keystroke_e	e	n/a
150.902	0.088	301804	keystroke_n	n	n/a
151.006	0.137	302012	keystroke_c	c	n/a
151.095	0.119	302190	keystroke_h	h	n/a
151.166	0.088	302332	keystroke_Key.space	Key.space	n/a
151.295	0.12	302590	keystroke_c	c	n/a
151.382	0.056	302764	keystroke_i	i	n/a
151.462	0.088	302924	keystroke_n	n	n/a
151.559	0.095	303118	keystroke_d	d	n/a
151.7025	0.12	303405	keystroke_y	y	n/a
151.7825	0.104	303565	keystroke_Key.space	Key.space	n/a
151.8945	0.048	303789	keystroke_e	e	n/a
152.0385	0.088	304077	keystroke_x	x	n/a
152.2225	0.064	304445	keystroke_c	c	n/a
152.3585	0.064	304717	keystroke_e	e	n/a
152.5265	0.056	305053	keystroke_s	s	n/a
152.6305	0.0965	305261	keystroke_s	s	n/a
152.719	0.056	305438	keystroke_Key.space	Key.space	n/a
152.871	0.072	305742	keystroke_b	b	n/a
153.047	0.088	306094	keystroke_r	r	n/a
153.167	0.112	306334	keystroke_i	i	n/a
153.263	0.103	306526	keystroke_t	t	n/a
153.335	0.104	306670	keystroke_a	a	n/a
153.487	0.056	306974	keystroke_n	n	n/a
153.599	0.072	307198	keystroke_n	n	n/a
153.735	0.104	307470	keystroke_i	i	n/a
153.831	0.128	307662	keystroke_c	c	n/a
153.911	0.088	307822	keystroke_a	a	n/a
154.1185	0.08	308237	keystroke_Key.enter	Key.enter	n/a
154.203	7.157	308406	prompt	n/a	electoral botswana visits aerial\n
154.734	0.08	309468	keystroke_e	e	n/a
154.846	0.096	309692	keystroke_l	l	n/a
154.919	0.056	309838	keystroke_e	e	n/a
155.046	0.097	310092	keystroke_c	c	n/a
155.254	0.056	310508	keystroke_t	t	n/a
155.39	0.089	310780	keystroke_o	o	n/a
155.423	0.184	310846	keystroke_r	r	n/a
155.535	0.095	311070	keystroke_a	a	n/a
155.655	0.127	311310	keystroke_l	l	n/a
155.774	0.088	311548	keystroke_Key.space	Key.space	n/a
156.4065	0.08	312813	keystroke_b	b	n/a
156.5585	0.112	313117	keystroke_o	o	n/a
156.6865	0.08	313373	keystroke_t	t	n/a
157.038	0.056	314076	keystroke_s	s	n/a
157.3665	0.088	314733	keystroke_w	w	n/a
157.5585	0.088	315117	keystroke_a	a	n/a
158.0945	0.08	316189	keystroke_n	n	n/a
158.2545	0.104	316509	keystroke_a	a	n/a
158.4385	0.104	316877	keystroke_Key.space	Key.space	n/a
158.638	0.096	317276	keystroke_v	v	n/a
158.798	0.096	317596	keystroke_i	i	n/a
158.918	0.096	317836	keystroke_s	s	n/a
159.286	0.096	318572	keystroke_i	i	n/a
159.414	0.1605	318828	keystroke_t	t	n/a
159.5025	0.073	319005	keystroke_s	s	n/a
159.5345	0.104	319069	keystroke_Key.space	Key.space	n/a
159.9905	0.088	319981	keystroke_a	a	n/a
160.1345	0.128	320269	keystroke_e	e	n/a
160.3345	0.08	320669	keystroke_r	r	n/a
160.503	0.104	321006	keystroke_i	i	n/a
160.631	0.072	321262	keystroke_a	a	n/a
161.031	0.08	322062	keystroke_l	l	n/a
161.263	0.095	322526	keystroke_Key.enter	Key.enter	n/a
161.363	5.8205	322726	prompt	n/a	soundtrack motors cleaners disclaimer\n
161.967	0.096	323934	keystroke_s	s	n/a
162.055	0.128	324110	keystroke_o	o	n/a
162.142	0.057	324284	keystroke_u	u	n/a
162.302	0.088	324604	keystroke_n	n	n/a
162.5425	0.064	325085	keystroke_d	d	n/a
162.6785	0.064	325357	keystroke_t	t	n/a
162.8145	0.096	325629	keystroke_r	r	n/a
162.8785	0.08	325757	keystroke_a	a	n/a
163.0465	0.136	326093	keystroke_c	c	n/a
163.1265	0.112	326253	keystroke_k	k	n/a
163.2145	0.08	326429	keystroke_Key.space	Key.space	n/a
163.3505	0.088	326701	keystroke_m	m	n/a
163.5105	0.112	327021	keystroke_o	o	n/a
163.6625	0.088	327325	keystroke_t	t	n/a
163.7665	0.112	327533	keystroke_o	o	n/a
163.8385	0.152	327677	keystroke_r	r	n/a
163.9825	0.056	327965	keystroke_s	s	n/a
164.0065	0.088	328013	keystroke_Key.space	Key.space	n/a
164.3905	0.08	328781	keystroke_c	c	n/a
164.5025	0.136	329005	keystroke_l	l	n/a
164.5745	0.112	329149	keystroke_e	e	n/a
164.6305	0.088	329261	keystroke_a	a	n/a
164.7585	0.112	329517	keystroke_n	n	n/a
164.8785	0.1925	329757	keystroke_e	e	n/a
164.966	0.176	329932	keystroke_r	r	n/a
165.046	0.129	330092	keystroke_s	s	n/a
165.126	0.104	330252	keystroke_Key.space	Key.space	n/a
165.318	0.08	330636	keystroke_d	d	n/a
165.534	0.096	331068	keystroke_i	i	n/a
165.695	0.088	331390	keystroke_s	s	n/a
165.8145	0.096	331629	keystroke_c	c	n/a
166.1345	0.104	332269	keystroke_l	l	n/a
166.4705	0.072	332941	keystroke_a	a	n/a
166.5665	0.064	333133	keystroke_i	i	n/a
166.7265	0.088	333453	keystroke_m	m	n/a
166.8065	0.128	333613	keystroke_e	e	n/a
166.8945	0.08	333789	keystroke_r	r	n/a
167.1025	0.08	334205	keystroke_Key.enter	Key.enter	n/a
167.1865	4.3015	334373	prompt	n/a	typing showtimes outdoors sperm\n
167.7345	0.112	335469	keystroke_t	t	n/a
167.8625	0.12	335725	keystroke_y	y	n/a
167.927	0.0795	335854	keystroke_p	p	n/a
168.0465	0.0885	336093	keystroke_i	i	n/a
168.198	0.137	336396	keystroke_n	n	n/a
168.255	0.088	336510	keystroke_g	g	n/a
168.31	0.088	336620	keystroke_Key.space	Key.space	n/a
168.518	0.08	337036	keystroke_s	s	n/a
168.623	0.128	337246	keystroke_h	h	n/a
168.687	0.112	337374	keystroke_o	o	n/a
168.751	0.08	337502	keystroke_w	w	n/a
168.935	0.087	337870	keystroke_t	t	n/a
169.007	0.0635	338014	keystroke_i	i	n/a
169.0945	0.184	338189	keystroke_m	m	n/a
169.2145	0.152	338429	keystroke_e	e	n/a
169.2785	0.12	338557	keystroke_s	s	n/a
169.3505	0.096	338701	keystroke_Key.space	Key.space	n/a
169.9105	0.112	339821	keystroke_o	o	n/a
170.0065	0.072	340013	keystroke_u	u	n/a
170.0865	0.072	340173	keystroke_t	t	n/a
170.2545	0.072	340509	keystroke_d	d	n/a
170.3505	0.072	340701	keystroke_o	o	n/a
170.4705	0.144	340941	keystroke_o	o	n/a
170.5905	0.16	341181	keystroke_r	r	n/a
170.6625	0.128	341325	keystroke_s	s	n/a
170.7265	0.104	341453	keystroke_Key.space	Key.space	n/a
170.8865	0.0875	341773	keystroke_s	s	n/a
170.958	0.112	341916	keystroke_p	p	n/a
171.054	0.113	342108	keystroke_e	e	n/a
171.118	0.104	342236	keystroke_r	r	n/a
171.206	0.088	342412	keystroke_m	m	n/a
171.398	0.088	342796	keystroke_Key.enter	Key.enter	n/a
171.491	8.0125	342982	prompt	n/a	lancaster sitting vocabulary morning\n
172.0545	0.104	344109	keystroke_l	l	n/a
172.1185	0.104	344237	keystroke_a	a	n/a
172.2545	0.112	344509	keystroke_n	n	n/a
172.3185	0.112	344637	keystroke_c	c	n/a
172.4225	0.08	344845	keystroke_a	a	n/a
172.5665	0.128	345133	keystroke_s	s	n/a
172.7025	0.064	345405	keystroke_t	t	n/a
172.7985	0.144	345597	keystroke_e	e	n/a
172.8705	0.096	345741	keystroke_r	r	n/a
172.9345	0.088	345869	keystroke_Key.space	Key.space	n/a
173.0465	0.088	346093	keystroke_s	s	n/a
173.1425	0.08	346285	keystroke_i	i	n/a
173.2705	0.056	346541	keystroke_t	t	n/a
173.3985	0.08	346797	keystroke_t	t	n/a
173.4625	0.112	346925	keystroke_i	i	n/a
173.5425	0.128	347085	keystroke_n	n	n/a
173.6065	0.072	347213	keystroke_g	g	n/a
173.6545	0.088	347309	keystroke_Key.space	Key.space	n/a
173.8625	0.104	347725	keystroke_v	v	n/a
173.9905	0.12	347981	keystroke_o	o	n/a
174.1905	0.096	348381	keystroke_c	c	n/a
174.5665	0.112	349133	keystroke_a	a	n/a
174.7825	0.08	349565	keystroke_v	v	n/a
174.8785	0.088	349757	keystroke_u	u	n/a
174.9825	0.136	349965	keystroke_l	l	n/a
175.0705	0.088	350141	keystroke_a	a	n/a
175.1345	0.056	350269	keystroke_t	t	n/a
175.5505	0.064	351101	keystroke_Key.backspace	Key.backspace	n/a
175.6385	0.072	351277	keystroke_r	r	n/a
175.8065	0.0635	351613	keystroke_Key.backspace	Key.backspace	n/a
175.918	0.056	351836	keystroke_Key.backspace	Key.backspace	n/a
176.03	0.048	352060	keystroke_Key.backspace	Key.backspace	n/a
176.134	0.072	352268	keystroke_Key.backspace	Key.backspace	n/a
176.358	0.064	352716	keystroke_Key.backspace	Key.backspace	n/a
176.446	0.089	352892	keystroke_b	b	n/a
176.727	0.064	353454	keystroke_u	u	n/a
176.943	0.087	353886	keystroke_a	a	n/a
176.991	0.048	353982	keystroke_r	r	n/a
177.2945	0.04	354589	keystroke_Key.backspace	Key.backspace	n/a
177.6225	0.048	355245	keystroke_Key.backspace	Key.backspace	n/a
177.8065	0.104	355613	keystroke_l	l	n/a
177.9345	0.112	355869	keystroke_a	a	n/a
178.2385	0.08	356477	keystroke_r	r	n/a
178.3505	0.08	356701	keystroke_y	y	n/a
178.4785	0.072	356957	keystroke_Key.space	Key.space	n/a
178.6865	0.128	357373	keystroke_m	m	n/a
178.8225	0.112	357645	keystroke_o	o	n/a
178.9745	0.08	357949	keystroke_r	r	n/a
179.0305	0.08	358061	keystroke_n	n	n/a
179.0945	0.048	358189	keystroke_i	i	n/a
179.1745	0.096	358349	keystroke_n	n	n/a
179.2545	0.056	358509	keystroke_g	g	n/a
179.4225	0.08	358845	keystroke_Key.enter	Key.enter	n/a
179.5075	4.637	359015	prompt	n/a	robertson becomes dynamics chambers\n
180.1665	0.072	360333	keystroke_r	r	n/a
180.2545	0.144	360509	keystroke_o	o	n/a
180.3665	0.064	360733	keystroke_b	b	n/a
180.4945	0.1355	360989	keystroke_e	e	n/a
180.582	0.08	361164	keystroke_r	r	n/a
180.734	0.0885	361468	keystroke_t	t	n/a
180.8625	0.104	361725	keystroke_s	s	n/a
180.9585	0.12	361917	keystroke_o	o	n/a
181.0225	0.128	362045	keystroke_n	n	n/a
181.0865	0.08	362173	keystroke_Key.space	Key.space	n/a
181.2145	0.064	362429	keystroke_b	b	n/a
181.342	0.08	362684	keystroke_e	e	n/a
181.462	0.096	362924	keystroke_c	c	n/a
181.55	0.144	363100	keystroke_o	o	n/a
181.622	0.152	363244	keystroke_m	m	n/a
181.702	0.12	363404	keystroke_e	e	n/a
181.758	0.104	363516	keystroke_s	s	n/a
181.79	0.12	363580	keystroke_Key.space	Key.space	n/a
181.974	0.088	363948	keystroke_d	d	n/a
182.102	0.056	364204	keystroke_y	y	n/a
182.27	0.096	364540	keystroke_n	n	n/a
182.382	0.096	364764	keystroke_a	a	n/a
182.478	0.1845	364956	keystroke_m	m	n/a
182.582	0.1045	365164	keystroke_i	i	n/a
182.7025	0.2	365405	keystroke_c	c	n/a
182.7905	0.144	365581	keystroke_s	s	n/a
182.9025	0.104	365805	keystroke_Key.space	Key.space	n/a
183.1505	0.096	366301	keystroke_c	c	n/a
183.2545	0.064	366509	keystroke_h	h	n/a
183.3345	0.104	366669	keystroke_a	a	n/a
183.4545	0.096	366909	keystroke_m	m	n/a
183.5185	0.072	367037	keystroke_b	b	n/a
183.6945	0.192	367389	keystroke_e	e	n/a
183.7905	0.12	367581	keystroke_r	r	n/a
183.8625	0.104	367725	keystroke_s	s	n/a
184.0545	0.088	368109	keystroke_Key.enter	Key.enter	n/a
184.1475	5.02	368295	prompt	n/a	leonard complaint forbes micro\n
184.6465	0.072	369293	keystroke_l	l	n/a
184.7985	0.072	369597	keystroke_e	e	n/a
184.9425	0.12	369885	keystroke_o	o	n/a
185.0865	0.104	370173	keystroke_n	n	n/a
185.1985	0.072	370397	keystroke_a	a	n/a
185.2945	0.08	370589	keystroke_r	r	n/a
185.4465	0.104	370893	keystroke_d	d	n/a
185.5425	0.064	371085	keystroke_Key.space	Key.space	n/a
185.6625	0.056	371325	keystroke_c	c	n/a
185.7265	0.072	371453	keystroke_o	o	n/a
185.8305	0.12	371661	keystroke_m	m	n/a
185.8865	0.088	371773	keystroke_p	p	n/a
186.0465	0.096	372093	keystroke_l	l	n/a
186.1825	0.088	372365	keystroke_a	a	n/a
186.2705	0.063	372541	keystroke_i	i	n/a
186.3425	0.152	372685	keystroke_n	n	n/a
186.4465	0.088	372893	keystroke_t	t	n/a
186.5265	0.063	373053	keystroke_Key.space	Key.space	n/a
186.7345	0.064	373469	keystroke_f	f	n/a
186.8305	0.136	373661	keystroke_o	o	n/a
186.9265	0.048	373853	keystroke_r	r	n/a
187.102	0.113	374204	keystroke_c	c	n/a
187.254	0.136	374508	keystroke_e	e	n/a
187.782	0.041	375564	keystroke_Key.backspace	Key.backspace	n/a
187.879	0.071	375758	keystroke_Key.backspace	Key.backspace	n/a
187.927	0.079	375854	keystroke_b	b	n/a
188.094	0.1525	376188	keystroke_e	e	n/a
188.1745	0.12	376349	keystroke_s	s	n/a
188.2385	0.088	376477	keystroke_Key.space	Key.space	n/a
188.4465	0.088	376893	keystroke_m	m	n/a
188.6065	0.088	377213	keystroke_i	i	n/a
188.6865	0.064	377373	keystroke_c	c	n/a
188.8465	0.072	377693	keystroke_r	r	n/a
188.9265	0.064	377853	keystroke_o	o	n/a
189.0865	0.08	378173	keystroke_Key.enter	Key.enter	n/a
189.1715	4.452	378343	prompt	n/a	annotation perhaps janet discuss\n
189.719	0.104	379438	keystroke_a	a	n/a
189.846	0.064	379692	keystroke_n	n	n/a
189.966	0.072	379932	keystroke_n	n	n/a
190.094	0.112	380188	keystroke_o	o	n/a
190.207	0.095	380414	keystroke_t	t	n/a
190.374	0.088	380748	keystroke_t	t	n/a
190.6705	0.072	381341	keystroke_Key.backspace	Key.backspace	n/a
190.7585	0.08	381517	keystroke_a	a	n/a
190.8065	0.096	381613	keystroke_t	t	n/a
190.9105	0.12	381821	keystroke_i	i	n/a
190.9425	0.144	381885	keystroke_o	o	n/a
190.9905	0.128	381981	keystroke_n	n	n/a
191.1265	0.08	382253	keystroke_Key.space	Key.space	n/a
191.3025	0.12	382605	keystroke_p	p	n/a
191.4305	0.136	382861	keystroke_e	e	n/a
191.5345	0.088	383069	keystroke_r	r	n/a
191.7265	0.096	383453	keystroke_h	h	n/a
191.8465	0.064	383693	keystroke_a	a	n/a
191.9185	0.128	383837	keystroke_p	p	n/a
192.0225	0.088	384045	keystroke_s	s	n/a
192.0785	0.056	384157	keystroke_Key.space	Key.space	n/a
192.2065	0.088	384413	keystroke_j	j	n/a
192.3025	0.08	384605	keystroke_a	a	n/a
192.3825	0.104	384765	keystroke_n	n	n/a
192.4785	0.136	384957	keystroke_e	e	n/a
192.5745	0.104	385149	keystroke_t	t	n/a
192.6465	0.08	385293	keystroke_Key.space	Key.space	n/a
192.8145	0.088	385629	keystroke_d	d	n/a
192.9105	0.112	385821	keystroke_i	i	n/a
192.9825	0.088	385965	keystroke_s	s	n/a
193.1025	0.072	386205	keystroke_c	c	n/a
193.1985	0.088	386397	keystroke_u	u	n/a
193.2945	0.048	386589	keystroke_s	s	n/a
193.4065	0.088	386813	keystroke_s	s	n/a
193.5425	0.08	387085	keystroke_Key.enter	Key.enter	n/a
193.626	4.862	387252	prompt	n/a	take compromise recipients embassy\n
194.198	0.136	388396	keystroke_t	t	n/a
194.358	0.096	388716	keystroke_k	k	n/a
194.6305	0.047	389261	keystroke_Key.backspace	Key.backspace	n/a
194.7105	0.088	389421	keystroke_a	a	n/a
194.8065	0.112	389613	keystroke_k	k	n/a
194.8705	0.096	389741	keystroke_e	e	n/a
194.9335	0.072	389867	keystroke_Key.space	Key.space	n/a
195.0455	0.089	390091	keystroke_c	c	n/a
195.1025	0.088	390205	keystroke_o	o	n/a
195.1985	0.119	390397	keystroke_m	m	n/a
195.2455	0.12	390491	keystroke_p	p	n/a
195.3735	0.088	390747	keystroke_r	r	n/a
195.4535	0.097	390907	keystroke_o	o	n/a
195.6545	0.128	391309	keystroke_m	m	n/a
195.8295	0.089	391659	keystroke_i	i	n/a
195.9185	0.104	391837	keystroke_s	s	n/a
195.9585	0.12	391917	keystroke_e	e	n/a
196.0305	0.111	392061	keystroke_Key.space	Key.space	n/a
196.1745	0.104	392349	keystroke_r	r	n/a
196.2465	0.08	392493	keystroke_e	e	n/a
196.4305	0.0875	392861	keystroke_c	c	n/a
196.526	0.08	393052	keystroke_i	i	n/a
196.67	0.104	393340	keystroke_p	p	n/a
196.814	0.1125	393628	keystroke_i	i	n/a
196.8945	0.112	393789	keystroke_e	e	n/a
197.0145	0.1595	394029	keystroke_n	n	n/a
197.094	0.1445	394188	keystroke_t	t	n/a
197.174	0.104	394348	keystroke_s	s	n/a
197.2465	0.064	394493	keystroke_Key.space	Key.space	n/a
197.3665	0.08	394733	keystroke_e	e	n/a
197.438	0.104	394876	keystroke_m	m	n/a
197.566	0.08	395132	keystroke_b	b	n/a
197.742	0.08	395484	keystroke_a	a	n/a
197.926	0.056	395852	keystroke_s	s	n/a
198.046	0.072	396092	keystroke_s	s	n/a
198.2145	0.08	396429	keystroke_y	y	n/a
198.3985	0.088	396797	keystroke_Key.enter	Key.enter	n/a
198.491	3.5005	396982	prompt	n/a	willing we rural naturally\n
199.006	0.088	398012	keystroke_w	w	n/a
199.102	0.048	398204	keystroke_i	i	n/a
199.27	0.048	398540	keystroke_l	l	n/a
199.398	0.032	398796	keystroke_l	l	n/a
199.494	0.072	398988	keystroke_i	i	n/a
199.614	0.128	399228	keystroke_n	n	n/a
199.654	0.096	399308	keystroke_g	g	n/a
199.702	0.064	399404	keystroke_Key.space	Key.space	n/a
199.806	0.112	399612	keystroke_w	w	n/a
199.878	0.128	399756	keystroke_e	e	n/a
199.974	0.08	399948	keystroke_Key.space	Key.space	n/a
200.134	0.056	400268	keystroke_r	r	n/a
200.262	0.088	400524	keystroke_u	u	n/a
200.318	0.1285	400636	keystroke_r	r	n/a
200.4065	0.096	400813	keystroke_a	a	n/a
200.4615	0.129	400923	keystroke_l	l	n/a
200.5505	0.072	401101	keystroke_Key.space	Key.space	n/a
200.6945	0.104	401389	keystroke_n	n	n/a
200.7825	0.096	401565	keystroke_a	a	n/a
200.8545	0.079	401709	keystroke_t	t	n/a
201.0785	0.079	402157	keystroke_u	u	n/a
201.2545	0.112	402509	keystroke_r	r	n/a
201.3415	0.064	402683	keystroke_a	a	n/a
201.3975	0.049	402795	keystroke_l	l	n/a
201.5105	0.063	403021	keystroke_l	l	n/a
201.6945	0.071	403389	keystroke_y	y	n/a
201.9015	0.089	403803	keystroke_Key.enter	Key.enter	n/a
201.996	3.9795	403992	prompt	n/a	expects zope needle likely\n
202.5345	0.072	405069	keystroke_e	e	n/a
202.7025	0.071	405405	keystroke_x	x	n/a
202.8865	0.08	405773	keystroke_c	c	n/a
203.0145	0.079	406029	keystroke_e	e	n/a
203.1255	0.105	406251	keystroke_p	p	n/a
203.2705	0.151	406541	keystroke_t	t	n/a
203.3655	0.104	406731	keystroke_s	s	n/a
203.4375	0.088	406875	keystroke_Key.space	Key.space	n/a
203.6695	0.112	407339	keystroke_z	z	n/a
203.8855	0.112	407771	keystroke_o	o	n/a
204.0215	0.128	408043	keystroke_p	p	n/a
204.1335	0.089	408267	keystroke_e	e	n/a
204.1975	0.048	408395	keystroke_Key.space	Key.space	n/a
204.2855	0.089	408571	keystroke_n	n	n/a
204.4055	0.064	408811	keystroke_e	e	n/a
204.55	0.064	409100	keystroke_e	e	n/a
204.71	0.088	409420	keystroke_d	d	n/a
204.822	0.128	409644	keystroke_l	l	n/a
204.902	0.112	409804	keystroke_e	e	n/a
204.998	0.04	409996	keystroke_Key.space	Key.space	n/a
205.07	0.072	410140	keystroke_l	l	n/a
205.19	0.064	410380	keystroke_i	i	n/a
205.342	0.072	410684	keystroke_k	k	n/a
205.446	0.08	410892	keystroke_e	e	n/a
205.534	0.072	411068	keystroke_l	l	n/a
205.702	0.08	411404	keystroke_y	y	n/a
205.894	0.08	411788	keystroke_Key.enter	Key.enter	n/a
205.978	6.6455	411956	prompt	n/a	designs hired visa laughing\n
206.4535	0.025	412907	keystroke_d	d	n/a
206.55	0.048	413100	keystroke_d	d	n/a
206.998	0.064	413996	keystroke_Key.backspace	Key.backspace	n/a
207.07	0.168	414140	keystroke_e	e	n/a
207.198	0.088	414396	keystroke_s	s	n/a
207.294	0.1195	414588	keystroke_i	i	n/a
207.4375	0.08	414875	keystroke_g	g	n/a
207.5975	0.152	415195	keystroke_n	n	n/a
207.6855	0.12	415371	keystroke_s	s	n/a
207.7655	0.072	415531	keystroke_Key.space	Key.space	n/a
207.9895	0.128	415979	keystroke_h	h	n/a
208.0535	0.12	416107	keystroke_i	i	n/a
208.1415	0.096	416283	keystroke_r	r	n/a
208.2055	0.056	416411	keystroke_e	e	n/a
208.3575	0.088	416715	keystroke_d	d	n/a
208.7335	0.112	417467	keystroke_Key.space	Key.space	n/a
208.8775	0.088	417755	keystroke_v	v	n/a
209.0135	0.136	418027	keystroke_i	i	n/a
209.0775	0.208	418155	keystroke_d	d	n/a
209.1815	0.08	418363	keystroke_a	a	n/a
209.3015	0.096	418603	keystroke_Key.space	Key.space	n/a
209.5975	0.056	419195	keystroke_Key.backspace	Key.backspace	n/a
209.7015	0.056	419403	keystroke_Key.backspace	Key.backspace	n/a
209.8055	0.088	419611	keystroke_Key.backspace	Key.backspace	n/a
209.8695	0.1685	419739	keystroke_s	s	n/a
209.974	0.112	419948	keystroke_Key.space	Key.space	n/a
210.014	0.056	420028	keystroke_a	a	n/a
210.2215	0.0885	420443	keystroke_l	l	n/a
210.5335	0.04	421067	keystroke_Key.backspace	Key.backspace	n/a
210.622	0.0475	421244	keystroke_Key.backspace	Key.backspace	n/a
210.7255	0.0565	421451	keystroke_Key.backspace	Key.backspace	n/a
210.8535	0.032	421707	keystroke_Key.backspace	Key.backspace	n/a
210.9175	0.097	421835	keystroke_a	a	n/a
211.2785	0.0635	422557	keystroke_Key.backspace	Key.backspace	n/a
211.358	0.1675	422716	keystroke_s	s	n/a
211.4535	0.12	422907	keystroke_a	a	n/a
211.5175	0.112	423035	keystroke_Key.space	Key.space	n/a
211.7095	0.104	423419	keystroke_l	l	n/a
211.8375	0.096	423675	keystroke_a	a	n/a
211.9415	0.08	423883	keystroke_u	u	n/a
212.0615	0.088	424123	keystroke_g	g	n/a
212.1255	0.096	424251	keystroke_h	h	n/a
212.1895	0.064	424379	keystroke_i	i	n/a
212.3095	0.096	424619	keystroke_n	n	n/a
212.3815	0.064	424763	keystroke_g	g	n/a
212.5415	0.08	425083	keystroke_Key.enter	Key.enter	n/a
212.6265	3.781	425253	prompt	n/a	ground stem and manhattan\n
213.03	0.087	426060	keystroke_d	d	n/a
213.3255	0.064	426651	keystroke_Key.backspace	Key.backspace	n/a
213.3815	0.064	426763	keystroke_g	g	n/a
213.534	0.096	427068	keystroke_r	r	n/a
213.5735	0.1445	427147	keystroke_o	o	n/a
213.662	0.088	427324	keystroke_u	u	n/a
213.894	0.144	427788	keystroke_n	n	n/a
213.958	0.104	427916	keystroke_d	d	n/a
214.03	0.096	428060	keystroke_Key.space	Key.space	n/a
214.342	0.104	428684	keystroke_s	s	n/a
214.422	0.112	428844	keystroke_t	t	n/a
214.51	0.1195	429020	keystroke_e	e	n/a
214.5895	0.104	429179	keystroke_m	m	n/a
214.6695	0.072	429339	keystroke_Key.space	Key.space	n/a
214.7095	0.096	429419	keystroke_a	a	n/a
214.7975	0.112	429595	keystroke_n	n	n/a
214.8695	0.08	429739	keystroke_d	d	n/a
214.9175	0.0645	429835	keystroke_Key.space	Key.space	n/a
215.11	0.104	430220	keystroke_m	m	n/a
215.214	0.072	430428	keystroke_a	a	n/a
215.326	0.088	430652	keystroke_n	n	n/a
215.55	0.08	431100	keystroke_h	h	n/a
215.622	0.08	431244	keystroke_a	a	n/a
215.822	0.0475	431644	keystroke_t	t	n/a
215.9255	0.128	431851	keystroke_t	t	n/a
216.0295	0.096	432059	keystroke_a	a	n/a
216.1335	0.08	432267	keystroke_n	n	n/a
216.3015	0.104	432603	keystroke_Key.enter	Key.enter	n/a
216.41	4.7575	432820	prompt	n/a	income startup path continually\n
216.9495	0.064	433899	keystroke_i	i	n/a
217.0615	0.088	434123	keystroke_n	n	n/a
217.1175	0.096	434235	keystroke_c	c	n/a
217.2295	0.136	434459	keystroke_o	o	n/a
217.2935	0.136	434587	keystroke_m	m	n/a
217.3415	0.104	434683	keystroke_e	e	n/a
217.4135	0.08	434827	keystroke_Key.space	Key.space	n/a
217.6055	0.088	435211	keystroke_s	s	n/a
217.7175	0.08	435435	keystroke_t	t	n/a
217.8615	0.112	435723	keystroke_a	a	n/a
217.9655	0.088	435931	keystroke_r	r	n/a
218.1335	0.088	436267	keystroke_t	t	n/a
218.2135	0.176	436427	keystroke_u	u	n/a
218.3015	0.096	436603	keystroke_p	p	n/a
218.4055	0.072	436811	keystroke_Key.space	Key.space	n/a
218.5895	0.088	437179	keystroke_p	p	n/a
218.6375	0.088	437275	keystroke_a	a	n/a
218.7175	0.104	437435	keystroke_t	t	n/a
218.8295	0.12	437659	keystroke_h	h	n/a
218.8855	0.112	437771	keystroke_Key.space	Key.space	n/a
219.1015	0.072	438203	keystroke_c	c	n/a
219.1495	0.144	438299	keystroke_o	o	n/a
219.2535	0.064	438507	keystroke_n	n	n/a
219.3495	0.072	438699	keystroke_t	t	n/a
219.3975	0.0795	438795	keystroke_i	i	n/a
219.501	0.065	439002	keystroke_n	n	n/a
219.678	0.08	439356	keystroke_u	u	n/a
219.861	0.057	439722	keystroke_l	l	n/a
220.198	0.039	440396	keystroke_Key.backspace	Key.backspace	n/a
220.254	0.079	440508	keystroke_a	a	n/a
220.374	0.1755	440748	keystroke_l	l	n/a
220.7175	0.08	441435	keystroke_l	l	n/a
220.902	0.064	441804	keystroke_y	y	n/a
221.078	0.088	442156	keystroke_Key.enter	Key.enter	n/a
221.1705	5.5165	442341	prompt	n/a	alexandria drive wilderness column\n
221.702	0.12	443404	keystroke_a	a	n/a
221.846	0.12	443692	keystroke_l	l	n/a
221.918	0.08	443836	keystroke_e	e	n/a
222.182	0.072	444364	keystroke_x	x	n/a
222.494	0.096	444988	keystroke_a	a	n/a
222.614	0.12	445228	keystroke_n	n	n/a
223.0865	0.087	446173	keystroke_d	d	n/a
223.2375	0.104	446475	keystroke_r	r	n/a
223.4065	0.143	446813	keystroke_i	i	n/a
223.5175	0.1125	447035	keystroke_a	a	n/a
223.5975	0.0725	447195	keystroke_Key.space	Key.space	n/a
223.79	0.072	447580	keystroke_d	d	n/a
223.934	0.064	447868	keystroke_r	r	n/a
224.03	0.168	448060	keystroke_i	i	n/a
224.118	0.072	448236	keystroke_v	v	n/a
224.23	0.08	448460	keystroke_e	e	n/a
224.318	0.064	448636	keystroke_Key.space	Key.space	n/a
224.43	0.0795	448860	keystroke_w	w	n/a
224.5335	0.04	449067	keystroke_i	i	n/a
224.6455	0.12	449291	keystroke_l	l	n/a
224.7015	0.08	449403	keystroke_d	d	n/a
224.8615	0.128	449723	keystroke_e	e	n/a
224.9655	0.096	449931	keystroke_r	r	n/a
225.1255	0.104	450251	keystroke_n	n	n/a
225.2535	0.064	450507	keystroke_e	e	n/a
225.4135	0.0805	450827	keystroke_s	s	n/a
225.542	0.096	451084	keystroke_s	s	n/a
225.589	0.105	451178	keystroke_Key.space	Key.space	n/a
225.742	0.096	451484	keystroke_c	c	n/a
225.83	0.032	451660	keystroke_o	o	n/a
225.949	0.081	451898	keystroke_l	l	n/a
226.101	0.065	452202	keystroke_u	u	n/a
226.269	0.064	452538	keystroke_m	m	n/a
226.421	0.073	452842	keystroke_n	n	n/a
226.614	0.071	453228	keystroke_Key.enter	Key.enter	n/a
226.6915	4.1075	453383	prompt	n/a	sync exists planners clusters\n
227.2695	0.112	454539	keystroke_s	s	n/a
227.4055	0.056	454811	keystroke_y	y	n/a
227.5815	0.128	455163	keystroke_n	n	n/a
227.6935	0.096	455387	keystroke_c	c	n/a
227.7575	0.0965	455515	keystroke_Key.space	Key.space	n/a
227.926	0.064	455852	keystroke_e	e	n/a
228.07	0.088	456140	keystroke_x	x	n/a
228.174	0.12	456348	keystroke_i	i	n/a
228.27	0.112	456540	keystroke_s	s	n/a
228.438	0.184	456876	keystroke_t	t	n/a
228.518	0.136	457036	keystroke_s	s	n/a
228.63	0.08	457260	keystroke_Key.space	Key.space	n/a
228.79	0.088	457580	keystroke_p	p	n/a
228.942	0.088	457884	keystroke_l	l	n/a
229.038	0.079	458076	keystroke_a	a	n/a
229.118	0.055	458236	keystroke_n	n	n/a
229.229	0.12	458458	keystroke_n	n	n/a
229.301	0.192	458602	keystroke_e	e	n/a
229.381	0.168	458762	keystroke_r	r	n/a
229.453	0.112	458906	keystroke_s	s	n/a
229.517	0.088	459034	keystroke_Key.space	Key.space	n/a
229.757	0.08	459514	keystroke_c	c	n/a
229.845	0.064	459690	keystroke_l	l	n/a
229.974	0.119	459948	keystroke_u	u	n/a
230.03	0.135	460060	keystroke_s	s	n/a
230.134	0.087	460268	keystroke_t	t	n/a
230.213	0.2	460426	keystroke_e	e	n/a
230.301	0.128	460602	keystroke_r	r	n/a
230.381	0.104	460762	keystroke_s	s	n/a
230.7255	0.072	461451	keystroke_Key.enter	Key.enter	n/a
230.8025	6.2685	461605	prompt	n/a	cove displayed recognize babies\n
231.317	0.073	462634	keystroke_c	c	n/a
231.398	0.128	462796	keystroke_o	o	n/a
231.502	0.048	463004	keystroke_v	v	n/a
231.606	0.1435	463212	keystroke_e	e	n/a
231.677	0.0885	463354	keystroke_r	r	n/a
231.717	0.0965	463434	keystroke_Key.space	Key.space	n/a
232.0375	0.04	464075	keystroke_Key.backspace	Key.backspace	n/a
232.1415	0.064	464283	keystroke_Key.backspace	Key.backspace	n/a
232.3495	0.096	464699	keystroke_d	d	n/a
232.7015	0.064	465403	keystroke_Key.backspace	Key.backspace	n/a
232.7495	0.088	465499	keystroke_Key.space	Key.space	n/a
232.8855	0.08	465771	keystroke_d	d	n/a
233.1095	0.096	466219	keystroke_i	i	n/a
233.2135	0.096	466427	keystroke_s	s	n/a
233.3095	0.072	466619	keystroke_p	p	n/a
233.4535	0.104	466907	keystroke_l	l	n/a
233.5495	0.08	467099	keystroke_a	a	n/a
233.6775	0.136	467355	keystroke_y	y	n/a
233.7415	0.032	467483	keystroke_e	e	n/a
234.2935	0.104	468587	keystroke_d	d	n/a
234.3735	0.096	468747	keystroke_Key.space	Key.space	n/a
234.573	0.112	469146	keystroke_r	r	n/a
234.653	0.096	469306	keystroke_e	e	n/a
234.885	0.081	469770	keystroke_c	c	n/a
234.997	0.1205	469994	keystroke_o	o	n/a
235.1255	0.08	470251	keystroke_g	g	n/a
235.5415	0.144	471083	keystroke_n	n	n/a
235.6375	0.112	471275	keystroke_i	i	n/a
235.7335	0.1285	471467	keystroke_z	z	n/a
235.8455	0.1115	471691	keystroke_e	e	n/a
235.917	0.088	471834	keystroke_Key.space	Key.space	n/a
236.093	0.064	472186	keystroke_b	b	n/a
236.189	0.097	472378	keystroke_a	a	n/a
236.269	0.072	472538	keystroke_b	b	n/a
236.6215	0.104	473243	keystroke_i	i	n/a
236.7095	0.144	473419	keystroke_e	e	n/a
236.7895	0.12	473579	keystroke_s	s	n/a
236.9895	0.08	473979	keystroke_Key.enter	Key.enter	n/a
237.0735	4.6695	474147	prompt	n/a	washing packaging speakers single\n
237.629	0.08	475258	keystroke_w	w	n/a
237.75	0.119	475500	keystroke_a	a	n/a
237.821	0.144	475642	keystroke_s	s	n/a
237.91	0.087	475820	keystroke_h	h	n/a
237.949	0.072	475898	keystroke_i	i	n/a
238.093	0.152	476186	keystroke_n	n	n/a
238.149	0.104	476298	keystroke_g	g	n/a
238.197	0.096	476394	keystroke_Key.space	Key.space	n/a
238.3175	0.104	476635	keystroke_p	p	n/a
238.3735	0.12	476747	keystroke_a	a	n/a
238.4695	0.088	476939	keystroke_c	c	n/a
238.5735	0.12	477147	keystroke_k	k	n/a
238.6295	0.12	477259	keystroke_a	a	n/a
238.7575	0.112	477515	keystroke_g	g	n/a
238.8695	0.072	477739	keystroke_i	i	n/a
238.9735	0.152	477947	keystroke_n	n	n/a
239.0375	0.096	478075	keystroke_g	g	n/a
239.1015	0.096	478203	keystroke_Key.space	Key.space	n/a
239.3495	0.088	478699	keystroke_s	s	n/a
239.445	0.0965	478890	keystroke_p	p	n/a
239.5095	0.1195	479019	keystroke_e	e	n/a
239.5905	0.079	479181	keystroke_a	a	n/a
239.717	0.136	479434	keystroke_k	k	n/a
239.7655	0.1675	479531	keystroke_e	e	n/a
239.8615	0.152	479723	keystroke_r	r	n/a
239.917	0.12	479834	keystroke_s	s	n/a
239.989	0.0965	479978	keystroke_Key.space	Key.space	n/a
240.229	0.04	480458	keystroke_i	i	n/a
240.2375	0.0955	480475	keystroke_s	s	n/a
240.773	0.064	481546	keystroke_Key.backspace	Key.backspace	n/a
240.902	0.048	481804	keystroke_Key.backspace	Key.backspace	n/a
241.022	0.096	482044	keystroke_s	s	n/a
241.102	0.056	482204	keystroke_i	i	n/a
241.198	0.096	482396	keystroke_n	n	n/a
241.278	0.072	482556	keystroke_g	g	n/a
241.398	0.1115	482796	keystroke_l	l	n/a
241.4935	0.08	482987	keystroke_e	e	n/a
241.6535	0.088	483307	keystroke_Key.enter	Key.enter	n/a
241.746	5.101	483492	prompt	n/a	monitoring stuck loops knowledgestorm\n
242.2935	0.088	484587	keystroke_m	m	n/a
242.4215	0.08	484843	keystroke_o	o	n/a
242.5575	0.088	485115	keystroke_n	n	n/a
242.6695	0.072	485339	keystroke_i	i	n/a
242.8135	0.08	485627	keystroke_t	t	n/a
242.9175	0.08	485835	keystroke_o	o	n/a
243.0055	0.096	486011	keystroke_r	r	n/a
243.0615	0.08	486123	keystroke_i	i	n/a
243.1575	0.128	486315	keystroke_n	n	n/a
243.2215	0.08	486443	keystroke_g	g	n/a
243.2615	0.072	486523	keystroke_Key.space	Key.space	n/a
243.4455	0.104	486891	keystroke_s	s	n/a
243.5415	0.104	487083	keystroke_t	t	n/a
243.7095	0.096	487419	keystroke_u	u	n/a
243.8695	0.112	487739	keystroke_c	c	n/a
243.9735	0.112	487947	keystroke_k	k	n/a
244.0615	0.08	488123	keystroke_Key.space	Key.space	n/a
244.1895	0.072	488379	keystroke_l	l	n/a
244.341	0.072	488682	keystroke_o	o	n/a
244.461	0.08	488922	keystroke_o	o	n/a
244.589	0.144	489178	keystroke_p	p	n/a
244.701	0.112	489402	keystroke_s	s	n/a
244.773	0.08	489546	keystroke_Key.space	Key.space	n/a
244.917	0.064	489834	keystroke_k	k	n/a
245.054	0.112	490108	keystroke_n	n	n/a
245.101	0.113	490202	keystroke_o	o	n/a
245.221	0.128	490442	keystroke_w	w	n/a
245.341	0.176	490682	keystroke_l	l	n/a
245.453	0.08	490906	keystroke_e	e	n/a
245.621	0.088	491242	keystroke_d	d	n/a
245.773	0.112	491546	keystroke_g	g	n/a
245.973	0.072	491946	keystroke_e	e	n/a
246.205	0.096	492410	keystroke_s	s	n/a
246.318	0.071	492636	keystroke_t	t	n/a
246.413	0.088	492826	keystroke_o	o	n/a
246.502	0.08	493004	keystroke_r	r	n/a
246.573	0.08	493146	keystroke_m	m	n/a
246.757	0.088	493514	keystroke_Key.enter	Key.enter	n/a
246.85	3.981	493700	prompt	n/a	plane daisy monroe absence\n
247.4135	0.072	494827	keystroke_p	p	n/a
247.5495	0.096	495099	keystroke_l	l	n/a
247.6615	0.088	495323	keystroke_a	a	n/a
247.7335	0.152	495467	keystroke_n	n	n/a
247.8695	0.096	495739	keystroke_e	e	n/a
247.9415	0.072	495883	keystroke_Key.space	Key.space	n/a
248.1495	0.088	496299	keystroke_d	d	n/a
248.3655	0.08	496731	keystroke_a	a	n/a
248.4935	0.1035	496987	keystroke_i	i	n/a
248.589	0.104	497178	keystroke_s	s	n/a
248.757	0.088	497514	keystroke_y	y	n/a
248.845	0.064	497690	keystroke_Key.space	Key.space	n/a
248.997	0.08	497994	keystroke_m	m	n/a
249.109	0.104	498218	keystroke_o	o	n/a
249.245	0.096	498490	keystroke_n	n	n/a
249.373	0.072	498746	keystroke_r	r	n/a
249.4695	0.16	498939	keystroke_o	o	n/a
249.5655	0.112	499131	keystroke_e	e	n/a
249.6525	0.081	499305	keystroke_Key.space	Key.space	n/a
249.8615	0.103	499723	keystroke_a	a	n/a
250.0365	0.057	500073	keystroke_b	b	n/a
250.1655	0.111	500331	keystroke_s	s	n/a
250.2615	0.104	500523	keystroke_e	e	n/a
250.4215	0.1115	500843	keystroke_n	n	n/a
250.5005	0.0965	501001	keystroke_c	c	n/a
250.573	0.072	501146	keystroke_e	e	n/a
250.741	0.088	501482	keystroke_Key.enter	Key.enter	n/a
250.8355	4.267	501671	prompt	n/a	hans pale latter outlook\n
251.501	0.08	503002	keystroke_h	h	n/a
251.589	0.104	503178	keystroke_a	a	n/a
251.685	0.136	503370	keystroke_n	n	n/a
251.741	0.112	503482	keystroke_s	s	n/a
251.813	0.096	503626	keystroke_Key.space	Key.space	n/a
252.125	0.064	504250	keystroke_p	p	n/a
252.237	0.096	504474	keystroke_l	l	n/a
252.357	0.064	504714	keystroke_a	a	n/a
252.805	0.056	505610	keystroke_Key.backspace	Key.backspace	n/a
252.909	0.064	505818	keystroke_Key.backspace	Key.backspace	n/a
253.045	0.104	506090	keystroke_a	a	n/a
253.117	0.128	506234	keystroke_l	l	n/a
253.213	0.112	506426	keystroke_e	e	n/a
253.269	0.08	506538	keystroke_Key.space	Key.space	n/a
253.413	0.104	506826	keystroke_l	l	n/a
253.477	0.1045	506954	keystroke_a	a	n/a
253.6135	0.072	507227	keystroke_t	t	n/a
253.7575	0.08	507515	keystroke_t	t	n/a
253.8535	0.16	507707	keystroke_e	e	n/a
253.9575	0.088	507915	keystroke_r	r	n/a
254.0055	0.08	508011	keystroke_Key.space	Key.space	n/a
254.0935	0.128	508187	keystroke_o	o	n/a
254.1895	0.104	508379	keystroke_u	u	n/a
254.3015	0.064	508603	keystroke_t	t	n/a
254.4055	0.064	508811	keystroke_l	l	n/a
254.5575	0.056	509115	keystroke_o	o	n/a
254.6695	0.056	509339	keystroke_o	o	n/a
254.7975	0.08	509595	keystroke_k	k	n/a
255.013	0.088	510026	keystroke_Key.enter	Key.enter	n/a
255.106	6.1565	510212	prompt	n/a	telecharger vacation acquisitions filling\n
255.717	0.104	511434	keystroke_t	t	n/a
255.781	0.104	511562	keystroke_e	e	n/a
255.957	0.064	511914	keystroke_l	l	n/a
256.037	0.08	512074	keystroke_e	e	n/a
256.261	0.104	512522	keystroke_c	c	n/a
256.469	0.08	512938	keystroke_h	h	n/a
256.557	0.1285	513114	keystroke_a	a	n/a
256.6615	0.08	513323	keystroke_r	r	n/a
256.8295	0.08	513659	keystroke_g	g	n/a
256.8935	0.192	513787	keystroke_e	e	n/a
257.0055	0.104	514011	keystroke_r	r	n/a
257.0855	0.104	514171	keystroke_Key.space	Key.space	n/a
257.2215	0.096	514443	keystroke_v	v	n/a
257.3255	0.08	514651	keystroke_a	a	n/a
257.4455	0.096	514891	keystroke_c	c	n/a
257.5735	0.112	515147	keystroke_a	a	n/a
257.7255	0.0875	515451	keystroke_t	t	n/a
257.837	0.112	515674	keystroke_i	i	n/a
257.861	0.152	515722	keystroke_o	o	n/a
257.901	0.136	515802	keystroke_n	n	n/a
257.989	0.104	515978	keystroke_Key.space	Key.space	n/a
258.077	0.088	516154	keystroke_a	a	n/a
258.637	0.112	517274	keystroke_c	c	n/a
258.885	0.08	517770	keystroke_q	q	n/a
259.077	0.112	518154	keystroke_u	u	n/a
259.2525	0.097	518505	keystroke_i	i	n/a
259.3725	0.0965	518745	keystroke_s	s	n/a
259.509	0.08	519018	keystroke_i	i	n/a
259.645	0.088	519290	keystroke_t	t	n/a
259.693	0.144	519386	keystroke_i	i	n/a
259.741	0.176	519482	keystroke_o	o	n/a
259.821	0.16	519642	keystroke_n	n	n/a
259.925	0.112	519850	keystroke_s	s	n/a
259.997	0.064	519994	keystroke_Key.space	Key.space	n/a
260.101	0.096	520202	keystroke_f	f	n/a
260.189	0.056	520378	keystroke_i	i	n/a
260.325	0.064	520650	keystroke_l	l	n/a
260.437	0.072	520874	keystroke_l	l	n/a
260.5725	0.104	521145	keystroke_i	i	n/a
260.6935	0.048	521387	keystroke_n	n	n/a
260.8055	0.064	521611	keystroke_g	g	n/a
261.2125	0.048	522425	keystroke_Key.enter	Key.enter	n/a
261.265	4.2455	522530	prompt	n/a	computation thongs seriously clock\n
261.757	0.096	523514	keystroke_c	c	n/a
261.813	0.08	523626	keystroke_o	o	n/a
261.941	0.08	523882	keystroke_m	m	n/a
261.981	0.088	523962	keystroke_p	p	n/a
262.133	0.104	524266	keystroke_u	u	n/a
262.245	0.088	524490	keystroke_t	t	n/a
262.341	0.112	524682	keystroke_a	a	n/a
262.429	0.104	524858	keystroke_t	t	n/a
262.501	0.12	525002	keystroke_i	i	n/a
262.525	0.144	525050	keystroke_o	o	n/a
262.589	0.128	525178	keystroke_n	n	n/a
262.677	0.08	525354	keystroke_Key.space	Key.space	n/a
262.885	0.12	525770	keystroke_t	t	n/a
262.965	0.112	525930	keystroke_h	h	n/a
262.989	0.104	525978	keystroke_o	o	n/a
263.261	0.128	526522	keystroke_n	n	n/a
263.365	0.16	526730	keystroke_g	g	n/a
263.445	0.12	526890	keystroke_s	s	n/a
263.533	0.072	527066	keystroke_Key.space	Key.space	n/a
263.8295	0.12	527659	keystroke_s	s	n/a
263.9495	0.12	527899	keystroke_e	e	n/a
264.0135	0.096	528027	keystroke_r	r	n/a
264.1255	0.12	528251	keystroke_i	i	n/a
264.1815	0.104	528363	keystroke_o	o	n/a
264.2455	0.104	528491	keystroke_u	u	n/a
264.3575	0.08	528715	keystroke_s	s	n/a
264.4535	0.088	528907	keystroke_l	l	n/a
264.6055	0.12	529211	keystroke_y	y	n/a
264.6775	0.088	529355	keystroke_Key.space	Key.space	n/a
264.8135	0.08	529627	keystroke_c	c	n/a
264.8695	0.056	529739	keystroke_l	l	n/a
264.9895	0.088	529979	keystroke_o	o	n/a
265.0935	0.088	530187	keystroke_c	c	n/a
265.1735	0.088	530347	keystroke_k	k	n/a
265.3815	0.128	530763	keystroke_Key.enter	Key.enter	n/a
265.514	3.245	531028	prompt	n/a	option risks won't intense\n
266.0455	0.08	532091	keystroke_o	o	n/a
266.1815	0.104	532363	keystroke_p	p	n/a
266.3335	0.08	532667	keystroke_t	t	n/a
266.4055	0.096	532811	keystroke_i	i	n/a
266.4455	0.136	532891	keystroke_o	o	n/a
266.4935	0.1355	532987	keystroke_n	n	n/a
266.637	0.056	533274	keystroke_Key.space	Key.space	n/a
266.797	0.072	533594	keystroke_r	r	n/a
266.893	0.08	533786	keystroke_i	i	n/a
266.965	0.08	533930	keystroke_s	s	n/a
267.078	0.1035	534156	keystroke_k	k	n/a
267.117	0.1045	534234	keystroke_s	s	n/a
267.1895	0.08	534379	keystroke_Key.space	Key.space	n/a
267.3335	0.088	534667	keystroke_w	w	n/a
267.3815	0.104	534763	keystroke_o	o	n/a
267.4775	0.136	534955	keystroke_n	n	n/a
267.5895	0.16	535179	keystroke_'	'	n/a
267.6935	0.104	535387	keystroke_t	t	n/a
267.7495	0.096	535499	keystroke_Key.space	Key.space	n/a
268.0055	0.056	536011	keystroke_i	i	n/a
268.0935	0.08	536187	keystroke_n	n	n/a
268.1175	0.112	536235	keystroke_t	t	n/a
268.1815	0.104	536363	keystroke_e	e	n/a
268.2935	0.112	536587	keystroke_n	n	n/a
268.3895	0.144	536779	keystroke_s	s	n/a
268.5015	0.096	537003	keystroke_e	e	n/a
268.6615	0.096	537323	keystroke_Key.enter	Key.enter	n/a
268.7615	4.3495	537523	prompt	n/a	attack wiki friends relate\n
269.2695	0.08	538539	keystroke_a	a	n/a
269.4135	0.064	538827	keystroke_t	t	n/a
269.5335	0.096	539067	keystroke_t	t	n/a
269.6215	0.088	539243	keystroke_a	a	n/a
269.7655	0.112	539531	keystroke_c	c	n/a
269.8375	0.112	539675	keystroke_k	k	n/a
269.901	0.0955	539802	keystroke_Key.space	Key.space	n/a
269.9895	0.072	539979	keystroke_w	w	n/a
270.1175	0.072	540235	keystroke_i	i	n/a
270.2055	0.08	540411	keystroke_f	f	n/a
270.2775	0.088	540555	keystroke_i	i	n/a
270.597	0.056	541194	keystroke_Key.backspace	Key.backspace	n/a
270.709	0.056	541418	keystroke_Key.backspace	Key.backspace	n/a
270.877	0.0635	541754	keystroke_k	k	n/a
271.0045	0.104	542009	keystroke_i	i	n/a
271.1255	0.079	542251	keystroke_Key.space	Key.space	n/a
271.381	0.08	542762	keystroke_f	f	n/a
271.573	0.072	543146	keystroke_r	r	n/a
271.6605	0.088	543321	keystroke_i	i	n/a
271.7245	0.056	543449	keystroke_e	e	n/a
271.8285	0.152	543657	keystroke_n	n	n/a
271.8685	0.145	543737	keystroke_d	d	n/a
271.9405	0.096	543881	keystroke_s	s	n/a
272.0135	0.079	544027	keystroke_Key.space	Key.space	n/a
272.421	0.08	544842	keystroke_r	r	n/a
272.445	0.112	544890	keystroke_e	e	n/a
272.597	0.128	545194	keystroke_l	l	n/a
272.637	0.12	545274	keystroke_a	a	n/a
272.725	0.1195	545450	keystroke_t	t	n/a
272.781	0.0955	545562	keystroke_e	e	n/a
273.0125	0.096	546025	keystroke_Key.enter	Key.enter	n/a
273.1135	5.037	546227	prompt	n/a	shuttle advertisers contain scene\n
273.6605	0.089	547321	keystroke_s	s	n/a
273.8125	0.056	547625	keystroke_h	h	n/a
273.9725	0.072	547945	keystroke_u	u	n/a
274.0765	0.0565	548153	keystroke_t	t	n/a
274.197	0.08	548394	keystroke_t	t	n/a
274.285	0.136	548570	keystroke_l	l	n/a
274.341	0.096	548682	keystroke_e	e	n/a
274.413	0.072	548826	keystroke_Key.space	Key.space	n/a
274.5415	0.112	549083	keystroke_a	a	n/a
274.8775	0.096	549755	keystroke_d	d	n/a
275.0455	0.072	550091	keystroke_v	v	n/a
275.1655	0.135	550331	keystroke_e	e	n/a
275.2615	0.096	550523	keystroke_r	r	n/a
275.4295	0.08	550859	keystroke_t	t	n/a
275.5575	0.12	551115	keystroke_i	i	n/a
275.6855	0.1355	551371	keystroke_s	s	n/a
275.7655	0.1435	551531	keystroke_e	e	n/a
275.901	0.168	551802	keystroke_r	r	n/a
276.037	0.128	552074	keystroke_s	s	n/a
276.117	0.072	552234	keystroke_Key.space	Key.space	n/a
276.501	0.088	553002	keystroke_c	c	n/a
276.621	0.144	553242	keystroke_o	o	n/a
276.709	0.104	553418	keystroke_n	n	n/a
276.773	0.104	553546	keystroke_t	t	n/a
276.837	0.096	553674	keystroke_a	a	n/a
276.917	0.04	553834	keystroke_i	i	n/a
276.981	0.112	553962	keystroke_n	n	n/a
277.061	0.088	554122	keystroke_Key.space	Key.space	n/a
277.237	0.08	554474	keystroke_s	s	n/a
277.573	0.072	555146	keystroke_c	c	n/a
277.693	0.08	555386	keystroke_e	e	n/a
277.797	0.096	555594	keystroke_n	n	n/a
277.877	0.064	555754	keystroke_e	e	n/a
278.045	0.104	556090	keystroke_Key.enter	Key.enter	n/a
278.1535	5.165	556307	prompt	n/a	psychiatry motor suse securely\n
278.7645	0.104	557529	keystroke_p	p	n/a
278.9005	0.088	557801	keystroke_s	s	n/a
279.0525	0.088	558105	keystroke_y	y	n/a
279.1645	0.064	558329	keystroke_c	c	n/a
279.5645	0.0805	559129	keystroke_h	h	n/a
279.749	0.112	559498	keystroke_i	i	n/a
279.877	0.112	559754	keystroke_a	a	n/a
280.045	0.072	560090	keystroke_t	t	n/a
280.237	0.088	560474	keystroke_r	r	n/a
280.357	0.112	560714	keystroke_y	y	n/a
280.437	0.0955	560874	keystroke_Key.space	Key.space	n/a
280.6205	0.088	561241	keystroke_m	m	n/a
280.7725	0.088	561545	keystroke_o	o	n/a
280.9645	0.08	561929	keystroke_t	t	n/a
281.0525	0.128	562105	keystroke_o	o	n/a
281.1645	0.088	562329	keystroke_r	r	n/a
281.2285	0.08	562457	keystroke_Key.space	Key.space	n/a
281.396	0.065	562792	keystroke_s	s	n/a
281.492	0.096	562984	keystroke_u	u	n/a
281.564	0.129	563128	keystroke_s	s	n/a
281.685	0.136	563370	keystroke_e	e	n/a
281.788	0.08	563576	keystroke_Key.space	Key.space	n/a
281.916	0.105	563832	keystroke_s	s	n/a
281.997	0.095	563994	keystroke_e	e	n/a
282.181	0.088	564362	keystroke_c	c	n/a
282.293	0.096	564586	keystroke_u	u	n/a
282.405	0.088	564810	keystroke_r	r	n/a
282.605	0.08	565210	keystroke_e	e	n/a
282.805	0.096	565610	keystroke_l	l	n/a
283.021	0.088	566042	keystroke_y	y	n/a
283.221	0.096	566442	keystroke_Key.enter	Key.enter	n/a
283.3215	3.853	566643	prompt	n/a	bare census return literature\n
283.893	0.08	567786	keystroke_b	b	n/a
283.965	0.1115	567930	keystroke_a	a	n/a
284.1005	0.128	568201	keystroke_r	r	n/a
284.1575	0.111	568315	keystroke_e	e	n/a
284.2205	0.104	568441	keystroke_Key.space	Key.space	n/a
284.4845	0.088	568969	keystroke_c	c	n/a
284.6125	0.088	569225	keystroke_e	e	n/a
284.7245	0.088	569449	keystroke_n	n	n/a
284.7965	0.112	569593	keystroke_s	s	n/a
284.989	0.1275	569978	keystroke_u	u	n/a
285.0525	0.112	570105	keystroke_s	s	n/a
285.1485	0.0885	570297	keystroke_Key.space	Key.space	n/a
285.293	0.112	570586	keystroke_r	r	n/a
285.3725	0.104	570745	keystroke_e	e	n/a
285.5085	0.0965	571017	keystroke_t	t	n/a
285.6445	0.08	571289	keystroke_u	u	n/a
285.7485	0.104	571497	keystroke_r	r	n/a
285.8445	0.105	571689	keystroke_n	n	n/a
285.9245	0.08	571849	keystroke_Key.space	Key.space	n/a
286.0605	0.064	572121	keystroke_l	l	n/a
286.1805	0.1115	572361	keystroke_i	i	n/a
286.2685	0.056	572537	keystroke_t	t	n/a
286.3405	0.168	572681	keystroke_e	e	n/a
286.4525	0.0875	572905	keystroke_r	r	n/a
286.532	0.128	573064	keystroke_a	a	n/a
286.661	0.0725	573322	keystroke_t	t	n/a
286.812	0.096	573624	keystroke_u	u	n/a
286.868	0.1215	573736	keystroke_r	r	n/a
286.941	0.0715	573882	keystroke_e	e	n/a
287.084	0.0885	574168	keystroke_Key.enter	Key.enter	n/a
287.178	6.2285	574356	prompt	n/a	perspectives restrictions rational credit\n
287.781	0.088	575562	keystroke_p	p	n/a
287.853	0.12	575706	keystroke_r	r	n/a
287.917	0.104	575834	keystroke_e	e	n/a
288.013	0.208	576026	keystroke_s	s	n/a
288.461	0.0555	576922	keystroke_Key.backspace	Key.backspace	n/a
288.5565	0.056	577113	keystroke_Key.backspace	Key.backspace	n/a
288.6685	0.064	577337	keystroke_Key.backspace	Key.backspace	n/a
288.7485	0.12	577497	keystroke_e	e	n/a
288.8285	0.112	577657	keystroke_r	r	n/a
288.9565	0.1285	577913	keystroke_s	s	n/a
289.125	0.12	578250	keystroke_p	p	n/a
289.221	0.08	578442	keystroke_e	e	n/a
289.373	0.08	578746	keystroke_c	c	n/a
289.549	0.08	579098	keystroke_t	t	n/a
289.741	0.144	579482	keystroke_i	i	n/a
289.845	0.08	579690	keystroke_v	v	n/a
290.013	0.168	580026	keystroke_e	e	n/a
290.117	0.104	580234	keystroke_s	s	n/a
290.141	0.096	580282	keystroke_Key.space	Key.space	n/a
290.349	0.12	580698	keystroke_r	r	n/a
290.413	0.1275	580826	keystroke_e	e	n/a
290.485	0.1195	580970	keystroke_s	s	n/a
290.5965	0.072	581193	keystroke_t	t	n/a
290.7485	0.096	581497	keystroke_r	r	n/a
290.8855	0.1195	581771	keystroke_i	i	n/a
291.013	0.072	582026	keystroke_c	c	n/a
291.205	0.104	582410	keystroke_t	t	n/a
291.269	0.144	582538	keystroke_i	i	n/a
291.341	0.144	582682	keystroke_o	o	n/a
291.381	0.152	582762	keystroke_n	n	n/a
291.437	0.112	582874	keystroke_s	s	n/a
291.509	0.064	583018	keystroke_Key.space	Key.space	n/a
291.653	0.0955	583306	keystroke_r	r	n/a
291.7325	0.088	583465	keystroke_a	a	n/a
291.8285	0.104	583657	keystroke_t	t	n/a
291.9245	0.104	583849	keystroke_i	i	n/a
291.9485	0.128	583897	keystroke_o	o	n/a
292.0045	0.104	584009	keystroke_n	n	n/a
292.1405	0.088	584281	keystroke_a	a	n/a
292.2525	0.136	584505	keystroke_l	l	n/a
292.3405	0.096	584681	keystroke_Key.space	Key.space	n/a
292.517	0.064	585034	keystroke_c	c	n/a
292.685	0.128	585370	keystroke_r	r	n/a
292.765	0.08	585530	keystroke_e	e	n/a
292.941	0.08	585882	keystroke_d	d	n/a
293.061	0.096	586122	keystroke_i	i	n/a
293.173	0.064	586346	keystroke_t	t	n/a
293.293	0.112	586586	keystroke_Key.enter	Key.enter	n/a
293.41	8.284	586820	prompt	n/a	opinions electronics artificial evaluation\n
293.925	0.072	587850	keystroke_o	o	n/a
294.061	0.088	588122	keystroke_p	p	n/a
294.213	0.072	588426	keystroke_i	i	n/a
294.341	0.128	588682	keystroke_n	n	n/a
294.421	0.088	588842	keystroke_i	i	n/a
294.477	0.112	588954	keystroke_o	o	n/a
294.573	0.112	589146	keystroke_n	n	n/a
294.701	0.111	589402	keystroke_s	s	n/a
294.773	0.08	589546	keystroke_Key.space	Key.space	n/a
294.989	0.096	589978	keystroke_e	e	n/a
295.077	0.048	590154	keystroke_l	l	n/a
295.581	0.072	591162	keystroke_e	e	n/a
295.725	0.072	591450	keystroke_c	c	n/a
295.9085	0.064	591817	keystroke_t	t	n/a
296.0525	0.104	592105	keystroke_r	r	n/a
296.1325	0.104	592265	keystroke_o	o	n/a
296.2445	0.12	592489	keystroke_n	n	n/a
296.3245	0.136	592649	keystroke_i	i	n/a
296.4125	0.12	592825	keystroke_c	c	n/a
296.5085	0.08	593017	keystroke_Key.space	Key.space	n/a
296.8125	0.072	593625	keystroke_Key.backspace	Key.backspace	n/a
296.8925	0.112	593785	keystroke_s	s	n/a
296.9565	0.096	593913	keystroke_Key.space	Key.space	n/a
297.5725	0.024	595145	keystroke_e	e	n/a
297.8925	0.064	595785	keystroke_Key.backspace	Key.backspace	n/a
297.9325	0.12	595865	keystroke_a	a	n/a
298.0125	0.088	596025	keystroke_r	r	n/a
298.1885	0.064	596377	keystroke_t	t	n/a
298.2845	0.064	596569	keystroke_i	i	n/a
298.4685	0.0955	596937	keystroke_i	i	n/a
298.604	0.12	597208	keystroke_c	c	n/a
298.932	0.056	597864	keystroke_Key.backspace	Key.backspace	n/a
299.044	0.064	598088	keystroke_Key.backspace	Key.backspace	n/a
299.164	0.0725	598328	keystroke_f	f	n/a
299.3165	0.088	598633	keystroke_i	i	n/a
299.4205	0.128	598841	keystroke_c	c	n/a
299.541	0.0475	599082	keystroke_i	i	n/a
299.765	0.072	599530	keystroke_a	a	n/a
299.8525	0.12	599705	keystroke_l	l	n/a
300.1165	0.104	600233	keystroke_Key.space	Key.space	n/a
300.4765	0.056	600953	keystroke_e	e	n/a
300.5965	0.1045	601193	keystroke_v	v	n/a
300.6765	0.08	601353	keystroke_a	a	n/a
300.781	0.064	601562	keystroke_l	l	n/a
300.893	0.1035	601786	keystroke_u	u	n/a
300.9885	0.104	601977	keystroke_a	a	n/a
301.0685	0.1045	602137	keystroke_t	t	n/a
301.1565	0.112	602313	keystroke_i	i	n/a
301.1805	0.128	602361	keystroke_o	o	n/a
301.253	0.0795	602506	keystroke_n	n	n/a
301.5885	0.104	603177	keystroke_Key.enter	Key.enter	n/a
301.6975	4.5885	603395	prompt	n/a	impacts webpage powered whenever\n
302.2445	0.072	604489	keystroke_i	i	n/a
302.3965	0.112	604793	keystroke_m	m	n/a
302.4445	0.144	604889	keystroke_p	p	n/a
302.5325	0.1045	605065	keystroke_a	a	n/a
302.6125	0.0725	605225	keystroke_c	c	n/a
302.789	0.144	605578	keystroke_t	t	n/a
302.861	0.112	605722	keystroke_s	s	n/a
302.925	0.08	605850	keystroke_Key.space	Key.space	n/a
303.077	0.12	606154	keystroke_w	w	n/a
303.165	0.096	606330	keystroke_e	e	n/a
303.365	0.08	606730	keystroke_b	b	n/a
303.74	0.128	607480	keystroke_p	p	n/a
303.972	0.097	607944	keystroke_a	a	n/a
304.108	0.112	608216	keystroke_g	g	n/a
304.172	0.136	608344	keystroke_e	e	n/a
304.292	0.048	608584	keystroke_Key.space	Key.space	n/a
304.364	0.088	608728	keystroke_p	p	n/a
304.5	0.144	609000	keystroke_o	o	n/a
304.596	0.088	609192	keystroke_w	w	n/a
304.62	0.168	609240	keystroke_e	e	n/a
304.748	0.152	609496	keystroke_r	r	n/a
304.861	0.087	609722	keystroke_e	e	n/a
305.028	0.12	610056	keystroke_d	d	n/a
305.116	0.088	610232	keystroke_Key.space	Key.space	n/a
305.285	0.0955	610570	keystroke_w	w	n/a
305.3885	0.08	610777	keystroke_h	h	n/a
305.4605	0.08	610921	keystroke_e	e	n/a
305.5805	0.096	611161	keystroke_n	n	n/a
305.6205	0.072	611241	keystroke_e	e	n/a
305.8125	0.08	611625	keystroke_v	v	n/a
305.9485	0.12	611897	keystroke_e	e	n/a
306.0365	0.072	612073	keystroke_r	r	n/a
306.1885	0.0955	612377	keystroke_Key.enter	Key.enter	n/a
306.2885	4.797	612577	prompt	n/a	seeker serious sustainability court\n
306.7885	0.056	613577	keystroke_s	s	n/a
306.9405	0.0565	613881	keystroke_e	e	n/a
307.0525	0.08	614105	keystroke_e	e	n/a
307.1725	0.112	614345	keystroke_k	k	n/a
307.2285	0.136	614457	keystroke_e	e	n/a
307.3005	0.112	614601	keystroke_r	r	n/a
307.3885	0.088	614777	keystroke_Key.space	Key.space	n/a
307.5165	0.104	615033	keystroke_s	s	n/a
307.5885	0.112	615177	keystroke_e	e	n/a
307.6525	0.112	615305	keystroke_r	r	n/a
307.7725	0.136	615545	keystroke_i	i	n/a
307.8525	0.088	615705	keystroke_o	o	n/a
307.9005	0.152	615801	keystroke_u	u	n/a
307.9805	0.088	615961	keystroke_s	s	n/a
308.0205	0.072	616041	keystroke_Key.space	Key.space	n/a
308.2125	0.08	616425	keystroke_s	s	n/a
308.2285	0.08	616457	keystroke_u	u	n/a
308.8205	0.096	617641	keystroke_s	s	n/a
308.9485	0.1365	617897	keystroke_t	t	n/a
309.0525	0.096	618105	keystroke_a	a	n/a
309.1565	0.065	618313	keystroke_i	i	n/a
309.2605	0.08	618521	keystroke_n	n	n/a
309.3405	0.0725	618681	keystroke_a	a	n/a
309.4925	0.08	618985	keystroke_b	b	n/a
309.5735	0.063	619147	keystroke_i	i	n/a
309.6925	0.104	619385	keystroke_l	l	n/a
309.7565	0.08	619513	keystroke_i	i	n/a
309.877	0.12	619754	keystroke_t	t	n/a
309.965	0.112	619930	keystroke_y	y	n/a
310.045	0.048	620090	keystroke_Key.space	Key.space	n/a
310.261	0.088	620522	keystroke_c	c	n/a
310.357	0.104	620714	keystroke_o	o	n/a
310.413	0.1195	620826	keystroke_u	u	n/a
310.485	0.0875	620970	keystroke_r	r	n/a
310.6525	0.096	621305	keystroke_t	t	n/a
311.036	0.048	622072	keystroke_Key.enter	Key.enter	n/a
311.09	3.9875	622180	prompt	n/a	founder majority pierce problems\n
311.589	0.096	623178	keystroke_f	f	n/a
311.668	0.096	623336	keystroke_o	o	n/a
311.732	0.056	623464	keystroke_u	u	n/a
311.884	0.121	623768	keystroke_n	n	n/a
311.924	0.096	623848	keystroke_d	d	n/a
312.132	0.152	624264	keystroke_e	e	n/a
312.14	0.16	624280	keystroke_r	r	n/a
312.26	0.08	624520	keystroke_Key.space	Key.space	n/a
312.381	0.087	624762	keystroke_m	m	n/a
312.508	0.081	625016	keystroke_a	a	n/a
312.572	0.121	625144	keystroke_j	j	n/a
312.684	0.096	625368	keystroke_o	o	n/a
312.82	0.12	625640	keystroke_r	r	n/a
312.892	0.08	625784	keystroke_i	i	n/a
313.02	0.136	626040	keystroke_t	t	n/a
313.084	0.112	626168	keystroke_y	y	n/a
313.172	0.032	626344	keystroke_Key.space	Key.space	n/a
313.268	0.072	626536	keystroke_p	p	n/a
313.396	0.128	626792	keystroke_i	i	n/a
313.476	0.113	626952	keystroke_e	e	n/a
313.533	0.071	627066	keystroke_r	r	n/a
313.732	0.112	627464	keystroke_c	c	n/a
313.82	0.104	627640	keystroke_e	e	n/a
313.892	0.08	627784	keystroke_Key.space	Key.space	n/a
314.092	0.088	628184	keystroke_p	p	n/a
314.196	0.064	628392	keystroke_r	r	n/a
314.284	0.097	628568	keystroke_o	o	n/a
314.373	0.063	628746	keystroke_b	b	n/a
314.5	0.096	629000	keystroke_l	l	n/a
314.588	0.096	629176	keystroke_e	e	n/a
314.708	0.104	629416	keystroke_m	m	n/a
314.788	0.088	629576	keystroke_s	s	n/a
314.9885	0.088	629977	keystroke_Key.enter	Key.enter	n/a
315.0805	5.2215	630161	prompt	n/a	transit this's consequence judges\n
315.6125	0.072	631225	keystroke_t	t	n/a
315.7565	0.136	631513	keystroke_r	r	n/a
315.8365	0.104	631673	keystroke_a	a	n/a
315.9485	0.088	631897	keystroke_n	n	n/a
316.0365	0.112	632073	keystroke_s	s	n/a
316.1485	0.12	632297	keystroke_i	i	n/a
316.2365	0.08	632473	keystroke_t	t	n/a
316.3005	0.064	632601	keystroke_Key.space	Key.space	n/a
316.4045	0.088	632809	keystroke_t	t	n/a
316.4845	0.12	632969	keystroke_h	h	n/a
316.5485	0.104	633097	keystroke_i	i	n/a
316.6605	0.08	633321	keystroke_s	s	n/a
316.8125	0.112	633625	keystroke_'	'	n/a
317.1885	0.104	634377	keystroke_s	s	n/a
317.3325	0.08	634665	keystroke_Key.space	Key.space	n/a
317.5245	0.1045	635049	keystroke_c	c	n/a
317.5965	0.1195	635193	keystroke_o	o	n/a
317.676	0.08	635352	keystroke_n	n	n/a
317.724	0.08	635448	keystroke_s	s	n/a
318.108	0.12	636216	keystroke_e	e	n/a
318.236	0.088	636472	keystroke_q	q	n/a
318.396	0.072	636792	keystroke_u	u	n/a
318.596	0.08	637192	keystroke_n	n	n/a
318.868	0.064	637736	keystroke_Key.backspace	Key.backspace	n/a
318.988	0.0485	637976	keystroke_e	e	n/a
319.0605	0.1275	638121	keystroke_n	n	n/a
319.14	0.104	638280	keystroke_c	c	n/a
319.204	0.088	638408	keystroke_e	e	n/a
319.284	0.056	638568	keystroke_Key.space	Key.space	n/a
319.396	0.072	638792	keystroke_j	j	n/a
319.556	0.096	639112	keystroke_u	u	n/a
319.628	0.088	639256	keystroke_d	d	n/a
319.748	0.1845	639496	keystroke_g	g	n/a
319.836	0.128	639672	keystroke_e	e	n/a
319.9005	0.1115	639801	keystroke_s	s	n/a
320.228	0.072	640456	keystroke_Key.enter	Key.enter	n/a
320.305	7.9085	640610	prompt	n/a	quiet anybody contributions administration\n
320.852	0.048	641704	keystroke_a	a	n/a
321.108	0.048	642216	keystroke_Key.backspace	Key.backspace	n/a
321.308	0.048	642616	keystroke_u	u	n/a
321.54	0.048	643080	keystroke_Key.backspace	Key.backspace	n/a
321.66	0.0875	643320	keystroke_q	q	n/a
321.684	0.1445	643368	keystroke_u	u	n/a
321.7555	0.137	643511	keystroke_i	i	n/a
321.8045	0.136	643609	keystroke_e	e	n/a
321.9085	0.095	643817	keystroke_t	t	n/a
321.9715	0.064	643943	keystroke_Key.space	Key.space	n/a
322.0845	0.104	644169	keystroke_a	a	n/a
322.1795	0.088	644359	keystroke_n	n	n/a
322.6115	0.073	645223	keystroke_y	y	n/a
322.7555	0.073	645511	keystroke_b	b	n/a
322.8285	0.104	645657	keystroke_o	o	n/a
322.9405	0.1515	645881	keystroke_d	d	n/a
323.0115	0.1045	646023	keystroke_y	y	n/a
323.068	0.0725	646136	keystroke_Key.space	Key.space	n/a
323.204	0.088	646408	keystroke_c	c	n/a
323.228	0.152	646456	keystroke_o	o	n/a
323.34	0.1045	646680	keystroke_n	n	n/a
323.4445	0.0715	646889	keystroke_t	t	n/a
323.548	0.1045	647096	keystroke_i	i	n/a
323.62	0.056	647240	keystroke_r	r	n/a
323.82	0.08	647640	keystroke_b	b	n/a
323.932	0.112	647864	keystroke_u	u	n/a
324.084	0.096	648168	keystroke_t	t	n/a
324.212	0.032	648424	keystroke_i	i	n/a
324.388	0.048	648776	keystroke_Key.backspace	Key.backspace	n/a
324.5	0.04	649000	keystroke_Key.backspace	Key.backspace	n/a
324.596	0.056	649192	keystroke_Key.backspace	Key.backspace	n/a
324.7	0.064	649400	keystroke_Key.backspace	Key.backspace	n/a
324.8125	0.056	649625	keystroke_Key.backspace	Key.backspace	n/a
325.3325	0.056	650665	keystroke_Key.backspace	Key.backspace	n/a
325.4685	0.08	650937	keystroke_r	r	n/a
325.6125	0.096	651225	keystroke_i	i	n/a
325.7325	0.0635	651465	keystroke_b	b	n/a
325.8845	0.104	651769	keystroke_u	u	n/a
326.0685	0.104	652137	keystroke_t	t	n/a
326.2685	0.12	652537	keystroke_i	i	n/a
326.3565	0.144	652713	keystroke_o	o	n/a
326.4285	0.144	652857	keystroke_n	n	n/a
326.5165	0.1195	653033	keystroke_s	s	n/a
326.5965	0.0875	653193	keystroke_Key.space	Key.space	n/a
326.82	0.121	653640	keystroke_a	a	n/a
326.941	0.087	653882	keystroke_d	d	n/a
327.052	0.088	654104	keystroke_m	m	n/a
327.125	0.055	654250	keystroke_i	i	n/a
327.22	0.12	654440	keystroke_n	n	n/a
327.292	0.088	654584	keystroke_i	i	n/a
327.341	0.095	654682	keystroke_s	s	n/a
327.42	0.08	654840	keystroke_t	t	n/a
327.572	0.112	655144	keystroke_r	r	n/a
327.636	0.097	655272	keystroke_a	a	n/a
327.772	0.088	655544	keystroke_t	t	n/a
327.852	0.104	655704	keystroke_i	i	n/a
327.892	0.097	655784	keystroke_o	o	n/a
327.924	0.104	655848	keystroke_n	n	n/a
328.132	0.08	656264	keystroke_Key.enter	Key.enter	n/a
328.217	4.3565	656434	prompt	n/a	compilation conditional lifestyle real\n
328.7645	0.096	657529	keystroke_c	c	n/a
328.8045	0.072	657609	keystroke_o	o	n/a
328.9005	0.104	657801	keystroke_m	m	n/a
328.9645	0.088	657929	keystroke_p	p	n/a
329.1885	0.08	658377	keystroke_i	i	n/a
329.5485	0.104	659097	keystroke_l	l	n/a
329.6845	0.104	659369	keystroke_a	a	n/a
329.8285	0.088	659657	keystroke_t	t	n/a
329.9005	0.056	659801	keystroke_i	i	n/a
329.9085	0.144	659817	keystroke_o	o	n/a
329.9725	0.12	659945	keystroke_n	n	n/a
330.0445	0.096	660089	keystroke_Key.space	Key.space	n/a
