onset	duration	sample	value	key	prompt_text
6.2255	21.728	12451	prompt	n/a	the quick brown fox jumps over a lazy dog\n
10.1905	0.06	20381	keystroke	i	n/a
10.2955	0.06	20591	keystroke	c	n/a
10.536	0.075	21072	keystroke	k	n/a
10.73	0.045	21460	keystroke	Key.space	n/a
10.911	0.045	21822	keystroke	b	n/a
11.016	0.045	22032	keystroke	r	n/a
11.196	0.0745	22392	keystroke	o	n/a
11.4205	0.06	22841	keystroke	w	n/a
11.5705	0.045	23141	keystroke	n	n/a
11.736	0.059	23472	keystroke	Key.space	n/a
11.9155	0.045	23831	keystroke	f	n/a
12.0205	0.09	24041	keystroke	o	n/a
12.4855	0.045	24971	keystroke	x	n/a
12.5755	0.06	25151	keystroke	Key.space	n/a
12.9055	0.03	25811	keystroke	j	n/a
13.0705	0.06	26141	keystroke	u	n/a
13.266	0.045	26532	keystroke	m	n/a
13.431	0.06	26862	keystroke	p	n/a
13.566	0.06	27132	keystroke	s	n/a
14.466	0.0745	28932	keystroke	Key.space	n/a
15.2905	0.315	30581	keystroke	Key.backspace	n/a
15.756	0.015	31512	keystroke	Key.backspace	n/a
15.891	0.045	31782	keystroke	Key.backspace	n/a
16.041	0.06	32082	keystroke	Key.backspace	n/a
16.191	0.045	32382	keystroke	Key.backspace	n/a
16.326	0.06	32652	keystroke	Key.backspace	n/a
16.476	0.06	32952	keystroke	Key.backspace	n/a
16.611	0.075	33222	keystroke	Key.backspace	n/a
16.761	0.075	33522	keystroke	Key.backspace	n/a
16.926	0.06	33852	keystroke	Key.backspace	n/a
17.061	0.075	34122	keystroke	Key.backspace	n/a
17.226	0.06	34452	keystroke	Key.backspace	n/a
17.391	0.06	34782	keystroke	Key.backspace	n/a
17.525	0.061	35050	keystroke	Key.backspace	n/a
17.691	0.0445	35382	keystroke	Key.backspace	n/a
17.8405	0.06	35681	keystroke	Key.backspace	n/a
18.0055	0.0595	36011	keystroke	Key.backspace	n/a
18.156	0.06	36312	keystroke	Key.backspace	n/a
18.321	0.045	36642	keystroke	Key.backspace	n/a
18.471	0.06	36942	keystroke	Key.backspace	n/a
18.621	0.09	37242	keystroke	Key.backspace	n/a
19.056	0.06	38112	keystroke	t	n/a
19.161	0.06	38322	keystroke	h	n/a
19.251	0.06	38502	keystroke	e	n/a
19.341	0.06	38682	keystroke	Key.space	n/a
20.076	0.06	40152	keystroke	q	n/a
20.196	0.0445	40392	keystroke	u	n/a
20.361	0.045	40722	keystroke	i	n/a
20.466	0.045	40932	keystroke	c	n/a
20.721	0.075	41442	keystroke	k	n/a
20.901	0.06	41802	keystroke	Key.space	n/a
21.096	0.045	42192	keystroke	b	n/a
21.201	0.06	42402	keystroke	r	n/a
21.321	0.09	42642	keystroke	o	n/a
21.651	0.0595	43302	keystroke	w	n/a
21.7555	0.075	43511	keystroke	n	n/a
21.9355	0.06	43871	keystroke	Key.space	n/a
22.2955	0.045	44591	keystroke	f	n/a
22.3855	0.105	44771	keystroke	o	n/a
22.5955	0.03	45191	keystroke	x	n/a
22.6555	0.06	45311	keystroke	Key.space	n/a
23.1805	0.03	46361	keystroke	j	n/a
23.2855	0.075	46571	keystroke	u	n/a
23.5105	0.06	47021	keystroke	m	n/a
23.6755	0.075	47351	keystroke	p	n/a
23.8105	0.03	47621	keystroke	s	n/a
23.9605	0.06	47921	keystroke	Key.space	n/a
24.155	0.076	48310	keystroke	o	n/a
24.336	0.045	48672	keystroke	v	n/a
24.486	0.135	48972	keystroke	e	n/a
24.561	0.09	49122	keystroke	r	n/a
24.636	0.0745	49272	keystroke	Key.space	n/a
24.7855	0.075	49571	keystroke	a	n/a
24.8905	0.0755	49781	keystroke	Key.space	n/a
25.5955	0.0755	51191	keystroke	l	n/a
25.731	0.075	51462	keystroke	a	n/a
25.971	0.06	51942	keystroke	z	n/a
26.361	0.045	52722	keystroke	y	n/a
26.451	0.09	52902	keystroke	Key.space	n/a
26.886	0.015	53772	keystroke	d	n/a
27.216	0.075	54432	keystroke	o	n/a
27.336	0.06	54672	keystroke	g	n/a
27.8755	0.075	55751	keystroke	Key.enter	n/a
27.958	5.8745	55916	prompt	n/a	teeth hopes post cute\n
28.9405	0.045	57881	keystroke	t	n/a
29.1955	0.015	58391	keystroke	e	n/a
29.3005	0.075	58601	keystroke	e	n/a
29.4955	0.06	58991	keystroke	t	n/a
29.5855	0.075	59171	keystroke	h	n/a
29.7955	0.075	59591	keystroke	Key.space	n/a
30.1855	0.06	60371	keystroke	h	n/a
30.4555	0.06	60911	keystroke	o	n/a
30.6205	0.09	61241	keystroke	p	n/a
30.7705	0.03	61541	keystroke	e	n/a
30.996	0.075	61992	keystroke	s	n/a
31.131	0.06	62262	keystroke	Key.space	n/a
31.746	0.12	63492	keystroke	p	n/a
31.836	0.0895	63672	keystroke	o	n/a
32.1505	0.06	64301	keystroke	s	n/a
32.3455	0.075	64691	keystroke	t	n/a
32.6305	0.06	65261	keystroke	Key.space	n/a
33.08	0.03	66160	keystroke	c	n/a
33.2305	0.0745	66461	keystroke	u	n/a
33.485	0.0605	66970	keystroke	t	n/a
33.62	0.075	67240	keystroke	e	n/a
33.755	0.076	67510	keystroke	Key.enter	n/a
33.836	9.5065	67672	prompt	n/a	consistency cartridges linked cambridge\n
34.671	0.045	69342	keystroke	c	n/a
34.8205	0.06	69641	keystroke	o	n/a
35.0005	0.06	70001	keystroke	n	n/a
35.1055	0.06	70211	keystroke	s	n/a
35.1955	0.09	70391	keystroke	i	n/a
35.3005	0.0595	70601	keystroke	s	n/a
35.48	0.03	70960	keystroke	t	n/a
35.6	0.09	71200	keystroke	e	n/a
35.691	0.075	71382	keystroke	n	n/a
35.8555	0.06	71711	keystroke	c	n/a
36.0955	0.075	72191	keystroke	y	n/a
36.2305	0.075	72461	keystroke	Key.space	n/a
36.951	0.075	73902	keystroke	c	n/a
37.026	0.09	74052	keystroke	a	n/a
37.206	0.06	74412	keystroke	r	n/a
37.371	0.06	74742	keystroke	t	n/a
37.836	0.045	75672	keystroke	r	n/a
37.971	0.105	75942	keystroke	i	n/a
38.331	0.09	76662	keystroke	d	n/a
38.586	0.045	77172	keystroke	g	n/a
38.766	0.045	77532	keystroke	e	n/a
39.141	0.03	78282	keystroke	s	n/a
39.531	0.045	79062	keystroke	Key.space	n/a
39.951	0.135	79902	keystroke	l	n/a
40.056	0.09	80112	keystroke	i	n/a
40.281	0.075	80562	keystroke	n	n/a
40.401	0.105	80802	keystroke	k	n/a
40.521	0.0445	81042	keystroke	e	n/a
40.6555	0.09	81311	keystroke	d	n/a
40.7755	0.06	81551	keystroke	Key.space	n/a
41.5255	0.075	83051	keystroke	c	n/a
41.6305	0.09	83261	keystroke	a	n/a
41.7805	0.06	83561	keystroke	m	n/a
42.035	0.06	84070	keystroke	b	n/a
42.275	0.045	84550	keystroke	r	n/a
42.59	0.06	85180	keystroke	i	n/a
42.726	0.059	85452	keystroke	d	n/a
42.935	0.075	85870	keystroke	g	n/a
43.13	0.075	86260	keystroke	e	n/a
43.28	0.06	86560	keystroke	Key.enter	n/a
43.346	7.361	86692	prompt	n/a	york invite secure source\n
44.525	0.046	89050	keystroke	y	n/a
44.72	0.075	89440	keystroke	o	n/a
45.065	0.045	90130	keystroke	r	n/a
45.215	0.075	90430	keystroke	k	n/a
45.425	0.045	90850	keystroke	Key.space	n/a
45.86	0.12	91720	keystroke	i	n/a
45.935	0.075	91870	keystroke	n	n/a
46.2505	0.045	92501	keystroke	v	n/a
46.3405	0.09	92681	keystroke	i	n/a
46.5955	0.135	93191	keystroke	t	n/a
46.7005	0.09	93401	keystroke	e	n/a
46.8505	0.0605	93701	keystroke	Key.space	n/a
47.886	0.06	95772	keystroke	s	n/a
48.066	0.06	96132	keystroke	e	n/a
48.246	0.045	96492	keystroke	c	n/a
48.396	0.075	96792	keystroke	u	n/a
48.531	0.135	97062	keystroke	r	n/a
48.621	0.075	97242	keystroke	e	n/a
48.726	0.0745	97452	keystroke	Key.space	n/a
49.581	0.045	99162	keystroke	s	n/a
49.761	0.135	99522	keystroke	o	n/a
49.851	0.075	99702	keystroke	u	n/a
49.971	0.06	99942	keystroke	r	n/a
50.225	0.12	100450	keystroke	c	n/a
50.315	0.075	100630	keystroke	e	n/a
50.645	0.06	101290	keystroke	Key.enter	n/a
50.711	7.6315	101422	prompt	n/a	judge spam creating outstanding\n
51.6805	0.0445	103361	keystroke	j	n/a
51.86	0.0605	103720	keystroke	u	n/a
52.1005	0.06	104201	keystroke	d	n/a
52.5505	0.075	105101	keystroke	g	n/a
52.6855	0.09	105371	keystroke	e	n/a
52.8205	0.06	105641	keystroke	Key.space	n/a
53.0905	0.06	106181	keystroke	s	n/a
53.1805	0.105	106361	keystroke	p	n/a
53.3155	0.09	106631	keystroke	a	n/a
53.5855	0.045	107171	keystroke	m	n/a
53.7805	0.075	107561	keystroke	Key.space	n/a
54.6505	0.045	109301	keystroke	c	n/a
54.8305	0.12	109661	keystroke	r	n/a
54.9055	0.09	109811	keystroke	e	n/a
55.0705	0.09	110141	keystroke	a	n/a
55.2355	0.09	110471	keystroke	t	n/a
55.3855	0.135	110771	keystroke	i	n/a
55.4605	0.09	110921	keystroke	n	n/a
55.5805	0.06	111161	keystroke	g	n/a
55.671	0.074	111342	keystroke	Key.space	n/a
56.256	0.165	112512	keystroke	o	n/a
56.33	0.105	112660	keystroke	u	n/a
56.481	0.059	112962	keystroke	t	n/a
56.676	0.06	113352	keystroke	s	n/a
56.856	0.045	113712	keystroke	t	n/a
56.991	0.075	113982	keystroke	a	n/a
57.111	0.075	114222	keystroke	n	n/a
57.336	0.015	114672	keystroke	d	n/a
57.395	0.151	114790	keystroke	i	n/a
57.471	0.09	114942	keystroke	n	n/a
57.576	0.074	115152	keystroke	g	n/a
58.295	0.045	116590	keystroke	Key.enter	n/a
58.3455	9.9865	116691	prompt	n/a	banana gamma palestinian sarah\n
59.345	0.061	118690	keystroke	b	n/a
59.54	0.06	119080	keystroke	a	n/a
59.63	0.0755	119260	keystroke	n	n/a
59.7655	0.075	119531	keystroke	a	n/a
59.915	0.135	119830	keystroke	n	n/a
60.35	0.075	120700	keystroke	a	n/a
60.891	0.059	121782	keystroke	Key.space	n/a
61.5955	0.03	123191	keystroke	g	n/a
61.7305	0.09	123461	keystroke	a	n/a
61.8955	0.045	123791	keystroke	m	n/a
62.0305	0.075	124061	keystroke	m	n/a
62.1655	0.075	124331	keystroke	a	n/a
62.2555	0.06	124511	keystroke	Key.space	n/a
63.051	0.1045	126102	keystroke	p	n/a
63.2605	0.075	126521	keystroke	a	n/a
63.5905	0.075	127181	keystroke	l	n/a
63.9055	0.06	127811	keystroke	e	n/a
64.2055	0.06	128411	keystroke	s	n/a
65.4955	0.045	130991	keystroke	t	n/a
65.6005	0.0905	131201	keystroke	i	n/a
65.811	0.044	131622	keystroke	n	n/a
65.975	0.09	131950	keystroke	i	n/a
66.246	0.0895	132492	keystroke	a	n/a
66.3805	0.06	132761	keystroke	n	n/a
66.575	0.06	133150	keystroke	Key.space	n/a
67.265	0.06	134530	keystroke	s	n/a
67.445	0.075	134890	keystroke	a	n/a
67.64	0.06	135280	keystroke	r	n/a
67.775	0.0905	135550	keystroke	a	n/a
67.9255	0.0755	135851	keystroke	h	n/a
68.2555	0.075	136511	keystroke	Key.enter	n/a
68.3355	8.277	136671	prompt	n/a	hired adults mario summaries\n
69.2305	0.03	138461	keystroke	h	n/a
69.3055	0.105	138611	keystroke	i	n/a
69.6355	0.12	139271	keystroke	r	n/a
69.7255	0.06	139451	keystroke	e	n/a
69.9055	0.06	139811	keystroke	d	n/a
69.9955	0.075	139991	keystroke	Key.space	n/a
70.2205	0.075	140441	keystroke	a	n/a
70.761	0.06	141522	keystroke	d	n/a
70.881	0.045	141762	keystroke	u	n/a
71.046	0.075	142092	keystroke	l	n/a
71.271	0.075	142542	keystroke	t	n/a
71.391	0.09	142782	keystroke	s	n/a
71.571	0.075	143142	keystroke	Key.space	n/a
71.9905	0.09	143981	keystroke	m	n/a
72.0955	0.045	144191	keystroke	a	n/a
72.2905	0.045	144581	keystroke	r	n/a
72.5155	0.135	145031	keystroke	i	n/a
72.5905	0.105	145181	keystroke	o	n/a
72.8455	0.06	145691	keystroke	Key.space	n/a
73.49	0.076	146980	keystroke	s	n/a
73.746	0.059	147492	keystroke	u	n/a
74.016	0.015	148032	keystroke	m	n/a
74.121	0.044	148242	keystroke	m	n/a
74.42	0.091	148840	keystroke	a	n/a
74.705	0.075	149410	keystroke	r	n/a
74.886	0.075	149772	keystroke	i	n/a
75.23	0.06	150460	keystroke	e	n/a
75.396	0.075	150792	keystroke	s	n/a
76.535	0.075	153070	keystroke	Key.enter	n/a
76.618	10.914	153236	prompt	n/a	amateur murphy lyric raid\n
77.4355	0.045	154871	keystroke	m	n/a
77.75	0.0905	155500	keystroke	Key.backspace	n/a
77.8855	0.075	155771	keystroke	a	n/a
77.9905	0.06	155981	keystroke	m	n/a
78.1105	0.06	156221	keystroke	a	n/a
78.98	0.09	157960	keystroke	t	n/a
79.415	0.075	158830	keystroke	e	n/a
80.105	0.075	160210	keystroke	u	n/a
80.24	0.09	160480	keystroke	r	n/a
80.645	0.06	161290	keystroke	Key.space	n/a
81.2755	0.06	162551	keystroke	m	n/a
81.485	0.06	162970	keystroke	u	n/a
81.695	0.06	163390	keystroke	r	n/a
81.875	0.1055	163750	keystroke	p	n/a
82.1155	0.09	164231	keystroke	h	n/a
82.3405	0.075	164681	keystroke	y	n/a
82.5055	0.06	165011	keystroke	Key.space	n/a
83.346	0.075	166692	keystroke	l	n/a
83.8855	0.045	167771	keystroke	y	n/a
84.185	0.015	168370	keystroke	r	n/a
84.275	0.075	168550	keystroke	i	n/a
84.545	0.045	169090	keystroke	c	n/a
84.65	0.06	169300	keystroke	Key.space	n/a
85.31	0.06	170620	keystroke	r	n/a
85.46	0.0905	170920	keystroke	a	n/a
85.5655	0.09	171131	keystroke	i	n/a
86.5105	0.09	173021	keystroke	d	n/a
87.4555	0.075	174911	keystroke	Key.enter	n/a
87.5355	8.6815	175071	prompt	n/a	keywords flashing strips cialis\n
88.7005	0.06	177401	keystroke	k	n/a
88.85	0.06	177700	keystroke	e	n/a
89.09	0.06	178180	keystroke	y	n/a
89.45	0.06	178900	keystroke	w	n/a
89.555	0.12	179110	keystroke	o	n/a
89.705	0.075	179410	keystroke	r	n/a
89.93	0.135	179860	keystroke	d	n/a
90.02	0.105	180040	keystroke	s	n/a
90.17	0.075	180340	keystroke	Key.space	n/a
90.665	0.06	181330	keystroke	f	n/a
90.755	0.09	181510	keystroke	l	n/a
90.83	0.075	181660	keystroke	a	n/a
91.0555	0.06	182111	keystroke	s	n/a
91.2355	0.06	182471	keystroke	h	n/a
91.5055	0.015	183011	keystroke	i	n/a
91.5355	0.045	183071	keystroke	n	n/a
91.685	0.06	183370	keystroke	g	n/a
91.73	0.09	183460	keystroke	Key.space	n/a
92.42	0.09	184840	keystroke	s	n/a
92.66	0.045	185320	keystroke	t	n/a
92.81	0.06	185620	keystroke	r	n/a
93.005	0.09	186010	keystroke	i	n/a
93.155	0.06	186310	keystroke	p	n/a
93.335	0.0755	186670	keystroke	s	n/a
93.7405	0.06	187481	keystroke	Key.space	n/a
94.3705	0.0605	188741	keystroke	c	n/a
94.6255	0.015	189251	keystroke	i	n/a
94.6705	0.075	189341	keystroke	a	n/a
94.8055	0.12	189611	keystroke	l	n/a
94.8955	0.12	189791	keystroke	i	n/a
95.2105	0.075	190421	keystroke	s	n/a
96.1555	0.06	192311	keystroke	Key.enter	n/a
96.221	13.016	192442	prompt	n/a	gzip assumptions strings tasks\n
98.4975	0	196995	keystroke	g	n/a
98.7805	0.06	197561	keystroke	x	n/a
100.1455	0.075	200291	keystroke	Key.backspace	n/a
100.3705	0.075	200741	keystroke	x	n/a
100.7155	0.075	201431	keystroke	Key.backspace	n/a
100.8505	0.09	201701	keystroke	z	n/a
101.1505	0.135	202301	keystroke	i	n/a
101.2405	0.12	202481	keystroke	p	n/a
101.765	0.075	203530	keystroke	Key.space	n/a
102.125	0.105	204250	keystroke	a	n/a
102.395	0.03	204790	keystroke	s	n/a
102.5	0.075	205000	keystroke	s	n/a
102.605	0.075	205210	keystroke	u	n/a
102.815	0.06	205630	keystroke	m	n/a
103.085	0.09	206170	keystroke	p	n/a
103.235	0.06	206470	keystroke	t	n/a
103.37	0.12	206740	keystroke	i	n/a
103.43	0.105	206860	keystroke	o	n/a
103.61	0.0755	207220	keystroke	n	n/a
103.7305	0.06	207461	keystroke	s	n/a
105.2	0.06	210400	keystroke	Key.space	n/a
105.515	0.06	211030	keystroke	s	n/a
105.8005	0.045	211601	keystroke	t	n/a
105.9355	0.075	211871	keystroke	r	n/a
106.0555	0.165	212111	keystroke	i	n/a
106.1755	0.075	212351	keystroke	n	n/a
106.5655	0.06	213131	keystroke	g	n/a
106.9105	0.075	213821	keystroke	s	n/a
107.0755	0.075	214151	keystroke	Key.space	n/a
107.7505	0.06	215501	keystroke	t	n/a
108.1255	0.15	216251	keystroke	a	n/a
108.2305	0.12	216461	keystroke	s	n/a
108.4105	0.12	216821	keystroke	k	n/a
108.6055	0.06	217211	keystroke	s	n/a
109.175	0.06	218350	keystroke	Key.enter	n/a
109.241	7.2265	218482	prompt	n/a	algebra wiring beans ought\n
109.8955	0.075	219791	keystroke	a	n/a
110.5405	0.075	221081	keystroke	l	n/a
110.8855	0.045	221771	keystroke	g	n/a
111.0505	0.075	222101	keystroke	e	n/a
111.1705	0.105	222341	keystroke	b	n/a
111.3355	0.09	222671	keystroke	r	n/a
111.485	0.09	222970	keystroke	a	n/a
111.62	0.0905	223240	keystroke	Key.space	n/a
112.2355	0.09	224471	keystroke	w	n/a
112.3405	0.105	224681	keystroke	i	n/a
112.4305	0.06	224861	keystroke	r	n/a
112.5505	0.165	225101	keystroke	i	n/a
112.6555	0.09	225311	keystroke	n	n/a
112.7605	0.075	225521	keystroke	g	n/a
112.8655	0.09	225731	keystroke	Key.space	n/a
113.6005	0.06	227201	keystroke	b	n/a
113.69	0.045	227380	keystroke	e	n/a
113.855	0.06	227710	keystroke	a	n/a
113.96	0.09	227920	keystroke	n	n/a
114.2	0.06	228400	keystroke	s	n/a
114.32	0.06	228640	keystroke	Key.space	n/a
115.3255	0.105	230651	keystroke	o	n/a
115.4155	0.09	230831	keystroke	u	n/a
115.745	0.06	231490	keystroke	g	n/a
115.835	0.09	231670	keystroke	h	n/a
115.955	0.075	231910	keystroke	t	n/a
116.405	0.06	232810	keystroke	Key.enter	n/a
116.4715	11.6355	232943	prompt	n/a	publications tennessee permit separation\n
117.47	0.075	234940	keystroke	p	n/a
117.68	0.06	235360	keystroke	u	n/a
117.98	0.06	235960	keystroke	b	n/a
118.205	0.1055	236410	keystroke	l	n/a
118.2655	0.075	236531	keystroke	i	n/a
118.3705	0.06	236741	keystroke	s	n/a
118.7455	0.075	237491	keystroke	Key.backspace	n/a
118.8655	0.09	237731	keystroke	c	n/a
118.9855	0.105	237971	keystroke	a	n/a
119.1805	0.09	238361	keystroke	t	n/a
119.3305	0.12	238661	keystroke	i	n/a
119.7955	0.09	239591	keystroke	o	n/a
120.0355	0.0595	240071	keystroke	n	n/a
120.155	0.06	240310	keystroke	s	n/a
120.29	0.075	240580	keystroke	Key.space	n/a
120.9805	0.0445	241961	keystroke	t	n/a
121.115	0.09	242230	keystroke	e	n/a
121.3555	0.045	242711	keystroke	n	n/a
121.4905	0.0605	242981	keystroke	n	n/a
121.7905	0.09	243581	keystroke	e	n/a
122.0455	0.075	244091	keystroke	s	n/a
122.1805	0.06	244361	keystroke	s	n/a
122.406	0.045	244812	keystroke	e	n/a
122.511	0.09	245022	keystroke	e	n/a
122.811	0.06	245622	keystroke	Key.space	n/a
123.096	0.075	246192	keystroke	p	n/a
123.7105	0.105	247421	keystroke	e	n/a
123.7705	0.075	247541	keystroke	r	n/a
124.0105	0.06	248021	keystroke	m	n/a
124.1755	0.105	248351	keystroke	i	n/a
124.3255	0.075	248651	keystroke	t	n/a
124.64	0.075	249280	keystroke	Key.space	n/a
125.2855	0.06	250571	keystroke	s	n/a
125.4205	0.06	250841	keystroke	p	n/a
125.4955	0.06	250991	keystroke	e	n/a
125.8405	0.0605	251681	keystroke	Key.backspace	n/a
125.9755	0.0905	251951	keystroke	Key.backspace	n/a
126.1105	0.075	252221	keystroke	e	n/a
126.2005	0.0755	252401	keystroke	p	n/a
126.4105	0.075	252821	keystroke	a	n/a
126.605	0.0905	253210	keystroke	r	n/a
126.7555	0.105	253511	keystroke	a	n/a
127.085	0.075	254170	keystroke	t	n/a
127.325	0.15	254650	keystroke	i	n/a
127.43	0.12	254860	keystroke	o	n/a
127.61	0.1055	255220	keystroke	n	n/a
128.0005	0.105	256001	keystroke	Key.enter	n/a
128.1105	9.4465	256221	prompt	n/a	rows computed called probe\n
129.0355	0.075	258071	keystroke	r	n/a
129.1705	0.09	258341	keystroke	o	n/a
130.026	0.075	260052	keystroke	w	n/a
130.281	0.0595	260562	keystroke	s	n/a
130.4305	0.045	260861	keystroke	Key.space	n/a
130.8055	0.06	261611	keystroke	c	n/a
130.9255	0.12	261851	keystroke	o	n/a
131.0005	0.075	262001	keystroke	m	n/a
131.1955	0.105	262391	keystroke	p	n/a
131.3455	0.0745	262691	keystroke	u	n/a
131.6605	0.075	263321	keystroke	t	n/a
131.8555	0.15	263711	keystroke	e	n/a
131.9905	0.075	263981	keystroke	r	n/a
132.5905	0.09	265181	keystroke	Key.backspace	n/a
132.9055	0.075	265811	keystroke	d	n/a
133.0705	0.09	266141	keystroke	Key.space	n/a
134.42	0.075	268840	keystroke	c	n/a
134.555	0.0905	269110	keystroke	a	n/a
134.6905	0.045	269381	keystroke	l	n/a
134.8105	0.09	269621	keystroke	l	n/a
134.9305	0.045	269861	keystroke	e	n/a
135.1105	0.06	270221	keystroke	d	n/a
135.2005	0.06	270401	keystroke	Key.space	n/a
135.5455	0.135	271091	keystroke	p	n/a
135.6355	0.09	271271	keystroke	r	n/a
135.8005	0.105	271601	keystroke	o	n/a
136.7605	0.075	273521	keystroke	b	n/a
136.9255	0.06	273851	keystroke	e	n/a
137.4655	0.09	274931	keystroke	Key.enter	n/a
137.561	13.631	275122	prompt	n/a	representative midnight england noticed\n
138.4105	0.105	276821	keystroke	r	n/a
138.4855	0.075	276971	keystroke	e	n/a
138.6655	0.075	277331	keystroke	p	n/a
138.8155	0.105	277631	keystroke	r	n/a
138.8905	0.06	277781	keystroke	e	n/a
139.0555	0.045	278111	keystroke	s	n/a
139.2205	0.06	278441	keystroke	e	n/a
139.3105	0.075	278621	keystroke	n	n/a
139.4005	0.06	278801	keystroke	t	n/a
139.5655	0.09	279131	keystroke	a	n/a
139.6405	0.075	279281	keystroke	t	n/a
139.8355	0.105	279671	keystroke	i	n/a
140.1655	0.075	280331	keystroke	v	n/a
140.3755	0.06	280751	keystroke	e	n/a
140.5405	0.075	281081	keystroke	Key.space	n/a
141.2455	0.09	282491	keystroke	m	n/a
141.3805	0.12	282761	keystroke	i	n/a
141.6055	0.045	283211	keystroke	s	n/a
142.16	0.015	284320	keystroke	Key.backspace	n/a
142.325	0.06	284650	keystroke	d	n/a
142.58	0.06	285160	keystroke	n	n/a
142.73	0.0905	285460	keystroke	i	n/a
142.8655	0.075	285731	keystroke	g	n/a
142.9555	0.09	285911	keystroke	h	n/a
143.0605	0.06	286121	keystroke	t	n/a
143.1955	0.09	286391	keystroke	Key.space	n/a
143.735	0.075	287470	keystroke	e	n/a
143.9	0.075	287800	keystroke	n	n/a
144.035	0.06	288070	keystroke	g	n/a
144.17	0.075	288340	keystroke	l	n/a
144.32	0.06	288640	keystroke	a	n/a
144.4255	0.09	288851	keystroke	n	n/a
145.0705	0.045	290141	keystroke	d	n/a
145.1755	0.09	290351	keystroke	Key.space	n/a
145.9855	0.06	291971	keystroke	n	n/a
146.1505	0.09	292301	keystroke	o	n/a
146.2855	0.06	292571	keystroke	t	n/a
146.6305	0.09	293261	keystroke	v	n/a
146.975	0.09	293950	keystroke	Key.backspace	n/a
147.305	0.03	294610	keystroke	i	n/a
147.995	0.045	295990	keystroke	v	n/a
148.265	0.06	296530	keystroke	e	n/a
148.43	0.06	296860	keystroke	d	n/a
149.465	0.09	298930	keystroke	Key.backspace	n/a
149.615	0.0905	299230	keystroke	Key.backspace	n/a
149.8105	0.075	299621	keystroke	Key.backspace	n/a
150.5155	0.09	301031	keystroke	c	n/a
150.6505	0.06	301301	keystroke	e	n/a
150.8305	0.075	301661	keystroke	d	n/a
151.16	0.03	302320	keystroke	Key.enter	n/a
151.1975	9.2945	302395	prompt	n/a	ticket phenomenon deal ecommerce\n
152.435	0.03	304870	keystroke	t	n/a
152.5105	0.0745	305021	keystroke	i	n/a
152.915	0.045	305830	keystroke	c	n/a
153.02	0.075	306040	keystroke	k	n/a
153.155	0.075	306310	keystroke	e	n/a
153.3505	0.045	306701	keystroke	t	n/a
153.4555	0.06	306911	keystroke	Key.space	n/a
153.7855	0.09	307571	keystroke	p	n/a
154.2205	0.075	308441	keystroke	h	n/a
154.3405	0.06	308681	keystroke	e	n/a
154.4305	0.075	308861	keystroke	n	n/a
154.6105	0.09	309221	keystroke	o	n/a
154.8205	0.045	309641	keystroke	m	n/a
155.0305	0.06	310061	keystroke	e	n/a
155.225	0.0905	310450	keystroke	n	n/a
155.6455	0.1195	311291	keystroke	o	n/a
155.735	0.075	311470	keystroke	n	n/a
155.99	0.0905	311980	keystroke	Key.space	n/a
156.5305	0.06	313061	keystroke	d	n/a
156.6805	0.06	313361	keystroke	e	n/a
156.8305	0.105	313661	keystroke	a	n/a
156.9205	0.105	313841	keystroke	l	n/a
157.1755	0.075	314351	keystroke	Key.space	n/a
157.8805	0.06	315761	keystroke	e	n/a
158.1805	0.06	316361	keystroke	c	n/a
158.2855	0.0895	316571	keystroke	o	n/a
158.495	0.045	316990	keystroke	m	n/a
158.6	0.075	317200	keystroke	m	n/a
158.75	0.015	317500	keystroke	e	n/a
159.6795	0.046	319359	keystroke	r	n/a
159.9205	0.075	319841	keystroke	c	n/a
160.0845	0.076	320169	keystroke	e	n/a
160.4145	0.075	320829	keystroke	Key.enter	n/a
160.4955	7.5865	320991	prompt	n/a	who're brand hull methods\n
161.3605	0.075	322721	keystroke	w	n/a
161.75	0.075	323500	keystroke	h	n/a
161.795	0.105	323590	keystroke	o	n/a
162.545	0.075	325090	keystroke	'	n/a
163.04	0.135	326080	keystroke	r	n/a
163.13	0.09	326260	keystroke	e	n/a
163.265	0.09	326530	keystroke	Key.space	n/a
163.61	0.075	327220	keystroke	b	n/a
163.73	0.09	327460	keystroke	r	n/a
163.955	0.075	327910	keystroke	a	n/a
164.06	0.0755	328120	keystroke	n	n/a
164.27	0.075	328540	keystroke	d	n/a
164.4055	0.0895	328811	keystroke	Key.space	n/a
165.0955	0.075	330191	keystroke	h	n/a
165.3055	0.06	330611	keystroke	u	n/a
165.5905	0.03	331181	keystroke	l	n/a
165.725	0.075	331450	keystroke	l	n/a
165.935	0.045	331870	keystroke	Key.space	n/a
166.3855	0.06	332771	keystroke	m	n/a
166.4905	0.06	332981	keystroke	e	n/a
166.6855	0.045	333371	keystroke	t	n/a
166.7605	0.09	333521	keystroke	h	n/a
167.0305	0.075	334061	keystroke	o	n/a
167.345	0.15	334690	keystroke	d	n/a
167.45	0.075	334900	keystroke	s	n/a
168.05	0.03	336100	keystroke	Key.enter	n/a
168.0865	6.911	336173	prompt	n/a	dude score imposed dispatch\n
169.04	0.045	338080	keystroke	d	n/a
169.145	0.09	338290	keystroke	u	n/a
169.22	0.075	338440	keystroke	d	n/a
169.49	0.09	338980	keystroke	e	n/a
170.0305	0.0745	340061	keystroke	Key.space	n/a
170.495	0.106	340990	keystroke	s	n/a
170.645	0.046	341290	keystroke	c	n/a
170.795	0.09	341590	keystroke	o	n/a
170.975	0.12	341950	keystroke	r	n/a
171.066	0.074	342132	keystroke	e	n/a
171.2	0.06	342400	keystroke	Key.space	n/a
171.455	0.121	342910	keystroke	i	n/a
171.531	0.089	343062	keystroke	m	n/a
171.7555	0.105	343511	keystroke	p	n/a
171.8155	0.09	343631	keystroke	o	n/a
172.0105	0.06	344021	keystroke	s	n/a
172.1755	0.06	344351	keystroke	e	n/a
172.3405	0.075	344681	keystroke	d	n/a
172.4305	0.06	344861	keystroke	Key.space	n/a
173.24	0.075	346480	keystroke	d	n/a
173.345	0.075	346690	keystroke	i	n/a
173.465	0.06	346930	keystroke	s	n/a
173.6155	0.09	347231	keystroke	p	n/a
173.7505	0.075	347501	keystroke	a	n/a
173.9605	0.06	347921	keystroke	t	n/a
174.17	0.06	348340	keystroke	c	n/a
174.29	0.075	348580	keystroke	h	n/a
174.92	0.075	349840	keystroke	Key.enter	n/a
175.0015	9.28	350003	prompt	n/a	housewares earthquake tunes lexus\n
176.06	0.06	352120	keystroke	h	n/a
176.255	0.105	352510	keystroke	o	n/a
176.345	0.075	352690	keystroke	u	n/a
176.585	0.045	353170	keystroke	s	n/a
176.765	0.06	353530	keystroke	e	n/a
177.0205	0.06	354041	keystroke	w	n/a
177.1855	0.075	354371	keystroke	a	n/a
177.3805	0.09	354761	keystroke	r	n/a
177.6805	0.045	355361	keystroke	e	n/a
177.8755	0.045	355751	keystroke	s	n/a
177.9805	0.045	355961	keystroke	Key.space	n/a
178.265	0.06	356530	keystroke	e	n/a
178.46	0.075	356920	keystroke	a	n/a
178.625	0.06	357250	keystroke	r	n/a
178.82	0.045	357640	keystroke	t	n/a
178.91	0.075	357820	keystroke	h	n/a
179.3905	0.075	358781	keystroke	q	n/a
179.4805	0.09	358961	keystroke	u	n/a
179.795	0.075	359590	keystroke	a	n/a
180.185	0.105	360370	keystroke	k	n/a
180.32	0.06	360640	keystroke	e	n/a
180.485	0.06	360970	keystroke	Key.space	n/a
181.34	0.045	362680	keystroke	t	n/a
181.505	0.06	363010	keystroke	u	n/a
181.7	0.075	363400	keystroke	n	n/a
181.85	0.075	363700	keystroke	e	n/a
182.045	0.06	364090	keystroke	s	n/a
182.135	0.06	364270	keystroke	Key.space	n/a
182.375	0.105	364750	keystroke	l	n/a
182.495	0.075	364990	keystroke	e	n/a
183.275	0.06	366550	keystroke	x	n/a
183.4105	0.09	366821	keystroke	u	n/a
183.6355	0.06	367271	keystroke	s	n/a
184.2355	0.045	368471	keystroke	Key.enter	n/a
184.288	8.2585	368576	prompt	n/a	cheque numerical serum span\n
185.1205	0.059	370241	keystroke	c	n/a
185.2695	0.076	370539	keystroke	h	n/a
185.4205	0.06	370841	keystroke	e	n/a
186.035	0.045	372070	keystroke	q	n/a
186.29	0.09	372580	keystroke	u	n/a
186.485	0.06	372970	keystroke	e	n/a
186.62	0.06	373240	keystroke	Key.space	n/a
187.295	0.105	374590	keystroke	n	n/a
187.64	0.0305	375280	keystroke	e	n/a
187.9395	0.09	375879	keystroke	Key.backspace	n/a
188.1355	0.075	376271	keystroke	u	n/a
188.36	0.06	376720	keystroke	m	n/a
188.495	0.045	376990	keystroke	e	n/a
188.645	0.06	377290	keystroke	r	n/a
188.75	0.09	377500	keystroke	i	n/a
188.8855	0.105	377771	keystroke	c	n/a
188.9755	0.075	377951	keystroke	a	n/a
189.0655	0.0895	378131	keystroke	l	n/a
189.275	0.06	378550	keystroke	Key.space	n/a
190.325	0.06	380650	keystroke	s	n/a
190.5055	0.06	381011	keystroke	e	n/a
190.6405	0.075	381281	keystroke	r	n/a
190.8355	0.075	381671	keystroke	u	n/a
191.0455	0.06	382091	keystroke	m	n/a
191.2255	0.075	382451	keystroke	Key.space	n/a
191.7355	0.06	383471	keystroke	s	n/a
191.8255	0.0895	383651	keystroke	p	n/a
191.93	0.09	383860	keystroke	a	n/a
192.11	0.075	384220	keystroke	n	n/a
192.44	0.105	384880	keystroke	Key.enter	n/a
192.55	8.457	385100	prompt	n/a	sewing associates physical midi\n
193.3105	0.0595	386621	keystroke	s	n/a
193.475	0.075	386950	keystroke	e	n/a
193.8955	0.075	387791	keystroke	w	n/a
194.2255	0.135	388451	keystroke	i	n/a
194.3155	0.075	388631	keystroke	n	n/a
194.4355	0.06	388871	keystroke	g	n/a
194.5405	0.075	389081	keystroke	Key.space	n/a
195.1855	0.075	390371	keystroke	a	n/a
195.3805	0.015	390761	keystroke	s	n/a
195.4705	0.06	390941	keystroke	s	n/a
195.6205	0.0895	391241	keystroke	o	n/a
195.77	0.06	391540	keystroke	c	n/a
195.86	0.105	391720	keystroke	i	n/a
195.95	0.075	391900	keystroke	a	n/a
196.175	0.09	392350	keystroke	t	n/a
196.235	0.075	392470	keystroke	e	n/a
196.43	0.075	392860	keystroke	s	n/a
196.565	0.06	393130	keystroke	Key.space	n/a
197.045	0.075	394090	keystroke	p	n/a
197.315	0.06	394630	keystroke	h	n/a
197.525	0.075	395050	keystroke	y	n/a
197.7205	0.06	395441	keystroke	s	n/a
197.8555	0.105	395711	keystroke	i	n/a
197.9905	0.075	395981	keystroke	c	n/a
198.1105	0.105	396221	keystroke	a	n/a
198.2155	0.105	396431	keystroke	l	n/a
198.5	0.045	397000	keystroke	Key.space	n/a
199.5655	0.045	399131	keystroke	m	n/a
199.745	0.075	399490	keystroke	i	n/a
200.075	0.075	400150	keystroke	d	n/a
200.165	0.105	400330	keystroke	i	n/a
200.915	0.09	401830	keystroke	Key.enter	n/a
201.01	7.4965	402020	prompt	n/a	relationships on permits produce\n
201.7855	0.09	403571	keystroke	r	n/a
201.8605	0.105	403721	keystroke	e	n/a
201.9505	0.09	403901	keystroke	l	n/a
202.1155	0.105	404231	keystroke	a	n/a
202.2205	0.06	404441	keystroke	t	n/a
202.3555	0.09	404711	keystroke	i	n/a
202.3855	0.105	404771	keystroke	o	n/a
202.5655	0.075	405131	keystroke	n	n/a
202.6555	0.06	405311	keystroke	s	n/a
202.8655	0.075	405731	keystroke	h	n/a
202.9855	0.075	405971	keystroke	i	n/a
203.2255	0.09	406451	keystroke	p	n/a
203.4205	0.075	406841	keystroke	s	n/a
203.5405	0.06	407081	keystroke	Key.space	n/a
204.845	0.12	409690	keystroke	o	n/a
204.92	0.075	409840	keystroke	n	n/a
205.1	0.06	410200	keystroke	Key.space	n/a
205.325	0.075	410650	keystroke	p	n/a
205.43	0.105	410860	keystroke	e	n/a
205.4905	0.0745	410981	keystroke	r	n/a
205.76	0.09	411520	keystroke	m	n/a
205.88	0.09	411760	keystroke	i	n/a
206.15	0.045	412300	keystroke	t	n/a
206.315	0.0605	412630	keystroke	s	n/a
206.4345	0.075	412869	keystroke	Key.space	n/a
206.8695	0.09	413739	keystroke	p	n/a
207.3345	0.0455	414669	keystroke	r	n/a
207.395	0.045	414790	keystroke	o	n/a
207.515	0.06	415030	keystroke	d	n/a
207.68	0.06	415360	keystroke	u	n/a
207.77	0.06	415540	keystroke	c	n/a
208.01	0.075	416020	keystroke	e	n/a
208.415	0.09	416830	keystroke	Key.enter	n/a
208.5095	9.177	417019	prompt	n/a	condo conscious blog enters\n
209.27	0.045	418540	keystroke	c	n/a
209.405	0.135	418810	keystroke	o	n/a
209.51	0.075	419020	keystroke	n	n/a
209.735	0.045	419470	keystroke	d	n/a
209.84	0.09	419680	keystroke	o	n/a
210.05	0.06	420100	keystroke	Key.space	n/a
210.275	0.06	420550	keystroke	c	n/a
210.35	0.12	420700	keystroke	o	n/a
210.425	0.09	420850	keystroke	n	n/a
210.995	0.015	421990	keystroke	d	n/a
211.385	0.045	422770	keystroke	Key.backspace	n/a
211.445	0.075	422890	keystroke	s	n/a
212.1195	0.0455	424239	keystroke	c	n/a
212.3605	0.06	424721	keystroke	i	n/a
212.5255	0.135	425051	keystroke	o	n/a
212.6155	0.075	425231	keystroke	u	n/a
212.7955	0.06	425591	keystroke	s	n/a
212.9155	0.06	425831	keystroke	Key.space	n/a
213.89	0.06	427780	keystroke	b	n/a
214.13	0.09	428260	keystroke	l	n/a
214.37	0.075	428740	keystroke	o	n/a
215.21	0.06	430420	keystroke	g	n/a
215.42	0.045	430840	keystroke	Key.space	n/a
216.0955	0.0595	432191	keystroke	e	n/a
216.275	0.06	432550	keystroke	n	n/a
216.365	0.0445	432730	keystroke	t	n/a
216.5295	0.105	433059	keystroke	e	n/a
216.6045	0.075	433209	keystroke	r	n/a
216.8895	0.06	433779	keystroke	s	n/a
217.4445	0.24	434889	keystroke	Key.enter	n/a
217.6905	8.396	435381	prompt	n/a	you're described naked considerations\n
218.7045	0.075	437409	keystroke	y	n/a
218.7945	0.1205	437589	keystroke	o	n/a
218.87	0.105	437740	keystroke	u	n/a
219.05	0.105	438100	keystroke	'	n/a
219.2595	0.135	438519	keystroke	r	n/a
219.3495	0.09	438699	keystroke	e	n/a
219.4845	0.075	438969	keystroke	Key.space	n/a
219.98	0.06	439960	keystroke	d	n/a
220.145	0.06	440290	keystroke	e	n/a
220.31	0.075	440620	keystroke	s	n/a
220.43	0.0755	440860	keystroke	c	n/a
220.6405	0.06	441281	keystroke	r	n/a
220.7905	0.09	441581	keystroke	i	n/a
221.0155	0.09	442031	keystroke	b	n/a
221.1205	0.0445	442241	keystroke	e	n/a
221.285	0.075	442570	keystroke	d	n/a
221.405	0.075	442810	keystroke	Key.space	n/a
222.41	0.06	444820	keystroke	n	n/a
222.515	0.075	445030	keystroke	a	n/a
222.635	0.09	445270	keystroke	k	n/a
222.755	0.06	445510	keystroke	e	n/a
222.905	0.09	445810	keystroke	d	n/a
223.04	0.06	446080	keystroke	Key.space	n/a
223.4455	0.06	446891	keystroke	c	n/a
223.6105	0.134	447221	keystroke	o	n/a
223.7145	0.075	447429	keystroke	n	n/a
223.8195	0.06	447639	keystroke	s	n/a
223.9245	0.075	447849	keystroke	i	n/a
224.0145	0.045	448029	keystroke	d	n/a
224.1795	0.12	448359	keystroke	e	n/a
224.2845	0.09	448569	keystroke	r	n/a
224.4945	0.09	448989	keystroke	a	n/a
224.5995	0.075	449199	keystroke	t	n/a
224.7195	0.105	449439	keystroke	i	n/a
224.7495	0.12	449499	keystroke	o	n/a
224.9295	0.105	449859	keystroke	n	n/a
225.0495	0.06	450099	keystroke	s	n/a
225.8145	0.06	451629	keystroke	Key.space	n/a
226.0245	0.06	452049	keystroke	Key.enter	n/a
226.09	6.5665	452180	prompt	n/a	soon automation units ideas\n
226.9105	0.075	453821	keystroke	s	n/a
227.1055	0.045	454211	keystroke	o	n/a
227.2255	0.0895	454451	keystroke	o	n/a
227.435	0.06	454870	keystroke	n	n/a
227.615	0.0605	455230	keystroke	Key.space	n/a
228.125	0.075	456250	keystroke	a	n/a
228.365	0.06	456730	keystroke	u	n/a
228.515	0.06	457030	keystroke	t	n/a
228.62	0.09	457240	keystroke	o	n/a
228.845	0.045	457690	keystroke	m	n/a
228.935	0.075	457870	keystroke	a	n/a
229.13	0.075	458260	keystroke	t	n/a
229.22	0.105	458440	keystroke	i	n/a
229.28	0.105	458560	keystroke	o	n/a
229.46	0.06	458920	keystroke	n	n/a
229.64	0.0605	459280	keystroke	Key.space	n/a
229.9255	0.06	459851	keystroke	u	n/a
230.1055	0.06	460211	keystroke	n	n/a
230.3005	0.075	460601	keystroke	i	n/a
230.4055	0.045	460811	keystroke	t	n/a
230.555	0.075	461110	keystroke	s	n/a
230.675	0.075	461350	keystroke	Key.space	n/a
231.5305	0.06	463061	keystroke	i	n/a
231.6805	0.045	463361	keystroke	d	n/a
231.8005	0.075	463601	keystroke	e	n/a
231.9955	0.135	463991	keystroke	a	n/a
232.1155	0.075	464231	keystroke	s	n/a
232.5955	0.06	465191	keystroke	Key.enter	n/a
232.66	6.8815	465320	prompt	n/a	heavy said daughters twiki\n
233.66	0.06	467320	keystroke	h	n/a
233.78	0.06	467560	keystroke	e	n/a
233.96	0.075	467920	keystroke	a	n/a
234.17	0.06	468340	keystroke	v	n/a
234.41	0.075	468820	keystroke	y	n/a
234.53	0.09	469060	keystroke	Key.space	n/a
235.115	0.03	470230	keystroke	s	n/a
235.25	0.09	470500	keystroke	a	n/a
235.355	0.09	470710	keystroke	i	n/a
235.475	0.0595	470950	keystroke	d	n/a
235.5945	0.06	471189	keystroke	Key.space	n/a
235.7295	0.06	471459	keystroke	d	n/a
235.9095	0.09	471819	keystroke	a	n/a
236.195	0.06	472390	keystroke	u	n/a
236.39	0.045	472780	keystroke	g	n/a
236.45	0.075	472900	keystroke	h	n/a
236.57	0.075	473140	keystroke	t	n/a
236.735	0.1195	473470	keystroke	e	n/a
236.825	0.0745	473650	keystroke	r	n/a
237.0345	0.06	474069	keystroke	s	n/a
237.1245	0.075	474249	keystroke	Key.space	n/a
237.8	0.045	475600	keystroke	t	n/a
238.265	0.045	476530	keystroke	w	n/a
238.445	0.075	476890	keystroke	i	n/a
238.94	0.09	477880	keystroke	k	n/a
239.1505	0.06	478301	keystroke	i	n/a
239.4655	0.075	478931	keystroke	Key.enter	n/a
239.5455	9.326	479091	prompt	n/a	tracy days philadelphia operation\n
240.455	0.06	480910	keystroke	t	n/a
240.635	0.045	481270	keystroke	r	n/a
240.86	0.0905	481720	keystroke	a	n/a
240.9505	0.075	481901	keystroke	c	n/a
241.2055	0.075	482411	keystroke	y	n/a
241.3705	0.06	482741	keystroke	Key.space	n/a
242.285	0.045	484570	keystroke	d	n/a
242.39	0.09	484780	keystroke	a	n/a
242.7655	0.09	485531	keystroke	y	n/a
242.9155	0.06	485831	keystroke	s	n/a
243.0355	0.075	486071	keystroke	Key.space	n/a
243.5005	0.12	487001	keystroke	p	n/a
243.8	0.045	487600	keystroke	h	n/a
243.92	0.09	487840	keystroke	i	n/a
244.175	0.105	488350	keystroke	l	n/a
244.6995	0.06	489399	keystroke	i	n/a
245.0145	0.06	490029	keystroke	d	n/a
245.1795	0.06	490359	keystroke	e	n/a
245.2545	0.09	490509	keystroke	l	n/a
245.4955	0.104	490991	keystroke	p	n/a
245.7495	0.06	491499	keystroke	h	n/a
245.8695	0.0755	491739	keystroke	i	n/a
246.095	0.09	492190	keystroke	a	n/a
246.6345	0.09	493269	keystroke	Key.space	n/a
247.4445	0.045	494889	keystroke	o	n/a
247.5645	0.09	495129	keystroke	p	n/a
247.6695	0.135	495339	keystroke	e	n/a
247.7745	0.06	495549	keystroke	r	n/a
247.9545	0.1205	495909	keystroke	a	n/a
248.045	0.06	496090	keystroke	t	n/a
248.15	0.105	496300	keystroke	i	n/a
248.195	0.135	496390	keystroke	o	n/a
248.375	0.075	496750	keystroke	n	n/a
248.795	0.0745	497590	keystroke	Key.enter	n/a
248.876	8.2755	497752	prompt	n/a	booty wake peer thereof\n
249.9045	0.0605	499809	keystroke	b	n/a
250.13	0.06	500260	keystroke	o	n/a
250.28	0.06	500560	keystroke	o	n/a
250.415	0.075	500830	keystroke	t	n/a
250.61	0.0755	501220	keystroke	y	n/a
250.7605	0.06	501521	keystroke	Key.space	n/a
251.3305	0.0595	502661	keystroke	w	n/a
251.51	0.075	503020	keystroke	a	n/a
251.99	0.06	503980	keystroke	k	n/a
252.125	0.045	504250	keystroke	e	n/a
252.23	0.075	504460	keystroke	Key.space	n/a
252.665	0.09	505330	keystroke	p	n/a
252.935	0.045	505870	keystroke	e	n/a
253.025	0.09	506050	keystroke	e	n/a
253.2355	0.075	506471	keystroke	r	n/a
253.3555	0.074	506711	keystroke	Key.space	n/a
254.06	0.06	508120	keystroke	t	n/a
254.24	0.045	508480	keystroke	e	n/a
254.555	0.0595	509110	keystroke	Key.backspace	n/a
254.7795	0.06	509559	keystroke	h	n/a
254.8995	0.09	509799	keystroke	e	n/a
255.1245	0.075	510249	keystroke	r	n/a
255.4395	0.075	510879	keystroke	e	n/a
256.25	0.0595	512500	keystroke	o	n/a
256.3245	0.075	512649	keystroke	f	n/a
257.105	0.045	514210	keystroke	Key.enter	n/a
257.155	7.6015	514310	prompt	n/a	mercy counting transcription race\n
258.065	0.045	516130	keystroke	m	n/a
258.215	0.12	516430	keystroke	e	n/a
258.29	0.075	516580	keystroke	r	n/a
258.5295	0.075	517059	keystroke	c	n/a
258.8145	0.06	517629	keystroke	y	n/a
258.9345	0.075	517869	keystroke	Key.space	n/a
259.4895	0.06	518979	keystroke	c	n/a
259.5645	0.1355	519129	keystroke	o	n/a
259.6545	0.0905	519309	keystroke	u	n/a
259.865	0.0595	519730	keystroke	n	n/a
259.9395	0.075	519879	keystroke	t	n/a
260.0745	0.1055	520149	keystroke	i	n/a
260.1195	0.1055	520239	keystroke	n	n/a
260.27	0.06	520540	keystroke	g	n/a
260.36	0.075	520720	keystroke	Key.space	n/a
261.02	0.06	522040	keystroke	t	n/a
261.17	0.06	522340	keystroke	r	n/a
261.35	0.075	522700	keystroke	a	n/a
261.44	0.09	522880	keystroke	n	n/a
261.59	0.06	523180	keystroke	s	n/a
261.815	0.0445	523630	keystroke	c	n/a
261.9795	0.06	523959	keystroke	r	n/a
262.1595	0.075	524319	keystroke	i	n/a
262.3245	0.0755	524649	keystroke	p	n/a
262.445	0.0595	524890	keystroke	t	n/a
262.5495	0.12	525099	keystroke	i	n/a
262.6245	0.09	525249	keystroke	o	n/a
262.8345	0.075	525669	keystroke	n	n/a
263.0295	0.075	526059	keystroke	Key.space	n/a
263.7355	0.045	527471	keystroke	r	n/a
263.8705	0.075	527741	keystroke	a	n/a
264.1105	0.134	528221	keystroke	c	n/a
264.2305	0.09	528461	keystroke	e	n/a
264.6795	0.075	529359	keystroke	Key.enter	n/a
264.7595	8.502	529519	prompt	n/a	translate grows violent grew\n
265.6105	0.074	531221	keystroke	t	n/a
265.7745	0.0455	531549	keystroke	r	n/a
265.9395	0.06	531879	keystroke	a	n/a
266.0145	0.09	532029	keystroke	n	n/a
266.1645	0.06	532329	keystroke	s	n/a
266.2695	0.0755	532539	keystroke	l	n/a
266.39	0.09	532780	keystroke	a	n/a
266.675	0.12	533350	keystroke	t	n/a
266.75	0.075	533500	keystroke	e	n/a
266.8845	0.105	533769	keystroke	Key.space	n/a
267.5745	0.075	535149	keystroke	g	n/a
267.725	0.045	535450	keystroke	r	n/a
267.845	0.105	535690	keystroke	o	n/a
268.13	0.06	536260	keystroke	w	n/a
268.4595	0.075	536919	keystroke	s	n/a
268.5945	0.09	537189	keystroke	Key.space	n/a
269.2845	0.06	538569	keystroke	v	n/a
269.4795	0.075	538959	keystroke	i	n/a
269.6445	0.0605	539289	keystroke	o	n/a
269.855	0.03	539710	keystroke	l	n/a
269.9445	0.0905	539889	keystroke	e	n/a
270.68	0.045	541360	keystroke	n	n/a
270.785	0.0595	541570	keystroke	t	n/a
270.875	0.0595	541750	keystroke	Key.space	n/a
271.5195	0.015	543039	keystroke	f	n/a
271.85	0.075	543700	keystroke	Key.backspace	n/a
271.94	0.06	543880	keystroke	g	n/a
272.225	0.12	544450	keystroke	r	n/a
272.315	0.09	544630	keystroke	e	n/a
272.87	0.06	545740	keystroke	w	n/a
273.185	0.075	546370	keystroke	Key.enter	n/a
273.2665	10.795	546533	prompt	n/a	building administrative differences intense\n
274.19	0.15	548380	keystroke	b	n/a
274.265	0.12	548530	keystroke	u	n/a
274.475	0.075	548950	keystroke	i	n/a
274.67	0.075	549340	keystroke	l	n/a
274.76	0.075	549520	keystroke	d	n/a
274.925	0.135	549850	keystroke	i	n/a
275	0.075	550000	keystroke	n	n/a
275.105	0.075	550210	keystroke	g	n/a
275.195	0.105	550390	keystroke	Key.space	n/a
275.6455	0.0745	551291	keystroke	a	n/a
275.9	0.06	551800	keystroke	d	n/a
276.065	0.06	552130	keystroke	m	n/a
276.23	0.12	552460	keystroke	i	n/a
276.38	0.09	552760	keystroke	n	n/a
276.545	0.09	553090	keystroke	i	n/a
277.265	0.24	554530	keystroke	s	n/a
277.52	0.015	555040	keystroke	t	n/a
277.625	0.075	555250	keystroke	r	n/a
277.895	0.105	555790	keystroke	a	n/a
278.06	0.09	556120	keystroke	t	n/a
278.72	0.09	557440	keystroke	i	n/a
278.825	0.045	557650	keystroke	v	n/a
279.02	0.09	558040	keystroke	e	n/a
279.17	0.075	558340	keystroke	Key.space	n/a
279.575	0.06	559150	keystroke	d	n/a
279.665	0.075	559330	keystroke	i	n/a
279.785	0.045	559570	keystroke	f	n/a
279.875	0.075	559750	keystroke	f	n/a
280.025	0.09	560050	keystroke	e	n/a
280.1	0.075	560200	keystroke	r	n/a
280.205	0.075	560410	keystroke	e	n/a
280.295	0.09	560590	keystroke	n	n/a
280.445	0.105	560890	keystroke	c	n/a
280.52	0.075	561040	keystroke	e	n/a
281.09	0.075	562180	keystroke	Key.space	n/a
281.285	0.12	562570	keystroke	i	n/a
281.345	0.09	562690	keystroke	n	n/a
282.05	0.015	564100	keystroke	t	n/a
282.2	0.03	564400	keystroke	e	n/a
282.275	0.0745	564550	keystroke	n	n/a
282.5445	0.06	565089	keystroke	s	n/a
282.7245	0.075	565449	keystroke	e	n/a
283.939	0.1205	567878	keystroke	Key.enter	n/a
284.065	9.5665	568130	prompt	n/a	recovered nine arlington contribute\n
284.9145	0.0755	569829	keystroke	r	n/a
284.975	0.0595	569950	keystroke	e	n/a
285.1545	0.075	570309	keystroke	c	n/a
285.2745	0.0905	570549	keystroke	o	n/a
285.3795	0.06	570759	keystroke	v	n/a
285.5445	0.1055	571089	keystroke	e	n/a
285.6195	0.1355	571239	keystroke	r	n/a
285.769	0.061	571538	keystroke	e	n/a
285.905	0.09	571810	keystroke	d	n/a
286.055	0.0595	572110	keystroke	Key.space	n/a
286.5495	0.0755	573099	keystroke	n	n/a
286.745	0.09	573490	keystroke	i	n/a
286.789	0.135	573578	keystroke	n	n/a
287.1055	0.075	574211	keystroke	e	n/a
287.4345	0.075	574869	keystroke	Key.space	n/a
287.6295	0.09	575259	keystroke	a	n/a
288.1845	0.061	576369	keystroke	r	n/a
288.3055	0.089	576611	keystroke	l	n/a
288.5145	0.09	577029	keystroke	i	n/a
288.77	0.06	577540	keystroke	n	n/a
288.95	0.075	577900	keystroke	g	n/a
289.5045	0.09	579009	keystroke	t	n/a
289.67	0.135	579340	keystroke	o	n/a
289.745	0.09	579490	keystroke	n	n/a
290.24	0.09	580480	keystroke	Key.space	n/a
291.785	0.045	583570	keystroke	c	n/a
291.86	0.12	583720	keystroke	o	n/a
291.935	0.09	583870	keystroke	n	n/a
292.055	0.045	584110	keystroke	t	n/a
292.19	0.075	584380	keystroke	r	n/a
292.295	0.105	584590	keystroke	i	n/a
292.58	0.135	585160	keystroke	b	n/a
292.67	0.1045	585340	keystroke	u	n/a
293.0895	0.15	586179	keystroke	t	n/a
293.2095	0.105	586419	keystroke	e	n/a
293.57	0.06	587140	keystroke	Key.enter	n/a
293.6345	9.882	587269	prompt	n/a	pirates tour replication intranet\n
294.8745	0.06	589749	keystroke	p	n/a
295.0545	0.06	590109	keystroke	i	n/a
295.2195	0.045	590439	keystroke	r	n/a
295.3545	0.075	590709	keystroke	a	n/a
295.5495	0.09	591099	keystroke	t	n/a
295.6095	0.06	591219	keystroke	e	n/a
295.8045	0.075	591609	keystroke	s	n/a
295.9245	0.075	591849	keystroke	Key.space	n/a
296.3595	0.045	592719	keystroke	t	n/a
296.4945	0.12	592989	keystroke	o	n/a
296.5695	0.105	593139	keystroke	u	n/a
297.2745	0.075	594549	keystroke	r	n/a
297.3645	0.015	594729	keystroke	Key.space	n/a
297.9495	0.12	595899	keystroke	r	n/a
298.0545	0.03	596109	keystroke	e	n/a
298.445	0.0895	596890	keystroke	p	n/a
298.5945	0.06	597189	keystroke	l	n/a
298.7895	0.06	597579	keystroke	i	n/a
298.9245	0.06	597849	keystroke	c	n/a
299.0295	0.105	598059	keystroke	a	n/a
299.2245	0.075	598449	keystroke	t	n/a
299.3145	0.12	598629	keystroke	i	n/a
299.3745	0.105	598749	keystroke	o	n/a
299.5545	0.09	599109	keystroke	n	n/a
299.7645	0.06	599529	keystroke	Key.space	n/a
301.5345	0.105	603069	keystroke	i	n/a
301.5945	0.0905	603189	keystroke	n	n/a
301.73	0.045	603460	keystroke	t	n/a
301.865	0.03	603730	keystroke	r	n/a
302.045	0.0745	604090	keystroke	a	n/a
302.2395	0.06	604479	keystroke	n	n/a
302.3745	0.09	604749	keystroke	e	n/a
302.5395	0.075	605079	keystroke	t	n/a
303.4395	0.0745	606879	keystroke	Key.enter	n/a
303.52	11.036	607040	prompt	n/a	blog trip buses xhtml\n
304.3545	0.0905	608709	keystroke	b	n/a
304.5945	0.09	609189	keystroke	l	n/a
304.8195	0.0605	609639	keystroke	i	n/a
305.945	0.06	611890	keystroke	Key.backspace	n/a
306.635	0.09	613270	keystroke	o	n/a
307.04	0.09	614080	keystroke	g	n/a
307.43	0.09	614860	keystroke	Key.space	n/a
308.285	0.045	616570	keystroke	t	n/a
308.435	0.0595	616870	keystroke	r	n/a
308.7795	0.105	617559	keystroke	i	n/a
308.8545	0.09	617709	keystroke	p	n/a
309.109	0.06	618218	keystroke	Key.space	n/a
309.89	0.179	619780	keystroke	b	n/a
310.055	0.12	620110	keystroke	u	n/a
310.354	0.06	620708	keystroke	s	n/a
310.5345	0.06	621069	keystroke	e	n/a
310.7145	0.075	621429	keystroke	s	n/a
310.9245	0.105	621849	keystroke	Key.space	n/a
311.8245	0.0595	623649	keystroke	x	n/a
313.129	0.06	626258	keystroke	h	n/a
313.264	0.075	626528	keystroke	t	n/a
313.444	0.0605	626888	keystroke	m	n/a
313.985	0.06	627970	keystroke	l	n/a
314.48	0.075	628960	keystroke	Key.enter	n/a
314.561	6.9405	629122	prompt	n/a	metal chess thinkpad ranking\n
315.455	0.06	630910	keystroke	m	n/a
315.575	0.06	631150	keystroke	e	n/a
315.755	0.075	631510	keystroke	t	n/a
315.935	0.09	631870	keystroke	a	n/a
316.04	0.09	632080	keystroke	l	n/a
316.265	0.06	632530	keystroke	Key.space	n/a
316.58	0.06	633160	keystroke	c	n/a
316.7	0.0895	633400	keystroke	h	n/a
316.8945	0.06	633789	keystroke	e	n/a
317.0895	0.0605	634179	keystroke	s	n/a
317.195	0.105	634390	keystroke	s	n/a
317.33	0.09	634660	keystroke	Key.space	n/a
317.9295	0.075	635859	keystroke	t	n/a
318.0795	0.12	636159	keystroke	h	n/a
318.1845	0.105	636369	keystroke	i	n/a
318.3645	0.09	636729	keystroke	n	n/a
318.5	0.0895	637000	keystroke	k	n/a
318.7395	0.06	637479	keystroke	p	n/a
318.8295	0.15	637659	keystroke	a	n/a
318.9945	0.09	637989	keystroke	d	n/a
319.1895	0.075	638379	keystroke	Key.space	n/a
319.759	0.075	639518	keystroke	r	n/a
319.94	0.0745	639880	keystroke	a	n/a
320.1645	0.06	640329	keystroke	n	n/a
320.405	0.075	640810	keystroke	k	n/a
320.615	0.09	641230	keystroke	i	n/a
320.765	0.075	641530	keystroke	n	n/a
320.8995	0.0605	641799	keystroke	g	n/a
321.439	0.06	642878	keystroke	Key.enter	n/a
321.5045	6.342	643009	prompt	n/a	weapons pale am clear\n
322.3545	0.075	644709	keystroke	w	n/a
322.505	0.06	645010	keystroke	e	n/a
322.6995	0.06	645399	keystroke	a	n/a
322.8045	0.075	645609	keystroke	p	n/a
323.1045	0.105	646209	keystroke	o	n/a
323.315	0.09	646630	keystroke	n	n/a
323.435	0.0595	646870	keystroke	s	n/a
323.5395	0.075	647079	keystroke	Key.space	n/a
324.305	0.09	648610	keystroke	p	n/a
324.485	0.105	648970	keystroke	a	n/a
324.695	0.105	649390	keystroke	l	n/a
324.845	0.06	649690	keystroke	e	n/a
324.95	0.075	649900	keystroke	Key.space	n/a
325.445	0.105	650890	keystroke	a	n/a
325.8645	0.075	651729	keystroke	m	n/a
326.0445	0.075	652089	keystroke	Key.space	n/a
326.63	0.075	653260	keystroke	c	n/a
326.75	0.075	653500	keystroke	l	n/a
326.87	0.09	653740	keystroke	e	n/a
327.065	0.105	654130	keystroke	a	n/a
327.185	0.09	654370	keystroke	r	n/a
327.83	0.015	655660	keystroke	Key.enter	n/a
327.85	13.4965	655700	prompt	n/a	kinda editions lance engines\n
329.3745	0.045	658749	keystroke	k	n/a
329.5395	0.0605	659079	keystroke	i	n/a
329.7495	0.045	659499	keystroke	n	n/a
330.0645	0.06	660129	keystroke	d	n/a
330.2295	0.09	660459	keystroke	a	n/a
330.3495	0.075	660699	keystroke	Key.space	n/a
330.6795	0.105	661359	keystroke	l	n/a
330.8295	0.09	661659	keystroke	a	n/a
330.9645	0.075	661929	keystroke	n	n/a
331.2945	0.135	662589	keystroke	c	n/a
331.3845	0.105	662769	keystroke	e	n/a
331.5645	0.105	663129	keystroke	Key.space	n/a
331.8945	0.06	663789	keystroke	e	n/a
332.1495	0.06	664299	keystroke	n	n/a
332.2845	0.075	664569	keystroke	g	n/a
332.4195	0.165	664839	keystroke	i	n/a
332.5095	0.105	665019	keystroke	n	n/a
332.6445	0.06	665289	keystroke	e	n/a
332.8095	0.0755	665619	keystroke	s	n/a
334.3995	0.075	668799	keystroke	Key.backspace	n/a
334.5795	0.06	669159	keystroke	Key.backspace	n/a
334.7295	0.06	669459	keystroke	Key.backspace	n/a
334.8795	0.06	669759	keystroke	Key.backspace	n/a
335.0295	0.06	670059	keystroke	Key.backspace	n/a
335.1795	0.06	670359	keystroke	Key.backspace	n/a
335.3445	0.045	670689	keystroke	Key.backspace	n/a
335.4795	0.0895	670959	keystroke	Key.backspace	n/a
335.644	0.061	671288	keystroke	Key.backspace	n/a
335.795	0.075	671590	keystroke	Key.backspace	n/a
335.96	0.06	671920	keystroke	Key.backspace	n/a
336.125	0.045	672250	keystroke	Key.backspace	n/a
336.29	0.045	672580	keystroke	Key.backspace	n/a
336.86	0.06	673720	keystroke	e	n/a
337.25	0.06	674500	keystroke	d	n/a
337.385	0.075	674770	keystroke	i	n/a
337.565	0.075	675130	keystroke	t	n/a
337.685	0.1045	675370	keystroke	i	n/a
337.7595	0.105	675519	keystroke	o	n/a
337.955	0.075	675910	keystroke	n	n/a
338.06	0.075	676120	keystroke	s	n/a
338.15	0.06	676300	keystroke	Key.space	n/a
338.615	0.09	677230	keystroke	l	n/a
338.735	0.09	677470	keystroke	a	n/a
338.915	0.06	677830	keystroke	n	n/a
339.1545	0.135	678309	keystroke	c	n/a
339.2445	0.105	678489	keystroke	e	n/a
339.3645	0.09	678729	keystroke	Key.space	n/a
340.04	0.045	680080	keystroke	e	n/a
340.13	0.06	680260	keystroke	n	n/a
340.355	0.075	680710	keystroke	g	n/a
340.4445	0.135	680889	keystroke	i	n/a
340.5645	0.09	681129	keystroke	n	n/a
340.6995	0.06	681399	keystroke	e	n/a
340.8795	0.06	681759	keystroke	s	n/a
341.2695	0.075	682539	keystroke	Key.enter	n/a
341.3495	14.427	682699	prompt	n/a	question worldwide estimation resume\n
342.3195	0.075	684639	keystroke	q	n/a
342.4695	0.105	684939	keystroke	u	n/a
342.6195	0.06	685239	keystroke	e	n/a
342.785	0.075	685570	keystroke	s	n/a
342.98	0.06	685960	keystroke	t	n/a
343.055	0.105	686110	keystroke	i	n/a
343.1	0.1045	686200	keystroke	o	n/a
343.2645	0.075	686529	keystroke	n	n/a
343.4445	0.075	686889	keystroke	Key.space	n/a
343.8795	0.075	687759	keystroke	w	n/a
343.9845	0.105	687969	keystroke	o	n/a
344.2395	0.06	688479	keystroke	r	n/a
344.359	0.075	688718	keystroke	l	n/a
344.54	0.06	689080	keystroke	d	n/a
344.72	0.105	689440	keystroke	w	n/a
344.84	0.09	689680	keystroke	i	n/a
345.11	0.045	690220	keystroke	d	n/a
345.26	0.06	690520	keystroke	e	n/a
345.38	0.075	690760	keystroke	Key.space	n/a
345.6945	0.06	691389	keystroke	e	n/a
345.98	0.06	691960	keystroke	d	n/a
346.175	0.06	692350	keystroke	t	n/a
346.34	0.12	692680	keystroke	i	n/a
346.415	0.075	692830	keystroke	m	n/a
346.655	0.12	693310	keystroke	a	n/a
346.76	0.06	693520	keystroke	t	n/a
346.88	0.12	693760	keystroke	i	n/a
346.94	0.105	693880	keystroke	o	n/a
347.12	0.075	694240	keystroke	n	n/a
347.3	0.09	694600	keystroke	Key.space	n/a
348.6195	0.09	697239	keystroke	Key.backspace	n/a
348.8145	0.075	697629	keystroke	Key.backspace	n/a
348.9645	0.075	697929	keystroke	Key.backspace	n/a
349.1145	0.075	698229	keystroke	Key.backspace	n/a
349.2795	0.06	698559	keystroke	Key.backspace	n/a
349.4295	0.06	698859	keystroke	Key.backspace	n/a
349.73	0.09	699460	keystroke	Key.backspace	n/a
349.895	0.06	699790	keystroke	Key.backspace	n/a
350.06	0.075	700120	keystroke	Key.backspace	n/a
350.45	0.06	700900	keystroke	Key.backspace	n/a
350.93	0.045	701860	keystroke	s	n/a
351.11	0.075	702220	keystroke	t	n/a
351.29	0.075	702580	keystroke	i	n/a
351.53	0.045	703060	keystroke	m	n/a
351.68	0.06	703360	keystroke	a	n/a
351.74	0.075	703480	keystroke	t	n/a
351.845	0.105	703690	keystroke	i	n/a
351.92	0.06	703840	keystroke	o	n/a
352.055	0.075	704110	keystroke	n	n/a
352.235	0.075	704470	keystroke	Key.space	n/a
353.1345	0.09	706269	keystroke	r	n/a
353.1945	0.06	706389	keystroke	e	n/a
353.3895	0.06	706779	keystroke	s	n/a
353.4945	0.06	706989	keystroke	u	n/a
353.7645	0.075	707529	keystroke	m	n/a
353.8845	0.06	707769	keystroke	e	n/a
355.3545	0.06	710709	keystroke	Key.space	n/a
355.6845	0.09	711369	keystroke	Key.enter	n/a
355.78	10.692	711560	prompt	n/a	sustained amanda commitment ceramic\n
356.5095	0.075	713019	keystroke	s	n/a
356.6145	0.105	713229	keystroke	u	n/a
356.7345	0.06	713469	keystroke	s	n/a
357.0945	0.045	714189	keystroke	t	n/a
357.5895	0.045	715179	keystroke	a	n/a
358.414	0.12	716828	keystroke	i	n/a
358.474	0.0905	716948	keystroke	n	n/a
358.624	0.06	717248	keystroke	e	n/a
358.789	0.0755	717578	keystroke	d	n/a
358.8795	0.0895	717759	keystroke	Key.space	n/a
359.389	0.09	718778	keystroke	a	n/a
359.539	0.075	719078	keystroke	m	n/a
359.644	0.0755	719288	keystroke	a	n/a
359.7795	0.075	719559	keystroke	n	n/a
360.0345	0.045	720069	keystroke	d	n/a
360.2145	0.075	720429	keystroke	a	n/a
360.3495	0.105	720699	keystroke	Key.space	n/a
360.9645	0.075	721929	keystroke	c	n/a
361.0845	0.09	722169	keystroke	o	n/a
361.2945	0.06	722589	keystroke	m	n/a
361.3995	0.075	722799	keystroke	m	n/a
361.5945	0.075	723189	keystroke	i	n/a
361.9095	0.045	723819	keystroke	t	n/a
362.1645	0.075	724329	keystroke	m	n/a
362.3145	0.0755	724629	keystroke	e	n/a
362.4045	0.09	724809	keystroke	n	n/a
362.51	0.0895	725020	keystroke	t	n/a
363.1695	0.09	726339	keystroke	Key.space	n/a
363.3495	0.045	726699	keystroke	c	n/a
363.83	0.1345	727660	keystroke	e	n/a
363.92	0.0745	727840	keystroke	r	n/a
364.2495	0.09	728499	keystroke	a	n/a
364.4445	0.075	728889	keystroke	m	n/a
365.3595	0.09	730719	keystroke	i	n/a
365.6145	0.0905	731229	keystroke	c	n/a
365.9745	0.06	731949	keystroke	Key.space	n/a
366.3795	0.09	732759	keystroke	Key.enter	n/a
366.478	9.4285	732956	prompt	n/a	mystery enquiries there worth\n
367.34	0.06	734680	keystroke	m	n/a
367.625	0.045	735250	keystroke	y	n/a
367.745	0.09	735490	keystroke	s	n/a
367.94	0.06	735880	keystroke	t	n/a
368.135	0.12	736270	keystroke	e	n/a
368.195	0.105	736390	keystroke	r	n/a
368.4195	0.075	736839	keystroke	y	n/a
368.5695	0.075	737139	keystroke	Key.space	n/a
369.1545	0.075	738309	keystroke	e	n/a
369.544	0.045	739088	keystroke	n	n/a
369.92	0.044	739840	keystroke	q	n/a
370.054	0.075	740108	keystroke	u	n/a
370.264	0.076	740528	keystroke	i	n/a
370.43	0.0745	740860	keystroke	t	n/a
370.8645	0.075	741729	keystroke	Key.backspace	n/a
370.9995	0.075	741999	keystroke	r	n/a
371.2695	0.075	742539	keystroke	i	n/a
371.5695	0.045	743139	keystroke	e	n/a
371.7645	0.075	743529	keystroke	d	n/a
371.9445	0.075	743889	keystroke	Key.space	n/a
372.3195	0.075	744639	keystroke	Key.backspace	n/a
372.4695	0.075	744939	keystroke	Key.backspace	n/a
372.6045	0.075	745209	keystroke	s	n/a
372.6945	0.09	745389	keystroke	Key.space	n/a
373.6695	0.045	747339	keystroke	t	n/a
373.7445	0.09	747489	keystroke	h	n/a
373.8495	0.09	747699	keystroke	e	n/a
373.9245	0.09	747849	keystroke	r	n/a
374.0745	0.075	748149	keystroke	e	n/a
374.1945	0.09	748389	keystroke	Key.space	n/a
374.7495	0.09	749499	keystroke	w	n/a
374.8245	0.105	749649	keystroke	o	n/a
374.9895	0.09	749979	keystroke	r	n/a
375.1995	0.12	750399	keystroke	t	n/a
375.3345	0.105	750669	keystroke	h	n/a
375.8145	0.09	751629	keystroke	Key.enter	n/a
375.9095	11.802	751819	prompt	n/a	anybody constitutional contracting disc\n
376.5945	0.09	753189	keystroke	a	n/a
376.7745	0.075	753549	keystroke	n	n/a
376.9395	0.045	753879	keystroke	y	n/a
377.3745	0.03	754749	keystroke	b	n/a
377.5995	0.09	755199	keystroke	o	n/a
377.8245	0.075	755649	keystroke	d	n/a
378.0645	0.105	756129	keystroke	y	n/a
378.2145	0.075	756429	keystroke	Key.space	n/a
379.2495	0.045	758499	keystroke	c	n/a
379.3545	0.06	758709	keystroke	o	n/a
379.5495	0.06	759099	keystroke	n	n/a
379.7145	0.075	759429	keystroke	s	n/a
379.8495	0.075	759699	keystroke	i	n/a
380.7345	0.06	761469	keystroke	Key.backspace	n/a
380.8545	0.075	761709	keystroke	t	n/a
381.5745	0.06	763149	keystroke	i	n/a
381.77	0.074	763540	keystroke	t	n/a
381.875	0.075	763750	keystroke	u	n/a
382.25	0.045	764500	keystroke	t	n/a
382.325	0.12	764650	keystroke	i	n/a
382.4	0.09	764800	keystroke	o	n/a
382.58	0.045	765160	keystroke	n	n/a
382.685	0.075	765370	keystroke	a	n/a
382.775	0.09	765550	keystroke	l	n/a
382.999	0.075	765998	keystroke	Key.space	n/a
383.495	0.075	766990	keystroke	c	n/a
383.584	0.1205	767168	keystroke	o	n/a
383.6595	0.09	767319	keystroke	n	n/a
383.7495	0.075	767499	keystroke	t	n/a
383.9145	0.075	767829	keystroke	r	n/a
384.3945	0.135	768789	keystroke	a	n/a
384.4695	0.09	768939	keystroke	c	n/a
384.7095	0.075	769419	keystroke	t	n/a
384.9645	0.12	769929	keystroke	i	n/a
385.0395	0.105	770079	keystroke	n	n/a
385.3845	0.075	770769	keystroke	g	n/a
385.8945	0.075	771789	keystroke	Key.space	n/a
386.599	0.075	773198	keystroke	d	n/a
386.704	0.091	773408	keystroke	i	n/a
386.81	0.06	773620	keystroke	s	n/a
386.989	0.06	773978	keystroke	c	n/a
387.6345	0.075	775269	keystroke	Key.enter	n/a
387.7165	12.46	775433	prompt	n/a	suits petersburg representing benefit\n
388.564	0.075	777128	keystroke	s	n/a
388.819	0.06	777638	keystroke	u	n/a
388.999	0.09	777998	keystroke	i	n/a
389.134	0.075	778268	keystroke	t	n/a
389.299	0.075	778598	keystroke	s	n/a
389.419	0.075	778838	keystroke	Key.space	n/a
389.704	0.075	779408	keystroke	p	n/a
389.809	0.165	779618	keystroke	e	n/a
389.914	0.135	779828	keystroke	r	n/a
390.199	0.1055	780398	keystroke	e	n/a
390.5595	0.0605	781119	keystroke	Key.backspace	n/a
390.7095	0.075	781419	keystroke	Key.backspace	n/a
391.2345	0.06	782469	keystroke	t	n/a
391.43	0.12	782860	keystroke	e	n/a
391.52	0.075	783040	keystroke	r	n/a
391.955	0.06	783910	keystroke	s	n/a
392.24	0.18	784480	keystroke	b	n/a
392.375	0.105	784750	keystroke	u	n/a
392.66	0.075	785320	keystroke	r	n/a
392.855	0.06	785710	keystroke	g	n/a
392.99	0.075	785980	keystroke	Key.space	n/a
393.47	0.12	786940	keystroke	r	n/a
393.545	0.09	787090	keystroke	e	n/a
394.115	0.075	788230	keystroke	p	n/a
394.294	0.151	788588	keystroke	r	n/a
394.385	0.074	788770	keystroke	e	n/a
394.76	0.075	789520	keystroke	s	n/a
394.9995	0.075	789999	keystroke	e	n/a
395.1195	0.09	790239	keystroke	n	n/a
395.2695	0.075	790539	keystroke	t	n/a
395.3895	0.18	790779	keystroke	i	n/a
395.5095	0.105	791019	keystroke	n	n/a
395.7045	0.09	791409	keystroke	g	n/a
396.41	0.075	792820	keystroke	Key.space	n/a
396.65	0.06	793300	keystroke	b	n/a
396.785	0.06	793570	keystroke	e	n/a
396.9795	0.105	793959	keystroke	n	n/a
397.3995	0.075	794799	keystroke	e	n/a
398.1045	0.075	796209	keystroke	f	n/a
398.2695	0.105	796539	keystroke	i	n/a
398.4045	0.075	796809	keystroke	t	n/a
399.755	0.06	799510	keystroke	Key.space	n/a
400.0995	0.075	800199	keystroke	Key.enter	n/a
400.18	8.1715	800360	prompt	n/a	dryer solaris winning foods\n
400.97	0.06	801940	keystroke	d	n/a
401.15	0.045	802300	keystroke	r	n/a
401.48	0.045	802960	keystroke	y	n/a
401.795	0.12	803590	keystroke	e	n/a
401.87	0.075	803740	keystroke	r	n/a
402.11	0.015	804220	keystroke	Key.space	n/a
402.71	0.045	805420	keystroke	s	n/a
402.77	0.075	805540	keystroke	o	n/a
403.01	0.09	806020	keystroke	l	n/a
403.535	0.1345	807070	keystroke	a	n/a
403.655	0.0895	807310	keystroke	r	n/a
403.9545	0.09	807909	keystroke	i	n/a
404.1045	0.06	808209	keystroke	s	n/a
404.2245	0.06	808449	keystroke	Key.space	n/a
405.409	0.06	810818	keystroke	w	n/a
405.529	0.09	811058	keystroke	i	n/a
405.754	0.03	811508	keystroke	n	n/a
405.8745	0.0745	811749	keystroke	n	n/a
405.979	0.12	811958	keystroke	i	n/a
406.084	0.06	812168	keystroke	n	n/a
406.189	0.06	812378	keystroke	g	n/a
406.279	0.075	812558	keystroke	Key.space	n/a
406.97	0.045	813940	keystroke	f	n/a
407.075	0.06	814150	keystroke	o	n/a
407.21	0.1045	814420	keystroke	o	n/a
407.3595	0.06	814719	keystroke	d	n/a
407.5245	0.06	815049	keystroke	s	n/a
408.2895	0.06	816579	keystroke	Key.enter	n/a
408.3555	9.026	816711	prompt	n/a	sword envelope note directly\n
409.0995	0.075	818199	keystroke	s	n/a
409.5345	0.075	819069	keystroke	w	n/a
409.9845	0.09	819969	keystroke	o	n/a
410.1345	0.045	820269	keystroke	r	n/a
410.3295	0.03	820659	keystroke	d	n/a
410.4045	0.0755	820809	keystroke	Key.space	n/a
410.6445	0.09	821289	keystroke	e	n/a
411.1845	0.06	822369	keystroke	n	n/a
412.024	0.06	824048	keystroke	v	n/a
412.234	0.045	824468	keystroke	e	n/a
412.324	0.075	824648	keystroke	l	n/a
412.519	0.06	825038	keystroke	o	n/a
412.684	0.0755	825368	keystroke	p	n/a
412.8195	0.045	825639	keystroke	e	n/a
412.9845	0.045	825969	keystroke	Key.space	n/a
413.854	0.135	827708	keystroke	n	n/a
413.959	0.105	827918	keystroke	o	n/a
414.094	0.12	828188	keystroke	t	n/a
414.169	0.105	828338	keystroke	e	n/a
414.349	0.075	828698	keystroke	Key.space	n/a
414.964	0.075	829928	keystroke	d	n/a
415.369	0.0755	830738	keystroke	i	n/a
415.4895	0.06	830979	keystroke	r	n/a
415.669	0.136	831338	keystroke	e	n/a
415.76	0.06	831520	keystroke	c	n/a
415.94	0.059	831880	keystroke	t	n/a
416.359	0.075	832718	keystroke	l	n/a
416.464	0.076	832928	keystroke	y	n/a
417.2895	0.09	834579	keystroke	Key.enter	n/a
417.385	7.211	834770	prompt	n/a	rent contains rouge xanax\n
418.1145	0.09	836229	keystroke	r	n/a
418.1745	0.09	836349	keystroke	e	n/a
418.4895	0.075	836979	keystroke	n	n/a
418.5945	0.0745	837189	keystroke	t	n/a
418.684	0.09	837368	keystroke	Key.space	n/a
419.284	0.06	838568	keystroke	c	n/a
419.359	0.12	838718	keystroke	o	n/a
419.434	0.1055	838868	keystroke	n	n/a
419.5695	0.045	839139	keystroke	t	n/a
419.7195	0.075	839439	keystroke	a	n/a
419.8245	0.15	839649	keystroke	i	n/a
419.9145	0.1045	839829	keystroke	n	n/a
420.154	0.06	840308	keystroke	s	n/a
420.274	0.09	840548	keystroke	Key.space	n/a
421.2195	0.045	842439	keystroke	r	n/a
421.3845	0.12	842769	keystroke	o	n/a
421.4445	0.105	842889	keystroke	u	n/a
421.85	0.045	843700	keystroke	g	n/a
422.015	0.09	844030	keystroke	e	n/a
422.12	0.044	844240	keystroke	Key.space	n/a
423.44	0.09	846880	keystroke	x	n/a
423.62	0.0895	847240	keystroke	a	n/a
423.7995	0.09	847599	keystroke	n	n/a
423.9495	0.09	847899	keystroke	a	n/a
424.1895	0.075	848379	keystroke	x	n/a
424.5345	0.06	849069	keystroke	Key.enter	n/a
424.5995	7.9765	849199	prompt	n/a	examined chain owner christian\n
425.5845	0.045	851169	keystroke	e	n/a
425.779	0.06	851558	keystroke	x	n/a
425.959	0.075	851918	keystroke	a	n/a
426.274	0.06	852548	keystroke	m	n/a
426.469	0.121	852938	keystroke	i	n/a
426.559	0.105	853118	keystroke	n	n/a
426.784	0.06	853568	keystroke	e	n/a
426.949	0.075	853898	keystroke	d	n/a
427.039	0.0755	854078	keystroke	Key.space	n/a
427.73	0.075	855460	keystroke	c	n/a
427.85	0.06	855700	keystroke	h	n/a
427.925	0.09	855850	keystroke	a	n/a
428.089	0.136	856178	keystroke	i	n/a
428.195	0.09	856390	keystroke	n	n/a
428.404	0.075	856808	keystroke	Key.space	n/a
428.75	0.09	857500	keystroke	o	n/a
429.005	0.09	858010	keystroke	w	n/a
429.6195	0.0605	859239	keystroke	n	n/a
429.799	0.12	859598	keystroke	e	n/a
429.964	0.075	859928	keystroke	r	n/a
430.069	0.105	860138	keystroke	Key.space	n/a
430.9695	0.03	861939	keystroke	c	n/a
431.1195	0.045	862239	keystroke	h	n/a
431.2845	0.03	862569	keystroke	r	n/a
431.3895	0.06	862779	keystroke	i	n/a
431.5995	0.015	863199	keystroke	s	n/a
431.7195	0.06	863439	keystroke	t	n/a
431.8095	0.09	863619	keystroke	i	n/a
431.9595	0.06	863919	keystroke	a	n/a
432.0795	0.06	864159	keystroke	n	n/a
432.4995	0.075	864999	keystroke	Key.enter	n/a
432.579	6.927	865158	prompt	n/a	templates moon gaming suffered\n
433.43	0.044	866860	keystroke	t	n/a
433.579	0.075	867158	keystroke	e	n/a
433.684	0.075	867368	keystroke	m	n/a
433.894	0.105	867788	keystroke	p	n/a
433.954	0.075	867908	keystroke	l	n/a
434.104	0.075	868208	keystroke	a	n/a
434.299	0.12	868598	keystroke	t	n/a
434.374	0.09	868748	keystroke	e	n/a
434.614	0.06	869228	keystroke	s	n/a
434.719	0.075	869438	keystroke	Key.space	n/a
435.049	0.045	870098	keystroke	m	n/a
435.559	0.06	871118	keystroke	o	n/a
435.694	0.075	871388	keystroke	o	n/a
435.874	0.0605	871748	keystroke	n	n/a
436.0545	0.075	872109	keystroke	Key.space	n/a
436.6845	0.03	873369	keystroke	g	n/a
436.8345	0.075	873669	keystroke	a	n/a
436.9245	0.075	873849	keystroke	m	n/a
437.1345	0.135	874269	keystroke	i	n/a
437.2245	0.09	874449	keystroke	n	n/a
437.4045	0.06	874809	keystroke	g	n/a
437.4795	0.075	874959	keystroke	Key.space	n/a
438.1995	0.075	876399	keystroke	s	n/a
438.3945	0.06	876789	keystroke	u	n/a
438.5145	0.045	877029	keystroke	f	n/a
438.6045	0.075	877209	keystroke	f	n/a
438.7395	0.105	877479	keystroke	e	n/a
438.8295	0.165	877659	keystroke	r	n/a
438.9495	0.09	877899	keystroke	e	n/a
439.1295	0.09	878259	keystroke	d	n/a
439.4295	0.075	878859	keystroke	Key.enter	n/a
439.509	7.527	879018	prompt	n/a	cards libs columns thomson\n
440.09	0.105	880180	keystroke	c	n/a
440.33	0.09	880660	keystroke	a	n/a
440.524	0.061	881048	keystroke	r	n/a
440.75	0.075	881500	keystroke	d	n/a
440.93	0.06	881860	keystroke	s	n/a
441.034	0.075	882068	keystroke	Key.space	n/a
441.529	0.151	883058	keystroke	l	n/a
441.634	0.091	883268	keystroke	i	n/a
442.1	0.075	884200	keystroke	b	n/a
442.28	0.074	884560	keystroke	s	n/a
442.369	0.091	884738	keystroke	Key.space	n/a
443.165	0.075	886330	keystroke	c	n/a
443.255	0.089	886510	keystroke	o	n/a
443.495	0.074	886990	keystroke	l	n/a
443.614	0.1055	887228	keystroke	u	n/a
443.8545	0.075	887709	keystroke	m	n/a
444.049	0.0905	888098	keystroke	n	n/a
444.1995	0.06	888399	keystroke	s	n/a
444.3345	0.075	888669	keystroke	Key.space	n/a
445.0245	0.06	890049	keystroke	t	n/a
445.1445	0.06	890289	keystroke	h	n/a
445.3395	0.09	890679	keystroke	o	n/a
445.5495	0.045	891099	keystroke	m	n/a
445.7745	0.06	891549	keystroke	s	n/a
445.8945	0.105	891789	keystroke	o	n/a
446.0745	0.09	892149	keystroke	n	n/a
446.9595	0.075	893919	keystroke	Key.enter	n/a
447.0395	9.0565	894079	prompt	n/a	nearly plug destinations pentium\n
447.919	0.045	895838	keystroke	n	n/a
448.024	0.06	896048	keystroke	e	n/a
448.204	0.12	896408	keystroke	a	n/a
448.309	0.075	896618	keystroke	r	n/a
448.444	0.12	896888	keystroke	l	n/a
448.579	0.075	897158	keystroke	y	n/a
448.699	0.075	897398	keystroke	Key.space	n/a
449.269	0.1205	898538	keystroke	p	n/a
449.3145	0.09	898629	keystroke	l	n/a
449.7195	0.105	899439	keystroke	u	n/a
450.0795	0.0595	900159	keystroke	g	n/a
450.574	0.09	901148	keystroke	Key.space	n/a
451.189	0.045	902378	keystroke	d	n/a
451.34	0.044	902680	keystroke	e	n/a
451.504	0.06	903008	keystroke	s	n/a
452.269	0.06	904538	keystroke	t	n/a
452.599	0.06	905198	keystroke	i	n/a
452.824	0.045	905648	keystroke	n	n/a
453.034	0.12	906068	keystroke	a	n/a
453.139	0.06	906278	keystroke	t	n/a
453.229	0.12	906458	keystroke	i	n/a
453.289	0.105	906578	keystroke	o	n/a
453.47	0.089	906940	keystroke	n	n/a
453.604	0.06	907208	keystroke	s	n/a
453.679	0.09	907358	keystroke	Key.space	n/a
454.189	0.0455	908378	keystroke	p	n/a
454.415	0.075	908830	keystroke	e	n/a
454.595	0.0595	909190	keystroke	n	n/a
454.76	0.0745	909520	keystroke	t	n/a
454.895	0.0745	909790	keystroke	i	n/a
455.2245	0.075	910449	keystroke	u	n/a
455.4345	0.06	910869	keystroke	m	n/a
456.08	0.015	912160	keystroke	Key.enter	n/a
456.0995	9.2815	912199	prompt	n/a	glow anticipated characters certificate\n
456.935	0.06	913870	keystroke	g	n/a
457.01	0.0895	914020	keystroke	l	n/a
457.2495	0.09	914499	keystroke	o	n/a
457.4445	0.045	914889	keystroke	w	n/a
457.5345	0.075	915069	keystroke	Key.space	n/a
458.089	0.09	916178	keystroke	a	n/a
458.284	0.06	916568	keystroke	n	n/a
458.449	0.045	916898	keystroke	t	n/a
458.539	0.105	917078	keystroke	i	n/a
458.9745	0.0595	917949	keystroke	c	n/a
459.0645	0.105	918129	keystroke	i	n/a
459.3045	0.075	918609	keystroke	p	n/a
459.4095	0.075	918819	keystroke	a	n/a
459.6345	0.0895	919269	keystroke	t	n/a
459.694	0.075	919388	keystroke	e	n/a
459.874	0.06	919748	keystroke	d	n/a
459.979	0.075	919958	keystroke	Key.space	n/a
460.5495	0.045	921099	keystroke	c	n/a
460.6845	0.045	921369	keystroke	h	n/a
460.7595	0.165	921519	keystroke	a	n/a
461.0445	0.06	922089	keystroke	r	n/a
461.2245	0.105	922449	keystroke	a	n/a
461.4045	0.06	922809	keystroke	c	n/a
461.5995	0.06	923199	keystroke	t	n/a
461.6895	0.12	923379	keystroke	e	n/a
461.7945	0.06	923589	keystroke	r	n/a
461.9895	0.045	923979	keystroke	s	n/a
462.0795	0.075	924159	keystroke	Key.space	n/a
463.0995	0.015	926199	keystroke	c	n/a
463.219	0.12	926438	keystroke	e	n/a
463.324	0.075	926648	keystroke	r	n/a
463.579	0.0755	927158	keystroke	t	n/a
464.0745	0.09	928149	keystroke	i	n/a
464.1945	0.06	928389	keystroke	f	n/a
464.2995	0.09	928599	keystroke	i	n/a
464.3745	0.075	928749	keystroke	c	n/a
464.494	0.09	928988	keystroke	a	n/a
464.704	0.135	929408	keystroke	t	n/a
464.794	0.09	929588	keystroke	e	n/a
465.304	0.075	930608	keystroke	Key.enter	n/a
465.384	9.672	930768	prompt	n/a	approved chelsea compliant peoples\n
466.084	0.0605	932168	keystroke	a	n/a
466.175	0.059	932350	keystroke	p	n/a
466.325	0.075	932650	keystroke	p	n/a
466.415	0.044	932830	keystroke	r	n/a
466.505	0.09	933010	keystroke	o	n/a
466.64	0.06	933280	keystroke	v	n/a
466.789	0.06	933578	keystroke	e	n/a
466.969	0.045	933938	keystroke	d	n/a
467.059	0.075	934118	keystroke	Key.space	n/a
467.7795	0.12	935559	keystroke	c	n/a
467.9145	0.015	935829	keystroke	h	n/a
468.139	0.06	936278	keystroke	e	n/a
468.289	0.075	936578	keystroke	l	n/a
468.694	0.045	937388	keystroke	s	n/a
468.859	0.045	937718	keystroke	e	n/a
469.039	0.075	938078	keystroke	a	n/a
469.249	0.03	938498	keystroke	Key.space	n/a
469.624	0.06	939248	keystroke	c	n/a
470.7645	0.12	941529	keystroke	o	n/a
471.064	0.075	942128	keystroke	m	n/a
471.589	0.09	943178	keystroke	p	n/a
471.919	0.09	943838	keystroke	l	n/a
472.189	0.09	944378	keystroke	i	n/a
472.6995	0.06	945399	keystroke	a	n/a
472.9545	0.09	945909	keystroke	n	n/a
473.0895	0.075	946179	keystroke	t	n/a
473.2095	0.045	946419	keystroke	Key.space	n/a
473.5545	0.09	947109	keystroke	p	n/a
473.7045	0.045	947409	keystroke	e	n/a
473.7795	0.09	947559	keystroke	o	n/a
473.9295	0.135	947859	keystroke	p	n/a
474.0045	0.135	948009	keystroke	l	n/a
474.1695	0.045	948339	keystroke	e	n/a
474.3645	0.06	948729	keystroke	s	n/a
474.4995	0.06	948999	keystroke	Key.space	n/a
474.949	0.105	949898	keystroke	Key.enter	n/a
475.059	6.882	950118	prompt	n/a	attractive don't codes usually\n
475.6095	0.0905	951219	keystroke	a	n/a
475.865	0.045	951730	keystroke	t	n/a
475.955	0.06	951910	keystroke	t	n/a
476.135	0.06	952270	keystroke	r	n/a
476.344	0.15	952688	keystroke	a	n/a
476.465	0.074	952930	keystroke	c	n/a
476.69	0.059	953380	keystroke	t	n/a
476.8545	0.075	953709	keystroke	i	n/a
476.9745	0.09	953949	keystroke	v	n/a
477.0645	0.09	954129	keystroke	e	n/a
477.1995	0.075	954399	keystroke	Key.space	n/a
477.979	0.06	955958	keystroke	d	n/a
478.069	0.135	956138	keystroke	o	n/a
478.159	0.075	956318	keystroke	n	n/a
478.384	0.105	956768	keystroke	'	n/a
478.504	0.075	957008	keystroke	t	n/a
478.654	0.075	957308	keystroke	Key.space	n/a
479.389	0.06	958778	keystroke	c	n/a
479.495	0.104	958990	keystroke	o	n/a
479.7645	0.045	959529	keystroke	d	n/a
479.9145	0.06	959829	keystroke	e	n/a
480.0945	0.06	960189	keystroke	s	n/a
480.2295	0.075	960459	keystroke	Key.space	n/a
480.7695	0.06	961539	keystroke	u	n/a
480.874	0.045	961748	keystroke	s	n/a
480.934	0.075	961868	keystroke	u	n/a
481.039	0.075	962078	keystroke	a	n/a
481.174	0.06	962348	keystroke	l	n/a
481.294	0.09	962588	keystroke	l	n/a
481.385	0.089	962770	keystroke	y	n/a
481.864	0.075	963728	keystroke	Key.enter	n/a
481.9465	10.8545	963893	prompt	n/a	title broke sexuality descending\n
482.8545	0.06	965709	keystroke	t	n/a
482.9445	0.105	965889	keystroke	i	n/a
483.0345	0.075	966069	keystroke	t	n/a
483.1845	0.105	966369	keystroke	l	n/a
483.3045	0.06	966609	keystroke	e	n/a
483.4545	0.06	966909	keystroke	Key.space	n/a
484.025	0.06	968050	keystroke	b	n/a
484.145	0.06	968290	keystroke	r	n/a
484.264	0.091	968528	keystroke	o	n/a
484.64	0.09	969280	keystroke	k	n/a
484.76	0.059	969520	keystroke	e	n/a
484.879	0.06	969758	keystroke	Key.space	n/a
485.914	0.06	971828	keystroke	s	n/a
486.094	0.06	972188	keystroke	e	n/a
486.409	0.06	972818	keystroke	x	n/a
486.5295	0.075	973059	keystroke	u	n/a
486.6345	0.075	973269	keystroke	a	n/a
488.24	0.075	976480	keystroke	l	n/a
488.719	0.061	977438	keystroke	i	n/a
489.1545	0.06	978309	keystroke	t	n/a
489.3195	0.075	978639	keystroke	y	n/a
489.4245	0.06	978849	keystroke	Key.space	n/a
490.4745	0.03	980949	keystroke	d	n/a
490.6095	0.075	981219	keystroke	e	n/a
490.7895	0.06	981579	keystroke	s	n/a
490.9695	0.045	981939	keystroke	c	n/a
491.2095	0.045	982419	keystroke	e	n/a
491.3745	0.075	982749	keystroke	n	n/a
491.764	0.06	983528	keystroke	d	n/a
491.914	0.12	983828	keystroke	i	n/a
492.004	0.09	984008	keystroke	n	n/a
492.139	0.075	984278	keystroke	g	n/a
492.229	0.075	984458	keystroke	Key.space	n/a
492.694	0.105	985388	keystroke	Key.enter	n/a
492.8045	7.4065	985609	prompt	n/a	wayne safety across wearing\n
493.549	0.045	987098	keystroke	w	n/a
493.6995	0.09	987399	keystroke	a	n/a
493.9545	0.06	987909	keystroke	y	n/a
494.1645	0.09	988329	keystroke	n	n/a
494.3295	0.06	988659	keystroke	e	n/a
494.4045	0.09	988809	keystroke	Key.space	n/a
495.3945	0.045	990789	keystroke	s	n/a
495.529	0.075	991058	keystroke	a	n/a
495.754	0.06	991508	keystroke	f	n/a
495.889	0.135	991778	keystroke	e	n/a
496.474	0.075	992948	keystroke	t	n/a
496.639	0.09	993278	keystroke	y	n/a
496.894	0.09	993788	keystroke	Key.space	n/a
497.554	0.1055	995108	keystroke	a	n/a
497.7645	0.03	995529	keystroke	c	n/a
497.9145	0.06	995829	keystroke	r	n/a
498.0195	0.105	996039	keystroke	o	n/a
498.1695	0.03	996339	keystroke	s	n/a
498.2595	0.09	996519	keystroke	s	n/a
498.3945	0.0745	996789	keystroke	Key.space	n/a
498.754	0.075	997508	keystroke	w	n/a
498.934	0.076	997868	keystroke	e	n/a
499.099	0.075	998198	keystroke	a	n/a
499.264	0.075	998528	keystroke	r	n/a
499.399	0.18	998798	keystroke	i	n/a
499.505	0.104	999010	keystroke	n	n/a
499.594	0.06	999188	keystroke	g	n/a
500.119	0.09	1000238	keystroke	Key.enter	n/a
500.214	7.3175	1000428	prompt	n/a	carriers basement graduates court\n
500.915	0.059	1001830	keystroke	c	n/a
501.004	0.091	1002008	keystroke	a	n/a
501.214	0.015	1002428	keystroke	r	n/a
501.304	0.06	1002608	keystroke	r	n/a
501.409	0.105	1002818	keystroke	i	n/a
501.559	0.106	1003118	keystroke	e	n/a
501.649	0.06	1003298	keystroke	r	n/a
501.859	0.06	1003718	keystroke	s	n/a
501.934	0.0755	1003868	keystroke	Key.space	n/a
502.5045	0.045	1005009	keystroke	b	n/a
502.5795	0.075	1005159	keystroke	a	n/a
502.7595	0.045	1005519	keystroke	s	n/a
502.9695	0.03	1005939	keystroke	e	n/a
503.0445	0.09	1006089	keystroke	m	n/a
503.1945	0.075	1006389	keystroke	e	n/a
503.2995	0.075	1006599	keystroke	n	n/a
503.4195	0.075	1006839	keystroke	t	n/a
503.5245	0.075	1007049	keystroke	Key.space	n/a
504.3795	0.045	1008759	keystroke	g	n/a
504.529	0.03	1009058	keystroke	r	n/a
504.7095	0.0895	1009419	keystroke	a	n/a
504.9795	0.0445	1009959	keystroke	d	n/a
505.159	0.075	1010318	keystroke	u	n/a
505.369	0.076	1010738	keystroke	a	n/a
505.565	0.089	1011130	keystroke	t	n/a
505.625	0.06	1011250	keystroke	e	n/a
505.819	0.061	1011638	keystroke	s	n/a
505.909	0.09	1011818	keystroke	Key.space	n/a
506.4645	0.06	1012929	keystroke	c	n/a
506.5845	0.1645	1013169	keystroke	o	n/a
506.6595	0.12	1013319	keystroke	u	n/a
506.8995	0.06	1013799	keystroke	r	n/a
507.0795	0.06	1014159	keystroke	t	n/a
507.4395	0.09	1014879	keystroke	Key.enter	n/a
507.5345	8.2465	1015069	prompt	n/a	inspections seal affect contacts\n
508.3095	0.135	1016619	keystroke	i	n/a
508.3845	0.105	1016769	keystroke	n	n/a
508.5195	0.075	1017039	keystroke	s	n/a
508.6845	0.06	1017369	keystroke	p	n/a
508.7895	0.045	1017579	keystroke	e	n/a
508.9245	0.06	1017849	keystroke	c	n/a
509.1045	0.075	1018209	keystroke	t	n/a
509.1945	0.105	1018389	keystroke	i	n/a
509.2395	0.105	1018479	keystroke	o	n/a
509.4345	0.0755	1018869	keystroke	n	n/a
509.569	0.045	1019138	keystroke	s	n/a
509.6595	0.075	1019319	keystroke	Key.space	n/a
510.184	0.06	1020368	keystroke	s	n/a
510.379	0.091	1020758	keystroke	e	n/a
511.0695	0.105	1022139	keystroke	a	n/a
511.1895	0.06	1022379	keystroke	l	n/a
511.3845	0.075	1022769	keystroke	Key.space	n/a
511.7895	0.09	1023579	keystroke	a	n/a
511.9995	0.165	1023999	keystroke	f	n/a
512.629	0.03	1025258	keystroke	f	n/a
512.779	0.18	1025558	keystroke	e	n/a
512.915	0.059	1025830	keystroke	c	n/a
513.11	0.074	1026220	keystroke	t	n/a
513.229	0.075	1026458	keystroke	Key.space	n/a
514.039	0.045	1028078	keystroke	c	n/a
514.1	0.119	1028200	keystroke	o	n/a
514.189	0.06	1028378	keystroke	n	n/a
514.279	0.075	1028558	keystroke	t	n/a
514.459	0.135	1028918	keystroke	a	n/a
514.564	0.06	1029128	keystroke	c	n/a
514.774	0.06	1029548	keystroke	t	n/a
514.954	0.0755	1029908	keystroke	s	n/a
515.6895	0.09	1031379	keystroke	Key.enter	n/a
515.784	9.1175	1031568	prompt	n/a	sharing realistic hazard quickly\n
516.605	0.0445	1033210	keystroke	s	n/a
516.8595	0.075	1033719	keystroke	h	n/a
516.9945	0.09	1033989	keystroke	a	n/a
517.0995	0.09	1034199	keystroke	r	n/a
517.2345	0.105	1034469	keystroke	i	n/a
517.2795	0.09	1034559	keystroke	n	n/a
517.3545	0.075	1034709	keystroke	g	n/a
517.4895	0.09	1034979	keystroke	Key.space	n/a
518.1045	0.075	1036209	keystroke	r	n/a
518.2995	0.075	1036599	keystroke	a	n/a
518.6445	0.09	1037289	keystroke	Key.backspace	n/a
518.7645	0.045	1037529	keystroke	e	n/a
518.9295	0.075	1037859	keystroke	a	n/a
519.2595	0.12	1038519	keystroke	l	n/a
519.5295	0.09	1039059	keystroke	i	n/a
519.754	0.075	1039508	keystroke	s	n/a
520.04	0.074	1040080	keystroke	t	n/a
520.16	0.1045	1040320	keystroke	i	n/a
520.3245	0.06	1040649	keystroke	c	n/a
520.4145	0.075	1040829	keystroke	Key.space	n/a
521.5245	0.06	1043049	keystroke	h	n/a
521.6295	0.09	1043259	keystroke	a	n/a
522.0345	0.06	1044069	keystroke	z	n/a
522.1995	0.075	1044399	keystroke	a	n/a
522.3945	0.045	1044789	keystroke	r	n/a
522.5895	0.045	1045179	keystroke	d	n/a
522.6795	0.075	1045359	keystroke	Key.space	n/a
523.4745	0.105	1046949	keystroke	q	n/a
523.6395	0.06	1047279	keystroke	u	n/a
523.8195	0.06	1047639	keystroke	i	n/a
523.9395	0.06	1047879	keystroke	c	n/a
524.1495	0.075	1048299	keystroke	k	n/a
524.3295	0.075	1048659	keystroke	l	n/a
524.4195	0.09	1048839	keystroke	y	n/a
524.8245	0.075	1049649	keystroke	Key.enter	n/a
524.906	10.33	1049812	prompt	n/a	literary constitute generations hospitality\n
525.7245	0.1495	1051449	keystroke	l	n/a
525.829	0.09	1051658	keystroke	i	n/a
526.024	0.06	1052048	keystroke	t	n/a
526.159	0.1355	1052318	keystroke	e	n/a
526.2495	0.09	1052499	keystroke	r	n/a
526.4145	0.1645	1052829	keystroke	a	n/a
526.564	0.09	1053128	keystroke	r	n/a
526.789	0.09	1053578	keystroke	y	n/a
526.909	0.075	1053818	keystroke	Key.space	n/a
527.4495	0.06	1054899	keystroke	c	n/a
527.5545	0.1195	1055109	keystroke	o	n/a
527.6295	0.0895	1055259	keystroke	n	n/a
527.854	0.06	1055708	keystroke	s	n/a
528.019	0.06	1056038	keystroke	t	n/a
528.094	0.105	1056188	keystroke	i	n/a
528.229	0.09	1056458	keystroke	t	n/a
528.439	0.075	1056878	keystroke	u	n/a
529.084	0.09	1058168	keystroke	t	n/a
529.204	0.09	1058408	keystroke	e	n/a
529.3545	0.075	1058709	keystroke	Key.space	n/a
530.7045	0.06	1061409	keystroke	g	n/a
530.8695	0.045	1061739	keystroke	e	n/a
530.9595	0.06	1061919	keystroke	n	n/a
531.0495	0.1195	1062099	keystroke	e	n/a
531.139	0.075	1062278	keystroke	r	n/a
531.29	0.0885	1062580	keystroke	a	n/a
531.3945	0.075	1062789	keystroke	t	n/a
531.5295	0.105	1063059	keystroke	i	n/a
531.5745	0.105	1063149	keystroke	o	n/a
531.7395	0.09	1063479	keystroke	n	n/a
531.8745	0.059	1063749	keystroke	s	n/a
531.9495	0.074	1063899	keystroke	Key.space	n/a
532.4885	0.046	1064977	keystroke	h	n/a
532.6995	0.1045	1065399	keystroke	o	n/a
532.9245	0.045	1065849	keystroke	s	n/a
533.0445	0.105	1066089	keystroke	p	n/a
533.2395	0.074	1066479	keystroke	i	n/a
533.5395	0.045	1067079	keystroke	t	n/a
533.6895	0.09	1067379	keystroke	a	n/a
534.199	0.0455	1068398	keystroke	l	n/a
534.379	0.0605	1068758	keystroke	i	n/a
534.4845	0.06	1068969	keystroke	t	n/a
534.6645	0.06	1069329	keystroke	y	n/a
534.754	0.09	1069508	keystroke	Key.space	n/a
535.1445	0.09	1070289	keystroke	Key.enter	n/a
535.239	9.927	1070478	prompt	n/a	statutes marine helicopter adjustment\n
536.0445	0.06	1072089	keystroke	s	n/a
536.2095	0.06	1072419	keystroke	t	n/a
536.3445	0.09	1072689	keystroke	a	n/a
536.4495	0.06	1072899	keystroke	t	n/a
536.5545	0.09	1073109	keystroke	u	n/a
536.9295	0.045	1073859	keystroke	e	n/a
537.0945	0.045	1074189	keystroke	s	n/a
537.1845	0.09	1074369	keystroke	Key.space	n/a
537.5745	0.1195	1075149	keystroke	m	n/a
537.934	0.06	1075868	keystroke	a	n/a
538.1145	0.059	1076229	keystroke	r	n/a
538.2485	0.091	1076497	keystroke	i	n/a
538.4735	0.076	1076947	keystroke	n	n/a
538.5795	0.074	1077159	keystroke	e	n/a
538.6985	0.075	1077397	keystroke	Key.space	n/a
539.5535	0.061	1079107	keystroke	h	n/a
539.719	0.045	1079438	keystroke	e	n/a
539.809	0.105	1079618	keystroke	l	n/a
540.109	0.075	1080218	keystroke	i	n/a
541.3085	0.06	1082617	keystroke	c	n/a
541.3845	0.074	1082769	keystroke	o	n/a
541.6385	0.0755	1083277	keystroke	p	n/a
542.149	0.045	1084298	keystroke	t	n/a
542.404	0.105	1084808	keystroke	e	n/a
542.464	0.075	1084928	keystroke	r	n/a
542.629	0.075	1085258	keystroke	Key.space	n/a
542.989	0.105	1085978	keystroke	a	n/a
543.334	0.06	1086668	keystroke	d	n/a
543.499	0.06	1086998	keystroke	j	n/a
543.679	0.06	1087358	keystroke	u	n/a
543.784	0.06	1087568	keystroke	s	n/a
543.979	0.045	1087958	keystroke	t	n/a
544.144	0.09	1088288	keystroke	m	n/a
544.309	0.06	1088618	keystroke	e	n/a
544.384	0.09	1088768	keystroke	n	n/a
544.504	0.06	1089008	keystroke	t	n/a
544.639	0.09	1089278	keystroke	s	n/a
545.059	0.105	1090118	keystroke	Key.enter	n/a
545.1695	9.746	1090339	prompt	n/a	elections instances burton disks\n
545.8695	0.06	1091739	keystroke	e	n/a
546.139	0.045	1092278	keystroke	e	n/a
546.6345	0.075	1093269	keystroke	Key.backspace	n/a
547.2045	0.075	1094409	keystroke	l	n/a
547.3695	0.165	1094739	keystroke	e	n/a
547.4895	0.06	1094979	keystroke	c	n/a
547.6845	0.03	1095369	keystroke	t	n/a
547.7745	0.105	1095549	keystroke	i	n/a
547.8195	0.09	1095639	keystroke	o	n/a
547.9995	0.075	1095999	keystroke	n	n/a
548.1045	0.045	1096209	keystroke	s	n/a
548.2245	0.075	1096449	keystroke	Key.space	n/a
548.7945	0.135	1097589	keystroke	i	n/a
548.8995	0.06	1097799	keystroke	n	n/a
548.9295	0.075	1097859	keystroke	s	n/a
549.1095	0.06	1098219	keystroke	t	n/a
549.2445	0.075	1098489	keystroke	a	n/a
549.3645	0.09	1098729	keystroke	n	n/a
549.4995	0.12	1098999	keystroke	c	n/a
549.6045	0.045	1099209	keystroke	e	n/a
549.784	0.03	1099568	keystroke	s	n/a
549.919	0.075	1099838	keystroke	Key.space	n/a
551.254	0.06	1102508	keystroke	b	n/a
551.464	0.09	1102928	keystroke	u	n/a
551.599	0.075	1103198	keystroke	t	n/a
552.004	0.06	1104008	keystroke	Key.backspace	n/a
552.1095	0.0445	1104219	keystroke	r	n/a
552.3045	0.075	1104609	keystroke	t	n/a
552.5145	0.1195	1105029	keystroke	o	n/a
552.589	0.06	1105178	keystroke	n	n/a
552.799	0.075	1105598	keystroke	Key.space	n/a
553.7585	0.015	1107517	keystroke	d	n/a
553.8035	0.075	1107607	keystroke	i	n/a
553.8945	0.044	1107789	keystroke	s	n/a
554.2535	0.045	1108507	keystroke	k	n/a
554.3285	0.075	1108657	keystroke	s	n/a
554.8545	0.06	1109709	keystroke	Key.enter	n/a
554.919	11.187	1109838	prompt	n/a	decided existence evaluating didn't\n
555.8895	0.06	1111779	keystroke	d	n/a
556.0695	0.045	1112139	keystroke	e	n/a
556.2495	0.0595	1112499	keystroke	c	n/a
556.339	0.105	1112678	keystroke	i	n/a
556.489	0.075	1112978	keystroke	d	n/a
556.699	0.045	1113398	keystroke	e	n/a
556.864	0.045	1113728	keystroke	d	n/a
556.954	0.075	1113908	keystroke	Key.space	n/a
557.5245	0.06	1115049	keystroke	e	n/a
557.7495	0.045	1115499	keystroke	x	n/a
557.9295	0.075	1115859	keystroke	i	n/a
558.0345	0.06	1116069	keystroke	s	n/a
558.6345	0.0445	1117269	keystroke	t	n/a
558.799	0.06	1117598	keystroke	e	n/a
558.904	0.075	1117808	keystroke	n	n/a
559.129	0.105	1118258	keystroke	c	n/a
559.294	0.09	1118588	keystroke	e	n/a
559.444	0.075	1118888	keystroke	Key.space	n/a
560.2695	0.074	1120539	keystroke	e	n/a
560.6295	0.075	1121259	keystroke	v	n/a
560.7495	0.075	1121499	keystroke	a	n/a
560.8845	0.135	1121769	keystroke	l	n/a
561.0195	0.105	1122039	keystroke	u	n/a
561.2745	0.09	1122549	keystroke	a	n/a
561.3945	0.06	1122789	keystroke	t	n/a
561.4845	0.09	1122969	keystroke	i	n/a
561.5145	0.105	1123029	keystroke	o	n/a
561.9795	0.075	1123959	keystroke	Key.backspace	n/a
562.2345	0.06	1124469	keystroke	n	n/a
562.4295	0.045	1124859	keystroke	Key.space	n/a
563.059	0.075	1126118	keystroke	Key.backspace	n/a
563.149	0.03	1126298	keystroke	g	n/a
563.209	0.06	1126418	keystroke	Key.space	n/a
564.544	0.075	1129088	keystroke	d	n/a
564.814	0.075	1129628	keystroke	i	n/a
564.919	0.075	1129838	keystroke	d	n/a
565.024	0.06	1130048	keystroke	n	n/a
565.2945	0.1045	1130589	keystroke	'	n/a
565.414	0.06	1130828	keystroke	t	n/a
565.594	0.045	1131188	keystroke	Key.space	n/a
566.014	0.0895	1132028	keystroke	Key.enter	n/a
566.109	10.257	1132218	prompt	n/a	penetration decision quotations liabilities\n
567.124	0.075	1134248	keystroke	p	n/a
567.304	0.06	1134608	keystroke	e	n/a
567.409	0.06	1134818	keystroke	n	n/a
567.499	0.075	1134998	keystroke	e	n/a
567.694	0.06	1135388	keystroke	t	n/a
567.859	0.06	1135718	keystroke	r	n/a
568.069	0.0905	1136138	keystroke	a	n/a
568.1895	0.105	1136379	keystroke	t	n/a
568.3395	0.105	1136679	keystroke	i	n/a
568.3845	0.12	1136769	keystroke	o	n/a
568.5495	0.09	1137099	keystroke	n	n/a
568.7595	0.075	1137519	keystroke	Key.space	n/a
569.344	0.06	1138688	keystroke	d	n/a
569.524	0.045	1139048	keystroke	e	n/a
569.674	0.06	1139348	keystroke	c	n/a
569.824	0.06	1139648	keystroke	i	n/a
569.944	0.045	1139888	keystroke	s	n/a
570.034	0.1355	1140068	keystroke	i	n/a
570.079	0.12	1140158	keystroke	o	n/a
570.304	0.0605	1140608	keystroke	n	n/a
570.4845	0.0745	1140969	keystroke	Key.space	n/a
571.069	0.075	1142138	keystroke	q	n/a
571.249	0.075	1142498	keystroke	u	n/a
571.624	0.0755	1143248	keystroke	o	n/a
571.8795	0.0445	1143759	keystroke	t	n/a
572.014	0.105	1144028	keystroke	a	n/a
572.104	0.075	1144208	keystroke	t	n/a
572.209	0.0905	1144418	keystroke	i	n/a
572.269	0.075	1144538	keystroke	o	n/a
572.419	0.09	1144838	keystroke	n	n/a
572.524	0.06	1145048	keystroke	s	n/a
572.629	0.09	1145258	keystroke	Key.space	n/a
573.619	0.0595	1147238	keystroke	l	n/a
573.7835	0.06	1147567	keystroke	i	n/a
574.0235	0.0605	1148047	keystroke	a	n/a
574.3085	0.06	1148617	keystroke	b	n/a
574.489	0.0745	1148978	keystroke	i	n/a
574.7285	0.105	1149457	keystroke	l	n/a
574.9095	0.0895	1149819	keystroke	i	n/a
575.149	0.0755	1150298	keystroke	t	n/a
575.2545	0.135	1150509	keystroke	i	n/a
575.569	0.045	1151138	keystroke	e	n/a
575.749	0.045	1151498	keystroke	s	n/a
575.809	0.09	1151618	keystroke	Key.space	n/a
576.3045	0.06	1152609	keystroke	Key.enter	n/a
576.369	9.7165	1152738	prompt	n/a	holly shower generic transformation\n
577.354	0.061	1154708	keystroke	h	n/a
577.519	0.075	1155038	keystroke	o	n/a
577.774	0.045	1155548	keystroke	l	n/a
577.879	0.105	1155758	keystroke	l	n/a
577.999	0.06	1155998	keystroke	y	n/a
578.119	0.075	1156238	keystroke	Key.space	n/a
578.9295	0.045	1157859	keystroke	s	n/a
579.064	0.045	1158128	keystroke	h	n/a
579.229	0.075	1158458	keystroke	o	n/a
579.334	0.0605	1158668	keystroke	w	n/a
579.5445	0.074	1159089	keystroke	e	n/a
579.784	0.06	1159568	keystroke	r	n/a
579.904	0.09	1159808	keystroke	Key.space	n/a
580.6095	0.029	1161219	keystroke	g	n/a
580.7435	0.06	1161487	keystroke	e	n/a
580.8495	0.074	1161699	keystroke	n	n/a
580.9395	0.105	1161879	keystroke	e	n/a
581.0585	0.06	1162117	keystroke	r	n/a
581.3435	0.09	1162687	keystroke	i	n/a
581.4945	0.06	1162989	keystroke	c	n/a
582.214	0.06	1164428	keystroke	Key.space	n/a
582.6935	0.045	1165387	keystroke	t	n/a
582.8585	0.045	1165717	keystroke	r	n/a
583.0535	0.0605	1166107	keystroke	a	n/a
583.159	0.075	1166318	keystroke	n	n/a
583.309	0.06	1166618	keystroke	s	n/a
583.9545	0.06	1167909	keystroke	f	n/a
584.044	0.09	1168088	keystroke	o	n/a
584.209	0.06	1168418	keystroke	r	n/a
584.8235	0.075	1169647	keystroke	m	n/a
585.0035	0.09	1170007	keystroke	a	n/a
585.1085	0.0605	1170217	keystroke	t	n/a
585.244	0.12	1170488	keystroke	i	n/a
585.289	0.105	1170578	keystroke	o	n/a
585.484	0.075	1170968	keystroke	n	n/a
586.009	0.075	1172018	keystroke	Key.enter	n/a
586.091	9.9095	1172182	prompt	n/a	forward tests restricted concerning\n
586.969	0.045	1173938	keystroke	f	n/a
587.044	0.075	1174088	keystroke	o	n/a
587.134	0.0745	1174268	keystroke	r	n/a
587.464	0.06	1174928	keystroke	w	n/a
587.6285	0.091	1175257	keystroke	a	n/a
587.8545	0.06	1175709	keystroke	r	n/a
588.1545	0.06	1176309	keystroke	d	n/a
588.2595	0.06	1176519	keystroke	Key.space	n/a
588.799	0.075	1177598	keystroke	t	n/a
589.009	0.075	1178018	keystroke	e	n/a
589.234	0.06	1178468	keystroke	s	n/a
589.489	0.045	1178978	keystroke	t	n/a
589.744	0.06	1179488	keystroke	s	n/a
589.894	0.06	1179788	keystroke	Key.space	n/a
590.5845	0.105	1181169	keystroke	r	n/a
590.6595	0.075	1181319	keystroke	e	n/a
590.8545	0.06	1181709	keystroke	s	n/a
591.1095	0.0595	1182219	keystroke	t	n/a
591.274	0.06	1182548	keystroke	r	n/a
591.409	0.075	1182818	keystroke	i	n/a
591.619	0.045	1183238	keystroke	c	n/a
591.9495	0.045	1183899	keystroke	t	n/a
592.0845	0.06	1184169	keystroke	e	n/a
592.2645	0.09	1184529	keystroke	d	n/a
592.4445	0.075	1184889	keystroke	Key.space	n/a
592.9695	0.089	1185939	keystroke	c	n/a
593.1045	0.105	1186209	keystroke	o	n/a
593.3135	0.09	1186627	keystroke	n	n/a
593.4495	0.059	1186899	keystroke	c	n/a
593.6435	0.12	1187287	keystroke	e	n/a
593.7195	0.105	1187439	keystroke	r	n/a
593.9145	0.09	1187829	keystroke	n	n/a
594.9035	0.106	1189807	keystroke	i	n/a
594.9645	0.09	1189929	keystroke	n	n/a
595.0235	0.091	1190047	keystroke	g	n/a
595.1585	0.075	1190317	keystroke	Key.space	n/a
595.9085	0.09	1191817	keystroke	Key.enter	n/a
596.0045	6.7465	1192009	prompt	n/a	boom chief prefers anywhere\n
596.869	0.075	1193738	keystroke	b	n/a
597.109	0.045	1194218	keystroke	o	n/a
597.259	0.09	1194518	keystroke	o	n/a
597.469	0.045	1194938	keystroke	m	n/a
597.634	0.075	1195268	keystroke	Key.space	n/a
597.859	0.09	1195718	keystroke	c	n/a
598.2035	0.031	1196407	keystroke	h	n/a
598.3685	0.061	1196737	keystroke	i	n/a
598.609	0.045	1197218	keystroke	e	n/a
598.774	0.06	1197548	keystroke	f	n/a
598.894	0.06	1197788	keystroke	Key.space	n/a
599.479	0.075	1198958	keystroke	p	n/a
599.584	0.12	1199168	keystroke	r	n/a
599.674	0.075	1199348	keystroke	e	n/a
599.854	0.075	1199708	keystroke	f	n/a
600.019	0.09	1200038	keystroke	e	n/a
600.124	0.06	1200248	keystroke	r	n/a
600.319	0.06	1200638	keystroke	s	n/a
600.424	0.09	1200848	keystroke	Key.space	n/a
601.219	0.075	1202438	keystroke	a	n/a
601.474	0.075	1202948	keystroke	n	n/a
601.609	0.06	1203218	keystroke	y	n/a
601.924	0.0745	1203848	keystroke	w	n/a
601.9995	0.06	1203999	keystroke	h	n/a
602.1195	0.105	1204239	keystroke	e	n/a
602.2545	0.06	1204509	keystroke	r	n/a
602.3895	0.06	1204779	keystroke	e	n/a
602.6895	0.06	1205379	keystroke	Key.enter	n/a
602.754	6.8065	1205508	prompt	n/a	gallery priest dresses writers\n
603.559	0.045	1207118	keystroke	g	n/a
603.649	0.09	1207298	keystroke	a	n/a
603.769	0.045	1207538	keystroke	l	n/a
603.904	0.075	1207808	keystroke	l	n/a
603.994	0.105	1207988	keystroke	e	n/a
604.084	0.06	1208168	keystroke	r	n/a
604.294	0.06	1208588	keystroke	y	n/a
604.399	0.075	1208798	keystroke	Key.space	n/a
604.849	0.0895	1209698	keystroke	p	n/a
604.9985	0.061	1209997	keystroke	r	n/a
605.1185	0.0905	1210237	keystroke	i	n/a
605.314	0.06	1210628	keystroke	e	n/a
605.494	0.045	1210988	keystroke	s	n/a
605.689	0.03	1211378	keystroke	t	n/a
605.779	0.075	1211558	keystroke	Key.space	n/a
606.739	0.06	1213478	keystroke	d	n/a
606.919	0.105	1213838	keystroke	r	n/a
607.039	0.09	1214078	keystroke	e	n/a
607.264	0.045	1214528	keystroke	s	n/a
607.369	0.06	1214738	keystroke	s	n/a
607.549	0.045	1215098	keystroke	e	n/a
607.729	0.03	1215458	keystroke	s	n/a
607.804	0.09	1215608	keystroke	Key.space	n/a
608.089	0.045	1216178	keystroke	w	n/a
608.284	0.06	1216568	keystroke	r	n/a
608.434	0.075	1216868	keystroke	i	n/a
608.554	0.06	1217108	keystroke	t	n/a
608.719	0.105	1217438	keystroke	e	n/a
608.899	0.075	1217798	keystroke	r	n/a
609.079	0.075	1218158	keystroke	s	n/a
609.484	0.075	1218968	keystroke	Key.enter	n/a
609.564	7.6915	1219128	prompt	n/a	leader territories divorce form\n
610.399	0.06	1220798	keystroke	l	n/a
610.489	0.06	1220978	keystroke	e	n/a
610.654	0.06	1221308	keystroke	a	n/a
611.014	0.06	1222028	keystroke	d	n/a
611.239	0.15	1222478	keystroke	e	n/a
611.374	0.105	1222748	keystroke	r	n/a
611.5835	0.075	1223167	keystroke	Key.space	n/a
611.914	0.075	1223828	keystroke	t	n/a
612.0645	0.0745	1224129	keystroke	e	n/a
612.259	0.0305	1224518	keystroke	r	n/a
612.364	0.06	1224728	keystroke	r	n/a
612.439	0.09	1224878	keystroke	i	n/a
612.604	0.06	1225208	keystroke	t	n/a
612.709	0.075	1225418	keystroke	o	n/a
612.844	0.06	1225688	keystroke	r	n/a
612.9645	0.105	1225929	keystroke	i	n/a
613.0995	0.045	1226199	keystroke	e	n/a
613.2945	0.06	1226589	keystroke	s	n/a
613.9995	0.06	1227999	keystroke	Key.space	n/a
614.524	0.06	1229048	keystroke	d	n/a
614.629	0.075	1229258	keystroke	i	n/a
614.749	0.045	1229498	keystroke	v	n/a
614.959	0.06	1229918	keystroke	o	n/a
615.139	0.045	1230278	keystroke	r	n/a
615.379	0.12	1230758	keystroke	c	n/a
615.469	0.09	1230938	keystroke	e	n/a
615.754	0.0605	1231508	keystroke	Key.space	n/a
616.3245	0.045	1232649	keystroke	f	n/a
616.3995	0.075	1232799	keystroke	o	n/a
616.5045	0.09	1233009	keystroke	r	n/a
616.6395	0.06	1233279	keystroke	m	n/a
617.1795	0.075	1234359	keystroke	Key.enter	n/a
617.2585	6.747	1234517	prompt	n/a	months correct earn prison\n
618.0645	0.045	1236129	keystroke	m	n/a
618.2145	0.12	1236429	keystroke	o	n/a
618.3645	0.075	1236729	keystroke	n	n/a
618.5895	0.105	1237179	keystroke	t	n/a
618.7095	0.09	1237419	keystroke	h	n/a
618.8595	0.09	1237719	keystroke	s	n/a
618.9945	0.06	1237989	keystroke	Key.space	n/a
619.6395	0.0595	1239279	keystroke	c	n/a
619.714	0.09	1239428	keystroke	o	n/a
619.849	0.045	1239698	keystroke	r	n/a
619.969	0.06	1239938	keystroke	r	n/a
620.119	0.1355	1240238	keystroke	e	n/a
620.1945	0.075	1240389	keystroke	c	n/a
620.4045	0.06	1240809	keystroke	t	n/a
620.5695	0.06	1241139	keystroke	Key.space	n/a
621.0495	0.075	1242099	keystroke	e	n/a
621.2145	0.0745	1242429	keystroke	a	n/a
621.409	0.06	1242818	keystroke	r	n/a
621.574	0.075	1243148	keystroke	n	n/a
621.754	0.075	1243508	keystroke	Key.space	n/a
622.309	0.075	1244618	keystroke	p	n/a
622.549	0.0605	1245098	keystroke	r	n/a
622.6545	0.06	1245309	keystroke	i	n/a
622.9995	0.045	1245999	keystroke	s	n/a
623.1045	0.15	1246209	keystroke	o	n/a
623.2245	0.09	1246449	keystroke	n	n/a
623.929	0.075	1247858	keystroke	Key.enter	n/a
624.009	8.3065	1248018	prompt	n/a	episode battlefield trembl merge\n
624.7235	0.061	1249447	keystroke	e	n/a
624.8895	0.074	1249779	keystroke	p	n/a
625.0545	0.074	1250109	keystroke	i	n/a
625.1745	0.0595	1250349	keystroke	s	n/a
625.264	0.09	1250528	keystroke	o	n/a
625.459	0.06	1250918	keystroke	d	n/a
625.624	0.06	1251248	keystroke	e	n/a
625.729	0.075	1251458	keystroke	Key.space	n/a
626.344	0.075	1252688	keystroke	b	n/a
626.449	0.06	1252898	keystroke	a	n/a
626.644	0.03	1253288	keystroke	t	n/a
626.7335	0.061	1253467	keystroke	t	n/a
626.8385	0.0905	1253677	keystroke	l	n/a
626.989	0.075	1253978	keystroke	e	n/a
627.184	0.045	1254368	keystroke	f	n/a
627.319	0.075	1254638	keystroke	i	n/a
627.514	0.06	1255028	keystroke	e	n/a
627.634	0.075	1255268	keystroke	l	n/a
627.754	0.06	1255508	keystroke	d	n/a
627.919	0.09	1255838	keystroke	Key.space	n/a
628.834	0.06	1257668	keystroke	t	n/a
629.149	0.03	1258298	keystroke	r	n/a
629.359	0.06	1258718	keystroke	e	n/a
629.524	0.06	1259048	keystroke	m	n/a
629.734	0.075	1259468	keystroke	b	n/a
630.2135	0.105	1260427	keystroke	l	n/a
630.4385	0.075	1260877	keystroke	Key.space	n/a
630.6795	0.059	1261359	keystroke	m	n/a
630.7835	0.075	1261567	keystroke	e	n/a
630.9635	0.06	1261927	keystroke	r	n/a
631.1595	0.059	1262319	keystroke	g	n/a
631.3385	0.0755	1262677	keystroke	e	n/a
632.224	0.09	1264448	keystroke	Key.enter	n/a
632.319	9.776	1264638	prompt	n/a	width initiated montgomery accepts\n
633.124	0.075	1266248	keystroke	w	n/a
633.229	0.09	1266458	keystroke	i	n/a
633.469	0.075	1266938	keystroke	d	n/a
633.6935	0.091	1267387	keystroke	t	n/a
633.8435	0.075	1267687	keystroke	h	n/a
634.0685	0.09	1268137	keystroke	Key.space	n/a
634.4735	0.105	1268947	keystroke	i	n/a
634.6235	0.09	1269247	keystroke	n	n/a
634.8335	0.075	1269667	keystroke	i	n/a
635.0135	0.061	1270027	keystroke	t	n/a
635.0745	0.119	1270149	keystroke	i	n/a
635.2535	0.075	1270507	keystroke	a	n/a
635.4485	0.075	1270897	keystroke	t	n/a
635.674	0.045	1271348	keystroke	e	n/a
635.839	0.075	1271678	keystroke	d	n/a
635.9285	0.075	1271857	keystroke	Key.space	n/a
636.2735	0.045	1272547	keystroke	m	n/a
636.9035	0.09	1273807	keystroke	o	n/a
637.1135	0.06	1274227	keystroke	n	n/a
637.3385	0.105	1274677	keystroke	t	n/a
638.6135	0.06	1277227	keystroke	g	n/a
638.7185	0.015	1277437	keystroke	o	n/a
638.914	0.045	1277828	keystroke	m	n/a
639.0035	0.135	1278007	keystroke	e	n/a
639.0785	0.105	1278157	keystroke	r	n/a
639.3035	0.09	1278607	keystroke	y	n/a
639.7685	0.045	1279537	keystroke	Key.space	n/a
639.9335	0.09	1279867	keystroke	a	n/a
640.1885	0.0605	1280377	keystroke	c	n/a
640.294	0.0745	1280588	keystroke	c	n/a
640.4585	0.091	1280917	keystroke	e	n/a
640.6685	0.09	1281337	keystroke	p	n/a
640.7745	0.09	1281549	keystroke	t	n/a
640.9385	0.105	1281877	keystroke	s	n/a
642.0185	0.075	1284037	keystroke	Key.enter	n/a
642.098	9.0275	1284196	prompt	n/a	lowest days motorola shot\n
643.0385	0.0305	1286077	keystroke	l	n/a
643.189	0.06	1286378	keystroke	o	n/a
643.339	0.105	1286678	keystroke	w	n/a
643.594	0.06	1287188	keystroke	e	n/a
643.759	0.075	1287518	keystroke	s	n/a
643.939	0.06	1287878	keystroke	t	n/a
644.074	0.075	1288148	keystroke	Key.space	n/a
644.6285	0.045	1289257	keystroke	d	n/a
644.7785	0.075	1289557	keystroke	a	n/a
644.9735	0.06	1289947	keystroke	y	n/a
645.2135	0.076	1290427	keystroke	s	n/a
645.3485	0.075	1290697	keystroke	Key.space	n/a
645.9785	0.061	1291957	keystroke	m	n/a
646.1735	0.076	1292347	keystroke	o	n/a
646.3535	0.045	1292707	keystroke	t	n/a
646.4135	0.09	1292827	keystroke	o	n/a
646.5945	0.06	1293189	keystroke	r	n/a
646.759	0.075	1293518	keystroke	a	n/a
646.879	0.075	1293758	keystroke	o	n/a
647.3895	0.075	1294779	keystroke	Key.backspace	n/a
647.5395	0.045	1295079	keystroke	Key.backspace	n/a
647.704	0.015	1295408	keystroke	o	n/a
648.544	0.09	1297088	keystroke	l	n/a
648.664	0.09	1297328	keystroke	a	n/a
648.799	0.075	1297598	keystroke	Key.space	n/a
650.119	0.075	1300238	keystroke	s	n/a
650.314	0.06	1300628	keystroke	h	n/a
650.479	0.1055	1300958	keystroke	o	n/a
650.599	0.075	1301198	keystroke	t	n/a
651.049	0.075	1302098	keystroke	Key.enter	n/a
651.1285	12.387	1302257	prompt	n/a	shouldn't've device prague lesser\n
652.009	0.06	1304018	keystroke	s	n/a
652.234	0.06	1304468	keystroke	h	n/a
652.564	0.18	1305128	keystroke	o	n/a
652.699	0.105	1305398	keystroke	u	n/a
653.269	0.015	1306538	keystroke	l	n/a
653.539	0.105	1307078	keystroke	d	n/a
654.919	0.06	1309838	keystroke	n	n/a
655.849	0.075	1311698	keystroke	'	n/a
656.149	0.075	1312298	keystroke	t	n/a
656.869	0.06	1313738	keystroke	'	n/a
657.454	0.09	1314908	keystroke	v	n/a
657.724	0.105	1315448	keystroke	e	n/a
658.159	0.0745	1316318	keystroke	Key.space	n/a
658.594	0.075	1317188	keystroke	s	n/a
658.909	0.06	1317818	keystroke	Key.backspace	n/a
658.984	0.075	1317968	keystroke	d	n/a
659.134	0.075	1318268	keystroke	e	n/a
659.5095	0.06	1319019	keystroke	v	n/a
659.6595	0.075	1319319	keystroke	i	n/a
659.7945	0.1345	1319589	keystroke	c	n/a
659.899	0.075	1319798	keystroke	e	n/a
660.079	0.075	1320158	keystroke	Key.space	n/a
660.5445	0.09	1321089	keystroke	p	n/a
660.8145	0.06	1321629	keystroke	r	n/a
660.9495	0.09	1321899	keystroke	a	n/a
661.1595	0.045	1322319	keystroke	g	n/a
661.3245	0.06	1322649	keystroke	u	n/a
661.4595	0.059	1322919	keystroke	e	n/a
661.6095	0.0745	1323219	keystroke	Key.space	n/a
662.4345	0.0895	1324869	keystroke	l	n/a
662.539	0.075	1325078	keystroke	e	n/a
662.734	0.045	1325468	keystroke	s	n/a
662.854	0.045	1325708	keystroke	s	n/a
663.034	0.12	1326068	keystroke	e	n/a
663.109	0.105	1326218	keystroke	r	n/a
663.499	0.015	1326998	keystroke	Key.enter	n/a
663.5185	8.952	1327037	prompt	n/a	christians trinity defects keno\n
664.2945	0.029	1328589	keystroke	s	n/a
664.5785	0.09	1329157	keystroke	Key.backspace	n/a
664.7285	0.06	1329457	keystroke	c	n/a
664.8495	0.089	1329699	keystroke	h	n/a
665.0585	0.046	1330117	keystroke	r	n/a
665.1635	0.075	1330327	keystroke	i	n/a
665.2835	0.075	1330567	keystroke	s	n/a
665.9735	0.075	1331947	keystroke	t	n/a
666.1085	0.075	1332217	keystroke	i	n/a
666.2885	0.075	1332577	keystroke	a	n/a
666.4385	0.06	1332877	keystroke	n	n/a
666.5585	0.075	1333117	keystroke	s	n/a
666.6935	0.06	1333387	keystroke	Key.space	n/a
667.789	0.09	1335578	keystroke	t	n/a
668.029	0.06	1336058	keystroke	r	n/a
668.194	0.09	1336388	keystroke	i	n/a
668.404	0.06	1336808	keystroke	n	n/a
668.569	0.075	1337138	keystroke	i	n/a
668.629	0.06	1337258	keystroke	t	n/a
668.809	0.06	1337618	keystroke	y	n/a
668.899	0.06	1337798	keystroke	Key.space	n/a
669.409	0.06	1338818	keystroke	d	n/a
669.589	0.06	1339178	keystroke	e	n/a
669.7535	0.045	1339507	keystroke	f	n/a
669.9035	0.075	1339807	keystroke	e	n/a
670.0235	0.06	1340047	keystroke	c	n/a
670.2035	0.06	1340407	keystroke	t	n/a
670.3235	0.1055	1340647	keystroke	s	n/a
670.4585	0.09	1340917	keystroke	Key.space	n/a
671.389	0.0745	1342778	keystroke	k	n/a
