onset	duration	sample	value	key	prompt_text
1.1095	7.3755	2219	prompt	n/a	the quick brown fox jumps over a lazy dog\n
2.682	0.04	5364	keystroke	t	n/a
2.707	0.09	5414	keystroke	h	n/a
2.767	0.12	5534	keystroke	e	n/a
2.902	0.0445	5804	keystroke	Key.space	n/a
3.022	0.135	6044	keystroke	q	n/a
3.112	0.09	6224	keystroke	u	n/a
3.2925	0.09	6585	keystroke	i	n/a
3.4125	0.135	6825	keystroke	c	n/a
3.5165	0.091	7033	keystroke	k	n/a
3.637	0.06	7274	keystroke	Key.space	n/a
3.787	0.0895	7574	keystroke	b	n/a
3.9515	0.15	7903	keystroke	r	n/a
4.1325	0.119	8265	keystroke	o	n/a
4.2825	0.12	8565	keystroke	w	n/a
4.4315	0.091	8863	keystroke	n	n/a
4.6115	0.09	9223	keystroke	Key.space	n/a
4.7165	0.09	9433	keystroke	f	n/a
4.8215	0.12	9643	keystroke	o	n/a
4.9715	0.12	9943	keystroke	x	n/a
5.1065	0.09	10213	keystroke	Key.space	n/a
5.2265	0.09	10453	keystroke	j	n/a
5.3775	0.089	10755	keystroke	u	n/a
5.5715	0.09	11143	keystroke	m	n/a
5.6765	0.1335	11353	keystroke	p	n/a
5.961	0.12	11922	keystroke	s	n/a
6.155	0.06	12310	keystroke	Key.space	n/a
6.4275	0.015	12855	keystroke	o	n/a
6.4875	0.075	12975	keystroke	v	n/a
6.6225	0.135	13245	keystroke	e	n/a
6.6975	0.1045	13395	keystroke	r	n/a
6.832	0.075	13664	keystroke	Key.space	n/a
6.908	0.134	13816	keystroke	a	n/a
7.027	0.06	14054	keystroke	Key.space	n/a
7.297	0.075	14594	keystroke	l	n/a
7.417	0.105	14834	keystroke	a	n/a
7.642	0.135	15284	keystroke	z	n/a
7.762	0.09	15524	keystroke	y	n/a
7.897	0.06	15794	keystroke	Key.space	n/a
7.972	0.135	15944	keystroke	d	n/a
8.092	0.075	16184	keystroke	o	n/a
8.1975	0.104	16395	keystroke	g	n/a
8.362	0.1205	16724	keystroke	Key.enter	n/a
8.4965	5.553	16993	prompt	n/a	classics intro offer tube\n
9.1275	0.12	18255	keystroke	c	n/a
9.2775	0.135	18555	keystroke	l	n/a
9.3825	0.12	18765	keystroke	a	n/a
9.4575	0.09	18915	keystroke	s	n/a
9.6375	0.12	19275	keystroke	s	n/a
9.7725	0.105	19545	keystroke	i	n/a
9.9075	0.105	19815	keystroke	c	n/a
10.0575	0.135	20115	keystroke	s	n/a
10.2525	0.12	20505	keystroke	Key.space	n/a
10.5825	0.075	21165	keystroke	i	n/a
10.7475	0.105	21495	keystroke	n	n/a
10.9275	0.135	21855	keystroke	t	n/a
11.2875	0.09	22575	keystroke	r	n/a
11.4225	0.105	22845	keystroke	o	n/a
11.6325	0.074	23265	keystroke	Key.space	n/a
11.8275	0.089	23655	keystroke	o	n/a
11.9775	0.09	23955	keystroke	f	n/a
12.1275	0.09	24255	keystroke	f	n/a
12.3225	0.105	24645	keystroke	e	n/a
12.532	0.105	25064	keystroke	r	n/a
12.682	0.0895	25364	keystroke	Key.space	n/a
12.7865	0.106	25573	keystroke	t	n/a
12.9665	0.09	25933	keystroke	u	n/a
13.357	0.09	26714	keystroke	b	n/a
13.522	0.105	27044	keystroke	e	n/a
13.972	0.075	27944	keystroke	Key.enter	n/a
14.054	12.295	28108	prompt	n/a	gorgeous patricia anne references\n
14.647	0.0745	29294	keystroke	p	n/a
14.9315	0.09	29863	keystroke	Key.backspace	n/a
15.0515	0.105	30103	keystroke	g	n/a
15.2765	0.06	30553	keystroke	e	n/a
15.8925	0.075	31785	keystroke	Key.backspace	n/a
16.1325	0.12	32265	keystroke	o	n/a
16.2825	0.09	32565	keystroke	r	n/a
16.8225	0.075	33645	keystroke	g	n/a
17.1375	0.105	34275	keystroke	e	n/a
17.3325	0.075	34665	keystroke	o	n/a
17.5275	0.105	35055	keystroke	u	n/a
17.6775	0.105	35355	keystroke	s	n/a
17.9475	0.12	35895	keystroke	Key.space	n/a
18.3075	0.09	36615	keystroke	p	n/a
18.4275	0.135	36855	keystroke	a	n/a
18.6225	0.09	37245	keystroke	t	n/a
18.8475	0.12	37695	keystroke	r	n/a
19.0725	0.135	38145	keystroke	i	n/a
19.3425	0.135	38685	keystroke	c	n/a
19.612	0.1505	39224	keystroke	i	n/a
19.898	0.0745	39796	keystroke	c	n/a
20.3925	0.09	40785	keystroke	Key.backspace	n/a
20.5575	0.165	41115	keystroke	a	n/a
20.9475	0.12	41895	keystroke	Key.space	n/a
21.2475	0.1645	42495	keystroke	a	n/a
21.9375	0.0895	43875	keystroke	n	n/a
22.132	0.12	44264	keystroke	n	n/a
22.357	0.105	44714	keystroke	e	n/a
22.5825	0.12	45165	keystroke	Key.space	n/a
22.9125	0.12	45825	keystroke	r	n/a
23.0925	0.135	46185	keystroke	e	n/a
23.4525	0.105	46905	keystroke	f	n/a
23.6775	0.119	47355	keystroke	e	n/a
23.8575	0.105	47715	keystroke	r	n/a
24.0825	0.1045	48165	keystroke	e	n/a
24.232	0.135	48464	keystroke	n	n/a
24.397	0.075	48794	keystroke	c	n/a
24.517	0.12	49034	keystroke	e	n/a
24.652	0.09	49304	keystroke	s	n/a
26.227	0.12	52454	keystroke	Key.enter	n/a
26.353	8.2615	52706	prompt	n/a	assurance adware clients adds\n
27.1575	0.1495	54315	keystroke	a	n/a
27.412	0.075	54824	keystroke	s	n/a
27.592	0.105	55184	keystroke	s	n/a
27.862	0.105	55724	keystroke	u	n/a
28.027	0.105	56054	keystroke	r	n/a
28.237	0.135	56474	keystroke	a	n/a
28.417	0.12	56834	keystroke	n	n/a
28.657	0.105	57314	keystroke	c	n/a
28.882	0.105	57764	keystroke	e	n/a
29.647	0.12	59294	keystroke	Key.space	n/a
30.412	0.105	60824	keystroke	a	n/a
30.622	0.105	61244	keystroke	d	n/a
30.862	0.12	61724	keystroke	w	n/a
30.997	0.135	61994	keystroke	a	n/a
31.177	0.135	62354	keystroke	r	n/a
31.387	0.105	62774	keystroke	e	n/a
31.762	0.12	63524	keystroke	Key.space	n/a
32.182	0.12	64364	keystroke	c	n/a
32.392	0.09	64784	keystroke	l	n/a
32.602	0.075	65204	keystroke	i	n/a
32.707	0.12	65414	keystroke	e	n/a
32.812	0.105	65624	keystroke	n	n/a
32.962	0.075	65924	keystroke	t	n/a
33.202	0.105	66404	keystroke	s	n/a
33.427	0.105	66854	keystroke	Key.space	n/a
33.607	0.105	67214	keystroke	a	n/a
33.817	0.075	67634	keystroke	d	n/a
34.012	0.06	68024	keystroke	d	n/a
34.237	0.09	68474	keystroke	s	n/a
34.5215	0.09	69043	keystroke	Key.enter	n/a
34.62	7.869	69240	prompt	n/a	adaptor certificates nature happy\n
35.3775	0.135	70755	keystroke	a	n/a
35.5865	0.12	71173	keystroke	d	n/a
35.8875	0.134	71775	keystroke	a	n/a
36.0815	0.105	72163	keystroke	p	n/a
36.3215	0.09	72643	keystroke	t	n/a
36.5015	0.12	73003	keystroke	o	n/a
36.6365	0.091	73273	keystroke	r	n/a
37.0415	0.135	74083	keystroke	Key.space	n/a
37.2215	0.121	74443	keystroke	c	n/a
37.4915	0.09	74983	keystroke	e	n/a
37.7165	0.09	75433	keystroke	r	n/a
37.9265	0.075	75853	keystroke	t	n/a
38.1075	0.134	76215	keystroke	i	n/a
38.2565	0.091	76513	keystroke	f	n/a
38.4215	0.075	76843	keystroke	i	n/a
38.5415	0.12	77083	keystroke	c	n/a
38.8415	0.21	77683	keystroke	a	n/a
39.0675	0.089	78135	keystroke	t	n/a
39.2625	0.074	78525	keystroke	e	n/a
39.4865	0.106	78973	keystroke	s	n/a
39.9815	0.105	79963	keystroke	Key.space	n/a
40.2225	0.09	80445	keystroke	n	n/a
40.3425	0.119	80685	keystroke	a	n/a
40.5065	0.105	81013	keystroke	t	n/a
40.6565	0.106	81313	keystroke	u	n/a
40.7915	0.135	81583	keystroke	r	n/a
40.9115	0.106	81823	keystroke	e	n/a
41.1815	0.09	82363	keystroke	Key.space	n/a
41.4525	0.09	82905	keystroke	h	n/a
41.5865	0.09	83173	keystroke	a	n/a
41.6915	0.09	83383	keystroke	p	n/a
41.8565	0.06	83713	keystroke	p	n/a
42.0965	0.076	84193	keystroke	y	n/a
42.3965	0.09	84793	keystroke	Key.enter	n/a
42.4935	7.316	84987	prompt	n/a	ultram observed divide sitemap\n
43.3565	0.105	86713	keystroke	u	n/a
43.5825	0.12	87165	keystroke	l	n/a
43.7325	0.09	87465	keystroke	t	n/a
43.867	0.1055	87734	keystroke	r	n/a
43.9875	0.164	87975	keystroke	a	n/a
44.2575	0.104	88515	keystroke	m	n/a
44.5115	0.09	89023	keystroke	Key.space	n/a
44.7525	0.1045	89505	keystroke	o	n/a
45.053	0.0895	90106	keystroke	b	n/a
45.203	0.0885	90406	keystroke	s	n/a
45.3825	0.075	90765	keystroke	e	n/a
45.5925	0.074	91185	keystroke	r	n/a
45.7725	0.089	91545	keystroke	v	n/a
45.983	0.075	91966	keystroke	e	n/a
46.253	0.074	92506	keystroke	d	n/a
46.463	0.089	92926	keystroke	Key.space	n/a
46.793	0.089	93586	keystroke	d	n/a
46.942	0.09	93884	keystroke	i	n/a
47.092	0.106	94184	keystroke	v	n/a
47.317	0.09	94634	keystroke	i	n/a
47.468	0.074	94936	keystroke	d	n/a
47.648	0.089	95296	keystroke	e	n/a
47.887	0.106	95774	keystroke	Key.space	n/a
48.203	0.105	96406	keystroke	s	n/a
48.352	0.09	96704	keystroke	i	n/a
48.473	0.104	96946	keystroke	t	n/a
48.592	0.121	97184	keystroke	e	n/a
48.8915	0.091	97783	keystroke	m	n/a
49.028	0.164	98056	keystroke	a	n/a
49.178	0.059	98356	keystroke	p	n/a
49.718	0.089	99436	keystroke	Key.enter	n/a
49.815	7.7495	99630	prompt	n/a	fought herb fisheries pointed\n
50.498	0.105	100996	keystroke	f	n/a
50.648	0.089	101296	keystroke	o	n/a
50.858	0.09	101716	keystroke	u	n/a
50.977	0.1045	101954	keystroke	g	n/a
51.0975	0.0905	102195	keystroke	h	n/a
51.2325	0.1045	102465	keystroke	t	n/a
51.397	0.1045	102794	keystroke	Key.space	n/a
51.6975	0.09	103395	keystroke	h	n/a
51.8175	0.105	103635	keystroke	e	n/a
52.0125	0.09	104025	keystroke	r	n/a
52.1775	0.105	104355	keystroke	b	n/a
52.4015	0.105	104803	keystroke	Key.space	n/a
52.8675	0.105	105735	keystroke	f	n/a
53.0025	0.105	106005	keystroke	i	n/a
53.1375	0.105	106275	keystroke	s	n/a
53.2725	0.105	106545	keystroke	h	n/a
53.4375	0.105	106875	keystroke	e	n/a
53.6925	0.09	107385	keystroke	r	n/a
54.0225	0.15	108045	keystroke	i	n/a
54.3375	0.014	108675	keystroke	e	n/a
54.4875	0.105	108975	keystroke	s	n/a
55.8065	0.106	111613	keystroke	Key.space	n/a
56.0915	0.061	112183	keystroke	p	n/a
56.2875	0.105	112575	keystroke	o	n/a
56.5425	0.089	113085	keystroke	i	n/a
56.7675	0.09	113535	keystroke	n	n/a
56.9025	0.09	113805	keystroke	t	n/a
57.0525	0.089	114105	keystroke	e	n/a
57.2915	0.076	114583	keystroke	d	n/a
57.4725	0.089	114945	keystroke	Key.enter	n/a
57.572	7.1625	115144	prompt	n/a	granny javascript breed phone\n
58.2675	0.105	116535	keystroke	g	n/a
58.4925	0.105	116985	keystroke	r	n/a
58.6275	0.135	117255	keystroke	a	n/a
58.8375	0.06	117675	keystroke	n	n/a
58.9725	0.09	117945	keystroke	n	n/a
59.2125	0.09	118425	keystroke	y	n/a
59.4525	0.09	118905	keystroke	Key.space	n/a
59.8725	0.104	119745	keystroke	j	n/a
60.0975	0.09	120195	keystroke	a	n/a
60.2925	0.105	120585	keystroke	v	n/a
60.4575	0.135	120915	keystroke	a	n/a
60.7875	0.09	121575	keystroke	s	n/a
60.9375	0.06	121875	keystroke	c	n/a
61.0725	0.12	122145	keystroke	r	n/a
61.1775	0.09	122355	keystroke	i	n/a
61.3425	0.12	122685	keystroke	p	n/a
61.4925	0.09	122985	keystroke	t	n/a
61.8675	0.104	123735	keystroke	Key.space	n/a
62.1675	0.075	124335	keystroke	d	n/a
62.4815	0.091	124963	keystroke	Key.backspace	n/a
62.7675	0.09	125535	keystroke	b	n/a
62.9025	0.135	125805	keystroke	r	n/a
62.9925	0.12	125985	keystroke	e	n/a
63.1725	0.12	126345	keystroke	e	n/a
63.4575	0.105	126915	keystroke	d	n/a
63.667	0.105	127334	keystroke	Key.space	n/a
63.907	0.09	127814	keystroke	p	n/a
64.117	0.075	128234	keystroke	h	n/a
64.207	0.105	128414	keystroke	o	n/a
64.342	0.105	128684	keystroke	n	n/a
64.462	0.075	128924	keystroke	e	n/a
64.642	0.09	129284	keystroke	Key.enter	n/a
64.739	5.875	129478	prompt	n/a	ever sets delivers katrina\n
65.423	0.089	130846	keystroke	e	n/a
65.572	0.105	131144	keystroke	v	n/a
65.737	0.136	131474	keystroke	e	n/a
65.917	0.12	131834	keystroke	r	n/a
66.157	0.105	132314	keystroke	Key.space	n/a
66.307	0.135	132614	keystroke	s	n/a
66.397	0.12	132794	keystroke	e	n/a
66.622	0.09	133244	keystroke	t	n/a
66.847	0.09	133694	keystroke	s	n/a
67.102	0.09	134204	keystroke	Key.space	n/a
67.297	0.075	134594	keystroke	d	n/a
67.522	0.09	135044	keystroke	e	n/a
67.672	0.12	135344	keystroke	l	n/a
67.777	0.105	135554	keystroke	i	n/a
67.927	0.105	135854	keystroke	v	n/a
68.107	0.09	136214	keystroke	e	n/a
68.302	0.075	136604	keystroke	r	n/a
68.497	0.105	136994	keystroke	s	n/a
68.722	0.09	137444	keystroke	Key.space	n/a
69.172	0.09	138344	keystroke	k	n/a
69.322	0.12	138644	keystroke	a	n/a
69.397	0.075	138794	keystroke	t	n/a
69.592	0.12	139184	keystroke	r	n/a
69.772	0.09	139544	keystroke	i	n/a
70.012	0.09	140024	keystroke	n	n/a
70.132	0.135	140264	keystroke	a	n/a
70.537	0.075	141074	keystroke	Key.enter	n/a
70.62	8.814	141240	prompt	n/a	brighton differences floating camcorder\n
71.378	0.12	142756	keystroke	b	n/a
71.542	0.12	143084	keystroke	r	n/a
71.647	0.105	143294	keystroke	i	n/a
71.782	0.12	143564	keystroke	g	n/a
71.903	0.104	143806	keystroke	h	n/a
72.052	0.105	144104	keystroke	t	n/a
72.352	0.12	144704	keystroke	o	n/a
72.607	0.135	145214	keystroke	n	n/a
73.072	0.105	146144	keystroke	Key.space	n/a
73.238	0.105	146476	keystroke	d	n/a
73.387	0.105	146774	keystroke	i	n/a
73.507	0.09	147014	keystroke	f	n/a
73.672	0.075	147344	keystroke	f	n/a
73.882	0.18	147764	keystroke	e	n/a
74.077	0.12	148154	keystroke	r	n/a
74.212	0.15	148424	keystroke	e	n/a
74.407	0.15	148814	keystroke	n	n/a
74.677	0.075	149354	keystroke	c	n/a
74.887	0.075	149774	keystroke	e	n/a
75.112	0.105	150224	keystroke	s	n/a
75.562	0.075	151124	keystroke	Key.space	n/a
75.907	0.12	151814	keystroke	f	n/a
76.147	0.06	152294	keystroke	l	n/a
76.312	0.105	152624	keystroke	o	n/a
76.387	0.136	152774	keystroke	a	n/a
76.552	0.12	153104	keystroke	t	n/a
76.702	0.105	153404	keystroke	i	n/a
76.777	0.12	153554	keystroke	n	n/a
76.942	0.106	153884	keystroke	g	n/a
77.272	0.121	154544	keystroke	Key.space	n/a
77.572	0.09	155144	keystroke	c	n/a
77.692	0.165	155384	keystroke	a	n/a
77.902	0.09	155804	keystroke	m	n/a
78.217	0.09	156434	keystroke	c	n/a
78.382	0.105	156764	keystroke	o	n/a
78.502	0.105	157004	keystroke	r	n/a
78.712	0.075	157424	keystroke	d	n/a
78.907	0.075	157814	keystroke	e	n/a
79.117	0.076	158234	keystroke	r	n/a
79.327	0.105	158654	keystroke	Key.enter	n/a
79.4385	6.251	158877	prompt	n/a	assured unlock pairs precise\n
80.213	0.119	160426	keystroke	a	n/a
80.452	0.045	160904	keystroke	s	n/a
80.587	0.105	161174	keystroke	s	n/a
80.768	0.074	161536	keystroke	u	n/a
80.873	0.075	161746	keystroke	r	n/a
81.082	0.076	162164	keystroke	e	n/a
81.307	0.06	162614	keystroke	d	n/a
81.427	0.075	162854	keystroke	Key.space	n/a
81.637	0.09	163274	keystroke	u	n/a
81.787	0.091	163574	keystroke	n	n/a
81.967	0.09	163934	keystroke	l	n/a
82.147	0.075	164294	keystroke	o	n/a
82.253	0.119	164506	keystroke	c	n/a
82.373	0.074	164746	keystroke	k	n/a
82.522	0.09	165044	keystroke	Key.space	n/a
82.837	0.075	165674	keystroke	p	n/a
83.062	0.15	166124	keystroke	a	n/a
83.258	0.105	166516	keystroke	i	n/a
83.377	0.045	166754	keystroke	r	n/a
83.542	0.12	167084	keystroke	s	n/a
83.782	0.12	167564	keystroke	Key.space	n/a
84.172	0.091	168344	keystroke	p	n/a
84.398	0.119	168796	keystroke	r	n/a
84.473	0.104	168946	keystroke	e	n/a
84.862	0.106	169724	keystroke	c	n/a
85.012	0.106	170024	keystroke	i	n/a
85.132	0.12	170264	keystroke	s	n/a
85.253	0.119	170506	keystroke	e	n/a
85.597	0.09	171194	keystroke	Key.enter	n/a
85.6935	5.995	171387	prompt	n/a	considers backed doctor prince\n
86.3175	0.105	172635	keystroke	c	n/a
86.4375	0.105	172875	keystroke	o	n/a
86.5275	0.119	173055	keystroke	n	n/a
86.6925	0.074	173385	keystroke	s	n/a
86.7825	0.105	173565	keystroke	i	n/a
86.8725	0.074	173745	keystroke	d	n/a
87.0815	0.091	174163	keystroke	e	n/a
87.3065	0.075	174613	keystroke	r	n/a
87.5175	0.089	175035	keystroke	s	n/a
87.7415	0.09	175483	keystroke	Key.space	n/a
88.0725	0.075	176145	keystroke	b	n/a
88.4315	0.166	176863	keystroke	a	n/a
88.5665	0.121	177133	keystroke	c	n/a
88.7175	0.105	177435	keystroke	k	n/a
88.8815	0.075	177763	keystroke	e	n/a
89.1215	0.06	178243	keystroke	d	n/a
89.2715	0.09	178543	keystroke	Key.space	n/a
89.4225	0.089	178845	keystroke	d	n/a
89.6475	0.104	179295	keystroke	o	n/a
89.8115	0.106	179623	keystroke	c	n/a
90.0375	0.074	180075	keystroke	t	n/a
90.2025	0.104	180405	keystroke	o	n/a
90.3525	0.089	180705	keystroke	r	n/a
90.4865	0.09	180973	keystroke	Key.space	n/a
90.7115	0.091	181423	keystroke	p	n/a
90.8165	0.12	181633	keystroke	r	n/a
90.9675	0.045	181935	keystroke	i	n/a
91.1315	0.076	182263	keystroke	n	n/a
91.2225	0.134	182445	keystroke	c	n/a
91.3275	0.105	182655	keystroke	e	n/a
91.5815	0.105	183163	keystroke	Key.enter	n/a
91.6935	9.565	183387	prompt	n/a	miles singing exhibition thomson\n
92.2865	0.09	184573	keystroke	m	n/a
92.4515	0.091	184903	keystroke	i	n/a
92.6325	0.12	185265	keystroke	l	n/a
92.7225	0.06	185445	keystroke	e	n/a
92.8865	0.106	185773	keystroke	s	n/a
93.0065	0.105	186013	keystroke	Key.space	n/a
93.1865	0.106	186373	keystroke	s	n/a
93.3075	0.09	186615	keystroke	i	n/a
93.6065	0.15	187213	keystroke	n	n/a
93.8465	0.135	187693	keystroke	g	n/a
94.1175	0.075	188235	keystroke	i	n/a
94.2975	0.134	188595	keystroke	n	n/a
94.4765	0.121	188953	keystroke	g	n/a
95.0915	0.12	190183	keystroke	Key.space	n/a
95.3775	0.03	190755	keystroke	s	n/a
95.6625	0.089	191325	keystroke	Key.backspace	n/a
95.8115	0.061	191623	keystroke	e	n/a
96.0225	0.12	192045	keystroke	x	n/a
96.1875	0.075	192375	keystroke	h	n/a
96.3815	0.091	192763	keystroke	i	n/a
96.6225	0.075	193245	keystroke	b	n/a
96.8175	0.119	193635	keystroke	i	n/a
97.0565	0.106	194113	keystroke	t	n/a
97.2825	0.104	194565	keystroke	i	n/a
97.5075	0.09	195015	keystroke	o	n/a
97.6265	0.136	195253	keystroke	n	n/a
98.1525	0.12	196305	keystroke	Key.space	n/a
98.4375	0.105	196875	keystroke	t	n/a
98.5865	0.09	197173	keystroke	h	n/a
98.7375	0.105	197475	keystroke	o	n/a
99.0225	0.089	198045	keystroke	m	n/a
99.3525	0.104	198705	keystroke	s	n/a
99.6375	0.074	199275	keystroke	o	n/a
99.8325	0.09	199665	keystroke	n	n/a
101.1665	0.09	202333	keystroke	Key.enter	n/a
101.2645	9.6685	202529	prompt	n/a	charlotte kiss occasional atmospheric\n
102.2765	0.105	204553	keystroke	c	n/a
102.4425	0.09	204885	keystroke	h	n/a
102.5475	0.075	205095	keystroke	a	n/a
102.6975	0.105	205395	keystroke	r	n/a
102.9225	0.09	205845	keystroke	l	n/a
103.1315	0.106	206263	keystroke	o	n/a
103.4175	0.06	206835	keystroke	t	n/a
103.5675	0.075	207135	keystroke	t	n/a
103.7775	0.105	207555	keystroke	e	n/a
104.0015	0.075	208003	keystroke	Key.space	n/a
104.2275	0.09	208455	keystroke	k	n/a
104.4975	0.089	208995	keystroke	i	n/a
104.6925	0.075	209385	keystroke	s	n/a
104.8725	0.105	209745	keystroke	s	n/a
105.0965	0.075	210193	keystroke	Key.space	n/a
105.2475	0.105	210495	keystroke	o	n/a
105.4565	0.061	210913	keystroke	c	n/a
105.6225	0.09	211245	keystroke	c	n/a
105.9675	0.135	211935	keystroke	a	n/a
106.2075	0.105	212415	keystroke	s	n/a
106.8525	0.104	213705	keystroke	i	n/a
107.0475	0.09	214095	keystroke	o	n/a
107.2125	0.105	214425	keystroke	n	n/a
107.3925	0.15	214785	keystroke	a	n/a
107.5575	0.105	215115	keystroke	l	n/a
108.1275	0.119	216255	keystroke	Key.space	n/a
108.5625	0.105	217125	keystroke	a	n/a
108.7725	0.105	217545	keystroke	t	n/a
109.1025	0.075	218205	keystroke	m	n/a
109.2825	0.12	218565	keystroke	o	n/a
109.522	0.09	219044	keystroke	s	n/a
109.717	0.09	219434	keystroke	p	n/a
109.972	0.09	219944	keystroke	h	n/a
110.107	0.09	220214	keystroke	e	n/a
110.317	0.09	220634	keystroke	r	n/a
110.467	0.09	220934	keystroke	i	n/a
110.617	0.105	221234	keystroke	c	n/a
110.812	0.119	221624	keystroke	Key.enter	n/a
110.9395	8.9195	221879	prompt	n/a	biotechnology ryan discharge measurement\n
111.592	0.075	223184	keystroke	b	n/a
111.757	0.075	223514	keystroke	i	n/a
111.907	0.135	223814	keystroke	o	n/a
112.087	0.06	224174	keystroke	t	n/a
112.207	0.105	224414	keystroke	e	n/a
112.717	0.15	225434	keystroke	c	n/a
113.062	0.09	226124	keystroke	h	n/a
113.317	0.075	226634	keystroke	n	n/a
113.497	0.075	226994	keystroke	o	n/a
113.677	0.06	227354	keystroke	l	n/a
113.842	0.06	227684	keystroke	o	n/a
113.962	0.12	227924	keystroke	g	n/a
114.1715	0.105	228343	keystroke	y	n/a
114.4265	0.105	228853	keystroke	Key.space	n/a
115.0265	0.15	230053	keystroke	r	n/a
115.2515	0.09	230503	keystroke	y	n/a
115.3865	0.15	230773	keystroke	a	n/a
115.5515	0.09	231103	keystroke	n	n/a
115.7165	0.105	231433	keystroke	Key.space	n/a
115.8965	0.105	231793	keystroke	d	n/a
116.0465	0.09	232093	keystroke	i	n/a
116.1515	0.09	232303	keystroke	s	n/a
116.3165	0.105	232633	keystroke	c	n/a
116.6315	0.09	233263	keystroke	h	n/a
116.7365	0.15	233473	keystroke	a	n/a
116.8565	0.12	233713	keystroke	r	n/a
117.0215	0.075	234043	keystroke	g	n/a
117.2315	0.09	234463	keystroke	e	n/a
117.5165	0.105	235033	keystroke	Key.space	n/a
117.8915	0.12	235783	keystroke	m	n/a
118.0415	0.075	236083	keystroke	e	n/a
118.282	0.105	236564	keystroke	a	n/a
118.342	0.12	236684	keystroke	s	n/a
118.552	0.12	237104	keystroke	u	n/a
118.687	0.12	237374	keystroke	r	n/a
118.762	0.15	237524	keystroke	e	n/a
119.017	0.105	238034	keystroke	m	n/a
119.212	0.135	238424	keystroke	e	n/a
119.377	0.09	238754	keystroke	n	n/a
119.527	0.09	239054	keystroke	t	n/a
119.752	0.105	239504	keystroke	Key.enter	n/a
119.8655	9.0085	239731	prompt	n/a	skills retrieve pharmacies river\n
120.577	0.12	241154	keystroke	s	n/a
120.682	0.075	241364	keystroke	k	n/a
120.832	0.09	241664	keystroke	i	n/a
121.027	0.075	242054	keystroke	l	n/a
121.192	0.075	242384	keystroke	l	n/a
121.297	0.105	242594	keystroke	s	n/a
121.447	0.105	242894	keystroke	Key.space	n/a
122.137	0.135	244274	keystroke	r	n/a
122.257	0.105	244514	keystroke	e	n/a
122.482	0.075	244964	keystroke	t	n/a
122.617	0.015	245234	keystroke	t	n/a
122.917	0.105	245834	keystroke	r	n/a
123.412	0.075	246824	keystroke	Key.backspace	n/a
123.622	0.09	247244	keystroke	Key.backspace	n/a
123.817	0.135	247634	keystroke	r	n/a
124.357	0.12	248714	keystroke	i	n/a
124.537	0.105	249074	keystroke	e	n/a
124.732	0.105	249464	keystroke	v	n/a
124.912	0.09	249824	keystroke	e	n/a
125.182	0.105	250364	keystroke	Key.space	n/a
125.527	0.075	251054	keystroke	p	n/a
125.767	0.09	251534	keystroke	h	n/a
125.872	0.09	251744	keystroke	a	n/a
125.992	0.12	251984	keystroke	r	n/a
126.247	0.105	252494	keystroke	m	n/a
126.412	0.12	252824	keystroke	a	n/a
126.607	0.12	253214	keystroke	c	n/a
126.802	0.135	253604	keystroke	i	n/a
126.967	0.06	253934	keystroke	e	n/a
127.147	0.105	254294	keystroke	s	n/a
127.327	0.105	254654	keystroke	Key.space	n/a
127.6715	0.06	255343	keystroke	r	n/a
127.9415	0.105	255883	keystroke	i	n/a
128.0915	0.105	256183	keystroke	v	n/a
128.3015	0.105	256603	keystroke	e	n/a
128.5265	0.075	257053	keystroke	r	n/a
128.7815	0.09	257563	keystroke	Key.enter	n/a
128.88	7.553	257760	prompt	n/a	bleeding nissan perform texas\n
129.5315	0.09	259063	keystroke	b	n/a
129.7265	0.105	259453	keystroke	l	n/a
129.8915	0.09	259783	keystroke	e	n/a
130.0565	0.105	260113	keystroke	e	n/a
130.2965	0.105	260593	keystroke	d	n/a
130.4615	0.12	260923	keystroke	i	n/a
130.7165	0.105	261433	keystroke	n	n/a
131.0165	0.09	262033	keystroke	g	n/a
131.2865	0.075	262573	keystroke	Key.space	n/a
131.5265	0.09	263053	keystroke	n	n/a
131.7215	0.105	263443	keystroke	i	n/a
131.9165	0.075	263833	keystroke	s	n/a
132.0965	0.075	264193	keystroke	s	n/a
132.2915	0.135	264583	keystroke	a	n/a
132.5015	0.105	265003	keystroke	n	n/a
132.7565	0.105	265513	keystroke	Key.space	n/a
133.2065	0.09	266413	keystroke	p	n/a
133.3115	0.09	266623	keystroke	e	n/a
133.5215	0.09	267043	keystroke	r	n/a
133.7615	0.12	267523	keystroke	f	n/a
133.9715	0.12	267943	keystroke	o	n/a
134.1665	0.105	268333	keystroke	r	n/a
134.3915	0.105	268783	keystroke	m	n/a
134.6765	0.09	269353	keystroke	Key.space	n/a
135.0815	0.12	270163	keystroke	t	n/a
135.3065	0.075	270613	keystroke	e	n/a
135.5465	0.09	271093	keystroke	x	n/a
135.7415	0.12	271483	keystroke	a	n/a
136.0415	0.06	272083	keystroke	s	n/a
136.3415	0.09	272683	keystroke	Key.enter	n/a
136.4385	7.06	272877	prompt	n/a	position called outputs roman\n
137.0465	0.09	274093	keystroke	p	n/a
137.2865	0.105	274573	keystroke	o	n/a
137.4665	0.135	274933	keystroke	s	n/a
137.6465	0.12	275293	keystroke	i	n/a
137.7965	0.105	275593	keystroke	t	n/a
137.9025	0.119	275805	keystroke	i	n/a
138.0965	0.12	276193	keystroke	o	n/a
138.2765	0.135	276553	keystroke	n	n/a
138.5765	0.121	277153	keystroke	Key.space	n/a
138.8925	0.104	277785	keystroke	c	n/a
139.1015	0.135	278203	keystroke	a	n/a
139.3415	0.09	278683	keystroke	l	n/a
139.6265	0.015	279253	keystroke	l	n/a
139.6565	0.075	279313	keystroke	e	n/a
139.8665	0.105	279733	keystroke	d	n/a
140.0465	0.105	280093	keystroke	Key.space	n/a
140.4975	0.075	280995	keystroke	o	n/a
140.8415	0.106	281683	keystroke	u	n/a
141.0525	0.089	282105	keystroke	t	n/a
141.2915	0.045	282583	keystroke	p	n/a
141.5165	0.12	283033	keystroke	u	n/a
141.7115	0.105	283423	keystroke	t	n/a
141.9815	0.12	283963	keystroke	s	n/a
142.1915	0.09	284383	keystroke	Key.space	n/a
142.4465	0.12	284893	keystroke	r	n/a
142.6265	0.09	285253	keystroke	o	n/a
142.8515	0.09	285703	keystroke	m	n/a
142.9865	0.18	285973	keystroke	a	n/a
143.1515	0.09	286303	keystroke	n	n/a
143.4065	0.09	286813	keystroke	Key.enter	n/a
143.503	10.5405	287006	prompt	n/a	anthropology surveillance seats analyst\n
144.0815	0.135	288163	keystroke	a	n/a
144.3065	0.09	288613	keystroke	n	n/a
144.4715	0.105	288943	keystroke	t	n/a
144.6215	0.105	289243	keystroke	h	n/a
144.7865	0.105	289573	keystroke	r	n/a
144.9215	0.105	289843	keystroke	o	n/a
145.2065	0.09	290413	keystroke	p	n/a
145.4165	0.105	290833	keystroke	o	n/a
145.6415	0.09	291283	keystroke	l	n/a
145.8515	0.09	291703	keystroke	o	n/a
146.0315	0.106	292063	keystroke	g	n/a
146.2865	0.105	292573	keystroke	y	n/a
146.8415	0.105	293683	keystroke	Key.space	n/a
147.0675	0.134	294135	keystroke	s	n/a
147.3065	0.091	294613	keystroke	u	n/a
147.4725	0.089	294945	keystroke	r	n/a
147.6515	0.106	295303	keystroke	v	n/a
147.8625	0.119	295725	keystroke	e	n/a
148.2975	0.059	296595	keystroke	l	n/a
148.6265	0.09	297253	keystroke	Key.backspace	n/a
148.8965	0.091	297793	keystroke	i	n/a
149.1815	0.09	298363	keystroke	l	n/a
149.4075	0.104	298815	keystroke	l	n/a
149.6175	0.15	299235	keystroke	a	n/a
149.7975	0.12	299595	keystroke	n	n/a
149.9775	0.104	299955	keystroke	c	n/a
150.2015	0.106	300403	keystroke	e	n/a
150.4115	0.09	300823	keystroke	Key.space	n/a
150.5475	0.089	301095	keystroke	s	n/a
150.7115	0.106	301423	keystroke	e	n/a
150.8765	0.165	301753	keystroke	a	n/a
151.0265	0.09	302053	keystroke	t	n/a
151.2675	0.09	302535	keystroke	s	n/a
151.4765	0.105	302953	keystroke	Key.space	n/a
151.8515	0.136	303703	keystroke	a	n/a
152.0175	0.105	304035	keystroke	n	n/a
152.2265	0.151	304453	keystroke	a	n/a
152.4365	0.076	304873	keystroke	l	n/a
152.6915	0.105	305383	keystroke	y	n/a
152.8265	0.105	305653	keystroke	s	n/a
153.0515	0.075	306103	keystroke	t	n/a
153.2475	0.09	306495	keystroke	s	n/a
153.6815	0.075	307363	keystroke	Key.backspace	n/a
153.9365	0.105	307873	keystroke	Key.enter	n/a
154.05	9.9535	308100	prompt	n/a	projects configure aggregate swift\n
154.8375	0.09	309675	keystroke	p	n/a
154.9415	0.151	309883	keystroke	r	n/a
155.0775	0.06	310155	keystroke	o	n/a
155.2575	0.074	310515	keystroke	j	n/a
155.3625	0.105	310725	keystroke	e	n/a
155.5265	0.091	311053	keystroke	c	n/a
155.7365	0.09	311473	keystroke	t	n/a
155.9625	0.119	311925	keystroke	s	n/a
156.1565	0.09	312313	keystroke	Key.space	n/a
156.4115	0.121	312823	keystroke	c	n/a
156.5465	0.091	313093	keystroke	o	n/a
156.7275	0.089	313455	keystroke	n	n/a
156.9065	0.075	313813	keystroke	f	n/a
157.0425	0.09	314085	keystroke	i	n/a
157.1765	0.061	314353	keystroke	g	n/a
157.3125	0.089	314625	keystroke	u	n/a
157.4465	0.075	314893	keystroke	r	n/a
157.6875	0.09	315375	keystroke	e	n/a
158.2125	0.104	316425	keystroke	Key.space	n/a
158.5275	0.074	317055	keystroke	a	n/a
158.7375	0.075	317475	keystroke	g	n/a
158.9315	0.031	317863	keystroke	g	n/a
159.3825	0.105	318765	keystroke	e	n/a
159.8165	0.09	319633	keystroke	Key.backspace	n/a
159.9675	0.12	319935	keystroke	r	n/a
160.2065	0.106	320413	keystroke	e	n/a
160.4175	0.105	320835	keystroke	g	n/a
160.8815	0.136	321763	keystroke	a	n/a
161.1075	0.089	322215	keystroke	t	n/a
161.3775	0.09	322755	keystroke	e	n/a
161.6165	0.105	323233	keystroke	Key.space	n/a
161.7525	0.104	323505	keystroke	s	n/a
162.0075	0.105	324015	keystroke	w	n/a
162.1575	0.12	324315	keystroke	i	n/a
162.3375	0.045	324675	keystroke	t	n/a
162.697	0.0595	325394	keystroke	Key.backspace	n/a
162.8175	0.1195	325635	keystroke	f	n/a
163.072	0.09	326144	keystroke	t	n/a
163.912	0.089	327824	keystroke	Key.enter	n/a
164.0085	8.32	328017	prompt	n/a	fascinating adam investigated serves\n
164.602	0.15	329204	keystroke	f	n/a
165.067	0.12	330134	keystroke	a	n/a
165.277	0.06	330554	keystroke	s	n/a
165.457	0.12	330914	keystroke	c	n/a
165.787	0.09	331574	keystroke	i	n/a
166.027	0.09	332054	keystroke	n	n/a
166.237	0.12	332474	keystroke	a	n/a
166.447	0.105	332894	keystroke	t	n/a
166.672	0.075	333344	keystroke	i	n/a
166.882	0.105	333764	keystroke	n	n/a
167.047	0.09	334094	keystroke	g	n/a
167.226	0.076	334452	keystroke	Key.space	n/a
167.407	0.135	334814	keystroke	a	n/a
167.662	0.075	335324	keystroke	d	n/a
167.902	0.105	335804	keystroke	a	n/a
168.187	0.105	336374	keystroke	m	n/a
168.397	0.075	336794	keystroke	Key.space	n/a
168.592	0.06	337184	keystroke	i	n/a
168.847	0.105	337694	keystroke	n	n/a
169.057	0.09	338114	keystroke	v	n/a
169.267	0.09	338534	keystroke	e	n/a
169.432	0.075	338864	keystroke	s	n/a
169.582	0.09	339164	keystroke	t	n/a
169.747	0.105	339494	keystroke	i	n/a
169.867	0.09	339734	keystroke	g	n/a
170.002	0.15	340004	keystroke	a	n/a
170.122	0.12	340244	keystroke	t	n/a
170.347	0.075	340694	keystroke	e	n/a
170.557	0.075	341114	keystroke	d	n/a
170.707	0.12	341414	keystroke	Key.space	n/a
170.977	0.09	341954	keystroke	s	n/a
171.187	0.075	342374	keystroke	e	n/a
171.442	0.045	342884	keystroke	r	n/a
171.577	0.09	343154	keystroke	v	n/a
171.802	0.045	343604	keystroke	e	n/a
171.982	0.105	343964	keystroke	s	n/a
172.252	0.075	344504	keystroke	Key.enter	n/a
172.3325	10.826	344665	prompt	n/a	knives publishers holidays zoloft\n
173.032	0.075	346064	keystroke	k	n/a
173.257	0.06	346514	keystroke	n	n/a
173.392	0.105	346784	keystroke	i	n/a
173.692	0.105	347384	keystroke	v	n/a
173.932	0.075	347864	keystroke	e	n/a
174.187	0.105	348374	keystroke	s	n/a
174.817	0.105	349634	keystroke	Key.space	n/a
175.117	0.09	350234	keystroke	p	n/a
175.372	0.075	350744	keystroke	u	n/a
175.552	0.09	351104	keystroke	b	n/a
175.762	0.075	351524	keystroke	l	n/a
175.942	0.105	351884	keystroke	i	n/a
176.137	0.12	352274	keystroke	s	n/a
176.302	0.105	352604	keystroke	h	n/a
176.482	0.105	352964	keystroke	e	n/a
176.722	0.075	353444	keystroke	r	n/a
176.977	0.135	353954	keystroke	s	n/a
177.367	0.09	354734	keystroke	Key.space	n/a
177.682	0.075	355364	keystroke	h	n/a
177.787	0.105	355574	keystroke	o	n/a
178.042	0.075	356084	keystroke	l	n/a
178.252	0.075	356504	keystroke	i	n/a
178.372	0.12	356744	keystroke	d	n/a
178.477	0.18	356954	keystroke	a	n/a
178.672	0.15	357344	keystroke	y	n/a
178.882	0.12	357764	keystroke	s	n/a
179.467	0.105	358934	keystroke	Key.space	n/a
179.842	0.135	359684	keystroke	z	n/a
179.992	0.09	359984	keystroke	o	n/a
180.202	0.075	360404	keystroke	l	n/a
180.412	0.105	360824	keystroke	o	n/a
180.667	0.12	361334	keystroke	f	n/a
180.937	0.09	361874	keystroke	t	n/a
183.115	0.042	366230	keystroke	Key.enter	n/a
183.1635	8.4395	366327	prompt	n/a	stripes stay wishes disciplines\n
183.772	0.09	367544	keystroke	s	n/a
183.952	0.105	367904	keystroke	t	n/a
184.042	0.135	368084	keystroke	r	n/a
184.192	0.075	368384	keystroke	i	n/a
184.372	0.075	368744	keystroke	p	n/a
184.747	0.075	369494	keystroke	e	n/a
184.987	0.105	369974	keystroke	s	n/a
185.482	0.105	370964	keystroke	Key.space	n/a
185.617	0.12	371234	keystroke	s	n/a
185.827	0.09	371654	keystroke	t	n/a
185.992	0.15	371984	keystroke	a	n/a
186.202	0.105	372404	keystroke	y	n/a
186.412	0.09	372824	keystroke	Key.space	n/a
186.622	0.03	373244	keystroke	s	n/a
186.907	0.075	373814	keystroke	Key.backspace	n/a
187.027	0.105	374054	keystroke	w	n/a
187.192	0.09	374384	keystroke	i	n/a
187.312	0.09	374624	keystroke	s	n/a
187.432	0.105	374864	keystroke	h	n/a
187.552	0.105	375104	keystroke	e	n/a
187.777	0.105	375554	keystroke	s	n/a
187.957	0.09	375914	keystroke	Key.space	n/a
188.272	0.09	376544	keystroke	d	n/a
188.437	0.105	376874	keystroke	i	n/a
188.617	0.105	377234	keystroke	s	n/a
188.872	0.09	377744	keystroke	c	n/a
189.877	0.105	379754	keystroke	i	n/a
190.147	0.09	380294	keystroke	p	n/a
190.387	0.12	380774	keystroke	l	n/a
190.627	0.075	381254	keystroke	i	n/a
190.837	0.105	381674	keystroke	n	n/a
190.987	0.06	381974	keystroke	e	n/a
191.182	0.105	382364	keystroke	s	n/a
191.512	0.09	383024	keystroke	Key.enter	n/a
191.607	8.7715	383214	prompt	n/a	queensland baseline fifth developers\n
192.412	0.12	384824	keystroke	q	n/a
192.577	0.09	385154	keystroke	u	n/a
192.682	0.075	385364	keystroke	e	n/a
192.847	0.105	385694	keystroke	e	n/a
193.012	0.105	386024	keystroke	n	n/a
193.192	0.105	386384	keystroke	s	n/a
193.372	0.105	386744	keystroke	l	n/a
193.462	0.165	386924	keystroke	a	n/a
193.628	0.119	387256	keystroke	n	n/a
193.807	0.135	387614	keystroke	d	n/a
194.002	0.09	388004	keystroke	Key.space	n/a
194.272	0.0895	388544	keystroke	b	n/a
194.3765	0.15	388753	keystroke	a	n/a
194.5415	0.075	389083	keystroke	s	n/a
194.7065	0.105	389413	keystroke	e	n/a
194.8865	0.105	389773	keystroke	l	n/a
195.3365	0.09	390673	keystroke	i	n/a
195.5315	0.12	391063	keystroke	n	n/a
195.6815	0.105	391363	keystroke	e	n/a
195.9515	0.09	391903	keystroke	Key.space	n/a
196.1015	0.105	392203	keystroke	f	n/a
196.2365	0.09	392473	keystroke	i	n/a
196.4915	0.09	392983	keystroke	f	n/a
196.6865	0.091	393373	keystroke	t	n/a
197.1065	0.106	394213	keystroke	h	n/a
197.3765	0.105	394753	keystroke	Key.space	n/a
197.5425	0.134	395085	keystroke	d	n/a
197.8715	0.12	395743	keystroke	e	n/a
198.1715	0.076	396343	keystroke	v	n/a
198.3965	0.091	396793	keystroke	e	n/a
198.6665	0.09	397333	keystroke	l	n/a
198.8915	0.06	397783	keystroke	o	n/a
199.0865	0.045	398173	keystroke	p	n/a
199.1765	0.09	398353	keystroke	e	n/a
199.3715	0.06	398743	keystroke	r	n/a
199.5815	0.105	399163	keystroke	s	n/a
200.2865	0.09	400573	keystroke	Key.enter	n/a
200.383	9.161	400766	prompt	n/a	workshops webmaster logos inspections\n
201.0965	0.105	402193	keystroke	w	n/a
201.2465	0.09	402493	keystroke	o	n/a
201.3515	0.075	402703	keystroke	r	n/a
201.4715	0.091	402943	keystroke	k	n/a
201.5765	0.12	403153	keystroke	s	n/a
201.7415	0.15	403483	keystroke	h	n/a
201.8615	0.12	403723	keystroke	o	n/a
202.0865	0.135	404173	keystroke	p	n/a
202.2825	0.119	404565	keystroke	s	n/a
202.4465	0.105	404893	keystroke	Key.space	n/a
202.7175	0.089	405435	keystroke	w	n/a
202.9115	0.105	405823	keystroke	e	n/a
203.1225	0.104	406245	keystroke	b	n/a
203.3015	0.105	406603	keystroke	s	n/a
203.6615	0.075	407323	keystroke	Key.backspace	n/a
203.8715	0.091	407743	keystroke	m	n/a
204.0215	0.12	408043	keystroke	a	n/a
204.2015	0.12	408403	keystroke	s	n/a
204.4125	0.105	408825	keystroke	t	n/a
204.6365	0.15	409273	keystroke	e	n/a
204.7565	0.12	409513	keystroke	r	n/a
205.0115	0.075	410023	keystroke	Key.space	n/a
205.3115	0.105	410623	keystroke	l	n/a
205.5525	0.119	411105	keystroke	o	n/a
205.7775	0.119	411555	keystroke	g	n/a
205.9715	0.15	411943	keystroke	o	n/a
206.2265	0.091	412453	keystroke	s	n/a
206.6615	0.09	413323	keystroke	Key.space	n/a
206.8865	0.075	413773	keystroke	i	n/a
207.0965	0.135	414193	keystroke	n	n/a
207.5015	0.135	415003	keystroke	s	n/a
207.6965	0.091	415393	keystroke	p	n/a
208.0415	0.136	416083	keystroke	e	n/a
208.2815	0.106	416563	keystroke	c	n/a
208.5065	0.106	417013	keystroke	t	n/a
208.6875	0.104	417375	keystroke	i	n/a
208.8515	0.135	417703	keystroke	o	n/a
208.9415	0.15	417883	keystroke	n	n/a
209.1375	0.105	418275	keystroke	s	n/a
209.4365	0.105	418873	keystroke	Key.enter	n/a
209.5485	7.945	419097	prompt	n/a	switch affecting john coupons\n
210.1115	0.09	420223	keystroke	w	n/a
210.4415	0.075	420883	keystroke	Key.backspace	n/a
210.6065	0.091	421213	keystroke	s	n/a
210.7865	0.105	421573	keystroke	w	n/a
210.9215	0.105	421843	keystroke	i	n/a
211.0875	0.074	422175	keystroke	t	n/a
211.3115	0.1195	422623	keystroke	c	n/a
211.537	0.1055	423074	keystroke	h	n/a
211.7465	0.1045	423493	keystroke	Key.space	n/a
211.896	0.105	423792	keystroke	a	n/a
212.107	0.06	424214	keystroke	f	n/a
212.2265	0.0745	424453	keystroke	f	n/a
212.4365	0.105	424873	keystroke	e	n/a
212.6015	0.09	425203	keystroke	c	n/a
212.8265	0.105	425653	keystroke	t	n/a
212.9915	0.09	425983	keystroke	i	n/a
213.1565	0.15	426313	keystroke	n	n/a
213.3665	0.105	426733	keystroke	g	n/a
213.5615	0.075	427123	keystroke	Key.space	n/a
213.6975	0.119	427395	keystroke	j	n/a
213.8315	0.09	427663	keystroke	o	n/a
214.0565	0.075	428113	keystroke	h	n/a
214.2815	0.12	428563	keystroke	n	n/a
214.4615	0.09	428923	keystroke	Key.space	n/a
214.6415	0.105	429283	keystroke	c	n/a
214.7615	0.105	429523	keystroke	o	n/a
215.6015	0.105	431203	keystroke	u	n/a
215.9015	0.075	431803	keystroke	p	n/a
216.1115	0.09	432223	keystroke	o	n/a
216.4865	0.075	432973	keystroke	n	n/a
216.8015	0.09	433603	keystroke	s	n/a
217.4015	0.09	434803	keystroke	Key.enter	n/a
217.4985	9.28	434997	prompt	n/a	divx optics borough our\n
218.1215	0.105	436243	keystroke	d	n/a
218.4515	0.105	436903	keystroke	i	n/a
218.6015	0.105	437203	keystroke	v	n/a
219.0815	0.105	438163	keystroke	x	n/a
219.6665	0.09	439333	keystroke	Key.space	n/a
219.8465	0.09	439693	keystroke	o	n/a
220.0865	0.09	440173	keystroke	p	n/a
220.2065	0.12	440413	keystroke	t	n/a
220.3565	0.09	440713	keystroke	i	n/a
220.8665	0.105	441733	keystroke	c	n/a
221.3615	0.09	442723	keystroke	s	n/a
222.6965	0.075	445393	keystroke	Key.space	n/a
222.8915	0.09	445783	keystroke	b	n/a
223.1465	0.03	446293	keystroke	o	n/a
223.7015	0.12	447403	keystroke	r	n/a
224.3015	0.09	448603	keystroke	o	n/a
224.5565	0.12	449113	keystroke	u	n/a
224.7665	0.121	449533	keystroke	g	n/a
224.9315	0.12	449863	keystroke	h	n/a
225.2015	0.09	450403	keystroke	Key.space	n/a
225.4715	0.09	450943	keystroke	o	n/a
225.7565	0.12	451513	keystroke	u	n/a
225.9215	0.105	451843	keystroke	r	n/a
226.6715	0.105	453343	keystroke	Key.enter	n/a
226.7825	10.286	453565	prompt	n/a	devoted somerset manufacturers current\n
227.4665	0.09	454933	keystroke	d	n/a
227.6615	0.09	455323	keystroke	e	n/a
227.8115	0.135	455623	keystroke	v	n/a
227.9615	0.105	455923	keystroke	o	n/a
228.0815	0.09	456163	keystroke	t	n/a
228.2475	0.074	456495	keystroke	e	n/a
228.4715	0.075	456943	keystroke	d	n/a
228.6965	0.105	457393	keystroke	Key.space	n/a
228.8915	0.075	457783	keystroke	d	n/a
229.1765	0.075	458353	keystroke	Key.backspace	n/a
229.2815	0.15	458563	keystroke	s	n/a
229.4465	0.1055	458893	keystroke	o	n/a
229.567	0.135	459134	keystroke	m	n/a
229.732	0.09	459464	keystroke	e	n/a
229.942	0.075	459884	keystroke	r	n/a
230.197	0.135	460394	keystroke	s	n/a
230.512	0.075	461024	keystroke	e	n/a
230.677	0.09	461354	keystroke	t	n/a
231.082	0.075	462164	keystroke	Key.space	n/a
231.292	0.075	462584	keystroke	m	n/a
231.472	0.135	462944	keystroke	a	n/a
231.667	0.09	463334	keystroke	n	n/a
231.862	0.12	463724	keystroke	u	n/a
232.042	0.12	464084	keystroke	f	n/a
232.237	0.12	464474	keystroke	a	n/a
232.432	0.09	464864	keystroke	c	n/a
232.627	0.09	465254	keystroke	t	n/a
232.792	0.15	465584	keystroke	u	n/a
232.927	0.105	465854	keystroke	r	n/a
233.962	0.09	467924	keystroke	e	n/a
234.172	0.075	468344	keystroke	r	n/a
234.397	0.105	468794	keystroke	s	n/a
235.702	0.12	471404	keystroke	Key.space	n/a
235.867	0.15	471734	keystroke	c	n/a
236.047	0.09	472094	keystroke	u	n/a
236.182	0.06	472364	keystroke	r	n/a
236.332	0.045	472664	keystroke	r	n/a
236.392	0.135	472784	keystroke	e	n/a
236.587	0.12	473174	keystroke	n	n/a
236.737	0.09	473474	keystroke	t	n/a
236.962	0.105	473924	keystroke	Key.enter	n/a
237.0725	6.701	474145	prompt	n/a	absent shop guidance body\n
237.907	0.15	475814	keystroke	a	n/a
238.147	0.105	476294	keystroke	b	n/a
238.312	0.105	476624	keystroke	s	n/a
238.507	0.09	477014	keystroke	e	n/a
238.792	0.105	477584	keystroke	n	n/a
239.197	0.105	478394	keystroke	t	n/a
239.467	0.09	478934	keystroke	Key.space	n/a
239.737	0.12	479474	keystroke	s	n/a
239.932	0.12	479864	keystroke	h	n/a
240.157	0.105	480314	keystroke	o	n/a
240.412	0.105	480824	keystroke	p	n/a
240.727	0.105	481454	keystroke	Key.space	n/a
241.042	0.105	482084	keystroke	g	n/a
241.192	0.075	482384	keystroke	u	n/a
241.372	0.105	482744	keystroke	i	n/a
241.477	0.075	482954	keystroke	d	n/a
241.687	0.165	483374	keystroke	a	n/a
241.867	0.135	483734	keystroke	n	n/a
242.122	0.09	484244	keystroke	c	n/a
242.377	0.09	484754	keystroke	e	n/a
242.602	0.09	485204	keystroke	Key.space	n/a
242.857	0.075	485714	keystroke	b	n/a
243.022	0.12	486044	keystroke	o	n/a
243.187	0.105	486374	keystroke	d	n/a
243.382	0.09	486764	keystroke	y	n/a
243.667	0.105	487334	keystroke	Key.enter	n/a
243.7775	5.5625	487555	prompt	n/a	worn cornell foam resulted\n
244.402	0.09	488804	keystroke	w	n/a
244.507	0.12	489014	keystroke	o	n/a
244.642	0.105	489284	keystroke	r	n/a
244.852	0.105	489704	keystroke	n	n/a
245.107	0.105	490214	keystroke	Key.space	n/a
245.437	0.105	490874	keystroke	c	n/a
245.587	0.09	491174	keystroke	o	n/a
245.737	0.105	491474	keystroke	r	n/a
245.902	0.105	491804	keystroke	n	n/a
246.112	0.09	492224	keystroke	e	n/a
246.307	0.105	492614	keystroke	l	n/a
246.502	0.09	493004	keystroke	l	n/a
246.697	0.105	493394	keystroke	Key.space	n/a
246.817	0.12	493634	keystroke	f	n/a
247.012	0.12	494024	keystroke	o	n/a
247.207	0.15	494414	keystroke	a	n/a
247.387	0.105	494774	keystroke	m	n/a
247.642	0.075	495284	keystroke	Key.space	n/a
247.927	0.105	495854	keystroke	r	n/a
248.017	0.105	496034	keystroke	e	n/a
248.257	0.105	496514	keystroke	s	n/a
248.362	0.09	496724	keystroke	u	n/a
248.572	0.075	497144	keystroke	l	n/a
248.632	0.09	497264	keystroke	t	n/a
248.812	0.075	497624	keystroke	e	n/a
249.022	0.075	498044	keystroke	d	n/a
249.232	0.105	498464	keystroke	Key.enter	n/a
249.349	6.8895	498698	prompt	n/a	tough clearly stick columbia\n
249.982	0.091	499964	keystroke	t	n/a
250.117	0.105	500234	keystroke	o	n/a
250.312	0.09	500624	keystroke	u	n/a
250.447	0.105	500894	keystroke	g	n/a
250.612	0.09	501224	keystroke	h	n/a
250.792	0.075	501584	keystroke	Key.space	n/a
250.972	0.105	501944	keystroke	s	n/a
251.377	0.075	502754	keystroke	Key.backspace	n/a
251.497	0.105	502994	keystroke	c	n/a
251.662	0.105	503324	keystroke	l	n/a
251.782	0.09	503564	keystroke	e	n/a
251.857	0.165	503714	keystroke	a	n/a
251.992	0.12	503984	keystroke	r	n/a
252.187	0.075	504374	keystroke	l	n/a
252.472	0.075	504944	keystroke	y	n/a
252.667	0.075	505334	keystroke	Key.space	n/a
253.057	0.105	506114	keystroke	s	n/a
253.177	0.075	506354	keystroke	t	n/a
253.327	0.09	506654	keystroke	i	n/a
253.462	0.12	506924	keystroke	c	n/a
253.627	0.075	507254	keystroke	k	n/a
253.762	0.105	507524	keystroke	Key.space	n/a
254.242	0.105	508484	keystroke	c	n/a
254.407	0.075	508814	keystroke	o	n/a
254.557	0.09	509114	keystroke	l	n/a
254.782	0.045	509564	keystroke	u	n/a
254.962	0.06	509924	keystroke	m	n/a
255.202	0.06	510404	keystroke	b	n/a
255.382	0.09	510764	keystroke	i	n/a
255.532	0.12	511064	keystroke	a	n/a
256.132	0.105	512264	keystroke	Key.enter	n/a
256.2425	8.9205	512485	prompt	n/a	leading coastal acquire condo\n
258.127	0.27	516254	keystroke	l	n/a
258.232	0.105	516464	keystroke	e	n/a
258.322	0.15	516644	keystroke	a	n/a
258.457	0.135	516914	keystroke	d	n/a
258.577	0.105	517154	keystroke	i	n/a
258.727	0.135	517454	keystroke	n	n/a
258.907	0.105	517814	keystroke	g	n/a
259.282	0.075	518564	keystroke	Key.space	n/a
259.492	0.12	518984	keystroke	c	n/a
259.687	0.105	519374	keystroke	o	n/a
260.017	0.135	520034	keystroke	a	n/a
260.257	0.09	520514	keystroke	s	n/a
260.467	0.12	520934	keystroke	t	n/a
260.767	0.165	521534	keystroke	a	n/a
260.962	0.12	521924	keystroke	l	n/a
261.202	0.105	522404	keystroke	Key.space	n/a
262.371	0.076	524742	keystroke	a	n/a
262.657	0.12	525314	keystroke	c	n/a
262.957	0.105	525914	keystroke	q	n/a
263.137	0.089	526274	keystroke	u	n/a
263.332	0.105	526664	keystroke	i	n/a
263.451	0.075	526902	keystroke	r	n/a
263.661	0.105	527322	keystroke	e	n/a
263.947	0.105	527894	keystroke	Key.space	n/a
264.157	0.119	528314	keystroke	c	n/a
264.307	0.089	528614	keystroke	o	n/a
264.442	0.105	528884	keystroke	n	n/a
264.622	0.12	529244	keystroke	d	n/a
264.817	0.105	529634	keystroke	o	n/a
265.072	0.089	530144	keystroke	Key.enter	n/a
265.1695	7.404	530339	prompt	n/a	work appreciate practices versus\n
265.762	0.135	531524	keystroke	w	n/a
265.912	0.089	531824	keystroke	o	n/a
266.017	0.104	532034	keystroke	r	n/a
266.167	0.075	532334	keystroke	k	n/a
266.317	0.09	532634	keystroke	Key.space	n/a
266.422	0.135	532844	keystroke	a	n/a
266.572	0.09	533144	keystroke	p	n/a
266.752	0.12	533504	keystroke	p	n/a
266.947	0.09	533894	keystroke	r	n/a
267.216	0.105	534432	keystroke	e	n/a
267.621	0.121	535242	keystroke	c	n/a
267.817	0.12	535634	keystroke	i	n/a
267.982	0.165	535964	keystroke	a	n/a
268.192	0.105	536384	keystroke	t	n/a
268.417	0.09	536834	keystroke	e	n/a
268.732	0.104	537464	keystroke	Key.space	n/a
269.107	0.104	538214	keystroke	p	n/a
269.332	0.105	538664	keystroke	r	n/a
269.482	0.12	538964	keystroke	a	n/a
269.587	0.09	539174	keystroke	c	n/a
269.797	0.075	539594	keystroke	t	n/a
269.962	0.105	539924	keystroke	i	n/a
270.112	0.09	540224	keystroke	c	n/a
270.307	0.09	540614	keystroke	e	n/a
270.487	0.12	540974	keystroke	s	n/a
270.891	0.106	541782	keystroke	Key.space	n/a
271.162	0.12	542324	keystroke	v	n/a
271.371	0.091	542742	keystroke	e	n/a
271.566	0.076	543132	keystroke	r	n/a
271.837	0.105	543674	keystroke	s	n/a
272.077	0.12	544154	keystroke	u	n/a
272.242	0.12	544484	keystroke	s	n/a
272.482	0.09	544964	keystroke	Key.enter	n/a
272.579	8.336	545158	prompt	n/a	notifications plastic robust challenges\n
273.367	0.09	546734	keystroke	n	n/a
273.532	0.135	547064	keystroke	o	n/a
273.697	0.12	547394	keystroke	t	n/a
273.877	0.135	547754	keystroke	i	n/a
274.027	0.09	548054	keystroke	f	n/a
274.162	0.105	548324	keystroke	i	n/a
274.268	0.134	548536	keystroke	c	n/a
274.417	0.135	548834	keystroke	a	n/a
274.507	0.12	549014	keystroke	t	n/a
274.672	0.09	549344	keystroke	i	n/a
274.822	0.135	549644	keystroke	o	n/a
274.897	0.12	549794	keystroke	n	n/a
275.032	0.12	550064	keystroke	s	n/a
275.212	0.105	550424	keystroke	Key.space	n/a
275.707	0.09	551414	keystroke	p	n/a
275.917	0.12	551834	keystroke	l	n/a
276.022	0.105	552044	keystroke	a	n/a
276.082	0.15	552164	keystroke	s	n/a
276.217	0.09	552434	keystroke	t	n/a
276.352	0.105	552704	keystroke	i	n/a
276.487	0.12	552974	keystroke	c	n/a
276.682	0.105	553364	keystroke	Key.space	n/a
277.042	0.12	554084	keystroke	r	n/a
277.163	0.104	554326	keystroke	o	n/a
277.372	0.075	554744	keystroke	b	n/a
277.522	0.105	555044	keystroke	u	n/a
277.642	0.135	555284	keystroke	s	n/a
277.882	0.09	555764	keystroke	t	n/a
278.212	0.105	556424	keystroke	Key.space	n/a
278.407	0.12	556814	keystroke	c	n/a
278.572	0.105	557144	keystroke	h	n/a
278.662	0.15	557324	keystroke	a	n/a
278.857	0.09	557714	keystroke	l	n/a
279.052	0.075	558104	keystroke	l	n/a
279.172	0.12	558344	keystroke	e	n/a
279.307	0.12	558614	keystroke	n	n/a
279.457	0.09	558914	keystroke	g	n/a
279.622	0.105	559244	keystroke	e	n/a
279.742	0.105	559484	keystroke	s	n/a
280.792	0.12	561584	keystroke	Key.enter	n/a
280.92	9.894	561840	prompt	n/a	virtually marked beginner preference\n
281.737	0.075	563474	keystroke	v	n/a
282.007	0.015	564014	keystroke	i	n/a
282.082	0.075	564164	keystroke	r	n/a
282.232	0.09	564464	keystroke	t	n/a
282.442	0.12	564884	keystroke	u	n/a
282.652	0.135	565304	keystroke	a	n/a
282.892	0.12	565784	keystroke	l	n/a
283.132	0.09	566264	keystroke	l	n/a
283.462	0.09	566924	keystroke	y	n/a
283.762	0.075	567524	keystroke	Key.space	n/a
283.972	0.075	567944	keystroke	m	n/a
284.077	0.105	568154	keystroke	a	n/a
284.167	0.09	568334	keystroke	r	n/a
284.317	0.105	568634	keystroke	k	n/a
284.437	0.075	568874	keystroke	e	n/a
284.692	0.105	569384	keystroke	d	n/a
284.932	0.075	569864	keystroke	Key.space	n/a
285.337	0.075	570674	keystroke	b	n/a
285.562	0.075	571124	keystroke	e	n/a
285.757	0.09	571514	keystroke	g	n/a
285.922	0.09	571844	keystroke	i	n/a
286.102	0.105	572204	keystroke	n	n/a
286.282	0.09	572564	keystroke	e	n/a
286.777	0.09	573554	keystroke	Key.backspace	n/a
287.017	0.09	574034	keystroke	n	n/a
287.152	0.105	574304	keystroke	e	n/a
287.392	0.09	574784	keystroke	r	n/a
287.632	0.075	575264	keystroke	Key.space	n/a
287.782	0.135	575564	keystroke	p	n/a
287.992	0.09	575984	keystroke	e	n/a
288.487	0.09	576974	keystroke	Key.backspace	n/a
288.667	0.06	577334	keystroke	r	n/a
288.817	0.105	577634	keystroke	e	n/a
289.042	0.09	578084	keystroke	f	n/a
289.237	0.15	578474	keystroke	e	n/a
289.357	0.15	578714	keystroke	r	n/a
289.597	0.15	579194	keystroke	e	n/a
289.852	0.15	579704	keystroke	n	n/a
290.107	0.075	580214	keystroke	c	n/a
290.302	0.09	580604	keystroke	e	n/a
290.722	0.09	581444	keystroke	Key.enter	n/a
290.8185	5.906	581637	prompt	n/a	ways blocking systems tracker\n
291.412	0.105	582824	keystroke	w	n/a
291.562	0.165	583124	keystroke	a	n/a
291.772	0.135	583544	keystroke	y	n/a
291.967	0.135	583934	keystroke	s	n/a
292.147	0.075	584294	keystroke	Key.space	n/a
292.312	0.09	584624	keystroke	b	n/a
292.477	0.075	584954	keystroke	l	n/a
292.657	0.09	585314	keystroke	o	n/a
292.777	0.165	585554	keystroke	c	n/a
292.8965	0.075	585793	keystroke	k	n/a
293.077	0.1345	586154	keystroke	i	n/a
293.1665	0.1805	586333	keystroke	n	n/a
293.3615	0.09	586723	keystroke	g	n/a
293.572	0.09	587144	keystroke	Key.space	n/a
293.8115	0.1205	587623	keystroke	s	n/a
294.0365	0.09	588073	keystroke	y	n/a
294.1565	0.12	588313	keystroke	s	n/a
294.2915	0.1055	588583	keystroke	t	n/a
294.4115	0.105	588823	keystroke	e	n/a
294.5765	0.135	589153	keystroke	m	n/a
294.7865	0.12	589573	keystroke	s	n/a
295.0265	0.12	590053	keystroke	Key.space	n/a
295.4465	0.075	590893	keystroke	t	n/a
295.5965	0.105	591193	keystroke	r	n/a
295.6865	0.18	591373	keystroke	a	n/a
295.8365	0.105	591673	keystroke	c	n/a
296.0015	0.105	592003	keystroke	k	n/a
296.1665	0.15	592333	keystroke	e	n/a
296.2715	0.12	592543	keystroke	r	n/a
296.6315	0.09	593263	keystroke	Key.enter	n/a
296.729	9.7445	593458	prompt	n/a	stability project wordpress msie\n
297.3365	0.105	594673	keystroke	s	n/a
297.4565	0.105	594913	keystroke	t	n/a
297.5765	0.165	595153	keystroke	a	n/a
297.7115	0.09	595423	keystroke	b	n/a
297.8765	0.15	595753	keystroke	i	n/a
298.0715	0.12	596143	keystroke	l	n/a
298.1615	0.135	596323	keystroke	i	n/a
298.4015	0.105	596803	keystroke	t	n/a
298.6265	0.12	597253	keystroke	y	n/a
299.5865	0.135	599173	keystroke	Key.space	n/a
300.2615	0.12	600523	keystroke	p	n/a
300.3965	0.105	600793	keystroke	r	n/a
300.4865	0.09	600973	keystroke	o	n/a
300.6065	0.135	601213	keystroke	j	n/a
300.7265	0.09	601453	keystroke	e	n/a
300.8465	0.105	601693	keystroke	c	n/a
301.0865	0.075	602173	keystroke	t	n/a
301.2815	0.09	602563	keystroke	Key.space	n/a
301.6265	0.09	603253	keystroke	w	n/a
301.7315	0.09	603463	keystroke	o	n/a
301.8365	0.09	603673	keystroke	r	n/a
302.2415	0.075	604483	keystroke	d	n/a
302.7815	0.105	605563	keystroke	s	n/a
303.2015	0.06	606403	keystroke	Key.backspace	n/a
303.4265	0.12	606853	keystroke	p	n/a
303.5765	0.105	607153	keystroke	r	n/a
303.6215	0.09	607243	keystroke	e	n/a
303.8315	0.09	607663	keystroke	s	n/a
304.0115	0.09	608023	keystroke	s	n/a
304.2065	0.075	608413	keystroke	Key.space	n/a
304.4465	0.105	608893	keystroke	m	n/a
304.7765	0.105	609553	keystroke	s	n/a
304.9565	0.12	609913	keystroke	i	n/a
305.1965	0.045	610393	keystroke	e	n/a
306.3965	0.075	612793	keystroke	Key.enter	n/a
306.4775	6.851	612955	prompt	n/a	print payments msgid michelle\n
307.4915	0.09	614983	keystroke	p	n/a
307.5965	0.15	615193	keystroke	r	n/a
307.7015	0.12	615403	keystroke	i	n/a
307.7915	0.12	615583	keystroke	n	n/a
307.9125	0.089	615825	keystroke	t	n/a
308.0165	0.105	616033	keystroke	Key.space	n/a
308.1815	0.09	616363	keystroke	p	n/a
308.2865	0.18	616573	keystroke	a	n/a
308.4675	0.074	616935	keystroke	y	n/a
308.6765	0.09	617353	keystroke	m	n/a
308.7815	0.135	617563	keystroke	e	n/a
308.9015	0.09	617803	keystroke	n	n/a
309.0215	0.09	618043	keystroke	t	n/a
309.2615	0.12	618523	keystroke	s	n/a
309.5015	0.09	619003	keystroke	Key.space	n/a
309.8915	0.09	619783	keystroke	m	n/a
310.0865	0.09	620173	keystroke	s	n/a
310.3115	0.105	620623	keystroke	g	n/a
310.5215	0.12	621043	keystroke	i	n/a
310.9115	0.09	621823	keystroke	d	n/a
311.1665	0.105	622333	keystroke	Key.space	n/a
311.5865	0.075	623173	keystroke	m	n/a
311.7215	0.105	623443	keystroke	i	n/a
311.8715	0.12	623743	keystroke	c	n/a
312.0065	0.12	624013	keystroke	h	n/a
312.2015	0.15	624403	keystroke	e	n/a
312.4715	0.09	624943	keystroke	l	n/a
312.6815	0.09	625363	keystroke	l	n/a
312.8315	0.105	625663	keystroke	e	n/a
313.2365	0.09	626473	keystroke	Key.enter	n/a
313.3325	6.971	626665	prompt	n/a	film expedia trust client\n
314.0915	0.09	628183	keystroke	f	n/a
314.4515	0.075	628903	keystroke	i	n/a
314.6615	0.09	629323	keystroke	l	n/a
314.8865	0.105	629773	keystroke	m	n/a
315.6065	0.09	631213	keystroke	Key.space	n/a
315.8465	0.105	631693	keystroke	e	n/a
316.1615	0.12	632323	keystroke	x	n/a
316.3415	0.105	632683	keystroke	p	n/a
316.4915	0.075	632983	keystroke	e	n/a
316.6865	0.09	633373	keystroke	d	n/a
316.8065	0.105	633613	keystroke	i	n/a
316.9715	0.135	633943	keystroke	a	n/a
317.3765	0.09	634753	keystroke	Key.space	n/a
317.6765	0.075	635353	keystroke	t	n/a
317.8715	0.09	635743	keystroke	r	n/a
318.0215	0.12	636043	keystroke	u	n/a
318.1265	0.105	636253	keystroke	s	n/a
318.2915	0.105	636583	keystroke	t	n/a
318.4865	0.12	636973	keystroke	Key.space	n/a
318.9065	0.15	637813	keystroke	c	n/a
319.2365	0.09	638473	keystroke	l	n/a
319.4915	0.105	638983	keystroke	i	n/a
319.6565	0.135	639313	keystroke	e	n/a
319.8225	0.104	639645	keystroke	n	n/a
319.9715	0.075	639943	keystroke	t	n/a
320.1815	0.12	640363	keystroke	Key.enter	n/a
320.307	11.156	640614	prompt	n/a	includes respondents whole birthday\n
320.9465	0.075	641893	keystroke	i	n/a
321.1265	0.09	642253	keystroke	n	n/a
321.5315	0.075	643063	keystroke	c	n/a
321.7115	0.075	643423	keystroke	l	n/a
321.9065	0.075	643813	keystroke	u	n/a
321.9965	0.09	643993	keystroke	d	n/a
322.1765	0.075	644353	keystroke	e	n/a
322.4165	0.075	644833	keystroke	d	n/a
322.7465	0.105	645493	keystroke	s	n/a
323.5715	0.105	647143	keystroke	Key.space	n/a
323.856	0.12	647712	keystroke	r	n/a
324.096	0.12	648192	keystroke	e	n/a
325.041	0.06	650082	keystroke	Key.backspace	n/a
325.251	0.06	650502	keystroke	Key.backspace	n/a
325.491	0.075	650982	keystroke	Key.backspace	n/a
325.746	0.075	651492	keystroke	Key.backspace	n/a
326.046	0.09	652092	keystroke	Key.backspace	n/a
326.407	0.089	652814	keystroke	s	n/a
326.661	0.105	653322	keystroke	Key.space	n/a
326.931	0.09	653862	keystroke	r	n/a
327.006	0.12	654012	keystroke	e	n/a
327.246	0.12	654492	keystroke	s	n/a
327.381	0.09	654762	keystroke	p	n/a
327.576	0.105	655152	keystroke	o	n/a
327.696	0.12	655392	keystroke	n	n/a
327.801	0.09	655602	keystroke	d	n/a
327.981	0.12	655962	keystroke	e	n/a
328.086	0.12	656172	keystroke	n	n/a
328.236	0.105	656472	keystroke	t	n/a
328.476	0.105	656952	keystroke	s	n/a
328.701	0.105	657402	keystroke	Key.space	n/a
329.016	0.09	658032	keystroke	w	n/a
329.181	0.12	658362	keystroke	h	n/a
329.286	0.105	658572	keystroke	o	n/a
329.496	0.105	658992	keystroke	l	n/a
329.602	0.089	659204	keystroke	e	n/a
329.751	0.105	659502	keystroke	Key.space	n/a
330.006	0.09	660012	keystroke	b	n/a
330.171	0.135	660342	keystroke	i	n/a
330.276	0.105	660552	keystroke	r	n/a
330.426	0.09	660852	keystroke	t	n/a
330.546	0.105	661092	keystroke	h	n/a
330.681	0.105	661362	keystroke	d	n/a
330.771	0.12	661542	keystroke	a	n/a
330.906	0.105	661812	keystroke	y	n/a
331.371	0.09	662742	keystroke	Key.enter	n/a
331.468	6.85	662936	prompt	n/a	bloggers baskets wanted concern\n
332.121	0.075	664242	keystroke	b	n/a
332.286	0.075	664572	keystroke	l	n/a
332.451	0.09	664902	keystroke	o	n/a
332.601	0.075	665202	keystroke	g	n/a
332.736	0.105	665472	keystroke	g	n/a
332.901	0.105	665802	keystroke	e	n/a
333.126	0.075	666252	keystroke	r	n/a
333.351	0.12	666702	keystroke	s	n/a
333.681	0.075	667362	keystroke	Key.space	n/a
333.846	0.106	667692	keystroke	b	n/a
334.086	0.105	668172	keystroke	a	n/a
334.176	0.105	668352	keystroke	s	n/a
334.341	0.09	668682	keystroke	k	n/a
334.461	0.09	668922	keystroke	e	n/a
334.626	0.09	669252	keystroke	t	n/a
334.836	0.12	669672	keystroke	s	n/a
335.166	0.105	670332	keystroke	Key.space	n/a
335.616	0.075	671232	keystroke	w	n/a
335.751	0.135	671502	keystroke	a	n/a
335.901	0.09	671802	keystroke	n	n/a
336.006	0.075	672012	keystroke	t	n/a
336.171	0.075	672342	keystroke	e	n/a
336.366	0.075	672732	keystroke	d	n/a
336.501	0.09	673002	keystroke	Key.space	n/a
336.636	0.105	673272	keystroke	c	n/a
336.756	0.12	673512	keystroke	o	n/a
336.846	0.12	673692	keystroke	n	n/a
337.132	0.119	674264	keystroke	c	n/a
337.356	0.091	674712	keystroke	e	n/a
337.566	0.091	675132	keystroke	r	n/a
337.776	0.091	675552	keystroke	n	n/a
338.196	0.12	676392	keystroke	Key.enter	n/a
338.325	6.548	676650	prompt	n/a	shirt impacts trauma mate\n
338.902	0.134	677804	keystroke	s	n/a
339.126	0.075	678252	keystroke	h	n/a
339.261	0.105	678522	keystroke	i	n/a
339.351	0.135	678702	keystroke	r	n/a
339.471	0.105	678942	keystroke	t	n/a
339.681	0.105	679362	keystroke	Key.space	n/a
339.967	0.089	679934	keystroke	i	n/a
340.176	0.09	680352	keystroke	m	n/a
340.326	0.091	680652	keystroke	p	n/a
340.566	0.165	681132	keystroke	a	n/a
340.746	0.135	681492	keystroke	c	n/a
341.031	0.075	682062	keystroke	t	n/a
341.286	0.12	682572	keystroke	s	n/a
341.496	0.105	682992	keystroke	Key.space	n/a
341.841	0.075	683682	keystroke	t	n/a
342.051	0.12	684102	keystroke	r	n/a
342.336	0.15	684672	keystroke	a	n/a
342.666	0.12	685332	keystroke	u	n/a
343.056	0.09	686112	keystroke	m	n/a
343.266	0.136	686532	keystroke	a	n/a
343.566	0.09	687132	keystroke	Key.space	n/a
344.016	0.09	688032	keystroke	m	n/a
344.136	0.195	688272	keystroke	a	n/a
344.316	0.105	688632	keystroke	t	n/a
344.511	0.09	689022	keystroke	e	n/a
344.751	0.12	689502	keystroke	Key.enter	n/a
344.877	5.576	689754	prompt	n/a	stays judge confirmation bomb\n
345.472	0.089	690944	keystroke	s	n/a
345.621	0.09	691242	keystroke	t	n/a
345.741	0.135	691482	keystroke	a	n/a
345.921	0.106	691842	keystroke	y	n/a
346.086	0.15	692172	keystroke	s	n/a
346.296	0.075	692592	keystroke	Key.space	n/a
346.506	0.06	693012	keystroke	j	n/a
346.686	0.105	693372	keystroke	u	n/a
346.836	0.105	693672	keystroke	d	n/a
347.002	0.074	694004	keystroke	g	n/a
347.196	0.105	694392	keystroke	e	n/a
347.346	0.105	694692	keystroke	Key.space	n/a
347.751	0.121	695502	keystroke	c	n/a
347.886	0.09	695772	keystroke	o	n/a
347.991	0.105	695982	keystroke	n	n/a
348.126	0.091	696252	keystroke	f	n/a
348.261	0.075	696522	keystroke	i	n/a
348.337	0.104	696674	keystroke	r	n/a
348.456	0.105	696912	keystroke	m	n/a
348.576	0.135	697152	keystroke	a	n/a
348.636	0.105	697272	keystroke	t	n/a
348.756	0.09	697512	keystroke	i	n/a
348.861	0.18	697722	keystroke	o	n/a
348.966	0.135	697932	keystroke	n	n/a
349.266	0.105	698532	keystroke	Key.space	n/a
349.521	0.09	699042	keystroke	b	n/a
349.671	0.105	699342	keystroke	o	n/a
349.881	0.075	699762	keystroke	m	n/a
350.091	0.075	700182	keystroke	b	n/a
350.331	0.12	700662	keystroke	Key.enter	n/a
350.458	9.43	700916	prompt	n/a	completion membrane adds asbestos\n
351.111	0.135	702222	keystroke	c	n/a
351.261	0.165	702522	keystroke	o	n/a
351.411	0.09	702822	keystroke	m	n/a
351.546	0.105	703092	keystroke	p	n/a
351.801	0.135	703602	keystroke	l	n/a
351.996	0.09	703992	keystroke	e	n/a
352.266	0.09	704532	keystroke	t	n/a
352.446	0.105	704892	keystroke	i	n/a
352.761	0.09	705522	keystroke	o	n/a
352.956	0.075	705912	keystroke	n	n/a
353.226	0.105	706452	keystroke	Key.space	n/a
353.361	0.105	706722	keystroke	c	n/a
353.676	0.12	707352	keystroke	Key.backspace	n/a
353.961	0.105	707922	keystroke	e	n/a
354.381	0.09	708762	keystroke	Key.backspace	n/a
354.621	0.105	709242	keystroke	m	n/a
354.831	0.105	709662	keystroke	e	n/a
355.086	0.105	710172	keystroke	m	n/a
355.371	0.09	710742	keystroke	b	n/a
355.551	0.045	711102	keystroke	r	n/a
355.671	0.135	711342	keystroke	a	n/a
355.851	0.15	711702	keystroke	n	n/a
356.226	0.09	712452	keystroke	e	n/a
356.511	0.09	713022	keystroke	Key.space	n/a
356.811	0.12	713622	keystroke	a	n/a
357.051	0.06	714102	keystroke	d	n/a
357.216	0.075	714432	keystroke	d	n/a
357.411	0.105	714822	keystroke	s	n/a
357.666	0.09	715332	keystroke	Key.space	n/a
357.801	0.135	715602	keystroke	a	n/a
358.116	0.12	716232	keystroke	s	n/a
358.446	0.09	716892	keystroke	b	n/a
358.641	0.075	717282	keystroke	e	n/a
358.866	0.105	717732	keystroke	s	n/a
359.061	0.105	718122	keystroke	t	n/a
359.256	0.135	718512	keystroke	o	n/a
359.406	0.105	718812	keystroke	s	n/a
359.751	0.135	719502	keystroke	Key.enter	n/a
359.892	6.7605	719784	prompt	n/a	tony sodium cannon salaries\n
360.576	0.105	721152	keystroke	t	n/a
360.726	0.06	721452	keystroke	o	n/a
360.891	0.075	721782	keystroke	n	n/a
361.116	0.075	722232	keystroke	y	n/a
361.266	0.105	722532	keystroke	Key.space	n/a
361.746	0.12	723492	keystroke	s	n/a
361.896	0.105	723792	keystroke	o	n/a
362.151	0.09	724302	keystroke	d	n/a
362.316	0.075	724632	keystroke	i	n/a
362.556	0.075	725112	keystroke	u	n/a
362.796	0.105	725592	keystroke	m	n/a
363.201	0.09	726402	keystroke	Key.space	n/a
363.501	0.135	727002	keystroke	c	n/a
363.622	0.149	727244	keystroke	a	n/a
363.801	0.09	727602	keystroke	n	n/a
363.966	0.09	727932	keystroke	n	n/a
364.131	0.105	728262	keystroke	o	n/a
364.341	0.105	728682	keystroke	n	n/a
364.611	0.09	729222	keystroke	Key.space	n/a
364.836	0.105	729672	keystroke	s	n/a
364.956	0.15	729912	keystroke	a	n/a
365.136	0.15	730272	keystroke	l	n/a
365.406	0.18	730812	keystroke	a	n/a
365.631	0.135	731262	keystroke	r	n/a
365.856	0.12	731712	keystroke	i	n/a
366.021	0.075	732042	keystroke	e	n/a
366.216	0.105	732432	keystroke	s	n/a
366.516	0.135	733032	keystroke	Key.enter	n/a
366.6565	6.822	733313	prompt	n/a	airlines refund grain reader\n
367.446	0.15	734892	keystroke	a	n/a
367.806	0.015	735612	keystroke	i	n/a
367.836	0.09	735672	keystroke	r	n/a
367.986	0.075	735972	keystroke	l	n/a
368.181	0.09	736362	keystroke	i	n/a
368.361	0.12	736722	keystroke	n	n/a
368.496	0.06	736992	keystroke	e	n/a
368.721	0.105	737442	keystroke	s	n/a
369.216	0.12	738432	keystroke	Key.space	n/a
369.516	0.12	739032	keystroke	r	n/a
369.591	0.105	739182	keystroke	e	n/a
369.771	0.135	739542	keystroke	f	n/a
369.936	0.105	739872	keystroke	u	n/a
370.131	0.15	740262	keystroke	n	n/a
370.326	0.105	740652	keystroke	d	n/a
370.536	0.12	741072	keystroke	Key.space	n/a
370.821	0.105	741642	keystroke	g	n/a
371.061	0.075	742122	keystroke	r	n/a
371.196	0.15	742392	keystroke	a	n/a
371.331	0.075	742662	keystroke	i	n/a
371.511	0.12	743022	keystroke	n	n/a
372.066	0.09	744132	keystroke	Key.space	n/a
372.291	0.15	744582	keystroke	r	n/a
372.381	0.12	744762	keystroke	e	n/a
372.546	0.15	745092	keystroke	a	n/a
372.681	0.105	745362	keystroke	d	n/a
372.861	0.105	745722	keystroke	e	n/a
373.071	0.105	746142	keystroke	r	n/a
373.371	0.105	746742	keystroke	Key.enter	n/a
373.483	7.69	746966	prompt	n/a	feat utility integrate highways\n
374.121	0.09	748242	keystroke	f	n/a
374.301	0.09	748602	keystroke	e	n/a
374.436	0.1505	748872	keystroke	a	n/a
374.541	0.1205	749082	keystroke	t	n/a
374.7365	0.105	749473	keystroke	Key.space	n/a
374.9615	0.105	749923	keystroke	u	n/a
375.1565	0.12	750313	keystroke	t	n/a
375.3215	0.105	750643	keystroke	i	n/a
375.5165	0.105	751033	keystroke	l	n/a
375.6065	0.135	751213	keystroke	i	n/a
375.8015	0.09	751603	keystroke	t	n/a
375.9965	0.09	751993	keystroke	y	n/a
376.1615	0.12	752323	keystroke	Key.space	n/a
376.8215	0.075	753643	keystroke	i	n/a
377.0015	0.105	754003	keystroke	n	n/a
377.1515	0.09	754303	keystroke	t	n/a
377.3765	0.105	754753	keystroke	e	n/a
377.6315	0.075	755263	keystroke	g	n/a
377.8265	0.09	755653	keystroke	r	n/a
378.1865	0.135	756373	keystroke	a	n/a
378.3665	0.09	756733	keystroke	t	n/a
378.6965	0.09	757393	keystroke	e	n/a
379.1615	0.135	758323	keystroke	Key.space	n/a
379.6115	0.105	759223	keystroke	h	n/a
379.8365	0.135	759673	keystroke	i	n/a
379.9865	0.105	759973	keystroke	g	n/a
380.1215	0.105	760243	keystroke	h	n/a
380.3165	0.135	760633	keystroke	w	n/a
380.4365	0.15	760873	keystroke	a	n/a
380.6015	0.105	761203	keystroke	y	n/a
380.7215	0.105	761443	keystroke	s	n/a
381.0815	0.09	762163	keystroke	Key.enter	n/a
381.178	7.615	762356	prompt	n/a	completed times renewal intake\n
381.9215	0.105	763843	keystroke	c	n/a
382.0415	0.15	764083	keystroke	o	n/a
382.2665	0.135	764533	keystroke	m	n/a
382.4315	0.09	764863	keystroke	p	n/a
382.6415	0.12	765283	keystroke	l	n/a
382.7465	0.12	765493	keystroke	e	n/a
382.9715	0.075	765943	keystroke	t	n/a
383.1365	0.075	766273	keystroke	e	n/a
383.3765	0.09	766753	keystroke	d	n/a
383.8265	0.15	767653	keystroke	Key.space	n/a
384.0665	0.09	768133	keystroke	t	n/a
384.2165	0.0745	768433	keystroke	i	n/a
384.381	0.1055	768762	keystroke	m	n/a
384.501	0.09	769002	keystroke	e	n/a
384.6815	0.1345	769363	keystroke	s	n/a
384.876	0.12	769752	keystroke	Key.space	n/a
385.896	0.12	771792	keystroke	r	n/a
385.971	0.1205	771942	keystroke	e	n/a
386.1815	0.1045	772363	keystroke	n	n/a
386.316	0.09	772632	keystroke	e	n/a
386.436	0.165	772872	keystroke	w	n/a
386.946	0.135	773892	keystroke	a	n/a
387.186	0.09	774372	keystroke	l	n/a
387.486	0.12	774972	keystroke	Key.space	n/a
387.801	0.12	775602	keystroke	i	n/a
387.936	0.165	775872	keystroke	n	n/a
388.086	0.09	776172	keystroke	t	n/a
388.191	0.135	776382	keystroke	a	n/a
388.341	0.09	776682	keystroke	k	n/a
388.491	0.09	776982	keystroke	e	n/a
388.671	0.12	777342	keystroke	Key.enter	n/a
388.7965	9.8225	777593	prompt	n/a	who'd've phones opponent insight\n
389.346	0.135	778692	keystroke	w	n/a
389.496	0.09	778992	keystroke	h	n/a
389.556	0.165	779112	keystroke	o	n/a
390.291	0.09	780582	keystroke	'	n/a
390.576	0.105	781152	keystroke	d	n/a
391.326	0.135	782652	keystroke	'	n/a
391.641	0.105	783282	keystroke	v	n/a
392.031	0.105	784062	keystroke	e	n/a
392.481	0.09	784962	keystroke	Key.space	n/a
392.706	0.075	785412	keystroke	p	n/a
392.901	0.075	785802	keystroke	h	n/a
393.006	0.15	786012	keystroke	o	n/a
393.126	0.12	786252	keystroke	n	n/a
393.261	0.075	786522	keystroke	e	n/a
393.501	0.105	787002	keystroke	s	n/a
393.981	0.105	787962	keystroke	Key.space	n/a
394.326	0.09	788652	keystroke	o	n/a
394.551	0.075	789102	keystroke	p	n/a
394.731	0.075	789462	keystroke	p	n/a
394.941	0.075	789882	keystroke	o	n/a
395.136	0.105	790272	keystroke	n	n/a
395.376	0.12	790752	keystroke	e	n/a
395.541	0.12	791082	keystroke	n	n/a
395.721	0.105	791442	keystroke	t	n/a
395.991	0.105	791982	keystroke	Key.space	n/a
396.321	0.105	792642	keystroke	i	n/a
396.516	0.045	793032	keystroke	s	n/a
396.876	0.075	793752	keystroke	Key.backspace	n/a
397.116	0.09	794232	keystroke	n	n/a
397.311	0.12	794622	keystroke	s	n/a
397.506	0.135	795012	keystroke	i	n/a
397.656	0.12	795312	keystroke	g	n/a
397.791	0.105	795582	keystroke	h	n/a
397.926	0.09	795852	keystroke	t	n/a
398.511	0.105	797022	keystroke	Key.enter	n/a
398.624	7.1495	797248	prompt	n/a	sarah frequent contain rotary\n
399.216	0.09	798432	keystroke	s	n/a
399.381	0.12	798762	keystroke	a	n/a
399.546	0.09	799092	keystroke	r	n/a
399.666	0.12	799332	keystroke	a	n/a
399.966	0.09	799932	keystroke	h	n/a
400.161	0.12	800322	keystroke	Key.space	n/a
400.566	0.105	801132	keystroke	f	n/a
401.001	0.105	802002	keystroke	r	n/a
401.166	0.105	802332	keystroke	e	n/a
401.496	0.105	802992	keystroke	q	n/a
401.676	0.105	803352	keystroke	u	n/a
401.826	0.12	803652	keystroke	e	n/a
402.156	0.12	804312	keystroke	n	n/a
402.351	0.105	804702	keystroke	t	n/a
402.681	0.12	805362	keystroke	Key.space	n/a
403.011	0.12	806022	keystroke	c	n/a
403.176	0.09	806352	keystroke	o	n/a
403.356	0.12	806712	keystroke	n	n/a
403.491	0.075	806982	keystroke	t	n/a
403.596	0.165	807192	keystroke	a	n/a
403.746	0.09	807492	keystroke	i	n/a
403.866	0.15	807732	keystroke	n	n/a
404.076	0.105	808152	keystroke	Key.space	n/a
404.406	0.105	808812	keystroke	r	n/a
404.587	0.104	809174	keystroke	o	n/a
404.826	0.09	809652	keystroke	t	n/a
404.976	0.135	809952	keystroke	a	n/a
405.096	0.135	810192	keystroke	r	n/a
405.396	0.075	810792	keystroke	y	n/a
405.666	0.105	811332	keystroke	Key.enter	n/a
405.778	8.4245	811556	prompt	n/a	compute invision feedback standards\n
406.461	0.12	812922	keystroke	c	n/a
406.581	0.09	813162	keystroke	o	n/a
406.701	0.105	813402	keystroke	m	n/a
406.821	0.09	813642	keystroke	p	n/a
407.031	0.09	814062	keystroke	u	n/a
407.136	0.09	814272	keystroke	t	n/a
407.331	0.09	814662	keystroke	e	n/a
407.796	0.06	815592	keystroke	Key.space	n/a
407.961	0.075	815922	keystroke	i	n/a
408.096	0.135	816192	keystroke	n	n/a
408.276	0.12	816552	keystroke	v	n/a
408.441	0.12	816882	keystroke	i	n/a
408.576	0.12	817152	keystroke	s	n/a
408.711	0.105	817422	keystroke	i	n/a
408.861	0.135	817722	keystroke	o	n/a
408.966	0.135	817932	keystroke	n	n/a
409.221	0.105	818442	keystroke	Key.space	n/a
410.271	0.09	820542	keystroke	f	n/a
410.406	0.09	820812	keystroke	e	n/a
410.601	0.06	821202	keystroke	e	n/a
410.781	0.105	821562	keystroke	d	n/a
411.006	0.09	822012	keystroke	b	n/a
411.081	0.165	822162	keystroke	a	n/a
411.216	0.135	822432	keystroke	c	n/a
411.381	0.09	822762	keystroke	k	n/a
412.086	0.12	824172	keystroke	Key.space	n/a
412.401	0.12	824802	keystroke	s	n/a
412.596	0.09	825192	keystroke	t	n/a
412.687	0.119	825374	keystroke	a	n/a
412.791	0.105	825582	keystroke	n	n/a
412.881	0.12	825762	keystroke	d	n/a
413.016	0.135	826032	keystroke	a	n/a
413.121	0.135	826242	keystroke	r	n/a
413.346	0.15	826692	keystroke	d	n/a
413.616	0.09	827232	keystroke	s	n/a
414.051	0.15	828102	keystroke	Key.enter	n/a
414.2075	7.3	828415	prompt	n/a	afford archive genres fonts\n
414.951	0.12	829902	keystroke	a	n/a
415.116	0.075	830232	keystroke	f	n/a
415.266	0.06	830532	keystroke	f	n/a
415.431	0.105	830862	keystroke	o	n/a
415.506	0.09	831012	keystroke	r	n/a
415.731	0.09	831462	keystroke	d	n/a
416.076	0.12	832152	keystroke	Key.space	n/a
416.256	0.12	832512	keystroke	a	n/a
416.436	0.09	832872	keystroke	r	n/a
416.706	0.15	833412	keystroke	c	n/a
416.871	0.075	833742	keystroke	h	n/a
417.051	0.105	834102	keystroke	i	n/a
417.531	0.09	835062	keystroke	v	n/a
417.771	0.09	835542	keystroke	e	n/a
418.026	0.12	836052	keystroke	Key.space	n/a
418.356	0.075	836712	keystroke	g	n/a
418.521	0.105	837042	keystroke	e	n/a
418.686	0.12	837372	keystroke	n	n/a
419.031	0.075	838062	keystroke	r	n/a
419.241	0.105	838482	keystroke	e	n/a
419.526	0.09	839052	keystroke	s	n/a
419.781	0.09	839562	keystroke	Key.space	n/a
420.036	0.045	840072	keystroke	s	n/a
420.321	0.09	840642	keystroke	Key.backspace	n/a
420.426	0.15	840852	keystroke	f	n/a
420.576	0.075	841152	keystroke	o	n/a
420.681	0.12	841362	keystroke	n	n/a
420.846	0.09	841692	keystroke	t	n/a
421.041	0.09	842082	keystroke	s	n/a
421.386	0.12	842772	keystroke	Key.enter	n/a
421.512	7.4655	843024	prompt	n/a	running white artists configuration\n
422.181	0.12	844362	keystroke	r	n/a
422.751	0.075	845502	keystroke	u	n/a
422.961	0.09	845922	keystroke	n	n/a
423.111	0.09	846222	keystroke	n	n/a
423.276	0.15	846552	keystroke	i	n/a
423.396	0.15	846792	keystroke	n	n/a
423.546	0.105	847092	keystroke	g	n/a
423.876	0.12	847752	keystroke	Key.space	n/a
424.281	0.12	848562	keystroke	w	n/a
424.491	0.075	848982	keystroke	h	n/a
424.686	0.12	849372	keystroke	i	n/a
424.821	0.09	849642	keystroke	t	n/a
425.061	0.09	850122	keystroke	e	n/a
425.256	0.075	850512	keystroke	Key.space	n/a
425.451	0.12	850902	keystroke	a	n/a
425.586	0.105	851172	keystroke	r	n/a
425.766	0.09	851532	keystroke	t	n/a
425.991	0.135	851982	keystroke	i	n/a
426.156	0.12	852312	keystroke	s	n/a
426.336	0.105	852672	keystroke	t	n/a
426.576	0.075	853152	keystroke	s	n/a
427.176	0.09	854352	keystroke	Key.space	n/a
427.296	0.135	854592	keystroke	c	n/a
427.446	0.075	854892	keystroke	o	n/a
427.581	0.09	855162	keystroke	n	n/a
427.686	0.09	855372	keystroke	f	n/a
427.791	0.09	855582	keystroke	i	n/a
427.896	0.06	855792	keystroke	g	n/a
428.001	0.09	856002	keystroke	u	n/a
428.076	0.12	856152	keystroke	r	n/a
428.211	0.15	856422	keystroke	a	n/a
428.286	0.12	856572	keystroke	t	n/a
428.421	0.105	856842	keystroke	i	n/a
428.541	0.15	857082	keystroke	o	n/a
428.646	0.105	857292	keystroke	n	n/a
428.871	0.105	857742	keystroke	Key.enter	n/a
428.984	5.979	857968	prompt	n/a	demo chorus pressed announces\n
429.6355	0.076	859271	keystroke	d	n/a
429.8305	0.09	859661	keystroke	e	n/a
429.9355	0.09	859871	keystroke	m	n/a
430.1315	0.089	860263	keystroke	o	n/a
430.3105	0.105	860621	keystroke	Key.space	n/a
430.4455	0.12	860891	keystroke	c	n/a
430.6105	0.105	861221	keystroke	h	n/a
430.7905	0.12	861581	keystroke	o	n/a
430.9855	0.105	861971	keystroke	r	n/a
431.1965	0.104	862393	keystroke	u	n/a
431.4205	0.09	862841	keystroke	s	n/a
431.5555	0.105	863111	keystroke	Key.space	n/a
431.8265	0.059	863653	keystroke	p	n/a
432.0055	0.12	864011	keystroke	r	n/a
432.1115	0.119	864223	keystroke	e	n/a
432.3515	0.074	864703	keystroke	s	n/a
432.5305	0.045	865061	keystroke	s	n/a
432.6955	0.045	865391	keystroke	e	n/a
432.9355	0.076	865871	keystroke	d	n/a
433.1605	0.075	866321	keystroke	Key.space	n/a
433.3555	0.15	866711	keystroke	a	n/a
433.5215	0.075	867043	keystroke	n	n/a
433.6705	0.09	867341	keystroke	n	n/a
433.8355	0.12	867671	keystroke	o	n/a
433.9855	0.105	867971	keystroke	u	n/a
434.1655	0.105	868331	keystroke	n	n/a
434.2565	0.104	868513	keystroke	c	n/a
434.4205	0.106	868841	keystroke	e	n/a
434.6155	0.091	869231	keystroke	s	n/a
434.8705	0.09	869741	keystroke	Key.enter	n/a
434.9695	10.508	869939	prompt	n/a	multimedia pledge attractions contains\n
435.5755	0.09	871151	keystroke	m	n/a
435.8155	0.076	871631	keystroke	u	n/a
436.0115	0.119	872023	keystroke	l	n/a
436.2065	0.12	872413	keystroke	t	n/a
436.4305	0.136	872861	keystroke	i	n/a
437.0015	0.074	874003	keystroke	p	n/a
437.3455	0.075	874691	keystroke	Key.backspace	n/a
437.5415	0.104	875083	keystroke	m	n/a
437.6605	0.075	875321	keystroke	e	n/a
437.8405	0.106	875681	keystroke	d	n/a
437.9905	0.136	875981	keystroke	i	n/a
438.2905	0.135	876581	keystroke	a	n/a
438.5755	0.09	877151	keystroke	Key.space	n/a
438.9055	0.091	877811	keystroke	p	n/a
439.1315	0.12	878263	keystroke	l	n/a
439.2355	0.075	878471	keystroke	e	n/a
439.4915	0.089	878983	keystroke	d	n/a
439.7005	0.046	879401	keystroke	g	n/a
439.8665	0.09	879733	keystroke	e	n/a
440.5255	0.076	881051	keystroke	Key.space	n/a
440.6155	0.12	881231	keystroke	a	n/a
440.8565	0.074	881713	keystroke	t	n/a
440.9915	0.089	881983	keystroke	t	n/a
441.1255	0.121	882251	keystroke	r	n/a
441.2605	0.15	882521	keystroke	a	n/a
441.8315	0.104	883663	keystroke	c	n/a
442.0415	0.105	884083	keystroke	t	n/a
442.2055	0.136	884411	keystroke	i	n/a
442.5055	0.15	885011	keystroke	o	n/a
442.6715	0.135	885343	keystroke	n	n/a
442.8965	0.12	885793	keystroke	s	n/a
443.3165	0.104	886633	keystroke	Key.space	n/a
443.6165	0.119	887233	keystroke	c	n/a
443.8115	0.075	887623	keystroke	o	n/a
444.0355	0.091	888071	keystroke	n	n/a
444.5315	0.075	889063	keystroke	t	n/a
444.6655	0.135	889331	keystroke	a	n/a
444.8165	0.089	889633	keystroke	i	n/a
444.9215	0.104	889843	keystroke	n	n/a
445.0855	0.106	890171	keystroke	s	n/a
445.4155	0.06	890831	keystroke	Key.enter	n/a
445.482	6.206	890964	prompt	n/a	routers supplier send lone\n
446.0915	0.12	892183	keystroke	r	n/a
446.2255	0.075	892451	keystroke	o	n/a
446.3755	0.136	892751	keystroke	u	n/a
446.5115	0.09	893023	keystroke	t	n/a
446.7065	0.149	893413	keystroke	e	n/a
446.8265	0.104	893653	keystroke	r	n/a
447.0665	0.105	894133	keystroke	s	n/a
447.4855	0.12	894971	keystroke	Key.space	n/a
447.9215	0.12	895843	keystroke	s	n/a
448.0715	0.105	896143	keystroke	u	n/a
448.2815	0.09	896563	keystroke	p	n/a
448.4465	0.075	896893	keystroke	p	n/a
448.6565	0.074	897313	keystroke	l	n/a
448.8215	0.12	897643	keystroke	i	n/a
448.9555	0.106	897911	keystroke	e	n/a
449.1805	0.105	898361	keystroke	r	n/a
449.4215	0.074	898843	keystroke	Key.space	n/a
449.5105	0.12	899021	keystroke	s	n/a
449.6755	0.105	899351	keystroke	u	n/a
450.0205	0.09	900041	keystroke	Key.backspace	n/a
450.1705	0.106	900341	keystroke	e	n/a
450.3215	0.105	900643	keystroke	n	n/a
450.4855	0.121	900971	keystroke	d	n/a
450.6205	0.06	901241	keystroke	Key.space	n/a
450.7405	0.09	901481	keystroke	l	n/a
450.9365	0.074	901873	keystroke	o	n/a
451.1005	0.09	902201	keystroke	n	n/a
451.2655	0.091	902531	keystroke	e	n/a
451.5515	0.134	903103	keystroke	Key.enter	n/a
451.6925	7.5855	903385	prompt	n/a	exempt recorders valid pants\n
452.4505	0.121	904901	keystroke	e	n/a
452.7955	0.09	905591	keystroke	x	n/a
453.0205	0.075	906041	keystroke	e	n/a
453.6955	0.121	907391	keystroke	m	n/a
453.9505	0.105	907901	keystroke	p	n/a
454.1755	0.105	908351	keystroke	t	n/a
454.8205	0.09	909641	keystroke	Key.space	n/a
455.1955	0.12	910391	keystroke	r	n/a
455.3005	0.105	910601	keystroke	e	n/a
455.5105	0.136	911021	keystroke	c	n/a
455.6605	0.12	911321	keystroke	o	n/a
455.7655	0.075	911531	keystroke	r	n/a
455.9605	0.06	911921	keystroke	d	n/a
456.1255	0.061	912251	keystroke	e	n/a
456.3055	0.075	912611	keystroke	r	n/a
456.5305	0.105	913061	keystroke	s	n/a
456.8305	0.12	913661	keystroke	Key.space	n/a
457.1465	0.089	914293	keystroke	v	n/a
457.2655	0.15	914531	keystroke	a	n/a
457.4305	0.075	914861	keystroke	l	n/a
457.6405	0.09	915281	keystroke	i	n/a
457.7905	0.106	915581	keystroke	d	n/a
458.0605	0.09	916121	keystroke	Key.space	n/a
458.3155	0.09	916631	keystroke	p	n/a
458.4505	0.165	916901	keystroke	a	n/a
458.5715	0.089	917143	keystroke	n	n/a
458.7055	0.075	917411	keystroke	t	n/a
458.8865	0.0895	917773	keystroke	s	n/a
459.171	0.105	918342	keystroke	Key.enter	n/a
459.283	9.55	918566	prompt	n/a	exercises remove disturbed bright\n
459.966	0.075	919932	keystroke	e	n/a
460.176	0.105	920352	keystroke	x	n/a
460.341	0.09	920682	keystroke	e	n/a
460.536	0.06	921072	keystroke	r	n/a
460.731	0.105	921462	keystroke	c	n/a
461.166	0.12	922332	keystroke	i	n/a
461.376	0.12	922752	keystroke	s	n/a
461.526	0.12	923052	keystroke	e	n/a
461.706	0.12	923412	keystroke	s	n/a
461.991	0.12	923982	keystroke	Key.space	n/a
462.396	0.105	924792	keystroke	r	n/a
462.471	0.12	924942	keystroke	e	n/a
462.696	0.09	925392	keystroke	m	n/a
462.771	0.135	925542	keystroke	o	n/a
462.907	0.074	925814	keystroke	v	n/a
463.086	0.105	926172	keystroke	e	n/a
463.311	0.09	926622	keystroke	Key.space	n/a
463.506	0.12	927012	keystroke	d	n/a
463.881	0.09	927762	keystroke	i	n/a
464.046	0.105	928092	keystroke	s	n/a
464.196	0.06	928392	keystroke	t	n/a
464.331	0.09	928662	keystroke	r	n/a
464.556	0.105	929112	keystroke	u	n/a
465.636	0.06	931272	keystroke	Key.backspace	n/a
465.831	0.075	931662	keystroke	Key.backspace	n/a
466.116	0.09	932232	keystroke	u	n/a
466.311	0.105	932622	keystroke	r	n/a
466.566	0.09	933132	keystroke	b	n/a
466.806	0.105	933612	keystroke	e	n/a
467.061	0.09	934122	keystroke	d	n/a
467.346	0.09	934692	keystroke	Key.space	n/a
467.901	0.105	935802	keystroke	b	n/a
468.036	0.12	936072	keystroke	r	n/a
468.171	0.09	936342	keystroke	i	n/a
468.276	0.105	936552	keystroke	g	n/a
468.411	0.075	936822	keystroke	h	n/a
468.516	0.105	937032	keystroke	t	n/a
468.711	0.12	937422	keystroke	Key.enter	n/a
468.837	7.046	937674	prompt	n/a	refused royal dumb posing\n
469.611	0.105	939222	keystroke	r	n/a
469.656	0.105	939312	keystroke	e	n/a
469.911	0.09	939822	keystroke	f	n/a
470.046	0.105	940092	keystroke	u	n/a
470.136	0.09	940272	keystroke	s	n/a
470.316	0.06	940632	keystroke	e	n/a
470.526	0.09	941052	keystroke	d	n/a
470.766	0.135	941532	keystroke	Key.space	n/a
471.231	0.075	942462	keystroke	r	n/a
471.531	0.105	943062	keystroke	o	n/a
471.741	0.09	943482	keystroke	e	n/a
471.876	0.075	943752	keystroke	y	n/a
472.461	0.06	944922	keystroke	Key.backspace	n/a
472.626	0.075	945252	keystroke	Key.backspace	n/a
472.881	0.075	945762	keystroke	y	n/a
473.046	0.135	946092	keystroke	a	n/a
473.211	0.105	946422	keystroke	l	n/a
473.421	0.105	946842	keystroke	Key.space	n/a
473.571	0.135	947142	keystroke	d	n/a
473.691	0.09	947382	keystroke	u	n/a
473.931	0.045	947862	keystroke	m	n/a
474.126	0.09	948252	keystroke	b	n/a
474.381	0.06	948762	keystroke	Key.space	n/a
474.711	0.075	949422	keystroke	p	n/a
474.891	0.105	949782	keystroke	o	n/a
475.011	0.165	950022	keystroke	s	n/a
475.131	0.06	950262	keystroke	i	n/a
475.251	0.12	950502	keystroke	n	n/a
475.416	0.09	950832	keystroke	g	n/a
475.791	0.09	951582	keystroke	Key.enter	n/a
475.8875	13.1805	951775	prompt	n/a	logged aluminium collaborative soma\n
476.586	0.06	953172	keystroke	l	n/a
476.721	0.105	953442	keystroke	o	n/a
476.841	0.075	953682	keystroke	g	n/a
477.006	0.075	954012	keystroke	g	n/a
477.156	0.075	954312	keystroke	e	n/a
477.366	0.075	954732	keystroke	d	n/a
477.456	0.09	954912	keystroke	Key.space	n/a
477.786	0.12	955572	keystroke	a	n/a
477.966	0.105	955932	keystroke	l	n/a
478.206	0.09	956412	keystroke	i	n/a
478.566	0.045	957132	keystroke	Key.backspace	n/a
478.776	0.06	957552	keystroke	u	n/a
479.421	0.075	958842	keystroke	m	n/a
479.631	0.075	959262	keystroke	i	n/a
479.841	0.075	959682	keystroke	n	n/a
480.051	0.09	960102	keystroke	i	n/a
480.336	0.06	960672	keystroke	u	n/a
480.576	0.075	961152	keystroke	m	n/a
480.846	0.09	961692	keystroke	Key.space	n/a
481.191	0.105	962382	keystroke	c	n/a
481.326	0.09	962652	keystroke	o	n/a
481.521	0.075	963042	keystroke	l	n/a
481.686	0.09	963372	keystroke	l	n/a
481.806	0.12	963612	keystroke	a	n/a
482.136	0.105	964272	keystroke	b	n/a
482.931	0.09	965862	keystroke	o	n/a
483.096	0.105	966192	keystroke	r	n/a
483.261	0.165	966522	keystroke	a	n/a
483.531	0.12	967062	keystroke	t	n/a
483.696	0.135	967392	keystroke	i	n/a
483.876	0.075	967752	keystroke	v	n/a
484.026	0.09	968052	keystroke	e	n/a
484.386	0.105	968772	keystroke	Key.space	n/a
484.626	0.105	969252	keystroke	c	n/a
484.896	0.075	969792	keystroke	Key.backspace	n/a
485.001	0.15	970002	keystroke	s	n/a
485.136	0.09	970272	keystroke	o	n/a
485.346	0.105	970692	keystroke	m	n/a
485.496	0.135	970992	keystroke	a	n/a
488.979	0.087	977958	keystroke	Key.enter	n/a
489.073	7.8545	978146	prompt	n/a	sherman striking subsidiaries nationally\n
489.831	0.12	979662	keystroke	s	n/a
489.966	0.105	979932	keystroke	h	n/a
490.056	0.075	980112	keystroke	e	n/a
490.221	0.09	980442	keystroke	r	n/a
490.371	0.075	980742	keystroke	m	n/a
490.461	0.12	980922	keystroke	a	n/a
490.566	0.09	981132	keystroke	n	n/a
490.686	0.075	981372	keystroke	Key.space	n/a
490.716	0.15	981432	keystroke	s	n/a
491.181	0.09	982362	keystroke	t	n/a
491.376	0.105	982752	keystroke	r	n/a
491.511	0.09	983022	keystroke	i	n/a
491.706	0.105	983412	keystroke	k	n/a
491.916	0.09	983832	keystroke	i	n/a
492.036	0.15	984072	keystroke	n	n/a
492.246	0.12	984492	keystroke	g	n/a
492.546	0.105	985092	keystroke	Key.space	n/a
492.756	0.09	985512	keystroke	s	n/a
493.011	0.075	986022	keystroke	u	n/a
493.206	0.105	986412	keystroke	b	n/a
493.386	0.105	986772	keystroke	s	n/a
493.581	0.105	987162	keystroke	i	n/a
493.821	0.09	987642	keystroke	d	n/a
494.031	0.105	988062	keystroke	i	n/a
494.256	0.105	988512	keystroke	a	n/a
494.451	0.12	988902	keystroke	r	n/a
494.631	0.105	989262	keystroke	i	n/a
494.796	0.06	989592	keystroke	e	n/a
494.946	0.12	989892	keystroke	s	n/a
495.141	0.105	990282	keystroke	Key.space	n/a
495.426	0.09	990852	keystroke	n	n/a
495.546	0.135	991092	keystroke	a	n/a
495.651	0.105	991302	keystroke	t	n/a
495.786	0.09	991572	keystroke	i	n/a
495.906	0.135	991812	keystroke	o	n/a
495.981	0.105	991962	keystroke	n	n/a
496.116	0.135	992232	keystroke	a	n/a
496.236	0.06	992472	keystroke	l	n/a
496.386	0.075	992772	keystroke	l	n/a
496.596	0.06	993192	keystroke	y	n/a
496.821	0.105	993642	keystroke	Key.enter	n/a
496.932	6.896	993864	prompt	n/a	subscriber direct gadgets approach\n
497.466	0.135	994932	keystroke	s	n/a
497.661	0.075	995322	keystroke	u	n/a
497.826	0.09	995652	keystroke	b	n/a
497.961	0.135	995922	keystroke	s	n/a
498.081	0.075	996162	keystroke	c	n/a
498.231	0.105	996462	keystroke	r	n/a
498.396	0.09	996792	keystroke	i	n/a
498.591	0.105	997182	keystroke	b	n/a
498.741	0.09	997482	keystroke	e	n/a
498.936	0.09	997872	keystroke	r	n/a
499.086	0.09	998172	keystroke	Key.space	n/a
499.251	0.09	998502	keystroke	d	n/a
499.371	0.105	998742	keystroke	i	n/a
499.641	0.09	999282	keystroke	r	n/a
499.761	0.12	999522	keystroke	e	n/a
499.971	0.105	999942	keystroke	c	n/a
500.211	0.09	1000422	keystroke	t	n/a
500.406	0.105	1000812	keystroke	Key.space	n/a
500.676	0.075	1001352	keystroke	g	n/a
500.766	0.105	1001532	keystroke	a	n/a
500.931	0.105	1001862	keystroke	d	n/a
501.276	0.075	1002552	keystroke	g	n/a
501.426	0.12	1002852	keystroke	e	n/a
501.591	0.105	1003182	keystroke	t	n/a
501.786	0.105	1003572	keystroke	s	n/a
502.026	0.105	1004052	keystroke	Key.space	n/a
502.236	0.12	1004472	keystroke	a	n/a
502.476	0.075	1004952	keystroke	p	n/a
502.641	0.075	1005282	keystroke	p	n/a
502.761	0.09	1005522	keystroke	r	n/a
502.896	0.105	1005792	keystroke	o	n/a
502.986	0.15	1005972	keystroke	a	n/a
503.121	0.12	1006242	keystroke	c	n/a
503.346	0.09	1006692	keystroke	h	n/a
503.691	0.135	1007382	keystroke	Key.enter	n/a
503.8335	8.814	1007667	prompt	n/a	muscle specifies requested andrew\n
504.291	0.075	1008582	keystroke	s	n/a
504.546	0.06	1009092	keystroke	Key.backspace	n/a
504.741	0.075	1009482	keystroke	m	n/a
504.966	0.105	1009932	keystroke	u	n/a
505.116	0.09	1010232	keystroke	s	n/a
505.296	0.135	1010592	keystroke	c	n/a
505.506	0.135	1011012	keystroke	l	n/a
505.746	0.09	1011492	keystroke	e	n/a
506.061	0.105	1012122	keystroke	Key.space	n/a
506.421	0.12	1012842	keystroke	s	n/a
506.586	0.105	1013172	keystroke	p	n/a
506.706	0.06	1013412	keystroke	e	n/a
506.826	0.12	1013652	keystroke	c	n/a
507.051	0.15	1014102	keystroke	i	n/a
507.231	0.12	1014462	keystroke	f	n/a
507.441	0.12	1014882	keystroke	i	n/a
507.576	0.06	1015152	keystroke	c	n/a
508.161	0.105	1016322	keystroke	Key.backspace	n/a
508.311	0.075	1016622	keystroke	e	n/a
508.551	0.135	1017102	keystroke	s	n/a
508.791	0.135	1017582	keystroke	Key.space	n/a
509.241	0.105	1018482	keystroke	r	n/a
509.376	0.12	1018752	keystroke	e	n/a
509.631	0.09	1019262	keystroke	q	n/a
509.736	0.12	1019472	keystroke	u	n/a
509.871	0.12	1019742	keystroke	e	n/a
510.036	0.225	1020072	keystroke	s	n/a
510.231	0.09	1020462	keystroke	t	n/a
510.351	0.09	1020702	keystroke	e	n/a
510.606	0.09	1021212	keystroke	d	n/a
511.056	0.105	1022112	keystroke	Key.space	n/a
511.266	0.135	1022532	keystroke	a	n/a
511.446	0.09	1022892	keystroke	n	n/a
511.551	0.075	1023102	keystroke	d	n/a
511.746	0.135	1023492	keystroke	r	n/a
511.851	0.12	1023702	keystroke	e	n/a
512.091	0.09	1024182	keystroke	w	n/a
512.541	0.105	1025082	keystroke	Key.enter	n/a
512.6525	9.535	1025305	prompt	n/a	utilization projected doctor program\n
513.426	0.09	1026852	keystroke	u	n/a
513.576	0.135	1027152	keystroke	t	n/a
513.726	0.09	1027452	keystroke	i	n/a
513.921	0.105	1027842	keystroke	l	n/a
513.996	0.165	1027992	keystroke	i	n/a
514.266	0.15	1028532	keystroke	t	n/a
514.986	0.1045	1029972	keystroke	Key.backspace	n/a
516.621	0.1045	1033242	keystroke	z	n/a
516.8455	0.1355	1033691	keystroke	a	n/a
516.9815	0.119	1033963	keystroke	t	n/a
517.1155	0.105	1034231	keystroke	i	n/a
517.2665	0.134	1034533	keystroke	o	n/a
517.3555	0.1055	1034711	keystroke	n	n/a
517.551	0.0745	1035102	keystroke	Key.space	n/a
517.7155	0.09	1035431	keystroke	p	n/a
517.7905	0.105	1035581	keystroke	r	n/a
517.9105	0.105	1035821	keystroke	o	n/a
518.0005	0.135	1036001	keystroke	j	n/a
518.1215	0.104	1036243	keystroke	e	n/a
518.2555	0.105	1036511	keystroke	c	n/a
518.4955	0.03	1036991	keystroke	t	n/a
518.5855	0.09	1037171	keystroke	e	n/a
519.2305	0.105	1038461	keystroke	d	n/a
519.4705	0.09	1038941	keystroke	Key.space	n/a
519.5905	0.105	1039181	keystroke	d	n/a
519.7405	0.105	1039481	keystroke	o	n/a
519.8905	0.09	1039781	keystroke	c	n/a
520.0555	0.105	1040111	keystroke	t	n/a
520.2505	0.135	1040501	keystroke	o	n/a
520.4155	0.105	1040831	keystroke	r	n/a
520.5805	0.09	1041161	keystroke	Key.space	n/a
520.7755	0.09	1041551	keystroke	p	n/a
520.8955	0.12	1041791	keystroke	r	n/a
521.0455	0.165	1042091	keystroke	o	n/a
521.3005	0.12	1042601	keystroke	g	n/a
521.4505	0.12	1042901	keystroke	r	n/a
521.526	0.1645	1043052	keystroke	a	n/a
521.7355	0.105	1043471	keystroke	m	n/a
522.0655	0.12	1044131	keystroke	Key.enter	n/a
522.195	6.593	1044390	prompt	n/a	donors noted delivered harris\n
522.7855	0.105	1045571	keystroke	d	n/a
522.9355	0.015	1045871	keystroke	o	n/a
523.0555	0.075	1046111	keystroke	n	n/a
523.2205	0.12	1046441	keystroke	o	n/a
523.3555	0.09	1046711	keystroke	r	n/a
523.6105	0.15	1047221	keystroke	s	n/a
524.0905	0.075	1048181	keystroke	Key.space	n/a
524.2555	0.09	1048511	keystroke	n	n/a
524.3605	0.105	1048721	keystroke	o	n/a
524.4805	0.075	1048961	keystroke	t	n/a
524.6155	0.12	1049231	keystroke	e	n/a
524.8705	0.12	1049741	keystroke	d	n/a
525.2005	0.075	1050401	keystroke	Key.space	n/a
525.4855	0.09	1050971	keystroke	d	n/a
525.6955	0.105	1051391	keystroke	e	n/a
525.8605	0.075	1051721	keystroke	l	n/a
525.9815	0.104	1051963	keystroke	i	n/a
526.1155	0.09	1052231	keystroke	v	n/a
526.3105	0.09	1052621	keystroke	e	n/a
526.4905	0.09	1052981	keystroke	r	n/a
526.7305	0.075	1053461	keystroke	e	n/a
526.9405	0.075	1053881	keystroke	d	n/a
527.3155	0.09	1054631	keystroke	Key.space	n/a
527.5255	0.135	1055051	keystroke	h	n/a
527.6155	0.105	1055231	keystroke	a	n/a
527.7655	0.09	1055531	keystroke	r	n/a
528.0955	0.075	1056191	keystroke	r	n/a
528.2755	0.105	1056551	keystroke	i	n/a
528.4705	0.105	1056941	keystroke	s	n/a
528.6805	0.105	1057361	keystroke	Key.enter	n/a
528.7935	5.515	1057587	prompt	n/a	wife codes restriction hose\n
529.4465	0.104	1058893	keystroke	w	n/a
529.5805	0.09	1059161	keystroke	i	n/a
529.6855	0.09	1059371	keystroke	f	n/a
529.8055	0.106	1059611	keystroke	e	n/a
529.9555	0.075	1059911	keystroke	Key.space	n/a
530.0755	0.09	1060151	keystroke	c	n/a
530.1955	0.09	1060391	keystroke	o	n/a
530.3005	0.075	1060601	keystroke	d	n/a
530.4815	0.06	1060963	keystroke	e	n/a
530.6905	0.105	1061381	keystroke	s	n/a
530.9755	0.12	1061951	keystroke	Key.space	n/a
531.5455	0.105	1063091	keystroke	r	n/a
531.7105	0.105	1063421	keystroke	e	n/a
531.9355	0.12	1063871	keystroke	s	n/a
532.0705	0.075	1064141	keystroke	t	n/a
532.2055	0.09	1064411	keystroke	r	n/a
532.3415	0.104	1064683	keystroke	i	n/a
532.4465	0.089	1064893	keystroke	c	n/a
532.6405	0.105	1065281	keystroke	t	n/a
532.7755	0.105	1065551	keystroke	i	n/a
532.9255	0.165	1065851	keystroke	o	n/a
533.0455	0.12	1066091	keystroke	n	n/a
533.2855	0.075	1066571	keystroke	Key.space	n/a
533.5115	0.105	1067023	keystroke	h	n/a
533.6605	0.135	1067321	keystroke	o	n/a
533.8105	0.075	1067621	keystroke	s	n/a
533.9605	0.09	1067921	keystroke	e	n/a
534.2155	0.09	1068431	keystroke	Key.enter	n/a
534.313	8.635	1068626	prompt	n/a	barbara aggregate restore mounting\n
535.1015	0.089	1070203	keystroke	b	n/a
535.2515	0.119	1070503	keystroke	a	n/a
535.4315	0.119	1070863	keystroke	r	n/a
535.6855	0.09	1071371	keystroke	b	n/a
535.8505	0.12	1071701	keystroke	a	n/a
536.0755	0.09	1072151	keystroke	r	n/a
536.3005	0.135	1072601	keystroke	a	n/a
536.6905	0.12	1073381	keystroke	Key.space	n/a
537.0655	0.15	1074131	keystroke	a	n/a
537.2305	0.075	1074461	keystroke	g	n/a
537.3665	0.089	1074733	keystroke	g	n/a
537.5915	0.12	1075183	keystroke	r	n/a
537.8015	0.119	1075603	keystroke	e	n/a
538.2205	0.105	1076441	keystroke	g	n/a
538.4005	0.15	1076801	keystroke	a	n/a
538.6255	0.09	1077251	keystroke	t	n/a
538.8355	0.105	1077671	keystroke	e	n/a
539.0455	0.075	1078091	keystroke	Key.space	n/a
539.3905	0.135	1078781	keystroke	r	n/a
539.4815	0.104	1078963	keystroke	e	n/a
539.7065	0.075	1079413	keystroke	s	n/a
539.7955	0.091	1079591	keystroke	t	n/a
539.9765	0.104	1079953	keystroke	o	n/a
540.1565	0.12	1080313	keystroke	r	n/a
540.2305	0.12	1080461	keystroke	e	n/a
540.5755	0.075	1081151	keystroke	Key.space	n/a
540.7555	0.09	1081511	keystroke	m	n/a
540.8605	0.075	1081721	keystroke	o	n/a
541.7315	0.089	1083463	keystroke	u	n/a
541.9555	0.106	1083911	keystroke	n	n/a
542.1055	0.151	1084211	keystroke	t	n/a
542.3005	0.061	1084601	keystroke	i	n/a
542.4655	0.105	1084931	keystroke	n	n/a
542.6005	0.105	1085201	keystroke	g	n/a
542.8405	0.105	1085681	keystroke	Key.enter	n/a
542.953	6.4445	1085906	prompt	n/a	platforms mile silk animated\n
543.6205	0.09	1087241	keystroke	p	n/a
543.8905	0.135	1087781	keystroke	l	n/a
544.0555	0.18	1088111	keystroke	a	n/a
544.1915	0.105	1088383	keystroke	t	n/a
544.5515	0.134	1089103	keystroke	f	n/a
544.7455	0.106	1089491	keystroke	o	n/a
544.8805	0.105	1089761	keystroke	r	n/a
545.0155	0.135	1090031	keystroke	m	n/a
545.1955	0.15	1090391	keystroke	s	n/a
545.3905	0.12	1090781	keystroke	Key.space	n/a
545.7365	0.074	1091473	keystroke	m	n/a
545.9165	0.104	1091833	keystroke	i	n/a
546.3065	0.074	1092613	keystroke	l	n/a
546.4565	0.075	1092913	keystroke	e	n/a
546.6355	0.075	1093271	keystroke	Key.space	n/a
546.7865	0.119	1093573	keystroke	s	n/a
546.9065	0.075	1093813	keystroke	i	n/a
547.0865	0.089	1094173	keystroke	l	n/a
547.3255	0.06	1094651	keystroke	k	n/a
547.5355	0.09	1095071	keystroke	Key.space	n/a
547.8355	0.15	1095671	keystroke	a	n/a
548.0155	0.06	1096031	keystroke	n	n/a
548.1955	0.075	1096391	keystroke	i	n/a
548.3455	0.106	1096691	keystroke	m	n/a
548.4955	0.211	1096991	keystroke	a	n/a
548.6915	0.09	1097383	keystroke	t	n/a
548.8715	0.074	1097743	keystroke	e	n/a
549.0805	0.061	1098161	keystroke	d	n/a
549.2755	0.12	1098551	keystroke	Key.enter	n/a
549.404	6.429	1098808	prompt	n/a	shop frog ranked minerals\n
550.0855	0.135	1100171	keystroke	s	n/a
550.2505	0.136	1100501	keystroke	h	n/a
550.3415	0.105	1100683	keystroke	o	n/a
550.5505	0.09	1101101	keystroke	p	n/a
550.6855	0.106	1101371	keystroke	Key.space	n/a
550.7755	0.061	1101551	keystroke	f	n/a
550.9115	0.12	1101823	keystroke	r	n/a
551.0455	0.136	1102091	keystroke	o	n/a
551.1505	0.121	1102301	keystroke	n	n/a
551.2865	0.09	1102573	keystroke	g	n/a
551.9005	0.075	1103801	keystroke	Key.backspace	n/a
552.0805	0.075	1104161	keystroke	Key.backspace	n/a
552.2455	0.091	1104491	keystroke	g	n/a
552.4415	0.089	1104883	keystroke	Key.space	n/a
552.9215	0.074	1105843	keystroke	r	n/a
553.0405	0.136	1106081	keystroke	a	n/a
553.1605	0.166	1106321	keystroke	n	n/a
553.3115	0.119	1106623	keystroke	k	n/a
553.4455	0.061	1106891	keystroke	e	n/a
553.6265	0.105	1107253	keystroke	d	n/a
553.8355	0.106	1107671	keystroke	Key.space	n/a
554.1515	0.089	1108303	keystroke	m	n/a
554.3315	0.105	1108663	keystroke	i	n/a
554.4205	0.106	1108841	keystroke	n	n/a
554.6015	0.089	1109203	keystroke	e	n/a
554.8115	0.075	1109623	keystroke	r	n/a
554.9605	0.135	1109921	keystroke	a	n/a
555.2755	0.106	1110551	keystroke	l	n/a
555.4555	0.106	1110911	keystroke	s	n/a
555.7415	0.089	1111483	keystroke	Key.enter	n/a
555.8375	9.8645	1111675	prompt	n/a	hung evil professional envelope\n
556.581	0.074	1113162	keystroke	h	n/a
556.686	0.119	1113372	keystroke	u	n/a
556.866	0.105	1113732	keystroke	n	n/a
557	0.121	1114000	keystroke	g	n/a
557.15	0.075	1114300	keystroke	Key.space	n/a
557.286	0.09	1114572	keystroke	e	n/a
557.511	0.105	1115022	keystroke	v	n/a
557.72	0.091	1115440	keystroke	i	n/a
557.901	0.075	1115802	keystroke	l	n/a
558.051	0.075	1116102	keystroke	Key.space	n/a
558.291	0.105	1116582	keystroke	p	n/a
558.411	0.089	1116822	keystroke	r	n/a
558.516	0.12	1117032	keystroke	o	n/a
559.056	0.09	1118112	keystroke	f	n/a
559.265	0.076	1118530	keystroke	e	n/a
559.521	0.075	1119042	keystroke	s	n/a
559.715	0.091	1119430	keystroke	s	n/a
560.031	0.09	1120062	keystroke	i	n/a
560.196	0.104	1120392	keystroke	o	n/a
560.376	0.119	1120752	keystroke	n	n/a
560.645	0.121	1121290	keystroke	a	n/a
560.975	0.106	1121950	keystroke	l	n/a
561.291	0.105	1122582	keystroke	Key.space	n/a
561.486	0.075	1122972	keystroke	e	n/a
561.816	0.09	1123632	keystroke	n	n/a
561.996	0.074	1123992	keystroke	v	n/a
562.191	0.075	1124382	keystroke	e	n/a
563.331	0.105	1126662	keystroke	l	n/a
563.586	0.105	1127172	keystroke	o	n/a
563.811	0.105	1127622	keystroke	p	n/a
563.961	0.105	1127922	keystroke	e	n/a
565.611	0.089	1131222	keystroke	Key.enter	n/a
565.7065	5.846	1131413	prompt	n/a	clerk burning root mercy\n
566.496	0.075	1132992	keystroke	c	n/a
566.631	0.09	1133262	keystroke	l	n/a
566.706	0.105	1133412	keystroke	e	n/a
566.901	0.09	1133802	keystroke	r	n/a
567.066	0.075	1134132	keystroke	k	n/a
567.291	0.09	1134582	keystroke	Key.space	n/a
567.666	0.09	1135332	keystroke	b	n/a
567.876	0.105	1135752	keystroke	u	n/a
568.026	0.135	1136052	keystroke	r	n/a
568.236	0.105	1136472	keystroke	n	n/a
568.401	0.105	1136802	keystroke	i	n/a
568.521	0.18	1137042	keystroke	n	n/a
568.986	0.105	1137972	keystroke	g	n/a
569.39	0.091	1138780	keystroke	Key.space	n/a
569.586	0.12	1139172	keystroke	r	n/a
569.721	0.09	1139442	keystroke	o	n/a
569.871	0.12	1139742	keystroke	o	n/a
570.036	0.09	1140072	keystroke	t	n/a
570.14	0.091	1140280	keystroke	Key.space	n/a
570.366	0.09	1140732	keystroke	m	n/a
570.486	0.105	1140972	keystroke	e	n/a
570.666	0.09	1141332	keystroke	r	n/a
570.936	0.12	1141872	keystroke	c	n/a
571.161	0.075	1142322	keystroke	y	n/a
571.431	0.119	1142862	keystroke	Key.enter	n/a
571.557	7.4655	1143114	prompt	n/a	sticky vienna pursuit o'er\n
572.271	0.105	1144542	keystroke	s	n/a
572.421	0.09	1144842	keystroke	t	n/a
572.556	0.09	1145112	keystroke	i	n/a
572.676	0.135	1145352	keystroke	c	n/a
572.796	0.075	1145592	keystroke	k	n/a
573.066	0.075	1146132	keystroke	y	n/a
573.261	0.09	1146522	keystroke	Key.space	n/a
573.576	0.105	1147152	keystroke	v	n/a
573.741	0.06	1147482	keystroke	i	n/a
573.966	0.09	1147932	keystroke	e	n/a
574.191	0.105	1148382	keystroke	n	n/a
574.386	0.09	1148772	keystroke	n	n/a
574.596	0.12	1149192	keystroke	a	n/a
575.166	0.09	1150332	keystroke	Key.space	n/a
575.331	0.09	1150662	keystroke	p	n/a
575.571	0.105	1151142	keystroke	u	n/a
575.706	0.09	1151412	keystroke	r	n/a
576.006	0.12	1152012	keystroke	s	n/a
576.156	0.075	1152312	keystroke	u	n/a
576.351	0.09	1152702	keystroke	i	n/a
576.531	0.09	1153062	keystroke	t	n/a
576.801	0.105	1153602	keystroke	Key.space	n/a
577.056	0.09	1154112	keystroke	o	n/a
577.971	0.09	1155942	keystroke	'	n/a
578.271	0.09	1156542	keystroke	e	n/a
578.496	0.075	1156992	keystroke	r	n/a
578.916	0.105	1157832	keystroke	Key.enter	n/a
579.0265	6.4905	1158053	prompt	n/a	mazda chubby roots corp\n
579.951	0.06	1159902	keystroke	m	n/a
580.026	0.12	1160052	keystroke	a	n/a
580.566	0.09	1161132	keystroke	x	n/a
580.911	0.09	1161822	keystroke	Key.backspace	n/a
581.091	0.06	1162182	keystroke	z	n/a
581.256	0.09	1162512	keystroke	d	n/a
581.421	0.135	1162842	keystroke	a	n/a
581.751	0.09	1163502	keystroke	Key.space	n/a
582.081	0.12	1164162	keystroke	c	n/a
582.231	0.06	1164462	keystroke	h	n/a
582.351	0.105	1164702	keystroke	u	n/a
582.576	0.075	1165152	keystroke	b	n/a
582.756	0.09	1165512	keystroke	b	n/a
582.981	0.075	1165962	keystroke	y	n/a
583.146	0.09	1166292	keystroke	Key.space	n/a
583.491	0.135	1166982	keystroke	r	n/a
583.671	0.06	1167342	keystroke	o	n/a
583.806	0.12	1167612	keystroke	o	n/a
583.956	0.075	1167912	keystroke	t	n/a
584.166	0.12	1168332	keystroke	s	n/a
584.376	0.105	1168752	keystroke	Key.space	n/a
584.556	0.09	1169112	keystroke	c	n/a
584.841	0.105	1169682	keystroke	o	n/a
585.006	0.105	1170012	keystroke	r	n/a
585.156	0.09	1170312	keystroke	p	n/a
585.441	0.075	1170882	keystroke	Key.enter	n/a
585.522	6.5355	1171044	prompt	n/a	begins golf biography tone\n
586.266	0.09	1172532	keystroke	b	n/a
586.386	0.09	1172772	keystroke	e	n/a
586.536	0.12	1173072	keystroke	g	n/a
586.701	0.075	1173402	keystroke	i	n/a
586.896	0.105	1173792	keystroke	n	n/a
587.076	0.1195	1174152	keystroke	s	n/a
587.2405	0.09	1174481	keystroke	Key.space	n/a
587.5255	0.09	1175051	keystroke	g	n/a
587.6605	0.09	1175321	keystroke	o	n/a
587.8555	0.105	1175711	keystroke	l	n/a
588.0355	0.12	1176071	keystroke	f	n/a
588.2605	0.075	1176521	keystroke	Key.space	n/a
588.4855	0.09	1176971	keystroke	b	n/a
588.6805	0.075	1177361	keystroke	i	n/a
588.8455	0.12	1177691	keystroke	o	n/a
589.0105	0.105	1178021	keystroke	g	n/a
589.1165	0.135	1178233	keystroke	r	n/a
589.2355	0.09	1178471	keystroke	a	n/a
589.5965	0.089	1179193	keystroke	p	n/a
589.8355	0.075	1179671	keystroke	h	n/a
590.0755	0.105	1180151	keystroke	y	n/a
590.4205	0.105	1180841	keystroke	Key.space	n/a
590.6605	0.075	1181321	keystroke	t	n/a
590.8105	0.075	1181621	keystroke	o	n/a
591.0355	0.075	1182071	keystroke	e	n/a
591.3805	0.105	1182761	keystroke	Key.backspace	n/a
591.6055	0.075	1183211	keystroke	n	n/a
591.7255	0.09	1183451	keystroke	e	n/a
592.0405	0.015	1184081	keystroke	Key.enter	n/a
592.062	7.5705	1184124	prompt	n/a	weed empirical running entry\n
592.8205	0.12	1185641	keystroke	w	n/a
592.9265	0.089	1185853	keystroke	e	n/a
593.1205	0.06	1186241	keystroke	e	n/a
593.6915	0.105	1187383	keystroke	d	n/a
593.9005	0.075	1187801	keystroke	Key.space	n/a
594.1555	0.09	1188311	keystroke	e	n/a
594.41	0.075	1188820	keystroke	m	n/a
594.62	0.09	1189240	keystroke	p	n/a
594.86	0.09	1189720	keystroke	i	n/a
595.0255	0.1055	1190051	keystroke	r	n/a
595.2205	0.1195	1190441	keystroke	i	n/a
595.4005	0.105	1190801	keystroke	c	n/a
595.5355	0.15	1191071	keystroke	a	n/a
595.7905	0.12	1191581	keystroke	l	n/a
596.0455	0.09	1192091	keystroke	Key.space	n/a
596.3155	0.045	1192631	keystroke	e	n/a
596.4055	0.075	1192811	keystroke	e	n/a
596.6755	0.105	1193351	keystroke	Key.backspace	n/a
596.8855	0.075	1193771	keystroke	Key.backspace	n/a
597.0355	0.105	1194071	keystroke	r	n/a
597.2305	0.06	1194461	keystroke	u	n/a
597.4255	0.06	1194851	keystroke	n	n/a
597.5605	0.09	1195121	keystroke	n	n/a
597.7555	0.09	1195511	keystroke	i	n/a
597.8755	0.15	1195751	keystroke	n	n/a
598.0855	0.105	1196171	keystroke	g	n/a
598.2955	0.09	1196591	keystroke	Key.space	n/a
598.4755	0.105	1196951	keystroke	e	n/a
598.6255	0.105	1197251	keystroke	n	n/a
598.7455	0.06	1197491	keystroke	t	n/a
598.9405	0.09	1197881	keystroke	r	n/a
599.1505	0.075	1198301	keystroke	y	n/a
599.5255	0.105	1199051	keystroke	Key.enter	n/a
599.6365	7.946	1199273	prompt	n/a	inter personality italic boats\n
600.2755	0.06	1200551	keystroke	i	n/a
