onset	duration	sample	value	key	prompt_text
6.012	7.6735	12024	prompt	n/a	the quick brown fox jumps over a lazy dog\n
8.0295	0.058	16059	keystroke_t	t	n/a
8.0725	0.105	16145	keystroke_h	h	n/a
8.1625	0.12	16325	keystroke_e	e	n/a
8.2375	0.09	16475	keystroke_Key.space	Key.space	n/a
8.4025	0.1355	16805	keystroke_q	q	n/a
8.508	0.075	17016	keystroke_u	u	n/a
8.553	0.105	17106	keystroke_i	i	n/a
8.688	0.15	17376	keystroke_c	c	n/a
8.763	0.09	17526	keystroke_k	k	n/a
8.883	0.075	17766	keystroke_Key.space	Key.space	n/a
9.123	0.06	18246	keystroke_b	b	n/a
9.288	0.09	18576	keystroke_r	r	n/a
9.393	0.075	18786	keystroke_o	o	n/a
9.483	0.09	18966	keystroke_w	w	n/a
9.573	0.09	19146	keystroke_n	n	n/a
9.678	0.06	19356	keystroke_Key.space	Key.space	n/a
9.798	0.135	19596	keystroke_f	f	n/a
10.0075	0.105	20015	keystroke_o	o	n/a
10.1275	0.135	20255	keystroke_x	x	n/a
10.2175	0.105	20435	keystroke_Key.space	Key.space	n/a
10.743	0.105	21486	keystroke_j	j	n/a
10.938	0.06	21876	keystroke_u	u	n/a
11.088	0.135	22176	keystroke_m	m	n/a
11.178	0.135	22356	keystroke_p	p	n/a
11.328	0.09	22656	keystroke_s	s	n/a
11.403	0.075	22806	keystroke_Key.space	Key.space	n/a
11.5525	0.1205	23105	keystroke_o	o	n/a
11.658	0.075	23316	keystroke_v	v	n/a
11.808	0.09	23616	keystroke_e	e	n/a
11.868	0.12	23736	keystroke_r	r	n/a
11.958	0.074	23916	keystroke_Key.space	Key.space	n/a
12.0625	0.105	24125	keystroke_a	a	n/a
12.1685	0.074	24337	keystroke_Key.space	Key.space	n/a
12.3175	0.105	24635	keystroke_l	l	n/a
12.4075	0.12	24815	keystroke_a	a	n/a
12.6175	0.135	25235	keystroke_z	z	n/a
12.7225	0.09	25445	keystroke_y	y	n/a
12.8275	0.075	25655	keystroke_Key.space	Key.space	n/a
13.0825	0.09	26165	keystroke_d	d	n/a
13.1735	0.1035	26347	keystroke_o	o	n/a
13.293	0.09	26586	keystroke_g	g	n/a
13.593	0.089	27186	keystroke_Key.enter	Key.enter	n/a
13.6895	4.735	27379	prompt	n/a	pointed keno advisor notice\n
14.418	0.09	28836	keystroke_p	p	n/a
14.567	0.12	29134	keystroke_o	o	n/a
14.673	0.105	29346	keystroke_i	i	n/a
14.748	0.119	29496	keystroke_n	n	n/a
14.882	0.106	29764	keystroke_t	t	n/a
14.972	0.06	29944	keystroke_e	e	n/a
15.107	0.135	30214	keystroke_d	d	n/a
15.182	0.12	30364	keystroke_Key.space	Key.space	n/a
15.317	0.105	30634	keystroke_k	k	n/a
15.437	0.105	30874	keystroke_e	e	n/a
15.527	0.09	31054	keystroke_n	n	n/a
15.677	0.106	31354	keystroke_o	o	n/a
15.812	0.09	31624	keystroke_Key.space	Key.space	n/a
15.993	0.09	31986	keystroke_a	a	n/a
16.113	0.06	32226	keystroke_d	d	n/a
16.263	0.09	32526	keystroke_v	v	n/a
16.368	0.105	32736	keystroke_i	i	n/a
16.473	0.09	32946	keystroke_s	s	n/a
16.608	0.105	33216	keystroke_o	o	n/a
16.728	0.105	33456	keystroke_r	r	n/a
16.818	0.075	33636	keystroke_Key.space	Key.space	n/a
17.013	0.09	34026	keystroke_n	n	n/a
17.088	0.09	34176	keystroke_o	o	n/a
17.193	0.075	34386	keystroke_t	t	n/a
17.283	0.105	34566	keystroke_i	i	n/a
17.403	0.165	34806	keystroke_c	c	n/a
17.568	0.135	35136	keystroke_e	e	n/a
17.658	0.075	35316	keystroke_Key.space	Key.space	n/a
18.0775	0.075	36155	keystroke_Key.backspace	Key.backspace	n/a
18.3175	0.105	36635	keystroke_Key.enter	Key.enter	n/a
18.4275	5.712	36855	prompt	n/a	empirical pending secure informative\n
19.1275	0.075	38255	keystroke_e	e	n/a
19.2475	0.105	38495	keystroke_m	m	n/a
19.3675	0.075	38735	keystroke_p	p	n/a
19.4725	0.105	38945	keystroke_i	i	n/a
19.6075	0.075	39215	keystroke_r	r	n/a
19.7125	0.105	39425	keystroke_i	i	n/a
19.937	0.1205	39874	keystroke_c	c	n/a
20.0425	0.12	40085	keystroke_a	a	n/a
20.148	0.1045	40296	keystroke_l	l	n/a
20.2675	0.045	40535	keystroke_Key.space	Key.space	n/a
20.4025	0.105	40805	keystroke_p	p	n/a
20.5085	0.074	41017	keystroke_e	e	n/a
20.6275	0.09	41255	keystroke_n	n	n/a
20.7025	0.105	41405	keystroke_d	d	n/a
20.8225	0.105	41645	keystroke_i	i	n/a
20.8825	0.15	41765	keystroke_n	n	n/a
20.9425	0.105	41885	keystroke_g	g	n/a
21.0175	0.0605	42035	keystroke_Key.space	Key.space	n/a
21.1525	0.045	42305	keystroke_s	s	n/a
21.3025	0.06	42605	keystroke_e	e	n/a
21.4225	0.105	42845	keystroke_c	c	n/a
21.5575	0.105	43115	keystroke_u	u	n/a
21.6475	0.15	43295	keystroke_r	r	n/a
21.7825	0.075	43565	keystroke_e	e	n/a
21.8275	0.075	43655	keystroke_Key.space	Key.space	n/a
21.9475	0.105	43895	keystroke_i	i	n/a
22.0375	0.105	44075	keystroke_n	n	n/a
22.1875	0.09	44375	keystroke_f	f	n/a
22.2175	0.105	44435	keystroke_o	o	n/a
22.9975	0.075	45995	keystroke_r	r	n/a
23.1175	0.09	46235	keystroke_m	m	n/a
23.3575	0.135	46715	keystroke_a	a	n/a
23.4325	0.09	46865	keystroke_t	t	n/a
23.5525	0.105	47105	keystroke_i	i	n/a
23.6725	0.075	47345	keystroke_v	v	n/a
23.8075	0.1055	47615	keystroke_e	e	n/a
24.063	0.075	48126	keystroke_Key.enter	Key.enter	n/a
24.1425	3.7015	48285	prompt	n/a	wallpaper camps inns her\n
24.827	0.12	49654	keystroke_w	w	n/a
24.902	0.135	49804	keystroke_a	a	n/a
25.023	0.075	50046	keystroke_l	l	n/a
25.157	0.09	50314	keystroke_l	l	n/a
25.352	0.105	50704	keystroke_p	p	n/a
25.443	0.119	50886	keystroke_a	a	n/a
25.547	0.12	51094	keystroke_p	p	n/a
25.712	0.135	51424	keystroke_e	e	n/a
25.802	0.105	51604	keystroke_r	r	n/a
25.877	0.076	51754	keystroke_Key.space	Key.space	n/a
26.043	0.1055	52086	keystroke_c	c	n/a
26.1025	0.12	52205	keystroke_a	a	n/a
26.1925	0.135	52385	keystroke_m	m	n/a
26.2825	0.12	52565	keystroke_p	p	n/a
26.3875	0.12	52775	keystroke_s	s	n/a
26.4625	0.09	52925	keystroke_Key.space	Key.space	n/a
26.5675	0.075	53135	keystroke_i	i	n/a
26.6575	0.075	53315	keystroke_n	n	n/a
26.8075	0.06	53615	keystroke_n	n	n/a
26.9125	0.135	53825	keystroke_s	s	n/a
27.0025	0.075	54005	keystroke_Key.space	Key.space	n/a
27.1075	0.105	54215	keystroke_h	h	n/a
27.2425	0.105	54485	keystroke_e	e	n/a
27.3025	0.105	54605	keystroke_r	r	n/a
27.7375	0.105	55475	keystroke_Key.enter	Key.enter	n/a
27.847	5.023	55694	prompt	n/a	surgeon written question communicate\n
28.608	0.089	57216	keystroke_s	s	n/a
28.7425	0.0895	57485	keystroke_u	u	n/a
28.817	0.045	57634	keystroke_r	r	n/a
28.982	0.061	57964	keystroke_g	g	n/a
29.133	0.075	58266	keystroke_e	e	n/a
29.223	0.09	58446	keystroke_o	o	n/a
29.283	0.12	58566	keystroke_n	n	n/a
29.358	0.0895	58716	keystroke_Key.space	Key.space	n/a
29.5075	0.12	59015	keystroke_w	w	n/a
29.6575	0.105	59315	keystroke_r	r	n/a
29.8525	0.0905	59705	keystroke_i	i	n/a
29.958	0.06	59916	keystroke_t	t	n/a
30.1075	0.06	60215	keystroke_t	t	n/a
30.258	0.045	60516	keystroke_e	e	n/a
30.348	0.105	60696	keystroke_n	n	n/a
30.438	0.06	60876	keystroke_Key.space	Key.space	n/a
30.573	0.09	61146	keystroke_q	q	n/a
30.678	0.09	61356	keystroke_u	u	n/a
30.753	0.18	61506	keystroke_e	e	n/a
30.873	0.15	61746	keystroke_s	s	n/a
30.963	0.09	61926	keystroke_t	t	n/a
31.038	0.1645	62076	keystroke_i	i	n/a
31.113	0.105	62226	keystroke_o	o	n/a
31.188	0.1195	62376	keystroke_n	n	n/a
31.2925	0.045	62585	keystroke_Key.space	Key.space	n/a
31.4275	0.105	62855	keystroke_c	c	n/a
31.5025	0.09	63005	keystroke_o	o	n/a
31.5775	0.045	63155	keystroke_m	m	n/a
31.713	0.0895	63426	keystroke_m	m	n/a
31.9085	0.044	63817	keystroke_u	u	n/a
32.0425	0.09	64085	keystroke_n	n	n/a
32.0875	0.105	64175	keystroke_i	i	n/a
32.1475	0.105	64295	keystroke_c	c	n/a
32.2825	0.135	64565	keystroke_a	a	n/a
32.3875	0.135	64775	keystroke_t	t	n/a
32.5075	0.09	65015	keystroke_e	e	n/a
32.7625	0.105	65525	keystroke_Key.enter	Key.enter	n/a
32.874	6.296	65748	prompt	n/a	national flush marilyn manufacturing\n
33.5425	0.09	67085	keystroke_n	n	n/a
33.6925	0.135	67385	keystroke_a	a	n/a
33.7825	0.09	67565	keystroke_t	t	n/a
33.8875	0.15	67775	keystroke_i	i	n/a
33.9625	0.09	67925	keystroke_o	o	n/a
34.0225	0.135	68045	keystroke_n	n	n/a
34.1725	0.12	68345	keystroke_a	a	n/a
34.2625	0.12	68525	keystroke_l	l	n/a
34.3975	0.105	68795	keystroke_Key.space	Key.space	n/a
34.6375	0.075	69275	keystroke_f	f	n/a
34.7275	0.105	69455	keystroke_l	l	n/a
34.8175	0.075	69635	keystroke_u	u	n/a
34.9075	0.09	69815	keystroke_s	s	n/a
35.0125	0.09	70025	keystroke_h	h	n/a
35.1035	0.074	70207	keystroke_Key.space	Key.space	n/a
35.2075	0.135	70415	keystroke_m	m	n/a
35.2825	0.135	70565	keystroke_a	a	n/a
35.3575	0.09	70715	keystroke_r	r	n/a
35.4775	0.105	70955	keystroke_i	i	n/a
35.7025	0.12	71405	keystroke_l	l	n/a
35.8375	0.09	71675	keystroke_y	y	n/a
36.0325	0.09	72065	keystroke_n	n	n/a
36.2125	0.09	72425	keystroke_Key.space	Key.space	n/a
36.3325	0.1055	72665	keystroke_m	m	n/a
36.453	0.09	72906	keystroke_a	a	n/a
36.558	0.075	73116	keystroke_n	n	n/a
36.693	0.09	73386	keystroke_u	u	n/a
36.813	0.105	73626	keystroke_f	f	n/a
36.933	0.12	73866	keystroke_a	a	n/a
37.038	0.09	74076	keystroke_c	c	n/a
37.203	0.075	74406	keystroke_t	t	n/a
37.293	0.09	74586	keystroke_u	u	n/a
37.368	0.075	74736	keystroke_r	r	n/a
37.473	0.105	74946	keystroke_i	i	n/a
37.533	0.12	75066	keystroke_n	n	n/a
37.608	0.09	75216	keystroke_g	g	n/a
39.063	0.1045	78126	keystroke_Key.enter	Key.enter	n/a
39.173	4.8715	78346	prompt	n/a	mailing keno writing how'd\n
39.858	0.105	79716	keystroke_m	m	n/a
39.964	0.1185	79928	keystroke_a	a	n/a
40.0975	0.075	80195	keystroke_i	i	n/a
40.2175	0.12	80435	keystroke_l	l	n/a
40.4125	0.15	80825	keystroke_i	i	n/a
40.5175	0.12	81035	keystroke_n	n	n/a
40.6225	0.12	81245	keystroke_g	g	n/a
40.7125	0.105	81425	keystroke_Key.space	Key.space	n/a
40.7875	0.09	81575	keystroke_k	k	n/a
40.9825	0.075	81965	keystroke_e	e	n/a
41.0425	0.105	82085	keystroke_n	n	n/a
41.3575	0.12	82715	keystroke_o	o	n/a
41.5075	0.105	83015	keystroke_Key.space	Key.space	n/a
42.093	0.15	84186	keystroke_w	w	n/a
42.213	0.12	84426	keystroke_r	r	n/a
42.348	0.09	84696	keystroke_i	i	n/a
42.468	0.075	84936	keystroke_t	t	n/a
42.588	0.12	85176	keystroke_i	i	n/a
42.663	0.135	85326	keystroke_n	n	n/a
42.738	0.135	85476	keystroke_g	g	n/a
42.843	0.09	85686	keystroke_Key.space	Key.space	n/a
43.053	0.075	86106	keystroke_h	h	n/a
43.128	0.12	86256	keystroke_o	o	n/a
43.233	0.12	86466	keystroke_w	w	n/a
43.3975	0.12	86795	keystroke_'	'	n/a
43.5775	0.1055	87155	keystroke_d	d	n/a
43.9525	0.09	87905	keystroke_Key.enter	Key.enter	n/a
44.049	9.0405	88098	prompt	n/a	technological providers lighting assessing\n
44.7775	0.09	89555	keystroke_t	t	n/a
44.8975	0.09	89795	keystroke_e	e	n/a
45.0925	0.105	90185	keystroke_c	c	n/a
45.2575	0.06	90515	keystroke_h	h	n/a
45.3925	0.135	90785	keystroke_n	n	n/a
45.5125	0.06	91025	keystroke_o	o	n/a
45.6625	0.045	91325	keystroke_l	l	n/a
45.7825	0.105	91565	keystroke_o	o	n/a
45.9025	0.0745	91805	keystroke_g	g	n/a
45.978	0.105	91956	keystroke_i	i	n/a
46.112	0.136	92224	keystroke_c	c	n/a
46.202	0.1205	92404	keystroke_a	a	n/a
46.262	0.1205	92524	keystroke_l	l	n/a
46.4125	0.06	92825	keystroke_Key.space	Key.space	n/a
46.5335	0.089	93067	keystroke_p	p	n/a
46.6075	0.075	93215	keystroke_r	r	n/a
46.7275	0.09	93455	keystroke_o	o	n/a
47.4625	0.105	94925	keystroke_v	v	n/a
47.5525	0.105	95105	keystroke_i	i	n/a
47.6875	0.06	95375	keystroke_d	d	n/a
47.8525	0.135	95705	keystroke_e	e	n/a
47.9575	0.09	95915	keystroke_r	r	n/a
48.0925	0.135	96185	keystroke_s	s	n/a
48.1675	0.105	96335	keystroke_Key.space	Key.space	n/a
48.2875	0.09	96575	keystroke_l	l	n/a
48.3925	0.09	96785	keystroke_e	e	n/a
48.4975	0.075	96995	keystroke_i	i	n/a
48.8725	0.03	97745	keystroke_Key.backspace	Key.backspace	n/a
48.9775	0.09	97955	keystroke_Key.backspace	Key.backspace	n/a
49.293	0.0745	98586	keystroke_i	i	n/a
49.4425	0.075	98885	keystroke_g	g	n/a
49.5325	0.09	99065	keystroke_h	h	n/a
49.6525	0.075	99305	keystroke_t	t	n/a
49.7575	0.1055	99515	keystroke_i	i	n/a
49.833	0.1045	99666	keystroke_n	n	n/a
49.893	0.0895	99786	keystroke_g	g	n/a
50.2375	0.075	100475	keystroke_Key.space	Key.space	n/a
50.5675	0.105	101135	keystroke_a	a	n/a
50.7775	0.21	101555	keystroke_s	s	n/a
51.1225	0.09	102245	keystroke_s	s	n/a
51.3325	0.075	102665	keystroke_e	e	n/a
51.4525	0.075	102905	keystroke_s	s	n/a
51.6025	0.09	103205	keystroke_s	s	n/a
52.3975	0.06	104795	keystroke_i	i	n/a
52.5175	0.12	105035	keystroke_n	n	n/a
52.6075	0.075	105215	keystroke_g	g	n/a
52.9975	0.09	105995	keystroke_Key.enter	Key.enter	n/a
53.092	4.197	106184	prompt	n/a	slow comply ball genres\n
53.807	0.0755	107614	keystroke_s	s	n/a
53.9125	0.0605	107825	keystroke_l	l	n/a
54.032	0.0905	108064	keystroke_o	o	n/a
54.1375	0.105	108275	keystroke_w	w	n/a
54.227	0.075	108454	keystroke_Key.space	Key.space	n/a
54.437	0.12	108874	keystroke_c	c	n/a
54.512	0.106	109024	keystroke_o	o	n/a
54.663	0.134	109326	keystroke_m	m	n/a
54.842	0.12	109684	keystroke_p	p	n/a
55.022	0.1055	110044	keystroke_l	l	n/a
55.233	0.09	110466	keystroke_y	y	n/a
55.338	0.0745	110676	keystroke_Key.space	Key.space	n/a
55.5035	0.134	111007	keystroke_b	b	n/a
55.5935	0.149	111187	keystroke_a	a	n/a
55.6825	0.061	111365	keystroke_l	l	n/a
55.8035	0.104	111607	keystroke_l	l	n/a
55.9375	0.0755	111875	keystroke_Key.space	Key.space	n/a
56.268	0.075	112536	keystroke_g	g	n/a
56.388	0.075	112776	keystroke_e	e	n/a
56.478	0.09	112956	keystroke_n	n	n/a
56.598	0.105	113196	keystroke_r	r	n/a
56.688	0.135	113376	keystroke_e	e	n/a
56.793	0.18	113586	keystroke_s	s	n/a
57.198	0.09	114396	keystroke_Key.enter	Key.enter	n/a
57.292	5.1125	114584	prompt	n/a	fair shell hundreds clothing\n
57.948	0.105	115896	keystroke_f	f	n/a
58.098	0.1045	116196	keystroke_a	a	n/a
58.2175	0.09	116435	keystroke_i	i	n/a
58.3225	0.09	116645	keystroke_r	r	n/a
58.3975	0.06	116795	keystroke_Key.space	Key.space	n/a
58.6225	0.09	117245	keystroke_s	s	n/a
58.6975	0.105	117395	keystroke_h	h	n/a
58.8175	0.075	117635	keystroke_e	e	n/a
58.9225	0.045	117845	keystroke_l	l	n/a
59.0425	0.105	118085	keystroke_l	l	n/a
59.1625	0.075	118325	keystroke_Key.space	Key.space	n/a
59.5075	0.06	119015	keystroke_h	h	n/a
59.6875	0.06	119375	keystroke_u	u	n/a
59.8375	0.105	119675	keystroke_n	n	n/a
59.9125	0.06	119825	keystroke_d	d	n/a
60.0625	0.09	120125	keystroke_r	r	n/a
60.1375	0.09	120275	keystroke_e	e	n/a
60.3475	0.075	120695	keystroke_d	d	n/a
60.6475	0.1055	121295	keystroke_s	s	n/a
60.783	0.09	121566	keystroke_Key.space	Key.space	n/a
60.9775	0.12	121955	keystroke_c	c	n/a
61.0825	0.045	122165	keystroke_l	l	n/a
61.2175	0.09	122435	keystroke_o	o	n/a
61.3225	0.061	122645	keystroke_t	t	n/a
61.4125	0.0905	122825	keystroke_h	h	n/a
61.518	0.119	123036	keystroke_i	i	n/a
61.593	0.134	123186	keystroke_n	n	n/a
61.682	0.121	123364	keystroke_g	g	n/a
62.313	0.09	124626	keystroke_Key.enter	Key.enter	n/a
62.408	9.8215	124816	prompt	n/a	atlantic alliance trunk guestbook\n
63.048	0.09	126096	keystroke_a	a	n/a
63.153	0.09	126306	keystroke_t	t	n/a
63.303	0.09	126606	keystroke_l	l	n/a
63.378	0.1195	126756	keystroke_a	a	n/a
63.4825	0.105	126965	keystroke_n	n	n/a
64.3375	0.075	128675	keystroke_t	t	n/a
64.4425	0.105	128885	keystroke_i	i	n/a
64.5925	0.1655	129185	keystroke_c	c	n/a
64.728	0.105	129456	keystroke_Key.space	Key.space	n/a
64.908	0.12	129816	keystroke_a	a	n/a
64.9975	0.0605	129995	keystroke_l	l	n/a
65.163	0.075	130326	keystroke_l	l	n/a
65.343	0.075	130686	keystroke_i	i	n/a
65.448	0.105	130896	keystroke_a	a	n/a
65.538	0.12	131076	keystroke_n	n	n/a
65.643	0.12	131286	keystroke_c	c	n/a
65.733	0.165	131466	keystroke_e	e	n/a
65.883	0.105	131766	keystroke_Key.space	Key.space	n/a
66.8125	0.06	133625	keystroke_t	t	n/a
66.9475	0.105	133895	keystroke_r	r	n/a
67.0675	0.075	134135	keystroke_u	u	n/a
67.2325	0.12	134465	keystroke_n	n	n/a
67.3375	0.135	134675	keystroke_k	k	n/a
70.6105	0.057	141221	keystroke_Key.space	Key.space	n/a
70.7425	0.075	141485	keystroke_g	g	n/a
70.8475	0.09	141695	keystroke_u	u	n/a
70.9385	0.074	141877	keystroke_e	e	n/a
71.0425	0.15	142085	keystroke_s	s	n/a
71.1475	0.105	142295	keystroke_t	t	n/a
71.3875	0.09	142775	keystroke_b	b	n/a
71.4925	0.045	142985	keystroke_o	o	n/a
71.6125	0.09	143225	keystroke_o	o	n/a
71.6725	0.1505	143345	keystroke_k	k	n/a
72.138	0.09	144276	keystroke_Key.enter	Key.enter	n/a
72.2325	6.7775	144465	prompt	n/a	extraction array cinema titles\n
72.978	0.075	145956	keystroke_e	e	n/a
73.203	0.1045	146406	keystroke_x	x	n/a
73.3685	0.0745	146737	keystroke_t	t	n/a
73.518	0.1195	147036	keystroke_r	r	n/a
73.6675	0.166	147335	keystroke_a	a	n/a
73.8035	0.119	147607	keystroke_c	c	n/a
74.0425	0.075	148085	keystroke_t	t	n/a
74.178	0.105	148356	keystroke_i	i	n/a
74.328	0.1045	148656	keystroke_o	o	n/a
74.4175	0.12	148835	keystroke_n	n	n/a
74.5225	0.075	149045	keystroke_Key.space	Key.space	n/a
74.7475	0.135	149495	keystroke_a	a	n/a
74.8835	0.074	149767	keystroke_r	r	n/a
75.0025	0.105	150005	keystroke_r	r	n/a
75.1375	0.12	150275	keystroke_a	a	n/a
75.2425	0.12	150485	keystroke_y	y	n/a
75.3475	0.075	150695	keystroke_Key.space	Key.space	n/a
75.5575	0.12	151115	keystroke_c	c	n/a
75.6325	0.09	151265	keystroke_i	i	n/a
75.7375	0.105	151475	keystroke_n	n	n/a
75.8575	0.075	151715	keystroke_e	e	n/a
75.9625	0.12	151925	keystroke_m	m	n/a
76.0675	0.135	152135	keystroke_a	a	n/a
76.5475	0.075	153095	keystroke_Key.space	Key.space	n/a
76.7875	0.105	153575	keystroke_l	l	n/a
77.1475	0.06	154295	keystroke_Key.backspace	Key.backspace	n/a
77.6575	0.075	155315	keystroke_t	t	n/a
77.7925	0.1205	155585	keystroke_i	i	n/a
77.8975	0.0605	155795	keystroke_t	t	n/a
78.003	0.105	156006	keystroke_l	l	n/a
78.093	0.09	156186	keystroke_e	e	n/a
78.243	0.12	156486	keystroke_s	s	n/a
78.933	0.075	157866	keystroke_Key.enter	Key.enter	n/a
79.013	6.7165	158026	prompt	n/a	strength play larry storage\n
79.743	0.09	159486	keystroke_s	s	n/a
79.848	0.06	159696	keystroke_t	t	n/a
79.983	0.09	159966	keystroke_r	r	n/a
80.283	0.06	160566	keystroke_e	e	n/a
80.853	0.09	161706	keystroke_n	n	n/a
81.003	0.09	162006	keystroke_g	g	n/a
81.198	0.06	162396	keystroke_t	t	n/a
81.303	0.105	162606	keystroke_h	h	n/a
81.393	0.075	162786	keystroke_Key.space	Key.space	n/a
81.678	0.09	163356	keystroke_p	p	n/a
81.813	0.105	163626	keystroke_l	l	n/a
81.903	0.12	163806	keystroke_a	a	n/a
82.068	0.105	164136	keystroke_y	y	n/a
82.188	0.09	164376	keystroke_Key.space	Key.space	n/a
82.353	0.12	164706	keystroke_l	l	n/a
82.443	0.165	164886	keystroke_a	a	n/a
82.593	0.075	165186	keystroke_r	r	n/a
82.713	0.09	165426	keystroke_r	r	n/a
82.833	0.105	165666	keystroke_y	y	n/a
82.923	0.075	165846	keystroke_Key.space	Key.space	n/a
83.613	0.12	167226	keystroke_s	s	n/a
83.733	0.075	167466	keystroke_t	t	n/a
83.838	0.09	167676	keystroke_o	o	n/a
83.898	0.105	167796	keystroke_r	r	n/a
84.048	0.135	168096	keystroke_a	a	n/a
84.243	0.075	168486	keystroke_g	g	n/a
84.423	0.09	168846	keystroke_e	e	n/a
85.6225	0.105	171245	keystroke_Key.enter	Key.enter	n/a
85.7375	17.557	171475	prompt	n/a	lambda priority maldives rivers\n
86.658	0.075	173316	keystroke_l	l	n/a
86.748	0.135	173496	keystroke_a	a	n/a
86.868	0.09	173736	keystroke_m	m	n/a
87.018	0.09	174036	keystroke_b	b	n/a
87.468	0.09	174936	keystroke_d	d	n/a
87.678	0.135	175356	keystroke_a	a	n/a
87.888	0.075	175776	keystroke_Key.space	Key.space	n/a
88.2325	0.091	176465	keystroke_p	p	n/a
88.3525	0.061	176705	keystroke_r	r	n/a
88.4425	0.105	176885	keystroke_i	i	n/a
88.5325	0.105	177065	keystroke_o	o	n/a
88.6975	0.06	177395	keystroke_r	r	n/a
88.7585	0.089	177517	keystroke_i	i	n/a
88.8625	0.076	177725	keystroke_t	t	n/a
88.9825	0.09	177965	keystroke_y	y	n/a
89.0875	0.06	178175	keystroke_Key.space	Key.space	n/a
89.3725	0.12	178745	keystroke_m	m	n/a
89.4775	0.12	178955	keystroke_a	a	n/a
89.6275	0.105	179255	keystroke_l	l	n/a
90.0025	0.09	180005	keystroke_d	d	n/a
90.1825	0.105	180365	keystroke_v	v	n/a
90.2575	0.09	180515	keystroke_i	i	n/a
90.4525	0.075	180905	keystroke_e	e	n/a
90.5425	0.165	181085	keystroke_s	s	n/a
90.6475	0.09	181295	keystroke_Key.space	Key.space	n/a
90.9325	0.06	181865	keystroke_r	r	n/a
91.0375	0.09	182075	keystroke_i	i	n/a
91.1125	0.075	182225	keystroke_v	v	n/a
91.2775	0.12	182555	keystroke_e	e	n/a
91.3375	0.135	182675	keystroke_r	r	n/a
91.4125	0.15	182825	keystroke_s	s	n/a
94.13	0.013	188260	keystroke_Key.backspace	Key.backspace	n/a
94.3225	0.0605	188645	keystroke_Key.backspace	Key.backspace	n/a
94.5175	0.0605	189035	keystroke_Key.backspace	Key.backspace	n/a
94.743	0.075	189486	keystroke_Key.backspace	Key.backspace	n/a
94.953	0.075	189906	keystroke_Key.backspace	Key.backspace	n/a
95.178	0.075	190356	keystroke_Key.backspace	Key.backspace	n/a
95.388	0.075	190776	keystroke_Key.backspace	Key.backspace	n/a
95.598	0.09	191196	keystroke_Key.backspace	Key.backspace	n/a
95.868	0.0745	191736	keystroke_Key.backspace	Key.backspace	n/a
96.0925	0.06	192185	keystroke_Key.backspace	Key.backspace	n/a
96.543	0.075	193086	keystroke_Key.backspace	Key.backspace	n/a
97.2935	0.059	194587	keystroke_i	i	n/a
97.3675	0.016	194735	keystroke_v	v	n/a
97.5475	0.016	195095	keystroke_e	e	n/a
97.5785	0.149	195157	keystroke_s	s	n/a
97.6975	0.075	195395	keystroke_Key.space	Key.space	n/a
97.8625	0.06	195725	keystroke_r	r	n/a
97.9385	0.105	195877	keystroke_i	i	n/a
98.0435	0.09	196087	keystroke_v	v	n/a
99.1375	0.121	198275	keystroke_e	e	n/a
99.2275	0.09	198455	keystroke_r	r	n/a
99.4225	0.15	198845	keystroke_s	s	n/a
103.2505	0.043	206501	keystroke_Key.enter	Key.enter	n/a
103.2985	4.331	206597	prompt	n/a	partners curious valid word\n
104.2235	0.105	208447	keystroke_p	p	n/a
104.3135	0.15	208627	keystroke_a	a	n/a
104.4185	0.075	208837	keystroke_r	r	n/a
104.5685	0.09	209137	keystroke_t	t	n/a
104.6735	0.12	209347	keystroke_n	n	n/a
104.7785	0.075	209557	keystroke_e	e	n/a
104.8235	0.105	209647	keystroke_r	r	n/a
104.9585	0.12	209917	keystroke_s	s	n/a
105.0335	0.075	210067	keystroke_Key.space	Key.space	n/a
105.2135	0.075	210427	keystroke_c	c	n/a
105.3035	0.075	210607	keystroke_u	u	n/a
105.3935	0.075	210787	keystroke_r	r	n/a
105.4985	0.165	210997	keystroke_i	i	n/a
105.5735	0.09	211147	keystroke_o	o	n/a
105.6335	0.12	211267	keystroke_u	u	n/a
105.6785	0.105	211357	keystroke_s	s	n/a
105.7985	0.075	211597	keystroke_Key.space	Key.space	n/a
105.9485	0.045	211897	keystroke_w	w	n/a
106.2335	0.075	212467	keystroke_Key.backspace	Key.backspace	n/a
106.3535	0.12	212707	keystroke_v	v	n/a
106.4585	0.12	212917	keystroke_a	a	n/a
106.5335	0.135	213067	keystroke_l	l	n/a
106.6235	0.12	213247	keystroke_i	i	n/a
106.7585	0.105	213517	keystroke_d	d	n/a
106.8485	0.075	213697	keystroke_Key.space	Key.space	n/a
106.9975	0.091	213995	keystroke_w	w	n/a
107.0735	0.06	214147	keystroke_o	o	n/a
107.1485	0.06	214297	keystroke_r	r	n/a
107.2385	0.119	214477	keystroke_l	l	n/a
107.3125	0.105	214625	keystroke_d	d	n/a
107.5525	0.075	215105	keystroke_Key.enter	Key.enter	n/a
107.6325	4.137	215265	prompt	n/a	trees interact running silk\n
108.1975	0.045	216395	keystroke_t	t	n/a
108.3325	0.09	216665	keystroke_r	r	n/a
108.4375	0.0755	216875	keystroke_e	e	n/a
108.574	0.044	217148	keystroke_e	e	n/a
108.843	0.105	217686	keystroke_s	s	n/a
108.933	0.075	217866	keystroke_Key.space	Key.space	n/a
109.083	0.09	218166	keystroke_i	i	n/a
109.188	0.105	218376	keystroke_n	n	n/a
109.308	0.075	218616	keystroke_t	t	n/a
109.458	0.075	218916	keystroke_e	e	n/a
109.518	0.105	219036	keystroke_r	r	n/a
109.698	0.165	219396	keystroke_a	a	n/a
109.833	0.1205	219666	keystroke_c	c	n/a
110.0285	0.09	220057	keystroke_t	t	n/a
110.1035	0.09	220207	keystroke_Key.space	Key.space	n/a
110.2385	0.075	220477	keystroke_r	r	n/a
110.3435	0.06	220687	keystroke_u	u	n/a
110.4935	0.06	220987	keystroke_n	n	n/a
110.6135	0.075	221227	keystroke_n	n	n/a
110.7185	0.105	221437	keystroke_i	i	n/a
110.8085	0.12	221617	keystroke_n	n	n/a
110.8685	0.12	221737	keystroke_g	g	n/a
110.9735	0.045	221947	keystroke_Key.space	Key.space	n/a
111.1085	0.045	222217	keystroke_s	s	n/a
111.1385	0.06	222277	keystroke_i	i	n/a
111.2435	0.1195	222487	keystroke_l	l	n/a
111.3485	0.1045	222697	keystroke_k	k	n/a
111.693	0.0745	223386	keystroke_Key.enter	Key.enter	n/a
111.7725	6.057	223545	prompt	n/a	vertical where're established he've\n
112.548	0.075	225096	keystroke_v	v	n/a
112.698	0.12	225396	keystroke_e	e	n/a
112.773	0.0605	225546	keystroke_r	r	n/a
112.908	0.075	225816	keystroke_t	t	n/a
113.013	0.105	226026	keystroke_i	i	n/a
113.119	0.089	226238	keystroke_c	c	n/a
113.178	0.12	226356	keystroke_a	a	n/a
113.283	0.12	226566	keystroke_l	l	n/a
113.388	0.06	226776	keystroke_Key.space	Key.space	n/a
113.523	0.075	227046	keystroke_w	w	n/a
113.643	0.06	227286	keystroke_h	h	n/a
113.688	0.09	227376	keystroke_e	e	n/a
113.763	0.1195	227526	keystroke_r	r	n/a
113.8525	0.0905	227705	keystroke_e	e	n/a
114.063	0.105	228126	keystroke_'	'	n/a
114.303	0.09	228606	keystroke_r	r	n/a
114.438	0.09	228876	keystroke_e	e	n/a
114.513	0.09	229026	keystroke_Key.space	Key.space	n/a
114.753	0.075	229506	keystroke_w	w	n/a
115.053	0.075	230106	keystroke_Key.backspace	Key.backspace	n/a
115.293	0.09	230586	keystroke_e	e	n/a
115.443	0.1195	230886	keystroke_s	s	n/a
115.5925	0.105	231185	keystroke_t	t	n/a
115.8175	0.1505	231635	keystroke_a	a	n/a
115.983	0.105	231966	keystroke_b	b	n/a
116.148	0.105	232296	keystroke_l	l	n/a
116.208	0.105	232416	keystroke_i	i	n/a
116.328	0.075	232656	keystroke_s	s	n/a
116.404	0.104	232808	keystroke_h	h	n/a
116.509	0.059	233018	keystroke_e	e	n/a
116.643	0.135	233286	keystroke_d	d	n/a
116.763	0.06	233526	keystroke_Key.space	Key.space	n/a
116.943	0.105	233886	keystroke_h	h	n/a
117.033	0.075	234066	keystroke_e	e	n/a
117.138	0.12	234276	keystroke_'	'	n/a
117.243	0.105	234486	keystroke_v	v	n/a
117.393	0.105	234786	keystroke_e	e	n/a
117.738	0.09	235476	keystroke_Key.enter	Key.enter	n/a
117.8375	7.207	235675	prompt	n/a	myth below significant explanation\n
118.5175	0.0455	237035	keystroke_m	m	n/a
118.713	0.09	237426	keystroke_y	y	n/a
119.043	0.06	238086	keystroke_t	t	n/a
119.133	0.09	238266	keystroke_h	h	n/a
120.618	0.09	241236	keystroke_Key.space	Key.space	n/a
120.798	0.09	241596	keystroke_b	b	n/a
120.963	0.075	241926	keystroke_e	e	n/a
121.053	0.06	242106	keystroke_l	l	n/a
121.158	0.105	242316	keystroke_o	o	n/a
121.248	0.075	242496	keystroke_w	w	n/a
121.338	0.075	242676	keystroke_Key.space	Key.space	n/a
121.488	0.06	242976	keystroke_s	s	n/a
121.578	0.09	243156	keystroke_i	i	n/a
121.683	0.09	243366	keystroke_g	g	n/a
121.788	0.09	243576	keystroke_n	n	n/a
121.908	0.075	243816	keystroke_i	i	n/a
122.568	0.09	245136	keystroke_f	f	n/a
122.688	0.09	245376	keystroke_i	i	n/a
122.808	0.1195	245616	keystroke_c	c	n/a
122.9135	0.134	245827	keystroke_a	a	n/a
123.0035	0.119	246007	keystroke_n	n	n/a
123.1375	0.105	246275	keystroke_t	t	n/a
123.2275	0.075	246455	keystroke_Key.space	Key.space	n/a
123.4675	0.06	246935	keystroke_e	e	n/a
123.648	0.0895	247296	keystroke_x	x	n/a
123.723	0.0745	247446	keystroke_p	p	n/a
123.8725	0.0905	247745	keystroke_l	l	n/a
124.008	0.105	248016	keystroke_a	a	n/a
124.098	0.105	248196	keystroke_n	n	n/a
124.233	0.165	248466	keystroke_a	a	n/a
124.353	0.105	248706	keystroke_t	t	n/a
124.473	0.135	248946	keystroke_i	i	n/a
124.548	0.105	249096	keystroke_o	o	n/a
124.623	0.105	249246	keystroke_n	n	n/a
124.9525	0.091	249905	keystroke_Key.enter	Key.enter	n/a
125.049	4.616	250098	prompt	n/a	pill cork clara programming\n
125.6735	0.105	251347	keystroke_p	p	n/a
125.7935	0.105	251587	keystroke_i	i	n/a
126.018	0.045	252036	keystroke_l	l	n/a
126.108	0.12	252216	keystroke_l	l	n/a
126.213	0.105	252426	keystroke_Key.space	Key.space	n/a
126.3475	0.1205	252695	keystroke_c	c	n/a
126.423	0.09	252846	keystroke_o	o	n/a
126.573	0.09	253146	keystroke_r	r	n/a
126.678	0.12	253356	keystroke_k	k	n/a
126.813	0.06	253626	keystroke_Key.space	Key.space	n/a
127.023	0.105	254046	keystroke_c	c	n/a
127.098	0.12	254196	keystroke_l	l	n/a
127.188	0.135	254376	keystroke_a	a	n/a
127.293	0.12	254586	keystroke_r	r	n/a
127.428	0.15	254856	keystroke_a	a	n/a
127.563	0.075	255126	keystroke_Key.space	Key.space	n/a
127.788	0.09	255576	keystroke_p	p	n/a
127.893	0.0595	255786	keystroke_r	r	n/a
127.9825	0.12	255965	keystroke_o	o	n/a
128.0875	0.045	256175	keystroke_g	g	n/a
128.2075	0.105	256415	keystroke_r	r	n/a
128.2825	0.135	256565	keystroke_a	a	n/a
128.3875	0.09	256775	keystroke_m	m	n/a
128.6425	0.015	257285	keystroke_m	m	n/a
128.6875	0.12	257375	keystroke_i	i	n/a
128.7625	0.12	257525	keystroke_n	n	n/a
128.8525	0.105	257705	keystroke_g	g	n/a
129.573	0.09	259146	keystroke_Key.enter	Key.enter	n/a
129.6675	4.2425	259335	prompt	n/a	bias flesh highways correct\n
130.278	0.105	260556	keystroke_b	b	n/a
130.384	0.089	260768	keystroke_i	i	n/a
130.458	0.15	260916	keystroke_a	a	n/a
130.548	0.165	261096	keystroke_s	s	n/a
130.668	0.105	261336	keystroke_Key.space	Key.space	n/a
130.818	0.09	261636	keystroke_f	f	n/a
130.909	0.119	261818	keystroke_l	l	n/a
131.118	0.075	262236	keystroke_e	e	n/a
131.268	0.105	262536	keystroke_s	s	n/a
131.388	0.12	262776	keystroke_h	h	n/a
131.478	0.075	262956	keystroke_Key.space	Key.space	n/a
131.718	0.105	263436	keystroke_h	h	n/a
131.808	0.075	263616	keystroke_i	i	n/a
131.898	0.09	263796	keystroke_g	g	n/a
131.973	0.105	263946	keystroke_h	h	n/a
132.123	0.12	264246	keystroke_w	w	n/a
132.183	0.135	264366	keystroke_a	a	n/a
132.288	0.105	264576	keystroke_y	y	n/a
132.408	0.12	264816	keystroke_s	s	n/a
132.498	0.09	264996	keystroke_Key.space	Key.space	n/a
132.753	0.12	265506	keystroke_c	c	n/a
132.858	0.09	265716	keystroke_o	o	n/a
132.949	0.059	265898	keystroke_r	r	n/a
133.053	0.135	266106	keystroke_r	r	n/a
133.173	0.09	266346	keystroke_e	e	n/a
133.3085	0.0745	266617	keystroke_c	c	n/a
133.458	0.105	266916	keystroke_t	t	n/a
133.8185	0.09	267637	keystroke_Key.enter	Key.enter	n/a
133.914	4.9455	267828	prompt	n/a	maui rewards ease brooklyn\n
134.508	0.12	269016	keystroke_m	m	n/a
134.613	0.12	269226	keystroke_a	a	n/a
134.868	0.0745	269736	keystroke_u	u	n/a
135.0035	0.119	270007	keystroke_i	i	n/a
135.2125	0.09	270425	keystroke_Key.space	Key.space	n/a
135.4375	0.09	270875	keystroke_r	r	n/a
135.5425	0.06	271085	keystroke_e	e	n/a
135.7975	0.1355	271595	keystroke_w	w	n/a
135.8725	0.1505	271745	keystroke_a	a	n/a
135.978	0.12	271956	keystroke_r	r	n/a
136.158	0.165	272316	keystroke_d	d	n/a
136.263	0.165	272526	keystroke_s	s	n/a
136.368	0.1195	272736	keystroke_Key.space	Key.space	n/a
136.683	0.105	273366	keystroke_e	e	n/a
136.773	0.18	273546	keystroke_a	a	n/a
136.878	0.195	273756	keystroke_s	s	n/a
137.013	0.165	274026	keystroke_e	e	n/a
137.118	0.12	274236	keystroke_Key.space	Key.space	n/a
137.4325	0.105	274865	keystroke_b	b	n/a
137.6575	0.06	275315	keystroke_r	r	n/a
137.7635	0.06	275527	keystroke_o	o	n/a
137.8835	0.119	275767	keystroke_o	o	n/a
138.0325	0.12	276065	keystroke_k	k	n/a
138.1825	0.105	276365	keystroke_l	l	n/a
138.3325	0.045	276665	keystroke_y	y	n/a
138.4825	0.1205	276965	keystroke_n	n	n/a
138.7675	0.09	277535	keystroke_Key.enter	Key.enter	n/a
138.8625	5.937	277725	prompt	n/a	mixed secretariat booth perfume\n
139.4125	0.105	278825	keystroke_m	m	n/a
139.5325	0.06	279065	keystroke_i	i	n/a
139.6225	0.105	279245	keystroke_x	x	n/a
139.8475	0.06	279695	keystroke_e	e	n/a
139.9675	0.105	279935	keystroke_d	d	n/a
140.0425	0.09	280085	keystroke_Key.space	Key.space	n/a
140.2075	0.09	280415	keystroke_s	s	n/a
140.5525	0.09	281105	keystroke_e	e	n/a
140.7475	0.09	281495	keystroke_c	c	n/a
140.9575	0.09	281915	keystroke_r	r	n/a
141.0625	0.075	282125	keystroke_e	e	n/a
141.273	0.0595	282546	keystroke_t	t	n/a
141.4675	0.15	282935	keystroke_a	a	n/a
141.6625	0.09	283325	keystroke_r	r	n/a
141.7825	0.12	283565	keystroke_i	i	n/a
141.9175	0.1505	283835	keystroke_a	a	n/a
142.038	0.12	284076	keystroke_t	t	n/a
142.143	0.075	284286	keystroke_Key.space	Key.space	n/a
142.323	0.09	284646	keystroke_b	b	n/a
142.428	0.06	284856	keystroke_o	o	n/a
142.533	0.075	285066	keystroke_o	o	n/a
142.593	0.06	285186	keystroke_t	t	n/a
142.743	0.09	285486	keystroke_h	h	n/a
142.893	0.075	285786	keystroke_Key.space	Key.space	n/a
143.433	0.135	286866	keystroke_p	p	n/a
143.553	0.165	287106	keystroke_e	e	n/a
143.673	0.105	287346	keystroke_r	r	n/a
144.093	0.12	288186	keystroke_f	f	n/a
144.228	0.075	288456	keystroke_u	u	n/a
144.363	0.15	288726	keystroke_m	m	n/a
144.453	0.075	288906	keystroke_e	e	n/a
144.693	0.105	289386	keystroke_Key.enter	Key.enter	n/a
144.8025	20.038	289605	prompt	n/a	instructional councils counts jessica\n
145.173	0.03	290346	keystroke_f	f	n/a
145.2925	0.225	290585	keystroke_f	f	n/a
145.4125	0.06	290825	keystroke_i	i	n/a
145.5325	0.09	291065	keystroke_n	n	n/a
145.6675	0.09	291335	keystroke_s	s	n/a
145.7725	0.045	291545	keystroke_t	t	n/a
145.8775	0.09	291755	keystroke_r	r	n/a
145.9825	0.075	291965	keystroke_u	u	n/a
146.0725	0.075	292145	keystroke_c	c	n/a
146.2225	0.075	292445	keystroke_t	t	n/a
146.2825	0.15	292565	keystroke_i	i	n/a
146.3575	0.09	292715	keystroke_o	o	n/a
146.4025	0.12	292805	keystroke_n	n	n/a
146.5375	0.1205	293075	keystroke_a	a	n/a
146.6125	0.1205	293225	keystroke_l	l	n/a
146.763	0.0745	293526	keystroke_Key.space	Key.space	n/a
147.0635	0.134	294127	keystroke_c	c	n/a
147.1375	0.075	294275	keystroke_o	o	n/a
147.1985	0.059	294397	keystroke_u	u	n/a
147.3475	0.12	294695	keystroke_n	n	n/a
148.458	0.06	296916	keystroke_Key.backspace	Key.backspace	n/a
148.6525	0.03	297305	keystroke_Key.backspace	Key.backspace	n/a
148.8175	0.03	297635	keystroke_Key.backspace	Key.backspace	n/a
148.9825	0.031	297965	keystroke_Key.backspace	Key.backspace	n/a
149.1475	0.061	298295	keystroke_Key.backspace	Key.backspace	n/a
149.3285	0.059	298657	keystroke_Key.backspace	Key.backspace	n/a
149.5075	0.06	299015	keystroke_Key.backspace	Key.backspace	n/a
149.6725	0.046	299345	keystroke_Key.backspace	Key.backspace	n/a
149.8375	0.03	299675	keystroke_Key.backspace	Key.backspace	n/a
149.9875	0.045	299975	keystroke_Key.backspace	Key.backspace	n/a
150.1675	0.03	300335	keystroke_Key.backspace	Key.backspace	n/a
150.3325	0.045	300665	keystroke_Key.backspace	Key.backspace	n/a
150.5125	0.045	301025	keystroke_Key.backspace	Key.backspace	n/a
150.6925	0.03	301385	keystroke_Key.backspace	Key.backspace	n/a
150.8575	0.045	301715	keystroke_Key.backspace	Key.backspace	n/a
151.008	0.045	302016	keystroke_Key.backspace	Key.backspace	n/a
151.158	0.06	302316	keystroke_Key.backspace	Key.backspace	n/a
151.323	0.03	302646	keystroke_Key.backspace	Key.backspace	n/a
151.458	0.045	302916	keystroke_Key.backspace	Key.backspace	n/a
151.593	0.06	303186	keystroke_Key.backspace	Key.backspace	n/a
152.673	0.06	305346	keystroke_i	i	n/a
152.8085	0.105	305617	keystroke_n	n	n/a
153.063	0.09	306126	keystroke_s	s	n/a
153.423	0.045	306846	keystroke_t	t	n/a
153.573	0.06	307146	keystroke_u	u	n/a
153.708	0.105	307416	keystroke_r	r	n/a
154.053	0.12	308106	keystroke_c	c	n/a
154.278	0.06	308556	keystroke_t	t	n/a
154.383	0.105	308766	keystroke_i	i	n/a
154.473	0.075	308946	keystroke_o	o	n/a
154.518	0.12	309036	keystroke_n	n	n/a
154.639	0.134	309278	keystroke_a	a	n/a
154.743	0.12	309486	keystroke_l	l	n/a
154.878	0.075	309756	keystroke_Key.space	Key.space	n/a
155.133	0.15	310266	keystroke_c	c	n/a
155.223	0.12	310446	keystroke_o	o	n/a
155.748	0.135	311496	keystroke_Key.backspace	Key.backspace	n/a
156.033	0.075	312066	keystroke_Key.backspace	Key.backspace	n/a
156.243	0.045	312486	keystroke_Key.backspace	Key.backspace	n/a
156.438	0.06	312876	keystroke_Key.backspace	Key.backspace	n/a
156.633	0.075	313266	keystroke_Key.backspace	Key.backspace	n/a
156.903	0.06	313806	keystroke_Key.backspace	Key.backspace	n/a
157.128	0.075	314256	keystroke_Key.backspace	Key.backspace	n/a
157.3825	0.075	314765	keystroke_Key.backspace	Key.backspace	n/a
157.6375	0.075	315275	keystroke_Key.backspace	Key.backspace	n/a
157.8925	0.0755	315785	keystroke_Key.backspace	Key.backspace	n/a
158.148	0.06	316296	keystroke_Key.backspace	Key.backspace	n/a
158.388	0.06	316776	keystroke_Key.backspace	Key.backspace	n/a
159.213	0.135	318426	keystroke_r	r	n/a
159.5125	0.075	319025	keystroke_u	u	n/a
159.7225	0.15	319445	keystroke_c	c	n/a
160.053	0.075	320106	keystroke_t	t	n/a
160.173	0.1195	320346	keystroke_i	i	n/a
160.248	0.105	320496	keystroke_o	o	n/a
160.3075	0.1205	320615	keystroke_n	n	n/a
160.398	0.12	320796	keystroke_a	a	n/a
160.488	0.105	320976	keystroke_l	l	n/a
160.608	0.075	321216	keystroke_Key.space	Key.space	n/a
161.268	0.135	322536	keystroke_c	c	n/a
161.358	0.075	322716	keystroke_o	o	n/a
161.418	0.045	322836	keystroke_u	u	n/a
161.538	0.105	323076	keystroke_n	n	n/a
161.613	0.105	323226	keystroke_c	c	n/a
161.733	0.0745	323466	keystroke_i	i	n/a
161.778	0.1195	323556	keystroke_l	l	n/a
161.8835	0.119	323767	keystroke_s	s	n/a
161.9875	0.075	323975	keystroke_Key.space	Key.space	n/a
162.1975	0.135	324395	keystroke_c	c	n/a
162.2875	0.075	324575	keystroke_o	o	n/a
162.3475	0.06	324695	keystroke_u	u	n/a
162.4825	0.12	324965	keystroke_n	n	n/a
162.5125	0.105	325025	keystroke_t	t	n/a
162.6475	0.135	325295	keystroke_s	s	n/a
162.7075	0.105	325415	keystroke_Key.space	Key.space	n/a
162.8425	0.105	325685	keystroke_j	j	n/a
162.9925	0.06	325985	keystroke_e	e	n/a
163.1275	0.195	326255	keystroke_s	s	n/a
163.3675	0.016	326735	keystroke_i	i	n/a
163.6975	0.075	327395	keystroke_Key.backspace	Key.backspace	n/a
163.7875	0.09	327575	keystroke_s	s	n/a
163.9075	0.106	327815	keystroke_i	i	n/a
164.0285	0.12	328057	keystroke_c	c	n/a
164.1335	0.15	328267	keystroke_a	a	n/a
164.7485	0.09	329497	keystroke_Key.enter	Key.enter	n/a
164.8515	7.218	329703	prompt	n/a	sheets forestry timing columns\n
165.5575	0.075	331115	keystroke_s	s	n/a
165.6475	0.09	331295	keystroke_h	h	n/a
165.7675	0.045	331535	keystroke_e	e	n/a
165.8725	0.091	331745	keystroke_e	e	n/a
166.0085	0.075	332017	keystroke_t	t	n/a
166.1435	0.09	332287	keystroke_s	s	n/a
166.2485	0.075	332497	keystroke_Key.space	Key.space	n/a
166.4135	0.09	332827	keystroke_f	f	n/a
166.4735	0.105	332947	keystroke_o	o	n/a
166.6235	0.075	333247	keystroke_r	r	n/a
166.7285	0.06	333457	keystroke_e	e	n/a
166.8485	0.105	333697	keystroke_s	s	n/a
166.9535	0.06	333907	keystroke_t	t	n/a
167.1185	0.075	334237	keystroke_r	r	n/a
167.508	0.075	335016	keystroke_Key.backspace	Key.backspace	n/a
168.513	0.075	337026	keystroke_r	r	n/a
168.618	0.075	337236	keystroke_y	y	n/a
168.753	0.06	337506	keystroke_Key.space	Key.space	n/a
169.263	0.06	338526	keystroke_t	t	n/a
169.368	0.075	338736	keystroke_i	i	n/a
169.458	0.105	338916	keystroke_m	m	n/a
169.593	0.12	339186	keystroke_i	i	n/a
169.698	0.105	339396	keystroke_n	n	n/a
169.804	0.119	339608	keystroke_g	g	n/a
169.908	0.075	339816	keystroke_Key.space	Key.space	n/a
170.4335	0.165	340867	keystroke_c	c	n/a
170.5835	0.105	341167	keystroke_o	o	n/a
170.7935	0.12	341587	keystroke_l	l	n/a
170.9435	0.075	341887	keystroke_u	u	n/a
171.1085	0.09	342217	keystroke_m	m	n/a
171.2585	0.1045	342517	keystroke_n	n	n/a
171.378	0.12	342756	keystroke_s	s	n/a
171.963	0.105	343926	keystroke_Key.enter	Key.enter	n/a
172.074	5.2455	344148	prompt	n/a	emerald he've complement ment\n
172.7875	0.06	345575	keystroke_e	e	n/a
172.8925	0.135	345785	keystroke_m	m	n/a
173.0135	0.105	346027	keystroke_e	e	n/a
173.0875	0.136	346175	keystroke_r	r	n/a
173.2245	0.119	346449	keystroke_a	a	n/a
173.3285	0.15	346657	keystroke_l	l	n/a
173.4635	0.105	346927	keystroke_d	d	n/a
173.5235	0.105	347047	keystroke_Key.space	Key.space	n/a
173.7035	0.105	347407	keystroke_h	h	n/a
173.7785	0.075	347557	keystroke_e	e	n/a
173.9435	0.1195	347887	keystroke_'	'	n/a
174.0785	0.12	348157	keystroke_v	v	n/a
174.3185	0.12	348637	keystroke_e	e	n/a
174.4085	0.09	348817	keystroke_Key.space	Key.space	n/a
174.6185	0.105	349237	keystroke_c	c	n/a
174.7685	0.09	349537	keystroke_o	o	n/a
174.9035	0.09	349807	keystroke_m	m	n/a
175.0235	0.105	350047	keystroke_p	p	n/a
175.1885	0.165	350377	keystroke_l	l	n/a
175.3385	0.06	350677	keystroke_e	e	n/a
175.458	0.09	350916	keystroke_m	m	n/a
175.563	0.075	351126	keystroke_e	e	n/a
175.653	0.12	351306	keystroke_n	n	n/a
175.758	0.075	351516	keystroke_t	t	n/a
176.448	0.075	352896	keystroke_Key.space	Key.space	n/a
176.643	0.105	353286	keystroke_m	m	n/a
176.763	0.06	353526	keystroke_e	e	n/a
176.838	0.12	353676	keystroke_n	n	n/a
176.943	0.105	353886	keystroke_t	t	n/a
177.228	0.09	354456	keystroke_Key.enter	Key.enter	n/a
177.3225	6.4025	354645	prompt	n/a	strikes rarely hampshire tamil\n
177.993	0.09	355986	keystroke_s	s	n/a
178.1435	0.0595	356287	keystroke_t	t	n/a
178.293	0.09	356586	keystroke_r	r	n/a
178.398	0.06	356796	keystroke_i	i	n/a
178.518	0.12	357036	keystroke_k	k	n/a
178.623	0.105	357246	keystroke_e	e	n/a
178.743	0.135	357486	keystroke_s	s	n/a
178.863	0.09	357726	keystroke_Key.space	Key.space	n/a
178.983	0.135	357966	keystroke_r	r	n/a
179.103	0.12	358206	keystroke_a	a	n/a
179.418	0.12	358836	keystroke_r	r	n/a
179.553	0.09	359106	keystroke_e	e	n/a
179.688	0.135	359376	keystroke_l	l	n/a
179.793	0.105	359586	keystroke_y	y	n/a
180.153	0.105	360306	keystroke_Key.space	Key.space	n/a
180.453	0.0905	360906	keystroke_h	h	n/a
180.5435	0.0895	361087	keystroke_a	a	n/a
180.6785	0.075	361357	keystroke_m	m	n/a
180.7835	0.1195	361567	keystroke_p	p	n/a
180.978	0.12	361956	keystroke_s	s	n/a
181.128	0.075	362256	keystroke_h	h	n/a
181.308	0.09	362616	keystroke_i	i	n/a
181.413	0.105	362826	keystroke_r	r	n/a
181.533	0.1495	363066	keystroke_e	e	n/a
181.668	0.0895	363336	keystroke_Key.space	Key.space	n/a
181.9075	0.1055	363815	keystroke_t	t	n/a
181.998	0.1345	363996	keystroke_a	a	n/a
182.088	0.105	364176	keystroke_m	m	n/a
182.208	0.105	364416	keystroke_i	i	n/a
182.314	0.164	364628	keystroke_l	l	n/a
183.6335	0.09	367267	keystroke_Key.enter	Key.enter	n/a
183.7275	5.8925	367455	prompt	n/a	ready schema mostly approximately\n
184.4735	0.105	368947	keystroke_r	r	n/a
184.5935	0.12	369187	keystroke_e	e	n/a
184.6835	0.135	369367	keystroke_a	a	n/a
184.8485	0.105	369697	keystroke_d	d	n/a
184.9985	0.104	369997	keystroke_y	y	n/a
185.0585	0.075	370117	keystroke_Key.space	Key.space	n/a
185.2085	0.045	370417	keystroke_s	s	n/a
185.6735	0.12	371347	keystroke_c	c	n/a
185.7635	0.089	371527	keystroke_h	h	n/a
185.9275	0.031	371855	keystroke_e	e	n/a
186.0325	0.12	372065	keystroke_m	m	n/a
186.3935	0.149	372787	keystroke_a	a	n/a
186.738	0.075	373476	keystroke_Key.space	Key.space	n/a
186.948	0.1205	373896	keystroke_m	m	n/a
187.0385	0.1195	374077	keystroke_o	o	n/a
187.128	0.135	374256	keystroke_s	s	n/a
187.218	0.09	374436	keystroke_t	t	n/a
187.323	0.12	374646	keystroke_l	l	n/a
187.413	0.105	374826	keystroke_y	y	n/a
187.533	0.09	375066	keystroke_Key.space	Key.space	n/a
187.7285	0.12	375457	keystroke_a	a	n/a
187.8335	0.06	375667	keystroke_p	p	n/a
187.938	0.0905	375876	keystroke_p	p	n/a
188.0435	0.075	376087	keystroke_r	r	n/a
188.1335	0.09	376267	keystroke_o	o	n/a
188.2985	0.09	376597	keystroke_x	x	n/a
188.3895	0.074	376779	keystroke_i	i	n/a
188.5085	0.135	377017	keystroke_m	m	n/a
188.5985	0.12	377197	keystroke_a	a	n/a
188.7035	0.1195	377407	keystroke_t	t	n/a
188.793	0.135	377586	keystroke_e	e	n/a
188.913	0.105	377826	keystroke_l	l	n/a
189.003	0.075	378006	keystroke_y	y	n/a
189.513	0.105	379026	keystroke_Key.enter	Key.enter	n/a
189.6225	5.3225	379245	prompt	n/a	meters targeted romance leaves\n
190.218	0.135	380436	keystroke_m	m	n/a
190.338	0.075	380676	keystroke_e	e	n/a
190.473	0.075	380946	keystroke_t	t	n/a
190.593	0.105	381186	keystroke_e	e	n/a
190.653	0.105	381306	keystroke_r	r	n/a
190.938	0.03	381876	keystroke_s	s	n/a
190.953	0.06	381906	keystroke_Key.space	Key.space	n/a
191.088	0.06	382176	keystroke_t	t	n/a
191.178	0.15	382356	keystroke_a	a	n/a
191.253	0.076	382506	keystroke_r	r	n/a
191.418	0.06	382836	keystroke_g	g	n/a
191.553	0.105	383106	keystroke_e	e	n/a
191.628	0.06	383256	keystroke_t	t	n/a
192.033	0.015	384066	keystroke_e	e	n/a
192.123	0.135	384246	keystroke_d	d	n/a
192.228	0.12	384456	keystroke_Key.space	Key.space	n/a
193.023	0.045	386046	keystroke_r	r	n/a
193.069	0.104	386138	keystroke_o	o	n/a
193.1435	0.1045	386287	keystroke_m	m	n/a
193.233	0.105	386466	keystroke_a	a	n/a
193.353	0.09	386706	keystroke_n	n	n/a
193.533	0.165	387066	keystroke_c	c	n/a
193.668	0.15	387336	keystroke_e	e	n/a
193.788	0.09	387576	keystroke_Key.space	Key.space	n/a
193.893	0.105	387786	keystroke_l	l	n/a
193.968	0.105	387936	keystroke_e	e	n/a
194.043	0.135	388086	keystroke_a	a	n/a
194.148	0.075	388296	keystroke_v	v	n/a
194.283	0.15	388566	keystroke_e	e	n/a
194.373	0.15	388746	keystroke_s	s	n/a
194.838	0.105	389676	keystroke_Key.enter	Key.enter	n/a
194.949	5.321	389898	prompt	n/a	objectives harbor modules failed\n
195.558	0.075	391116	keystroke_o	o	n/a
195.663	0.09	391326	keystroke_b	b	n/a
195.738	0.105	391476	keystroke_j	j	n/a
195.858	0.105	391716	keystroke_e	e	n/a
195.948	0.105	391896	keystroke_c	c	n/a
196.128	0.09	392256	keystroke_t	t	n/a
196.233	0.09	392466	keystroke_i	i	n/a
196.338	0.075	392676	keystroke_v	v	n/a
196.458	0.15	392916	keystroke_e	e	n/a
196.578	0.105	393156	keystroke_s	s	n/a
196.638	0.075	393276	keystroke_Key.space	Key.space	n/a
196.743	0.1055	393486	keystroke_h	h	n/a
196.7885	0.12	393577	keystroke_a	a	n/a
196.8635	0.105	393727	keystroke_r	r	n/a
197.0735	0.105	394147	keystroke_b	b	n/a
197.1635	0.12	394327	keystroke_o	o	n/a
197.2985	0.105	394597	keystroke_r	r	n/a
197.4185	0.09	394837	keystroke_Key.space	Key.space	n/a
197.7485	0.105	395497	keystroke_m	m	n/a
198.1235	0.105	396247	keystroke_o	o	n/a
198.258	0.0905	396516	keystroke_d	d	n/a
198.3935	0.09	396787	keystroke_u	u	n/a
198.5885	0.105	397177	keystroke_l	l	n/a
198.6785	0.1345	397357	keystroke_e	e	n/a
198.7825	0.1655	397565	keystroke_s	s	n/a
198.903	0.09	397806	keystroke_Key.space	Key.space	n/a
199.1425	0.105	398285	keystroke_f	f	n/a
199.2325	0.135	398465	keystroke_a	a	n/a
199.3075	0.105	398615	keystroke_i	i	n/a
199.3825	0.135	398765	keystroke_l	l	n/a
199.4725	0.06	398945	keystroke_e	e	n/a
199.5775	0.15	399155	keystroke_d	d	n/a
200.1785	0.09	400357	keystroke_Key.enter	Key.enter	n/a
200.2735	7.0615	400547	prompt	n/a	crucial aviation almost toronto\n
201.7685	0.12	403537	keystroke_c	c	n/a
202.0985	0.089	404197	keystroke_u	u	n/a
202.518	0.075	405036	keystroke_Key.backspace	Key.backspace	n/a
202.698	0.075	405396	keystroke_r	r	n/a
202.818	0.09	405636	keystroke_u	u	n/a
202.998	0.15	405996	keystroke_c	c	n/a
203.163	0.12	406326	keystroke_i	i	n/a
203.268	0.12	406536	keystroke_a	a	n/a
203.403	0.105	406806	keystroke_l	l	n/a
203.493	0.075	406986	keystroke_Key.space	Key.space	n/a
203.628	0.09	407256	keystroke_a	a	n/a
203.793	0.105	407586	keystroke_v	v	n/a
203.913	0.1055	407826	keystroke_i	i	n/a
204.0035	0.1795	408007	keystroke_a	a	n/a
204.138	0.12	408276	keystroke_t	t	n/a
204.243	0.12	408486	keystroke_i	i	n/a
204.318	0.12	408636	keystroke_o	o	n/a
204.423	0.09	408846	keystroke_n	n	n/a
204.483	0.075	408966	keystroke_Key.space	Key.space	n/a
204.603	0.06	409206	keystroke_l	l	n/a
204.678	0.075	409356	keystroke_a	a	n/a
204.888	0.045	409776	keystroke_Key.backspace	Key.backspace	n/a
204.993	0.075	409986	keystroke_Key.backspace	Key.backspace	n/a
205.113	0.135	410226	keystroke_a	a	n/a
205.249	0.119	410498	keystroke_l	l	n/a
205.353	0.15	410706	keystroke_m	m	n/a
205.473	0.135	410946	keystroke_o	o	n/a
205.563	0.15	411126	keystroke_s	s	n/a
205.668	0.165	411336	keystroke_t	t	n/a
205.758	0.09	411516	keystroke_Key.space	Key.space	n/a
206.088	0.06	412176	keystroke_t	t	n/a
206.268	0.075	412536	keystroke_o	o	n/a
206.418	0.12	412836	keystroke_r	r	n/a
206.553	0.09	413106	keystroke_o	o	n/a
206.628	0.105	413256	keystroke_n	n	n/a
206.763	0.06	413526	keystroke_t	t	n/a
206.868	0.09	413736	keystroke_o	o	n/a
207.243	0.09	414486	keystroke_Key.enter	Key.enter	n/a
207.3375	7.557	414675	prompt	n/a	ukraine prescribed knife procedures\n
208.023	0.075	416046	keystroke_u	u	n/a
208.1575	0.12	416315	keystroke_k	k	n/a
208.4135	0.089	416827	keystroke_r	r	n/a
208.518	0.12	417036	keystroke_a	a	n/a
208.608	0.09	417216	keystroke_i	i	n/a
208.668	0.1345	417336	keystroke_n	n	n/a
208.7875	0.091	417575	keystroke_e	e	n/a
208.8485	0.075	417697	keystroke_Key.space	Key.space	n/a
209.0135	0.105	418027	keystroke_p	p	n/a
209.1035	0.09	418207	keystroke_r	r	n/a
209.1785	0.12	418357	keystroke_e	e	n/a
209.2835	0.105	418567	keystroke_s	s	n/a
209.4785	0.075	418957	keystroke_c	c	n/a
209.6285	0.075	419257	keystroke_r	r	n/a
210.0175	0.106	420035	keystroke_i	i	n/a
210.1835	0.075	420367	keystroke_b	b	n/a
210.3335	0.06	420667	keystroke_e	e	n/a
210.4535	0.15	420907	keystroke_d	d	n/a
210.5735	0.075	421147	keystroke_Key.space	Key.space	n/a
210.7685	0.045	421537	keystroke_f	f	n/a
211.0525	0.076	422105	keystroke_Key.backspace	Key.backspace	n/a
211.3085	0.105	422617	keystroke_k	k	n/a
211.4285	0.119	422857	keystroke_n	n	n/a
211.533	0.0905	423066	keystroke_i	i	n/a
211.6835	0.104	423367	keystroke_f	f	n/a
211.8335	0.119	423667	keystroke_e	e	n/a
212.1625	0.06	424325	keystroke_Key.space	Key.space	n/a
212.4035	0.09	424807	keystroke_p	p	n/a
212.5085	0.09	425017	keystroke_r	r	n/a
212.898	0.09	425796	keystroke_o	o	n/a
213.018	0.09	426036	keystroke_c	c	n/a
213.828	0.06	427656	keystroke_e	e	n/a
213.978	0.075	427956	keystroke_d	d	n/a
214.068	0.075	428136	keystroke_u	u	n/a
214.158	0.09	428316	keystroke_r	r	n/a
214.233	0.12	428466	keystroke_e	e	n/a
214.323	0.135	428646	keystroke_s	s	n/a
214.788	0.1055	429576	keystroke_Key.enter	Key.enter	n/a
214.8975	5.5775	429795	prompt	n/a	patrol fossil forge intersection\n
215.598	0.105	431196	keystroke_p	p	n/a
215.688	0.135	431376	keystroke_a	a	n/a
215.808	0.06	431616	keystroke_t	t	n/a
215.9435	0.1195	431887	keystroke_r	r	n/a
216.033	0.075	432066	keystroke_o	o	n/a
216.168	0.12	432336	keystroke_l	l	n/a
216.258	0.075	432516	keystroke_Key.space	Key.space	n/a
216.394	0.074	432788	keystroke_f	f	n/a
216.484	0.089	432968	keystroke_o	o	n/a
216.588	0.061	433176	keystroke_s	s	n/a
216.693	0.105	433386	keystroke_s	s	n/a
216.828	0.09	433656	keystroke_i	i	n/a
216.933	0.12	433866	keystroke_l	l	n/a
217.098	0.075	434196	keystroke_Key.space	Key.space	n/a
217.293	0.105	434586	keystroke_f	f	n/a
217.353	0.12	434706	keystroke_o	o	n/a
217.428	0.075	434856	keystroke_r	r	n/a
217.593	0.075	435186	keystroke_g	g	n/a
217.728	0.12	435456	keystroke_e	e	n/a
217.9535	0.075	435907	keystroke_Key.space	Key.space	n/a
218.1635	0.06	436327	keystroke_i	i	n/a
218.2685	0.12	436537	keystroke_n	n	n/a
218.4035	0.075	436807	keystroke_t	t	n/a
218.5985	0.105	437197	keystroke_e	e	n/a
218.6735	0.105	437347	keystroke_r	r	n/a
219.1385	0.075	438277	keystroke_s	s	n/a
219.2885	0.105	438577	keystroke_e	e	n/a
219.468	0.09	438936	keystroke_c	c	n/a
219.648	0.09	439296	keystroke_t	t	n/a
219.783	0.135	439566	keystroke_i	i	n/a
219.873	0.12	439746	keystroke_o	o	n/a
219.948	0.15	439896	keystroke_n	n	n/a
220.353	0.12	440706	keystroke_Key.enter	Key.enter	n/a
220.4785	9.026	440957	prompt	n/a	deadly convicted monitor experiments\n
221.133	0.045	442266	keystroke_d	d	n/a
221.268	0.075	442536	keystroke_e	e	n/a
221.358	0.135	442716	keystroke_a	a	n/a
221.508	0.105	443016	keystroke_d	d	n/a
221.869	0.104	443738	keystroke_l	l	n/a
222.153	0.09	444306	keystroke_y	y	n/a
222.9175	0.1205	445835	keystroke_Key.space	Key.space	n/a
223.743	0.165	447486	keystroke_c	c	n/a
223.879	0.1045	447758	keystroke_o	o	n/a
224.0135	0.12	448027	keystroke_n	n	n/a
224.1785	0.12	448357	keystroke_v	v	n/a
224.3285	0.105	448657	keystroke_i	i	n/a
224.4485	0.09	448897	keystroke_c	c	n/a
224.658	0.135	449316	keystroke_t	t	n/a
224.778	0.06	449556	keystroke_e	e	n/a
224.913	0.105	449826	keystroke_d	d	n/a
225.003	0.075	450006	keystroke_Key.space	Key.space	n/a
225.123	0.12	450246	keystroke_m	m	n/a
225.288	0.12	450576	keystroke_o	o	n/a
225.4235	0.0895	450847	keystroke_n	n	n/a
225.528	0.135	451056	keystroke_i	i	n/a
225.828	0.015	451656	keystroke_t	t	n/a
225.8585	0.0895	451717	keystroke_o	o	n/a
225.933	0.106	451866	keystroke_r	r	n/a
226.4135	0.104	452827	keystroke_Key.space	Key.space	n/a
226.6075	0.061	453215	keystroke_e	e	n/a
226.773	0.12	453546	keystroke_x	x	n/a
226.878	0.12	453756	keystroke_p	p	n/a
227.4935	0.15	454987	keystroke_e	e	n/a
227.6135	0.105	455227	keystroke_r	r	n/a
227.7335	0.075	455467	keystroke_i	i	n/a
227.8685	0.105	455737	keystroke_m	m	n/a
228.0035	0.075	456007	keystroke_e	e	n/a
228.0635	0.12	456127	keystroke_n	n	n/a
228.1385	0.075	456277	keystroke_t	t	n/a
228.2735	0.12	456547	keystroke_s	s	n/a
229.3835	0.12	458767	keystroke_Key.enter	Key.enter	n/a
229.5095	6.7755	459019	prompt	n/a	linux tragedy rebecca istanbul\n
230.1785	0.12	460357	keystroke_l	l	n/a
230.3135	0.135	460627	keystroke_i	i	n/a
230.4185	0.09	460837	keystroke_n	n	n/a
230.6285	0.075	461257	keystroke_u	u	n/a
230.7785	0.135	461557	keystroke_x	x	n/a
230.8835	0.105	461767	keystroke_Key.space	Key.space	n/a
231.0635	0.045	462127	keystroke_t	t	n/a
231.1835	0.12	462367	keystroke_r	r	n/a
231.2885	0.1195	462577	keystroke_a	a	n/a
232.248	0.075	464496	keystroke_g	g	n/a
232.413	0.06	464826	keystroke_e	e	n/a
232.533	0.1505	465066	keystroke_d	d	n/a
232.669	0.0895	465338	keystroke_y	y	n/a
232.8035	0.09	465607	keystroke_Key.space	Key.space	n/a
233.0285	0.105	466057	keystroke_r	r	n/a
233.1185	0.075	466237	keystroke_e	e	n/a
233.3135	0.075	466627	keystroke_b	b	n/a
233.5085	0.09	467017	keystroke_e	e	n/a
233.7185	0.06	467437	keystroke_c	c	n/a
233.8235	0.1045	467647	keystroke_c	c	n/a
233.9735	0.165	467947	keystroke_a	a	n/a
234.1235	0.09	468247	keystroke_Key.space	Key.space	n/a
234.8285	0.06	469657	keystroke_i	i	n/a
234.9635	0.075	469927	keystroke_s	s	n/a
235.0835	0.09	470167	keystroke_t	t	n/a
235.1885	0.12	470377	keystroke_a	a	n/a
235.2935	0.105	470587	keystroke_n	n	n/a
235.5485	0.09	471097	keystroke_b	b	n/a
235.6085	0.075	471217	keystroke_u	u	n/a
235.6985	0.15	471397	keystroke_l	l	n/a
236.1635	0.1205	472327	keystroke_Key.enter	Key.enter	n/a
236.2875	7.5275	472575	prompt	n/a	valuable cisco hardwood selecting\n
236.7035	0.2545	473407	keystroke_f	f	n/a
237.138	0.045	474276	keystroke_b	b	n/a
237.513	0.075	475026	keystroke_Key.backspace	Key.backspace	n/a
237.948	0.045	475896	keystroke_Key.backspace	Key.backspace	n/a
238.473	0.105	476946	keystroke_v	v	n/a
238.548	0.12	477096	keystroke_a	a	n/a
238.683	0.09	477366	keystroke_l	l	n/a
238.803	0.09	477606	keystroke_u	u	n/a
238.923	0.135	477846	keystroke_a	a	n/a
239.013	0.12	478026	keystroke_b	b	n/a
239.118	0.105	478236	keystroke_l	l	n/a
239.238	0.135	478476	keystroke_e	e	n/a
239.328	0.075	478656	keystroke_Key.space	Key.space	n/a
239.598	0.12	479196	keystroke_c	c	n/a
239.703	0.105	479406	keystroke_i	i	n/a
239.823	0.09	479646	keystroke_s	s	n/a
240.003	0.12	480006	keystroke_c	c	n/a
240.093	0.105	480186	keystroke_o	o	n/a
240.513	0.09	481026	keystroke_Key.space	Key.space	n/a
240.648	0.12	481296	keystroke_h	h	n/a
240.723	0.136	481446	keystroke_a	a	n/a
240.813	0.121	481626	keystroke_r	r	n/a
240.949	0.1195	481898	keystroke_d	d	n/a
241.1735	0.075	482347	keystroke_w	w	n/a
241.2635	0.045	482527	keystroke_o	o	n/a
241.3835	0.105	482767	keystroke_o	o	n/a
241.5185	0.15	483037	keystroke_d	d	n/a
241.6835	0.09	483367	keystroke_Key.space	Key.space	n/a
242.0135	0.075	484027	keystroke_s	s	n/a
242.1485	0.075	484297	keystroke_e	e	n/a
242.2535	0.12	484507	keystroke_l	l	n/a
242.3435	0.075	484687	keystroke_e	e	n/a
242.4485	0.105	484897	keystroke_c	c	n/a
242.6285	0.09	485257	keystroke_t	t	n/a
242.8685	0.12	485737	keystroke_i	i	n/a
242.9585	0.12	485917	keystroke_n	n	n/a
243.0035	0.09	486007	keystroke_g	g	n/a
243.708	0.105	487416	keystroke_Key.enter	Key.enter	n/a
243.818	6.672	487636	prompt	n/a	spas appendix primary highland\n
244.6685	0.12	489337	keystroke_s	s	n/a
244.8185	0.12	489637	keystroke_p	p	n/a
244.9085	0.15	489817	keystroke_a	a	n/a
245.0135	0.195	490027	keystroke_s	s	n/a
245.1935	0.105	490387	keystroke_Key.space	Key.space	n/a
245.5085	0.135	491017	keystroke_a	a	n/a
245.5985	0.075	491197	keystroke_p	p	n/a
245.7185	0.12	491437	keystroke_p	p	n/a
246.078	0.091	492156	keystroke_e	e	n/a
246.199	0.105	492398	keystroke_n	n	n/a
246.304	0.074	492608	keystroke_d	d	n/a
246.379	0.105	492758	keystroke_i	i	n/a
246.558	0.121	493116	keystroke_x	x	n/a
246.693	0.091	493386	keystroke_Key.space	Key.space	n/a
246.949	0.105	493898	keystroke_p	p	n/a
247.069	0.059	494138	keystroke_r	r	n/a
247.144	0.104	494288	keystroke_i	i	n/a
247.203	0.151	494406	keystroke_m	m	n/a
247.278	0.166	494556	keystroke_a	a	n/a
247.368	0.151	494736	keystroke_r	r	n/a
247.563	0.091	495126	keystroke_y	y	n/a
247.713	0.105	495426	keystroke_Key.space	Key.space	n/a
247.9835	0.06	495967	keystroke_h	h	n/a
248.1635	0.075	496327	keystroke_g	g	n/a
248.2535	0.045	496507	keystroke_h	h	n/a
248.5085	0.045	497017	keystroke_Key.backspace	Key.backspace	n/a
248.6285	0.075	497257	keystroke_Key.backspace	Key.backspace	n/a
248.8535	0.09	497707	keystroke_i	i	n/a
248.9585	0.0745	497917	keystroke_g	g	n/a
249.034	0.0895	498068	keystroke_h	h	n/a
249.2135	0.09	498427	keystroke_l	l	n/a
249.2735	0.09	498547	keystroke_a	a	n/a
249.3785	0.105	498757	keystroke_n	n	n/a
249.4535	0.0895	498907	keystroke_d	d	n/a
250.398	0.09	500796	keystroke_Key.enter	Key.enter	n/a
250.495	5.215	500990	prompt	n/a	weights discharge strikes profit\n
251.2235	0.0595	502447	keystroke_w	w	n/a
251.478	0.1055	502956	keystroke_e	e	n/a
251.6585	0.105	503317	keystroke_i	i	n/a
251.7785	0.075	503557	keystroke_g	g	n/a
251.8685	0.09	503737	keystroke_h	h	n/a
251.9735	0.075	503947	keystroke_t	t	n/a
252.1085	0.135	504217	keystroke_s	s	n/a
252.2285	0.075	504457	keystroke_Key.space	Key.space	n/a
252.4385	0.075	504877	keystroke_d	d	n/a
252.514	0.089	505028	keystroke_i	i	n/a
252.753	0.075	505506	keystroke_s	s	n/a
252.948	0.105	505896	keystroke_c	c	n/a
253.038	0.1055	506076	keystroke_h	h	n/a
253.113	0.1355	506226	keystroke_a	a	n/a
253.2035	0.09	506407	keystroke_r	r	n/a
253.4435	0.075	506887	keystroke_g	g	n/a
253.6085	0.09	507217	keystroke_e	e	n/a
253.6995	0.059	507399	keystroke_Key.space	Key.space	n/a
253.8635	0.09	507727	keystroke_s	s	n/a
253.939	0.0595	507878	keystroke_t	t	n/a
254.0435	0.105	508087	keystroke_r	r	n/a
254.1185	0.075	508237	keystroke_i	i	n/a
254.2535	0.105	508507	keystroke_k	k	n/a
254.3285	0.0745	508657	keystroke_e	e	n/a
254.463	0.12	508926	keystroke_s	s	n/a
254.553	0.075	509106	keystroke_Key.space	Key.space	n/a
254.793	0.09	509586	keystroke_p	p	n/a
254.898	0.06	509796	keystroke_r	r	n/a
254.973	0.091	509946	keystroke_o	o	n/a
255.0785	0.075	510157	keystroke_f	f	n/a
255.1535	0.075	510307	keystroke_i	i	n/a
255.2585	0.075	510517	keystroke_t	t	n/a
255.5885	0.12	511177	keystroke_Key.enter	Key.enter	n/a
255.713	9.537	511426	prompt	n/a	states natural additions containers\n
256.3835	0.12	512767	keystroke_s	s	n/a
256.4735	0.09	512947	keystroke_t	t	n/a
256.6685	0.18	513337	keystroke_a	a	n/a
257.0135	0.075	514027	keystroke_t	t	n/a
257.3585	0.075	514717	keystroke_e	e	n/a
257.4935	0.12	514987	keystroke_s	s	n/a
257.5835	0.105	515167	keystroke_Key.space	Key.space	n/a
257.7035	0.135	515407	keystroke_n	n	n/a
257.794	0.1645	515588	keystroke_a	a	n/a
257.8985	0.09	515797	keystroke_t	t	n/a
258.0035	0.09	516007	keystroke_u	u	n/a
258.0785	0.09	516157	keystroke_r	r	n/a
258.2585	0.12	516517	keystroke_a	a	n/a
258.3335	0.12	516667	keystroke_l	l	n/a
258.4685	0.09	516937	keystroke_Key.space	Key.space	n/a
258.573	0.1055	517146	keystroke_a	a	n/a
258.6935	0.075	517387	keystroke_d	d	n/a
258.8135	0.105	517627	keystroke_d	d	n/a
258.9485	0.075	517897	keystroke_i	i	n/a
259.0535	0.06	518107	keystroke_t	t	n/a
259.1435	0.09	518287	keystroke_i	i	n/a
259.5935	0.105	519187	keystroke_o	o	n/a
259.7435	0.105	519487	keystroke_n	n	n/a
259.8635	0.15	519727	keystroke_s	s	n/a
259.9835	0.12	519967	keystroke_Key.space	Key.space	n/a
260.5985	0.03	521197	keystroke_f	f	n/a
260.6295	0.089	521259	keystroke_c	c	n/a
260.7335	0.09	521467	keystroke_o	o	n/a
260.7785	0.06	521557	keystroke_n	n	n/a
261.1085	0.06	522217	keystroke_Key.backspace	Key.backspace	n/a
261.2735	0.045	522547	keystroke_Key.backspace	Key.backspace	n/a
261.4235	0.045	522847	keystroke_Key.backspace	Key.backspace	n/a
261.5435	0.06	523087	keystroke_Key.backspace	Key.backspace	n/a
261.6935	0.15	523387	keystroke_c	c	n/a
262.1435	0.105	524287	keystroke_o	o	n/a
262.2185	0.12	524437	keystroke_n	n	n/a
262.3535	0.06	524707	keystroke_t	t	n/a
262.4435	0.12	524887	keystroke_i	i	n/a
262.5185	0.09	525037	keystroke_n	n	n/a
262.5335	0.09	525067	keystroke_a	a	n/a
262.833	0.03	525666	keystroke_Key.backspace	Key.backspace	n/a
262.938	0.075	525876	keystroke_Key.backspace	Key.backspace	n/a
263.688	0.06	527376	keystroke_Key.backspace	Key.backspace	n/a
264.018	0.12	528036	keystroke_a	a	n/a
264.153	0.105	528306	keystroke_i	i	n/a
264.228	0.105	528456	keystroke_n	n	n/a
264.318	0.105	528636	keystroke_e	e	n/a
264.393	0.09	528786	keystroke_r	r	n/a
264.543	0.105	529086	keystroke_s	s	n/a
265.143	0.1055	530286	keystroke_Key.enter	Key.enter	n/a
265.2545	5.4405	530509	prompt	n/a	neural plymouth pain sudden\n
265.9085	0.12	531817	keystroke_n	n	n/a
266.0135	0.075	532027	keystroke_e	e	n/a
266.2685	0.09	532537	keystroke_u	u	n/a
266.4935	0.105	532987	keystroke_r	r	n/a
266.5835	0.12	533167	keystroke_a	a	n/a
266.6885	0.12	533377	keystroke_l	l	n/a
266.7935	0.06	533587	keystroke_Key.space	Key.space	n/a
267.0935	0.06	534187	keystroke_p	p	n/a
267.2135	0.06	534427	keystroke_l	l	n/a
267.3485	0.075	534697	keystroke_y	y	n/a
267.5585	0.09	535117	keystroke_m	m	n/a
267.7835	0.1495	535567	keystroke_o	o	n/a
267.9185	0.09	535837	keystroke_u	u	n/a
268.1435	0.06	536287	keystroke_t	t	n/a
268.2335	0.09	536467	keystroke_h	h	n/a
268.5185	0.09	537037	keystroke_Key.space	Key.space	n/a
268.7735	0.09	537547	keystroke_p	p	n/a
268.8335	0.105	537667	keystroke_a	a	n/a
268.9685	0.105	537937	keystroke_i	i	n/a
269.0285	0.12	538057	keystroke_n	n	n/a
269.1485	0.06	538297	keystroke_Key.space	Key.space	n/a
269.7635	0.06	539527	keystroke_s	s	n/a
269.8385	0.0895	539677	keystroke_u	u	n/a
269.943	0.045	539886	keystroke_d	d	n/a
270.063	0.06	540126	keystroke_d	d	n/a
270.198	0.075	540396	keystroke_e	e	n/a
270.288	0.12	540576	keystroke_n	n	n/a
270.603	0.09	541206	keystroke_Key.enter	Key.enter	n/a
270.7065	5.6885	541413	prompt	n/a	cellular logo investigations loaded\n
271.383	0.105	542766	keystroke_c	c	n/a
271.518	0.075	543036	keystroke_e	e	n/a
271.638	0.075	543276	keystroke_l	l	n/a
271.758	0.09	543516	keystroke_l	l	n/a
271.9535	0.075	543907	keystroke_u	u	n/a
272.0735	0.12	544147	keystroke_l	l	n/a
272.2235	0.165	544447	keystroke_a	a	n/a
272.3585	0.105	544717	keystroke_r	r	n/a
272.5385	0.06	545077	keystroke_Key.space	Key.space	n/a
272.8985	0.06	545797	keystroke_l	l	n/a
273.0185	0.09	546037	keystroke_o	o	n/a
273.1385	0.075	546277	keystroke_g	g	n/a
273.2285	0.09	546457	keystroke_o	o	n/a
273.4235	0.105	546847	keystroke_Key.space	Key.space	n/a
273.603	0.075	547206	keystroke_i	i	n/a
273.708	0.105	547416	keystroke_n	n	n/a
273.828	0.076	547656	keystroke_v	v	n/a
273.948	0.09	547896	keystroke_e	e	n/a
274.068	0.135	548136	keystroke_s	s	n/a
274.173	0.06	548346	keystroke_t	t	n/a
274.248	0.09	548496	keystroke_i	i	n/a
274.368	0.075	548736	keystroke_g	g	n/a
274.488	0.135	548976	keystroke_a	a	n/a
274.5785	0.0745	549157	keystroke_t	t	n/a
274.639	0.149	549278	keystroke_i	i	n/a
274.714	0.104	549428	keystroke_o	o	n/a
274.773	0.12	549546	keystroke_n	n	n/a
274.848	0.09	549696	keystroke_s	s	n/a
275.163	0.09	550326	keystroke_Key.space	Key.space	n/a
275.373	0.045	550746	keystroke_l	l	n/a
275.493	0.105	550986	keystroke_o	o	n/a
275.538	0.12	551076	keystroke_a	a	n/a
275.673	0.076	551346	keystroke_d	d	n/a
275.808	0.075	551616	keystroke_e	e	n/a
275.928	0.12	551856	keystroke_d	d	n/a
276.333	0.06	552666	keystroke_Key.enter	Key.enter	n/a
276.398	4.932	552796	prompt	n/a	shopping planning truly search\n
277.038	0.09	554076	keystroke_s	s	n/a
277.113	0.09	554226	keystroke_h	h	n/a
277.263	0.15	554526	keystroke_o	o	n/a
277.428	0.091	554856	keystroke_p	p	n/a
277.608	0.0755	555216	keystroke_p	p	n/a
277.8185	0.075	555637	keystroke_i	i	n/a
277.8635	0.1345	555727	keystroke_n	n	n/a
277.983	0.12	555966	keystroke_g	g	n/a
278.073	0.09	556146	keystroke_Key.space	Key.space	n/a
278.208	0.09	556416	keystroke_p	p	n/a
278.358	0.09	556716	keystroke_l	l	n/a
278.418	0.135	556836	keystroke_a	a	n/a
278.523	0.075	557046	keystroke_n	n	n/a
278.658	0.09	557316	keystroke_n	n	n/a
278.868	0.075	557736	keystroke_i	i	n/a
278.928	0.12	557856	keystroke_n	n	n/a
279.018	0.105	558036	keystroke_g	g	n/a
279.108	0.105	558216	keystroke_Key.space	Key.space	n/a
279.258	0.06	558516	keystroke_t	t	n/a
279.378	0.105	558756	keystroke_r	r	n/a
279.468	0.09	558936	keystroke_u	u	n/a
279.603	0.106	559206	keystroke_l	l	n/a
279.724	0.09	559448	keystroke_y	y	n/a
279.874	0.06	559748	keystroke_Key.space	Key.space	n/a
279.949	0.074	559898	keystroke_s	s	n/a
280.128	0.226	560256	keystroke_e	e	n/a
280.233	0.165	560466	keystroke_a	a	n/a
280.324	0.15	560648	keystroke_r	r	n/a
280.593	0.151	561186	keystroke_c	c	n/a
280.698	0.106	561396	keystroke_h	h	n/a
281.223	0.105	562446	keystroke_Key.enter	Key.enter	n/a
281.336	3.774	562672	prompt	n/a	copies present serious telling\n
281.9435	0.15	563887	keystroke_c	c	n/a
282.0335	0.12	564067	keystroke_o	o	n/a
282.1235	0.09	564247	keystroke_p	p	n/a
282.2885	0.105	564577	keystroke_i	i	n/a
282.4085	0.15	564817	keystroke_e	e	n/a
282.5135	0.15	565027	keystroke_s	s	n/a
282.5735	0.12	565147	keystroke_Key.space	Key.space	n/a
282.7085	0.09	565417	keystroke_p	p	n/a
282.7685	0.12	565537	keystroke_r	r	n/a
282.8885	0.06	565777	keystroke_e	e	n/a
282.9635	0.165	565927	keystroke_s	s	n/a
283.1135	0.09	566227	keystroke_e	e	n/a
283.2185	0.12	566437	keystroke_n	n	n/a
283.3235	0.09	566647	keystroke_t	t	n/a
283.3835	0.09	566767	keystroke_Key.space	Key.space	n/a
283.5335	0.06	567067	keystroke_s	s	n/a
283.6685	0.09	567337	keystroke_e	e	n/a
283.7285	0.105	567457	keystroke_r	r	n/a
283.8035	0.21	567607	keystroke_i	i	n/a
283.8785	0.12	567757	keystroke_o	o	n/a
283.9685	0.12	567937	keystroke_u	u	n/a
284.0585	0.135	568117	keystroke_s	s	n/a
284.1635	0.075	568327	keystroke_Key.space	Key.space	n/a
284.3135	0.105	568627	keystroke_t	t	n/a
284.4035	0.105	568807	keystroke_e	e	n/a
284.4485	0.045	568897	keystroke_l	l	n/a
284.5535	0.105	569107	keystroke_l	l	n/a
284.7485	0.105	569497	keystroke_i	i	n/a
284.8235	0.09	569647	keystroke_n	n	n/a
284.8835	0.09	569767	keystroke_g	g	n/a
285.0185	0.09	570037	keystroke_Key.enter	Key.enter	n/a
285.1125	8.3975	570225	prompt	n/a	vermont transition institute plates\n
286.023	0.075	572046	keystroke_v	v	n/a
286.233	0.12	572466	keystroke_e	e	n/a
286.293	0.105	572586	keystroke_r	r	n/a
286.443	0.105	572886	keystroke_m	m	n/a
286.578	0.09	573156	keystroke_o	o	n/a
286.683	0.105	573366	keystroke_n	n	n/a
286.803	0.105	573606	keystroke_t	t	n/a
286.968	0.075	573936	keystroke_Key.space	Key.space	n/a
287.508	0.045	575016	keystroke_t	t	n/a
287.613	0.135	575226	keystroke_r	r	n/a
287.718	0.12	575436	keystroke_a	a	n/a
287.853	0.09	575706	keystroke_n	n	n/a
287.958	0.09	575916	keystroke_s	s	n/a
288.093	0.09	576186	keystroke_i	i	n/a
288.348	0.06	576696	keystroke_t	t	n/a
288.438	0.135	576876	keystroke_i	i	n/a
288.528	0.1205	577056	keystroke_o	o	n/a
288.6035	0.135	577207	keystroke_n	n	n/a
289.248	0.09	578496	keystroke_Key.space	Key.space	n/a
289.503	0.0755	579006	keystroke_i	i	n/a
289.5935	0.104	579187	keystroke_n	n	n/a
289.7275	0.12	579455	keystroke_s	s	n/a
289.8335	0.074	579667	keystroke_t	t	n/a
289.9235	0.089	579847	keystroke_i	i	n/a
290.0425	0.06	580085	keystroke_t	t	n/a
290.1175	0.0905	580235	keystroke_u	u	n/a
290.238	0.06	580476	keystroke_t	t	n/a
290.493	0.15	580986	keystroke_e	e	n/a
290.583	0.1195	581166	keystroke_Key.space	Key.space	n/a
291.303	0.09	582606	keystroke_p	p	n/a
291.438	0.105	582876	keystroke_l	l	n/a
291.483	0.12	582966	keystroke_a	a	n/a
291.588	0.091	583176	keystroke_t	t	n/a
291.693	0.15	583386	keystroke_e	e	n/a
291.798	0.121	583596	keystroke_s	s	n/a
293.418	0.09	586836	keystroke_Key.enter	Key.enter	n/a
293.5195	5.1355	587039	prompt	n/a	vision scenarios drew williams\n
294.228	0.105	588456	keystroke_v	v	n/a
294.348	0.09	588696	keystroke_i	i	n/a
294.453	0.105	588906	keystroke_s	s	n/a
294.543	0.105	589086	keystroke_i	i	n/a
294.618	0.12	589236	keystroke_o	o	n/a
294.708	0.135	589416	keystroke_n	n	n/a
294.783	0.09	589566	keystroke_Key.space	Key.space	n/a
295.0835	0.105	590167	keystroke_s	s	n/a
295.2035	0.09	590407	keystroke_c	c	n/a
295.3385	0.075	590677	keystroke_e	e	n/a
295.4435	0.104	590887	keystroke_n	n	n/a
295.5785	0.15	591157	keystroke_a	a	n/a
295.6835	0.105	591367	keystroke_r	r	n/a
295.7735	0.105	591547	keystroke_i	i	n/a
295.8185	0.12	591637	keystroke_o	o	n/a
295.9535	0.134	591907	keystroke_s	s	n/a
296.1175	0.075	592235	keystroke_Key.space	Key.space	n/a
296.3885	0.059	592777	keystroke_d	d	n/a
296.5085	0.104	593017	keystroke_r	r	n/a
296.5825	0.135	593165	keystroke_e	e	n/a
296.7025	0.151	593405	keystroke_w	w	n/a
296.8385	0.06	593677	keystroke_Key.space	Key.space	n/a
297.1385	0.135	594277	keystroke_w	w	n/a
297.2585	0.06	594517	keystroke_i	i	n/a
297.3935	0.165	594787	keystroke_l	l	n/a
297.6635	0.09	595327	keystroke_l	l	n/a
297.8585	0.075	595717	keystroke_i	i	n/a
297.948	0.1355	595896	keystroke_a	a	n/a
298.0835	0.1045	596167	keystroke_m	m	n/a
298.189	0.104	596378	keystroke_s	s	n/a
298.563	0.09	597126	keystroke_Key.enter	Key.enter	n/a
298.661	4.674	597322	prompt	n/a	commented painted maiden smoke\n
299.328	0.1355	598656	keystroke_c	c	n/a
299.448	0.06	598896	keystroke_o	o	n/a
299.523	0.06	599046	keystroke_m	m	n/a
299.643	0.09	599286	keystroke_m	m	n/a
299.778	0.06	599556	keystroke_e	e	n/a
299.853	0.0905	599706	keystroke_n	n	n/a
299.9585	0.09	599917	keystroke_t	t	n/a
300.0335	0.075	600067	keystroke_e	e	n/a
300.1985	0.09	600397	keystroke_d	d	n/a
300.2885	0.09	600577	keystroke_Key.space	Key.space	n/a
300.4385	0.105	600877	keystroke_p	p	n/a
300.5285	0.135	601057	keystroke_a	a	n/a
300.6485	0.12	601297	keystroke_i	i	n/a
300.7385	0.12	601477	keystroke_n	n	n/a
300.7975	0.121	601595	keystroke_t	t	n/a
300.8885	0.075	601777	keystroke_e	e	n/a
301.0385	0.12	602077	keystroke_d	d	n/a
301.0835	0.12	602167	keystroke_Key.space	Key.space	n/a
301.2635	0.12	602527	keystroke_m	m	n/a
301.3535	0.105	602707	keystroke_a	a	n/a
301.4735	0.09	602947	keystroke_i	i	n/a
301.5635	0.075	603127	keystroke_d	d	n/a
301.7285	0.075	603457	keystroke_e	e	n/a
301.8635	0.12	603727	keystroke_n	n	n/a
302.0135	0.09	604027	keystroke_Key.space	Key.space	n/a
302.3275	0.106	604655	keystroke_s	s	n/a
302.4185	0.105	604837	keystroke_m	m	n/a
302.4935	0.12	604987	keystroke_o	o	n/a
302.6285	0.12	605257	keystroke_k	k	n/a
302.7335	0.075	605467	keystroke_e	e	n/a
303.2435	0.09	606487	keystroke_Key.enter	Key.enter	n/a
303.3375	5.9675	606675	prompt	n/a	commerce fabrics somebody's pointer\n
304.0685	0.135	608137	keystroke_c	c	n/a
304.2185	0.09	608437	keystroke_o	o	n/a
304.2935	0.075	608587	keystroke_m	m	n/a
304.4285	0.105	608857	keystroke_m	m	n/a
304.5635	0.135	609127	keystroke_e	e	n/a
304.6385	0.09	609277	keystroke_r	r	n/a
304.8335	0.1195	609667	keystroke_c	c	n/a
304.938	0.135	609876	keystroke_e	e	n/a
305.088	0.105	610176	keystroke_Key.space	Key.space	n/a
305.598	0.105	611196	keystroke_f	f	n/a
305.704	0.089	611408	keystroke_a	a	n/a
305.838	0.09	611676	keystroke_b	b	n/a
306.033	0.06	612066	keystroke_r	r	n/a
306.123	0.105	612246	keystroke_i	i	n/a
306.243	0.09	612486	keystroke_c	c	n/a
306.348	0.135	612696	keystroke_s	s	n/a
306.453	0.075	612906	keystroke_Key.space	Key.space	n/a
306.588	0.075	613176	keystroke_s	s	n/a
306.678	0.09	613356	keystroke_o	o	n/a
306.738	0.135	613476	keystroke_m	m	n/a
306.813	0.075	613626	keystroke_e	e	n/a
306.978	0.075	613956	keystroke_d	d	n/a
307.293	0.06	614586	keystroke_Key.backspace	Key.backspace	n/a
307.548	0.075	615096	keystroke_b	b	n/a
307.608	0.09	615216	keystroke_o	o	n/a
307.728	0.09	615456	keystroke_d	d	n/a
307.833	0.075	615666	keystroke_y	y	n/a
308.073	0.09	616146	keystroke_'	'	n/a
308.178	0.15	616356	keystroke_s	s	n/a
308.283	0.09	616566	keystroke_Key.space	Key.space	n/a
308.508	0.09	617016	keystroke_p	p	n/a
308.658	0.12	617316	keystroke_o	o	n/a
308.748	0.135	617496	keystroke_i	i	n/a
308.823	0.12	617646	keystroke_n	n	n/a
308.898	0.046	617796	keystroke_t	t	n/a
309.003	0.12	618006	keystroke_e	e	n/a
309.063	0.105	618126	keystroke_r	r	n/a
309.213	0.09	618426	keystroke_Key.enter	Key.enter	n/a
309.308	5.727	618616	prompt	n/a	dropped expires realtor actress\n
310.053	0.105	620106	keystroke_d	d	n/a
310.159	0.089	620318	keystroke_r	r	n/a
310.2785	0.105	620557	keystroke_o	o	n/a
310.3985	0.12	620797	keystroke_p	p	n/a
310.5785	0.075	621157	keystroke_p	p	n/a
310.7435	0.06	621487	keystroke_e	e	n/a
310.8635	0.12	621727	keystroke_d	d	n/a
310.9385	0.105	621877	keystroke_Key.space	Key.space	n/a
311.2235	0.06	622447	keystroke_e	e	n/a
311.3885	0.105	622777	keystroke_x	x	n/a
311.5085	0.06	623017	keystroke_p	p	n/a
311.6285	0.09	623257	keystroke_i	i	n/a
311.7485	0.105	623497	keystroke_r	r	n/a
311.8235	0.105	623647	keystroke_e	e	n/a
311.9435	0.18	623887	keystroke_s	s	n/a
312.0785	0.09	624157	keystroke_Key.space	Key.space	n/a
312.7835	0.105	625567	keystroke_r	r	n/a
312.8585	0.12	625717	keystroke_e	e	n/a
312.9485	0.12	625897	keystroke_a	a	n/a
313.0385	0.0745	626077	keystroke_l	l	n/a
313.143	0.06	626286	keystroke_t	t	n/a
313.233	0.09	626466	keystroke_o	o	n/a
313.308	0.105	626616	keystroke_r	r	n/a
313.428	0.075	626856	keystroke_Key.space	Key.space	n/a
313.623	0.135	627246	keystroke_a	a	n/a
313.773	0.105	627546	keystroke_c	c	n/a
313.998	0.045	627996	keystroke_t	t	n/a
314.118	0.09	628236	keystroke_r	r	n/a
314.223	0.06	628446	keystroke_e	e	n/a
314.328	0.075	628656	keystroke_s	s	n/a
314.433	0.12	628866	keystroke_s	s	n/a
314.943	0.09	629886	keystroke_Key.enter	Key.enter	n/a
315.0385	3.9415	630077	prompt	n/a	licenses salt prix bind\n
315.663	0.09	631326	keystroke_l	l	n/a
315.738	0.105	631476	keystroke_i	i	n/a
315.858	0.1205	631716	keystroke_c	c	n/a
316.0085	0.075	632017	keystroke_e	e	n/a
316.0985	0.105	632197	keystroke_n	n	n/a
316.2185	0.06	632437	keystroke_s	s	n/a
316.3235	0.09	632647	keystroke_e	e	n/a
316.4435	0.12	632887	keystroke_s	s	n/a
316.5485	0.09	633097	keystroke_Key.space	Key.space	n/a
316.7135	0.105	633427	keystroke_s	s	n/a
316.7885	0.15	633577	keystroke_a	a	n/a
316.9085	0.105	633817	keystroke_l	l	n/a
317.0735	0.09	634147	keystroke_t	t	n/a
317.358	0.06	634716	keystroke_Key.space	Key.space	n/a
317.598	0.09	635196	keystroke_p	p	n/a
317.689	0.074	635378	keystroke_r	r	n/a
317.778	0.105	635556	keystroke_i	i	n/a
317.898	0.105	635796	keystroke_x	x	n/a
318.018	0.09	636036	keystroke_Key.space	Key.space	n/a
318.393	0.09	636786	keystroke_b	b	n/a
318.453	0.105	636906	keystroke_i	i	n/a
318.513	0.12	637026	keystroke_n	n	n/a
318.634	0.074	637268	keystroke_d	d	n/a
318.888	0.09	637776	keystroke_Key.enter	Key.enter	n/a
318.984	5.967	637968	prompt	n/a	resulted advertisements voice salary\n
319.653	0.075	639306	keystroke_r	r	n/a
319.729	0.119	639458	keystroke_e	e	n/a
319.818	0.1355	639636	keystroke_s	s	n/a
319.9685	0.075	639937	keystroke_u	u	n/a
320.0135	0.15	640027	keystroke_l	l	n/a
320.1485	0.075	640297	keystroke_t	t	n/a
320.1935	0.075	640387	keystroke_e	e	n/a
320.3285	0.105	640657	keystroke_d	d	n/a
320.4035	0.09	640807	keystroke_Key.space	Key.space	n/a
320.5535	0.105	641107	keystroke_a	a	n/a
320.6885	0.06	641377	keystroke_d	d	n/a
320.853	0.075	641706	keystroke_v	v	n/a
321.003	0.12	642006	keystroke_e	e	n/a
321.093	0.075	642186	keystroke_r	r	n/a
321.288	0.09	642576	keystroke_t	t	n/a
321.513	0.075	643026	keystroke_i	i	n/a
321.663	0.06	643326	keystroke_s	s	n/a
321.843	0.06	643686	keystroke_e	e	n/a
321.9785	0.12	643957	keystroke_m	m	n/a
322.1135	0.06	644227	keystroke_e	e	n/a
322.2185	0.09	644437	keystroke_n	n	n/a
322.2785	0.06	644557	keystroke_t	t	n/a
322.4285	0.12	644857	keystroke_s	s	n/a
322.5335	0.075	645067	keystroke_Key.space	Key.space	n/a
322.7135	0.105	645427	keystroke_v	v	n/a
322.8335	0.09	645667	keystroke_o	o	n/a
322.8935	0.105	645787	keystroke_i	i	n/a
322.9685	0.135	645937	keystroke_c	c	n/a
323.0885	0.12	646177	keystroke_e	e	n/a
323.1935	0.06	646387	keystroke_Key.space	Key.space	n/a
323.2985	0.075	646597	keystroke_s	s	n/a
323.4185	0.09	646837	keystroke_l	l	n/a
323.4335	0.076	646867	keystroke_a	a	n/a
323.9735	0.045	647947	keystroke_Key.backspace	Key.backspace	n/a
324.0785	0.075	648157	keystroke_Key.backspace	Key.backspace	n/a
324.1385	0.09	648277	keystroke_a	a	n/a
324.2885	0.105	648577	keystroke_l	l	n/a
324.3635	0.165	648727	keystroke_a	a	n/a
324.4835	0.15	648967	keystroke_r	r	n/a
324.6185	0.045	649237	keystroke_y	y	n/a
324.8585	0.09	649717	keystroke_Key.enter	Key.enter	n/a
324.955	5.44	649910	prompt	n/a	reasonably anything june scanned\n
325.5785	0.09	651157	keystroke_r	r	n/a
325.6535	0.135	651307	keystroke_e	e	n/a
325.7735	0.15	651547	keystroke_a	a	n/a
325.8935	0.12	651787	keystroke_s	s	n/a
326.0285	0.075	652057	keystroke_o	o	n/a
326.0735	0.12	652147	keystroke_n	n	n/a
326.1785	0.135	652357	keystroke_a	a	n/a
326.2985	0.09	652597	keystroke_b	b	n/a
326.3735	0.105	652747	keystroke_l	l	n/a
326.4935	0.12	652987	keystroke_e	e	n/a
326.5835	0.09	653167	keystroke_Key.space	Key.space	n/a
326.8685	0.135	653737	keystroke_a	a	n/a
327.0035	0.09	654007	keystroke_n	n	n/a
327.1985	0.045	654397	keystroke_y	y	n/a
327.2885	0.09	654577	keystroke_t	t	n/a
327.3935	0.075	654787	keystroke_h	h	n/a
327.4535	0.12	654907	keystroke_i	i	n/a
327.5285	0.12	655057	keystroke_n	n	n/a
327.5745	0.104	655149	keystroke_g	g	n/a
327.6635	0.105	655327	keystroke_Key.space	Key.space	n/a
327.7835	0.09	655567	keystroke_j	j	n/a
327.9335	0.06	655867	keystroke_u	u	n/a
328.0535	0.135	656107	keystroke_n	n	n/a
328.1585	0.135	656317	keystroke_e	e	n/a
328.2635	0.075	656527	keystroke_Key.space	Key.space	n/a
328.4885	0.09	656977	keystroke_s	s	n/a
328.5935	0.135	657187	keystroke_c	c	n/a
328.6835	0.15	657367	keystroke_a	a	n/a
328.7885	0.09	657577	keystroke_n	n	n/a
328.9235	0.105	657847	keystroke_n	n	n/a
329.2235	0.075	658447	keystroke_e	e	n/a
329.5085	0.12	659017	keystroke_d	d	n/a
330.3035	0.09	660607	keystroke_Key.enter	Key.enter	n/a
330.3995	18.9855	660799	prompt	n/a	jungle teaches downtown visits\n
331.2035	0.045	662407	keystroke_j	j	n/a
331.3085	0.075	662617	keystroke_u	u	n/a
331.4435	0.105	662887	keystroke_n	n	n/a
331.5335	0.09	663067	keystroke_g	g	n/a
331.6385	0.12	663277	keystroke_l	l	n/a
331.7285	0.105	663457	keystroke_e	e	n/a
331.8185	0.075	663637	keystroke_Key.space	Key.space	n/a
331.9385	0.105	663877	keystroke_t	t	n/a
331.9535	0.06	663907	keystroke_r	r	n/a
332.0285	0.12	664057	keystroke_e	e	n/a
332.1035	0.2105	664207	keystroke_a	a	n/a
332.224	0.045	664448	keystroke_c	c	n/a
332.823	0.045	665646	keystroke_Key.backspace	Key.backspace	n/a
332.943	0.06	665886	keystroke_Key.backspace	Key.backspace	n/a
333.634	0.104	667268	keystroke_a	a	n/a
334.023	0.12	668046	keystroke_c	c	n/a
334.128	0.105	668256	keystroke_h	h	n/a
334.218	0.09	668436	keystroke_e	e	n/a
334.338	0.136	668676	keystroke_s	s	n/a
334.443	0.09	668886	keystroke_Key.space	Key.space	n/a
334.608	0.075	669216	keystroke_d	d	n/a
334.698	0.06	669396	keystroke_o	o	n/a
334.773	0.12	669546	keystroke_w	w	n/a
334.848	0.105	669696	keystroke_n	n	n/a
334.923	0.075	669846	keystroke_t	t	n/a
335.013	0.09	670026	keystroke_o	o	n/a
335.088	0.105	670176	keystroke_n	n	n/a
335.553	0.075	671106	keystroke_Key.backspace	Key.backspace	n/a
335.688	0.105	671376	keystroke_w	w	n/a
335.794	0.104	671588	keystroke_n	n	n/a
335.9585	0.09	671917	keystroke_Key.space	Key.space	n/a
336.288	0.075	672576	keystroke_v	v	n/a
336.393	0.075	672786	keystroke_i	i	n/a
336.978	0.091	673956	keystroke_s	s	n/a
337.113	0.09	674226	keystroke_i	i	n/a
337.233	0.075	674466	keystroke_t	t	n/a
337.368	0.105	674736	keystroke_s	s	n/a
339.966	0.001	679932	keystroke_Key.backspace	Key.backspace	n/a
340.083	0.045	680166	keystroke_Key.backspace	Key.backspace	n/a
340.248	0.045	680496	keystroke_Key.backspace	Key.backspace	n/a
340.398	0.06	680796	keystroke_Key.backspace	Key.backspace	n/a
340.593	0.045	681186	keystroke_Key.backspace	Key.backspace	n/a
340.773	0.06	681546	keystroke_Key.backspace	Key.backspace	n/a
340.953	0.06	681906	keystroke_Key.backspace	Key.backspace	n/a
341.148	0.06	682296	keystroke_Key.backspace	Key.backspace	n/a
341.343	0.06	682686	keystroke_Key.backspace	Key.backspace	n/a
341.553	0.045	683106	keystroke_Key.backspace	Key.backspace	n/a
341.7485	0.06	683497	keystroke_Key.backspace	Key.backspace	n/a
341.958	0.06	683916	keystroke_Key.backspace	Key.backspace	n/a
342.168	0.0455	684336	keystroke_Key.backspace	Key.backspace	n/a
342.3635	0.045	684727	keystroke_Key.backspace	Key.backspace	n/a
342.5735	0.045	685147	keystroke_Key.backspace	Key.backspace	n/a
342.7835	0.045	685567	keystroke_Key.backspace	Key.backspace	n/a
342.9785	0.06	685957	keystroke_Key.backspace	Key.backspace	n/a
343.1885	0.045	686377	keystroke_Key.backspace	Key.backspace	n/a
343.3835	0.045	686767	keystroke_Key.backspace	Key.backspace	n/a
343.5785	0.0595	687157	keystroke_Key.backspace	Key.backspace	n/a
343.773	0.06	687546	keystroke_Key.backspace	Key.backspace	n/a
344.013	0.045	688026	keystroke_Key.backspace	Key.backspace	n/a
344.253	0.045	688506	keystroke_Key.backspace	Key.backspace	n/a
344.7035	0.1345	689407	keystroke_e	e	n/a
344.808	0.12	689616	keystroke_a	a	n/a
345.588	0.1205	691176	keystroke_c	c	n/a
345.693	0.0905	691386	keystroke_h	h	n/a
345.7985	0.105	691597	keystroke_e	e	n/a
345.8885	0.135	691777	keystroke_s	s	n/a
346.0085	0.09	692017	keystroke_Key.space	Key.space	n/a
346.3235	0.09	692647	keystroke_d	d	n/a
346.4285	0.06	692857	keystroke_o	o	n/a
346.4735	0.09	692947	keystroke_w	w	n/a
346.5485	0.09	693097	keystroke_n	n	n/a
346.6535	0.09	693307	keystroke_t	t	n/a
346.7285	0.09	693457	keystroke_o	o	n/a
346.8035	0.09	693607	keystroke_n	n	n/a
346.8635	0.045	693727	keystroke_w	w	n/a
347.2385	0.06	694477	keystroke_Key.backspace	Key.backspace	n/a
347.3735	0.06	694747	keystroke_Key.backspace	Key.backspace	n/a
347.5535	0.09	695107	keystroke_w	w	n/a
347.9585	0.09	695917	keystroke_n	n	n/a
348.3335	0.075	696667	keystroke_Key.space	Key.space	n/a
348.5285	0.09	697057	keystroke_v	v	n/a
348.6335	0.075	697267	keystroke_i	i	n/a
348.7235	0.075	697447	keystroke_s	s	n/a
348.8285	0.075	697657	keystroke_i	i	n/a
348.9185	0.06	697837	keystroke_t	t	n/a
349.0535	0.105	698107	keystroke_s	s	n/a
349.3085	0.075	698617	keystroke_Key.enter	Key.enter	n/a
349.399	5.491	698798	prompt	n/a	talk ericsson reduces address\n
350.0135	0.12	700027	keystroke_t	t	n/a
350.0735	0.15	700147	keystroke_a	a	n/a
350.1785	0.105	700357	keystroke_l	l	n/a
350.2535	0.12	700507	keystroke_k	k	n/a
350.3585	0.09	700717	keystroke_Key.space	Key.space	n/a
350.7635	0.105	701527	keystroke_e	e	n/a
350.8385	0.075	701677	keystroke_r	r	n/a
350.9435	0.09	701887	keystroke_i	i	n/a
351.0485	0.105	702097	keystroke_c	c	n/a
351.1835	0.075	702367	keystroke_s	s	n/a
351.3935	0.09	702787	keystroke_s	s	n/a
351.5735	0.09	703147	keystroke_o	o	n/a
351.6485	0.105	703297	keystroke_n	n	n/a
351.7685	0.075	703537	keystroke_Key.space	Key.space	n/a
351.9485	0.075	703897	keystroke_r	r	n/a
352.0385	0.06	704077	keystroke_e	e	n/a
352.1585	0.12	704317	keystroke_d	d	n/a
352.2635	0.075	704527	keystroke_u	u	n/a
352.3835	0.12	704767	keystroke_c	c	n/a
352.4885	0.075	704977	keystroke_e	e	n/a
352.6085	0.12	705217	keystroke_s	s	n/a
353.584	0.0895	707168	keystroke_Key.space	Key.space	n/a
353.7185	0.075	707437	keystroke_a	a	n/a
353.8385	0.06	707677	keystroke_d	d	n/a
353.9585	0.09	707917	keystroke_d	d	n/a
354.1085	0.105	708217	keystroke_r	r	n/a
354.1985	0.12	708397	keystroke_e	e	n/a
354.3035	0.09	708607	keystroke_s	s	n/a
354.4385	0.135	708877	keystroke_s	s	n/a
354.8135	0.075	709627	keystroke_Key.enter	Key.enter	n/a
354.894	6.7915	709788	prompt	n/a	months slip revealed settle\n
355.534	0.09	711068	keystroke_m	m	n/a
355.684	0.105	711368	keystroke_o	o	n/a
355.774	0.105	711548	keystroke_n	n	n/a
355.939	0.075	711878	keystroke_t	t	n/a
356.029	0.09	712058	keystroke_h	h	n/a
356.149	0.104	712298	keystroke_s	s	n/a
356.269	0.075	712538	keystroke_Key.space	Key.space	n/a
356.643	0.091	713286	keystroke_s	s	n/a
356.703	0.091	713406	keystroke_l	l	n/a
356.899	0.06	713798	keystroke_i	i	n/a
357.018	0.105	714036	keystroke_p	p	n/a
357.124	0.074	714248	keystroke_Key.space	Key.space	n/a
357.318	0.105	714636	keystroke_r	r	n/a
357.408	0.06	714816	keystroke_e	e	n/a
357.558	0.075	715116	keystroke_v	v	n/a
357.693	0.06	715386	keystroke_e	e	n/a
357.798	0.105	715596	keystroke_l	l	n/a
357.873	0.09	715746	keystroke_a	a	n/a
358.878	0.06	717756	keystroke_Key.backspace	Key.backspace	n/a
359.088	0.06	718176	keystroke_Key.backspace	Key.backspace	n/a
359.4935	0.12	718987	keystroke_a	a	n/a
359.7035	0.105	719407	keystroke_l	l	n/a
360.1235	0.0755	720247	keystroke_e	e	n/a
360.394	0.045	720788	keystroke_d	d	n/a
360.409	0.09	720818	keystroke_Key.space	Key.space	n/a
360.559	0.075	721118	keystroke_s	s	n/a
360.754	0.105	721508	keystroke_e	e	n/a
360.844	0.045	721688	keystroke_t	t	n/a
360.948	0.076	721896	keystroke_t	t	n/a
361.054	0.105	722108	keystroke_l	l	n/a
361.159	0.09	722318	keystroke_e	e	n/a
361.579	0.105	723158	keystroke_Key.enter	Key.enter	n/a
361.6895	7.346	723379	prompt	n/a	recovered futures wheel roots\n
362.523	0.12	725046	keystroke_r	r	n/a
362.614	0.119	725228	keystroke_e	e	n/a
362.823	0.105	725646	keystroke_c	c	n/a
362.959	0.105	725918	keystroke_o	o	n/a
363.078	0.075	726156	keystroke_v	v	n/a
363.363	0.09	726726	keystroke_e	e	n/a
363.5435	0.105	727087	keystroke_r	r	n/a
363.6785	0.075	727357	keystroke_e	e	n/a
363.8585	0.135	727717	keystroke_d	d	n/a
363.9785	0.105	727957	keystroke_Key.space	Key.space	n/a
364.3085	0.105	728617	keystroke_f	f	n/a
364.4285	0.075	728857	keystroke_u	u	n/a
364.5335	0.12	729067	keystroke_r	r	n/a
364.7285	0.09	729457	keystroke_u	u	n/a
365.2685	0.06	730537	keystroke_Key.backspace	Key.backspace	n/a
365.4035	0.0745	730807	keystroke_Key.backspace	Key.backspace	n/a
365.959	0.06	731918	keystroke_t	t	n/a
366.0635	0.105	732127	keystroke_u	u	n/a
366.2135	0.12	732427	keystroke_r	r	n/a
366.3485	0.09	732697	keystroke_e	e	n/a
366.4985	0.15	732997	keystroke_s	s	n/a
366.6335	0.105	733267	keystroke_Key.space	Key.space	n/a
366.8435	0.06	733687	keystroke_w	w	n/a
366.9035	0.105	733807	keystroke_h	h	n/a
367.0235	0.045	734047	keystroke_e	e	n/a
367.1735	0.075	734347	keystroke_e	e	n/a
367.4885	0.09	734977	keystroke_l	l	n/a
367.5935	0.09	735187	keystroke_Key.space	Key.space	n/a
368.0885	0.075	736177	keystroke_r	r	n/a
368.1785	0.045	736357	keystroke_o	o	n/a
368.2835	0.105	736567	keystroke_o	o	n/a
368.3585	0.075	736717	keystroke_t	t	n/a
368.4785	0.135	736957	keystroke_s	s	n/a
368.9435	0.0895	737887	keystroke_Key.enter	Key.enter	n/a
369.038	8.367	738076	prompt	n/a	integrating geographic european brakes\n
369.783	0.06	739566	keystroke_i	i	n/a
369.903	0.121	739806	keystroke_n	n	n/a
370.054	0.09	740108	keystroke_t	t	n/a
370.174	0.09	740348	keystroke_e	e	n/a
370.3835	0.06	740767	keystroke_g	g	n/a
370.5185	0.105	741037	keystroke_r	r	n/a
370.6085	0.165	741217	keystroke_a	a	n/a
370.7285	0.09	741457	keystroke_t	t	n/a
370.8335	0.12	741667	keystroke_i	i	n/a
370.9085	0.135	741817	keystroke_n	n	n/a
370.9835	0.105	741967	keystroke_g	g	n/a
371.0585	0.09	742117	keystroke_Key.space	Key.space	n/a
371.3735	0.075	742747	keystroke_g	g	n/a
371.5685	0.09	743137	keystroke_e	e	n/a
371.6885	0.105	743377	keystroke_o	o	n/a
371.8685	0.06	743737	keystroke_g	g	n/a
372.003	0.136	744006	keystroke_r	r	n/a
372.093	0.15	744186	keystroke_a	a	n/a
372.183	0.12	744366	keystroke_p	p	n/a
372.288	0.105	744576	keystroke_h	h	n/a
372.409	0.105	744818	keystroke_i	i	n/a
372.528	0.165	745056	keystroke_c	c	n/a
372.648	0.12	745296	keystroke_Key.space	Key.space	n/a
372.918	0.075	745836	keystroke_e	e	n/a
373.144	0.089	746288	keystroke_u	u	n/a
373.263	0.09	746526	keystroke_r	r	n/a
373.413	0.09	746826	keystroke_o	o	n/a
373.638	0.09	747276	keystroke_p	p	n/a
373.908	0.1205	747816	keystroke_e	e	n/a
373.9835	0.135	747967	keystroke_a	a	n/a
374.0885	0.12	748177	keystroke_n	n	n/a
374.2235	0.09	748447	keystroke_Key.space	Key.space	n/a
374.4635	0.06	748927	keystroke_b	b	n/a
374.6285	0.12	749257	keystroke_r	r	n/a
374.7035	0.135	749407	keystroke_a	a	n/a
374.8535	0.105	749707	keystroke_k	k	n/a
374.9285	0.105	749857	keystroke_e	e	n/a
375.2435	0.045	750487	keystroke_s	s	n/a
377.3605	0.043	754721	keystroke_Key.enter	Key.enter	n/a
377.4085	13.8715	754817	prompt	n/a	parameter housewares lawyers specifies\n
378.0785	0.12	756157	keystroke_p	p	n/a
378.2435	0.06	756487	keystroke_a	a	n/a
378.3035	0.135	756607	keystroke_r	r	n/a
378.4085	0.12	756817	keystroke_a	a	n/a
378.5435	0.12	757087	keystroke_m	m	n/a
378.7835	0.105	757567	keystroke_e	e	n/a
378.8885	0.075	757777	keystroke_t	t	n/a
379.0535	0.09	758107	keystroke_e	e	n/a
379.1135	0.15	758227	keystroke_r	r	n/a
379.2185	0.09	758437	keystroke_Key.space	Key.space	n/a
380.2685	0.105	760537	keystroke_h	h	n/a
381.6185	0.12	763237	keystroke_o	o	n/a
381.8885	0.09	763777	keystroke_u	u	n/a
382.0385	0.12	764077	keystroke_s	s	n/a
382.1885	0.105	764377	keystroke_e	e	n/a
382.5635	0.0755	765127	keystroke_w	w	n/a
382.699	0.135	765398	keystroke_a	a	n/a
382.804	0.1495	765608	keystroke_r	r	n/a
382.909	0.1045	765818	keystroke_e	e	n/a
383.1485	0.135	766297	keystroke_s	s	n/a
383.7035	0.075	767407	keystroke_Key.space	Key.space	n/a
383.8235	0.1495	767647	keystroke_l	l	n/a
383.9135	0.1195	767827	keystroke_a	a	n/a
384.004	0.135	768008	keystroke_w	w	n/a
384.169	0.089	768338	keystroke_y	y	n/a
384.319	0.135	768638	keystroke_e	e	n/a
384.439	0.075	768878	keystroke_r	r	n/a
384.664	0.135	769328	keystroke_s	s	n/a
384.813	0.12	769626	keystroke_Key.space	Key.space	n/a
385.324	0.0595	770648	keystroke_s	s	n/a
385.4135	0.12	770827	keystroke_p	p	n/a
385.5185	0.075	771037	keystroke_e	e	n/a
385.6985	0.12	771397	keystroke_c	c	n/a
385.8785	0.0745	771757	keystroke_i	i	n/a
385.954	0.119	771908	keystroke_f	f	n/a
386.088	0.12	772176	keystroke_i	i	n/a
386.193	0.1055	772386	keystroke_c	c	n/a
386.3735	0.105	772747	keystroke_e	e	n/a
386.4795	0.164	772959	keystroke_s	s	n/a
387.9185	0.0595	775837	keystroke_Key.backspace	Key.backspace	n/a
388.098	0.045	776196	keystroke_Key.backspace	Key.backspace	n/a
388.248	0.045	776496	keystroke_Key.backspace	Key.backspace	n/a
388.623	0.06	777246	keystroke_Key.backspace	Key.backspace	n/a
388.863	0.06	777726	keystroke_Key.backspace	Key.backspace	n/a
389.148	0.075	778296	keystroke_Key.backspace	Key.backspace	n/a
390.394	0.105	780788	keystroke_i	i	n/a
390.574	0.09	781148	keystroke_f	f	n/a
390.679	0.09	781358	keystroke_i	i	n/a
390.784	0.0745	781568	keystroke_e	e	n/a
390.8585	0.165	781717	keystroke_s	s	n/a
391.2035	0.075	782407	keystroke_Key.enter	Key.enter	n/a
391.292	5.418	782584	prompt	n/a	india checklist worker coverage\n
392.1035	0.0595	784207	keystroke_i	i	n/a
392.208	0.105	784416	keystroke_n	n	n/a
392.328	0.09	784656	keystroke_d	d	n/a
392.388	0.105	784776	keystroke_i	i	n/a
392.508	0.135	785016	keystroke_a	a	n/a
392.628	0.09	785256	keystroke_Key.space	Key.space	n/a
392.778	0.09	785556	keystroke_c	c	n/a
392.838	0.09	785676	keystroke_h	h	n/a
392.943	0.135	785886	keystroke_e	e	n/a
393.033	0.12	786066	keystroke_c	c	n/a
393.108	0.09	786216	keystroke_k	k	n/a
393.303	0.105	786606	keystroke_l	l	n/a
393.393	0.105	786786	keystroke_i	i	n/a
393.468	0.12	786936	keystroke_s	s	n/a
393.543	0.15	787086	keystroke_t	t	n/a
393.678	0.06	787356	keystroke_Key.space	Key.space	n/a
393.798	0.09	787596	keystroke_w	w	n/a
393.903	0.0605	787806	keystroke_o	o	n/a
393.9335	0.09	787867	keystroke_r	r	n/a
394.0385	0.105	788077	keystroke_k	k	n/a
395.0585	0.075	790117	keystroke_e	e	n/a
395.2385	0.105	790477	keystroke_r	r	n/a
395.3585	0.06	790717	keystroke_Key.space	Key.space	n/a
395.4935	0.12	790987	keystroke_c	c	n/a
395.6135	0.09	791227	keystroke_o	o	n/a
395.7635	0.09	791527	keystroke_v	v	n/a
395.958	0.075	791916	keystroke_e	e	n/a
396.003	0.075	792006	keystroke_r	r	n/a
396.108	0.105	792216	keystroke_a	a	n/a
396.198	0.09	792396	keystroke_g	g	n/a
396.3035	0.1045	792607	keystroke_e	e	n/a
396.618	0.09	793236	keystroke_Key.enter	Key.enter	n/a
396.7125	6.9275	793425	prompt	n/a	passage springfield wave fred\n
397.338	0.09	794676	keystroke_p	p	n/a
397.443	0.105	794886	keystroke_a	a	n/a
397.563	0.0905	795126	keystroke_s	s	n/a
397.729	0.075	795458	keystroke_s	s	n/a
397.849	0.119	795698	keystroke_a	a	n/a
397.953	0.075	795906	keystroke_g	g	n/a
398.103	0.105	796206	keystroke_e	e	n/a
398.193	0.075	796386	keystroke_Key.space	Key.space	n/a
398.358	0.075	796716	keystroke_s	s	n/a
398.418	0.09	796836	keystroke_p	p	n/a
398.538	0.075	797076	keystroke_r	r	n/a
398.628	0.12	797256	keystroke_i	i	n/a
398.718	0.105	797436	keystroke_n	n	n/a
398.778	0.06	797556	keystroke_g	g	n/a
399.5285	0.09	799057	keystroke_f	f	n/a
399.6035	0.09	799207	keystroke_i	i	n/a
399.7235	0.075	799447	keystroke_e	e	n/a
399.8285	0.12	799657	keystroke_l	l	n/a
399.9335	0.105	799867	keystroke_d	d	n/a
400.0235	0.075	800047	keystroke_Key.space	Key.space	n/a
400.1585	0.12	800317	keystroke_w	w	n/a
400.2485	0.15	800497	keystroke_a	a	n/a
400.3685	0.12	800737	keystroke_v	v	n/a
400.5635	0.12	801127	keystroke_e	e	n/a
400.6685	0.075	801337	keystroke_Key.space	Key.space	n/a
400.8185	0.075	801637	keystroke_f	f	n/a
400.9685	0.105	801937	keystroke_r	r	n/a
401.0885	0.06	802177	keystroke_e	e	n/a
401.2535	0.12	802507	keystroke_d	d	n/a
403.6255	0.013	807251	keystroke_Key.enter	Key.enter	n/a
403.6435	5.2765	807287	prompt	n/a	flip tuesday veterans fund\n
404.6435	0.09	809287	keystroke_f	f	n/a
404.7785	0.09	809557	keystroke_l	l	n/a
405.0335	0.015	810067	keystroke_i	i	n/a
405.0785	0.12	810157	keystroke_p	p	n/a
405.1835	0.06	810367	keystroke_Key.space	Key.space	n/a
405.3635	0.075	810727	keystroke_t	t	n/a
405.4535	0.09	810907	keystroke_u	u	n/a
405.5585	0.06	811117	keystroke_e	e	n/a
405.7385	0.0595	811477	keystroke_s	s	n/a
405.903	0.1055	811806	keystroke_d	d	n/a
405.9635	0.15	811927	keystroke_a	a	n/a
406.0835	0.105	812167	keystroke_y	y	n/a
406.2035	0.075	812407	keystroke_Key.space	Key.space	n/a
406.3985	0.075	812797	keystroke_v	v	n/a
406.5485	0.09	813097	keystroke_e	e	n/a
406.6535	0.06	813307	keystroke_t	t	n/a
406.7885	0.09	813577	keystroke_e	e	n/a
406.8485	0.09	813697	keystroke_r	r	n/a
406.9685	0.12	813937	keystroke_a	a	n/a
407.1035	0.135	814207	keystroke_n	n	n/a
407.2085	0.15	814417	keystroke_s	s	n/a
407.3135	0.09	814627	keystroke_Key.space	Key.space	n/a
407.4485	0.09	814897	keystroke_f	f	n/a
407.5235	0.06	815047	keystroke_u	u	n/a
407.6585	0.12	815317	keystroke_n	n	n/a
407.7635	0.09	815527	keystroke_d	d	n/a
408.8135	0.105	817627	keystroke_Key.enter	Key.enter	n/a
408.9235	4.5865	817847	prompt	n/a	hearing engineering false dangerous\n
409.5935	0.09	819187	keystroke_h	h	n/a
409.6845	0.209	819369	keystroke_e	e	n/a
409.7735	0.15	819547	keystroke_a	a	n/a
409.8635	0.12	819727	keystroke_r	r	n/a
410.0135	0.09	820027	keystroke_i	i	n/a
410.0885	0.12	820177	keystroke_n	n	n/a
410.1335	0.105	820267	keystroke_g	g	n/a
410.2235	0.09	820447	keystroke_Key.space	Key.space	n/a
410.4035	0.06	820807	keystroke_e	e	n/a
410.4935	0.12	820987	keystroke_n	n	n/a
410.6285	0.06	821257	keystroke_g	g	n/a
410.7335	0.06	821467	keystroke_i	i	n/a
410.8235	0.105	821647	keystroke_n	n	n/a
410.9585	0.045	821917	keystroke_e	e	n/a
411.0785	0.09	822157	keystroke_e	e	n/a
411.229	0.089	822458	keystroke_r	r	n/a
411.364	0.104	822728	keystroke_i	i	n/a
411.438	0.136	822876	keystroke_n	n	n/a
411.588	0.1055	823176	keystroke_g	g	n/a
411.6945	0.089	823389	keystroke_Key.space	Key.space	n/a
411.8285	0.075	823657	keystroke_f	f	n/a
411.9045	0.104	823809	keystroke_a	a	n/a
412.0385	0.12	824077	keystroke_l	l	n/a
412.1435	0.12	824287	keystroke_s	s	n/a
412.2335	0.105	824467	keystroke_e	e	n/a
412.353	0.075	824706	keystroke_Key.space	Key.space	n/a
412.473	0.105	824946	keystroke_d	d	n/a
412.563	0.1205	825126	keystroke_a	a	n/a
412.6535	0.12	825307	keystroke_n	n	n/a
412.7585	0.045	825517	keystroke_g	g	n/a
412.8785	0.135	825757	keystroke_e	e	n/a
412.9685	0.09	825937	keystroke_r	r	n/a
413.0595	0.089	826119	keystroke_o	o	n/a
413.1185	0.105	826237	keystroke_u	u	n/a
413.2235	0.09	826447	keystroke_s	s	n/a
413.4035	0.105	826807	keystroke_Key.enter	Key.enter	n/a
413.5145	4.4655	827029	prompt	n/a	justice donation alpha i've\n
414.1085	0.06	828217	keystroke_j	j	n/a
414.2435	0.105	828487	keystroke_u	u	n/a
414.3335	0.135	828667	keystroke_s	s	n/a
414.4385	0.105	828877	keystroke_t	t	n/a
414.5585	0.09	829117	keystroke_i	i	n/a
414.6785	0.12	829357	keystroke_c	c	n/a
414.8135	0.135	829627	keystroke_e	e	n/a
414.9185	0.09	829837	keystroke_Key.space	Key.space	n/a
415.0535	0.075	830107	keystroke_d	d	n/a
415.1285	0.09	830257	keystroke_o	o	n/a
415.2035	0.09	830407	keystroke_n	n	n/a
415.3085	0.15	830617	keystroke_a	a	n/a
415.3985	0.09	830797	keystroke_t	t	n/a
415.5035	0.135	831007	keystroke_i	i	n/a
415.5785	0.105	831157	keystroke_o	o	n/a
415.6535	0.135	831307	keystroke_n	n	n/a
415.7735	0.075	831547	keystroke_Key.space	Key.space	n/a
415.8635	0.12	831727	keystroke_a	a	n/a
415.9385	0.09	831877	keystroke_l	l	n/a
416.208	0.105	832416	keystroke_p	p	n/a
416.328	0.105	832656	keystroke_h	h	n/a
416.448	0.18	832896	keystroke_a	a	n/a
416.628	0.075	833256	keystroke_Key.space	Key.space	n/a
416.973	0.09	833946	keystroke_i	i	n/a
417.273	0.09	834546	keystroke_'	'	n/a
417.408	0.105	834816	keystroke_v	v	n/a
417.573	0.105	835146	keystroke_e	e	n/a
417.888	0.09	835776	keystroke_Key.enter	Key.enter	n/a
417.983	7.827	835966	prompt	n/a	grace blake explosion functioning\n
418.6085	0.06	837217	keystroke_g	g	n/a
418.7285	0.135	837457	keystroke_r	r	n/a
418.8185	0.135	837637	keystroke_a	a	n/a
419.0585	0.135	838117	keystroke_c	c	n/a
419.1785	0.135	838357	keystroke_e	e	n/a
419.2985	0.075	838597	keystroke_Key.space	Key.space	n/a
419.4485	0.105	838897	keystroke_b	b	n/a
419.5385	0.075	839077	keystroke_l	l	n/a
419.6285	0.105	839257	keystroke_a	a	n/a
419.718	0.1055	839436	keystroke_k	k	n/a
419.8385	0.09	839677	keystroke_e	e	n/a
419.9435	0.045	839887	keystroke_Key.space	Key.space	n/a
420.0485	0.06	840097	keystroke_e	e	n/a
420.2135	0.105	840427	keystroke_x	x	n/a
420.3035	0.075	840607	keystroke_p	p	n/a
420.4535	0.06	840907	keystroke_l	l	n/a
420.5885	0.09	841177	keystroke_o	o	n/a
420.6935	0.105	841387	keystroke_s	s	n/a
421.6385	0.09	843277	keystroke_u	u	n/a
422.5835	0.075	845167	keystroke_Key.backspace	Key.backspace	n/a
422.8235	0.12	845647	keystroke_i	i	n/a
422.9885	0.075	845977	keystroke_o	o	n/a
423.1385	0.1045	846277	keystroke_n	n	n/a
423.513	0.1055	847026	keystroke_Key.space	Key.space	n/a
424.2935	0.105	848587	keystroke_f	f	n/a
424.4135	0.045	848827	keystroke_u	u	n/a
424.5335	0.12	849067	keystroke_n	n	n/a
424.6235	0.075	849247	keystroke_c	c	n/a
424.7735	0.091	849547	keystroke_t	t	n/a
424.8485	0.15	849697	keystroke_i	i	n/a
424.9085	0.105	849817	keystroke_o	o	n/a
424.9685	0.105	849937	keystroke_n	n	n/a
425.1185	0.105	850237	keystroke_i	i	n/a
425.1935	0.12	850387	keystroke_n	n	n/a
425.2835	0.075	850567	keystroke_g	g	n/a
425.6885	0.12	851377	keystroke_Key.enter	Key.enter	n/a
425.8125	4.7975	851625	prompt	n/a	readily explosion infected entry\n
426.573	0.135	853146	keystroke_r	r	n/a
426.663	0.12	853326	keystroke_e	e	n/a
426.738	0.135	853476	keystroke_a	a	n/a
426.888	0.12	853776	keystroke_d	d	n/a
426.993	0.075	853986	keystroke_i	i	n/a
427.0695	0.1035	854139	keystroke_l	l	n/a
427.188	0.09	854376	keystroke_y	y	n/a
427.278	0.06	854556	keystroke_Key.space	Key.space	n/a
427.383	0.06	854766	keystroke_e	e	n/a
427.548	0.1055	855096	keystroke_x	x	n/a
427.6235	0.12	855247	keystroke_p	p	n/a
427.8335	0.06	855667	keystroke_l	l	n/a
427.954	0.105	855908	keystroke_o	o	n/a
428.074	0.12	856148	keystroke_s	s	n/a
428.179	0.15	856358	keystroke_i	i	n/a
428.284	0.105	856568	keystroke_o	o	n/a
428.344	0.135	856688	keystroke_n	n	n/a
428.494	0.075	856988	keystroke_Key.space	Key.space	n/a
428.614	0.09	857228	keystroke_i	i	n/a
428.689	0.09	857378	keystroke_n	n	n/a
428.779	0.105	857558	keystroke_f	f	n/a
428.929	0.1045	857858	keystroke_e	e	n/a
429.1535	0.06	858307	keystroke_c	c	n/a
429.3335	0.09	858667	keystroke_t	t	n/a
429.4085	0.075	858817	keystroke_e	e	n/a
429.5435	0.12	859087	keystroke_d	d	n/a
429.6335	0.09	859267	keystroke_Key.space	Key.space	n/a
429.8735	0.075	859747	keystroke_e	e	n/a
429.9785	0.105	859957	keystroke_n	n	n/a
430.0685	0.06	860137	keystroke_t	t	n/a
430.2035	0.09	860407	keystroke_r	r	n/a
430.2635	0.09	860527	keystroke_y	y	n/a
430.5035	0.105	861007	keystroke_Key.enter	Key.enter	n/a
430.6145	4.1355	861229	prompt	n/a	i'll richard planning pages\n
431.2385	0.09	862477	keystroke_i	i	n/a
431.4185	0.105	862837	keystroke_'	'	n/a
431.5985	0.045	863197	keystroke_l	l	n/a
431.7185	0.09	863437	keystroke_l	l	n/a
431.838	0.09	863676	keystroke_Key.space	Key.space	n/a
431.958	0.091	863916	keystroke_r	r	n/a
432.093	0.09	864186	keystroke_i	i	n/a
432.198	0.105	864396	keystroke_c	c	n/a
432.288	0.09	864576	keystroke_h	h	n/a
432.363	0.12	864726	keystroke_a	a	n/a
432.453	0.105	864906	keystroke_r	r	n/a
432.573	0.12	865146	keystroke_d	d	n/a
432.648	0.09	865296	keystroke_Key.space	Key.space	n/a
432.768	0.09	865536	keystroke_p	p	n/a
432.903	0.105	865806	keystroke_l	l	n/a
432.978	0.135	865956	keystroke_a	a	n/a
433.128	0.045	866256	keystroke_n	n	n/a
433.264	0.074	866528	keystroke_n	n	n/a
433.4285	0.105	866857	keystroke_i	i	n/a
433.5035	0.12	867007	keystroke_n	n	n/a
433.5785	0.105	867157	keystroke_g	g	n/a
433.6535	0.105	867307	keystroke_Key.space	Key.space	n/a
433.7885	0.12	867577	keystroke_p	p	n/a
433.8935	0.105	867787	keystroke_a	a	n/a
433.9685	0.06	867937	keystroke_g	g	n/a
434.0735	0.12	868147	keystroke_e	e	n/a
434.2085	0.195	868417	keystroke_s	s	n/a
434.644	0.105	869288	keystroke_Key.enter	Key.enter	n/a
434.754	17.696	869508	prompt	n/a	collins strengths milwaukee launches\n
435.664	0.165	871328	keystroke_c	c	n/a
435.799	0.06	871598	keystroke_o	o	n/a
435.979	0.06	871958	keystroke_l	l	n/a
436.099	0.075	872198	keystroke_l	l	n/a
436.279	0.105	872558	keystroke_i	i	n/a
436.354	0.12	872708	keystroke_n	n	n/a
436.459	0.06	872918	keystroke_g	g	n/a
436.954	0.06	873908	keystroke_Key.backspace	Key.backspace	n/a
