onset	duration	sample	value	key	prompt_text
8.7265	12.669	17453	prompt	n/a	the quick brown fox jumps over a lazy dog\n
10.8685	0.0535	21737	keystroke_e	e	n/a
10.8685	0.1135	21737	keystroke_Key.space	Key.space	n/a
11.477	0.06	22954	keystroke_Key.backspace	Key.backspace	n/a
11.612	0.06	23224	keystroke_Key.backspace	Key.backspace	n/a
11.762	0.105	23524	keystroke_Key.backspace	Key.backspace	n/a
11.942	0.15	23884	keystroke_t	t	n/a
12.137	0.135	24274	keystroke_h	h	n/a
12.257	0.15	24514	keystroke_e	e	n/a
12.437	0.1205	24874	keystroke_Key.space	Key.space	n/a
13.143	0.165	26286	keystroke_q	q	n/a
13.293	0.18	26586	keystroke_u	u	n/a
13.413	0.1645	26826	keystroke_i	i	n/a
13.6225	0.195	27245	keystroke_c	c	n/a
13.7725	0.195	27545	keystroke_k	k	n/a
13.9375	0.21	27875	keystroke_Key.space	Key.space	n/a
14.1625	0.1945	28325	keystroke_b	b	n/a
14.298	0.135	28596	keystroke_r	r	n/a
14.447	0.195	28894	keystroke_o	o	n/a
14.612	0.18	29224	keystroke_w	w	n/a
14.762	0.181	29524	keystroke_n	n	n/a
14.897	0.12	29794	keystroke_Key.space	Key.space	n/a
15.378	0.089	30756	keystroke_f	f	n/a
15.512	0.15	31024	keystroke_o	o	n/a
15.722	0.15	31444	keystroke_x	x	n/a
15.887	0.12	31774	keystroke_Key.space	Key.space	n/a
16.157	0.12	32314	keystroke_j	j	n/a
16.217	0.15	32434	keystroke_u	u	n/a
16.427	0.2555	32854	keystroke_m	m	n/a
16.6225	0.165	33245	keystroke_p	p	n/a
16.7575	0.24	33515	keystroke_s	s	n/a
16.9675	0.165	33935	keystroke_Key.space	Key.space	n/a
17.1175	0.165	34235	keystroke_o	o	n/a
17.2975	0.15	34595	keystroke_v	v	n/a
17.4925	0.165	34985	keystroke_e	e	n/a
17.7625	0.135	35525	keystroke_r	r	n/a
17.9275	0.12	35855	keystroke_Key.space	Key.space	n/a
18.3475	0.105	36695	keystroke_a	a	n/a
18.5125	0.12	37025	keystroke_Key.space	Key.space	n/a
18.7225	0.15	37445	keystroke_l	l	n/a
18.8875	0.165	37775	keystroke_a	a	n/a
20.028	0.165	40056	keystroke_z	z	n/a
20.237	0.151	40474	keystroke_y	y	n/a
20.357	0.1505	40714	keystroke_Key.space	Key.space	n/a
20.6275	0.12	41255	keystroke_d	d	n/a
20.7175	0.225	41435	keystroke_o	o	n/a
20.9575	0.135	41915	keystroke_g	g	n/a
21.288	0.105	42576	keystroke_Key.enter	Key.enter	n/a
21.4	6.0695	42800	prompt	n/a	instantly thru ebony walnut\n
22.1425	0.21	44285	keystroke_i	i	n/a
22.2475	0.195	44495	keystroke_n	n	n/a
22.3975	0.165	44795	keystroke_s	s	n/a
22.6225	0.09	45245	keystroke_t	t	n/a
22.7425	0.15	45485	keystroke_a	a	n/a
22.8475	0.18	45695	keystroke_n	n	n/a
23.0575	0.135	46115	keystroke_t	t	n/a
23.1625	0.1655	46325	keystroke_l	l	n/a
23.358	0.12	46716	keystroke_y	y	n/a
23.463	0.12	46926	keystroke_Key.space	Key.space	n/a
24.138	0.06	48276	keystroke_t	t	n/a
24.183	0.03	48366	keystroke_h	h	n/a
24.228	0.1495	48456	keystroke_r	r	n/a
24.3925	0.2105	48785	keystroke_u	u	n/a
24.543	0.15	49086	keystroke_Key.space	Key.space	n/a
24.993	0.12	49986	keystroke_e	e	n/a
25.083	0.165	50166	keystroke_b	b	n/a
25.203	0.225	50406	keystroke_o	o	n/a
25.383	0.27	50766	keystroke_n	n	n/a
25.638	0.21	51276	keystroke_y	y	n/a
25.773	0.15	51546	keystroke_Key.space	Key.space	n/a
26.103	0.12	52206	keystroke_w	w	n/a
26.313	0.15	52626	keystroke_a	a	n/a
26.463	0.18	52926	keystroke_l	l	n/a
26.613	0.2245	53226	keystroke_n	n	n/a
26.778	0.1795	53556	keystroke_u	u	n/a
26.9275	0.12	53855	keystroke_t	t	n/a
27.3475	0.12	54695	keystroke_Key.enter	Key.enter	n/a
27.4745	8.2155	54949	prompt	n/a	show write plots crop\n
28.248	0.165	56496	keystroke_s	s	n/a
28.383	0.135	56766	keystroke_h	h	n/a
28.458	0.165	56916	keystroke_o	o	n/a
28.713	0.09	57426	keystroke_w	w	n/a
28.818	0.15	57636	keystroke_Key.space	Key.space	n/a
28.878	0.03	57756	keystroke_w	w	n/a
29.1175	0.105	58235	keystroke_w	w	n/a
29.868	0.09	59736	keystroke_Key.backspace	Key.backspace	n/a
30.048	0.06	60096	keystroke_Key.backspace	Key.backspace	n/a
30.453	0.1195	60906	keystroke_w	w	n/a
30.6625	0.105	61325	keystroke_i	i	n/a
31.0675	0.075	62135	keystroke_Key.backspace	Key.backspace	n/a
31.1725	0.135	62345	keystroke_r	r	n/a
31.3975	0.135	62795	keystroke_i	i	n/a
31.5625	0.135	63125	keystroke_t	t	n/a
31.833	0.165	63666	keystroke_e	e	n/a
31.953	0.12	63906	keystroke_Key.space	Key.space	n/a
32.148	0.1945	64296	keystroke_p	p	n/a
32.2975	0.15	64595	keystroke_l	l	n/a
32.523	0.15	65046	keystroke_o	o	n/a
32.613	0.15	65226	keystroke_t	t	n/a
32.853	0.135	65706	keystroke_s	s	n/a
33.003	0.12	66006	keystroke_Key.space	Key.space	n/a
33.858	0.12	67716	keystroke_c	c	n/a
34.3525	0.075	68705	keystroke_t	t	n/a
34.863	0.015	69726	keystroke_Key.backspace	Key.backspace	n/a
34.953	0.135	69906	keystroke_r	r	n/a
35.163	0.18	70326	keystroke_o	o	n/a
35.298	0.135	70596	keystroke_p	p	n/a
35.613	0.075	71226	keystroke_Key.enter	Key.enter	n/a
35.6945	8.35	71389	prompt	n/a	collapse very infringement fight\n
36.468	0.135	72936	keystroke_c	c	n/a
36.633	0.09	73266	keystroke_o	o	n/a
36.828	0.075	73656	keystroke_l	l	n/a
36.948	0.105	73896	keystroke_l	l	n/a
37.143	0.12	74286	keystroke_a	a	n/a
37.2775	0.105	74555	keystroke_p	p	n/a
37.5625	0.12	75125	keystroke_s	s	n/a
37.8475	0.18	75695	keystroke_e	e	n/a
37.9825	0.105	75965	keystroke_Key.space	Key.space	n/a
38.5225	0.1205	77045	keystroke_v	v	n/a
38.6125	0.1355	77225	keystroke_e	e	n/a
38.823	0.195	77646	keystroke_r	r	n/a
38.943	0.225	77886	keystroke_y	y	n/a
39.123	0.135	78246	keystroke_Key.space	Key.space	n/a
39.423	0.18	78846	keystroke_i	i	n/a
39.543	0.165	79086	keystroke_n	n	n/a
39.828	0.12	79656	keystroke_f	f	n/a
39.993	0.1495	79986	keystroke_r	r	n/a
40.173	0.225	80346	keystroke_i	i	n/a
40.308	0.165	80616	keystroke_n	n	n/a
40.458	0.1355	80916	keystroke_g	g	n/a
40.9985	0.18	81997	keystroke_e	e	n/a
41.1935	0.15	82387	keystroke_m	m	n/a
41.3275	0.135	82655	keystroke_e	e	n/a
41.4475	0.1505	82895	keystroke_n	n	n/a
41.613	0.135	83226	keystroke_t	t	n/a
41.823	0.12	83646	keystroke_Key.space	Key.space	n/a
42.663	0.15	85326	keystroke_f	f	n/a
42.798	0.165	85596	keystroke_i	i	n/a
42.978	0.135	85956	keystroke_g	g	n/a
43.098	0.09	86196	keystroke_h	h	n/a
43.203	0.15	86406	keystroke_t	t	n/a
43.938	0.105	87876	keystroke_Key.enter	Key.enter	n/a
44.0475	10.1975	88095	prompt	n/a	installation travels painted purchase\n
44.763	0.165	89526	keystroke_i	i	n/a
44.868	0.105	89736	keystroke_n	n	n/a
45.048	0.195	90096	keystroke_s	s	n/a
45.303	0.12	90606	keystroke_t	t	n/a
45.753	0.105	91506	keystroke_a	a	n/a
45.978	0.075	91956	keystroke_l	l	n/a
46.128	0.12	92256	keystroke_l	l	n/a
46.263	0.105	92526	keystroke_a	a	n/a
46.6525	0.135	93305	keystroke_t	t	n/a
46.8025	0.1505	93605	keystroke_i	i	n/a
46.923	0.255	93846	keystroke_o	o	n/a
47.058	0.165	94116	keystroke_n	n	n/a
47.163	0.15	94326	keystroke_Key.space	Key.space	n/a
47.343	0.12	94686	keystroke_t	t	n/a
48.198	0.12	96396	keystroke_r	r	n/a
48.528	0.135	97056	keystroke_a	a	n/a
48.693	0.135	97386	keystroke_v	v	n/a
49.173	0.135	98346	keystroke_w	w	n/a
49.518	0.075	99036	keystroke_Key.backspace	Key.backspace	n/a
49.7425	0.12	99485	keystroke_e	e	n/a
49.9075	0.135	99815	keystroke_l	l	n/a
50.2525	0.105	100505	keystroke_s	s	n/a
50.3725	0.12	100745	keystroke_Key.space	Key.space	n/a
50.5375	0.135	101075	keystroke_p	p	n/a
50.7025	0.15	101405	keystroke_a	a	n/a
50.8675	0.18	101735	keystroke_i	i	n/a
51.003	0.1195	102006	keystroke_n	n	n/a
51.1525	0.0905	102305	keystroke_t	t	n/a
51.423	0.135	102846	keystroke_e	e	n/a
51.6935	0.15	103387	keystroke_d	d	n/a
51.8285	0.105	103657	keystroke_Key.space	Key.space	n/a
51.9925	0.076	103985	keystroke_p	p	n/a
52.1885	0.12	104377	keystroke_u	u	n/a
52.788	0.075	105576	keystroke_r	r	n/a
53.043	0.105	106086	keystroke_c	c	n/a
53.133	0.09	106266	keystroke_h	h	n/a
53.418	0.015	106836	keystroke_a	a	n/a
53.553	0.105	107106	keystroke_s	s	n/a
53.808	0.135	107616	keystroke_e	e	n/a
54.138	0.105	108276	keystroke_Key.enter	Key.enter	n/a
54.248	9.087	108496	prompt	n/a	thickness activity cells lesser\n
54.933	0.1195	109866	keystroke_t	t	n/a
55.0675	0.225	110135	keystroke_h	h	n/a
55.2475	0.15	110495	keystroke_i	i	n/a
55.4425	0.135	110885	keystroke_c	c	n/a
55.5625	0.1355	111125	keystroke_k	k	n/a
55.7135	0.1795	111427	keystroke_n	n	n/a
55.9385	0.135	111877	keystroke_e	e	n/a
56.5235	0.0895	113047	keystroke_s	s	n/a
56.703	0.1055	113406	keystroke_s	s	n/a
56.8535	0.12	113707	keystroke_Key.space	Key.space	n/a
57.2435	0.12	114487	keystroke_a	a	n/a
57.4835	0.12	114967	keystroke_c	c	n/a
57.723	0.105	115446	keystroke_t	t	n/a
57.843	0.105	115686	keystroke_i	i	n/a
57.993	0.18	115986	keystroke_v	v	n/a
58.188	0.12	116376	keystroke_i	i	n/a
58.323	0.135	116646	keystroke_t	t	n/a
58.488	0.195	116976	keystroke_y	y	n/a
58.638	0.165	117276	keystroke_Key.space	Key.space	n/a
58.938	0.135	117876	keystroke_v	v	n/a
59.2685	0.075	118537	keystroke_e	e	n/a
59.628	0.075	119256	keystroke_Key.backspace	Key.backspace	n/a
59.778	0.075	119556	keystroke_Key.backspace	Key.backspace	n/a
59.928	0.15	119856	keystroke_c	c	n/a
60.138	0.12	120276	keystroke_e	e	n/a
60.273	0.105	120546	keystroke_l	l	n/a
60.438	0.135	120876	keystroke_l	l	n/a
60.753	0.075	121506	keystroke_Key.space	Key.space	n/a
61.173	0.09	122346	keystroke_Key.backspace	Key.backspace	n/a
61.263	0.12	122526	keystroke_s	s	n/a
61.413	0.105	122826	keystroke_Key.space	Key.space	n/a
61.758	0.1355	123516	keystroke_l	l	n/a
62.1025	0.121	124205	keystroke_e	e	n/a
62.4035	0.09	124807	keystroke_s	s	n/a
62.5835	0.089	125167	keystroke_s	s	n/a
62.7625	0.075	125525	keystroke_e	e	n/a
62.9435	0.1195	125887	keystroke_r	r	n/a
63.243	0.0905	126486	keystroke_Key.enter	Key.enter	n/a
63.3385	8.277	126677	prompt	n/a	reduction biological properly statutory\n
64.1885	0.104	128377	keystroke_r	r	n/a
64.3535	0.12	128707	keystroke_e	e	n/a
64.623	0.12	129246	keystroke_d	d	n/a
64.773	0.12	129546	keystroke_u	u	n/a
64.878	0.135	129756	keystroke_c	c	n/a
65.148	0.165	130296	keystroke_t	t	n/a
65.298	0.165	130596	keystroke_i	i	n/a
65.433	0.225	130866	keystroke_o	o	n/a
65.583	0.18	131166	keystroke_n	n	n/a
65.703	0.15	131406	keystroke_Key.space	Key.space	n/a
65.9135	0.165	131827	keystroke_p	p	n/a
66.1375	0.165	132275	keystroke_r	r	n/a
66.2875	0.12	132575	keystroke_o	o	n/a
66.693	0.12	133386	keystroke_p	p	n/a
66.933	0.195	133866	keystroke_e	e	n/a
67.203	0.06	134406	keystroke_r	r	n/a
67.3685	0.134	134737	keystroke_l	l	n/a
67.7125	0.135	135425	keystroke_y	y	n/a
67.8925	0.15	135785	keystroke_Key.space	Key.space	n/a
68.718	0.15	137436	keystroke_s	s	n/a
68.928	0.12	137856	keystroke_t	t	n/a
69.168	0.15	138336	keystroke_a	a	n/a
69.423	0.12	138846	keystroke_t	t	n/a
69.588	0.135	139176	keystroke_u	u	n/a
70.3685	0.135	140737	keystroke_t	t	n/a
70.5335	0.165	141067	keystroke_o	o	n/a
70.9085	0.15	141817	keystroke_r	r	n/a
71.1335	0.12	142267	keystroke_y	y	n/a
71.5085	0.104	143017	keystroke_Key.enter	Key.enter	n/a
71.6205	12.0395	143241	prompt	n/a	factor forecasts assigned phpbb\n
72.3785	0.09	144757	keystroke_f	f	n/a
72.5735	0.15	145147	keystroke_a	a	n/a
72.7685	0.09	145537	keystroke_c	c	n/a
72.9635	0.105	145927	keystroke_t	t	n/a
73.0985	0.15	146197	keystroke_o	o	n/a
73.2635	0.12	146527	keystroke_r	r	n/a
73.4135	0.135	146827	keystroke_Key.space	Key.space	n/a
73.9835	0.2545	147967	keystroke_f	f	n/a
74.088	0.165	148176	keystroke_o	o	n/a
74.268	0.105	148536	keystroke_r	r	n/a
74.449	0.149	148898	keystroke_e	e	n/a
74.733	0.12	149466	keystroke_c	c	n/a
74.973	0.135	149946	keystroke_a	a	n/a
75.348	0.12	150696	keystroke_s	s	n/a
75.648	0.12	151296	keystroke_t	t	n/a
75.978	0.1945	151956	keystroke_s	s	n/a
76.1875	0.105	152375	keystroke_Key.space	Key.space	n/a
76.548	0.135	153096	keystroke_a	a	n/a
76.8335	0.075	153667	keystroke_s	s	n/a
77.0135	0.09	154027	keystroke_s	s	n/a
77.2385	0.12	154477	keystroke_i	i	n/a
77.3435	0.12	154687	keystroke_g	g	n/a
77.508	0.12	155016	keystroke_n	n	n/a
77.643	0.12	155286	keystroke_e	e	n/a
78.063	0.165	156126	keystroke_d	d	n/a
78.363	0.105	156726	keystroke_Key.space	Key.space	n/a
78.678	0.135	157356	keystroke_p	p	n/a
78.903	0.12	157806	keystroke_h	h	n/a
79.8935	0.165	159787	keystroke_p	p	n/a
80.7785	0.09	161557	keystroke_h	h	n/a
81.3335	0.09	162667	keystroke_Key.backspace	Key.backspace	n/a
82.4585	0.0895	164917	keystroke_b	b	n/a
82.623	0.1205	165246	keystroke_b	b	n/a
83.5385	0.1195	167077	keystroke_Key.enter	Key.enter	n/a
83.6625	7.752	167325	prompt	n/a	cheapest knowing work majority\n
84.408	0.1505	168816	keystroke_c	c	n/a
84.4985	0.135	168997	keystroke_h	h	n/a
84.7385	0.105	169477	keystroke_e	e	n/a
84.9485	0.12	169897	keystroke_a	a	n/a
85.1585	0.135	170317	keystroke_p	p	n/a
85.2785	0.135	170557	keystroke_e	e	n/a
85.8035	0.105	171607	keystroke_s	s	n/a
86.088	0.135	172176	keystroke_r	r	n/a
86.193	0.12	172386	keystroke_Key.space	Key.space	n/a
86.628	0.075	173256	keystroke_Key.backspace	Key.backspace	n/a
86.763	0.12	173526	keystroke_Key.backspace	Key.backspace	n/a
86.883	0.12	173766	keystroke_t	t	n/a
87.048	0.15	174096	keystroke_Key.space	Key.space	n/a
87.243	0.21	174486	keystroke_k	k	n/a
87.378	0.2095	174756	keystroke_n	n	n/a
87.4835	0.179	174967	keystroke_o	o	n/a
87.9485	0.1495	175897	keystroke_w	w	n/a
88.1575	0.15	176315	keystroke_i	i	n/a
88.2625	0.166	176525	keystroke_n	n	n/a
88.4575	0.151	176915	keystroke_g	g	n/a
88.5785	0.12	177157	keystroke_Key.space	Key.space	n/a
88.7285	0.15	177457	keystroke_w	w	n/a
88.8335	0.15	177667	keystroke_o	o	n/a
88.9985	0.18	177997	keystroke_r	r	n/a
89.1635	0.21	178327	keystroke_k	k	n/a
89.2985	0.1495	178597	keystroke_Key.space	Key.space	n/a
89.523	0.12	179046	keystroke_m	m	n/a
89.673	0.12	179346	keystroke_a	a	n/a
90.183	0.165	180366	keystroke_j	j	n/a
90.303	0.15	180606	keystroke_o	o	n/a
90.468	0.135	180936	keystroke_r	r	n/a
90.573	0.12	181146	keystroke_i	i	n/a
90.768	0.105	181536	keystroke_t	t	n/a
90.888	0.15	181776	keystroke_y	y	n/a
91.2935	0.12	182587	keystroke_Key.enter	Key.enter	n/a
91.418	9.372	182836	prompt	n/a	affiliated calling communication theater\n
92.1635	0.12	184327	keystroke_a	a	n/a
92.3885	0.075	184777	keystroke_f	f	n/a
92.523	0.1345	185046	keystroke_f	f	n/a
92.6735	0.164	185347	keystroke_i	i	n/a
92.8085	0.195	185617	keystroke_l	l	n/a
92.9585	0.179	185917	keystroke_i	i	n/a
93.0935	0.134	186187	keystroke_a	a	n/a
93.4525	0.091	186905	keystroke_t	t	n/a
93.7385	0.135	187477	keystroke_e	e	n/a
94.2035	0.12	188407	keystroke_d	d	n/a
94.3375	0.136	188675	keystroke_Key.space	Key.space	n/a
95.1035	0.12	190207	keystroke_c	c	n/a
95.4035	0.165	190807	keystroke_a	a	n/a
95.6285	0.105	191257	keystroke_l	l	n/a
95.793	0.1655	191586	keystroke_l	l	n/a
95.9435	0.21	191887	keystroke_i	i	n/a
96.0935	0.18	192187	keystroke_n	n	n/a
96.2585	0.135	192517	keystroke_g	g	n/a
96.4235	0.1045	192847	keystroke_Key.space	Key.space	n/a
96.783	0.135	193566	keystroke_c	c	n/a
96.903	0.105	193806	keystroke_o	o	n/a
97.143	0.075	194286	keystroke_m	m	n/a
97.2925	0.151	194585	keystroke_m	m	n/a
97.4435	0.165	194887	keystroke_u	u	n/a
97.5935	0.255	195187	keystroke_n	n	n/a
97.7575	0.166	195515	keystroke_i	i	n/a
97.9385	0.135	195877	keystroke_c	c	n/a
98.1785	0.135	196357	keystroke_a	a	n/a
98.4485	0.134	196897	keystroke_t	t	n/a
98.5985	0.195	197197	keystroke_i	i	n/a
98.7345	0.299	197469	keystroke_o	o	n/a
98.8985	0.225	197797	keystroke_n	n	n/a
99.0485	0.12	198097	keystroke_Key.space	Key.space	n/a
99.1985	0.165	198397	keystroke_t	t	n/a
99.3035	0.135	198607	keystroke_h	h	n/a
99.5435	0.105	199087	keystroke_e	e	n/a
99.7385	0.12	199477	keystroke_a	a	n/a
99.9935	0.1045	199987	keystroke_t	t	n/a
100.233	0.105	200466	keystroke_e	e	n/a
100.398	0.12	200796	keystroke_r	r	n/a
100.683	0.105	201366	keystroke_Key.enter	Key.enter	n/a
100.793	8.502	201586	prompt	n/a	picking anything memory relevant\n
101.4485	0.105	202897	keystroke_p	p	n/a
101.613	0.135	203226	keystroke_i	i	n/a
101.778	0.12	203556	keystroke_c	c	n/a
101.913	0.09	203826	keystroke_k	k	n/a
102.138	0.18	204276	keystroke_i	i	n/a
102.273	0.105	204546	keystroke_n	n	n/a
102.393	0.12	204786	keystroke_g	g	n/a
102.528	0.105	205056	keystroke_Key.space	Key.space	n/a
102.768	0.135	205536	keystroke_a	a	n/a
102.918	0.105	205836	keystroke_n	n	n/a
103.098	0.105	206196	keystroke_y	y	n/a
103.3235	0.12	206647	keystroke_t	t	n/a
103.4585	0.134	206917	keystroke_h	h	n/a
103.5775	0.1965	207155	keystroke_i	i	n/a
103.713	0.18	207426	keystroke_n	n	n/a
103.833	0.15	207666	keystroke_g	g	n/a
103.984	0.119	207968	keystroke_Key.space	Key.space	n/a
104.163	0.135	208326	keystroke_m	m	n/a
104.313	0.15	208626	keystroke_e	e	n/a
104.418	0.18	208836	keystroke_m	m	n/a
104.538	0.135	209076	keystroke_o	o	n/a
104.793	0.135	209586	keystroke_y	y	n/a
105.273	0.105	210546	keystroke_Key.backspace	Key.backspace	n/a
105.4685	0.135	210937	keystroke_t	t	n/a
105.6785	0.1195	211357	keystroke_y	y	n/a
106.053	0.075	212106	keystroke_Key.backspace	Key.backspace	n/a
106.203	0.09	212406	keystroke_Key.backspace	Key.backspace	n/a
106.818	0.12	213636	keystroke_r	r	n/a
107.058	0.09	214116	keystroke_y	y	n/a
107.208	0.12	214416	keystroke_Key.space	Key.space	n/a
107.7035	0.09	215407	keystroke_r	r	n/a
107.8835	0.135	215767	keystroke_e	e	n/a
108.0035	0.12	216007	keystroke_l	l	n/a
108.1535	0.135	216307	keystroke_e	e	n/a
108.3185	0.105	216637	keystroke_v	v	n/a
108.4685	0.1345	216937	keystroke_a	a	n/a
108.648	0.12	217296	keystroke_n	n	n/a
108.813	0.135	217626	keystroke_t	t	n/a
109.188	0.105	218376	keystroke_Key.enter	Key.enter	n/a
109.2975	8.7275	218595	prompt	n/a	recognize best electronics pavilion\n
110.103	0.09	220206	keystroke_r	r	n/a
110.268	0.105	220536	keystroke_e	e	n/a
110.539	0.1045	221078	keystroke_c	c	n/a
110.6735	0.12	221347	keystroke_o	o	n/a
110.8235	0.1045	221647	keystroke_g	g	n/a
110.988	0.195	221976	keystroke_n	n	n/a
111.153	0.1205	222306	keystroke_i	i	n/a
111.3035	0.135	222607	keystroke_z	z	n/a
111.5435	0.1495	223087	keystroke_e	e	n/a
111.723	0.1205	223446	keystroke_Key.space	Key.space	n/a
111.9485	0.105	223897	keystroke_b	b	n/a
112.0685	0.12	224137	keystroke_e	e	n/a
112.293	0.12	224586	keystroke_s	s	n/a
112.5785	0.105	225157	keystroke_t	t	n/a
112.7135	0.135	225427	keystroke_Key.space	Key.space	n/a
113.1185	0.12	226237	keystroke_e	e	n/a
113.2685	0.135	226537	keystroke_l	l	n/a
113.3435	0.135	226687	keystroke_e	e	n/a
113.673	0.105	227346	keystroke_c	c	n/a
113.928	0.06	227856	keystroke_t	t	n/a
114.528	0.09	229056	keystroke_r	r	n/a
114.619	0.119	229238	keystroke_o	o	n/a
114.8285	0.195	229657	keystroke_n	n	n/a
114.9475	0.1805	229895	keystroke_i	i	n/a
115.083	0.09	230166	keystroke_c	c	n/a
115.323	0.12	230646	keystroke_s	s	n/a
115.518	0.12	231036	keystroke_Key.space	Key.space	n/a
115.803	0.105	231606	keystroke_p	p	n/a
115.938	0.12	231876	keystroke_a	a	n/a
116.418	0.105	232836	keystroke_v	v	n/a
116.538	0.165	233076	keystroke_i	i	n/a
116.688	0.24	233376	keystroke_l	l	n/a
116.883	0.18	233766	keystroke_i	i	n/a
117.048	0.21	234096	keystroke_o	o	n/a
117.213	0.15	234426	keystroke_n	n	n/a
117.8585	0.165	235717	keystroke_Key.enter	Key.enter	n/a
118.028	7.827	236056	prompt	n/a	socks tracked forbidden guides\n
118.893	0.165	237786	keystroke_s	s	n/a
118.968	0.15	237936	keystroke_o	o	n/a
119.133	0.165	238266	keystroke_c	c	n/a
119.283	0.135	238566	keystroke_k	k	n/a
119.433	0.18	238866	keystroke_s	s	n/a
119.598	0.135	239196	keystroke_Key.space	Key.space	n/a
120.048	0.0905	240096	keystroke_t	t	n/a
120.2285	0.09	240457	keystroke_r	r	n/a
120.4685	0.075	240937	keystroke_a	a	n/a
120.663	0.09	241326	keystroke_c	c	n/a
120.783	0.105	241566	keystroke_k	k	n/a
120.933	0.135	241866	keystroke_e	e	n/a
121.203	0.12	242406	keystroke_d	d	n/a
121.338	0.075	242676	keystroke_Key.space	Key.space	n/a
121.788	0.105	243576	keystroke_f	f	n/a
121.908	0.12	243816	keystroke_o	o	n/a
121.998	0.12	243996	keystroke_r	r	n/a
122.163	0.135	244326	keystroke_b	b	n/a
122.313	0.135	244626	keystroke_i	i	n/a
122.493	0.075	244986	keystroke_d	d	n/a
122.658	0.075	245316	keystroke_d	d	n/a
123.0935	0.1195	246187	keystroke_e	e	n/a
123.318	0.135	246636	keystroke_s	s	n/a
123.663	0.09	247326	keystroke_Key.backspace	Key.backspace	n/a
123.9335	0.15	247867	keystroke_n	n	n/a
124.0535	0.105	248107	keystroke_Key.space	Key.space	n/a
124.5785	0.12	249157	keystroke_g	g	n/a
124.7285	0.195	249457	keystroke_u	u	n/a
124.8935	0.15	249787	keystroke_i	i	n/a
125.0135	0.12	250027	keystroke_d	d	n/a
125.2385	0.09	250477	keystroke_e	e	n/a
125.4185	0.135	250837	keystroke_s	s	n/a
125.7635	0.09	251527	keystroke_Key.enter	Key.enter	n/a
125.8575	5.4725	251715	prompt	n/a	lemon gains distance dolls\n
126.4535	0.1495	252907	keystroke_l	l	n/a
126.588	0.15	253176	keystroke_e	e	n/a
126.813	0.165	253626	keystroke_m	m	n/a
126.933	0.3155	253866	keystroke_o	o	n/a
127.158	0.1805	254316	keystroke_n	n	n/a
127.3085	0.12	254617	keystroke_Key.space	Key.space	n/a
127.5485	0.135	255097	keystroke_g	g	n/a
127.6985	0.165	255397	keystroke_a	a	n/a
127.8635	0.225	255727	keystroke_i	i	n/a
128.0135	0.3	256027	keystroke_n	n	n/a
128.1785	0.195	256357	keystroke_s	s	n/a
128.3285	0.15	256657	keystroke_Key.space	Key.space	n/a
128.704	0.15	257408	keystroke_d	d	n/a
128.869	0.15	257738	keystroke_i	i	n/a
129.004	0.15	258008	keystroke_s	s	n/a
129.274	0.09	258548	keystroke_t	t	n/a
129.4225	0.1355	258845	keystroke_a	a	n/a
129.604	0.1495	259208	keystroke_n	n	n/a
129.7385	0.12	259477	keystroke_c	c	n/a
129.949	0.1795	259898	keystroke_e	e	n/a
130.0835	0.105	260167	keystroke_Key.space	Key.space	n/a
130.3235	0.09	260647	keystroke_d	d	n/a
130.4285	0.105	260857	keystroke_o	o	n/a
130.6685	0.075	261337	keystroke_l	l	n/a
130.8185	0.09	261637	keystroke_l	l	n/a
130.9985	0.15	261997	keystroke_s	s	n/a
131.2235	0.105	262447	keystroke_Key.enter	Key.enter	n/a
131.3325	6.9725	262665	prompt	n/a	blessed mother desirable disney\n
132.078	0.21	264156	keystroke_b	b	n/a
132.228	0.18	264456	keystroke_l	l	n/a
132.348	0.12	264696	keystroke_e	e	n/a
132.664	0.074	265328	keystroke_s	s	n/a
132.843	0.09	265686	keystroke_s	s	n/a
133.023	0.091	266046	keystroke_e	e	n/a
133.233	0.105	266466	keystroke_d	d	n/a
133.399	0.074	266798	keystroke_Key.space	Key.space	n/a
133.563	0.165	267126	keystroke_m	m	n/a
133.668	0.18	267336	keystroke_o	o	n/a
133.819	0.119	267638	keystroke_t	t	n/a
134.013	0.1355	268026	keystroke_h	h	n/a
134.1185	0.135	268237	keystroke_e	e	n/a
134.2985	0.135	268597	keystroke_r	r	n/a
134.4635	0.1195	268927	keystroke_Key.space	Key.space	n/a
134.958	0.075	269916	keystroke_d	d	n/a
135.138	0.076	270276	keystroke_e	e	n/a
135.318	0.1205	270636	keystroke_s	s	n/a
135.4535	0.12	270907	keystroke_i	i	n/a
135.6185	0.075	271237	keystroke_r	r	n/a
135.8435	0.12	271687	keystroke_a	a	n/a
135.9935	0.18	271987	keystroke_b	b	n/a
136.1285	0.195	272257	keystroke_l	l	n/a
136.2485	0.15	272497	keystroke_e	e	n/a
136.4135	0.1195	272827	keystroke_Key.space	Key.space	n/a
136.578	0.15	273156	keystroke_d	d	n/a
136.713	0.105	273426	keystroke_i	i	n/a
136.863	0.12	273726	keystroke_s	s	n/a
137.013	0.09	274026	keystroke_n	n	n/a
137.133	0.105	274266	keystroke_e	e	n/a
137.8235	0.105	275647	keystroke_y	y	n/a
138.198	0.105	276396	keystroke_Key.enter	Key.enter	n/a
138.308	6.192	276616	prompt	n/a	repeat wear assets solved\n
138.978	0.105	277956	keystroke_r	r	n/a
139.143	0.15	278286	keystroke_e	e	n/a
139.278	0.135	278556	keystroke_p	p	n/a
139.414	0.074	278828	keystroke_e	e	n/a
139.728	0.1055	279456	keystroke_a	a	n/a
139.8485	0.165	279697	keystroke_t	t	n/a
139.9835	0.1345	279967	keystroke_Key.space	Key.space	n/a
140.193	0.12	280386	keystroke_w	w	n/a
140.373	0.105	280746	keystroke_e	e	n/a
140.6435	0.12	281287	keystroke_a	a	n/a
140.8685	0.0895	281737	keystroke_r	r	n/a
141.033	0.105	282066	keystroke_Key.space	Key.space	n/a
141.4235	0.075	282847	keystroke_a	a	n/a
141.6785	0.06	283357	keystroke_s	s	n/a
141.8285	0.06	283657	keystroke_s	s	n/a
142.0085	0.09	284017	keystroke_e	e	n/a
142.2485	0.09	284497	keystroke_t	t	n/a
142.4885	0.135	284977	keystroke_s	s	n/a
142.6385	0.12	285277	keystroke_Key.space	Key.space	n/a
143.1035	0.165	286207	keystroke_s	s	n/a
143.2835	0.105	286567	keystroke_o	o	n/a
143.5085	0.105	287017	keystroke_l	l	n/a
143.6435	0.12	287287	keystroke_v	v	n/a
143.8535	0.135	287707	keystroke_e	e	n/a
144.1085	0.105	288217	keystroke_d	d	n/a
144.4085	0.09	288817	keystroke_Key.enter	Key.enter	n/a
144.5035	9.7165	289007	prompt	n/a	questions interesting assigned obituaries\n
145.3235	0.12	290647	keystroke_q	q	n/a
145.5185	0.12	291037	keystroke_u	u	n/a
145.6535	0.075	291307	keystroke_e	e	n/a
145.8785	0.09	291757	keystroke_s	s	n/a
146.1335	0.09	292267	keystroke_t	t	n/a
146.2085	0.195	292417	keystroke_i	i	n/a
146.3735	0.24	292747	keystroke_o	o	n/a
146.5535	0.18	293107	keystroke_n	n	n/a
146.6885	0.195	293377	keystroke_s	s	n/a
146.8835	0.12	293767	keystroke_Key.space	Key.space	n/a
147.1385	0.1945	294277	keystroke_i	i	n/a
147.273	0.151	294546	keystroke_n	n	n/a
147.438	0.09	294876	keystroke_t	t	n/a
147.648	0.1055	295296	keystroke_e	e	n/a
147.8435	0.09	295687	keystroke_r	r	n/a
147.9935	0.09	295987	keystroke_e	e	n/a
148.2185	0.105	296437	keystroke_s	s	n/a
148.4285	0.0895	296857	keystroke_t	t	n/a
148.549	0.254	297098	keystroke_i	i	n/a
148.714	0.15	297428	keystroke_n	n	n/a
148.849	0.1645	297698	keystroke_g	g	n/a
149.0285	0.1195	298057	keystroke_Key.space	Key.space	n/a
149.644	0.104	299288	keystroke_a	a	n/a
149.823	0.09	299646	keystroke_s	s	n/a
150.003	0.105	300006	keystroke_s	s	n/a
150.168	0.135	300336	keystroke_i	i	n/a
150.318	0.105	300636	keystroke_g	g	n/a
150.453	0.12	300906	keystroke_n	n	n/a
150.618	0.12	301236	keystroke_e	e	n/a
150.843	0.15	301686	keystroke_d	d	n/a
151.008	0.12	302016	keystroke_Key.space	Key.space	n/a
151.594	0.119	303188	keystroke_o	o	n/a
151.9385	0.165	303877	keystroke_b	b	n/a
152.0435	0.1645	304087	keystroke_i	i	n/a
152.223	0.12	304446	keystroke_t	t	n/a
152.373	0.12	304746	keystroke_u	u	n/a
152.568	0.135	305136	keystroke_a	a	n/a
152.868	0.09	305736	keystroke_r	r	n/a
153.003	0.12	306006	keystroke_i	i	n/a
153.5135	0.015	307027	keystroke_e	e	n/a
153.7535	0.135	307507	keystroke_s	s	n/a
154.1135	0.105	308227	keystroke_Key.enter	Key.enter	n/a
154.225	9.46	308450	prompt	n/a	financing moreover award exec\n
154.954	0.104	309908	keystroke_f	f	n/a
155.073	0.1805	310146	keystroke_i	i	n/a
155.1785	0.15	310357	keystroke_n	n	n/a
155.2685	0.135	310537	keystroke_a	a	n/a
155.4785	0.12	310957	keystroke_n	n	n/a
155.6285	0.165	311257	keystroke_c	c	n/a
155.7785	0.18	311557	keystroke_i	i	n/a
155.8985	0.18	311797	keystroke_n	n	n/a
156.0485	0.15	312097	keystroke_g	g	n/a
156.1835	0.12	312367	keystroke_Key.space	Key.space	n/a
156.7085	0.195	313417	keystroke_m	m	n/a
156.8285	0.195	313657	keystroke_o	o	n/a
156.9335	0.12	313867	keystroke_r	r	n/a
157.1135	0.135	314227	keystroke_e	e	n/a
157.3235	0.135	314647	keystroke_v	v	n/a
157.4435	0.15	314887	keystroke_o	o	n/a
157.9985	0.075	315997	keystroke_Key.backspace	Key.backspace	n/a
158.1785	0.075	316357	keystroke_Key.backspace	Key.backspace	n/a
158.4485	0.15	316897	keystroke_o	o	n/a
158.6135	0.18	317227	keystroke_v	v	n/a
158.8385	0.18	317677	keystroke_e	e	n/a
159.0185	0.21	318037	keystroke_r	r	n/a
159.1985	0.135	318397	keystroke_Key.space	Key.space	n/a
159.6935	0.12	319387	keystroke_w	w	n/a
159.9485	0.165	319897	keystroke_a	a	n/a
160.3685	0.075	320737	keystroke_Key.backspace	Key.backspace	n/a
160.5035	0.12	321007	keystroke_Key.backspace	Key.backspace	n/a
160.6535	0.225	321307	keystroke_a	a	n/a
160.8635	0.135	321727	keystroke_w	w	n/a
161.0585	0.15	322117	keystroke_a	a	n/a
161.614	0.105	323228	keystroke_r	r	n/a
161.8385	0.12	323677	keystroke_d	d	n/a
161.9285	0.135	323857	keystroke_Key.space	Key.space	n/a
162.3035	0.105	324607	keystroke_e	e	n/a
162.573	0.105	325146	keystroke_x	x	n/a
163.083	0.06	326166	keystroke_e	e	n/a
163.293	0.09	326586	keystroke_c	c	n/a
163.578	0.1055	327156	keystroke_Key.enter	Key.enter	n/a
163.69	9.3995	327380	prompt	n/a	texas pupils armenia cologne\n
164.748	0.15	329496	keystroke_t	t	n/a
164.823	0.12	329646	keystroke_e	e	n/a
165.093	0.09	330186	keystroke_x	x	n/a
165.303	0.135	330606	keystroke_a	a	n/a
165.513	0.1655	331026	keystroke_s	s	n/a
165.6635	0.1045	331327	keystroke_Key.space	Key.space	n/a
166.233	0.12	332466	keystroke_p	p	n/a
166.803	0.12	333606	keystroke_u	u	n/a
167.313	0.12	334626	keystroke_p	p	n/a
167.538	0.06	335076	keystroke_u	u	n/a
168.0335	0.075	336067	keystroke_Key.backspace	Key.backspace	n/a
168.3785	0.1345	336757	keystroke_i	i	n/a
168.498	0.21	336996	keystroke_l	l	n/a
168.663	0.18	337326	keystroke_s	s	n/a
168.828	0.165	337656	keystroke_Key.space	Key.space	n/a
169.023	0.12	338046	keystroke_a	a	n/a
169.2785	0.105	338557	keystroke_r	r	n/a
169.3985	0.105	338797	keystroke_m	m	n/a
169.548	0.1495	339096	keystroke_e	e	n/a
169.6825	0.256	339365	keystroke_n	n	n/a
169.8485	0.195	339697	keystroke_i	i	n/a
169.9985	0.18	339997	keystroke_a	a	n/a
170.1625	0.12	340325	keystroke_Key.space	Key.space	n/a
170.9125	0.121	341825	keystroke_c	c	n/a
171.048	0.105	342096	keystroke_o	o	n/a
171.288	0.075	342576	keystroke_l	l	n/a
171.618	0.12	343236	keystroke_o	o	n/a
171.783	0.105	343566	keystroke_g	g	n/a
171.903	0.12	343806	keystroke_n	n	n/a
172.473	0.165	344946	keystroke_e	e	n/a
172.968	0.12	345936	keystroke_Key.enter	Key.enter	n/a
173.093	11.4315	346186	prompt	n/a	solutions inquiries trailers battle\n
173.853	0.1805	347706	keystroke_s	s	n/a
173.9885	0.075	347977	keystroke_o	o	n/a
174.1835	0.1195	348367	keystroke_l	l	n/a
174.3635	0.12	348727	keystroke_u	u	n/a
174.4985	0.1195	348997	keystroke_t	t	n/a
174.678	0.15	349356	keystroke_i	i	n/a
174.798	0.225	349596	keystroke_o	o	n/a
174.948	0.2405	349896	keystroke_n	n	n/a
175.0985	0.195	350197	keystroke_s	s	n/a
175.2785	0.12	350557	keystroke_Key.space	Key.space	n/a
175.6085	0.2095	351217	keystroke_i	i	n/a
175.7585	0.1195	351517	keystroke_n	n	n/a
176.133	0.18	352266	keystroke_q	q	n/a
176.298	0.24	352596	keystroke_u	u	n/a
176.478	0.165	352956	keystroke_i	i	n/a
176.763	0.105	353526	keystroke_t	t	n/a
176.928	0.1355	353856	keystroke_i	i	n/a
177.123	0.1655	354246	keystroke_e	e	n/a
177.3935	0.135	354787	keystroke_s	s	n/a
177.5135	0.09	355027	keystroke_Key.space	Key.space	n/a
177.948	0.075	355896	keystroke_Key.backspace	Key.backspace	n/a
178.113	0.09	356226	keystroke_Key.backspace	Key.backspace	n/a
178.368	0.075	356736	keystroke_Key.backspace	Key.backspace	n/a
178.563	0.06	357126	keystroke_Key.backspace	Key.backspace	n/a
178.758	0.06	357516	keystroke_Key.backspace	Key.backspace	n/a
179.463	0.03	358926	keystroke_t	t	n/a
179.688	0.075	359376	keystroke_Key.backspace	Key.backspace	n/a
179.823	0.1055	359646	keystroke_r	r	n/a
179.9585	0.105	359917	keystroke_i	i	n/a
180.1085	0.105	360217	keystroke_e	e	n/a
180.3485	0.105	360697	keystroke_s	s	n/a
180.4385	0.104	360877	keystroke_Key.space	Key.space	n/a
180.9635	0.105	361927	keystroke_t	t	n/a
181.2035	0.15	362407	keystroke_r	r	n/a
181.548	0.12	363096	keystroke_a	a	n/a
181.713	0.18	363426	keystroke_i	i	n/a
181.848	0.195	363696	keystroke_l	l	n/a
181.998	0.09	363996	keystroke_e	e	n/a
182.1785	0.105	364357	keystroke_r	r	n/a
182.6285	0.165	365257	keystroke_s	s	n/a
182.8835	0.105	365767	keystroke_Key.space	Key.space	n/a
183.1835	0.075	366367	keystroke_b	b	n/a
183.2885	0.1205	366577	keystroke_a	a	n/a
183.603	0.045	367206	keystroke_t	t	n/a
183.7235	0.09	367447	keystroke_t	t	n/a
183.9185	0.135	367837	keystroke_l	l	n/a
184.0685	0.15	368137	keystroke_e	e	n/a
184.3985	0.12	368797	keystroke_Key.enter	Key.enter	n/a
184.5295	9.291	369059	prompt	n/a	organ halifax eligibility bell\n
185.1635	0.135	370327	keystroke_o	o	n/a
185.3135	0.12	370627	keystroke_r	r	n/a
185.5085	0.1195	371017	keystroke_g	g	n/a
185.718	0.165	371436	keystroke_a	a	n/a
185.913	0.18	371826	keystroke_n	n	n/a
186.033	0.15	372066	keystroke_Key.space	Key.space	n/a
186.6485	0.09	373297	keystroke_h	h	n/a
186.6935	0.135	373387	keystroke_a	a	n/a
186.8885	0.195	373777	keystroke_l	l	n/a
187.0235	0.165	374047	keystroke_i	i	n/a
187.1735	0.15	374347	keystroke_f	f	n/a
187.3985	0.135	374797	keystroke_a	a	n/a
188.4635	0.12	376927	keystroke_x	x	n/a
188.6285	0.135	377257	keystroke_Key.space	Key.space	n/a
189.5885	0.15	379177	keystroke_e	e	n/a
189.8435	0.2395	379687	keystroke_l	l	n/a
190.023	0.195	380046	keystroke_i	i	n/a
190.233	0.135	380466	keystroke_g	g	n/a
190.443	0.1505	380886	keystroke_i	i	n/a
190.8635	0.179	381727	keystroke_b	b	n/a
191.0275	0.196	382055	keystroke_i	i	n/a
191.1925	0.24	382385	keystroke_l	l	n/a
191.3885	0.15	382777	keystroke_i	i	n/a
191.5835	0.12	383167	keystroke_t	t	n/a
191.7785	0.12	383557	keystroke_y	y	n/a
192.0185	0.105	384037	keystroke_Key.space	Key.space	n/a
192.4835	0.135	384967	keystroke_b	b	n/a
192.6935	0.135	385387	keystroke_e	e	n/a
192.8735	0.105	385747	keystroke_l	l	n/a
193.0535	0.135	386107	keystroke_l	l	n/a
193.6985	0.12	387397	keystroke_Key.enter	Key.enter	n/a
193.829	8.976	387658	prompt	n/a	problem scsi creating enquiries\n
194.5535	0.12	389107	keystroke_p	p	n/a
194.6885	0.12	389377	keystroke_r	r	n/a
194.8535	0.15	389707	keystroke_o	o	n/a
195.1385	0.135	390277	keystroke_b	b	n/a
195.349	0.135	390698	keystroke_l	l	n/a
195.484	0.179	390968	keystroke_e	e	n/a
195.708	0.195	391416	keystroke_m	m	n/a
195.873	0.105	391746	keystroke_Key.space	Key.space	n/a
196.218	0.12	392436	keystroke_s	s	n/a
196.563	0.06	393126	keystroke_c	c	n/a
196.773	0.15	393546	keystroke_s	s	n/a
196.938	0.21	393876	keystroke_i	i	n/a
197.163	0.105	394326	keystroke_Key.space	Key.space	n/a
197.658	0.045	395316	keystroke_c	c	n/a
197.913	0.06	395826	keystroke_r	r	n/a
198.168	0.106	396336	keystroke_e	e	n/a
198.4385	0.12	396877	keystroke_a	a	n/a
198.708	0.1055	397416	keystroke_t	t	n/a
198.9035	0.195	397807	keystroke_i	i	n/a
199.0385	0.165	398077	keystroke_n	n	n/a
199.1885	0.1795	398377	keystroke_g	g	n/a
199.3385	0.1195	398677	keystroke_Key.space	Key.space	n/a
200.2235	0.105	400447	keystroke_e	e	n/a
200.4935	0.09	400987	keystroke_n	n	n/a
200.7035	0.12	401407	keystroke_q	q	n/a
200.8385	0.1795	401677	keystroke_u	u	n/a
200.958	0.12	401916	keystroke_i	i	n/a
201.093	0.135	402186	keystroke_r	r	n/a
201.303	0.165	402606	keystroke_i	i	n/a
201.544	0.1195	403088	keystroke_e	e	n/a
201.7985	0.105	403597	keystroke_s	s	n/a
201.9185	0.09	403837	keystroke_Key.space	Key.space	n/a
202.3685	0.075	404737	keystroke_Key.backspace	Key.backspace	n/a
202.7885	0.015	405577	keystroke_Key.enter	Key.enter	n/a
202.812	6.758	405624	prompt	n/a	discussions mens stroke flower\n
203.628	0.09	407256	keystroke_d	d	n/a
203.733	0.135	407466	keystroke_i	i	n/a
203.853	0.09	407706	keystroke_s	s	n/a
204.048	0.09	408096	keystroke_c	c	n/a
204.183	0.105	408366	keystroke_u	u	n/a
204.3335	0.105	408667	keystroke_s	s	n/a
204.5135	0.135	409027	keystroke_s	s	n/a
204.6185	0.165	409237	keystroke_i	i	n/a
204.7535	0.255	409507	keystroke_o	o	n/a
204.9185	0.27	409837	keystroke_n	n	n/a
205.0685	0.18	410137	keystroke_s	s	n/a
205.2335	0.135	410467	keystroke_Key.space	Key.space	n/a
205.3535	0.195	410707	keystroke_m	m	n/a
205.5485	0.1355	411097	keystroke_e	e	n/a
205.699	0.1645	411398	keystroke_n	n	n/a
205.8785	0.2095	411757	keystroke_s	s	n/a
206.0285	0.1345	412057	keystroke_Key.space	Key.space	n/a
206.284	0.1345	412568	keystroke_s	s	n/a
206.5685	0.0745	413137	keystroke_t	t	n/a
206.748	0.105	413496	keystroke_r	r	n/a
206.883	0.225	413766	keystroke_o	o	n/a
207.048	0.195	414096	keystroke_k	k	n/a
207.258	0.15	414516	keystroke_e	e	n/a
207.468	0.135	414936	keystroke_Key.space	Key.space	n/a
208.219	0.074	416438	keystroke_f	f	n/a
208.308	0.09	416616	keystroke_l	l	n/a
208.504	0.1345	417008	keystroke_o	o	n/a
208.6235	0.12	417247	keystroke_w	w	n/a
208.804	0.1195	417608	keystroke_e	e	n/a
209.0135	0.1655	418027	keystroke_r	r	n/a
209.464	0.105	418928	keystroke_Key.enter	Key.enter	n/a
209.5745	7.0455	419149	prompt	n/a	fellow device conclude not\n
210.3185	0.075	420637	keystroke_f	f	n/a
210.4985	0.105	420997	keystroke_e	e	n/a
210.6635	0.075	421327	keystroke_l	l	n/a
210.8285	0.0895	421657	keystroke_l	l	n/a
211.008	0.15	422016	keystroke_o	o	n/a
211.143	0.18	422286	keystroke_w	w	n/a
211.3385	0.105	422677	keystroke_Key.space	Key.space	n/a
211.503	0.105	423006	keystroke_d	d	n/a
211.713	0.105	423426	keystroke_e	e	n/a
212.2535	0.12	424507	keystroke_c	c	n/a
212.4335	0.12	424867	keystroke_i	i	n/a
212.869	0.06	425738	keystroke_Key.backspace	Key.backspace	n/a
213.019	0.09	426038	keystroke_Key.backspace	Key.backspace	n/a
213.1835	0.12	426367	keystroke_v	v	n/a
213.3185	0.15	426637	keystroke_i	i	n/a
213.5135	0.09	427027	keystroke_c	c	n/a
213.7085	0.135	427417	keystroke_e	e	n/a
213.8585	0.12	427717	keystroke_Key.space	Key.space	n/a
214.0685	0.195	428137	keystroke_c	c	n/a
214.1435	0.195	428287	keystroke_o	o	n/a
214.3085	0.15	428617	keystroke_n	n	n/a
214.4885	0.15	428977	keystroke_c	c	n/a
214.6235	0.18	429247	keystroke_l	l	n/a
214.8185	0.135	429637	keystroke_u	u	n/a
214.9235	0.075	429847	keystroke_c	c	n/a
215.2535	0.075	430507	keystroke_Key.backspace	Key.backspace	n/a
215.3435	0.075	430687	keystroke_d	d	n/a
215.5385	0.135	431077	keystroke_e	e	n/a
215.6585	0.12	431317	keystroke_Key.space	Key.space	n/a
215.8535	0.195	431707	keystroke_n	n	n/a
216.0035	0.135	432007	keystroke_o	o	n/a
216.1235	0.165	432247	keystroke_t	t	n/a
216.4985	0.1195	432997	keystroke_Key.enter	Key.enter	n/a
216.6235	6.1915	433247	prompt	n/a	marc handmade chance described\n
217.3085	0.165	434617	keystroke_m	m	n/a
217.4285	0.135	434857	keystroke_a	a	n/a
217.6535	0.09	435307	keystroke_r	r	n/a
217.9385	0.09	435877	keystroke_c	c	n/a
218.0735	0.12	436147	keystroke_Key.space	Key.space	n/a
218.3885	0.105	436777	keystroke_h	h	n/a
218.5235	0.195	437047	keystroke_a	a	n/a
218.6735	0.105	437347	keystroke_n	n	n/a
218.7935	0.12	437587	keystroke_d	d	n/a
218.9585	0.12	437917	keystroke_m	m	n/a
219.0935	0.105	438187	keystroke_a	a	n/a
219.3035	0.09	438607	keystroke_d	d	n/a
219.5135	0.09	439027	keystroke_e	e	n/a
219.6185	0.135	439237	keystroke_Key.space	Key.space	n/a
219.7985	0.105	439597	keystroke_c	c	n/a
219.9185	0.1055	439837	keystroke_h	h	n/a
220.054	0.135	440108	keystroke_a	a	n/a
220.219	0.09	440438	keystroke_n	n	n/a
220.354	0.06	440708	keystroke_c	c	n/a
220.564	0.09	441128	keystroke_e	e	n/a
220.684	0.105	441368	keystroke_Key.space	Key.space	n/a
220.894	0.075	441788	keystroke_d	d	n/a
221.044	0.09	442088	keystroke_e	e	n/a
221.254	0.075	442508	keystroke_s	s	n/a
221.4485	0.075	442897	keystroke_c	c	n/a
221.6585	0.075	443317	keystroke_r	r	n/a
221.8685	0.135	443737	keystroke_i	i	n/a
222.1085	0.105	444217	keystroke_b	b	n/a
222.2435	0.105	444487	keystroke_e	e	n/a
222.4235	0.15	444847	keystroke_d	d	n/a
222.7085	0.105	445417	keystroke_Key.enter	Key.enter	n/a
222.819	5.396	445638	prompt	n/a	they're island berlin leon\n
223.5185	0.075	447037	keystroke_t	t	n/a
223.608	0.1205	447216	keystroke_h	h	n/a
223.7435	0.18	447487	keystroke_e	e	n/a
223.8785	0.075	447757	keystroke_y	y	n/a
224.089	0.1045	448178	keystroke_'	'	n/a
224.223	0.135	448446	keystroke_r	r	n/a
224.418	0.135	448836	keystroke_e	e	n/a
224.613	0.15	449226	keystroke_Key.space	Key.space	n/a
224.838	0.1355	449676	keystroke_i	i	n/a
224.9885	0.105	449977	keystroke_s	s	n/a
225.153	0.1355	450306	keystroke_l	l	n/a
225.289	0.119	450578	keystroke_a	a	n/a
225.423	0.1355	450846	keystroke_n	n	n/a
225.5735	0.1205	451147	keystroke_d	d	n/a
225.723	0.106	451446	keystroke_Key.space	Key.space	n/a
225.9935	0.12	451987	keystroke_b	b	n/a
226.0985	0.135	452197	keystroke_e	e	n/a
226.4435	0.015	452887	keystroke_r	r	n/a
226.4735	0.18	452947	keystroke_l	l	n/a
226.6085	0.255	453217	keystroke_i	i	n/a
226.7735	0.24	453547	keystroke_n	n	n/a
226.9685	0.105	453937	keystroke_Key.space	Key.space	n/a
227.3135	0.165	454627	keystroke_l	l	n/a
227.4635	0.135	454927	keystroke_e	e	n/a
227.6135	0.21	455227	keystroke_o	o	n/a
227.7785	0.165	455557	keystroke_n	n	n/a
228.1235	0.0895	456247	keystroke_Key.enter	Key.enter	n/a
228.218	7.6475	456436	prompt	n/a	why's record receiving accepts\n
228.933	0.1055	457866	keystroke_w	w	n/a
229.0235	0.195	458047	keystroke_h	h	n/a
229.158	0.1205	458316	keystroke_y	y	n/a
229.3985	0.1505	458797	keystroke_'	'	n/a
229.564	0.135	459128	keystroke_s	s	n/a
229.669	0.135	459338	keystroke_Key.space	Key.space	n/a
229.864	0.105	459728	keystroke_r	r	n/a
230.074	0.09	460148	keystroke_e	e	n/a
230.284	0.105	460568	keystroke_c	c	n/a
230.404	0.135	460808	keystroke_o	o	n/a
230.569	0.09	461138	keystroke_r	r	n/a
230.794	0.1645	461588	keystroke_d	d	n/a
230.9735	0.135	461947	keystroke_Key.space	Key.space	n/a
231.3035	0.105	462607	keystroke_r	r	n/a
231.4835	0.105	462967	keystroke_e	e	n/a
231.768	0.06	463536	keystroke_v	v	n/a
232.098	0.075	464196	keystroke_Key.backspace	Key.backspace	n/a
232.204	0.104	464408	keystroke_c	c	n/a
232.489	0.1045	464978	keystroke_e	e	n/a
232.6235	0.105	465247	keystroke_i	i	n/a
232.7585	0.12	465517	keystroke_v	v	n/a
232.9085	0.225	465817	keystroke_i	i	n/a
233.0585	0.165	466117	keystroke_n	n	n/a
233.2085	0.15	466417	keystroke_g	g	n/a
233.6285	0.1195	467257	keystroke_Key.space	Key.space	n/a
234.048	0.09	468096	keystroke_a	a	n/a
234.273	0.075	468546	keystroke_c	c	n/a
234.408	0.091	468816	keystroke_c	c	n/a
234.7835	0.075	469567	keystroke_e	e	n/a
234.904	0.135	469808	keystroke_p	p	n/a
235.039	0.09	470078	keystroke_t	t	n/a
235.294	0.165	470588	keystroke_s	s	n/a
235.774	0.09	471548	keystroke_Key.enter	Key.enter	n/a
235.8685	7.4815	471737	prompt	n/a	toll moderators virus walk\n
236.599	0.104	473198	keystroke_t	t	n/a
236.748	0.105	473496	keystroke_o	o	n/a
236.974	0.09	473948	keystroke_l	l	n/a
237.139	0.2095	474278	keystroke_l	l	n/a
237.3035	0.18	474607	keystroke_Key.space	Key.space	n/a
237.4085	0.24	474817	keystroke_m	m	n/a
237.5585	0.195	475117	keystroke_o	o	n/a
237.7235	0.075	475447	keystroke_d	d	n/a
237.9035	0.075	475807	keystroke_e	e	n/a
238.0535	0.09	476107	keystroke_r	r	n/a
238.2785	0.09	476557	keystroke_a	a	n/a
238.534	0.075	477068	keystroke_t	t	n/a
238.654	0.12	477308	keystroke_o	o	n/a
238.759	0.09	477518	keystroke_r	r	n/a
238.999	0.15	477998	keystroke_s	s	n/a
239.164	0.105	478328	keystroke_Key.space	Key.space	n/a
239.704	0.089	479408	keystroke_v	v	n/a
239.824	0.135	479648	keystroke_i	i	n/a
240.004	0.09	480008	keystroke_r	r	n/a
240.139	0.135	480278	keystroke_u	u	n/a
240.334	0.1795	480668	keystroke_s	s	n/a
240.4985	0.105	480997	keystroke_Key.space	Key.space	n/a
240.8135	0.135	481627	keystroke_q	q	n/a
241.038	0.165	482076	keystroke_a	a	n/a
241.189	0.089	482378	keystroke_l	l	n/a
241.578	0.06	483156	keystroke_Key.backspace	Key.backspace	n/a
241.743	0.075	483486	keystroke_Key.backspace	Key.backspace	n/a
241.923	0.075	483846	keystroke_Key.backspace	Key.backspace	n/a
242.433	0.09	484866	keystroke_w	w	n/a
242.658	0.15	485316	keystroke_a	a	n/a
242.793	0.24	485586	keystroke_l	l	n/a
242.973	0.15	485946	keystroke_k	k	n/a
243.243	0.1055	486486	keystroke_Key.enter	Key.enter	n/a
243.3545	10.9605	486709	prompt	n/a	investigations hewlett crack mozambique\n
244.1885	0.24	488377	keystroke_i	i	n/a
244.3235	0.165	488647	keystroke_n	n	n/a
244.5335	0.09	489067	keystroke_v	v	n/a
244.7585	0.06	489517	keystroke_e	e	n/a
244.9235	0.12	489847	keystroke_s	s	n/a
245.1785	0.075	490357	keystroke_t	t	n/a
245.2985	0.15	490597	keystroke_i	i	n/a
245.4035	0.075	490807	keystroke_g	g	n/a
245.6435	0.09	491287	keystroke_a	a	n/a
245.8985	0.0755	491797	keystroke_t	t	n/a
246.019	0.2095	492038	keystroke_i	i	n/a
246.1835	0.24	492367	keystroke_o	o	n/a
246.3635	0.15	492727	keystroke_n	n	n/a
246.4835	0.1795	492967	keystroke_s	s	n/a
246.648	0.12	493296	keystroke_Key.space	Key.space	n/a
246.814	0.1495	493628	keystroke_h	h	n/a
246.9335	0.105	493867	keystroke_e	e	n/a
247.1135	0.12	494227	keystroke_w	w	n/a
247.278	0.1355	494556	keystroke_l	l	n/a
247.5785	0.0445	495157	keystroke_w	w	n/a
248.028	0.09	496056	keystroke_Key.backspace	Key.backspace	n/a
248.133	0.12	496266	keystroke_e	e	n/a
248.388	0.0755	496776	keystroke_t	t	n/a
248.5385	0.135	497077	keystroke_t	t	n/a
248.7785	0.105	497557	keystroke_Key.space	Key.space	n/a
249.2135	0.09	498427	keystroke_c	c	n/a
249.4835	0.09	498967	keystroke_r	r	n/a
249.7235	0.09	499447	keystroke_a	a	n/a
249.9935	0.12	499987	keystroke_c	c	n/a
250.2185	0.12	500437	keystroke_k	k	n/a
250.3685	0.12	500737	keystroke_Key.space	Key.space	n/a
251.179	0.165	502358	keystroke_m	m	n/a
251.314	0.165	502628	keystroke_o	o	n/a
251.8235	0.075	503647	keystroke_z	z	n/a
252.0185	0.12	504037	keystroke_a	a	n/a
252.1685	0.135	504337	keystroke_m	m	n/a
252.573	0.165	505146	keystroke_b	b	n/a
252.708	0.18	505416	keystroke_i	i	n/a
253.023	0.105	506046	keystroke_q	q	n/a
253.158	0.12	506316	keystroke_u	u	n/a
253.308	0.105	506616	keystroke_e	e	n/a
254.1935	0.12	508387	keystroke_Key.enter	Key.enter	n/a
254.318	6.4925	508636	prompt	n/a	cruises chicken collar schools\n
255.0935	0.09	510187	keystroke_c	c	n/a
255.2735	0.12	510547	keystroke_r	r	n/a
255.4235	0.1955	510847	keystroke_u	u	n/a
255.544	0.1795	511088	keystroke_i	i	n/a
255.649	0.1195	511298	keystroke_s	s	n/a
255.9485	0.0745	511897	keystroke_e	e	n/a
256.2185	0.12	512437	keystroke_s	s	n/a
256.354	0.105	512708	keystroke_Key.space	Key.space	n/a
256.7135	0.12	513427	keystroke_c	c	n/a
256.8635	0.18	513727	keystroke_h	h	n/a
256.9835	0.1645	513967	keystroke_i	i	n/a
257.1635	0.1055	514327	keystroke_c	c	n/a
257.313	0.1205	514626	keystroke_k	k	n/a
257.5235	0.225	515047	keystroke_e	e	n/a
257.658	0.2255	515316	keystroke_n	n	n/a
257.8235	0.12	515647	keystroke_Key.space	Key.space	n/a
257.9885	0.105	515977	keystroke_c	c	n/a
258.1385	0.1055	516277	keystroke_o	o	n/a
258.363	0.075	516726	keystroke_l	l	n/a
258.5285	0.12	517057	keystroke_l	l	n/a
258.5885	0.15	517177	keystroke_a	a	n/a
258.8435	0.135	517687	keystroke_r	r	n/a
259.0685	0.09	518137	keystroke_Key.space	Key.space	n/a
259.2635	0.09	518527	keystroke_s	s	n/a
259.4735	0.09	518947	keystroke_c	c	n/a
259.6385	0.1055	519277	keystroke_h	h	n/a
259.879	0.09	519758	keystroke_o	o	n/a
260.044	0.075	520088	keystroke_o	o	n/a
260.194	0.21	520388	keystroke_l	l	n/a
260.374	0.1645	520748	keystroke_s	s	n/a
260.7035	0.105	521407	keystroke_Key.enter	Key.enter	n/a
260.8135	7.6915	521627	prompt	n/a	alias cuisine travelling shoot\n
261.409	0.15	522818	keystroke_a	a	n/a
261.529	0.1795	523058	keystroke_l	l	n/a
261.694	0.1795	523388	keystroke_i	i	n/a
261.8585	0.2095	523717	keystroke_a	a	n/a
262.053	0.18	524106	keystroke_s	s	n/a
262.248	0.121	524496	keystroke_Key.space	Key.space	n/a
262.534	0.12	525068	keystroke_c	c	n/a
262.669	0.195	525338	keystroke_u	u	n/a
262.834	0.15	525668	keystroke_i	i	n/a
262.969	0.165	525938	keystroke_s	s	n/a
263.149	0.255	526298	keystroke_i	i	n/a
263.329	0.165	526658	keystroke_n	n	n/a
263.494	0.135	526988	keystroke_e	e	n/a
263.644	0.105	527288	keystroke_Key.space	Key.space	n/a
264.019	0.0745	528038	keystroke_t	t	n/a
264.2135	0.1205	528427	keystroke_e	e	n/a
264.724	0.105	529448	keystroke_Key.backspace	Key.backspace	n/a
264.814	0.09	529628	keystroke_r	r	n/a
265.0535	0.135	530107	keystroke_a	a	n/a
265.2185	0.105	530437	keystroke_b	b	n/a
265.8635	0.0905	531727	keystroke_Key.backspace	Key.backspace	n/a
266.059	0.074	532118	keystroke_v	v	n/a
266.284	0.0895	532568	keystroke_e	e	n/a
266.4035	0.1055	532807	keystroke_l	l	n/a
266.599	0.195	533198	keystroke_l	l	n/a
266.734	0.24	533468	keystroke_i	i	n/a
266.884	0.15	533768	keystroke_n	n	n/a
266.989	0.135	533978	keystroke_g	g	n/a
267.169	0.105	534338	keystroke_Key.space	Key.space	n/a
267.319	0.135	534638	keystroke_s	s	n/a
267.499	0.09	534998	keystroke_h	h	n/a
267.709	0.075	535418	keystroke_o	o	n/a
267.874	0.105	535748	keystroke_o	o	n/a
268.024	0.12	536048	keystroke_t	t	n/a
268.414	0.09	536828	keystroke_Key.enter	Key.enter	n/a
268.508	7.512	537016	prompt	n/a	refinance trucks matters dual\n
269.2835	0.075	538567	keystroke_r	r	n/a
269.4635	0.09	538927	keystroke_e	e	n/a
269.6735	0.09	539347	keystroke_f	f	n/a
269.8085	0.225	539617	keystroke_i	i	n/a
269.9585	0.15	539917	keystroke_n	n	n/a
270.1985	0.1205	540397	keystroke_a	a	n/a
270.334	0.12	540668	keystroke_n	n	n/a
270.4985	0.105	540997	keystroke_c	c	n/a
270.7085	0.135	541417	keystroke_e	e	n/a
270.8735	0.12	541747	keystroke_Key.space	Key.space	n/a
271.0535	0.03	542107	keystroke_r	r	n/a
271.6535	0.09	543307	keystroke_Key.backspace	Key.backspace	n/a
271.7735	0.105	543547	keystroke_t	t	n/a
271.9535	0.105	543907	keystroke_r	r	n/a
272.1035	0.12	544207	keystroke_u	u	n/a
272.2385	0.12	544477	keystroke_c	c	n/a
272.4485	0.105	544897	keystroke_k	k	n/a
272.5685	0.135	545137	keystroke_s	s	n/a
272.7335	0.12	545467	keystroke_Key.space	Key.space	n/a
273.2285	0.105	546457	keystroke_m	m	n/a
273.3035	0.105	546607	keystroke_a	a	n/a
273.6185	0.075	547237	keystroke_t	t	n/a
273.7535	0.09	547507	keystroke_t	t	n/a
273.9935	0.12	547987	keystroke_e	e	n/a
274.2035	0.09	548407	keystroke_r	r	n/a
274.4735	0.1355	548947	keystroke_s	s	n/a
274.624	0.12	549248	keystroke_Key.space	Key.space	n/a
275.134	0.09	550268	keystroke_d	d	n/a
275.269	0.135	550538	keystroke_u	u	n/a
275.419	0.15	550838	keystroke_a	a	n/a
275.599	0.12	551198	keystroke_l	l	n/a
275.914	0.1045	551828	keystroke_Key.enter	Key.enter	n/a
276.024	6.236	552048	prompt	n/a	link public erotica concord\n
276.6935	0.21	553387	keystroke_l	l	n/a
276.8285	0.195	553657	keystroke_i	i	n/a
276.9635	0.3	553927	keystroke_n	n	n/a
277.1735	0.24	554347	keystroke_k	k	n/a
277.3685	0.15	554737	keystroke_Key.space	Key.space	n/a
277.5335	0.15	555067	keystroke_p	p	n/a
277.7285	0.18	555457	keystroke_u	u	n/a
277.8785	0.285	555757	keystroke_b	b	n/a
278.0585	0.195	556117	keystroke_l	l	n/a
278.2085	0.18	556417	keystroke_i	i	n/a
278.3585	0.195	556717	keystroke_c	c	n/a
278.5085	0.12	557017	keystroke_Key.space	Key.space	n/a
279.0635	0.09	558127	keystroke_e	e	n/a
279.2285	0.105	558457	keystroke_r	r	n/a
279.3785	0.135	558757	keystroke_o	o	n/a
279.5285	0.135	559057	keystroke_t	t	n/a
279.6485	0.15	559297	keystroke_i	i	n/a
279.8585	0.105	559717	keystroke_c	c	n/a
280.0985	0.18	560197	keystroke_a	a	n/a
280.2635	0.135	560527	keystroke_Key.space	Key.space	n/a
280.774	0.089	561548	keystroke_c	c	n/a
280.848	0.21	561696	keystroke_o	o	n/a
281.014	0.209	562028	keystroke_n	n	n/a
281.148	0.12	562296	keystroke_c	c	n/a
281.299	0.1495	562598	keystroke_o	o	n/a
281.554	0.075	563108	keystroke_r	r	n/a
281.779	0.105	563558	keystroke_d	d	n/a
282.154	0.105	564308	keystroke_Key.enter	Key.enter	n/a
282.2625	9.313	564525	prompt	n/a	response apparel parties seconds\n
283.0085	0.075	566017	keystroke_r	r	n/a
283.2335	0.09	566467	keystroke_e	e	n/a
283.4285	0.135	566857	keystroke_p	p	n/a
283.5185	0.15	567037	keystroke_o	o	n/a
283.683	0.105	567366	keystroke_s	s	n/a
284.163	0.0155	568326	keystroke_Key.backspace	Key.backspace	n/a
284.268	0.09	568536	keystroke_Key.backspace	Key.backspace	n/a
284.4335	0.1355	568867	keystroke_s	s	n/a
285.214	0.06	570428	keystroke_Key.backspace	Key.backspace	n/a
285.334	0.0895	570668	keystroke_Key.backspace	Key.backspace	n/a
285.4385	0.1955	570877	keystroke_s	s	n/a
285.664	0.165	571328	keystroke_p	p	n/a
285.799	0.21	571598	keystroke_o	o	n/a
285.949	0.105	571898	keystroke_n	n	n/a
286.188	0.03	572376	keystroke_c	c	n/a
286.534	0.074	573068	keystroke_Key.backspace	Key.backspace	n/a
286.639	0.075	573278	keystroke_s	s	n/a
286.789	0.134	573578	keystroke_e	e	n/a
286.938	0.09	573876	keystroke_Key.space	Key.space	n/a
287.134	0.105	574268	keystroke_a	a	n/a
287.254	0.075	574508	keystroke_p	p	n/a
287.404	0.149	574808	keystroke_p	p	n/a
287.539	0.105	575078	keystroke_a	a	n/a
287.8985	0.015	575797	keystroke_r	r	n/a
288.3785	0.1345	576757	keystroke_e	e	n/a
288.573	0.255	577146	keystroke_l	l	n/a
288.738	0.135	577476	keystroke_Key.space	Key.space	n/a
288.949	0.179	577898	keystroke_p	p	n/a
289.068	0.105	578136	keystroke_a	a	n/a
289.324	0.09	578648	keystroke_r	r	n/a
289.503	0.0905	579006	keystroke_t	t	n/a
289.6235	0.12	579247	keystroke_i	i	n/a
289.7445	0.119	579489	keystroke_e	e	n/a
289.9835	0.15	579967	keystroke_s	s	n/a
290.1185	0.105	580237	keystroke_Key.space	Key.space	n/a
290.2835	0.105	580567	keystroke_s	s	n/a
290.4785	0.09	580957	keystroke_e	e	n/a
290.7035	0.075	581407	keystroke_c	c	n/a
290.8085	0.18	581617	keystroke_o	o	n/a
290.9585	0.12	581917	keystroke_n	n	n/a
291.0185	0.105	582037	keystroke_d	d	n/a
291.229	0.15	582458	keystroke_s	s	n/a
291.469	0.105	582938	keystroke_Key.enter	Key.enter	n/a
291.5795	10.466	583159	prompt	n/a	collaboration consolidation finding mandatory\n
292.4435	0.0755	584887	keystroke_c	c	n/a
292.564	0.09	585128	keystroke_o	o	n/a
292.789	0.045	585578	keystroke_l	l	n/a
292.909	0.105	585818	keystroke_l	l	n/a
293.044	0.135	586088	keystroke_a	a	n/a
293.224	0.165	586448	keystroke_b	b	n/a
293.359	0.15	586718	keystroke_o	o	n/a
293.464	0.12	586928	keystroke_r	r	n/a
293.7035	0.12	587407	keystroke_a	a	n/a
293.9735	0.105	587947	keystroke_t	t	n/a
294.0795	0.239	588159	keystroke_i	i	n/a
294.2585	0.2405	588517	keystroke_o	o	n/a
294.423	0.2255	588846	keystroke_n	n	n/a
294.5735	0.15	589147	keystroke_Key.space	Key.space	n/a
294.7385	0.135	589477	keystroke_s	s	n/a
295.113	0.075	590226	keystroke_Key.backspace	Key.backspace	n/a
295.249	0.104	590498	keystroke_c	c	n/a
295.414	0.179	590828	keystroke_o	o	n/a
295.533	0.135	591066	keystroke_n	n	n/a
295.623	0.166	591246	keystroke_s	s	n/a
295.803	0.105	591606	keystroke_o	o	n/a
296.0135	0.105	592027	keystroke_l	l	n/a
296.1635	0.135	592327	keystroke_i	i	n/a
296.3285	0.09	592657	keystroke_d	d	n/a
296.539	0.12	593078	keystroke_a	a	n/a
296.839	0.12	593678	keystroke_t	t	n/a
296.914	0.2395	593828	keystroke_i	i	n/a
297.109	0.2245	594218	keystroke_o	o	n/a
297.2735	0.18	594547	keystroke_n	n	n/a
297.3935	0.12	594787	keystroke_Key.space	Key.space	n/a
297.739	0.105	595478	keystroke_d	d	n/a
298.174	0.105	596348	keystroke_Key.backspace	Key.backspace	n/a
298.354	0.09	596708	keystroke_f	f	n/a
298.474	0.239	596948	keystroke_i	i	n/a
298.6535	0.1345	597307	keystroke_n	n	n/a
298.789	0.1195	597578	keystroke_d	d	n/a
298.9535	0.1805	597907	keystroke_i	i	n/a
299.074	0.135	598148	keystroke_n	n	n/a
299.269	0.135	598538	keystroke_g	g	n/a
299.419	0.12	598838	keystroke_Key.space	Key.space	n/a
299.614	0.135	599228	keystroke_m	m	n/a
299.764	0.12	599528	keystroke_a	a	n/a
299.899	0.135	599798	keystroke_n	n	n/a
300.079	0.09	600158	keystroke_d	d	n/a
300.259	0.105	600518	keystroke_a	a	n/a
300.514	0.06	601028	keystroke_y	y	n/a
300.859	0.075	601718	keystroke_Key.backspace	Key.backspace	n/a
300.964	0.12	601928	keystroke_t	t	n/a
301.159	0.135	602318	keystroke_o	o	n/a
301.308	0.106	602616	keystroke_r	r	n/a
301.474	0.105	602948	keystroke_y	y	n/a
301.954	0.09	603908	keystroke_Key.enter	Key.enter	n/a
302.048	10.1225	604096	prompt	n/a	residents incorporate likely flowers\n
302.734	0.09	605468	keystroke_r	r	n/a
302.9285	0.09	605857	keystroke_e	e	n/a
303.1085	0.09	606217	keystroke_d	d	n/a
303.4235	0.075	606847	keystroke_Key.backspace	Key.backspace	n/a
303.5445	0.089	607089	keystroke_s	s	n/a
303.7235	0.105	607447	keystroke_i	i	n/a
303.814	0.0745	607628	keystroke_d	d	n/a
303.9935	0.075	607987	keystroke_e	e	n/a
304.0985	0.1055	608197	keystroke_n	n	n/a
304.3385	0.09	608677	keystroke_t	t	n/a
304.6085	0.165	609217	keystroke_s	s	n/a
304.7745	0.119	609549	keystroke_Key.space	Key.space	n/a
305.2535	0.1955	610507	keystroke_i	i	n/a
305.343	0.1505	610686	keystroke_n	n	n/a
305.4785	0.1205	610957	keystroke_c	c	n/a
305.809	0.105	611618	keystroke_o	o	n/a
305.944	0.15	611888	keystroke_r	r	n/a
306.139	0.18	612278	keystroke_p	p	n/a
306.274	0.195	612548	keystroke_o	o	n/a
306.499	0.135	612998	keystroke_r	r	n/a
307.0535	0.075	614107	keystroke_t	t	n/a
307.489	0.09	614978	keystroke_Key.backspace	Key.backspace	n/a
307.669	0.06	615338	keystroke_a	a	n/a
307.744	0.105	615488	keystroke_a	a	n/a
308.344	0.015	616688	keystroke_Key.backspace	Key.backspace	n/a
308.374	0.105	616748	keystroke_t	t	n/a
308.734	0.12	617468	keystroke_e	e	n/a
309.109	0.09	618218	keystroke_Key.space	Key.space	n/a
309.319	0.165	618638	keystroke_l	l	n/a
309.424	0.105	618848	keystroke_i	i	n/a
309.619	0.135	619238	keystroke_k	k	n/a
309.739	0.15	619478	keystroke_e	e	n/a
309.904	0.1495	619808	keystroke_l	l	n/a
310.0685	0.12	620137	keystroke_y	y	n/a
310.1735	0.135	620347	keystroke_Key.space	Key.space	n/a
310.744	0.09	621488	keystroke_f	f	n/a
310.819	0.09	621638	keystroke_l	l	n/a
310.999	0.1345	621998	keystroke_o	o	n/a
311.1185	0.12	622237	keystroke_w	w	n/a
311.2985	0.1055	622597	keystroke_e	e	n/a
311.479	0.105	622958	keystroke_r	r	n/a
311.719	0.12	623438	keystroke_s	s	n/a
312.064	0.105	624128	keystroke_Key.enter	Key.enter	n/a
312.1735	5.1715	624347	prompt	n/a	martha panama sizes panel\n
312.7685	0.18	625537	keystroke_m	m	n/a
312.9185	0.12	625837	keystroke_a	a	n/a
313.1585	0.075	626317	keystroke_r	r	n/a
313.3085	0.09	626617	keystroke_t	t	n/a
313.4735	0.105	626947	keystroke_h	h	n/a
313.624	0.15	627248	keystroke_a	a	n/a
313.789	0.12	627578	keystroke_Key.space	Key.space	n/a
313.939	0.135	627878	keystroke_p	p	n/a
314.104	0.15	628208	keystroke_a	a	n/a
314.239	0.12	628478	keystroke_n	n	n/a
314.404	0.135	628808	keystroke_a	a	n/a
314.524	0.12	629048	keystroke_m	m	n/a
314.674	0.12	629348	keystroke_a	a	n/a
314.809	0.105	629618	keystroke_Key.space	Key.space	n/a
314.959	0.12	629918	keystroke_s	s	n/a
315.109	0.105	630218	keystroke_i	i	n/a
315.319	0.105	630638	keystroke_z	z	n/a
315.589	0.09	631178	keystroke_e	e	n/a
315.859	0.105	631718	keystroke_s	s	n/a
316.009	0.105	632018	keystroke_Key.space	Key.space	n/a
316.369	0.12	632738	keystroke_p	p	n/a
316.519	0.09	633038	keystroke_a	a	n/a
316.6235	0.12	633247	keystroke_n	n	n/a
316.7585	0.1505	633517	keystroke_e	e	n/a
316.939	0.12	633878	keystroke_l	l	n/a
317.269	0.075	634538	keystroke_Key.enter	Key.enter	n/a
317.348	5.9975	634696	prompt	n/a	poem corporate dayton josh\n
317.9735	0.18	635947	keystroke_p	p	n/a
318.1235	0.195	636247	keystroke_o	o	n/a
318.2735	0.195	636547	keystroke_e	e	n/a
318.4535	0.2555	636907	keystroke_m	m	n/a
318.634	0.12	637268	keystroke_Key.space	Key.space	n/a
318.994	0.135	637988	keystroke_c	c	n/a
319.144	0.135	638288	keystroke_o	o	n/a
319.294	0.09	638588	keystroke_r	r	n/a
319.414	0.165	638828	keystroke_p	p	n/a
319.564	0.15	639128	keystroke_o	o	n/a
319.669	0.09	639338	keystroke_r	r	n/a
319.909	0.0895	639818	keystroke_a	a	n/a
320.1485	0.06	640297	keystroke_t	t	n/a
320.3435	0.12	640687	keystroke_e	e	n/a
320.4935	0.1205	640987	keystroke_Key.space	Key.space	n/a
320.884	0.06	641768	keystroke_d	d	n/a
321.063	0.106	642126	keystroke_a	a	n/a
321.199	0.089	642398	keystroke_y	y	n/a
321.394	0.15	642788	keystroke_t	t	n/a
321.514	0.24	643028	keystroke_o	o	n/a
321.679	0.239	643358	keystroke_n	n	n/a
321.844	0.134	643688	keystroke_Key.space	Key.space	n/a
322.294	0.15	644588	keystroke_j	j	n/a
322.384	0.1645	644768	keystroke_o	o	n/a
322.6235	0.165	645247	keystroke_s	s	n/a
322.8035	0.105	645607	keystroke_h	h	n/a
323.224	0.12	646448	keystroke_Key.enter	Key.enter	n/a
323.35	7.8255	646700	prompt	n/a	enquiry where've metric feet\n
324.139	0.075	648278	keystroke_e	e	n/a
324.319	0.12	648638	keystroke_n	n	n/a
324.544	0.105	649088	keystroke_q	q	n/a
324.694	0.12	649388	keystroke_u	u	n/a
324.769	0.135	649538	keystroke_i	i	n/a
324.979	0.15	649958	keystroke_r	r	n/a
325.189	0.195	650378	keystroke_y	y	n/a
325.354	0.135	650708	keystroke_Key.space	Key.space	n/a
325.729	0.12	651458	keystroke_w	w	n/a
325.924	0.09	651848	keystroke_h	h	n/a
326.059	0.105	652118	keystroke_e	e	n/a
326.239	0.1045	652478	keystroke_r	r	n/a
326.4635	0.075	652927	keystroke_e	e	n/a
326.5985	0.135	653197	keystroke_'	'	n/a
326.8235	0.105	653647	keystroke_d	d	n/a
327.2585	0.09	654517	keystroke_Key.backspace	Key.backspace	n/a
327.3635	0.09	654727	keystroke_v	v	n/a
327.6335	0.12	655267	keystroke_e	e	n/a
327.7985	0.12	655597	keystroke_Key.space	Key.space	n/a
328.3685	0.1205	656737	keystroke_m	m	n/a
328.4735	0.0905	656947	keystroke_e	e	n/a
328.714	0.09	657428	keystroke_t	t	n/a
329.089	0.075	658178	keystroke_r	r	n/a
329.374	0.105	658748	keystroke_i	i	n/a
329.464	0.12	658928	keystroke_c	c	n/a
329.734	0.105	659468	keystroke_Key.space	Key.space	n/a
330.2735	0.075	660547	keystroke_f	f	n/a
330.4685	0.09	660937	keystroke_e	e	n/a
330.6185	0.15	661237	keystroke_e	e	n/a
330.7835	0.09	661567	keystroke_t	t	n/a
331.0835	0.09	662167	keystroke_Key.enter	Key.enter	n/a
331.1785	7.7365	662357	prompt	n/a	interview accommodation alter palace\n
331.849	0.18	663698	keystroke_i	i	n/a
331.969	0.135	663938	keystroke_n	n	n/a
332.074	0.1045	664148	keystroke_t	t	n/a
332.2835	0.12	664567	keystroke_e	e	n/a
332.4635	0.0755	664927	keystroke_r	r	n/a
332.674	0.09	665348	keystroke_v	v	n/a
332.809	0.105	665618	keystroke_i	i	n/a
332.944	0.075	665888	keystroke_e	e	n/a
333.1385	0.12	666277	keystroke_w	w	n/a
333.3485	0.12	666697	keystroke_Key.space	Key.space	n/a
333.6185	0.09	667237	keystroke_a	a	n/a
333.8435	0.075	667687	keystroke_c	c	n/a
333.9785	0.15	667957	keystroke_c	c	n/a
334.1735	0.195	668347	keystroke_o	o	n/a
334.3385	0.2255	668677	keystroke_m	m	n/a
334.744	0.105	669488	keystroke_m	m	n/a
334.879	0.12	669758	keystroke_o	o	n/a
335.314	0.09	670628	keystroke_d	d	n/a
335.539	0.105	671078	keystroke_a	a	n/a
335.809	0.1045	671618	keystroke_t	t	n/a
335.9135	0.21	671827	keystroke_i	i	n/a
336.0785	0.24	672157	keystroke_o	o	n/a
336.2735	0.195	672547	keystroke_n	n	n/a
336.3935	0.135	672787	keystroke_Key.space	Key.space	n/a
336.514	0.165	673028	keystroke_a	a	n/a
336.664	0.135	673328	keystroke_l	l	n/a
336.889	0.105	673778	keystroke_t	t	n/a
337.114	0.105	674228	keystroke_e	e	n/a
337.309	0.12	674618	keystroke_r	r	n/a
337.459	0.164	674918	keystroke_Key.space	Key.space	n/a
337.609	0.195	675218	keystroke_p	p	n/a
337.774	0.134	675548	keystroke_a	a	n/a
337.924	0.15	675848	keystroke_l	l	n/a
338.044	0.105	676088	keystroke_a	a	n/a
338.284	0.0895	676568	keystroke_c	c	n/a
338.539	0.09	677078	keystroke_e	e	n/a
338.809	0.105	677618	keystroke_Key.enter	Key.enter	n/a
338.918	7.7675	677836	prompt	n/a	avoid steering sales dealtime\n
339.634	0.075	679268	keystroke_a	a	n/a
339.874	0.075	679748	keystroke_v	v	n/a
340.039	0.21	680078	keystroke_o	o	n/a
340.189	0.165	680378	keystroke_i	i	n/a
340.339	0.12	680678	keystroke_d	d	n/a
340.474	0.1195	680948	keystroke_Key.space	Key.space	n/a
340.6235	0.12	681247	keystroke_s	s	n/a
340.9695	0.029	681939	keystroke_r	r	n/a
341.1485	0.06	682297	keystroke_e	e	n/a
341.5835	0.045	683167	keystroke_Key.backspace	Key.backspace	n/a
341.7335	0.105	683467	keystroke_Key.backspace	Key.backspace	n/a
341.8685	0.12	683737	keystroke_t	t	n/a
342.1235	0.09	684247	keystroke_e	e	n/a
342.3035	0.09	684607	keystroke_e	e	n/a
342.544	0.09	685088	keystroke_r	r	n/a
342.664	0.24	685328	keystroke_i	i	n/a
342.799	0.18	685598	keystroke_n	n	n/a
342.949	0.135	685898	keystroke_g	g	n/a
343.114	0.105	686228	keystroke_Key.space	Key.space	n/a
343.519	0.105	687038	keystroke_s	s	n/a
343.714	0.15	687428	keystroke_a	a	n/a
343.909	0.1345	687818	keystroke_l	l	n/a
344.0885	0.09	688177	keystroke_e	e	n/a
344.3285	0.105	688657	keystroke_s	s	n/a
344.4485	0.075	688897	keystroke_Key.space	Key.space	n/a
345.079	0.075	690158	keystroke_d	d	n/a
345.244	0.0905	690488	keystroke_e	e	n/a
345.4385	0.12	690877	keystroke_a	a	n/a
345.6185	0.15	691237	keystroke_l	l	n/a
345.8285	0.09	691657	keystroke_t	t	n/a
345.9635	0.225	691927	keystroke_i	i	n/a
346.1285	0.15	692257	keystroke_m	m	n/a
346.3085	0.15	692617	keystroke_e	e	n/a
346.564	0.12	693128	keystroke_Key.enter	Key.enter	n/a
346.6885	14.202	693377	prompt	n/a	button refrigerator portuguese endorsement\n
347.524	0.18	695048	keystroke_b	b	n/a
348.049	0.06	696098	keystroke_u	u	n/a
348.169	0.09	696338	keystroke_t	t	n/a
348.334	0.135	696668	keystroke_t	t	n/a
348.529	0.24	697058	keystroke_o	o	n/a
348.694	0.195	697388	keystroke_n	n	n/a
348.844	0.135	697688	keystroke_Key.space	Key.space	n/a
349.099	0.075	698198	keystroke_r	r	n/a
349.279	0.105	698558	keystroke_e	e	n/a
349.4885	0.09	698977	keystroke_f	f	n/a
349.7435	0.09	699487	keystroke_r	r	n/a
349.8945	0.119	699789	keystroke_i	i	n/a
350.0295	0.074	700059	keystroke_g	g	n/a
350.5535	0.075	701107	keystroke_e	e	n/a
350.7335	0.075	701467	keystroke_r	r	n/a
350.959	0.12	701918	keystroke_a	a	n/a
351.229	0.09	702458	keystroke_t	t	n/a
351.349	0.12	702698	keystroke_o	o	n/a
351.499	0.12	702998	keystroke_r	r	n/a
351.664	0.105	703328	keystroke_Key.space	Key.space	n/a
351.949	0.135	703898	keystroke_p	p	n/a
352.279	0.135	704558	keystroke_o	o	n/a
352.429	0.1195	704858	keystroke_r	r	n/a
353.0885	0.09	706177	keystroke_t	t	n/a
353.2235	0.12	706447	keystroke_u	u	n/a
353.704	0.12	707408	keystroke_g	g	n/a
353.914	0.105	707828	keystroke_u	u	n/a
354.034	0.105	708068	keystroke_e	e	n/a
354.244	0.105	708488	keystroke_s	s	n/a
354.439	0.1195	708878	keystroke_e	e	n/a
354.5735	0.12	709147	keystroke_Key.space	Key.space	n/a
357.276	0.043	714552	keystroke_e	e	n/a
357.379	0.135	714758	keystroke_n	n	n/a
357.559	0.105	715118	keystroke_d	d	n/a
357.994	0.09	715988	keystroke_o	o	n/a
358.264	0.105	716528	keystroke_r	r	n/a
358.609	0.105	717218	keystroke_s	s	n/a
358.789	0.12	717578	keystroke_e	e	n/a
358.939	0.105	717878	keystroke_m	m	n/a
359.029	0.15	718058	keystroke_e	e	n/a
359.164	0.12	718328	keystroke_n	n	n/a
359.299	0.135	718598	keystroke_t	t	n/a
360.754	0.135	721508	keystroke_Key.enter	Key.enter	n/a
360.8935	8.067	721787	prompt	n/a	focus address greatest retreat\n
361.8335	0.09	723667	keystroke_f	f	n/a
361.9685	0.15	723937	keystroke_o	o	n/a
362.1635	0.09	724327	keystroke_c	c	n/a
362.2845	0.119	724569	keystroke_u	u	n/a
362.4795	0.119	724959	keystroke_s	s	n/a
362.6135	0.1195	725227	keystroke_Key.space	Key.space	n/a
362.989	0.0445	725978	keystroke_a	a	n/a
363.1685	0.06	726337	keystroke_d	d	n/a
363.2895	0.089	726579	keystroke_d	d	n/a
363.514	0.0895	727028	keystroke_r	r	n/a
363.6795	0.104	727359	keystroke_e	e	n/a
363.9195	0.0895	727839	keystroke_s	s	n/a
364.069	0.15	728138	keystroke_s	s	n/a
364.219	0.12	728438	keystroke_Key.space	Key.space	n/a
364.7435	0.075	729487	keystroke_g	g	n/a
364.7885	0.075	729577	keystroke_r	r	n/a
364.9985	0.03	729997	keystroke_e	e	n/a
365.3885	0.1355	730777	keystroke_a	a	n/a
365.554	0.09	731108	keystroke_t	t	n/a
365.734	0.12	731468	keystroke_e	e	n/a
366.229	0.105	732458	keystroke_s	s	n/a
366.4985	0.075	732997	keystroke_t	t	n/a
366.6185	0.105	733237	keystroke_Key.space	Key.space	n/a
367.3235	0.06	734647	keystroke_r	r	n/a
367.4885	0.105	734977	keystroke_e	e	n/a
367.6835	0.09	735367	keystroke_t	t	n/a
367.8035	0.0905	735607	keystroke_r	r	n/a
367.999	0.075	735998	keystroke_e	e	n/a
368.269	0.09	736538	keystroke_a	a	n/a
368.569	0.0895	737138	keystroke_t	t	n/a
368.8685	0.09	737737	keystroke_Key.enter	Key.enter	n/a
368.9635	6.567	737927	prompt	n/a	ambient anywhere counting spider\n
369.6035	0.135	739207	keystroke_a	a	n/a
369.7535	0.12	739507	keystroke_m	m	n/a
370.3085	0.21	740617	keystroke_b	b	n/a
370.4435	0.135	740887	keystroke_i	i	n/a
370.6085	0.135	741217	keystroke_e	e	n/a
370.7735	0.105	741547	keystroke_n	n	n/a
371.029	0.12	742058	keystroke_t	t	n/a
371.149	0.105	742298	keystroke_Key.space	Key.space	n/a
371.569	0.135	743138	keystroke_a	a	n/a
371.719	0.15	743438	keystroke_n	n	n/a
371.839	0.135	743678	keystroke_y	y	n/a
372.004	0.12	744008	keystroke_w	w	n/a
372.139	0.09	744278	keystroke_h	h	n/a
372.214	0.105	744428	keystroke_e	e	n/a
372.379	0.12	744758	keystroke_r	r	n/a
372.574	0.15	745148	keystroke_e	e	n/a
372.739	0.12	745478	keystroke_Key.space	Key.space	n/a
372.994	0.15	745988	keystroke_c	c	n/a
373.114	0.2545	746228	keystroke_o	o	n/a
373.234	0.1945	746468	keystroke_u	u	n/a
373.3535	0.15	746707	keystroke_n	n	n/a
373.4435	0.12	746887	keystroke_t	t	n/a
373.6535	0.225	747307	keystroke_i	i	n/a
373.7735	0.1655	747547	keystroke_n	n	n/a
373.8485	0.1205	747697	keystroke_g	g	n/a
374.014	0.12	748028	keystroke_Key.space	Key.space	n/a
374.164	0.15	748328	keystroke_s	s	n/a
374.254	0.18	748508	keystroke_p	p	n/a
374.404	0.165	748808	keystroke_i	i	n/a
374.839	0.09	749678	keystroke_d	d	n/a
375.064	0.075	750128	keystroke_e	e	n/a
375.244	0.09	750488	keystroke_r	r	n/a
375.424	0.105	750848	keystroke_Key.enter	Key.enter	n/a
375.533	8.2175	751066	prompt	n/a	submitting rangers prominent dedicated\n
376.294	0.135	752588	keystroke_s	s	n/a
376.5495	0.119	753099	keystroke_u	u	n/a
376.7285	0.1055	753457	keystroke_b	b	n/a
376.969	0.165	753938	keystroke_m	m	n/a
377.089	0.12	754178	keystroke_i	i	n/a
377.194	0.09	754388	keystroke_t	t	n/a
377.3445	0.119	754689	keystroke_t	t	n/a
377.4785	0.2105	754957	keystroke_i	i	n/a
377.5995	0.1795	755199	keystroke_n	n	n/a
377.734	0.18	755468	keystroke_g	g	n/a
377.884	0.12	755768	keystroke_Key.space	Key.space	n/a
378.3935	0.0905	756787	keystroke_r	r	n/a
378.664	0.1495	757328	keystroke_a	a	n/a
378.7835	0.1055	757567	keystroke_n	n	n/a
378.9935	0.105	757987	keystroke_g	g	n/a
379.0835	0.1055	758167	keystroke_e	e	n/a
379.279	0.0905	758558	keystroke_r	r	n/a
379.609	0.1495	759218	keystroke_s	s	n/a
379.7285	0.135	759457	keystroke_Key.space	Key.space	n/a
379.9245	0.15	759849	keystroke_p	p	n/a
380.0595	0.15	760119	keystroke_r	r	n/a
380.1945	0.165	760389	keystroke_o	o	n/a
380.3295	0.179	760659	keystroke_m	m	n/a
380.4645	0.2095	760929	keystroke_i	i	n/a
380.629	0.165	761258	keystroke_n	n	n/a
380.734	0.165	761468	keystroke_e	e	n/a
380.929	0.135	761858	keystroke_n	n	n/a
381.049	0.195	762098	keystroke_t	t	n/a
381.304	0.105	762608	keystroke_Key.space	Key.space	n/a
381.9635	0.075	763927	keystroke_d	d	n/a
382.1135	0.09	764227	keystroke_e	e	n/a
382.3085	0.12	764617	keystroke_d	d	n/a
382.3995	0.135	764799	keystroke_i	i	n/a
382.5495	0.074	765099	keystroke_c	c	n/a
382.7145	0.119	765429	keystroke_a	a	n/a
382.9685	0.09	765937	keystroke_t	t	n/a
383.1785	0.121	766357	keystroke_e	e	n/a
383.3735	0.135	766747	keystroke_d	d	n/a
383.6435	0.105	767287	keystroke_Key.enter	Key.enter	n/a
383.7535	7.122	767507	prompt	n/a	pointer shoot collector depression\n
384.4385	0.27	768877	keystroke_p	p	n/a
384.5735	0.225	769147	keystroke_o	o	n/a
384.7385	0.09	769477	keystroke_i	i	n/a
384.949	0.135	769898	keystroke_n	n	n/a
385.024	0.105	770048	keystroke_t	t	n/a
385.279	0.12	770558	keystroke_e	e	n/a
385.444	0.12	770888	keystroke_r	r	n/a
385.609	0.09	771218	keystroke_Key.space	Key.space	n/a
385.744	0.135	771488	keystroke_s	s	n/a
385.894	0.09	771788	keystroke_h	h	n/a
386.089	0.06	772178	keystroke_o	o	n/a
386.239	0.135	772478	keystroke_o	o	n/a
386.359	0.12	772718	keystroke_t	t	n/a
386.494	0.1195	772988	keystroke_Key.space	Key.space	n/a
386.9585	0.09	773917	keystroke_c	c	n/a
387.0785	0.09	774157	keystroke_o	o	n/a
387.2885	0.06	774577	keystroke_l	l	n/a
387.4085	0.12	774817	keystroke_l	l	n/a
387.5435	0.075	775087	keystroke_e	e	n/a
387.769	0.06	775538	keystroke_c	c	n/a
388.099	0.06	776198	keystroke_t	t	n/a
388.204	0.12	776408	keystroke_o	o	n/a
388.339	0.12	776678	keystroke_r	r	n/a
388.489	0.12	776978	keystroke_Key.space	Key.space	n/a
388.894	0.09	777788	keystroke_d	d	n/a
389.089	0.12	778178	keystroke_e	e	n/a
389.254	0.135	778508	keystroke_p	p	n/a
389.524	0.09	779048	keystroke_r	r	n/a
389.719	0.09	779438	keystroke_e	e	n/a
389.959	0.09	779918	keystroke_s	s	n/a
390.139	0.09	780278	keystroke_s	s	n/a
390.259	0.2105	780518	keystroke_i	i	n/a
390.4245	0.2095	780849	keystroke_o	o	n/a
390.574	0.135	781148	keystroke_n	n	n/a
390.769	0.105	781538	keystroke_Key.enter	Key.enter	n/a
390.8795	9.281	781759	prompt	n/a	writes title clone controversial\n
391.489	0.12	782978	keystroke_w	w	n/a
391.699	0.1195	783398	keystroke_r	r	n/a
391.8335	0.135	783667	keystroke_i	i	n/a
391.9385	0.045	783877	keystroke_t	t	n/a
391.9535	0.045	783907	keystroke_r	r	n/a
392.1485	0.105	784297	keystroke_e	e	n/a
392.4035	0.1205	784807	keystroke_s	s	n/a
392.854	0.075	785708	keystroke_Key.backspace	Key.backspace	n/a
393.004	0.075	786008	keystroke_Key.backspace	Key.backspace	n/a
393.199	0.075	786398	keystroke_Key.backspace	Key.backspace	n/a
393.319	0.12	786638	keystroke_e	e	n/a
393.544	0.15	787088	keystroke_s	s	n/a
393.679	0.135	787358	keystroke_Key.space	Key.space	n/a
393.859	0.12	787718	keystroke_t	t	n/a
394.099	0.1045	788198	keystroke_i	i	n/a
394.2335	0.105	788467	keystroke_t	t	n/a
394.3985	0.151	788797	keystroke_l	l	n/a
394.5335	0.12	789067	keystroke_e	e	n/a
394.6835	0.12	789367	keystroke_Key.space	Key.space	n/a
394.8785	0.105	789757	keystroke_c	c	n/a
394.9985	0.105	789997	keystroke_l	l	n/a
395.1785	0.21	790357	keystroke_o	o	n/a
395.3435	0.165	790687	keystroke_n	n	n/a
395.4785	0.18	790957	keystroke_e	e	n/a
395.6435	0.135	791287	keystroke_Key.space	Key.space	n/a
395.929	0.09	791858	keystroke_c	c	n/a
396.049	0.225	792098	keystroke_o	o	n/a
396.229	0.105	792458	keystroke_n	n	n/a
396.274	0.09	792548	keystroke_t	t	n/a
396.469	0.105	792938	keystroke_r	r	n/a
396.589	0.12	793178	keystroke_o	o	n/a
396.919	0.075	793838	keystroke_v	v	n/a
397.114	0.1195	794228	keystroke_e	e	n/a
397.2635	0.0605	794527	keystroke_e	e	n/a
397.3085	0.075	794617	keystroke_r	r	n/a
397.8635	0.06	795727	keystroke_Key.backspace	Key.backspace	n/a
397.9835	0.105	795967	keystroke_Key.backspace	Key.backspace	n/a
398.0735	0.12	796147	keystroke_r	r	n/a
398.3735	0.09	796747	keystroke_d	d	n/a
398.8385	0.075	797677	keystroke_Key.backspace	Key.backspace	n/a
399.1985	0.12	798397	keystroke_s	s	n/a
399.3335	0.1205	798667	keystroke_i	i	n/a
399.4685	0.1505	798937	keystroke_a	a	n/a
399.709	0.105	799418	keystroke_l	l	n/a
400.084	0.075	800168	keystroke_Key.enter	Key.enter	n/a
400.163	7.8885	800326	prompt	n/a	dead unlimited floors will\n
400.819	0.075	801638	keystroke_d	d	n/a
400.984	0.09	801968	keystroke_e	e	n/a
401.179	0.105	802358	keystroke_a	a	n/a
401.374	0.12	802748	keystroke_d	d	n/a
401.524	0.12	803048	keystroke_Key.space	Key.space	n/a
401.734	0.21	803468	keystroke_i	i	n/a
401.884	0.255	803768	keystroke_n	n	n/a
402.094	0.06	804188	keystroke_l	l	n/a
402.4235	0.06	804847	keystroke_Key.backspace	Key.backspace	n/a
402.589	0.06	805178	keystroke_Key.backspace	Key.backspace	n/a
402.739	0.09	805478	keystroke_Key.backspace	Key.backspace	n/a
403.3395	0.06	806679	keystroke_u	u	n/a
403.3845	0.239	806769	keystroke_n	n	n/a
403.5345	0.224	807069	keystroke_l	l	n/a
403.6985	0.195	807397	keystroke_i	i	n/a
403.8635	0.24	807727	keystroke_m	m	n/a
403.9985	0.18	807997	keystroke_i	i	n/a
404.1335	0.151	808267	keystroke_t	t	n/a
404.3285	0.135	808657	keystroke_i	i	n/a
404.5395	0.075	809079	keystroke_e	e	n/a
404.8235	0.075	809647	keystroke_Key.backspace	Key.backspace	n/a
404.9585	0.09	809917	keystroke_Key.backspace	Key.backspace	n/a
405.0645	0.119	810129	keystroke_e	e	n/a
405.2435	0.195	810487	keystroke_d	d	n/a
405.3785	0.135	810757	keystroke_Key.space	Key.space	n/a
406.084	0.1205	812168	keystroke_f	f	n/a
406.219	0.075	812438	keystroke_l	l	n/a
406.414	0.075	812828	keystroke_o	o	n/a
406.564	0.15	813128	keystroke_o	o	n/a
406.654	0.1205	813308	keystroke_r	r	n/a
406.8945	0.12	813789	keystroke_s	s	n/a
407.0445	0.105	814089	keystroke_Key.space	Key.space	n/a
407.1645	0.12	814329	keystroke_w	w	n/a
407.3295	0.09	814659	keystroke_i	i	n/a
407.5395	0.075	815079	keystroke_l	l	n/a
407.719	0.09	815438	keystroke_l	l	n/a
408.004	0.045	816008	keystroke_Key.enter	Key.enter	n/a
408.0555	9.596	816111	prompt	n/a	comments shot analytical polar\n
408.784	0.09	817568	keystroke_c	c	n/a
408.8895	0.1195	817779	keystroke_o	o	n/a
409.129	0.075	818258	keystroke_m	m	n/a
409.279	0.09	818558	keystroke_m	m	n/a
409.429	0.12	818858	keystroke_e	e	n/a
409.564	0.1355	819128	keystroke_n	n	n/a
409.6845	0.0745	819369	keystroke_t	t	n/a
409.954	0.12	819908	keystroke_s	s	n/a
410.104	0.09	820208	keystroke_Key.space	Key.space	n/a
410.209	0.15	820418	keystroke_s	s	n/a
410.374	0.165	820748	keystroke_h	h	n/a
410.494	0.165	820988	keystroke_o	o	n/a
410.674	0.15	821348	keystroke_t	t	n/a
410.8535	0.12	821707	keystroke_Key.space	Key.space	n/a
411.3635	0.105	822727	keystroke_a	a	n/a
411.4835	0.1205	822967	keystroke_n	n	n/a
411.5885	0.15	823177	keystroke_a	a	n/a
411.7085	0.106	823417	keystroke_l	l	n/a
411.9345	0.105	823869	keystroke_y	y	n/a
412.0545	0.1495	824109	keystroke_t	t	n/a
412.249	0.09	824498	keystroke_i	i	n/a
412.369	0.12	824738	keystroke_c	c	n/a
412.474	0.105	824948	keystroke_i	i	n/a
412.714	0.21	825428	keystroke_a	a	n/a
412.849	0.18	825698	keystroke_l	l	n/a
412.999	0.105	825998	keystroke_Key.space	Key.space	n/a
413.209	0.165	826418	keystroke_p	p	n/a
413.359	0.105	826718	keystroke_o	o	n/a
413.5995	0.135	827199	keystroke_l	l	n/a
413.7195	0.135	827439	keystroke_a	a	n/a
414.0195	0.03	828039	keystroke_r	r	n/a
414.3195	0.075	828639	keystroke_Key.backspace	Key.backspace	n/a
414.4695	0.075	828939	keystroke_Key.backspace	Key.backspace	n/a
414.6345	0.075	829269	keystroke_Key.backspace	Key.backspace	n/a
414.7995	0.075	829599	keystroke_Key.backspace	Key.backspace	n/a
414.994	0.06	829988	keystroke_Key.backspace	Key.backspace	n/a
415.174	0.075	830348	keystroke_Key.backspace	Key.backspace	n/a
415.324	0.09	830648	keystroke_Key.backspace	Key.backspace	n/a
415.519	0.045	831038	keystroke_Key.backspace	Key.backspace	n/a
415.714	0.09	831428	keystroke_Key.backspace	Key.backspace	n/a
415.864	0.135	831728	keystroke_a	a	n/a
416.014	0.18	832028	keystroke_l	l	n/a
416.149	0.12	832298	keystroke_Key.space	Key.space	n/a
416.314	0.15	832628	keystroke_p	p	n/a
416.434	0.1205	832868	keystroke_o	o	n/a
416.6595	0.18	833319	keystroke_l	l	n/a
416.7495	0.105	833499	keystroke_a	a	n/a
417.0795	0.12	834159	keystroke_r	r	n/a
417.5445	0.105	835089	keystroke_Key.enter	Key.enter	n/a
417.6545	7.4515	835309	prompt	n/a	tsunami speech fall warming\n
418.4145	0.09	836829	keystroke_t	t	n/a
418.6545	0.15	837309	keystroke_s	s	n/a
418.8195	0.165	837639	keystroke_u	u	n/a
418.9695	0.165	837939	keystroke_n	n	n/a
419.1195	0.18	838239	keystroke_a	a	n/a
419.2695	0.2545	838539	keystroke_m	m	n/a
419.464	0.21	838928	keystroke_i	i	n/a
419.614	0.135	839228	keystroke_Key.space	Key.space	n/a
419.764	0.135	839528	keystroke_s	s	n/a
419.884	0.12	839768	keystroke_p	p	n/a
420.019	0.06	840038	keystroke_e	e	n/a
420.1395	0.12	840279	keystroke_e	e	n/a
420.3785	0.15	840757	keystroke_c	c	n/a
420.5135	0.211	841027	keystroke_h	h	n/a
420.6785	0.12	841357	keystroke_Key.space	Key.space	n/a
420.8735	0.12	841747	keystroke_d	d	n/a
421.0995	0.135	842199	keystroke_a	a	n/a
421.2345	0.074	842469	keystroke_l	l	n/a
421.4295	0.15	842859	keystroke_l	l	n/a
421.849	0.075	843698	keystroke_Key.backspace	Key.backspace	n/a
421.999	0.075	843998	keystroke_Key.backspace	Key.backspace	n/a
422.1935	0.06	844387	keystroke_Key.backspace	Key.backspace	n/a
422.3585	0.1055	844717	keystroke_Key.backspace	Key.backspace	n/a
422.989	0.06	845978	keystroke_f	f	n/a
423.1845	0.12	846369	keystroke_a	a	n/a
423.3045	0.105	846609	keystroke_l	l	n/a
423.4845	0.225	846969	keystroke_l	l	n/a
423.6195	0.15	847239	keystroke_Key.space	Key.space	n/a
423.7245	0.12	847449	keystroke_w	w	n/a
423.9345	0.105	847869	keystroke_a	a	n/a
424.1745	0.12	848349	keystroke_r	r	n/a
424.3095	0.165	848619	keystroke_n	n	n/a
424.4445	0.2395	848889	keystroke_i	i	n/a
424.609	0.165	849218	keystroke_n	n	n/a
424.789	0.105	849578	keystroke_g	g	n/a
425.029	0.075	850058	keystroke_Key.enter	Key.enter	n/a
425.1085	8.3375	850217	prompt	n/a	center hepatitis circuit football\n
425.884	0.075	851768	keystroke_c	c	n/a
426.079	0.091	852158	keystroke_e	e	n/a
426.229	0.12	852458	keystroke_n	n	n/a
426.334	0.105	852668	keystroke_t	t	n/a
426.559	0.105	853118	keystroke_e	e	n/a
426.739	0.12	853478	keystroke_r	r	n/a
426.874	0.12	853748	keystroke_Key.space	Key.space	n/a
427.279	0.09	854558	keystroke_h	h	n/a
427.384	0.09	854768	keystroke_e	e	n/a
427.519	0.15	855038	keystroke_p	p	n/a
427.654	0.105	855308	keystroke_a	a	n/a
427.939	0.09	855878	keystroke_t	t	n/a
428.089	0.12	856178	keystroke_i	i	n/a
428.224	0.18	856448	keystroke_t	t	n/a
428.6445	0.075	857289	keystroke_i	i	n/a
428.8995	0.105	857799	keystroke_s	s	n/a
429.1245	0.12	858249	keystroke_Key.space	Key.space	n/a
429.86	0.0895	859720	keystroke_c	c	n/a
430.0845	0.045	860169	keystroke_r	r	n/a
430.4445	0.045	860889	keystroke_Key.backspace	Key.backspace	n/a
430.6545	0.12	861309	keystroke_i	i	n/a
430.7295	0.09	861459	keystroke_r	r	n/a
430.9545	0.105	861909	keystroke_c	c	n/a
431.0895	0.15	862179	keystroke_u	u	n/a
431.1945	0.1345	862389	keystroke_i	i	n/a
431.344	0.135	862688	keystroke_t	t	n/a
431.494	0.0905	862988	keystroke_Key.space	Key.space	n/a
431.944	0.06	863888	keystroke_f	f	n/a
432.184	0.075	864368	keystroke_o	o	n/a
432.3345	0.12	864669	keystroke_o	o	n/a
432.4695	0.09	864939	keystroke_t	t	n/a
432.6195	0.12	865239	keystroke_b	b	n/a
432.7995	0.135	865599	keystroke_a	a	n/a
432.9195	0.075	865839	keystroke_l	l	n/a
433.0695	0.135	866139	keystroke_l	l	n/a
433.3545	0.09	866709	keystroke_Key.enter	Key.enter	n/a
433.449	7.947	866898	prompt	n/a	written wines tracked electronic\n
434.1795	0.09	868359	keystroke_q	q	n/a
434.6295	0.09	869259	keystroke_Key.backspace	Key.backspace	n/a
434.7345	0.12	869469	keystroke_w	w	n/a
434.9895	0.09	869979	keystroke_r	r	n/a
435.0945	0.0895	870189	keystroke_i	i	n/a
435.469	0.09	870938	keystroke_t	t	n/a
435.604	0.105	871208	keystroke_t	t	n/a
435.859	0.105	871718	keystroke_e	e	n/a
436.084	0.135	872168	keystroke_d	d	n/a
436.5945	0.089	873189	keystroke_Key.backspace	Key.backspace	n/a
436.864	0.15	873728	keystroke_n	n	n/a
436.969	0.135	873938	keystroke_Key.space	Key.space	n/a
437.149	0.135	874298	keystroke_w	w	n/a
437.269	0.18	874538	keystroke_i	i	n/a
437.389	0.135	874778	keystroke_n	n	n/a
437.509	0.105	875018	keystroke_e	e	n/a
437.72	0.194	875440	keystroke_s	s	n/a
437.899	0.105	875798	keystroke_Key.space	Key.space	n/a
438.1245	0.09	876249	keystroke_t	t	n/a
438.3645	0.06	876729	keystroke_r	r	n/a
438.5745	0.075	877149	keystroke_a	a	n/a
438.7845	0.075	877569	keystroke_c	c	n/a
438.9045	0.105	877809	keystroke_k	k	n/a
439.0245	0.09	878049	keystroke_e	e	n/a
439.2045	0.135	878409	keystroke_d	d	n/a
439.3545	0.09	878709	keystroke_Key.space	Key.space	n/a
439.6395	0.09	879279	keystroke_e	e	n/a
439.7595	0.135	879519	keystroke_l	l	n/a
439.8495	0.09	879699	keystroke_e	e	n/a
440.0595	0.0895	880119	keystroke_c	c	n/a
440.284	0.06	880568	keystroke_t	t	n/a
440.419	0.09	880838	keystroke_r	r	n/a
440.569	0.165	881138	keystroke_o	o	n/a
440.7195	0.195	881439	keystroke_n	n	n/a
440.8545	0.18	881709	keystroke_i	i	n/a
441.0195	0.135	882039	keystroke_c	c	n/a
441.2895	0.105	882579	keystroke_Key.enter	Key.enter	n/a
441.3995	6.7765	882799	prompt	n/a	johnson holly indian backing\n
442.3095	0.18	884619	keystroke_j	j	n/a
442.4145	0.24	884829	keystroke_o	o	n/a
442.6095	0.105	885219	keystroke_h	h	n/a
442.8195	0.12	885639	keystroke_n	n	n/a
442.9545	0.165	885909	keystroke_s	s	n/a
443.1045	0.255	886209	keystroke_o	o	n/a
443.2845	0.21	886569	keystroke_n	n	n/a
443.4495	0.1345	886899	keystroke_Key.space	Key.space	n/a
443.674	0.18	887348	keystroke_h	h	n/a
443.809	0.135	887618	keystroke_o	o	n/a
444.064	0.075	888128	keystroke_l	l	n/a
444.229	0.105	888458	keystroke_l	l	n/a
444.439	0.105	888878	keystroke_y	y	n/a
444.9345	0.105	889869	keystroke_Key.space	Key.space	n/a
445.2645	0.18	890529	keystroke_i	i	n/a
445.3995	0.18	890799	keystroke_n	n	n/a
445.5645	0.105	891129	keystroke_d	d	n/a
445.7145	0.15	891429	keystroke_i	i	n/a
445.8495	0.165	891699	keystroke_a	a	n/a
446.0295	0.24	892059	keystroke_n	n	n/a
446.1795	0.12	892359	keystroke_Key.space	Key.space	n/a
446.599	0.135	893198	keystroke_b	b	n/a
446.689	0.12	893378	keystroke_a	a	n/a
446.9295	0.135	893859	keystroke_c	c	n/a
447.094	0.1055	894188	keystroke_k	k	n/a
447.3195	0.24	894639	keystroke_i	i	n/a
447.469	0.1655	894938	keystroke_n	n	n/a
447.605	0.15	895210	keystroke_g	g	n/a
448.085	0.089	896170	keystroke_Key.enter	Key.enter	n/a
448.179	5.727	896358	prompt	n/a	bottles humor orchestra back\n
448.9245	0.1345	897849	keystroke_b	b	n/a
448.999	0.165	897998	keystroke_o	o	n/a
449.149	0.09	898298	keystroke_t	t	n/a
449.284	0.1055	898568	keystroke_t	t	n/a
449.4345	0.12	898869	keystroke_l	l	n/a
449.5395	0.105	899079	keystroke_e	e	n/a
449.7645	0.135	899529	keystroke_s	s	n/a
449.9145	0.075	899829	keystroke_Key.space	Key.space	n/a
450.1095	0.1505	900219	keystroke_h	h	n/a
450.1995	0.1055	900399	keystroke_u	u	n/a
450.409	0.21	900818	keystroke_m	m	n/a
450.574	0.165	901148	keystroke_o	o	n/a
450.709	0.135	901418	keystroke_r	r	n/a
450.859	0.12	901718	keystroke_Key.space	Key.space	n/a
451.174	0.135	902348	keystroke_o	o	n/a
451.294	0.09	902588	keystroke_r	r	n/a
451.519	0.09	903038	keystroke_c	c	n/a
451.654	0.1205	903308	keystroke_h	h	n/a
451.7595	0.09	903519	keystroke_e	e	n/a
451.9695	0.105	903939	keystroke_s	s	n/a
452.1345	0.075	904269	keystroke_t	t	n/a
452.2695	0.075	904539	keystroke_r	r	n/a
452.5095	0.135	905019	keystroke_a	a	n/a
452.6295	0.105	905259	keystroke_Key.space	Key.space	n/a
453.0045	0.09	906009	keystroke_b	b	n/a
453.1095	0.09	906219	keystroke_a	a	n/a
453.3495	0.105	906699	keystroke_c	c	n/a
453.5145	0.105	907029	keystroke_k	k	n/a
453.8295	0.075	907659	keystroke_Key.enter	Key.enter	n/a
453.9085	8.1425	907817	prompt	n/a	polished sarah tapes hypothetical\n
454.5345	0.21	909069	keystroke_p	p	n/a
454.6845	0.12	909369	keystroke_o	o	n/a
454.8795	0.105	909759	keystroke_l	l	n/a
455.0895	0.12	910179	keystroke_i	i	n/a
455.1945	0.105	910389	keystroke_s	s	n/a
455.3445	0.12	910689	keystroke_h	h	n/a
455.4645	0.09	910929	keystroke_e	e	n/a
455.6295	0.165	911259	keystroke_d	d	n/a
455.7795	0.09	911559	keystroke_Key.space	Key.space	n/a
456.0345	0.105	912069	keystroke_s	s	n/a
456.5745	0.105	913149	keystroke_a	a	n/a
456.7695	0.09	913539	keystroke_r	r	n/a
456.9645	0.2695	913929	keystroke_a	a	n/a
457.1145	0.1945	914229	keystroke_h	h	n/a
457.264	0.135	914528	keystroke_Key.space	Key.space	n/a
457.549	0.075	915098	keystroke_t	t	n/a
457.819	0.12	915638	keystroke_a	a	n/a
457.955	0.1495	915910	keystroke_p	p	n/a
458.0745	0.09	916149	keystroke_e	e	n/a
458.3145	0.105	916629	keystroke_s	s	n/a
458.4495	0.09	916899	keystroke_Key.space	Key.space	n/a
458.9445	0.18	917889	keystroke_h	h	n/a
459.0495	0.12	918099	keystroke_y	y	n/a
459.3195	0.195	918639	keystroke_p	p	n/a
459.484	0.151	918968	keystroke_o	o	n/a
459.65	0.12	919300	keystroke_t	t	n/a
459.8	0.105	919600	keystroke_h	h	n/a
459.935	0.135	919870	keystroke_e	e	n/a
460.534	0.061	921068	keystroke_t	t	n/a
461.03	0.09	922060	keystroke_i	i	n/a
461.135	0.105	922270	keystroke_c	c	n/a
461.3745	0.135	922749	keystroke_a	a	n/a
461.5545	0.1195	923109	keystroke_l	l	n/a
461.959	0.09	923918	keystroke_Key.enter	Key.enter	n/a
462.054	8.877	924108	prompt	n/a	victory automatically butter kurt\n
462.859	0.075	925718	keystroke_v	v	n/a
463.3395	0.09	926679	keystroke_i	i	n/a
463.3995	0.09	926799	keystroke_c	c	n/a
463.639	0.09	927278	keystroke_t	t	n/a
463.744	0.135	927488	keystroke_o	o	n/a
463.894	0.1205	927788	keystroke_r	r	n/a
464.0445	0.195	928089	keystroke_y	y	n/a
464.1795	0.12	928359	keystroke_Key.space	Key.space	n/a
464.4345	0.105	928869	keystroke_a	a	n/a
464.6745	0.1205	929349	keystroke_u	u	n/a
464.8395	0.15	929679	keystroke_t	t	n/a
465.0195	0.225	930039	keystroke_o	o	n/a
465.1995	0.255	930399	keystroke_m	m	n/a
465.4245	0.15	930849	keystroke_o	o	n/a
466.01	0.09	932020	keystroke_Key.backspace	Key.backspace	n/a
466.445	0.1045	932890	keystroke_a	a	n/a
466.6995	0.105	933399	keystroke_t	t	n/a
466.8345	0.135	933669	keystroke_i	i	n/a
467.0145	0.09	934029	keystroke_c	c	n/a
467.2095	0.105	934419	keystroke_a	a	n/a
467.3445	0.075	934689	keystroke_l	l	n/a
467.5245	0.1055	935049	keystroke_l	l	n/a
467.5995	0.1345	935199	keystroke_y	y	n/a
467.81	0.105	935620	keystroke_Key.space	Key.space	n/a
468.095	0.2095	936190	keystroke_b	b	n/a
468.2595	0.135	936519	keystroke_u	u	n/a
468.3645	0.09	936729	keystroke_t	t	n/a
468.515	0.09	937030	keystroke_t	t	n/a
468.7395	0.12	937479	keystroke_e	e	n/a
468.9195	0.12	937839	keystroke_r	r	n/a
469.0545	0.0895	938109	keystroke_Key.space	Key.space	n/a
469.969	0.105	939938	keystroke_k	k	n/a
470.194	0.105	940388	keystroke_u	u	n/a
470.269	0.09	940538	keystroke_r	r	n/a
470.449	0.12	940898	keystroke_t	t	n/a
470.824	0.105	941648	keystroke_Key.enter	Key.enter	n/a
470.9335	10.3025	941867	prompt	n/a	venezuela draft examinations henderson\n
472.0845	0.105	944169	keystroke_v	v	n/a
472.2045	0.135	944409	keystroke_e	e	n/a
472.3695	0.135	944739	keystroke_n	n	n/a
472.4745	0.21	944949	keystroke_e	e	n/a
473.3295	0.195	946659	keystroke_z	z	n/a
473.5095	0.09	947019	keystroke_u	u	n/a
473.7645	0.075	947529	keystroke_e	e	n/a
473.8995	0.135	947799	keystroke_l	l	n/a
474.0495	0.21	948099	keystroke_a	a	n/a
474.2595	0.105	948519	keystroke_Key.space	Key.space	n/a
474.8595	0.075	949719	keystroke_d	d	n/a
475.0995	0.045	950199	keystroke_r	r	n/a
475.3695	0.105	950739	keystroke_a	a	n/a
475.5945	0.09	951189	keystroke_f	f	n/a
475.7895	0.15	951579	keystroke_t	t	n/a
475.9245	0.135	951849	keystroke_Key.space	Key.space	n/a
476.449	0.0905	952898	keystroke_e	e	n/a
476.7195	0.045	953439	keystroke_c	c	n/a
477.0045	0.09	954009	keystroke_Key.backspace	Key.backspace	n/a
477.0795	0.09	954159	keystroke_x	x	n/a
477.2895	0.15	954579	keystroke_a	a	n/a
477.4245	0.2095	954849	keystroke_m	m	n/a
477.5895	0.1795	955179	keystroke_i	i	n/a
477.739	0.255	955478	keystroke_n	n	n/a
477.889	0.18	955778	keystroke_i	i	n/a
478.024	0.15	956048	keystroke_a	a	n/a
478.369	0.075	956738	keystroke_Key.backspace	Key.backspace	n/a
478.504	0.105	957008	keystroke_Key.backspace	Key.backspace	n/a
478.594	0.105	957188	keystroke_a	a	n/a
478.864	0.105	957728	keystroke_t	t	n/a
478.954	0.165	957908	keystroke_i	i	n/a
479.089	0.18	958178	keystroke_o	o	n/a
479.239	0.135	958478	keystroke_n	n	n/a
479.359	0.15	958718	keystroke_s	s	n/a
479.494	0.12	958988	keystroke_Key.space	Key.space	n/a
479.644	0.15	959288	keystroke_h	h	n/a
479.779	0.135	959558	keystroke_e	e	n/a
479.929	0.135	959858	keystroke_n	n	n/a
480.049	0.09	960098	keystroke_d	d	n/a
480.214	0.09	960428	keystroke_e	e	n/a
480.364	0.09	960728	keystroke_r	r	n/a
480.5745	0.15	961149	keystroke_s	s	n/a
480.7395	0.195	961479	keystroke_o	o	n/a
480.8745	0.15	961749	keystroke_n	n	n/a
481.1445	0.09	962289	keystroke_Key.enter	Key.enter	n/a
481.239	11.082	962478	prompt	n/a	interviews owner episode interference\n
481.925	0.24	963850	keystroke_i	i	n/a
482.075	0.15	964150	keystroke_n	n	n/a
482.2845	0.09	964569	keystroke_t	t	n/a
482.509	0.09	965018	keystroke_e	e	n/a
482.674	0.075	965348	keystroke_r	r	n/a
482.809	0.105	965618	keystroke_v	v	n/a
482.989	0.1355	965978	keystroke_i	i	n/a
483.079	0.0905	966158	keystroke_e	e	n/a
483.2595	0.105	966519	keystroke_w	w	n/a
483.4995	0.06	966999	keystroke_a	a	n/a
484.039	0.045	968078	keystroke_Key.backspace	Key.backspace	n/a
484.114	0.15	968228	keystroke_s	s	n/a
484.249	0.105	968498	keystroke_Key.space	Key.space	n/a
484.414	0.1505	968828	keystroke_o	o	n/a
485.1045	0.09	970209	keystroke_w	w	n/a
485.2395	0.105	970479	keystroke_n	n	n/a
485.3895	0.075	970779	keystroke_e	e	n/a
485.764	0.1055	971528	keystroke_r	r	n/a
485.8845	0.12	971769	keystroke_Key.space	Key.space	n/a
486.1245	0.09	972249	keystroke_e	e	n/a
486.3345	0.18	972669	keystroke_p	p	n/a
486.4995	0.135	972999	keystroke_i	i	n/a
486.6495	0.09	973299	keystroke_s	s	n/a
486.8745	0.105	973749	keystroke_o	o	n/a
487.0395	0.045	974079	keystroke_e	e	n/a
487.474	0.105	974948	keystroke_Key.backspace	Key.backspace	n/a
487.594	0.075	975188	keystroke_d	d	n/a
487.759	0.136	975518	keystroke_e	e	n/a
487.895	0.104	975790	keystroke_Key.space	Key.space	n/a
488.089	0.21	976178	keystroke_i	i	n/a
488.224	0.12	976448	keystroke_n	n	n/a
489.094	0.075	978188	keystroke_t	t	n/a
489.289	0.105	978578	keystroke_e	e	n/a
489.484	0.09	978968	keystroke_r	r	n/a
489.679	0.075	979358	keystroke_f	f	n/a
489.859	0.105	979718	keystroke_e	e	n/a
490.204	0.075	980408	keystroke_r	r	n/a
490.399	0.09	980798	keystroke_e	e	n/a
491.074	0.12	982148	keystroke_n	n	n/a
491.464	0.06	982928	keystroke_c	c	n/a
491.66	0.0895	983320	keystroke_e	e	n/a
492.1995	0.12	984399	keystroke_Key.enter	Key.enter	n/a
492.325	5.936	984650	prompt	n/a	novel pursuit seconds dose\n
493.1595	0.165	986319	keystroke_n	n	n/a
493.2495	0.18	986499	keystroke_o	o	n/a
493.4295	0.075	986859	keystroke_v	v	n/a
493.639	0.1805	987278	keystroke_e	e	n/a
493.8345	0.1945	987669	keystroke_l	l	n/a
493.9695	0.1495	987939	keystroke_Key.space	Key.space	n/a
494.149	0.135	988298	keystroke_p	p	n/a
494.374	0.12	988748	keystroke_u	u	n/a
494.509	0.075	989018	keystroke_r	r	n/a
494.735	0.12	989470	keystroke_s	s	n/a
494.9	0.284	989800	keystroke_u	u	n/a
494.989	0.27	989978	keystroke_i	i	n/a
495.2	0.105	990400	keystroke_t	t	n/a
495.3495	0.105	990699	keystroke_Key.space	Key.space	n/a
495.6045	0.105	991209	keystroke_s	s	n/a
495.8445	0.075	991689	keystroke_e	e	n/a
496.0245	0.09	992049	keystroke_c	c	n/a
496.1295	0.21	992259	keystroke_o	o	n/a
496.2945	0.18	992589	keystroke_n	n	n/a
496.3695	0.1345	992739	keystroke_d	d	n/a
496.564	0.18	993128	keystroke_s	s	n/a
496.729	0.105	993458	keystroke_Key.space	Key.space	n/a
496.924	0.12	993848	keystroke_d	d	n/a
497.059	0.105	994118	keystroke_o	o	n/a
497.269	0.09	994538	keystroke_x	x	n/a
497.6445	0.09	995289	keystroke_Key.backspace	Key.backspace	n/a
497.7195	0.09	995439	keystroke_s	s	n/a
497.9145	0.15	995829	keystroke_e	e	n/a
498.1695	0.09	996339	keystroke_Key.enter	Key.enter	n/a
498.264	7.4515	996528	prompt	n/a	laugh island tons retrieval\n
498.86	0.165	997720	keystroke_l	l	n/a
498.98	0.15	997960	keystroke_a	a	n/a
499.175	0.135	998350	keystroke_u	u	n/a
499.354	0.06	998708	keystroke_f	f	n/a
499.385	0.0895	998770	keystroke_g	g	n/a
499.5045	0.1795	999009	keystroke_h	h	n/a
500.149	0.0755	1000298	keystroke_Key.backspace	Key.backspace	n/a
500.314	0.06	1000628	keystroke_Key.backspace	Key.backspace	n/a
500.495	0.045	1000990	keystroke_Key.backspace	Key.backspace	n/a
500.585	0.104	1001170	keystroke_g	g	n/a
500.75	0.1795	1001500	keystroke_h	h	n/a
500.8995	0.105	1001799	keystroke_Key.space	Key.space	n/a
501.2145	0.135	1002429	keystroke_i	i	n/a
501.3645	0.135	1002729	keystroke_s	s	n/a
501.739	0.135	1003478	keystroke_l	l	n/a
501.904	0.12	1003808	keystroke_a	a	n/a
502.084	0.12	1004168	keystroke_n	n	n/a
502.264	0.09	1004528	keystroke_d	d	n/a
502.429	0.09	1004858	keystroke_Key.space	Key.space	n/a
502.759	0.12	1005518	keystroke_t	t	n/a
502.894	0.21	1005788	keystroke_o	o	n/a
503.059	0.15	1006118	keystroke_n	n	n/a
503.149	0.225	1006298	keystroke_s	s	n/a
503.359	0.105	1006718	keystroke_Key.space	Key.space	n/a
503.7945	0.09	1007589	keystroke_r	r	n/a
503.9595	0.09	1007919	keystroke_e	e	n/a
504.1695	0.075	1008339	keystroke_t	t	n/a
504.3345	0.075	1008669	keystroke_r	r	n/a
504.4545	0.105	1008909	keystroke_i	i	n/a
504.5895	0.09	1009179	keystroke_e	e	n/a
504.8595	0.075	1009719	keystroke_v	v	n/a
505.2045	0.135	1010409	keystroke_a	a	n/a
505.3245	0.135	1010649	keystroke_l	l	n/a
505.6395	0.075	1011279	keystroke_Key.enter	Key.enter	n/a
505.719	7.917	1011438	prompt	n/a	article electro future formula\n
506.2845	0.09	1012569	keystroke_a	a	n/a
506.4945	0.075	1012989	keystroke_r	r	n/a
506.6295	0.09	1013259	keystroke_t	t	n/a
506.7795	0.165	1013559	keystroke_i	i	n/a
506.9295	0.0755	1013859	keystroke_c	c	n/a
507.14	0.12	1014280	keystroke_l	l	n/a
507.6795	0.09	1015359	keystroke_e	e	n/a
507.8145	0.12	1015629	keystroke_Key.space	Key.space	n/a
508.4445	0.0745	1016889	keystroke_e	e	n/a
508.534	0.12	1017068	keystroke_l	l	n/a
508.609	0.09	1017218	keystroke_e	e	n/a
508.849	0.075	1017698	keystroke_c	c	n/a
509.089	0.075	1018178	keystroke_t	t	n/a
509.239	0.12	1018478	keystroke_r	r	n/a
509.404	0.18	1018808	keystroke_o	o	n/a
509.539	0.12	1019078	keystroke_Key.space	Key.space	n/a
510.1395	0.1195	1020279	keystroke_f	f	n/a
510.304	0.06	1020608	keystroke_u	u	n/a
510.394	0.1205	1020788	keystroke_t	t	n/a
510.5295	0.105	1021059	keystroke_u	u	n/a
510.6495	0.09	1021299	keystroke_r	r	n/a
510.8145	0.12	1021629	keystroke_e	e	n/a
510.9795	0.135	1021959	keystroke_Key.space	Key.space	n/a
511.2195	0.09	1022439	keystroke_f	f	n/a
511.3105	0.104	1022621	keystroke_o	o	n/a
511.4295	0.12	1022859	keystroke_r	r	n/a
511.5645	0.09	1023129	keystroke_u	u	n/a
511.7745	0.12	1023549	keystroke_m	m	n/a
512.4195	0.06	1024839	keystroke_Key.backspace	Key.backspace	n/a
512.5695	0.09	1025139	keystroke_Key.backspace	Key.backspace	n/a
512.8095	0.105	1025619	keystroke_m	m	n/a
513.0345	0.06	1026069	keystroke_u	u	n/a
513.1845	0.12	1026369	keystroke_l	l	n/a
513.3195	0.135	1026639	keystroke_a	a	n/a
513.5445	0.09	1027089	keystroke_Key.enter	Key.enter	n/a
513.64	7.991	1027280	prompt	n/a	ultimately sphere ralph leader\n
514.5945	0.075	1029189	keystroke_u	u	n/a
514.7895	0.105	1029579	keystroke_l	l	n/a
514.9095	0.105	1029819	keystroke_t	t	n/a
515.0295	0.21	1030059	keystroke_i	i	n/a
515.1945	0.195	1030389	keystroke_m	m	n/a
515.3745	0.105	1030749	keystroke_a	a	n/a
515.6295	0.075	1031259	keystroke_t	t	n/a
515.8395	0.09	1031679	keystroke_e	e	n/a
515.9895	0.1345	1031979	keystroke_l	l	n/a
516.154	0.12	1032308	keystroke_y	y	n/a
516.304	0.12	1032608	keystroke_Key.space	Key.space	n/a
516.5895	0.12	1033179	keystroke_s	s	n/a
516.6945	0.18	1033389	keystroke_p	p	n/a
516.8895	0.135	1033779	keystroke_h	h	n/a
517.0395	0.075	1034079	keystroke_e	e	n/a
517.219	0.06	1034438	keystroke_r	r	n/a
517.234	0.015	1034468	keystroke_e	e	n/a
517.429	0.105	1034858	keystroke_e	e	n/a
517.969	0.06	1035938	keystroke_Key.backspace	Key.backspace	n/a
518.179	0.09	1036358	keystroke_Key.backspace	Key.backspace	n/a
518.5395	0.09	1037079	keystroke_e	e	n/a
518.6745	0.1205	1037349	keystroke_Key.space	Key.space	n/a
519.38	0.075	1038760	keystroke_r	r	n/a
519.485	0.12	1038970	keystroke_a	a	n/a
519.605	0.09	1039210	keystroke_l	l	n/a
519.8	0.225	1039600	keystroke_p	p	n/a
519.965	0.255	1039930	keystroke_h	h	n/a
520.145	0.105	1040290	keystroke_Key.space	Key.space	n/a
520.415	0.1345	1040830	keystroke_l	l	n/a
520.5045	0.105	1041009	keystroke_e	e	n/a
520.6845	0.105	1041369	keystroke_a	a	n/a
520.8945	0.075	1041789	keystroke_d	d	n/a
521.0595	0.09	1042119	keystroke_e	e	n/a
521.2245	0.1205	1042449	keystroke_r	r	n/a
521.54	0.089	1043080	keystroke_Key.enter	Key.enter	n/a
521.634	6.222	1043268	prompt	n/a	employees leaving native caps\n
522.32	0.105	1044640	keystroke_e	e	n/a
522.44	0.1195	1044880	keystroke_m	m	n/a
522.6045	0.1345	1045209	keystroke_p	p	n/a
522.769	0.105	1045538	keystroke_l	l	n/a
522.949	0.106	1045898	keystroke_o	o	n/a
523.205	0.09	1046410	keystroke_y	y	n/a
523.34	0.075	1046680	keystroke_e	e	n/a
523.49	0.09	1046980	keystroke_e	e	n/a
523.67	0.1795	1047340	keystroke_s	s	n/a
523.8345	0.105	1047669	keystroke_Key.space	Key.space	n/a
524.015	0.149	1048030	keystroke_l	l	n/a
524.134	0.09	1048268	keystroke_e	e	n/a
524.344	0.135	1048688	keystroke_a	a	n/a
524.494	0.12	1048988	keystroke_v	v	n/a
524.674	0.285	1049348	keystroke_i	i	n/a
524.869	0.285	1049738	keystroke_n	n	n/a
525.02	0.164	1050040	keystroke_g	g	n/a
525.139	0.165	1050278	keystroke_Key.space	Key.space	n/a
525.3495	0.18	1050699	keystroke_n	n	n/a
525.4995	0.105	1050999	keystroke_a	a	n/a
525.725	0.105	1051450	keystroke_t	t	n/a
525.845	0.12	1051690	keystroke_i	i	n/a
526.025	0.105	1052050	keystroke_v	v	n/a
526.5345	0.105	1053069	keystroke_e	e	n/a
526.6545	0.105	1053309	keystroke_Key.space	Key.space	n/a
527.0295	0.075	1054059	keystroke_c	c	n/a
527.2395	0.12	1054479	keystroke_a	a	n/a
527.3745	0.15	1054749	keystroke_p	p	n/a
527.5245	0.105	1055049	keystroke_s	s	n/a
527.7495	0.105	1055499	keystroke_Key.enter	Key.enter	n/a
527.8595	9.147	1055719	prompt	n/a	fool switching excerpt chicken\n
528.59	0.09	1057180	keystroke_f	f	n/a
528.77	0.06	1057540	keystroke_o	o	n/a
528.95	0.0895	1057900	keystroke_o	o	n/a
529.1445	0.195	1058289	keystroke_l	l	n/a
529.3095	0.12	1058619	keystroke_Key.space	Key.space	n/a
529.5495	0.06	1059099	keystroke_w	w	n/a
530	0.075	1060000	keystroke_Key.backspace	Key.backspace	n/a
530.105	0.075	1060210	keystroke_s	s	n/a
530.27	0.105	1060540	keystroke_w	w	n/a
530.39	0.1345	1060780	keystroke_i	i	n/a
530.539	0.1055	1061078	keystroke_t	t	n/a
530.795	0.15	1061590	keystroke_c	c	n/a
530.915	0.12	1061830	keystroke_h	h	n/a
531.05	0.255	1062100	keystroke_i	i	n/a
531.215	0.165	1062430	keystroke_n	n	n/a
531.38	0.135	1062760	keystroke_g	g	n/a
531.5	0.105	1063000	keystroke_Key.space	Key.space	n/a
531.9345	0.075	1063869	keystroke_e	e	n/a
532.1745	0.075	1064349	keystroke_s	s	n/a
532.564	0.09	1065128	keystroke_Key.backspace	Key.backspace	n/a
532.669	0.075	1065338	keystroke_x	x	n/a
532.849	0.075	1065698	keystroke_c	c	n/a
533.045	0.104	1066090	keystroke_e	e	n/a
533.209	0.15	1066418	keystroke_p	p	n/a
533.344	0.12	1066688	keystroke_r	r	n/a
533.9145	0.075	1067829	keystroke_Key.backspace	Key.backspace	n/a
534.0495	0.09	1068099	keystroke_Key.backspace	Key.backspace	n/a
534.1695	0.12	1068339	keystroke_r	r	n/a
534.3195	0.12	1068639	keystroke_p	p	n/a
534.4695	0.0905	1068939	keystroke_t	t	n/a
534.575	0.105	1069150	keystroke_Key.space	Key.space	n/a
535.2945	0.12	1070589	keystroke_c	c	n/a
535.4145	0.18	1070829	keystroke_h	h	n/a
535.5345	0.1505	1071069	keystroke_i	i	n/a
535.6855	0.119	1071371	keystroke_c	c	n/a
535.8345	0.12	1071669	keystroke_k	k	n/a
535.9995	0.18	1071999	keystroke_e	e	n/a
536.1345	0.21	1072269	keystroke_n	n	n/a
536.2995	0.105	1072599	keystroke_Key.space	Key.space	n/a
536.6595	0.075	1073319	keystroke_Key.backspace	Key.backspace	n/a
536.9295	0.075	1073859	keystroke_Key.enter	Key.enter	n/a
537.009	6.357	1074018	prompt	n/a	they're return you're infected\n
537.755	0.09	1075510	keystroke_t	t	n/a
537.845	0.12	1075690	keystroke_h	h	n/a
538.01	0.165	1076020	keystroke_e	e	n/a
538.145	0.09	1076290	keystroke_y	y	n/a
538.37	0.105	1076740	keystroke_'	'	n/a
538.49	0.09	1076980	keystroke_r	r	n/a
538.64	0.135	1077280	keystroke_e	e	n/a
538.805	0.12	1077610	keystroke_Key.space	Key.space	n/a
538.91	0.105	1077820	keystroke_r	r	n/a
539.1045	0.09	1078209	keystroke_e	e	n/a
539.2845	0.105	1078569	keystroke_t	t	n/a
539.4945	0.105	1078989	keystroke_u	u	n/a
539.6145	0.15	1079229	keystroke_r	r	n/a
539.7795	0.2255	1079559	keystroke_n	n	n/a
