onset	duration	sample	value	key	prompt_text
6.9995	17.803	13999	prompt	n/a	the quick brown fox jumps over a lazy dog\n
8.272	0.012	16544	keystroke_t	t	n/a
8.329	0.075	16658	keystroke_h	h	n/a
8.8995	0.075	17799	keystroke_e	e	n/a
9.1245	0.075	18249	keystroke_Key.space	Key.space	n/a
9.3945	0.135	18789	keystroke_q	q	n/a
9.6195	0.06	19239	keystroke_u	u	n/a
9.8895	0.06	19779	keystroke_i	i	n/a
10.1145	0.06	20229	keystroke_c	c	n/a
10.2795	0.0905	20559	keystroke_k	k	n/a
10.505	0.074	21010	keystroke_Key.space	Key.space	n/a
11.389	0.076	22778	keystroke_b	b	n/a
11.72	0.075	23440	keystroke_r	r	n/a
11.9595	0.075	23919	keystroke_o	o	n/a
12.1545	0.075	24309	keystroke_w	w	n/a
12.3045	0.075	24609	keystroke_n	n	n/a
12.6345	0.075	25269	keystroke_Key.space	Key.space	n/a
13.2345	0.045	26469	keystroke_f	f	n/a
13.3995	0.075	26799	keystroke_o	o	n/a
13.6695	0.075	27339	keystroke_x	x	n/a
13.8195	0.06	27639	keystroke_Key.space	Key.space	n/a
14.4045	0.06	28809	keystroke_j	j	n/a
14.615	0.0745	29230	keystroke_u	u	n/a
14.8395	0.09	29679	keystroke_m	m	n/a
15.0795	0.03	30159	keystroke_o	o	n/a
15.2295	0.09	30459	keystroke_p	p	n/a
15.919	0.075	31838	keystroke_Key.backspace	Key.backspace	n/a
16.4595	0.075	32919	keystroke_Key.backspace	Key.backspace	n/a
17.0595	0.075	34119	keystroke_p	p	n/a
17.2095	0.0745	34419	keystroke_s	s	n/a
17.404	0.0905	34808	keystroke_Key.space	Key.space	n/a
17.9895	0.09	35979	keystroke_o	o	n/a
18.7695	0.03	37539	keystroke_b	b	n/a
19.3845	0.0905	38769	keystroke_Key.backspace	Key.backspace	n/a
19.535	0.0895	39070	keystroke_v	v	n/a
19.8345	0.12	39669	keystroke_e	e	n/a
20.105	0.06	40210	keystroke_r	r	n/a
20.944	0.0605	41888	keystroke_Key.space	Key.space	n/a
21.1245	0.075	42249	keystroke_a	a	n/a
21.2895	0.0895	42579	keystroke_Key.space	Key.space	n/a
21.545	0.09	43090	keystroke_l	l	n/a
21.71	0.075	43420	keystroke_a	a	n/a
22.46	0.12	44920	keystroke_z	z	n/a
22.6545	0.075	45309	keystroke_y	y	n/a
22.9545	0.105	45909	keystroke_Key.space	Key.space	n/a
23.87	0.0745	47740	keystroke_d	d	n/a
24.079	0.0905	48158	keystroke_o	o	n/a
24.2445	0.075	48489	keystroke_g	g	n/a
24.7095	0.09	49419	keystroke_Key.enter	Key.enter	n/a
24.8065	15.505	49613	prompt	n/a	harmful took aboriginal biol\n
25.7595	0.061	51519	keystroke_h	h	n/a
26.2695	0.105	52539	keystroke_a	a	n/a
26.54	0.06	53080	keystroke_r	r	n/a
26.675	0.06	53350	keystroke_m	m	n/a
27.095	0.06	54190	keystroke_f	f	n/a
27.32	0.075	54640	keystroke_u	u	n/a
27.5755	0.105	55151	keystroke_l	l	n/a
28.2495	0.075	56499	keystroke_Key.space	Key.space	n/a
28.6995	0.06	57399	keystroke_t	t	n/a
28.8355	0.0895	57671	keystroke_o	o	n/a
28.97	0.09	57940	keystroke_o	o	n/a
29.18	0.09	58360	keystroke_k	k	n/a
29.4195	0.0895	58839	keystroke_Key.space	Key.space	n/a
30.3495	0.12	60699	keystroke_a	a	n/a
31.0395	0.15	62079	keystroke_b	b	n/a
32.1945	0.09	64389	keystroke_o	o	n/a
32.4045	0.075	64809	keystroke_r	r	n/a
32.8995	0.06	65799	keystroke_i	i	n/a
33.4995	0.075	66999	keystroke_g	g	n/a
34.955	0.06	69910	keystroke_n	n	n/a
35.794	0.106	71588	keystroke_Key.backspace	Key.backspace	n/a
36.5745	0.03	73149	keystroke_i	i	n/a
36.7545	0.075	73509	keystroke_n	n	n/a
36.9345	0.105	73869	keystroke_a	a	n/a
37.0695	0.09	74139	keystroke_l	l	n/a
37.6995	0.075	75399	keystroke_Key.space	Key.space	n/a
38.3295	0.06	76659	keystroke_b	b	n/a
38.6145	0.06	77229	keystroke_i	i	n/a
38.8095	0.0755	77619	keystroke_o	o	n/a
39.725	0.09	79450	keystroke_l	l	n/a
40.2345	0.075	80469	keystroke_Key.enter	Key.enter	n/a
40.315	15.942	80630	prompt	n/a	great missions parenting intention\n
41.2405	0.06	82481	keystroke_g	g	n/a
41.5105	0.09	83021	keystroke_r	r	n/a
41.7205	0.075	83441	keystroke_e	e	n/a
41.9595	0.105	83919	keystroke_a	a	n/a
42.245	0.075	84490	keystroke_t	t	n/a
42.7695	0.09	85539	keystroke_Key.space	Key.space	n/a
43.175	0.0745	86350	keystroke_m	m	n/a
43.3855	0.059	86771	keystroke_i	i	n/a
43.5645	0.091	87129	keystroke_s	s	n/a
43.7145	0.0905	87429	keystroke_s	s	n/a
43.835	0.12	87670	keystroke_i	i	n/a
44	0.12	88000	keystroke_o	o	n/a
44.225	0.075	88450	keystroke_n	n	n/a
44.855	0.09	89710	keystroke_s	s	n/a
45.08	0.09	90160	keystroke_Key.space	Key.space	n/a
45.515	0.06	91030	keystroke_p	p	n/a
45.785	0.1195	91570	keystroke_a	a	n/a
46.2045	0.045	92409	keystroke_r	r	n/a
46.8205	0.0745	93641	keystroke_e	e	n/a
47.57	0.075	95140	keystroke_n	n	n/a
47.705	0.06	95410	keystroke_t	t	n/a
47.825	0.075	95650	keystroke_i	i	n/a
48.02	0.0745	96040	keystroke_n	n	n/a
48.2295	0.06	96459	keystroke_g	g	n/a
48.9945	0.1055	97989	keystroke_Key.space	Key.space	n/a
49.22	0.06	98440	keystroke_i	i	n/a
49.46	0.105	98920	keystroke_n	n	n/a
49.76	0.06	99520	keystroke_t	t	n/a
50.39	0.105	100780	keystroke_e	e	n/a
50.705	0.075	101410	keystroke_r	r	n/a
51.4245	0.0755	102849	keystroke_n	n	n/a
52.775	0.09	105550	keystroke_Key.backspace	Key.backspace	n/a
53.405	0.075	106810	keystroke_Key.backspace	Key.backspace	n/a
54.0655	0.0745	108131	keystroke_n	n	n/a
54.41	0.06	108820	keystroke_t	t	n/a
55.0845	0.06	110169	keystroke_i	i	n/a
55.2345	0.09	110469	keystroke_o	o	n/a
55.475	0.09	110950	keystroke_n	n	n/a
56.225	0.03	112450	keystroke_Key.enter	Key.enter	n/a
56.26	18.5375	112520	prompt	n/a	millennium pressing presents placement\n
57.1095	0.105	114219	keystroke_m	m	n/a
57.3495	0.075	114699	keystroke_i	i	n/a
57.6495	0.075	115299	keystroke_l	l	n/a
58.3245	0.0605	116649	keystroke_l	l	n/a
58.8345	0.076	117669	keystroke_e	e	n/a
59.45	0.045	118900	keystroke_n	n	n/a
59.885	0.015	119770	keystroke_n	n	n/a
60.3645	0.06	120729	keystroke_u	u	n/a
61.5645	0.045	123129	keystroke_Key.backspace	Key.backspace	n/a
62.1195	0.12	124239	keystroke_i	i	n/a
62.585	0.075	125170	keystroke_u	u	n/a
63.1555	0.0745	126311	keystroke_m	m	n/a
63.905	0.105	127810	keystroke_Key.space	Key.space	n/a
64.4	0.06	128800	keystroke_p	p	n/a
64.595	0.0905	129190	keystroke_r	r	n/a
64.835	0.09	129670	keystroke_e	e	n/a
65.1055	0.075	130211	keystroke_s	s	n/a
65.2545	0.1355	130509	keystroke_s	s	n/a
65.435	0.075	130870	keystroke_i	i	n/a
65.645	0.09	131290	keystroke_n	n	n/a
65.825	0.06	131650	keystroke_g	g	n/a
66.275	0.0895	132550	keystroke_Key.space	Key.space	n/a
66.7405	0.06	133481	keystroke_p	p	n/a
66.9505	0.075	133901	keystroke_r	r	n/a
67.2205	0.045	134441	keystroke_e	e	n/a
67.4755	0.06	134951	keystroke_s	s	n/a
67.8805	0.075	135761	keystroke_e	e	n/a
68.3755	0.06	136751	keystroke_n	n	n/a
68.5995	0.06	137199	keystroke_t	t	n/a
68.975	0.09	137950	keystroke_s	s	n/a
69.395	0.12	138790	keystroke_Key.space	Key.space	n/a
69.71	0.09	139420	keystroke_p	p	n/a
69.92	0.105	139840	keystroke_l	l	n/a
70.13	0.105	140260	keystroke_a	a	n/a
70.82	0.075	141640	keystroke_c	c	n/a
71.09	0.075	142180	keystroke_e	e	n/a
71.7055	0.075	143411	keystroke_m	m	n/a
72.7705	0.075	145541	keystroke_e	e	n/a
73.0105	0.06	146021	keystroke_n	n	n/a
73.2355	0.075	146471	keystroke_t	t	n/a
74.6755	0.119	149351	keystroke_Key.enter	Key.enter	n/a
74.8005	14.6665	149601	prompt	n/a	starring used recently creatures\n
75.7845	0.075	151569	keystroke_s	s	n/a
76.1895	0.075	152379	keystroke_t	t	n/a
76.7305	0.12	153461	keystroke_a	a	n/a
77.0605	0.09	154121	keystroke_r	r	n/a
77.5255	0.03	155051	keystroke_r	r	n/a
77.6305	0.09	155261	keystroke_i	i	n/a
77.8405	0.075	155681	keystroke_n	n	n/a
78.0055	0.045	156011	keystroke_g	g	n/a
78.6505	0.075	157301	keystroke_Key.space	Key.space	n/a
79.3405	0.075	158681	keystroke_u	u	n/a
79.4755	0.09	158951	keystroke_s	s	n/a
79.7305	0.075	159461	keystroke_e	e	n/a
79.985	0.075	159970	keystroke_d	d	n/a
80.255	0.09	160510	keystroke_Key.space	Key.space	n/a
81.1095	0.075	162219	keystroke_r	r	n/a
81.335	0.075	162670	keystroke_e	e	n/a
81.6205	0.075	163241	keystroke_c	c	n/a
81.8905	0.06	163781	keystroke_e	e	n/a
83.0155	0.06	166031	keystroke_n	n	n/a
83.6455	0.075	167291	keystroke_t	t	n/a
83.7955	0.09	167591	keystroke_l	l	n/a
84.1705	0.075	168341	keystroke_y	y	n/a
84.4255	0.105	168851	keystroke_Key.space	Key.space	n/a
85.52	0.09	171040	keystroke_c	c	n/a
85.82	0.09	171640	keystroke_r	r	n/a
86.015	0.09	172030	keystroke_e	e	n/a
86.285	0.105	172570	keystroke_a	a	n/a
86.645	0.06	173290	keystroke_t	t	n/a
86.81	0.06	173620	keystroke_u	u	n/a
86.945	0.075	173890	keystroke_r	r	n/a
87.2	0.06	174400	keystroke_e	e	n/a
88.16	0.075	176320	keystroke_s	s	n/a
89.39	0.075	178780	keystroke_Key.enter	Key.enter	n/a
89.4705	20.4115	178941	prompt	n/a	enjoying explain sensitivity vincent\n
90.395	0.06	180790	keystroke_e	e	n/a
90.635	0.075	181270	keystroke_n	n	n/a
90.98	0.06	181960	keystroke_j	j	n/a
91.205	0.105	182410	keystroke_o	o	n/a
91.595	0.06	183190	keystroke_y	y	n/a
91.82	0.075	183640	keystroke_e	e	n/a
92.21	0.06	184420	keystroke_d	d	n/a
93.0645	0.09	186129	keystroke_Key.backspace	Key.backspace	n/a
93.8	0.09	187600	keystroke_Key.backspace	Key.backspace	n/a
94.7305	0.075	189461	keystroke_i	i	n/a
94.895	0.09	189790	keystroke_n	n	n/a
95.09	0.06	190180	keystroke_g	g	n/a
95.9	0.1045	191800	keystroke_Key.space	Key.space	n/a
96.6045	0.075	193209	keystroke_e	e	n/a
96.9195	0.105	193839	keystroke_x	x	n/a
97.1745	0.09	194349	keystroke_p	p	n/a
97.3995	0.12	194799	keystroke_l	l	n/a
98.1945	0.09	196389	keystroke_a	a	n/a
98.345	0.0745	196690	keystroke_i	i	n/a
98.5395	0.0905	197079	keystroke_n	n	n/a
98.9755	0.09	197951	keystroke_Key.space	Key.space	n/a
99.5755	0.149	199151	keystroke_s	s	n/a
99.8145	0.06	199629	keystroke_e	e	n/a
100.3395	0.015	200679	keystroke_n	n	n/a
100.76	0.09	201520	keystroke_s	s	n/a
100.97	0.075	201940	keystroke_i	i	n/a
101.945	0.0745	203890	keystroke_t	t	n/a
102.68	0.06	205360	keystroke_y	y	n/a
103.835	0.075	207670	keystroke_Key.backspace	Key.backspace	n/a
104.54	0.06	209080	keystroke_i	i	n/a
105.095	0.06	210190	keystroke_v	v	n/a
105.245	0.075	210490	keystroke_i	i	n/a
105.5	0.06	211000	keystroke_t	t	n/a
105.635	0.075	211270	keystroke_y	y	n/a
106.325	0.09	212650	keystroke_Key.space	Key.space	n/a
107.03	0.06	214060	keystroke_v	v	n/a
107.225	0.09	214450	keystroke_i	i	n/a
107.81	0.06	215620	keystroke_n	n	n/a
108.095	0.075	216190	keystroke_c	c	n/a
108.395	0.06	216790	keystroke_e	e	n/a
108.575	0.075	217150	keystroke_n	n	n/a
108.9045	0.06	217809	keystroke_t	t	n/a
109.8345	0.045	219669	keystroke_Key.enter	Key.enter	n/a
109.8855	7.976	219771	prompt	n/a	pale seeker hotel deaths\n
110.6605	0.12	221321	keystroke_p	p	n/a
111.23	0.075	222460	keystroke_a	a	n/a
111.3955	0.075	222791	keystroke_l	l	n/a
111.5895	0.06	223179	keystroke_e	e	n/a
112.0995	0.09	224199	keystroke_Key.space	Key.space	n/a
112.3695	0.09	224739	keystroke_s	s	n/a
112.6245	0.06	225249	keystroke_e	e	n/a
112.745	0.0905	225490	keystroke_e	e	n/a
112.9105	0.075	225821	keystroke_k	k	n/a
113.1205	0.075	226241	keystroke_e	e	n/a
113.3755	0.06	226751	keystroke_r	r	n/a
113.6455	0.075	227291	keystroke_Key.space	Key.space	n/a
114.0945	0.0905	228189	keystroke_h	h	n/a
114.335	0.09	228670	keystroke_o	o	n/a
114.575	0.06	229150	keystroke_t	t	n/a
114.8895	0.06	229779	keystroke_e	e	n/a
115.0095	0.075	230019	keystroke_l	l	n/a
115.6095	0.09	231219	keystroke_Key.space	Key.space	n/a
116.0895	0.075	232179	keystroke_d	d	n/a
116.3145	0.06	232629	keystroke_e	e	n/a
116.5245	0.09	233049	keystroke_a	a	n/a
116.8245	0.06	233649	keystroke_t	t	n/a
116.9145	0.075	233829	keystroke_h	h	n/a
117.2145	0.075	234429	keystroke_s	s	n/a
117.785	0.0755	235570	keystroke_Key.enter	Key.enter	n/a
117.8665	25.0305	235733	prompt	n/a	bones organisation qatar earrings\n
119.405	0.075	238810	keystroke_b	b	n/a
119.5245	0.075	239049	keystroke_o	o	n/a
119.7495	0.075	239499	keystroke_n	n	n/a
119.9605	0.074	239921	keystroke_e	e	n/a
120.2745	0.075	240549	keystroke_s	s	n/a
120.68	0.09	241360	keystroke_Key.space	Key.space	n/a
121.0995	0.075	242199	keystroke_o	o	n/a
121.295	0.0595	242590	keystroke_r	r	n/a
122.4195	0.06	244839	keystroke_g	g	n/a
122.7345	0.0905	245469	keystroke_a	a	n/a
123.185	0.075	246370	keystroke_n	n	n/a
123.5595	0.06	247119	keystroke_i	i	n/a
123.8305	0.074	247661	keystroke_s	s	n/a
126.1275	0	252255	keystroke_a	a	n/a
126.4705	0.075	252941	keystroke_t	t	n/a
126.6955	0.09	253391	keystroke_i	i	n/a
127.1755	0.075	254351	keystroke_o	o	n/a
127.5055	0.09	255011	keystroke_n	n	n/a
133.6725	0.043	267345	keystroke_q	q	n/a
134.4205	0.135	268841	keystroke_Key.backspace	Key.backspace	n/a
134.7955	0.09	269591	keystroke_Key.space	Key.space	n/a
135.3805	0.105	270761	keystroke_q	q	n/a
135.7105	0.12	271421	keystroke_a	a	n/a
136.1005	0.06	272201	keystroke_t	t	n/a
136.4155	0.12	272831	keystroke_a	a	n/a
136.8505	0.045	273701	keystroke_r	r	n/a
137.2555	0.09	274511	keystroke_Key.space	Key.space	n/a
137.5855	0.105	275171	keystroke_e	e	n/a
137.8555	0.135	275711	keystroke_a	a	n/a
138.2305	0.1045	276461	keystroke_r	r	n/a
140.812	0.001	281624	keystroke_i	i	n/a
140.9455	0.09	281891	keystroke_n	n	n/a
141.1555	0.06	282311	keystroke_g	g	n/a
142.3555	0.075	284711	keystroke_s	s	n/a
142.8045	0.0905	285609	keystroke_Key.enter	Key.enter	n/a
142.9	17.547	285800	prompt	n/a	thorough traveling dense achieving\n
143.75	0.0755	287500	keystroke_t	t	n/a
143.8405	0.105	287681	keystroke_h	h	n/a
144.0055	0.0755	288011	keystroke_r	r	n/a
144.171	0.075	288342	keystroke_o	o	n/a
144.276	0.059	288552	keystroke_o	o	n/a
145.205	0.105	290410	keystroke_Key.backspace	Key.backspace	n/a
146.2255	0.03	292451	keystroke_u	u	n/a
146.6455	0.075	293291	keystroke_g	g	n/a
146.7955	0.075	293591	keystroke_h	h	n/a
148.1605	0.075	296321	keystroke_Key.space	Key.space	n/a
148.5805	0.075	297161	keystroke_t	t	n/a
148.7905	0.06	297581	keystroke_r	r	n/a
149.0605	0.105	298121	keystroke_a	a	n/a
149.3455	0.075	298691	keystroke_v	v	n/a
149.5705	0.075	299141	keystroke_e	e	n/a
149.7205	0.09	299441	keystroke_l	l	n/a
149.9905	0.075	299981	keystroke_i	i	n/a
150.2005	0.075	300401	keystroke_n	n	n/a
150.3805	0.06	300761	keystroke_g	g	n/a
151.175	0.075	302350	keystroke_Key.space	Key.space	n/a
151.67	0.09	303340	keystroke_d	d	n/a
151.91	0.0605	303820	keystroke_e	e	n/a
152.105	0.06	304210	keystroke_n	n	n/a
152.331	0.075	304662	keystroke_s	s	n/a
153.141	0.0745	306282	keystroke_e	e	n/a
153.8155	0.09	307631	keystroke_Key.space	Key.space	n/a
154.4305	0.12	308861	keystroke_a	a	n/a
154.9555	0.075	309911	keystroke_c	c	n/a
155.1505	0.06	310301	keystroke_h	h	n/a
156.1255	0.06	312251	keystroke_i	i	n/a
156.3055	0.075	312611	keystroke_e	e	n/a
156.6055	0.075	313211	keystroke_v	v	n/a
156.861	0.075	313722	keystroke_e	e	n/a
158.0005	0.06	316001	keystroke_Key.backspace	Key.backspace	n/a
158.66	0.061	317320	keystroke_i	i	n/a
158.8405	0.09	317681	keystroke_n	n	n/a
159.0355	0.06	318071	keystroke_g	g	n/a
160.3855	0.0595	320771	keystroke_Key.enter	Key.enter	n/a
160.45	13.317	320900	prompt	n/a	nodes contained recovered treated\n
161.285	0.09	322570	keystroke_n	n	n/a
161.5255	0.075	323051	keystroke_o	o	n/a
161.7055	0.075	323411	keystroke_d	d	n/a
161.9005	0.06	323801	keystroke_e	e	n/a
162.5155	0.09	325031	keystroke_s	s	n/a
162.7255	0.075	325451	keystroke_Key.space	Key.space	n/a
163.221	0.075	326442	keystroke_c	c	n/a
163.356	0.075	326712	keystroke_o	o	n/a
163.566	0.0745	327132	keystroke_n	n	n/a
163.7755	0.045	327551	keystroke_t	t	n/a
164.0455	0.075	328091	keystroke_a	a	n/a
164.1655	0.06	328331	keystroke_i	i	n/a
164.3755	0.075	328751	keystroke_n	n	n/a
164.541	0.059	329082	keystroke_e	e	n/a
164.78	0.0605	329560	keystroke_d	d	n/a
165.501	0.09	331002	keystroke_Key.space	Key.space	n/a
165.9355	0.09	331871	keystroke_r	r	n/a
166.1905	0.06	332381	keystroke_e	e	n/a
166.4905	0.075	332981	keystroke_c	c	n/a
166.6105	0.09	333221	keystroke_o	o	n/a
166.835	0.061	333670	keystroke_v	v	n/a
167.076	0.09	334152	keystroke_e	e	n/a
167.3005	0.06	334601	keystroke_r	r	n/a
168.771	0.06	337542	keystroke_e	e	n/a
169.026	0.0895	338052	keystroke_d	d	n/a
169.6405	0.075	339281	keystroke_Key.space	Key.space	n/a
170.0455	0.075	340091	keystroke_t	t	n/a
170.2555	0.09	340511	keystroke_r	r	n/a
170.4955	0.075	340991	keystroke_e	e	n/a
170.7505	0.09	341501	keystroke_a	a	n/a
171.0205	0.075	342041	keystroke_t	t	n/a
171.2605	0.0745	342521	keystroke_e	e	n/a
171.5	0.12	343000	keystroke_d	d	n/a
173.753	0.012	347506	keystroke_Key.enter	Key.enter	n/a
173.7705	13.2865	347541	prompt	n/a	hosted blogs average constraints\n
174.605	0.075	349210	keystroke_h	h	n/a
174.8	0.075	349600	keystroke_o	o	n/a
174.995	0.09	349990	keystroke_s	s	n/a
175.28	0.06	350560	keystroke_t	t	n/a
175.505	0.06	351010	keystroke_e	e	n/a
175.715	0.075	351430	keystroke_d	d	n/a
176.315	0.075	352630	keystroke_Key.space	Key.space	n/a
176.735	0.075	353470	keystroke_b	b	n/a
176.87	0.0755	353740	keystroke_l	l	n/a
177.0955	0.06	354191	keystroke_o	o	n/a
177.666	0.06	355332	keystroke_g	g	n/a
178.2805	0.075	356561	keystroke_Key.space	Key.space	n/a
178.791	0.075	357582	keystroke_a	a	n/a
179.301	0.12	358602	keystroke_v	v	n/a
179.601	0.105	359202	keystroke_e	e	n/a
179.841	0.075	359682	keystroke_r	r	n/a
180.666	0.1045	361332	keystroke_a	a	n/a
181.0855	0.045	362171	keystroke_g	g	n/a
181.3105	0.06	362621	keystroke_e	e	n/a
182.045	0.09	364090	keystroke_Key.space	Key.space	n/a
182.436	0.06	364872	keystroke_c	c	n/a
182.556	0.075	365112	keystroke_o	o	n/a
182.811	0.074	365622	keystroke_n	n	n/a
183.08	0.09	366160	keystroke_s	s	n/a
184.2205	0.12	368441	keystroke_t	t	n/a
184.4755	0.09	368951	keystroke_r	r	n/a
185.241	0.09	370482	keystroke_a	a	n/a
185.45	0.06	370900	keystroke_i	i	n/a
185.66	0.075	371320	keystroke_n	n	n/a
186.185	0.045	372370	keystroke_t	t	n/a
186.455	0.09	372910	keystroke_s	s	n/a
187.01	0.045	374020	keystroke_Key.enter	Key.enter	n/a
187.0615	12.1305	374123	prompt	n/a	summit characterized decent setting\n
187.7605	0.075	375521	keystroke_s	s	n/a
187.9705	0.075	375941	keystroke_u	u	n/a
188.2555	0.075	376511	keystroke_m	m	n/a
188.3905	0.09	376781	keystroke_m	m	n/a
188.6155	0.06	377231	keystroke_i	i	n/a
188.841	0.06	377682	keystroke_t	t	n/a
189.5455	0.075	379091	keystroke_Key.space	Key.space	n/a
189.8605	0.075	379721	keystroke_c	c	n/a
189.9805	0.075	379961	keystroke_h	h	n/a
190.1905	0.105	380381	keystroke_a	a	n/a
190.4755	0.075	380951	keystroke_r	r	n/a
190.7305	0.0905	381461	keystroke_a	a	n/a
191.21	0.045	382420	keystroke_c	c	n/a
191.526	0.045	383052	keystroke_t	t	n/a
191.766	0.09	383532	keystroke_e	e	n/a
191.99	0.06	383980	keystroke_r	r	n/a
192.2605	0.06	384521	keystroke_i	i	n/a
192.5605	0.09	385121	keystroke_x	x	n/a
193.265	0.06	386530	keystroke_Key.backspace	Key.backspace	n/a
193.416	0.134	386832	keystroke_z	z	n/a
193.926	0.09	387852	keystroke_e	e	n/a
194.181	0.075	388362	keystroke_d	d	n/a
194.496	0.06	388992	keystroke_Key.space	Key.space	n/a
194.826	0.0745	389652	keystroke_d	d	n/a
195.0505	0.075	390101	keystroke_e	e	n/a
195.3205	0.09	390641	keystroke_c	c	n/a
195.5905	0.075	391181	keystroke_e	e	n/a
195.7405	0.06	391481	keystroke_n	n	n/a
196.0555	0.075	392111	keystroke_t	t	n/a
196.5505	0.075	393101	keystroke_Key.space	Key.space	n/a
196.941	0.075	393882	keystroke_s	s	n/a
197.196	0.0745	394392	keystroke_e	e	n/a
197.5255	0.075	395051	keystroke_t	t	n/a
197.6605	0.075	395321	keystroke_t	t	n/a
197.8255	0.09	395651	keystroke_i	i	n/a
198.0205	0.09	396041	keystroke_n	n	n/a
198.2305	0.06	396461	keystroke_g	g	n/a
199.101	0.0895	398202	keystroke_Key.enter	Key.enter	n/a
199.1965	18.2205	398393	prompt	n/a	tion explore prostores ntsc\n
200.196	0.0445	400392	keystroke_t	t	n/a
200.301	0.0595	400602	keystroke_i	i	n/a
200.4505	0.0905	400901	keystroke_o	o	n/a
200.661	0.0745	401322	keystroke_n	n	n/a
201.1855	0.12	402371	keystroke_Key.space	Key.space	n/a
201.576	0.045	403152	keystroke_e	e	n/a
202.071	0.09	404142	keystroke_x	x	n/a
202.296	0.09	404592	keystroke_p	p	n/a
202.536	0.09	405072	keystroke_l	l	n/a
202.746	0.075	405492	keystroke_o	o	n/a
202.941	0.105	405882	keystroke_s	s	n/a
204.126	0.06	408252	keystroke_Key.backspace	Key.backspace	n/a
204.83	0.105	409660	keystroke_r	r	n/a
204.98	0.045	409960	keystroke_e	e	n/a
206.6755	0.09	413351	keystroke_Key.space	Key.space	n/a
207.29	0.0605	414580	keystroke_p	p	n/a
207.575	0.0755	415150	keystroke_r	r	n/a
207.7555	0.0755	415511	keystroke_o	o	n/a
208.6855	0.0745	417371	keystroke_s	s	n/a
209.0305	0.06	418061	keystroke_t	t	n/a
209.1655	0.09	418331	keystroke_o	o	n/a
209.436	0.09	418872	keystroke_r	r	n/a
209.811	0.075	419622	keystroke_e	e	n/a
210.531	0.089	421062	keystroke_s	s	n/a
210.815	0.076	421630	keystroke_Key.space	Key.space	n/a
211.521	0.045	423042	keystroke_n	n	n/a
211.941	0.045	423882	keystroke_t	t	n/a
213.231	0.0895	426462	keystroke_s	s	n/a
213.591	0.105	427182	keystroke_c	c	n/a
217.3875	0.028	434775	keystroke_Key.enter	Key.enter	n/a
217.42	13.752	434840	prompt	n/a	annoying baseball bluetooth adipex\n
218.3605	0.12	436721	keystroke_a	a	n/a
218.5705	0.06	437141	keystroke_n	n	n/a
218.6905	0.1055	437381	keystroke_n	n	n/a
218.901	0.09	437802	keystroke_o	o	n/a
219.3055	0.06	438611	keystroke_y	y	n/a
219.9805	0.06	439961	keystroke_i	i	n/a
220.1605	0.075	440321	keystroke_n	n	n/a
220.3405	0.06	440681	keystroke_g	g	n/a
220.9705	0.09	441941	keystroke_Key.space	Key.space	n/a
221.6155	0.075	443231	keystroke_b	b	n/a
221.9455	0.12	443891	keystroke_a	a	n/a
222.2305	0.09	444461	keystroke_s	s	n/a
222.4855	0.075	444971	keystroke_e	e	n/a
222.9655	0.09	445931	keystroke_b	b	n/a
223.296	0.075	446592	keystroke_a	a	n/a
223.431	0.075	446862	keystroke_l	l	n/a
223.566	0.105	447132	keystroke_l	l	n/a
223.8355	0.105	447671	keystroke_Key.space	Key.space	n/a
224.796	0.045	449592	keystroke_b	b	n/a
224.856	0.105	449712	keystroke_l	l	n/a
225.141	0.075	450282	keystroke_u	u	n/a
225.351	0.06	450702	keystroke_e	e	n/a
225.996	0.09	451992	keystroke_t	t	n/a
226.179	0.072	452358	keystroke_o	o	n/a
226.311	0.09	452622	keystroke_o	o	n/a
226.791	0.0445	453582	keystroke_t	t	n/a
226.9105	0.075	453821	keystroke_h	h	n/a
227.6755	0.09	455351	keystroke_Key.space	Key.space	n/a
228.0055	0.105	456011	keystroke_a	a	n/a
228.3355	0.075	456671	keystroke_d	d	n/a
229.221	0.09	458442	keystroke_i	i	n/a
229.4305	0.105	458861	keystroke_p	p	n/a
229.7155	0.06	459431	keystroke_e	e	n/a
230.181	0.105	460362	keystroke_x	x	n/a
231.156	0.015	462312	keystroke_Key.enter	Key.enter	n/a
231.176	22.9615	462352	prompt	n/a	finger developmental quantitative core\n
232.236	0.06	464472	keystroke_f	f	n/a
232.371	0.06	464742	keystroke_i	i	n/a
232.596	0.045	465192	keystroke_n	n	n/a
232.896	0.06	465792	keystroke_g	g	n/a
233.106	0.09	466212	keystroke_e	e	n/a
233.316	0.06	466632	keystroke_r	r	n/a
233.886	0.045	467772	keystroke_Key.space	Key.space	n/a
234.3355	0.0755	468671	keystroke_d	d	n/a
234.546	0.075	469092	keystroke_e	e	n/a
234.816	0.0745	469632	keystroke_v	v	n/a
235.0405	0.09	470081	keystroke_e	e	n/a
235.8655	0.09	471731	keystroke_l	l	n/a
236.1655	0.091	472331	keystroke_p	p	n/a
237.0955	0.105	474191	keystroke_Key.backspace	Key.backspace	n/a
237.7255	0.105	475451	keystroke_o	o	n/a
238.7905	0.1355	477581	keystroke_p	p	n/a
239.646	0.06	479292	keystroke_m	m	n/a
239.8265	0.09	479653	keystroke_e	e	n/a
239.976	0.06	479952	keystroke_n	n	n/a
240.216	0.0905	480432	keystroke_t	t	n/a
240.9205	0.09	481841	keystroke_a	a	n/a
241.0555	0.09	482111	keystroke_l	l	n/a
241.4005	0.075	482801	keystroke_Key.space	Key.space	n/a
242.0605	0.075	484121	keystroke_q	q	n/a
242.2555	0.075	484511	keystroke_u	u	n/a
242.526	0.105	485052	keystroke_a	a	n/a
242.9305	0.045	485861	keystroke_t	t	n/a
244.206	0.06	488412	keystroke_Key.backspace	Key.backspace	n/a
245.1965	0.074	490393	keystroke_n	n	n/a
245.5715	0.059	491143	keystroke_t	t	n/a
246.801	0.075	493602	keystroke_i	i	n/a
247.071	0.075	494142	keystroke_t	t	n/a
247.806	0.09	495612	keystroke_a	a	n/a
250.103	0.088	500206	keystroke_t	t	n/a
250.206	0.015	500412	keystroke_i	i	n/a
251.016	0.045	502032	keystroke_v	v	n/a
251.256	0.075	502512	keystroke_e	e	n/a
252.006	0.09	504012	keystroke_Key.space	Key.space	n/a
252.666	0.12	505332	keystroke_c	c	n/a
252.8605	0.015	505721	keystroke_o	o	n/a
252.9805	0.06	505961	keystroke_r	r	n/a
253.191	0.075	506382	keystroke_e	e	n/a
254.0455	0.09	508091	keystroke_Key.enter	Key.enter	n/a
254.14	17.9225	508280	prompt	n/a	attitudes spin cdna vernon\n
255.0205	0.15	510041	keystroke_a	a	n/a
255.3955	0.075	510791	keystroke_t	t	n/a
255.5305	0.09	511061	keystroke_t	t	n/a
255.891	0.06	511782	keystroke_i	i	n/a
256.821	0.06	513642	keystroke_u	u	n/a
257.6015	0.09	515203	keystroke_Key.backspace	Key.backspace	n/a
258.6355	0.09	517271	keystroke_t	t	n/a
262.313	0.013	524626	keystroke_u	u	n/a
262.446	0.075	524892	keystroke_d	d	n/a
262.6705	0.06	525341	keystroke_e	e	n/a
263.061	0.075	526122	keystroke_s	s	n/a
263.346	0.06	526692	keystroke_Key.space	Key.space	n/a
263.541	0.105	527082	keystroke_s	s	n/a
263.661	0.135	527322	keystroke_p	p	n/a
263.886	0.09	527772	keystroke_i	i	n/a
264.1415	0.105	528283	keystroke_n	n	n/a
264.5615	0.09	529123	keystroke_Key.space	Key.space	n/a
265.1915	0.09	530383	keystroke_c	c	n/a
265.641	0.06	531282	keystroke_d	d	n/a
266.7205	0.0755	533441	keystroke_n	n	n/a
266.9455	0.09	533891	keystroke_a	a	n/a
267.2005	0.075	534401	keystroke_Key.space	Key.space	n/a
268.2065	0.075	536413	keystroke_v	v	n/a
268.4315	0.105	536863	keystroke_e	e	n/a
268.6715	0.06	537343	keystroke_r	r	n/a
268.8655	0.09	537731	keystroke_n	n	n/a
269.1355	0.1055	538271	keystroke_o	o	n/a
270.621	0.075	541242	keystroke_n	n	n/a
271.986	0.075	543972	keystroke_Key.enter	Key.enter	n/a
272.0655	12.2515	544131	prompt	n/a	reason complaints window grades\n
273.0955	0.09	546191	keystroke_r	r	n/a
273.3055	0.075	546611	keystroke_e	e	n/a
273.5755	0.09	547151	keystroke_a	a	n/a
273.8305	0.06	547661	keystroke_s	s	n/a
273.9805	0.075	547961	keystroke_o	o	n/a
274.2205	0.09	548441	keystroke_n	n	n/a
274.986	0.075	549972	keystroke_Key.space	Key.space	n/a
275.421	0.044	550842	keystroke_c	c	n/a
275.526	0.09	551052	keystroke_o	o	n/a
275.736	0.075	551472	keystroke_m	m	n/a
276.216	0.09	552432	keystroke_p	p	n/a
276.441	0.105	552882	keystroke_l	l	n/a
277.416	0.075	554832	keystroke_a	a	n/a
277.761	0.06	555522	keystroke_i	i	n/a
278.0015	0.06	556003	keystroke_n	n	n/a
278.3015	0.0745	556603	keystroke_t	t	n/a
278.6615	0.06	557323	keystroke_s	s	n/a
279.351	0.06	558702	keystroke_Key.space	Key.space	n/a
279.801	0.045	559602	keystroke_w	w	n/a
279.906	0.06	559812	keystroke_i	i	n/a
280.146	0.06	560292	keystroke_n	n	n/a
280.3555	0.06	560711	keystroke_d	d	n/a
280.4905	0.075	560981	keystroke_o	o	n/a
280.8805	0.045	561761	keystroke_w	w	n/a
281.3155	0.075	562631	keystroke_Key.space	Key.space	n/a
282.1705	0.09	564341	keystroke_g	g	n/a
282.4105	0.105	564821	keystroke_r	r	n/a
282.8305	0.105	565661	keystroke_a	a	n/a
283.1005	0.075	566201	keystroke_d	d	n/a
283.2955	0.075	566591	keystroke_e	e	n/a
283.5805	0.075	567161	keystroke_s	s	n/a
284.2555	0.06	568511	keystroke_Key.enter	Key.enter	n/a
284.3205	13.6615	568641	prompt	n/a	stake infected hawaii myrtle\n
285.0655	0.09	570131	keystroke_s	s	n/a
285.621	0.045	571242	keystroke_t	t	n/a
285.9505	0.075	571901	keystroke_a	a	n/a
286.0705	0.075	572141	keystroke_k	k	n/a
286.2505	0.0755	572501	keystroke_e	e	n/a
287.4805	0.09	574961	keystroke_Key.space	Key.space	n/a
287.9755	0.09	575951	keystroke_i	i	n/a
288.2005	0.06	576401	keystroke_n	n	n/a
289.056	0.06	578112	keystroke_f	f	n/a
289.251	0.06	578502	keystroke_e	e	n/a
289.506	0.105	579012	keystroke_c	c	n/a
289.7905	0.075	579581	keystroke_t	t	n/a
290.0605	0.075	580121	keystroke_e	e	n/a
290.3155	0.075	580631	keystroke_d	d	n/a
290.8555	0.06	581711	keystroke_Key.space	Key.space	n/a
291.2305	0.0605	582461	keystroke_h	h	n/a
291.681	0.075	583362	keystroke_a	a	n/a
292.431	0.045	584862	keystroke_w	w	n/a
293.466	0.105	586932	keystroke_a	a	n/a
293.676	0.075	587352	keystroke_i	i	n/a
293.811	0.09	587622	keystroke_i	i	n/a
294.2905	0.075	588581	keystroke_Key.space	Key.space	n/a
294.8005	0.06	589601	keystroke_m	m	n/a
295.1755	0.045	590351	keystroke_y	y	n/a
296.196	0.075	592392	keystroke_r	r	n/a
296.436	0.075	592872	keystroke_t	t	n/a
297.1705	0.075	594341	keystroke_l	l	n/a
297.3055	0.075	594611	keystroke_e	e	n/a
297.905	0.076	595810	keystroke_Key.enter	Key.enter	n/a
297.9875	10.24	595975	prompt	n/a	appeal johnny wicked phrase\n
298.791	0.0745	597582	keystroke_a	a	n/a
299.0005	0.091	598001	keystroke_p	p	n/a
299.1205	0.12	598241	keystroke_p	p	n/a
299.9755	0.0905	599951	keystroke_e	e	n/a
300.201	0.0895	600402	keystroke_a	a	n/a
300.3355	0.09	600671	keystroke_l	l	n/a
300.591	0.089	601182	keystroke_Key.space	Key.space	n/a
301.086	0.045	602172	keystroke_j	j	n/a
301.356	0.12	602712	keystroke_o	o	n/a
301.731	0.075	603462	keystroke_h	h	n/a
302.0605	0.075	604121	keystroke_n	n	n/a
302.181	0.09	604362	keystroke_n	n	n/a
302.5105	0.075	605021	keystroke_y	y	n/a
302.9755	0.075	605951	keystroke_Key.space	Key.space	n/a
303.3505	0.09	606701	keystroke_w	w	n/a
303.5005	0.06	607001	keystroke_i	i	n/a
303.7405	0.075	607481	keystroke_c	c	n/a
303.8605	0.06	607721	keystroke_k	k	n/a
304.0705	0.06	608141	keystroke_e	e	n/a
304.3105	0.06	608621	keystroke_d	d	n/a
304.5055	0.075	609011	keystroke_Key.space	Key.space	n/a
306.0205	0.105	612041	keystroke_p	p	n/a
306.306	0.075	612612	keystroke_h	h	n/a
306.606	0.06	613212	keystroke_r	r	n/a
306.8305	0.0605	613661	keystroke_a	a	n/a
307.146	0.09	614292	keystroke_s	s	n/a
307.476	0.06	614952	keystroke_e	e	n/a
308.091	0.135	616182	keystroke_Key.enter	Key.enter	n/a
308.2305	28.752	616461	prompt	n/a	repeated quarters wise legislation\n
309.426	0.09	618852	keystroke_r	r	n/a
309.666	0.06	619332	keystroke_e	e	n/a
309.921	0.06	619842	keystroke_p	p	n/a
310.326	0.0745	620652	keystroke_e	e	n/a
310.6555	0.075	621311	keystroke_a	a	n/a
310.9255	0.075	621851	keystroke_t	t	n/a
311.2105	0.075	622421	keystroke_e	e	n/a
311.4655	0.075	622931	keystroke_d	d	n/a
311.8705	0.09	623741	keystroke_Key.space	Key.space	n/a
312.2155	0.06	624431	keystroke_q	q	n/a
312.3955	0.075	624791	keystroke_u	u	n/a
312.8455	0.1205	625691	keystroke_a	a	n/a
313.1905	0.105	626381	keystroke_t	t	n/a
313.5205	0.09	627041	keystroke_e	e	n/a
313.806	0.105	627612	keystroke_r	r	n/a
314.136	0.09	628272	keystroke_s	s	n/a
314.361	0.0745	628722	keystroke_Key.space	Key.space	n/a
314.6005	0.06	629201	keystroke_w	w	n/a
314.7955	0.03	629591	keystroke_i	i	n/a
315.2605	0.09	630521	keystroke_s	s	n/a
315.636	0.075	631272	keystroke_e	e	n/a
321.413	0.043	642826	keystroke_Key.backspace	Key.backspace	n/a
321.891	0.09	643782	keystroke_Key.backspace	Key.backspace	n/a
322.416	0.09	644832	keystroke_Key.backspace	Key.backspace	n/a
322.9855	0.09	645971	keystroke_Key.backspace	Key.backspace	n/a
323.526	0.075	647052	keystroke_Key.backspace	Key.backspace	n/a
324.021	0.075	648042	keystroke_Key.backspace	Key.backspace	n/a
324.576	0.075	649152	keystroke_Key.backspace	Key.backspace	n/a
325.146	0.06	650292	keystroke_Key.backspace	Key.backspace	n/a
325.7015	0.045	651403	keystroke_Key.backspace	Key.backspace	n/a
326.6465	0.09	653293	keystroke_r	r	n/a
326.8865	0.06	653773	keystroke_t	t	n/a
327.1115	0.09	654223	keystroke_e	e	n/a
327.3365	0.075	654673	keystroke_r	r	n/a
328.041	0.075	656082	keystroke_s	s	n/a
328.206	0.105	656412	keystroke_Key.space	Key.space	n/a
328.446	0.045	656892	keystroke_w	w	n/a
328.581	0.075	657162	keystroke_i	i	n/a
328.791	0.1045	657582	keystroke_s	s	n/a
329.0455	0.06	658091	keystroke_e	e	n/a
329.1955	0.075	658391	keystroke_Key.space	Key.space	n/a
330.0805	0.075	660161	keystroke_l	l	n/a
330.2755	0.075	660551	keystroke_e	e	n/a
330.5905	0.06	661181	keystroke_g	g	n/a
331.1465	0.045	662293	keystroke_i	i	n/a
331.3265	0.105	662653	keystroke_s	s	n/a
332.001	0.075	664002	keystroke_l	l	n/a
332.166	0.09	664332	keystroke_a	a	n/a
332.526	0.075	665052	keystroke_t	t	n/a
332.661	0.09	665322	keystroke_i	i	n/a
332.811	0.1045	665622	keystroke_o	o	n/a
333.0655	0.06	666131	keystroke_n	n	n/a
333.3055	0.075	666611	keystroke_s	s	n/a
333.996	0.06	667992	keystroke_=	=	n/a
335.2715	0.105	670543	keystroke_Key.backspace	Key.backspace	n/a
335.901	0.06	671802	keystroke_Key.backspace	Key.backspace	n/a
336.906	0.0745	673812	keystroke_Key.enter	Key.enter	n/a
336.9855	20.457	673971	prompt	n/a	counseling further belkin remind\n
337.9555	0.06	675911	keystroke_c	c	n/a
338.0605	0.09	676121	keystroke_o	o	n/a
338.3165	0.059	676633	keystroke_u	u	n/a
339.5615	0.06	679123	keystroke_n	n	n/a
340.1615	0.015	680323	keystroke_s	s	n/a
340.341	0.06	680682	keystroke_e	e	n/a
340.506	0.105	681012	keystroke_l	l	n/a
340.716	0.075	681432	keystroke_i	i	n/a
340.8815	0.089	681763	keystroke_n	n	n/a
341.0765	0.075	682153	keystroke_g	g	n/a
341.6005	0.075	683201	keystroke_Key.space	Key.space	n/a
341.946	0.06	683892	keystroke_f	f	n/a
342.306	0.06	684612	keystroke_u	u	n/a
342.561	0.06	685122	keystroke_r	r	n/a
342.771	0.0595	685542	keystroke_t	t	n/a
342.861	0.075	685722	keystroke_h	h	n/a
343.1155	0.06	686231	keystroke_u	u	n/a
343.3255	0.075	686651	keystroke_r	r	n/a
343.941	0.075	687882	keystroke_Key.space	Key.space	n/a
344.541	0.06	689082	keystroke_b	b	n/a
344.781	0.06	689562	keystroke_e	e	n/a
345.0365	0.0445	690073	keystroke_k	k	n/a
347.2435	0.028	694487	keystroke_Key.backspace	Key.backspace	n/a
347.8415	0.15	695683	keystroke_Key.backspace	Key.backspace	n/a
348.3365	0.09	696673	keystroke_Key.backspace	Key.backspace	n/a
348.9665	0.075	697933	keystroke_Key.backspace	Key.backspace	n/a
349.5515	0.075	699103	keystroke_Key.backspace	Key.backspace	n/a
350.2865	0.075	700573	keystroke_Key.backspace	Key.backspace	n/a
350.5865	0.09	701173	keystroke_e	e	n/a
350.8115	0.06	701623	keystroke_r	r	n/a
351.516	0.09	703032	keystroke_Key.space	Key.space	n/a
352.2365	0.06	704473	keystroke_b	b	n/a
352.5515	0.0745	705103	keystroke_e	e	n/a
353.6915	0.09	707383	keystroke_l	l	n/a
353.8865	0.075	707773	keystroke_k	k	n/a
354.2315	0.074	708463	keystroke_i	i	n/a
354.4565	0.09	708913	keystroke_n	n	n/a
355.161	0.12	710322	keystroke_Key.space	Key.space	n/a
355.4615	0.075	710923	keystroke_r	r	n/a
355.6565	0.06	711313	keystroke_e	e	n/a
355.8065	0.0755	711613	keystroke_m	m	n/a
356.001	0.075	712002	keystroke_i	i	n/a
356.257	0.06	712514	keystroke_n	n	n/a
356.496	0.06	712992	keystroke_d	d	n/a
357.3505	0.09	714701	keystroke_Key.enter	Key.enter	n/a
357.4455	16.4975	714891	prompt	n/a	destroy downloaded observe blocking\n
358.8065	0.075	717613	keystroke_d	d	n/a
359.031	0.06	718062	keystroke_e	e	n/a
359.241	0.075	718482	keystroke_s	s	n/a
360.2615	0.045	720523	keystroke_t	t	n/a
360.4565	0.06	720913	keystroke_r	r	n/a
360.6215	0.09	721243	keystroke_o	o	n/a
361.2515	0.03	722503	keystroke_y	y	n/a
361.7465	0.09	723493	keystroke_Key.space	Key.space	n/a
362.241	0.06	724482	keystroke_d	d	n/a
362.3765	0.09	724753	keystroke_o	o	n/a
362.6765	0.09	725353	keystroke_w	w	n/a
362.8265	0.075	725653	keystroke_n	n	n/a
363.4715	0.075	726943	keystroke_l	l	n/a
364.1915	0.075	728383	keystroke_o	o	n/a
364.4165	0.075	728833	keystroke_a	a	n/a
364.6715	0.06	729343	keystroke_d	d	n/a
364.941	0.075	729882	keystroke_e	e	n/a
365.211	0.0605	730422	keystroke_d	d	n/a
365.3765	0.0895	730753	keystroke_Key.space	Key.space	n/a
366.0505	0.091	732101	keystroke_a	a	n/a
367.056	0.075	734112	keystroke_Key.backspace	Key.backspace	n/a
367.7465	0.06	735493	keystroke_o	o	n/a
368.0015	0.075	736003	keystroke_b	b	n/a
369.4115	0.105	738823	keystroke_s	s	n/a
369.6365	0.09	739273	keystroke_e	e	n/a
369.8915	0.06	739783	keystroke_r	r	n/a
370.1915	0.075	740383	keystroke_v	v	n/a
370.416	0.075	740832	keystroke_e	e	n/a
370.671	0.09	741342	keystroke_Key.space	Key.space	n/a
371.646	0.06	743292	keystroke_b	b	n/a
371.796	0.06	743592	keystroke_l	l	n/a
372.006	0.06	744012	keystroke_o	o	n/a
372.351	0.076	744702	keystroke_c	c	n/a
372.471	0.075	744942	keystroke_k	k	n/a
372.696	0.061	745392	keystroke_i	i	n/a
372.8765	0.075	745753	keystroke_n	n	n/a
373.056	0.075	746112	keystroke_g	g	n/a
373.896	0.045	747792	keystroke_Key.enter	Key.enter	n/a
373.946	14.622	747892	prompt	n/a	cameroon computed asking urgent\n
374.931	0.075	749862	keystroke_c	c	n/a
375.171	0.075	750342	keystroke_a	a	n/a
375.336	0.06	750672	keystroke_m	m	n/a
375.606	0.075	751212	keystroke_e	e	n/a
375.8915	0.075	751783	keystroke_r	r	n/a
376.2515	0.06	752503	keystroke_o	o	n/a
376.3865	0.075	752773	keystroke_o	o	n/a
376.6265	0.105	753253	keystroke_n	n	n/a
376.9115	0.105	753823	keystroke_Key.space	Key.space	n/a
377.4815	0.075	754963	keystroke_c	c	n/a
377.7515	0.09	755503	keystroke_o	o	n/a
378.801	0.075	757602	keystroke_m	m	n/a
379.146	0.105	758292	keystroke_p	p	n/a
380.3465	0.075	760693	keystroke_u	u	n/a
380.4965	0.045	760993	keystroke_t	t	n/a
380.7665	0.09	761533	keystroke_e	e	n/a
381.0065	0.09	762013	keystroke_d	d	n/a
383.6185	0.028	767237	keystroke_Key.space	Key.space	n/a
383.9465	0.0745	767893	keystroke_a	a	n/a
384.171	0.06	768342	keystroke_s	s	n/a
384.291	0.075	768582	keystroke_k	k	n/a
384.486	0.06	768972	keystroke_i	i	n/a
384.666	0.09	769332	keystroke_n	n	n/a
384.846	0.045	769692	keystroke_g	g	n/a
385.566	0.045	771132	keystroke_Key.space	Key.space	n/a
385.986	0.075	771972	keystroke_u	u	n/a
386.256	0.09	772512	keystroke_r	r	n/a
386.661	0.06	773322	keystroke_g	g	n/a
386.9015	0.075	773803	keystroke_e	e	n/a
387.0515	0.06	774103	keystroke_n	n	n/a
387.262	0.045	774524	keystroke_t	t	n/a
388.5065	0.06	777013	keystroke_Key.enter	Key.enter	n/a
388.571	14.577	777142	prompt	n/a	bite detailed theater baskets\n
389.482	0.074	778964	keystroke_b	b	n/a
389.631	0.06	779262	keystroke_i	i	n/a
389.841	0.045	779682	keystroke_t	t	n/a
390.187	0.075	780374	keystroke_e	e	n/a
390.5915	0.045	781183	keystroke_Key.space	Key.space	n/a
391.041	0.075	782082	keystroke_d	d	n/a
391.221	0.09	782442	keystroke_e	e	n/a
391.5365	0.075	783073	keystroke_t	t	n/a
391.9565	0.09	783913	keystroke_a	a	n/a
392.8115	0.075	785623	keystroke_i	i	n/a
393.0665	0.09	786133	keystroke_l	l	n/a
393.2915	0.075	786583	keystroke_e	e	n/a
393.5465	0.075	787093	keystroke_d	d	n/a
393.9215	0.105	787843	keystroke_Key.space	Key.space	n/a
394.386	0.06	788772	keystroke_t	t	n/a
394.476	0.075	788952	keystroke_h	h	n/a
394.7615	0.09	789523	keystroke_e	e	n/a
395.6915	0.105	791383	keystroke_a	a	n/a
396.0515	0.09	792103	keystroke_t	t	n/a
396.3365	0.105	792673	keystroke_e	e	n/a
396.5465	0.075	793093	keystroke_r	r	n/a
396.8165	0.075	793633	keystroke_Key.space	Key.space	n/a
397.7615	0.06	795523	keystroke_b	b	n/a
398.1065	0.09	796213	keystroke_a	a	n/a
398.3615	0.09	796723	keystroke_s	s	n/a
398.5415	0.06	797083	keystroke_k	k	n/a
398.8115	0.075	797623	keystroke_e	e	n/a
399.156	0.075	798312	keystroke_t	t	n/a
400.851	0.075	801702	keystroke_s	s	n/a
401.406	0.045	802812	keystroke_Key.space	Key.space	n/a
402.591	0.06	805182	keystroke_Key.backspace	Key.backspace	n/a
403.086	0.06	806172	keystroke_Key.enter	Key.enter	n/a
403.1515	25.256	806303	prompt	n/a	police budapest interpreted exploration\n
405.3835	0	810767	keystroke_p	p	n/a
405.5015	0.105	811003	keystroke_o	o	n/a
405.7415	0.1205	811483	keystroke_l	l	n/a
405.982	0.0745	811964	keystroke_i	i	n/a
406.2365	0.075	812473	keystroke_c	c	n/a
406.4765	0.06	812953	keystroke_e	e	n/a
407.0765	0.075	814153	keystroke_Key.space	Key.space	n/a
407.9015	0.06	815803	keystroke_b	b	n/a
408.1115	0.06	816223	keystroke_u	u	n/a
408.4415	0.0895	816883	keystroke_d	d	n/a
409.2815	0.09	818563	keystroke_q	q	n/a
409.7015	0.075	819403	keystroke_a	a	n/a
411.6815	0.075	823363	keystroke_Key.backspace	Key.backspace	n/a
412.2215	0.075	824443	keystroke_Key.backspace	Key.backspace	n/a
412.9115	0.09	825823	keystroke_a	a	n/a
413.1365	0.105	826273	keystroke_p	p	n/a
413.3615	0.075	826723	keystroke_e	e	n/a
413.6015	0.09	827203	keystroke_s	s	n/a
413.946	0.0605	827892	keystroke_t	t	n/a
416.3935	0.043	832787	keystroke_Key.space	Key.space	n/a
416.5865	0.09	833173	keystroke_i	i	n/a
416.8865	0.09	833773	keystroke_n	n	n/a
417.3365	0.075	834673	keystroke_t	t	n/a
417.6365	0.09	835273	keystroke_e	e	n/a
417.9065	0.06	835813	keystroke_r	r	n/a
418.7315	0.075	837463	keystroke_p	p	n/a
419.9465	0.06	839893	keystroke_e	e	n/a
420.5765	0.12	841153	keystroke_Key.backspace	Key.backspace	n/a
420.8015	0.045	841603	keystroke_r	r	n/a
420.9965	0.075	841993	keystroke_e	e	n/a
421.4465	0.06	842893	keystroke_t	t	n/a
421.7015	0.075	843403	keystroke_e	e	n/a
421.9865	0.09	843973	keystroke_d	d	n/a
422.841	0.075	845682	keystroke_Key.space	Key.space	n/a
423.351	0.075	846702	keystroke_e	e	n/a
423.7115	0.105	847423	keystroke_x	x	n/a
424.2065	0.09	848413	keystroke_p	p	n/a
425.481	0.075	850962	keystroke_l	l	n/a
425.736	0.075	851472	keystroke_o	o	n/a
426.0065	0.09	852013	keystroke_r	r	n/a
426.3365	0.1045	852673	keystroke_a	a	n/a
426.7705	0.061	853541	keystroke_t	t	n/a
426.9355	0.09	853871	keystroke_i	i	n/a
427.1015	0.12	854203	keystroke_o	o	n/a
427.3565	0.075	854713	keystroke_n	n	n/a
428.3315	0.074	856663	keystroke_Key.enter	Key.enter	n/a
428.411	19.4355	856822	prompt	n/a	enhancement sagem resulted exports\n
429.3965	0.045	858793	keystroke_e	e	n/a
429.7255	0.076	859451	keystroke_n	n	n/a
430.2965	0.045	860593	keystroke_h	h	n/a
430.4765	0.06	860953	keystroke_a	a	n/a
430.5965	0.075	861193	keystroke_n	n	n/a
431.676	0.06	863352	keystroke_c	c	n/a
431.916	0.06	863832	keystroke_e	e	n/a
432.096	0.06	864192	keystroke_m	m	n/a
432.336	0.0595	864672	keystroke_e	e	n/a
432.4705	0.06	864941	keystroke_n	n	n/a
432.7255	0.09	865451	keystroke_t	t	n/a
433.2055	0.06	866411	keystroke_Key.space	Key.space	n/a
433.911	0.075	867822	keystroke_s	s	n/a
435.3205	0.075	870641	keystroke_a	a	n/a
436.266	0.075	872532	keystroke_g	g	n/a
436.521	0.075	873042	keystroke_e	e	n/a
436.671	0.06	873342	keystroke_m	m	n/a
437.496	0.09	874992	keystroke_Key.space	Key.space	n/a
438.5455	0.075	877091	keystroke_Key.backspace	Key.backspace	n/a
440.225	0.09	880450	keystroke_Key.space	Key.space	n/a
440.645	0.075	881290	keystroke_r	r	n/a
440.8705	0.075	881741	keystroke_e	e	n/a
441.1555	0.075	882311	keystroke_s	s	n/a
441.3505	0.075	882701	keystroke_u	u	n/a
441.5905	0.075	883181	keystroke_l	l	n/a
442.3405	0.075	884681	keystroke_t	t	n/a
442.6105	0.075	885221	keystroke_e	e	n/a
442.8355	0.075	885671	keystroke_d	d	n/a
443.4505	0.09	886901	keystroke_Key.space	Key.space	n/a
444.05	0.06	888100	keystroke_e	e	n/a
444.365	0.105	888730	keystroke_x	x	n/a
444.575	0.075	889150	keystroke_p	p	n/a
444.7555	0.105	889511	keystroke_o	o	n/a
445.5355	0.075	891071	keystroke_r	r	n/a
445.7755	0.06	891551	keystroke_t	t	n/a
446.0905	0.06	892181	keystroke_s	s	n/a
447.785	0.06	895570	keystroke_Key.enter	Key.enter	n/a
447.8495	18.807	895699	prompt	n/a	salem angeles euros daniel\n
448.67	0.06	897340	keystroke_s	s	n/a
448.835	0.075	897670	keystroke_l	l	n/a
449.21	0.06	898420	keystroke_e	e	n/a
449.9455	0.0745	899891	keystroke_m	m	n/a
452.212	0.013	904424	keystroke_Key.backspace	Key.backspace	n/a
452.795	0.0755	905590	keystroke_Key.backspace	Key.backspace	n/a
453.4705	0.0745	906941	keystroke_Key.backspace	Key.backspace	n/a
453.89	0.075	907780	keystroke_a	a	n/a
454.085	0.075	908170	keystroke_l	l	n/a
454.355	0.0605	908710	keystroke_e	e	n/a
454.4905	0.105	908981	keystroke_m	m	n/a
455.18	0.09	910360	keystroke_Key.space	Key.space	n/a
455.555	0.075	911110	keystroke_a	a	n/a
455.675	0.045	911350	keystroke_n	n	n/a
456.23	0.105	912460	keystroke_h	h	n/a
457.13	0.075	914260	keystroke_Key.backspace	Key.backspace	n/a
458.015	0.045	916030	keystroke_g	g	n/a
458.8995	0.06	917799	keystroke_e	e	n/a
459.335	0.075	918670	keystroke_l	l	n/a
459.5	0.06	919000	keystroke_e	e	n/a
459.7855	0.075	919571	keystroke_s	s	n/a
460.3105	0.09	920621	keystroke_Key.space	Key.space	n/a
461.285	0.045	922570	keystroke_e	e	n/a
461.63	0.03	923260	keystroke_u	u	n/a
462.26	0.06	924520	keystroke_r	r	n/a
462.4095	0.06	924819	keystroke_o	o	n/a
462.6645	0.075	925329	keystroke_s	s	n/a
463.265	0.105	926530	keystroke_Key.space	Key.space	n/a
463.685	0.075	927370	keystroke_d	d	n/a
463.94	0.075	927880	keystroke_a	a	n/a
464.105	0.075	928210	keystroke_n	n	n/a
464.5555	0.075	929111	keystroke_i	i	n/a
465.5005	0.045	931001	keystroke_e	e	n/a
465.635	0.0755	931270	keystroke_l	l	n/a
466.5955	0.0595	933191	keystroke_Key.enter	Key.enter	n/a
466.66	11.412	933320	prompt	n/a	forge fatty papers combat\n
467.3755	0.06	934751	keystroke_f	f	n/a
467.5255	0.075	935051	keystroke_o	o	n/a
467.8555	0.09	935711	keystroke_g	g	n/a
468.4855	0.075	936971	keystroke_Key.backspace	Key.backspace	n/a
468.6355	0.09	937271	keystroke_r	r	n/a
468.935	0.075	937870	keystroke_g	g	n/a
469.235	0.06	938470	keystroke_e	e	n/a
469.745	0.1045	939490	keystroke_Key.space	Key.space	n/a
469.9845	0.015	939969	keystroke_f	f	n/a
470.1645	0.105	940329	keystroke_a	a	n/a
470.465	0.075	940930	keystroke_t	t	n/a
470.6	0.09	941200	keystroke_t	t	n/a
470.9155	0.135	941831	keystroke_y	y	n/a
471.2455	0.09	942491	keystroke_Key.space	Key.space	n/a
471.8155	0.12	943631	keystroke_p	p	n/a
472.3105	0.105	944621	keystroke_a	a	n/a
472.8955	0.075	945791	keystroke_p	p	n/a
473.0745	0.076	946149	keystroke_e	e	n/a
473.2855	0.075	946571	keystroke_r	r	n/a
473.6005	0.089	947201	keystroke_s	s	n/a
474.56	0.105	949120	keystroke_Key.space	Key.space	n/a
474.785	0.0755	949570	keystroke_c	c	n/a
474.8905	0.09	949781	keystroke_o	o	n/a
475.1455	0.09	950291	keystroke_m	m	n/a
475.7605	0.075	951521	keystroke_b	b	n/a
476.0605	0.105	952121	keystroke_a	a	n/a
476.3605	0.09	952721	keystroke_t	t	n/a
477.9955	0.0745	955991	keystroke_Key.enter	Key.enter	n/a
478.077	22.99	956154	prompt	n/a	extending ultimate mathematical engineering\n
479.1355	0.06	958271	keystroke_e	e	n/a
479.435	0.09	958870	keystroke_x	x	n/a
479.8405	0.06	959681	keystroke_t	t	n/a
480.3055	0.03	960611	keystroke_e	e	n/a
480.4705	0.06	960941	keystroke_n	n	n/a
480.6355	0.075	961271	keystroke_d	d	n/a
480.8305	0.09	961661	keystroke_i	i	n/a
481.1005	0.12	962201	keystroke_n	n	n/a
481.355	0.015	962710	keystroke_h	h	n/a
482.645	0.075	965290	keystroke_Key.backspace	Key.backspace	n/a
482.87	0.045	965740	keystroke_g	g	n/a
483.875	0.075	967750	keystroke_Key.space	Key.space	n/a
484.295	0.045	968590	keystroke_u	u	n/a
484.745	0.075	969490	keystroke_l	l	n/a
485.9	0.0605	971800	keystroke_t	t	n/a
486.1705	0.075	972341	keystroke_i	i	n/a
486.3805	0.075	972761	keystroke_m	m	n/a
486.6505	0.09	973301	keystroke_a	a	n/a
486.9805	0.09	973961	keystroke_t	t	n/a
487.2655	0.09	974531	keystroke_e	e	n/a
487.6255	0.075	975251	keystroke_Key.space	Key.space	n/a
487.9105	0.075	975821	keystroke_m	m	n/a
488.0305	0.135	976061	keystroke_a	a	n/a
488.42	0.061	976840	keystroke_t	t	n/a
488.54	0.06	977080	keystroke_h	h	n/a
489.7405	0.105	979481	keystroke_e	e	n/a
489.8755	0.06	979751	keystroke_m	m	n/a
490.3405	0.105	980681	keystroke_a	a	n/a
491.03	0.03	982060	keystroke_t	t	n/a
492.5755	0.06	985151	keystroke_i	i	n/a
492.7855	0.06	985571	keystroke_c	c	n/a
493.0405	0.075	986081	keystroke_a	a	n/a
493.1605	0.075	986321	keystroke_l	l	n/a
493.85	0.09	987700	keystroke_Key.space	Key.space	n/a
494.48	0.06	988960	keystroke_e	e	n/a
494.75	0.06	989500	keystroke_n	n	n/a
495.1555	0.045	990311	keystroke_g	g	n/a
495.3055	0.06	990611	keystroke_i	i	n/a
497.527	0	995054	keystroke_n	n	n/a
497.675	0.09	995350	keystroke_e	e	n/a
497.945	0.075	995890	keystroke_r	r	n/a
498.7395	0.0605	997479	keystroke_Key.backspace	Key.backspace	n/a
499.145	0.075	998290	keystroke_e	e	n/a
499.595	0.045	999190	keystroke_r	r	n/a
499.7305	0.06	999461	keystroke_i	i	n/a
499.94	0.061	999880	keystroke_n	n	n/a
500.061	0.089	1000122	keystroke_g	g	n/a
501.005	0.06	1002010	keystroke_Key.enter	Key.enter	n/a
501.0705	11.1415	1002141	prompt	n/a	your jeremy experiments peers\n
501.951	0.06	1003902	keystroke_y	y	n/a
502.16	0.105	1004320	keystroke_o	o	n/a
502.37	0.061	1004740	keystroke_u	u	n/a
502.595	0.06	1005190	keystroke_r	r	n/a
502.73	0.075	1005460	keystroke_Key.space	Key.space	n/a
503.48	0.06	1006960	keystroke_j	j	n/a
503.66	0.091	1007320	keystroke_e	e	n/a
503.9	0.061	1007800	keystroke_r	r	n/a
504.14	0.06	1008280	keystroke_e	e	n/a
504.65	0.06	1009300	keystroke_m	m	n/a
505.13	0.075	1010260	keystroke_y	y	n/a
505.3105	0.105	1010621	keystroke_Key.space	Key.space	n/a
505.5505	0.075	1011101	keystroke_e	e	n/a
506.6155	0.075	1013231	keystroke_x	x	n/a
507.305	0.075	1014610	keystroke_p	p	n/a
507.575	0.09	1015150	keystroke_e	e	n/a
507.86	0.06	1015720	keystroke_r	r	n/a
508.265	0.075	1016530	keystroke_i	i	n/a
508.505	0.06	1017010	keystroke_m	m	n/a
508.7	0.06	1017400	keystroke_e	e	n/a
508.866	0.06	1017732	keystroke_n	n	n/a
509.271	0.06	1018542	keystroke_t	t	n/a
509.69	0.075	1019380	keystroke_s	s	n/a
510.1705	0.075	1020341	keystroke_Key.space	Key.space	n/a
510.4555	0.045	1020911	keystroke_p	p	n/a
510.6505	0.0895	1021301	keystroke_e	e	n/a
510.815	0.12	1021630	keystroke_e	e	n/a
511.1	0.06	1022200	keystroke_r	r	n/a
511.415	0.09	1022830	keystroke_s	s	n/a
512.136	0.075	1024272	keystroke_Key.enter	Key.enter	n/a
512.215	11.892	1024430	prompt	n/a	queries grip quickly travel\n
513.1405	0.09	1026281	keystroke_q	q	n/a
513.4105	0.0745	1026821	keystroke_u	u	n/a
513.905	0.09	1027810	keystroke_e	e	n/a
514.25	0.09	1028500	keystroke_r	r	n/a
515.285	0.045	1030570	keystroke_i	i	n/a
515.585	0.09	1031170	keystroke_e	e	n/a
516.0505	0.0745	1032101	keystroke_s	s	n/a
516.485	0.075	1032970	keystroke_Key.space	Key.space	n/a
517.16	0.06	1034320	keystroke_g	g	n/a
517.4	0.075	1034800	keystroke_r	r	n/a
517.535	0.1055	1035070	keystroke_i	i	n/a
517.8355	0.12	1035671	keystroke_p	p	n/a
518.15	0.09	1036300	keystroke_Key.space	Key.space	n/a
518.945	0.06	1037890	keystroke_q	q	n/a
519.185	0.06	1038370	keystroke_u	u	n/a
519.395	0.045	1038790	keystroke_i	i	n/a
519.6055	0.0745	1039211	keystroke_c	c	n/a
519.785	0.0755	1039570	keystroke_k	k	n/a
520.1305	0.105	1040261	keystroke_l	l	n/a
520.4455	0.06	1040891	keystroke_y	y	n/a
520.9255	0.09	1041851	keystroke_Key.space	Key.space	n/a
521.5555	0.06	1043111	keystroke_t	t	n/a
521.7655	0.06	1043531	keystroke_r	r	n/a
522.0055	0.105	1044011	keystroke_a	a	n/a
522.2905	0.06	1044581	keystroke_v	v	n/a
522.4855	0.06	1044971	keystroke_e	e	n/a
522.6055	0.075	1045211	keystroke_l	l	n/a
524.0455	0.06	1048091	keystroke_Key.enter	Key.enter	n/a
524.11	21.387	1048220	prompt	n/a	banners storm joke personal\n
525.0655	0.075	1050131	keystroke_b	b	n/a
525.3355	0.075	1050671	keystroke_a	a	n/a
525.4705	0.045	1050941	keystroke_n	n	n/a
525.5755	0.09	1051151	keystroke_n	n	n/a
525.7255	0.091	1051451	keystroke_e	e	n/a
525.9655	0.075	1051931	keystroke_r	r	n/a
526.3705	0.075	1052741	keystroke_s	s	n/a
526.5805	0.075	1053161	keystroke_Key.space	Key.space	n/a
527.3905	0.09	1054781	keystroke_s	s	n/a
527.75	0.09	1055500	keystroke_t	t	n/a
527.975	0.06	1055950	keystroke_r	r	n/a
528.14	0.09	1056280	keystroke_o	o	n/a
528.816	0.074	1057632	keystroke_m	m	n/a
529.13	0.075	1058260	keystroke_Key.space	Key.space	n/a
529.505	0.075	1059010	keystroke_j	j	n/a
529.73	0.105	1059460	keystroke_o	o	n/a
530.03	0.075	1060060	keystroke_k	k	n/a
530.225	0.06	1060450	keystroke_e	e	n/a
531.7555	0.105	1063511	keystroke_Key.backspace	Key.backspace	n/a
532.3255	0.09	1064651	keystroke_Key.backspace	Key.backspace	n/a
532.8955	0.105	1065791	keystroke_Key.backspace	Key.backspace	n/a
533.4205	0.105	1066841	keystroke_Key.backspace	Key.backspace	n/a
533.9605	0.09	1067921	keystroke_Key.backspace	Key.backspace	n/a
534.5005	0.09	1069001	keystroke_Key.backspace	Key.backspace	n/a
535.0555	0.105	1070111	keystroke_Key.backspace	Key.backspace	n/a
535.595	0.09	1071190	keystroke_Key.backspace	Key.backspace	n/a
536.406	0.0745	1072812	keystroke_o	o	n/a
536.6905	0.06	1073381	keystroke_r	r	n/a
536.811	0.0745	1073622	keystroke_m	m	n/a
537.56	0.105	1075120	keystroke_Key.space	Key.space	n/a
538.146	0.075	1076292	keystroke_j	j	n/a
538.401	0.105	1076802	keystroke_o	o	n/a
538.655	0.09	1077310	keystroke_k	k	n/a
538.8505	0.075	1077701	keystroke_e	e	n/a
539.301	0.06	1078602	keystroke_Key.space	Key.space	n/a
539.781	0.09	1079562	keystroke_p	p	n/a
539.931	0.1045	1079862	keystroke_e	e	n/a
540.1555	0.06	1080311	keystroke_r	r	n/a
541.145	0.09	1082290	keystroke_s	s	n/a
541.88	0.09	1083760	keystroke_o	o	n/a
542.1055	0.075	1084211	keystroke_n	n	n/a
542.3305	0.075	1084661	keystroke_a	a	n/a
542.5105	0.105	1085021	keystroke_l	l	n/a
545.468	0.028	1090936	keystroke_Key.enter	Key.enter	n/a
545.5025	10.72	1091005	prompt	n/a	eternal given pensions meets\n
546.4705	0.09	1092941	keystroke_e	e	n/a
546.846	0.075	1093692	keystroke_t	t	n/a
547.086	0.105	1094172	keystroke_e	e	n/a
547.401	0.03	1094802	keystroke_r	r	n/a
547.6855	0.075	1095371	keystroke_n	n	n/a
548.8555	0.06	1097711	keystroke_a	a	n/a
549.0655	0.075	1098131	keystroke_l	l	n/a
549.3205	0.075	1098641	keystroke_Key.space	Key.space	n/a
549.9055	0.045	1099811	keystroke_g	g	n/a
550.0855	0.075	1100171	keystroke_i	i	n/a
550.356	0.06	1100712	keystroke_v	v	n/a
550.566	0.09	1101132	keystroke_e	e	n/a
550.761	0.06	1101522	keystroke_n	n	n/a
550.971	0.09	1101942	keystroke_Key.space	Key.space	n/a
551.601	0.09	1103202	keystroke_p	p	n/a
551.766	0.06	1103532	keystroke_e	e	n/a
552.231	0.045	1104462	keystroke_n	n	n/a
552.7405	0.076	1105481	keystroke_s	s	n/a
552.8755	0.1055	1105751	keystroke_i	i	n/a
553.0405	0.105	1106081	keystroke_o	o	n/a
553.2505	0.09	1106501	keystroke_n	n	n/a
553.7155	0.061	1107431	keystroke_s	s	n/a
554.0005	0.06	1108001	keystroke_Key.space	Key.space	n/a
554.2115	0.105	1108423	keystroke_m	m	n/a
554.4205	0.06	1108841	keystroke_e	e	n/a
554.5415	0.105	1109083	keystroke_e	e	n/a
554.8865	0.06	1109773	keystroke_t	t	n/a
555.261	0.075	1110522	keystroke_s	s	n/a
556.131	0.09	1112262	keystroke_Key.enter	Key.enter	n/a
556.2255	15.102	1112451	prompt	n/a	pressed scottish nursing assurance\n
557.031	0.09	1114062	keystroke_p	p	n/a
557.361	0.09	1114722	keystroke_r	r	n/a
557.586	0.075	1115172	keystroke_e	e	n/a
557.8405	0.06	1115681	keystroke_s	s	n/a
557.9755	0.12	1115951	keystroke_s	s	n/a
558.3055	0.075	1116611	keystroke_e	e	n/a
558.5315	0.089	1117063	keystroke_d	d	n/a
558.7705	0.09	1117541	keystroke_Key.space	Key.space	n/a
559.0865	0.09	1118173	keystroke_s	s	n/a
559.4465	0.075	1118893	keystroke_c	c	n/a
559.6255	0.075	1119251	keystroke_o	o	n/a
560.0915	0.015	1120183	keystroke_t	t	n/a
561.1705	0.06	1122341	keystroke_t	t	n/a
561.5755	0.0605	1123151	keystroke_i	i	n/a
561.7405	0.075	1123481	keystroke_s	s	n/a
561.9055	0.045	1123811	keystroke_h	h	n/a
562.0855	0.105	1124171	keystroke_Key.space	Key.space	n/a
562.686	0.045	1125372	keystroke_n	n	n/a
562.9255	0.045	1125851	keystroke_u	u	n/a
563.1515	0.074	1126303	keystroke_s	s	n/a
563.9305	0.09	1127861	keystroke_Key.backspace	Key.backspace	n/a
564.8465	0.074	1129693	keystroke_r	r	n/a
565.2655	0.075	1130531	keystroke_s	s	n/a
565.4305	0.075	1130861	keystroke_i	i	n/a
565.6105	0.09	1131221	keystroke_n	n	n/a
565.7755	0.06	1131551	keystroke_g	g	n/a
566.406	0.09	1132812	keystroke_Key.space	Key.space	n/a
566.9305	0.09	1133861	keystroke_a	a	n/a
567.2005	0.075	1134401	keystroke_s	s	n/a
567.3505	0.12	1134701	keystroke_s	s	n/a
567.9055	0.045	1135811	keystroke_u	u	n/a
568.341	0.075	1136682	keystroke_r	r	n/a
568.596	0.075	1137192	keystroke_a	a	n/a
568.791	0.0595	1137582	keystroke_n	n	n/a
569.4965	0.09	1138993	keystroke_c	c	n/a
569.961	0.06	1139922	keystroke_e	e	n/a
571.2505	0.075	1142501	keystroke_Key.enter	Key.enter	n/a
571.331	18.957	1142662	prompt	n/a	sampling dish everywhere cartridge\n
572.3005	0.09	1144601	keystroke_s	s	n/a
572.6755	0.0755	1145351	keystroke_a	a	n/a
572.826	0.075	1145652	keystroke_m	m	n/a
573.111	0.105	1146222	keystroke_p	p	n/a
573.351	0.105	1146702	keystroke_l	l	n/a
574.341	0.075	1148682	keystroke_i	i	n/a
574.536	0.105	1149072	keystroke_n	n	n/a
574.746	0.06	1149492	keystroke_g	g	n/a
575.181	0.075	1150362	keystroke_Key.space	Key.space	n/a
575.9615	0.06	1151923	keystroke_d	d	n/a
576.0815	0.0745	1152163	keystroke_i	i	n/a
576.336	0.09	1152672	keystroke_s	s	n/a
576.471	0.075	1152942	keystroke_h	h	n/a
576.816	0.09	1153632	keystroke_Key.space	Key.space	n/a
577.7005	0.091	1155401	keystroke_e	e	n/a
578.0165	0.09	1156033	keystroke_v	v	n/a
578.2265	0.12	1156453	keystroke_e	e	n/a
578.4665	0.06	1156933	keystroke_r	r	n/a
578.6615	0.06	1157323	keystroke_y	y	n/a
578.9765	0.06	1157953	keystroke_t	t	n/a
579.0965	0.075	1158193	keystroke_h	h	n/a
579.9515	0.09	1159903	keystroke_Key.backspace	Key.backspace	n/a
580.731	0.075	1161462	keystroke_Key.backspace	Key.backspace	n/a
581.391	0.075	1162782	keystroke_w	w	n/a
581.526	0.06	1163052	keystroke_h	h	n/a
581.661	0.075	1163322	keystroke_e	e	n/a
581.901	0.075	1163802	keystroke_r	r	n/a
582.156	0.09	1164312	keystroke_e	e	n/a
582.756	0.075	1165512	keystroke_Key.space	Key.space	n/a
583.266	0.0755	1166532	keystroke_c	c	n/a
583.521	0.105	1167042	keystroke_a	a	n/a
583.836	0.09	1167672	keystroke_r	r	n/a
584.121	0.06	1168242	keystroke_t	t	n/a
584.9005	0.06	1169801	keystroke_i	i	n/a
585.6965	0.0745	1171393	keystroke_Key.backspace	Key.backspace	n/a
586.656	0.06	1173312	keystroke_r	r	n/a
586.836	0.0595	1173672	keystroke_i	i	n/a
588.5465	0.075	1177093	keystroke_d	d	n/a
588.8455	0.06	1177691	keystroke_g	g	n/a
589.5955	0.061	1179191	keystroke_e	e	n/a
590.211	0.075	1180422	keystroke_Key.enter	Key.enter	n/a
590.2905	14.9975	1180581	prompt	n/a	decimal weekends gates safely\n
591.216	0.075	1182432	keystroke_d	d	n/a
591.411	0.06	1182822	keystroke_e	e	n/a
591.681	0.06	1183362	keystroke_c	c	n/a
591.876	0.06	1183752	keystroke_i	i	n/a
592.101	0.09	1184202	keystroke_m	m	n/a
592.356	0.105	1184712	keystroke_a	a	n/a
592.896	0.09	1185792	keystroke_l	l	n/a
593.151	0.09	1186302	keystroke_Key.space	Key.space	n/a
593.811	0.075	1187622	keystroke_w	w	n/a
594.081	0.06	1188162	keystroke_e	e	n/a
594.201	0.09	1188402	keystroke_e	e	n/a
594.411	0.06	1188822	keystroke_k	k	n/a
594.606	0.09	1189212	keystroke_e	e	n/a
595.266	0.075	1190532	keystroke_d	d	n/a
595.641	0.09	1191282	keystroke_s	s	n/a
596.481	0.09	1192962	keystroke_Key.backspace	Key.backspace	n/a
597.1855	0.075	1194371	keystroke_Key.backspace	Key.backspace	n/a
597.8465	0.075	1195693	keystroke_n	n	n/a
598.071	0.075	1196142	keystroke_d	d	n/a
598.866	0.075	1197732	keystroke_s	s	n/a
599.076	0.09	1198152	keystroke_Key.space	Key.space	n/a
599.496	0.06	1198992	keystroke_g	g	n/a
600.0205	0.015	1200041	keystroke_a	a	n/a
600.2155	0.075	1200431	keystroke_t	t	n/a
600.4855	0.09	1200971	keystroke_e	e	n/a
600.936	0.075	1201872	keystroke_s	s	n/a
601.176	0.09	1202352	keystroke_Key.space	Key.space	n/a
601.4765	0.09	1202953	keystroke_s	s	n/a
601.8065	0.105	1203613	keystroke_a	a	n/a
602.7065	0.06	1205413	keystroke_f	f	n/a
602.946	0.06	1205892	keystroke_e	e	n/a
603.8755	0.076	1207751	keystroke_l	l	n/a
604.4005	0.045	1208801	keystroke_y	y	n/a
605.1965	0.09	1210393	keystroke_Key.enter	Key.enter	n/a
605.291	23.232	1210582	prompt	n/a	premium mall independently controversial\n
606.261	0.09	1212522	keystroke_p	p	n/a
606.441	0.075	1212882	keystroke_e	e	n/a
606.666	0.06	1213332	keystroke_r	r	n/a
606.8765	0.075	1213753	keystroke_m	m	n/a
607.8665	0.045	1215733	keystroke_i	i	n/a
609.3665	0.06	1218733	keystroke_u	u	n/a
609.6065	0.09	1219213	keystroke_m	m	n/a
610.2365	0.075	1220473	keystroke_Key.space	Key.space	n/a
610.5365	0.075	1221073	keystroke_m	m	n/a
610.6865	0.09	1221373	keystroke_a	a	n/a
610.896	0.075	1221792	keystroke_l	l	n/a
611.031	0.09	1222062	keystroke_l	l	n/a
615.9535	0.013	1231907	keystroke_Key.space	Key.space	n/a
616.3415	0.015	1232683	keystroke_i	i	n/a
616.5065	0.075	1233013	keystroke_n	n	n/a
616.7465	0.075	1233493	keystroke_d	d	n/a
617.001	0.0755	1234002	keystroke_e	e	n/a
617.4365	0.075	1234873	keystroke_p	p	n/a
617.6615	0.06	1235323	keystroke_e	e	n/a
618.3665	0.045	1236733	keystroke_n	n	n/a
618.726	0.06	1237452	keystroke_d	d	n/a
618.966	0.06	1237932	keystroke_e	e	n/a
619.161	0.046	1238322	keystroke_n	n	n/a
619.4765	0.075	1238953	keystroke_t	t	n/a
619.7015	0.09	1239403	keystroke_l	l	n/a
620.0465	0.075	1240093	keystroke_y	y	n/a
620.706	0.075	1241412	keystroke_Key.space	Key.space	n/a
621.0965	0.06	1242193	keystroke_c	c	n/a
621.2015	0.105	1242403	keystroke_o	o	n/a
621.4565	0.06	1242913	keystroke_n	n	n/a
621.7115	0.075	1243423	keystroke_t	t	n/a
622.6565	0.06	1245313	keystroke_r	r	n/a
623.7365	0.06	1247473	keystroke_o	o	n/a
624.366	0.06	1248732	keystroke_v	v	n/a
624.606	0.09	1249212	keystroke_e	e	n/a
624.8765	0.075	1249753	keystroke_r	r	n/a
626.347	0.06	1252694	keystroke_s	s	n/a
626.9165	0.03	1253833	keystroke_i	i	n/a
627.2015	0.0595	1254403	keystroke_a	a	n/a
627.681	0.06	1255362	keystroke_l	l	n/a
628.461	0.06	1256922	keystroke_Key.enter	Key.enter	n/a
628.526	10.407	1257052	prompt	n/a	draft race neither temporal\n
629.601	0.075	1259202	keystroke_d	d	n/a
629.8865	0.075	1259773	keystroke_r	r	n/a
630.1565	0.09	1260313	keystroke_a	a	n/a
630.3665	0.075	1260733	keystroke_f	f	n/a
630.6365	0.075	1261273	keystroke_t	t	n/a
631.3265	0.015	1262653	keystroke_Key.space	Key.space	n/a
631.7615	0.075	1263523	keystroke_r	r	n/a
632.0315	0.0895	1264063	keystroke_a	a	n/a
632.316	0.09	1264632	keystroke_c	c	n/a
632.571	0.075	1265142	keystroke_e	e	n/a
633.0665	0.09	1266133	keystroke_Key.space	Key.space	n/a
633.6515	0.06	1267303	keystroke_n	n	n/a
633.8165	0.045	1267633	keystroke_e	e	n/a
633.9365	0.06	1267873	keystroke_i	i	n/a
634.1465	0.06	1268293	keystroke_t	t	n/a
634.266	0.045	1268532	keystroke_h	h	n/a
634.431	0.06	1268862	keystroke_e	e	n/a
634.626	0.075	1269252	keystroke_r	r	n/a
634.8815	0.09	1269763	keystroke_Key.space	Key.space	n/a
635.3915	0.075	1270783	keystroke_t	t	n/a
635.7815	0.045	1271563	keystroke_e	e	n/a
635.8415	0.06	1271683	keystroke_m	m	n/a
636.666	0.0755	1273332	keystroke_p	p	n/a
636.8765	0.09	1273753	keystroke_o	o	n/a
637.4615	0.0745	1274923	keystroke_r	r	n/a
637.761	0.075	1275522	keystroke_a	a	n/a
638.1965	0.075	1276393	keystroke_l	l	n/a
638.857	0.075	1277714	keystroke_Key.enter	Key.enter	n/a
638.9375	16.0605	1277875	prompt	n/a	potentially coating vertex donald\n
639.9815	0.105	1279963	keystroke_p	p	n/a
640.266	0.105	1280532	keystroke_o	o	n/a
640.581	0.075	1281162	keystroke_t	t	n/a
640.821	0.06	1281642	keystroke_e	e	n/a
640.971	0.045	1281942	keystroke_n	n	n/a
642.096	0.015	1284192	keystroke_t	t	n/a
642.741	0.06	1285482	keystroke_i	i	n/a
642.9515	0.045	1285903	keystroke_a	a	n/a
643.0715	0.06	1286143	keystroke_l	l	n/a
643.1915	0.12	1286383	keystroke_l	l	n/a
643.6565	0.075	1287313	keystroke_y	y	n/a
644.2265	0.075	1288453	keystroke_Key.space	Key.space	n/a
644.7665	0.075	1289533	keystroke_c	c	n/a
645.3065	0.105	1290613	keystroke_o	o	n/a
645.4715	0.09	1290943	keystroke_a	a	n/a
645.832	0.06	1291664	keystroke_t	t	n/a
645.9815	0.075	1291963	keystroke_i	i	n/a
646.1915	0.09	1292383	keystroke_n	n	n/a
646.3715	0.06	1292743	keystroke_g	g	n/a
647.046	0.075	1294092	keystroke_Key.space	Key.space	n/a
647.796	0.06	1295592	keystroke_v	v	n/a
648.036	0.075	1296072	keystroke_e	e	n/a
648.246	0.075	1296492	keystroke_r	r	n/a
648.516	0.06	1297032	keystroke_t	t	n/a
649.0715	0.09	1298143	keystroke_x	x	n/a
649.7615	0.06	1299523	keystroke_Key.backspace	Key.backspace	n/a
650.4965	0.06	1300993	keystroke_e	e	n/a
650.7665	0.09	1301533	keystroke_x	x	n/a
651.4565	0.09	1302913	keystroke_Key.space	Key.space	n/a
651.9665	0.06	1303933	keystroke_d	d	n/a
652.0865	0.09	1304173	keystroke_o	o	n/a
652.3415	0.06	1304683	keystroke_n	n	n/a
652.701	0.09	1305402	keystroke_a	a	n/a
652.866	0.075	1305732	keystroke_l	l	n/a
653.812	0.075	1307624	keystroke_d	d	n/a
654.937	0.059	1309874	keystroke_Key.enter	Key.enter	n/a
655.001	20.0825	1310002	prompt	n/a	allowing thursday reach madrid\n
655.8215	0.075	1311643	keystroke_a	a	n/a
656.061	0.076	1312122	keystroke_l	l	n/a
656.212	0.09	1312424	keystroke_l	l	n/a
656.782	0.0745	1313564	keystroke_o	o	n/a
657.142	0.075	1314284	keystroke_w	w	n/a
657.471	0.075	1314942	keystroke_i	i	n/a
657.651	0.105	1315302	keystroke_n	n	n/a
657.861	0.091	1315722	keystroke_g	g	n/a
658.057	0.089	1316114	keystroke_Key.space	Key.space	n/a
658.732	0.075	1317464	keystroke_t	t	n/a
658.8965	0.06	1317793	keystroke_h	h	n/a
659.422	0.06	1318844	keystroke_u	u	n/a
659.632	0.06	1319264	keystroke_r	r	n/a
659.947	0.0895	1319894	keystroke_d	d	n/a
660.5915	0.09	1321183	keystroke_Key.backspace	Key.backspace	n/a
660.7715	0.0905	1321543	keystroke_s	s	n/a
661.042	0.09	1322084	keystroke_a	a	n/a
661.372	0.06	1322744	keystroke_d	d	n/a
663.9535	0.043	1327907	keystroke_Key.backspace	Key.backspace	n/a
664.5065	0.075	1329013	keystroke_Key.backspace	Key.backspace	n/a
665.5715	0.1955	1331143	keystroke_d	d	n/a
665.8115	0.06	1331623	keystroke_a	a	n/a
665.9465	0.0755	1331893	keystroke_y	y	n/a
666.3215	0.06	1332643	keystroke_Key.space	Key.space	n/a
666.7865	0.0755	1333573	keystroke_r	r	n/a
666.967	0.075	1333934	keystroke_e	e	n/a
667.222	0.105	1334444	keystroke_a	a	n/a
667.507	0.06	1335014	keystroke_c	c	n/a
667.642	0.06	1335284	keystroke_h	h	n/a
668.1515	0.09	1336303	keystroke_Key.space	Key.space	n/a
672.579	0.013	1345158	keystroke_m	m	n/a
672.727	0.0895	1345454	keystroke_a	a	n/a
673.0115	0.075	1346023	keystroke_d	d	n/a
673.7915	0.045	1347583	keystroke_r	r	n/a
673.9415	0.06	1347883	keystroke_i	i	n/a
674.1965	0.06	1348393	keystroke_d	d	n/a
674.992	0.09	1349984	keystroke_Key.enter	Key.enter	n/a
675.089	17.8145	1350178	prompt	n/a	exchanges pakistan resort conferences\n
675.907	0.075	1351814	keystroke_e	e	n/a
676.4315	0.075	1352863	keystroke_s	s	n/a
677.212	0.045	1354424	keystroke_Key.backspace	Key.backspace	n/a
677.452	0.105	1354904	keystroke_x	x	n/a
678.337	0.075	1356674	keystroke_c	c	n/a
678.472	0.06	1356944	keystroke_h	h	n/a
678.712	0.09	1357424	keystroke_a	a	n/a
679.027	0.075	1358054	keystroke_n	n	n/a
679.237	0.075	1358474	keystroke_g	g	n/a
680.242	0.045	1360484	keystroke_e	e	n/a
680.467	0.09	1360934	keystroke_s	s	n/a
680.827	0.075	1361654	keystroke_Key.space	Key.space	n/a
681.3815	0.075	1362763	keystroke_p	p	n/a
681.5925	0.09	1363185	keystroke_a	a	n/a
681.6975	0.105	1363395	keystroke_l	l	n/a
682.567	0.045	1365134	keystroke_i	i	n/a
682.747	0.075	1365494	keystroke_s	s	n/a
683.167	0.06	1366334	keystroke_t	t	n/a
683.722	0.06	1367444	keystroke_a	a	n/a
683.977	0.075	1367954	keystroke_n	n	n/a
684.352	0.105	1368704	keystroke_Key.space	Key.space	n/a
684.9515	0.075	1369903	keystroke_r	r	n/a
685.2075	0.075	1370415	keystroke_e	e	n/a
685.822	0.075	1371644	keystroke_s	s	n/a
686.557	0.09	1373114	keystroke_o	o	n/a
686.737	0.105	1373474	keystroke_r	r	n/a
687.0225	0.0895	1374045	keystroke_t	t	n/a
687.502	0.09	1375004	keystroke_Key.space	Key.space	n/a
688.1915	0.075	1376383	keystroke_c	c	n/a
688.3265	0.09	1376653	keystroke_o	o	n/a
688.5665	0.075	1377133	keystroke_n	n	n/a
689.3465	0.09	1378693	keystroke_f	f	n/a
689.7365	0.09	1379473	keystroke_e	e	n/a
690.0815	0.075	1380163	keystroke_r	r	n/a
690.3365	0.075	1380673	keystroke_e	e	n/a
690.8015	0.06	1381603	keystroke_n	n	n/a
690.9965	0.075	1381993	keystroke_c	c	n/a
691.2365	0.075	1382473	keystroke_e	e	n/a
691.5065	0.0755	1383013	keystroke_s	s	n/a
692.8415	0.0605	1385683	keystroke_Key.enter	Key.enter	n/a
692.907	18.8065	1385814	prompt	n/a	perfectly geology providence revisions\n
693.697	0.1055	1387394	keystroke_p	p	n/a
693.9075	0.1045	1387815	keystroke_e	e	n/a
694.612	0.06	1389224	keystroke_r	r	n/a
695.107	0.0745	1390214	keystroke_f	f	n/a
695.317	0.0745	1390634	keystroke_e	e	n/a
695.587	0.09	1391174	keystroke_c	c	n/a
696.3515	0.06	1392703	keystroke_t	t	n/a
696.5165	0.09	1393033	keystroke_l	l	n/a
696.8315	0.09	1393663	keystroke_y	y	n/a
697.6425	0.075	1395285	keystroke_Key.space	Key.space	n/a
698.587	0.075	1397174	keystroke_g	g	n/a
698.902	0.075	1397804	keystroke_e	e	n/a
699.382	0.075	1398764	keystroke_o	o	n/a
699.967	0.075	1399934	keystroke_g	g	n/a
700.5515	0.09	1401103	keystroke_Key.backspace	Key.backspace	n/a
701.0765	0.06	1402153	keystroke_l	l	n/a
701.7665	0.061	1403533	keystroke_o	o	n/a
702.1715	0.06	1404343	keystroke_g	g	n/a
702.908	0.059	1405816	keystroke_y	y	n/a
703.1165	0.09	1406233	keystroke_Key.space	Key.space	n/a
703.5675	0.074	1407135	keystroke_p	p	n/a
703.792	0.06	1407584	keystroke_r	r	n/a
703.912	0.09	1407824	keystroke_o	o	n/a
704.242	0.0595	1408484	keystroke_v	v	n/a
704.6915	0.06	1409383	keystroke_i	i	n/a
704.8565	0.075	1409713	keystroke_d	d	n/a
705.1115	0.045	1410223	keystroke_e	e	n/a
705.2615	0.075	1410523	keystroke_n	n	n/a
705.9815	0.075	1411963	keystroke_c	c	n/a
706.3115	0.06	1412623	keystroke_e	e	n/a
706.7315	0.045	1413463	keystroke_Key.space	Key.space	n/a
707.2865	0.075	1414573	keystroke_r	r	n/a
707.5115	0.0605	1415023	keystroke_e	e	n/a
707.9465	0.06	1415893	keystroke_v	v	n/a
708.562	0.075	1417124	keystroke_i	i	n/a
709.2815	0.091	1418563	keystroke_s	s	n/a
710.1525	0.104	1420305	keystroke_i	i	n/a
710.3475	0.089	1420695	keystroke_o	o	n/a
710.6015	0.075	1421203	keystroke_n	n	n/a
710.9025	0.09	1421805	keystroke_s	s	n/a
711.6515	0.06	1423303	keystroke_Key.enter	Key.enter	n/a
711.7165	16.741	1423433	prompt	n/a	turtle generate chart tactics\n
712.852	0.075	1425704	keystroke_t	t	n/a
713.077	0.045	1426154	keystroke_u	u	n/a
713.272	0.075	1426544	keystroke_r	r	n/a
713.572	0.045	1427144	keystroke_t	t	n/a
713.917	0.075	1427834	keystroke_l	l	n/a
714.097	0.06	1428194	keystroke_e	e	n/a
714.607	0.06	1429214	keystroke_Key.space	Key.space	n/a
715.2225	0.06	1430445	keystroke_g	g	n/a
715.4775	0.075	1430955	keystroke_e	e	n/a
715.6425	0.06	1431285	keystroke_n	n	n/a
715.8225	0.075	1431645	keystroke_e	e	n/a
716.707	0.06	1433414	keystroke_r	r	n/a
716.947	0.09	1433894	keystroke_a	a	n/a
717.217	0.06	1434434	keystroke_t	t	n/a
717.442	0.075	1434884	keystroke_e	e	n/a
717.997	0.0755	1435994	keystroke_Key.space	Key.space	n/a
718.7925	0.0595	1437585	keystroke_c	c	n/a
718.927	0.06	1437854	keystroke_h	h	n/a
719.107	0.09	1438214	keystroke_a	a	n/a
719.437	0.09	1438874	keystroke_r	r	n/a
719.707	0.06	1439414	keystroke_t	t	n/a
720.232	0.075	1440464	keystroke_Key.space	Key.space	n/a
720.728	0.074	1441456	keystroke_t	t	n/a
721.042	0.105	1442084	keystroke_a	a	n/a
721.357	0.075	1442714	keystroke_c	c	n/a
721.672	0.06	1443344	keystroke_t	t	n/a
721.867	0.06	1443734	keystroke_i	i	n/a
722.7825	0.0745	1445565	keystroke_s	s	n/a
723.7575	0.06	1447515	keystroke_Key.backspace	Key.backspace	n/a
724.1025	0.075	1448205	keystroke_c	c	n/a
724.477	0.075	1448954	keystroke_a	a	n/a
725.333	0.09	1450666	keystroke_Key.backspace	Key.backspace	n/a
725.738	0.075	1451476	keystroke_s	s	n/a
728.455	0	1456910	keystroke_Key.enter	Key.enter	n/a
728.4605	22.885	1456921	prompt	n/a	receptors drawn collins salmon\n
729.5175	0.075	1459035	keystroke_r	r	n/a
729.7275	0.075	1459455	keystroke_e	e	n/a
730.0125	0.09	1460025	keystroke_c	c	n/a
730.3125	0.075	1460625	keystroke_e	e	n/a
730.7925	0.075	1461585	keystroke_p	p	n/a
731.4975	0.0755	1462995	keystroke_t	t	n/a
731.693	0.06	1463386	keystroke_o	o	n/a
732.053	0.075	1464106	keystroke_r	r	n/a
732.413	0.075	1464826	keystroke_s	s	n/a
732.698	0.06	1465396	keystroke_Key.space	Key.space	n/a
733.223	0.075	1466446	keystroke_d	d	n/a
733.508	0.105	1467016	keystroke_r	r	n/a
733.853	0.06	1467706	keystroke_w	w	n/a
734.5735	0.015	1469147	keystroke_Key.backspace	Key.backspace	n/a
734.6935	0.075	1469387	keystroke_a	a	n/a
735.0235	0.09	1470047	keystroke_w	w	n/a
735.4735	0.075	1470947	keystroke_n	n	n/a
735.9685	0.09	1471937	keystroke_Key.space	Key.space	n/a
736.2535	0.06	1472507	keystroke_c	c	n/a
736.4335	0.06	1472867	keystroke_o	o	n/a
736.6435	0.09	1473287	keystroke_l	l	n/a
737.183	0.06	1474366	keystroke_i	i	n/a
737.438	0.06	1474876	keystroke_n	n	n/a
737.723	0.06	1475446	keystroke_s	s	n/a
738.729	0.075	1477458	keystroke_Key.space	Key.space	n/a
738.9385	0.09	1477877	keystroke_s	s	n/a
741.038	0.0755	1482076	keystroke_Key.backspace	Key.backspace	n/a
741.5335	0.045	1483067	keystroke_Key.backspace	Key.backspace	n/a
741.7135	0.09	1483427	keystroke_Key.backspace	Key.backspace	n/a
742.6435	0.09	1485287	keystroke_Key.backspace	Key.backspace	n/a
743.2435	0.0595	1486487	keystroke_Key.backspace	Key.backspace	n/a
743.8735	0.09	1487747	keystroke_l	l	n/a
744.2035	0.06	1488407	keystroke_i	i	n/a
745.0735	0.075	1490147	keystroke_n	n	n/a
745.3135	0.075	1490627	keystroke_s	s	n/a
745.7185	0.045	1491437	keystroke_Key.space	Key.space	n/a
746.0935	0.0905	1492187	keystroke_s	s	n/a
746.8735	0.075	1493747	keystroke_a	a	n/a
748.3135	0.09	1496627	keystroke_l	l	n/a
749.1535	0.09	1498307	keystroke_m	m	n/a
749.334	0.105	1498668	keystroke_o	o	n/a
749.604	0.075	1499208	keystroke_n	n	n/a
751.299	0.045	1502598	keystroke_Key.enter	Key.enter	n/a
751.349	19.7365	1502698	prompt	n/a	strictly connections ranch render\n
752.2295	0.09	1504459	keystroke_s	s	n/a
752.5595	0.09	1505119	keystroke_t	t	n/a
752.8445	0.06	1505689	keystroke_r	r	n/a
753.3845	0.09	1506769	keystroke_i	i	n/a
753.669	0.06	1507338	keystroke_c	c	n/a
753.819	0.09	1507638	keystroke_k	k	n/a
755.4995	0.06	1510999	keystroke_Key.backspace	Key.backspace	n/a
756.4735	0.046	1512947	keystroke_t	t	n/a
756.5785	0.105	1513157	keystroke_l	l	n/a
756.9835	0.06	1513967	keystroke_y	y	n/a
757.7035	0.09	1515407	keystroke_Key.space	Key.space	n/a
758.0035	0.06	1516007	keystroke_c	c	n/a
758.1235	0.075	1516247	keystroke_o	o	n/a
758.3335	0.075	1516667	keystroke_n	n	n/a
758.4685	0.09	1516937	keystroke_n	n	n/a
759.1435	0.09	1518287	keystroke_e	e	n/a
759.4585	0.12	1518917	keystroke_c	c	n/a
759.8335	0.075	1519667	keystroke_t	t	n/a
759.9835	0.09	1519967	keystroke_i	i	n/a
760.1785	0.105	1520357	keystroke_o	o	n/a
760.449	0.0595	1520898	keystroke_n	n	n/a
760.6435	0.075	1521287	keystroke_s	s	n/a
761.304	0.06	1522608	keystroke_Key.space	Key.space	n/a
761.5445	0.0745	1523089	keystroke_r	r	n/a
762.279	0.075	1524558	keystroke_a	a	n/a
763.044	0.0445	1526088	keystroke_n	n	n/a
763.2835	0.06	1526567	keystroke_c	c	n/a
763.4035	0.09	1526807	keystroke_h	h	n/a
763.6135	0.09	1527227	keystroke_Key.space	Key.space	n/a
764.5295	0.075	1529059	keystroke_r	r	n/a
764.7385	0.061	1529477	keystroke_e	e	n/a
764.964	0.075	1529928	keystroke_n	n	n/a
765.204	0.015	1530408	keystroke_e	e	n/a
765.819	0.105	1531638	keystroke_d	d	n/a
766.479	0.03	1532958	keystroke_e	e	n/a
767.4395	0.09	1534879	keystroke_Key.backspace	Key.backspace	n/a
768.0395	0.09	1536079	keystroke_Key.backspace	Key.backspace	n/a
768.609	0.075	1537218	keystroke_Key.backspace	Key.backspace	n/a
768.894	0.06	1537788	keystroke_d	d	n/a
769.134	0.09	1538268	keystroke_e	e	n/a
769.3895	0.075	1538779	keystroke_r	r	n/a
771.0245	0.06	1542049	keystroke_Key.enter	Key.enter	n/a
771.0895	15.3115	1542179	prompt	n/a	behind divine wind jerusalem\n
772.194	0.09	1544388	keystroke_b	b	n/a
772.5545	0.06	1545109	keystroke_e	e	n/a
772.7645	0.075	1545529	keystroke_h	h	n/a
772.9745	0.075	1545949	keystroke_i	i	n/a
773.1995	0.06	1546399	keystroke_n	n	n/a
773.3945	0.06	1546789	keystroke_d	d	n/a
774.159	0.075	1548318	keystroke_Key.space	Key.space	n/a
774.894	0.045	1549788	keystroke_d	d	n/a
775.029	0.061	1550058	keystroke_i	i	n/a
775.21	0.0745	1550420	keystroke_v	v	n/a
775.3895	0.075	1550779	keystroke_i	i	n/a
776.005	0.045	1552010	keystroke_n	n	n/a
776.785	0.045	1553570	keystroke_e	e	n/a
777.145	0.09	1554290	keystroke_Key.space	Key.space	n/a
777.445	0.09	1554890	keystroke_w	w	n/a
777.565	0.075	1555130	keystroke_i	i	n/a
777.925	0.015	1555850	keystroke_n	n	n/a
778	0.06	1556000	keystroke_d	d	n/a
778.2095	0.03	1556419	keystroke_Key.space	Key.space	n/a
779.799	0.045	1559598	keystroke_j	j	n/a
780.009	0.075	1560018	keystroke_e	e	n/a
780.549	0.18	1561098	keystroke_r	r	n/a
780.9995	0.045	1561999	keystroke_u	u	n/a
781.2545	0.075	1562509	keystroke_s	s	n/a
782.14	0.074	1564280	keystroke_a	a	n/a
782.379	0.075	1564758	keystroke_l	l	n/a
783.1445	0.06	1566289	keystroke_e	e	n/a
783.3095	0.075	1566619	keystroke_m	m	n/a
786.3865	0.013	1572773	keystroke_Key.enter	Key.enter	n/a
786.405	15.146	1572810	prompt	n/a	craig mainstream sixth paper\n
787.3895	0.0755	1574779	keystroke_v	v	n/a
788.08	0.06	1576160	keystroke_Key.backspace	Key.backspace	n/a
788.245	0.09	1576490	keystroke_c	c	n/a
788.56	0.09	1577120	keystroke_r	r	n/a
789.8195	0.075	1579639	keystroke_a	a	n/a
789.9995	0.06	1579999	keystroke_i	i	n/a
790.2845	0.06	1580569	keystroke_g	g	n/a
790.9745	0.075	1581949	keystroke_Key.space	Key.space	n/a
791.38	0.045	1582760	keystroke_m	m	n/a
791.5	0.074	1583000	keystroke_a	a	n/a
791.634	0.06	1583268	keystroke_i	i	n/a
791.844	0.075	1583688	keystroke_n	n	n/a
793.66	0.105	1587320	keystroke_s	s	n/a
794.0345	0.0905	1588069	keystroke_t	t	n/a
794.3345	0.09	1588669	keystroke_r	r	n/a
794.695	0.1045	1589390	keystroke_e	e	n/a
795.0095	0.075	1590019	keystroke_a	a	n/a
795.2045	0.075	1590409	keystroke_m	m	n/a
795.6845	0.09	1591369	keystroke_Key.space	Key.space	n/a
796.045	0.105	1592090	keystroke_s	s	n/a
796.255	0.06	1592510	keystroke_i	i	n/a
796.585	0.09	1593170	keystroke_x	x	n/a
796.944	0.0605	1593888	keystroke_t	t	n/a
797.0495	0.075	1594099	keystroke_h	h	n/a
797.8745	0.09	1595749	keystroke_Key.space	Key.space	n/a
798.279	0.045	1596558	keystroke_a	a	n/a
799.3745	0.075	1598749	keystroke_Key.backspace	Key.backspace	n/a
799.96	0.09	1599920	keystroke_p	p	n/a
800.1245	0.09	1600249	keystroke_a	a	n/a
800.2445	0.09	1600489	keystroke_p	p	n/a
800.4845	0.075	1600969	keystroke_e	e	n/a
800.7545	0.075	1601509	keystroke_r	r	n/a
801.475	0.075	1602950	keystroke_Key.enter	Key.enter	n/a
801.555	12.9105	1603110	prompt	n/a	spin taxes hired basename\n
802.285	0.09	1604570	keystroke_s	s	n/a
802.435	0.135	1604870	keystroke_p	p	n/a
802.72	0.105	1605440	keystroke_i	i	n/a
803.0045	0.105	1606009	keystroke_n	n	n/a
803.3945	0.105	1606789	keystroke_Key.space	Key.space	n/a
804.0395	0.06	1608079	keystroke_t	t	n/a
804.3545	0.09	1608709	keystroke_a	a	n/a
804.8795	0.105	1609759	keystroke_x	x	n/a
805.1795	0.09	1610359	keystroke_e	e	n/a
805.9145	0.06	1611829	keystroke_s	s	n/a
806.0795	0.075	1612159	keystroke_Key.space	Key.space	n/a
806.5595	0.075	1613119	keystroke_h	h	n/a
806.7545	0.075	1613509	keystroke_i	i	n/a
806.994	0.075	1613988	keystroke_r	r	n/a
807.219	0.06	1614438	keystroke_e	e	n/a
807.444	0.045	1614888	keystroke_d	d	n/a
807.609	0.075	1615218	keystroke_Key.space	Key.space	n/a
808.5245	0.06	1617049	keystroke_b	b	n/a
809.0045	0.09	1618009	keystroke_a	a	n/a
809.2445	0.09	1618489	keystroke_s	s	n/a
809.5145	0.09	1619029	keystroke_e	e	n/a
810.939	0.06	1621878	keystroke_n	n	n/a
811.134	0.09	1622268	keystroke_a	a	n/a
811.254	0.075	1622508	keystroke_m	m	n/a
811.434	0.075	1622868	keystroke_e	e	n/a
814.451	0.013	1628902	keystroke_Key.enter	Key.enter	n/a
814.4705	14.125	1628941	prompt	n/a	loss smooth hansen moisture\n
815.199	0.091	1630398	keystroke_l	l	n/a
815.439	0.06	1630878	keystroke_o	o	n/a
815.619	0.075	1631238	keystroke_s	s	n/a
815.799	0.091	1631598	keystroke_s	s	n/a
816.189	0.105	1632378	keystroke_Key.space	Key.space	n/a
816.654	0.091	1633308	keystroke_s	s	n/a
816.789	0.0905	1633578	keystroke_m	m	n/a
817.0445	0.09	1634089	keystroke_o	o	n/a
817.2545	0.075	1634509	keystroke_o	o	n/a
817.8995	0.045	1635799	keystroke_t	t	n/a
818.0045	0.075	1636009	keystroke_h	h	n/a
818.394	0.106	1636788	keystroke_e	e	n/a
819.099	0.105	1638198	keystroke_Key.backspace	Key.backspace	n/a
819.474	0.09	1638948	keystroke_Key.space	Key.space	n/a
820.119	0.045	1640238	keystroke_h	h	n/a
820.314	0.075	1640628	keystroke_a	a	n/a
820.434	0.06	1640868	keystroke_n	n	n/a
821.5145	0.09	1643029	keystroke_s	s	n/a
821.7545	0.06	1643509	keystroke_e	e	n/a
821.9045	0.06	1643809	keystroke_n	n	n/a
822.4885	0.21	1644977	keystroke_Key.space	Key.space	n/a
822.7885	0.09	1645577	keystroke_m	m	n/a
823.1935	0.09	1646387	keystroke_o	o	n/a
823.4635	0.0905	1646927	keystroke_i	i	n/a
823.794	0.075	1647588	keystroke_s	s	n/a
824.529	0.0895	1649058	keystroke_t	t	n/a
825.2795	0.075	1650559	keystroke_u	u	n/a
825.4745	0.075	1650949	keystroke_r	r	n/a
825.714	0.075	1651428	keystroke_e	e	n/a
828.5815	0.013	1657163	keystroke_Key.enter	Key.enter	n/a
828.5985	19.887	1657197	prompt	n/a	ghost extraction microsoft introduced\n
829.8545	0.06	1659709	keystroke_g	g	n/a
830.0345	0.075	1660069	keystroke_h	h	n/a
830.244	0.075	1660488	keystroke_o	o	n/a
830.424	0.09	1660848	keystroke_s	s	n/a
830.694	0.075	1661388	keystroke_t	t	n/a
831.1745	0.075	1662349	keystroke_Key.space	Key.space	n/a
831.8795	0.045	1663759	keystroke_e	e	n/a
832.1195	0.105	1664239	keystroke_x	x	n/a
833.3345	0.0295	1666669	keystroke_t	t	n/a
833.904	0.075	1667808	keystroke_r	r	n/a
834.204	0.105	1668408	keystroke_a	a	n/a
834.999	0.105	1669998	keystroke_c	c	n/a
835.599	0.06	1671198	keystroke_t	t	n/a
835.779	0.09	1671558	keystroke_i	i	n/a
835.959	0.09	1671918	keystroke_o	o	n/a
836.199	0.09	1672398	keystroke_n	n	n/a
836.634	0.105	1673268	keystroke_Key.space	Key.space	n/a
837.0845	0.09	1674169	keystroke_m	m	n/a
837.3995	0.075	1674799	keystroke_i	i	n/a
837.7145	0.075	1675429	keystroke_c	c	n/a
838.314	0.06	1676628	keystroke_r	r	n/a
838.494	0.06	1676988	keystroke_o	o	n/a
838.764	0.075	1677528	keystroke_s	s	n/a
840.174	0.06	1680348	keystroke_o	o	n/a
840.414	0.075	1680828	keystroke_f	f	n/a
840.6985	0.075	1681397	keystroke_t	t	n/a
841.3445	0.089	1682689	keystroke_Key.space	Key.space	n/a
841.5845	0.075	1683169	keystroke_i	i	n/a
841.8395	0.09	1683679	keystroke_n	n	n/a
844.466	0.001	1688932	keystroke_t	t	n/a
844.599	0.06	1689198	keystroke_r	r	n/a
844.9585	0.075	1689917	keystroke_o	o	n/a
845.6785	0.075	1691357	keystroke_d	d	n/a
846.2335	0.06	1692467	keystroke_u	u	n/a
846.5485	0.06	1693097	keystroke_c	c	n/a
846.8035	0.06	1693607	keystroke_e	e	n/a
847.794	0.075	1695588	keystroke_d	d	n/a
848.424	0.06	1696848	keystroke_Key.enter	Key.enter	n/a
848.489	15.5815	1696978	prompt	n/a	consisting wheat titanium assess\n
849.459	0.075	1698918	keystroke_c	c	n/a
849.594	0.075	1699188	keystroke_o	o	n/a
849.819	0.075	1699638	keystroke_n	n	n/a
850.359	0.075	1700718	keystroke_s	s	n/a
850.644	0.06	1701288	keystroke_i	i	n/a
850.824	0.09	1701648	keystroke_s	s	n/a
851.904	0.06	1703808	keystroke_t	t	n/a
852.024	0.075	1704048	keystroke_i	i	n/a
852.294	0.06	1704588	keystroke_n	n	n/a
852.534	0.03	1705068	keystroke_g	g	n/a
853.2085	0.09	1706417	keystroke_Key.space	Key.space	n/a
853.7335	0.0755	1707467	keystroke_w	w	n/a
853.869	0.06	1707738	keystroke_h	h	n/a
854.049	0.09	1708098	keystroke_e	e	n/a
854.2895	0.105	1708579	keystroke_a	a	n/a
854.5895	0.075	1709179	keystroke_t	t	n/a
855.2345	0.0595	1710469	keystroke_Key.space	Key.space	n/a
855.804	0.09	1711608	keystroke_t	t	n/a
855.939	0.075	1711878	keystroke_i	i	n/a
856.104	0.075	1712208	keystroke_t	t	n/a
856.8995	0.0895	1713799	keystroke_a	a	n/a
857.094	0.075	1714188	keystroke_n	n	n/a
860.261	0.013	1720522	keystroke_i	i	n/a
860.514	0.075	1721028	keystroke_u	u	n/a
861.114	0.06	1722228	keystroke_m	m	n/a
861.519	0.09	1723038	keystroke_Key.space	Key.space	n/a
861.984	0.09	1723968	keystroke_a	a	n/a
862.254	0.09	1724508	keystroke_s	s	n/a
862.434	0.105	1724868	keystroke_s	s	n/a
862.689	0.075	1725378	keystroke_e	e	n/a
863.004	0.06	1726008	keystroke_s	s	n/a
863.169	0.105	1726338	keystroke_s	s	n/a
863.994	0.075	1727988	keystroke_Key.enter	Key.enter	n/a
864.0735	18.297	1728147	prompt	n/a	surrounding supplier salon station\n
865.4045	0.075	1730809	keystroke_s	s	n/a
866.0495	0.03	1732099	keystroke_u	u	n/a
866.1845	0.075	1732369	keystroke_r	r	n/a
866.3645	0.075	1732729	keystroke_r	r	n/a
866.7845	0.09	1733569	keystroke_o	o	n/a
867.9845	0.06	1735969	keystroke_u	u	n/a
868.2245	0.075	1736449	keystroke_n	n	n/a
868.4345	0.06	1736869	keystroke_d	d	n/a
868.5995	0.075	1737199	keystroke_i	i	n/a
868.7945	0.075	1737589	keystroke_n	n	n/a
868.9745	0.075	1737949	keystroke_g	g	n/a
869.649	0.09	1739298	keystroke_Key.space	Key.space	n/a
869.874	0.09	1739748	keystroke_s	s	n/a
870.054	0.075	1740108	keystroke_u	u	n/a
870.339	0.075	1740678	keystroke_p	p	n/a
870.504	0.075	1741008	keystroke_p	p	n/a
870.729	0.12	1741458	keystroke_l	l	n/a
871.239	0.06	1742478	keystroke_i	i	n/a
871.524	0.075	1743048	keystroke_e	e	n/a
872.259	0.045	1744518	keystroke_r	r	n/a
872.469	0.09	1744938	keystroke_Key.space	Key.space	n/a
872.769	0.075	1745538	keystroke_s	s	n/a
872.994	0.075	1745988	keystroke_l	l	n/a
873.279	0.0905	1746558	keystroke_a	a	n/a
874.4495	0.09	1748899	keystroke_Key.backspace	Key.backspace	n/a
875.0185	0.0755	1750037	keystroke_Key.backspace	Key.backspace	n/a
875.544	0.075	1751088	keystroke_a	a	n/a
875.739	0.06	1751478	keystroke_l	l	n/a
875.9335	0.075	1751867	keystroke_o	o	n/a
876.204	0.09	1752408	keystroke_n	n	n/a
877.029	0.105	1754058	keystroke_Key.space	Key.space	n/a
877.539	0.09	1755078	keystroke_s	s	n/a
877.899	0.09	1755798	keystroke_t	t	n/a
878.199	0.105	1756398	keystroke_s	s	n/a
878.559	0.06	1757118	keystroke_t	t	n/a
879.459	0.105	1758918	keystroke_Key.backspace	Key.backspace	n/a
879.999	0.105	1759998	keystroke_Key.backspace	Key.backspace	n/a
880.5545	0.09	1761109	keystroke_a	a	n/a
880.9445	0.0445	1761889	keystroke_t	t	n/a
881.064	0.09	1762128	keystroke_i	i	n/a
881.2295	0.1195	1762459	keystroke_o	o	n/a
881.424	0.12	1762848	keystroke_n	n	n/a
882.3095	0.06	1764619	keystroke_Key.enter	Key.enter	n/a
882.3735	13.917	1764747	prompt	n/a	earth seasons shirts macintosh\n
883.224	0.075	1766448	keystroke_e	e	n/a
883.434	0.105	1766868	keystroke_a	a	n/a
883.719	0.09	1767438	keystroke_r	r	n/a
883.989	0.075	1767978	keystroke_t	t	n/a
884.124	0.075	1768248	keystroke_h	h	n/a
884.5595	0.075	1769119	keystroke_Key.space	Key.space	n/a
884.9645	0.0895	1769929	keystroke_s	s	n/a
885.159	0.09	1770318	keystroke_e	e	n/a
885.414	0.06	1770828	keystroke_a	a	n/a
886.719	0.105	1773438	keystroke_s	s	n/a
886.914	0.09	1773828	keystroke_o	o	n/a
887.1685	0.075	1774337	keystroke_n	n	n/a
887.4245	0.074	1774849	keystroke_s	s	n/a
887.9035	0.061	1775807	keystroke_Key.space	Key.space	n/a
888.3535	0.06	1776707	keystroke_s	s	n/a
888.4895	0.074	1776979	keystroke_h	h	n/a
888.7585	0.075	1777517	keystroke_i	i	n/a
889.0435	0.06	1778087	keystroke_r	r	n/a
889.2385	0.06	1778477	keystroke_t	t	n/a
889.5085	0.06	1779017	keystroke_s	s	n/a
890.1095	0.09	1780219	keystroke_Key.space	Key.space	n/a
891.054	0.06	1782108	keystroke_m	m	n/a
891.324	0.09	1782648	keystroke_a	a	n/a
891.624	0.09	1783248	keystroke_c	c	n/a
891.774	0.06	1783548	keystroke_h	h	n/a
892.794	0.075	1785588	keystroke_i	i	n/a
893.289	0.06	1786578	keystroke_n	n	n/a
894.444	0.045	1788888	keystroke_t	t	n/a
894.609	0.06	1789218	keystroke_o	o	n/a
894.804	0.075	1789608	keystroke_s	s	n/a
894.984	0.06	1789968	keystroke_h	h	n/a
896.2135	0.075	1792427	keystroke_Key.enter	Key.enter	n/a
896.2935	12.387	1792587	prompt	n/a	blue thats south freebsd\n
897.4585	0.06	1794917	keystroke_b	b	n/a
897.5785	0.09	1795157	keystroke_l	l	n/a
897.8785	0.06	1795757	keystroke_u	u	n/a
898.074	0.06	1796148	keystroke_e	e	n/a
898.704	0.075	1797408	keystroke_Key.space	Key.space	n/a
899.169	0.06	1798338	keystroke_t	t	n/a
899.274	0.06	1798548	keystroke_h	h	n/a
899.439	0.105	1798878	keystroke_a	a	n/a
899.709	0.09	1799418	keystroke_t	t	n/a
900.114	0.06	1800228	keystroke_s	s	n/a
900.369	0.09	1800738	keystroke_Key.space	Key.space	n/a
900.684	0.075	1801368	keystroke_s	s	n/a
900.8495	0.09	1801699	keystroke_o	o	n/a
901.074	0.075	1802148	keystroke_u	u	n/a
903.3415	0.012	1806683	keystroke_t	t	n/a
903.4285	0.075	1806857	keystroke_h	h	n/a
904.4635	0.09	1808927	keystroke_Key.space	Key.space	n/a
905.0335	0.075	1810067	keystroke_f	f	n/a
905.4085	0.06	1810817	keystroke_r	r	n/a
905.6485	0.06	1811297	keystroke_e	e	n/a
905.7985	0.075	1811597	keystroke_e	e	n/a
907.0435	0.06	1814087	keystroke_b	b	n/a
907.3135	0.09	1814627	keystroke_s	s	n/a
907.5535	0.075	1815107	keystroke_d	d	n/a
908.6335	0.045	1817267	keystroke_Key.enter	Key.enter	n/a
908.684	27.1165	1817368	prompt	n/a	competitions competing thou truth\n
909.519	0.0605	1819038	keystroke_c	c	n/a
909.624	0.09	1819248	keystroke_o	o	n/a
909.8345	0.075	1819669	keystroke_m	m	n/a
910.1945	0.105	1820389	keystroke_p	p	n/a
910.4495	0.105	1820899	keystroke_l	l	n/a
910.8995	0.075	1821799	keystroke_e	e	n/a
911.2595	0.06	1822519	keystroke_t	t	n/a
911.4695	0.075	1822939	keystroke_i	i	n/a
911.6485	0.046	1823297	keystroke_t	t	n/a
912.4445	0.09	1824889	keystroke_i	i	n/a
912.6245	0.104	1825249	keystroke_o	o	n/a
912.849	0.1205	1825698	keystroke_n	n	n/a
913.0895	0.074	1826179	keystroke_s	s	n/a
913.5085	0.09	1827017	keystroke_Key.space	Key.space	n/a
916.9765	0.043	1833953	keystroke_Key.backspace	Key.backspace	n/a
917.4095	0.12	1834819	keystroke_Key.backspace	Key.backspace	n/a
917.9345	0.105	1835869	keystroke_Key.backspace	Key.backspace	n/a
918.4745	0.09	1836949	keystroke_Key.backspace	Key.backspace	n/a
918.9845	0.105	1837969	keystroke_Key.backspace	Key.backspace	n/a
919.5095	0.09	1839019	keystroke_Key.backspace	Key.backspace	n/a
920.0345	0.09	1840069	keystroke_Key.backspace	Key.backspace	n/a
920.5595	0.105	1841119	keystroke_Key.backspace	Key.backspace	n/a
921.084	0.105	1842168	keystroke_Key.backspace	Key.backspace	n/a
921.639	0.075	1843278	keystroke_Key.backspace	Key.backspace	n/a
923.004	0.075	1846008	keystroke_e	e	n/a
923.8895	0.089	1847779	keystroke_t	t	n/a
924.7885	0.075	1849577	keystroke_i	i	n/a
925.0285	0.075	1850057	keystroke_t	t	n/a
925.3585	0.09	1850717	keystroke_i	i	n/a
925.5385	0.105	1851077	keystroke_o	o	n/a
925.8085	0.09	1851617	keystroke_n	n	n/a
926.409	0.0755	1852818	keystroke_s	s	n/a
926.5885	0.09	1853177	keystroke_Key.space	Key.space	n/a
927.1885	0.075	1854377	keystroke_c	c	n/a
927.3385	0.09	1854677	keystroke_o	o	n/a
927.5785	0.09	1855157	keystroke_m	m	n/a
927.879	0.09	1855758	keystroke_p	p	n/a
928.524	0.0595	1857048	keystroke_l	l	n/a
929.3185	0.09	1858637	keystroke_Key.backspace	Key.backspace	n/a
929.9185	0.075	1859837	keystroke_e	e	n/a
930.2485	0.06	1860497	keystroke_t	t	n/a
930.3835	0.075	1860767	keystroke_i	i	n/a
930.579	0.09	1861158	keystroke_n	n	n/a
930.714	0.09	1861428	keystroke_g	g	n/a
931.479	0.09	1862958	keystroke_Key.space	Key.space	n/a
931.899	0.0745	1863798	keystroke_t	t	n/a
932.0035	0.06	1864007	keystroke_h	h	n/a
932.2285	0.105	1864457	keystroke_o	o	n/a
933.0085	0.06	1866017	keystroke_u	u	n/a
933.699	0.06	1867398	keystroke_Key.space	Key.space	n/a
934.164	0.075	1868328	keystroke_t	t	n/a
934.344	0.075	1868688	keystroke_r	r	n/a
934.539	0.06	1869078	keystroke_u	u	n/a
934.749	0.075	1869498	keystroke_t	t	n/a
934.8545	0.0745	1869709	keystroke_h	h	n/a
935.7245	0.075	1871449	keystroke_Key.enter	Key.enter	n/a
935.804	17.6365	1871608	prompt	n/a	nudist recipient biggest muslim\n
936.8795	0.014	1873759	keystroke_n	n	n/a
937.0595	0.059	1874119	keystroke_u	u	n/a
937.3145	0.074	1874629	keystroke_d	d	n/a
937.5085	0.061	1875017	keystroke_i	i	n/a
937.7185	0.09	1875437	keystroke_s	s	n/a
938.1385	0.075	1876277	keystroke_t	t	n/a
938.4545	0.074	1876909	keystroke_Key.space	Key.space	n/a
938.964	0.075	1877928	keystroke_r	r	n/a
939.189	0.06	1878378	keystroke_e	e	n/a
939.519	0.075	1879038	keystroke_c	c	n/a
940.434	0.075	1880868	keystroke_i	i	n/a
940.689	0.105	1881378	keystroke_p	p	n/a
941.469	0.06	1882938	keystroke_i	i	n/a
941.679	0.06	1883358	keystroke_e	e	n/a
941.859	0.045	1883718	keystroke_n	n	n/a
942.084	0.075	1884168	keystroke_t	t	n/a
942.549	0.0595	1885098	keystroke_Key.space	Key.space	n/a
943.0745	0.06	1886149	keystroke_b	b	n/a
943.3295	0.06	1886659	keystroke_i	i	n/a
943.5995	0.06	1887199	keystroke_g	g	n/a
943.7345	0.089	1887469	keystroke_g	g	n/a
944.2135	0.075	1888427	keystroke_e	e	n/a
944.5735	0.106	1889147	keystroke_s	s	n/a
944.9045	0.074	1889809	keystroke_t	t	n/a
945.3685	0.075	1890737	keystroke_Key.space	Key.space	n/a
945.6535	0.075	1891307	keystroke_m	m	n/a
945.9835	0.061	1891967	keystroke_u	u	n/a
946.1635	0.075	1892327	keystroke_s	s	n/a
946.6885	0.075	1893377	keystroke_l	l	n/a
946.8985	0.06	1893797	keystroke_i	i	n/a
947.2285	0.075	1894457	keystroke_n	n	n/a
948.1585	0.075	1896317	keystroke_Key.backspace	Key.backspace	n/a
948.6835	0.075	1897367	keystroke_m	m	n/a
953.4265	0.013	1906853	keystroke_Key.enter	Key.enter	n/a
953.4435	24.9305	1906887	prompt	n/a	computed gourmet genealogy immigration\n
954.5045	0.06	1909009	keystroke_c	c	n/a
954.7145	0.075	1909429	keystroke_o	o	n/a
954.939	0.09	1909878	keystroke_m	m	n/a
955.224	0.09	1910448	keystroke_p	p	n/a
956.049	0.045	1912098	keystroke_u	u	n/a
956.184	0.075	1912368	keystroke_t	t	n/a
956.409	0.075	1912818	keystroke_e	e	n/a
956.634	0.09	1913268	keystroke_d	d	n/a
957.384	0.015	1914768	keystroke_Key.space	Key.space	n/a
957.954	0.06	1915908	keystroke_g	g	n/a
958.119	0.075	1916238	keystroke_o	o	n/a
959.4245	0.075	1918849	keystroke_u	u	n/a
960.2795	0.06	1920559	keystroke_r	r	n/a
960.4745	0.06	1920949	keystroke_n	n	n/a
961.5385	0.045	1923077	keystroke_Key.backspace	Key.backspace	n/a
961.8545	0.0905	1923709	keystroke_m	m	n/a
962.079	0.09	1924158	keystroke_e	e	n/a
962.394	0.075	1924788	keystroke_t	t	n/a
963.669	0.0895	1927338	keystroke_Key.space	Key.space	n/a
964.4485	0.075	1928897	keystroke_g	g	n/a
964.6745	0.075	1929349	keystroke_e	e	n/a
964.8395	0.06	1929679	keystroke_n	n	n/a
964.9595	0.09	1929919	keystroke_e	e	n/a
965.1995	0.044	1930399	keystroke_r	r	n/a
965.6185	0.09	1931237	keystroke_a	a	n/a
965.8445	0.06	1931689	keystroke_l	l	n/a
966.9235	0.06	1933847	keystroke_Key.backspace	Key.backspace	n/a
967.8535	0.09	1935707	keystroke_Key.backspace	Key.backspace	n/a
968.6635	0.06	1937327	keystroke_Key.backspace	Key.backspace	n/a
969.2795	0.06	1938559	keystroke_a	a	n/a
969.5195	0.075	1939039	keystroke_l	l	n/a
970.1495	0.09	1940299	keystroke_o	o	n/a
970.4045	0.0595	1940809	keystroke_g	g	n/a
970.569	0.06	1941138	keystroke_y	y	n/a
971.319	0.09	1942638	keystroke_Key.space	Key.space	n/a
971.784	0.09	1943568	keystroke_i	i	n/a
972.129	0.06	1944258	keystroke_m	m	n/a
972.264	0.09	1944528	keystroke_m	m	n/a
972.804	0.06	1945608	keystroke_i	i	n/a
973.884	0.06	1947768	keystroke_g	g	n/a
974.094	0.06	1948188	keystroke_r	r	n/a
974.334	0.105	1948668	keystroke_a	a	n/a
974.619	0.06	1949238	keystroke_t	t	n/a
974.724	0.075	1949448	keystroke_i	i	n/a
974.904	0.09	1949808	keystroke_o	o	n/a
975.1895	0.075	1950379	keystroke_n	n	n/a
978.3715	0.001	1956743	keystroke_Key.enter	Key.enter	n/a
978.3765	13.209	1956753	prompt	n/a	runtime phpbb making post\n
979.689	0.06	1959378	keystroke_r	r	n/a
979.839	0.06	1959678	keystroke_u	u	n/a
980.139	0.06	1960278	keystroke_n	n	n/a
980.589	0.045	1961178	keystroke_t	t	n/a
980.694	0.06	1961388	keystroke_i	i	n/a
980.874	0.075	1961748	keystroke_m	m	n/a
981.0095	0.075	1962019	keystroke_e	e	n/a
981.6845	0.06	1963369	keystroke_Key.space	Key.space	n/a
981.9995	0.09	1963999	keystroke_p	p	n/a
982.2395	0.075	1964479	keystroke_h	h	n/a
983.154	0.105	1966308	keystroke_p	p	n/a
984.489	0.075	1968978	keystroke_b	b	n/a
984.669	0.075	1969338	keystroke_b	b	n/a
985.389	0.09	1970778	keystroke_Key.space	Key.space	n/a
985.614	0.09	1971228	keystroke_m	m	n/a
985.824	0.06	1971648	keystroke_a	a	n/a
985.914	0.105	1971828	keystroke_k	k	n/a
986.169	0.075	1972338	keystroke_i	i	n/a
986.379	0.09	1972758	keystroke_n	n	n/a
986.559	0.075	1973118	keystroke_g	g	n/a
987.0835	0.06	1974167	keystroke_Key.space	Key.space	n/a
987.5035	0.09	1975007	keystroke_p	p	n/a
987.6985	0.075	1975397	keystroke_o	o	n/a
987.8485	0.105	1975697	keystroke_s	s	n/a
988.1485	0.06	1976297	keystroke_t	t	n/a
991.5715	0.013	1983143	keystroke_Key.enter	Key.enter	n/a
991.5905	9.79	1983181	prompt	n/a	outer realtor aimed firewall\n
992.3795	0.105	1984759	keystroke_o	o	n/a
992.6795	0.06	1985359	keystroke_u	u	n/a
992.9795	0.075	1985959	keystroke_t	t	n/a
993.1895	0.1045	1986379	keystroke_e	e	n/a
993.384	0.09	1986768	keystroke_r	r	n/a
993.609	0.06	1987218	keystroke_Key.space	Key.space	n/a
994.104	0.09	1988208	keystroke_r	r	n/a
994.299	0.075	1988598	keystroke_e	e	n/a
994.539	0.075	1989078	keystroke_a	a	n/a
994.689	0.105	1989378	keystroke_l	l	n/a
995.424	0.06	1990848	keystroke_t	t	n/a
995.619	0.06	1991238	keystroke_o	o	n/a
995.994	0.075	1991988	keystroke_r	r	n/a
996.324	0.0905	1992648	keystroke_Key.space	Key.space	n/a
996.8645	0.075	1993729	keystroke_a	a	n/a
997.0295	0.075	1994059	keystroke_i	i	n/a
997.2545	0.075	1994509	keystroke_m	m	n/a
997.4195	0.089	1994839	keystroke_e	e	n/a
997.6595	0.06	1995319	keystroke_d	d	n/a
997.8235	0.061	1995647	keystroke_Key.space	Key.space	n/a
998.814	0.0595	1997628	keystroke_f	f	n/a
998.9485	0.061	1997897	keystroke_i	i	n/a
999.1735	0.075	1998347	keystroke_r	r	n/a
999.3985	0.075	1998797	keystroke_e	e	n/a
999.7285	0.045	1999457	keystroke_w	w	n/a
999.9685	0.105	1999937	keystroke_e	e	n/a
1000.179	0.06	2000358	keystroke_l	l	n/a
1000.779	0.105	2001558	keystroke_l	l	n/a
1001.304	0.075	2002608	keystroke_Key.enter	Key.enter	n/a
1001.384	12.2215	2002768	prompt	n/a	sporting roger what'd profit\n
1002.489	0.075	2004978	keystroke_s	s	n/a
1002.669	0.105	2005338	keystroke_p	p	n/a
1002.8945	0.105	2005789	keystroke_o	o	n/a
1003.2695	0.075	2006539	keystroke_r	r	n/a
1003.4945	0.045	2006989	keystroke_t	t	n/a
1003.6295	0.075	2007259	keystroke_i	i	n/a
1003.869	0.09	2007738	keystroke_n	n	n/a
1004.034	0.075	2008068	keystroke_g	g	n/a
1004.5585	0.09	2009117	keystroke_Key.space	Key.space	n/a
1005.0995	0.06	2010199	keystroke_r	r	n/a
1005.2495	0.09	2010499	keystroke_o	o	n/a
1005.5645	0.06	2011129	keystroke_g	g	n/a
1005.7895	0.09	2011579	keystroke_e	e	n/a
1006.0295	0.045	2012059	keystroke_r	r	n/a
1006.3595	0.06	2012719	keystroke_Key.space	Key.space	n/a
1007.0045	0.09	2014009	keystroke_w	w	n/a
1007.2595	0.06	2014519	keystroke_h	h	n/a
1007.3945	0.12	2014789	keystroke_a	a	n/a
1007.7095	0.06	2015419	keystroke_t	t	n/a
1008.2795	0.075	2016559	keystroke_'	'	n/a
1008.4895	0.075	2016979	keystroke_d	d	n/a
1009.0145	0.09	2018029	keystroke_Key.space	Key.space	n/a
1009.4345	0.06	2018869	keystroke_f	f	n/a
1010.3495	0.045	2020699	keystroke_Key.backspace	Key.backspace	n/a
1011.0395	0.075	2022079	keystroke_p	p	n/a
1011.1285	0.046	2022257	keystroke_r	r	n/a
1011.9235	0.075	2023847	keystroke_o	o	n/a
1012.1485	0.061	2024297	keystroke_f	f	n/a
1012.2835	0.075	2024567	keystroke_i	i	n/a
1012.584	0.0745	2025168	keystroke_t	t	n/a
1013.5285	0.075	2027057	keystroke_Key.enter	Key.enter	n/a
1013.609	16.4365	2027218	prompt	n/a	diversity simon comics immediate\n
1014.879	0.075	2029758	keystroke_d	d	n/a
1015.059	0.06	2030118	keystroke_i	i	n/a
1015.374	0.09	2030748	keystroke_v	v	n/a
1016.124	0.09	2032248	keystroke_e	e	n/a
1016.454	0.06	2032908	keystroke_r	r	n/a
1016.844	0.06	2033688	keystroke_s	s	n/a
1017.144	0.06	2034288	keystroke_i	i	n/a
1017.954	0.06	2035908	keystroke_t	t	n/a
1018.089	0.075	2036178	keystroke_y	y	n/a
1018.884	0.09	2037768	keystroke_Key.space	Key.space	n/a
1019.709	0.075	2039418	keystroke_s	s	n/a
1019.829	0.1045	2039658	keystroke_i	i	n/a
1020.039	0.1045	2040078	keystroke_m	m	n/a
1020.2935	0.091	2040587	keystroke_o	o	n/a
1020.5645	0.074	2041129	keystroke_n	n	n/a
1020.9535	0.075	2041907	keystroke_Key.space	Key.space	n/a
1022.649	0.03	2045298	keystroke_c	c	n/a
1022.724	0.105	2045448	keystroke_o	o	n/a
1022.934	0.09	2045868	keystroke_m	m	n/a
1023.174	0.045	2046348	keystroke_i	i	n/a
1023.369	0.06	2046738	keystroke_c	c	n/a
1023.789	0.075	2047578	keystroke_s	s	n/a
1024.269	0.06	2048538	keystroke_Key.space	Key.space	n/a
1025.3935	0.015	2050787	keystroke_i	i	n/a
1025.5285	0.075	2051057	keystroke_m	m	n/a
1025.6635	0.075	2051327	keystroke_m	m	n/a
1026.069	0.015	2052138	keystroke_e	e	n/a
1026.819	0.045	2053638	keystroke_d	d	n/a
1027.269	0.045	2054538	keystroke_i	i	n/a
1027.929	0.09	2055858	keystroke_a	a	n/a
1028.319	0.045	2056638	keystroke_t	t	n/a
1028.604	0.09	2057208	keystroke_e	e	n/a
1029.969	0.075	2059938	keystroke_Key.enter	Key.enter	n/a
1030.0495	16.511	2060099	prompt	n/a	darwin external integral wedding\n
1031.124	0.15	2062248	keystroke_d	d	n/a
1031.634	0.075	2063268	keystroke_a	a	n/a
1032.2635	0.045	2064527	keystroke_r	r	n/a
1032.894	0.075	2065788	keystroke_w	w	n/a
1033.6435	0.09	2067287	keystroke_i	i	n/a
1033.8985	0.09	2067797	keystroke_n	n	n/a
1034.214	0.075	2068428	keystroke_Key.space	Key.space	n/a
1035.818	0.06	2071636	keystroke_e	e	n/a
1036.104	0.104	2072208	keystroke_x	x	n/a
1037.4385	0.075	2074877	keystroke_t	t	n/a
1037.7685	0.09	2075537	keystroke_e	e	n/a
1038.5785	0.075	2077157	keystroke_r	r	n/a
1039.1935	0.06	2078387	keystroke_n	n	n/a
1039.4035	0.075	2078807	keystroke_a	a	n/a
1039.5085	0.105	2079017	keystroke_l	l	n/a
1039.7635	0.09	2079527	keystroke_Key.space	Key.space	n/a
1040.4235	0.075	2080847	keystroke_i	i	n/a
1040.6485	0.075	2081297	keystroke_n	n	n/a
1040.9635	0.09	2081927	keystroke_t	t	n/a
1041.609	0.12	2083218	keystroke_e	e	n/a
1042.6145	0.075	2085229	keystroke_g	g	n/a
1043.2895	0.074	2086579	keystroke_r	r	n/a
1043.6035	0.031	2087207	keystroke_a	a	n/a
1043.7685	0.09	2087537	keystroke_l	l	n/a
1044.0235	0.105	2088047	keystroke_Key.space	Key.space	n/a
1044.549	0.09	2089098	keystroke_w	w	n/a
1044.924	0.06	2089848	keystroke_e	e	n/a
1045.194	0.105	2090388	keystroke_d	d	n/a
1045.344	0.09	2090688	keystroke_d	d	n/a
1045.479	0.075	2090958	keystroke_i	i	n/a
1045.674	0.075	2091348	keystroke_n	n	n/a
1045.809	0.075	2091618	keystroke_g	g	n/a
1046.4835	0.075	2092967	keystroke_Key.enter	Key.enter	n/a
1046.5635	13.557	2093127	prompt	n/a	hint lane classics bookmarks\n
1047.4145	0.09	2094829	keystroke_h	h	n/a
1047.5945	0.105	2095189	keystroke_i	i	n/a
1047.8045	0.075	2095609	keystroke_n	n	n/a
1048.0445	0.075	2096089	keystroke_t	t	n/a
1048.5395	0.074	2097079	keystroke_Key.space	Key.space	n/a
1048.7945	0.09	2097589	keystroke_l	l	n/a
1049.0045	0.075	2098009	keystroke_a	a	n/a
1049.184	0.045	2098368	keystroke_n	n	n/a
1049.544	0.06	2099088	keystroke_e	e	n/a
1049.934	0.135	2099868	keystroke_Key.space	Key.space	n/a
1051.209	0.135	2102418	keystroke_c	c	n/a
1051.359	0.015	2102718	keystroke_l	l	n/a
1051.464	0.075	2102928	keystroke_a	a	n/a
1051.719	0.075	2103438	keystroke_s	s	n/a
1051.884	0.09	2103768	keystroke_s	s	n/a
1052.094	0.045	2104188	keystroke_i	i	n/a
1052.4995	0.06	2104999	keystroke_c	c	n/a
1053.8045	0.06	2107609	keystroke_s	s	n/a
1054.3135	0.09	2108627	keystroke_Key.space	Key.space	n/a
1055.0635	0.0905	2110127	keystroke_b	b	n/a
1055.259	0.06	2110518	keystroke_o	o	n/a
1055.394	0.09	2110788	keystroke_o	o	n/a
1055.604	0.075	2111208	keystroke_k	k	n/a
