onset	duration	sample	value	key	prompt_text
2.146	25.963	4292	prompt	n/a	the quick brown fox jumps over a lazy dog\n
8.8875	0.0425	17775	keystroke_t	t	n/a
8.9645	0.1165	17929	keystroke_h	h	n/a
9.1135	0.134	18227	keystroke_e	e	n/a
9.3975	0.149	18795	keystroke_Key.space	Key.space	n/a
9.8635	0.1345	19727	keystroke_q	q	n/a
10.1645	0.05	20329	keystroke_u	u	n/a
10.8105	0.075	21621	keystroke_i	i	n/a
11.71	0.1355	23420	keystroke_c	c	n/a
11.8595	0.15	23719	keystroke_k	k	n/a
12.085	0.15	24170	keystroke_Key.space	Key.space	n/a
13.3755	0.149	26751	keystroke_b	b	n/a
13.81	0.1195	27620	keystroke_r	r	n/a
13.9155	0.105	27831	keystroke_o	o	n/a
14.0655	0.1195	28131	keystroke_w	w	n/a
14.215	0.09	28430	keystroke_n	n	n/a
14.38	0.1345	28760	keystroke_Key.space	Key.space	n/a
14.5755	0.1345	29151	keystroke_f	f	n/a
14.696	0.12	29392	keystroke_o	o	n/a
15.1295	0.1205	30259	keystroke_x	x	n/a
15.49	0.1205	30980	keystroke_Key.space	Key.space	n/a
15.7905	0.1045	31581	keystroke_j	j	n/a
15.97	0.1055	31940	keystroke_u	u	n/a
16.1955	0.105	32391	keystroke_m	m	n/a
16.435	0.09	32870	keystroke_p	p	n/a
17.44	0.1355	34880	keystroke_s	s	n/a
17.7105	0.1645	35421	keystroke_Key.space	Key.space	n/a
18.415	0.1355	36830	keystroke_i	i	n/a
18.7755	0.1345	37551	keystroke_v	v	n/a
18.97	0.2255	37940	keystroke_e	e	n/a
19.1505	0.15	38301	keystroke_r	r	n/a
19.3155	0.1195	38631	keystroke_Key.space	Key.space	n/a
19.5105	0.12	39021	keystroke_a	a	n/a
19.6005	0.12	39201	keystroke_Key.space	Key.space	n/a
19.7505	0.1045	39501	keystroke_k	k	n/a
19.945	0.1355	39890	keystroke_a	a	n/a
20.4405	0.135	40881	keystroke_t	t	n/a
21.3255	0.15	42651	keystroke_Key.space	Key.space	n/a
23.4405	0.135	46881	keystroke_Key.backspace	Key.backspace	n/a
23.741	0.12	47482	keystroke_Key.backspace	Key.backspace	n/a
24.0555	0.135	48111	keystroke_Key.backspace	Key.backspace	n/a
24.3855	0.12	48771	keystroke_Key.backspace	Key.backspace	n/a
25.9755	0.09	51951	keystroke_d	d	n/a
26.2005	0.0915	52401	keystroke_o	o	n/a
26.5305	0.105	53061	keystroke_g	g	n/a
27.9555	0.15	55911	keystroke_Key.enter	Key.enter	n/a
28.114	18.2975	56228	prompt	n/a	hampshire bryant worth apartment\n
30.5845	0.057	61169	keystroke_h	h	n/a
30.7765	0.105	61553	keystroke_a	a	n/a
31.0315	0.09	62063	keystroke_m	m	n/a
31.5115	0.12	63023	keystroke_p	p	n/a
32.0665	0.18	64133	keystroke_s	s	n/a
32.2315	0.12	64463	keystroke_h	h	n/a
32.4265	0.105	64853	keystroke_i	i	n/a
32.6515	0.195	65303	keystroke_r	r	n/a
32.8165	0.165	65633	keystroke_e	e	n/a
32.9965	0.105	65993	keystroke_Key.space	Key.space	n/a
33.2815	0.1355	66563	keystroke_b	b	n/a
33.7015	0.105	67403	keystroke_r	r	n/a
33.852	0.135	67704	keystroke_y	y	n/a
34.512	0.1645	69024	keystroke_a	a	n/a
34.737	0.12	69474	keystroke_n	n	n/a
35.052	0.135	70104	keystroke_t	t	n/a
36.387	0.12	72774	keystroke_Key.space	Key.space	n/a
36.6275	0.1195	73255	keystroke_w	w	n/a
36.762	0.12	73524	keystroke_o	o	n/a
36.9275	0.105	73855	keystroke_r	r	n/a
37.197	0.105	74394	keystroke_t	t	n/a
37.317	0.1805	74634	keystroke_h	h	n/a
37.4525	0.15	74905	keystroke_Key.space	Key.space	n/a
37.8425	0.135	75685	keystroke_a	a	n/a
38.0525	0.09	76105	keystroke_p	p	n/a
38.2325	0.18	76465	keystroke_a	a	n/a
38.4275	0.06	76855	keystroke_a	a	n/a
38.4725	0.105	76945	keystroke_r	r	n/a
38.7125	0.105	77425	keystroke_t	t	n/a
38.9375	0.105	77875	keystroke_m	m	n/a
39.1325	0.18	78265	keystroke_e	e	n/a
39.2825	0.12	78565	keystroke_n	n	n/a
39.508	0.105	79016	keystroke_t	t	n/a
41.821	0.042	83642	keystroke_Key.backspace	Key.backspace	n/a
41.998	0.1355	83996	keystroke_Key.backspace	Key.backspace	n/a
42.298	0.1355	84596	keystroke_Key.backspace	Key.backspace	n/a
42.5535	0.15	85107	keystroke_Key.backspace	Key.backspace	n/a
42.8685	0.135	85737	keystroke_Key.backspace	Key.backspace	n/a
43.1385	0.195	86277	keystroke_Key.backspace	Key.backspace	n/a
43.7085	0.09	87417	keystroke_Key.backspace	Key.backspace	n/a
44.564	0.105	89128	keystroke_r	r	n/a
44.849	0.105	89698	keystroke_t	t	n/a
45.149	0.1205	90298	keystroke_m	m	n/a
45.3145	0.1645	90629	keystroke_e	e	n/a
45.494	0.06	90988	keystroke_n	n	n/a
45.6745	0.105	91349	keystroke_t	t	n/a
46.2895	0.12	92579	keystroke_Key.enter	Key.enter	n/a
46.4175	10.272	92835	prompt	n/a	standards tapes province appliance\n
47.4595	0.12	94919	keystroke_s	s	n/a
47.745	0.12	95490	keystroke_t	t	n/a
47.955	0.15	95910	keystroke_a	a	n/a
48.12	0.045	96240	keystroke_n	n	n/a
48.795	0.12	97590	keystroke_d	d	n/a
49.11	0.15	98220	keystroke_a	a	n/a
49.3955	0.1045	98791	keystroke_r	r	n/a
49.605	0.1355	99210	keystroke_d	d	n/a
49.8305	0.105	99661	keystroke_s	s	n/a
50.0255	0.135	100051	keystroke_Key.space	Key.space	n/a
50.4155	0.12	100831	keystroke_t	t	n/a
50.6555	0.165	101311	keystroke_a	a	n/a
50.9105	0.105	101821	keystroke_p	p	n/a
51.0605	0.105	102121	keystroke_e	e	n/a
51.2705	0.15	102541	keystroke_s	s	n/a
51.4055	0.105	102811	keystroke_Key.space	Key.space	n/a
51.6305	0.105	103261	keystroke_p	p	n/a
51.7805	0.135	103561	keystroke_r	r	n/a
51.9305	0.105	103861	keystroke_o	o	n/a
52.1555	0.105	104311	keystroke_v	v	n/a
52.2455	0.09	104491	keystroke_i	i	n/a
52.5015	0.059	105003	keystroke_n	n	n/a
52.6965	0.105	105393	keystroke_c	c	n/a
52.9355	0.12	105871	keystroke_e	e	n/a
53.1305	0.12	106261	keystroke_Key.space	Key.space	n/a
53.3855	0.15	106771	keystroke_a	a	n/a
53.6255	0.015	107251	keystroke_p	p	n/a
53.7755	0.075	107551	keystroke_p	p	n/a
54.0305	0.105	108061	keystroke_l	l	n/a
54.2105	0.06	108421	keystroke_i	i	n/a
54.931	0.0905	109862	keystroke_a	a	n/a
55.1265	0.105	110253	keystroke_n	n	n/a
55.3215	0.12	110643	keystroke_c	c	n/a
55.5765	0.105	111153	keystroke_e	e	n/a
56.6265	0.06	113253	keystroke_Key.enter	Key.enter	n/a
56.6955	12.911	113391	prompt	n/a	utility encryption reprint lenders\n
58.052	0.09	116104	keystroke_u	u	n/a
58.323	0.12	116646	keystroke_t	t	n/a
58.457	0.09	116914	keystroke_i	i	n/a
58.652	0.121	117304	keystroke_l	l	n/a
58.817	0.12	117634	keystroke_i	i	n/a
59.103	0.104	118206	keystroke_t	t	n/a
59.222	0.09	118444	keystroke_y	y	n/a
59.3875	0.12	118775	keystroke_Key.space	Key.space	n/a
59.8075	0.091	119615	keystroke_e	e	n/a
60.0325	0.09	120065	keystroke_n	n	n/a
60.2735	0.135	120547	keystroke_c	c	n/a
60.5575	0.12	121115	keystroke_r	r	n/a
60.6925	0.075	121385	keystroke_y	y	n/a
60.9035	0.089	121807	keystroke_p	p	n/a
61.2625	0.106	122525	keystroke_t	t	n/a
61.4125	0.12	122825	keystroke_i	i	n/a
61.6525	0.075	123305	keystroke_o	o	n/a
61.8625	0.075	123725	keystroke_n	n	n/a
62.0125	0.1205	124025	keystroke_Key.space	Key.space	n/a
62.6575	0.046	125315	keystroke_e	e	n/a
63.7675	0.12	127535	keystroke_Key.backspace	Key.backspace	n/a
64.2485	0.12	128497	keystroke_r	r	n/a
64.4285	0.1205	128857	keystroke_e	e	n/a
64.698	0.1055	129396	keystroke_p	p	n/a
64.879	0.12	129758	keystroke_r	r	n/a
64.954	0.09	129908	keystroke_i	i	n/a
65.163	0.1055	130326	keystroke_n	n	n/a
65.3735	0.1205	130747	keystroke_t	t	n/a
65.523	0.105	131046	keystroke_Key.space	Key.space	n/a
65.7485	0.15	131497	keystroke_l	l	n/a
65.929	0.104	131858	keystroke_e	e	n/a
66.079	0.074	132158	keystroke_n	n	n/a
66.228	0.121	132456	keystroke_d	d	n/a
66.468	0.21	132936	keystroke_e	e	n/a
66.618	0.135	133236	keystroke_r	r	n/a
66.874	0.12	133748	keystroke_s	s	n/a
67.189	0.119	134378	keystroke_'	'	n/a
68.643	0.105	137286	keystroke_Key.backspace	Key.backspace	n/a
69.469	0.135	138938	keystroke_Key.enter	Key.enter	n/a
69.6115	12.34	139223	prompt	n/a	wicked constantly realtor crossword\n
70.6995	0.0885	141399	keystroke_w	w	n/a
70.908	0.1215	141816	keystroke_i	i	n/a
71.1795	0.1195	142359	keystroke_c	c	n/a
71.313	0.1365	142626	keystroke_k	k	n/a
71.5085	0.135	143017	keystroke_e	e	n/a
71.929	0.12	143858	keystroke_d	d	n/a
72.1235	0.105	144247	keystroke_Key.space	Key.space	n/a
72.5585	0.136	145117	keystroke_c	c	n/a
72.6495	0.12	145299	keystroke_o	o	n/a
72.888	0.075	145776	keystroke_n	n	n/a
73.0545	0.12	146109	keystroke_s	s	n/a
73.354	0.09	146708	keystroke_t	t	n/a
73.5795	0.12	147159	keystroke_a	a	n/a
73.7145	0.074	147429	keystroke_n	n	n/a
73.9685	0.121	147937	keystroke_t	t	n/a
74.3745	0.15	148749	keystroke_l	l	n/a
74.7635	0.061	149527	keystroke_y	y	n/a
74.9285	0.135	149857	keystroke_Key.space	Key.space	n/a
75.2445	0.164	150489	keystroke_r	r	n/a
75.4235	0.1655	150847	keystroke_e	e	n/a
75.679	0.12	151358	keystroke_a	a	n/a
75.829	0.12	151658	keystroke_l	l	n/a
76.114	0.12	152228	keystroke_t	t	n/a
76.249	0.12	152498	keystroke_o	o	n/a
76.414	0.12	152828	keystroke_r	r	n/a
76.519	0.09	153038	keystroke_Key.space	Key.space	n/a
76.819	0.165	153638	keystroke_c	c	n/a
77.149	0.12	154298	keystroke_r	r	n/a
77.239	0.105	154478	keystroke_o	o	n/a
77.494	0.045	154988	keystroke_w	w	n/a
77.629	0.09	155258	keystroke_w	w	n/a
79.084	0.1355	158168	keystroke_Key.backspace	Key.backspace	n/a
79.4895	0.105	158979	keystroke_Key.backspace	Key.backspace	n/a
79.8645	0.06	159729	keystroke_s	s	n/a
80.0295	0.075	160059	keystroke_s	s	n/a
80.2695	0.105	160539	keystroke_w	w	n/a
80.4045	0.0745	160809	keystroke_o	o	n/a
80.5695	0.105	161139	keystroke_r	r	n/a
80.8245	0.105	161649	keystroke_d	d	n/a
81.8295	0.12	163659	keystroke_Key.enter	Key.enter	n/a
81.956	9.208	163912	prompt	n/a	ricky scope yield terrorists\n
82.999	0.1505	165998	keystroke_r	r	n/a
83.1945	0.09	166389	keystroke_i	i	n/a
83.4795	0.135	166959	keystroke_c	c	n/a
83.5995	0.105	167199	keystroke_k	k	n/a
84.0045	0.105	168009	keystroke_y	y	n/a
84.2445	0.09	168489	keystroke_Key.space	Key.space	n/a
84.4695	0.105	168939	keystroke_s	s	n/a
84.8595	0.15	169719	keystroke_c	c	n/a
85.535	0.15	171070	keystroke_o	o	n/a
85.805	0.09	171610	keystroke_p	p	n/a
85.9845	0.1505	171969	keystroke_e	e	n/a
86.15	0.12	172300	keystroke_Key.space	Key.space	n/a
86.48	0.105	172960	keystroke_y	y	n/a
86.735	0.12	173470	keystroke_i	i	n/a
87.005	0.09	174010	keystroke_e	e	n/a
87.125	0.15	174250	keystroke_l	l	n/a
87.32	0.135	174640	keystroke_d	d	n/a
87.485	0.105	174970	keystroke_Key.space	Key.space	n/a
87.83	0.12	175660	keystroke_t	t	n/a
88.055	0.135	176110	keystroke_e	e	n/a
88.385	0.075	176770	keystroke_r	r	n/a
88.535	0.105	177070	keystroke_r	r	n/a
88.67	0.09	177340	keystroke_o	o	n/a
88.865	0.135	177730	keystroke_r	r	n/a
88.97	0.09	177940	keystroke_i	i	n/a
89.15	0.165	178300	keystroke_s	s	n/a
89.465	0.12	178930	keystroke_t	t	n/a
89.705	0.135	179410	keystroke_s	s	n/a
91.025	0.135	182050	keystroke_Key.enter	Key.enter	n/a
91.17	13.073	182340	prompt	n/a	young turning treatment effects\n
93.653	0.087	187306	keystroke_y	y	n/a
93.995	0.105	187990	keystroke_u	u	n/a
95.105	0.12	190210	keystroke_Key.backspace	Key.backspace	n/a
95.916	0.135	191832	keystroke_o	o	n/a
96.14	0.075	192280	keystroke_u	u	n/a
96.381	0.075	192762	keystroke_n	n	n/a
96.771	0.105	193542	keystroke_g	g	n/a
96.995	0.15	193990	keystroke_Key.space	Key.space	n/a
97.835	0.121	195670	keystroke_t	t	n/a
98.016	0.105	196032	keystroke_u	u	n/a
98.18	0.1045	196360	keystroke_r	r	n/a
98.4055	0.059	196811	keystroke_n	n	n/a
98.601	0.075	197202	keystroke_i	i	n/a
98.8095	0.075	197619	keystroke_n	n	n/a
98.9595	0.1365	197919	keystroke_g	g	n/a
99.11	0.09	198220	keystroke_Key.space	Key.space	n/a
99.3655	0.105	198731	keystroke_t	t	n/a
99.6505	0.135	199301	keystroke_r	r	n/a
99.8595	0.151	199719	keystroke_e	e	n/a
100.1005	0.135	200201	keystroke_a	a	n/a
100.4145	0.106	200829	keystroke_t	t	n/a
100.6105	0.105	201221	keystroke_m	m	n/a
100.806	0.12	201612	keystroke_e	e	n/a
100.8955	0.1195	201791	keystroke_n	n	n/a
101.135	0.106	202270	keystroke_t	t	n/a
101.345	0.1345	202690	keystroke_Key.space	Key.space	n/a
101.6905	0.1195	203381	keystroke_e	e	n/a
101.9455	0.09	203891	keystroke_f	f	n/a
102.0805	0.12	204161	keystroke_f	f	n/a
102.246	0.119	204492	keystroke_e	e	n/a
102.86	0.1805	205720	keystroke_c	c	n/a
103.22	0.12	206440	keystroke_t	t	n/a
103.476	0.119	206952	keystroke_s	s	n/a
104.0755	0.165	208151	keystroke_Key.enter	Key.enter	n/a
104.252	7.58	208504	prompt	n/a	progress louise waste buttons\n
105.2755	0.105	210551	keystroke_p	p	n/a
105.4555	0.105	210911	keystroke_r	r	n/a
105.5305	0.135	211061	keystroke_o	o	n/a
105.8455	0.1045	211691	keystroke_g	g	n/a
106.0705	0.105	212141	keystroke_r	r	n/a
106.2205	0.15	212441	keystroke_e	e	n/a
106.52	0.09	213040	keystroke_s	s	n/a
106.6705	0.105	213341	keystroke_s	s	n/a
106.8505	0.135	213701	keystroke_Key.space	Key.space	n/a
107.1055	0.105	214211	keystroke_l	l	n/a
107.3905	0.15	214781	keystroke_o	o	n/a
107.6455	0.09	215291	keystroke_u	u	n/a
107.8255	0.075	215651	keystroke_i	i	n/a
108.0205	0.12	216041	keystroke_s	s	n/a
108.2155	0.165	216431	keystroke_e	e	n/a
108.3955	0.09	216791	keystroke_Key.space	Key.space	n/a
108.5755	0.12	217151	keystroke_w	w	n/a
108.8455	0.21	217691	keystroke_a	a	n/a
109.0105	0.195	218021	keystroke_s	s	n/a
109.3405	0.12	218681	keystroke_t	t	n/a
109.5205	0.165	219041	keystroke_e	e	n/a
109.7305	0.105	219461	keystroke_Key.space	Key.space	n/a
110.1205	0.135	220241	keystroke_b	b	n/a
110.2405	0.076	220481	keystroke_u	u	n/a
110.51	0.0755	221020	keystroke_t	t	n/a
110.6455	0.12	221291	keystroke_t	t	n/a
110.8105	0.105	221621	keystroke_o	o	n/a
111.035	0.09	222070	keystroke_n	n	n/a
111.245	0.1355	222490	keystroke_s	s	n/a
111.695	0.135	223390	keystroke_Key.enter	Key.enter	n/a
111.839	10.538	223678	prompt	n/a	contributing clear poem sperm\n
112.925	0.1655	225850	keystroke_c	c	n/a
113.0455	0.089	226091	keystroke_o	o	n/a
113.2555	0.09	226511	keystroke_n	n	n/a
113.5405	0.09	227081	keystroke_t	t	n/a
113.7055	0.12	227411	keystroke_r	r	n/a
113.8405	0.09	227681	keystroke_i	i	n/a
114.095	0.1205	228190	keystroke_b	b	n/a
114.2605	0.09	228521	keystroke_u	u	n/a
114.6355	0.12	229271	keystroke_t	t	n/a
114.7705	0.075	229541	keystroke_i	i	n/a
114.9805	0.075	229961	keystroke_n	n	n/a
115.1605	0.105	230321	keystroke_g	g	n/a
115.2945	0.106	230589	keystroke_Key.space	Key.space	n/a
115.5505	0.165	231101	keystroke_c	c	n/a
115.8955	0.165	231791	keystroke_e	e	n/a
116.1055	0.225	232211	keystroke_a	a	n/a
117.2155	0.12	234431	keystroke_Key.backspace	Key.backspace	n/a
117.5755	0.104	235151	keystroke_Key.backspace	Key.backspace	n/a
117.9655	0.1495	235931	keystroke_l	l	n/a
118.7295	0.136	237459	keystroke_e	e	n/a
118.9545	0.15	237909	keystroke_a	a	n/a
119.2845	0.1065	238569	keystroke_r	r	n/a
119.435	0.135	238870	keystroke_Key.space	Key.space	n/a
119.6595	0.09	239319	keystroke_p	p	n/a
119.8695	0.165	239739	keystroke_o	o	n/a
120.2445	0.135	240489	keystroke_e	e	n/a
120.6045	0.15	241209	keystroke_m	m	n/a
120.875	0.104	241750	keystroke_Key.space	Key.space	n/a
121.1	0.18	242200	keystroke_s	s	n/a
121.265	0.105	242530	keystroke_p	p	n/a
121.475	0.225	242950	keystroke_e	e	n/a
121.625	0.165	243250	keystroke_r	r	n/a
121.82	0.18	243640	keystroke_m	m	n/a
122.24	0.135	244480	keystroke_Key.enter	Key.enter	n/a
122.3865	9.17	244773	prompt	n/a	revised trinidad strengths mali\n
123.7705	0.104	247541	keystroke_r	r	n/a
123.9045	0.135	247809	keystroke_e	e	n/a
124.1895	0.105	248379	keystroke_v	v	n/a
124.3095	0.075	248619	keystroke_i	i	n/a
124.4445	0.15	248889	keystroke_s	s	n/a
124.6845	0.1045	249369	keystroke_e	e	n/a
124.895	0.164	249790	keystroke_d	d	n/a
125.074	0.09	250148	keystroke_Key.space	Key.space	n/a
125.329	0.09	250658	keystroke_t	t	n/a
125.509	0.136	251018	keystroke_r	r	n/a
125.584	0.091	251168	keystroke_i	i	n/a
125.825	0.0895	251650	keystroke_n	n	n/a
126.0205	0.075	252041	keystroke_i	i	n/a
126.289	0.1665	252578	keystroke_d	d	n/a
126.4845	0.15	252969	keystroke_a	a	n/a
126.7845	0.1655	253569	keystroke_d	d	n/a
126.9505	0.1195	253901	keystroke_Key.space	Key.space	n/a
127.205	0.15	254410	keystroke_s	s	n/a
127.52	0.135	255040	keystroke_t	t	n/a
127.79	0.135	255580	keystroke_r	r	n/a
127.94	0.165	255880	keystroke_e	e	n/a
128.135	0.12	256270	keystroke_n	n	n/a
128.42	0.105	256840	keystroke_g	g	n/a
129.2595	0.1195	258519	keystroke_t	t	n/a
129.44	0.105	258880	keystroke_h	h	n/a
129.68	0.104	259360	keystroke_s	s	n/a
129.889	0.09	259778	keystroke_Key.space	Key.space	n/a
130.13	0.104	260260	keystroke_m	m	n/a
130.49	0.12	260980	keystroke_a	a	n/a
130.775	0.1655	261550	keystroke_l	l	n/a
131.0005	0.104	262001	keystroke_i	i	n/a
131.434	0.12	262868	keystroke_Key.enter	Key.enter	n/a
131.564	8.754	263128	prompt	n/a	uganda surgeon formal montana\n
132.815	0.0895	265630	keystroke_u	u	n/a
133.0395	0.12	266079	keystroke_g	g	n/a
133.2495	0.121	266499	keystroke_a	a	n/a
133.3845	0.091	266769	keystroke_n	n	n/a
133.5655	0.135	267131	keystroke_d	d	n/a
133.7905	0.1495	267581	keystroke_a	a	n/a
133.955	0.105	267910	keystroke_Key.space	Key.space	n/a
134.21	0.15	268420	keystroke_s	s	n/a
134.375	0.09	268750	keystroke_u	u	n/a
134.615	0.135	269230	keystroke_r	r	n/a
135.11	0.12	270220	keystroke_g	g	n/a
135.74	0.15	271480	keystroke_e	e	n/a
136.25	0.135	272500	keystroke_o	o	n/a
136.82	0.12	273640	keystroke_n	n	n/a
137.03	0.12	274060	keystroke_Key.space	Key.space	n/a
137.255	0.135	274510	keystroke_f	f	n/a
137.36	0.105	274720	keystroke_o	o	n/a
137.54	0.165	275080	keystroke_r	r	n/a
137.69	0.1055	275380	keystroke_m	m	n/a
137.9305	0.135	275861	keystroke_a	a	n/a
138.0355	0.09	276071	keystroke_l	l	n/a
138.2305	0.105	276461	keystroke_Key.space	Key.space	n/a
138.6655	0.135	277331	keystroke_m	m	n/a
138.8755	0.12	277751	keystroke_o	o	n/a
139.1005	0.09	278201	keystroke_n	n	n/a
139.3255	0.105	278651	keystroke_t	t	n/a
139.5355	0.12	279071	keystroke_a	a	n/a
139.6105	0.105	279221	keystroke_n	n	n/a
139.8205	0.15	279641	keystroke_a	a	n/a
140.1655	0.15	280331	keystroke_Key.enter	Key.enter	n/a
140.324	12.354	280648	prompt	n/a	jail violation shortcuts dicke\n
141.2005	0.12	282401	keystroke_j	j	n/a
141.3805	0.12	282761	keystroke_a	a	n/a
141.4855	0.09	282971	keystroke_i	i	n/a
141.6805	0.166	283361	keystroke_l	l	n/a
141.8605	0.09	283721	keystroke_Key.space	Key.space	n/a
142.1005	0.135	284201	keystroke_v	v	n/a
142.2505	0.075	284501	keystroke_i	i	n/a
142.4905	0.135	284981	keystroke_o	o	n/a
142.7605	0.105	285521	keystroke_l	l	n/a
142.9705	0.15	285941	keystroke_a	a	n/a
143.3155	0.12	286631	keystroke_t	t	n/a
143.4805	0.09	286961	keystroke_i	i	n/a
143.6755	0.135	287351	keystroke_o	o	n/a
144.1255	0.09	288251	keystroke_Key.space	Key.space	n/a
145.0705	0.045	290141	keystroke_Key.backspace	Key.backspace	n/a
146.2405	0.165	292481	keystroke_n	n	n/a
146.6755	0.135	293351	keystroke_Key.space	Key.space	n/a
146.9605	0.12	293921	keystroke_s	s	n/a
147.2905	0.09	294581	keystroke_o	o	n/a
148.4305	0.09	296861	keystroke_Key.backspace	Key.backspace	n/a
148.7455	0.09	297491	keystroke_h	h	n/a
148.8955	0.105	297791	keystroke_o	o	n/a
149.0905	0.105	298181	keystroke_r	r	n/a
149.3305	0.09	298661	keystroke_t	t	n/a
149.6455	0.12	299291	keystroke_c	c	n/a
149.7955	0.09	299591	keystroke_u	u	n/a
150.0355	0.105	300071	keystroke_t	t	n/a
150.2755	0.105	300551	keystroke_s	s	n/a
150.4405	0.105	300881	keystroke_Key.space	Key.space	n/a
150.7255	0.135	301451	keystroke_d	d	n/a
150.9205	0.12	301841	keystroke_i	i	n/a
151.7455	0.105	303491	keystroke_c	c	n/a
151.8805	0.12	303761	keystroke_k	k	n/a
152.1355	0.12	304271	keystroke_e	e	n/a
152.5555	0.12	305111	keystroke_Key.enter	Key.enter	n/a
152.6845	7.194	305369	prompt	n/a	stolen scott vintage degree\n
153.696	0.135	307392	keystroke_s	s	n/a
153.9665	0.1185	307933	keystroke_t	t	n/a
154.071	0.089	308142	keystroke_o	o	n/a
154.296	0.105	308592	keystroke_l	l	n/a
154.475	0.135	308950	keystroke_e	e	n/a
154.626	0.09	309252	keystroke_n	n	n/a
154.821	0.105	309642	keystroke_Key.space	Key.space	n/a
155.046	0.12	310092	keystroke_s	s	n/a
155.466	0.15	310932	keystroke_c	c	n/a
155.6605	0.106	311321	keystroke_o	o	n/a
155.9465	0.059	311893	keystroke_t	t	n/a
156.0665	0.105	312133	keystroke_t	t	n/a
156.2765	0.119	312553	keystroke_Key.space	Key.space	n/a
156.7415	0.164	313483	keystroke_v	v	n/a
156.8605	0.091	313721	keystroke_i	i	n/a
157.1015	0.074	314203	keystroke_n	n	n/a
157.4005	0.106	314801	keystroke_t	t	n/a
157.6715	0.12	315343	keystroke_a	a	n/a
157.9115	0.12	315823	keystroke_g	g	n/a
158.0465	0.15	316093	keystroke_e	e	n/a
158.2415	0.089	316483	keystroke_Key.space	Key.space	n/a
158.4065	0.119	316813	keystroke_d	d	n/a
158.6465	0.12	317293	keystroke_e	e	n/a
158.9305	0.091	317861	keystroke_g	g	n/a
159.1115	0.105	318223	keystroke_r	r	n/a
159.3965	0.059	318793	keystroke_e	e	n/a
159.5315	0.105	319063	keystroke_e	e	n/a
159.7715	0.104	319543	keystroke_Key.enter	Key.enter	n/a
159.883	8.336	319766	prompt	n/a	credits spending penalty glenn\n
161.136	0.165	322272	keystroke_c	c	n/a
161.511	0.165	323022	keystroke_r	r	n/a
161.661	0.15	323322	keystroke_e	e	n/a
162.3055	0.15	324611	keystroke_d	d	n/a
162.4705	0.06	324941	keystroke_i	i	n/a
162.6805	0.09	325361	keystroke_t	t	n/a
162.8905	0.12	325781	keystroke_s	s	n/a
163.0405	0.1055	326081	keystroke_Key.space	Key.space	n/a
163.4605	0.165	326921	keystroke_s	s	n/a
163.6555	0.105	327311	keystroke_p	p	n/a
163.8355	0.12	327671	keystroke_e	e	n/a
163.9715	0.0895	327943	keystroke_n	n	n/a
164.151	0.151	328302	keystroke_d	d	n/a
164.2705	0.0905	328541	keystroke_i	i	n/a
164.496	0.06	328992	keystroke_n	n	n/a
164.661	0.09	329322	keystroke_g	g	n/a
164.7955	0.0905	329591	keystroke_Key.space	Key.space	n/a
165.0805	0.0905	330161	keystroke_p	p	n/a
165.231	0.1345	330462	keystroke_e	e	n/a
165.3955	0.105	330791	keystroke_n	n	n/a
165.6355	0.1505	331271	keystroke_a	a	n/a
165.831	0.105	331662	keystroke_l	l	n/a
166.311	0.105	332622	keystroke_t	t	n/a
166.521	0.105	333042	keystroke_y	y	n/a
166.761	0.105	333522	keystroke_Key.space	Key.space	n/a
167.106	0.12	334212	keystroke_g	g	n/a
167.241	0.09	334482	keystroke_l	l	n/a
167.406	0.12	334812	keystroke_e	e	n/a
167.586	0.09	335172	keystroke_n	n	n/a
167.721	0.135	335442	keystroke_n	n	n/a
168.096	0.12	336192	keystroke_Key.enter	Key.enter	n/a
168.224	8.199	336448	prompt	n/a	also speech normally mats\n
169.476	0.105	338952	keystroke_a	a	n/a
169.776	0.015	339552	keystroke_l	l	n/a
169.911	0.105	339822	keystroke_s	s	n/a
170.076	0.075	340152	keystroke_o	o	n/a
170.271	0.09	340542	keystroke_Key.space	Key.space	n/a
170.511	0.135	341022	keystroke_s	s	n/a
170.661	0.075	341322	keystroke_p	p	n/a
170.871	0.075	341742	keystroke_e	e	n/a
171.006	0.09	342012	keystroke_e	e	n/a
171.291	0.15	342582	keystroke_c	c	n/a
171.486	0.12	342972	keystroke_h	h	n/a
171.636	0.105	343272	keystroke_Key.space	Key.space	n/a
171.861	0.165	343722	keystroke_n	n	n/a
172.011	0.12	344022	keystroke_o	o	n/a
172.251	0.135	344502	keystroke_r	r	n/a
172.401	0.12	344802	keystroke_m	m	n/a
172.656	0.15	345312	keystroke_a	a	n/a
172.836	0.06	345672	keystroke_l	l	n/a
173.001	0.075	346002	keystroke_l	l	n/a
173.256	0.1355	346512	keystroke_y	y	n/a
173.3615	0.1195	346723	keystroke_Key.space	Key.space	n/a
173.631	0.09	347262	keystroke_m	m	n/a
173.826	0.1205	347652	keystroke_a	a	n/a
174.096	0.09	348192	keystroke_t	t	n/a
174.306	0.12	348612	keystroke_s	s	n/a
174.621	0.09	349242	keystroke_'	'	n/a
175.7605	0.09	351521	keystroke_Key.backspace	Key.backspace	n/a
176.2865	0.135	352573	keystroke_Key.enter	Key.enter	n/a
176.4285	7.989	352857	prompt	n/a	ctrl excellence mini coating\n
177.3215	0.134	354643	keystroke_c	c	n/a
177.9655	0.121	355931	keystroke_t	t	n/a
178.236	0.12	356472	keystroke_r	r	n/a
178.431	0.135	356862	keystroke_l	l	n/a
178.671	0.09	357342	keystroke_Key.space	Key.space	n/a
178.881	0.105	357762	keystroke_e	e	n/a
179.106	0.165	358212	keystroke_x	x	n/a
179.391	0.105	358782	keystroke_c	c	n/a
179.616	0.12	359232	keystroke_e	e	n/a
179.781	0.045	359562	keystroke_l	l	n/a
179.931	0.06	359862	keystroke_l	l	n/a
180.021	0.12	360042	keystroke_e	e	n/a
180.111	0.09	360222	keystroke_n	n	n/a
180.336	0.12	360672	keystroke_c	c	n/a
180.621	0.135	361242	keystroke_e	e	n/a
180.816	0.105	361632	keystroke_Key.space	Key.space	n/a
181.026	0.09	362052	keystroke_m	m	n/a
181.191	0.09	362382	keystroke_i	i	n/a
181.431	0.075	362862	keystroke_n	n	n/a
181.596	0.075	363192	keystroke_i	i	n/a
181.791	0.075	363582	keystroke_Key.space	Key.space	n/a
182.001	0.18	364002	keystroke_c	c	n/a
182.166	0.105	364332	keystroke_o	o	n/a
182.406	0.12	364812	keystroke_a	a	n/a
182.691	0.105	365382	keystroke_t	t	n/a
182.781	0.075	365562	keystroke_i	i	n/a
182.961	0.075	365922	keystroke_n	n	n/a
183.111	0.135	366222	keystroke_g	g	n/a
184.2655	0.15	368531	keystroke_Key.enter	Key.enter	n/a
184.422	8.621	368844	prompt	n/a	lime myspace mainly commissioners\n
185.2255	0.12	370451	keystroke_l	l	n/a
185.4205	0.09	370841	keystroke_i	i	n/a
185.6305	0.105	371261	keystroke_m	m	n/a
185.8105	0.15	371621	keystroke_e	e	n/a
185.9905	0.105	371981	keystroke_Key.space	Key.space	n/a
186.3055	0.105	372611	keystroke_m	m	n/a
186.5905	0.105	373181	keystroke_y	y	n/a
186.7855	0.15	373571	keystroke_s	s	n/a
186.9955	0.12	373991	keystroke_p	p	n/a
187.2055	0.135	374411	keystroke_a	a	n/a
187.4755	0.105	374951	keystroke_c	c	n/a
187.7005	0.135	375401	keystroke_e	e	n/a
187.8505	0.09	375701	keystroke_Key.space	Key.space	n/a
188.0755	0.105	376151	keystroke_m	m	n/a
188.3155	0.12	376631	keystroke_a	a	n/a
188.5555	0.075	377111	keystroke_i	i	n/a
188.7805	0.09	377561	keystroke_n	n	n/a
189.0055	0.12	378011	keystroke_l	l	n/a
189.3055	0.09	378611	keystroke_y	y	n/a
189.4255	0.135	378851	keystroke_Key.space	Key.space	n/a
189.7415	0.134	379483	keystroke_c	c	n/a
189.8905	0.105	379781	keystroke_o	o	n/a
190.1755	0.0745	380351	keystroke_m	m	n/a
190.3405	0.09	380681	keystroke_m	m	n/a
190.5955	0.09	381191	keystroke_i	i	n/a
190.8505	0.075	381701	keystroke_s	s	n/a
191.0305	0.09	382061	keystroke_s	s	n/a
191.2855	0.105	382571	keystroke_i	i	n/a
191.6905	0.12	383381	keystroke_o	o	n/a
191.9155	0.075	383831	keystroke_n	n	n/a
192.1855	0.18	384371	keystroke_e	e	n/a
192.3505	0.135	384701	keystroke_r	r	n/a
192.6055	0.12	385211	keystroke_s	s	n/a
192.9355	0.105	385871	keystroke_Key.enter	Key.enter	n/a
193.048	13.2685	386096	prompt	n/a	adjacent powered genesis viruses\n
194.0755	0.105	388151	keystroke_a	a	n/a
194.2705	0.121	388541	keystroke_d	d	n/a
194.6755	0.135	389351	keystroke_j	j	n/a
194.9155	0.135	389831	keystroke_a	a	n/a
195.2305	0.135	390461	keystroke_c	c	n/a
195.4705	0.135	390941	keystroke_e	e	n/a
195.6055	0.075	391211	keystroke_n	n	n/a
195.8455	0.105	391691	keystroke_t	t	n/a
195.9805	0.105	391961	keystroke_Key.space	Key.space	n/a
196.2655	0.075	392531	keystroke_p	p	n/a
196.4605	0.09	392921	keystroke_o	o	n/a
196.5955	0.255	393191	keystroke_w	w	n/a
196.7305	0.21	393461	keystroke_e	e	n/a
196.8955	0.165	393791	keystroke_r	r	n/a
197.0605	0.135	394121	keystroke_e	e	n/a
197.3005	0.135	394601	keystroke_d	d	n/a
197.4505	0.105	394901	keystroke_Key.space	Key.space	n/a
197.7505	0.1045	395501	keystroke_g	g	n/a
197.9	0.135	395800	keystroke_e	e	n/a
198.125	0.135	396250	keystroke_n	n	n/a
198.305	0.12	396610	keystroke_e	e	n/a
199.115	0.09	398230	keystroke_s	s	n/a
199.235	0.09	398470	keystroke_i	i	n/a
199.4	0.105	398800	keystroke_s	s	n/a
199.565	0.09	399130	keystroke_Key.space	Key.space	n/a
200.105	0.135	400210	keystroke_v	v	n/a
200.255	0.135	400510	keystroke_i	i	n/a
200.555	0.105	401110	keystroke_r	r	n/a
205.3125	0.072	410625	keystroke_u	u	n/a
205.5045	0.135	411009	keystroke_s	s	n/a
205.7145	0.105	411429	keystroke_e	e	n/a
205.8945	0.15	411789	keystroke_s	s	n/a
206.1945	0.12	412389	keystroke_Key.enter	Key.enter	n/a
206.324	12.562	412648	prompt	n/a	extensions revision containing wildlife\n
207.1995	0.105	414399	keystroke_e	e	n/a
207.4995	0.15	414999	keystroke_x	x	n/a
207.8445	0.12	415689	keystroke_t	t	n/a
208.0095	0.1495	416019	keystroke_e	e	n/a
208.279	0.015	416558	keystroke_n	n	n/a
208.414	0.105	416828	keystroke_t	t	n/a
209.269	0.075	418538	keystroke_i	i	n/a
209.419	0.105	418838	keystroke_o	o	n/a
209.629	0.09	419258	keystroke_n	n	n/a
209.794	0.15	419588	keystroke_s	s	n/a
209.929	0.105	419858	keystroke_Key.space	Key.space	n/a
210.3645	0.15	420729	keystroke_r	r	n/a
210.4995	0.165	420999	keystroke_e	e	n/a
211.339	0.135	422678	keystroke_v	v	n/a
211.534	0.09	423068	keystroke_i	i	n/a
211.819	0.105	423638	keystroke_s	s	n/a
213.094	0.105	426188	keystroke_i	i	n/a
213.319	0.09	426638	keystroke_o	o	n/a
213.574	0.06	427148	keystroke_n	n	n/a
213.799	0.09	427598	keystroke_Key.space	Key.space	n/a
214.459	0.165	428918	keystroke_c	c	n/a
214.639	0.105	429278	keystroke_o	o	n/a
214.879	0.075	429758	keystroke_n	n	n/a
215.089	0.12	430178	keystroke_t	t	n/a
215.329	0.15	430658	keystroke_a	a	n/a
215.914	0.09	431828	keystroke_i	i	n/a
216.124	0.075	432248	keystroke_n	n	n/a
216.289	0.075	432578	keystroke_i	i	n/a
216.484	0.075	432968	keystroke_n	n	n/a
216.664	0.135	433328	keystroke_g	g	n/a
216.874	0.105	433748	keystroke_Key.space	Key.space	n/a
217.084	0.12	434168	keystroke_w	w	n/a
217.234	0.075	434468	keystroke_i	i	n/a
217.459	0.12	434918	keystroke_l	l	n/a
217.669	0.12	435338	keystroke_d	d	n/a
217.909	0.12	435818	keystroke_l	l	n/a
218.089	0.09	436178	keystroke_i	i	n/a
218.299	0.15	436598	keystroke_f	f	n/a
218.479	0.15	436958	keystroke_e	e	n/a
218.7635	0.12	437527	keystroke_Key.enter	Key.enter	n/a
218.891	9.7745	437782	prompt	n/a	order gore wanted involved\n
219.889	0.1045	439778	keystroke_o	o	n/a
220.0685	0.105	440137	keystroke_r	r	n/a
220.3085	0.105	440617	keystroke_d	d	n/a
220.5635	0.15	441127	keystroke_e	e	n/a
220.7735	0.12	441547	keystroke_r	r	n/a
220.9535	0.105	441907	keystroke_Key.space	Key.space	n/a
221.2985	0.135	442597	keystroke_g	g	n/a
221.4635	0.105	442927	keystroke_o	o	n/a
221.6735	0.18	443347	keystroke_r	r	n/a
221.8545	0.164	443709	keystroke_e	e	n/a
222.0635	0.09	444127	keystroke_Key.space	Key.space	n/a
222.2885	0.12	444577	keystroke_w	w	n/a
222.7385	0.105	445477	keystroke_n	n	n/a
223.2935	0.105	446587	keystroke_=	=	n/a
224.2985	0.09	448597	keystroke_Key.backspace	Key.backspace	n/a
224.583	0.105	449166	keystroke_Key.backspace	Key.backspace	n/a
225.063	0.12	450126	keystroke_a	a	n/a
225.333	0.136	450666	keystroke_n	n	n/a
225.588	0.135	451176	keystroke_t	t	n/a
225.873	0.03	451746	keystroke_e	e	n/a
226.039	0.134	452078	keystroke_d	d	n/a
226.638	0.105	453276	keystroke_Key.space	Key.space	n/a
226.863	0.09	453726	keystroke_i	i	n/a
227.103	0.075	454206	keystroke_n	n	n/a
227.313	0.135	454626	keystroke_v	v	n/a
227.463	0.075	454926	keystroke_o	o	n/a
227.658	0.09	455316	keystroke_l	l	n/a
227.898	0.135	455796	keystroke_v	v	n/a
228.108	0.09	456216	keystroke_e	e	n/a
228.333	0.135	456666	keystroke_d	d	n/a
228.558	0.105	457116	keystroke_Key.enter	Key.enter	n/a
228.6715	12.5475	457343	prompt	n/a	facilities college photoshop construct\n
229.533	0.135	459066	keystroke_f	f	n/a
229.698	0.135	459396	keystroke_a	a	n/a
229.953	0.195	459906	keystroke_c	c	n/a
230.088	0.09	460176	keystroke_i	i	n/a
230.298	0.12	460596	keystroke_l	l	n/a
230.523	0.06	461046	keystroke_i	i	n/a
230.748	0.12	461496	keystroke_t	t	n/a
230.869	0.074	461738	keystroke_i	i	n/a
231.213	0.135	462426	keystroke_e	e	n/a
231.933	0.165	463866	keystroke_s	s	n/a
232.128	0.105	464256	keystroke_Key.space	Key.space	n/a
232.503	0.15	465006	keystroke_c	c	n/a
232.608	0.12	465216	keystroke_o	o	n/a
233.193	0.09	466386	keystroke_l	l	n/a
233.388	0.06	466776	keystroke_l	l	n/a
233.538	0.12	467076	keystroke_e	e	n/a
233.853	0.105	467706	keystroke_g	g	n/a
234.003	0.15	468006	keystroke_e	e	n/a
234.198	0.105	468396	keystroke_Key.space	Key.space	n/a
234.8725	0.105	469745	keystroke_p	p	n/a
235.1725	0.21	470345	keystroke_h	h	n/a
235.9675	0.15	471935	keystroke_o	o	n/a
236.2525	0.12	472505	keystroke_t	t	n/a
236.3575	0.105	472715	keystroke_o	o	n/a
236.5825	0.105	473165	keystroke_s	s	n/a
236.8075	0.105	473615	keystroke_h	h	n/a
237.0475	0.15	474095	keystroke_o	o	n/a
237.2725	0.12	474545	keystroke_p	p	n/a
237.4975	0.105	474995	keystroke_Key.space	Key.space	n/a
237.7825	0.21	475565	keystroke_c	c	n/a
238.0375	0.105	476075	keystroke_o	o	n/a
238.2625	0.075	476525	keystroke_n	n	n/a
238.3825	0.135	476765	keystroke_s	s	n/a
238.6675	0.12	477335	keystroke_t	t	n/a
238.8325	0.135	477665	keystroke_r	r	n/a
238.9835	0.089	477967	keystroke_u	u	n/a
239.2225	0.12	478445	keystroke_c	c	n/a
239.5975	0.1055	479195	keystroke_t	t	n/a
241.113	0.105	482226	keystroke_Key.enter	Key.enter	n/a
241.224	7.6745	482448	prompt	n/a	nationwide naked muscles danish\n
242.343	0.09	484686	keystroke_n	n	n/a
242.523	0.136	485046	keystroke_a	a	n/a
242.8375	0.105	485675	keystroke_t	t	n/a
242.9875	0.105	485975	keystroke_i	i	n/a
243.1825	0.105	486365	keystroke_o	o	n/a
243.4075	0.075	486815	keystroke_n	n	n/a
243.5875	0.12	487175	keystroke_w	w	n/a
243.7235	0.089	487447	keystroke_i	i	n/a
243.9175	0.135	487835	keystroke_d	d	n/a
244.1425	0.15	488285	keystroke_e	e	n/a
244.3075	0.105	488615	keystroke_Key.space	Key.space	n/a
244.7575	0.12	489515	keystroke_n	n	n/a
244.9825	0.165	489965	keystroke_a	a	n/a
245.1625	0.135	490325	keystroke_k	k	n/a
245.3575	0.12	490715	keystroke_e	e	n/a
245.6425	0.165	491285	keystroke_d	d	n/a
245.8225	0.105	491645	keystroke_Key.space	Key.space	n/a
246.1225	0.09	492245	keystroke_m	m	n/a
246.3775	0.075	492755	keystroke_u	u	n/a
246.5575	0.09	493115	keystroke_s	s	n/a
246.7825	0.15	493565	keystroke_c	c	n/a
246.9175	0.105	493835	keystroke_l	l	n/a
247.1275	0.12	494255	keystroke_e	e	n/a
247.3675	0.15	494735	keystroke_s	s	n/a
247.5325	0.09	495065	keystroke_Key.space	Key.space	n/a
247.7425	0.15	495485	keystroke_d	d	n/a
247.9375	0.15	495875	keystroke_a	a	n/a
248.1025	0.06	496205	keystroke_n	n	n/a
248.2525	0.075	496505	keystroke_i	i	n/a
248.3875	0.1345	496775	keystroke_s	s	n/a
248.508	0.075	497016	keystroke_h	h	n/a
248.808	0.089	497616	keystroke_Key.enter	Key.enter	n/a
248.905	8.154	497810	prompt	n/a	accessories cameroon called revealed\n
249.7075	0.12	499415	keystroke_a	a	n/a
249.9915	0.091	499983	keystroke_c	c	n/a
250.1715	0.12	500343	keystroke_c	c	n/a
250.4265	0.106	500853	keystroke_e	e	n/a
250.6665	0.061	501333	keystroke_s	s	n/a
250.8025	0.119	501605	keystroke_s	s	n/a
250.9665	0.091	501933	keystroke_o	o	n/a
251.1765	0.12	502353	keystroke_r	r	n/a
251.2815	0.076	502563	keystroke_i	i	n/a
251.4175	0.104	502835	keystroke_e	e	n/a
251.6265	0.12	503253	keystroke_s	s	n/a
251.7765	0.09	503553	keystroke_Key.space	Key.space	n/a
252.0615	0.151	504123	keystroke_c	c	n/a
252.3025	0.119	504605	keystroke_a	a	n/a
252.4825	0.075	504965	keystroke_m	m	n/a
252.6325	0.239	505265	keystroke_e	e	n/a
252.7975	0.135	505595	keystroke_r	r	n/a
253.0365	0.076	506073	keystroke_o	o	n/a
253.1875	0.104	506375	keystroke_o	o	n/a
253.412	0.075	506824	keystroke_n	n	n/a
253.591	0.09	507182	keystroke_Key.space	Key.space	n/a
253.786	0.165	507572	keystroke_c	c	n/a
253.996	0.12	507992	keystroke_a	a	n/a
254.147	0.074	508294	keystroke_l	l	n/a
254.296	0.091	508592	keystroke_l	l	n/a
254.416	0.105	508832	keystroke_e	e	n/a
254.612	0.165	509224	keystroke_d	d	n/a
254.747	0.089	509494	keystroke_Key.space	Key.space	n/a
255.016	0.166	510032	keystroke_r	r	n/a
255.121	0.166	510242	keystroke_e	e	n/a
255.496	0.016	510992	keystroke_c	c	n/a
255.586	0.166	511172	keystroke_e	e	n/a
255.857	0.119	511714	keystroke_a	a	n/a
255.962	0.104	511924	keystroke_l	l	n/a
256.112	0.089	512224	keystroke_e	e	n/a
256.307	0.134	512614	keystroke_d	d	n/a
256.936	0.12	513872	keystroke_Key.enter	Key.enter	n/a
257.064	9.4145	514128	prompt	n/a	society recordings nearly marco\n
258.482	0.105	516964	keystroke_s	s	n/a
258.617	0.104	517234	keystroke_o	o	n/a
258.857	0.12	517714	keystroke_c	c	n/a
258.961	0.075	517922	keystroke_i	i	n/a
259.1565	0.1055	518313	keystroke_e	e	n/a
259.3955	0.1065	518791	keystroke_t	t	n/a
259.532	0.165	519064	keystroke_y	y	n/a
259.651	0.135	519302	keystroke_Key.space	Key.space	n/a
259.967	0.149	519934	keystroke_r	r	n/a
260.086	0.135	520172	keystroke_e	e	n/a
260.372	0.18	520744	keystroke_c	c	n/a
260.507	0.12	521014	keystroke_o	o	n/a
260.792	0.105	521584	keystroke_r	r	n/a
261.032	0.15	522064	keystroke_d	d	n/a
261.167	0.06	522334	keystroke_i	i	n/a
261.362	0.075	522724	keystroke_n	n	n/a
261.541	0.121	523082	keystroke_g	g	n/a
261.752	0.119	523504	keystroke_s	s	n/a
261.932	0.075	523864	keystroke_Key.space	Key.space	n/a
262.1415	0.09	524283	keystroke_n	n	n/a
262.2765	0.18	524553	keystroke_e	e	n/a
263.161	0.165	526322	keystroke_a	a	n/a
263.461	0.1205	526922	keystroke_r	r	n/a
263.656	0.15	527312	keystroke_l	l	n/a
264.076	0.12	528152	keystroke_y	y	n/a
264.151	0.135	528302	keystroke_Key.space	Key.space	n/a
264.466	0.075	528932	keystroke_m	m	n/a
264.646	0.12	529292	keystroke_a	a	n/a
264.901	0.15	529802	keystroke_c	c	n/a
265.711	0.135	531422	keystroke_r	r	n/a
265.861	0.105	531722	keystroke_o	o	n/a
266.416	0.06	532832	keystroke_Key.enter	Key.enter	n/a
266.4835	6.8945	532967	prompt	n/a	proc earned fitness arnold\n
267.571	0.105	535142	keystroke_p	p	n/a
267.781	0.105	535562	keystroke_r	r	n/a
267.856	0.105	535712	keystroke_o	o	n/a
268.156	0.135	536312	keystroke_c	c	n/a
268.396	0.105	536792	keystroke_Key.space	Key.space	n/a
268.801	0.135	537602	keystroke_e	e	n/a
269.041	0.165	538082	keystroke_a	a	n/a
269.296	0.09	538592	keystroke_r	r	n/a
269.431	0.075	538862	keystroke_n	n	n/a
269.5655	0.105	539131	keystroke_e	e	n/a
269.7905	0.1505	539581	keystroke_d	d	n/a
269.956	0.075	539912	keystroke_Key.space	Key.space	n/a
270.166	0.135	540332	keystroke_f	f	n/a
270.256	0.105	540512	keystroke_i	i	n/a
270.466	0.135	540932	keystroke_t	t	n/a
270.631	0.105	541262	keystroke_n	n	n/a
270.781	0.12	541562	keystroke_e	e	n/a
271.021	0.09	542042	keystroke_s	s	n/a
271.186	0.135	542372	keystroke_s	s	n/a
271.336	0.09	542672	keystroke_Key.space	Key.space	n/a
271.846	0.15	543692	keystroke_a	a	n/a
272.146	0.12	544292	keystroke_r	r	n/a
272.356	0.105	544712	keystroke_n	n	n/a
272.506	0.09	545012	keystroke_o	o	n/a
272.701	0.09	545402	keystroke_l	l	n/a
272.836	0.135	545672	keystroke_d	d	n/a
273.271	0.105	546542	keystroke_Key.enter	Key.enter	n/a
273.3835	13.0625	546767	prompt	n/a	gmbh capabilities oldest transformation\n
274.5605	0.09	549121	keystroke_g	g	n/a
274.8455	0.135	549691	keystroke_m	m	n/a
275.2655	0.105	550531	keystroke_b	b	n/a
275.5505	0.165	551101	keystroke_h	h	n/a
275.7005	0.12	551401	keystroke_Key.space	Key.space	n/a
275.9855	0.15	551971	keystroke_c	c	n/a
276.2105	0.105	552421	keystroke_a	a	n/a
276.4955	0.12	552991	keystroke_p	p	n/a
276.6755	0.1345	553351	keystroke_a	a	n/a
277.29	0.105	554580	keystroke_b	b	n/a
277.41	0.09	554820	keystroke_i	i	n/a
277.62	0.075	555240	keystroke_l	l	n/a
277.77	0.105	555540	keystroke_i	i	n/a
278.415	0.105	556830	keystroke_t	t	n/a
278.49	0.105	556980	keystroke_i	i	n/a
278.625	0.135	557250	keystroke_e	e	n/a
278.865	0.105	557730	keystroke_s	s	n/a
278.9995	0.09	557999	keystroke_Key.space	Key.space	n/a
279.2255	0.09	558451	keystroke_o	o	n/a
279.4195	0.091	558839	keystroke_l	l	n/a
279.6155	0.09	559231	keystroke_d	d	n/a
279.8255	0.105	559651	keystroke_e	e	n/a
279.9895	0.196	559979	keystroke_s	s	n/a
280.2005	0.06	560401	keystroke_Key.space	Key.space	n/a
280.8155	0.105	561631	keystroke_=	=	n/a
281.0555	0.09	562111	keystroke_t	t	n/a
281.4005	0.09	562801	keystroke_Key.backspace	Key.backspace	n/a
281.6105	0.075	563221	keystroke_Key.backspace	Key.backspace	n/a
281.8055	0.09	563611	keystroke_Key.backspace	Key.backspace	n/a
282.1055	0.135	564211	keystroke_t	t	n/a
282.2555	0.12	564511	keystroke_Key.space	Key.space	n/a
282.8705	0.09	565741	keystroke_t	t	n/a
283.0655	0.105	566131	keystroke_r	r	n/a
283.3805	0.03	566761	keystroke_a	a	n/a
283.9055	0.105	567811	keystroke_n	n	n/a
284.1755	0.12	568351	keystroke_s	s	n/a
284.5505	0.135	569101	keystroke_f	f	n/a
284.6555	0.105	569311	keystroke_o	o	n/a
284.7905	0.135	569581	keystroke_r	r	n/a
284.9405	0.06	569881	keystroke_m	m	n/a
285.1205	0.135	570241	keystroke_a	a	n/a
285.3905	0.03	570781	keystroke_r	r	n/a
285.4505	0.03	570901	keystroke_t	t	n/a
285.5255	0.075	571051	keystroke_i	i	n/a
285.7205	0.105	571441	keystroke_o	o	n/a
285.9305	0.075	571861	keystroke_n	n	n/a
286.3955	0.045	572791	keystroke_Key.enter	Key.enter	n/a
286.446	8.3515	572892	prompt	n/a	caribbean aspects exposed address\n
287.3555	0.135	574711	keystroke_c	c	n/a
287.5505	0.1345	575101	keystroke_a	a	n/a
287.85	0.0905	575700	keystroke_r	r	n/a
287.9255	0.09	575851	keystroke_i	i	n/a
288.18	0.075	576360	keystroke_b	b	n/a
288.315	0.12	576630	keystroke_b	b	n/a
288.645	0.12	577290	keystroke_e	e	n/a
289.095	0.15	578190	keystroke_a	a	n/a
289.215	0.105	578430	keystroke_n	n	n/a
289.4555	0.09	578911	keystroke_Key.space	Key.space	n/a
289.6655	0.12	579331	keystroke_a	a	n/a
289.8305	0.1795	579661	keystroke_s	s	n/a
290.04	0.09	580080	keystroke_p	p	n/a
290.16	0.105	580320	keystroke_e	e	n/a
290.415	0.15	580830	keystroke_c	c	n/a
290.7	0.135	581400	keystroke_t	t	n/a
290.94	0.135	581880	keystroke_s	s	n/a
291.09	0.09	582180	keystroke_Key.space	Key.space	n/a
291.27	0.105	582540	keystroke_e	e	n/a
291.555	0.135	583110	keystroke_x	x	n/a
292.005	0.06	584010	keystroke_p	p	n/a
292.17	0.09	584340	keystroke_o	o	n/a
292.29	0.135	584580	keystroke_s	s	n/a
292.485	0.105	584970	keystroke_e	e	n/a
292.725	0.12	585450	keystroke_d	d	n/a
292.86	0.075	585720	keystroke_Key.space	Key.space	n/a
293.175	0.12	586350	keystroke_a	a	n/a
293.4	0.09	586800	keystroke_d	d	n/a
293.565	0.135	587130	keystroke_d	d	n/a
293.805	0.135	587610	keystroke_r	r	n/a
293.925	0.15	587850	keystroke_e	e	n/a
294.225	0.06	588450	keystroke_s	s	n/a
294.36	0.105	588720	keystroke_s	s	n/a
294.69	0.105	589380	keystroke_Key.enter	Key.enter	n/a
294.803	9.8035	589606	prompt	n/a	speech describing nissan ended\n
295.71	0.15	591420	keystroke_s	s	n/a
295.995	0.09	591990	keystroke_p	p	n/a
296.2355	0.09	592471	keystroke_e	e	n/a
296.3705	0.09	592741	keystroke_e	e	n/a
296.6405	0.135	593281	keystroke_c	c	n/a
296.8205	0.1645	593641	keystroke_h	h	n/a
296.9245	0.1355	593849	keystroke_Key.space	Key.space	n/a
297.315	0.105	594630	keystroke_d	d	n/a
297.525	0.12	595050	keystroke_e	e	n/a
297.75	0.12	595500	keystroke_s	s	n/a
297.99	0.15	595980	keystroke_c	c	n/a
298.26	0.12	596520	keystroke_r	r	n/a
298.35	0.09	596700	keystroke_i	i	n/a
298.62	0.075	597240	keystroke_b	b	n/a
298.71	0.09	597420	keystroke_i	i	n/a
298.905	0.075	597810	keystroke_n	n	n/a
299.025	0.12	598050	keystroke_g	g	n/a
299.25	0.09	598500	keystroke_Key.space	Key.space	n/a
299.745	0.075	599490	keystroke_n	n	n/a
299.88	0.09	599760	keystroke_i	i	n/a
300.09	0.06	600180	keystroke_s	s	n/a
300.24	0.105	600480	keystroke_s	s	n/a
301.2	0.164	602400	keystroke_a	a	n/a
301.38	0.12	602760	keystroke_n	n	n/a
301.589	0.09	603178	keystroke_Key.space	Key.space	n/a
301.8	0.119	603600	keystroke_e	e	n/a
301.935	0.075	603870	keystroke_n	n	n/a
302.1	0.12	604200	keystroke_d	d	n/a
302.325	0.075	604650	keystroke_e	e	n/a
302.52	0.105	605040	keystroke_d	d	n/a
302.864	0.091	605728	keystroke_'	'	n/a
303.975	0.104	607950	keystroke_Key.backspace	Key.backspace	n/a
304.455	0.15	608910	keystroke_Key.enter	Key.enter	n/a
304.6135	11.513	609227	prompt	n/a	operator qualify shape kissing\n
305.4445	0.15	610889	keystroke_o	o	n/a
305.6245	0.12	611249	keystroke_p	p	n/a
305.8045	0.21	611609	keystroke_e	e	n/a
305.9695	0.12	611939	keystroke_r	r	n/a
306.2095	0.135	612419	keystroke_a	a	n/a
306.5245	0.09	613049	keystroke_t	t	n/a
306.5995	0.119	613199	keystroke_o	o	n/a
306.8095	0.105	613619	keystroke_r	r	n/a
306.9295	0.104	613859	keystroke_Key.space	Key.space	n/a
307.304	0.09	614608	keystroke_q	q	n/a
307.769	0.12	615538	keystroke_u	u	n/a
307.979	0.165	615958	keystroke_a	a	n/a
308.129	0.09	616258	keystroke_k	k	n/a
308.294	0.09	616588	keystroke_i	i	n/a
308.459	0.15	616918	keystroke_f	f	n/a
308.639	0.105	617278	keystroke_y	y	n/a
308.819	0.105	617638	keystroke_Key.space	Key.space	n/a
309.074	0.135	618148	keystroke_s	s	n/a
309.179	0.105	618358	keystroke_h	h	n/a
309.359	0.15	618718	keystroke_a	a	n/a
309.629	0.105	619258	keystroke_r	r	n/a
309.899	0.15	619798	keystroke_p	p	n/a
311.0685	0.12	622137	keystroke_Key.space	Key.space	n/a
311.3095	0.075	622619	keystroke_j	j	n/a
311.4885	0.075	622977	keystroke_u	u	n/a
311.6845	0.06	623369	keystroke_k	k	n/a
312.1195	0.09	624239	keystroke_=	=	n/a
312.2845	0.074	624569	keystroke_=	=	n/a
312.4645	0.044	624929	keystroke_=	=	n/a
312.8685	0.075	625737	keystroke_Key.backspace	Key.backspace	n/a
313.0485	0.076	626097	keystroke_Key.backspace	Key.backspace	n/a
313.2295	0.059	626459	keystroke_Key.backspace	Key.backspace	n/a
313.3945	0.06	626789	keystroke_Key.backspace	Key.backspace	n/a
313.5595	0.059	627119	keystroke_Key.backspace	Key.backspace	n/a
313.7095	0.09	627419	keystroke_Key.backspace	Key.backspace	n/a
314.6095	0.1045	629219	keystroke_k	k	n/a
314.805	0.089	629610	keystroke_i	i	n/a
315.089	0.075	630178	keystroke_s	s	n/a
315.224	0.165	630448	keystroke_s	s	n/a
315.374	0.105	630748	keystroke_i	i	n/a
315.584	0.06	631168	keystroke_n	n	n/a
315.689	0.105	631378	keystroke_g	g	n/a
316.004	0.12	632008	keystroke_Key.enter	Key.enter	n/a
316.131	12.43	632262	prompt	n/a	aging hurt pulling dreams\n
317.1295	0.18	634259	keystroke_a	a	n/a
317.4585	0.091	634917	keystroke_g	g	n/a
317.6545	0.075	635309	keystroke_i	i	n/a
317.8645	0.06	635729	keystroke_n	n	n/a
318.0445	0.105	636089	keystroke_g	g	n/a
318.1935	0.106	636387	keystroke_Key.space	Key.space	n/a
318.5995	0.075	637199	keystroke_g	g	n/a
318.6295	0.015	637259	keystroke_h	h	n/a
319.1995	0.12	638399	keystroke_=	=	n/a
320.2335	0.121	640467	keystroke_Key.backspace	Key.backspace	n/a
320.5635	0.105	641127	keystroke_Key.backspace	Key.backspace	n/a
320.9995	0.03	641999	keystroke_Key.backspace	Key.backspace	n/a
321.5995	0.105	643199	keystroke_h	h	n/a
321.8245	0.075	643649	keystroke_u	u	n/a
321.9895	0.119	643979	keystroke_r	r	n/a
322.2745	0.089	644549	keystroke_t	t	n/a
322.5745	0.09	645149	keystroke_Key.space	Key.space	n/a
322.9645	0.0895	645929	keystroke_p	p	n/a
323.189	0.06	646378	keystroke_u	u	n/a
323.414	0.06	646828	keystroke_l	l	n/a
323.563	0.075	647126	keystroke_l	l	n/a
323.744	0.045	647488	keystroke_i	i	n/a
323.939	0.044	647878	keystroke_n	n	n/a
324.074	0.12	648148	keystroke_g	g	n/a
324.209	0.075	648418	keystroke_Key.space	Key.space	n/a
324.479	0.135	648958	keystroke_d	d	n/a
324.749	0.15	649498	keystroke_r	r	n/a
324.929	0.165	649858	keystroke_e	e	n/a
325.589	0.135	651178	keystroke_a	a	n/a
325.754	0.06	651508	keystroke_n	n	n/a
325.934	0.105	651868	keystroke_s	s	n/a
327.059	0.104	654118	keystroke_Key.backspace	Key.backspace	n/a
327.254	0.12	654508	keystroke_Key.backspace	Key.backspace	n/a
327.599	0.135	655198	keystroke_m	m	n/a
327.914	0.135	655828	keystroke_s	s	n/a
328.424	0.135	656848	keystroke_Key.enter	Key.enter	n/a
328.581	9.085	657162	prompt	n/a	surround sources aging against\n
329.4885	0.09	658977	keystroke_s	s	n/a
329.6985	0.09	659397	keystroke_u	u	n/a
329.9235	0.06	659847	keystroke_r	r	n/a
330.0435	0.105	660087	keystroke_r	r	n/a
330.2685	0.18	660537	keystroke_o	o	n/a
330.3885	0.135	660777	keystroke_u	u	n/a
330.6735	0.075	661347	keystroke_n	n	n/a
330.8235	0.165	661647	keystroke_d	d	n/a
331.0035	0.075	662007	keystroke_Key.space	Key.space	n/a
331.3335	0.15	662667	keystroke_s	s	n/a
331.4845	0.179	662969	keystroke_o	o	n/a
331.5885	0.135	663177	keystroke_u	u	n/a
331.8285	0.105	663657	keystroke_r	r	n/a
332.1585	0.12	664317	keystroke_c	c	n/a
332.3985	0.09	664797	keystroke_e	e	n/a
332.6085	0.105	665217	keystroke_s	s	n/a
332.7285	0.105	665457	keystroke_Key.space	Key.space	n/a
332.9835	0.1495	665967	keystroke_a	a	n/a
333.748	0.105	667496	keystroke_g	g	n/a
333.988	0.045	667976	keystroke_i	i	n/a
334.2135	0.105	668427	keystroke_n	n	n/a
334.4235	0.105	668847	keystroke_g	g	n/a
334.6035	0.075	669207	keystroke_Key.space	Key.space	n/a
334.9785	0.105	669957	keystroke_a	a	n/a
335.2785	0.15	670557	keystroke_g	g	n/a
335.7285	0.135	671457	keystroke_a	a	n/a
335.9085	0.045	671817	keystroke_i	i	n/a
336.0735	0.09	672147	keystroke_n	n	n/a
336.2085	0.12	672417	keystroke_s	s	n/a
336.5235	0.09	673047	keystroke_t	t	n/a
337.5285	0.135	675057	keystroke_Key.enter	Key.enter	n/a
337.6725	8.048	675345	prompt	n/a	librarian cases none quarter\n
338.9385	0.09	677877	keystroke_l	l	n/a
339.1185	0.09	678237	keystroke_i	i	n/a
339.3585	0.105	678717	keystroke_b	b	n/a
339.6585	0.105	679317	keystroke_r	r	n/a
339.8385	0.15	679677	keystroke_a	a	n/a
340.1835	0.105	680367	keystroke_r	r	n/a
340.3035	0.075	680607	keystroke_i	i	n/a
340.5135	0.09	681027	keystroke_a	a	n/a
340.6335	0.105	681267	keystroke_n	n	n/a
340.7985	0.12	681597	keystroke_Key.space	Key.space	n/a
341.0685	0.135	682137	keystroke_c	c	n/a
341.2485	0.165	682497	keystroke_a	a	n/a
341.4735	0.105	682947	keystroke_s	s	n/a
341.7135	0.09	683427	keystroke_e	e	n/a
341.9085	0.135	683817	keystroke_s	s	n/a
342.0885	0.09	684177	keystroke_Key.space	Key.space	n/a
342.3435	0.09	684687	keystroke_n	n	n/a
342.4935	0.09	684987	keystroke_o	o	n/a
342.6885	0.075	685377	keystroke_n	n	n/a
342.8235	0.135	685647	keystroke_e	e	n/a
342.9885	0.06	685977	keystroke_Key.space	Key.space	n/a
343.3335	0.12	686667	keystroke_q	q	n/a
343.5585	0.105	687117	keystroke_u	u	n/a
344.2635	0.135	688527	keystroke_a	a	n/a
344.5785	0.12	689157	keystroke_r	r	n/a
344.9535	0.12	689907	keystroke_t	t	n/a
345.1035	0.195	690207	keystroke_e	e	n/a
345.2235	0.165	690447	keystroke_r	r	n/a
345.5985	0.12	691197	keystroke_Key.enter	Key.enter	n/a
345.725	11.4095	691450	prompt	n/a	calendars here equation painting\n
346.5435	0.135	693087	keystroke_c	c	n/a
346.7685	0.12	693537	keystroke_a	a	n/a
346.9485	0.12	693897	keystroke_l	l	n/a
347.1285	0.105	694257	keystroke_e	e	n/a
347.2485	0.06	694497	keystroke_n	n	n/a
347.9685	0.15	695937	keystroke_d	d	n/a
348.2685	0.135	696537	keystroke_a	a	n/a
348.5535	0.0895	697107	keystroke_r	r	n/a
348.748	0.12	697496	keystroke_s	s	n/a
348.928	0.075	697856	keystroke_Key.space	Key.space	n/a
350.068	0.075	700136	keystroke_h	h	n/a
350.6985	0.135	701397	keystroke_e	e	n/a
350.9685	0.165	701937	keystroke_r	r	n/a
351.1185	0.15	702237	keystroke_e	e	n/a
351.3735	0.09	702747	keystroke_Key.space	Key.space	n/a
351.7185	0.135	703437	keystroke_e	e	n/a
352.1235	0.105	704247	keystroke_q	q	n/a
352.3485	0.09	704697	keystroke_u	u	n/a
353.308	0.21	706616	keystroke_a	a	n/a
353.7585	0.12	707517	keystroke_t	t	n/a
354.1635	0.1195	708327	keystroke_i	i	n/a
354.373	0.12	708746	keystroke_o	o	n/a
354.628	0.075	709256	keystroke_n	n	n/a
354.808	0.105	709616	keystroke_Key.space	Key.space	n/a
355.018	0.06	710036	keystroke_p	p	n/a
355.273	0.015	710546	keystroke_a	a	n/a
355.408	0.12	710816	keystroke_i	i	n/a
355.873	0.105	711746	keystroke_n	n	n/a
356.233	0.12	712466	keystroke_t	t	n/a
356.368	0.06	712736	keystroke_i	i	n/a
356.548	0.075	713096	keystroke_n	n	n/a
356.668	0.12	713336	keystroke_g	g	n/a
357.028	0.105	714056	keystroke_Key.enter	Key.enter	n/a
357.14	12.339	714280	prompt	n/a	alabama acne luxury competitive\n
357.958	0.135	715916	keystroke_a	a	n/a
358.138	0.105	716276	keystroke_l	l	n/a
358.318	0.12	716636	keystroke_a	a	n/a
358.588	0.105	717176	keystroke_b	b	n/a
358.813	0.12	717626	keystroke_a	a	n/a
358.978	0.15	717956	keystroke_m	m	n/a
359.249	0.104	718498	keystroke_a	a	n/a
359.368	0.09	718736	keystroke_Key.space	Key.space	n/a
359.638	0.135	719276	keystroke_a	a	n/a
360.088	0.165	720176	keystroke_c	c	n/a
361.4225	0.18	722845	keystroke_n	n	n/a
361.7975	0.045	723595	keystroke_e	e	n/a
361.8575	0.105	723715	keystroke_Key.space	Key.space	n/a
362.4725	0.105	724945	keystroke_u	u	n/a
363.3875	0.015	726775	keystroke_Key.backspace	Key.backspace	n/a
364.4525	0.18	728905	keystroke_l	l	n/a
364.7675	0.09	729535	keystroke_u	u	n/a
365.1125	0.165	730225	keystroke_x	x	n/a
365.5325	0.135	731065	keystroke_u	u	n/a
365.8335	0.104	731667	keystroke_r	r	n/a
366.0425	0.105	732085	keystroke_y	y	n/a
366.1925	0.135	732385	keystroke_Key.space	Key.space	n/a
366.5235	0.15	733047	keystroke_c	c	n/a
366.6735	0.179	733347	keystroke_o	o	n/a
366.8675	0.21	733735	keystroke_m	m	n/a
367.0785	0.089	734157	keystroke_p	p	n/a
367.5275	0.135	735055	keystroke_e	e	n/a
367.8735	0.119	735747	keystroke_t	t	n/a
367.9775	0.0905	735955	keystroke_i	i	n/a
368.217	0.121	736434	keystroke_t	t	n/a
368.323	0.089	736646	keystroke_i	i	n/a
368.772	0.165	737544	keystroke_v	v	n/a
368.923	0.164	737846	keystroke_e	e	n/a
369.357	0.12	738714	keystroke_Key.enter	Key.enter	n/a
369.4835	10.7065	738967	prompt	n/a	charge greater accommodate qatar\n
370.467	0.181	740934	keystroke_c	c	n/a
370.677	0.12	741354	keystroke_h	h	n/a
370.887	0.135	741774	keystroke_a	a	n/a
371.157	0.105	742314	keystroke_r	r	n/a
371.472	0.105	742944	keystroke_g	g	n/a
371.682	0.135	743364	keystroke_e	e	n/a
371.862	0.12	743724	keystroke_Key.space	Key.space	n/a
372.327	0.105	744654	keystroke_g	g	n/a
372.552	0.15	745104	keystroke_r	r	n/a
372.777	0.135	745554	keystroke_e	e	n/a
373.317	0.135	746634	keystroke_a	a	n/a
373.617	0.12	747234	keystroke_t	t	n/a
373.767	0.27	747534	keystroke_e	e	n/a
373.902	0.15	747804	keystroke_r	r	n/a
374.127	0.12	748254	keystroke_Key.space	Key.space	n/a
374.337	0.135	748674	keystroke_a	a	n/a
374.682	0.12	749364	keystroke_c	c	n/a
374.862	0.135	749724	keystroke_c	c	n/a
375.132	0.12	750264	keystroke_o	o	n/a
375.462	0.09	750924	keystroke_m	m	n/a
375.657	0.105	751314	keystroke_m	m	n/a
375.912	0.105	751824	keystroke_o	o	n/a
376.273	0.119	752546	keystroke_d	d	n/a
376.482	0.15	752964	keystroke_a	a	n/a
376.812	0.15	753624	keystroke_t	t	n/a
376.947	0.181	753894	keystroke_e	e	n/a
377.142	0.105	754284	keystroke_Key.space	Key.space	n/a
377.412	0.15	754824	keystroke_q	q	n/a
378.432	0.18	756864	keystroke_a	a	n/a
378.973	0.12	757946	keystroke_t	t	n/a
379.257	0.105	758514	keystroke_a	a	n/a
379.723	0.1195	759446	keystroke_r	r	n/a
380.0675	0.12	760135	keystroke_Key.enter	Key.enter	n/a
380.196	8.7395	760392	prompt	n/a	britannica lanes classroom workers\n
381.2225	0.12	762445	keystroke_b	b	n/a
381.5225	0.12	763045	keystroke_r	r	n/a
381.6275	0.09	763255	keystroke_i	i	n/a
381.9425	0.12	763885	keystroke_t	t	n/a
382.2275	0.15	764455	keystroke_a	a	n/a
382.5875	0.075	765175	keystroke_n	n	n/a
382.7225	0.09	765445	keystroke_n	n	n/a
382.9025	0.09	765805	keystroke_i	i	n/a
383.1425	0.165	766285	keystroke_c	c	n/a
383.3825	0.15	766765	keystroke_a	a	n/a
383.5175	0.105	767035	keystroke_Key.space	Key.space	n/a
383.7875	0.105	767575	keystroke_l	l	n/a
383.9975	0.12	767995	keystroke_a	a	n/a
384.1325	0.09	768265	keystroke_n	n	n/a
384.2525	0.135	768505	keystroke_e	e	n/a
384.5225	0.105	769045	keystroke_s	s	n/a
384.6575	0.09	769315	keystroke_Key.space	Key.space	n/a
384.9575	0.1645	769915	keystroke_c	c	n/a
385.062	0.105	770124	keystroke_l	l	n/a
385.287	0.135	770574	keystroke_a	a	n/a
385.557	0.075	771114	keystroke_s	s	n/a
385.692	0.12	771384	keystroke_s	s	n/a
386.022	0.105	772044	keystroke_r	r	n/a
386.307	0.06	772614	keystroke_o	o	n/a
386.442	0.105	772884	keystroke_o	o	n/a
386.712	0.166	773424	keystroke_m	m	n/a
387.177	0.12	774354	keystroke_Key.space	Key.space	n/a
387.462	0.12	774924	keystroke_w	w	n/a
387.567	0.105	775134	keystroke_o	o	n/a
387.792	0.09	775584	keystroke_r	r	n/a
387.987	0.165	775974	keystroke_k	k	n/a
388.197	0.165	776394	keystroke_e	e	n/a
388.302	0.135	776604	keystroke_r	r	n/a
388.587	0.105	777174	keystroke_s	s	n/a
388.827	0.105	777654	keystroke_Key.enter	Key.enter	n/a
388.9405	10.299	777881	prompt	n/a	contributing beneath burns illegal\n
391.215	0.072	782430	keystroke_c	c	n/a
391.257	0.075	782514	keystroke_o	o	n/a
391.437	0.075	782874	keystroke_n	n	n/a
392.051	0.0905	784102	keystroke_t	t	n/a
392.2315	0.105	784463	keystroke_r	r	n/a
392.3225	0.105	784645	keystroke_i	i	n/a
392.5915	0.106	785183	keystroke_b	b	n/a
392.7115	0.091	785423	keystroke_u	u	n/a
393.2365	0.136	786473	keystroke_t	t	n/a
393.3565	0.06	786713	keystroke_i	i	n/a
393.5215	0.075	787043	keystroke_n	n	n/a
393.6415	0.12	787283	keystroke_g	g	n/a
393.7465	0.105	787493	keystroke_Key.space	Key.space	n/a
394.1965	0.076	788393	keystroke_b	b	n/a
394.3765	0.136	788753	keystroke_e	e	n/a
394.5565	0.105	789113	keystroke_n	n	n/a
394.7225	0.119	789445	keystroke_e	e	n/a
395.1715	0.135	790343	keystroke_a	a	n/a
395.5315	0.106	791063	keystroke_t	t	n/a
395.6675	0.105	791335	keystroke_h	h	n/a
395.9065	0.105	791813	keystroke_Key.space	Key.space	n/a
396.1625	0.135	792325	keystroke_b	b	n/a
396.3265	0.1055	792653	keystroke_u	u	n/a
396.537	0.135	793074	keystroke_r	r	n/a
396.657	0.09	793314	keystroke_n	n	n/a
396.882	0.105	793764	keystroke_s	s	n/a
397.017	0.105	794034	keystroke_Key.space	Key.space	n/a
397.602	0.09	795204	keystroke_i	i	n/a
397.812	0.06	795624	keystroke_l	l	n/a
397.947	0.105	795894	keystroke_l	l	n/a
398.112	0.135	796224	keystroke_e	e	n/a
398.397	0.12	796794	keystroke_g	g	n/a
398.622	0.135	797244	keystroke_a	a	n/a
398.758	0.089	797516	keystroke_l	l	n/a
399.1165	0.12	798233	keystroke_Key.enter	Key.enter	n/a
399.244	7.1195	798488	prompt	n/a	table kevin tariff watson\n
400.2425	0.119	800485	keystroke_t	t	n/a
400.4815	0.12	800963	keystroke_a	a	n/a
400.7815	0.105	801563	keystroke_b	b	n/a
400.9015	0.0755	801803	keystroke_l	l	n/a
401.052	0.12	802104	keystroke_e	e	n/a
401.126	0.091	802252	keystroke_Key.space	Key.space	n/a
401.351	0.091	802702	keystroke_k	k	n/a
401.501	0.121	803002	keystroke_e	e	n/a
401.861	0.151	803722	keystroke_v	v	n/a
401.967	0.075	803934	keystroke_i	i	n/a
402.162	0.075	804324	keystroke_n	n	n/a
402.312	0.089	804624	keystroke_Key.space	Key.space	n/a
402.701	0.166	805402	keystroke_t	t	n/a
403.437	0.164	806874	keystroke_a	a	n/a
403.737	0.135	807474	keystroke_r	r	n/a
403.857	0.105	807714	keystroke_i	i	n/a
404.126	0.091	808252	keystroke_f	f	n/a
404.262	0.15	808524	keystroke_f	f	n/a
404.501	0.091	809002	keystroke_Key.space	Key.space	n/a
404.787	0.105	809574	keystroke_w	w	n/a
405.027	0.119	810054	keystroke_a	a	n/a
405.282	0.105	810564	keystroke_t	t	n/a
405.537	0.119	811074	keystroke_s	s	n/a
405.672	0.165	811344	keystroke_o	o	n/a
405.806	0.166	811612	keystroke_n	n	n/a
406.016	0.076	812032	keystroke_Key.space	Key.space	n/a
406.286	0.075	812572	keystroke_Key.enter	Key.enter	n/a
406.3675	7.2715	812735	prompt	n/a	lucky drew continually sailing\n
407.652	0.12	815304	keystroke_l	l	n/a
407.922	0.09	815844	keystroke_u	u	n/a
408.162	0.15	816324	keystroke_c	c	n/a
408.447	0.12	816894	keystroke_k	k	n/a
408.732	0.135	817464	keystroke_y	y	n/a
408.837	0.12	817674	keystroke_Key.space	Key.space	n/a
409.032	0.15	818064	keystroke_d	d	n/a
409.302	0.165	818604	keystroke_r	r	n/a
409.468	0.149	818936	keystroke_e	e	n/a
409.572	0.165	819144	keystroke_w	w	n/a
409.782	0.105	819564	keystroke_Key.space	Key.space	n/a
410.082	0.135	820164	keystroke_c	c	n/a
410.187	0.12	820374	keystroke_o	o	n/a
410.427	0.075	820854	keystroke_n	n	n/a
410.742	0.105	821484	keystroke_t	t	n/a
410.862	0.09	821724	keystroke_i	i	n/a
411.072	0.075	822144	keystroke_n	n	n/a
411.267	0.105	822534	keystroke_u	u	n/a
411.447	0.165	822894	keystroke_a	a	n/a
411.582	0.06	823164	keystroke_l	l	n/a
411.747	0.09	823494	keystroke_l	l	n/a
411.972	0.1195	823944	keystroke_y	y	n/a
412.0465	0.15	824093	keystroke_Key.space	Key.space	n/a
412.2415	0.105	824483	keystroke_s	s	n/a
412.4215	0.135	824843	keystroke_a	a	n/a
412.5265	0.075	825053	keystroke_i	i	n/a
412.7965	0.15	825593	keystroke_l	l	n/a
412.9765	0.09	825953	keystroke_i	i	n/a
413.1865	0.06	826373	keystroke_n	n	n/a
413.2765	0.12	826553	keystroke_g	g	n/a
413.517	0.1195	827034	keystroke_Key.enter	Key.enter	n/a
413.644	8.0655	827288	prompt	n/a	'twas motorola revenge large\n
414.5515	0.12	829103	keystroke_t	t	n/a
414.7915	0.12	829583	keystroke_w	w	n/a
415.2715	0.105	830543	keystroke_a	a	n/a
415.4215	0.135	830843	keystroke_s	s	n/a
415.8865	0.09	831773	keystroke_Key.space	Key.space	n/a
416.7865	0.09	833573	keystroke_m	m	n/a
416.9215	0.105	833843	keystroke_o	o	n/a
417.1765	0.105	834353	keystroke_t	t	n/a
417.2815	0.075	834563	keystroke_o	o	n/a
417.4165	0.12	834833	keystroke_r	r	n/a
417.5065	0.075	835013	keystroke_o	o	n/a
417.7165	0.135	835433	keystroke_l	l	n/a
417.8665	0.15	835733	keystroke_a	a	n/a
417.9865	0.09	835973	keystroke_Key.space	Key.space	n/a
418.2265	0.21	836453	keystroke_r	r	n/a
418.6315	0.12	837263	keystroke_e	e	n/a
418.8565	0.12	837713	keystroke_v	v	n/a
418.9915	0.135	837983	keystroke_e	e	n/a
419.1115	0.09	838223	keystroke_n	n	n/a
419.3065	0.105	838613	keystroke_c	c	n/a
419.5465	0.12	839093	keystroke_e	e	n/a
419.6515	0.12	839303	keystroke_Key.space	Key.space	n/a
419.8165	0.09	839633	keystroke_l	l	n/a
420.0265	0.18	840053	keystroke_a	a	n/a
420.2665	0.12	840533	keystroke_r	r	n/a
420.8665	0.09	841733	keystroke_g	g	n/a
421.0465	0.105	842093	keystroke_e	e	n/a
421.1965	0.09	842393	keystroke_Key.space	Key.space	n/a
421.6015	0.105	843203	keystroke_Key.enter	Key.enter	n/a
421.7135	9.715	843427	prompt	n/a	meetings wrote deeply soundtrack\n
422.6065	0.09	845213	keystroke_m	m	n/a
422.8315	0.075	845663	keystroke_e	e	n/a
422.9965	0.135	845993	keystroke_e	e	n/a
423.267	0.104	846534	keystroke_t	t	n/a
423.387	0.059	846774	keystroke_i	i	n/a
423.581	0.075	847162	keystroke_n	n	n/a
423.746	0.06	847492	keystroke_g	g	n/a
423.926	0.105	847852	keystroke_s	s	n/a
424.0605	0.09	848121	keystroke_Key.space	Key.space	n/a
424.2705	0.121	848541	keystroke_w	w	n/a
424.542	0.0895	849084	keystroke_r	r	n/a
424.6165	0.105	849233	keystroke_o	o	n/a
424.8265	0.091	849653	keystroke_t	t	n/a
425.1565	0.075	850313	keystroke_Key.space	Key.space	n/a
425.6365	0.09	851273	keystroke_=	=	n/a
426.1015	0.105	852203	keystroke_Key.backspace	Key.backspace	n/a
426.281	0.105	852562	keystroke_Key.backspace	Key.backspace	n/a
426.506	0.105	853012	keystroke_e	e	n/a
426.761	0.06	853522	keystroke_Key.space	Key.space	n/a
427.121	0.09	854242	keystroke_d	d	n/a
427.346	0.075	854692	keystroke_e	e	n/a
427.511	0.09	855022	keystroke_e	e	n/a
427.706	0.105	855412	keystroke_p	p	n/a
427.946	0.105	855892	keystroke_l	l	n/a
428.246	0.135	856492	keystroke_y	y	n/a
428.336	0.12	856672	keystroke_Key.space	Key.space	n/a
428.816	0.165	857632	keystroke_s	s	n/a
429.011	0.225	858022	keystroke_o	o	n/a
429.146	0.12	858292	keystroke_u	u	n/a
429.416	0.075	858832	keystroke_n	n	n/a
429.581	0.15	859162	keystroke_d	d	n/a
429.971	0.105	859942	keystroke_t	t	n/a
430.167	0.134	860334	keystroke_r	r	n/a
430.406	0.12	860812	keystroke_a	a	n/a
430.706	0.105	861412	keystroke_c	c	n/a
430.812	0.1045	861624	keystroke_k	k	n/a
431.321	0.105	862642	keystroke_Key.enter	Key.enter	n/a
431.436	8.932	862872	prompt	n/a	preferences chip screening groove\n
432.281	0.1055	864562	keystroke_p	p	n/a
432.5965	0.149	865193	keystroke_r	r	n/a
432.7305	0.165	865461	keystroke_e	e	n/a
433.4805	0.195	866961	keystroke_f	f	n/a
433.7955	0.225	867591	keystroke_e	e	n/a
433.9915	0.149	867983	keystroke_r	r	n/a
434.1865	0.149	868373	keystroke_e	e	n/a
434.3205	0.09	868641	keystroke_n	n	n/a
434.5605	0.12	869121	keystroke_c	c	n/a
434.8165	0.074	869633	keystroke_e	e	n/a
434.9955	0.135	869991	keystroke_s	s	n/a
435.1755	0.075	870351	keystroke_Key.space	Key.space	n/a
435.4005	0.166	870801	keystroke_c	c	n/a
435.6405	0.12	871281	keystroke_h	h	n/a
435.8505	0.105	871701	keystroke_i	i	n/a
436.1055	0.105	872211	keystroke_p	p	n/a
436.3455	0.12	872691	keystroke_Key.space	Key.space	n/a
436.5555	0.12	873111	keystroke_s	s	n/a
436.8255	0.18	873651	keystroke_c	c	n/a
437.1555	0.12	874311	keystroke_r	r	n/a
437.4255	0.075	874851	keystroke_e	e	n/a
437.5755	0.105	875151	keystroke_e	e	n/a
437.8305	0.09	875661	keystroke_n	n	n/a
438.0415	0.074	876083	keystroke_i	i	n/a
438.2355	0.076	876471	keystroke_n	n	n/a
438.5205	0.015	877041	keystroke_g	g	n/a
438.5505	0.06	877101	keystroke_Key.space	Key.space	n/a
438.9405	0.09	877881	keystroke_g	g	n/a
439.1655	0.09	878331	keystroke_r	r	n/a
439.2855	0.0755	878571	keystroke_o	o	n/a
439.451	0.0745	878902	keystroke_o	o	n/a
439.6605	0.165	879321	keystroke_v	v	n/a
439.8555	0.18	879711	keystroke_e	e	n/a
440.2455	0.12	880491	keystroke_Key.enter	Key.enter	n/a
440.3745	11.9035	880749	prompt	n/a	actors versus collectible oxide\n
441.191	0.12	882382	keystroke_a	a	n/a
441.4615	0.149	882923	keystroke_c	c	n/a
441.8505	0.136	883701	keystroke_t	t	n/a
442.0315	0.105	884063	keystroke_o	o	n/a
442.1965	0.12	884393	keystroke_r	r	n/a
442.4505	0.1355	884901	keystroke_s	s	n/a
442.616	0.09	885232	keystroke_Key.space	Key.space	n/a
442.9755	0.15	885951	keystroke_v	v	n/a
443.185	0.2405	886370	keystroke_e	e	n/a
443.351	0.1195	886702	keystroke_r	r	n/a
444.0255	0.09	888051	keystroke_s	s	n/a
444.1305	0.075	888261	keystroke_u	u	n/a
444.2505	0.12	888501	keystroke_s	s	n/a
445.931	0.105	891862	keystroke_Key.space	Key.space	n/a
446.156	0.15	892312	keystroke_c	c	n/a
446.245	0.106	892490	keystroke_o	o	n/a
446.486	0.06	892972	keystroke_l	l	n/a
446.636	0.09	893272	keystroke_l	l	n/a
446.8155	0.09	893631	keystroke_e	e	n/a
447.0555	0.165	894111	keystroke_c	c	n/a
447.4005	0.12	894801	keystroke_t	t	n/a
447.5055	0.091	895011	keystroke_i	i	n/a
447.8505	0.1205	895701	keystroke_b	b	n/a
448.001	0.09	896002	keystroke_l	l	n/a
448.226	0.135	896452	keystroke_e	e	n/a
449.845	0.09	899690	keystroke_Key.space	Key.space	n/a
450.055	0.075	900110	keystroke_o	o	n/a
450.37	0.1655	900740	keystroke_x	x	n/a
450.5205	0.09	901041	keystroke_i	i	n/a
450.9855	0.105	901971	keystroke_d	d	n/a
451.1955	0.12	902391	keystroke_e	e	n/a
452.1555	0.12	904311	keystroke_Key.enter	Key.enter	n/a
452.284	6.474	904568	prompt	n/a	warming feel fountain trick\n
453.0855	0.106	906171	keystroke_w	w	n/a
453.3105	0.18	906621	keystroke_a	a	n/a
453.5805	0.1055	907161	keystroke_r	r	n/a
453.745	0.091	907490	keystroke_m	m	n/a
453.956	0.074	907912	keystroke_i	i	n/a
454.151	0.074	908302	keystroke_n	n	n/a
454.255	0.12	908510	keystroke_g	g	n/a
454.4505	0.09	908901	keystroke_Key.space	Key.space	n/a
454.6905	0.12	909381	keystroke_f	f	n/a
454.9305	0.09	909861	keystroke_e	e	n/a
455.0655	0.12	910131	keystroke_e	e	n/a
455.2155	0.165	910431	keystroke_l	l	n/a
455.5005	0.15	911001	keystroke_Key.space	Key.space	n/a
455.8305	0.135	911661	keystroke_f	f	n/a
455.9955	0.195	911991	keystroke_o	o	n/a
456.1155	0.105	912231	keystroke_u	u	n/a
456.3705	0.09	912741	keystroke_n	n	n/a
456.5805	0.105	913161	keystroke_t	t	n/a
456.8055	0.105	913611	keystroke_a	a	n/a
456.9405	0.09	913881	keystroke_i	i	n/a
457.1505	0.075	914301	keystroke_n	n	n/a
457.2855	0.105	914571	keystroke_Key.space	Key.space	n/a
457.5855	0.075	915171	keystroke_t	t	n/a
457.7805	0.12	915561	keystroke_r	r	n/a
457.8705	0.105	915741	keystroke_i	i	n/a
458.1255	0.12	916251	keystroke_c	c	n/a
458.2305	0.075	916461	keystroke_k	k	n/a
458.65	0.105	917300	keystroke_Key.enter	Key.enter	n/a
458.762	6.6845	917524	prompt	n/a	computer helping those duke\n
459.8805	0.15	919761	keystroke_c	c	n/a
460.0155	0.105	920031	keystroke_o	o	n/a
460.1805	0.1355	920361	keystroke_m	m	n/a
460.6905	0.165	921381	keystroke_p	p	n/a
460.9005	0.09	921801	keystroke_u	u	n/a
461.216	0.15	922432	keystroke_t	t	n/a
461.426	0.2545	922852	keystroke_e	e	n/a
461.5905	0.135	923181	keystroke_r	r	n/a
461.7255	0.1045	923451	keystroke_Key.space	Key.space	n/a
461.936	0.074	923872	keystroke_h	h	n/a
462.055	0.136	924110	keystroke_e	e	n/a
462.161	0.105	924322	keystroke_l	l	n/a
462.4	0.0905	924800	keystroke_p	p	n/a
462.5955	0.06	925191	keystroke_i	i	n/a
462.7905	0.075	925581	keystroke_n	n	n/a
462.9705	0.12	925941	keystroke_g	g	n/a
463.1355	0.075	926271	keystroke_Key.space	Key.space	n/a
463.4505	0.135	926901	keystroke_t	t	n/a
463.5705	0.105	927141	keystroke_h	h	n/a
463.7355	0.09	927471	keystroke_o	o	n/a
463.9005	0.165	927801	keystroke_s	s	n/a
464.1405	0.135	928281	keystroke_e	e	n/a
464.3205	0.075	928641	keystroke_Key.space	Key.space	n/a
464.5455	0.12	929091	keystroke_d	d	n/a
464.6805	0.075	929361	keystroke_u	u	n/a
464.8755	0.105	929751	keystroke_k	k	n/a
465.0405	0.15	930081	keystroke_e	e	n/a
465.341	0.1035	930682	keystroke_Key.enter	Key.enter	n/a
465.4525	13.9595	930905	prompt	n/a	graduates qualities presented christians\n
466.4195	0.091	932839	keystroke_g	g	n/a
466.6305	0.1195	933261	keystroke_r	r	n/a
466.825	0.15	933650	keystroke_a	a	n/a
467.485	0.15	934970	keystroke_d	d	n/a
467.636	0.074	935272	keystroke_u	u	n/a
467.785	0.165	935570	keystroke_a	a	n/a
468.07	0.12	936140	keystroke_t	t	n/a
468.235	0.12	936470	keystroke_e	e	n/a
468.49	0.12	936980	keystroke_s	s	n/a
468.625	0.09	937250	keystroke_Key.space	Key.space	n/a
468.8495	0.136	937699	keystroke_q	q	n/a
469.0005	0.105	938001	keystroke_u	u	n/a
469.3905	0.195	938781	keystroke_a	a	n/a
469.5705	0.12	939141	keystroke_l	l	n/a
469.8245	0.12	939649	keystroke_i	i	n/a
470.845	0.12	941690	keystroke_t	t	n/a
470.935	0.09	941870	keystroke_i	i	n/a
471.07	0.135	942140	keystroke_e	e	n/a
471.31	0.105	942620	keystroke_s	s	n/a
471.4295	0.0905	942859	keystroke_Key.space	Key.space	n/a
471.6695	0.075	943339	keystroke_p	p	n/a
471.8795	0.195	943759	keystroke_e	e	n/a
471.9845	0.195	943969	keystroke_r	r	n/a
472.8705	0.12	945741	keystroke_=	=	n/a
473.935	0.15	947870	keystroke_Key.backspace	Key.backspace	n/a
474.355	0.105	948710	keystroke_Key.backspace	Key.backspace	n/a
474.745	0.105	949490	keystroke_Key.backspace	Key.backspace	n/a
475.181	0.134	950362	keystroke_r	r	n/a
475.42	0.12	950840	keystroke_e	e	n/a
475.69	0.135	951380	keystroke_s	s	n/a
475.9	0.135	951800	keystroke_e	e	n/a
476.02	0.09	952040	keystroke_n	n	n/a
476.26	0.12	952520	keystroke_t	t	n/a
476.425	0.12	952850	keystroke_e	e	n/a
476.65	0.15	953300	keystroke_d	d	n/a
476.815	0.06	953630	keystroke_Key.space	Key.space	n/a
476.995	0.15	953990	keystroke_c	c	n/a
477.115	0.09	954230	keystroke_h	h	n/a
477.64	0.135	955280	keystroke_r	r	n/a
477.76	0.075	955520	keystroke_i	i	n/a
477.895	0.15	955790	keystroke_s	s	n/a
478.255	0.12	956510	keystroke_t	t	n/a
478.39	0.075	956780	keystroke_i	i	n/a
478.645	0.12	957290	keystroke_a	a	n/a
478.75	0.09	957500	keystroke_n	n	n/a
478.915	0.105	957830	keystroke_s	s	n/a
479.29	0.12	958580	keystroke_Key.enter	Key.enter	n/a
479.418	10.179	958836	prompt	n/a	owned fridge instruments shops\n
480.55	0.075	961100	keystroke_o	o	n/a
480.685	0.105	961370	keystroke_w	w	n/a
480.94	0.0745	961880	keystroke_n	n	n/a
481.1945	0.1795	962389	keystroke_e	e	n/a
481.5245	0.135	963049	keystroke_d	d	n/a
481.6745	0.075	963349	keystroke_Key.space	Key.space	n/a
481.9295	0.09	963859	keystroke_f	f	n/a
482.1245	0.09	964249	keystroke_r	r	n/a
482.186	0.0735	964372	keystroke_i	i	n/a
482.3795	0.15	964759	keystroke_d	d	n/a
482.6345	0.165	965269	keystroke_g	g	n/a
482.7545	0.165	965509	keystroke_e	e	n/a
482.9345	0.06	965869	keystroke_Key.space	Key.space	n/a
483.0995	0.09	966199	keystroke_i	i	n/a
483.3095	0.075	966619	keystroke_n	n	n/a
483.4145	0.1355	966829	keystroke_s	s	n/a
483.6695	0.09	967339	keystroke_t	t	n/a
483.8345	0.135	967669	keystroke_r	r	n/a
483.9695	0.0755	967939	keystroke_u	u	n/a
484.1945	0.15	968389	keystroke_c	c	n/a
485.7695	0.09	971539	keystroke_=	=	n/a
486.3995	0.105	972799	keystroke_Key.backspace	Key.backspace	n/a
486.6395	0.12	973279	keystroke_Key.backspace	Key.backspace	n/a
487.1945	0.15	974389	keystroke_m	m	n/a
487.2095	0.06	974419	keystroke_j	j	n/a
487.5395	0.1355	975079	keystroke_e	e	n/a
487.6605	0.074	975321	keystroke_n	n	n/a
487.8095	0.09	975619	keystroke_t	t	n/a
488.0055	0.134	976011	keystroke_s	s	n/a
488.1545	0.075	976309	keystroke_Key.space	Key.space	n/a
488.3945	0.135	976789	keystroke_s	s	n/a
488.5595	0.12	977119	keystroke_h	h	n/a
488.6345	0.195	977269	keystroke_o	o	n/a
488.8145	0.105	977629	keystroke_p	p	n/a
488.98	0.165	977960	keystroke_s	s	n/a
489.46	0.135	978920	keystroke_Key.enter	Key.enter	n/a
489.6035	8.2885	979207	prompt	n/a	hourly combining hidden programme\n
490.495	0.12	980990	keystroke_h	h	n/a
490.645	0.1795	981290	keystroke_o	o	n/a
490.75	0.1355	981500	keystroke_u	u	n/a
490.9445	0.12	981889	keystroke_r	r	n/a
491.095	0.1045	982190	keystroke_l	l	n/a
491.365	0.075	982730	keystroke_y	y	n/a
491.515	0.105	983030	keystroke_Key.space	Key.space	n/a
492.386	0.12	984772	keystroke_c	c	n/a
492.805	0.076	985610	keystroke_o	o	n/a
493.0145	0.075	986029	keystroke_m	m	n/a
493.2855	0.104	986571	keystroke_b	b	n/a
493.3745	0.075	986749	keystroke_i	i	n/a
493.6145	0.091	987229	keystroke_n	n	n/a
493.8105	0.075	987621	keystroke_i	i	n/a
493.9745	0.075	987949	keystroke_n	n	n/a
494.1105	0.119	988221	keystroke_g	g	n/a
494.2595	0.09	988519	keystroke_Key.space	Key.space	n/a
494.5445	0.075	989089	keystroke_h	h	n/a
494.7245	0.075	989449	keystroke_i	i	n/a
495.2195	0.091	990439	keystroke_d	d	n/a
495.3855	0.104	990771	keystroke_d	d	n/a
495.5795	0.12	991159	keystroke_e	e	n/a
495.7145	0.136	991429	keystroke_n	n	n/a
495.8195	0.105	991639	keystroke_Key.space	Key.space	n/a
496.0145	0.076	992029	keystroke_p	p	n/a
496.1655	0.12	992331	keystroke_r	r	n/a
496.2555	0.089	992511	keystroke_o	o	n/a
496.4945	0.091	992989	keystroke_g	g	n/a
496.7045	0.09	993409	keystroke_r	r	n/a
496.8855	0.135	993771	keystroke_a	a	n/a
497.1555	0.059	994311	keystroke_m	m	n/a
497.2755	0.105	994551	keystroke_m	m	n/a
497.4105	0.134	994821	keystroke_e	e	n/a
497.7705	0.119	995541	keystroke_Key.enter	Key.enter	n/a
497.8985	6.88	995797	prompt	n/a	one fitted forced relevant\n
498.6705	0.075	997341	keystroke_o	o	n/a
498.8355	0.105	997671	keystroke_n	n	n/a
498.9705	0.134	997941	keystroke_e	e	n/a
499.1195	0.091	998239	keystroke_Key.space	Key.space	n/a
499.2695	0.151	998539	keystroke_f	f	n/a
499.3755	0.075	998751	keystroke_i	i	n/a
499.6305	0.075	999261	keystroke_t	t	n/a
499.7505	0.119	999501	keystroke_t	t	n/a
499.9445	0.091	999889	keystroke_e	e	n/a
500.1705	0.149	1000341	keystroke_d	d	n/a
500.3205	0.104	1000641	keystroke_Key.space	Key.space	n/a
500.6205	0.135	1001241	keystroke_f	f	n/a
500.7405	0.075	1001481	keystroke_o	o	n/a
500.9055	0.09	1001811	keystroke_r	r	n/a
501.1605	0.135	1002321	keystroke_c	c	n/a
501.4305	0.105	1002861	keystroke_e	e	n/a
501.6555	0.135	1003311	keystroke_d	d	n/a
501.8055	0.089	1003611	keystroke_Key.space	Key.space	n/a
502.0905	0.15	1004181	keystroke_r	r	n/a
502.4955	0.15	1004991	keystroke_e	e	n/a
502.8255	0.135	1005651	keystroke_l	l	n/a
502.9905	0.135	1005981	keystroke_e	e	n/a
503.3205	0.135	1006641	keystroke_v	v	n/a
503.8155	0.12	1007631	keystroke_a	a	n/a
503.9655	0.105	1007931	keystroke_n	n	n/a
504.1755	0.105	1008351	keystroke_t	t	n/a
504.6555	0.119	1009311	keystroke_Key.enter	Key.enter	n/a
504.7865	8.946	1009573	prompt	n/a	corp implemented consistency mins\n
505.6455	0.21	1011291	keystroke_c	c	n/a
505.8995	0.12	1011799	keystroke_o	o	n/a
506.1405	0.135	1012281	keystroke_r	r	n/a
506.3355	0.104	1012671	keystroke_p	p	n/a
506.5605	0.0885	1013121	keystroke_Key.space	Key.space	n/a
506.769	0.075	1013538	keystroke_i	i	n/a
506.9645	0.136	1013929	keystroke_m	m	n/a
507.1905	0.105	1014381	keystroke_p	p	n/a
507.4305	0.134	1014861	keystroke_l	l	n/a
507.7455	0.135	1015491	keystroke_e	e	n/a
508.0755	0.135	1016151	keystroke_m	m	n/a
508.2405	0.179	1016481	keystroke_e	e	n/a
508.3895	0.091	1016779	keystroke_n	n	n/a
508.5705	0.12	1017141	keystroke_t	t	n/a
508.7495	0.12	1017499	keystroke_e	e	n/a
508.9895	0.121	1017979	keystroke_d	d	n/a
509.1245	0.09	1018249	keystroke_Key.space	Key.space	n/a
509.4255	0.149	1018851	keystroke_c	c	n/a
509.5145	0.091	1019029	keystroke_o	o	n/a
510.4445	0.136	1020889	keystroke_n	n	n/a
510.6555	0.089	1021311	keystroke_s	s	n/a
510.7605	0.09	1021521	keystroke_i	i	n/a
510.8805	0.135	1021761	keystroke_s	s	n/a
511.6445	0.121	1023289	keystroke_t	t	n/a
511.8555	0.135	1023711	keystroke_e	e	n/a
512.0055	0.075	1024011	keystroke_n	n	n/a
512.2455	0.12	1024491	keystroke_c	c	n/a
512.4695	0.091	1024939	keystroke_y	y	n/a
512.5905	0.134	1025181	keystroke_Key.space	Key.space	n/a
512.8905	0.09	1025781	keystroke_m	m	n/a
513.0855	0.06	1026171	keystroke_i	i	n/a
513.2505	0.06	1026501	keystroke_n	n	n/a
513.3555	0.105	1026711	keystroke_s	s	n/a
513.6105	0.12	1027221	keystroke_Key.enter	Key.enter	n/a
513.739	7.0275	1027478	prompt	n/a	introduce anime rules hotmail\n
514.6005	0.075	1029201	keystroke_i	i	n/a
514.7955	0.089	1029591	keystroke_n	n	n/a
514.9305	0.105	1029861	keystroke_s	s	n/a
515.1405	0.09	1030281	keystroke_t	t	n/a
515.3055	0.12	1030611	keystroke_r	r	n/a
515.3945	0.09	1030789	keystroke_o	o	n/a
515.8455	0.105	1031691	keystroke_d	d	n/a
515.9655	0.09	1031931	keystroke_u	u	n/a
516.1155	0.12	1032231	keystroke_c	c	n/a
516.3695	0.121	1032739	keystroke_e	e	n/a
516.5205	0.089	1033041	keystroke_Key.space	Key.space	n/a
516.9705	0.12	1033941	keystroke_a	a	n/a
517.3145	0.076	1034629	keystroke_n	n	n/a
517.4955	0.09	1034991	keystroke_i	i	n/a
517.7055	0.09	1035411	keystroke_m	m	n/a
517.8405	0.15	1035681	keystroke_e	e	n/a
518.0195	0.075	1036039	keystroke_Key.space	Key.space	n/a
518.2745	0.135	1036549	keystroke_r	r	n/a
518.3955	0.074	1036791	keystroke_u	u	n/a
518.5895	0.091	1037179	keystroke_l	l	n/a
518.7405	0.105	1037481	keystroke_e	e	n/a
518.9505	0.164	1037901	keystroke_s	s	n/a
519.1005	0.089	1038201	keystroke_Key.space	Key.space	n/a
519.2945	0.15	1038589	keystroke_h	h	n/a
519.4155	0.134	1038831	keystroke_o	o	n/a
519.6255	0.134	1039251	keystroke_t	t	n/a
519.8495	0.105	1039699	keystroke_m	m	n/a
520.0605	0.12	1040121	keystroke_a	a	n/a
520.1055	0.075	1040211	keystroke_i	i	n/a
520.2995	0.061	1040599	keystroke_l	l	n/a
520.6445	0.12	1041289	keystroke_Key.enter	Key.enter	n/a
520.7725	9.189	1041545	prompt	n/a	renewable validity contracting faces\n
521.9655	0.135	1043931	keystroke_r	r	n/a
522.1605	0.105	1044321	keystroke_e	e	n/a
522.3705	0.075	1044741	keystroke_n	n	n/a
522.5055	0.18	1045011	keystroke_e	e	n/a
522.6105	0.195	1045221	keystroke_w	w	n/a
523.0005	0.135	1046001	keystroke_a	a	n/a
523.2695	0.106	1046539	keystroke_b	b	n/a
523.4055	0.09	1046811	keystroke_l	l	n/a
523.5555	0.12	1047111	keystroke_e	e	n/a
523.6445	0.091	1047289	keystroke_Key.space	Key.space	n/a
523.8855	0.105	1047771	keystroke_v	v	n/a
524.0655	0.135	1048131	keystroke_a	a	n/a
524.665	0.09	1049330	keystroke_l	l	n/a
524.83	0.09	1049660	keystroke_i	i	n/a
525.025	0.15	1050050	keystroke_d	d	n/a
525.13	0.09	1050260	keystroke_i	i	n/a
525.475	0.105	1050950	keystroke_t	t	n/a
525.595	0.075	1051190	keystroke_y	y	n/a
525.79	0.12	1051580	keystroke_Key.space	Key.space	n/a
526.089	0.181	1052178	keystroke_c	c	n/a
526.225	0.075	1052450	keystroke_o	o	n/a
526.435	0.075	1052870	keystroke_n	n	n/a
526.735	0.135	1053470	keystroke_t	t	n/a
527.005	0.134	1054010	keystroke_r	r	n/a
527.215	0.165	1054430	keystroke_a	a	n/a
527.56	0.134	1055120	keystroke_c	c	n/a
527.86	0.12	1055720	keystroke_t	t	n/a
527.964	0.061	1055928	keystroke_i	i	n/a
528.145	0.075	1056290	keystroke_n	n	n/a
528.265	0.12	1056530	keystroke_g	g	n/a
528.4	0.06	1056800	keystroke_Key.space	Key.space	n/a
528.595	0.12	1057190	keystroke_f	f	n/a
528.88	0.12	1057760	keystroke_a	a	n/a
529.12	0.12	1058240	keystroke_c	c	n/a
529.39	0.09	1058780	keystroke_e	e	n/a
529.555	0.135	1059110	keystroke_s	s	n/a
529.84	0.12	1059680	keystroke_Key.enter	Key.enter	n/a
529.969	11.6025	1059938	prompt	n/a	wing neural bird defensive\n
530.7695	0.091	1061539	keystroke_w	w	n/a
530.8745	0.075	1061749	keystroke_i	i	n/a
531.0695	0.09	1062139	keystroke_n	n	n/a
531.2345	0.105	1062469	keystroke_g	g	n/a
531.3995	0.075	1062799	keystroke_Key.space	Key.space	n/a
531.5945	0.09	1063189	keystroke_n	n	n/a
531.8045	0.105	1063609	keystroke_e	e	n/a
531.9995	0.06	1063999	keystroke_u	u	n/a
533.0805	0.119	1066161	keystroke_a	a	n/a
533.2295	0.075	1066459	keystroke_l	l	n/a
535.828	0.087	1071656	keystroke_Key.backspace	Key.backspace	n/a
536.1995	0.105	1072399	keystroke_Key.backspace	Key.backspace	n/a
536.605	0.105	1073210	keystroke_r	r	n/a
536.83	0.12	1073660	keystroke_a	a	n/a
537.025	0.09	1074050	keystroke_l	l	n/a
537.265	0.09	1074530	keystroke_Key.space	Key.space	n/a
537.745	0.105	1075490	keystroke_b	b	n/a
537.865	0.105	1075730	keystroke_i	i	n/a
538.03	0.06	1076060	keystroke_r	r	n/a
538.54	0.105	1077080	keystroke_d	d	n/a
538.675	0.105	1077350	keystroke_Key.space	Key.space	n/a
539.4095	0.105	1078819	keystroke_d	d	n/a
539.6045	0.105	1079209	keystroke_e	e	n/a
539.8895	0.105	1079779	keystroke_f	f	n/a
540.0245	0.15	1080049	keystroke_e	e	n/a
540.1595	0.075	1080319	keystroke_n	n	n/a
540.3995	0.12	1080799	keystroke_s	s	n/a
540.5345	0.075	1081069	keystroke_i	i	n/a
540.7595	0.12	1081519	keystroke_v	v	n/a
540.9095	0.195	1081819	keystroke_e	e	n/a
541.4645	0.105	1082929	keystroke_Key.enter	Key.enter	n/a
541.577	6.3845	1083154	prompt	n/a	string emotional dash nelson\n
542.3795	0.135	1084759	keystroke_s	s	n/a
542.6795	0.075	1085359	keystroke_t	t	n/a
542.8445	0.105	1085689	keystroke_r	r	n/a
542.9195	0.075	1085839	keystroke_i	i	n/a
543.1295	0.06	1086259	keystroke_n	n	n/a
543.2945	0.105	1086589	keystroke_g	g	n/a
543.4295	0.075	1086859	keystroke_Key.space	Key.space	n/a
543.6395	0.105	1087279	keystroke_e	e	n/a
543.8645	0.105	1087729	keystroke_m	m	n/a
544.0445	0.075	1088089	keystroke_o	o	n/a
544.3145	0.135	1088629	keystroke_t	t	n/a
544.4795	0.075	1088959	keystroke_i	i	n/a
544.6895	0.075	1089379	keystroke_o	o	n/a
544.8995	0.075	1089799	keystroke_n	n	n/a
545.1245	0.135	1090249	keystroke_a	a	n/a
545.2895	0.075	1090579	keystroke_l	l	n/a
545.4545	0.09	1090909	keystroke_Key.space	Key.space	n/a
545.6195	0.15	1091239	keystroke_d	d	n/a
545.8145	0.135	1091629	keystroke_a	a	n/a
546.01	0.1495	1092020	keystroke_s	s	n/a
546.1745	0.09	1092349	keystroke_h	h	n/a
546.3545	0.09	1092709	keystroke_Key.space	Key.space	n/a
546.5495	0.105	1093099	keystroke_n	n	n/a
546.6995	0.135	1093399	keystroke_e	e	n/a
546.8795	0.09	1093759	keystroke_l	l	n/a
547.0745	0.15	1094149	keystroke_s	s	n/a
547.2395	0.075	1094479	keystroke_o	o	n/a
547.4345	0.075	1094869	keystroke_n	n	n/a
547.5545	0.075	1095109	keystroke_Key.space	Key.space	n/a
547.8545	0.105	1095709	keystroke_Key.enter	Key.enter	n/a
547.967	10.331	1095934	prompt	n/a	contamination beverages adjusted bangkok\n
548.9645	0.165	1097929	keystroke_c	c	n/a
549.0845	0.075	1098169	keystroke_o	o	n/a
549.28	0.075	1098560	keystroke_n	n	n/a
549.49	0.105	1098980	keystroke_t	t	n/a
549.685	0.135	1099370	keystroke_a	a	n/a
549.82	0.105	1099640	keystroke_m	m	n/a
550	0.06	1100000	keystroke_i	i	n/a
550.15	0.075	1100300	keystroke_n	n	n/a
550.315	0.135	1100630	keystroke_a	a	n/a
550.615	0.105	1101230	keystroke_t	t	n/a
550.735	0.075	1101470	keystroke_i	i	n/a
550.93	0.09	1101860	keystroke_o	o	n/a
551.155	0.075	1102310	keystroke_n	n	n/a
551.335	0.045	1102670	keystroke_Key.space	Key.space	n/a
551.725	0.09	1103450	keystroke_b	b	n/a
551.905	0.105	1103810	keystroke_e	e	n/a
552.16	0.135	1104320	keystroke_v	v	n/a
552.31	0.24	1104620	keystroke_e	e	n/a
552.475	0.135	1104950	keystroke_r	r	n/a
552.76	0.15	1105520	keystroke_a	a	n/a
553.045	0.15	1106090	keystroke_g	g	n/a
553.21	0.12	1106420	keystroke_e	e	n/a
553.435	0.135	1106870	keystroke_s	s	n/a
553.585	0.105	1107170	keystroke_Key.space	Key.space	n/a
553.765	0.15	1107530	keystroke_a	a	n/a
553.975	0.12	1107950	keystroke_d	d	n/a
554.32	0.075	1108640	keystroke_j	j	n/a
554.5	0.09	1109000	keystroke_u	u	n/a
554.77	0.135	1109540	keystroke_s	s	n/a
555.025	0.12	1110050	keystroke_t	t	n/a
555.16	0.135	1110320	keystroke_e	e	n/a
555.415	0.12	1110830	keystroke_d	d	n/a
555.535	0.104	1111070	keystroke_Key.space	Key.space	n/a
556.075	0.09	1112150	keystroke_b	b	n/a
556.24	0.15	1112480	keystroke_a	a	n/a
556.36	0.09	1112720	keystroke_n	n	n/a
556.915	0.105	1113830	keystroke_g	g	n/a
557.29	0.09	1114580	keystroke_k	k	n/a
557.531	0.089	1115062	keystroke_o	o	n/a
557.74	0.09	1115480	keystroke_k	k	n/a
558.22	0.0745	1116440	keystroke_Key.enter	Key.enter	n/a
558.304	10.223	1116608	prompt	n/a	growing freebsd hundred expenditure\n
559.1645	0.09	1118329	keystroke_g	g	n/a
559.4055	0.119	1118811	keystroke_r	r	n/a
559.5545	0.076	1119109	keystroke_o	o	n/a
559.7055	0.089	1119411	keystroke_w	w	n/a
559.8095	0.06	1119619	keystroke_i	i	n/a
559.9895	0.075	1119979	keystroke_n	n	n/a
560.1105	0.12	1120221	keystroke_g	g	n/a
560.2745	0.06	1120549	keystroke_Key.space	Key.space	n/a
560.4695	0.105	1120939	keystroke_f	f	n/a
560.6805	0.119	1121361	keystroke_r	r	n/a
560.9345	0.076	1121869	keystroke_e	e	n/a
561.0995	0.09	1122199	keystroke_e	e	n/a
561.82	0.135	1123640	keystroke_b	b	n/a
562.315	0.18	1124630	keystroke_s	s	n/a
563.155	0.135	1126310	keystroke_d	d	n/a
564.25	0.135	1128500	keystroke_Key.space	Key.space	n/a
564.64	0.105	1129280	keystroke_h	h	n/a
564.85	0.09	1129700	keystroke_u	u	n/a
565.09	0.075	1130180	keystroke_n	n	n/a
565.225	0.1355	1130450	keystroke_d	d	n/a
565.4945	0.15	1130989	keystroke_r	r	n/a
565.6305	0.164	1131261	keystroke_e	e	n/a
565.8855	0.12	1131771	keystroke_d	d	n/a
566.0195	0.075	1132039	keystroke_Key.space	Key.space	n/a
566.2145	0.075	1132429	keystroke_e	e	n/a
566.4555	0.164	1132911	keystroke_x	x	n/a
566.6945	0.075	1133389	keystroke_p	p	n/a
566.8745	0.15	1133749	keystroke_e	e	n/a
567.0255	0.074	1134051	keystroke_n	n	n/a
567.2195	0.15	1134439	keystroke_d	d	n/a
567.3545	0.06	1134709	keystroke_i	i	n/a
567.6395	0.105	1135279	keystroke_t	t	n/a
567.7455	0.074	1135491	keystroke_u	u	n/a
567.8945	0.165	1135789	keystroke_r	r	n/a
567.9995	0.195	1135999	keystroke_e	e	n/a
568.4195	0.105	1136839	keystroke_Key.enter	Key.enter	n/a
568.5325	12.4895	1137065	prompt	n/a	privilege hampshire institute ranger\n
569.485	0.09	1138970	keystroke_p	p	n/a
569.71	0.12	1139420	keystroke_r	r	n/a
569.815	0.105	1139630	keystroke_i	i	n/a
570.04	0.135	1140080	keystroke_v	v	n/a
570.19	0.045	1140380	keystroke_i	i	n/a
571.165	0.105	1142330	keystroke_l	l	n/a
571.39	0.12	1142780	keystroke_e	e	n/a
571.705	0.15	1143410	keystroke_g	g	n/a
571.87	0.135	1143740	keystroke_e	e	n/a
572.02	0.09	1144040	keystroke_Key.space	Key.space	n/a
572.455	0.09	1144910	keystroke_h	h	n/a
572.65	0.165	1145300	keystroke_a	a	n/a
572.785	0.09	1145570	keystroke_m	m	n/a
572.9795	0.0755	1145959	keystroke_p	p	n/a
573.22	0.135	1146440	keystroke_s	s	n/a
573.55	0.09	1147100	keystroke_h	h	n/a
573.715	0.09	1147430	keystroke_i	i	n/a
573.895	0.18	1147790	keystroke_r	r	n/a
574.015	0.195	1148030	keystroke_e	e	n/a
574.195	0.09	1148390	keystroke_Key.space	Key.space	n/a
574.375	0.15	1148750	keystroke_i	i	n/a
574.705	0.09	1149410	keystroke_n	n	n/a
574.945	0.165	1149890	keystroke_s	s	n/a
575.32	0.135	1150640	keystroke_t	t	n/a
575.44	0.09	1150880	keystroke_i	i	n/a
575.77	0.12	1151540	keystroke_t	t	n/a
575.875	0.075	1151750	keystroke_u	u	n/a
576.085	0.105	1152170	keystroke_e	e	n/a
577.135	0.105	1154270	keystroke_=	=	n/a
577.81	0.075	1155620	keystroke_Key.backspace	Key.backspace	n/a
578.215	0.105	1156430	keystroke_Key.backspace	Key.backspace	n/a
578.545	0.12	1157090	keystroke_t	t	n/a
578.725	0.15	1157450	keystroke_e	e	n/a
578.89	0.09	1157780	keystroke_Key.space	Key.space	n/a
579.745	0.105	1159490	keystroke_r	r	n/a
579.925	0.15	1159850	keystroke_a	a	n/a
580.09	0.06	1160180	keystroke_n	n	n/a
580.3	0.1345	1160600	keystroke_g	g	n/a
580.4495	0.24	1160899	keystroke_e	e	n/a
580.6145	0.15	1161229	keystroke_r	r	n/a
580.9145	0.105	1161829	keystroke_Key.enter	Key.enter	n/a
581.0325	10.9995	1162065	prompt	n/a	feedback desirable unavailable courts\n
582.0545	0.12	1164109	keystroke_f	f	n/a
582.2945	0.075	1164589	keystroke_e	e	n/a
582.4295	0.105	1164859	keystroke_e	e	n/a
582.6845	0.15	1165369	keystroke_d	d	n/a
583.0895	0.12	1166179	keystroke_b	b	n/a
583.2845	0.135	1166569	keystroke_a	a	n/a
583.5845	0.105	1167169	keystroke_c	c	n/a
583.7345	0.06	1167469	keystroke_k	k	n/a
583.8995	0.09	1167799	keystroke_Key.space	Key.space	n/a
584.1095	0.105	1168219	keystroke_d	d	n/a
584.6795	0.075	1169359	keystroke_e	e	n/a
584.8745	0.12	1169749	keystroke_s	s	n/a
585.0095	0.075	1170019	keystroke_i	i	n/a
585.4145	0.12	1170829	keystroke_r	r	n/a
585.6845	0.12	1171369	keystroke_a	a	n/a
586.0445	0.06	1172089	keystroke_b	b	n/a
586.1495	0.075	1172299	keystroke_l	l	n/a
586.3295	0.12	1172659	keystroke_e	e	n/a
586.4345	0.075	1172869	keystroke_Key.space	Key.space	n/a
586.6595	0.09	1173319	keystroke_a	a	n/a
587.6645	0.105	1175329	keystroke_Key.backspace	Key.backspace	n/a
588.0395	0.075	1176079	keystroke_u	u	n/a
588.2795	0.015	1176559	keystroke_n	n	n/a
588.4295	0.105	1176859	keystroke_a	a	n/a
588.7745	0.105	1177549	keystroke_v	v	n/a
588.9995	0.12	1177999	keystroke_a	a	n/a
589.1345	0.09	1178269	keystroke_i	i	n/a
589.3445	0.105	1178689	keystroke_l	l	n/a
589.6295	0.12	1179259	keystroke_a	a	n/a
589.9145	0.09	1179829	keystroke_b	b	n/a
590.0195	0.105	1180039	keystroke_l	l	n/a
590.2295	0.09	1180459	keystroke_e	e	n/a
590.3345	0.09	1180669	keystroke_Key.space	Key.space	n/a
590.5745	0.195	1181149	keystroke_c	c	n/a
590.7395	0.1795	1181479	keystroke_o	o	n/a
590.8595	0.1195	1181719	keystroke_u	u	n/a
591.069	0.0895	1182138	keystroke_r	r	n/a
591.2485	0.091	1182497	keystroke_t	t	n/a
591.4595	0.12	1182919	keystroke_s	s	n/a
591.9245	0.105	1183849	keystroke_Key.enter	Key.enter	n/a
592.0375	10.959	1184075	prompt	n/a	scheduling voluntary pickup develops\n
592.7945	0.105	1185589	keystroke_s	s	n/a
593.0495	0.135	1186099	keystroke_c	c	n/a
593.1995	0.105	1186399	keystroke_h	h	n/a
593.3495	0.09	1186699	keystroke_e	e	n/a
593.5895	0.15	1187179	keystroke_d	d	n/a
593.7095	0.075	1187419	keystroke_u	u	n/a
593.9345	0.075	1187869	keystroke_l	l	n/a
594.0995	0.06	1188199	keystroke_i	i	n/a
594.2945	0.06	1188589	keystroke_n	n	n/a
594.4145	0.12	1188829	keystroke_g	g	n/a
594.5645	0.075	1189129	keystroke_Key.space	Key.space	n/a
595.1195	0.135	1190239	keystroke_v	v	n/a
595.2395	0.075	1190479	keystroke_o	o	n/a
595.4345	0.09	1190869	keystroke_l	l	n/a
595.6445	0.075	1191289	keystroke_u	u	n/a
595.8695	0.075	1191739	keystroke_n	n	n/a
596.1695	0.105	1192339	keystroke_t	t	n/a
596.4245	0.225	1192849	keystroke_a	a	n/a
596.7695	0.105	1193539	keystroke_r	r	n/a
596.9045	0.09	1193809	keystroke_y	y	n/a
597.0995	0.135	1194199	keystroke_Key.space	Key.space	n/a
597.4595	0.075	1194919	keystroke_p	p	n/a
597.6695	0.09	1195339	keystroke_i	i	n/a
597.9245	0.135	1195849	keystroke_c	c	n/a
598.0445	0.135	1196089	keystroke_k	k	n/a
598.5245	0.09	1197049	keystroke_u	u	n/a
598.6745	0.105	1197349	keystroke_p	p	n/a
598.8845	0.105	1197769	keystroke_Key.space	Key.space	n/a
599.1095	0.075	1198219	keystroke_d	d	n/a
599.2895	0.105	1198579	keystroke_e	e	n/a
599.5295	0.105	1199059	keystroke_v	v	n/a
599.6795	0.135	1199359	keystroke_e	e	n/a
599.7995	0.09	1199599	keystroke_l	l	n/a
600.0395	0.09	1200079	keystroke_p	p	n/a
601.089	0.075	1202178	keystroke_Key.backspace	Key.backspace	n/a
601.5995	0.03	1203199	keystroke_o	o	n/a
602.1095	0.09	1204219	keystroke_p	p	n/a
602.2745	0.105	1204549	keystroke_s	s	n/a
602.8595	0.135	1205719	keystroke_Key.enter	Key.enter	n/a
603.0025	8.814	1206005	prompt	n/a	peterson specify idea calculate\n
604.0445	0.06	1208089	keystroke_p	p	n/a
604.1645	0.105	1208329	keystroke_e	e	n/a
604.45	0.134	1208900	keystroke_t	t	n/a
604.585	0.195	1209170	keystroke_e	e	n/a
604.719	0.12	1209438	keystroke_r	r	n/a
604.989	0.091	1209978	keystroke_s	s	n/a
605.095	0.075	1210190	keystroke_o	o	n/a
605.305	0.075	1210610	keystroke_n	n	n/a
605.53	0.074	1211060	keystroke_Key.space	Key.space	n/a
605.889	0.225	1211778	keystroke_s	s	n/a
606.85	0.075	1213700	keystroke_p	p	n/a
606.984	0.135	1213968	keystroke_e	e	n/a
607.539	0.165	1215078	keystroke_c	c	n/a
607.645	0.089	1215290	keystroke_i	i	n/a
607.93	0.134	1215860	keystroke_f	f	n/a
608.109	0.075	1216218	keystroke_y	y	n/a
608.244	0.12	1216488	keystroke_Key.space	Key.space	n/a
608.47	0.089	1216940	keystroke_i	i	n/a
608.65	0.105	1217300	keystroke_d	d	n/a
608.86	0.12	1217720	keystroke_e	e	n/a
609.115	0.135	1218230	keystroke_a	a	n/a
609.264	0.09	1218528	keystroke_Key.space	Key.space	n/a
609.564	0.1355	1219128	keystroke_c	c	n/a
609.8495	0.105	1219699	keystroke_a	a	n/a
609.9845	0.12	1219969	keystroke_l	l	n/a
610.4645	0.15	1220929	keystroke_c	c	n/a
610.5845	0.09	1221169	keystroke_u	u	n/a
610.7945	0.09	1221589	keystroke_l	l	n/a
610.9895	0.165	1221979	keystroke_a	a	n/a
611.3045	0.135	1222609	keystroke_t	t	n/a
611.4545	0.15	1222909	keystroke_e	e	n/a
611.6945	0.12	1223389	keystroke_Key.enter	Key.enter	n/a
611.8225	7.6135	1223645	prompt	n/a	counting released chronic winner\n
612.6845	0.135	1225369	keystroke_c	c	n/a
612.9545	0.18	1225909	keystroke_o	o	n/a
613.1045	0.12	1226209	keystroke_u	u	n/a
613.3895	0.075	1226779	keystroke_n	n	n/a
613.6295	0.105	1227259	keystroke_t	t	n/a
613.7495	0.06	1227499	keystroke_i	i	n/a
613.9145	0.09	1227829	keystroke_n	n	n/a
614.0795	0.105	1228159	keystroke_g	g	n/a
614.2295	0.09	1228459	keystroke_Key.space	Key.space	n/a
614.4845	0.135	1228969	keystroke_r	r	n/a
614.6345	0.15	1229269	keystroke_e	e	n/a
614.7695	0.09	1229539	keystroke_l	l	n/a
614.8895	0.15	1229779	keystroke_e	e	n/a
615.0845	0.18	1230169	keystroke_a	a	n/a
615.2345	0.18	1230469	keystroke_s	s	n/a
615.4745	0.105	1230949	keystroke_e	e	n/a
615.6845	0.135	1231369	keystroke_d	d	n/a
615.8045	0.075	1231609	keystroke_Key.space	Key.space	n/a
616.0295	0.165	1232059	keystroke_c	c	n/a
616.1345	0.105	1232269	keystroke_h	h	n/a
616.3595	0.135	1232719	keystroke_r	r	n/a
616.4495	0.09	1232899	keystroke_o	o	n/a
617.3345	0.06	1234669	keystroke_n	n	n/a
617.4995	0.075	1234999	keystroke_i	i	n/a
617.6495	0.15	1235299	keystroke_c	c	n/a
617.8295	0.06	1235659	keystroke_Key.space	Key.space	n/a
618.3245	0.12	1236649	keystroke_w	w	n/a
618.4145	0.075	1236829	keystroke_i	i	n/a
618.6395	0.045	1237279	keystroke_n	n	n/a
618.7595	0.09	1237519	keystroke_n	n	n/a
618.9545	0.18	1237909	keystroke_e	e	n/a
619.1195	0.12	1238239	keystroke_r	r	n/a
619.3295	0.105	1238659	keystroke_Key.enter	Key.enter	n/a
619.441	6.6415	1238882	prompt	n/a	consensus editions pulled skills\n
620.2745	0.135	1240549	keystroke_c	c	n/a
620.3795	0.09	1240759	keystroke_o	o	n/a
620.5745	0.09	1241149	keystroke_n	n	n/a
620.7095	0.09	1241419	keystroke_s	s	n/a
620.9495	0.135	1241899	keystroke_e	e	n/a
621.0995	0.09	1242199	keystroke_n	n	n/a
621.2945	0.12	1242589	keystroke_s	s	n/a
621.4295	0.075	1242859	keystroke_u	u	n/a
621.5945	0.15	1243189	keystroke_s	s	n/a
621.7595	0.075	1243519	keystroke_Key.space	Key.space	n/a
622.1045	0.09	1244209	keystroke_e	e	n/a
622.3445	0.165	1244689	keystroke_d	d	n/a
622.4645	0.09	1244929	keystroke_i	i	n/a
622.7495	0.12	1245499	keystroke_t	t	n/a
622.8995	0.09	1245799	keystroke_i	i	n/a
623.0795	0.09	1246159	keystroke_o	o	n/a
623.2295	0.09	1246459	keystroke_n	n	n/a
623.3795	0.165	1246759	keystroke_s	s	n/a
623.5295	0.075	1247059	keystroke_Key.space	Key.space	n/a
623.7095	0.105	1247419	keystroke_p	p	n/a
623.8895	0.09	1247779	keystroke_u	u	n/a
624.1295	0.06	1248259	keystroke_l	l	n/a
624.2645	0.075	1248529	keystroke_l	l	n/a
624.3995	0.105	1248799	keystroke_e	e	n/a
624.6245	0.15	1249249	keystroke_d	d	n/a
624.7595	0.09	1249519	keystroke_Key.space	Key.space	n/a
624.9545	0.12	1249909	keystroke_s	s	n/a
625.0895	0.075	1250179	keystroke_k	k	n/a
625.2545	0.09	1250509	keystroke_i	i	n/a
625.4495	0.06	1250899	keystroke_l	l	n/a
625.5845	0.09	1251169	keystroke_l	l	n/a
625.7345	0.135	1251469	keystroke_s	s	n/a
625.9895	0.09	1251979	keystroke_Key.enter	Key.enter	n/a
626.088	7.4185	1252176	prompt	n/a	forms explicitly get comparing\n
626.8595	0.135	1253719	keystroke_f	f	n/a
626.9795	0.09	1253959	keystroke_o	o	n/a
627.1745	0.105	1254349	keystroke_r	r	n/a
627.2945	0.09	1254589	keystroke_m	m	n/a
627.4445	0.135	1254889	keystroke_s	s	n/a
627.5645	0.09	1255129	keystroke_Key.space	Key.space	n/a
627.7595	0.105	1255519	keystroke_e	e	n/a
628.0445	0.18	1256089	keystroke_x	x	n/a
628.2845	0.12	1256569	keystroke_p	p	n/a
628.6145	0.09	1257229	keystroke_l	l	n/a
628.7945	0.12	1257589	keystroke_i	i	n/a
629.0795	0.18	1258159	keystroke_c	c	n/a
629.2445	0.105	1258489	keystroke_i	i	n/a
630.0545	0.135	1260109	keystroke_t	t	n/a
630.2195	0.105	1260439	keystroke_l	l	n/a
630.5195	0.09	1261039	keystroke_y	y	n/a
630.6395	0.12	1261279	keystroke_Key.space	Key.space	n/a
631.0595	0.15	1262119	keystroke_g	g	n/a
631.2395	0.195	1262479	keystroke_e	e	n/a
631.4495	0.135	1262899	keystroke_t	t	n/a
631.6295	0.075	1263259	keystroke_Key.space	Key.space	n/a
631.8995	0.135	1263799	keystroke_c	c	n/a
632.0045	0.21	1264009	keystroke_o	o	n/a
632.1695	0.195	1264339	keystroke_m	m	n/a
632.3195	0.09	1264639	keystroke_p	p	n/a
632.5145	0.135	1265029	keystroke_a	a	n/a
632.7545	0.1045	1265509	keystroke_r	r	n/a
632.829	0.075	1265658	keystroke_i	i	n/a
632.949	0.0905	1265898	keystroke_n	n	n/a
633.1295	0.105	1266259	keystroke_g	g	n/a
633.1895	0.09	1266379	keystroke_Key.space	Key.space	n/a
633.3995	0.105	1266799	keystroke_Key.enter	Key.enter	n/a
633.515	6.6815	1267030	prompt	n/a	degrees prix teacher syracuse\n
634.3595	0.12	1268719	keystroke_d	d	n/a
634.5545	0.105	1269109	keystroke_e	e	n/a
634.8095	0.075	1269619	keystroke_g	g	n/a
634.9895	0.075	1269979	keystroke_r	r	n/a
635.1845	0.075	1270369	keystroke_e	e	n/a
635.3345	0.09	1270669	keystroke_e	e	n/a
635.5295	0.165	1271059	keystroke_s	s	n/a
635.6645	0.12	1271329	keystroke_Key.space	Key.space	n/a
635.9495	0.06	1271899	keystroke_p	p	n/a
636.0845	0.135	1272169	keystroke_r	r	n/a
636.2045	0.075	1272409	keystroke_i	i	n/a
636.4295	0.15	1272859	keystroke_x	x	n/a
636.6995	0.06	1273399	keystroke_Key.space	Key.space	n/a
637.0895	0.105	1274179	keystroke_t	t	n/a
637.2545	0.15	1274509	keystroke_e	e	n/a
637.4945	0.12	1274989	keystroke_a	a	n/a
637.7645	0.12	1275529	keystroke_c	c	n/a
637.8695	0.09	1275739	keystroke_h	h	n/a
638.0645	0.225	1276129	keystroke_e	e	n/a
638.2295	0.135	1276459	keystroke_r	r	n/a
638.3345	0.105	1276669	keystroke_Key.space	Key.space	n/a
638.5295	0.18	1277059	keystroke_s	s	n/a
638.6645	0.09	1277329	keystroke_y	y	n/a
638.9345	0.135	1277869	keystroke_r	r	n/a
639.2045	0.06	1278409	keystroke_a	a	n/a
639.4145	0.12	1278829	keystroke_c	c	n/a
639.5045	0.075	1279009	keystroke_u	u	n/a
639.6545	0.105	1279309	keystroke_s	s	n/a
639.8345	0.12	1279669	keystroke_e	e	n/a
640.1045	0.09	1280209	keystroke_Key.enter	Key.enter	n/a
640.2025	7.8695	1280405	prompt	n/a	toolbar portal procurement profiles\n
641.0645	0.105	1282129	keystroke_t	t	n/a
641.1845	0.075	1282369	keystroke_o	o	n/a
641.4845	0.09	1282969	keystroke_o	o	n/a
641.7095	0.12	1283419	keystroke_l	l	n/a
642.0845	0.12	1284169	keystroke_b	b	n/a
642.2345	0.225	1284469	keystroke_a	a	n/a
642.4445	0.12	1284889	keystroke_r	r	n/a
642.5795	0.105	1285159	keystroke_Key.space	Key.space	n/a
643.2095	0.06	1286419	keystroke_p	p	n/a
643.3595	0.105	1286719	keystroke_o	o	n/a
643.5395	0.12	1287079	keystroke_r	r	n/a
643.7645	0.12	1287529	keystroke_t	t	n/a
644.0045	0.15	1288009	keystroke_a	a	n/a
644.1395	0.09	1288279	keystroke_l	l	n/a
644.2895	0.105	1288579	keystroke_Key.space	Key.space	n/a
644.5145	0.045	1289029	keystroke_p	p	n/a
644.6495	0.135	1289299	keystroke_r	r	n/a
644.7395	0.105	1289479	keystroke_o	o	n/a
645.0845	0.15	1290169	keystroke_c	c	n/a
645.3995	0.09	1290799	keystroke_u	u	n/a
645.5795	0.18	1291159	keystroke_r	r	n/a
645.7145	0.165	1291429	keystroke_e	e	n/a
645.9245	0.12	1291849	keystroke_m	m	n/a
646.1045	0.15	1292209	keystroke_e	e	n/a
646.2245	0.075	1292449	keystroke_n	n	n/a
646.3895	0.12	1292779	keystroke_t	t	n/a
646.5545	0.105	1293109	keystroke_Key.space	Key.space	n/a
646.7945	0.09	1293589	keystroke_p	p	n/a
646.9895	0.105	1293979	keystroke_r	r	n/a
647.0645	0.09	1294129	keystroke_o	o	n/a
647.2745	0.105	1294549	keystroke_f	f	n/a
647.3345	0.06	1294669	keystroke_i	i	n/a
647.4995	0.075	1294999	keystroke_l	l	n/a
647.6345	0.12	1295269	keystroke_e	e	n/a
647.8595	0.165	1295719	keystroke_s	s	n/a
648.0395	0.03	1296079	keystroke_Key.enter	Key.enter	n/a
648.077	9.025	1296154	prompt	n/a	hurt terrorism chan manor\n
648.8945	0.075	1297789	keystroke_h	h	n/a
649.0595	0.075	1298119	keystroke_u	u	n/a
649.1945	0.09	1298389	keystroke_r	r	n/a
649.4045	0.12	1298809	keystroke_t	t	n/a
649.5395	0.09	1299079	keystroke_Key.space	Key.space	n/a
649.8695	0.091	1299739	keystroke_t	t	n/a
650.0495	0.105	1300099	keystroke_e	e	n/a
650.9345	0.06	1301869	keystroke_r	r	n/a
651.0695	0.12	1302139	keystroke_r	r	n/a
651.1745	0.09	1302349	keystroke_o	o	n/a
651.3695	0.12	1302739	keystroke_r	r	n/a
651.4445	0.09	1302889	keystroke_i	i	n/a
651.6555	0.119	1303311	keystroke_s	s	n/a
651.8645	0.15	1303729	keystroke_m	m	n/a
652.0295	0.09	1304059	keystroke_Key.space	Key.space	n/a
652.3445	0.12	1304689	keystroke_c	c	n/a
652.4345	0.075	1304869	keystroke_h	h	n/a
652.6145	0.136	1305229	keystroke_a	a	n/a
652.7195	0.09	1305439	keystroke_n	n	n/a
652.8695	0.105	1305739	keystroke_Key.space	Key.space	n/a
653.1845	0.105	1306369	keystroke_m	m	n/a
654.5945	0.03	1309189	keystroke_n	n	n/a
655.1945	0.045	1310389	keystroke_Key.backspace	Key.backspace	n/a
656.0495	0.165	1312099	keystroke_a	a	n/a
656.2445	0.105	1312489	keystroke_n	n	n/a
656.4395	0.105	1312879	keystroke_o	o	n/a
656.5895	0.12	1313179	keystroke_r	r	n/a
656.9945	0.105	1313989	keystroke_Key.enter	Key.enter	n/a
657.1075	7.5255	1314215	prompt	n/a	beginner texture listprice jewel\n
657.8795	0.105	1315759	keystroke_b	b	n/a
658.0745	0.09	1316149	keystroke_e	e	n/a
658.3895	0.09	1316779	keystroke_g	g	n/a
658.4945	0.075	1316989	keystroke_i	i	n/a
658.7045	0.045	1317409	keystroke_n	n	n/a
658.8395	0.06	1317679	keystroke_n	n	n/a
658.9745	0.21	1317949	keystroke_e	e	n/a
659.1395	0.165	1318279	keystroke_r	r	n/a
659.2895	0.09	1318579	keystroke_Key.space	Key.space	n/a
659.5895	0.135	1319179	keystroke_t	t	n/a
659.7845	0.15	1319569	keystroke_e	e	n/a
660.0695	0.135	1320139	keystroke_x	x	n/a
660.3695	0.12	1320739	keystroke_t	t	n/a
660.4595	0.075	1320919	keystroke_u	u	n/a
660.6395	0.165	1321279	keystroke_r	r	n/a
660.7745	0.18	1321549	keystroke_e	e	n/a
660.9695	0.09	1321939	keystroke_Key.space	Key.space	n/a
661.1645	0.09	1322329	keystroke_l	l	n/a
661.3445	0.075	1322689	keystroke_i	i	n/a
661.4795	0.135	1322959	keystroke_s	s	n/a
661.7195	0.12	1323439	keystroke_t	t	n/a
662.2895	0.075	1324579	keystroke_p	p	n/a
662.4545	0.135	1324909	keystroke_r	r	n/a
662.5445	0.09	1325089	keystroke_i	i	n/a
662.7545	0.105	1325509	keystroke_c	c	n/a
662.9945	0.105	1325989	keystroke_e	e	n/a
663.1295	0.09	1326259	keystroke_Key.space	Key.space	n/a
663.3395	0.075	1326679	keystroke_j	j	n/a
663.4295	0.195	1326859	keystroke_e	e	n/a
663.6545	0.21	1327309	keystroke_w	w	n/a
663.8345	0.165	1327669	keystroke_e	e	n/a
663.9695	0.105	1327939	keystroke_l	l	n/a
