onset	duration	sample	value	key	prompt_text
48.2515	10.692	96503	prompt	n/a	the quick brown fox jumps over a lazy dog\n
50.4375	0.013	100875	keystroke	t	n/a
50.4385	0.027	100877	keystroke	h	n/a
50.5255	0.09	101051	keystroke	e	n/a
50.5555	0.12	101111	keystroke	Key.space	n/a
50.8405	0.105	101681	keystroke	q	n/a
50.9605	0.12	101921	keystroke	y	n/a
51.2005	0.075	102401	keystroke	c	n/a
52.011	0.0595	104022	keystroke	Key.backspace	n/a
52.1755	0.045	104351	keystroke	Key.backspace	n/a
52.2955	0.075	104591	keystroke	Key.backspace	n/a
53.001	0.074	106002	keystroke	q	n/a
53.136	0.1195	106272	keystroke	u	n/a
53.2255	0.075	106451	keystroke	i	n/a
53.3315	0.09	106663	keystroke	c	n/a
53.406	0.1045	106812	keystroke	k	n/a
53.5255	0.105	107051	keystroke	Key.space	n/a
53.6605	0.09	107321	keystroke	b	n/a
53.796	0.0295	107592	keystroke	r	n/a
53.8405	0.075	107681	keystroke	o	n/a
53.9305	0.091	107861	keystroke	w	n/a
54.036	0.0745	108072	keystroke	n	n/a
54.0955	0.09	108191	keystroke	Key.space	n/a
54.3065	0.074	108613	keystroke	f	n/a
54.3655	0.09	108731	keystroke	o	n/a
54.531	0.0895	109062	keystroke	x	n/a
54.6355	0.0905	109271	keystroke	Key.space	n/a
54.8455	0.09	109691	keystroke	j	n/a
55.0115	0.0745	110023	keystroke	u	n/a
55.251	0.105	110502	keystroke	m	n/a
55.4755	0.0145	110951	keystroke	p	n/a
55.775	0.091	111550	keystroke	s	n/a
56.1055	0.09	112211	keystroke	Key.space	n/a
56.286	0.0895	112572	keystroke	o	n/a
56.436	0.12	112872	keystroke	v	n/a
56.601	0.1645	113202	keystroke	e	n/a
56.7205	0.105	113441	keystroke	r	n/a
56.7655	0.12	113531	keystroke	Key.space	n/a
56.9765	0.1035	113953	keystroke	a	n/a
57.05	0.12	114100	keystroke	Key.space	n/a
57.4105	0.0895	114821	keystroke	l	n/a
57.516	0.0445	115032	keystroke	a	n/a
57.6805	0.0745	115361	keystroke	z	n/a
57.8305	0.135	115661	keystroke	y	n/a
57.935	0.136	115870	keystroke	Key.space	n/a
58.0555	0.0745	116111	keystroke	d	n/a
58.2055	0.0895	116411	keystroke	o	n/a
58.325	0.06	116650	keystroke	g	n/a
58.865	0.075	117730	keystroke	Key.enter	n/a
58.9485	7.5695	117897	prompt	n/a	telecommunications beat regular butler\n
59.766	0.1045	119532	keystroke	t	n/a
59.856	0.0595	119712	keystroke	e	n/a
59.9605	0.09	119921	keystroke	l	n/a
60.0655	0.06	120131	keystroke	e	n/a
60.26	0.091	120520	keystroke	c	n/a
60.41	0.121	120820	keystroke	o	n/a
60.516	0.119	121032	keystroke	m	n/a
60.696	0.1195	121392	keystroke	m	n/a
61.056	0.075	122112	keystroke	u	n/a
61.251	0.06	122502	keystroke	n	n/a
61.326	0.105	122652	keystroke	i	n/a
61.401	0.0895	122802	keystroke	c	n/a
61.5055	0.075	123011	keystroke	a	n/a
61.6255	0.06	123251	keystroke	t	n/a
61.6865	0.254	123373	keystroke	i	n/a
61.7605	0.165	123521	keystroke	o	n/a
61.7755	0.18	123551	keystroke	n	n/a
61.9555	0.09	123911	keystroke	s	n/a
62.0305	0.075	124061	keystroke	Key.space	n/a
62.6905	0.0905	125381	keystroke	b	n/a
62.7955	0.1205	125591	keystroke	e	n/a
62.9305	0.0905	125861	keystroke	a	n/a
63.0355	0.09	126071	keystroke	t	n/a
63.11	0.091	126220	keystroke	Key.space	n/a
63.261	0.1045	126522	keystroke	r	n/a
63.3505	0.075	126701	keystroke	e	n/a
63.4855	0.0755	126971	keystroke	g	n/a
63.576	0.104	127152	keystroke	u	n/a
63.696	0.105	127392	keystroke	l	n/a
63.755	0.166	127510	keystroke	a	n/a
63.891	0.0895	127782	keystroke	r	n/a
63.9655	0.075	127931	keystroke	Key.space	n/a
64.2665	0.104	128533	keystroke	b	n/a
64.4005	0.0905	128801	keystroke	u	n/a
64.5055	0.045	129011	keystroke	t	n/a
64.6415	0.045	129283	keystroke	t	n/a
65.046	0.074	130092	keystroke	Key.backspace	n/a
65.316	0.075	130632	keystroke	l	n/a
65.5255	0.1205	131051	keystroke	e	n/a
65.6155	0.09	131231	keystroke	r	n/a
66.4705	0.0445	132941	keystroke	Key.enter	n/a
66.524	6.3535	133048	prompt	n/a	perhaps ranks dubai mild\n
67.356	0.044	134712	keystroke	p	n/a
67.416	0.09	134832	keystroke	e	n/a
67.476	0.0895	134952	keystroke	r	n/a
67.58	0.0455	135160	keystroke	h	n/a
67.7005	0.0605	135401	keystroke	a	n/a
67.7155	0.09	135431	keystroke	p	n/a
67.925	0.045	135850	keystroke	s	n/a
67.9855	0.0745	135971	keystroke	Key.space	n/a
68.631	0.075	137262	keystroke	r	n/a
68.751	0.075	137502	keystroke	a	n/a
68.8405	0.09	137681	keystroke	n	n/a
68.945	0.091	137890	keystroke	k	n/a
69.0205	0.1055	138041	keystroke	s	n/a
69.14	0.09	138280	keystroke	Key.space	n/a
69.666	0.06	139332	keystroke	d	n/a
69.8305	0.0745	139661	keystroke	u	n/a
70.041	0.074	140082	keystroke	a	n/a
70.161	0.075	140322	keystroke	b	n/a
70.5205	0.0445	141041	keystroke	Key.backspace	n/a
70.64	0.06	141280	keystroke	Key.backspace	n/a
70.806	0.075	141612	keystroke	b	n/a
70.911	0.075	141822	keystroke	a	n/a
70.971	0.09	141942	keystroke	i	n/a
71.1055	0.06	142211	keystroke	Key.space	n/a
71.9155	0.105	143831	keystroke	m	n/a
72.0805	0.1055	144161	keystroke	i	n/a
72.231	0.1195	144462	keystroke	l	n/a
72.3355	0.076	144671	keystroke	d	n/a
72.8005	0.075	145601	keystroke	Key.enter	n/a
72.882	7.2255	145764	prompt	n/a	figured onion scheduled overview\n
73.611	0.045	147222	keystroke	f	n/a
73.671	0.0595	147342	keystroke	i	n/a
73.791	0.06	147582	keystroke	g	n/a
73.896	0.059	147792	keystroke	u	n/a
73.971	0.09	147942	keystroke	r	n/a
74.031	0.0895	148062	keystroke	e	n/a
74.2105	0.075	148421	keystroke	d	n/a
74.3155	0.09	148631	keystroke	Key.space	n/a
74.6005	0.09	149201	keystroke	o	n/a
74.7505	0.1045	149501	keystroke	n	n/a
74.9155	0.285	149831	keystroke	i	n/a
75.051	0.2245	150102	keystroke	n	n/a
75.066	0.15	150132	keystroke	o	n/a
75.2605	0.075	150521	keystroke	Key.space	n/a
75.6505	0.045	151301	keystroke	Key.backspace	n/a
75.7855	0.0605	151571	keystroke	Key.backspace	n/a
75.935	0.0605	151870	keystroke	Key.backspace	n/a
76.1305	0.0745	152261	keystroke	o	n/a
76.161	0.1045	152322	keystroke	n	n/a
76.25	0.06	152500	keystroke	Key.space	n/a
76.956	0.075	153912	keystroke	s	n/a
77.15	0.1055	154300	keystroke	c	n/a
77.2855	0.0745	154571	keystroke	h	n/a
77.375	0.0605	154750	keystroke	e	n/a
77.54	0.09	155080	keystroke	d	n/a
77.615	0.1055	155230	keystroke	u	n/a
77.735	0.1205	155470	keystroke	l	n/a
77.84	0.0605	155680	keystroke	e	n/a
77.9905	0.0755	155981	keystroke	d	n/a
78.08	0.06	156160	keystroke	Key.space	n/a
78.605	0.076	157210	keystroke	o	n/a
78.666	0.06	157332	keystroke	v	n/a
78.77	0.091	157540	keystroke	e	n/a
78.846	0.075	157692	keystroke	r	n/a
79.1605	0.0895	158321	keystroke	v	n/a
79.3255	0.06	158651	keystroke	i	n/a
79.3555	0.18	158711	keystroke	e	n/a
79.476	0.105	158952	keystroke	w	n/a
80.061	0.045	160122	keystroke	Key.enter	n/a
80.1125	5.32	160225	prompt	n/a	latin support sort gnome\n
80.781	0.075	161562	keystroke	l	n/a
80.84	0.076	161680	keystroke	a	n/a
80.9315	0.074	161863	keystroke	t	n/a
81.0655	0.09	162131	keystroke	i	n/a
81.1105	0.1355	162221	keystroke	n	n/a
81.2605	0.075	162521	keystroke	Key.space	n/a
81.5305	0.06	163061	keystroke	s	n/a
81.6355	0.09	163271	keystroke	u	n/a
81.8005	0.0905	163601	keystroke	p	n/a
81.9655	0.075	163931	keystroke	p	n/a
82.2205	0.015	164441	keystroke	o	n/a
82.2355	0.045	164471	keystroke	r	n/a
82.386	0.075	164772	keystroke	t	n/a
82.61	0.075	165220	keystroke	Key.space	n/a
83.166	0.0295	166332	keystroke	s	n/a
83.316	0.0745	166632	keystroke	o	n/a
83.406	0.0745	166812	keystroke	r	n/a
83.5855	0.0755	167171	keystroke	t	n/a
83.6755	0.105	167351	keystroke	Key.space	n/a
83.9305	0.0605	167861	keystroke	g	n/a
84.1255	0.075	168251	keystroke	n	n/a
84.2755	0.09	168551	keystroke	o	n/a
84.636	0.0745	169272	keystroke	m	n/a
84.726	0.075	169452	keystroke	e	n/a
85.31	0.1205	170620	keystroke	Key.enter	n/a
85.437	5.5455	170874	prompt	n/a	okay smallest modeling apart\n
86.166	0.0745	172332	keystroke	o	n/a
86.3605	0.09	172721	keystroke	k	n/a
86.4805	0.0755	172961	keystroke	a	n/a
86.6605	0.1055	173321	keystroke	y	n/a
86.735	0.09	173470	keystroke	Key.space	n/a
86.901	0.059	173802	keystroke	s	n/a
86.9755	0.1045	173951	keystroke	m	n/a
87.1105	0.0755	174221	keystroke	a	n/a
87.2455	0.045	174491	keystroke	l	n/a
87.3805	0.06	174761	keystroke	l	n/a
87.455	0.09	174910	keystroke	e	n/a
87.7255	0.105	175451	keystroke	s	n/a
87.8605	0.06	175721	keystroke	t	n/a
87.9805	0.0595	175961	keystroke	Key.space	n/a
88.161	0.075	176322	keystroke	m	n/a
88.266	0.0895	176532	keystroke	o	n/a
88.3255	0.075	176651	keystroke	d	n/a
88.4905	0.06	176981	keystroke	e	n/a
88.5655	0.0755	177131	keystroke	l	n/a
88.7905	0.075	177581	keystroke	i	n/a
88.836	0.1045	177672	keystroke	n	n/a
88.9255	0.06	177851	keystroke	g	n/a
89.0155	0.0905	178031	keystroke	Key.space	n/a
89.1505	0.075	178301	keystroke	a	n/a
89.751	0.194	179502	keystroke	p	n/a
89.991	0.09	179982	keystroke	a	n/a
90.096	0.074	180192	keystroke	r	n/a
90.275	0.061	180550	keystroke	t	n/a
90.936	0.044	181872	keystroke	Key.enter	n/a
90.988	7.99	181976	prompt	n/a	wife excerpt troops beneficial\n
91.551	0.1045	183102	keystroke	w	n/a
91.67	0.0455	183340	keystroke	i	n/a
91.73	0.1055	183460	keystroke	f	n/a
91.8055	0.1045	183611	keystroke	e	n/a
91.8805	0.0895	183761	keystroke	Key.space	n/a
92.016	0.075	184032	keystroke	e	n/a
92.211	0.09	184422	keystroke	x	n/a
92.346	0.12	184692	keystroke	c	n/a
92.585	0.091	185170	keystroke	e	n/a
92.781	0.03	185562	keystroke	p	n/a
93.321	0.0145	186642	keystroke	Key.backspace	n/a
93.351	0.0145	186702	keystroke	r	n/a
93.4105	0.0755	186821	keystroke	p	n/a
93.5155	0.0595	187031	keystroke	t	n/a
93.635	0.075	187270	keystroke	Key.space	n/a
94.6255	0.06	189251	keystroke	t	n/a
94.6265	0.044	189253	keystroke	g	n/a
94.7305	0.0755	189461	keystroke	r	n/a
94.8805	0.075	189761	keystroke	o	n/a
95.0605	0.03	190121	keystroke	p	n/a
95.27	0.031	190540	keystroke	Key.backspace	n/a
95.375	0.0905	190750	keystroke	Key.backspace	n/a
95.495	0.09	190990	keystroke	Key.backspace	n/a
95.66	0.06	191320	keystroke	Key.backspace	n/a
95.751	0.06	191502	keystroke	r	n/a
95.93	0.076	191860	keystroke	o	n/a
96.1255	0.06	192251	keystroke	o	n/a
96.306	0.075	192612	keystroke	p	n/a
96.4255	0.09	192851	keystroke	s	n/a
96.5605	0.075	193121	keystroke	Key.space	n/a
97.205	0.09	194410	keystroke	b	n/a
97.28	0.0755	194560	keystroke	e	n/a
97.4155	0.09	194831	keystroke	n	n/a
97.611	0.075	195222	keystroke	e	n/a
97.821	0.09	195642	keystroke	f	n/a
97.971	0.074	195942	keystroke	i	n/a
98.076	0.075	196152	keystroke	c	n/a
98.181	0.09	196362	keystroke	i	n/a
98.301	0.075	196602	keystroke	a	n/a
98.4055	0.0905	196811	keystroke	l	n/a
98.9005	0.075	197801	keystroke	Key.enter	n/a
98.9835	5.004	197967	prompt	n/a	reporter other produced trout\n
99.68	0.135	199360	keystroke	r	n/a
99.7855	0.1045	199571	keystroke	e	n/a
99.905	0.0765	199810	keystroke	p	n/a
100.085	0.0755	200170	keystroke	o	n/a
100.145	0.0755	200290	keystroke	r	n/a
100.3105	0.075	200621	keystroke	t	n/a
100.806	0.1195	201612	keystroke	e	n/a
100.8805	0.09	201761	keystroke	r	n/a
100.9855	0.0745	201971	keystroke	Key.space	n/a
101.241	0.059	202482	keystroke	o	n/a
101.33	0.075	202660	keystroke	t	n/a
101.436	0.105	202872	keystroke	h	n/a
101.495	0.1055	202990	keystroke	e	n/a
101.571	0.0895	203142	keystroke	r	n/a
101.6305	0.09	203261	keystroke	Key.space	n/a
101.8105	0.075	203621	keystroke	p	n/a
101.8705	0.0905	203741	keystroke	r	n/a
102.006	0.075	204012	keystroke	o	n/a
102.126	0.06	204252	keystroke	d	n/a
102.216	0.06	204432	keystroke	u	n/a
102.3055	0.0755	204611	keystroke	c	n/a
102.366	0.075	204732	keystroke	e	n/a
102.531	0.0895	205062	keystroke	d	n/a
102.635	0.061	205270	keystroke	Key.space	n/a
103.161	0.044	206322	keystroke	t	n/a
103.2655	0.075	206531	keystroke	r	n/a
103.3855	0.0745	206771	keystroke	o	n/a
103.4305	0.0595	206861	keystroke	u	n/a
103.5205	0.0595	207041	keystroke	t	n/a
103.925	0.0605	207850	keystroke	Key.enter	n/a
103.991	6.1765	207982	prompt	n/a	comply classic approve liable\n
104.6305	0.0605	209261	keystroke	c	n/a
104.736	0.135	209472	keystroke	o	n/a
104.826	0.1045	209652	keystroke	m	n/a
104.9905	0.0745	209981	keystroke	p	n/a
105.141	0.075	210282	keystroke	l	n/a
105.3505	0.0605	210701	keystroke	y	n/a
105.455	0.0755	210910	keystroke	Key.space	n/a
106.115	0.0905	212230	keystroke	c	n/a
106.2955	0.0595	212591	keystroke	l	n/a
106.6405	0.06	213281	keystroke	a	n/a
106.821	0.0445	213642	keystroke	s	n/a
106.9255	0.09	213851	keystroke	s	n/a
107.046	0.075	214092	keystroke	i	n/a
107.136	0.09	214272	keystroke	c	n/a
107.255	0.0755	214510	keystroke	Key.space	n/a
107.405	0.0755	214810	keystroke	a	n/a
107.601	0.059	215202	keystroke	p	n/a
107.736	0.075	215472	keystroke	p	n/a
107.825	0.076	215650	keystroke	r	n/a
107.945	0.061	215890	keystroke	o	n/a
108.111	0.0905	216222	keystroke	v	n/a
108.1865	0.03	216373	keystroke	e	n/a
108.53	0.06	217060	keystroke	Key.space	n/a
109.086	0.0745	218172	keystroke	l	n/a
109.251	0.0745	218502	keystroke	i	n/a
109.446	0.0745	218892	keystroke	a	n/a
109.5355	0.09	219071	keystroke	b	n/a
109.671	0.089	219342	keystroke	l	n/a
109.761	0.089	219522	keystroke	e	n/a
110.105	0.0605	220210	keystroke	Key.enter	n/a
110.172	6.7005	220344	prompt	n/a	analyzes info denial concept\n
110.736	0.104	221472	keystroke	a	n/a
110.855	0.075	221710	keystroke	n	n/a
110.916	0.075	221832	keystroke	a	n/a
111.0505	0.09	222101	keystroke	l	n/a
111.2155	0.0755	222431	keystroke	z	n/a
111.576	0.0445	223152	keystroke	Key.backspace	n/a
111.711	0.0595	223422	keystroke	y	n/a
111.7855	0.075	223571	keystroke	z	n/a
111.9505	0.045	223901	keystroke	e	n/a
112.101	0.0595	224202	keystroke	d	n/a
112.4155	0.06	224831	keystroke	Key.backspace	n/a
112.4905	0.075	224981	keystroke	s	n/a
112.6105	0.0605	225221	keystroke	Key.space	n/a
113.391	0.104	226782	keystroke	i	n/a
113.48	0.09	226960	keystroke	n	n/a
113.555	0.076	227110	keystroke	f	n/a
113.661	0.074	227322	keystroke	o	n/a
113.765	0.075	227530	keystroke	Key.space	n/a
113.9305	0.075	227861	keystroke	d	n/a
114.1255	0.075	228251	keystroke	e	n/a
114.2155	0.1055	228431	keystroke	n	n/a
114.3655	0.0905	228731	keystroke	i	n/a
114.605	0.0605	229210	keystroke	a	n/a
114.7405	0.09	229481	keystroke	l	n/a
114.9355	0.0895	229871	keystroke	Key.space	n/a
115.5505	0.06	231101	keystroke	c	n/a
115.5955	0.045	231191	keystroke	o	n/a
115.6255	0.075	231251	keystroke	n	n/a
115.6855	0.15	231371	keystroke	c	n/a
115.8205	0.105	231641	keystroke	e	n/a
115.9105	0.0745	231821	keystroke	p	n/a
116.0455	0.06	232091	keystroke	t	n/a
116.7955	0.0745	233591	keystroke	Key.enter	n/a
116.877	7.6005	233754	prompt	n/a	sequences outreach sharp round\n
117.5455	0.09	235091	keystroke	s	n/a
117.6805	0.075	235361	keystroke	e	n/a
117.8605	0.09	235721	keystroke	q	n/a
117.9955	0.1055	235991	keystroke	u	n/a
118.0855	0.0595	236171	keystroke	e	n/a
118.235	0.09	236470	keystroke	n	n/a
118.311	0.104	236622	keystroke	c	n/a
118.385	0.106	236770	keystroke	e	n/a
118.52	0.121	237040	keystroke	s	n/a
118.625	0.075	237250	keystroke	Key.space	n/a
119.3155	0.0445	238631	keystroke	o	n/a
119.4365	0.0745	238873	keystroke	u	n/a
119.495	0.076	238990	keystroke	t	n/a
119.706	0.119	239412	keystroke	r	n/a
119.781	0.12	239562	keystroke	e	n/a
119.885	0.12	239770	keystroke	a	n/a
119.9755	0.1055	239951	keystroke	c	n/a
120.066	0.06	240132	keystroke	h	n/a
120.2	0.076	240400	keystroke	Key.space	n/a
120.8305	0.075	241661	keystroke	d	n/a
121.22	0.061	242440	keystroke	Key.backspace	n/a
121.31	0.076	242620	keystroke	s	n/a
121.416	0.059	242832	keystroke	h	n/a
121.49	0.0755	242980	keystroke	a	n/a
121.581	0.074	243162	keystroke	r	n/a
121.745	0.09	243490	keystroke	p	n/a
122.2705	0.09	244541	keystroke	Key.space	n/a
122.4805	0.06	244961	keystroke	r	n/a
122.586	0.1045	245172	keystroke	o	n/a
122.6455	0.075	245291	keystroke	u	n/a
122.8105	0.09	245621	keystroke	n	n/a
122.9015	0.059	245803	keystroke	d	n/a
124.4005	0.0745	248801	keystroke	Key.enter	n/a
124.481	5.621	248962	prompt	n/a	brown ceremony buy latter\n
125.2105	0.075	250421	keystroke	b	n/a
125.3155	0.075	250631	keystroke	r	n/a
125.4055	0.075	250811	keystroke	o	n/a
125.5105	0.075	251021	keystroke	w	n/a
125.6005	0.09	251201	keystroke	n	n/a
125.7055	0.075	251411	keystroke	Key.space	n/a
125.7955	0.075	251591	keystroke	c	n/a
125.9005	0.09	251801	keystroke	e	n/a
126.0655	0.165	252131	keystroke	r	n/a
126.0805	0.015	252161	keystroke	e	n/a
126.2455	0.06	252491	keystroke	e	n/a
126.7555	0.06	253511	keystroke	Key.backspace	n/a
126.9355	0.06	253871	keystroke	m	n/a
127.055	0.091	254110	keystroke	o	n/a
127.19	0.0755	254380	keystroke	n	n/a
127.49	0.0605	254980	keystroke	y	n/a
127.595	0.0905	255190	keystroke	Key.space	n/a
128.33	0.075	256660	keystroke	b	n/a
128.57	0.0755	257140	keystroke	u	n/a
128.781	0.045	257562	keystroke	y	n/a
128.8705	0.075	257741	keystroke	Key.space	n/a
129.081	0.089	258162	keystroke	l	n/a
129.185	0.0755	258370	keystroke	a	n/a
129.335	0.0455	258670	keystroke	t	n/a
129.47	0.105	258940	keystroke	t	n/a
129.545	0.166	259090	keystroke	e	n/a
129.65	0.106	259300	keystroke	r	n/a
130.026	0.0745	260052	keystroke	Key.enter	n/a
130.1055	9.1615	260211	prompt	n/a	detector trends genealogy singing\n
130.6405	0.06	261281	keystroke	d	n/a
130.7905	0.075	261581	keystroke	e	n/a
130.971	0.09	261942	keystroke	t	n/a
131.045	0.091	262090	keystroke	e	n/a
131.181	0.075	262362	keystroke	c	n/a
131.361	0.06	262722	keystroke	t	n/a
131.45	0.061	262900	keystroke	o	n/a
131.526	0.06	263052	keystroke	r	n/a
131.615	0.0755	263230	keystroke	Key.space	n/a
132.381	0.059	264762	keystroke	t	n/a
132.5005	0.1345	265001	keystroke	r	n/a
132.591	0.09	265182	keystroke	e	n/a
132.666	0.09	265332	keystroke	n	n/a
133.0705	0.075	266141	keystroke	d	n/a
133.2205	0.075	266441	keystroke	s	n/a
133.3855	0.075	266771	keystroke	Key.space	n/a
134.421	0.0745	268842	keystroke	g	n/a
134.5405	0.0755	269081	keystroke	e	n/a
134.87	0.09	269740	keystroke	n	n/a
135.0055	0.076	270011	keystroke	e	n/a
135.6805	0.06	271361	keystroke	a	n/a
136.0105	0.06	272021	keystroke	l	n/a
136.925	0.1055	273850	keystroke	o	n/a
137.165	0.06	274330	keystroke	g	n/a
137.48	0.075	274960	keystroke	y	n/a
137.6005	0.0745	275201	keystroke	Key.space	n/a
138.306	0.089	276612	keystroke	s	n/a
138.411	0.0745	276822	keystroke	i	n/a
138.441	0.104	276882	keystroke	n	n/a
138.575	0.06	277150	keystroke	g	n/a
138.681	0.105	277362	keystroke	i	n/a
138.725	0.105	277450	keystroke	n	n/a
138.8	0.061	277600	keystroke	g	n/a
139.205	0.06	278410	keystroke	Key.enter	n/a
139.2725	5.0495	278545	prompt	n/a	quest ecology gays more\n
139.745	0.075	279490	keystroke	d	n/a
140.0605	0.045	280121	keystroke	Key.backspace	n/a
140.1355	0.105	280271	keystroke	q	n/a
140.2255	0.06	280451	keystroke	u	n/a
140.3005	0.135	280601	keystroke	e	n/a
140.3905	0.135	280781	keystroke	s	n/a
140.4805	0.075	280961	keystroke	t	n/a
140.6155	0.06	281231	keystroke	Key.space	n/a
141.231	0.0745	282462	keystroke	e	n/a
141.3805	0.09	282761	keystroke	c	n/a
141.5155	0.0455	283031	keystroke	o	n/a
141.681	0.074	283362	keystroke	l	n/a
141.831	0.074	283662	keystroke	o	n/a
141.951	0.059	283902	keystroke	g	n/a
142.025	0.075	284050	keystroke	y	n/a
142.115	0.0755	284230	keystroke	Key.space	n/a
142.8805	0.106	285761	keystroke	g	n/a
142.9705	0.0905	285941	keystroke	a	n/a
143.166	0.075	286332	keystroke	y	n/a
143.285	0.09	286570	keystroke	s	n/a
143.405	0.0305	286810	keystroke	Key.space	n/a
143.5855	0.0895	287171	keystroke	m	n/a
143.691	0.089	287382	keystroke	o	n/a
143.7505	0.0895	287501	keystroke	r	n/a
143.826	0.089	287652	keystroke	e	n/a
144.3055	0.015	288611	keystroke	Key.enter	n/a
144.3245	6.4475	288649	prompt	n/a	motels vacancies name proposals\n
145.1	0.09	290200	keystroke	m	n/a
145.2205	0.0755	290441	keystroke	o	n/a
145.235	0.1205	290470	keystroke	t	n/a
145.3255	0.105	290651	keystroke	e	n/a
145.5355	0.075	291071	keystroke	l	n/a
145.6255	0.075	291251	keystroke	s	n/a
145.7455	0.06	291491	keystroke	Key.space	n/a
146.0905	0.075	292181	keystroke	v	n/a
146.4805	0.1505	292961	keystroke	a	n/a
146.7055	0.09	293411	keystroke	c	n/a
146.8255	0.105	293651	keystroke	a	n/a
147.0205	0.0895	294041	keystroke	n	n/a
147.26	0.075	294520	keystroke	c	n/a
147.38	0.09	294760	keystroke	i	n/a
147.485	0.1055	294970	keystroke	e	n/a
147.5455	0.1195	295091	keystroke	s	n/a
147.62	0.09	295240	keystroke	Key.space	n/a
148.355	0.06	296710	keystroke	n	n/a
148.445	0.06	296890	keystroke	a	n/a
148.5205	0.0895	297041	keystroke	m	n/a
148.611	0.075	297222	keystroke	e	n/a
148.7	0.0755	297400	keystroke	Key.space	n/a
148.8805	0.06	297761	keystroke	p	n/a
148.9555	0.06	297911	keystroke	r	n/a
149.061	0.06	298122	keystroke	o	n/a
149.195	0.0755	298390	keystroke	p	n/a
149.391	0.06	298782	keystroke	o	n/a
149.465	0.1055	298930	keystroke	s	n/a
149.9305	0.0445	299861	keystroke	a	n/a
150.0355	0.09	300071	keystroke	l	n/a
150.1705	0.0755	300341	keystroke	s	n/a
150.71	0.0605	301420	keystroke	Key.enter	n/a
150.776	6.1175	301552	prompt	n/a	auckland up badge joyce\n
151.52	0.075	303040	keystroke	a	n/a
151.671	0.0895	303342	keystroke	u	n/a
151.925	0.06	303850	keystroke	c	n/a
152.061	0.0895	304122	keystroke	k	n/a
152.2555	0.09	304511	keystroke	l	n/a
152.361	0.0595	304722	keystroke	a	n/a
152.4655	0.06	304931	keystroke	n	n/a
152.5105	0.06	305021	keystroke	d	n/a
152.6305	0.075	305261	keystroke	Key.space	n/a
153.696	0.044	307392	keystroke	u	n/a
153.755	0.09	307510	keystroke	p	n/a
153.9055	0.0595	307811	keystroke	Key.space	n/a
154.535	0.075	309070	keystroke	b	n/a
154.655	0.075	309310	keystroke	a	n/a
154.731	0.089	309462	keystroke	d	n/a
154.956	0.089	309912	keystroke	g	n/a
155.03	0.075	310060	keystroke	e	n/a
155.09	0.06	310180	keystroke	Key.space	n/a
155.4355	0.06	310871	keystroke	j	n/a
155.7205	0.1195	311441	keystroke	o	n/a
155.9	0.105	311800	keystroke	y	n/a
155.99	0.15	311980	keystroke	c	n/a
156.486	0.044	312972	keystroke	e	n/a
156.8155	0.0745	313631	keystroke	Key.enter	n/a
156.9005	7.5515	313801	prompt	n/a	stupid hoping twin presently\n
157.625	0.06	315250	keystroke	s	n/a
157.7755	0.0745	315551	keystroke	t	n/a
157.865	0.09	315730	keystroke	u	n/a
157.9855	0.105	315971	keystroke	p	n/a
158.225	0.0455	316450	keystroke	i	n/a
158.285	0.076	316570	keystroke	d	n/a
158.39	0.0755	316780	keystroke	Key.space	n/a
159.125	0.0755	318250	keystroke	h	n/a
159.26	0.09	318520	keystroke	o	n/a
159.41	0.09	318820	keystroke	p	n/a
159.635	0.0755	319270	keystroke	i	n/a
159.6805	0.075	319361	keystroke	n	n/a
159.7705	0.0595	319541	keystroke	g	n/a
159.845	0.06	319690	keystroke	Key.space	n/a
160.5355	0.075	321071	keystroke	t	n/a
160.6405	0.12	321281	keystroke	w	n/a
160.6705	0.18	321341	keystroke	i	n/a
160.8055	0.12	321611	keystroke	n	n/a
160.9105	0.075	321821	keystroke	Key.space	n/a
161.586	0.075	323172	keystroke	p	n/a
161.645	0.0605	323290	keystroke	e	n/a
161.7205	0.15	323441	keystroke	r	n/a
162.08	0.0605	324160	keystroke	Key.backspace	n/a
162.2005	0.075	324401	keystroke	Key.backspace	n/a
162.2605	0.1205	324521	keystroke	r	n/a
162.3205	0.135	324641	keystroke	e	n/a
162.3955	0.1355	324791	keystroke	s	n/a
162.546	0.119	325092	keystroke	e	n/a
162.6955	0.09	325391	keystroke	n	n/a
162.8305	0.06	325661	keystroke	t	n/a
162.98	0.076	325960	keystroke	l	n/a
163.266	0.044	326532	keystroke	y	n/a
164.3605	0.0895	328721	keystroke	Key.enter	n/a
164.457	7.345	328914	prompt	n/a	vegas revisions guarantee basket\n
165.215	0.0755	330430	keystroke	v	n/a
165.3805	0.0895	330761	keystroke	e	n/a
165.516	0.09	331032	keystroke	g	n/a
165.62	0.12	331240	keystroke	a	n/a
165.725	0.12	331450	keystroke	s	n/a
165.905	0.03	331810	keystroke	Key.space	n/a
166.295	0.106	332590	keystroke	r	n/a
166.37	0.105	332740	keystroke	e	n/a
166.565	0.075	333130	keystroke	v	n/a
166.686	0.135	333372	keystroke	i	n/a
166.866	0.089	333732	keystroke	s	n/a
167.1655	0.255	334331	keystroke	i	n/a
167.2555	0.15	334511	keystroke	o	n/a
167.3145	0.136	334629	keystroke	n	n/a
167.436	0.0745	334872	keystroke	s	n/a
167.6005	0.06	335201	keystroke	Key.space	n/a
168.3505	0.135	336701	keystroke	g	n/a
168.53	0.0905	337060	keystroke	u	n/a
168.65	0.091	337300	keystroke	a	n/a
169.01	0.076	338020	keystroke	r	n/a
169.1455	0.0895	338291	keystroke	a	n/a
169.265	0.091	338530	keystroke	n	n/a
169.385	0.061	338770	keystroke	t	n/a
169.626	0.059	339252	keystroke	e	n/a
169.775	0.0605	339550	keystroke	e	n/a
169.9395	0.075	339879	keystroke	Key.space	n/a
170.9755	0.075	341951	keystroke	b	n/a
171.0355	0.105	342071	keystroke	a	n/a
171.0955	0.1205	342191	keystroke	s	n/a
171.2	0.075	342400	keystroke	k	n/a
171.32	0.105	342640	keystroke	e	n/a
171.396	0.105	342792	keystroke	t	n/a
171.756	0.0445	343512	keystroke	Key.enter	n/a
171.807	7.96	343614	prompt	n/a	gives senegal infrared sociology\n
172.5205	0.075	345041	keystroke	g	n/a
172.6405	0.075	345281	keystroke	i	n/a
172.7455	0.075	345491	keystroke	v	n/a
172.8215	0.1645	345643	keystroke	e	n/a
172.91	0.1205	345820	keystroke	s	n/a
173.0145	0.076	346029	keystroke	Key.space	n/a
173.2405	0.0905	346481	keystroke	s	n/a
173.3455	0.075	346691	keystroke	e	n/a
173.4955	0.075	346991	keystroke	n	n/a
173.5405	0.06	347081	keystroke	e	n/a
173.8855	0.075	347771	keystroke	g	n/a
173.976	0.1045	347952	keystroke	a	n/a
174.096	0.0595	348192	keystroke	l	n/a
174.2305	0.09	348461	keystroke	Key.space	n/a
175.2205	0.12	350441	keystroke	i	n/a
175.3255	0.09	350651	keystroke	n	n/a
175.3705	0.075	350741	keystroke	f	n/a
175.5055	0.1055	351011	keystroke	r	n/a
175.611	0.0595	351222	keystroke	a	n/a
176.06	0.1355	352120	keystroke	r	n/a
176.1505	0.09	352301	keystroke	e	n/a
176.316	0.1345	352632	keystroke	d	n/a
176.4505	0.06	352901	keystroke	Key.space	n/a
177.2005	0.09	354401	keystroke	s	n/a
177.35	0.075	354700	keystroke	o	n/a
177.4405	0.09	354881	keystroke	c	n/a
177.5755	0.06	355151	keystroke	i	n/a
177.8905	0.06	355781	keystroke	o	n/a
178.0705	0.06	356141	keystroke	l	n/a
178.236	0.06	356472	keystroke	o	n/a
178.3255	0.06	356651	keystroke	g	n/a
178.446	0.0595	356892	keystroke	y	n/a
179.75	0.015	359500	keystroke	Key.enter	n/a
179.7715	9.926	359543	prompt	n/a	estonia bolt colleague knives\n
180.4555	0.1355	360911	keystroke	e	n/a
180.5755	0.105	361151	keystroke	s	n/a
180.7255	0.0445	361451	keystroke	t	n/a
180.86	0.0755	361720	keystroke	o	n/a
181.071	0.1045	362142	keystroke	n	n/a
181.1605	0.12	362321	keystroke	i	n/a
181.476	0.0595	362952	keystroke	a	n/a
181.6855	0.0895	363371	keystroke	Key.space	n/a
183.785	0.0755	367570	keystroke	b	n/a
183.935	0.0755	367870	keystroke	o	n/a
184.146	0.029	368292	keystroke	l	n/a
184.235	0.06	368470	keystroke	t	n/a
184.34	0.075	368680	keystroke	Key.space	n/a
184.805	0.06	369610	keystroke	c	n/a
184.895	0.076	369790	keystroke	o	n/a
185.0755	0.045	370151	keystroke	l	n/a
185.181	0.0745	370362	keystroke	l	n/a
185.2855	0.09	370571	keystroke	e	n/a
185.4505	0.075	370901	keystroke	g	n/a
185.5555	0.075	371111	keystroke	a	n/a
185.7655	0.075	371531	keystroke	u	n/a
185.9305	0.06	371861	keystroke	e	n/a
186.1555	0.045	372311	keystroke	Key.backspace	n/a
186.29	0.0605	372580	keystroke	Key.backspace	n/a
186.425	0.09	372850	keystroke	Key.backspace	n/a
187.04	0.075	374080	keystroke	Key.backspace	n/a
187.175	0.0755	374350	keystroke	a	n/a
187.3705	0.0605	374741	keystroke	g	n/a
187.5055	0.075	375011	keystroke	u	n/a
187.6255	0.06	375251	keystroke	e	n/a
187.7305	0.075	375461	keystroke	Key.space	n/a
188.5555	0.075	377111	keystroke	k	n/a
188.7055	0.09	377411	keystroke	n	n/a
188.855	0.076	377710	keystroke	i	n/a
189.006	0.104	378012	keystroke	v	n/a
189.155	0.15	378310	keystroke	e	n/a
189.245	0.1355	378490	keystroke	s	n/a
189.635	0.0605	379270	keystroke	Key.enter	n/a
189.702	9.911	379404	prompt	n/a	fabrics compromise response collaboration\n
190.461	0.1195	380922	keystroke	f	n/a
190.595	0.09	381190	keystroke	a	n/a
190.731	0.074	381462	keystroke	b	n/a
190.85	0.0605	381700	keystroke	r	n/a
190.955	0.06	381910	keystroke	i	n/a
191.0455	0.12	382091	keystroke	c	n/a
191.1205	0.12	382241	keystroke	s	n/a
191.2255	0.075	382451	keystroke	Key.space	n/a
191.8555	0.0595	383711	keystroke	c	n/a
191.96	0.121	383920	keystroke	o	n/a
192.0355	0.0755	384071	keystroke	m	n/a
192.186	0.0745	384372	keystroke	p	n/a
192.321	0.0595	384642	keystroke	r	n/a
192.396	0.075	384792	keystroke	o	n/a
192.4095	0.0165	384819	keystroke	p	n/a
192.6205	0.0455	385241	keystroke	i	n/a
192.696	0.03	385392	keystroke	m	n/a
192.9655	0.03	385931	keystroke	Key.backspace	n/a
193.1005	0.045	386201	keystroke	Key.backspace	n/a
193.2505	0.06	386501	keystroke	Key.backspace	n/a
193.4155	0.105	386831	keystroke	m	n/a
193.5055	0.105	387011	keystroke	i	n/a
193.5955	0.135	387191	keystroke	s	n/a
193.6555	0.09	387311	keystroke	e	n/a
193.8355	0.06	387671	keystroke	Key.space	n/a
194.87	0.1205	389740	keystroke	r	n/a
194.9455	0.1045	389891	keystroke	e	n/a
195.0355	0.1055	390071	keystroke	s	n/a
195.1255	0.06	390251	keystroke	p	n/a
195.305	0.09	390610	keystroke	o	n/a
195.38	0.076	390760	keystroke	n	n/a
195.411	0.09	390822	keystroke	s	n/a
195.471	0.09	390942	keystroke	e	n/a
195.59	0.075	391180	keystroke	Key.space	n/a
196.3405	0.0905	392681	keystroke	c	n/a
196.5205	0.075	393041	keystroke	o	n/a
196.7005	0.075	393401	keystroke	o	n/a
197.211	0.0445	394422	keystroke	Key.backspace	n/a
197.4805	0.045	394961	keystroke	l	n/a
197.6005	0.075	395201	keystroke	l	n/a
197.6905	0.0605	395381	keystroke	a	n/a
197.8255	0.06	395651	keystroke	b	n/a
198.291	0.0295	396582	keystroke	o	n/a
198.3505	0.0755	396701	keystroke	r	n/a
198.471	0.09	396942	keystroke	a	n/a
198.576	0.06	397152	keystroke	t	n/a
198.681	0.2395	397362	keystroke	i	n/a
198.771	0.1645	397542	keystroke	o	n/a
198.861	0.105	397722	keystroke	n	n/a
199.596	0.015	399192	keystroke	Key.enter	n/a
199.617	6.1595	399234	prompt	n/a	reports great marble somewhat\n
200.331	0.1045	400662	keystroke	r	n/a
200.4055	0.0895	400811	keystroke	e	n/a
200.51	0.0615	401020	keystroke	p	n/a
200.675	0.0605	401350	keystroke	o	n/a
200.75	0.061	401500	keystroke	r	n/a
200.9305	0.1055	401861	keystroke	t	n/a
201.0055	0.09	402011	keystroke	s	n/a
201.1105	0.06	402221	keystroke	Key.space	n/a
201.4555	0.075	402911	keystroke	g	n/a
201.6205	0.1355	403241	keystroke	r	n/a
201.726	0.09	403452	keystroke	e	n/a
201.771	0.105	403542	keystroke	a	n/a
201.861	0.09	403722	keystroke	t	n/a
201.966	0.045	403932	keystroke	Key.space	n/a
202.056	0.105	404112	keystroke	m	n/a
202.131	0.09	404262	keystroke	a	n/a
202.206	0.075	404412	keystroke	r	n/a
202.311	0.06	404622	keystroke	b	n/a
202.416	0.089	404832	keystroke	l	n/a
202.52	0.0755	405040	keystroke	e	n/a
202.6105	0.075	405221	keystroke	Key.space	n/a
203.3305	0.015	406661	keystroke	s	n/a
203.3605	0.0755	406721	keystroke	o	n/a
203.4205	0.0755	406841	keystroke	m	n/a
203.511	0.0745	407022	keystroke	e	n/a
203.6455	0.06	407291	keystroke	h	n/a
203.6755	0.075	407351	keystroke	w	n/a
203.8405	0.1055	407681	keystroke	a	n/a
203.9155	0.0605	407831	keystroke	t	n/a
204.4405	0.045	408881	keystroke	Key.backspace	n/a
204.576	0.0595	409152	keystroke	Key.backspace	n/a
204.7255	0.09	409451	keystroke	Key.backspace	n/a
204.875	0.0905	409750	keystroke	Key.backspace	n/a
204.9955	0.075	409991	keystroke	w	n/a
205.0855	0.075	410171	keystroke	h	n/a
205.191	0.0745	410382	keystroke	a	n/a
205.2505	0.06	410501	keystroke	t	n/a
205.7155	0.06	411431	keystroke	Key.enter	n/a
205.78	6.9285	411560	prompt	n/a	sunrise chapel lindsay handles\n
206.4205	0.075	412841	keystroke	s	n/a
206.526	0.075	413052	keystroke	u	n/a
206.7205	0.09	413441	keystroke	n	n/a
206.8255	0.0755	413651	keystroke	r	n/a
206.931	0.075	413862	keystroke	i	n/a
206.991	0.1045	413982	keystroke	s	n/a
207.0505	0.09	414101	keystroke	e	n/a
207.1855	0.03	414371	keystroke	Key.space	n/a
207.621	0.045	415242	keystroke	a	n/a
207.966	0.045	415932	keystroke	Key.backspace	n/a
208.0405	0.1055	416081	keystroke	c	n/a
208.16	0.061	416320	keystroke	h	n/a
208.28	0.0905	416560	keystroke	a	n/a
208.4155	0.0595	416831	keystroke	p	n/a
208.505	0.046	417010	keystroke	e	n/a
208.6255	0.0595	417251	keystroke	l	n/a
208.73	0.0755	417460	keystroke	Key.space	n/a
209.465	0.091	418930	keystroke	l	n/a
209.646	0.075	419292	keystroke	i	n/a
209.721	0.09	419442	keystroke	n	n/a
209.7955	0.0905	419591	keystroke	d	n/a
209.9605	0.0905	419921	keystroke	s	n/a
210.126	0.09	420252	keystroke	a	n/a
210.2605	0.06	420521	keystroke	y	n/a
210.366	0.0595	420732	keystroke	Key.space	n/a
211.146	0.059	422292	keystroke	h	n/a
211.2205	0.0745	422441	keystroke	a	n/a
211.3715	0.1485	422743	keystroke	n	n/a
211.536	0.089	423072	keystroke	d	n/a
211.805	0.0305	423610	keystroke	l	n/a
211.881	0.1345	423762	keystroke	e	n/a
211.986	0.1045	423972	keystroke	s	n/a
212.631	0.075	425262	keystroke	Key.enter	n/a
212.712	7.135	425424	prompt	n/a	pens editorial everyone's scale\n
213.7255	0.06	427451	keystroke	p	n/a
213.8305	0.0745	427661	keystroke	e	n/a
213.9355	0.09	427871	keystroke	n	n/a
214.04	0.0755	428080	keystroke	s	n/a
214.161	0.059	428322	keystroke	Key.space	n/a
214.386	0.0595	428772	keystroke	e	n/a
214.551	0.075	429102	keystroke	d	n/a
214.7	0.076	429400	keystroke	i	n/a
214.79	0.075	429580	keystroke	t	n/a
214.9855	0.045	429971	keystroke	o	n/a
215.046	0.0745	430092	keystroke	r	n/a
215.1805	0.06	430361	keystroke	i	n/a
215.286	0.074	430572	keystroke	a	n/a
215.421	0.075	430842	keystroke	l	n/a
215.57	0.06	431140	keystroke	Key.space	n/a
216.201	0.06	432402	keystroke	e	n/a
216.366	0.059	432732	keystroke	v	n/a
216.486	0.105	432972	keystroke	e	n/a
216.561	0.09	433122	keystroke	r	n/a
216.651	0.044	433302	keystroke	y	n/a
216.7855	0.135	433571	keystroke	o	n/a
216.8605	0.09	433721	keystroke	n	n/a
216.9055	0.075	433811	keystroke	e	n/a
217.656	0.075	435312	keystroke	'	n/a
217.746	0.09	435492	keystroke	s	n/a
217.8655	0.075	435731	keystroke	Key.space	n/a
218.8245	0.0765	437649	keystroke	s	n/a
218.961	0.09	437922	keystroke	c	n/a
219.0055	0.1045	438011	keystroke	a	n/a
219.125	0.09	438250	keystroke	l	n/a
219.231	0.06	438462	keystroke	e	n/a
219.786	0.059	439572	keystroke	Key.enter	n/a
219.8515	6.776	439703	prompt	n/a	founder accommodate plots shop\n
220.5965	0.0885	441193	keystroke	f	n/a
220.73	0.091	441460	keystroke	o	n/a
220.775	0.076	441550	keystroke	u	n/a
220.9705	0.075	441941	keystroke	n	n/a
221.0155	0.0755	442031	keystroke	d	n/a
221.1955	0.105	442391	keystroke	e	n/a
221.2705	0.105	442541	keystroke	r	n/a
221.3605	0.075	442721	keystroke	Key.space	n/a
221.6305	0.09	443261	keystroke	a	n/a
221.7055	0.075	443411	keystroke	c	n/a
221.856	0.075	443712	keystroke	c	n/a
221.9455	0.1505	443891	keystroke	o	n/a
222.0805	0.09	444161	keystroke	m	n/a
222.3205	0.105	444641	keystroke	m	n/a
222.6055	0.0605	445211	keystroke	o	n/a
222.711	0.1045	445422	keystroke	d	n/a
222.8305	0.09	445661	keystroke	a	n/a
222.936	0.09	445872	keystroke	t	n/a
222.9805	0.1205	445961	keystroke	e	n/a
223.115	0.09	446230	keystroke	Key.space	n/a
223.866	0.075	447732	keystroke	p	n/a
224.076	0.044	448152	keystroke	l	n/a
224.241	0.06	448482	keystroke	o	n/a
224.361	0.089	448722	keystroke	t	n/a
224.406	0.105	448812	keystroke	s	n/a
224.69	0.045	449380	keystroke	Key.space	n/a
225.3355	0.0905	450671	keystroke	s	n/a
225.4405	0.06	450881	keystroke	h	n/a
225.5755	0.075	451151	keystroke	o	n/a
225.7255	0.1055	451451	keystroke	p	n/a
226.5505	0.075	453101	keystroke	Key.enter	n/a
226.632	5.621	453264	prompt	n/a	vista tension nasa city\n
227.4955	0.075	454991	keystroke	v	n/a
227.6155	0.09	455231	keystroke	i	n/a
227.736	0.09	455472	keystroke	s	n/a
227.8105	0.075	455621	keystroke	t	n/a
227.9305	0.09	455861	keystroke	a	n/a
228.0355	0.06	456071	keystroke	Key.space	n/a
228.7555	0.12	457511	keystroke	t	n/a
228.8605	0.09	457721	keystroke	e	n/a
228.9065	0.1195	457813	keystroke	n	n/a
229.071	0.075	458142	keystroke	s	n/a
229.1755	0.2405	458351	keystroke	i	n/a
229.2505	0.12	458501	keystroke	o	n/a
229.296	0.1495	458592	keystroke	n	n/a
229.4305	0.0755	458861	keystroke	Key.space	n/a
230.301	0.09	460602	keystroke	n	n/a
230.345	0.091	460690	keystroke	a	n/a
230.5105	0.0895	461021	keystroke	s	n/a
230.631	0.074	461262	keystroke	a	n/a
230.735	0.076	461470	keystroke	Key.space	n/a
231.471	0.105	462942	keystroke	c	n/a
231.56	0.076	463120	keystroke	i	n/a
231.681	0.06	463362	keystroke	t	n/a
231.756	0.06	463512	keystroke	y	n/a
232.2205	0.0305	464441	keystroke	Key.enter	n/a
232.2575	8.0355	464515	prompt	n/a	survivor admissions cooked covers\n
232.821	0.075	465642	keystroke	s	n/a
233	0.076	466000	keystroke	u	n/a
233.091	0.09	466182	keystroke	r	n/a
233.391	0.075	466782	keystroke	i	n/a
233.481	0.075	466962	keystroke	v	n/a
233.946	0.014	467892	keystroke	Key.backspace	n/a
234.0355	0.075	468071	keystroke	Key.backspace	n/a
234.126	0.06	468252	keystroke	v	n/a
234.26	0.061	468520	keystroke	i	n/a
234.306	0.06	468612	keystroke	v	n/a
234.456	0.059	468912	keystroke	o	n/a
234.531	0.06	469062	keystroke	r	n/a
234.6355	0.075	469271	keystroke	Key.space	n/a
235.4155	0.12	470831	keystroke	a	n/a
235.5655	0.075	471131	keystroke	d	n/a
235.6555	0.0905	471311	keystroke	m	n/a
235.7905	0.09	471581	keystroke	i	n/a
235.8655	0.075	471731	keystroke	s	n/a
236.0155	0.075	472031	keystroke	s	n/a
236.0755	0.225	472151	keystroke	i	n/a
236.1505	0.1205	472301	keystroke	o	n/a
236.1665	0.164	472333	keystroke	n	n/a
236.2855	0.09	472571	keystroke	s	n/a
236.406	0.0745	472812	keystroke	Key.space	n/a
237.036	0.104	474072	keystroke	c	n/a
237.155	0.061	474310	keystroke	o	n/a
237.305	0.105	474610	keystroke	o	n/a
237.35	0.121	474700	keystroke	k	n/a
237.44	0.061	474880	keystroke	e	n/a
237.606	0.0745	475212	keystroke	d	n/a
237.7105	0.0745	475421	keystroke	Key.space	n/a
237.786	0.089	475572	keystroke	c	n/a
237.9055	0.075	475811	keystroke	o	n/a
237.9955	0.0605	475991	keystroke	v	n/a
238.116	0.09	476232	keystroke	e	n/a
238.191	0.105	476382	keystroke	r	n/a
238.265	0.076	476530	keystroke	e	n/a
238.4	0.091	476800	keystroke	s	n/a
238.865	0.06	477730	keystroke	Key.backspace	n/a
239.015	0.061	478030	keystroke	Key.backspace	n/a
239.181	0.0745	478362	keystroke	s	n/a
240.2455	0.045	480491	keystroke	Key.enter	n/a
240.3	10.897	480600	prompt	n/a	increased bloomberg submit statistical\n
241.0105	0.1055	482021	keystroke	i	n/a
241.071	0.09	482142	keystroke	n	n/a
241.146	0.09	482292	keystroke	c	n/a
241.341	0.15	482682	keystroke	r	n/a
241.446	0.075	482892	keystroke	e	n/a
241.506	0.1195	483012	keystroke	a	n/a
241.5815	0.12	483163	keystroke	s	n/a
241.641	0.105	483282	keystroke	e	n/a
241.851	0.06	483702	keystroke	d	n/a
241.9865	0.0735	483973	keystroke	Key.space	n/a
242.796	0.06	485592	keystroke	b	n/a
242.976	0.09	485952	keystroke	l	n/a
243.2305	0.105	486461	keystroke	o	n/a
243.576	0.12	487152	keystroke	o	n/a
243.756	0.105	487512	keystroke	m	n/a
243.9215	0.0745	487843	keystroke	b	n/a
244.116	0.135	488232	keystroke	e	n/a
244.235	0.06	488470	keystroke	r	n/a
244.776	0.06	489552	keystroke	g	n/a
244.9255	0.0755	489851	keystroke	Key.space	n/a
245.571	0.075	491142	keystroke	s	n/a
245.826	0.135	491652	keystroke	b	n/a
246.2755	0.0605	492551	keystroke	Key.backspace	n/a
246.5005	0.135	493001	keystroke	u	n/a
246.5755	0.09	493151	keystroke	b	n/a
246.8005	0.12	493601	keystroke	m	n/a
246.9355	0.06	493871	keystroke	i	n/a
246.9955	0.0605	493991	keystroke	t	n/a
247.1455	0.06	494291	keystroke	Key.space	n/a
247.806	0.1195	495612	keystroke	s	n/a
248.0305	0.09	496061	keystroke	t	n/a
248.1215	0.089	496243	keystroke	a	n/a
248.1655	0.105	496331	keystroke	t	n/a
248.301	0.1045	496602	keystroke	i	n/a
248.481	0.12	496962	keystroke	c	n/a
248.6015	0.134	497203	keystroke	s	n/a
248.991	0.045	497982	keystroke	Key.backspace	n/a
249.096	0.09	498192	keystroke	Key.backspace	n/a
249.171	0.09	498342	keystroke	s	n/a
249.2455	0.0445	498491	keystroke	t	n/a
249.3505	0.075	498701	keystroke	i	n/a
249.411	0.0895	498822	keystroke	c	n/a
249.47	0.0915	498940	keystroke	a	n/a
249.591	0.089	499182	keystroke	l	n/a
251.121	0.0745	502242	keystroke	Key.enter	n/a
251.201	5.547	502402	prompt	n/a	assuming needs diving beginner\n
251.8255	0.135	503651	keystroke	a	n/a
251.9905	0.0755	503981	keystroke	s	n/a
252.111	0.105	504222	keystroke	s	n/a
252.2165	0.0745	504433	keystroke	u	n/a
252.411	0.0745	504822	keystroke	m	n/a
252.531	0.0895	505062	keystroke	i	n/a
252.6055	0.06	505211	keystroke	n	n/a
252.6215	0.089	505243	keystroke	g	n/a
252.7555	0.0605	505511	keystroke	Key.space	n/a
253.2055	0.0755	506411	keystroke	n	n/a
253.2955	0.06	506591	keystroke	e	n/a
253.4605	0.06	506921	keystroke	e	n/a
253.6105	0.15	507221	keystroke	d	n/a
253.7005	0.105	507401	keystroke	s	n/a
253.7905	0.06	507581	keystroke	Key.space	n/a
253.9705	0.09	507941	keystroke	d	n/a
254.1055	0.0905	508211	keystroke	i	n/a
254.2555	0.045	508511	keystroke	v	n/a
254.3155	0.1055	508631	keystroke	i	n/a
254.376	0.12	508752	keystroke	n	n/a
254.481	0.03	508962	keystroke	g	n/a
254.54	0.076	509080	keystroke	Key.space	n/a
255.2755	0.075	510551	keystroke	b	n/a
255.3355	0.06	510671	keystroke	e	n/a
255.456	0.045	510912	keystroke	g	n/a
255.575	0.0755	511150	keystroke	i	n/a
255.6805	0.09	511361	keystroke	n	n/a
255.8155	0.075	511631	keystroke	n	n/a
255.891	0.105	511782	keystroke	e	n/a
255.9655	0.0755	511931	keystroke	r	n/a
256.7005	0.0455	513401	keystroke	Key.enter	n/a
256.7525	6.5945	513505	prompt	n/a	dated fallen dressed inserted\n
257.451	0.09	514902	keystroke	d	n/a
257.646	0.0895	515292	keystroke	a	n/a
257.8255	0.105	515651	keystroke	t	n/a
257.9005	0.09	515801	keystroke	e	n/a
258.051	0.09	516102	keystroke	d	n/a
258.1555	0.06	516311	keystroke	Key.space	n/a
258.5305	0.09	517061	keystroke	f	n/a
258.606	0.075	517212	keystroke	a	n/a
258.711	0.0595	517422	keystroke	l	n/a
258.8455	0.0605	517691	keystroke	l	n/a
258.891	0.09	517782	keystroke	e	n/a
258.996	0.0895	517992	keystroke	n	n/a
259.1005	0.0755	518201	keystroke	Key.space	n/a
259.3255	0.0755	518651	keystroke	d	n/a
259.506	0.135	519012	keystroke	r	n/a
259.596	0.12	519192	keystroke	e	n/a
259.671	0.075	519342	keystroke	s	n/a
259.836	0.104	519672	keystroke	s	n/a
259.986	0.06	519972	keystroke	e	n/a
260.136	0.075	520272	keystroke	d	n/a
260.225	0.061	520450	keystroke	Key.space	n/a
261.036	0.075	522072	keystroke	i	n/a
261.096	0.089	522192	keystroke	n	n/a
261.156	0.105	522312	keystroke	s	n/a
261.201	0.12	522402	keystroke	e	n/a
261.291	0.075	522582	keystroke	r	n/a
261.456	0.105	522912	keystroke	t	n/a
261.531	0.09	523062	keystroke	e	n/a
261.726	0.06	523452	keystroke	d	n/a
263.271	0.075	526542	keystroke	Key.enter	n/a
263.3505	6.537	526701	prompt	n/a	venue fully fragrances legs\n
263.9915	0.0595	527983	keystroke	v	n/a
264.156	0.06	528312	keystroke	e	n/a
264.3065	0.1195	528613	keystroke	n	n/a
264.441	0.105	528882	keystroke	u	n/a
264.501	0.0745	529002	keystroke	e	n/a
264.62	0.075	529240	keystroke	Key.space	n/a
265.341	0.015	530682	keystroke	f	n/a
265.536	0.0895	531072	keystroke	u	n/a
265.745	0.061	531490	keystroke	l	n/a
265.866	0.074	531732	keystroke	l	n/a
266.016	0.06	532032	keystroke	y	n/a
266.12	0.06	532240	keystroke	Key.space	n/a
266.781	0.0755	533562	keystroke	f	n/a
266.96	0.0755	533920	keystroke	r	n/a
267.066	0.1045	534132	keystroke	a	n/a
267.1555	0.075	534311	keystroke	g	n/a
267.5305	0.0905	535061	keystroke	r	n/a
267.6505	0.105	535301	keystroke	a	n/a
267.7705	0.1055	535541	keystroke	n	n/a
267.8305	0.12	535661	keystroke	c	n/a
267.9205	0.0895	535841	keystroke	e	n/a
268.071	0.09	536142	keystroke	s	n/a
268.221	0.06	536442	keystroke	Key.space	n/a
268.836	0.12	537672	keystroke	l	n/a
268.9715	0.0145	537943	keystroke	e	n/a
269.061	0.09	538122	keystroke	g	n/a
269.166	0.075	538332	keystroke	s	n/a
269.841	0.045	539682	keystroke	Key.enter	n/a
269.892	7.3905	539784	prompt	n/a	arrangement plans rescue surgeons\n
270.456	0.12	540912	keystroke	a	n/a
270.621	0.0745	541242	keystroke	r	n/a
270.756	0.09	541512	keystroke	r	n/a
270.921	0.1495	541842	keystroke	a	n/a
271.1755	0.09	542351	keystroke	n	n/a
271.3105	0.09	542621	keystroke	g	n/a
271.4015	0.089	542803	keystroke	e	n/a
271.5055	0.09	543011	keystroke	m	n/a
271.6255	0.091	543251	keystroke	e	n/a
271.7615	0.089	543523	keystroke	n	n/a
271.8205	0.075	543641	keystroke	t	n/a
271.9405	0.075	543881	keystroke	Key.space	n/a
272.7355	0.0455	545471	keystroke	p	n/a
273.081	0.06	546162	keystroke	l	n/a
273.171	0.075	546342	keystroke	a	n/a
273.276	0.105	546552	keystroke	n	n/a
273.381	0.06	546762	keystroke	s	n/a
273.471	0.0595	546942	keystroke	Key.space	n/a
273.906	0.1195	547812	keystroke	r	n/a
273.996	0.105	547992	keystroke	e	n/a
274.0555	0.105	548111	keystroke	s	n/a
274.3555	0.106	548711	keystroke	c	n/a
274.4755	0.075	548951	keystroke	u	n/a
274.5805	0.06	549161	keystroke	e	n/a
274.6855	0.045	549371	keystroke	Key.space	n/a
275.406	0.1495	550812	keystroke	s	n/a
275.5705	0.015	551141	keystroke	u	n/a
275.586	0.015	551172	keystroke	r	n/a
275.7055	0.06	551411	keystroke	g	n/a
275.7955	0.09	551591	keystroke	e	n/a
275.9905	0.075	551981	keystroke	o	n/a
276.1555	0.075	552311	keystroke	n	n/a
276.246	0.0755	552492	keystroke	s	n/a
277.206	0.075	554412	keystroke	Key.enter	n/a
277.287	7.316	554574	prompt	n/a	fate reflection aimed continued\n
278.03	0.1205	556060	keystroke	f	n/a
278.151	0.074	556302	keystroke	a	n/a
278.241	0.1195	556482	keystroke	t	n/a
278.316	0.1195	556632	keystroke	e	n/a
278.4505	0.06	556901	keystroke	Key.space	n/a
278.526	0.1195	557052	keystroke	r	n/a
278.6315	0.119	557263	keystroke	e	n/a
278.976	0.075	557952	keystroke	f	n/a
279.261	0.09	558522	keystroke	l	n/a
279.381	0.09	558762	keystroke	e	n/a
279.531	0.09	559062	keystroke	c	n/a
279.726	0.045	559452	keystroke	t	n/a
279.801	0.21	559602	keystroke	i	n/a
279.861	0.12	559722	keystroke	o	n/a
279.906	0.12	559812	keystroke	n	n/a
279.996	0.075	559992	keystroke	Key.space	n/a
280.956	0.12	561912	keystroke	a	n/a
281.1205	0.12	562241	keystroke	i	n/a
281.1955	0.1205	562391	keystroke	m	n/a
281.3005	0.06	562601	keystroke	e	n/a
281.4505	0.0745	562901	keystroke	d	n/a
281.4955	0.1195	562991	keystroke	Key.space	n/a
282.2755	0.09	564551	keystroke	c	n/a
282.381	0.1045	564762	keystroke	o	n/a
282.5005	0.105	565001	keystroke	n	n/a
282.6805	0.09	565361	keystroke	t	n/a
282.9655	0.105	565931	keystroke	i	n/a
283.0715	0.134	566143	keystroke	n	n/a
283.2205	0.06	566441	keystroke	u	n/a
283.296	0.0295	566592	keystroke	e	n/a
283.431	0.0745	566862	keystroke	d	n/a
284.5405	0.0605	569081	keystroke	Key.enter	n/a
284.607	9.3855	569214	prompt	n/a	birmingham sunrise jaguar packed\n
285.2905	0.0605	570581	keystroke	b	n/a
285.426	0.0595	570852	keystroke	i	n/a
285.4705	0.0455	570941	keystroke	r	n/a
286.071	0.1055	572142	keystroke	n	n/a
286.5805	0.06	573161	keystroke	Key.backspace	n/a
286.7755	0.075	573551	keystroke	m	n/a
286.941	0.075	573882	keystroke	i	n/a
287.0005	0.0905	574001	keystroke	n	n/a
287.0605	0.0595	574121	keystroke	g	n/a
287.301	0.06	574602	keystroke	h	n/a
287.406	0.075	574812	keystroke	a	n/a
287.481	0.075	574962	keystroke	m	n/a
287.6005	0.0755	575201	keystroke	Key.space	n/a
288.426	0.09	576852	keystroke	s	n/a
288.5465	0.134	577093	keystroke	u	n/a
288.6205	0.105	577241	keystroke	n	n/a
288.7405	0.09	577481	keystroke	r	n/a
288.8605	0.0605	577721	keystroke	i	n/a
288.921	0.1495	577842	keystroke	s	n/a
289.011	0.1195	578022	keystroke	e	n/a
289.1005	0.0605	578201	keystroke	Key.space	n/a
289.791	0.09	579582	keystroke	j	n/a
289.926	0.029	579852	keystroke	a	n/a
290.046	0.0745	580092	keystroke	g	n/a
290.211	0.075	580422	keystroke	u	n/a
290.361	0.105	580722	keystroke	a	n/a
290.45	0.075	580900	keystroke	r	n/a
290.57	0.045	581140	keystroke	Key.space	n/a
291.3205	0.0605	582641	keystroke	p	n/a
291.471	0.0895	582942	keystroke	c	n/a
291.486	0.03	582972	keystroke	a	n/a
291.5905	0.09	583181	keystroke	k	n/a
291.6955	0.0605	583391	keystroke	e	n/a
291.8605	0.046	583721	keystroke	d	n/a
292.0855	0.0455	584171	keystroke	Key.backspace	n/a
292.2055	0.06	584411	keystroke	Key.backspace	n/a
292.326	0.0745	584652	keystroke	Key.backspace	n/a
292.4905	0.0905	584981	keystroke	Key.backspace	n/a
292.656	0.075	585312	keystroke	Key.backspace	n/a
292.791	0.105	585582	keystroke	a	n/a
292.851	0.105	585702	keystroke	c	n/a
292.941	0.09	585882	keystroke	k	n/a
293.046	0.045	586092	keystroke	e	n/a
293.1815	0.0745	586363	keystroke	d	n/a
293.9155	0.075	587831	keystroke	Key.enter	n/a
293.997	6.776	587994	prompt	n/a	generally warner telecom simply\n
294.5905	0.075	589181	keystroke	g	n/a
294.7255	0.06	589451	keystroke	e	n/a
294.8005	0.0755	589601	keystroke	n	n/a
294.876	0.12	589752	keystroke	e	n/a
294.966	0.12	589932	keystroke	r	n/a
295.071	0.075	590142	keystroke	a	n/a
295.1465	0.089	590293	keystroke	l	n/a
295.281	0.104	590562	keystroke	l	n/a
295.506	0.06	591012	keystroke	y	n/a
295.5955	0.075	591191	keystroke	Key.space	n/a
296.1505	0.061	592301	keystroke	w	n/a
296.4065	0.089	592813	keystroke	a	n/a
296.5105	0.0605	593021	keystroke	r	n/a
296.6005	0.075	593201	keystroke	n	n/a
296.6905	0.09	593381	keystroke	e	n/a
296.7655	0.0755	593531	keystroke	r	n/a
296.8105	0.06	593621	keystroke	Key.space	n/a
297.546	0.0895	595092	keystroke	t	n/a
297.651	0.0595	595302	keystroke	e	n/a
297.7715	0.09	595543	keystroke	l	n/a
297.846	0.075	595692	keystroke	e	n/a
298.086	0.075	596172	keystroke	c	n/a
298.205	0.121	596410	keystroke	o	n/a
298.311	0.105	596622	keystroke	m	n/a
298.475	0.075	596950	keystroke	Key.space	n/a
299.2255	0.015	598451	keystroke	s	n/a
299.2855	0.0455	598571	keystroke	i	n/a
299.466	0.09	598932	keystroke	m	n/a
299.631	0.06	599262	keystroke	p	n/a
299.796	0.0745	599592	keystroke	l	n/a
300.006	0.06	600012	keystroke	y	n/a
300.741	0.03	601482	keystroke	Key.enter	n/a
300.7765	5.9965	601553	prompt	n/a	males proteins pray coordinated\n
301.3705	0.076	602741	keystroke	m	n/a
301.4755	0.0455	602951	keystroke	a	n/a
301.5655	0.09	603131	keystroke	l	n/a
301.671	0.1195	603342	keystroke	e	n/a
301.7455	0.1055	603491	keystroke	s	n/a
301.851	0.0595	603702	keystroke	Key.space	n/a
302.5115	0.0595	605023	keystroke	p	n/a
302.5855	0.0755	605171	keystroke	r	n/a
302.69	0.061	605380	keystroke	o	n/a
302.781	0.105	605562	keystroke	t	n/a
302.856	0.0895	605712	keystroke	e	n/a
302.991	0.075	605982	keystroke	i	n/a
303.0365	0.09	606073	keystroke	n	n/a
303.1715	0.045	606343	keystroke	s	n/a
303.261	0.0595	606522	keystroke	Key.space	n/a
304.026	0.1195	608052	keystroke	p	n/a
304.175	0.105	608350	keystroke	r	n/a
304.265	0.076	608530	keystroke	a	n/a
304.355	0.0465	608710	keystroke	y	n/a
304.4305	0.0595	608861	keystroke	Key.space	n/a
305.0305	0.0755	610061	keystroke	c	n/a
305.136	0.0905	610272	keystroke	o	n/a
305.286	0.075	610572	keystroke	o	n/a
305.376	0.12	610752	keystroke	r	n/a
305.481	0.089	610962	keystroke	d	n/a
305.541	0.15	611082	keystroke	i	n/a
305.646	0.1055	611292	keystroke	n	n/a
305.7355	0.0745	611471	keystroke	a	n/a
305.826	0.09	611652	keystroke	t	n/a
305.886	0.09	611772	keystroke	e	n/a
306.035	0.0905	612070	keystroke	d	n/a
306.726	0.0445	613452	keystroke	Key.enter	n/a
306.777	11.3655	613554	prompt	n/a	incl strengthening sleeping whom'st\n
307.6115	0.074	615223	keystroke	i	n/a
307.7155	0.09	615431	keystroke	n	n/a
307.8355	0.0905	615671	keystroke	c	n/a
307.971	0.0895	615942	keystroke	l	n/a
308.1205	0.075	616241	keystroke	Key.space	n/a
308.4505	0.075	616901	keystroke	s	n/a
308.5705	0.075	617141	keystroke	t	n/a
308.6905	0.121	617381	keystroke	r	n/a
308.7965	0.089	617593	keystroke	e	n/a
308.8705	0.09	617741	keystroke	n	n/a
309.006	0.0605	618012	keystroke	g	n/a
309.2155	0.0915	618431	keystroke	h	n/a
309.741	0.044	619482	keystroke	Key.backspace	n/a
309.846	0.06	619692	keystroke	t	n/a
309.921	0.06	619842	keystroke	h	n/a
310.041	0.105	620082	keystroke	e	n/a
310.2655	0.075	620531	keystroke	n	n/a
310.4305	0.1055	620861	keystroke	i	n/a
310.5055	0.075	621011	keystroke	n	n/a
310.551	0.0595	621102	keystroke	g	n/a
310.6555	0.0605	621311	keystroke	Key.space	n/a
311.4215	0.09	622843	keystroke	s	n/a
311.496	0.105	622992	keystroke	l	n/a
311.646	0.06	623292	keystroke	e	n/a
311.781	0.06	623562	keystroke	e	n/a
311.856	0.09	623712	keystroke	p	n/a
312.351	0.105	624702	keystroke	i	n/a
312.4415	0.0895	624883	keystroke	n	n/a
312.516	0.06	625032	keystroke	g	n/a
312.636	0.09	625272	keystroke	Key.space	n/a
313.206	0.0895	626412	keystroke	h	n/a
313.5655	0.0605	627131	keystroke	Key.backspace	n/a
313.6415	0.089	627283	keystroke	w	n/a
313.8205	0.1355	627641	keystroke	o	n/a
313.896	0.105	627792	keystroke	m	n/a
314.6155	0.0145	629231	keystroke	Key.backspace	n/a
314.661	0.0745	629322	keystroke	Key.backspace	n/a
314.856	0.105	629712	keystroke	h	n/a
315.066	0.135	630132	keystroke	o	n/a
315.156	0.1055	630312	keystroke	m	n/a
316.7005	0.0905	633401	keystroke	'	n/a
316.8505	0.135	633701	keystroke	s	n/a
317.0005	0.0455	634001	keystroke	t	n/a
318.0655	0.075	636131	keystroke	Key.enter	n/a
318.1485	4.974	636297	prompt	n/a	stays long closes warrior\n
318.816	0.075	637632	keystroke	s	n/a
318.9505	0.0905	637901	keystroke	t	n/a
319.056	0.0595	638112	keystroke	a	n/a
319.2055	0.076	638411	keystroke	y	n/a
319.3105	0.09	638621	keystroke	s	n/a
319.416	0.0745	638832	keystroke	Key.space	n/a
319.671	0.075	639342	keystroke	l	n/a
319.851	0.105	639702	keystroke	o	n/a
319.957	0.089	639914	keystroke	n	n/a
320.016	0.09	640032	keystroke	g	n/a
320.151	0.045	640302	keystroke	Key.space	n/a
320.271	0.075	640542	keystroke	c	n/a
320.391	0.045	640782	keystroke	l	n/a
320.541	0.045	641082	keystroke	o	n/a
320.601	0.1045	641202	keystroke	s	n/a
320.676	0.0895	641352	keystroke	e	n/a
320.8255	0.0905	641651	keystroke	s	n/a
321.276	0.059	642552	keystroke	Key.space	n/a
321.5005	0.09	643001	keystroke	w	n/a
321.6505	0.1205	643301	keystroke	a	n/a
321.756	0.0595	643512	keystroke	r	n/a
321.9055	0.06	643811	keystroke	r	n/a
321.9205	0.06	643841	keystroke	i	n/a
322.1905	0.09	644381	keystroke	o	n/a
322.3405	0.045	644681	keystroke	r	n/a
323.091	0.03	646182	keystroke	Key.enter	n/a
323.125	8.428	646250	prompt	n/a	differently practice replaced subscriber\n
323.781	0.105	647562	keystroke	d	n/a
323.9015	0.059	647803	keystroke	i	n/a
323.9455	0.0455	647891	keystroke	f	n/a
324.0805	0.061	648161	keystroke	f	n/a
324.1855	0.075	648371	keystroke	e	n/a
324.276	0.0895	648552	keystroke	r	n/a
324.3515	0.0745	648703	keystroke	e	n/a
324.4405	0.09	648881	keystroke	n	n/a
324.5455	0.0455	649091	keystroke	t	n/a
324.6055	0.105	649211	keystroke	l	n/a
324.801	0.06	649602	keystroke	y	n/a
324.8905	0.06	649781	keystroke	Key.space	n/a
325.746	0.075	651492	keystroke	p	n/a
325.836	0.06	651672	keystroke	r	n/a
325.941	0.09	651882	keystroke	a	n/a
326.016	0.09	652032	keystroke	c	n/a
326.436	0.075	652872	keystroke	t	n/a
326.6615	0.0895	653323	keystroke	i	n/a
326.721	0.1055	653442	keystroke	c	n/a
327.111	0.06	654222	keystroke	Key.space	n/a
327.501	0.075	655002	keystroke	Key.backspace	n/a
327.5615	0.0745	655123	keystroke	e	n/a
327.651	0.075	655302	keystroke	Key.space	n/a
328.551	0.06	657102	keystroke	r	n/a
328.58	0.105	657160	keystroke	e	n/a
328.7015	0.0445	657403	keystroke	p	n/a
328.851	0.0755	657702	keystroke	l	n/a
328.9115	0.0895	657823	keystroke	a	n/a
328.971	0.105	657942	keystroke	c	n/a
329.061	0.075	658122	keystroke	e	n/a
329.2265	0.0745	658453	keystroke	d	n/a
329.3305	0.0745	658661	keystroke	Key.space	n/a
330.036	0.09	660072	keystroke	s	n/a
330.1865	0.1035	660373	keystroke	u	n/a
330.261	0.089	660522	keystroke	b	n/a
330.351	0.075	660702	keystroke	s	n/a
330.486	0.075	660972	keystroke	c	n/a
330.665	0.0605	661330	keystroke	r	n/a
330.7405	0.075	661481	keystroke	i	n/a
330.846	0.09	661692	keystroke	b	n/a
330.9505	0.12	661901	keystroke	e	n/a
331.041	0.06	662082	keystroke	r	n/a
331.506	0.0445	663012	keystroke	Key.enter	n/a
331.557	6.3855	663114	prompt	n/a	tribe enjoyed mess busy\n
332.166	0.0445	664332	keystroke	t	n/a
332.2855	0.0605	664571	keystroke	r	n/a
332.3605	0.091	664721	keystroke	i	n/a
332.511	0.0745	665022	keystroke	b	n/a
332.6005	0.0605	665201	keystroke	e	n/a
332.6905	0.06	665381	keystroke	Key.space	n/a
333.171	0.09	666342	keystroke	e	n/a
333.276	0.075	666552	keystroke	n	n/a
333.4855	0.0755	666971	keystroke	j	n/a
333.6205	0.075	667241	keystroke	o	n/a
333.7405	0.0755	667481	keystroke	y	n/a
333.8465	0.075	667693	keystroke	e	n/a
334.026	0.0595	668052	keystroke	d	n/a
334.0855	0.06	668171	keystroke	Key.space	n/a
334.8815	0.119	669763	keystroke	m	n/a
334.9705	0.1205	669941	keystroke	e	n/a
335.181	0.0755	670362	keystroke	s	n/a
335.331	0.09	670662	keystroke	s	n/a
335.435	0.075	670870	keystroke	Key.space	n/a
336.006	0.075	672012	keystroke	b	n/a
336.111	0.075	672222	keystroke	u	n/a
336.2315	0.104	672463	keystroke	s	n/a
336.3055	0.06	672611	keystroke	y	n/a
337.8655	0.075	675731	keystroke	Key.enter	n/a
337.9475	6.175	675895	prompt	n/a	emerald aimed incl specials\n
338.916	0.045	677832	keystroke	e	n/a
339.005	0.1055	678010	keystroke	m	n/a
339.081	0.1355	678162	keystroke	e	n/a
339.186	0.1205	678372	keystroke	r	n/a
339.291	0.0745	678582	keystroke	a	n/a
339.351	0.0745	678702	keystroke	l	n/a
339.5915	0.104	679183	keystroke	d	n/a
339.7405	0.075	679481	keystroke	Key.space	n/a
340.551	0.0755	681102	keystroke	a	n/a
340.671	0.1045	681342	keystroke	i	n/a
340.7465	0.0895	681493	keystroke	m	n/a
340.806	0.075	681612	keystroke	e	n/a
340.9705	0.1055	681941	keystroke	d	n/a
341.061	0.075	682122	keystroke	Key.space	n/a
341.9615	0.1195	683923	keystroke	i	n/a
342.0205	0.105	684041	keystroke	n	n/a
342.1105	0.06	684221	keystroke	c	n/a
342.1705	0.1055	684341	keystroke	l	n/a
342.3505	0.0755	684701	keystroke	Key.space	n/a
342.9955	0.0755	685991	keystroke	s	n/a
343.1155	0.075	686231	keystroke	p	n/a
343.1755	0.075	686351	keystroke	e	n/a
343.281	0.0745	686562	keystroke	c	n/a
343.371	0.0595	686742	keystroke	i	n/a
343.4755	0.0755	686951	keystroke	a	n/a
343.5355	0.09	687071	keystroke	l	n/a
343.6405	0.075	687281	keystroke	s	n/a
344.0455	0.075	688091	keystroke	Key.enter	n/a
344.1275	8.486	688255	prompt	n/a	remain surprise highlights couldn't\n
344.871	0.104	689742	keystroke	r	n/a
344.945	0.106	689890	keystroke	e	n/a
345.0355	0.1055	690071	keystroke	m	n/a
345.171	0.075	690342	keystroke	a	n/a
345.2915	0.1495	690583	keystroke	i	n/a
345.4105	0.121	690821	keystroke	n	n/a
345.5155	0.075	691031	keystroke	Key.space	n/a
345.86	0.0755	691720	keystroke	s	n/a
346.0255	0.0605	692051	keystroke	u	n/a
346.371	0.09	692742	keystroke	r	n/a
346.506	0.09	693012	keystroke	p	n/a
346.6555	0.0895	693311	keystroke	r	n/a
346.8815	0.0895	693763	keystroke	i	n/a
347.031	0.105	694062	keystroke	s	n/a
347.091	0.105	694182	keystroke	e	n/a
347.2705	0.075	694541	keystroke	Key.space	n/a
347.9605	0.0905	695921	keystroke	h	n/a
348.051	0.075	696102	keystroke	i	n/a
348.171	0.0445	696342	keystroke	g	n/a
348.231	0.0895	696462	keystroke	h	n/a
348.366	0.09	696732	keystroke	l	n/a
348.561	0.06	697122	keystroke	i	n/a
348.651	0.09	697302	keystroke	g	n/a
348.726	0.075	697452	keystroke	h	n/a
348.876	0.105	697752	keystroke	t	n/a
348.966	0.1195	697932	keystroke	s	n/a
349.0705	0.075	698141	keystroke	Key.space	n/a
349.7155	0.0745	699431	keystroke	s	n/a
350.046	0.075	700092	keystroke	Key.backspace	n/a
350.136	0.0905	700272	keystroke	c	n/a
350.241	0.09	700482	keystroke	o	n/a
350.3015	0.0895	700603	keystroke	u	n/a
350.421	0.105	700842	keystroke	l	n/a
350.526	0.06	701052	keystroke	d	n/a
350.616	0.074	701232	keystroke	n	n/a
351.291	0.075	702582	keystroke	'	n/a
351.396	0.06	702792	keystroke	t	n/a
352.551	0.0595	705102	keystroke	Key.enter	n/a
352.6185	7.5085	705237	prompt	n/a	brunei generating birds offerings\n
353.571	0.09	707142	keystroke	b	n/a
353.646	0.075	707292	keystroke	r	n/a
353.751	0.075	707502	keystroke	u	n/a
353.946	0.0895	707892	keystroke	n	n/a
354.0505	0.0605	708101	keystroke	e	n/a
354.1555	0.06	708311	keystroke	i	n/a
354.2605	0.075	708521	keystroke	Key.space	n/a
355.281	0.105	710562	keystroke	g	n/a
355.4005	0.0755	710801	keystroke	e	n/a
355.49	0.106	710980	keystroke	n	n/a
355.596	0.1195	711192	keystroke	e	n/a
355.79	0.106	711580	keystroke	r	n/a
355.941	0.09	711882	keystroke	a	n/a
356.031	0.075	712062	keystroke	t	n/a
356.241	0.12	712482	keystroke	i	n/a
356.286	0.119	712572	keystroke	n	n/a
356.391	0.06	712782	keystroke	g	n/a
356.541	0.059	713082	keystroke	Key.space	n/a
357.411	0.075	714822	keystroke	b	n/a
357.516	0.09	715032	keystroke	i	n/a
357.545	0.121	715090	keystroke	r	n/a
357.666	0.225	715332	keystroke	d	n/a
357.831	0.135	715662	keystroke	s	n/a
357.9505	0.0605	715901	keystroke	Key.space	n/a
358.446	0.06	716892	keystroke	o	n/a
358.491	0.06	716982	keystroke	f	n/a
358.641	0.09	717282	keystroke	f	n/a
358.746	0.12	717492	keystroke	e	n/a
358.836	0.09	717672	keystroke	r	n/a
358.971	0.1055	717942	keystroke	i	n/a
359.0015	0.119	718003	keystroke	n	n/a
359.091	0.0755	718182	keystroke	g	n/a
359.1805	0.0605	718361	keystroke	s	n/a
360.0805	0.045	720161	keystroke	Key.enter	n/a
360.1315	6.0105	720263	prompt	n/a	rational fusion customer strings\n
360.7405	0.105	721481	keystroke	r	n/a
360.8605	0.09	721721	keystroke	a	n/a
360.936	0.0745	721872	keystroke	t	n/a
361.026	0.179	722052	keystroke	i	n/a
361.056	0.134	722112	keystroke	o	n/a
361.115	0.12	722230	keystroke	n	n/a
361.2205	0.106	722441	keystroke	a	n/a
361.341	0.075	722682	keystroke	l	n/a
361.4605	0.09	722921	keystroke	Key.space	n/a
361.94	0.09	723880	keystroke	f	n/a
362.0455	0.0605	724091	keystroke	u	n/a
362.151	0.104	724302	keystroke	s	n/a
362.271	0.18	724542	keystroke	i	n/a
362.316	0.105	724632	keystroke	o	n/a
362.361	0.12	724722	keystroke	n	n/a
362.466	0.075	724932	keystroke	Key.space	n/a
363.246	0.075	726492	keystroke	c	n/a
363.4265	0.0595	726853	keystroke	u	n/a
363.5005	0.1205	727001	keystroke	s	n/a
363.591	0.059	727182	keystroke	t	n/a
363.666	0.074	727332	keystroke	o	n/a
363.68	0.1055	727360	keystroke	m	n/a
363.8015	0.0895	727603	keystroke	e	n/a
363.86	0.076	727720	keystroke	r	n/a
363.92	0.0605	727840	keystroke	Key.space	n/a
364.686	0.0755	729372	keystroke	s	n/a
364.791	0.075	729582	keystroke	t	n/a
364.971	0.03	729942	keystroke	r	n/a
364.986	0.0895	729972	keystroke	i	n/a
365.0305	0.09	730061	keystroke	n	n/a
365.1355	0.09	730271	keystroke	g	n/a
365.211	0.105	730422	keystroke	s	n/a
366.066	0.0745	732132	keystroke	Key.enter	n/a
366.1445	13.213	732289	prompt	n/a	bedford pursuant stanley remove\n
366.7855	0.075	733571	keystroke	b	n/a
366.816	0.06	733632	keystroke	e	n/a
366.9805	0.0605	733961	keystroke	d	n/a
367.056	0.075	734112	keystroke	f	n/a
367.145	0.076	734290	keystroke	o	n/a
367.236	0.074	734472	keystroke	r	n/a
367.386	0.015	734772	keystroke	e	n/a
367.5215	0.0595	735043	keystroke	d	n/a
368.015	0.061	736030	keystroke	Key.backspace	n/a
368.166	0.0745	736332	keystroke	Key.backspace	n/a
368.226	0.0895	736452	keystroke	d	n/a
368.331	0.0745	736662	keystroke	Key.space	n/a
369.7255	0.0905	739451	keystroke	p	n/a
369.9355	0.0605	739871	keystroke	u	n/a
370.0415	0.0745	740083	keystroke	r	n/a
370.3855	0.09	740771	keystroke	s	n/a
370.6255	0.0605	741251	keystroke	a	n/a
370.9105	0.075	741821	keystroke	Key.backspace	n/a
371.0455	0.075	742091	keystroke	u	n/a
371.1355	0.0755	742271	keystroke	a	n/a
371.286	0.0605	742572	keystroke	n	n/a
371.3905	0.046	742781	keystroke	t	n/a
371.4805	0.06	742961	keystroke	Key.space	n/a
372.336	0.09	744672	keystroke	s	n/a
372.486	0.06	744972	keystroke	t	n/a
373.0705	0.09	746141	keystroke	a	n/a
373.2215	0.0895	746443	keystroke	n	n/a
373.371	0.045	746742	keystroke	d	n/a
373.4755	0.09	746951	keystroke	l	n/a
373.9855	0.0455	747971	keystroke	Key.backspace	n/a
374.1205	0.06	748241	keystroke	Key.backspace	n/a
374.3165	0.0445	748633	keystroke	k	n/a
374.4805	0.0605	748961	keystroke	e	n/a
374.7055	0.0455	749411	keystroke	Key.backspace	n/a
374.8405	0.0605	749681	keystroke	Key.backspace	n/a
374.991	0.0295	749982	keystroke	Key.backspace	n/a
375.5755	0.1355	751151	keystroke	n	n/a
375.8465	0.1195	751693	keystroke	l	n/a
375.996	0.06	751992	keystroke	e	n/a
376.116	0.06	752232	keystroke	y	n/a
376.236	0.075	752472	keystroke	Key.space	n/a
377.136	0.09	754272	keystroke	r	n/a
377.196	0.1055	754392	keystroke	e	n/a
377.271	0.105	754542	keystroke	m	n/a
377.39	0.091	754780	keystroke	o	n/a
377.435	0.091	754870	keystroke	v	n/a
377.586	0.075	755172	keystroke	e	n/a
379.2955	0.06	758591	keystroke	Key.enter	n/a
379.3625	5.4845	758725	prompt	n/a	disorders mighty atomic root\n
379.986	0.0745	759972	keystroke	d	n/a
380.0905	0.075	760181	keystroke	i	n/a
380.1805	0.076	760361	keystroke	s	n/a
380.3005	0.075	760601	keystroke	o	n/a
380.421	0.1205	760842	keystroke	r	n/a
380.5255	0.075	761051	keystroke	d	n/a
380.6755	0.1655	761351	keystroke	e	n/a
380.7805	0.1205	761561	keystroke	r	n/a
380.916	0.12	761832	keystroke	s	n/a
381.0505	0.075	762101	keystroke	Key.space	n/a
381.8465	0.104	763693	keystroke	m	n/a
381.981	0.0745	763962	keystroke	i	n/a
382.0705	0.075	764141	keystroke	g	n/a
382.161	0.075	764322	keystroke	h	n/a
382.2505	0.061	764501	keystroke	t	n/a
382.356	0.0455	764712	keystroke	y	n/a
382.4305	0.0755	764861	keystroke	Key.space	n/a
383.136	0.06	766272	keystroke	a	n/a
383.271	0.045	766542	keystroke	t	n/a
383.346	0.09	766692	keystroke	o	n/a
383.406	0.075	766812	keystroke	m	n/a
383.556	0.075	767112	keystroke	i	n/a
383.616	0.075	767232	keystroke	c	n/a
383.721	0.09	767442	keystroke	Key.space	n/a
384.111	0.0595	768222	keystroke	r	n/a
384.186	0.074	768372	keystroke	o	n/a
384.29	0.09	768580	keystroke	o	n/a
384.366	0.045	768732	keystroke	t	n/a
384.785	0.06	769570	keystroke	Key.enter	n/a
384.85	7.9625	769700	prompt	n/a	odds demonstrated condition bolivia\n
385.551	0.03	771102	keystroke	o	n/a
385.595	0.061	771190	keystroke	d	n/a
385.746	0.15	771492	keystroke	d	n/a
385.851	0.12	771702	keystroke	s	n/a
386.001	0.075	772002	keystroke	Key.space	n/a
386.2415	0.0595	772483	keystroke	d	n/a
386.391	0.06	772782	keystroke	e	n/a
386.465	0.1055	772930	keystroke	m	n/a
386.661	0.0295	773322	keystroke	o	n/a
387.2605	0.09	774521	keystroke	n	n/a
387.441	0.09	774882	keystroke	s	n/a
387.5455	0.0605	775091	keystroke	t	n/a
387.6655	0.12	775331	keystroke	r	n/a
387.7705	0.075	775541	keystroke	a	n/a
387.8465	0.105	775693	keystroke	t	n/a
387.9055	0.1055	775811	keystroke	e	n/a
388.116	0.075	776232	keystroke	d	n/a
388.206	0.045	776412	keystroke	Key.space	n/a
388.941	0.09	777882	keystroke	c	n/a
389.001	0.105	778002	keystroke	o	n/a
389.061	0.09	778122	keystroke	n	n/a
389.1665	0.0745	778333	keystroke	d	n/a
389.256	0.09	778512	keystroke	i	n/a
389.376	0.06	778752	keystroke	t	n/a
389.451	0.195	778902	keystroke	i	n/a
389.511	0.09	779022	keystroke	o	n/a
389.526	0.15	779052	keystroke	n	n/a
389.66	0.0305	779320	keystroke	Key.space	n/a
390.651	0.0295	781302	keystroke	b	n/a
390.9505	0.0905	781901	keystroke	o	n/a
391.1465	0.0745	782293	keystroke	l	n/a
391.311	0.075	782622	keystroke	i	n/a
391.416	0.075	782832	keystroke	v	n/a
391.536	0.06	783072	keystroke	i	n/a
391.641	0.06	783282	keystroke	a	n/a
392.7505	0.06	785501	keystroke	Key.enter	n/a
392.817	6.7005	785634	prompt	n/a	rain credit lloyd optimize\n
393.5465	0.0595	787093	keystroke	r	n/a
393.6205	0.075	787241	keystroke	a	n/a
393.7255	0.075	787451	keystroke	i	n/a
393.7705	0.1055	787541	keystroke	n	n/a
393.8605	0.0755	787721	keystroke	Key.space	n/a
394.101	0.0745	788202	keystroke	c	n/a
394.2815	0.1045	788563	keystroke	r	n/a
394.3255	0.0905	788651	keystroke	e	n/a
394.491	0.0895	788982	keystroke	d	n/a
394.596	0.075	789192	keystroke	i	n/a
394.701	0.06	789402	keystroke	t	n/a
394.7905	0.075	789581	keystroke	Key.space	n/a
395.346	0.0595	790692	keystroke	l	n/a
395.5105	0.075	791021	keystroke	l	n/a
395.7355	0.075	791471	keystroke	o	n/a
395.9615	0.0895	791923	keystroke	y	n/a
396.156	0.06	792312	keystroke	d	n/a
396.396	0.045	792792	keystroke	Key.space	n/a
397.3405	0.1355	794681	keystroke	o	n/a
397.8515	0.0745	795703	keystroke	p	n/a
398.061	0.045	796122	keystroke	t	n/a
398.196	0.165	796392	keystroke	i	n/a
398.316	0.135	796632	keystroke	m	n/a
398.481	0.105	796962	keystroke	i	n/a
398.571	0.075	797142	keystroke	z	n/a
398.721	0.06	797442	keystroke	e	n/a
399.441	0.075	798882	keystroke	Key.enter	n/a
399.525	7.1175	799050	prompt	n/a	forge imports mexican custom\n
400.1765	0.0745	800353	keystroke	f	n/a
400.341	0.075	800682	keystroke	o	n/a
400.431	0.06	800862	keystroke	r	n/a
400.5965	0.0895	801193	keystroke	g	n/a
400.656	0.12	801312	keystroke	e	n/a
400.761	0.075	801522	keystroke	Key.space	n/a
401.421	0.1645	802842	keystroke	i	n/a
401.5715	0.104	803143	keystroke	m	n/a
401.7065	0.089	803413	keystroke	p	n/a
401.886	0.09	803772	keystroke	o	n/a
401.961	0.06	803922	keystroke	r	n/a
402.1105	0.1355	804221	keystroke	t	n/a
402.201	0.1195	804402	keystroke	s	n/a
402.3215	0.074	804643	keystroke	Key.space	n/a
402.996	0.09	805992	keystroke	m	n/a
403.0555	0.06	806111	keystroke	e	n/a
403.206	0.09	806412	keystroke	x	n/a
403.3705	0.075	806741	keystroke	i	n/a
403.521	0.09	807042	keystroke	c	n/a
403.5955	0.09	807191	keystroke	a	n/a
403.671	0.0895	807342	keystroke	n	n/a
403.7905	0.075	807581	keystroke	Key.space	n/a
404.4355	0.09	808871	keystroke	c	n/a
404.6155	0.045	809231	keystroke	o	n/a
404.8855	0.0605	809771	keystroke	Key.backspace	n/a
405.0065	0.0745	810013	keystroke	u	n/a
405.111	0.06	810222	keystroke	s	n/a
405.216	0.06	810432	keystroke	t	n/a
405.306	0.075	810612	keystroke	o	n/a
405.336	0.075	810672	keystroke	m	n/a
406.566	0.0745	813132	keystroke	Key.enter	n/a
406.647	6.521	813294	prompt	n/a	untitled infant producer puts\n
407.5105	0.075	815021	keystroke	u	n/a
407.6915	0.104	815383	keystroke	n	n/a
407.8565	0.06	815713	keystroke	t	n/a
407.976	0.0895	815952	keystroke	i	n/a
408.0815	0.059	816163	keystroke	t	n/a
408.2005	0.076	816401	keystroke	l	n/a
408.2615	0.105	816523	keystroke	e	n/a
408.441	0.0905	816882	keystroke	d	n/a
408.5455	0.0605	817091	keystroke	Key.space	n/a
409.1465	0.0745	818293	keystroke	i	n/a
409.1605	0.0905	818321	keystroke	n	n/a
409.2365	0.059	818473	keystroke	f	n/a
409.3115	0.059	818623	keystroke	a	n/a
409.356	0.0745	818712	keystroke	n	n/a
409.4915	0.0595	818983	keystroke	t	n/a
409.536	0.09	819072	keystroke	Key.space	n/a
410.436	0.075	820872	keystroke	p	n/a
410.541	0.075	821082	keystroke	r	n/a
410.991	0.09	821982	keystroke	o	n/a
411.141	0.075	822282	keystroke	d	n/a
411.246	0.075	822492	keystroke	u	n/a
411.336	0.075	822672	keystroke	c	n/a
411.471	0.12	822942	keystroke	e	n/a
411.561	0.0755	823122	keystroke	r	n/a
411.695	0.061	823390	keystroke	Key.space	n/a
412.476	0.075	824952	keystroke	p	n/a
412.641	0.0595	825282	keystroke	u	n/a
412.7015	0.104	825403	keystroke	t	n/a
412.7915	0.09	825583	keystroke	s	n/a
413.1055	0.06	826211	keystroke	Key.enter	n/a
413.171	5.997	826342	prompt	n/a	heroes wayne fixtures trusts\n
413.871	0.06	827742	keystroke	h	n/a
413.916	0.12	827832	keystroke	e	n/a
413.991	0.09	827982	keystroke	r	n/a
414.096	0.045	828192	keystroke	o	n/a
414.156	0.165	828312	keystroke	e	n/a
414.276	0.12	828552	keystroke	s	n/a
414.351	0.06	828702	keystroke	Key.space	n/a
414.711	0.105	829422	keystroke	w	n/a
414.816	0.06	829632	keystroke	a	n/a
414.966	0.06	829932	keystroke	y	n/a
415.146	0.075	830292	keystroke	n	n/a
415.236	0.075	830472	keystroke	e	n/a
415.326	0.06	830652	keystroke	Key.space	n/a
416.0315	0.075	832063	keystroke	f	n/a
416.1365	0.0745	832273	keystroke	i	n/a
416.2265	0.06	832453	keystroke	x	n/a
416.3615	0.0445	832723	keystroke	t	n/a
416.466	0.075	832932	keystroke	u	n/a
416.526	0.075	833052	keystroke	r	n/a
416.5715	0.12	833143	keystroke	e	n/a
417.0205	0.0905	834041	keystroke	s	n/a
417.171	0.0745	834342	keystroke	Key.space	n/a
417.8915	0.045	835783	keystroke	t	n/a
418.041	0.0895	836082	keystroke	r	n/a
418.176	0.0615	836352	keystroke	u	n/a
418.3255	0.1205	836651	keystroke	s	n/a
418.4605	0.1055	836921	keystroke	t	n/a
418.641	0.09	837282	keystroke	s	n/a
419.1055	0.06	838211	keystroke	Key.enter	n/a
419.1725	5.546	838345	prompt	n/a	lexus gather entirely clubs\n
419.9015	0.059	839803	keystroke	l	n/a
419.976	0.0745	839952	keystroke	e	n/a
420.186	0.0745	840372	keystroke	x	n/a
420.2905	0.0605	840581	keystroke	u	n/a
420.4115	0.059	840823	keystroke	s	n/a
420.516	0.045	841032	keystroke	Key.space	n/a
421.0865	0.06	842173	keystroke	g	n/a
421.1615	0.12	842323	keystroke	a	n/a
421.2815	0.06	842563	keystroke	t	n/a
421.3565	0.075	842713	keystroke	h	n/a
421.4455	0.091	842891	keystroke	e	n/a
421.5055	0.105	843011	keystroke	r	n/a
421.5815	0.074	843163	keystroke	Key.space	n/a
422.4065	0.075	844813	keystroke	e	n/a
422.4965	0.075	844993	keystroke	n	n/a
422.5865	0.029	845173	keystroke	t	n/a
422.6905	0.076	845381	keystroke	i	n/a
422.7365	0.104	845473	keystroke	r	n/a
422.8105	0.12	845621	keystroke	e	n/a
422.9455	0.061	845891	keystroke	l	n/a
423.1415	0.03	846283	keystroke	y	n/a
423.2315	0.044	846463	keystroke	Key.space	n/a
423.861	0.0755	847722	keystroke	c	n/a
423.922	0.074	847844	keystroke	l	n/a
424.1315	0.0895	848263	keystroke	u	n/a
424.176	0.075	848352	keystroke	b	n/a
424.2965	0.0745	848593	keystroke	s	n/a
424.6565	0.0595	849313	keystroke	Key.enter	n/a
424.722	16.1655	849444	prompt	n/a	accountability administrative netherlands processes\n
425.3605	0.06	850721	keystroke	a	n/a
425.4955	0.061	850991	keystroke	c	n/a
425.6455	0.06	851291	keystroke	c	n/a
425.7205	0.076	851441	keystroke	o	n/a
425.7665	0.044	851533	keystroke	u	n/a
425.9165	0.074	851833	keystroke	n	n/a
425.9915	0.0895	851983	keystroke	t	n/a
426.1555	0.015	852311	keystroke	a	n/a
426.6665	0.0445	853333	keystroke	b	n/a
426.7865	0.1345	853573	keystroke	i	n/a
426.936	0.09	853872	keystroke	l	n/a
427.056	0.06	854112	keystroke	i	n/a
427.251	0.06	854502	keystroke	t	n/a
427.341	0.0755	854682	keystroke	y	n/a
427.551	0.0295	855102	keystroke	Key.space	n/a
428.2865	0.1045	856573	keystroke	a	n/a
428.4065	0.075	856813	keystroke	d	n/a
428.5265	0.089	857053	keystroke	m	n/a
428.661	0.1345	857322	keystroke	i	n/a
428.7805	0.121	857561	keystroke	n	n/a
428.9165	0.09	857833	keystroke	s	n/a
429.0215	0.06	858043	keystroke	t	n/a
429.1415	0.09	858283	keystroke	r	n/a
429.2465	0.075	858493	keystroke	a	n/a
429.3365	0.0455	858673	keystroke	t	n/a
429.4265	0.06	858853	keystroke	i	n/a
429.5465	0.0745	859093	keystroke	v	n/a
429.636	0.075	859272	keystroke	e	n/a
429.756	0.045	859512	keystroke	Key.space	n/a
431.691	0.06	863382	keystroke	Key.backspace	n/a
431.856	0.015	863712	keystroke	Key.backspace	n/a
432.321	0.045	864642	keystroke	Key.backspace	n/a
432.471	0.0455	864942	keystroke	Key.backspace	n/a
432.591	0.075	865182	keystroke	Key.backspace	n/a
432.8615	0.105	865723	keystroke	Key.backspace	n/a
433.041	0.105	866082	keystroke	Key.backspace	n/a
433.206	0.105	866412	keystroke	Key.backspace	n/a
433.716	0.045	867432	keystroke	Key.backspace	n/a
434.4215	0.0595	868843	keystroke	i	n/a
434.511	0.0755	869022	keystroke	s	n/a
434.616	0.045	869232	keystroke	t	n/a
434.7215	0.1045	869443	keystroke	r	n/a
434.841	0.0905	869682	keystroke	a	n/a
434.9465	0.119	869893	keystroke	t	n/a
435.1265	0.075	870253	keystroke	i	n/a
435.2315	0.09	870463	keystroke	v	n/a
435.306	0.09	870612	keystroke	e	n/a
435.4555	0.075	870911	keystroke	Key.space	n/a
436.3405	0.075	872681	keystroke	n	n/a
436.431	0.0755	872862	keystroke	e	n/a
436.5365	0.06	873073	keystroke	t	n/a
436.6115	0.06	873223	keystroke	h	n/a
436.6865	0.09	873373	keystroke	e	n/a
436.7315	0.09	873463	keystroke	r	n/a
436.8965	0.09	873793	keystroke	l	n/a
437.0015	0.0745	874003	keystroke	a	n/a
437.0905	0.091	874181	keystroke	n	n/a
437.1655	0.12	874331	keystroke	d	n/a
437.2405	0.121	874481	keystroke	s	n/a
437.3455	0.06	874691	keystroke	Key.space	n/a
438.8615	0.06	877723	keystroke	p	n/a
438.936	0.075	877872	keystroke	r	n/a
439.071	0.06	878142	keystroke	o	n/a
439.146	0.0755	878292	keystroke	c	n/a
439.1915	0.1195	878383	keystroke	e	n/a
439.3715	0.0595	878743	keystroke	s	n/a
439.5065	0.104	879013	keystroke	s	n/a
439.6255	0.1205	879251	keystroke	e	n/a
439.731	0.09	879462	keystroke	s	n/a
440.8405	0.0455	881681	keystroke	Key.enter	n/a
440.892	4.556	881784	prompt	n/a	apart also since borough\n
441.591	0.105	883182	keystroke	a	n/a
441.801	0.06	883602	keystroke	p	n/a
441.876	0.075	883752	keystroke	a	n/a
441.936	0.075	883872	keystroke	r	n/a
442.101	0.045	884202	keystroke	t	n/a
442.176	0.09	884352	keystroke	Key.space	n/a
442.386	0.06	884772	keystroke	a	n/a
442.461	0.0905	884922	keystroke	l	n/a
442.6115	0.06	885223	keystroke	s	n/a
442.7015	0.075	885403	keystroke	o	n/a
442.8515	0.09	885703	keystroke	Key.space	n/a
442.971	0.0905	885942	keystroke	s	n/a
443.0755	0.09	886151	keystroke	i	n/a
443.121	0.0905	886242	keystroke	n	n/a
443.181	0.091	886362	keystroke	c	n/a
443.2555	0.0905	886511	keystroke	e	n/a
443.421	0.09	886842	keystroke	Key.space	n/a
444.1415	0.06	888283	keystroke	b	n/a
444.3065	0.075	888613	keystroke	o	n/a
444.4265	0.06	888853	keystroke	r	n/a
444.5615	0.135	889123	keystroke	o	n/a
444.7415	0.105	889483	keystroke	u	n/a
444.8615	0.06	889723	keystroke	g	n/a
444.9665	0.06	889933	keystroke	h	n/a
445.3715	0.075	890743	keystroke	Key.enter	n/a
445.4525	6.866	890905	prompt	n/a	arrested formation edited tragedy\n
446.001	0.09	892002	keystroke	a	n/a
446.151	0.0755	892302	keystroke	r	n/a
446.286	0.12	892572	keystroke	r	n/a
446.376	0.1205	892752	keystroke	e	n/a
446.4515	0.0895	892903	keystroke	s	n/a
446.526	0.1055	893052	keystroke	t	n/a
446.6015	0.0895	893203	keystroke	e	n/a
446.7665	0.09	893533	keystroke	d	n/a
446.8715	0.059	893743	keystroke	Key.space	n/a
447.156	0.06	894312	keystroke	f	n/a
447.261	0.0605	894522	keystroke	o	n/a
447.3365	0.0595	894673	keystroke	r	n/a
447.4415	0.0895	894883	keystroke	m	n/a
447.5465	0.1045	895093	keystroke	a	n/a
447.636	0.0605	895272	keystroke	t	n/a
447.726	0.18	895452	keystroke	i	n/a
447.787	0.1045	895574	keystroke	o	n/a
447.831	0.12	895662	keystroke	n	n/a
447.921	0.075	895842	keystroke	Key.space	n/a
448.6565	0.045	897313	keystroke	e	n/a
448.7915	0.075	897583	keystroke	d	n/a
448.9115	0.06	897823	keystroke	i	n/a
448.9865	0.0745	897973	keystroke	t	n/a
449.047	0.0895	898094	keystroke	e	n/a
449.211	0.075	898422	keystroke	d	n/a
449.316	0.105	898632	keystroke	Key.space	n/a
450.037	0.059	900074	keystroke	t	n/a
450.171	0.075	900342	keystroke	r	n/a
450.261	0.09	900522	keystroke	a	n/a
450.366	0.075	900732	keystroke	g	n/a
450.456	0.0755	900912	keystroke	e	n/a
450.6515	0.0445	901303	keystroke	y	n/a
450.951	0.06	901902	keystroke	Key.backspace	n/a
451.116	0.015	902232	keystroke	Key.backspace	n/a
451.5215	0.0595	903043	keystroke	e	n/a
451.656	0.075	903312	keystroke	d	n/a
451.7465	0.0595	903493	keystroke	y	n/a
452.256	0.0605	904512	keystroke	Key.enter	n/a
452.3225	11.62	904645	prompt	n/a	times dollar attached bikini\n
458.7225	0.014	917445	keystroke	t	n/a
458.7515	0.135	917503	keystroke	i	n/a
458.7965	0.12	917593	keystroke	m	n/a
458.8415	0.18	917683	keystroke	e	n/a
458.961	0.09	917922	keystroke	s	n/a
459.0955	0.0905	918191	keystroke	Key.space	n/a
459.3505	0.105	918701	keystroke	d	n/a
459.5015	0.09	919003	keystroke	l	n/a
459.891	0.0155	919782	keystroke	Key.backspace	n/a
460.1015	0.0755	920203	keystroke	o	n/a
460.3265	0.03	920653	keystroke	l	n/a
460.4015	0.09	920803	keystroke	l	n/a
460.4765	0.104	920953	keystroke	a	n/a
460.567	0.0745	921134	keystroke	r	n/a
460.6865	0.0445	921373	keystroke	Key.space	n/a
461.3015	0.0745	922603	keystroke	a	n/a
461.3905	0.0605	922781	keystroke	t	n/a
461.542	0.0745	923084	keystroke	t	n/a
461.6615	0.12	923323	keystroke	a	n/a
461.7515	0.09	923503	keystroke	c	n/a
461.8115	0.09	923623	keystroke	h	n/a
461.8865	0.06	923773	keystroke	e	n/a
462.0515	0.075	924103	keystroke	d	n/a
462.1115	0.075	924223	keystroke	Key.space	n/a
462.441	0.091	924882	keystroke	b	n/a
462.591	0.09	925182	keystroke	i	n/a
462.7565	0.075	925513	keystroke	k	n/a
462.921	0.0605	925842	keystroke	i	n/a
463.0415	0.0895	926083	keystroke	n	n/a
463.1905	0.075	926381	keystroke	i	n/a
463.881	0.06	927762	keystroke	Key.enter	n/a
463.9455	4.6625	927891	prompt	n/a	cage feeds installed kenny\n
464.541	0.12	929082	keystroke	c	n/a
464.646	0.09	929292	keystroke	a	n/a
464.781	0.09	929562	keystroke	g	n/a
464.856	0.091	929712	keystroke	e	n/a
464.976	0.075	929952	keystroke	Key.space	n/a
465.1715	0.0595	930343	keystroke	f	n/a
465.306	0.0605	930612	keystroke	e	n/a
465.4565	0.0745	930913	keystroke	e	n/a
465.606	0.1505	931212	keystroke	d	n/a
465.6815	0.149	931363	keystroke	s	n/a
465.846	0.0445	931692	keystroke	Key.space	n/a
465.9965	0.119	931993	keystroke	i	n/a
466.0865	0.135	932173	keystroke	n	n/a
466.1615	0.105	932323	keystroke	s	n/a
466.2515	0.06	932503	keystroke	t	n/a
466.3265	0.074	932653	keystroke	a	n/a
466.3865	0.06	932773	keystroke	l	n/a
466.5065	0.09	933013	keystroke	l	n/a
466.5665	0.0895	933133	keystroke	e	n/a
466.7465	0.0755	933493	keystroke	d	n/a
466.8505	0.075	933701	keystroke	Key.space	n/a
467.571	0.0755	935142	keystroke	k	n/a
467.691	0.015	935382	keystroke	e	n/a
467.7965	0.0595	935593	keystroke	n	n/a
467.901	0.09	935802	keystroke	n	n/a
468.126	0.0605	936252	keystroke	y	n/a
468.591	0.0155	937182	keystroke	Key.enter	n/a
468.612	5.411	937224	prompt	n/a	reasonable dale alexander vault\n
469.2515	0.09	938503	keystroke	r	n/a
469.296	0.1195	938592	keystroke	e	n/a
469.4015	0.1195	938803	keystroke	a	n/a
469.4755	0.1355	938951	keystroke	s	n/a
469.551	0.1055	939102	keystroke	o	n/a
469.6265	0.0455	939253	keystroke	n	n/a
469.8065	0.075	939613	keystroke	a	n/a
469.896	0.046	939792	keystroke	b	n/a
470.001	0.09	940002	keystroke	l	n/a
470.1065	0.045	940213	keystroke	e	n/a
470.181	0.0755	940362	keystroke	Key.space	n/a
470.7815	0.09	941563	keystroke	d	n/a
471.021	0.0605	942042	keystroke	a	n/a
471.187	0.0745	942374	keystroke	l	n/a
471.291	0.06	942582	keystroke	e	n/a
471.396	0.0605	942792	keystroke	Key.space	n/a
471.5615	0.0895	943123	keystroke	a	n/a
471.696	0.091	943392	keystroke	l	n/a
471.801	0.0455	943602	keystroke	e	n/a
471.966	0.06	943932	keystroke	x	n/a
472.1615	0.105	944323	keystroke	a	n/a
472.296	0.075	944592	keystroke	n	n/a
472.3865	0.03	944773	keystroke	d	n/a
472.521	0.12	945042	keystroke	e	n/a
472.611	0.09	945222	keystroke	r	n/a
472.716	0.0755	945432	keystroke	Key.space	n/a
472.956	0.075	945912	keystroke	v	n/a
473.0465	0.0745	946093	keystroke	a	n/a
473.2115	0.105	946423	keystroke	u	n/a
473.361	0.0755	946722	keystroke	l	n/a
473.451	0.0605	946902	keystroke	t	n/a
474.0065	0.0145	948013	keystroke	Key.enter	n/a
474.0275	7.105	948055	prompt	n/a	coin oklahoma supplemental marks\n
474.7415	0.075	949483	keystroke	c	n/a
474.8615	0.0455	949723	keystroke	o	n/a
475.0115	0.075	950023	keystroke	i	n/a
475.0705	0.105	950141	keystroke	n	n/a
475.161	0.0605	950322	keystroke	Key.space	n/a
475.356	0.06	950712	keystroke	o	n/a
475.7315	0.1045	951463	keystroke	k	n/a
475.9265	0.09	951853	keystroke	l	n/a
476.0915	0.06	952183	keystroke	a	n/a
476.4515	0.045	952903	keystroke	h	n/a
476.5565	0.12	953113	keystroke	o	n/a
476.6315	0.075	953263	keystroke	m	n/a
476.7815	0.075	953563	keystroke	a	n/a
476.9015	0.059	953803	keystroke	Key.space	n/a
477.651	0.06	955302	keystroke	s	n/a
477.7415	0.0755	955483	keystroke	u	n/a
477.8755	0.106	955751	keystroke	p	n/a
478.0555	0.091	956111	keystroke	p	n/a
478.281	0.075	956562	keystroke	l	n/a
478.431	0.0605	956862	keystroke	e	n/a
478.5515	0.0895	957103	keystroke	m	n/a
478.6715	0.06	957343	keystroke	e	n/a
478.7465	0.0595	957493	keystroke	n	n/a
478.836	0.0905	957672	keystroke	t	n/a
478.911	0.0755	957822	keystroke	a	n/a
478.9865	0.06	957973	keystroke	l	n/a
479.106	0.045	958212	keystroke	Key.space	n/a
479.976	0.09	959952	keystroke	m	n/a
480.2155	0.076	960431	keystroke	a	n/a
480.276	0.1045	960552	keystroke	r	n/a
480.4255	0.06	960851	keystroke	k	n/a
480.516	0.1055	961032	keystroke	s	n/a
481.0715	0.06	962143	keystroke	Key.enter	n/a
481.1355	8.113	962271	prompt	n/a	headlines targeted products chest\n
481.746	0.075	963492	keystroke	h	n/a
481.792	0.059	963584	keystroke	e	n/a
481.881	0.1195	963762	keystroke	a	n/a
481.972	0.0735	963944	keystroke	d	n/a
482.047	0.074	964094	keystroke	l	n/a
482.2265	0.06	964453	keystroke	i	n/a
482.2565	0.0745	964513	keystroke	n	n/a
482.301	0.1345	964602	keystroke	e	n/a
482.391	0.1045	964782	keystroke	s	n/a
482.451	0.06	964902	keystroke	Key.space	n/a
484.296	0.0455	968592	keystroke	t	n/a
484.3565	0.105	968713	keystroke	a	n/a
484.432	0.089	968864	keystroke	r	n/a
484.6415	0.075	969283	keystroke	g	n/a
484.7315	0.12	969463	keystroke	e	n/a
484.8215	0.105	969643	keystroke	t	n/a
484.9415	0.12	969883	keystroke	d	n/a
485.3015	0.0295	970603	keystroke	Key.space	n/a
485.6465	0.0595	971293	keystroke	Key.backspace	n/a
485.766	0.09	971532	keystroke	Key.backspace	n/a
485.841	0.045	971682	keystroke	e	n/a
485.991	0.045	971982	keystroke	d	n/a
486.051	0.06	972102	keystroke	Key.space	n/a
486.831	0.0605	973662	keystroke	p	n/a
486.9065	0.06	973813	keystroke	r	n/a
487.0265	0.0745	974053	keystroke	o	n/a
487.146	0.0755	974292	keystroke	d	n/a
487.2515	0.075	974503	keystroke	u	n/a
487.3415	0.045	974683	keystroke	c	n/a
487.506	0.076	975012	keystroke	t	n/a
487.5955	0.0905	975191	keystroke	s	n/a
487.716	0.06	975432	keystroke	Key.space	n/a
488.4665	0.12	976933	keystroke	c	n/a
488.541	0.0905	977082	keystroke	h	n/a
488.6465	0.135	977293	keystroke	e	n/a
488.7065	0.134	977413	keystroke	s	n/a
488.8265	0.0595	977653	keystroke	t	n/a
489.2015	0.045	978403	keystroke	Key.enter	n/a
489.256	6.247	978512	prompt	n/a	taking graham skirt pontiac\n
489.9365	0.06	979873	keystroke	t	n/a
490.1165	0.075	980233	keystroke	a	n/a
490.2365	0.0595	980473	keystroke	k	n/a
490.4015	0.0755	980803	keystroke	i	n/a
490.4465	0.1045	980893	keystroke	n	n/a
490.5215	0.0595	981043	keystroke	g	n/a
490.596	0.09	981192	keystroke	Key.space	n/a
490.7915	0.0745	981583	keystroke	g	n/a
490.941	0.09	981882	keystroke	r	n/a
491.0465	0.0745	982093	keystroke	a	n/a
491.166	0.09	982332	keystroke	h	n/a
491.3315	0.12	982663	keystroke	a	n/a
491.436	0.09	982872	keystroke	m	n/a
491.586	0.0755	983172	keystroke	Key.space	n/a
492.216	0.091	984432	keystroke	s	n/a
492.3215	0.06	984643	keystroke	k	n/a
492.4715	0.0605	984943	keystroke	i	n/a
492.561	0.0755	985122	keystroke	r	n/a
492.741	0.06	985482	keystroke	t	n/a
492.8155	0.076	985631	keystroke	Key.space	n/a
493.6715	0.06	987343	keystroke	p	n/a
494.1965	0.1645	988393	keystroke	o	n/a
494.376	0.03	988752	keystroke	n	n/a
494.4815	0.0745	988963	keystroke	t	n/a
494.586	0.091	989172	keystroke	i	n/a
494.721	0.075	989442	keystroke	a	n/a
494.8565	0.0595	989713	keystroke	c	n/a
495.3965	0.105	990793	keystroke	Key.enter	n/a
495.507	6.6565	991014	prompt	n/a	marriott banners system sympathy\n
496.327	0.1045	992654	keystroke	m	n/a
496.3865	0.1195	992773	keystroke	a	n/a
496.507	0.045	993014	keystroke	r	n/a
496.6565	0.045	993313	keystroke	r	n/a
496.8215	0.075	993643	keystroke	i	n/a
497.0015	0.06	994003	keystroke	o	n/a
497.1515	0.045	994303	keystroke	t	n/a
497.2865	0.06	994573	keystroke	t	n/a
497.4215	0.089	994843	keystroke	Key.space	n/a
497.9465	0.075	995893	keystroke	b	n/a
498.0065	0.06	996013	keystroke	a	n/a
498.1415	0.06	996283	keystroke	n	n/a
498.261	0.0755	996522	keystroke	n	n/a
498.321	0.105	996642	keystroke	e	n/a
498.3965	0.1195	996793	keystroke	r	n/a
498.531	0.105	997062	keystroke	s	n/a
498.621	0.0605	997242	keystroke	Key.space	n/a
499.4315	0.015	998863	keystroke	s	n/a
499.4615	0.06	998923	keystroke	y	n/a
499.5365	0.045	999073	keystroke	s	n/a
499.6265	0.075	999253	keystroke	t	n/a
499.6715	0.1045	999343	keystroke	e	n/a
499.761	0.0755	999522	keystroke	m	n/a
499.881	0.045	999762	keystroke	Key.space	n/a
500.6165	0.06	1001233	keystroke	s	n/a
500.7365	0.06	1001473	keystroke	y	n/a
500.9465	0.06	1001893	keystroke	m	n/a
501.0515	0.075	1002103	keystroke	p	n/a
501.187	0.0595	1002374	keystroke	a	n/a
501.3515	0.045	1002703	keystroke	t	n/a
501.4115	0.06	1002823	keystroke	h	n/a
501.606	0.0455	1003212	keystroke	y	n/a
502.086	0.075	1004172	keystroke	Key.enter	n/a
502.1675	9.2055	1004335	prompt	n/a	webcam pirates lecture insider\n
502.807	0.1195	1005614	keystroke	w	n/a
502.8965	0.105	1005793	keystroke	e	n/a
503.0465	0.06	1006093	keystroke	b	n/a
503.2415	0.1045	1006483	keystroke	c	n/a
503.3165	0.0745	1006633	keystroke	a	n/a
503.392	0.0895	1006784	keystroke	m	n/a
503.5115	0.06	1007023	keystroke	Key.space	n/a
504.3505	0.075	1008701	keystroke	p	n/a
504.5465	0.0595	1009093	keystroke	i	n/a
504.6215	0.06	1009243	keystroke	r	n/a
504.6955	0.105	1009391	keystroke	a	n/a
504.8165	0.06	1009633	keystroke	t	n/a
504.8315	0.135	1009663	keystroke	e	n/a
504.981	0.12	1009962	keystroke	s	n/a
505.116	0.0605	1010232	keystroke	Key.space	n/a
505.9105	0.0755	1011821	keystroke	l	n/a
505.9865	0.134	1011973	keystroke	e	n/a
506.092	0.09	1012184	keystroke	c	n/a
506.2715	0.059	1012543	keystroke	t	n/a
506.3755	0.0605	1012751	keystroke	u	n/a
506.4055	0.1055	1012811	keystroke	r	n/a
506.466	0.105	1012932	keystroke	e	n/a
506.6755	0.076	1013351	keystroke	Key.space	n/a
507.4265	0.105	1014853	keystroke	i	n/a
507.5165	0.075	1015033	keystroke	n	n/a
507.5925	0.089	1015185	keystroke	s	n/a
507.7115	0.06	1015423	keystroke	i	n/a
507.786	0.045	1015572	keystroke	d	n/a
507.921	0.1055	1015842	keystroke	e	n/a
507.9965	0.0745	1015993	keystroke	r	n/a
508.1315	0.06	1016263	keystroke	Key.space	n/a
508.5515	0.0595	1017103	keystroke	=	n/a
509.7515	0.09	1019503	keystroke	Key.backspace	n/a
509.9015	0.075	1019803	keystroke	Key.backspace	n/a
511.2965	0.0745	1022593	keystroke	Key.enter	n/a
511.377	9.732	1022754	prompt	n/a	certificates striking courtesy indigenous\n
512.0315	0.075	1024063	keystroke	c	n/a
512.1215	0.1355	1024243	keystroke	e	n/a
512.2415	0.0445	1024483	keystroke	r	n/a
512.3915	0.0445	1024783	keystroke	t	n/a
512.511	0.03	1025022	keystroke	i	n/a
512.556	0.076	1025112	keystroke	f	n/a
512.6765	0.0595	1025353	keystroke	i	n/a
512.721	0.09	1025442	keystroke	c	n/a
512.826	0.0605	1025652	keystroke	a	n/a
512.916	0.105	1025832	keystroke	t	n/a
513.007	0.134	1026014	keystroke	e	n/a
513.1415	0.1195	1026283	keystroke	s	n/a
513.276	0.0305	1026552	keystroke	Key.space	n/a
513.966	0.075	1027932	keystroke	s	n/a
514.2065	0.0445	1028413	keystroke	t	n/a
514.311	0.0755	1028622	keystroke	r	n/a
514.401	0.076	1028802	keystroke	i	n/a
514.551	0.0755	1029102	keystroke	k	n/a
514.746	0.0595	1029492	keystroke	i	n/a
514.7905	0.09	1029581	keystroke	n	n/a
514.8515	0.059	1029703	keystroke	g	n/a
514.956	0.0745	1029912	keystroke	Key.space	n/a
515.3765	0.015	1030753	keystroke	c	n/a
515.4515	0.105	1030903	keystroke	o	n/a
515.5715	0.089	1031143	keystroke	u	n/a
515.6915	0.0595	1031383	keystroke	r	n/a
515.8715	0.0895	1031743	keystroke	t	n/a
515.946	0.12	1031892	keystroke	e	n/a
516.126	0.15	1032252	keystroke	s	n/a
516.261	0.0605	1032522	keystroke	t	n/a
516.591	0.075	1033182	keystroke	Key.backspace	n/a
516.7115	0.075	1033423	keystroke	y	n/a
516.8465	0.0745	1033693	keystroke	Key.space	n/a
517.641	0.1055	1035282	keystroke	i	n/a
517.731	0.075	1035462	keystroke	n	n/a
517.807	0.074	1035614	keystroke	d	n/a
517.971	0.0605	1035942	keystroke	i	n/a
518.076	0.0305	1036152	keystroke	g	n/a
519.0815	0.029	1038163	keystroke	e	n/a
519.141	0.0755	1038282	keystroke	n	n/a
519.306	0.12	1038612	keystroke	o	n/a
519.3965	0.0745	1038793	keystroke	u	n/a
519.4855	0.09	1038971	keystroke	s	n/a
519.6355	0.03	1039271	keystroke	Key.space	n/a
519.9355	0.0755	1039871	keystroke	Key.backspace	n/a
521.0915	0.0155	1042183	keystroke	Key.enter	n/a
521.113	7.345	1042226	prompt	n/a	specialties patients naturals clinic\n
521.8565	0.0295	1043713	keystroke	s	n/a
522.021	0.075	1044042	keystroke	p	n/a
522.1115	0.0595	1044223	keystroke	e	n/a
522.2165	0.0745	1044433	keystroke	c	n/a
522.321	0.06	1044642	keystroke	i	n/a
522.4265	0.0745	1044853	keystroke	a	n/a
522.547	0.059	1045094	keystroke	l	n/a
522.8315	0.0605	1045663	keystroke	t	n/a
522.967	0.059	1045934	keystroke	i	n/a
523.027	0.179	1046054	keystroke	e	n/a
523.147	0.1495	1046294	keystroke	s	n/a
523.2815	0.045	1046563	keystroke	Key.space	n/a
524.0915	0.0455	1048183	keystroke	p	n/a
524.1515	0.03	1048303	keystroke	a	n/a
524.2115	0.075	1048423	keystroke	t	n/a
524.3165	0.0605	1048633	keystroke	i	n/a
524.3915	0.075	1048783	keystroke	e	n/a
524.4965	0.075	1048993	keystroke	n	n/a
524.6015	0.06	1049203	keystroke	t	n/a
524.7065	0.12	1049413	keystroke	s	n/a
524.8115	0.06	1049623	keystroke	Key.space	n/a
525.5605	0.0755	1051121	keystroke	n	n/a
525.651	0.09	1051302	keystroke	a	n/a
525.7565	0.0605	1051513	keystroke	t	n/a
525.8465	0.09	1051693	keystroke	u	n/a
525.951	0.09	1051902	keystroke	r	n/a
526.027	0.089	1052054	keystroke	a	n/a
526.102	0.074	1052204	keystroke	l	n/a
526.192	0.105	1052384	keystroke	s	n/a
526.326	0.0755	1052652	keystroke	Key.space	n/a
527.016	0.075	1054032	keystroke	c	n/a
527.136	0.09	1054272	keystroke	l	n/a
527.316	0.06	1054632	keystroke	i	n/a
527.466	0.12	1054932	keystroke	n	n/a
527.856	0.0605	1055712	keystroke	i	n/a
527.931	0.06	1055862	keystroke	c	n/a
528.4115	0.044	1056823	keystroke	Key.enter	n/a
528.4625	8.515	1056925	prompt	n/a	eddie valuable deep written\n
529.1915	0.045	1058383	keystroke	e	n/a
529.3715	0.045	1058743	keystroke	d	n/a
529.4615	0.09	1058923	keystroke	d	n/a
529.5965	0.06	1059193	keystroke	i	n/a
529.6865	0.045	1059373	keystroke	e	n/a
529.8065	0.03	1059613	keystroke	Key.space	n/a
530.0915	0.075	1060183	keystroke	v	n/a
530.1515	0.075	1060303	keystroke	a	n/a
530.2715	0.075	1060543	keystroke	l	n/a
530.497	0.0595	1060994	keystroke	u	n/a
530.7815	0.075	1061563	keystroke	a	n/a
531.007	0.0445	1062014	keystroke	b	n/a
531.0965	0.105	1062193	keystroke	l	n/a
531.187	0.0745	1062374	keystroke	e	n/a
531.3065	0.075	1062613	keystroke	Key.space	n/a
531.981	0.045	1063962	keystroke	e	n/a
532.266	0.06	1064532	keystroke	Key.backspace	n/a
532.341	0.06	1064682	keystroke	d	n/a
532.5065	0.06	1065013	keystroke	e	n/a
532.6415	0.105	1065283	keystroke	e	n/a
532.7615	0.045	1065523	keystroke	p	n/a
532.8665	0.059	1065733	keystroke	Key.space	n/a
532.9565	0.075	1065913	keystroke	w	n/a
533.0765	0.06	1066153	keystroke	i	n/a
533.1665	0.06	1066333	keystroke	t	n/a
533.2415	0.06	1066483	keystroke	h	n/a
533.3165	0.106	1066633	keystroke	i	n/a
533.3915	0.09	1066783	keystroke	n	n/a
533.7515	0.03	1067503	keystroke	Key.backspace	n/a
533.841	0.075	1067682	keystroke	Key.backspace	n/a
533.976	0.075	1067952	keystroke	Key.backspace	n/a
534.126	0.075	1068252	keystroke	Key.backspace	n/a
534.276	0.0905	1068552	keystroke	Key.backspace	n/a
534.411	0.045	1068822	keystroke	r	n/a
534.5465	0.0595	1069093	keystroke	r	n/a
534.786	0.075	1069572	keystroke	i	n/a
535.1315	0.06	1070263	keystroke	Key.backspace	n/a
535.2665	0.075	1070533	keystroke	Key.backspace	n/a
535.477	0.0595	1070954	keystroke	i	n/a
535.5815	0.06	1071163	keystroke	t	n/a
535.7165	0.075	1071433	keystroke	t	n/a
535.7765	0.075	1071553	keystroke	e	n/a
535.8365	0.075	1071673	keystroke	n	n/a
536.901	0.075	1073802	keystroke	Key.enter	n/a
536.9815	6.2515	1073963	prompt	n/a	contact duncan consent header\n
537.7565	0.0905	1075513	keystroke	c	n/a
537.861	0.06	1075722	keystroke	o	n/a
537.966	0.03	1075932	keystroke	n	n/a
538.056	0.06	1076112	keystroke	t	n/a
538.161	0.12	1076322	keystroke	a	n/a
538.251	0.0755	1076502	keystroke	c	n/a
538.431	0.045	1076862	keystroke	t	n/a
538.491	0.045	1076982	keystroke	Key.space	n/a
539.181	0.045	1078362	keystroke	f	n/a
539.481	0.0455	1078962	keystroke	Key.backspace	n/a
539.556	0.09	1079112	keystroke	d	n/a
539.647	0.059	1079294	keystroke	u	n/a
539.826	0.075	1079652	keystroke	n	n/a
539.8715	0.0895	1079743	keystroke	c	n/a
540.081	0.06	1080162	keystroke	a	n/a
540.1565	0.09	1080313	keystroke	n	n/a
540.276	0.075	1080552	keystroke	Key.space	n/a
541.146	0.075	1082292	keystroke	c	n/a
541.236	0.0755	1082472	keystroke	o	n/a
541.2665	0.0895	1082533	keystroke	n	n/a
541.3715	0.105	1082743	keystroke	s	n/a
541.461	0.0755	1082922	keystroke	e	n/a
541.611	0.0605	1083222	keystroke	n	n/a
541.746	0.045	1083492	keystroke	t	n/a
541.8215	0.0745	1083643	keystroke	Key.space	n/a
542.376	0.075	1084752	keystroke	h	n/a
542.4365	0.0595	1084873	keystroke	e	n/a
542.5265	0.09	1085053	keystroke	a	n/a
542.601	0.075	1085202	keystroke	d	n/a
542.7365	0.105	1085473	keystroke	e	n/a
542.826	0.06	1085652	keystroke	r	n/a
543.1865	0.0445	1086373	keystroke	Key.enter	n/a
543.2375	9.0255	1086475	prompt	n/a	palace feels begun switching\n
544.1015	0.075	1088203	keystroke	p	n/a
544.3115	0.045	1088623	keystroke	l	n/a
544.357	0.0895	1088714	keystroke	a	n/a
544.4915	0.06	1088983	keystroke	l	n/a
544.5965	0.03	1089193	keystroke	a	n/a
544.6715	0.105	1089343	keystroke	c	n/a
544.761	0.076	1089522	keystroke	e	n/a
544.9865	0.045	1089973	keystroke	Key.backspace	n/a
545.0915	0.075	1090183	keystroke	Key.backspace	n/a
545.2415	0.06	1090483	keystroke	Key.backspace	n/a
545.3615	0.06	1090723	keystroke	Key.backspace	n/a
545.4965	0.06	1090993	keystroke	Key.backspace	n/a
545.6315	0.09	1091263	keystroke	Key.backspace	n/a
545.8265	0.06	1091653	keystroke	a	n/a
545.9615	0.075	1091923	keystroke	l	n/a
546.0215	0.059	1092043	keystroke	a	n/a
546.1115	0.104	1092223	keystroke	c	n/a
546.1855	0.1065	1092371	keystroke	e	n/a
546.3215	0.059	1092643	keystroke	Key.space	n/a
547.1465	0.0595	1094293	keystroke	f	n/a
547.2665	0.0595	1094533	keystroke	e	n/a
547.401	0.0905	1094802	keystroke	e	n/a
547.7765	0.074	1095553	keystroke	l	n/a
547.957	0.059	1095914	keystroke	s	n/a
548.061	0.06	1096122	keystroke	Key.space	n/a
548.376	0.075	1096752	keystroke	b	n/a
548.436	0.0455	1096872	keystroke	e	n/a
548.556	0.06	1097112	keystroke	g	n/a
548.7365	0.1045	1097473	keystroke	u	n/a
548.781	0.12	1097562	keystroke	n	n/a
548.946	0.0305	1097892	keystroke	Key.space	n/a
549.5465	0.135	1099093	keystroke	s	n/a
549.7115	0.045	1099423	keystroke	w	n/a
549.8015	0.075	1099603	keystroke	i	n/a
549.8915	0.06	1099783	keystroke	t	n/a
550.2065	0.09	1100413	keystroke	h	n/a
550.5365	0.045	1101073	keystroke	Key.backspace	n/a
550.6115	0.0455	1101223	keystroke	c	n/a
550.7165	0.06	1101433	keystroke	h	n/a
550.8965	0.09	1101793	keystroke	n	n/a
550.9565	0.045	1101913	keystroke	g	n/a
551.286	0.045	1102572	keystroke	Key.backspace	n/a
551.4065	0.075	1102813	keystroke	Key.backspace	n/a
551.601	0.0605	1103202	keystroke	i	n/a
551.616	0.0755	1103232	keystroke	n	n/a
551.6765	0.06	1103353	keystroke	g	n/a
552.186	0.075	1104372	keystroke	Key.enter	n/a
552.266	7.137	1104532	prompt	n/a	infection listening inflation delays\n
553.041	0.09	1106082	keystroke	i	n/a
553.1165	0.0745	1106233	keystroke	n	n/a
553.1765	0.0895	1106353	keystroke	f	n/a
553.251	0.106	1106502	keystroke	e	n/a
553.371	0.0905	1106742	keystroke	c	n/a
553.566	0.0605	1107132	keystroke	t	n/a
553.6115	0.18	1107223	keystroke	i	n/a
553.6565	0.1045	1107313	keystroke	o	n/a
553.672	0.1345	1107344	keystroke	n	n/a
553.7755	0.045	1107551	keystroke	Key.space	n/a
554.5565	0.09	1109113	keystroke	l	n/a
554.7365	0.0745	1109473	keystroke	i	n/a
554.8565	0.09	1109713	keystroke	s	n/a
555.0065	0.0445	1110013	keystroke	t	n/a
555.021	0.09	1110042	keystroke	e	n/a
555.0965	0.0895	1110193	keystroke	n	n/a
555.3365	0.0745	1110673	keystroke	i	n/a
555.381	0.09	1110762	keystroke	n	n/a
555.456	0.061	1110912	keystroke	g	n/a
555.5765	0.075	1111153	keystroke	Key.space	n/a
556.507	0.0895	1113014	keystroke	i	n/a
556.5665	0.09	1113133	keystroke	n	n/a
556.6865	0.0745	1113373	keystroke	f	n/a
556.8215	0.0595	1113643	keystroke	l	n/a
556.941	0.075	1113882	keystroke	a	n/a
557.0915	0.06	1114183	keystroke	t	n/a
557.1965	0.18	1114393	keystroke	i	n/a
557.2565	0.1055	1114513	keystroke	o	n/a
557.2715	0.12	1114543	keystroke	n	n/a
557.3775	0.059	1114755	keystroke	Key.space	n/a
558.1415	0.0595	1116283	keystroke	d	n/a
558.3965	0.0595	1116793	keystroke	e	n/a
558.561	0.09	1117122	keystroke	l	n/a
558.727	0.074	1117454	keystroke	a	n/a
558.861	0.06	1117722	keystroke	y	n/a
558.9355	0.061	1117871	keystroke	s	n/a
559.3415	0.06	1118683	keystroke	Key.enter	n/a
559.407	7.181	1118814	prompt	n/a	pale soldier laos fabulous\n
560.212	0.0745	1120424	keystroke	p	n/a
560.331	0.076	1120662	keystroke	a	n/a
560.451	0.06	1120902	keystroke	l	n/a
560.5265	0.0605	1121053	keystroke	e	n/a
560.631	0.075	1121262	keystroke	Key.space	n/a
560.751	0.0755	1121502	keystroke	s	n/a
560.916	0.03	1121832	keystroke	o	n/a
561.1565	0.09	1122313	keystroke	l	n/a
561.4405	0.046	1122881	keystroke	i	n/a
561.4705	0.0615	1122941	keystroke	d	n/a
561.6655	0.121	1123331	keystroke	e	n/a
561.7565	0.09	1123513	keystroke	r	n/a
562.0565	0.045	1124113	keystroke	Key.backspace	n/a
562.1765	0.06	1124353	keystroke	Key.backspace	n/a
562.2965	0.075	1124593	keystroke	Key.backspace	n/a
562.4465	0.09	1124893	keystroke	Key.backspace	n/a
562.582	0.0745	1125164	keystroke	d	n/a
562.7165	0.06	1125433	keystroke	i	n/a
562.7915	0.12	1125583	keystroke	e	n/a
562.8515	0.09	1125703	keystroke	r	n/a
562.9715	0.075	1125943	keystroke	Key.space	n/a
563.7815	0.074	1127563	keystroke	l	n/a
563.886	0.076	1127772	keystroke	a	n/a
564.021	0.0905	1128042	keystroke	o	n/a
564.1115	0.074	1128223	keystroke	s	n/a
564.216	0.075	1128432	keystroke	Key.space	n/a
564.4565	0.089	1128913	keystroke	f	n/a
564.531	0.0745	1129062	keystroke	a	n/a
564.696	0.0905	1129392	keystroke	b	n/a
565.176	0.09	1130352	keystroke	u	n/a
565.416	0.075	1130832	keystroke	l	n/a
565.626	0.0905	1131252	keystroke	o	n/a
565.791	0.12	1131582	keystroke	u	n/a
565.9715	0.09	1131943	keystroke	s	n/a
566.5265	0.0595	1133053	keystroke	Key.enter	n/a
566.5925	9.072	1133185	prompt	n/a	security worth commissions contribution\n
567.1715	0.0445	1134343	keystroke	s	n/a
567.261	0.0745	1134522	keystroke	e	n/a
567.4265	0.075	1134853	keystroke	c	n/a
567.5465	0.104	1135093	keystroke	u	n/a
567.6355	0.0615	1135271	keystroke	r	n/a
567.711	0.0155	1135422	keystroke	r	n/a
567.8615	0.075	1135723	keystroke	i	n/a
567.9665	0.06	1135933	keystroke	t	n/a
568.0865	0.06	1136173	keystroke	y	n/a
568.311	0.0605	1136622	keystroke	Key.backspace	n/a
568.4315	0.06	1136863	keystroke	Key.backspace	n/a
568.566	0.075	1137132	keystroke	Key.backspace	n/a
568.716	0.0905	1137432	keystroke	Key.backspace	n/a
568.942	0.0445	1137884	keystroke	i	n/a
569.0605	0.06	1138121	keystroke	t	n/a
569.1365	0.0595	1138273	keystroke	y	n/a
569.226	0.06	1138452	keystroke	Key.space	n/a
569.901	0.075	1139802	keystroke	w	n/a
570.006	0.0605	1140012	keystroke	o	n/a
570.126	0.0455	1140252	keystroke	r	n/a
570.2915	0.03	1140583	keystroke	t	n/a
570.3515	0.075	1140703	keystroke	h	n/a
570.4415	0.075	1140883	keystroke	Key.space	n/a
570.6355	0.075	1141271	keystroke	a	n/a
571.011	0.0895	1142022	keystroke	Key.backspace	n/a
571.1305	0.06	1142261	keystroke	c	n/a
