onset	duration	sample	value	key	prompt_text
1.077	5.0845	2154	prompt	n/a	the quick brown fox jumps over a lazy dog\n
2.304	0.1255	4608	keystroke_t	t	n/a
2.36	0.112	4720	keystroke_h	h	n/a
2.3745	0.0985	4749	keystroke_e	e	n/a
2.464	0.079	4928	keystroke_Key.space	Key.space	n/a
2.584	0.088	5168	keystroke_q	q	n/a
2.688	0.12	5376	keystroke_u	u	n/a
2.768	0.04	5536	keystroke_i	i	n/a
2.776	0.112	5552	keystroke_c	c	n/a
2.896	0.1115	5792	keystroke_k	k	n/a
2.9755	0.072	5951	keystroke_Key.space	Key.space	n/a
3.0955	0.0645	6191	keystroke_b	b	n/a
3.255	0.0975	6510	keystroke_r	r	n/a
3.3285	0.0875	6657	keystroke_o	o	n/a
3.432	0.096	6864	keystroke_w	w	n/a
3.504	0.096	7008	keystroke_n	n	n/a
3.576	0.0475	7152	keystroke_Key.space	Key.space	n/a
3.6315	0.1045	7263	keystroke_f	f	n/a
3.76	0.119	7520	keystroke_o	o	n/a
3.8535	0.1385	7707	keystroke_x	x	n/a
3.9515	0.088	7903	keystroke_Key.space	Key.space	n/a
4.072	0.072	8144	keystroke_j	j	n/a
4.232	0.048	8464	keystroke_u	u	n/a
4.384	0.1495	8768	keystroke_m	m	n/a
4.4635	0.12	8927	keystroke_p	p	n/a
4.519	0.097	9038	keystroke_s	s	n/a
4.5675	0.0485	9135	keystroke_Key.space	Key.space	n/a
4.6635	0.144	9327	keystroke_o	o	n/a
4.736	0.0555	9472	keystroke_v	v	n/a
4.8475	0.1365	9695	keystroke_e	e	n/a
4.9195	0.0965	9839	keystroke_r	r	n/a
4.9495	0.0425	9899	keystroke_Key.space	Key.space	n/a
5.016	0.088	10032	keystroke_a	a	n/a
5.12	0.0635	10240	keystroke_Key.space	Key.space	n/a
5.272	0.1195	10544	keystroke_l	l	n/a
5.3445	0.056	10689	keystroke_a	a	n/a
5.5115	0.104	11023	keystroke_z	z	n/a
5.6085	0.1115	11217	keystroke_y	y	n/a
5.688	0.0635	11376	keystroke_Key.space	Key.space	n/a
5.7595	0.08	11519	keystroke_d	d	n/a
5.856	0.104	11712	keystroke_o	o	n/a
5.952	0.063	11904	keystroke_g	g	n/a
6.096	0.0635	12192	keystroke_Key.enter	Key.enter	n/a
6.1675	8.539	12335	prompt	n/a	biodiversity sustainable agenda aircraft\n
6.8565	0.0435	13713	keystroke_i	i	n/a
7.156	0.016	14312	keystroke_Key.backspace	Key.backspace	n/a
7.2035	0.065	14407	keystroke_b	b	n/a
7.3315	0.129	14663	keystroke_i	i	n/a
7.429	0.1115	14858	keystroke_o	o	n/a
7.597	0.088	15194	keystroke_d	d	n/a
7.724	0.089	15448	keystroke_i	i	n/a
7.8045	0.0725	15609	keystroke_v	v	n/a
8.1195	0.1195	16239	keystroke_e	e	n/a
8.223	0.104	16446	keystroke_r	r	n/a
8.3185	0.1205	16637	keystroke_s	s	n/a
8.407	0.0805	16814	keystroke_i	i	n/a
8.5035	0.1195	17007	keystroke_t	t	n/a
8.616	0.079	17232	keystroke_y	y	n/a
8.663	0.0715	17326	keystroke_Key.space	Key.space	n/a
8.7675	0.08	17535	keystroke_s	s	n/a
8.879	0.104	17758	keystroke_u	u	n/a
8.943	0.1035	17886	keystroke_s	s	n/a
9.0475	0.1115	18095	keystroke_t	t	n/a
9.1195	0.1275	18239	keystroke_a	a	n/a
9.2395	0.072	18479	keystroke_i	i	n/a
9.4235	0.1125	18847	keystroke_n	n	n/a
9.567	0.033	19134	keystroke_a	a	n/a
9.663	0.08	19326	keystroke_b	b	n/a
9.815	0.144	19630	keystroke_l	l	n/a
9.896	0.087	19792	keystroke_e	e	n/a
9.967	0.08	19934	keystroke_Key.space	Key.space	n/a
10.2075	0.073	20415	keystroke_g	g	n/a
10.736	0.048	21472	keystroke_Key.backspace	Key.backspace	n/a
10.8	0.064	21600	keystroke_a	a	n/a
10.872	0.0635	21744	keystroke_g	g	n/a
10.9595	0.0885	21919	keystroke_e	e	n/a
11.096	0.1285	22192	keystroke_n	n	n/a
11.16	0.159	22320	keystroke_d	d	n/a
11.2805	0.063	22561	keystroke_a	a	n/a
11.399	0.0485	22798	keystroke_Key.space	Key.space	n/a
12.0955	0.041	24191	keystroke_a	a	n/a
12.352	0.0725	24704	keystroke_r	r	n/a
12.504	0.0635	25008	keystroke_i	i	n/a
12.8235	0.08	25647	keystroke_Key.backspace	Key.backspace	n/a
12.9835	0.04	25967	keystroke_Key.backspace	Key.backspace	n/a
13.1515	0.0955	26303	keystroke_i	i	n/a
13.2315	0.0565	26463	keystroke_r	r	n/a
13.415	0.0885	26830	keystroke_c	c	n/a
13.6565	0.039	27313	keystroke_r	r	n/a
14.144	0.1275	28288	keystroke_a	a	n/a
14.224	0.183	28448	keystroke_f	f	n/a
14.5115	0.0805	29023	keystroke_t	t	n/a
14.6315	0.072	29263	keystroke_Key.enter	Key.enter	n/a
14.712	7.362	29424	prompt	n/a	norway exclusively stereo copyright\n
15.2795	0.096	30559	keystroke_n	n	n/a
15.3995	0.104	30799	keystroke_o	o	n/a
15.472	0.0875	30944	keystroke_r	r	n/a
15.6075	0.112	31215	keystroke_w	w	n/a
15.704	0.104	31408	keystroke_a	a	n/a
15.816	0.136	31632	keystroke_y	y	n/a
15.92	0.0875	31840	keystroke_Key.space	Key.space	n/a
16.1755	0.0805	32351	keystroke_e	e	n/a
16.3435	0.0805	32687	keystroke_x	x	n/a
16.5275	0.0965	33055	keystroke_c	c	n/a
16.688	0.096	33376	keystroke_l	l	n/a
16.8235	0.1115	33647	keystroke_u	u	n/a
16.9195	0.0645	33839	keystroke_s	s	n/a
17.0075	0.128	34015	keystroke_i	i	n/a
17.072	0.0885	34144	keystroke_v	v	n/a
17.2085	0.128	34417	keystroke_e	e	n/a
17.3125	0.0635	34625	keystroke_l	l	n/a
17.4555	0.12	34911	keystroke_y	y	n/a
17.544	0.12	35088	keystroke_Key.space	Key.space	n/a
17.712	0.0965	35424	keystroke_s	s	n/a
17.8315	0.064	35663	keystroke_t	t	n/a
17.96	0.104	35920	keystroke_e	e	n/a
18.0315	0.081	36063	keystroke_r	r	n/a
18.2235	0.08	36447	keystroke_e	e	n/a
18.384	0.12	36768	keystroke_o	o	n/a
18.6395	0.105	37279	keystroke_c	c	n/a
18.7525	0.072	37505	keystroke_o	o	n/a
18.904	0.0645	37808	keystroke_p	p	n/a
19.1195	0.0405	38239	keystroke_Key.backspace	Key.backspace	n/a
19.328	0.047	38656	keystroke_Key.backspace	Key.backspace	n/a
19.448	0.08	38896	keystroke_Key.backspace	Key.backspace	n/a
19.688	0.1445	39376	keystroke_c	c	n/a
19.8	0.152	39600	keystroke_o	o	n/a
19.928	0.096	39856	keystroke_p	p	n/a
20.1835	0.0245	40367	keystroke_Key.backspace	Key.backspace	n/a
20.272	0.031	40544	keystroke_Key.backspace	Key.backspace	n/a
20.368	0.0475	40736	keystroke_Key.backspace	Key.backspace	n/a
20.5355	0.1045	41071	keystroke_Key.space	Key.space	n/a
20.656	0.1275	41312	keystroke_c	c	n/a
20.7525	0.159	41505	keystroke_o	o	n/a
20.824	0.12	41648	keystroke_p	p	n/a
20.968	0.0725	41936	keystroke_y	y	n/a
21.2875	0.0565	42575	keystroke_r	r	n/a
21.447	0.121	42894	keystroke_i	i	n/a
21.6155	0.065	43231	keystroke_g	g	n/a
21.719	0.113	43438	keystroke_h	h	n/a
21.824	0.08	43648	keystroke_t	t	n/a
21.9995	0.0725	43999	keystroke_Key.enter	Key.enter	n/a
22.0795	4.139	44159	prompt	n/a	height hunter wanted objectives\n
22.7125	0.1025	45425	keystroke_h	h	n/a
22.8315	0.0885	45663	keystroke_e	e	n/a
22.952	0.096	45904	keystroke_i	i	n/a
23.0395	0.065	46079	keystroke_g	g	n/a
23.1445	0.1115	46289	keystroke_h	h	n/a
23.2005	0.0955	46401	keystroke_t	t	n/a
23.272	0.055	46544	keystroke_Key.space	Key.space	n/a
23.3755	0.064	46751	keystroke_h	h	n/a
23.5125	0.0395	47025	keystroke_u	u	n/a
23.64	0.1365	47280	keystroke_n	n	n/a
23.792	0.096	47584	keystroke_e	e	n/a
24.04	0.064	48080	keystroke_Key.backspace	Key.backspace	n/a
24.088	0.0805	48176	keystroke_t	t	n/a
24.1845	0.1675	48369	keystroke_e	e	n/a
24.272	0.12	48544	keystroke_r	r	n/a
24.3275	0.096	48655	keystroke_Key.space	Key.space	n/a
24.416	0.1275	48832	keystroke_w	w	n/a
24.5035	0.1285	49007	keystroke_a	a	n/a
24.624	0.1445	49248	keystroke_n	n	n/a
24.68	0.0955	49360	keystroke_t	t	n/a
24.7365	0.0795	49473	keystroke_e	e	n/a
24.888	0.128	49776	keystroke_d	d	n/a
24.952	0.079	49904	keystroke_Key.space	Key.space	n/a
25.064	0.1045	50128	keystroke_o	o	n/a
25.175	0.065	50350	keystroke_b	b	n/a
25.264	0.128	50528	keystroke_j	j	n/a
25.3195	0.0805	50639	keystroke_e	e	n/a
25.447	0.0655	50894	keystroke_c	c	n/a
25.616	0.0805	51232	keystroke_t	t	n/a
25.7115	0.1125	51423	keystroke_i	i	n/a
25.8075	0.096	51615	keystroke_v	v	n/a
25.9525	0.119	51905	keystroke_e	e	n/a
26.016	0.096	52032	keystroke_s	s	n/a
26.1355	0.0805	52271	keystroke_Key.enter	Key.enter	n/a
26.2235	4.674	52447	prompt	n/a	gabriel interested agent shine\n
26.7515	0.096	53503	keystroke_g	g	n/a
26.9435	0.104	53887	keystroke_a	a	n/a
27.152	0.056	54304	keystroke_b	b	n/a
27.32	0.072	54640	keystroke_r	r	n/a
27.456	0.072	54912	keystroke_i	i	n/a
27.512	0.104	55024	keystroke_e	e	n/a
27.632	0.0875	55264	keystroke_l	l	n/a
27.7195	0.0635	55439	keystroke_Key.space	Key.space	n/a
27.792	0.04	55584	keystroke_i	i	n/a
27.887	0.097	55774	keystroke_n	n	n/a
27.944	0.071	55888	keystroke_t	t	n/a
27.9995	0.1125	55999	keystroke_e	e	n/a
28.128	0.119	56256	keystroke_r	r	n/a
28.208	0.095	56416	keystroke_e	e	n/a
28.28	0.144	56560	keystroke_s	s	n/a
28.375	0.089	56750	keystroke_t	t	n/a
28.44	0.0315	56880	keystroke_e	e	n/a
28.568	0.1035	57136	keystroke_d	d	n/a
28.6475	0.088	57295	keystroke_Key.space	Key.space	n/a
28.8075	0.08	57615	keystroke_g	g	n/a
28.8795	0.08	57759	keystroke_a	a	n/a
29.112	0.048	58224	keystroke_Key.backspace	Key.backspace	n/a
29.24	0.056	58480	keystroke_Key.backspace	Key.backspace	n/a
29.2965	0.1115	58593	keystroke_a	a	n/a
29.368	0.104	58736	keystroke_g	g	n/a
29.488	0.12	58976	keystroke_e	e	n/a
29.632	0.152	59264	keystroke_n	n	n/a
29.744	0.128	59488	keystroke_t	t	n/a
29.84	0.095	59680	keystroke_Key.space	Key.space	n/a
30.104	0.096	60208	keystroke_s	s	n/a
30.32	0.064	60640	keystroke_h	h	n/a
30.448	0.0715	60896	keystroke_i	i	n/a
30.5595	0.1045	61119	keystroke_n	n	n/a
30.656	0.04	61312	keystroke_e	e	n/a
30.8155	0.08	61631	keystroke_Key.enter	Key.enter	n/a
30.9005	4.982	61801	prompt	n/a	take benz convergence geological\n
31.48	0.1035	62960	keystroke_t	t	n/a
31.552	0.0715	63104	keystroke_a	a	n/a
31.6475	0.112	63295	keystroke_k	k	n/a
31.7115	0.081	63423	keystroke_e	e	n/a
31.7675	0.0645	63535	keystroke_Key.space	Key.space	n/a
31.912	0.056	63824	keystroke_b	b	n/a
32.056	0.0795	64112	keystroke_e	e	n/a
32.1595	0.12	64319	keystroke_n	n	n/a
32.288	0.1275	64576	keystroke_z	z	n/a
32.4475	0.08	64895	keystroke_Key.space	Key.space	n/a
32.7115	0.096	65423	keystroke_c	c	n/a
32.7995	0.1205	65599	keystroke_o	o	n/a
32.872	0.1195	65744	keystroke_n	n	n/a
32.9515	0.064	65903	keystroke_v	v	n/a
33.08	0.143	66160	keystroke_e	e	n/a
33.184	0.095	66368	keystroke_r	r	n/a
33.392	0.0795	66784	keystroke_g	g	n/a
33.4635	0.128	66927	keystroke_e	e	n/a
33.6165	0.135	67233	keystroke_n	n	n/a
33.712	0.1195	67424	keystroke_c	c	n/a
33.776	0.1355	67552	keystroke_e	e	n/a
33.8795	0.08	67759	keystroke_Key.space	Key.space	n/a
34.1045	0.0715	68209	keystroke_g	g	n/a
34.2075	0.0885	68415	keystroke_e	e	n/a
34.3435	0.064	68687	keystroke_l	l	n/a
34.672	0.047	69344	keystroke_Key.backspace	Key.backspace	n/a
34.872	0.0475	69744	keystroke_o	o	n/a
35.023	0.049	70046	keystroke_l	l	n/a
35.152	0.072	70304	keystroke_o	o	n/a
35.24	0.096	70480	keystroke_g	g	n/a
35.3035	0.104	70607	keystroke_i	i	n/a
35.4635	0.112	70927	keystroke_c	c	n/a
35.536	0.0635	71072	keystroke_a	a	n/a
35.6235	0.056	71247	keystroke_l	l	n/a
35.7835	0.096	71567	keystroke_Key.enter	Key.enter	n/a
35.9005	4.117	71801	prompt	n/a	hoped gregory boards cultural\n
36.4075	0.08	72815	keystroke_h	h	n/a
36.552	0.0875	73104	keystroke_o	o	n/a
36.7115	0.096	73423	keystroke_p	p	n/a
36.8155	0.049	73631	keystroke_e	e	n/a
36.952	0.0955	73904	keystroke_d	d	n/a
37.024	0.0635	74048	keystroke_Key.space	Key.space	n/a
37.1835	0.0565	74367	keystroke_g	g	n/a
37.3675	0.1205	74735	keystroke_r	r	n/a
37.472	0.096	74944	keystroke_e	e	n/a
37.632	0.087	75264	keystroke_g	g	n/a
37.752	0.088	75504	keystroke_o	o	n/a
37.855	0.089	75710	keystroke_r	r	n/a
37.959	0.113	75918	keystroke_y	y	n/a
37.9995	0.096	75999	keystroke_Key.space	Key.space	n/a
38.1605	0.079	76321	keystroke_b	b	n/a
38.2795	0.1525	76559	keystroke_o	o	n/a
38.3595	0.112	76719	keystroke_a	a	n/a
38.4475	0.072	76895	keystroke_r	r	n/a
38.6155	0.1925	77231	keystroke_d	d	n/a
38.7115	0.112	77423	keystroke_s	s	n/a
38.8155	0.088	77631	keystroke_Key.space	Key.space	n/a
39.1835	0.104	78367	keystroke_c	c	n/a
39.264	0.08	78528	keystroke_u	u	n/a
39.392	0.088	78784	keystroke_l	l	n/a
39.488	0.0715	78976	keystroke_t	t	n/a
39.5675	0.104	79135	keystroke_u	u	n/a
39.6395	0.12	79279	keystroke_r	r	n/a
39.7035	0.096	79407	keystroke_a	a	n/a
39.7835	0.056	79567	keystroke_l	l	n/a
39.952	0.064	79904	keystroke_Key.enter	Key.enter	n/a
40.022	7.8515	80044	prompt	n/a	travis symptoms vacuum kijiji\n
40.648	0.08	81296	keystroke_t	t	n/a
40.8155	0.0805	81631	keystroke_r	r	n/a
40.855	0.089	81710	keystroke_a	a	n/a
41.016	0.088	82032	keystroke_v	v	n/a
41.12	0.136	82240	keystroke_i	i	n/a
41.192	0.095	82384	keystroke_s	s	n/a
41.263	0.064	82526	keystroke_Key.space	Key.space	n/a
41.367	0.096	82734	keystroke_s	s	n/a
41.456	0.064	82912	keystroke_y	y	n/a
41.6715	0.128	83343	keystroke_m	m	n/a
41.7915	0.144	83583	keystroke_p	p	n/a
42.1355	0.104	84271	keystroke_t	t	n/a
42.2315	0.1435	84463	keystroke_o	o	n/a
42.335	0.104	84670	keystroke_m	m	n/a
42.44	0.12	84880	keystroke_s	s	n/a
42.503	0.088	85006	keystroke_Key.space	Key.space	n/a
42.7275	0.0725	85455	keystroke_v	v	n/a
42.7915	0.0805	85583	keystroke_a	a	n/a
43.064	0.072	86128	keystroke_c	c	n/a
43.208	0.056	86416	keystroke_c	c	n/a
43.5035	0.056	87007	keystroke_Key.backspace	Key.backspace	n/a
43.68	0.064	87360	keystroke_u	u	n/a
43.8	0.0555	87600	keystroke_u	u	n/a
43.9755	0.136	87951	keystroke_m	m	n/a
44.0875	0.08	88175	keystroke_Key.space	Key.space	n/a
44.4715	0.088	88943	keystroke_k	k	n/a
46.4715	0.1205	92943	keystroke_i	i	n/a
46.896	0.135	93792	keystroke_j	j	n/a
47.136	0.0955	94272	keystroke_i	i	n/a
47.335	0.137	94670	keystroke_j	j	n/a
47.44	0.072	94880	keystroke_i	i	n/a
47.808	0.064	95616	keystroke_Key.enter	Key.enter	n/a
47.8775	3.508	95755	prompt	n/a	i've kate truth opinion\n
48.6955	0.104	97391	keystroke_i	i	n/a
48.9755	0.1285	97951	keystroke_'	'	n/a
49.1595	0.072	98319	keystroke_v	v	n/a
49.2475	0.1285	98495	keystroke_e	e	n/a
49.3195	0.08	98639	keystroke_Key.space	Key.space	n/a
49.4795	0.12	98959	keystroke_k	k	n/a
49.5355	0.1125	99071	keystroke_a	a	n/a
49.64	0.128	99280	keystroke_t	t	n/a
49.704	0.128	99408	keystroke_e	e	n/a
49.775	0.073	99550	keystroke_Key.space	Key.space	n/a
49.944	0.064	99888	keystroke_t	t	n/a
50.088	0.096	100176	keystroke_r	r	n/a
50.184	0.0795	100368	keystroke_u	u	n/a
50.279	0.145	100558	keystroke_t	t	n/a
50.368	0.0955	100736	keystroke_h	h	n/a
50.424	0.071	100848	keystroke_Key.space	Key.space	n/a
50.536	0.096	101072	keystroke_o	o	n/a
50.68	0.0795	101360	keystroke_p	p	n/a
50.824	0.0395	101648	keystroke_i	i	n/a
50.9115	0.1115	101823	keystroke_n	n	n/a
50.9835	0.0955	101967	keystroke_i	i	n/a
51.0395	0.112	102079	keystroke_o	o	n/a
51.1115	0.0885	102223	keystroke_n	n	n/a
51.311	0.072	102622	keystroke_Key.enter	Key.enter	n/a
51.39	4.244	102780	prompt	n/a	invited cookies swingers management\n
51.976	0.063	103952	keystroke_i	i	n/a
52.104	0.088	104208	keystroke_n	n	n/a
52.256	0.088	104512	keystroke_v	v	n/a
52.3915	0.144	104783	keystroke_i	i	n/a
52.5035	0.104	105007	keystroke_t	t	n/a
52.5755	0.072	105151	keystroke_e	e	n/a
52.7275	0.096	105455	keystroke_d	d	n/a
52.7755	0.064	105551	keystroke_Key.space	Key.space	n/a
52.904	0.0875	105808	keystroke_c	c	n/a
52.9835	0.056	105967	keystroke_o	o	n/a
53.0955	0.0645	106191	keystroke_o	o	n/a
53.2155	0.0565	106431	keystroke_k	k	n/a
53.3515	0.1595	106703	keystroke_i	i	n/a
53.4315	0.1045	106863	keystroke_e	e	n/a
53.4875	0.0885	106975	keystroke_s	s	n/a
53.52	0.096	107040	keystroke_Key.space	Key.space	n/a
53.656	0.056	107312	keystroke_s	s	n/a
53.783	0.089	107566	keystroke_w	w	n/a
53.8555	0.0715	107711	keystroke_i	i	n/a
53.944	0.127	107888	keystroke_n	n	n/a
54	0.0795	108000	keystroke_g	g	n/a
54.127	0.225	108254	keystroke_e	e	n/a
54.247	0.168	108494	keystroke_r	r	n/a
54.32	0.128	108640	keystroke_s	s	n/a
54.399	0.112	108798	keystroke_Key.space	Key.space	n/a
54.519	0.088	109038	keystroke_m	m	n/a
54.599	0.0885	109198	keystroke_a	a	n/a
54.6955	0.096	109391	keystroke_n	n	n/a
54.7595	0.128	109519	keystroke_a	a	n/a
54.888	0.0715	109776	keystroke_g	g	n/a
54.9995	0.08	109999	keystroke_e	e	n/a
55.1195	0.056	110239	keystroke_m	m	n/a
55.2075	0.08	110415	keystroke_e	e	n/a
55.3035	0.0875	110607	keystroke_n	n	n/a
55.392	0.072	110784	keystroke_t	t	n/a
55.559	0.072	111118	keystroke_Key.enter	Key.enter	n/a
55.6385	5.035	111277	prompt	n/a	sentence barcelona older softball\n
56.112	0.079	112224	keystroke_s	s	n/a
56.2395	0.0885	112479	keystroke_e	e	n/a
56.3515	0.088	112703	keystroke_n	n	n/a
56.4405	0.103	112881	keystroke_t	t	n/a
56.5115	0.096	113023	keystroke_e	e	n/a
56.6075	0.152	113215	keystroke_n	n	n/a
56.7115	0.0955	113423	keystroke_c	c	n/a
56.775	0.096	113550	keystroke_e	e	n/a
56.8395	0.0555	113679	keystroke_Key.space	Key.space	n/a
57.0315	0.128	114063	keystroke_a	a	n/a
57.3675	0.064	114735	keystroke_Key.backspace	Key.backspace	n/a
57.4155	0.072	114831	keystroke_b	b	n/a
57.4955	0.112	114991	keystroke_a	a	n/a
57.6235	0.064	115247	keystroke_r	r	n/a
57.8555	0.08	115711	keystroke_c	c	n/a
57.9595	0.056	115919	keystroke_e	e	n/a
58.0955	0.064	116191	keystroke_l	l	n/a
58.2475	0.096	116495	keystroke_o	o	n/a
58.3275	0.12	116655	keystroke_n	n	n/a
58.416	0.1035	116832	keystroke_a	a	n/a
58.5035	0.096	117007	keystroke_Key.space	Key.space	n/a
58.7515	0.048	117503	keystroke_o	o	n/a
58.888	0.0955	117776	keystroke_l	l	n/a
58.9515	0.056	117903	keystroke_d	d	n/a
59.0875	0.1605	118175	keystroke_e	e	n/a
59.1675	0.1285	118335	keystroke_r	r	n/a
59.2875	0.032	118575	keystroke_Key.space	Key.space	n/a
59.6395	0.08	119279	keystroke_s	s	n/a
59.7515	0.112	119503	keystroke_o	o	n/a
59.7835	0.088	119567	keystroke_f	f	n/a
59.9515	0.072	119903	keystroke_t	t	n/a
60.1275	0.112	120255	keystroke_b	b	n/a
60.1995	0.072	120399	keystroke_a	a	n/a
60.3115	0.072	120623	keystroke_l	l	n/a
60.464	0.0395	120928	keystroke_l	l	n/a
60.5995	0.072	121199	keystroke_Key.enter	Key.enter	n/a
60.679	3.6425	121358	prompt	n/a	benz whatever internal tiny\n
61.1835	0.064	122367	keystroke_b	b	n/a
61.3195	0.088	122639	keystroke_e	e	n/a
61.4315	0.1685	122863	keystroke_n	n	n/a
61.552	0.12	123104	keystroke_z	z	n/a
61.6875	0.048	123375	keystroke_Key.space	Key.space	n/a
61.7835	0.0965	123567	keystroke_w	w	n/a
61.9355	0.088	123871	keystroke_h	h	n/a
62.0235	0.112	124047	keystroke_a	a	n/a
62.1435	0.104	124287	keystroke_t	t	n/a
62.2395	0.072	124479	keystroke_e	e	n/a
62.4075	0.064	124815	keystroke_v	v	n/a
62.5195	0.144	125039	keystroke_e	e	n/a
62.5915	0.104	125183	keystroke_r	r	n/a
62.6395	0.088	125279	keystroke_Key.space	Key.space	n/a
62.7285	0.0555	125457	keystroke_i	i	n/a
62.8235	0.12	125647	keystroke_n	n	n/a
62.8715	0.08	125743	keystroke_t	t	n/a
62.9355	0.16	125871	keystroke_e	e	n/a
63.0555	0.0965	126111	keystroke_r	r	n/a
63.1355	0.0885	126271	keystroke_n	n	n/a
63.2395	0.0955	126479	keystroke_a	a	n/a
63.375	0.1125	126750	keystroke_l	l	n/a
63.423	0.096	126846	keystroke_Key.space	Key.space	n/a
63.7355	0.088	127471	keystroke_t	t	n/a
63.815	0.0565	127630	keystroke_i	i	n/a
63.8795	0.088	127759	keystroke_n	n	n/a
64.088	0.055	128176	keystroke_y	y	n/a
64.2555	0.0635	128511	keystroke_Key.enter	Key.enter	n/a
64.326	3.867	128652	prompt	n/a	suffer restriction nation builder\n
64.8155	0.0645	129631	keystroke_s	s	n/a
64.9515	0.096	129903	keystroke_u	u	n/a
65.0635	0.056	130127	keystroke_f	f	n/a
65.184	0.0475	130368	keystroke_f	f	n/a
65.3275	0.1595	130655	keystroke_e	e	n/a
65.4075	0.1195	130815	keystroke_r	r	n/a
65.503	0.0565	131006	keystroke_Key.space	Key.space	n/a
65.6395	0.1195	131279	keystroke_r	r	n/a
65.7115	0.128	131423	keystroke_e	e	n/a
65.8	0.12	131600	keystroke_s	s	n/a
65.896	0.072	131792	keystroke_t	t	n/a
66.0475	0.0805	132095	keystroke_r	r	n/a
66.1915	0.0965	132383	keystroke_i	i	n/a
66.28	0.08	132560	keystroke_c	c	n/a
66.4715	0.104	132943	keystroke_t	t	n/a
66.536	0.0795	133072	keystroke_i	i	n/a
66.5835	0.112	133167	keystroke_o	o	n/a
66.6235	0.079	133247	keystroke_n	n	n/a
66.6875	0.055	133375	keystroke_Key.space	Key.space	n/a
66.8155	0.128	133631	keystroke_n	n	n/a
66.9115	0.096	133823	keystroke_a	a	n/a
66.9995	0.096	133999	keystroke_t	t	n/a
67.0865	0.088	134173	keystroke_i	i	n/a
67.1195	0.128	134239	keystroke_o	o	n/a
67.1515	0.128	134303	keystroke_n	n	n/a
67.3115	0.087	134623	keystroke_Key.space	Key.space	n/a
67.4555	0.08	134911	keystroke_b	b	n/a
67.527	0.136	135054	keystroke_u	u	n/a
67.599	0.1125	135198	keystroke_i	i	n/a
67.632	0.143	135264	keystroke_l	l	n/a
67.727	0.0805	135454	keystroke_d	d	n/a
67.8875	0.1515	135775	keystroke_e	e	n/a
67.9755	0.104	135951	keystroke_r	r	n/a
68.0955	0.096	136191	keystroke_Key.enter	Key.enter	n/a
68.1965	3.901	136393	prompt	n/a	robbie casey continue prevent\n
68.807	0.0725	137614	keystroke_r	r	n/a
68.895	0.104	137790	keystroke_o	o	n/a
69.0315	0.0475	138063	keystroke_b	b	n/a
69.143	0.0565	138286	keystroke_b	b	n/a
69.2795	0.1355	138559	keystroke_i	i	n/a
69.3515	0.088	138703	keystroke_e	e	n/a
69.416	0.0795	138832	keystroke_Key.space	Key.space	n/a
69.5835	0.104	139167	keystroke_c	c	n/a
69.6395	0.144	139279	keystroke_a	a	n/a
69.7355	0.128	139471	keystroke_s	s	n/a
69.8315	0.128	139663	keystroke_e	e	n/a
69.9675	0.112	139935	keystroke_y	y	n/a
70.0315	0.104	140063	keystroke_Key.space	Key.space	n/a
70.1435	0.112	140287	keystroke_c	c	n/a
70.2155	0.088	140431	keystroke_o	o	n/a
70.3675	0.072	140735	keystroke_n	n	n/a
70.4315	0.072	140863	keystroke_t	t	n/a
70.5915	0.064	141183	keystroke_i	i	n/a
70.6955	0.072	141391	keystroke_n	n	n/a
70.927	0.1045	141854	keystroke_u	u	n/a
70.9675	0.0875	141935	keystroke_e	e	n/a
71.0315	0.0555	142063	keystroke_Key.space	Key.space	n/a
71.1995	0.1675	142399	keystroke_p	p	n/a
71.2625	0.081	142525	keystroke_r	r	n/a
71.3345	0.057	142669	keystroke_e	e	n/a
71.479	0.088	142958	keystroke_v	v	n/a
71.6075	0.088	143215	keystroke_e	e	n/a
71.7585	0.0965	143517	keystroke_n	n	n/a
71.8875	0.0635	143775	keystroke_t	t	n/a
72.007	0.0885	144014	keystroke_Key.enter	Key.enter	n/a
72.102	5.1155	144204	prompt	n/a	dining vids view catalyst\n
72.6	0.055	145200	keystroke_r	r	n/a
72.9115	0.031	145823	keystroke_Key.backspace	Key.backspace	n/a
72.9915	0.096	145983	keystroke_d	d	n/a
73.0795	0.064	146159	keystroke_i	i	n/a
73.2075	0.072	146415	keystroke_n	n	n/a
73.2875	0.088	146575	keystroke_i	i	n/a
73.3995	0.112	146799	keystroke_n	n	n/a
73.5275	0.0805	147055	keystroke_g	g	n/a
73.5755	0.088	147151	keystroke_Key.space	Key.space	n/a
73.872	0.0795	147744	keystroke_v	v	n/a
73.9995	0.112	147999	keystroke_i	i	n/a
74.071	0.168	148142	keystroke_d	d	n/a
74.208	0.135	148416	keystroke_s	s	n/a
74.48	0.063	148960	keystroke_v	v	n/a
74.6	0.111	149200	keystroke_i	i	n/a
74.871	0.04	149742	keystroke_Key.backspace	Key.backspace	n/a
75.039	0.072	150078	keystroke_Key.backspace	Key.backspace	n/a
75.151	0.08	150302	keystroke_Key.space	Key.space	n/a
75.263	0.08	150526	keystroke_v	v	n/a
75.407	0.1365	150814	keystroke_i	i	n/a
75.5115	0.152	151023	keystroke_e	e	n/a
75.584	0.087	151168	keystroke_w	w	n/a
75.6315	0.1035	151263	keystroke_Key.space	Key.space	n/a
75.823	0.1045	151646	keystroke_c	c	n/a
75.9355	0.0795	151871	keystroke_a	a	n/a
76.087	0.0965	152174	keystroke_t	t	n/a
76.16	0.104	152320	keystroke_a	a	n/a
76.6955	0.095	153391	keystroke_l	l	n/a
76.8635	0.0955	153727	keystroke_y	y	n/a
76.967	0.08	153934	keystroke_s	s	n/a
77.015	0.088	154030	keystroke_t	t	n/a
77.143	0.0725	154286	keystroke_Key.enter	Key.enter	n/a
77.223	5.306	154446	prompt	n/a	eligibility terrain decades surely\n
77.8155	0.0875	155631	keystroke_e	e	n/a
77.927	0.0725	155854	keystroke_l	l	n/a
78.079	0.081	156158	keystroke_i	i	n/a
78.207	0.0645	156414	keystroke_g	g	n/a
78.5835	0.0795	157167	keystroke_i	i	n/a
78.719	0.0645	157438	keystroke_b	b	n/a
78.8555	0.0715	157711	keystroke_i	i	n/a
79.032	0.112	158064	keystroke_l	l	n/a
79.1275	0.0885	158255	keystroke_i	i	n/a
79.279	0.12	158558	keystroke_t	t	n/a
79.3675	0.096	158735	keystroke_y	y	n/a
79.431	0.0805	158862	keystroke_Key.space	Key.space	n/a
79.5595	0.072	159119	keystroke_t	t	n/a
79.7355	0.072	159471	keystroke_e	e	n/a
80.047	0.096	160094	keystroke_r	r	n/a
80.223	0.088	160446	keystroke_r	r	n/a
80.343	0.072	160686	keystroke_a	a	n/a
80.423	0.0645	160846	keystroke_i	i	n/a
80.503	0.144	161006	keystroke_n	n	n/a
80.599	0.088	161198	keystroke_Key.space	Key.space	n/a
80.7035	0.071	161407	keystroke_d	d	n/a
80.8395	0.072	161679	keystroke_e	e	n/a
80.992	0.0955	161984	keystroke_c	c	n/a
81.0715	0.088	162143	keystroke_a	a	n/a
81.199	0.0565	162398	keystroke_d	d	n/a
81.3595	0.1445	162719	keystroke_e	e	n/a
81.4235	0.1365	162847	keystroke_s	s	n/a
81.512	0.095	163024	keystroke_Key.space	Key.space	n/a
81.735	0.081	163470	keystroke_s	s	n/a
81.872	0.1195	163744	keystroke_u	u	n/a
81.9435	0.1365	163887	keystroke_r	r	n/a
82.015	0.112	164030	keystroke_e	e	n/a
82.128	0.0795	164256	keystroke_l	l	n/a
82.2715	0.0795	164543	keystroke_y	y	n/a
82.4475	0.08	164895	keystroke_Key.enter	Key.enter	n/a
82.534	6.027	165068	prompt	n/a	protection regulations psychological python\n
83.1275	0.096	166255	keystroke_p	p	n/a
83.2155	0.08	166431	keystroke_r	r	n/a
83.3435	0.128	166687	keystroke_o	o	n/a
83.4715	0.1355	166943	keystroke_t	t	n/a
83.5755	0.0875	167151	keystroke_e	e	n/a
83.7755	0.0725	167551	keystroke_c	c	n/a
83.9835	0.096	167967	keystroke_t	t	n/a
84.0635	0.088	168127	keystroke_i	i	n/a
84.1035	0.112	168207	keystroke_o	o	n/a
84.1595	0.12	168319	keystroke_n	n	n/a
84.2235	0.088	168447	keystroke_Key.space	Key.space	n/a
84.3355	0.104	168671	keystroke_r	r	n/a
84.3835	0.08	168767	keystroke_e	e	n/a
84.5355	0.104	169071	keystroke_g	g	n/a
84.6315	0.072	169263	keystroke_u	u	n/a
84.7675	0.04	169535	keystroke_l	l	n/a
85.327	0.097	170654	keystroke_a	a	n/a
85.407	0.1205	170814	keystroke_t	t	n/a
85.5595	0.088	171119	keystroke_i	i	n/a
85.5835	0.152	171167	keystroke_o	o	n/a
85.6875	0.104	171375	keystroke_n	n	n/a
85.7195	0.104	171439	keystroke_s	s	n/a
85.7995	0.088	171599	keystroke_Key.space	Key.space	n/a
86.0315	0.08	172063	keystroke_p	p	n/a
86.263	0.088	172526	keystroke_s	s	n/a
86.3675	0.0795	172735	keystroke_y	y	n/a
86.463	0.0965	172926	keystroke_c	c	n/a
86.5595	0.111	173119	keystroke_h	h	n/a
86.6395	0.0795	173279	keystroke_o	o	n/a
86.8155	0.055	173631	keystroke_l	l	n/a
86.9595	0.079	173919	keystroke_o	o	n/a
87.04	0.0795	174080	keystroke_g	g	n/a
87.1435	0.08	174287	keystroke_i	i	n/a
87.2475	0.136	174495	keystroke_c	c	n/a
87.3195	0.128	174639	keystroke_a	a	n/a
87.3995	0.0965	174799	keystroke_l	l	n/a
87.497	0.102	174994	keystroke_Key.space	Key.space	n/a
87.615	0.096	175230	keystroke_p	p	n/a
87.832	0.0955	175664	keystroke_y	y	n/a
87.9595	0.096	175919	keystroke_t	t	n/a
88.079	0.12	176158	keystroke_h	h	n/a
88.1595	0.088	176319	keystroke_o	o	n/a
88.279	0.096	176558	keystroke_n	n	n/a
88.471	0.0885	176942	keystroke_Key.enter	Key.enter	n/a
88.568	3.713	177136	prompt	n/a	moment fine ranging constraint\n
89.103	0.072	178206	keystroke_m	m	n/a
89.255	0.0965	178510	keystroke_o	o	n/a
89.3755	0.096	178751	keystroke_m	m	n/a
89.4875	0.104	178975	keystroke_e	e	n/a
89.5755	0.128	179151	keystroke_n	n	n/a
89.6635	0.08	179327	keystroke_t	t	n/a
89.7275	0.072	179455	keystroke_Key.space	Key.space	n/a
89.8795	0.088	179759	keystroke_f	f	n/a
89.9915	0.064	179983	keystroke_i	i	n/a
90.1035	0.144	180207	keystroke_n	n	n/a
90.1755	0.088	180351	keystroke_e	e	n/a
90.2155	0.088	180431	keystroke_Key.space	Key.space	n/a
90.3915	0.1035	180783	keystroke_r	r	n/a
90.4715	0.104	180943	keystroke_a	a	n/a
90.5995	0.096	181199	keystroke_n	n	n/a
90.7035	0.088	181407	keystroke_g	g	n/a
90.7755	0.056	181551	keystroke_i	i	n/a
90.84	0.1435	181680	keystroke_n	n	n/a
90.9115	0.072	181823	keystroke_g	g	n/a
90.9515	0.104	181903	keystroke_Key.space	Key.space	n/a
91.1435	0.104	182287	keystroke_c	c	n/a
91.216	0.104	182432	keystroke_o	o	n/a
91.2545	0.145	182509	keystroke_n	n	n/a
91.3675	0.079	182735	keystroke_s	s	n/a
91.471	0.0885	182942	keystroke_t	t	n/a
91.6395	0.1275	183279	keystroke_r	r	n/a
91.7195	0.1035	183439	keystroke_a	a	n/a
91.855	0.064	183710	keystroke_i	i	n/a
91.9345	0.12	183869	keystroke_n	n	n/a
92.0225	0.0725	184045	keystroke_t	t	n/a
92.207	0.0715	184414	keystroke_Key.enter	Key.enter	n/a
92.2855	4.323	184571	prompt	n/a	grown jade fabric defend\n
92.8395	0.08	185679	keystroke_g	g	n/a
93.0225	0.0725	186045	keystroke_r	r	n/a
93.1595	0.1035	186319	keystroke_o	o	n/a
93.231	0.104	186462	keystroke_w	w	n/a
93.343	0.128	186686	keystroke_n	n	n/a
93.439	0.112	186878	keystroke_Key.space	Key.space	n/a
93.7035	0.12	187407	keystroke_j	j	n/a
93.791	0.064	187582	keystroke_a	a	n/a
93.895	0.088	187790	keystroke_d	d	n/a
94.039	0.128	188078	keystroke_e	e	n/a
94.159	0.088	188318	keystroke_Key.space	Key.space	n/a
94.367	0.104	188734	keystroke_f	f	n/a
94.447	0.088	188894	keystroke_a	a	n/a
94.655	0.088	189310	keystroke_b	b	n/a
94.8545	0.065	189709	keystroke_r	r	n/a
94.9995	0.151	189999	keystroke_i	i	n/a
95.1265	0.104	190253	keystroke_c	c	n/a
95.3595	0.072	190719	keystroke_d	d	n/a
95.687	0.0645	191374	keystroke_Key.backspace	Key.backspace	n/a
95.7355	0.1115	191471	keystroke_Key.space	Key.space	n/a
95.831	0.0795	191662	keystroke_d	d	n/a
95.9835	0.0715	191967	keystroke_e	e	n/a
96.0875	0.1035	192175	keystroke_f	f	n/a
96.1835	0.0875	192367	keystroke_e	e	n/a
96.287	0.096	192574	keystroke_n	n	n/a
96.3915	0.071	192783	keystroke_d	d	n/a
96.5355	0.071	193071	keystroke_Key.enter	Key.enter	n/a
96.611	4.4945	193222	prompt	n/a	pierre null cats massive\n
97.151	0.0875	194302	keystroke_p	p	n/a
97.2865	0.112	194573	keystroke_i	i	n/a
97.3755	0.079	194751	keystroke_e	e	n/a
97.535	0.072	195070	keystroke_r	r	n/a
97.687	0.072	195374	keystroke_r	r	n/a
97.831	0.104	195662	keystroke_e	e	n/a
97.927	0.072	195854	keystroke_Key.space	Key.space	n/a
98.1035	0.0635	196207	keystroke_n	n	n/a
98.263	0.064	196526	keystroke_u	u	n/a
98.439	0.04	196878	keystroke_l	l	n/a
98.5435	0.071	197087	keystroke_l	l	n/a
98.743	0.072	197486	keystroke_Key.space	Key.space	n/a
98.823	0.12	197646	keystroke_c	c	n/a
98.9195	0.1195	197839	keystroke_a	a	n/a
99.119	0.08	198238	keystroke_t	t	n/a
99.3275	0.1195	198655	keystroke_s	s	n/a
99.407	0.08	198814	keystroke_Key.space	Key.space	n/a
99.7995	0.088	199599	keystroke_n	n	n/a
100.0625	0.056	200125	keystroke_Key.backspace	Key.backspace	n/a
100.231	0.072	200462	keystroke_m	m	n/a
100.3105	0.0565	200621	keystroke_a	a	n/a
100.4635	0.0715	200927	keystroke_s	s	n/a
100.607	0.064	201214	keystroke_s	s	n/a
100.672	0.1275	201344	keystroke_i	i	n/a
100.759	0.072	201518	keystroke_v	v	n/a
100.9275	0.072	201855	keystroke_e	e	n/a
101.023	0.08	202046	keystroke_Key.enter	Key.enter	n/a
101.11	4.5945	202220	prompt	n/a	formerly oxide rising performance\n
101.727	0.064	203454	keystroke_f	f	n/a
101.847	0.1045	203694	keystroke_o	o	n/a
101.943	0.0795	203886	keystroke_r	r	n/a
102.0715	0.088	204143	keystroke_m	m	n/a
102.3115	0.12	204623	keystroke_e	e	n/a
102.4715	0.079	204943	keystroke_r	r	n/a
102.6065	0.089	205213	keystroke_l	l	n/a
102.791	0.12	205582	keystroke_y	y	n/a
102.863	0.088	205726	keystroke_Key.space	Key.space	n/a
103.0225	0.0965	206045	keystroke_o	o	n/a
103.151	0.1125	206302	keystroke_x	x	n/a
103.2865	0.137	206573	keystroke_i	i	n/a
103.3985	0.064	206797	keystroke_d	d	n/a
103.639	0.128	207278	keystroke_e	e	n/a
103.751	0.064	207502	keystroke_Key.space	Key.space	n/a
103.983	0.08	207966	keystroke_r	r	n/a
104.071	0.088	208142	keystroke_i	i	n/a
104.183	0.104	208366	keystroke_s	s	n/a
104.263	0.048	208526	keystroke_i	i	n/a
104.367	0.136	208734	keystroke_n	n	n/a
104.423	0.088	208846	keystroke_g	g	n/a
104.479	0.064	208958	keystroke_Key.space	Key.space	n/a
104.607	0.104	209214	keystroke_p	p	n/a
104.647	0.112	209294	keystroke_e	e	n/a
104.719	0.072	209438	keystroke_r	r	n/a
104.887	0.072	209774	keystroke_f	f	n/a
104.967	0.112	209934	keystroke_o	o	n/a
105.071	0.096	210142	keystroke_r	r	n/a
105.175	0.088	210350	keystroke_m	m	n/a
105.247	0.1035	210494	keystroke_a	a	n/a
105.3585	0.096	210717	keystroke_n	n	n/a
105.4225	0.097	210845	keystroke_c	c	n/a
105.4865	0.072	210973	keystroke_e	e	n/a
105.6225	0.0805	211245	keystroke_Key.enter	Key.enter	n/a
105.708	3.9805	211416	prompt	n/a	perceived four creature falls\n
106.2635	0.096	212527	keystroke_p	p	n/a
106.3435	0.088	212687	keystroke_e	e	n/a
106.3835	0.096	212767	keystroke_r	r	n/a
106.6155	0.088	213231	keystroke_c	c	n/a
106.7035	0.088	213407	keystroke_e	e	n/a
106.8555	0.128	213711	keystroke_i	i	n/a
106.9515	0.088	213903	keystroke_v	v	n/a
107.0475	0.088	214095	keystroke_e	e	n/a
107.2395	0.056	214479	keystroke_d	d	n/a
107.2865	0.0805	214573	keystroke_Key.space	Key.space	n/a
107.4235	0.1035	214847	keystroke_f	f	n/a
107.5515	0.1035	215103	keystroke_o	o	n/a
107.6155	0.1595	215231	keystroke_u	u	n/a
107.695	0.1045	215390	keystroke_r	r	n/a
107.7595	0.0955	215519	keystroke_Key.space	Key.space	n/a
108.0715	0.0875	216143	keystroke_c	c	n/a
108.287	0.104	216574	keystroke_r	r	n/a
108.367	0.112	216734	keystroke_e	e	n/a
108.431	0.1285	216862	keystroke_a	a	n/a
108.5755	0.1035	217151	keystroke_t	t	n/a
108.743	0.112	217486	keystroke_u	u	n/a
108.799	0.112	217598	keystroke_r	r	n/a
108.8635	0.0955	217727	keystroke_e	e	n/a
108.887	0.104	217774	keystroke_Key.space	Key.space	n/a
109.039	0.0885	218078	keystroke_f	f	n/a
109.111	0.0725	218222	keystroke_a	a	n/a
109.184	0.055	218368	keystroke_l	l	n/a
109.319	0.064	218638	keystroke_l	l	n/a
109.439	0.072	218878	keystroke_s	s	n/a
109.559	0.1275	219118	keystroke_Key.enter	Key.enter	n/a
109.693	5.228	219386	prompt	n/a	extract explicitly jesus torture\n
110.199	0.072	220398	keystroke_e	e	n/a
110.367	0.096	220734	keystroke_x	x	n/a
110.5995	0.0795	221199	keystroke_t	t	n/a
110.759	0.1355	221518	keystroke_r	r	n/a
110.855	0.088	221710	keystroke_a	a	n/a
111.0315	0.072	222063	keystroke_c	c	n/a
111.1995	0.12	222399	keystroke_t	t	n/a
111.2785	0.081	222557	keystroke_Key.space	Key.space	n/a
111.639	0.0725	223278	keystroke_e	e	n/a
111.7905	0.088	223581	keystroke_x	x	n/a
111.9105	0.073	223821	keystroke_p	p	n/a
112.0715	0.0715	224143	keystroke_l	l	n/a
112.215	0.0795	224430	keystroke_i	i	n/a
112.3105	0.0725	224621	keystroke_c	c	n/a
112.367	0.0875	224734	keystroke_i	i	n/a
112.5745	0.088	225149	keystroke_t	t	n/a
112.887	0.0965	225774	keystroke_l	l	n/a
113.071	0.1205	226142	keystroke_y	y	n/a
113.175	0.08	226350	keystroke_Key.space	Key.space	n/a
113.351	0.104	226702	keystroke_j	j	n/a
113.447	0.136	226894	keystroke_e	e	n/a
113.591	0.0795	227182	keystroke_s	s	n/a
113.7195	0.1355	227439	keystroke_u	u	n/a
113.815	0.088	227630	keystroke_s	s	n/a
113.8705	0.0645	227741	keystroke_Key.space	Key.space	n/a
114.023	0.0715	228046	keystroke_t	t	n/a
114.1025	0.1365	228205	keystroke_o	o	n/a
114.231	0.0795	228462	keystroke_r	r	n/a
114.4065	0.0805	228813	keystroke_t	t	n/a
114.5105	0.1275	229021	keystroke_u	u	n/a
114.607	0.16	229214	keystroke_r	r	n/a
114.6945	0.1045	229389	keystroke_e	e	n/a
114.855	0.064	229710	keystroke_Key.enter	Key.enter	n/a
114.9245	5.268	229849	prompt	n/a	neural realistic printer committed\n
115.4865	0.104	230973	keystroke_n	n	n/a
115.5755	0.1035	231151	keystroke_e	e	n/a
115.7905	0.1205	231581	keystroke_u	u	n/a
115.8785	0.16	231757	keystroke_r	r	n/a
115.967	0.0955	231934	keystroke_a	a	n/a
116.095	0.112	232190	keystroke_l	l	n/a
116.175	0.0955	232350	keystroke_Key.space	Key.space	n/a
116.5995	0.1515	233199	keystroke_r	r	n/a
116.6705	0.128	233341	keystroke_e	e	n/a
116.759	0.0885	233518	keystroke_a	a	n/a
116.8235	0.071	233647	keystroke_l	l	n/a
116.959	0.096	233918	keystroke_i	i	n/a
117.063	0.08	234126	keystroke_s	s	n/a
117.1115	0.103	234223	keystroke_t	t	n/a
117.223	0.1205	234446	keystroke_i	i	n/a
117.367	0.112	234734	keystroke_c	c	n/a
117.4545	0.08	234909	keystroke_Key.space	Key.space	n/a
118.046	0.065	236092	keystroke_p	p	n/a
118.119	0.127	236238	keystroke_r	r	n/a
118.207	0.056	236414	keystroke_i	i	n/a
118.303	0.12	236606	keystroke_n	n	n/a
118.383	0.08	236766	keystroke_t	t	n/a
118.486	0.2165	236972	keystroke_e	e	n/a
118.583	0.1115	237166	keystroke_r	r	n/a
118.6625	0.096	237325	keystroke_Key.space	Key.space	n/a
118.847	0.104	237694	keystroke_c	c	n/a
118.8955	0.095	237791	keystroke_o	o	n/a
119.071	0.048	238142	keystroke_m	m	n/a
119.175	0.072	238350	keystroke_m	m	n/a
119.382	0.056	238764	keystroke_i	i	n/a
119.503	0.056	239006	keystroke_t	t	n/a
119.631	0.072	239262	keystroke_t	t	n/a
119.791	0.0645	239582	keystroke_e	e	n/a
119.967	0.0635	239934	keystroke_d	d	n/a
120.1105	0.08	240221	keystroke_Key.enter	Key.enter	n/a
120.198	4.819	240396	prompt	n/a	discusses sodium nicole surgery\n
120.711	0.088	241422	keystroke_d	d	n/a
120.871	0.104	241742	keystroke_i	i	n/a
120.927	0.0885	241854	keystroke_s	s	n/a
121.0555	0.0795	242111	keystroke_c	c	n/a
121.158	0.089	242316	keystroke_u	u	n/a
121.2395	0.0635	242479	keystroke_s	s	n/a
121.367	0.088	242734	keystroke_s	s	n/a
121.511	0.136	243022	keystroke_e	e	n/a
121.631	0.04	243262	keystroke_s	s	n/a
121.903	0.08	243806	keystroke_Key.space	Key.space	n/a
122.1825	0.056	244365	keystroke_d	d	n/a
122.471	0.0315	244942	keystroke_Key.backspace	Key.backspace	n/a
122.5425	0.0885	245085	keystroke_s	s	n/a
122.6545	0.0965	245309	keystroke_o	o	n/a
122.7585	0.088	245517	keystroke_d	d	n/a
122.8305	0.08	245661	keystroke_i	i	n/a
122.9585	0.048	245917	keystroke_u	u	n/a
123.1345	0.1125	246269	keystroke_m	m	n/a
123.286	0.056	246572	keystroke_Key.space	Key.space	n/a
123.431	0.12	246862	keystroke_n	n	n/a
123.511	0.08	247022	keystroke_i	i	n/a
123.599	0.088	247198	keystroke_c	c	n/a
123.679	0.072	247358	keystroke_o	o	n/a
123.855	0.1195	247710	keystroke_l	l	n/a
123.903	0.087	247806	keystroke_e	e	n/a
123.942	0.112	247884	keystroke_Key.space	Key.space	n/a
124.103	0.088	248206	keystroke_s	s	n/a
124.191	0.1195	248382	keystroke_u	u	n/a
124.2705	0.088	248541	keystroke_r	r	n/a
124.431	0.0955	248862	keystroke_g	g	n/a
124.503	0.192	249006	keystroke_e	e	n/a
124.663	0.079	249326	keystroke_r	r	n/a
124.719	0.088	249438	keystroke_y	y	n/a
124.919	0.096	249838	keystroke_Key.enter	Key.enter	n/a
125.021	4.6035	250042	prompt	n/a	directories grad courts circuit\n
125.5345	0.096	251069	keystroke_d	d	n/a
125.703	0.144	251406	keystroke_i	i	n/a
125.798	0.0975	251596	keystroke_r	r	n/a
125.871	0.08	251742	keystroke_e	e	n/a
126.038	0.081	252076	keystroke_c	c	n/a
126.2305	0.088	252461	keystroke_t	t	n/a
126.3345	0.104	252669	keystroke_o	o	n/a
126.4465	0.072	252893	keystroke_r	r	n/a
126.5505	0.1515	253101	keystroke_i	i	n/a
126.639	0.1835	253278	keystroke_e	e	n/a
126.718	0.1605	253436	keystroke_s	s	n/a
126.8065	0.08	253613	keystroke_Key.space	Key.space	n/a
126.9585	0.056	253917	keystroke_g	g	n/a
127.1265	0.096	254253	keystroke_r	r	n/a
127.183	0.1035	254366	keystroke_a	a	n/a
127.3345	0.112	254669	keystroke_d	d	n/a
127.4305	0.104	254861	keystroke_Key.space	Key.space	n/a
127.5425	0.064	255085	keystroke_c	c	n/a
127.631	0.135	255262	keystroke_o	o	n/a
127.6945	0.1445	255389	keystroke_u	u	n/a
127.9425	0.112	255885	keystroke_r	r	n/a
128.1425	0.144	256285	keystroke_t	t	n/a
128.2385	0.128	256477	keystroke_s	s	n/a
128.3185	0.08	256637	keystroke_Key.space	Key.space	n/a
128.7745	0.0805	257549	keystroke_c	c	n/a
128.855	0.119	257710	keystroke_i	i	n/a
128.99	0.057	257980	keystroke_r	r	n/a
129.167	0.095	258334	keystroke_c	c	n/a
129.239	0.144	258478	keystroke_u	u	n/a
129.319	0.096	258638	keystroke_i	i	n/a
129.407	0.0795	258814	keystroke_t	t	n/a
129.5505	0.072	259101	keystroke_Key.enter	Key.enter	n/a
129.631	4.753	259262	prompt	n/a	translated springer indeed cyprus\n
130.2145	0.088	260429	keystroke_t	t	n/a
130.3825	0.12	260765	keystroke_r	r	n/a
130.4545	0.096	260909	keystroke_a	a	n/a
130.5185	0.112	261037	keystroke_n	n	n/a
130.8465	0.104	261693	keystroke_s	s	n/a
131.0305	0.144	262061	keystroke_l	l	n/a
131.143	0.1275	262286	keystroke_a	a	n/a
131.2465	0.1205	262493	keystroke_t	t	n/a
131.3185	0.08	262637	keystroke_e	e	n/a
131.4705	0.12	262941	keystroke_d	d	n/a
131.5345	0.112	263069	keystroke_Key.space	Key.space	n/a
131.6865	0.104	263373	keystroke_s	s	n/a
131.7915	0.103	263583	keystroke_p	p	n/a
131.8865	0.1045	263773	keystroke_r	r	n/a
131.9665	0.064	263933	keystroke_i	i	n/a
132.0385	0.128	264077	keystroke_n	n	n/a
132.1185	0.056	264237	keystroke_g	g	n/a
132.2305	0.168	264461	keystroke_e	e	n/a
132.311	0.1115	264622	keystroke_r	r	n/a
132.3585	0.096	264717	keystroke_Key.space	Key.space	n/a
132.4945	0.056	264989	keystroke_i	i	n/a
132.5825	0.128	265165	keystroke_n	n	n/a
132.671	0.0715	265342	keystroke_d	d	n/a
132.8305	0.0635	265661	keystroke_e	e	n/a
132.959	0.056	265918	keystroke_e	e	n/a
133.095	0.1115	266190	keystroke_d	d	n/a
133.23	0.04	266460	keystroke_Key.space	Key.space	n/a
133.4065	0.1035	266813	keystroke_c	c	n/a
133.518	0.088	267036	keystroke_y	y	n/a
133.687	0.088	267374	keystroke_p	p	n/a
133.9345	0.064	267869	keystroke_r	r	n/a
134.0465	0.112	268093	keystroke_u	u	n/a
134.1425	0.0725	268285	keystroke_s	s	n/a
134.302	0.08	268604	keystroke_Key.enter	Key.enter	n/a
134.3915	4.68	268783	prompt	n/a	tank desktops obligations tall\n
134.951	0.0715	269902	keystroke_t	t	n/a
135.111	0.087	270222	keystroke_a	a	n/a
135.215	0.167	270430	keystroke_n	n	n/a
135.302	0.096	270604	keystroke_k	k	n/a
135.4145	0.088	270829	keystroke_Key.space	Key.space	n/a
135.5425	0.064	271085	keystroke_d	d	n/a
135.6865	0.104	271373	keystroke_e	e	n/a
135.7585	0.0725	271517	keystroke_s	s	n/a
135.9905	0.104	271981	keystroke_k	k	n/a
136.2305	0.08	272461	keystroke_t	t	n/a
136.343	0.159	272686	keystroke_o	o	n/a
136.422	0.1205	272844	keystroke_p	p	n/a
136.6065	0.1195	273213	keystroke_s	s	n/a
136.7025	0.08	273405	keystroke_Key.space	Key.space	n/a
136.9425	0.0795	273885	keystroke_o	o	n/a
137.055	0.048	274110	keystroke_g	g	n/a
137.4225	0.056	274845	keystroke_Key.backspace	Key.backspace	n/a
137.5345	0.04	275069	keystroke_b	b	n/a
137.6305	0.08	275261	keystroke_l	l	n/a
137.7745	0.096	275549	keystroke_i	i	n/a
137.8545	0.103	275709	keystroke_g	g	n/a
137.9345	0.12	275869	keystroke_a	a	n/a
138.0865	0.096	276173	keystroke_t	t	n/a
138.1585	0.1115	276317	keystroke_i	i	n/a
138.1745	0.1515	276349	keystroke_o	o	n/a
138.263	0.143	276526	keystroke_n	n	n/a
138.342	0.0965	276684	keystroke_s	s	n/a
138.382	0.08	276764	keystroke_Key.space	Key.space	n/a
138.542	0.096	277084	keystroke_t	t	n/a
138.6225	0.096	277245	keystroke_a	a	n/a
138.735	0.063	277470	keystroke_l	l	n/a
138.854	0.0645	277708	keystroke_l	l	n/a
139.006	0.0645	278012	keystroke_Key.enter	Key.enter	n/a
139.0755	4.58	278151	prompt	n/a	decimal monday archives adjacent\n
139.5585	0.072	279117	keystroke_d	d	n/a
139.6945	0.08	279389	keystroke_e	e	n/a
139.839	0.088	279678	keystroke_c	c	n/a
139.918	0.064	279836	keystroke_i	i	n/a
140.054	0.0885	280108	keystroke_m	m	n/a
140.143	0.0715	280286	keystroke_a	a	n/a
140.319	0.1115	280638	keystroke_l	l	n/a
140.398	0.088	280796	keystroke_Key.space	Key.space	n/a
140.623	0.128	281246	keystroke_m	m	n/a
140.711	0.1355	281422	keystroke_o	o	n/a
140.8305	0.079	281661	keystroke_n	n	n/a
140.9015	0.137	281803	keystroke_d	d	n/a
140.983	0.0795	281966	keystroke_a	a	n/a
141.071	0.1115	282142	keystroke_y	y	n/a
141.1505	0.104	282301	keystroke_Key.space	Key.space	n/a
141.2625	0.0795	282525	keystroke_a	a	n/a
141.3745	0.072	282749	keystroke_r	r	n/a
141.5585	0.0965	283117	keystroke_c	c	n/a
141.622	0.104	283244	keystroke_h	h	n/a
141.662	0.1125	283324	keystroke_i	i	n/a
141.79	0.097	283580	keystroke_v	v	n/a
141.9825	0.1595	283965	keystroke_e	e	n/a
142.07	0.1125	284140	keystroke_s	s	n/a
142.126	0.08	284252	keystroke_Key.space	Key.space	n/a
142.3825	0.08	284765	keystroke_a	a	n/a
142.4945	0.0805	284989	keystroke_d	d	n/a
142.6305	0.1275	285261	keystroke_j	j	n/a
142.7665	0.12	285533	keystroke_a	a	n/a
143.022	0.105	286044	keystroke_c	c	n/a
143.158	0.088	286316	keystroke_e	e	n/a
143.31	0.096	286620	keystroke_n	n	n/a
143.406	0.0645	286812	keystroke_t	t	n/a
143.574	0.0805	287148	keystroke_Key.enter	Key.enter	n/a
143.659	6.941	287318	prompt	n/a	attending lesbians executive installation\n
144.1905	0.056	288381	keystroke_a	a	n/a
144.3265	0.04	288653	keystroke_t	t	n/a
144.5585	0.096	289117	keystroke_t	t	n/a
144.9025	0.1205	289805	keystroke_n	n	n/a
145.3025	0.0555	290605	keystroke_Key.backspace	Key.backspace	n/a
145.47	0.0725	290940	keystroke_e	e	n/a
145.566	0.12	291132	keystroke_n	n	n/a
145.67	0.088	291340	keystroke_d	d	n/a
145.774	0.0485	291548	keystroke_i	i	n/a
145.8465	0.12	291693	keystroke_n	n	n/a
145.902	0.0885	291804	keystroke_g	g	n/a
145.9585	0.0795	291917	keystroke_Key.space	Key.space	n/a
146.214	0.128	292428	keystroke_l	l	n/a
146.302	0.1445	292604	keystroke_e	e	n/a
146.4785	0.088	292957	keystroke_s	s	n/a
146.6385	0.096	293277	keystroke_b	b	n/a
146.7265	0.056	293453	keystroke_a	a	n/a
146.8225	0.12	293645	keystroke_i	i	n/a
147.1665	0.04	294333	keystroke_Key.backspace	Key.backspace	n/a
147.2785	0.032	294557	keystroke_Key.backspace	Key.backspace	n/a
147.4305	0.0715	294861	keystroke_i	i	n/a
147.518	0.08	295036	keystroke_a	a	n/a
147.614	0.136	295228	keystroke_n	n	n/a
147.686	0.088	295372	keystroke_s	s	n/a
147.7585	0.0795	295517	keystroke_Key.space	Key.space	n/a
147.935	0.0625	295870	keystroke_e	e	n/a
148.0865	0.0875	296173	keystroke_x	x	n/a
148.2625	0.072	296525	keystroke_e	e	n/a
148.4065	0.0795	296813	keystroke_c	c	n/a
148.5505	0.1035	297101	keystroke_u	u	n/a
148.655	0.072	297310	keystroke_t	t	n/a
148.751	0.1195	297502	keystroke_i	i	n/a
148.862	0.0885	297724	keystroke_v	v	n/a
148.9665	0.12	297933	keystroke_e	e	n/a
149.0775	0.057	298155	keystroke_Key.space	Key.space	n/a
149.1265	0.072	298253	keystroke_i	i	n/a
149.2385	0.144	298477	keystroke_n	n	n/a
149.3185	0.096	298637	keystroke_s	s	n/a
149.4305	0.1275	298861	keystroke_t	t	n/a
149.534	0.08	299068	keystroke_a	a	n/a
149.654	0.0565	299308	keystroke_l	l	n/a
149.7665	0.104	299533	keystroke_l	l	n/a
149.8945	0.1035	299789	keystroke_a	a	n/a
150.03	0.088	300060	keystroke_t	t	n/a
150.1025	0.1195	300205	keystroke_i	i	n/a
150.1665	0.0965	300333	keystroke_o	o	n/a
150.198	0.1205	300396	keystroke_n	n	n/a
150.526	0.0725	301052	keystroke_Key.enter	Key.enter	n/a
150.604	4.396	301208	prompt	n/a	pulled debug dennis routing\n
151.0945	0.0635	302189	keystroke_p	p	n/a
151.2225	0.056	302445	keystroke_u	u	n/a
151.375	0.0475	302750	keystroke_l	l	n/a
151.494	0.112	302988	keystroke_l	l	n/a
151.5745	0.08	303149	keystroke_e	e	n/a
151.743	0.071	303486	keystroke_d	d	n/a
151.7985	0.08	303597	keystroke_Key.space	Key.space	n/a
151.982	0.072	303964	keystroke_d	d	n/a
152.1105	0.088	304221	keystroke_e	e	n/a
152.6225	0.072	305245	keystroke_b	b	n/a
152.7505	0.144	305501	keystroke_u	u	n/a
152.8785	0.144	305757	keystroke_g	g	n/a
152.9905	0.104	305981	keystroke_Key.space	Key.space	n/a
153.3825	0.072	306765	keystroke_d	d	n/a
153.566	0.0485	307132	keystroke_e	e	n/a
153.638	0.072	307276	keystroke_n	n	n/a
153.774	0.096	307548	keystroke_n	n	n/a
153.942	0.096	307884	keystroke_i	i	n/a
154.0545	0.12	308109	keystroke_s	s	n/a
154.126	0.088	308252	keystroke_Key.space	Key.space	n/a
154.278	0.0885	308556	keystroke_r	r	n/a
154.3585	0.072	308717	keystroke_o	o	n/a
154.398	0.0965	308796	keystroke_u	u	n/a
154.5185	0.0875	309037	keystroke_t	t	n/a
154.5665	0.072	309133	keystroke_i	i	n/a
154.654	0.0965	309308	keystroke_n	n	n/a
154.7665	0.064	309533	keystroke_g	g	n/a
154.9185	0.08	309837	keystroke_Key.enter	Key.enter	n/a
155.004	5.02	310008	prompt	n/a	equivalent accepts tones sustainable\n
155.558	0.104	311116	keystroke_e	e	n/a
155.806	0.0885	311612	keystroke_q	q	n/a
155.902	0.152	311804	keystroke_u	u	n/a
155.966	0.12	311932	keystroke_i	i	n/a
156.206	0.072	312412	keystroke_a	a	n/a
156.51	0.072	313020	keystroke_Key.backspace	Key.backspace	n/a
156.558	0.096	313116	keystroke_v	v	n/a
156.622	0.08	313244	keystroke_a	a	n/a
156.79	0.1125	313580	keystroke_l	l	n/a
156.8865	0.0955	313773	keystroke_e	e	n/a
156.9985	0.144	313997	keystroke_n	n	n/a
157.078	0.104	314156	keystroke_t	t	n/a
157.1505	0.0795	314301	keystroke_Key.space	Key.space	n/a
157.3105	0.08	314621	keystroke_a	a	n/a
157.4545	0.072	314909	keystroke_c	c	n/a
157.6065	0.056	315213	keystroke_c	c	n/a
157.6865	0.104	315373	keystroke_e	e	n/a
157.8385	0.136	315677	keystroke_p	p	n/a
157.9105	0.1435	315821	keystroke_t	t	n/a
157.9825	0.12	315965	keystroke_s	s	n/a
158.0455	0.081	316091	keystroke_Key.space	Key.space	n/a
158.1735	0.104	316347	keystroke_t	t	n/a
158.2785	0.104	316557	keystroke_o	o	n/a
158.3345	0.144	316669	keystroke_n	n	n/a
158.4145	0.168	316829	keystroke_e	e	n/a
158.4945	0.144	316989	keystroke_s	s	n/a
158.5985	0.088	317197	keystroke_Key.space	Key.space	n/a
158.7735	0.08	317547	keystroke_s	s	n/a
158.8625	0.088	317725	keystroke_u	u	n/a
158.942	0.1045	317884	keystroke_s	s	n/a
159.0385	0.112	318077	keystroke_t	t	n/a
159.1185	0.096	318237	keystroke_a	a	n/a
159.1905	0.08	318381	keystroke_i	i	n/a
159.3185	0.112	318637	keystroke_n	n	n/a
159.4385	0.112	318877	keystroke_a	a	n/a
159.5585	0.072	319117	keystroke_b	b	n/a
159.6705	0.144	319341	keystroke_l	l	n/a
159.7585	0.064	319517	keystroke_e	e	n/a
159.9345	0.0875	319869	keystroke_Key.enter	Key.enter	n/a
160.029	5.1065	320058	prompt	n/a	january complete graphics desktop\n
160.5425	0.096	321085	keystroke_j	j	n/a
160.6705	0.064	321341	keystroke_a	a	n/a
160.7585	0.08	321517	keystroke_n	n	n/a
160.9905	0.096	321981	keystroke_u	u	n/a
161.0865	0.112	322173	keystroke_a	a	n/a
161.1825	0.112	322365	keystroke_r	r	n/a
161.3025	0.104	322605	keystroke_y	y	n/a
161.366	0.0965	322732	keystroke_Key.space	Key.space	n/a
161.6305	0.0955	323261	keystroke_c	c	n/a
161.686	0.0965	323372	keystroke_o	o	n/a
161.7905	0.0795	323581	keystroke_m	m	n/a
161.8465	0.056	323693	keystroke_p	p	n/a
161.974	0.128	323948	keystroke_l	l	n/a
162.022	0.096	324044	keystroke_e	e	n/a
162.158	0.1445	324316	keystroke_t	t	n/a
162.2145	0.1435	324429	keystroke_e	e	n/a
162.318	0.08	324636	keystroke_Key.space	Key.space	n/a
162.542	0.0885	325084	keystroke_c	c	n/a
162.8135	0.056	325627	keystroke_Key.backspace	Key.backspace	n/a
162.8625	0.072	325725	keystroke_g	g	n/a
163.0065	0.136	326013	keystroke_r	r	n/a
163.0945	0.096	326189	keystroke_a	a	n/a
163.1025	0.096	326205	keystroke_p	p	n/a
163.1825	0.176	326365	keystroke_h	h	n/a
163.2865	0.096	326573	keystroke_i	i	n/a
163.4145	0.1195	326829	keystroke_c	c	n/a
163.486	0.112	326972	keystroke_s	s	n/a
163.582	0.08	327164	keystroke_Key.space	Key.space	n/a
164.142	0.0805	328284	keystroke_d	d	n/a
164.2945	0.104	328589	keystroke_e	e	n/a
164.3665	0.088	328733	keystroke_s	s	n/a
164.4625	0.08	328925	keystroke_k	k	n/a
164.5985	0.096	329197	keystroke_t	t	n/a
164.7025	0.136	329405	keystroke_o	o	n/a
164.7985	0.128	329597	keystroke_p	p	n/a
165.0775	0.056	330155	keystroke_Key.enter	Key.enter	n/a
165.1385	6.7095	330277	prompt	n/a	descending hollow troubleshooting mesh\n
165.662	0.08	331324	keystroke_d	d	n/a
165.8225	0.112	331645	keystroke_e	e	n/a
165.91	0.088	331820	keystroke_s	s	n/a
166.03	0.072	332060	keystroke_c	c	n/a
166.198	0.0795	332396	keystroke_e	e	n/a
166.3345	0.127	332669	keystroke_n	n	n/a
166.446	0.0885	332892	keystroke_d	d	n/a
166.5415	0.073	333083	keystroke_i	i	n/a
166.6305	0.1435	333261	keystroke_n	n	n/a
166.686	0.0795	333372	keystroke_g	g	n/a
166.7495	0.0885	333499	keystroke_Key.space	Key.space	n/a
167.094	0.056	334188	keystroke_h	h	n/a
167.238	0.048	334476	keystroke_a	a	n/a
167.582	0.048	335164	keystroke_Key.backspace	Key.backspace	n/a
167.766	0.064	335532	keystroke_o	o	n/a
167.9335	0.0405	335867	keystroke_l	l	n/a
168.0375	0.0485	336075	keystroke_l	l	n/a
168.2065	0.111	336413	keystroke_o	o	n/a
168.2695	0.08	336539	keystroke_w	w	n/a
168.3185	0.087	336637	keystroke_Key.space	Key.space	n/a
168.566	0.0725	337132	keystroke_t	t	n/a
168.7175	0.0885	337435	keystroke_r	r	n/a
168.7575	0.1125	337515	keystroke_o	o	n/a
168.8305	0.128	337661	keystroke_u	u	n/a
168.9345	0.079	337869	keystroke_b	b	n/a
169.054	0.1355	338108	keystroke_l	l	n/a
169.15	0.096	338300	keystroke_e	e	n/a
169.3015	0.08	338603	keystroke_h	h	n/a
169.67	0.064	339340	keystroke_Key.backspace	Key.backspace	n/a
169.7825	0.0715	339565	keystroke_s	s	n/a
169.87	0.0725	339740	keystroke_h	h	n/a
170.006	0.072	340012	keystroke_o	o	n/a
170.582	0.04	341164	keystroke_o	o	n/a
170.758	0.096	341516	keystroke_t	t	n/a
170.869	0.073	341738	keystroke_i	i	n/a
170.9825	0.1355	341965	keystroke_n	n	n/a
171.038	0.112	342076	keystroke_g	g	n/a
171.118	0.088	342236	keystroke_Key.space	Key.space	n/a
171.334	0.088	342668	keystroke_m	m	n/a
171.398	0.128	342796	keystroke_e	e	n/a
171.486	0.112	342972	keystroke_s	s	n/a
171.582	0.072	343164	keystroke_h	h	n/a
171.774	0.072	343548	keystroke_Key.enter	Key.enter	n/a
171.851	5.453	343702	prompt	n/a	dispatched investors dominican sounds\n
172.47	0.088	344940	keystroke_d	d	n/a
172.574	0.088	345148	keystroke_i	i	n/a
172.654	0.0875	345308	keystroke_s	s	n/a
172.7735	0.128	345547	keystroke_p	p	n/a
172.8935	0.0965	345787	keystroke_a	a	n/a
173.022	0.064	346044	keystroke_t	t	n/a
173.2135	0.0885	346427	keystroke_c	c	n/a
173.3495	0.1445	346699	keystroke_h	h	n/a
173.3815	0.056	346763	keystroke_e	e	n/a
173.534	0.096	347068	keystroke_d	d	n/a
173.582	0.08	347164	keystroke_Key.space	Key.space	n/a
173.686	0.064	347372	keystroke_i	i	n/a
173.79	0.136	347580	keystroke_n	n	n/a
173.838	0.0805	347676	keystroke_v	v	n/a
173.9825	0.1195	347965	keystroke_e	e	n/a
174.062	0.136	348124	keystroke_s	s	n/a
174.166	0.08	348332	keystroke_t	t	n/a
174.318	0.152	348636	keystroke_o	o	n/a
174.4065	0.1675	348813	keystroke_r	r	n/a
174.4855	0.1285	348971	keystroke_s	s	n/a
174.566	0.096	349132	keystroke_Key.space	Key.space	n/a
174.838	0.08	349676	keystroke_d	d	n/a
174.966	0.096	349932	keystroke_o	o	n/a
175.094	0.104	350188	keystroke_m	m	n/a
175.1985	0.048	350397	keystroke_i	i	n/a
175.2945	0.0955	350589	keystroke_n	n	n/a
175.358	0.08	350716	keystroke_i	i	n/a
175.454	0.1275	350908	keystroke_c	c	n/a
175.5415	0.073	351083	keystroke_a	a	n/a
175.7255	0.144	351451	keystroke_n	n	n/a
175.8935	0.104	351787	keystroke_Key.space	Key.space	n/a
176.246	0.0475	352492	keystroke_d	d	n/a
176.5335	0.056	353067	keystroke_Key.backspace	Key.backspace	n/a
176.6305	0.1115	353261	keystroke_s	s	n/a
176.7185	0.096	353437	keystroke_o	o	n/a
176.7825	0.072	353565	keystroke_u	u	n/a
176.9425	0.104	353885	keystroke_n	n	n/a
177.014	0.096	354028	keystroke_d	d	n/a
177.0775	0.08	354155	keystroke_s	s	n/a
177.2215	0.0805	354443	keystroke_Key.enter	Key.enter	n/a
177.3085	3.5305	354617	prompt	n/a	rules evolution lecture mode\n
177.918	0.08	355836	keystroke_r	r	n/a
178.022	0.08	356044	keystroke_u	u	n/a
178.158	0.184	356316	keystroke_l	l	n/a
178.23	0.12	356460	keystroke_e	e	n/a
178.2855	0.1045	356571	keystroke_s	s	n/a
178.3335	0.0805	356667	keystroke_Key.space	Key.space	n/a
178.462	0.072	356924	keystroke_e	e	n/a
178.614	0.087	357228	keystroke_v	v	n/a
178.694	0.056	357388	keystroke_o	o	n/a
178.846	0.064	357692	keystroke_l	l	n/a
178.9585	0.095	357917	keystroke_u	u	n/a
179.0945	0.103	358189	keystroke_t	t	n/a
179.1655	0.1205	358331	keystroke_i	i	n/a
179.19	0.168	358380	keystroke_o	o	n/a
179.278	0.12	358556	keystroke_n	n	n/a
179.35	0.0715	358700	keystroke_Key.space	Key.space	n/a
179.51	0.127	359020	keystroke_l	l	n/a
179.533	0.057	359066	keystroke_e	e	n/a
179.6855	0.0725	359371	keystroke_c	c	n/a
179.869	0.08	359738	keystroke_t	t	n/a
180.014	0.151	360028	keystroke_u	u	n/a
180.086	0.136	360172	keystroke_r	r	n/a
180.142	0.112	360284	keystroke_e	e	n/a
180.205	0.073	360410	keystroke_Key.space	Key.space	n/a
180.342	0.104	360684	keystroke_m	m	n/a
180.3905	0.1515	360781	keystroke_o	o	n/a
180.469	0.0885	360938	keystroke_d	d	n/a
180.614	0.0795	361228	keystroke_e	e	n/a
180.7655	0.072	361531	keystroke_Key.enter	Key.enter	n/a
180.8425	7.2525	361685	prompt	n/a	census tested crazy we're\n
181.486	0.0795	362972	keystroke_c	c	n/a
181.654	0.0635	363308	keystroke_e	e	n/a
181.7735	0.113	363547	keystroke_n	n	n/a
181.918	0.096	363836	keystroke_s	s	n/a
182.094	0.1355	364188	keystroke_u	u	n/a
182.1735	0.104	364347	keystroke_s	s	n/a
182.2535	0.072	364507	keystroke_Key.space	Key.space	n/a
182.526	0.127	365052	keystroke_t	t	n/a
182.614	0.136	365228	keystroke_e	e	n/a
182.71	0.088	365420	keystroke_s	s	n/a
182.79	0.152	365580	keystroke_t	t	n/a
182.878	0.048	365756	keystroke_s	s	n/a
183.286	0.0475	366572	keystroke_Key.backspace	Key.backspace	n/a
183.342	0.048	366684	keystroke_e	e	n/a
183.502	0.104	367004	keystroke_d	d	n/a
183.582	0.0875	367164	keystroke_Key.space	Key.space	n/a
183.838	0.0475	367676	keystroke_d	d	n/a
184.2535	0.0635	368507	keystroke_Key.backspace	Key.backspace	n/a
185.781	0.1285	371562	keystroke_c	c	n/a
186.014	0.1755	372028	keystroke_r	r	n/a
186.1495	0.0645	372299	keystroke_a	a	n/a
186.413	0.1205	372826	keystroke_y	y	n/a
186.917	0.0485	373834	keystroke_Key.backspace	Key.backspace	n/a
187.021	0.128	374042	keystroke_z	z	n/a
187.133	0.112	374266	keystroke_y	y	n/a
187.213	0.0965	374426	keystroke_Key.space	Key.space	n/a
187.366	0.088	374732	keystroke_w	w	n/a
187.422	0.095	374844	keystroke_e	e	n/a
187.589	0.1205	375178	keystroke_'	'	n/a
187.6775	0.1515	375355	keystroke_r	r	n/a
187.7495	0.088	375499	keystroke_e	e	n/a
188.013	0.08	376026	keystroke_Key.enter	Key.enter	n/a
188.0975	4.134	376195	prompt	n/a	repeat cloth place integer\n
188.702	0.128	377404	keystroke_r	r	n/a
188.79	0.08	377580	keystroke_e	e	n/a
188.886	0.104	377772	keystroke_p	p	n/a
188.982	0.12	377964	keystroke_e	e	n/a
189.086	0.12	378172	keystroke_a	a	n/a
189.15	0.112	378300	keystroke_t	t	n/a
189.246	0.064	378492	keystroke_Key.space	Key.space	n/a
189.414	0.0875	378828	keystroke_c	c	n/a
189.494	0.0395	378988	keystroke_l	l	n/a
189.6375	0.0645	379275	keystroke_o	o	n/a
189.7175	0.1285	379435	keystroke_t	t	n/a
189.7895	0.1045	379579	keystroke_h	h	n/a
189.8295	0.072	379659	keystroke_Key.space	Key.space	n/a
189.9175	0.104	379835	keystroke_p	p	n/a
190.0775	0.136	380155	keystroke_l	l	n/a
190.1255	0.0965	380251	keystroke_a	a	n/a
190.2375	0.104	380475	keystroke_c	c	n/a
190.3095	0.12	380619	keystroke_e	e	n/a
190.5255	0.0645	381051	keystroke_i	i	n/a
190.6215	0.1045	381243	keystroke_n	n	n/a
190.8855	0.064	381771	keystroke_Key.backspace	Key.backspace	n/a
191.0215	0.064	382043	keystroke_Key.backspace	Key.backspace	n/a
191.1415	0.072	382283	keystroke_Key.space	Key.space	n/a
191.2455	0.064	382491	keystroke_i	i	n/a
191.3335	0.096	382667	keystroke_n	n	n/a
191.4055	0.0805	382811	keystroke_t	t	n/a
191.4775	0.096	382955	keystroke_e	e	n/a
191.646	0.0715	383292	keystroke_g	g	n/a
191.7655	0.1445	383531	keystroke_e	e	n/a
191.9575	0.0885	383915	keystroke_r	r	n/a
192.15	0.0795	384300	keystroke_Key.enter	Key.enter	n/a
192.239	5.3765	384478	prompt	n/a	interracial exposure skirts universal\n
192.8375	0.056	385675	keystroke_i	i	n/a
192.9495	0.12	385899	keystroke_n	n	n/a
193.0215	0.064	386043	keystroke_t	t	n/a
193.0935	0.065	386187	keystroke_e	e	n/a
193.2215	0.072	386443	keystroke_r	r	n/a
193.366	0.0795	386732	keystroke_r	r	n/a
193.4535	0.072	386907	keystroke_a	a	n/a
193.5975	0.08	387195	keystroke_c	c	n/a
193.6855	0.0645	387371	keystroke_i	i	n/a
193.8135	0.088	387627	keystroke_a	a	n/a
193.878	0.1355	387756	keystroke_l	l	n/a
193.9575	0.112	387915	keystroke_Key.space	Key.space	n/a
194.0855	0.056	388171	keystroke_e	e	n/a
194.23	0.0955	388460	keystroke_x	x	n/a
194.326	0.072	388652	keystroke_p	p	n/a
194.461	0.105	388922	keystroke_o	o	n/a
194.637	0.065	389274	keystroke_r	r	n/a
194.989	0.0645	389978	keystroke_Key.backspace	Key.backspace	n/a
195.078	0.096	390156	keystroke_s	s	n/a
195.198	0.152	390396	keystroke_u	u	n/a
195.269	0.1125	390538	keystroke_r	r	n/a
195.317	0.0965	390634	keystroke_e	e	n/a
195.382	0.0955	390764	keystroke_Key.space	Key.space	n/a
195.517	0.072	391034	keystroke_s	s	n/a
195.597	0.064	391194	keystroke_k	k	n/a
195.781	0.1205	391562	keystroke_i	i	n/a
195.861	0.0965	391722	keystroke_r	r	n/a
195.9975	0.168	391995	keystroke_t	t	n/a
196.077	0.1445	392154	keystroke_s	s	n/a
196.1495	0.0875	392299	keystroke_Key.space	Key.space	n/a
196.445	0.072	392890	keystroke_u	u	n/a
196.613	0.088	393226	keystroke_n	n	n/a
196.757	0.128	393514	keystroke_i	i	n/a
196.8455	0.0485	393691	keystroke_v	v	n/a
196.9495	0.1435	393899	keystroke_e	e	n/a
197.053	0.128	394106	keystroke_r	r	n/a
197.141	0.144	394282	keystroke_s	s	n/a
197.277	0.0885	394554	keystroke_a	a	n/a
197.357	0.08	394714	keystroke_l	l	n/a
197.5255	0.088	395051	keystroke_Key.enter	Key.enter	n/a
197.62	4.043	395240	prompt	n/a	feeds reducing tissue allah\n
198.1485	0.0655	396297	keystroke_f	f	n/a
198.285	0.072	396570	keystroke_e	e	n/a
198.413	0.0645	396826	keystroke_e	e	n/a
198.565	0.105	397130	keystroke_d	d	n/a
198.797	0.112	397594	keystroke_s	s	n/a
198.91	0.0315	397820	keystroke_Key.space	Key.space	n/a
199.053	0.112	398106	keystroke_r	r	n/a
199.157	0.032	398314	keystroke_e	e	n/a
199.429	0.088	398858	keystroke_d	d	n/a
199.589	0.104	399178	keystroke_u	u	n/a
199.701	0.096	399402	keystroke_c	c	n/a
199.813	0.041	399626	keystroke_i	i	n/a
199.8935	0.144	399787	keystroke_n	n	n/a
199.965	0.0805	399930	keystroke_g	g	n/a
200.0295	0.088	400059	keystroke_Key.space	Key.space	n/a
200.2775	0.08	400555	keystroke_t	t	n/a
200.4775	0.072	400955	keystroke_i	i	n/a
200.597	0.056	401194	keystroke_s	s	n/a
200.725	0.072	401450	keystroke_s	s	n/a
200.829	0.128	401658	keystroke_u	u	n/a
200.893	0.088	401786	keystroke_e	e	n/a
200.973	0.088	401946	keystroke_Key.space	Key.space	n/a
201.053	0.104	402106	keystroke_a	a	n/a
201.165	0.0795	402330	keystroke_l	l	n/a
201.269	0.096	402538	keystroke_a	a	n/a
201.373	0.08	402746	keystroke_h	h	n/a
201.5655	0.096	403131	keystroke_Key.enter	Key.enter	n/a
201.668	5.0675	403336	prompt	n/a	anymore detection hitachi enhance\n
202.2055	0.096	404411	keystroke_a	a	n/a
202.3255	0.056	404651	keystroke_n	n	n/a
202.4925	0.041	404985	keystroke_y	y	n/a
202.6615	0.16	405323	keystroke_m	m	n/a
202.7335	0.1675	405467	keystroke_o	o	n/a
202.7815	0.127	405563	keystroke_r	r	n/a
202.8295	0.096	405659	keystroke_e	e	n/a
202.9015	0.063	405803	keystroke_Key.space	Key.space	n/a
203.3015	0.096	406603	keystroke_d	d	n/a
203.7575	0.1035	407515	keystroke_e	e	n/a
203.901	0.0965	407802	keystroke_t	t	n/a
204.149	0.048	408298	keystroke_e	e	n/a
204.373	0.104	408746	keystroke_c	c	n/a
204.589	0.112	409178	keystroke_t	t	n/a
204.653	0.072	409306	keystroke_i	i	n/a
204.694	0.135	409388	keystroke_o	o	n/a
204.7335	0.1115	409467	keystroke_n	n	n/a
204.8215	0.0555	409643	keystroke_Key.space	Key.space	n/a
204.957	0.1285	409914	keystroke_h	h	n/a
205.0215	0.0875	410043	keystroke_i	i	n/a
205.133	0.096	410266	keystroke_t	t	n/a
205.237	0.08	410474	keystroke_a	a	n/a
205.405	0.0965	410810	keystroke_c	c	n/a
205.4925	0.152	410985	keystroke_h	h	n/a
205.5495	0.1115	411099	keystroke_i	i	n/a
205.669	0.104	411338	keystroke_Key.space	Key.space	n/a
205.8295	0.0875	411659	keystroke_e	e	n/a
205.933	0.0885	411866	keystroke_n	n	n/a
206.1645	0.081	412329	keystroke_h	h	n/a
206.2535	0.096	412507	keystroke_a	a	n/a
206.357	0.128	412714	keystroke_n	n	n/a
206.4215	0.1035	412843	keystroke_c	c	n/a
206.4935	0.0875	412987	keystroke_e	e	n/a
206.645	0.088	413290	keystroke_Key.enter	Key.enter	n/a
206.7395	4.0195	413479	prompt	n/a	hundred becomes could've topic\n
207.357	0.072	414714	keystroke_h	h	n/a
207.5095	0.048	415019	keystroke_u	u	n/a
207.6695	0.1275	415339	keystroke_n	n	n/a
207.741	0.096	415482	keystroke_d	d	n/a
207.901	0.1285	415802	keystroke_r	r	n/a
207.9655	0.08	415931	keystroke_e	e	n/a
208.1495	0.1115	416299	keystroke_d	d	n/a
208.229	0.072	416458	keystroke_Key.space	Key.space	n/a
208.3575	0.0715	416715	keystroke_b	b	n/a
208.509	0.08	417018	keystroke_e	e	n/a
208.637	0.104	417274	keystroke_c	c	n/a
208.693	0.152	417386	keystroke_o	o	n/a
208.7815	0.144	417563	keystroke_m	m	n/a
208.846	0.1035	417692	keystroke_e	e	n/a
208.893	0.112	417786	keystroke_s	s	n/a
208.933	0.096	417866	keystroke_Key.space	Key.space	n/a
209.069	0.1205	418138	keystroke_c	c	n/a
209.109	0.0965	418218	keystroke_o	o	n/a
209.1895	0.1195	418379	keystroke_u	u	n/a
209.325	0.1205	418650	keystroke_l	l	n/a
209.509	0.088	419018	keystroke_d	d	n/a
209.613	0.144	419226	keystroke_'	'	n/a
209.741	0.064	419482	keystroke_v	v	n/a
209.893	0.128	419786	keystroke_e	e	n/a
209.973	0.08	419946	keystroke_Key.space	Key.space	n/a
210.1255	0.128	420251	keystroke_t	t	n/a
210.1975	0.1195	420395	keystroke_o	o	n/a
210.269	0.112	420538	keystroke_p	p	n/a
210.405	0.1355	420810	keystroke_i	i	n/a
210.5015	0.079	421003	keystroke_c	c	n/a
210.669	0.088	421338	keystroke_Key.enter	Key.enter	n/a
210.7635	5.4435	421527	prompt	n/a	there'll bent shapes nuts\n
211.341	0.072	422682	keystroke_t	t	n/a
211.437	0.12	422874	keystroke_h	h	n/a
211.485	0.072	422970	keystroke_e	e	n/a
211.605	0.12	423210	keystroke_r	r	n/a
211.6615	0.1195	423323	keystroke_e	e	n/a
211.869	0.04	423738	keystroke_l	l	n/a
212.237	0.072	424474	keystroke_Key.backspace	Key.backspace	n/a
212.8135	0.0715	425627	keystroke_'	'	n/a
213.101	0.064	426202	keystroke_l	l	n/a
213.221	0.0475	426442	keystroke_l	l	n/a
213.413	0.104	426826	keystroke_Key.space	Key.space	n/a
213.637	0.04	427274	keystroke_b	b	n/a
213.7735	0.1035	427547	keystroke_e	e	n/a
213.869	0.136	427738	keystroke_n	n	n/a
213.9655	0.0795	427931	keystroke_t	t	n/a
214.021	0.08	428042	keystroke_Key.space	Key.space	n/a
214.141	0.104	428282	keystroke_s	s	n/a
214.2215	0.0955	428443	keystroke_h	h	n/a
214.317	0.12	428634	keystroke_a	a	n/a
214.421	0.1755	428842	keystroke_p	p	n/a
214.525	0.112	429050	keystroke_e	e	n/a
214.637	0.128	429274	keystroke_s	s	n/a
214.7805	0.0805	429561	keystroke_Key.space	Key.space	n/a
215.3485	0.0885	430697	keystroke_n	n	n/a
215.549	0.104	431098	keystroke_u	u	n/a
215.605	0.12	431210	keystroke_t	t	n/a
215.757	0.12	431514	keystroke_s	s	n/a
216.117	0.088	432234	keystroke_Key.enter	Key.enter	n/a
216.212	5.2825	432424	prompt	n/a	restaurants operator extract camel\n
216.749	0.128	433498	keystroke_r	r	n/a
216.837	0.0885	433674	keystroke_e	e	n/a
216.861	0.128	433722	keystroke_s	s	n/a
216.997	0.104	433994	keystroke_t	t	n/a
217.0855	0.0955	434171	keystroke_a	a	n/a
217.2605	0.129	434521	keystroke_u	u	n/a
217.381	0.136	434762	keystroke_r	r	n/a
217.4605	0.097	434921	keystroke_a	a	n/a
217.605	0.12	435210	keystroke_n	n	n/a
217.733	0.144	435466	keystroke_t	t	n/a
217.829	0.088	435658	keystroke_a	a	n/a
218.237	0.056	436474	keystroke_Key.backspace	Key.backspace	n/a
218.325	0.12	436650	keystroke_s	s	n/a
218.413	0.088	436826	keystroke_Key.space	Key.space	n/a
218.685	0.1205	437370	keystroke_o	o	n/a
218.813	0.096	437626	keystroke_p	p	n/a
218.861	0.144	437722	keystroke_e	e	n/a
218.925	0.112	437850	keystroke_r	r	n/a
218.9965	0.137	437993	keystroke_a	a	n/a
219.125	0.096	438250	keystroke_t	t	n/a
219.2445	0.144	438489	keystroke_o	o	n/a
219.3415	0.1275	438683	keystroke_r	r	n/a
219.421	0.096	438842	keystroke_Key.space	Key.space	n/a
219.573	0.072	439146	keystroke_e	e	n/a
219.733	0.088	439466	keystroke_x	x	n/a
219.973	0.0795	439946	keystroke_t	t	n/a
220.1405	0.12	440281	keystroke_r	r	n/a
220.253	0.08	440506	keystroke_a	a	n/a
220.421	0.0645	440842	keystroke_c	c	n/a
220.5975	0.0955	441195	keystroke_t	t	n/a
220.661	0.088	441322	keystroke_Key.space	Key.space	n/a
220.869	0.1115	441738	keystroke_c	c	n/a
220.965	0.0645	441930	keystroke_a	a	n/a
221.038	0.112	442076	keystroke_m	m	n/a
221.142	0.0795	442284	keystroke_e	e	n/a
221.2525	0.065	442505	keystroke_l	l	n/a
221.397	0.096	442794	keystroke_Key.enter	Key.enter	n/a
221.4985	4.0355	442997	prompt	n/a	novel ronald confident perhaps\n
222.0695	0.136	444139	keystroke_n	n	n/a
222.165	0.096	444330	keystroke_o	o	n/a
222.2375	0.0795	444475	keystroke_v	v	n/a
222.3565	0.105	444713	keystroke_e	e	n/a
222.42	0.1295	444840	keystroke_l	l	n/a
222.541	0.095	445082	keystroke_Key.space	Key.space	n/a
222.645	0.104	445290	keystroke_r	r	n/a
222.733	0.1285	445466	keystroke_o	o	n/a
222.8135	0.0955	445627	keystroke_n	n	n/a
222.901	0.064	445802	keystroke_a	a	n/a
223.029	0.128	446058	keystroke_l	l	n/a
223.109	0.088	446218	keystroke_d	d	n/a
223.173	0.072	446346	keystroke_Key.space	Key.space	n/a
223.709	0.0955	447418	keystroke_c	c	n/a
223.789	0.1355	447578	keystroke_o	o	n/a
223.8525	0.12	447705	keystroke_n	n	n/a
223.9565	0.08	447913	keystroke_f	f	n/a
224.0765	0.1125	448153	keystroke_i	i	n/a
224.141	0.08	448282	keystroke_d	d	n/a
224.285	0.088	448570	keystroke_e	e	n/a
224.381	0.128	448762	keystroke_n	n	n/a
224.437	0.104	448874	keystroke_t	t	n/a
224.517	0.088	449034	keystroke_Key.space	Key.space	n/a
224.709	0.104	449418	keystroke_p	p	n/a
224.765	0.096	449530	keystroke_e	e	n/a
224.829	0.112	449658	keystroke_r	r	n/a
224.973	0.1125	449946	keystroke_h	h	n/a
225.101	0.096	450202	keystroke_a	a	n/a
225.2125	0.104	450425	keystroke_p	p	n/a
225.3245	0.0645	450649	keystroke_s	s	n/a
225.4445	0.088	450889	keystroke_Key.enter	Key.enter	n/a
225.5465	8.068	451093	prompt	n/a	supervisor reporter kills religions\n
226.0525	0.0965	452105	keystroke_s	s	n/a
226.1645	0.129	452329	keystroke_u	u	n/a
226.2525	0.136	452505	keystroke_p	p	n/a
226.2845	0.144	452569	keystroke_e	e	n/a
226.3725	0.088	452745	keystroke_r	r	n/a
226.573	0.0955	453146	keystroke_v	v	n/a
226.677	0.0955	453354	keystroke_i	i	n/a
226.7655	0.095	453531	keystroke_s	s	n/a
226.893	0.1195	453786	keystroke_o	o	n/a
226.989	0.104	453978	keystroke_r	r	n/a
227.069	0.096	454138	keystroke_Key.space	Key.space	n/a
227.221	0.104	454442	keystroke_r	r	n/a
227.2845	0.104	454569	keystroke_e	e	n/a
227.3805	0.0565	454761	keystroke_p	p	n/a
227.4525	0.1205	454905	keystroke_o	o	n/a
227.5885	0.0955	455177	keystroke_r	r	n/a
227.757	0.088	455514	keystroke_t	t	n/a
227.877	0.168	455754	keystroke_e	e	n/a
227.9885	0.1525	455977	keystroke_r	r	n/a
228.141	0.096	456282	keystroke_Key.space	Key.space	n/a
228.301	0.064	456602	keystroke_k	k	n/a
228.4605	0.0485	456921	keystroke_i	i	n/a
228.6055	0.0635	457211	keystroke_l	l	n/a
228.701	0.096	457402	keystroke_l	l	n/a
229.317	0.1285	458634	keystroke_s	s	n/a
229.405	0.095	458810	keystroke_Key.space	Key.space	n/a
229.5805	0.0965	459161	keystroke_r	r	n/a
229.629	0.072	459258	keystroke_e	e	n/a
229.765	0.048	459530	keystroke_l	l	n/a
229.909	0.0395	459818	keystroke_i	i	n/a
230.013	0.079	460026	keystroke_g	g	n/a
230.053	0.064	460106	keystroke_i	i	n/a
231.5805	0.0405	463161	keystroke_Key.backspace	Key.backspace	n/a
231.7005	0.056	463401	keystroke_Key.backspace	Key.backspace	n/a
232.533	0.064	465066	keystroke_g	g	n/a
233.093	0.088	466186	keystroke_i	i	n/a
233.125	0.152	466250	keystroke_o	o	n/a
233.221	0.08	466442	keystroke_n	n	n/a
233.317	0.088	466634	keystroke_s	s	n/a
233.5405	0.0725	467081	keystroke_Key.enter	Key.enter	n/a
233.6195	4.6195	467239	prompt	n/a	managers unwrap mainly anne\n
234.285	0.048	468570	keystroke_a	a	n/a
234.605	0.04	469210	keystroke_Key.backspace	Key.backspace	n/a
234.7655	0.0715	469531	keystroke_m	m	n/a
234.845	0.072	469690	keystroke_a	a	n/a
234.917	0.096	469834	keystroke_n	n	n/a
235.013	0.096	470026	keystroke_a	a	n/a
235.126	0.071	470252	keystroke_g	g	n/a
235.2455	0.192	470491	keystroke_e	e	n/a
235.3485	0.145	470697	keystroke_r	r	n/a
235.405	0.1285	470810	keystroke_s	s	n/a
235.4525	0.088	470905	keystroke_Key.space	Key.space	n/a
235.725	0.0715	471450	keystroke_u	u	n/a
235.8925	0.1125	471785	keystroke_n	n	n/a
236.1735	0.063	472347	keystroke_w	w	n/a
236.2925	0.1365	472585	keystroke_r	r	n/a
236.373	0.08	472746	keystroke_a	a	n/a
236.509	0.152	473018	keystroke_p	p	n/a
236.7325	0.064	473465	keystroke_Key.space	Key.space	n/a
236.9325	0.096	473865	keystroke_m	m	n/a
237.0445	0.0795	474089	keystroke_a	a	n/a
237.1015	0.0555	474203	keystroke_i	i	n/a
237.197	0.088	474394	keystroke_n	n	n/a
237.397	0.056	474794	keystroke_l	l	n/a
237.533	0.104	475066	keystroke_y	y	n/a
237.605	0.104	475210	keystroke_Key.space	Key.space	n/a
237.741	0.064	475482	keystroke_a	a	n/a
237.853	0.048	475706	keystroke_n	n	n/a
237.964	0.08	475928	keystroke_n	n	n/a
238.061	0.056	476122	keystroke_e	e	n/a
238.1645	0.0715	476329	keystroke_Key.enter	Key.enter	n/a
238.2435	5.0905	476487	prompt	n/a	infectious criminal obvious comic\n
238.813	0.0475	477626	keystroke_i	i	n/a
238.9255	0.1195	477851	keystroke_n	n	n/a
239.005	0.048	478010	keystroke_f	f	n/a
239.053	0.0955	478106	keystroke_e	e	n/a
239.2375	0.0555	478475	keystroke_c	c	n/a
239.4285	0.089	478857	keystroke_t	t	n/a
239.501	0.144	479002	keystroke_i	i	n/a
239.5565	0.1525	479113	keystroke_o	o	n/a
239.7165	0.185	479433	keystroke_u	u	n/a
239.8365	0.128	479673	keystroke_s	s	n/a
239.9165	0.0885	479833	keystroke_Key.space	Key.space	n/a
240.117	0.08	480234	keystroke_c	c	n/a
240.325	0.088	480650	keystroke_r	r	n/a
240.4135	0.0395	480827	keystroke_i	i	n/a
240.525	0.12	481050	keystroke_m	m	n/a
240.6215	0.063	481243	keystroke_i	i	n/a
240.7245	0.096	481449	keystroke_n	n	n/a
240.869	0.0805	481738	keystroke_a	a	n/a
240.9805	0.104	481961	keystroke_l	l	n/a
241.0685	0.072	482137	keystroke_Key.space	Key.space	n/a
241.237	0.1115	482474	keystroke_o	o	n/a
241.8125	0.048	483625	keystroke_b	b	n/a
241.9965	0.0885	483993	keystroke_v	v	n/a
242.205	0.184	484410	keystroke_i	i	n/a
242.309	0.128	484618	keystroke_o	o	n/a
242.381	0.168	484762	keystroke_u	u	n/a
242.493	0.12	484986	keystroke_s	s	n/a
242.557	0.103	485114	keystroke_Key.space	Key.space	n/a
242.724	0.104	485448	keystroke_c	c	n/a
242.796	0.088	485592	keystroke_o	o	n/a
242.9	0.153	485800	keystroke_m	m	n/a
242.98	0.097	485960	keystroke_i	i	n/a
243.085	0.064	486170	keystroke_c	c	n/a
243.2525	0.08	486505	keystroke_Key.enter	Key.enter	n/a
243.34	5.762	486680	prompt	n/a	thumbzilla gained gender mercy\n
243.9725	0.088	487945	keystroke_t	t	n/a
244.0535	0.087	488107	keystroke_h	h	n/a
244.229	0.0475	488458	keystroke_u	u	n/a
244.381	0.1035	488762	keystroke_m	m	n/a
244.5885	0.1115	489177	keystroke_z	z	n/a
244.845	0.056	489690	keystroke_i	i	n/a
245.109	0.048	490218	keystroke_Key.backspace	Key.backspace	n/a
245.22	0.065	490440	keystroke_Key.backspace	Key.backspace	n/a
245.349	0.104	490698	keystroke_b	b	n/a
245.6125	0.113	491225	keystroke_z	z	n/a
245.7165	0.0565	491433	keystroke_i	i	n/a
245.9965	0.064	491993	keystroke_l	l	n/a
246.1325	0.08	492265	keystroke_l	l	n/a
246.269	0.08	492538	keystroke_a	a	n/a
246.3245	0.072	492649	keystroke_Key.space	Key.space	n/a
246.4845	0.1205	492969	keystroke_g	g	n/a
246.5565	0.0805	493113	keystroke_a	a	n/a
246.709	0.096	493418	keystroke_i	i	n/a
246.973	0.104	493946	keystroke_n	n	n/a
247.117	0.04	494234	keystroke_e	e	n/a
247.253	0.104	494506	keystroke_d	d	n/a
247.3405	0.0965	494681	keystroke_Key.space	Key.space	n/a
247.661	0.0805	495322	keystroke_g	g	n/a
247.7735	0.0875	495547	keystroke_e	e	n/a
247.8935	0.119	495787	keystroke_n	n	n/a
247.965	0.072	495930	keystroke_d	d	n/a
248.1085	0.168	496217	keystroke_e	e	n/a
248.197	0.104	496394	keystroke_r	r	n/a
248.2525	0.072	496505	keystroke_Key.space	Key.space	n/a
248.4125	0.1285	496825	keystroke_m	m	n/a
248.461	0.1275	496922	keystroke_e	e	n/a
248.5325	0.0805	497065	keystroke_r	r	n/a
248.725	0.104	497450	keystroke_c	c	n/a
248.837	0.072	497674	keystroke_y	y	n/a
249.029	0.072	498058	keystroke_Key.enter	Key.enter	n/a
249.1045	5.886	498209	prompt	n/a	tabs vegetation rehabilitation response\n
249.709	0.0875	499418	keystroke_l	l	n/a
249.989	0.08	499978	keystroke_Key.backspace	Key.backspace	n/a
250.085	0.112	500170	keystroke_t	t	n/a
250.172	0.137	500344	keystroke_a	a	n/a
250.3165	0.0885	500633	keystroke_b	b	n/a
250.509	0.104	501018	keystroke_s	s	n/a
250.58	0.065	501160	keystroke_Key.space	Key.space	n/a
250.7965	0.0725	501593	keystroke_v	v	n/a
250.956	0.0805	501912	keystroke_e	e	n/a
251.093	0.096	502186	keystroke_g	g	n/a
251.205	0.1115	502410	keystroke_e	e	n/a
251.357	0.104	502714	keystroke_t	t	n/a
251.501	0.088	503002	keystroke_a	a	n/a
251.613	0.103	503226	keystroke_t	t	n/a
251.732	0.1055	503464	keystroke_i	i	n/a
251.805	0.087	503610	keystroke_o	o	n/a
251.821	0.152	503642	keystroke_n	n	n/a
251.924	0.057	503848	keystroke_Key.space	Key.space	n/a
252.0205	0.1285	504041	keystroke_r	r	n/a
252.093	0.08	504186	keystroke_e	e	n/a
252.213	0.103	504426	keystroke_h	h	n/a
252.4205	0.0885	504841	keystroke_b	b	n/a
252.7885	0.0565	505577	keystroke_Key.backspace	Key.backspace	n/a
252.861	0.112	505722	keystroke_a	a	n/a
252.917	0.095	505834	keystroke_b	b	n/a
253.077	0.0715	506154	keystroke_i	i	n/a
253.2285	0.072	506457	keystroke_l	l	n/a
253.3805	0.096	506761	keystroke_i	i	n/a
253.4605	0.096	506921	keystroke_t	t	n/a
253.5405	0.12	507081	keystroke_a	a	n/a
253.6365	0.112	507273	keystroke_t	t	n/a
253.725	0.096	507450	keystroke_i	i	n/a
253.749	0.144	507498	keystroke_o	o	n/a
253.845	0.1115	507690	keystroke_n	n	n/a
253.8765	0.088	507753	keystroke_Key.space	Key.space	n/a
254.045	0.152	508090	keystroke_r	r	n/a
254.1335	0.0715	508267	keystroke_e	e	n/a
254.164	0.137	508328	keystroke_s	s	n/a
254.309	0.096	508618	keystroke_p	p	n/a
254.372	0.168	508744	keystroke_o	o	n/a
254.509	0.112	509018	keystroke_n	n	n/a
254.653	0.128	509306	keystroke_s	s	n/a
254.717	0.12	509434	keystroke_e	e	n/a
254.909	0.08	509818	keystroke_Key.enter	Key.enter	n/a
254.995	3.66	509990	prompt	n/a	advocate healthy they chen\n
255.5165	0.112	511033	keystroke_a	a	n/a
255.6605	0.0965	511321	keystroke_d	d	n/a
255.8365	0.08	511673	keystroke_v	v	n/a
255.981	0.12	511962	keystroke_o	o	n/a
256.077	0.079	512154	keystroke_c	c	n/a
256.133	0.104	512266	keystroke_a	a	n/a
256.293	0.112	512586	keystroke_t	t	n/a
256.325	0.128	512650	keystroke_e	e	n/a
256.396	0.08	512792	keystroke_Key.space	Key.space	n/a
256.669	0.088	513338	keystroke_h	h	n/a
256.7325	0.1365	513465	keystroke_e	e	n/a
256.804	0.1125	513608	keystroke_a	a	n/a
256.9245	0.088	513849	keystroke_l	l	n/a
256.9965	0.1195	513993	keystroke_t	t	n/a
257.1	0.064	514200	keystroke_h	h	n/a
257.26	0.1125	514520	keystroke_y	y	n/a
257.324	0.088	514648	keystroke_Key.space	Key.space	n/a
257.5005	0.0885	515001	keystroke_t	t	n/a
257.5725	0.072	515145	keystroke_h	h	n/a
257.6605	0.0805	515321	keystroke_e	e	n/a
257.8285	0.1115	515657	keystroke_y	y	n/a
257.925	0.103	515850	keystroke_Key.space	Key.space	n/a
258.164	0.072	516328	keystroke_c	c	n/a
258.2285	0.0645	516457	keystroke_h	h	n/a
258.324	0.073	516648	keystroke_e	e	n/a
258.389	0.0795	516778	keystroke_n	n	n/a
258.58	0.072	517160	keystroke_Key.enter	Key.enter	n/a
258.658	6.0775	517316	prompt	n/a	crops aquarium responded chem\n
259.116	0.048	518232	keystroke_a	a	n/a
259.4365	0.08	518873	keystroke_c	c	n/a
259.5565	0.0395	519113	keystroke_Key.backspace	Key.backspace	n/a
259.7	0.056	519400	keystroke_Key.backspace	Key.backspace	n/a
259.796	0.0565	519592	keystroke_c	c	n/a
259.98	0.0725	519960	keystroke_r	r	n/a
260.044	0.1685	520088	keystroke_o	o	n/a
260.141	0.175	520282	keystroke_p	p	n/a
260.285	0.112	520570	keystroke_s	s	n/a
260.34	0.088	520680	keystroke_Key.space	Key.space	n/a
260.789	0.1035	521578	keystroke_a	a	n/a
260.9645	0.0965	521929	keystroke_c	c	n/a
261.4605	0.056	522921	keystroke_Key.backspace	Key.backspace	n/a
261.5885	0.0325	523177	keystroke_q	q	n/a
261.877	0.111	523754	keystroke_u	u	n/a
262.173	0.12	524346	keystroke_a	a	n/a
262.437	0.0715	524874	keystroke_r	r	n/a
262.613	0.072	525226	keystroke_i	i	n/a
262.716	0.081	525432	keystroke_u	u	n/a
262.916	0.153	525832	keystroke_m	m	n/a
263.0205	0.0965	526041	keystroke_Key.space	Key.space	n/a
263.133	0.152	526266	keystroke_r	r	n/a
263.213	0.1515	526426	keystroke_e	e	n/a
263.324	0.0885	526648	keystroke_s	s	n/a
263.4205	0.056	526841	keystroke_p	p	n/a
263.4525	0.144	526905	keystroke_o	o	n/a
263.5885	0.1355	527177	keystroke_n	n	n/a
263.676	0.0965	527352	keystroke_d	d	n/a
263.8525	0.048	527705	keystroke_e	e	n/a
263.997	0.096	527994	keystroke_d	d	n/a
264.0605	0.08	528121	keystroke_Key.space	Key.space	n/a
264.2125	0.08	528425	keystroke_c	c	n/a
264.2765	0.072	528553	keystroke_h	h	n/a
264.3805	0.0565	528761	keystroke_e	e	n/a
264.4765	0.08	528953	keystroke_m	m	n/a
264.6685	0.064	529337	keystroke_Key.enter	Key.enter	n/a
264.74	4.1385	529480	prompt	n/a	width surround anger impression\n
265.245	0.08	530490	keystroke_w	w	n/a
265.437	0.1035	530874	keystroke_i	i	n/a
265.5335	0.0955	531067	keystroke_d	d	n/a
265.7805	0.088	531561	keystroke_t	t	n/a
265.8685	0.136	531737	keystroke_h	h	n/a
265.9325	0.096	531865	keystroke_Key.space	Key.space	n/a
266.0925	0.0725	532185	keystroke_s	s	n/a
266.1885	0.104	532377	keystroke_u	u	n/a
266.3085	0.048	532617	keystroke_r	r	n/a
266.4285	0.0885	532857	keystroke_r	r	n/a
266.5005	0.112	533001	keystroke_o	o	n/a
266.5565	0.064	533113	keystroke_u	u	n/a
266.7165	0.1205	533433	keystroke_n	n	n/a
266.7565	0.096	533513	keystroke_d	d	n/a
266.7965	0.112	533593	keystroke_Key.space	Key.space	n/a
266.9245	0.128	533849	keystroke_a	a	n/a
267.0285	0.128	534057	keystroke_n	n	n/a
267.117	0.071	534234	keystroke_g	g	n/a
267.253	0.16	534506	keystroke_e	e	n/a
267.333	0.104	534666	keystroke_r	r	n/a
267.389	0.088	534778	keystroke_Key.space	Key.space	n/a
267.589	0.0555	535178	keystroke_i	i	n/a
267.7245	0.0955	535449	keystroke_m	m	n/a
267.7885	0.1045	535577	keystroke_p	p	n/a
267.9485	0.104	535897	keystroke_r	r	n/a
268.013	0.0795	536026	keystroke_e	e	n/a
268.205	0.0635	536410	keystroke_s	s	n/a
268.3325	0.064	536665	keystroke_s	s	n/a
268.4925	0.0885	536985	keystroke_i	i	n/a
268.501	0.1115	537002	keystroke_o	o	n/a
268.573	0.0955	537146	keystroke_n	n	n/a
268.8125	0.0635	537625	keystroke_Key.enter	Key.enter	n/a
268.8825	3.3795	537765	prompt	n/a	reference joel berlin takes\n
269.3965	0.088	538793	keystroke_r	r	n/a
269.453	0.08	538906	keystroke_e	e	n/a
269.6045	0.056	539209	keystroke_f	f	n/a
269.677	0.0795	539354	keystroke_e	e	n/a
269.773	0.103	539546	keystroke_r	r	n/a
269.8525	0.0875	539705	keystroke_e	e	n/a
269.933	0.16	539866	keystroke_n	n	n/a
270.044	0.081	540088	keystroke_c	c	n/a
270.093	0.08	540186	keystroke_e	e	n/a
270.14	0.072	540280	keystroke_Key.space	Key.space	n/a
270.26	0.145	540520	keystroke_j	j	n/a
270.356	0.089	540712	keystroke_o	o	n/a
270.429	0.1195	540858	keystroke_e	e	n/a
270.5805	0.136	541161	keystroke_l	l	n/a
270.6845	0.104	541369	keystroke_Key.space	Key.space	n/a
270.901	0.0715	541802	keystroke_b	b	n/a
271.0605	0.144	542121	keystroke_e	e	n/a
271.149	0.0955	542298	keystroke_r	r	n/a
271.3005	0.04	542601	keystroke_l	l	n/a
271.381	0.096	542762	keystroke_i	i	n/a
271.5005	0.152	543001	keystroke_n	n	n/a
271.5965	0.064	543193	keystroke_Key.space	Key.space	n/a
271.7165	0.12	543433	keystroke_t	t	n/a
271.789	0.063	543578	keystroke_a	a	n/a
271.869	0.151	543738	keystroke_k	k	n/a
271.949	0.119	543898	keystroke_e	e	n/a
272.028	0.089	544056	keystroke_s	s	n/a
272.172	0.0885	544344	keystroke_Key.enter	Key.enter	n/a
272.266	5.2605	544532	prompt	n/a	continental oracle botswana ctrl\n
272.8445	0.112	545689	keystroke_c	c	n/a
272.9645	0.088	545929	keystroke_o	o	n/a
273.0365	0.096	546073	keystroke_n	n	n/a
273.133	0.0955	546266	keystroke_t	t	n/a
273.2125	0.0555	546425	keystroke_i	i	n/a
273.292	0.064	546584	keystroke_n	n	n/a
273.381	0.1035	546762	keystroke_e	e	n/a
273.4925	0.112	546985	keystroke_n	n	n/a
273.573	0.1195	547146	keystroke_t	t	n/a
273.6685	0.056	547337	keystroke_a	a	n/a
273.7565	0.112	547513	keystroke_l	l	n/a
273.8285	0.2	547657	keystroke_Key.space	Key.space	n/a
274.2445	0.088	548489	keystroke_o	o	n/a
274.2925	0.08	548585	keystroke_r	r	n/a
274.3565	0.064	548713	keystroke_a	a	n/a
274.6045	0.0965	549209	keystroke_c	c	n/a
274.7165	0.152	549433	keystroke_l	l	n/a
274.7725	0.104	549545	keystroke_e	e	n/a
274.8205	0.088	549641	keystroke_Key.space	Key.space	n/a
275.0765	0.08	550153	keystroke_b	b	n/a
275.1965	0.12	550393	keystroke_o	o	n/a
275.428	0.096	550856	keystroke_t	t	n/a
275.652	0.104	551304	keystroke_w	w	n/a
275.764	0.049	551528	keystroke_a	a	n/a
276.116	0.1285	552232	keystroke_n	n	n/a
276.2525	0.0725	552505	keystroke_a	a	n/a
276.428	0.1045	552856	keystroke_Key.space	Key.space	n/a
276.6365	0.0715	553273	keystroke_c	c	n/a
276.956	0.072	553912	keystroke_t	t	n/a
277.124	0.072	554248	keystroke_r	r	n/a
277.212	0.104	554424	keystroke_l	l	n/a
277.4205	0.104	554841	keystroke_Key.enter	Key.enter	n/a
277.531	5.1955	555062	prompt	n/a	ipod pair documentation dental\n
278.077	0.0635	556154	keystroke_i	i	n/a
278.228	0.096	556456	keystroke_p	p	n/a
278.397	0.1515	556794	keystroke_o	o	n/a
278.516	0.104	557032	keystroke_d	d	n/a
278.572	0.096	557144	keystroke_Key.space	Key.space	n/a
278.8525	0.0795	557705	keystroke_p	p	n/a
279.004	0.096	558008	keystroke_a	a	n/a
279.109	0.119	558218	keystroke_i	i	n/a
279.1965	0.096	558393	keystroke_r	r	n/a
279.26	0.0795	558520	keystroke_Key.space	Key.space	n/a
279.4355	0.057	558871	keystroke_c	c	n/a
279.716	0.064	559432	keystroke_Key.backspace	Key.backspace	n/a
279.796	0.096	559592	keystroke_d	d	n/a
279.9075	0.1445	559815	keystroke_o	o	n/a
280.0285	0.064	560057	keystroke_u	u	n/a
280.06	0.0805	560120	keystroke_c	c	n/a
280.6285	0.064	561257	keystroke_Key.backspace	Key.backspace	n/a
280.7555	0.073	561511	keystroke_Key.backspace	Key.backspace	n/a
280.8605	0.088	561721	keystroke_c	c	n/a
280.9565	0.0645	561913	keystroke_u	u	n/a
281.1405	0.088	562281	keystroke_m	m	n/a
281.2365	0.088	562473	keystroke_e	e	n/a
281.3245	0.079	562649	keystroke_n	n	n/a
281.4045	0.104	562809	keystroke_t	t	n/a
281.4925	0.112	562985	keystroke_a	a	n/a
281.5965	0.1115	563193	keystroke_t	t	n/a
281.6765	0.1115	563353	keystroke_i	i	n/a
281.7005	0.1355	563401	keystroke_o	o	n/a
281.764	0.1285	563528	keystroke_n	n	n/a
281.837	0.0875	563674	keystroke_Key.space	Key.space	n/a
281.9725	0.056	563945	keystroke_d	d	n/a
282.1005	0.08	564201	keystroke_e	e	n/a
282.2125	0.112	564425	keystroke_n	n	n/a
282.2845	0.104	564569	keystroke_t	t	n/a
282.3565	0.08	564713	keystroke_a	a	n/a
282.4765	0.072	564953	keystroke_l	l	n/a
282.6525	0.0715	565305	keystroke_Key.enter	Key.enter	n/a
282.7315	7.091	565463	prompt	n/a	somewhat actress spice invision\n
283.2285	0.08	566457	keystroke_s	s	n/a
283.3085	0.1275	566617	keystroke_o	o	n/a
283.4045	0.104	566809	keystroke_m	m	n/a
283.46	0.064	566920	keystroke_e	e	n/a
283.604	0.0645	567208	keystroke_w	w	n/a
283.732	0.0885	567464	keystroke_a	a	n/a
283.836	0.1285	567672	keystroke_h	h	n/a
283.9165	0.1035	567833	keystroke_t	t	n/a
284.004	0.064	568008	keystroke_Key.space	Key.space	n/a
284.252	0.0805	568504	keystroke_a	a	n/a
284.3645	0.072	568729	keystroke_c	c	n/a
284.5645	0.063	569129	keystroke_t	t	n/a
284.7955	0.0485	569591	keystroke_Key.backspace	Key.backspace	n/a
284.9005	0.04	569801	keystroke_Key.backspace	Key.backspace	n/a
285.0045	0.04	570009	keystroke_Key.backspace	Key.backspace	n/a
285.1005	0.04	570201	keystroke_Key.backspace	Key.backspace	n/a
285.2045	0.032	570409	keystroke_Key.backspace	Key.backspace	n/a
285.3085	0.064	570617	keystroke_Key.backspace	Key.backspace	n/a
285.6685	0.0715	571337	keystroke_Key.backspace	Key.backspace	n/a
285.844	0.1365	571688	keystroke_h	h	n/a
285.9475	0.097	571895	keystroke_a	a	n/a
285.9965	0.136	571993	keystroke_t	t	n/a
286.0915	0.08	572183	keystroke_Key.space	Key.space	n/a
286.3085	0.08	572617	keystroke_a	a	n/a
286.4925	0.104	572985	keystroke_c	c	n/a
286.748	0.0725	573496	keystroke_t	t	n/a
286.9405	0.063	573881	keystroke_r	r	n/a
287.1075	0.057	574215	keystroke_e	e	n/a
287.252	0.072	574504	keystroke_s	s	n/a
287.3805	0.1115	574761	keystroke_s	s	n/a
287.476	0.048	574952	keystroke_Key.space	Key.space	n/a
287.6435	0.072	575287	keystroke_s	s	n/a
287.7555	0.081	575511	keystroke_p	p	n/a
287.8995	0.161	575799	keystroke_i	i	n/a
287.996	0.104	575992	keystroke_c	c	n/a
288.061	0.119	576122	keystroke_e	e	n/a
288.1325	0.0795	576265	keystroke_Key.space	Key.space	n/a
288.3325	0.0555	576665	keystroke_i	i	n/a
288.428	0.136	576856	keystroke_n	n	n/a
288.9485	0.08	577897	keystroke_v	v	n/a
289.0925	0.112	578185	keystroke_i	i	n/a
289.2205	0.088	578441	keystroke_s	s	n/a
289.3485	0.104	578697	keystroke_i	i	n/a
289.4125	0.104	578825	keystroke_o	o	n/a
289.4605	0.08	578921	keystroke_n	n	n/a
289.732	0.088	579464	keystroke_Key.enter	Key.enter	n/a
289.8295	6.344	579659	prompt	n/a	contract cholesterol proprietary punch\n
290.652	0.072	581304	keystroke_c	c	n/a
290.748	0.128	581496	keystroke_o	o	n/a
290.804	0.1445	581608	keystroke_n	n	n/a
290.892	0.0725	581784	keystroke_t	t	n/a
291.0285	0.104	582057	keystroke_r	r	n/a
291.0925	0.0955	582185	keystroke_a	a	n/a
291.284	0.056	582568	keystroke_c	c	n/a
291.444	0.096	582888	keystroke_t	t	n/a
291.516	0.0965	583032	keystroke_Key.space	Key.space	n/a
291.7005	0.087	583401	keystroke_c	c	n/a
291.7725	0.1115	583545	keystroke_h	h	n/a
291.8355	0.097	583671	keystroke_o	o	n/a
292.0365	0.1435	584073	keystroke_l	l	n/a
292.1325	0.127	584265	keystroke_e	e	n/a
292.2275	0.1445	584455	keystroke_s	s	n/a
292.3325	0.0635	584665	keystroke_t	t	n/a
292.46	0.128	584920	keystroke_e	e	n/a
292.5805	0.0955	585161	keystroke_r	r	n/a
292.772	0.0795	585544	keystroke_o	o	n/a
292.9635	0.121	585927	keystroke_l	l	n/a
293.0845	0.071	586169	keystroke_Key.space	Key.space	n/a
293.2525	0.111	586505	keystroke_p	p	n/a
293.3325	0.063	586665	keystroke_e	e	n/a
293.5085	0.04	587017	keystroke_r	r	n/a
293.7875	0.0805	587575	keystroke_Key.backspace	Key.backspace	n/a
293.9235	0.072	587847	keystroke_Key.backspace	Key.backspace	n/a
294.0605	0.071	588121	keystroke_r	r	n/a
294.1325	0.136	588265	keystroke_o	o	n/a
294.2765	0.096	588553	keystroke_p	p	n/a
294.5565	0.127	589113	keystroke_r	r	n/a
294.7075	0.1525	589415	keystroke_i	i	n/a
294.7885	0.119	589577	keystroke_e	e	n/a
294.9245	0.1115	589849	keystroke_t	t	n/a
295.0125	0.1115	590025	keystroke_a	a	n/a
295.164	0.12	590328	keystroke_r	r	n/a
295.276	0.1285	590552	keystroke_y	y	n/a
295.356	0.08	590712	keystroke_Key.space	Key.space	n/a
295.468	0.088	590936	keystroke_p	p	n/a
295.58	0.072	591160	keystroke_u	u	n/a
295.74	0.072	591480	keystroke_n	n	n/a
295.844	0.088	591688	keystroke_c	c	n/a
295.9	0.072	591800	keystroke_h	h	n/a
296.108	0.064	592216	keystroke_Key.enter	Key.enter	n/a
296.1775	6.716	592355	prompt	n/a	lighting administrators vbulletin animation\n
296.7645	0.095	593529	keystroke_l	l	n/a
296.9725	0.071	593945	keystroke_i	i	n/a
297.0755	0.072	594151	keystroke_g	g	n/a
297.1555	0.1285	594311	keystroke_h	h	n/a
297.2755	0.08	594551	keystroke_t	t	n/a
297.5395	0.065	595079	keystroke_i	i	n/a
297.668	0.144	595336	keystroke_n	n	n/a
297.732	0.0955	595464	keystroke_g	g	n/a
297.788	0.0955	595576	keystroke_Key.space	Key.space	n/a
297.9075	0.0885	595815	keystroke_a	a	n/a
297.9875	0.097	595975	keystroke_d	d	n/a
298.0995	0.12	596199	keystroke_m	m	n/a
298.1885	0.063	596377	keystroke_i	i	n/a
298.2925	0.127	596585	keystroke_n	n	n/a
298.364	0.1115	596728	keystroke_i	i	n/a
298.4285	0.072	596857	keystroke_s	s	n/a
298.4835	0.0805	596967	keystroke_t	t	n/a
298.66	0.096	597320	keystroke_r	r	n/a
298.7	0.128	597400	keystroke_a	a	n/a
298.86	0.088	597720	keystroke_t	t	n/a
298.996	0.1445	597992	keystroke_o	o	n/a
299.0685	0.184	598137	keystroke_r	r	n/a
299.1485	0.12	598297	keystroke_s	s	n/a
299.2365	0.096	598473	keystroke_Key.space	Key.space	n/a
299.7315	0.104	599463	keystroke_v	v	n/a
300.0835	0.065	600167	keystroke_u	u	n/a
300.3715	0.0405	600743	keystroke_Key.backspace	Key.backspace	n/a
300.428	0.0795	600856	keystroke_b	b	n/a
300.564	0.0725	601128	keystroke_u	u	n/a
300.7315	0.04	601463	keystroke_l	l	n/a
300.836	0.088	601672	keystroke_l	l	n/a
300.972	0.096	601944	keystroke_e	e	n/a
301.156	0.088	602312	keystroke_t	t	n/a
301.244	0.064	602488	keystroke_i	i	n/a
301.34	0.1115	602680	keystroke_n	n	n/a
301.4915	0.1285	602983	keystroke_Key.space	Key.space	n/a
301.828	0.096	603656	keystroke_a	a	n/a
301.932	0.1035	603864	keystroke_n	n	n/a
302.0045	0.055	604009	keystroke_i	i	n/a
302.1315	0.104	604263	keystroke_m	m	n/a
302.2365	0.095	604473	keystroke_a	a	n/a
302.3955	0.089	604791	keystroke_t	t	n/a
302.4925	0.104	604985	keystroke_i	i	n/a
302.54	0.1125	605080	keystroke_o	o	n/a
302.5795	0.12	605159	keystroke_n	n	n/a
302.804	0.0875	605608	keystroke_Key.enter	Key.enter	n/a
302.9015	6.184	605803	prompt	n/a	firewall mainstream offering investments\n
303.4605	0.088	606921	keystroke_f	f	n/a
303.62	0.112	607240	keystroke_i	i	n/a
303.6925	0.1515	607385	keystroke_r	r	n/a
303.796	0.1205	607592	keystroke_e	e	n/a
303.948	0.072	607896	keystroke_w	w	n/a
304.125	0.0875	608250	keystroke_a	a	n/a
304.292	0.056	608584	keystroke_l	l	n/a
304.4285	0.0875	608857	keystroke_l	l	n/a
304.564	0.088	609128	keystroke_Key.space	Key.space	n/a
304.756	0.088	609512	keystroke_m	m	n/a
304.868	0.096	609736	keystroke_a	a	n/a
304.956	0.072	609912	keystroke_i	i	n/a
305.068	0.128	610136	keystroke_n	n	n/a
305.164	0.08	610328	keystroke_t	t	n/a
305.3565	0.0875	610713	keystroke_s	s	n/a
305.7075	0.072	611415	keystroke_Key.backspace	Key.backspace	n/a
305.8515	0.0565	611703	keystroke_Key.backspace	Key.backspace	n/a
305.9475	0.0965	611895	keystroke_s	s	n/a
306.0195	0.088	612039	keystroke_t	t	n/a
306.1715	0.16	612343	keystroke_r	r	n/a
306.244	0.1435	612488	keystroke_e	e	n/a
306.316	0.104	612632	keystroke_a	a	n/a
306.452	0.1355	612904	keystroke_m	m	n/a
306.5315	0.096	613063	keystroke_Key.space	Key.space	n/a
306.716	0.096	613432	keystroke_o	o	n/a
306.7875	0.064	613575	keystroke_f	f	n/a
306.932	0.056	613864	keystroke_f	f	n/a
307.0435	0.1205	614087	keystroke_e	e	n/a
307.1155	0.1205	614231	keystroke_r	r	n/a
307.22	0.0805	614440	keystroke_i	i	n/a
307.2915	0.129	614583	keystroke_n	n	n/a
307.3555	0.089	614711	keystroke_g	g	n/a
307.4035	0.088	614807	keystroke_Key.space	Key.space	n/a
307.5235	0.0485	615047	keystroke_i	i	n/a
307.596	0.112	615192	keystroke_n	n	n/a
307.668	0.056	615336	keystroke_v	v	n/a
307.788	0.1275	615576	keystroke_e	e	n/a
307.8915	0.097	615783	keystroke_s	s	n/a
307.948	0.0885	615896	keystroke_t	t	n/a
308.1325	0.0955	616265	keystroke_m	m	n/a
308.2035	0.08	616407	keystroke_e	e	n/a
308.3955	0.0965	616791	keystroke_n	n	n/a
308.6205	0.127	617241	keystroke_t	t	n/a
308.7955	0.088	617591	keystroke_s	s	n/a
309.004	0.08	618008	keystroke_Key.enter	Key.enter	n/a
309.0895	4.948	618179	prompt	n/a	enzyme break concentration meal\n
309.6595	0.089	619319	keystroke_e	e	n/a
309.7635	0.113	619527	keystroke_n	n	n/a
309.9555	0.105	619911	keystroke_z	z	n/a
310.108	0.0635	620216	keystroke_y	y	n/a
310.332	0.1355	620664	keystroke_m	m	n/a
310.4035	0.113	620807	keystroke_e	e	n/a
310.4755	0.088	620951	keystroke_Key.space	Key.space	n/a
310.684	0.0715	621368	keystroke_b	b	n/a
310.8675	0.152	621735	keystroke_r	r	n/a
310.9405	0.1435	621881	keystroke_e	e	n/a
311.108	0.0965	622216	keystroke_k	k	n/a
311.388	0.048	622776	keystroke_Key.backspace	Key.backspace	n/a
311.4755	0.1045	622951	keystroke_a	a	n/a
311.5955	0.0885	623191	keystroke_k	k	n/a
311.6355	0.096	623271	keystroke_Key.space	Key.space	n/a
311.788	0.0965	623576	keystroke_c	c	n/a
311.8515	0.112	623703	keystroke_o	o	n/a
311.908	0.1115	623816	keystroke_n	n	n/a
312.0925	0.103	624185	keystroke_c	c	n/a
312.2115	0.104	624423	keystroke_e	e	n/a
312.3235	0.1285	624647	keystroke_n	n	n/a
312.412	0.0555	624824	keystroke_t	t	n/a
312.5555	0.112	625111	keystroke_r	r	n/a
312.628	0.0875	625256	keystroke_a	a	n/a
312.772	0.1035	625544	keystroke_t	t	n/a
312.8525	0.071	625705	keystroke_i	i	n/a
312.884	0.144	625768	keystroke_o	o	n/a
312.9555	0.145	625911	keystroke_n	n	n/a
313.076	0.0715	626152	keystroke_Key.space	Key.space	n/a
313.244	0.12	626488	keystroke_m	m	n/a
313.3075	0.0885	626615	keystroke_e	e	n/a
313.6915	0.064	627383	keystroke_a	a	n/a
313.8125	0.056	627625	keystroke_l	l	n/a
313.9635	0.072	627927	keystroke_Key.enter	Key.enter	n/a
314.042	4.692	628084	prompt	n/a	jungle rick qualifying soldiers\n
314.516	0.072	629032	keystroke_j	j	n/a
314.6765	0.0555	629353	keystroke_u	u	n/a
314.82	0.1045	629640	keystroke_n	n	n/a
314.876	0.1355	629752	keystroke_g	g	n/a
314.988	0.072	629976	keystroke_e	e	n/a
315.0835	0.1205	630167	keystroke_l	l	n/a
315.404	0.04	630808	keystroke_Key.backspace	Key.backspace	n/a
315.5235	0.056	631047	keystroke_Key.backspace	Key.backspace	n/a
315.7395	0.1205	631479	keystroke_l	l	n/a
315.7955	0.0885	631591	keystroke_e	e	n/a
315.836	0.0715	631672	keystroke_Key.space	Key.space	n/a
315.964	0.0715	631928	keystroke_r	r	n/a
316.0115	0.072	632023	keystroke_i	i	n/a
316.148	0.1195	632296	keystroke_c	c	n/a
316.188	0.136	632376	keystroke_k	k	n/a
316.2915	0.064	632583	keystroke_Key.space	Key.space	n/a
316.396	0.0555	632792	keystroke_q	q	n/a
316.5075	0.0965	633015	keystroke_u	u	n/a
316.596	0.0875	633192	keystroke_a	a	n/a
316.6995	0.072	633399	keystroke_l	l	n/a
316.812	0.088	633624	keystroke_i	i	n/a
316.908	0.104	633816	keystroke_f	f	n/a
316.988	0.104	633976	keystroke_y	y	n/a
317.06	0.064	634120	keystroke_i	i	n/a
317.196	0.152	634392	keystroke_n	n	n/a
317.26	0.096	634520	keystroke_g	g	n/a
317.308	0.088	634616	keystroke_Key.space	Key.space	n/a
317.452	0.096	634904	keystroke_s	s	n/a
317.531	0.073	635062	keystroke_o	o	n/a
317.684	0.048	635368	keystroke_l	l	n/a
317.9235	0.088	635847	keystroke_d	d	n/a
318.1395	0.0805	636279	keystroke_i	i	n/a
318.364	0.1765	636728	keystroke_e	e	n/a
318.4275	0.1285	636855	keystroke_r	r	n/a
318.5	0.104	637000	keystroke_s	s	n/a
318.652	0.08	637304	keystroke_Key.enter	Key.enter	n/a
318.7375	5.444	637475	prompt	n/a	temperatures that'd kenneth grey\n
319.299	0.113	638598	keystroke_t	t	n/a
319.364	0.096	638728	keystroke_e	e	n/a
319.452	0.112	638904	keystroke_m	m	n/a
319.5235	0.1205	639047	keystroke_p	p	n/a
319.62	0.12	639240	keystroke_e	e	n/a
319.685	0.135	639370	keystroke_r	r	n/a
319.78	0.136	639560	keystroke_a	a	n/a
319.908	0.112	639816	keystroke_t	t	n/a
320.108	0.1435	640216	keystroke_u	u	n/a
320.3635	0.2	640727	keystroke_r	r	n/a
320.4515	0.16	640903	keystroke_e	e	n/a
320.5075	0.1605	641015	keystroke_s	s	n/a
320.5955	0.064	641191	keystroke_Key.space	Key.space	n/a
320.772	0.088	641544	keystroke_t	t	n/a
320.86	0.12	641720	keystroke_h	h	n/a
321.004	0.1115	642008	keystroke_t	t	n/a
321.22	0.1115	642440	keystroke_'	'	n/a
321.564	0.048	643128	keystroke_Key.backspace	Key.backspace	n/a
321.683	0.049	643366	keystroke_Key.backspace	Key.backspace	n/a
321.78	0.096	643560	keystroke_a	a	n/a
321.851	0.081	643702	keystroke_t	t	n/a
321.94	0.112	643880	keystroke_'	'	n/a
322.188	0.1445	644376	keystroke_d	d	n/a
322.284	0.1195	644568	keystroke_Key.space	Key.space	n/a
322.6115	0.1045	645223	keystroke_k	k	n/a
322.708	0.0555	645416	keystroke_e	e	n/a
322.956	0.088	645912	keystroke_n	n	n/a
323.092	0.112	646184	keystroke_n	n	n/a
323.212	0.0875	646424	keystroke_e	e	n/a
323.3315	0.096	646663	keystroke_t	t	n/a
323.4285	0.1115	646857	keystroke_h	h	n/a
323.492	0.088	646984	keystroke_Key.space	Key.space	n/a
323.644	0.064	647288	keystroke_g	g	n/a
323.7875	0.1205	647575	keystroke_r	r	n/a
323.835	0.0805	647670	keystroke_e	e	n/a
323.884	0.096	647768	keystroke_y	y	n/a
324.1	0.079	648200	keystroke_Key.enter	Key.enter	n/a
324.1955	4.5535	648391	prompt	n/a	boxes improvement folding clothing\n
324.796	0.088	649592	keystroke_b	b	n/a
324.916	0.1365	649832	keystroke_o	o	n/a
325.076	0.1275	650152	keystroke_x	x	n/a
325.34	0.176	650680	keystroke_e	e	n/a
325.4125	0.152	650825	keystroke_s	s	n/a
325.532	0.072	651064	keystroke_Key.space	Key.space	n/a
325.724	0.064	651448	keystroke_i	i	n/a
325.86	0.12	651720	keystroke_m	m	n/a
325.94	0.152	651880	keystroke_p	p	n/a
326.148	0.08	652296	keystroke_r	r	n/a
326.244	0.1355	652488	keystroke_o	o	n/a
326.356	0.0635	652712	keystroke_v	v	n/a
326.4835	0.08	652967	keystroke_e	e	n/a
326.6115	0.064	653223	keystroke_m	m	n/a
326.6675	0.104	653335	keystroke_e	e	n/a
326.78	0.1195	653560	keystroke_n	n	n/a
326.8195	0.096	653639	keystroke_t	t	n/a
326.8995	0.08	653799	keystroke_Key.space	Key.space	n/a
327.044	0.088	654088	keystroke_f	f	n/a
327.1155	0.072	654231	keystroke_o	o	n/a
327.276	0.0795	654552	keystroke_l	l	n/a
327.372	0.136	654744	keystroke_d	d	n/a
327.452	0.072	654904	keystroke_i	i	n/a
327.532	0.136	655064	keystroke_n	n	n/a
327.588	0.096	655176	keystroke_g	g	n/a
327.652	0.087	655304	keystroke_Key.space	Key.space	n/a
327.8355	0.096	655671	keystroke_c	c	n/a
327.9235	0.0645	655847	keystroke_l	l	n/a
328.0595	0.096	656119	keystroke_o	o	n/a
328.1565	0.095	656313	keystroke_t	t	n/a
328.2445	0.063	656489	keystroke_h	h	n/a
328.268	0.072	656536	keystroke_i	i	n/a
328.3955	0.12	656791	keystroke_n	n	n/a
328.5	0.0875	657000	keystroke_g	g	n/a
328.6595	0.088	657319	keystroke_Key.enter	Key.enter	n/a
328.7525	4.637	657505	prompt	n/a	refrigerator command accent emotions\n
329.3555	0.144	658711	keystroke_r	r	n/a
329.4355	0.136	658871	keystroke_e	e	n/a
329.7475	0.096	659495	keystroke_f	f	n/a
330.0275	0.096	660055	keystroke_r	r	n/a
330.18	0.1115	660360	keystroke_i	i	n/a
330.268	0.0875	660536	keystroke_g	g	n/a
330.388	0.1595	660776	keystroke_e	e	n/a
330.4995	0.104	660999	keystroke_r	r	n/a
330.5875	0.112	661175	keystroke_a	a	n/a
330.692	0.0875	661384	keystroke_t	t	n/a
330.8035	0.136	661607	keystroke_o	o	n/a
330.8915	0.096	661783	keystroke_r	r	n/a
330.9555	0.08	661911	keystroke_Key.space	Key.space	n/a
331.1315	0.072	662263	keystroke_c	c	n/a
331.1875	0.072	662375	keystroke_o	o	n/a
331.3315	0.056	662663	keystroke_m	m	n/a
331.4435	0.056	662887	keystroke_m	m	n/a
331.5235	0.12	663047	keystroke_a	a	n/a
331.6035	0.1355	663207	keystroke_n	n	n/a
331.6515	0.1045	663303	keystroke_d	d	n/a
331.723	0.0965	663446	keystroke_Key.space	Key.space	n/a
331.8595	0.08	663719	keystroke_a	a	n/a
331.9795	0.048	663959	keystroke_c	c	n/a
332.1155	0.072	664231	keystroke_c	c	n/a
332.2515	0.112	664503	keystroke_e	e	n/a
332.3555	0.136	664711	keystroke_n	n	n/a
332.4355	0.088	664871	keystroke_t	t	n/a
332.508	0.0635	665016	keystroke_Key.space	Key.space	n/a
332.5955	0.104	665191	keystroke_e	e	n/a
332.7075	0.104	665415	keystroke_m	m	n/a
332.7795	0.088	665559	keystroke_o	o	n/a
332.8595	0.096	665719	keystroke_t	t	n/a
332.9555	0.12	665911	keystroke_i	i	n/a
333.0195	0.096	666039	keystroke_o	o	n/a
333.0675	0.088	666135	keystroke_n	n	n/a
333.1475	0.0725	666295	keystroke_s	s	n/a
333.3075	0.08	666615	keystroke_Key.enter	Key.enter	n/a
333.3925	3.796	666785	prompt	n/a	business vary spine bumper\n
333.996	0.096	667992	keystroke_b	b	n/a
334.124	0.096	668248	keystroke_u	u	n/a
334.204	0.096	668408	keystroke_s	s	n/a
334.284	0.072	668568	keystroke_i	i	n/a
334.42	0.112	668840	keystroke_n	n	n/a
334.516	0.063	669032	keystroke_e	e	n/a
334.667	0.064	669334	keystroke_s	s	n/a
334.804	0.1115	669608	keystroke_s	s	n/a
334.875	0.088	669750	keystroke_Key.space	Key.space	n/a
335.044	0.095	670088	keystroke_v	v	n/a
335.131	0.12	670262	keystroke_a	a	n/a
