onset	duration	sample	value	key	prompt_text
1.361	16.4165	2722	prompt	n/a	the quick brown fox jumps over a lazy dog\n
3.6435	0.042	7287	keystroke_t	t	n/a
3.7005	0.06	7401	keystroke_h	h	n/a
3.8055	0.09	7611	keystroke_e	e	n/a
3.925	0.09	7850	keystroke_Key.space	Key.space	n/a
4.884	0.105	9768	keystroke_q	q	n/a
5.094	0.075	10188	keystroke_u	u	n/a
5.304	0.075	10608	keystroke_i	i	n/a
5.4835	0.075	10967	keystroke_c	c	n/a
5.5885	0.075	11177	keystroke_k	k	n/a
5.757	0.1045	11514	keystroke_Key.space	Key.space	n/a
7.801	0.06	15602	keystroke_b	b	n/a
7.966	0.135	15932	keystroke_r	r	n/a
8.085	0.0905	16170	keystroke_o	o	n/a
8.2505	0.09	16501	keystroke_w	w	n/a
8.3555	0.074	16711	keystroke_n	n	n/a
8.534	0.075	17068	keystroke_Key.space	Key.space	n/a
8.7295	0.0605	17459	keystroke_f	f	n/a
9.435	0.074	18870	keystroke_o	o	n/a
9.704	0.105	19408	keystroke_x	x	n/a
9.929	0.075	19858	keystroke_Key.space	Key.space	n/a
10.2595	0.075	20519	keystroke_j	j	n/a
10.454	0.075	20908	keystroke_u	u	n/a
10.6635	0.076	21327	keystroke_m	m	n/a
10.979	0.06	21958	keystroke_s	s	n/a
11.7745	0.045	23549	keystroke_Key.backspace	Key.backspace	n/a
12.359	0.075	24718	keystroke_p	p	n/a
12.509	0.105	25018	keystroke_s	s	n/a
12.644	0.075	25288	keystroke_Key.space	Key.space	n/a
12.84	0.09	25680	keystroke_o	o	n/a
12.945	0.075	25890	keystroke_v	v	n/a
13.095	0.1495	26190	keystroke_e	e	n/a
13.1845	0.09	26369	keystroke_r	r	n/a
13.3045	0.091	26609	keystroke_Key.space	Key.space	n/a
13.965	0.105	27930	keystroke_a	a	n/a
14.13	0.075	28260	keystroke_Key.space	Key.space	n/a
14.355	0.0895	28710	keystroke_l	l	n/a
14.5195	0.12	29039	keystroke_a	a	n/a
15.7355	0.09	31471	keystroke_z	z	n/a
16.0195	0.06	32039	keystroke_y	y	n/a
16.2445	0.075	32489	keystroke_Key.space	Key.space	n/a
16.4255	0.089	32851	keystroke_d	d	n/a
16.5305	0.0895	33061	keystroke_o	o	n/a
16.754	0.06	33508	keystroke_g	g	n/a
17.7285	0.0455	35457	keystroke_Key.enter	Key.enter	n/a
17.7855	14.99	35571	prompt	n/a	worm characters cowboy month\n
19.0185	0.105	38037	keystroke_w	w	n/a
19.1535	0.12	38307	keystroke_o	o	n/a
19.439	0.075	38878	keystroke_r	r	n/a
19.5435	0.075	39087	keystroke_m	m	n/a
20.0535	0.06	40107	keystroke_Key.space	Key.space	n/a
20.414	0.0595	40828	keystroke_c	c	n/a
20.5035	0.075	41007	keystroke_h	h	n/a
20.7735	0.09	41547	keystroke_r	r	n/a
21.0135	0.105	42027	keystroke_a	a	n/a
21.3135	0.09	42627	keystroke_c	c	n/a
22.453	0.09	44906	keystroke_t	t	n/a
22.633	0.15	45266	keystroke_e	e	n/a
22.693	0.1195	45386	keystroke_r	r	n/a
23.6985	0.075	47397	keystroke_Key.backspace	Key.backspace	n/a
23.8785	0.06	47757	keystroke_Key.backspace	Key.backspace	n/a
24.028	0.0755	48056	keystroke_Key.backspace	Key.backspace	n/a
24.1935	0.06	48387	keystroke_Key.backspace	Key.backspace	n/a
24.3435	0.06	48687	keystroke_Key.backspace	Key.backspace	n/a
24.508	0.0755	49016	keystroke_Key.backspace	Key.backspace	n/a
24.823	0.12	49646	keystroke_a	a	n/a
25.063	0.091	50126	keystroke_r	r	n/a
25.2735	0.179	50547	keystroke_a	a	n/a
25.4375	0.1065	50875	keystroke_c	c	n/a
25.6935	0.074	51387	keystroke_t	t	n/a
27.598	0.12	55196	keystroke_e	e	n/a
27.658	0.09	55316	keystroke_r	r	n/a
28.243	0.075	56486	keystroke_s	s	n/a
28.468	0.075	56936	keystroke_Key.space	Key.space	n/a
29.413	0.045	58826	keystroke_w	w	n/a
29.788	0.09	59576	keystroke_Key.backspace	Key.backspace	n/a
29.923	0.09	59846	keystroke_c	c	n/a
30.088	0.105	60176	keystroke_o	o	n/a
30.3285	0.1045	60657	keystroke_w	w	n/a
30.538	0.09	61076	keystroke_b	b	n/a
30.748	0.09	61496	keystroke_o	o	n/a
31.018	0.075	62036	keystroke_y	y	n/a
31.318	0.075	62636	keystroke_Key.space	Key.space	n/a
31.783	0.075	63566	keystroke_m	m	n/a
31.933	0.12	63866	keystroke_o	o	n/a
32.068	0.075	64136	keystroke_n	n	n/a
32.308	0.075	64616	keystroke_t	t	n/a
32.398	0.075	64796	keystroke_h	h	n/a
32.698	0.0745	65396	keystroke_Key.enter	Key.enter	n/a
32.782	14.0475	65564	prompt	n/a	result allergy citizenship cakes\n
33.673	0.12	67346	keystroke_r	r	n/a
33.733	0.09	67466	keystroke_e	e	n/a
33.928	0.12	67856	keystroke_s	s	n/a
34.123	0.09	68246	keystroke_u	u	n/a
34.3485	0.074	68697	keystroke_l	l	n/a
34.4375	0.09	68875	keystroke_t	t	n/a
34.6025	0.105	69205	keystroke_s	s	n/a
34.933	0.0745	69866	keystroke_Key.space	Key.space	n/a
35.473	0.105	70946	keystroke_a	a	n/a
35.653	0.075	71306	keystroke_l	l	n/a
35.788	0.0745	71576	keystroke_l	l	n/a
35.9075	0.1355	71815	keystroke_e	e	n/a
35.9675	0.1055	71935	keystroke_r	r	n/a
36.2225	0.06	72445	keystroke_g	g	n/a
36.4025	0.075	72805	keystroke_y	y	n/a
36.6875	0.045	73375	keystroke_Key.space	Key.space	n/a
37.1225	0.09	74245	keystroke_c	c	n/a
37.9925	0.06	75985	keystroke_i	i	n/a
38.4275	0.09	76855	keystroke_t	t	n/a
39.0275	0.075	78055	keystroke_i	i	n/a
39.2375	0.12	78475	keystroke_x	x	n/a
39.6575	0.09	79315	keystroke_e	e	n/a
39.822	0.06	79644	keystroke_n	n	n/a
40.047	0.0905	80094	keystroke_s	s	n/a
40.1525	0.1195	80305	keystroke_h	h	n/a
40.257	0.165	80514	keystroke_i	i	n/a
40.827	0.09	81654	keystroke_Key.backspace	Key.backspace	n/a
41.007	0.06	82014	keystroke_Key.backspace	Key.backspace	n/a
41.172	0.045	82344	keystroke_Key.backspace	Key.backspace	n/a
41.322	0.06	82644	keystroke_Key.backspace	Key.backspace	n/a
41.487	0.06	82974	keystroke_Key.backspace	Key.backspace	n/a
41.652	0.075	83304	keystroke_Key.backspace	Key.backspace	n/a
42.612	0.075	85224	keystroke_z	z	n/a
43.032	0.075	86064	keystroke_e	e	n/a
43.212	0.06	86424	keystroke_n	n	n/a
43.437	0.09	86874	keystroke_s	s	n/a
43.557	0.075	87114	keystroke_h	h	n/a
43.707	0.135	87414	keystroke_i	i	n/a
43.917	0.0295	87834	keystroke_p	p	n/a
44.682	0.0745	89364	keystroke_Key.space	Key.space	n/a
44.9225	0.119	89845	keystroke_c	c	n/a
45.1015	0.18	90203	keystroke_a	a	n/a
45.7465	0.06	91493	keystroke_k	k	n/a
45.8365	0.105	91673	keystroke_e	e	n/a
46.0315	0.105	92063	keystroke_s	s	n/a
46.7665	0.0605	93533	keystroke_Key.enter	Key.enter	n/a
46.8355	12.579	93671	prompt	n/a	insights expenses aboriginal province\n
47.5465	0.075	95093	keystroke_i	i	n/a
47.6965	0.09	95393	keystroke_n	n	n/a
47.862	0.09	95724	keystroke_s	s	n/a
47.967	0.075	95934	keystroke_i	i	n/a
48.1315	0.075	96263	keystroke_g	g	n/a
48.2965	0.06	96593	keystroke_h	h	n/a
48.402	0.09	96804	keystroke_t	t	n/a
48.582	0.09	97164	keystroke_s	s	n/a
48.702	0.06	97404	keystroke_Key.space	Key.space	n/a
48.972	0.075	97944	keystroke_e	e	n/a
49.212	0.12	98424	keystroke_x	x	n/a
49.422	0.075	98844	keystroke_p	p	n/a
49.6025	0.09	99205	keystroke_e	e	n/a
49.752	0.0745	99504	keystroke_n	n	n/a
50.0665	0.075	100133	keystroke_s	s	n/a
50.2465	0.075	100493	keystroke_i	i	n/a
51.1465	0.075	102293	keystroke_Key.backspace	Key.backspace	n/a
51.3265	0.075	102653	keystroke_e	e	n/a
51.5665	0.09	103133	keystroke_s	s	n/a
51.9865	0.045	103973	keystroke_Key.space	Key.space	n/a
52.7525	0.104	105505	keystroke_a	a	n/a
52.9025	0.074	105805	keystroke_b	b	n/a
53.0965	0.09	106193	keystroke_o	o	n/a
53.2775	0.089	106555	keystroke_r	r	n/a
53.9215	0.075	107843	keystroke_i	i	n/a
54.8515	0.075	109703	keystroke_g	g	n/a
55.0315	0.105	110063	keystroke_i	i	n/a
55.226	0.09	110452	keystroke_n	n	n/a
55.407	0.104	110814	keystroke_a	a	n/a
55.526	0.075	111052	keystroke_l	l	n/a
56.2765	0.06	112553	keystroke_Key.space	Key.space	n/a
56.8325	0.089	113665	keystroke_p	p	n/a
57.0115	0.061	114023	keystroke_r	r	n/a
57.1915	0.075	114383	keystroke_o	o	n/a
57.6415	0.075	115283	keystroke_v	v	n/a
57.8375	0.075	115675	keystroke_i	i	n/a
58.0165	0.09	116033	keystroke_n	n	n/a
58.1675	0.149	116335	keystroke_c	c	n/a
58.2715	0.151	116543	keystroke_e	e	n/a
59.3365	0.0745	118673	keystroke_Key.enter	Key.enter	n/a
59.419	9.926	118838	prompt	n/a	post camps suspended protecting\n
60.026	0.091	120052	keystroke_p	p	n/a
60.237	0.089	120474	keystroke_o	o	n/a
60.386	0.106	120772	keystroke_s	s	n/a
60.522	0.089	121044	keystroke_t	t	n/a
60.641	0.075	121282	keystroke_Key.space	Key.space	n/a
60.971	0.09	121942	keystroke_c	c	n/a
61.211	0.09	122422	keystroke_a	a	n/a
61.631	0.061	123262	keystroke_m	m	n/a
61.796	0.09	123592	keystroke_p	p	n/a
62.067	0.075	124134	keystroke_s	s	n/a
62.201	0.06	124402	keystroke_Key.space	Key.space	n/a
62.606	0.105	125212	keystroke_s	s	n/a
62.801	0.0465	125602	keystroke_u	u	n/a
63.7465	0.091	127493	keystroke_s	s	n/a
63.9265	0.091	127853	keystroke_p	p	n/a
64.1375	0.09	128275	keystroke_e	e	n/a
64.3325	0.06	128665	keystroke_n	n	n/a
64.6025	0.059	129205	keystroke_e	e	n/a
65.0965	0.075	130193	keystroke_Key.backspace	Key.backspace	n/a
65.2025	0.074	130405	keystroke_d	d	n/a
65.3515	0.091	130703	keystroke_e	e	n/a
65.5315	0.09	131063	keystroke_d	d	n/a
65.6815	0.075	131363	keystroke_Key.space	Key.space	n/a
66.3265	0.09	132653	keystroke_p	p	n/a
66.5075	0.089	133015	keystroke_r	r	n/a
66.6415	0.091	133283	keystroke_o	o	n/a
67.1375	0.06	134275	keystroke_t	t	n/a
67.6625	0.075	135325	keystroke_e	e	n/a
67.8275	0.105	135655	keystroke_c	c	n/a
68.0675	0.074	136135	keystroke_t	t	n/a
68.1265	0.181	136253	keystroke_i	i	n/a
68.2625	0.105	136525	keystroke_n	n	n/a
68.3825	0.06	136765	keystroke_g	g	n/a
69.283	0.06	138566	keystroke_Key.enter	Key.enter	n/a
69.35	9.551	138700	prompt	n/a	employed airplane hearing lightweight\n
70.063	0.075	140126	keystroke_e	e	n/a
70.198	0.0735	140396	keystroke_m	m	n/a
70.3765	0.075	140753	keystroke_p	p	n/a
70.6025	0.045	141205	keystroke_l	l	n/a
70.7825	0.105	141565	keystroke_o	o	n/a
71.0365	0.06	142073	keystroke_y	y	n/a
71.4265	0.061	142853	keystroke_e	e	n/a
71.6225	0.089	143245	keystroke_d	d	n/a
71.7715	0.091	143543	keystroke_Key.space	Key.space	n/a
72.1025	0.105	144205	keystroke_a	a	n/a
72.2375	0.09	144475	keystroke_i	i	n/a
72.5825	0.06	145165	keystroke_r	r	n/a
72.7465	0.091	145493	keystroke_p	p	n/a
72.9265	0.121	145853	keystroke_l	l	n/a
73.0915	0.136	146183	keystroke_a	a	n/a
73.2415	0.091	146483	keystroke_n	n	n/a
73.3625	0.105	146725	keystroke_e	e	n/a
73.5265	0.075	147053	keystroke_Key.space	Key.space	n/a
73.9615	0.075	147923	keystroke_h	h	n/a
74.1125	0.104	148225	keystroke_e	e	n/a
74.2475	0.18	148495	keystroke_a	a	n/a
74.4725	0.075	148945	keystroke_r	r	n/a
75.0725	0.105	150145	keystroke_i	i	n/a
75.1625	0.09	150325	keystroke_n	n	n/a
75.3125	0.06	150625	keystroke_g	g	n/a
75.4625	0.059	150925	keystroke_Key.space	Key.space	n/a
75.7775	0.06	151555	keystroke_l	l	n/a
76.0025	0.075	152005	keystroke_i	i	n/a
76.2125	0.06	152425	keystroke_g	g	n/a
76.2865	0.076	152573	keystroke_h	h	n/a
76.4375	0.089	152875	keystroke_t	t	n/a
76.7675	0.09	153535	keystroke_w	w	n/a
77.3825	0.075	154765	keystroke_e	e	n/a
77.5925	0.075	155185	keystroke_i	i	n/a
77.7275	0.075	155455	keystroke_g	g	n/a
77.8325	0.075	155665	keystroke_h	h	n/a
77.9375	0.09	155875	keystroke_t	t	n/a
78.8375	0.06	157675	keystroke_Key.enter	Key.enter	n/a
78.908	9.831	157816	prompt	n/a	edge collectables finite hotmail\n
79.6175	0.06	159235	keystroke_e	e	n/a
79.7975	0.105	159595	keystroke_d	d	n/a
79.9775	0.12	159955	keystroke_g	g	n/a
80.0675	0.12	160135	keystroke_e	e	n/a
80.2765	0.075	160553	keystroke_Key.space	Key.space	n/a
80.5775	0.09	161155	keystroke_c	c	n/a
80.7575	0.0745	161515	keystroke_o	o	n/a
80.967	0.075	161934	keystroke_l	l	n/a
81.102	0.09	162204	keystroke_l	l	n/a
81.222	0.09	162444	keystroke_e	e	n/a
81.3575	0.135	162715	keystroke_c	c	n/a
81.6275	0.075	163255	keystroke_t	t	n/a
81.8225	0.12	163645	keystroke_a	a	n/a
82.3475	0.06	164695	keystroke_b	b	n/a
82.5275	0.09	165055	keystroke_l	l	n/a
82.6775	0.06	165355	keystroke_e	e	n/a
83.6075	0.06	167215	keystroke_s	s	n/a
83.7875	0.075	167575	keystroke_Key.space	Key.space	n/a
84.5525	0.06	169105	keystroke_f	f	n/a
85.167	0.075	170334	keystroke_i	i	n/a
85.287	0.105	170574	keystroke_n	n	n/a
85.422	0.12	170844	keystroke_i	i	n/a
85.632	0.12	171264	keystroke_t	t	n/a
85.753	0.134	171506	keystroke_e	e	n/a
86.022	0.075	172044	keystroke_Key.space	Key.space	n/a
86.4275	0.075	172855	keystroke_h	h	n/a
86.6075	0.075	173215	keystroke_o	o	n/a
86.9825	0.075	173965	keystroke_t	t	n/a
87.3125	0.06	174625	keystroke_m	m	n/a
87.537	0.105	175074	keystroke_a	a	n/a
87.702	0.09	175404	keystroke_i	i	n/a
87.897	0.105	175794	keystroke_l	l	n/a
88.662	0.075	177324	keystroke_Key.enter	Key.enter	n/a
88.7465	12.188	177493	prompt	n/a	hydraulic signed investors correct\n
89.5175	0.075	179035	keystroke_h	h	n/a
89.7725	0.06	179545	keystroke_y	y	n/a
90.3125	0.09	180625	keystroke_d	d	n/a
90.597	0.0905	181194	keystroke_r	r	n/a
90.8525	0.105	181705	keystroke_a	a	n/a
91.0775	0.075	182155	keystroke_u	u	n/a
91.4375	0.09	182875	keystroke_l	l	n/a
91.6325	0.09	183265	keystroke_i	i	n/a
91.7375	0.09	183475	keystroke_c	c	n/a
92.5325	0.06	185065	keystroke_Key.space	Key.space	n/a
92.8925	0.09	185785	keystroke_s	s	n/a
92.9675	0.09	185935	keystroke_i	i	n/a
93.2525	0.09	186505	keystroke_g	g	n/a
93.3725	0.075	186745	keystroke_n	n	n/a
93.5525	0.075	187105	keystroke_e	e	n/a
93.8225	0.03	187645	keystroke_d	d	n/a
95.3375	0.06	190675	keystroke_Key.space	Key.space	n/a
95.8325	0.09	191665	keystroke_i	i	n/a
95.9975	0.09	191995	keystroke_n	n	n/a
96.1175	0.09	192235	keystroke_v	v	n/a
96.3125	0.09	192625	keystroke_e	e	n/a
96.522	0.075	193044	keystroke_s	s	n/a
96.627	0.105	193254	keystroke_t	t	n/a
96.777	0.105	193554	keystroke_o	o	n/a
96.912	0.075	193824	keystroke_r	r	n/a
97.152	0.075	194304	keystroke_s	s	n/a
97.662	0.06	195324	keystroke_Key.space	Key.space	n/a
97.872	0.06	195744	keystroke_c	c	n/a
97.992	0.075	195984	keystroke_o	o	n/a
98.322	0.03	196644	keystroke_r	r	n/a
98.427	0.075	196854	keystroke_r	r	n/a
98.607	0.075	197214	keystroke_e	e	n/a
98.847	0.12	197694	keystroke_c	c	n/a
100.3925	0.075	200785	keystroke_t	t	n/a
100.8725	0.06	201745	keystroke_Key.enter	Key.enter	n/a
100.94	13.554	201880	prompt	n/a	pottery respiratory tops according\n
101.7725	0.09	203545	keystroke_p	p	n/a
102.0425	0.0745	204085	keystroke_o	o	n/a
102.4315	0.06	204863	keystroke_t	t	n/a
102.5665	0.105	205133	keystroke_t	t	n/a
102.747	0.165	205494	keystroke_e	e	n/a
102.867	0.105	205734	keystroke_r	r	n/a
103.092	0.061	206184	keystroke_y	y	n/a
103.362	0.075	206724	keystroke_Key.space	Key.space	n/a
103.692	0.106	207384	keystroke_r	r	n/a
103.722	0.105	207444	keystroke_e	e	n/a
104.037	0.075	208074	keystroke_s	s	n/a
104.352	0.075	208704	keystroke_p	p	n/a
104.562	0.091	209124	keystroke_i	i	n/a
104.802	0.075	209604	keystroke_r	r	n/a
105.042	0.135	210084	keystroke_a	a	n/a
105.252	0.105	210504	keystroke_t	t	n/a
106.062	0.075	212124	keystroke_Key.backspace	Key.backspace	n/a
108.148	0.075	216296	keystroke_t	t	n/a
108.208	0.09	216416	keystroke_o	o	n/a
108.388	0.06	216776	keystroke_r	r	n/a
108.463	0.075	216926	keystroke_y	y	n/a
108.928	0.075	217856	keystroke_Key.space	Key.space	n/a
109.573	0.075	219146	keystroke_t	t	n/a
109.678	0.075	219356	keystroke_o	o	n/a
109.843	0.075	219686	keystroke_p	p	n/a
109.963	0.075	219926	keystroke_s	s	n/a
110.143	0.075	220286	keystroke_Key.space	Key.space	n/a
110.593	0.075	221186	keystroke_a	a	n/a
110.8175	0.09	221635	keystroke_c	c	n/a
111.0125	0.09	222025	keystroke_c	c	n/a
111.2975	0.09	222595	keystroke_o	o	n/a
111.8375	0.105	223675	keystroke_r	r	n/a
112.0775	0.09	224155	keystroke_d	d	n/a
112.2425	0.135	224485	keystroke_i	i	n/a
112.3475	0.09	224695	keystroke_n	n	n/a
112.4525	0.09	224905	keystroke_g	g	n/a
114.432	0.06	228864	keystroke_Key.enter	Key.enter	n/a
114.4995	9.359	228999	prompt	n/a	failure express renewable south\n
115.587	0.09	231174	keystroke_f	f	n/a
115.752	0.0905	231504	keystroke_a	a	n/a
115.8725	0.09	231745	keystroke_i	i	n/a
116.0675	0.09	232135	keystroke_l	l	n/a
116.352	0.075	232704	keystroke_u	u	n/a
116.562	0.0905	233124	keystroke_r	r	n/a
116.577	0.1355	233154	keystroke_e	e	n/a
116.922	0.045	233844	keystroke_Key.space	Key.space	n/a
117.357	0.075	234714	keystroke_e	e	n/a
117.597	0.15	235194	keystroke_x	x	n/a
117.792	0.09	235584	keystroke_p	p	n/a
117.942	0.15	235884	keystroke_r	r	n/a
118.002	0.135	236004	keystroke_e	e	n/a
118.392	0.06	236784	keystroke_s	s	n/a
118.512	0.075	237024	keystroke_s	s	n/a
118.737	0.075	237474	keystroke_Key.space	Key.space	n/a
119.052	0.12	238104	keystroke_r	r	n/a
119.097	0.12	238194	keystroke_e	e	n/a
119.862	0.075	239724	keystroke_n	n	n/a
120.102	0.15	240204	keystroke_e	e	n/a
120.207	0.15	240414	keystroke_w	w	n/a
120.447	0.165	240894	keystroke_a	a	n/a
120.687	0.09	241374	keystroke_b	b	n/a
120.882	0.09	241764	keystroke_l	l	n/a
121.092	0.06	242184	keystroke_e	e	n/a
121.617	0.06	243234	keystroke_Key.space	Key.space	n/a
121.842	0.09	243684	keystroke_s	s	n/a
121.992	0.15	243984	keystroke_o	o	n/a
122.127	0.06	244254	keystroke_u	u	n/a
122.3075	0.0595	244615	keystroke_t	t	n/a
122.397	0.09	244794	keystroke_h	h	n/a
123.777	0.075	247554	keystroke_Key.enter	Key.enter	n/a
123.8585	9.2215	247717	prompt	n/a	modelling attract analysis hours\n
124.572	0.075	249144	keystroke_m	m	n/a
125.067	0.075	250134	keystroke_o	o	n/a
125.202	0.09	250404	keystroke_d	d	n/a
125.397	0.09	250794	keystroke_e	e	n/a
125.727	0.075	251454	keystroke_l	l	n/a
125.877	0.075	251754	keystroke_l	l	n/a
126.027	0.105	252054	keystroke_i	i	n/a
126.162	0.105	252324	keystroke_n	n	n/a
126.357	0.06	252714	keystroke_g	g	n/a
126.507	0.075	253014	keystroke_Key.space	Key.space	n/a
126.777	0.12	253554	keystroke_a	a	n/a
127.032	0.045	254064	keystroke_t	t	n/a
127.137	0.09	254274	keystroke_t	t	n/a
127.572	0.06	255144	keystroke_r	r	n/a
128.1425	0.1345	256285	keystroke_a	a	n/a
128.292	0.105	256584	keystroke_c	c	n/a
128.577	0.09	257154	keystroke_t	t	n/a
128.787	0.075	257574	keystroke_Key.space	Key.space	n/a
128.982	0.105	257964	keystroke_a	a	n/a
129.102	0.105	258204	keystroke_n	n	n/a
129.237	0.12	258474	keystroke_a	a	n/a
129.417	0.105	258834	keystroke_l	l	n/a
129.912	0.075	259824	keystroke_y	y	n/a
130.527	0.076	261054	keystroke_s	s	n/a
130.677	0.09	261354	keystroke_i	i	n/a
130.782	0.075	261564	keystroke_s	s	n/a
131.127	0.06	262254	keystroke_Key.space	Key.space	n/a
131.577	0.06	263154	keystroke_h	h	n/a
131.787	0.12	263574	keystroke_o	o	n/a
131.847	0.12	263694	keystroke_u	u	n/a
131.9975	0.1045	263995	keystroke_r	r	n/a
132.2375	0.1045	264475	keystroke_s	s	n/a
133.017	0.06	266034	keystroke_Key.enter	Key.enter	n/a
133.086	9.0985	266172	prompt	n/a	bonds validation barn chest\n
133.767	0.0755	267534	keystroke_n	n	n/a
133.9475	0.21	267895	keystroke_o	o	n/a
134.1725	0.09	268345	keystroke_n	n	n/a
134.3975	0.105	268795	keystroke_d	d	n/a
134.757	0.03	269514	keystroke_Key.backspace	Key.backspace	n/a
134.892	0.06	269784	keystroke_Key.backspace	Key.backspace	n/a
135.042	0.06	270084	keystroke_Key.backspace	Key.backspace	n/a
135.282	0.06	270564	keystroke_Key.backspace	Key.backspace	n/a
135.567	0.075	271134	keystroke_b	b	n/a
135.762	0.166	271524	keystroke_o	o	n/a
135.883	0.104	271766	keystroke_n	n	n/a
136.272	0.075	272544	keystroke_d	d	n/a
136.437	0.075	272874	keystroke_s	s	n/a
136.797	0.045	273594	keystroke_Key.space	Key.space	n/a
137.202	0.09	274404	keystroke_v	v	n/a
137.382	0.075	274764	keystroke_a	a	n/a
137.487	0.09	274974	keystroke_l	l	n/a
137.6535	0.1045	275307	keystroke_i	i	n/a
137.847	0.12	275694	keystroke_d	d	n/a
138.027	0.09	276054	keystroke_a	a	n/a
138.177	0.09	276354	keystroke_t	t	n/a
138.222	0.12	276444	keystroke_i	i	n/a
138.297	0.165	276594	keystroke_o	o	n/a
138.417	0.09	276834	keystroke_n	n	n/a
138.897	0.06	277794	keystroke_Key.space	Key.space	n/a
139.332	0.075	278664	keystroke_b	b	n/a
139.467	0.135	278934	keystroke_a	a	n/a
139.662	0.105	279324	keystroke_r	r	n/a
139.797	0.09	279594	keystroke_n	n	n/a
140.142	0.045	280284	keystroke_Key.space	Key.space	n/a
140.727	0.09	281454	keystroke_c	c	n/a
140.847	0.06	281694	keystroke_h	h	n/a
140.982	0.09	281964	keystroke_e	e	n/a
141.207	0.105	282414	keystroke_s	s	n/a
141.342	0.12	282684	keystroke_t	t	n/a
142.1225	0.06	284245	keystroke_Key.enter	Key.enter	n/a
142.1895	8.201	284379	prompt	n/a	merge root patterns facility\n
142.962	0.045	285924	keystroke_m	m	n/a
143.1125	0.15	286225	keystroke_e	e	n/a
143.172	0.1055	286344	keystroke_r	r	n/a
143.457	0.075	286914	keystroke_g	g	n/a
143.577	0.106	287154	keystroke_e	e	n/a
143.937	0.075	287874	keystroke_Key.space	Key.space	n/a
144.2675	0.06	288535	keystroke_r	r	n/a
144.462	0.06	288924	keystroke_o	o	n/a
144.582	0.09	289164	keystroke_o	o	n/a
144.717	0.09	289434	keystroke_t	t	n/a
144.837	0.09	289674	keystroke_Key.space	Key.space	n/a
145.062	0.09	290124	keystroke_p	p	n/a
146.008	0.104	292016	keystroke_a	a	n/a
146.277	0.03	292554	keystroke_t	t	n/a
146.412	0.06	292824	keystroke_t	t	n/a
146.607	0.165	293214	keystroke_e	e	n/a
146.712	0.105	293424	keystroke_r	r	n/a
147.027	0.06	294054	keystroke_n	n	n/a
147.252	0.09	294504	keystroke_s	s	n/a
147.687	0.06	295374	keystroke_Key.space	Key.space	n/a
148.138	0.074	296276	keystroke_f	f	n/a
148.347	0.151	296694	keystroke_a	a	n/a
148.467	0.135	296934	keystroke_c	c	n/a
148.753	0.074	297506	keystroke_i	i	n/a
148.932	0.09	297864	keystroke_l	l	n/a
149.0975	0.105	298195	keystroke_i	i	n/a
149.2935	0.089	298587	keystroke_t	t	n/a
149.3975	0.075	298795	keystroke_y	y	n/a
150.312	0.075	300624	keystroke_Key.enter	Key.enter	n/a
150.3965	16.2675	300793	prompt	n/a	phillips companion waiver dating\n
151.1085	0.119	302217	keystroke_p	p	n/a
151.3325	0.075	302665	keystroke_h	h	n/a
151.5285	0.089	303057	keystroke_i	i	n/a
151.7375	0.09	303475	keystroke_l	l	n/a
152.0985	0.119	304197	keystroke_i	i	n/a
152.4125	0.076	304825	keystroke_p	p	n/a
155.1765	0.011	310353	keystroke_s	s	n/a
155.3525	0.06	310705	keystroke_Key.space	Key.space	n/a
156.4175	0.075	312835	keystroke_Key.backspace	Key.backspace	n/a
156.5975	0.061	313195	keystroke_Key.backspace	Key.backspace	n/a
156.7775	0.06	313555	keystroke_Key.backspace	Key.backspace	n/a
156.9725	0.06	313945	keystroke_Key.backspace	Key.backspace	n/a
158.8035	0.075	317607	keystroke_l	l	n/a
158.9675	0.0895	317935	keystroke_i	i	n/a
159.147	0.1065	318294	keystroke_p	p	n/a
159.3735	0.089	318747	keystroke_s	s	n/a
159.8375	0.075	319675	keystroke_Key.space	Key.space	n/a
160.1385	0.074	320277	keystroke_c	c	n/a
160.783	0.1205	321566	keystroke_o	o	n/a
160.933	0.105	321866	keystroke_m	m	n/a
161.188	0.075	322376	keystroke_p	p	n/a
161.758	0.12	323516	keystroke_a	a	n/a
161.967	0.121	323934	keystroke_n	n	n/a
162.148	0.21	324296	keystroke_i	i	n/a
162.207	0.181	324414	keystroke_o	o	n/a
162.388	0.074	324776	keystroke_n	n	n/a
162.957	0.06	325914	keystroke_Key.space	Key.space	n/a
163.528	0.165	327056	keystroke_w	w	n/a
163.768	0.135	327536	keystroke_a	a	n/a
163.963	0.09	327926	keystroke_i	i	n/a
164.188	0.09	328376	keystroke_v	v	n/a
164.368	0.15	328736	keystroke_e	e	n/a
164.443	0.105	328886	keystroke_r	r	n/a
164.623	0.075	329246	keystroke_Key.space	Key.space	n/a
165.043	0.105	330086	keystroke_d	d	n/a
165.208	0.105	330416	keystroke_a	a	n/a
165.403	0.09	330806	keystroke_t	t	n/a
165.508	0.165	331016	keystroke_i	i	n/a
165.628	0.105	331256	keystroke_n	n	n/a
165.748	0.075	331496	keystroke_g	g	n/a
166.603	0.059	333206	keystroke_Key.enter	Key.enter	n/a
166.6685	9.1915	333337	prompt	n/a	fence bath advertiser movements\n
167.488	0.075	334976	keystroke_f	f	n/a
167.713	0.105	335426	keystroke_e	e	n/a
167.863	0.09	335726	keystroke_n	n	n/a
167.968	0.135	335936	keystroke_c	c	n/a
168.043	0.135	336086	keystroke_e	e	n/a
168.358	0.059	336716	keystroke_Key.space	Key.space	n/a
168.613	0.075	337226	keystroke_b	b	n/a
169.018	0.105	338036	keystroke_a	a	n/a
169.183	0.105	338366	keystroke_t	t	n/a
169.333	0.075	338666	keystroke_h	h	n/a
169.543	0.075	339086	keystroke_Key.space	Key.space	n/a
169.993	0.105	339986	keystroke_a	a	n/a
170.203	0.105	340406	keystroke_d	d	n/a
170.443	0.075	340886	keystroke_v	v	n/a
170.608	0.1505	341216	keystroke_e	e	n/a
170.6985	0.105	341397	keystroke_r	r	n/a
171.118	0.09	342236	keystroke_i	i	n/a
171.7635	0.075	343527	keystroke_Key.backspace	Key.backspace	n/a
171.8535	0.1045	343707	keystroke_t	t	n/a
172.033	0.09	344066	keystroke_i	i	n/a
172.243	0.09	344486	keystroke_s	s	n/a
172.393	0.15	344786	keystroke_e	e	n/a
172.453	0.12	344906	keystroke_r	r	n/a
172.843	0.06	345686	keystroke_Key.space	Key.space	n/a
173.368	0.06	346736	keystroke_m	m	n/a
173.548	0.09	347096	keystroke_o	o	n/a
173.713	0.1055	347426	keystroke_v	v	n/a
173.8935	0.12	347787	keystroke_e	e	n/a
174.2085	0.0745	348417	keystroke_m	m	n/a
174.703	0.075	349406	keystroke_e	e	n/a
174.808	0.075	349616	keystroke_n	n	n/a
174.943	0.105	349886	keystroke_t	t	n/a
175.168	0.09	350336	keystroke_s	s	n/a
175.798	0.06	351596	keystroke_Key.enter	Key.enter	n/a
175.8655	7.269	351731	prompt	n/a	seem coverage guests chest\n
176.668	0.09	353336	keystroke_s	s	n/a
176.938	0.045	353876	keystroke_e	e	n/a
177.043	0.075	354086	keystroke_e	e	n/a
177.148	0.075	354296	keystroke_m	m	n/a
177.313	0.09	354626	keystroke_Key.space	Key.space	n/a
177.553	0.09	355106	keystroke_c	c	n/a
177.718	0.09	355436	keystroke_o	o	n/a
178.018	0.075	356036	keystroke_v	v	n/a
178.168	0.15	356336	keystroke_e	e	n/a
178.258	0.09	356516	keystroke_r	r	n/a
178.528	0.12	357056	keystroke_a	a	n/a
178.663	0.105	357326	keystroke_g	g	n/a
178.783	0.105	357566	keystroke_e	e	n/a
179.158	0.06	358316	keystroke_Key.space	Key.space	n/a
179.653	0.06	359306	keystroke_g	g	n/a
179.878	0.045	359756	keystroke_u	u	n/a
180.133	0.075	360266	keystroke_e	e	n/a
180.343	0.09	360686	keystroke_s	s	n/a
180.478	0.075	360956	keystroke_t	t	n/a
181.048	0.0745	362096	keystroke_s	s	n/a
181.453	0.06	362906	keystroke_Key.space	Key.space	n/a
181.888	0.06	363776	keystroke_c	c	n/a
181.993	0.06	363986	keystroke_h	h	n/a
182.0975	0.09	364195	keystroke_e	e	n/a
182.2775	0.12	364555	keystroke_s	s	n/a
182.3975	0.105	364795	keystroke_t	t	n/a
183.0725	0.06	366145	keystroke_Key.enter	Key.enter	n/a
183.14	13.541	366280	prompt	n/a	soonest salad edinburgh excerpt\n
183.7775	0.06	367555	keystroke_s	s	n/a
184.0925	0.075	368185	keystroke_o	o	n/a
184.2275	0.09	368455	keystroke_o	o	n/a
184.3475	0.1055	368695	keystroke_n	n	n/a
184.588	0.1345	369176	keystroke_e	e	n/a
184.8125	0.1055	369625	keystroke_s	s	n/a
184.978	0.015	369956	keystroke_g	g	n/a
184.994	0.014	369988	keystroke_t	t	n/a
185.173	0.075	370346	keystroke_Key.space	Key.space	n/a
185.698	0.0595	371396	keystroke_Key.backspace	Key.backspace	n/a
185.8325	0.075	371665	keystroke_Key.backspace	Key.backspace	n/a
185.983	0.075	371966	keystroke_Key.backspace	Key.backspace	n/a
186.208	0.075	372416	keystroke_t	t	n/a
186.478	0.075	372956	keystroke_Key.space	Key.space	n/a
187.078	0.075	374156	keystroke_s	s	n/a
187.2725	0.06	374545	keystroke_a	a	n/a
187.3475	0.0755	374695	keystroke_l	l	n/a
188.233	0.09	376466	keystroke_a	a	n/a
188.533	0.12	377066	keystroke_d	d	n/a
188.8175	0.0755	377635	keystroke_Key.space	Key.space	n/a
189.538	0.06	379076	keystroke_e	e	n/a
189.718	0.105	379436	keystroke_d	d	n/a
190.303	0.1495	380606	keystroke_i	i	n/a
190.4375	0.09	380875	keystroke_n	n	n/a
190.783	0.06	381566	keystroke_b	b	n/a
191.0225	0.0755	382045	keystroke_u	u	n/a
191.203	0.09	382406	keystroke_r	r	n/a
191.668	0.06	383336	keystroke_g	g	n/a
191.788	0.075	383576	keystroke_h	h	n/a
192.793	0.075	385586	keystroke_Key.space	Key.space	n/a
193.738	0.075	387476	keystroke_e	e	n/a
194.158	0.105	388316	keystroke_x	x	n/a
194.488	0.105	388976	keystroke_c	c	n/a
194.698	0.135	389396	keystroke_e	e	n/a
195.373	0.045	390746	keystroke_r	r	n/a
195.703	0.09	391406	keystroke_p	p	n/a
195.868	0.09	391736	keystroke_t	t	n/a
196.633	0.045	393266	keystroke_Key.enter	Key.enter	n/a
196.6865	6.46	393373	prompt	n/a	read waste pine sole\n
197.3985	0.12	394797	keystroke_r	r	n/a
197.4585	0.12	394917	keystroke_e	e	n/a
197.6535	0.135	395307	keystroke_a	a	n/a
197.8035	0.12	395607	keystroke_d	d	n/a
198.1935	0.06	396387	keystroke_Key.space	Key.space	n/a
198.5685	0.09	397137	keystroke_w	w	n/a
198.7785	0.135	397557	keystroke_a	a	n/a
199.033	0.105	398066	keystroke_s	s	n/a
199.2885	0.09	398577	keystroke_t	t	n/a
199.4985	0.075	398997	keystroke_e	e	n/a
199.6785	0.06	399357	keystroke_Key.space	Key.space	n/a
199.9335	0.06	399867	keystroke_p	p	n/a
200.0685	0.1195	400137	keystroke_i	i	n/a
200.218	0.135	400436	keystroke_n	n	n/a
200.503	0.06	401006	keystroke_e	e	n/a
200.743	0.075	401486	keystroke_Key.space	Key.space	n/a
201.193	0.06	402386	keystroke_s	s	n/a
201.298	0.09	402596	keystroke_o	o	n/a
201.4485	0.12	402897	keystroke_l	l	n/a
201.5835	0.1045	403167	keystroke_e	e	n/a
203.083	0.06	406166	keystroke_Key.enter	Key.enter	n/a
203.154	13.642	406308	prompt	n/a	turns driver import saskatchewan\n
204.238	0.075	408476	keystroke_t	t	n/a
204.373	0.09	408746	keystroke_u	u	n/a
204.808	0.06	409616	keystroke_r	r	n/a
204.928	0.0755	409856	keystroke_n	n	n/a
205.1085	0.089	410217	keystroke_s	s	n/a
205.2425	0.075	410485	keystroke_Key.space	Key.space	n/a
205.8275	0.09	411655	keystroke_d	d	n/a
206.0375	0.075	412075	keystroke_r	r	n/a
206.2025	0.09	412405	keystroke_i	i	n/a
206.3375	0.09	412675	keystroke_v	v	n/a
206.4875	0.165	412975	keystroke_e	e	n/a
206.5925	0.075	413185	keystroke_r	r	n/a
207.2375	0.06	414475	keystroke_Key.space	Key.space	n/a
207.4485	0.119	414897	keystroke_i	i	n/a
207.5975	0.12	415195	keystroke_m	m	n/a
207.7775	0.105	415555	keystroke_p	p	n/a
207.9875	0.091	415975	keystroke_o	o	n/a
208.1525	0.075	416305	keystroke_r	r	n/a
208.3475	0.075	416695	keystroke_t	t	n/a
208.4675	0.075	416935	keystroke_Key.space	Key.space	n/a
208.9325	0.06	417865	keystroke_s	s	n/a
209.518	0.12	419036	keystroke_a	a	n/a
210.028	0.09	420056	keystroke_s	s	n/a
210.268	0.075	420536	keystroke_k	k	n/a
211.663	0.135	423326	keystroke_a	a	n/a
212.038	0.12	424076	keystroke_t	t	n/a
214.232	0	428464	keystroke_c	c	n/a
214.333	0.075	428666	keystroke_h	h	n/a
214.468	0.105	428936	keystroke_e	e	n/a
214.813	0.105	429626	keystroke_w	w	n/a
215.338	0.06	430676	keystroke_n	n	n/a
216.733	0.06	433466	keystroke_Key.enter	Key.enter	n/a
216.8025	9.0525	433605	prompt	n/a	judicial along portable exhibition\n
218.038	0.075	436076	keystroke_j	j	n/a
218.233	0.06	436466	keystroke_u	u	n/a
218.593	0.075	437186	keystroke_d	d	n/a
218.728	0.075	437456	keystroke_i	i	n/a
218.953	0.105	437906	keystroke_c	c	n/a
219.133	0.09	438266	keystroke_i	i	n/a
219.358	0.09	438716	keystroke_a	a	n/a
219.448	0.09	438896	keystroke_l	l	n/a
219.793	0.0605	439586	keystroke_Key.space	Key.space	n/a
220.3035	0.0895	440607	keystroke_a	a	n/a
220.408	0.09	440816	keystroke_l	l	n/a
220.603	0.135	441206	keystroke_o	o	n/a
220.723	0.0905	441446	keystroke_n	n	n/a
220.8735	0.0745	441747	keystroke_g	g	n/a
221.068	0.075	442136	keystroke_Key.space	Key.space	n/a
221.278	0.075	442556	keystroke_p	p	n/a
221.488	0.09	442976	keystroke_o	o	n/a
221.728	0.045	443456	keystroke_r	r	n/a
221.8935	0.06	443787	keystroke_t	t	n/a
222.103	0.09	444206	keystroke_a	a	n/a
222.193	0.09	444386	keystroke_b	b	n/a
222.388	0.075	444776	keystroke_l	l	n/a
222.508	0.075	445016	keystroke_e	e	n/a
222.688	0.075	445376	keystroke_Key.space	Key.space	n/a
223.018	0.06	446036	keystroke_e	e	n/a
223.2885	0.1195	446577	keystroke_x	x	n/a
223.4985	0.075	446997	keystroke_h	h	n/a
223.6185	0.105	447237	keystroke_i	i	n/a
223.8585	0.03	447717	keystroke_b	b	n/a
224.0085	0.09	448017	keystroke_i	i	n/a
224.5485	0.075	449097	keystroke_t	t	n/a
224.6685	0.12	449337	keystroke_i	i	n/a
224.7735	0.15	449547	keystroke_o	o	n/a
224.8785	0.075	449757	keystroke_n	n	n/a
225.793	0.06	451586	keystroke_Key.enter	Key.enter	n/a
225.8595	10.6605	451719	prompt	n/a	english steal fares demonstrated\n
226.6935	0.0745	453387	keystroke_e	e	n/a
226.888	0.06	453776	keystroke_n	n	n/a
227.233	0.075	454466	keystroke_g	g	n/a
227.488	0.09	454976	keystroke_l	l	n/a
227.638	0.1055	455276	keystroke_i	i	n/a
227.8035	0.1045	455607	keystroke_s	s	n/a
227.923	0.06	455846	keystroke_h	h	n/a
228.1185	0.09	456237	keystroke_Key.space	Key.space	n/a
228.373	0.075	456746	keystroke_s	s	n/a
228.628	0.105	457256	keystroke_t	t	n/a
228.793	0.12	457586	keystroke_e	e	n/a
228.988	0.105	457976	keystroke_a	a	n/a
229.138	0.075	458276	keystroke_l	l	n/a
229.318	0.075	458636	keystroke_Key.space	Key.space	n/a
230.083	0.075	460166	keystroke_f	f	n/a
230.263	0.12	460526	keystroke_a	a	n/a
230.503	0.105	461006	keystroke_r	r	n/a
230.623	0.21	461246	keystroke_e	e	n/a
231.358	0.09	462716	keystroke_s	s	n/a
231.7785	0.06	463557	keystroke_Key.space	Key.space	n/a
231.988	0.105	463976	keystroke_d	d	n/a
232.1985	0.045	464397	keystroke_m	m	n/a
232.2285	0.12	464457	keystroke_e	e	n/a
232.828	0.075	465656	keystroke_Key.backspace	Key.backspace	n/a
232.963	0.075	465926	keystroke_Key.backspace	Key.backspace	n/a
233.113	0.06	466226	keystroke_e	e	n/a
233.203	0.105	466406	keystroke_m	m	n/a
233.398	0.12	466796	keystroke_o	o	n/a
233.503	0.09	467006	keystroke_n	n	n/a
233.713	0.09	467426	keystroke_s	s	n/a
233.878	0.091	467756	keystroke_t	t	n/a
234.088	0.09	468176	keystroke_r	r	n/a
234.838	0.135	469676	keystroke_a	a	n/a
235.093	0.09	470186	keystroke_t	t	n/a
235.303	0.075	470606	keystroke_e	e	n/a
235.513	0.135	471026	keystroke_d	d	n/a
236.458	0.06	472916	keystroke_Key.enter	Key.enter	n/a
236.5255	16.49	473051	prompt	n/a	scholarships formula maximum wild\n
237.268	0.075	474536	keystroke_s	s	n/a
237.478	0.105	474956	keystroke_c	c	n/a
237.823	0.09	475646	keystroke_h	h	n/a
238.033	0.075	476066	keystroke_o	o	n/a
238.213	0.09	476426	keystroke_l	l	n/a
238.393	0.075	476786	keystroke_o	o	n/a
238.828	0.12	477656	keystroke_a	a	n/a
239.3675	0.075	478735	keystroke_Key.backspace	Key.backspace	n/a
239.5035	0.09	479007	keystroke_Key.backspace	Key.backspace	n/a
239.6385	0.105	479277	keystroke_a	a	n/a
239.7285	0.075	479457	keystroke_r	r	n/a
240.0735	0.075	480147	keystroke_s	s	n/a
240.1635	0.09	480327	keystroke_h	h	n/a
240.2985	0.15	480597	keystroke_i	i	n/a
240.4335	0.135	480867	keystroke_p	p	n/a
240.6735	0.09	481347	keystroke_s	s	n/a
240.9135	0.06	481827	keystroke_Key.space	Key.space	n/a
241.4835	0.06	482967	keystroke_f	f	n/a
241.6935	0.06	483387	keystroke_r	r	n/a
241.8735	0.09	483747	keystroke_o	o	n/a
242.2935	0.045	484587	keystroke_Key.backspace	Key.backspace	n/a
242.4285	0.045	484857	keystroke_Key.backspace	Key.backspace	n/a
242.8335	0.06	485667	keystroke_o	o	n/a
243.224	0.075	486448	keystroke_r	r	n/a
243.524	0.0755	487048	keystroke_m	m	n/a
243.8395	0.06	487679	keystroke_u	u	n/a
244.11	0.075	488220	keystroke_l	l	n/a
244.38	0.0905	488760	keystroke_a	a	n/a
244.5	0.0905	489000	keystroke_Key.space	Key.space	n/a
244.7855	0.075	489571	keystroke_m	m	n/a
244.921	0.0895	489842	keystroke_a	a	n/a
245.5065	0.105	491013	keystroke_i	i	n/a
245.7765	0.075	491553	keystroke_m	m	n/a
245.972	0.09	491944	keystroke_u	u	n/a
246.182	0.06	492364	keystroke_m	m	n/a
246.4975	0.075	492995	keystroke_Key.backspace	Key.backspace	n/a
246.6475	0.06	493295	keystroke_Key.backspace	Key.backspace	n/a
246.7975	0.045	493595	keystroke_Key.backspace	Key.backspace	n/a
246.948	0.075	493896	keystroke_x	x	n/a
247.368	0.06	494736	keystroke_Key.backspace	Key.backspace	n/a
247.503	0.0605	495006	keystroke_Key.backspace	Key.backspace	n/a
247.6385	0.09	495277	keystroke_x	x	n/a
247.8935	0.075	495787	keystroke_m	m	n/a
248.134	0.105	496268	keystroke_i	i	n/a
248.7345	0.075	497469	keystroke_Key.backspace	Key.backspace	n/a
248.8995	0.045	497799	keystroke_Key.backspace	Key.backspace	n/a
249.17	0.09	498340	keystroke_i	i	n/a
249.38	0.09	498760	keystroke_m	m	n/a
249.605	0.075	499210	keystroke_u	u	n/a
249.8	0.0605	499600	keystroke_m	m	n/a
250.0405	0.075	500081	keystroke_Key.space	Key.space	n/a
251.647	0.09	503294	keystroke_w	w	n/a
251.857	0.075	503714	keystroke_i	i	n/a
252.0535	0.105	504107	keystroke_l	l	n/a
252.2035	0.089	504407	keystroke_d	d	n/a
252.968	0.045	505936	keystroke_Key.enter	Key.enter	n/a
253.022	9.138	506044	prompt	n/a	align gates surround screenshots\n
253.764	0.091	507528	keystroke_a	a	n/a
253.974	0.075	507948	keystroke_l	l	n/a
254.169	0.0905	508338	keystroke_i	i	n/a
254.5145	0.075	509029	keystroke_g	g	n/a
254.6345	0.075	509269	keystroke_n	n	n/a
254.89	0.06	509780	keystroke_Key.space	Key.space	n/a
255.4005	0.075	510801	keystroke_g	g	n/a
255.6255	0.091	511251	keystroke_a	a	n/a
255.911	0.105	511822	keystroke_t	t	n/a
256.121	0.105	512242	keystroke_e	e	n/a
256.361	0.0755	512722	keystroke_s	s	n/a
256.5115	0.075	513023	keystroke_Key.space	Key.space	n/a
256.8565	0.0755	513713	keystroke_s	s	n/a
257.037	0.075	514074	keystroke_u	u	n/a
257.322	0.06	514644	keystroke_r	r	n/a
257.4725	0.06	514945	keystroke_r	r	n/a
257.6225	0.165	515245	keystroke_o	o	n/a
257.7425	0.09	515485	keystroke_u	u	n/a
257.9375	0.1055	515875	keystroke_n	n	n/a
258.103	0.09	516206	keystroke_d	d	n/a
258.478	0.06	516956	keystroke_Key.space	Key.space	n/a
259.469	0.06	518938	keystroke_s	s	n/a
259.664	0.0905	519328	keystroke_c	c	n/a
259.9345	0.12	519869	keystroke_r	r	n/a
260.2495	0.0755	520499	keystroke_e	e	n/a
260.385	0.06	520770	keystroke_e	e	n/a
260.461	0.074	520922	keystroke_n	n	n/a
260.641	0.074	521282	keystroke_s	s	n/a
260.745	0.0905	521490	keystroke_h	h	n/a
260.9255	0.105	521851	keystroke_o	o	n/a
261.0605	0.105	522121	keystroke_t	t	n/a
261.2855	0.0915	522571	keystroke_s	s	n/a
262.0815	0.075	524163	keystroke_Key.enter	Key.enter	n/a
262.166	8.7315	524332	prompt	n/a	drugs scotland paul industrial\n
262.982	0.0755	525964	keystroke_d	d	n/a
263.2085	0.059	526417	keystroke_r	r	n/a
263.3575	0.075	526715	keystroke_u	u	n/a
263.5525	0.0905	527105	keystroke_g	g	n/a
263.763	0.09	527526	keystroke_s	s	n/a
263.913	0.075	527826	keystroke_Key.space	Key.space	n/a
264.2285	0.061	528457	keystroke_s	s	n/a
264.3935	0.09	528787	keystroke_c	c	n/a
264.739	0.076	529478	keystroke_o	o	n/a
265.04	0.104	530080	keystroke_t	t	n/a
265.3245	0.091	530649	keystroke_l	l	n/a
265.4595	0.09	530919	keystroke_a	a	n/a
265.5645	0.075	531129	keystroke_n	n	n/a
265.7155	0.0895	531431	keystroke_d	d	n/a
265.91	0.075	531820	keystroke_Key.space	Key.space	n/a
266.12	0.09	532240	keystroke_p	p	n/a
266.24	0.105	532480	keystroke_a	a	n/a
266.3605	0.075	532721	keystroke_u	u	n/a
266.5705	0.091	533141	keystroke_l	l	n/a
266.8105	0.075	533621	keystroke_Key.space	Key.space	n/a
267.7865	0.091	535573	keystroke_i	i	n/a
267.9375	0.0895	535875	keystroke_n	n	n/a
268.372	0.061	536744	keystroke_d	d	n/a
268.6735	0.074	537347	keystroke_u	u	n/a
268.9585	0.089	537917	keystroke_s	s	n/a
269.213	0.075	538426	keystroke_t	t	n/a
269.408	0.09	538816	keystroke_r	r	n/a
269.543	0.09	539086	keystroke_i	i	n/a
269.753	0.0915	539506	keystroke_a	a	n/a
269.8285	0.105	539657	keystroke_l	l	n/a
270.834	0.0605	541668	keystroke_Key.enter	Key.enter	n/a
270.904	13.8195	541808	prompt	n/a	registry relevance boost preparation\n
271.751	0.119	543502	keystroke_r	r	n/a
271.825	0.106	543650	keystroke_e	e	n/a
272.4115	0.06	544823	keystroke_g	g	n/a
272.622	0.075	545244	keystroke_i	i	n/a
272.786	0.091	545572	keystroke_s	s	n/a
272.966	0.091	545932	keystroke_t	t	n/a
273.1915	0.075	546383	keystroke_r	r	n/a
273.3715	0.076	546743	keystroke_y	y	n/a
273.6115	0.09	547223	keystroke_Key.space	Key.space	n/a
273.897	0.12	547794	keystroke_r	r	n/a
273.973	0.135	547946	keystroke_e	e	n/a
274.273	0.0755	548546	keystroke_l	l	n/a
274.5275	0.136	549055	keystroke_a	a	n/a
274.7675	0.136	549535	keystroke_v	v	n/a
275.353	0.06	550706	keystroke_Key.backspace	Key.backspace	n/a
275.488	0.1505	550976	keystroke_Key.backspace	Key.backspace	n/a
275.8195	0.075	551639	keystroke_e	e	n/a
276.21	0.089	552420	keystroke_v	v	n/a
276.389	0.121	552778	keystroke_a	a	n/a
276.584	0.0915	553168	keystroke_n	n	n/a
276.9305	0.105	553861	keystroke_c	c	n/a
277.0055	0.104	554011	keystroke_e	e	n/a
277.26	0.06	554520	keystroke_Key.space	Key.space	n/a
277.9965	0.089	555993	keystroke_b	b	n/a
278.2655	0.09	556531	keystroke_o	o	n/a
278.4765	0.06	556953	keystroke_s	s	n/a
278.866	0.075	557732	keystroke_Key.backspace	Key.backspace	n/a
279.1365	0.091	558273	keystroke_o	o	n/a
279.2725	0.105	558545	keystroke_s	s	n/a
279.4375	0.075	558875	keystroke_t	t	n/a
279.6465	0.0755	559293	keystroke_Key.space	Key.space	n/a
280.2785	0.09	560557	keystroke_p	p	n/a
280.5785	0.075	561157	keystroke_r	r	n/a
281.254	0.06	562508	keystroke_e	e	n/a
281.4495	0.09	562899	keystroke_p	p	n/a
282.784	0.1065	565568	keystroke_a	a	n/a
283.0695	0.091	566139	keystroke_r	r	n/a
283.2945	0.0915	566589	keystroke_a	a	n/a
283.491	0.074	566982	keystroke_t	t	n/a
283.551	0.165	567102	keystroke_i	i	n/a
283.626	0.165	567252	keystroke_o	o	n/a
283.731	0.105	567462	keystroke_n	n	n/a
284.662	0.06	569324	keystroke_Key.enter	Key.enter	n/a
284.7285	9.3155	569457	prompt	n/a	rainbow divisions so perform\n
285.6975	0.075	571395	keystroke_r	r	n/a
285.7275	0.18	571455	keystroke_e	e	n/a
286.043	0.105	572086	keystroke_a	a	n/a
286.5235	0.06	573047	keystroke_Key.backspace	Key.backspace	n/a
286.6725	0.076	573345	keystroke_Key.backspace	Key.backspace	n/a
287.2885	0.075	574577	keystroke_a	a	n/a
287.649	0.09	575298	keystroke_i	i	n/a
287.829	0.09	575658	keystroke_n	n	n/a
288.1145	0.045	576229	keystroke_b	b	n/a
288.2795	0.105	576559	keystroke_o	o	n/a
288.4595	0.105	576919	keystroke_w	w	n/a
288.6235	0.091	577247	keystroke_Key.space	Key.space	n/a
289.105	0.075	578210	keystroke_d	d	n/a
289.285	0.075	578570	keystroke_i	i	n/a
289.48	0.09	578960	keystroke_v	v	n/a
289.6755	0.075	579351	keystroke_i	i	n/a
289.8705	0.09	579741	keystroke_s	s	n/a
290.0355	0.165	580071	keystroke_i	i	n/a
290.2155	0.18	580431	keystroke_o	o	n/a
290.2905	0.075	580581	keystroke_n	n	n/a
290.606	0.105	581212	keystroke_s	s	n/a
291.3115	0.06	582623	keystroke_Key.space	Key.space	n/a
291.6115	0.075	583223	keystroke_s	s	n/a
291.7015	0.105	583403	keystroke_o	o	n/a
291.8815	0.105	583763	keystroke_Key.space	Key.space	n/a
292.1365	0.0905	584273	keystroke_p	p	n/a
292.257	0.12	584514	keystroke_e	e	n/a
292.317	0.105	584634	keystroke_r	r	n/a
292.647	0.06	585294	keystroke_f	f	n/a
292.767	0.105	585534	keystroke_o	o	n/a
292.962	0.075	585924	keystroke_r	r	n/a
293.082	0.075	586164	keystroke_m	m	n/a
293.9825	0.06	587965	keystroke_Key.enter	Key.enter	n/a
294.049	22.883	588098	prompt	n/a	dare angela telecharger animal\n
294.8675	0.12	589735	keystroke_d	d	n/a
295.1525	0.09	590305	keystroke_a	a	n/a
295.3475	0.15	590695	keystroke_r	r	n/a
295.4375	0.1355	590875	keystroke_e	e	n/a
295.7225	0.06	591445	keystroke_Key.space	Key.space	n/a
296.7575	0.105	593515	keystroke_a	a	n/a
296.9525	0.075	593905	keystroke_n	n	n/a
297.5225	0.075	595045	keystroke_g	g	n/a
298.482	0.075	596964	keystroke_e	e	n/a
298.707	0.09	597414	keystroke_l	l	n/a
298.872	0.09	597744	keystroke_a	a	n/a
299.097	0.06	598194	keystroke_Key.space	Key.space	n/a
299.996	0.105	599992	keystroke_t	t	n/a
300.4165	0.06	600833	keystroke_e	e	n/a
300.551	0.09	601102	keystroke_l	l	n/a
300.626	0.09	601252	keystroke_e	e	n/a
301.151	0.075	602302	keystroke_c	c	n/a
301.256	0.09	602512	keystroke_h	h	n/a
301.406	0.135	602812	keystroke_a	a	n/a
301.631	0.105	603262	keystroke_r	r	n/a
301.886	0.105	603772	keystroke_g	g	n/a
302.051	0.165	604102	keystroke_e	e	n/a
302.156	0.09	604312	keystroke_r	r	n/a
302.846	0.075	605692	keystroke_Key.space	Key.space	n/a
303.1455	0.09	606291	keystroke_a	a	n/a
303.2505	0.0905	606501	keystroke_n	n	n/a
303.461	0.12	606922	keystroke_i	i	n/a
303.6405	0.12	607281	keystroke_m	m	n/a
303.8205	0.12	607641	keystroke_a	a	n/a
303.9705	0.09	607941	keystroke_l	l	n/a
316.918	0.012	633836	keystroke_Key.enter	Key.enter	n/a
316.9385	16.955	633877	prompt	n/a	physicians decorative foundation shirts\n
318.3685	0.076	636737	keystroke_p	p	n/a
318.7145	0.06	637429	keystroke_h	h	n/a
318.9395	0.06	637879	keystroke_y	y	n/a
319.3445	0.09	638689	keystroke_s	s	n/a
319.4495	0.09	638899	keystroke_i	i	n/a
320.559	0.089	641118	keystroke_c	c	n/a
321.0095	0.075	642019	keystroke_i	i	n/a
321.1295	0.105	642259	keystroke_c	c	n/a
321.864	0.075	643728	keystroke_Key.backspace	Key.backspace	n/a
322.134	0.12	644268	keystroke_a	a	n/a
322.239	0.075	644478	keystroke_n	n	n/a
322.569	0.09	645138	keystroke_s	s	n/a
322.808	0.06	645616	keystroke_Key.space	Key.space	n/a
323.739	0.075	647478	keystroke_d	d	n/a
323.9635	0.075	647927	keystroke_e	e	n/a
324.1585	0.09	648317	keystroke_c	c	n/a
324.2785	0.105	648557	keystroke_o	o	n/a
324.5485	0.105	649097	keystroke_r	r	n/a
324.7885	0.135	649577	keystroke_a	a	n/a
325.1185	0.105	650237	keystroke_t	t	n/a
325.2985	0.075	650597	keystroke_i	i	n/a
325.3885	0.165	650777	keystroke_v	v	n/a
325.5685	0.105	651137	keystroke_e	e	n/a
325.8085	0.06	651617	keystroke_Key.space	Key.space	n/a
326.798	0.06	653596	keystroke_f	f	n/a
326.993	0.12	653986	keystroke_o	o	n/a
327.068	0.03	654136	keystroke_i	i	n/a
327.083	0.075	654166	keystroke_u	u	n/a
327.293	0.075	654586	keystroke_n	n	n/a
327.383	0.105	654766	keystroke_d	d	n/a
327.578	0.06	655156	keystroke_a	a	n/a
327.923	0.075	655846	keystroke_Key.backspace	Key.backspace	n/a
328.073	0.0895	656146	keystroke_Key.backspace	Key.backspace	n/a
328.2525	0.045	656505	keystroke_Key.backspace	Key.backspace	n/a
328.4025	0.045	656805	keystroke_Key.backspace	Key.backspace	n/a
328.5525	0.06	657105	keystroke_Key.backspace	Key.backspace	n/a
329.0025	0.06	658005	keystroke_u	u	n/a
329.2275	0.075	658455	keystroke_n	n	n/a
329.6625	0.075	659325	keystroke_d	d	n/a
329.8875	0.09	659775	keystroke_a	a	n/a
330.6675	0.075	661335	keystroke_t	t	n/a
330.8475	0.045	661695	keystroke_i	i	n/a
330.8625	0.165	661725	keystroke_o	o	n/a
330.9825	0.06	661965	keystroke_n	n	n/a
331.282	0.06	662564	keystroke_Key.space	Key.space	n/a
332.167	0.09	664334	keystroke_s	s	n/a
332.272	0.075	664544	keystroke_h	h	n/a
332.422	0.105	664844	keystroke_i	i	n/a
332.677	0.075	665354	keystroke_r	r	n/a
332.872	0.075	665744	keystroke_t	t	n/a
333.082	0.105	666164	keystroke_s	s	n/a
333.832	0.06	667664	keystroke_Key.enter	Key.enter	n/a
333.901	7.5215	667802	prompt	n/a	her thunder sullivan tubes\n
334.6415	0.06	669283	keystroke_h	h	n/a
334.7165	0.12	669433	keystroke_e	e	n/a
334.7915	0.075	669583	keystroke_r	r	n/a
334.927	0.09	669854	keystroke_Key.space	Key.space	n/a
335.152	0.075	670304	keystroke_t	t	n/a
335.242	0.06	670484	keystroke_h	h	n/a
335.4215	0.06	670843	keystroke_u	u	n/a
335.6015	0.06	671203	keystroke_n	n	n/a
335.7065	0.075	671413	keystroke_d	d	n/a
335.9165	0.12	671833	keystroke_e	e	n/a
335.9915	0.075	671983	keystroke_r	r	n/a
336.1115	0.075	672223	keystroke_Key.space	Key.space	n/a
336.3815	0.0595	672763	keystroke_s	s	n/a
336.726	0.06	673452	keystroke_l	l	n/a
336.876	0.0595	673752	keystroke_l	l	n/a
337.2505	0.06	674501	keystroke_Key.backspace	Key.backspace	n/a
337.3855	0.075	674771	keystroke_Key.backspace	Key.backspace	n/a
337.5965	0.075	675193	keystroke_u	u	n/a
337.8955	0.06	675791	keystroke_l	l	n/a
338.0305	0.06	676061	keystroke_l	l	n/a
338.1815	0.074	676363	keystroke_i	i	n/a
338.4655	0.136	676931	keystroke_v	v	n/a
338.6305	0.135	677261	keystroke_a	a	n/a
338.7805	0.075	677561	keystroke_n	n	n/a
339.141	0.075	678282	keystroke_Key.space	Key.space	n/a
339.9505	0.09	679901	keystroke_t	t	n/a
340.1005	0.09	680201	keystroke_u	u	n/a
340.355	0.09	680710	keystroke_b	b	n/a
340.61	0.075	681220	keystroke_e	e	n/a
340.805	0.105	681610	keystroke_s	s	n/a
341.36	0.06	682720	keystroke_Key.enter	Key.enter	n/a
341.4295	11.841	682859	prompt	n/a	guarantee larger msgid square\n
342.201	0.059	684402	keystroke_g	g	n/a
342.455	0.09	684910	keystroke_a	a	n/a
343.16	0.06	686320	keystroke_Key.backspace	Key.backspace	n/a
343.385	0.061	686770	keystroke_u	u	n/a
343.61	0.105	687220	keystroke_a	a	n/a
343.895	0.075	687790	keystroke_r	r	n/a
344.36	0.091	688720	keystroke_a	a	n/a
344.525	0.0595	689050	keystroke_n	n	n/a
344.7945	0.09	689589	keystroke_t	t	n/a
345.1545	0.061	690309	keystroke_e	e	n/a
345.3045	0.045	690609	keystroke_e	e	n/a
345.3945	0.09	690789	keystroke_Key.space	Key.space	n/a
345.5895	0.09	691179	keystroke_l	l	n/a
345.6945	0.106	691389	keystroke_a	a	n/a
346.3095	0.06	692619	keystroke_r	r	n/a
346.58	0.075	693160	keystroke_g	g	n/a
346.76	0.134	693520	keystroke_e	e	n/a
346.85	0.104	693700	keystroke_r	r	n/a
347.479	0.075	694958	keystroke_Key.space	Key.space	n/a
348.019	0.061	696038	keystroke_m	m	n/a
348.544	0.075	697088	keystroke_s	s	n/a
348.814	0.075	697628	keystroke_g	g	n/a
349.639	0.06	699278	keystroke_i	i	n/a
349.879	0.09	699758	keystroke_d	d	n/a
350.5245	0.059	701049	keystroke_Key.space	Key.space	n/a
350.7335	0.091	701467	keystroke_s	s	n/a
351.1695	0.12	702339	keystroke_q	q	n/a
351.5295	0.06	703059	keystroke_u	u	n/a
352.054	0.059	704108	keystroke_a	a	n/a
352.219	0.089	704438	keystroke_r	r	n/a
352.294	0.12	704588	keystroke_e	e	n/a
353.194	0.074	706388	keystroke_Key.enter	Key.enter	n/a
353.2765	8.992	706553	prompt	n/a	respected luxury adam assisted\n
354.0785	0.09	708157	keystroke_r	r	n/a
354.1085	0.12	708217	keystroke_e	e	n/a
354.5585	0.074	709117	keystroke_s	s	n/a
354.7085	0.075	709417	keystroke_p	p	n/a
354.8285	0.075	709657	keystroke_e	e	n/a
355.0385	0.105	710077	keystroke_c	c	n/a
355.2785	0.134	710557	keystroke_t	t	n/a
355.5185	0.075	711037	keystroke_e	e	n/a
355.7125	0.09	711425	keystroke_d	d	n/a
355.8325	0.09	711665	keystroke_Key.space	Key.space	n/a
356.0885	0.074	712177	keystroke_l	l	n/a
356.2685	0.09	712537	keystroke_u	u	n/a
356.628	0.09	713256	keystroke_x	x	n/a
356.8535	0.06	713707	keystroke_u	u	n/a
357.243	0.075	714486	keystroke_r	r	n/a
357.363	0.06	714726	keystroke_y	y	n/a
357.602	0.075	715204	keystroke_Key.space	Key.space	n/a
357.978	0.09	715956	keystroke_d	d	n/a
358.157	0.12	716314	keystroke_a	a	n/a
358.532	0.075	717064	keystroke_Key.backspace	Key.backspace	n/a
358.682	0.061	717364	keystroke_Key.backspace	Key.backspace	n/a
358.773	0.134	717546	keystroke_a	a	n/a
358.923	0.179	717846	keystroke_d	d	n/a
359.118	0.119	718236	keystroke_a	a	n/a
359.388	0.074	718776	keystroke_m	m	n/a
359.8065	0.061	719613	keystroke_Key.space	Key.space	n/a
360.1525	0.075	720305	keystroke_a	a	n/a
360.4225	0.06	720845	keystroke_s	s	n/a
360.5425	0.075	721085	keystroke_s	s	n/a
360.7525	0.075	721505	keystroke_i	i	n/a
360.8875	0.105	721775	keystroke_s	s	n/a
361.0825	0.135	722165	keystroke_t	t	n/a
361.2025	0.105	722405	keystroke_e	e	n/a
361.4125	0.105	722825	keystroke_d	d	n/a
362.207	0.06	724414	keystroke_Key.enter	Key.enter	n/a
362.2735	9.2195	724547	prompt	n/a	symbols marks rays patricia\n
363.0475	0.06	726095	keystroke_s	s	n/a
363.197	0.075	726394	keystroke_y	y	n/a
363.452	0.06	726904	keystroke_m	m	n/a
363.872	0.06	727744	keystroke_b	b	n/a
364.5015	0.09	729003	keystroke_o	o	n/a
364.8315	0.075	729663	keystroke_l	l	n/a
365.0115	0.09	730023	keystroke_s	s	n/a
365.4165	0.045	730833	keystroke_Key.space	Key.space	n/a
365.7165	0.075	731433	keystroke_m	m	n/a
365.8515	0.15	731703	keystroke_a	a	n/a
366.0615	0.105	732123	keystroke_r	r	n/a
366.2265	0.09	732453	keystroke_k	k	n/a
366.4515	0.09	732903	keystroke_s	s	n/a
366.5855	0.091	733171	keystroke_Key.space	Key.space	n/a
367.6215	0.1195	735243	keystroke_r	r	n/a
367.906	0.075	735812	keystroke_a	a	n/a
368.116	0.06	736232	keystroke_y	y	n/a
368.326	0.12	736652	keystroke_s	s	n/a
368.491	0.075	736982	keystroke_Key.space	Key.space	n/a
368.806	0.09	737612	keystroke_p	p	n/a
368.986	0.135	737972	keystroke_a	a	n/a
369.571	0.075	739142	keystroke_t	t	n/a
369.796	0.06	739592	keystroke_r	r	n/a
369.991	0.075	739982	keystroke_i	i	n/a
370.141	0.105	740282	keystroke_c	c	n/a
370.306	0.0895	740612	keystroke_i	i	n/a
370.4555	0.105	740911	keystroke_a	a	n/a
371.4305	0.06	742861	keystroke_Key.enter	Key.enter	n/a
371.4985	8.5265	742997	prompt	n/a	catch delivers ruling mazda\n
372.1655	0.09	744331	keystroke_c	c	n/a
372.3305	0.12	744661	keystroke_a	a	n/a
372.5255	0.12	745051	keystroke_t	t	n/a
372.7655	0.09	745531	keystroke_c	c	n/a
372.8705	0.06	745741	keystroke_h	h	n/a
373.1255	0.075	746251	keystroke_Key.space	Key.space	n/a
373.5305	0.09	747061	keystroke_d	d	n/a
373.9805	0.0745	747961	keystroke_e	e	n/a
374.19	0.075	748380	keystroke_l	l	n/a
374.385	0.075	748770	keystroke_i	i	n/a
374.79	0.075	749580	keystroke_v	v	n/a
375	0.135	750000	keystroke_e	e	n/a
375.09	0.075	750180	keystroke_r	r	n/a
375.33	0.075	750660	keystroke_s	s	n/a
375.48	0.075	750960	keystroke_Key.space	Key.space	n/a
376.2	0.06	752400	keystroke_r	r	n/a
376.3645	0.075	752729	keystroke_u	u	n/a
376.5895	0.105	753179	keystroke_l	l	n/a
376.7395	0.15	753479	keystroke_i	i	n/a
376.9045	0.09	753809	keystroke_n	n	n/a
377.0845	0.06	754169	keystroke_g	g	n/a
377.1895	0.075	754379	keystroke_Key.space	Key.space	n/a
377.4295	0.075	754859	keystroke_m	m	n/a
377.5495	0.09	755099	keystroke_a	a	n/a
377.8495	0.12	755699	keystroke_z	z	n/a
378.2545	0.09	756509	keystroke_d	d	n/a
378.4645	0.09	756929	keystroke_a	a	n/a
379.964	0.06	759928	keystroke_Key.enter	Key.enter	n/a
380.0315	18.607	760063	prompt	n/a	jesus dash thousands spain\n
380.8635	0.075	761727	keystroke_j	j	n/a
381.0885	0.09	762177	keystroke_e	e	n/a
381.3435	0.06	762687	keystroke_s	s	n/a
381.4935	0.09	762987	keystroke_u	u	n/a
381.5685	0.075	763137	keystroke_s	s	n/a
382.1385	0.09	764277	keystroke_Key.space	Key.space	n/a
382.3335	0.15	764667	keystroke_d	d	n/a
382.5885	0.12	765177	keystroke_a	a	n/a
382.8135	0.09	765627	keystroke_s	s	n/a
382.9785	0.06	765957	keystroke_h	h	n/a
383.1735	0.075	766347	keystroke_Key.space	Key.space	n/a
383.6235	0.1045	767247	keystroke_t	t	n/a
383.743	0.075	767486	keystroke_h	h	n/a
383.908	0.135	767816	keystroke_o	o	n/a
383.998	0.12	767996	keystroke_u	u	n/a
385.543	0.09	771086	keystroke_s	s	n/a
385.738	0.06	771476	keystroke_n	n	n/a
385.843	0.09	771686	keystroke_a	a	n/a
386.173	0.12	772346	keystroke_d	d	n/a
386.503	0.075	773006	keystroke_s	s	n/a
387.4625	0.075	774925	keystroke_Key.space	Key.space	n/a
387.7025	0.105	775405	keystroke_s	s	n/a
387.8375	0.105	775675	keystroke_p	p	n/a
388.0475	0.075	776095	keystroke_a	a	n/a
388.1675	0.15	776335	keystroke_i	i	n/a
388.3025	0.075	776605	keystroke_n	n	n/a
393.3895	0	786779	keystroke_Key.backspace	Key.backspace	n/a
393.4765	0.06	786953	keystroke_Key.backspace	Key.backspace	n/a
393.6265	0.06	787253	keystroke_Key.backspace	Key.backspace	n/a
393.7765	0.06	787553	keystroke_Key.backspace	Key.backspace	n/a
393.9415	0.06	787883	keystroke_Key.backspace	Key.backspace	n/a
394.0915	0.06	788183	keystroke_Key.backspace	Key.backspace	n/a
394.2565	0.06	788513	keystroke_Key.backspace	Key.backspace	n/a
394.4215	0.06	788843	keystroke_Key.backspace	Key.backspace	n/a
395.0065	0.075	790013	keystroke_Key.backspace	Key.backspace	n/a
395.1715	0.09	790343	keystroke_Key.backspace	Key.backspace	n/a
395.651	0.1205	791302	keystroke_a	a	n/a
395.831	0.105	791662	keystroke_n	n	n/a
396.026	0.135	792052	keystroke_d	d	n/a
396.206	0.105	792412	keystroke_s	s	n/a
396.491	0.075	792982	keystroke_Key.space	Key.space	n/a
397.046	0.075	794092	keystroke_s	s	n/a
397.151	0.09	794302	keystroke_p	p	n/a
397.301	0.105	794602	keystroke_a	a	n/a
397.421	0.18	794842	keystroke_i	i	n/a
397.602	0.059	795204	keystroke_n	n	n/a
398.576	0.06	797152	keystroke_Key.enter	Key.enter	n/a
398.6435	11.1525	797287	prompt	n/a	pharmacies pavilion responsible board\n
399.446	0.09	798892	keystroke_p	p	n/a
399.671	0.075	799342	keystroke_h	h	n/a
400.061	0.09	800122	keystroke_a	a	n/a
400.316	0.0745	800632	keystroke_r	r	n/a
400.6005	0.06	801201	keystroke_m	m	n/a
401.2305	0.09	802461	keystroke_a	a	n/a
401.3955	0.105	802791	keystroke_c	c	n/a
401.5905	0.09	803181	keystroke_i	i	n/a
401.8005	0.09	803601	keystroke_e	e	n/a
401.9955	0.09	803991	keystroke_s	s	n/a
402.1605	0.075	804321	keystroke_Key.space	Key.space	n/a
402.67	0.075	805340	keystroke_p	p	n/a
402.805	0.12	805610	keystroke_a	a	n/a
403.1055	0.105	806211	keystroke_v	v	n/a
403.5845	0.076	807169	keystroke_i	i	n/a
403.9305	0.06	807861	keystroke_l	l	n/a
404.0955	0.2395	808191	keystroke_i	i	n/a
404.275	0.1495	808550	keystroke_o	o	n/a
404.3655	0.12	808731	keystroke_n	n	n/a
404.6945	0.061	809389	keystroke_Key.space	Key.space	n/a
405.43	0.09	810860	keystroke_r	r	n/a
405.46	0.12	810920	keystroke_e	e	n/a
405.685	0.09	811370	keystroke_s	s	n/a
405.82	0.09	811640	keystroke_p	p	n/a
406.015	0.135	812030	keystroke_o	o	n/a
406.345	0.074	812690	keystroke_n	n	n/a
406.93	0.06	813860	keystroke_s	s	n/a
407.065	0.09	814130	keystroke_i	i	n/a
407.275	0.089	814550	keystroke_b	b	n/a
407.44	0.09	814880	keystroke_l	l	n/a
407.559	0.091	815118	keystroke_e	e	n/a
407.665	0.089	815330	keystroke_Key.space	Key.space	n/a
408.114	0.076	816228	keystroke_b	b	n/a
408.294	0.091	816588	keystroke_o	o	n/a
408.49	0.1345	816980	keystroke_a	a	n/a
408.7745	0.09	817549	keystroke_r	r	n/a
409.0295	0.105	818059	keystroke_d	d	n/a
409.7195	0.075	819439	keystroke_Key.enter	Key.enter	n/a
409.803	9.352	819606	prompt	n/a	growing precious doll exceptional\n
411.099	0.059	822198	keystroke_g	g	n/a
411.309	0.09	822618	keystroke_r	r	n/a
411.594	0.09	823188	keystroke_o	o	n/a
411.744	0.104	823488	keystroke_w	w	n/a
411.879	0.15	823758	keystroke_i	i	n/a
411.999	0.105	823998	keystroke_n	n	n/a
412.134	0.075	824268	keystroke_g	g	n/a
412.298	0.061	824596	keystroke_Key.space	Key.space	n/a
412.884	0.09	825768	keystroke_p	p	n/a
413.019	0.12	826038	keystroke_r	r	n/a
413.094	0.105	826188	keystroke_e	e	n/a
413.379	0.105	826758	keystroke_c	c	n/a
413.589	0.09	827178	keystroke_i	i	n/a
413.874	0.165	827748	keystroke_o	o	n/a
413.994	0.09	827988	keystroke_u	u	n/a
414.204	0.105	828408	keystroke_s	s	n/a
414.489	0.0595	828978	keystroke_Key.space	Key.space	n/a
414.9235	0.075	829847	keystroke_d	d	n/a
415.0585	0.09	830117	keystroke_o	o	n/a
415.3135	0.075	830627	keystroke_l	l	n/a
415.4635	0.09	830927	keystroke_l	l	n/a
415.6735	0.09	831347	keystroke_Key.space	Key.space	n/a
416.1085	0.06	832217	keystroke_e	e	n/a
416.4235	0.075	832847	keystroke_x	x	n/a
416.6935	0.06	833387	keystroke_c	c	n/a
416.8735	0.09	833747	keystroke_e	e	n/a
417.3385	0.09	834677	keystroke_p	p	n/a
417.6385	0.075	835277	keystroke_t	t	n/a
417.6685	0.15	835337	keystroke_i	i	n/a
417.7585	0.15	835517	keystroke_o	o	n/a
417.8485	0.12	835697	keystroke_n	n	n/a
418.1035	0.105	836207	keystroke_a	a	n/a
418.2385	0.09	836477	keystroke_l	l	n/a
419.093	0.06	838186	keystroke_Key.enter	Key.enter	n/a
419.161	14.6815	838322	prompt	n/a	spots banned davidson formerly\n
419.903	0.06	839806	keystroke_s	s	n/a
420.008	0.09	840016	keystroke_p	p	n/a
420.218	0.09	840436	keystroke_o	o	n/a
420.593	0.09	841186	keystroke_t	t	n/a
420.833	0.06	841666	keystroke_s	s	n/a
420.998	0.075	841996	keystroke_Key.space	Key.space	n/a
421.433	0.09	842866	keystroke_b	b	n/a
421.628	0.09	843256	keystroke_a	a	n/a
421.823	0.045	843646	keystroke_n	n	n/a
421.958	0.075	843916	keystroke_n	n	n/a
422.123	0.0745	844246	keystroke_e	e	n/a
422.3025	0.09	844605	keystroke_d	d	n/a
422.4075	0.09	844815	keystroke_Key.space	Key.space	n/a
422.9025	0.105	845805	keystroke_d	d	n/a
423.1125	0.135	846225	keystroke_a	a	n/a
423.7575	0.075	847515	keystroke_i	i	n/a
423.9075	0.075	847815	keystroke_v	v	n/a
424.2825	0.06	848565	keystroke_i	i	n/a
424.7775	0.075	849555	keystroke_d	d	n/a
425.4225	0.09	850845	keystroke_Key.backspace	Key.backspace	n/a
425.6025	0.06	851205	keystroke_Key.backspace	Key.backspace	n/a
425.7525	0.06	851505	keystroke_Key.backspace	Key.backspace	n/a
425.9025	0.075	851805	keystroke_Key.backspace	Key.backspace	n/a
426.2475	0.075	852495	keystroke_v	v	n/a
426.3975	0.09	852795	keystroke_i	i	n/a
426.5925	0.105	853185	keystroke_d	d	n/a
426.9525	0.09	853905	keystroke_s	s	n/a
427.0875	0.105	854175	keystroke_o	o	n/a
427.162	0.0905	854324	keystroke_n	n	n/a
427.432	0.06	854864	keystroke_Key.space	Key.space	n/a
427.672	0.06	855344	keystroke_f	f	n/a
428.377	0.0755	856754	keystroke_o	o	n/a
428.737	0.075	857474	keystroke_r	r	n/a
429.292	0.06	858584	keystroke_m	m	n/a
429.397	0.165	858794	keystroke_e	e	n/a
429.487	0.12	858974	keystroke_r	r	n/a
429.847	0.09	859694	keystroke_l	l	n/a
430.057	0.075	860114	keystroke_y	y	n/a
433.84	0	867680	keystroke_Key.enter	Key.enter	n/a
433.8475	10.084	867695	prompt	n/a	helen alone portable cellular\n
434.6615	0.075	869323	keystroke_h	h	n/a
435.1715	0.06	870343	keystroke_e	e	n/a
435.3965	0.075	870793	keystroke_l	l	n/a
435.4865	0.075	870973	keystroke_e	e	n/a
435.6965	0.06	871393	keystroke_n	n	n/a
435.9065	0.075	871813	keystroke_Key.space	Key.space	n/a
436.206	0.105	872412	keystroke_a	a	n/a
436.326	0.06	872652	keystroke_l	l	n/a
436.491	0.105	872982	keystroke_o	o	n/a
436.581	0.12	873162	keystroke_n	n	n/a
436.776	0.075	873552	keystroke_e	e	n/a
436.896	0.075	873792	keystroke_Key.space	Key.space	n/a
437.1205	0.06	874241	keystroke_p	p	n/a
437.331	0.1045	874662	keystroke_o	o	n/a
437.4805	0.09	874961	keystroke_r	r	n/a
437.6905	0.075	875381	keystroke_t	t	n/a
437.9155	0.09	875831	keystroke_a	a	n/a
438.0505	0.075	876101	keystroke_b	b	n/a
438.2005	0.105	876401	keystroke_l	l	n/a
438.3505	0.06	876701	keystroke_e	e	n/a
438.4705	0.075	876941	keystroke_Key.space	Key.space	n/a
438.8155	0.09	877631	keystroke_c	c	n/a
439.0105	0.075	878021	keystroke_e	e	n/a
439.2655	0.06	878531	keystroke_l	l	n/a
439.3855	0.09	878771	keystroke_l	l	n/a
439.5505	0.09	879101	keystroke_u	u	n/a
441.14	0.075	882280	keystroke_Key.backspace	Key.backspace	n/a
442.19	0.06	884380	keystroke_u	u	n/a
442.7145	0.075	885429	keystroke_l	l	n/a
442.8795	0.135	885759	keystroke_a	a	n/a
443.0445	0.12	886089	keystroke_r	r	n/a
443.8695	0.06	887739	keystroke_Key.enter	Key.enter	n/a
443.9355	7.5715	887871	prompt	n/a	lover editorials great county\n
444.6495	0.075	889299	keystroke_l	l	n/a
444.8295	0.075	889659	keystroke_o	o	n/a
444.8745	0.105	889749	keystroke_v	v	n/a
445.0395	0.15	890079	keystroke_e	e	n/a
445.1295	0.09	890259	keystroke_r	r	n/a
445.2495	0.075	890499	keystroke_Key.space	Key.space	n/a
445.4745	0.045	890949	keystroke_e	e	n/a
445.6395	0.09	891279	keystroke_d	d	n/a
445.7745	0.09	891549	keystroke_i	i	n/a
445.9995	0.09	891999	keystroke_t	t	n/a
446.1195	0.105	892239	keystroke_o	o	n/a
446.3295	0.09	892659	keystroke_r	r	n/a
446.4645	0.105	892929	keystroke_i	i	n/a
446.6745	0.075	893349	keystroke_a	a	n/a
446.7795	0.075	893559	keystroke_l	l	n/a
447.1845	0.09	894369	keystroke_s	s	n/a
447.3195	0.06	894639	keystroke_Key.space	Key.space	n/a
448.324	0.075	896648	keystroke_g	g	n/a
448.549	0.12	897098	keystroke_r	r	n/a
448.639	0.12	897278	keystroke_e	e	n/a
448.894	0.135	897788	keystroke_a	a	n/a
449.134	0.09	898268	keystroke_t	t	n/a
449.329	0.075	898658	keystroke_Key.space	Key.space	n/a
449.764	0.09	899528	keystroke_c	c	n/a
449.884	0.12	899768	keystroke_o	o	n/a
449.989	0.12	899978	keystroke_u	u	n/a
450.244	0.075	900488	keystroke_n	n	n/a
450.499	0.075	900998	keystroke_t	t	n/a
450.634	0.09	901268	keystroke_y	y	n/a
451.429	0.075	902858	keystroke_Key.enter	Key.enter	n/a
451.5145	17.524	903029	prompt	n/a	virus asylum why're vulnerable\n
452.239	0.075	904478	keystroke_v	v	n/a
452.449	0.09	904898	keystroke_i	i	n/a
452.6735	0.075	905347	keystroke_r	r	n/a
452.8385	0.075	905677	keystroke_u	u	n/a
452.9735	0.09	905947	keystroke_s	s	n/a
453.1985	0.09	906397	keystroke_Key.space	Key.space	n/a
453.9335	0.09	907867	keystroke_a	a	n/a
454.1435	0.105	908287	keystroke_s	s	n/a
454.368	0.075	908736	keystroke_u	u	n/a
454.8935	0.09	909787	keystroke_l	l	n/a
455.148	0.09	910296	keystroke_u	u	n/a
455.403	0.06	910806	keystroke_m	m	n/a
455.643	0.075	911286	keystroke_Key.space	Key.space	n/a
456.663	0.09	913326	keystroke_Key.backspace	Key.backspace	n/a
456.828	0.075	913656	keystroke_Key.backspace	Key.backspace	n/a
456.993	0.075	913986	keystroke_Key.backspace	Key.backspace	n/a
457.173	0.06	914346	keystroke_Key.backspace	Key.backspace	n/a
457.338	0.06	914676	keystroke_Key.backspace	Key.backspace	n/a
458.463	0.075	916926	keystroke_y	y	n/a
458.838	0.075	917676	keystroke_l	l	n/a
459.048	0.09	918096	keystroke_u	u	n/a
460.2625	0.06	920525	keystroke_m	m	n/a
460.5175	0.045	921035	keystroke_Key.space	Key.space	n/a
464.735	0.027	929470	keystroke_w	w	n/a
464.777	0.046	929554	keystroke_h	h	n/a
464.942	0.06	929884	keystroke_y	y	n/a
465.167	0.09	930334	keystroke_'	'	n/a
465.317	0.09	930634	keystroke_r	r	n/a
465.347	0.135	930694	keystroke_e	e	n/a
465.707	0.06	931414	keystroke_Key.space	Key.space	n/a
466.202	0.075	932404	keystroke_v	v	n/a
466.382	0.075	932764	keystroke_u	u	n/a
466.622	0.075	933244	keystroke_l	l	n/a
466.8165	0.075	933633	keystroke_n	n	n/a
467.0715	0.12	934143	keystroke_e	e	n/a
467.1315	0.09	934263	keystroke_r	r	n/a
467.7465	0.09	935493	keystroke_a	a	n/a
467.9115	0.075	935823	keystroke_b	b	n/a
468.0915	0.075	936183	keystroke_l	l	n/a
468.2265	0.075	936453	keystroke_e	e	n/a
468.9765	0.06	937953	keystroke_Key.enter	Key.enter	n/a
469.0425	14.8595	938085	prompt	n/a	subsidiaries comparative automobiles there'd\n
469.831	0.06	939662	keystroke_s	s	n/a
470.1615	0.075	940323	keystroke_u	u	n/a
470.4165	0.075	940833	keystroke_b	b	n/a
470.6865	0.075	941373	keystroke_s	s	n/a
470.8065	0.09	941613	keystroke_i	i	n/a
471.136	0.075	942272	keystroke_d	d	n/a
471.6615	0.0895	943323	keystroke_i	i	n/a
471.946	0.12	943892	keystroke_a	a	n/a
473.251	0.075	946502	keystroke_r	r	n/a
473.431	0.09	946862	keystroke_i	i	n/a
473.566	0.075	947132	keystroke_e	e	n/a
473.731	0.1045	947462	keystroke_s	s	n/a
473.9855	0.06	947971	keystroke_Key.space	Key.space	n/a
474.5255	0.06	949051	keystroke_c	c	n/a
474.6305	0.1355	949261	keystroke_o	o	n/a
474.751	0.09	949502	keystroke_m	m	n/a
474.931	0.09	949862	keystroke_p	p	n/a
475.081	0.105	950162	keystroke_a	a	n/a
475.756	0.105	951512	keystroke_r	r	n/a
475.996	0.09	951992	keystroke_a	a	n/a
476.161	0.09	952322	keystroke_t	t	n/a
476.266	0.0895	952532	keystroke_i	i	n/a
476.4155	0.135	952831	keystroke_v	v	n/a
476.5805	0.12	953161	keystroke_e	e	n/a
477.1205	0.06	954241	keystroke_Key.space	Key.space	n/a
477.6305	0.09	955261	keystroke_a	a	n/a
477.8405	0.075	955681	keystroke_u	u	n/a
478.0955	0.09	956191	keystroke_t	t	n/a
478.3205	0.09	956641	keystroke_o	o	n/a
478.5155	0.075	957031	keystroke_m	m	n/a
478.6955	0.09	957391	keystroke_o	o	n/a
478.9655	0.09	957931	keystroke_b	b	n/a
479.1905	0.105	958381	keystroke_i	i	n/a
479.4005	0.09	958801	keystroke_l	l	n/a
479.5505	0.105	959101	keystroke_e	e	n/a
479.7605	0.09	959521	keystroke_s	s	n/a
479.8655	0.06	959731	keystroke_Key.space	Key.space	n/a
480.9905	0.06	961981	keystroke_t	t	n/a
481.1105	0.06	962221	keystroke_h	h	n/a
481.2615	0.09	962523	keystroke_e	e	n/a
481.3055	0.165	962611	keystroke_r	r	n/a
481.455	0.105	962910	keystroke_e	e	n/a
481.77	0.075	963540	keystroke_'	'	n/a
482.04	0.045	964080	keystroke_d	d	n/a
482.205	0.06	964410	keystroke_Key.space	Key.space	n/a
483.375	0.06	966750	keystroke_Key.backspace	Key.backspace	n/a
483.84	0.06	967680	keystroke_Key.enter	Key.enter	n/a
483.9075	8.7245	967815	prompt	n/a	situation tabs exploring consulting\n
484.65	0.06	969300	keystroke_s	s	n/a
484.98	0.075	969960	keystroke_i	i	n/a
485.25	0.12	970500	keystroke_t	t	n/a
485.475	0.06	970950	keystroke_u	u	n/a
486.151	0.089	972302	keystroke_a	a	n/a
486.33	0.09	972660	keystroke_t	t	n/a
486.36	0.1195	972720	keystroke_i	i	n/a
486.4645	0.135	972929	keystroke_o	o	n/a
486.5245	0.12	973049	keystroke_n	n	n/a
486.7345	0.09	973469	keystroke_Key.space	Key.space	n/a
487.0045	0.09	974009	keystroke_t	t	n/a
487.1545	0.12	974309	keystroke_a	a	n/a
487.2595	0.09	974519	keystroke_b	b	n/a
487.4245	0.09	974849	keystroke_s	s	n/a
487.5745	0.075	975149	keystroke_Key.space	Key.space	n/a
488.0245	0.06	976049	keystroke_e	e	n/a
488.3105	0.089	976621	keystroke_x	x	n/a
488.4595	0.09	976919	keystroke_p	p	n/a
488.6395	0.075	977279	keystroke_l	l	n/a
488.8195	0.075	977639	keystroke_o	o	n/a
489.0295	0.075	978059	keystroke_r	r	n/a
489.0895	0.135	978179	keystroke_i	i	n/a
489.2095	0.075	978419	keystroke_n	n	n/a
489.3295	0.075	978659	keystroke_g	g	n/a
489.4495	0.075	978899	keystroke_Key.space	Key.space	n/a
490.1395	0.06	980279	keystroke_c	c	n/a
490.2305	0.135	980461	keystroke_o	o	n/a
490.3495	0.075	980699	keystroke_n	n	n/a
490.935	0.074	981870	keystroke_s	s	n/a
491.114	0.06	982228	keystroke_u	u	n/a
491.339	0.09	982678	keystroke_l	l	n/a
491.444	0.09	982888	keystroke_t	t	n/a
491.549	0.12	983098	keystroke_i	i	n/a
491.654	0.091	983308	keystroke_n	n	n/a
491.789	0.075	983578	keystroke_g	g	n/a
492.569	0.06	985138	keystroke_Key.enter	Key.enter	n/a
492.643	14.4915	985286	prompt	n/a	fabric gravity systematic volvo\n
493.635	0.075	987270	keystroke_f	f	n/a
493.815	0.104	987630	keystroke_a	a	n/a
494.55	0.059	989100	keystroke_c	c	n/a
494.969	0.075	989938	keystroke_Key.backspace	Key.backspace	n/a
495.255	0.059	990510	keystroke_b	b	n/a
495.51	0.059	991020	keystroke_r	r	n/a
495.599	0.075	991198	keystroke_i	i	n/a
495.884	0.075	991768	keystroke_c	c	n/a
496.0645	0.074	992129	keystroke_Key.space	Key.space	n/a
496.5145	0.074	993029	keystroke_g	g	n/a
496.7085	0.091	993417	keystroke_r	r	n/a
497.053	0.121	994106	keystroke_a	a	n/a
497.474	0.06	994948	keystroke_v	v	n/a
497.714	0.075	995428	keystroke_i	i	n/a
498.014	0.075	996028	keystroke_t	t	n/a
498.134	0.044	996268	keystroke_i	i	n/a
498.403	0.061	996806	keystroke_y	y	n/a
498.8375	0.075	997675	keystroke_Key.backspace	Key.backspace	n/a
498.9885	0.089	997977	keystroke_Key.backspace	Key.backspace	n/a
499.5425	0.046	999085	keystroke_u	u	n/a
499.9475	0.075	999895	keystroke_Key.backspace	Key.backspace	n/a
500.1885	0.075	1000377	keystroke_u	u	n/a
500.9375	0.075	1001875	keystroke_Key.backspace	Key.backspace	n/a
501.7785	0.044	1003557	keystroke_y	y	n/a
502.0325	0.061	1004065	keystroke_Key.space	Key.space	n/a
502.752	0.076	1005504	keystroke_s	s	n/a
502.902	0.106	1005804	keystroke_y	y	n/a
503.172	0.09	1006344	keystroke_s	s	n/a
503.368	0.134	1006736	keystroke_t	t	n/a
503.518	0.104	1007036	keystroke_e	e	n/a
503.787	0.076	1007574	keystroke_m	m	n/a
504.208	0.1045	1008416	keystroke_a	a	n/a
504.3425	0.12	1008685	keystroke_t	t	n/a
504.4465	0.091	1008893	keystroke_i	i	n/a
504.6275	0.074	1009255	keystroke_c	c	n/a
504.7465	0.09	1009493	keystroke_Key.space	Key.space	n/a
505.2565	0.076	1010513	keystroke_v	v	n/a
505.4675	0.09	1010935	keystroke_o	o	n/a
505.6925	0.075	1011385	keystroke_l	l	n/a
505.9175	0.09	1011835	keystroke_v	v	n/a
506.1125	0.075	1012225	keystroke_o	o	n/a
507.0715	0.06	1014143	keystroke_Key.enter	Key.enter	n/a
507.1405	6.083	1014281	prompt	n/a	brain laura tanks polls\n
507.9265	0.076	1015853	keystroke_b	b	n/a
508.0765	0.12	1016153	keystroke_r	r	n/a
508.2575	0.119	1016515	keystroke_a	a	n/a
508.3925	0.15	1016785	keystroke_i	i	n/a
508.5115	0.091	1017023	keystroke_n	n	n/a
508.7065	0.09	1017413	keystroke_Key.space	Key.space	n/a
508.9025	0.09	1017805	keystroke_l	l	n/a
509.0375	0.075	1018075	keystroke_a	a	n/a
509.1265	0.075	1018253	keystroke_u	u	n/a
509.4875	0.12	1018975	keystroke_r	r	n/a
509.6825	0.105	1019365	keystroke_a	a	n/a
509.8165	0.075	1019633	keystroke_Key.space	Key.space	n/a
510.2825	0.09	1020565	keystroke_t	t	n/a
510.4625	0.12	1020925	keystroke_a	a	n/a
510.5975	0.135	1021195	keystroke_n	n	n/a
510.7175	0.15	1021435	keystroke_k	k	n/a
510.9265	0.091	1021853	keystroke_s	s	n/a
511.0765	0.076	1022153	keystroke_Key.space	Key.space	n/a
511.7825	0.105	1023565	keystroke_p	p	n/a
512.0075	0.09	1024015	keystroke_o	o	n/a
512.2925	0.075	1024585	keystroke_l	l	n/a
512.4275	0.075	1024855	keystroke_l	l	n/a
512.5925	0.0595	1025185	keystroke_s	s	n/a
513.1775	0.0435	1026355	keystroke_Key.enter	Key.enter	n/a
513.229	7.285	1026458	prompt	n/a	addressing echo states fairy\n
514.272	0.09	1028544	keystroke_a	a	n/a
514.557	0.06	1029114	keystroke_d	d	n/a
514.647	0.09	1029294	keystroke_d	d	n/a
515.217	0.105	1030434	keystroke_r	r	n/a
515.292	0.105	1030584	keystroke_e	e	n/a
515.862	0.045	1031724	keystroke_s	s	n/a
516.012	0.045	1032024	keystroke_s	s	n/a
516.117	0.15	1032234	keystroke_i	i	n/a
516.252	0.075	1032504	keystroke_n	n	n/a
516.342	0.075	1032684	keystroke_g	g	n/a
516.537	0.075	1033074	keystroke_Key.space	Key.space	n/a
516.732	0.06	1033464	keystroke_e	e	n/a
516.911	0.106	1033822	keystroke_c	c	n/a
517.062	0.075	1034124	keystroke_h	h	n/a
517.227	0.09	1034454	keystroke_o	o	n/a
517.421	0.09	1034842	keystroke_Key.space	Key.space	n/a
517.7515	0.075	1035503	keystroke_s	s	n/a
517.8865	0.09	1035773	keystroke_t	t	n/a
518.0815	0.09	1036163	keystroke_a	a	n/a
518.2315	0.135	1036463	keystroke_t	t	n/a
518.3815	0.06	1036763	keystroke_e	e	n/a
518.5465	0.075	1037093	keystroke_s	s	n/a
518.6965	0.06	1037393	keystroke_Key.space	Key.space	n/a
518.9815	0.075	1037963	keystroke_f	f	n/a
519.1765	0.09	1038353	keystroke_a	a	n/a
519.3265	0.105	1038653	keystroke_i	i	n/a
519.5965	0.06	1039193	keystroke_r	r	n/a
519.7315	0.075	1039463	keystroke_y	y	n/a
520.4515	0.06	1040903	keystroke_Key.enter	Key.enter	n/a
520.52	6.8635	1041040	prompt	n/a	market justin feed primary\n
521.2315	0.06	1042463	keystroke_m	m	n/a
521.4415	0.09	1042883	keystroke_a	a	n/a
521.6365	0.075	1043273	keystroke_r	r	n/a
521.7565	0.075	1043513	keystroke_k	k	n/a
521.8615	0.18	1043723	keystroke_e	e	n/a
522.401	0.0755	1044802	keystroke_t	t	n/a
522.641	0.075	1045282	keystroke_Key.space	Key.space	n/a
523.226	0.075	1046452	keystroke_j	j	n/a
523.421	0.0755	1046842	keystroke_u	u	n/a
523.5565	0.105	1047113	keystroke_s	s	n/a
523.6915	0.105	1047383	keystroke_t	t	n/a
523.8715	0.12	1047743	keystroke_i	i	n/a
523.9765	0.09	1047953	keystroke_n	n	n/a
524.156	0.075	1048312	keystroke_Key.space	Key.space	n/a
524.426	0.075	1048852	keystroke_f	f	n/a
524.711	0.045	1049422	keystroke_e	e	n/a
524.846	0.045	1049692	keystroke_e	e	n/a
524.996	0.105	1049992	keystroke_d	d	n/a
525.131	0.075	1050262	keystroke_Key.space	Key.space	n/a
525.431	0.09	1050862	keystroke_p	p	n/a
525.596	0.09	1051192	keystroke_r	r	n/a
525.716	0.12	1051432	keystroke_i	i	n/a
525.911	0.09	1051822	keystroke_m	m	n/a
526.106	0.12	1052212	keystroke_a	a	n/a
526.271	0.105	1052542	keystroke_r	r	n/a
526.496	0.06	1052992	keystroke_y	y	n/a
527.321	0.06	1054642	keystroke_Key.enter	Key.enter	n/a
527.389	7.6735	1054778	prompt	n/a	species techno pink best\n
528.071	0.075	1056142	keystroke_s	s	n/a
528.206	0.09	1056412	keystroke_p	p	n/a
528.371	0.09	1056742	keystroke_e	e	n/a
528.581	0.105	1057162	keystroke_c	c	n/a
528.791	0.09	1057582	keystroke_i	i	n/a
529.2705	0.06	1058541	keystroke_e	e	n/a
529.4805	0.075	1058961	keystroke_s	s	n/a
530.1105	0.06	1060221	keystroke_Key.space	Key.space	n/a
530.6205	0.12	1061241	keystroke_t	t	n/a
530.7865	0.119	1061573	keystroke_e	e	n/a
531.0555	0.09	1062111	keystroke_c	c	n/a
531.746	0.075	1063492	keystroke_h	h	n/a
532.211	0.06	1064422	keystroke_n	n	n/a
532.361	0.09	1064722	keystroke_o	o	n/a
532.616	0.075	1065232	keystroke_Key.space	Key.space	n/a
532.8105	0.09	1065621	keystroke_p	p	n/a
532.9755	0.12	1065951	keystroke_i	i	n/a
533.1105	0.135	1066221	keystroke_n	n	n/a
533.2605	0.09	1066521	keystroke_k	k	n/a
533.4255	0.105	1066851	keystroke_Key.space	Key.space	n/a
533.8005	0.075	1067601	keystroke_b	b	n/a
533.9355	0.09	1067871	keystroke_e	e	n/a
534.1005	0.135	1068201	keystroke_s	s	n/a
534.2505	0.12	1068501	keystroke_t	t	n/a
534.9855	0.075	1069971	keystroke_Key.enter	Key.enter	n/a
535.0685	8.4385	1070137	prompt	n/a	where guitars constant overnight\n
535.7805	0.09	1071561	keystroke_w	w	n/a
535.975	0.075	1071950	keystroke_h	h	n/a
536.11	0.12	1072220	keystroke_e	e	n/a
536.2	0.165	1072400	keystroke_r	r	n/a
536.32	0.105	1072640	keystroke_e	e	n/a
536.53	0.06	1073060	keystroke_Key.space	Key.space	n/a
536.95	0.06	1073900	keystroke_g	g	n/a
537.13	0.075	1074260	keystroke_u	u	n/a
537.385	0.075	1074770	keystroke_i	i	n/a
537.94	0.075	1075880	keystroke_t	t	n/a
538.195	0.075	1076390	keystroke_a	a	n/a
538.36	0.075	1076720	keystroke_r	r	n/a
538.81	0.075	1077620	keystroke_s	s	n/a
539.215	0.06	1078430	keystroke_Key.space	Key.space	n/a
539.425	0.105	1078850	keystroke_c	c	n/a
539.56	0.105	1079120	keystroke_o	o	n/a
539.635	0.09	1079270	keystroke_n	n	n/a
539.875	0.105	1079750	keystroke_s	s	n/a
540.115	0.09	1080230	keystroke_t	t	n/a
540.325	0.105	1080650	keystroke_a	a	n/a
540.445	0.06	1080890	keystroke_n	n	n/a
540.595	0.09	1081190	keystroke_t	t	n/a
540.805	0.075	1081610	keystroke_Key.space	Key.space	n/a
541.285	0.09	1082570	keystroke_o	o	n/a
541.405	0.075	1082810	keystroke_v	v	n/a
541.555	0.1345	1083110	keystroke_e	e	n/a
541.6295	0.075	1083259	keystroke_r	r	n/a
541.8245	0.075	1083649	keystroke_n	n	n/a
541.9895	0.075	1083979	keystroke_i	i	n/a
542.0945	0.06	1084189	keystroke_g	g	n/a
542.1995	0.09	1084399	keystroke_h	h	n/a
542.3045	0.075	1084609	keystroke_t	t	n/a
543.4445	0.06	1086889	keystroke_Key.enter	Key.enter	n/a
543.5135	13.541	1087027	prompt	n/a	buses damaged racing scholarships\n
544.5245	0.075	1089049	keystroke_b	b	n/a
544.7645	0.075	1089529	keystroke_u	u	n/a
544.9895	0.105	1089979	keystroke_s	s	n/a
545.2145	0.105	1090429	keystroke_e	e	n/a
545.3945	0.09	1090789	keystroke_s	s	n/a
545.5745	0.075	1091149	keystroke_Key.space	Key.space	n/a
545.8295	0.12	1091659	keystroke_d	d	n/a
546.0245	0.09	1092049	keystroke_a	a	n/a
546.1445	0.09	1092289	keystroke_m	m	n/a
546.5495	0.12	1093099	keystroke_a	a	n/a
546.7895	0.075	1093579	keystroke_g	g	n/a
546.9095	0.105	1093819	keystroke_e	e	n/a
547.2395	0.09	1094479	keystroke_d	d	n/a
547.5245	0.06	1095049	keystroke_Key.space	Key.space	n/a
548.6495	0.075	1097299	keystroke_r	r	n/a
548.6945	0.09	1097389	keystroke_e	e	n/a
548.8895	0.195	1097779	keystroke_a	a	n/a
549.954	0.09	1099908	keystroke_Key.backspace	Key.backspace	n/a
550.119	0.09	1100238	keystroke_Key.backspace	Key.backspace	n/a
550.389	0.135	1100778	keystroke_a	a	n/a
550.554	0.09	1101108	keystroke_c	c	n/a
550.809	0.15	1101618	keystroke_i	i	n/a
550.944	0.09	1101888	keystroke_n	n	n/a
551.094	0.09	1102188	keystroke_g	g	n/a
551.934	0.075	1103868	keystroke_Key.space	Key.space	n/a
552.144	0.09	1104288	keystroke_s	s	n/a
552.279	0.105	1104558	keystroke_c	c	n/a
552.369	0.09	1104738	keystroke_h	h	n/a
552.624	0.075	1105248	keystroke_o	o	n/a
552.804	0.105	1105608	keystroke_l	l	n/a
552.999	0.135	1105998	keystroke_a	a	n/a
553.179	0.105	1106358	keystroke_r	r	n/a
553.494	0.06	1106988	keystroke_s	s	n/a
553.539	0.105	1107078	keystroke_h	h	n/a
553.689	0.165	1107378	keystroke_i	i	n/a
553.869	0.12	1107738	keystroke_p	p	n/a
554.109	0.105	1108218	keystroke_s	s	n/a
557.052	0	1114104	keystroke_Key.enter	Key.enter	n/a
557.0595	11.0155	1114119	prompt	n/a	lunch election highland peak\n
558.9385	0.0755	1117877	keystroke_l	l	n/a
559.134	0.06	1118268	keystroke_u	u	n/a
559.299	0.0745	1118598	keystroke_c	c	n/a
559.359	0.075	1118718	keystroke_n	n	n/a
559.839	0.075	1119678	keystroke_Key.backspace	Key.backspace	n/a
559.989	0.075	1119978	keystroke_Key.backspace	Key.backspace	n/a
560.2285	0.075	1120457	keystroke_n	n	n/a
560.3935	0.091	1120787	keystroke_c	c	n/a
560.5135	0.045	1121027	keystroke_h	h	n/a
561.2635	0.075	1122527	keystroke_Key.space	Key.space	n/a
561.5035	0.0605	1123007	keystroke_e	e	n/a
561.579	0.075	1123158	keystroke_l	l	n/a
561.714	0.0595	1123428	keystroke_e	e	n/a
562.6285	0.09	1125257	keystroke_c	c	n/a
562.9435	0.075	1125887	keystroke_t	t	n/a
563.0335	0.105	1126067	keystroke_i	i	n/a
563.0785	0.15	1126157	keystroke_o	o	n/a
563.1985	0.09	1126397	keystroke_n	n	n/a
563.4535	0.06	1126907	keystroke_Key.space	Key.space	n/a
564.4735	0.075	1128947	keystroke_h	h	n/a
564.6235	0.09	1129247	keystroke_i	i	n/a
564.8335	0.06	1129667	keystroke_g	g	n/a
564.8935	0.09	1129787	keystroke_h	h	n/a
565.1785	0.09	1130357	keystroke_l	l	n/a
565.3285	0.105	1130657	keystroke_a	a	n/a
565.5835	0.06	1131167	keystroke_n	n	n/a
565.763	0.09	1131526	keystroke_d	d	n/a
565.913	0.075	1131826	keystroke_Key.space	Key.space	n/a
566.198	0.09	1132396	keystroke_p	p	n/a
566.318	0.12	1132636	keystroke_e	e	n/a
566.468	0.15	1132936	keystroke_a	a	n/a
567.653	0.06	1135306	keystroke_k	k	n/a
568.028	0.0445	1136056	keystroke_Key.enter	Key.enter	n/a
568.0845	11.15	1136169	prompt	n/a	spectrum victims universal episodes\n
569.0475	0.09	1138095	keystroke_s	s	n/a
569.1675	0.105	1138335	keystroke_p	p	n/a
569.3475	0.105	1138695	keystroke_e	e	n/a
569.5725	0.105	1139145	keystroke_c	c	n/a
569.8425	0.09	1139685	keystroke_t	t	n/a
570.0375	0.075	1140075	keystroke_r	r	n/a
570.2175	0.03	1140435	keystroke_u	u	n/a
570.4275	0.03	1140855	keystroke_m	m	n/a
570.8625	0.075	1141725	keystroke_Key.space	Key.space	n/a
571.4475	0.075	1142895	keystroke_v	v	n/a
571.6425	0.09	1143285	keystroke_i	i	n/a
571.9575	0.09	1143915	keystroke_c	c	n/a
572.4225	0.09	1144845	keystroke_t	t	n/a
572.6625	0.105	1145325	keystroke_i	i	n/a
572.8575	0.105	1145715	keystroke_m	m	n/a
573.0225	0.075	1146045	keystroke_s	s	n/a
573.2775	0.075	1146555	keystroke_Key.space	Key.space	n/a
573.9375	0.09	1147875	keystroke_u	u	n/a
574.1475	0.09	1148295	keystroke_n	n	n/a
574.3425	0.09	1148685	keystroke_i	i	n/a
574.5075	0.09	1149015	keystroke_v	v	n/a
574.7025	0.15	1149405	keystroke_e	e	n/a
574.7925	0.105	1149585	keystroke_r	r	n/a
575.0325	0.105	1150065	keystroke_s	s	n/a
575.3775	0.12	1150755	keystroke_a	a	n/a
575.6775	0.09	1151355	keystroke_l	l	n/a
575.9025	0.075	1151805	keystroke_Key.space	Key.space	n/a
576.1875	0.075	1152375	keystroke_e	e	n/a
576.3525	0.075	1152705	keystroke_p	p	n/a
576.5625	0.09	1153125	keystroke_i	i	n/a
576.8625	0.105	1153725	keystroke_s	s	n/a
577.1925	0.075	1154385	keystroke_o	o	n/a
577.433	0.105	1154866	keystroke_d	d	n/a
577.643	0.075	1155286	keystroke_e	e	n/a
577.853	0.105	1155706	keystroke_s	s	n/a
579.1725	0.06	1158345	keystroke_Key.enter	Key.enter	n/a
579.241	14.7115	1158482	prompt	n/a	ultram burden marshall scsi\n
580.0425	0.09	1160085	keystroke_u	u	n/a
580.5075	0.09	1161015	keystroke_t	t	n/a
580.7475	0.105	1161495	keystroke_r	r	n/a
581.0025	0.09	1162005	keystroke_a	a	n/a
581.1525	0.06	1162305	keystroke_m	m	n/a
582.862	0.0755	1165724	keystroke_Key.backspace	Key.backspace	n/a
583.0275	0.06	1166055	keystroke_Key.backspace	Key.backspace	n/a
583.192	0.06	1166384	keystroke_Key.backspace	Key.backspace	n/a
583.717	0.075	1167434	keystroke_Key.backspace	Key.backspace	n/a
584.497	0.075	1168994	keystroke_l	l	n/a
584.797	0.105	1169594	keystroke_t	t	n/a
585.007	0.09	1170014	keystroke_r	r	n/a
585.202	0.12	1170404	keystroke_a	a	n/a
585.337	0.075	1170674	keystroke_m	m	n/a
585.652	0.075	1171304	keystroke_Key.space	Key.space	n/a
586.762	0.075	1173524	keystroke_b	b	n/a
586.987	0.09	1173974	keystroke_u	u	n/a
587.572	0.09	1175144	keystroke_r	r	n/a
587.812	0.105	1175624	keystroke_d	d	n/a
588.112	0.075	1176224	keystroke_e	e	n/a
588.247	0.06	1176494	keystroke_n	n	n/a
588.457	0.075	1176914	keystroke_Key.space	Key.space	n/a
588.862	0.075	1177724	keystroke_m	m	n/a
589.012	0.15	1178024	keystroke_a	a	n/a
589.2825	0.075	1178565	keystroke_r	r	n/a
589.8525	0.06	1179705	keystroke_s	s	n/a
589.9575	0.075	1179915	keystroke_h	h	n/a
590.0925	0.105	1180185	keystroke_a	a	n/a
590.3025	0.06	1180605	keystroke_l	l	n/a
590.4375	0.075	1180875	keystroke_l	l	n/a
590.5875	0.105	1181175	keystroke_Key.space	Key.space	n/a
590.7825	0.09	1181565	keystroke_s	s	n/a
591.0525	0.09	1182105	keystroke_c	c	n/a
591.5475	0.075	1183095	keystroke_s	s	n/a
591.6975	0.09	1183395	keystroke_i	i	n/a
593.95	0	1187900	keystroke_Key.enter	Key.enter	n/a
593.9575	16.3405	1187915	prompt	n/a	friends independently spot putting\n
595.222	0.0595	1190444	keystroke_f	f	n/a
595.4165	0.075	1190833	keystroke_r	r	n/a
595.5065	0.09	1191013	keystroke_i	i	n/a
595.7465	0.03	1191493	keystroke_e	e	n/a
595.8075	0.104	1191615	keystroke_n	n	n/a
595.9565	0.135	1191913	keystroke_d	d	n/a
596.0925	0.12	1192185	keystroke_s	s	n/a
596.3915	0.075	1192783	keystroke_Key.space	Key.space	n/a
596.9765	0.076	1193953	keystroke_i	i	n/a
597.1265	0.106	1194253	keystroke_n	n	n/a
597.2775	0.059	1194555	keystroke_d	d	n/a
597.4565	0.105	1194913	keystroke_e	e	n/a
598.5965	0.06	1197193	keystroke_Key.backspace	Key.backspace	n/a
599.1675	0.045	1198335	keystroke_e	e	n/a
599.3165	0.09	1198633	keystroke_p	p	n/a
599.7365	0.075	1199473	keystroke_e	e	n/a
600.0215	0.06	1200043	keystroke_n	n	n/a
600.246	0.0905	1200492	keystroke_d	d	n/a
600.951	0.105	1201902	keystroke_t	t	n/a
602.091	0.09	1204182	keystroke_l	l	n/a
602.301	0.06	1204602	keystroke_y	y	n/a
602.526	0.075	1205052	keystroke_Key.space	Key.space	n/a
604.5955	0.0755	1209191	keystroke_Key.backspace	Key.backspace	n/a
604.7755	0.045	1209551	keystroke_Key.backspace	Key.backspace	n/a
604.9255	0.075	1209851	keystroke_Key.backspace	Key.backspace	n/a
605.3155	0.075	1210631	keystroke_Key.backspace	Key.backspace	n/a
605.961	0.135	1211922	keystroke_e	e	n/a
606.111	0.045	1212222	keystroke_n	n	n/a
606.231	0.105	1212462	keystroke_t	t	n/a
606.471	0.09	1212942	keystroke_l	l	n/a
606.652	0.059	1213304	keystroke_y	y	n/a
606.876	0.075	1213752	keystroke_Key.space	Key.space	n/a
607.686	0.09	1215372	keystroke_s	s	n/a
607.746	0.075	1215492	keystroke_p	p	n/a
607.941	0.075	1215882	keystroke_o	o	n/a
608.091	0.09	1216182	keystroke_t	t	n/a
608.256	0.09	1216512	keystroke_Key.space	Key.space	n/a
608.466	0.09	1216932	keystroke_p	p	n/a
608.616	0.09	1217232	keystroke_u	u	n/a
608.856	0.06	1217712	keystroke_t	t	n/a
608.976	0.075	1217952	keystroke_t	t	n/a
609.036	0.18	1218072	keystroke_i	i	n/a
609.201	0.075	1218402	keystroke_n	n	n/a
609.291	0.09	1218582	keystroke_g	g	n/a
610.221	0.075	1220442	keystroke_Key.enter	Key.enter	n/a
610.303	12.0845	1220606	prompt	n/a	giant wiley public words\n
611.3605	0.06	1222721	keystroke_f	f	n/a
611.7955	0.075	1223591	keystroke_Key.backspace	Key.backspace	n/a
611.8855	0.09	1223771	keystroke_g	g	n/a
612.1405	0.105	1224281	keystroke_a	a	n/a
612.2305	0.12	1224461	keystroke_i	i	n/a
612.3955	0.105	1224791	keystroke_n	n	n/a
612.9955	0.075	1225991	keystroke_Key.backspace	Key.backspace	n/a
613.1455	0.075	1226291	keystroke_Key.backspace	Key.backspace	n/a
613.4305	0.09	1226861	keystroke_i	i	n/a
613.6255	0.09	1227251	keystroke_a	a	n/a
613.9105	0.06	1227821	keystroke_Key.backspace	Key.backspace	n/a
614.0455	0.09	1228091	keystroke_Key.backspace	Key.backspace	n/a
614.4505	0.075	1228901	keystroke_Key.backspace	Key.backspace	n/a
614.7955	0.09	1229591	keystroke_i	i	n/a
615.2005	0.135	1230401	keystroke_a	a	n/a
615.3805	0.075	1230761	keystroke_n	n	n/a
615.5905	0.09	1231181	keystroke_t	t	n/a
615.7555	0.075	1231511	keystroke_Key.space	Key.space	n/a
616.5205	0.075	1233041	keystroke_w	w	n/a
616.6705	0.09	1233341	keystroke_i	i	n/a
616.8655	0.09	1233731	keystroke_l	l	n/a
617.0755	0.06	1234151	keystroke_e	e	n/a
617.2255	0.06	1234451	keystroke_y	y	n/a
617.4505	0.09	1234901	keystroke_Key.space	Key.space	n/a
617.7055	0.075	1235411	keystroke_p	p	n/a
617.9305	0.075	1235861	keystroke_u	u	n/a
618.1555	0.075	1236311	keystroke_b	b	n/a
618.3805	0.09	1236761	keystroke_l	l	n/a
618.5305	0.09	1237061	keystroke_i	i	n/a
620.1655	0.075	1240331	keystroke_c	c	n/a
620.36	0.075	1240720	keystroke_Key.space	Key.space	n/a
620.87	0.09	1241740	keystroke_w	w	n/a
620.99	0.105	1241980	keystroke_o	o	n/a
621.155	0.12	1242310	keystroke_r	r	n/a
621.395	0.135	1242790	keystroke_d	d	n/a
621.545	0.135	1243090	keystroke_s	s	n/a
622.325	0.06	1244650	keystroke_Key.enter	Key.enter	n/a
622.3925	8.3505	1244785	prompt	n/a	shipped concern pioneer loaded\n
623.405	0.09	1246810	keystroke_s	s	n/a
623.555	0.105	1247110	keystroke_h	h	n/a
623.72	0.105	1247440	keystroke_i	i	n/a
624.02	0.015	1248040	keystroke_p	p	n/a
624.14	0.075	1248280	keystroke_p	p	n/a
624.725	0.075	1249450	keystroke_e	e	n/a
624.95	0.075	1249900	keystroke_d	d	n/a
625.085	0.09	1250170	keystroke_Key.space	Key.space	n/a
625.265	0.09	1250530	keystroke_c	c	n/a
625.37	0.12	1250740	keystroke_o	o	n/a
625.475	0.09	1250950	keystroke_n	n	n/a
625.685	0.09	1251370	keystroke_c	c	n/a
625.91	0.18	1251820	keystroke_e	e	n/a
626.015	0.12	1252030	keystroke_r	r	n/a
626.45	0.045	1252900	keystroke_n	n	n/a
626.72	0.09	1253440	keystroke_Key.space	Key.space	n/a
626.99	0.075	1253980	keystroke_p	p	n/a
627.275	0.105	1254550	keystroke_i	i	n/a
627.5	0.12	1255000	keystroke_o	o	n/a
627.71	0.075	1255420	keystroke_n	n	n/a
628.22	0.045	1256440	keystroke_e	e	n/a
628.355	0.075	1256710	keystroke_e	e	n/a
628.55	0.105	1257100	keystroke_r	r	n/a
628.67	0.09	1257340	keystroke_Key.space	Key.space	n/a
628.91	0.075	1257820	keystroke_l	l	n/a
629.12	0.075	1258240	keystroke_o	o	n/a
629.375	0.12	1258750	keystroke_a	a	n/a
629.615	0.075	1259230	keystroke_d	d	n/a
629.81	0.075	1259620	keystroke_e	e	n/a
630.005	0.09	1260010	keystroke_d	d	n/a
630.68	0.06	1261360	keystroke_Key.enter	Key.enter	n/a
630.7475	28.5235	1261495	prompt	n/a	epinions distributed promotional saturn\n
631.85	0.09	1263700	keystroke_e	e	n/a
632.06	0.105	1264120	keystroke_p	p	n/a
632.315	0.135	1264630	keystroke_i	i	n/a
632.555	0.12	1265110	keystroke_o	o	n/a
633.275	0.09	1266550	keystroke_Key.backspace	Key.backspace	n/a
633.545	0.105	1267090	keystroke_n	n	n/a
634.1	0.225	1268200	keystroke_i	i	n/a
634.325	0.21	1268650	keystroke_o	o	n/a
634.52	0.12	1269040	keystroke_n	n	n/a
635.21	0.045	1270420	keystroke_s	s	n/a
635.465	0.06	1270930	keystroke_Key.space	Key.space	n/a
645.9225	0.057	1291845	keystroke_d	d	n/a
646.0845	0.105	1292169	keystroke_i	i	n/a
646.294	0.09	1292588	keystroke_s	s	n/a
646.444	0.12	1292888	keystroke_t	t	n/a
646.639	0.105	1293278	keystroke_r	r	n/a
646.729	0.09	1293458	keystroke_i	i	n/a
646.954	0.105	1293908	keystroke_b	b	n/a
647.239	0.06	1294478	keystroke_u	u	n/a
647.494	0.135	1294988	keystroke_t	t	n/a
647.599	0.135	1295198	keystroke_e	e	n/a
647.854	0.105	1295708	keystroke_d	d	n/a
648.079	0.06	1296158	keystroke_Key.space	Key.space	n/a
648.484	0.09	1296968	keystroke_p	p	n/a
648.694	0.045	1297388	keystroke_r	r	n/a
648.769	0.09	1297538	keystroke_o	o	n/a
648.964	0.105	1297928	keystroke_m	m	n/a
649.159	0.09	1298318	keystroke_o	o	n/a
649.309	0.105	1298618	keystroke_t	t	n/a
649.384	0.15	1298768	keystroke_i	i	n/a
649.474	0.135	1298948	keystroke_o	o	n/a
649.549	0.105	1299098	keystroke_n	n	n/a
651.634	0.105	1303268	keystroke_a	a	n/a
651.769	0.03	1303538	keystroke_o	o	n/a
651.934	0.075	1303868	keystroke_Key.space	Key.space	n/a
652.834	0.09	1305668	keystroke_Key.backspace	Key.backspace	n/a
652.984	0.105	1305968	keystroke_Key.backspace	Key.backspace	n/a
654.139	0.075	1308278	keystroke_l	l	n/a
654.364	0.09	1308728	keystroke_Key.space	Key.space	n/a
655.669	0.135	1311338	keystroke_a	a	n/a
656.419	0.09	1312838	keystroke_Key.backspace	Key.backspace	n/a
656.554	0.135	1313108	keystroke_s	s	n/a
656.749	0.15	1313498	keystroke_a	a	n/a
657.034	0.105	1314068	keystroke_t	t	n/a
657.184	0.09	1314368	keystroke_u	u	n/a
657.709	0.06	1315418	keystroke_r	r	n/a
657.829	0.075	1315658	keystroke_n	n	n/a
659.209	0.06	1318418	keystroke_Key.enter	Key.enter	n/a
659.2755	10.0005	1318551	prompt	n/a	albany origins bath spring\n
660.274	0.105	1320548	keystroke_a	a	n/a
660.394	0.105	1320788	keystroke_l	l	n/a
660.604	0.09	1321208	keystroke_b	b	n/a
660.7835	0.105	1321567	keystroke_a	a	n/a
660.8735	0.105	1321747	keystroke_n	n	n/a
661.6385	0.045	1323277	keystroke_y	y	n/a
661.9085	0.045	1323817	keystroke_Key.space	Key.space	n/a
662.1935	0.075	1324387	keystroke_o	o	n/a
662.7335	0.06	1325467	keystroke_r	r	n/a
662.8535	0.075	1325707	keystroke_i	i	n/a
663.0945	0.104	1326189	keystroke_i	i	n/a
663.2585	0.105	1326517	keystroke_n	n	n/a
663.3935	0.105	1326787	keystroke_g	g	n/a
663.8885	0.06	1327777	keystroke_Key.backspace	Key.backspace	n/a
664.0385	0.075	1328077	keystroke_Key.backspace	Key.backspace	n/a
664.2185	0.045	1328437	keystroke_Key.backspace	Key.backspace	n/a
664.3685	0.045	1328737	keystroke_Key.backspace	Key.backspace	n/a
664.9845	0.089	1329969	keystroke_i	i	n/a
665.1935	0.09	1330387	keystroke_g	g	n/a
665.3135	0.151	1330627	keystroke_i	i	n/a
665.4485	0.105	1330897	keystroke_n	n	n/a
665.6585	0.105	1331317	keystroke_s	s	n/a
665.8985	0.06	1331797	keystroke_Key.space	Key.space	n/a
666.6185	0.076	1333237	keystroke_b	b	n/a
666.9785	0.12	1333957	keystroke_a	a	n/a
667.1735	0.105	1334347	keystroke_t	t	n/a
667.3385	0.075	1334677	keystroke_h	h	n/a
667.5335	0.09	1335067	keystroke_Key.space	Key.space	n/a
667.7895	0.074	1335579	keystroke_s	s	n/a
667.8785	0.0905	1335757	keystroke_p	p	n/a
668.134	0.075	1336268	keystroke_r	r	n/a
668.2545	0.1495	1336509	keystroke_i	i	n/a
668.374	0.12	1336748	keystroke_n	n	n/a
668.554	0.075	1337108	keystroke_g	g	n/a
669.214	0.06	1338428	keystroke_Key.enter	Key.enter	n/a
669.2815	8.994	1338563	prompt	n/a	recipients returning element her\n
670.054	0.075	1340108	keystroke_r	r	n/a
670.069	0.135	1340138	keystroke_e	e	n/a
670.384	0.09	1340768	keystroke_c	c	n/a
670.624	0.09	1341248	keystroke_i	i	n/a
670.924	0.0905	1341848	keystroke_p	p	n/a
671.194	0.075	1342388	keystroke_i	i	n/a
671.464	0.09	1342928	keystroke_e	e	n/a
672.049	0.06	1344098	keystroke_n	n	n/a
672.184	0.09	1344368	keystroke_t	t	n/a
672.379	0.09	1344758	keystroke_s	s	n/a
672.454	0.09	1344908	keystroke_Key.space	Key.space	n/a
672.739	0.09	1345478	keystroke_r	r	n/a
672.784	0.105	1345568	keystroke_e	e	n/a
673.144	0.045	1346288	keystroke_t	t	n/a
673.279	0.06	1346558	keystroke_u	u	n/a
673.474	0.09	1346948	keystroke_r	r	n/a
673.534	0.075	1347068	keystroke_n	n	n/a
673.669	0.15	1347338	keystroke_i	i	n/a
673.789	0.075	1347578	keystroke_n	n	n/a
673.849	0.075	1347698	keystroke_g	g	n/a
675.0335	0.075	1350067	keystroke_Key.space	Key.space	n/a
675.2885	0.075	1350577	keystroke_e	e	n/a
675.3935	0.09	1350787	keystroke_l	l	n/a
675.4985	0.06	1350997	keystroke_e	e	n/a
675.6485	0.06	1351297	keystroke_m	m	n/a
676.2335	0.075	1352467	keystroke_e	e	n/a
676.5635	0.06	1353127	keystroke_n	n	n/a
676.7135	0.075	1353427	keystroke_t	t	n/a
676.8335	0.075	1353667	keystroke_Key.space	Key.space	n/a
677.2985	0.09	1354597	keystroke_h	h	n/a
677.3735	0.135	1354747	keystroke_e	e	n/a
677.4485	0.105	1354897	keystroke_r	r	n/a
678.2135	0.06	1356427	keystroke_Key.enter	Key.enter	n/a
678.2805	11.575	1356561	prompt	n/a	cultural rivers represents verified\n
679.1285	0.06	1358257	keystroke_c	c	n/a
679.3085	0.075	1358617	keystroke_u	u	n/a
679.5485	0.09	1359097	keystroke_l	l	n/a
680.1785	0.075	1360357	keystroke_t	t	n/a
680.3585	0.075	1360717	keystroke_u	u	n/a
680.8235	0.075	1361647	keystroke_r	r	n/a
681.0185	0.075	1362037	keystroke_a	a	n/a
681.2735	0.075	1362547	keystroke_l	l	n/a
681.4535	0.075	1362907	keystroke_Key.space	Key.space	n/a
681.7385	0.105	1363477	keystroke_r	r	n/a
681.8885	0.09	1363777	keystroke_i	i	n/a
682.1435	0.09	1364287	keystroke_v	v	n/a
682.4285	0.135	1364857	keystroke_e	e	n/a
682.4885	0.105	1364977	keystroke_r	r	n/a
682.7435	0.075	1365487	keystroke_s	s	n/a
682.8785	0.0595	1365757	keystroke_Key.space	Key.space	n/a
683.343	0.09	1366686	keystroke_r	r	n/a
683.388	0.105	1366776	keystroke_e	e	n/a
684.063	0.075	1368126	keystroke_p	p	n/a
684.243	0.105	1368486	keystroke_r	r	n/a
684.288	0.12	1368576	keystroke_e	e	n/a
684.573	0.09	1369146	keystroke_s	s	n/a
684.918	0.09	1369836	keystroke_e	e	n/a
685.038	0.075	1370076	keystroke_n	n	n/a
685.173	0.075	1370346	keystroke_t	t	n/a
685.473	0.12	1370946	keystroke_s	s	n/a
685.743	0.075	1371486	keystroke_Key.space	Key.space	n/a
686.463	0.075	1372926	keystroke_v	v	n/a
686.673	0.135	1373346	keystroke_e	e	n/a
686.748	0.105	1373496	keystroke_r	r	n/a
686.973	0.09	1373946	keystroke_i	i	n/a
687.663	0.075	1375326	keystroke_f	f	n/a
687.828	0.075	1375656	keystroke_i	i	n/a
687.948	0.075	1375896	keystroke_e	e	n/a
688.128	0.09	1376256	keystroke_s	s	n/a
689.148	0.06	1378296	keystroke_Key.backspace	Key.backspace	n/a
689.253	0.105	1378506	keystroke_d	d	n/a
689.808	0.045	1379616	keystroke_Key.enter	Key.enter	n/a
689.8615	15.4435	1379723	prompt	n/a	tragedy architectural sensor voyuer\n
690.738	0.105	1381476	keystroke_t	t	n/a
690.948	0.09	1381896	keystroke_r	r	n/a
691.158	0.165	1382316	keystroke_a	a	n/a
691.443	0.075	1382886	keystroke_g	g	n/a
691.638	0.075	1383276	keystroke_e	e	n/a
691.983	0.075	1383966	keystroke_d	d	n/a
692.163	0.06	1384326	keystroke_y	y	n/a
692.388	0.075	1384776	keystroke_Key.space	Key.space	n/a
692.733	0.09	1385466	keystroke_a	a	n/a
692.868	0.09	1385736	keystroke_r	r	n/a
693.1225	0.09	1386245	keystroke_c	c	n/a
693.288	0.075	1386576	keystroke_h	h	n/a
693.6475	0.09	1387295	keystroke_i	i	n/a
695.0275	0.075	1390055	keystroke_t	t	n/a
695.1925	0.09	1390385	keystroke_e	e	n/a
695.7175	0.075	1391435	keystroke_t	t	n/a
696.7225	0.06	1393445	keystroke_Key.backspace	Key.backspace	n/a
696.8275	0.09	1393655	keystroke_c	c	n/a
697.0825	0.075	1394165	keystroke_t	t	n/a
697.2925	0.0755	1394585	keystroke_u	u	n/a
697.908	0.105	1395816	keystroke_r	r	n/a
698.087	0.106	1396174	keystroke_a	a	n/a
698.238	0.045	1396476	keystroke_l	l	n/a
698.628	0.09	1397256	keystroke_Key.space	Key.space	n/a
699.243	0.045	1398486	keystroke_s	s	n/a
699.513	0.06	1399026	keystroke_e	e	n/a
699.903	0.075	1399806	keystroke_n	n	n/a
700.143	0.075	1400286	keystroke_s	s	n/a
700.263	0.09	1400526	keystroke_o	o	n/a
700.413	0.075	1400826	keystroke_r	r	n/a
700.563	0.06	1401126	keystroke_Key.space	Key.space	n/a
701.013	0.075	1402026	keystroke_v	v	n/a
701.268	0.09	1402536	keystroke_o	o	n/a
701.523	0.075	1403046	keystroke_y	y	n/a
701.838	0.12	1403676	keystroke_e	e	n/a
702.213	0.075	1404426	keystroke_u	u	n/a
702.648	0.075	1405296	keystroke_Key.backspace	Key.backspace	n/a
702.798	0.075	1405596	keystroke_Key.backspace	Key.backspace	n/a
703.8185	0.074	1407637	keystroke_u	u	n/a
704.0725	0.195	1408145	keystroke_e	e	n/a
704.3575	0.09	1408715	keystroke_r	r	n/a
705.2425	0.06	1410485	keystroke_Key.enter	Key.enter	n/a
705.3095	10.0455	1410619	prompt	n/a	happening milwaukee ready nintendo\n
706.3375	0.075	1412675	keystroke_h	h	n/a
706.5025	0.09	1413005	keystroke_a	a	n/a
706.6825	0.075	1413365	keystroke_p	p	n/a
706.8175	0.075	1413635	keystroke_p	p	n/a
706.9975	0.06	1413995	keystroke_e	e	n/a
707.0425	0.09	1414085	keystroke_n	n	n/a
707.3275	0.031	1414655	keystroke_i	i	n/a
707.3425	0.075	1414685	keystroke_n	n	n/a
707.4625	0.045	1414925	keystroke_g	g	n/a
707.5675	0.09	1415135	keystroke_Key.space	Key.space	n/a
708.4835	0.059	1416967	keystroke_m	m	n/a
708.6625	0.09	1417325	keystroke_i	i	n/a
708.8875	0.105	1417775	keystroke_l	l	n/a
709.5925	0.09	1419185	keystroke_w	w	n/a
709.8175	0.12	1419635	keystroke_a	a	n/a
710.2535	0.074	1420507	keystroke_u	u	n/a
710.5525	0.075	1421105	keystroke_k	k	n/a
710.8375	0.06	1421675	keystroke_e	e	n/a
710.9725	0.06	1421945	keystroke_e	e	n/a
711.1225	0.075	1422245	keystroke_Key.space	Key.space	n/a
711.4375	0.09	1422875	keystroke_r	r	n/a
711.4975	0.09	1422995	keystroke_e	e	n/a
711.6925	0.135	1423385	keystroke_a	a	n/a
711.8575	0.105	1423715	keystroke_d	d	n/a
712.0075	0.06	1424015	keystroke_y	y	n/a
712.2175	0.09	1424435	keystroke_Key.space	Key.space	n/a
712.4575	0.09	1424915	keystroke_n	n	n/a
712.6225	0.135	1425245	keystroke_i	i	n/a
712.7425	0.105	1425485	keystroke_n	n	n/a
713.1035	0.074	1426207	keystroke_t	t	n/a
713.1925	0.09	1426385	keystroke_e	e	n/a
713.3875	0.09	1426775	keystroke_n	n	n/a
713.5375	0.09	1427075	keystroke_d	d	n/a
713.6575	0.075	1427315	keystroke_h	h	n/a
714.1675	0.075	1428335	keystroke_Key.backspace	Key.backspace	n/a
715.0075	0.045	1430015	keystroke_o	o	n/a
715.2925	0.06	1430585	keystroke_Key.enter	Key.enter	n/a
715.362	12.9375	1430724	prompt	n/a	various struck promoting uruguay\n
716.2685	0.059	1432537	keystroke_v	v	n/a
716.4475	0.015	1432895	keystroke_v	v	n/a
716.9275	0.075	1433855	keystroke_Key.backspace	Key.backspace	n/a
717.1385	0.104	1434277	keystroke_a	a	n/a
717.4225	0.076	1434845	keystroke_r	r	n/a
717.7085	0.15	1435417	keystroke_o	o	n/a
718.2475	0.06	1436495	keystroke_Key.backspace	Key.backspace	n/a
718.968	0.09	1437936	keystroke_i	i	n/a
719.192	0.165	1438384	keystroke_o	o	n/a
719.342	0.0915	1438684	keystroke_u	u	n/a
719.613	0.075	1439226	keystroke_s	s	n/a
719.7625	0.075	1439525	keystroke_Key.space	Key.space	n/a
720.483	0.074	1440966	keystroke_s	s	n/a
720.677	0.075	1441354	keystroke_t	t	n/a
720.872	0.03	1441744	keystroke_r	r	n/a
720.947	0.075	1441894	keystroke_u	u	n/a
721.142	0.091	1442284	keystroke_c	c	n/a
721.247	0.075	1442494	keystroke_k	k	n/a
721.412	0.09	1442824	keystroke_Key.space	Key.space	n/a
721.862	0.075	1443724	keystroke_p	p	n/a
722.042	0.06	1444084	keystroke_r	r	n/a
722.162	0.091	1444324	keystroke_o	o	n/a
722.342	0.105	1444684	keystroke_m	m	n/a
722.537	0.09	1445074	keystroke_o	o	n/a
722.703	0.09	1445406	keystroke_t	t	n/a
723.572	0.075	1447144	keystroke_i	i	n/a
723.737	0.091	1447474	keystroke_n	n	n/a
724.533	0.029	1449066	keystroke_g	g	n/a
724.727	0.075	1449454	keystroke_Key.space	Key.space	n/a
725.283	0.059	1450566	keystroke_u	u	n/a
725.793	0.089	1451586	keystroke_r	r	n/a
726.152	0.075	1452304	keystroke_u	u	n/a
726.663	0.059	1453326	keystroke_g	g	n/a
726.812	0.09	1453624	keystroke_u	u	n/a
727.023	0.104	1454046	keystroke_a	a	n/a
727.4425	0.075	1454885	keystroke_y	y	n/a
728.2375	0.06	1456475	keystroke_Key.enter	Key.enter	n/a
728.304	16.721	1456608	prompt	n/a	poison macromedia newspapers geological\n
729.1225	0.075	1458245	keystroke_p	p	n/a
729.5575	0.135	1459115	keystroke_i	i	n/a
729.6775	0.195	1459355	keystroke_o	o	n/a
729.8735	0.089	1459747	keystroke_n	n	n/a
730.9375	0.06	1461875	keystroke_Key.backspace	Key.backspace	n/a
731.0875	0.06	1462175	keystroke_Key.backspace	Key.backspace	n/a
731.7025	0.06	1463405	keystroke_Key.backspace	Key.backspace	n/a
732.2725	0.135	1464545	keystroke_o	o	n/a
732.3625	0.18	1464725	keystroke_i	i	n/a
732.5575	0.045	1465115	keystroke_n	n	n/a
733.0075	0.06	1466015	keystroke_Key.backspace	Key.backspace	n/a
733.1575	0.09	1466315	keystroke_s	s	n/a
733.2775	0.105	1466555	keystroke_o	o	n/a
733.6975	0.075	1467395	keystroke_n	n	n/a
734.0125	0.06	1468025	keystroke_Key.space	Key.space	n/a
735.227	0.075	1470454	keystroke_m	m	n/a
735.362	0.195	1470724	keystroke_a	a	n/a
735.647	0.105	1471294	keystroke_c	c	n/a
735.932	0.105	1471864	keystroke_r	r	n/a
736.097	0.09	1472194	keystroke_o	o	n/a
736.3825	0.0745	1472765	keystroke_m	m	n/a
736.517	0.06	1473034	keystroke_e	e	n/a
736.712	0.105	1473424	keystroke_d	d	n/a
736.862	0.09	1473724	keystroke_i	i	n/a
737.1475	0.0895	1474295	keystroke_a	a	n/a
737.297	0.09	1474594	keystroke_Key.space	Key.space	n/a
737.867	0.06	1475734	keystroke_n	n	n/a
738.077	0.12	1476154	keystroke_e	e	n/a
738.302	0.135	1476604	keystroke_s	s	n/a
738.797	0.105	1477594	keystroke_w	w	n/a
739.307	0.075	1478614	keystroke_Key.backspace	Key.backspace	n/a
