onset	duration	sample	value	key	prompt_text
8.041	9.745	16082	prompt	n/a	the quick brown fox jumps over a lazy dog\n
9.6565	0.0275	19313	keystroke_t	t	n/a
9.6985	0.0735	19397	keystroke_h	h	n/a
9.847	0.094	19694	keystroke_e	e	n/a
10	0.089	20000	keystroke_Key.space	Key.space	n/a
10.1625	0.089	20325	keystroke_q	q	n/a
10.329	0.0625	20658	keystroke_u	u	n/a
10.7025	0.0945	21405	keystroke_i	i	n/a
10.856	0.0895	21712	keystroke_c	c	n/a
10.975	0.074	21950	keystroke_k	k	n/a
11.305	0.089	22610	keystroke_Key.space	Key.space	n/a
11.453	0.089	22906	keystroke_b	b	n/a
11.6035	0.1075	23207	keystroke_r	r	n/a
11.7255	0.074	23451	keystroke_o	o	n/a
11.8735	0.074	23747	keystroke_w	w	n/a
11.933	0.074	23866	keystroke_n	n	n/a
12.219	0.0595	24438	keystroke_Key.space	Key.space	n/a
13.0885	0.059	26177	keystroke_f	f	n/a
13.4945	0.1045	26989	keystroke_o	o	n/a
13.6425	0.105	27285	keystroke_x	x	n/a
13.764	0.121	27528	keystroke_Key.space	Key.space	n/a
13.9895	0.059	27979	keystroke_j	j	n/a
14.1375	0.093	28275	keystroke_u	u	n/a
14.364	0.089	28728	keystroke_m	m	n/a
14.512	0.075	29024	keystroke_p	p	n/a
14.6655	0.0595	29331	keystroke_s	s	n/a
14.7395	0.074	29479	keystroke_Key.space	Key.space	n/a
14.873	0.074	29746	keystroke_o	o	n/a
14.9915	0.094	29983	keystroke_v	v	n/a
15.219	0.074	30438	keystroke_e	e	n/a
15.2485	0.1185	30497	keystroke_r	r	n/a
15.382	0.078	30764	keystroke_Key.space	Key.space	n/a
15.5055	0.0745	31011	keystroke_a	a	n/a
15.565	0.074	31130	keystroke_Key.space	Key.space	n/a
15.743	0.074	31486	keystroke_l	l	n/a
15.8315	0.1085	31663	keystroke_a	a	n/a
16.029	0.1185	32058	keystroke_z	z	n/a
16.1325	0.104	32265	keystroke_y	y	n/a
16.3605	0.089	32721	keystroke_Key.space	Key.space	n/a
16.8695	0.1035	33739	keystroke_d	d	n/a
17.0175	0.119	34035	keystroke_o	o	n/a
17.2	0.089	34400	keystroke_g	g	n/a
17.65	0.133	35300	keystroke_Key.enter	Key.enter	n/a
17.7905	8.484	35581	prompt	n/a	bruce budget attractions nodes\n
18.5795	0.0445	37159	keystroke_b	b	n/a
18.7275	0.0745	37455	keystroke_r	r	n/a
18.8315	0.0635	37663	keystroke_u	u	n/a
19.043	0.0455	38086	keystroke_d	d	n/a
19.4485	0.0445	38897	keystroke_Key.backspace	Key.backspace	n/a
19.5525	0.1185	39105	keystroke_c	c	n/a
20.3635	0.0895	40727	keystroke_e	e	n/a
20.6505	0.0885	41301	keystroke_Key.space	Key.space	n/a
21.519	0.075	43038	keystroke_b	b	n/a
21.7125	0.0595	43425	keystroke_u	u	n/a
21.8165	0.108	43633	keystroke_d	d	n/a
21.954	0.0745	43908	keystroke_g	g	n/a
22.102	0.1485	44204	keystroke_e	e	n/a
22.2355	0.094	44471	keystroke_t	t	n/a
22.374	0.0895	44748	keystroke_Key.space	Key.space	n/a
22.4485	0.089	44897	keystroke_a	a	n/a
22.6415	0.075	45283	keystroke_t	t	n/a
22.8385	0.1335	45677	keystroke_t	t	n/a
23.408	0.089	46816	keystroke_r	r	n/a
23.5575	0.091	47115	keystroke_a	a	n/a
23.693	0.104	47386	keystroke_c	c	n/a
23.901	0.0915	47802	keystroke_t	t	n/a
24.039	0.0895	48078	keystroke_i	i	n/a
24.366	0.137	48732	keystroke_o	o	n/a
24.5325	0.134	49065	keystroke_n	n	n/a
24.938	0.104	49876	keystroke_Key.space	Key.space	n/a
25.0725	0.119	50145	keystroke_n	n	n/a
25.2845	0.104	50569	keystroke_o	o	n/a
25.4185	0.178	50837	keystroke_d	d	n/a
25.5375	0.1205	51075	keystroke_e	e	n/a
25.7635	0.089	51527	keystroke_s	s	n/a
26.169	0.104	52338	keystroke_Key.enter	Key.enter	n/a
26.278	9.6385	52556	prompt	n/a	pensions photographers workshop reveals\n
27.3065	0.077	54613	keystroke_p	p	n/a
27.458	0.089	54916	keystroke_e	e	n/a
27.5615	0.0755	55123	keystroke_n	n	n/a
27.726	0.108	55452	keystroke_s	s	n/a
28.3135	0.089	56627	keystroke_i	i	n/a
28.6105	0.092	57221	keystroke_o	o	n/a
28.688	0.104	57376	keystroke_n	n	n/a
28.8365	0.0895	57673	keystroke_s	s	n/a
29.045	0.0615	58090	keystroke_Key.space	Key.space	n/a
29.302	0.0895	58604	keystroke_p	p	n/a
29.496	0.077	58992	keystroke_h	h	n/a
29.782	0.1045	59564	keystroke_o	o	n/a
29.964	0.104	59928	keystroke_t	t	n/a
30.098	0.133	60196	keystroke_o	o	n/a
30.473	0.119	60946	keystroke_g	g	n/a
30.6815	0.1195	61363	keystroke_r	r	n/a
30.9225	0.089	61845	keystroke_a	a	n/a
31.0265	0.074	62053	keystroke_p	p	n/a
31.252	0.061	62504	keystroke_h	h	n/a
31.3725	0.1045	62745	keystroke_e	e	n/a
31.462	0.0755	62924	keystroke_r	r	n/a
31.6575	0.0905	63315	keystroke_s	s	n/a
31.7925	0.0895	63585	keystroke_Key.space	Key.space	n/a
32.0605	0.0775	64121	keystroke_w	w	n/a
32.1525	0.0745	64305	keystroke_o	o	n/a
32.257	0.104	64514	keystroke_r	r	n/a
32.4055	0.1055	64811	keystroke_k	k	n/a
32.5875	0.1045	65175	keystroke_s	s	n/a
33.6065	0.0595	67213	keystroke_h	h	n/a
34.056	0.0895	68112	keystroke_o	o	n/a
34.2675	0.09	68535	keystroke_p	p	n/a
34.4915	0.0745	68983	keystroke_Key.space	Key.space	n/a
34.6105	0.1215	69221	keystroke_r	r	n/a
34.6875	0.104	69375	keystroke_e	e	n/a
34.9255	0.119	69851	keystroke_v	v	n/a
35.077	0.091	70154	keystroke_e	e	n/a
35.2565	0.119	70513	keystroke_a	a	n/a
35.3605	0.0905	70721	keystroke_l	l	n/a
35.4805	0.092	70961	keystroke_s	s	n/a
35.8105	0.1045	71621	keystroke_Key.enter	Key.enter	n/a
35.9195	13.197	71839	prompt	n/a	copying filled married belgium\n
36.7255	0.1065	73451	keystroke_c	c	n/a
36.936	0.045	73872	keystroke_o	o	n/a
37.2815	0.1045	74563	keystroke_p	p	n/a
37.687	0.0745	75374	keystroke_y	y	n/a
37.955	0.1045	75910	keystroke_i	i	n/a
38.0915	0.119	76183	keystroke_n	n	n/a
38.2115	0.1045	76423	keystroke_g	g	n/a
38.6615	0.119	77323	keystroke_Key.space	Key.space	n/a
39.021	0.1195	78042	keystroke_f	f	n/a
39.215	0.089	78430	keystroke_i	i	n/a
39.486	0.0455	78972	keystroke_l	l	n/a
39.621	0.0745	79242	keystroke_l	l	n/a
40.1755	0.0915	80351	keystroke_e	e	n/a
40.386	0.12	80772	keystroke_d	d	n/a
40.5645	0.0765	81129	keystroke_Key.space	Key.space	n/a
42.743	0.014	85486	keystroke_m	m	n/a
42.876	0.1795	85752	keystroke_a	a	n/a
43.13	0.256	86260	keystroke_r	r	n/a
43.8505	0.119	87701	keystroke_r	r	n/a
44.015	0.0905	88030	keystroke_i	i	n/a
44.78	0.0745	89560	keystroke_e	e	n/a
44.9455	0.0895	89891	keystroke_d	d	n/a
45.1395	0.09	90279	keystroke_Key.space	Key.space	n/a
46.4895	0.015	92979	keystroke_b	b	n/a
46.5195	0.122	93039	keystroke_e	e	n/a
46.746	0.0895	93492	keystroke_l	l	n/a
47.0755	0.1045	94151	keystroke_g	g	n/a
47.2545	0.1045	94509	keystroke_i	i	n/a
47.374	0.092	94748	keystroke_u	u	n/a
48.006	0.0895	96012	keystroke_m	m	n/a
48.9505	0.164	97901	keystroke_Key.enter	Key.enter	n/a
49.1205	12.223	98241	prompt	n/a	doubt must clean parks\n
57.488	0.028	114976	keystroke_d	d	n/a
57.5905	0.1495	115181	keystroke_o	o	n/a
57.6955	0.089	115391	keystroke_u	u	n/a
57.906	0.09	115812	keystroke_b	b	n/a
58.011	0.0745	116022	keystroke_t	t	n/a
58.1305	0.1055	116261	keystroke_Key.space	Key.space	n/a
58.3865	0.1045	116773	keystroke_m	m	n/a
58.626	0.0755	117252	keystroke_u	u	n/a
58.7615	0.1045	117523	keystroke_s	s	n/a
58.9855	0.075	117971	keystroke_t	t	n/a
59.1065	0.075	118213	keystroke_Key.space	Key.space	n/a
59.286	0.075	118572	keystroke_c	c	n/a
59.392	0.0895	118784	keystroke_l	l	n/a
59.5115	0.106	119023	keystroke_e	e	n/a
59.6025	0.1195	119205	keystroke_a	a	n/a
59.707	0.1045	119414	keystroke_n	n	n/a
59.8865	0.09	119773	keystroke_Key.space	Key.space	n/a
60.0365	0.0895	120073	keystroke_p	p	n/a
60.156	0.1045	120312	keystroke_a	a	n/a
60.4415	0.1045	120883	keystroke_r	r	n/a
60.562	0.105	121124	keystroke_k	k	n/a
60.6965	0.09	121393	keystroke_s	s	n/a
61.2525	0.0895	122505	keystroke_Key.enter	Key.enter	n/a
61.347	10.017	122694	prompt	n/a	rugby inspections rental cherry\n
62.2115	0.0755	124423	keystroke_r	r	n/a
62.376	0.06	124752	keystroke_u	u	n/a
62.632	0.06	125264	keystroke_b	b	n/a
63.097	0.0595	126194	keystroke_Key.backspace	Key.backspace	n/a
63.1865	0.075	126373	keystroke_g	g	n/a
63.4125	0.045	126825	keystroke_b	b	n/a
63.7265	0.0905	127453	keystroke_y	y	n/a
64.0265	0.075	128053	keystroke_Key.space	Key.space	n/a
64.626	0.091	129252	keystroke_s	s	n/a
64.8965	0.03	129793	keystroke_i	i	n/a
65.3465	0.045	130693	keystroke_Key.backspace	Key.backspace	n/a
65.496	0.076	130992	keystroke_Key.backspace	Key.backspace	n/a
65.8265	0.106	131653	keystroke_n	n	n/a
66.187	0.045	132374	keystroke_Key.backspace	Key.backspace	n/a
66.442	0.105	132884	keystroke_i	i	n/a
66.502	0.0895	133004	keystroke_n	n	n/a
66.6065	0.12	133213	keystroke_s	s	n/a
66.7715	0.09	133543	keystroke_p	p	n/a
66.8915	0.105	133783	keystroke_e	e	n/a
67.101	0.1055	134202	keystroke_c	c	n/a
67.3125	0.075	134625	keystroke_t	t	n/a
67.4625	0.0895	134925	keystroke_i	i	n/a
67.747	0.1195	135494	keystroke_o	o	n/a
68.3015	0.075	136603	keystroke_n	n	n/a
68.4065	0.0905	136813	keystroke_s	s	n/a
68.602	0.075	137204	keystroke_Key.space	Key.space	n/a
68.7515	0.135	137503	keystroke_r	r	n/a
68.8415	0.1205	137683	keystroke_e	e	n/a
68.947	0.1055	137894	keystroke_n	n	n/a
69.0815	0.0895	138163	keystroke_t	t	n/a
69.262	0.09	138524	keystroke_a	a	n/a
69.577	0.09	139154	keystroke_l	l	n/a
69.7715	0.0755	139543	keystroke_Key.space	Key.space	n/a
69.892	0.1195	139784	keystroke_c	c	n/a
70.0725	0.09	140145	keystroke_h	h	n/a
70.1775	0.105	140355	keystroke_e	e	n/a
70.3125	0.06	140625	keystroke_r	r	n/a
70.4475	0.0745	140895	keystroke_r	r	n/a
70.8815	0.105	141763	keystroke_y	y	n/a
71.3475	0.015	142695	keystroke_Key.enter	Key.enter	n/a
71.3665	15.4635	142733	prompt	n/a	manually bidder dramatic queue\n
72.157	0.09	144314	keystroke_m	m	n/a
72.262	0.1045	144524	keystroke_a	a	n/a
72.3815	0.0905	144763	keystroke_n	n	n/a
72.502	0.105	145004	keystroke_u	u	n/a
72.637	0.075	145274	keystroke_a	a	n/a
72.7875	0.045	145575	keystroke_l	l	n/a
72.8925	0.0745	145785	keystroke_l	l	n/a
73.1175	0.0755	146235	keystroke_y	y	n/a
73.343	0.06	146686	keystroke_Key.space	Key.space	n/a
73.4925	0.1355	146985	keystroke_d	d	n/a
73.6725	0.09	147345	keystroke_i	i	n/a
74.0775	0.045	148155	keystroke_Key.backspace	Key.backspace	n/a
74.1975	0.075	148395	keystroke_Key.backspace	Key.backspace	n/a
74.3475	0.1045	148695	keystroke_d	d	n/a
74.872	0.06	149744	keystroke_Key.backspace	Key.backspace	n/a
75.1425	0.0745	150285	keystroke_i	i	n/a
75.6075	0.045	151215	keystroke_Key.backspace	Key.backspace	n/a
75.6975	0.075	151395	keystroke_b	b	n/a
75.862	0.0595	151724	keystroke_i	i	n/a
76.0115	0.06	152023	keystroke_g	g	n/a
76.657	0.106	153314	keystroke_Key.backspace	Key.backspace	n/a
76.778	0.045	153556	keystroke_f	f	n/a
76.898	0.0895	153796	keystroke_f	f	n/a
77.108	0.0895	154216	keystroke_e	e	n/a
77.1675	0.09	154335	keystroke_r	r	n/a
77.542	0.06	155084	keystroke_Key.backspace	Key.backspace	n/a
77.7065	0.045	155413	keystroke_Key.backspace	Key.backspace	n/a
77.856	0.0465	155712	keystroke_Key.backspace	Key.backspace	n/a
77.9925	0.06	155985	keystroke_Key.backspace	Key.backspace	n/a
78.6225	0.045	157245	keystroke_d	d	n/a
78.743	0.1195	157486	keystroke_d	d	n/a
78.9225	0.12	157845	keystroke_e	e	n/a
79.0125	0.09	158025	keystroke_r	r	n/a
79.1175	0.09	158235	keystroke_Key.space	Key.space	n/a
79.882	0.09	159764	keystroke_d	d	n/a
80.092	0.09	160184	keystroke_r	r	n/a
80.183	0.104	160366	keystroke_a	a	n/a
80.318	0.089	160636	keystroke_m	m	n/a
80.423	0.09	160846	keystroke_a	a	n/a
81.3975	0.12	162795	keystroke_t	t	n/a
81.5475	0.075	163095	keystroke_i	i	n/a
81.6825	0.0895	163365	keystroke_c	c	n/a
81.832	0.09	163664	keystroke_Key.space	Key.space	n/a
82.193	0.045	164386	keystroke_q	q	n/a
83.0325	0.0905	166065	keystroke_u	u	n/a
83.288	0.09	166576	keystroke_e	e	n/a
83.768	0.075	167536	keystroke_u	u	n/a
84.533	0.0745	169066	keystroke_Key.backspace	Key.backspace	n/a
84.6825	0.09	169365	keystroke_Key.backspace	Key.backspace	n/a
84.8625	0.045	169725	keystroke_Key.backspace	Key.backspace	n/a
85.553	0.105	171106	keystroke_u	u	n/a
85.808	0.105	171616	keystroke_e	e	n/a
86.0025	0.0755	172005	keystroke_u	u	n/a
86.168	0.0295	172336	keystroke_e	e	n/a
86.6925	0.135	173385	keystroke_Key.enter	Key.enter	n/a
86.835	12.535	173670	prompt	n/a	watching assignment miles corresponding\n
87.5025	0.121	175005	keystroke_w	w	n/a
87.6075	0.1205	175215	keystroke_a	a	n/a
87.968	0.03	175936	keystroke_t	t	n/a
88.3275	0.1505	176655	keystroke_c	c	n/a
88.763	0.06	177526	keystroke_h	h	n/a
88.988	0.09	177976	keystroke_i	i	n/a
89.033	0.12	178066	keystroke_n	n	n/a
89.138	0.1055	178276	keystroke_g	g	n/a
89.2585	0.1195	178517	keystroke_Key.space	Key.space	n/a
89.379	0.119	178758	keystroke_a	a	n/a
89.513	0.075	179026	keystroke_s	s	n/a
89.678	0.09	179356	keystroke_s	s	n/a
90.0525	0.121	180105	keystroke_i	i	n/a
90.353	0.075	180706	keystroke_n	n	n/a
90.698	0.045	181396	keystroke_Key.backspace	Key.backspace	n/a
90.818	0.105	181636	keystroke_g	g	n/a
90.953	0.09	181906	keystroke_n	n	n/a
91.2225	0.09	182445	keystroke_m	m	n/a
91.3735	0.105	182747	keystroke_e	e	n/a
91.4485	0.09	182897	keystroke_n	n	n/a
91.5825	0.091	183165	keystroke_t	t	n/a
91.7175	0.091	183435	keystroke_Key.space	Key.space	n/a
92.048	0.105	184096	keystroke_m	m	n/a
92.258	0.06	184516	keystroke_i	i	n/a
92.498	0.075	184996	keystroke_l	l	n/a
92.768	0.075	185536	keystroke_e	e	n/a
92.9785	0.0745	185957	keystroke_s	s	n/a
93.4285	0.09	186857	keystroke_Key.space	Key.space	n/a
93.818	0.06	187636	keystroke_c	c	n/a
94.1035	0.105	188207	keystroke_o	o	n/a
94.3735	0.06	188747	keystroke_r	r	n/a
94.5235	0.135	189047	keystroke_r	r	n/a
94.6435	0.12	189287	keystroke_e	e	n/a
94.8385	0.1045	189677	keystroke_d	d	n/a
95.378	0.015	190756	keystroke_Key.backspace	Key.backspace	n/a
95.408	0.105	190816	keystroke_s	s	n/a
95.6335	0.1045	191267	keystroke_p	p	n/a
96.338	0.105	192676	keystroke_o	o	n/a
96.7135	0.09	193427	keystroke_n	n	n/a
96.8335	0.165	193667	keystroke_d	d	n/a
97.4035	0.1495	194807	keystroke_n	n	n/a
97.538	0.105	195076	keystroke_g	g	n/a
98.2585	0.075	196517	keystroke_Key.backspace	Key.backspace	n/a
98.3935	0.09	196787	keystroke_Key.backspace	Key.backspace	n/a
98.6935	0.09	197387	keystroke_i	i	n/a
98.7685	0.105	197537	keystroke_n	n	n/a
98.8885	0.105	197777	keystroke_g	g	n/a
99.203	0.1655	198406	keystroke_Key.enter	Key.enter	n/a
99.3825	8.163	198765	prompt	n/a	offline flush currently wrestling\n
100.8085	0.075	201617	keystroke_o	o	n/a
101.0335	0.06	202067	keystroke_f	f	n/a
101.1985	0.0595	202397	keystroke_f	f	n/a
101.318	0.0905	202636	keystroke_l	l	n/a
101.6035	0.105	203207	keystroke_i	i	n/a
101.6935	0.105	203387	keystroke_n	n	n/a
101.8135	0.09	203627	keystroke_e	e	n/a
101.9485	0.09	203897	keystroke_Key.space	Key.space	n/a
102.458	0.075	204916	keystroke_f	f	n/a
102.548	0.09	205096	keystroke_l	l	n/a
102.743	0.06	205486	keystroke_u	u	n/a
102.818	0.1505	205636	keystroke_s	s	n/a
102.9535	0.105	205907	keystroke_h	h	n/a
103.1935	0.06	206387	keystroke_Key.space	Key.space	n/a
103.6285	0.075	207257	keystroke_c	c	n/a
103.7045	0.104	207409	keystroke_u	u	n/a
103.8825	0.03	207765	keystroke_r	r	n/a
104.0175	0.0455	208035	keystroke_r	r	n/a
104.213	0.09	208426	keystroke_e	e	n/a
104.364	0.09	208728	keystroke_n	n	n/a
104.484	0.1055	208968	keystroke_t	t	n/a
104.6495	0.089	209299	keystroke_l	l	n/a
104.7685	0.12	209537	keystroke_y	y	n/a
105.3535	0.12	210707	keystroke_Key.space	Key.space	n/a
105.668	0.136	211336	keystroke_w	w	n/a
105.954	0.0895	211908	keystroke_r	r	n/a
106.1635	0.09	212327	keystroke_e	e	n/a
106.374	0.0445	212748	keystroke_s	s	n/a
106.538	0.061	213076	keystroke_t	t	n/a
106.7185	0.075	213437	keystroke_l	l	n/a
106.9435	0.12	213887	keystroke_i	i	n/a
107.0335	0.12	214067	keystroke_n	n	n/a
107.1685	0.09	214337	keystroke_g	g	n/a
107.4235	0.1195	214847	keystroke_Key.enter	Key.enter	n/a
107.548	8.1875	215096	prompt	n/a	carbon peas bangkok lake\n
108.188	0.12	216376	keystroke_c	c	n/a
108.278	0.135	216556	keystroke_a	a	n/a
108.459	0.075	216918	keystroke_r	r	n/a
108.5645	0.0895	217129	keystroke_b	b	n/a
108.789	0.135	217578	keystroke_o	o	n/a
108.849	0.1795	217698	keystroke_n	n	n/a
109.209	0.12	218418	keystroke_Key.space	Key.space	n/a
109.4485	0.0755	218897	keystroke_p	p	n/a
109.5085	0.1205	219017	keystroke_e	e	n/a
109.779	0.0895	219558	keystroke_a	a	n/a
109.8985	0.12	219797	keystroke_s	s	n/a
110.139	0.105	220278	keystroke_Key.space	Key.space	n/a
110.424	0.059	220848	keystroke_b	b	n/a
110.514	0.105	221028	keystroke_a	a	n/a
111.084	0.0595	222168	keystroke_n	n	n/a
111.2335	0.09	222467	keystroke_g	g	n/a
111.4595	0.059	222919	keystroke_k	k	n/a
111.6385	0.045	223277	keystroke_i	i	n/a
111.834	0.105	223668	keystroke_k	k	n/a
112.119	0.09	224238	keystroke_Key.space	Key.space	n/a
112.3445	0.104	224689	keystroke_l	l	n/a
112.4335	0.105	224867	keystroke_a	a	n/a
112.853	0.0755	225706	keystroke_Key.backspace	Key.backspace	n/a
113.0185	0.045	226037	keystroke_Key.backspace	Key.backspace	n/a
113.1685	0.045	226337	keystroke_Key.backspace	Key.backspace	n/a
113.319	0.075	226638	keystroke_Key.backspace	Key.backspace	n/a
113.544	0.03	227088	keystroke_Key.backspace	Key.backspace	n/a
113.9185	0.12	227837	keystroke_o	o	n/a
113.9935	0.15	227987	keystroke_k	k	n/a
114.639	0.15	229278	keystroke_Key.space	Key.space	n/a
114.819	0.105	229638	keystroke_l	l	n/a
114.939	0.134	229878	keystroke_a	a	n/a
115.1485	0.105	230297	keystroke_k	k	n/a
115.2985	0.09	230597	keystroke_e	e	n/a
115.6285	0.105	231257	keystroke_Key.enter	Key.enter	n/a
115.7385	7.754	231477	prompt	n/a	stack blake signature motion\n
116.3685	0.0755	232737	keystroke_s	s	n/a
116.5515	0.0765	233103	keystroke_t	t	n/a
116.689	0.119	233378	keystroke_a	a	n/a
116.884	0.1225	233768	keystroke_c	c	n/a
117.0215	0.106	234043	keystroke_k	k	n/a
117.231	0.0915	234462	keystroke_Key.space	Key.space	n/a
117.4145	0.091	234829	keystroke_b	b	n/a
117.623	0.092	235246	keystroke_l	l	n/a
117.73	0.0915	235460	keystroke_a	a	n/a
118.0155	0.122	236031	keystroke_c	c	n/a
118.1525	0.0925	236305	keystroke_j	j	n/a
118.5915	0.0915	237183	keystroke_Key.backspace	Key.backspace	n/a
118.79	0.088	237580	keystroke_k	k	n/a
119.106	0.061	238212	keystroke_Key.backspace	Key.backspace	n/a
119.274	0.0275	238548	keystroke_Key.backspace	Key.backspace	n/a
119.453	0.0915	238906	keystroke_k	k	n/a
119.575	0.0915	239150	keystroke_e	e	n/a
119.711	0.0885	239422	keystroke_Key.space	Key.space	n/a
119.8755	0.107	239751	keystroke_s	s	n/a
119.9975	0.107	239995	keystroke_i	i	n/a
120.2075	0.061	240415	keystroke_g	g	n/a
120.723	0.0915	241446	keystroke_n	n	n/a
120.8755	0.1065	241751	keystroke_a	a	n/a
121.0695	0.0915	242139	keystroke_t	t	n/a
121.2675	0.1075	242535	keystroke_u	u	n/a
121.4625	0.1065	242925	keystroke_r	r	n/a
121.584	0.046	243168	keystroke_e	e	n/a
121.7665	0.1055	243533	keystroke_Key.space	Key.space	n/a
122.0385	0.1065	244077	keystroke_m	m	n/a
122.206	0.0885	244412	keystroke_o	o	n/a
122.4005	0.061	244801	keystroke_t	t	n/a
122.446	0.107	244892	keystroke_i	i	n/a
122.778	0.1215	245556	keystroke_o	o	n/a
122.946	0.122	245892	keystroke_n	n	n/a
123.369	0.122	246738	keystroke_Key.enter	Key.enter	n/a
123.4965	11.3245	246993	prompt	n/a	continental bosnia time piano\n
124.292	0.136	248584	keystroke_c	c	n/a
124.414	0.1335	248828	keystroke_o	o	n/a
124.4865	0.122	248973	keystroke_n	n	n/a
125.26	0.0435	250520	keystroke_i	i	n/a
125.803	0.061	251606	keystroke_Key.backspace	Key.backspace	n/a
125.925	0.1065	251850	keystroke_t	t	n/a
126.196	0.076	252392	keystroke_i	i	n/a
126.619	0.122	253238	keystroke_n	n	n/a
127.0735	0.1065	254147	keystroke_e	e	n/a
127.3755	0.106	254751	keystroke_n	n	n/a
127.5575	0.0915	255115	keystroke_t	t	n/a
127.7555	0.1035	255511	keystroke_a	a	n/a
127.92	0.091	255840	keystroke_;	;	n/a
128.42	0.1065	256840	keystroke_Key.backspace	Key.backspace	n/a
128.7825	0.1065	257565	keystroke_l	l	n/a
129.206	0.137	258412	keystroke_Key.space	Key.space	n/a
129.9465	0.061	259893	keystroke_b	b	n/a
130.1595	0.0455	260319	keystroke_o	o	n/a
130.4005	0.091	260801	keystroke_s	s	n/a
130.583	0.106	261166	keystroke_n	n	n/a
130.7655	0.105	261531	keystroke_i	i	n/a
130.931	0.1215	261862	keystroke_a	a	n/a
131.129	0.119	262258	keystroke_Key.space	Key.space	n/a
131.3995	0.122	262799	keystroke_t	t	n/a
131.9295	0.1195	263859	keystroke_i	i	n/a
132.065	0.0905	264130	keystroke_m	m	n/a
132.201	0.1075	264402	keystroke_e	e	n/a
132.4885	0.1215	264977	keystroke_Key.space	Key.space	n/a
132.6705	0.091	265341	keystroke_o	o	n/a
133.35	0.1075	266700	keystroke_Key.backspace	Key.backspace	n/a
133.7155	0.135	267431	keystroke_p	p	n/a
133.881	0.0905	267762	keystroke_i	i	n/a
134.078	0.12	268156	keystroke_a	a	n/a
134.1235	0.196	268247	keystroke_n	n	n/a
134.3345	0.091	268669	keystroke_o	o	n/a
134.7275	0.0915	269455	keystroke_Key.enter	Key.enter	n/a
134.824	6.3965	269648	prompt	n/a	coaches louis limit pressed\n
135.606	0.106	271212	keystroke_c	c	n/a
135.727	0.0915	271454	keystroke_o	o	n/a
135.8035	0.135	271607	keystroke_a	a	n/a
136.0445	0.076	272089	keystroke_c	c	n/a
136.2865	0.0905	272573	keystroke_h	h	n/a
136.407	0.076	272814	keystroke_e	e	n/a
136.574	0.0915	273148	keystroke_s	s	n/a
136.74	0.1365	273480	keystroke_Key.space	Key.space	n/a
137.3	0.076	274600	keystroke_l	l	n/a
137.5275	0.0895	275055	keystroke_o	o	n/a
137.7385	0.091	275477	keystroke_u	u	n/a
137.9205	0.09	275841	keystroke_i	i	n/a
138.2235	0.0605	276447	keystroke_s	s	n/a
138.39	0.09	276780	keystroke_Key.space	Key.space	n/a
138.6165	0.091	277233	keystroke_l	l	n/a
138.7985	0.0895	277597	keystroke_i	i	n/a
139.0095	0.106	278019	keystroke_m	m	n/a
139.162	0.091	278324	keystroke_i	i	n/a
139.2975	0.1205	278595	keystroke_t	t	n/a
139.524	0.1065	279048	keystroke_Key.space	Key.space	n/a
139.9635	0.091	279927	keystroke_p	p	n/a
140.0695	0.1505	280139	keystroke_r	r	n/a
140.1745	0.1215	280349	keystroke_e	e	n/a
140.417	0.0605	280834	keystroke_s	s	n/a
140.584	0.135	281168	keystroke_s	s	n/a
140.7345	0.0605	281469	keystroke_e	e	n/a
140.9315	0.091	281863	keystroke_d	d	n/a
141.097	0.1215	282194	keystroke_Key.enter	Key.enter	n/a
141.223	7.9855	282446	prompt	n/a	constraints accused troops medicare\n
141.8695	0.1205	283739	keystroke_c	c	n/a
142.0355	0.0755	284071	keystroke_o	o	n/a
142.081	0.1215	284162	keystroke_n	n	n/a
142.218	0.0755	284436	keystroke_s	s	n/a
142.3535	0.136	284707	keystroke_t	t	n/a
142.429	0.106	284858	keystroke_r	r	n/a
142.626	0.122	285252	keystroke_a	a	n/a
142.8985	0.091	285797	keystroke_i	i	n/a
143.1865	0.075	286373	keystroke_t	t	n/a
143.534	0.076	287068	keystroke_Key.backspace	Key.backspace	n/a
143.7605	0.091	287521	keystroke_n	n	n/a
143.8815	0.091	287763	keystroke_t	t	n/a
144.108	0.091	288216	keystroke_s	s	n/a
144.3355	0.121	288671	keystroke_Key.space	Key.space	n/a
144.592	0.106	289184	keystroke_a	a	n/a
144.7445	0.076	289489	keystroke_c	c	n/a
144.8955	0.1365	289791	keystroke_c	c	n/a
145.047	0.0905	290094	keystroke_u	u	n/a
145.183	0.1365	290366	keystroke_s	s	n/a
145.289	0.075	290578	keystroke_e	e	n/a
145.47	0.091	290940	keystroke_d	d	n/a
145.531	0.121	291062	keystroke_Key.space	Key.space	n/a
145.7575	0.106	291515	keystroke_t	t	n/a
145.803	0.121	291606	keystroke_r	r	n/a
146.817	0.091	293634	keystroke_o	o	n/a
146.9835	0.0905	293967	keystroke_o	o	n/a
147.18	0.091	294360	keystroke_p	p	n/a
147.3465	0.1055	294693	keystroke_s	s	n/a
147.528	0.1055	295056	keystroke_Key.space	Key.space	n/a
147.695	0.1055	295390	keystroke_m	m	n/a
147.846	0.0905	295692	keystroke_e	e	n/a
148.042	0.106	296084	keystroke_d	d	n/a
148.1935	0.0605	296387	keystroke_i	i	n/a
148.3445	0.0755	296689	keystroke_c	c	n/a
148.421	0.105	296842	keystroke_a	a	n/a
148.6175	0.1055	297235	keystroke_r	r	n/a
148.9045	0.0905	297809	keystroke_e	e	n/a
149.101	0.1055	298202	keystroke_Key.enter	Key.enter	n/a
149.219	18.1395	298438	prompt	n/a	attempted touring hypothetical essentially\n
149.873	0.06	299746	keystroke_e	e	n/a
150.2505	0.121	300501	keystroke_Key.backspace	Key.backspace	n/a
150.3725	0.06	300745	keystroke_a	a	n/a
150.5535	0.03	301107	keystroke_t	t	n/a
150.6895	0.0755	301379	keystroke_t	t	n/a
150.8105	0.0905	301621	keystroke_e	e	n/a
150.886	0.1815	301772	keystroke_m	m	n/a
151.0825	0.106	302165	keystroke_p	p	n/a
151.5215	0.0905	303043	keystroke_t	t	n/a
151.688	0.1055	303376	keystroke_e	e	n/a
151.869	0.106	303738	keystroke_d	d	n/a
151.96	0.121	303920	keystroke_Key.space	Key.space	n/a
153.186	0.1055	306372	keystroke_t	t	n/a
153.5185	0.136	307037	keystroke_o	o	n/a
153.8055	0.121	307611	keystroke_u	u	n/a
153.972	0.1055	307944	keystroke_r	r	n/a
154.123	0.1515	308246	keystroke_i	i	n/a
154.244	0.106	308488	keystroke_n	n	n/a
154.3195	0.1065	308639	keystroke_g	g	n/a
154.5465	0.1055	309093	keystroke_Key.space	Key.space	n/a
155.1975	0.0605	310395	keystroke_h	h	n/a
155.8925	0.091	311785	keystroke_y	y	n/a
156.3005	0.1215	312601	keystroke_p	p	n/a
156.452	0.121	312904	keystroke_o	o	n/a
156.6935	0.0455	313387	keystroke_t	t	n/a
156.7995	0.092	313599	keystroke_e	e	n/a
156.997	0.03	313994	keystroke_h	h	n/a
157.239	0.0905	314478	keystroke_t	t	n/a
157.8735	0.0455	315747	keystroke_Key.backspace	Key.backspace	n/a
158.0095	0.061	316019	keystroke_Key.backspace	Key.backspace	n/a
158.176	0.0605	316352	keystroke_Key.backspace	Key.backspace	n/a
158.6445	0.0755	317289	keystroke_h	h	n/a
159.11	0.1055	318220	keystroke_e	e	n/a
159.3645	0.0905	318729	keystroke_t	t	n/a
159.5	0.106	319000	keystroke_i	i	n/a
159.7265	0.118	319453	keystroke_c	c	n/a
159.8145	0.1205	319629	keystroke_a	a	n/a
159.9655	0.09	319931	keystroke_l	l	n/a
160.4	0.1205	320800	keystroke_Key.space	Key.space	n/a
160.895	0.0905	321790	keystroke_e	e	n/a
161.1185	0.0455	322237	keystroke_s	s	n/a
161.2695	0.0605	322539	keystroke_s	s	n/a
161.4625	0.1055	322925	keystroke_e	e	n/a
161.6135	0.0905	323227	keystroke_n	n	n/a
161.8245	0.073	323649	keystroke_t	t	n/a
162.302	0.0605	324604	keystroke_u	u	n/a
162.483	0.091	324966	keystroke_a	a	n/a
162.634	0.0465	325268	keystroke_l	l	n/a
162.933	0.0455	325866	keystroke_Key.backspace	Key.backspace	n/a
163.069	0.0725	326138	keystroke_Key.backspace	Key.backspace	n/a
163.2015	0.0755	326403	keystroke_Key.backspace	Key.backspace	n/a
163.504	0.0745	327008	keystroke_a	a	n/a
163.833	0.0605	327666	keystroke_Key.backspace	Key.backspace	n/a
164.0415	0.0905	328083	keystroke_u	u	n/a
164.2075	0.0755	328415	keystroke_a	a	n/a
164.3585	0.06	328717	keystroke_l	l	n/a
164.657	0.0755	329314	keystroke_Key.backspace	Key.backspace	n/a
164.808	0.0595	329616	keystroke_Key.backspace	Key.backspace	n/a
164.957	0.1055	329914	keystroke_Key.backspace	Key.backspace	n/a
165.633	0.045	331266	keystroke_i	i	n/a
165.7805	0.106	331561	keystroke_a	a	n/a
166.037	0.0905	332074	keystroke_l	l	n/a
166.2	0.0605	332400	keystroke_l	l	n/a
166.351	0.1055	332702	keystroke_y	y	n/a
167.2515	0.1055	334503	keystroke_Key.enter	Key.enter	n/a
167.3695	20.3385	334739	prompt	n/a	brakes simpson costa deutschland\n
168.0755	0.0905	336151	keystroke_b	b	n/a
168.167	0.1185	336334	keystroke_r	r	n/a
168.4795	0.0765	336959	keystroke_a	a	n/a
168.6155	0.103	337231	keystroke_k	k	n/a
168.7495	0.0905	337499	keystroke_e	e	n/a
168.9455	0.0755	337891	keystroke_s	s	n/a
169.036	0.1175	338072	keystroke_Key.space	Key.space	n/a
169.184	0.06	338368	keystroke_s	s	n/a
169.2895	0.1205	338579	keystroke_u	u	n/a
169.951	0.0725	339902	keystroke_Key.backspace	Key.backspace	n/a
170.22	0.1045	340440	keystroke_o	o	n/a
170.249	0.1515	340498	keystroke_m	m	n/a
170.6545	0.045	341309	keystroke_Key.backspace	Key.backspace	n/a
170.805	0.0575	341610	keystroke_Key.backspace	Key.backspace	n/a
171.373	0.0595	342746	keystroke_i	i	n/a
171.4025	0.1205	342805	keystroke_m	m	n/a
171.9285	0.075	343857	keystroke_p	p	n/a
172.0485	0.103	344097	keystroke_s	s	n/a
172.2115	0.0905	344423	keystroke_o	o	n/a
172.317	0.0305	344634	keystroke_n	n	n/a
172.828	0.105	345656	keystroke_Key.space	Key.space	n/a
172.991	0.15	345982	keystroke_c	c	n/a
173.096	0.1205	346192	keystroke_o	o	n/a
173.4865	0.1655	346973	keystroke_s	s	n/a
173.637	0.0905	347274	keystroke_a	a	n/a
174.161	0.0735	348322	keystroke_Key.backspace	Key.backspace	n/a
174.2505	0.09	348501	keystroke_t	t	n/a
174.401	0.0905	348802	keystroke_a	a	n/a
174.597	0.1175	349194	keystroke_Key.space	Key.space	n/a
175.4355	0.1485	350871	keystroke_d	d	n/a
175.614	0.091	351228	keystroke_e	e	n/a
176.094	0.03	352188	keystroke_Key.backspace	Key.backspace	n/a
176.6195	0.09	353239	keystroke_e	e	n/a
177.4885	0.0755	354977	keystroke_y	y	n/a
178.0715	0.09	356143	keystroke_Key.backspace	Key.backspace	n/a
178.4775	0.059	356955	keystroke_s	s	n/a
178.7325	0.075	357465	keystroke_Key.backspace	Key.backspace	n/a
178.956	0.09	357912	keystroke_y	y	n/a
179.511	0.0605	359022	keystroke_Key.backspace	Key.backspace	n/a
179.9455	0.045	359891	keystroke_y	y	n/a
180.5305	0.104	361061	keystroke_Key.backspace	Key.backspace	n/a
180.8	0.09	361600	keystroke_y	y	n/a
181.264	0.106	362528	keystroke_Key.backspace	Key.backspace	n/a
181.9375	0.075	363875	keystroke_u	u	n/a
182.163	0.1505	364326	keystroke_s	s	n/a
183.032	0.1055	366064	keystroke_t	t	n/a
184.2005	0.075	368401	keystroke_Key.backspace	Key.backspace	n/a
184.366	0.0895	368732	keystroke_Key.backspace	Key.backspace	n/a
184.4695	0.091	368939	keystroke_t	t	n/a
184.846	0.0735	369692	keystroke_s	s	n/a
185.04	0.1205	370080	keystroke_c	c	n/a
185.1755	0.075	370351	keystroke_h	h	n/a
185.459	0.06	370918	keystroke_l	l	n/a
185.7295	0.134	371459	keystroke_a	a	n/a
186.178	0.0595	372356	keystroke_Key.backspace	Key.backspace	n/a
186.3275	0.0755	372655	keystroke_Key.backspace	Key.backspace	n/a
186.538	0.0885	373076	keystroke_l	l	n/a
186.6875	0.1345	373375	keystroke_a	a	n/a
186.9135	0.1045	373827	keystroke_n	n	n/a
187.137	0.1205	374274	keystroke_d	d	n/a
187.571	0.1355	375142	keystroke_Key.enter	Key.enter	n/a
187.711	8.957	375422	prompt	n/a	starter ment space discussion\n
188.395	0.06	376790	keystroke_s	s	n/a
188.56	0.0765	377120	keystroke_t	t	n/a
188.6955	0.105	377391	keystroke_a	a	n/a
188.9055	0.0605	377811	keystroke_r	r	n/a
188.936	0.135	377872	keystroke_t	t	n/a
189.161	0.1035	378322	keystroke_e	e	n/a
189.2795	0.075	378559	keystroke_r	r	n/a
189.3995	0.1505	378799	keystroke_Key.space	Key.space	n/a
189.535	0.119	379070	keystroke_m	m	n/a
189.714	0.09	379428	keystroke_e	e	n/a
189.8195	0.09	379639	keystroke_n	n	n/a
190.0145	0.0885	380029	keystroke_u	u	n/a
190.1785	0.09	380357	keystroke_e	e	n/a
190.344	0.104	380688	keystroke_Key.space	Key.space	n/a
190.7485	0.075	381497	keystroke_Key.backspace	Key.backspace	n/a
190.882	0.09	381764	keystroke_Key.backspace	Key.backspace	n/a
191.1225	0.09	382245	keystroke_Key.space	Key.space	n/a
191.243	0.134	382486	keystroke_s	s	n/a
191.648	0.1185	383296	keystroke_p	p	n/a
191.8115	0.1205	383623	keystroke_a	a	n/a
192.022	0.1205	384044	keystroke_c	c	n/a
192.1275	0.0735	384255	keystroke_e	e	n/a
192.261	0.1205	384522	keystroke_Key.space	Key.space	n/a
192.9965	0.073	385993	keystroke_d	d	n/a
193.0845	0.0905	386169	keystroke_i	i	n/a
193.19	0.075	386380	keystroke_s	s	n/a
193.3555	0.1185	386711	keystroke_c	c	n/a
193.504	0.0755	387008	keystroke_u	u	n/a
193.7445	0.0455	387489	keystroke_s	s	n/a
193.8945	0.075	387789	keystroke_s	s	n/a
194.134	0.1065	388268	keystroke_i	i	n/a
194.419	0.1805	388838	keystroke_n	n	n/a
195.707	0.0605	391414	keystroke_Key.backspace	Key.backspace	n/a
196.112	0.12	392224	keystroke_o	o	n/a
196.187	0.135	392374	keystroke_n	n	n/a
196.576	0.0905	393152	keystroke_Key.enter	Key.enter	n/a
196.6715	8.64	393343	prompt	n/a	your replication lender ozone\n
197.804	0.09	395608	keystroke_y	y	n/a
198.0295	0.134	396059	keystroke_o	o	n/a
198.105	0.1185	396210	keystroke_u	u	n/a
198.2385	0.09	396477	keystroke_r	r	n/a
198.389	0.135	396778	keystroke_Key.space	Key.space	n/a
198.509	0.1035	397018	keystroke_r	r	n/a
198.568	0.1345	397136	keystroke_e	e	n/a
198.6875	0.1205	397375	keystroke_o	o	n/a
199.002	0.105	398004	keystroke_l	l	n/a
199.437	0.0595	398874	keystroke_Key.backspace	Key.backspace	n/a
199.587	0.09	399174	keystroke_Key.backspace	Key.backspace	n/a
199.8855	0.076	399771	keystroke_p	p	n/a
200.6215	0.0895	401243	keystroke_l	l	n/a
200.77	0.1055	401540	keystroke_i	i	n/a
200.9055	0.09	401811	keystroke_c	c	n/a
200.9805	0.09	401961	keystroke_a	a	n/a
201.145	0.105	402290	keystroke_t	t	n/a
201.28	0.12	402560	keystroke_i	i	n/a
201.744	0.1205	403488	keystroke_o	o	n/a
201.8795	0.105	403759	keystroke_n	n	n/a
202.3445	0.134	404689	keystroke_Key.space	Key.space	n/a
202.7335	0.09	405467	keystroke_e	e	n/a
203.0775	0.105	406155	keystroke_Key.backspace	Key.backspace	n/a
203.3925	0.06	406785	keystroke_l	l	n/a
203.5125	0.0905	407025	keystroke_e	e	n/a
203.618	0.1035	407236	keystroke_n	n	n/a
203.7665	0.12	407533	keystroke_d	d	n/a
203.962	0.075	407924	keystroke_e	e	n/a
203.992	0.12	407984	keystroke_r	r	n/a
204.113	0.118	408226	keystroke_Key.space	Key.space	n/a
204.276	0.12	408552	keystroke_o	o	n/a
204.546	0.1195	409092	keystroke_z	z	n/a
204.6955	0.165	409391	keystroke_o	o	n/a
204.8455	0.0895	409691	keystroke_n	n	n/a
204.95	0.074	409900	keystroke_e	e	n/a
205.205	0.1055	410410	keystroke_Key.enter	Key.enter	n/a
205.3175	6.1645	410635	prompt	n/a	select yields deliver disco\n
205.983	0.03	411966	keystroke_s	s	n/a
206.1485	0.09	412297	keystroke_e	e	n/a
206.2535	0.1035	412507	keystroke_l	l	n/a
206.372	0.075	412744	keystroke_e	e	n/a
206.5835	0.075	413167	keystroke_c	c	n/a
206.777	0.075	413554	keystroke_t	t	n/a
206.867	0.1205	413734	keystroke_Key.space	Key.space	n/a
207.6005	0.075	415201	keystroke_y	y	n/a
207.826	0.045	415652	keystroke_i	i	n/a
207.9165	0.089	415833	keystroke_e	e	n/a
208.0505	0.0905	416101	keystroke_l	l	n/a
208.231	0.105	416462	keystroke_d	d	n/a
208.306	0.1045	416612	keystroke_s	s	n/a
208.4845	0.105	416969	keystroke_Key.space	Key.space	n/a
208.919	0.12	417838	keystroke_d	d	n/a
209.054	0.105	418108	keystroke_e	e	n/a
209.174	0.075	418348	keystroke_l	l	n/a
209.3695	0.1045	418739	keystroke_i	i	n/a
209.489	0.06	418978	keystroke_v	v	n/a
209.6235	0.105	419247	keystroke_e	e	n/a
209.7135	0.1205	419427	keystroke_r	r	n/a
209.849	0.15	419698	keystroke_Key.space	Key.space	n/a
210.611	0.1205	421222	keystroke_d	d	n/a
210.7615	0.09	421523	keystroke_i	i	n/a
210.8815	0.09	421763	keystroke_s	s	n/a
211.0155	0.12	422031	keystroke_c	c	n/a
211.1205	0.09	422241	keystroke_o	o	n/a
211.3615	0.1195	422723	keystroke_Key.enter	Key.enter	n/a
211.485	9.5235	422970	prompt	n/a	adjusted primary methodology programs\n
212.2	0.089	424400	keystroke_a	a	n/a
212.409	0.09	424818	keystroke_d	d	n/a
212.5445	0.09	425089	keystroke_j	j	n/a
212.7385	0.03	425477	keystroke_u	u	n/a
212.9035	0.075	425807	keystroke_s	s	n/a
213.0835	0.074	426167	keystroke_t	t	n/a
213.1725	0.06	426345	keystroke_e	e	n/a
213.338	0.091	426676	keystroke_d	d	n/a
213.444	0.105	426888	keystroke_Key.space	Key.space	n/a
213.578	0.075	427156	keystroke_p	p	n/a
213.638	0.09	427276	keystroke_r	r	n/a
213.848	0.045	427696	keystroke_o	o	n/a
214.4315	0.09	428863	keystroke_Key.backspace	Key.backspace	n/a
214.7465	0.09	429493	keystroke_i	i	n/a
214.8505	0.135	429701	keystroke_m	m	n/a
215.1505	0.091	430301	keystroke_a	a	n/a
215.2565	0.119	430513	keystroke_r	r	n/a
215.4055	0.09	430811	keystroke_y	y	n/a
215.6455	0.089	431291	keystroke_Key.space	Key.space	n/a
215.9445	0.09	431889	keystroke_m	m	n/a
216.124	0.0745	432248	keystroke_e	e	n/a
216.4245	0.03	432849	keystroke_t	t	n/a
216.664	0.09	433328	keystroke_h	h	n/a
216.9785	0.104	433957	keystroke_o	o	n/a
217.592	0.09	435184	keystroke_d	d	n/a
217.9365	0.06	435873	keystroke_o	o	n/a
218.1165	0.06	436233	keystroke_l	l	n/a
218.2805	0.075	436561	keystroke_o	o	n/a
218.4455	0.075	436891	keystroke_g	g	n/a
218.5355	0.06	437071	keystroke_y	y	n/a
218.8205	0.089	437641	keystroke_Key.space	Key.space	n/a
219.375	0.0745	438750	keystroke_p	p	n/a
219.5095	0.119	439019	keystroke_r	r	n/a
219.6885	0.106	439377	keystroke_o	o	n/a
219.8095	0.134	439619	keystroke_g	g	n/a
219.9145	0.119	439829	keystroke_r	r	n/a
220.1085	0.105	440217	keystroke_a	a	n/a
220.498	0.075	440996	keystroke_m	m	n/a
220.603	0.0895	441206	keystroke_s	s	n/a
220.8565	0.15	441713	keystroke_Key.enter	Key.enter	n/a
221.014	11.167	442028	prompt	n/a	limits sound nitrogen eligible\n
221.6365	0.0885	443273	keystroke_l	l	n/a
221.83	0.0745	443660	keystroke_i	i	n/a
222.0095	0.1055	444019	keystroke_m	m	n/a
222.13	0.105	444260	keystroke_i	i	n/a
222.265	0.09	444530	keystroke_t	t	n/a
222.549	0.0895	445098	keystroke_s	s	n/a
222.6835	0.0905	445367	keystroke_Key.space	Key.space	n/a
223.043	0.105	446086	keystroke_s	s	n/a
223.238	0.165	446476	keystroke_o	o	n/a
223.314	0.118	446628	keystroke_u	u	n/a
223.613	0.075	447226	keystroke_n	n	n/a
223.837	0.09	447674	keystroke_d	d	n/a
223.9715	0.105	447943	keystroke_Key.space	Key.space	n/a
224.572	0.119	449144	keystroke_n	n	n/a
224.706	0.09	449412	keystroke_i	i	n/a
224.901	0.1045	449802	keystroke_t	t	n/a
224.9905	0.104	449981	keystroke_r	r	n/a
225.695	0.0895	451390	keystroke_o	o	n/a
225.8745	0.119	451749	keystroke_d	d	n/a
226.2335	0.0905	452467	keystroke_Key.backspace	Key.backspace	n/a
226.294	0.134	452588	keystroke_g	g	n/a
226.458	0.105	452916	keystroke_e	e	n/a
226.578	0.09	453156	keystroke_n	n	n/a
226.862	0.09	453724	keystroke_Key.space	Key.space	n/a
227.117	0.075	454234	keystroke_s	s	n/a
227.6565	0.09	455313	keystroke_l	l	n/a
227.941	0.075	455882	keystroke_Key.backspace	Key.backspace	n/a
228.1055	0.0595	456211	keystroke_Key.backspace	Key.backspace	n/a
228.196	0.12	456392	keystroke_e	e	n/a
228.361	0.09	456722	keystroke_l	l	n/a
228.825	0.0895	457650	keystroke_i	i	n/a
229.438	0.06	458876	keystroke_b	b	n/a
230.398	0.06	460796	keystroke_Key.backspace	Key.backspace	n/a
230.578	0.074	461156	keystroke_g	g	n/a
230.9065	0.106	461813	keystroke_i	i	n/a
231.176	0.075	462352	keystroke_b	b	n/a
231.416	0.119	462832	keystroke_l	l	n/a
231.55	0.09	463100	keystroke_e	e	n/a
232.06	0.12	464120	keystroke_Key.enter	Key.enter	n/a
232.184	8.5195	464368	prompt	n/a	meaning usda carlo toll\n
232.8835	0.15	465767	keystroke_e	e	n/a
233.2125	0.075	466425	keystroke_Key.backspace	Key.backspace	n/a
233.513	0.1045	467026	keystroke_e	e	n/a
233.573	0.149	467146	keystroke_a	a	n/a
233.887	0.06	467774	keystroke_Key.backspace	Key.backspace	n/a
234.0515	0.0595	468103	keystroke_Key.backspace	Key.backspace	n/a
234.231	0.09	468462	keystroke_k	k	n/a
234.336	0.105	468672	keystroke_e	e	n/a
234.396	0.1195	468792	keystroke_a	a	n/a
234.815	0.06	469630	keystroke_Key.backspace	Key.backspace	n/a
234.9655	0.06	469931	keystroke_Key.backspace	Key.backspace	n/a
235.1305	0.075	470261	keystroke_Key.backspace	Key.backspace	n/a
235.564	0.0895	471128	keystroke_m	m	n/a
235.6685	0.106	471337	keystroke_e	e	n/a
235.7435	0.12	471487	keystroke_a	a	n/a
235.818	0.09	471636	keystroke_n	n	n/a
236.089	0.075	472178	keystroke_i	i	n/a
236.208	0.1195	472416	keystroke_n	n	n/a
236.3575	0.09	472715	keystroke_g	g	n/a
236.4625	0.105	472925	keystroke_Key.space	Key.space	n/a
236.5375	0.1195	473075	keystroke_u	u	n/a
236.672	0.12	473344	keystroke_s	s	n/a
237.227	0.12	474454	keystroke_f	f	n/a
237.377	0.1195	474754	keystroke_a	a	n/a
237.8105	0.06	475621	keystroke_Key.backspace	Key.backspace	n/a
237.961	0.06	475922	keystroke_Key.backspace	Key.backspace	n/a
238.006	0.105	476012	keystroke_d	d	n/a
238.081	0.1345	476162	keystroke_a	a	n/a
238.2455	0.09	476491	keystroke_Key.space	Key.space	n/a
238.4695	0.09	476939	keystroke_c	c	n/a
238.5295	0.1045	477059	keystroke_a	a	n/a
238.74	0.1045	477480	keystroke_r	r	n/a
238.8445	0.12	477689	keystroke_l	l	n/a
239.0395	0.135	478079	keystroke_o	o	n/a
239.3085	0.105	478617	keystroke_Key.space	Key.space	n/a
239.893	0.09	479786	keystroke_t	t	n/a
239.998	0.045	479996	keystroke_o	o	n/a
240.162	0.075	480324	keystroke_l	l	n/a
240.3425	0.045	480685	keystroke_l	l	n/a
240.537	0.1645	481074	keystroke_Key.enter	Key.enter	n/a
240.707	6.3165	481414	prompt	n/a	solving trials lined fifty\n
241.361	0.0895	482722	keystroke_s	s	n/a
241.4205	0.105	482841	keystroke_o	o	n/a
241.6305	0.0595	483261	keystroke_l	l	n/a
241.8395	0.06	483679	keystroke_i	i	n/a
242.394	0.06	484788	keystroke_Key.backspace	Key.backspace	n/a
242.605	0.0435	485210	keystroke_v	v	n/a
242.693	0.1205	485386	keystroke_i	i	n/a
242.784	0.1045	485568	keystroke_n	n	n/a
242.9035	0.09	485807	keystroke_g	g	n/a
243.0535	0.1045	486107	keystroke_Key.space	Key.space	n/a
243.293	0.1195	486586	keystroke_t	t	n/a
243.4275	0.06	486855	keystroke_r	r	n/a
243.712	0.075	487424	keystroke_i	i	n/a
243.847	0.1195	487694	keystroke_a	a	n/a
244.041	0.09	488082	keystroke_l	l	n/a
244.161	0.09	488322	keystroke_s	s	n/a
244.311	0.104	488622	keystroke_Key.space	Key.space	n/a
244.43	0.106	488860	keystroke_l	l	n/a
244.64	0.121	489280	keystroke_i	i	n/a
244.746	0.1045	489492	keystroke_n	n	n/a
244.8805	0.1195	489761	keystroke_e	e	n/a
245.525	0.075	491050	keystroke_d	d	n/a
245.615	0.0895	491230	keystroke_Key.space	Key.space	n/a
246.108	0.06	492216	keystroke_f	f	n/a
246.198	0.09	492396	keystroke_i	i	n/a
246.273	0.105	492546	keystroke_f	f	n/a
246.483	0.09	492966	keystroke_t	t	n/a
246.708	0.0745	493416	keystroke_y	y	n/a
246.9025	0.12	493805	keystroke_Key.enter	Key.enter	n/a
247.027	9.2075	494054	prompt	n/a	tenant passwords proof writings\n
247.936	0.105	495872	keystroke_t	t	n/a
248.116	0.0595	496232	keystroke_e	e	n/a
248.22	0.075	496440	keystroke_n	n	n/a
248.4295	0.105	496859	keystroke_a	a	n/a
248.5795	0.0895	497159	keystroke_n	n	n/a
248.789	0.105	497578	keystroke_t	t	n/a
248.999	0.119	497998	keystroke_Key.space	Key.space	n/a
249.283	0.075	498566	keystroke_p	p	n/a
249.373	0.1205	498746	keystroke_a	a	n/a
249.479	0.0595	498958	keystroke_s	s	n/a
249.6135	0.09	499227	keystroke_s	s	n/a
249.748	0.1045	499496	keystroke_o	o	n/a
249.912	0.105	499824	keystroke_w	w	n/a
250.2565	0.06	500513	keystroke_Key.backspace	Key.backspace	n/a
250.406	0.075	500812	keystroke_Key.backspace	Key.backspace	n/a
250.497	0.075	500994	keystroke_w	w	n/a
250.602	0.134	501204	keystroke_i	i	n/a
250.781	0.12	501562	keystroke_r	r	n/a
251.26	0.1045	502520	keystroke_Key.backspace	Key.backspace	n/a
251.4245	0.09	502849	keystroke_Key.backspace	Key.backspace	n/a
251.695	0.09	503390	keystroke_r	r	n/a
251.9795	0.0745	503959	keystroke_Key.backspace	Key.backspace	n/a
252.189	0.06	504378	keystroke_o	o	n/a
252.279	0.09	504558	keystroke_r	r	n/a
252.548	0.136	505096	keystroke_d	d	n/a
252.668	0.091	505336	keystroke_s	s	n/a
252.818	0.12	505636	keystroke_Key.space	Key.space	n/a
253.058	0.045	506116	keystroke_o	o	n/a
253.1625	0.105	506325	keystroke_r	r	n/a
253.462	0.075	506924	keystroke_Key.backspace	Key.backspace	n/a
253.612	0.06	507224	keystroke_Key.backspace	Key.backspace	n/a
253.717	0.1045	507434	keystroke_p	p	n/a
253.8515	0.1045	507703	keystroke_r	r	n/a
254.151	0.0595	508302	keystroke_o	o	n/a
254.3155	0.0445	508631	keystroke_o	o	n/a
254.511	0.089	509022	keystroke_f	f	n/a
254.99	0.0445	509980	keystroke_Key.space	Key.space	n/a
255.0645	0.09	510129	keystroke_w	w	n/a
255.2295	0.075	510459	keystroke_r	r	n/a
255.3195	0.0895	510639	keystroke_i	i	n/a
255.454	0.0895	510908	keystroke_t	t	n/a
255.5585	0.09	511117	keystroke_i	i	n/a
255.6335	0.1345	511267	keystroke_n	n	n/a
255.753	0.075	511506	keystroke_g	g	n/a
255.963	0.0895	511926	keystroke_s	s	n/a
256.0825	0.15	512165	keystroke_Key.enter	Key.enter	n/a
256.237	8.0555	512474	prompt	n/a	forecasts truly debate absence\n
257.0865	0.06	514173	keystroke_f	f	n/a
257.1765	0.1045	514353	keystroke_o	o	n/a
257.311	0.1495	514622	keystroke_r	r	n/a
257.4465	0.09	514893	keystroke_e	e	n/a
257.671	0.0445	515342	keystroke_s	s	n/a
258.0005	0.0895	516001	keystroke_Key.backspace	Key.backspace	n/a
258.09	0.105	516180	keystroke_c	c	n/a
258.18	0.1195	516360	keystroke_a	a	n/a
258.2845	0.105	516569	keystroke_s	s	n/a
258.4945	0.1045	516989	keystroke_t	t	n/a
259.138	0.09	518276	keystroke_s	s	n/a
259.273	0.0895	518546	keystroke_Key.space	Key.space	n/a
259.4375	0.121	518875	keystroke_t	t	n/a
259.4985	0.1345	518997	keystroke_r	r	n/a
259.618	0.075	519236	keystroke_u	u	n/a
259.9175	0.0895	519835	keystroke_l	l	n/a
260.3365	0.09	520673	keystroke_y	y	n/a
260.846	0.09	521692	keystroke_Key.space	Key.space	n/a
261.0705	0.135	522141	keystroke_d	d	n/a
261.1755	0.0895	522351	keystroke_e	e	n/a
261.445	0.1045	522890	keystroke_b	b	n/a
261.5945	0.09	523189	keystroke_a	a	n/a
261.7295	0.1195	523459	keystroke_t	t	n/a
261.834	0.075	523668	keystroke_e	e	n/a
261.9535	0.1055	523907	keystroke_Key.space	Key.space	n/a
262.4035	0.105	524807	keystroke_a	a	n/a
262.6435	0.1045	525287	keystroke_b	b	n/a
262.9125	0.09	525825	keystroke_s	s	n/a
263.1075	0.1045	526215	keystroke_e	e	n/a
263.393	0.075	526786	keystroke_n	n	n/a
263.7665	0.1195	527533	keystroke_c	c	n/a
263.901	0.061	527802	keystroke_e	e	n/a
264.1115	0.1795	528223	keystroke_Key.enter	Key.enter	n/a
264.2955	9.508	528591	prompt	n/a	multimedia statement escape terms\n
265.4445	0.075	530889	keystroke_m	m	n/a
265.6695	0.06	531339	keystroke_u	u	n/a
265.924	0.06	531848	keystroke_l	l	n/a
266.208	0.105	532416	keystroke_t	t	n/a
266.403	0.045	532806	keystroke_i	i	n/a
266.6125	0.0595	533225	keystroke_m	m	n/a
266.702	0.105	533404	keystroke_e	e	n/a
266.927	0.1355	533854	keystroke_d	d	n/a
267.0775	0.0595	534155	keystroke_i	i	n/a
267.182	0.09	534364	keystroke_a	a	n/a
267.5265	0.1195	535053	keystroke_Key.space	Key.space	n/a
267.841	0.059	535682	keystroke_s	s	n/a
268.005	0.06	536010	keystroke_t	t	n/a
268.125	0.0745	536250	keystroke_a	a	n/a
268.2445	0.1045	536489	keystroke_t	t	n/a
268.335	0.075	536670	keystroke_e	e	n/a
268.425	0.09	536850	keystroke_j	j	n/a
268.545	0.0895	537090	keystroke_e	e	n/a
268.6495	0.075	537299	keystroke_n	n	n/a
268.7395	0.105	537479	keystroke_t	t	n/a
268.8745	0.09	537749	keystroke_Key.space	Key.space	n/a
268.9645	0.06	537929	keystroke_e	e	n/a
269.1435	0.09	538287	keystroke_s	s	n/a
269.473	0.075	538946	keystroke_Key.backspace	Key.backspace	n/a
269.6525	0.045	539305	keystroke_Key.backspace	Key.backspace	n/a
269.788	0.06	539576	keystroke_Key.backspace	Key.backspace	n/a
269.953	0.0445	539906	keystroke_Key.backspace	Key.backspace	n/a
270.1175	0.03	540235	keystroke_Key.backspace	Key.backspace	n/a
270.252	0.045	540504	keystroke_Key.backspace	Key.backspace	n/a
270.402	0.075	540804	keystroke_Key.backspace	Key.backspace	n/a
270.687	0.09	541374	keystroke_m	m	n/a
270.822	0.1195	541644	keystroke_e	e	n/a
270.9265	0.09	541853	keystroke_n	n	n/a
271.061	0.09	542122	keystroke_t	t	n/a
271.196	0.0895	542392	keystroke_Key.space	Key.space	n/a
271.3305	0.075	542661	keystroke_e	e	n/a
271.5405	0.09	543081	keystroke_s	s	n/a
271.7205	0.1345	543441	keystroke_c	c	n/a
271.84	0.1195	543680	keystroke_a	a	n/a
271.9605	0.104	543921	keystroke_p	p	n/a
272.124	0.09	544248	keystroke_e	e	n/a
272.3485	0.075	544697	keystroke_Key.space	Key.space	n/a
272.589	0.09	545178	keystroke_t	t	n/a
272.7835	0.105	545567	keystroke_e	e	n/a
272.8585	0.105	545717	keystroke_r	r	n/a
273.278	0.0895	546556	keystroke_m	m	n/a
273.427	0.105	546854	keystroke_s	s	n/a
273.6675	0.134	547335	keystroke_Key.enter	Key.enter	n/a
273.8075	11.41	547615	prompt	n/a	requirements regulation hostel sets\n
274.6705	0.1195	549341	keystroke_r	r	n/a
274.745	0.09	549490	keystroke_e	e	n/a
275.1205	0.0735	550241	keystroke_u	u	n/a
275.45	0.0745	550900	keystroke_Key.backspace	Key.backspace	n/a
275.5845	0.09	551169	keystroke_q	q	n/a
275.8835	0.1045	551767	keystroke_u	u	n/a
276.3035	0.105	552607	keystroke_i	i	n/a
276.4685	0.15	552937	keystroke_r	r	n/a
276.5735	0.1195	553147	keystroke_e	e	n/a
276.708	0.105	553416	keystroke_m	m	n/a
276.8575	0.105	553715	keystroke_e	e	n/a
276.9475	0.1055	553895	keystroke_n	n	n/a
277.067	0.091	554134	keystroke_t	t	n/a
277.2625	0.075	554525	keystroke_s	s	n/a
277.4125	0.0895	554825	keystroke_Key.space	Key.space	n/a
277.622	0.0745	555244	keystroke_r	r	n/a
277.637	0.134	555274	keystroke_e	e	n/a
278.6405	0.1045	557281	keystroke_g	g	n/a
278.925	0.0445	557850	keystroke_u	u	n/a
279.254	0.09	558508	keystroke_l	l	n/a
279.374	0.0895	558748	keystroke_a	a	n/a
279.584	0.105	559168	keystroke_i	i	n/a
280.183	0.075	560366	keystroke_Key.backspace	Key.backspace	n/a
280.273	0.1045	560546	keystroke_r	r	n/a
280.8715	0.09	561743	keystroke_Key.backspace	Key.backspace	n/a
280.9915	0.1055	561983	keystroke_t	t	n/a
281.2465	0.15	562493	keystroke_o	o	n/a
281.8005	0.09	563601	keystroke_Key.backspace	Key.backspace	n/a
282.086	0.12	564172	keystroke_i	i	n/a
282.175	0.106	564350	keystroke_o	o	n/a
282.4155	0.1045	564831	keystroke_n	n	n/a
282.7	0.1495	565400	keystroke_Key.space	Key.space	n/a
283.1045	0.12	566209	keystroke_h	h	n/a
283.299	0.1045	566598	keystroke_o	o	n/a
283.4335	0.0745	566867	keystroke_s	s	n/a
283.628	0.075	567256	keystroke_t	t	n/a
283.688	0.1045	567376	keystroke_e	e	n/a
283.823	0.12	567646	keystroke_l	l	n/a
284.048	0.0895	568096	keystroke_Key.space	Key.space	n/a
284.1225	0.09	568245	keystroke_s	s	n/a
284.317	0.105	568634	keystroke_e	e	n/a
284.407	0.12	568814	keystroke_t	t	n/a
284.6165	0.09	569233	keystroke_s	s	n/a
285.0815	0.135	570163	keystroke_Key.enter	Key.enter	n/a
285.2205	13.2105	570441	prompt	n/a	epinions jpeg amended magnitude\n
286.175	0.09	572350	keystroke_e	e	n/a
286.4595	0.105	572919	keystroke_o	o	n/a
286.744	0.09	573488	keystroke_i	i	n/a
286.9685	0.106	573937	keystroke_n	n	n/a
287.179	0.09	574358	keystroke_i	i	n/a
287.5685	0.0595	575137	keystroke_Key.backspace	Key.backspace	n/a
287.703	0.0895	575406	keystroke_Key.backspace	Key.backspace	n/a
287.8675	0.06	575735	keystroke_Key.backspace	Key.backspace	n/a
288.002	0.09	576004	keystroke_Key.backspace	Key.backspace	n/a
288.2425	0.045	576485	keystroke_[	[	n/a
288.737	0.1045	577474	keystroke_Key.backspace	Key.backspace	n/a
288.931	0.105	577862	keystroke_p	p	n/a
289.2455	0.09	578491	keystroke_i	i	n/a
289.5005	0.0755	579001	keystroke_n	n	n/a
289.695	0.0905	579390	keystroke_i	i	n/a
289.9805	0.1645	579961	keystroke_o	o	n/a
290.2495	0.12	580499	keystroke_n	n	n/a
290.4295	0.1195	580859	keystroke_s	s	n/a
290.6695	0.09	581339	keystroke_Key.space	Key.space	n/a
291.613	0.015	583226	keystroke_j	j	n/a
292.0475	0.105	584095	keystroke_p	p	n/a
292.257	0.105	584514	keystroke_e	e	n/a
292.961	0.1045	585922	keystroke_g	g	n/a
293.1405	0.09	586281	keystroke_Key.space	Key.space	n/a
293.5005	0.06	587001	keystroke_a	a	n/a
293.605	0.075	587210	keystroke_m	m	n/a
293.7705	0.09	587541	keystroke_e	e	n/a
293.89	0.0745	587780	keystroke_n	n	n/a
294.0245	0.135	588049	keystroke_d	d	n/a
294.1445	0.1345	588289	keystroke_e	e	n/a
294.294	0.105	588588	keystroke_d	d	n/a
294.5035	0.06	589007	keystroke_Key.space	Key.space	n/a
294.729	0.09	589458	keystroke_m	m	n/a
294.879	0.0595	589758	keystroke_a	a	n/a
294.9685	0.075	589937	keystroke_n	n	n/a
295.9425	0.075	591885	keystroke_Key.backspace	Key.backspace	n/a
296.077	0.075	592154	keystroke_g	g	n/a
296.2715	0.075	592543	keystroke_n	n	n/a
296.466	0.06	592932	keystroke_i	i	n/a
296.766	0.061	593532	keystroke_t	t	n/a
297.0365	0.1045	594073	keystroke_u	u	n/a
297.336	0.134	594672	keystroke_e	e	n/a
297.785	0.105	595570	keystroke_Key.backspace	Key.backspace	n/a
297.875	0.1645	595750	keystroke_d	d	n/a
297.9795	0.12	595959	keystroke_e	e	n/a
298.279	0.1495	596558	keystroke_Key.enter	Key.enter	n/a
298.443	7.4185	596886	prompt	n/a	packed candles pension italic\n
299.0285	0.1195	598057	keystroke_p	p	n/a
299.1335	0.0745	598267	keystroke_a	a	n/a
299.223	0.1645	598446	keystroke_c	c	n/a
299.4025	0.09	598805	keystroke_k	k	n/a
299.4935	0.029	598987	keystroke_e	e	n/a
299.6425	0.0745	599285	keystroke_d	d	n/a
299.747	0.12	599494	keystroke_Key.space	Key.space	n/a
299.853	0.1195	599706	keystroke_c	c	n/a
299.928	0.1045	599856	keystroke_a	a	n/a
300.0475	0.075	600095	keystroke_n	n	n/a
300.1675	0.1345	600335	keystroke_d	d	n/a
300.332	0.075	600664	keystroke_l	l	n/a
301.156	0.09	602312	keystroke_e	e	n/a
301.231	0.105	602462	keystroke_s	s	n/a
301.65	0.1345	603300	keystroke_Key.space	Key.space	n/a
301.8595	0.06	603719	keystroke_p	p	n/a
301.965	0.1045	603930	keystroke_e	e	n/a
302.0995	0.0895	604199	keystroke_n	n	n/a
302.294	0.12	604588	keystroke_s	s	n/a
302.399	0.0895	604798	keystroke_i	i	n/a
302.729	0.1795	605458	keystroke_j	j	n/a
303.268	0.09	606536	keystroke_Key.backspace	Key.backspace	n/a
303.612	0.105	607224	keystroke_o	o	n/a
303.822	0.0895	607644	keystroke_n	n	n/a
304.0465	0.105	608093	keystroke_Key.space	Key.space	n/a
304.466	0.075	608932	keystroke_i	i	n/a
304.7805	0.06	609561	keystroke_t	t	n/a
305.005	0.075	610010	keystroke_a	a	n/a
305.125	0.106	610250	keystroke_l	l	n/a
305.3205	0.09	610641	keystroke_i	i	n/a
305.5455	0.0745	611091	keystroke_c	c	n/a
305.71	0.1495	611420	keystroke_Key.enter	Key.enter	n/a
305.865	5.6745	611730	prompt	n/a	design oughtn't nationally thin\n
306.5345	0.1945	613069	keystroke_d	d	n/a
306.684	0.135	613368	keystroke_e	e	n/a
307.627	0.0905	615254	keystroke_s	s	n/a
307.7625	0.0745	615525	keystroke_i	i	n/a
307.912	0.06	615824	keystroke_g	g	n/a
307.957	0.1045	615914	keystroke_n	n	n/a
308.1815	0.09	616363	keystroke_Key.space	Key.space	n/a
308.376	0.105	616752	keystroke_o	o	n/a
308.451	0.105	616902	keystroke_u	u	n/a
309.201	0.0745	618402	keystroke_g	g	n/a
309.2605	0.09	618521	keystroke_h	h	n/a
309.3655	0.09	618731	keystroke_t	t	n/a
310.414	0.1045	620828	keystroke_'	'	n/a
310.863	0.09	621726	keystroke_Key.backspace	Key.backspace	n/a
311.148	0.09	622296	keystroke_n	n	n/a
311.433	0.1045	622866	keystroke_Key.enter	Key.enter	n/a
311.542	9.7365	623084	prompt	n/a	norton immune households smile\n
313.2155	0.1045	626431	keystroke_n	n	n/a
313.485	0.0895	626970	keystroke_o	o	n/a
313.6195	0.121	627239	keystroke_r	r	n/a
313.7095	0.105	627419	keystroke_t	t	n/a
314.055	0.1345	628110	keystroke_o	o	n/a
314.1745	0.12	628349	keystroke_n	n	n/a
314.3995	0.1045	628799	keystroke_Key.space	Key.space	n/a
315.2385	0.0745	630477	keystroke_i	i	n/a
315.6275	0.0595	631255	keystroke_m	m	n/a
315.792	0.076	631584	keystroke_m	m	n/a
315.973	0.1345	631946	keystroke_u	u	n/a
316.048	0.1345	632096	keystroke_n	n	n/a
316.1975	0.1195	632395	keystroke_e	e	n/a
316.392	0.1495	632784	keystroke_Key.space	Key.space	n/a
316.781	0.0605	633562	keystroke_b	b	n/a
317.096	0.075	634192	keystroke_Key.backspace	Key.backspace	n/a
317.3955	0.09	634791	keystroke_h	h	n/a
317.635	0.1655	635270	keystroke_o	o	n/a
317.6955	0.12	635391	keystroke_u	u	n/a
317.83	0.134	635660	keystroke_s	s	n/a
317.9505	0.0745	635901	keystroke_e	e	n/a
318.2795	0.0605	636559	keystroke_h	h	n/a
318.5345	0.09	637069	keystroke_o	o	n/a
318.6995	0.1195	637399	keystroke_l	l	n/a
318.804	0.1345	637608	keystroke_d	d	n/a
318.9235	0.09	637847	keystroke_s	s	n/a
319.0435	0.1045	638087	keystroke_Key.space	Key.space	n/a
319.5675	0.075	639135	keystroke_s	s	n/a
320.287	0.06	640574	keystroke_m	m	n/a
320.5275	0.09	641055	keystroke_i	i	n/a
320.797	0.12	641594	keystroke_l	l	n/a
320.962	0.105	641924	keystroke_e	e	n/a
321.1865	0.09	642373	keystroke_Key.enter	Key.enter	n/a
321.2825	9.7045	642565	prompt	n/a	stewart quantum alerts sector\n
321.951	0.075	643902	keystroke_s	s	n/a
322.1755	0.0595	644351	keystroke_t	t	n/a
322.4	0.1045	644800	keystroke_w	w	n/a
322.475	0.1345	644950	keystroke_e	e	n/a
322.6395	0.135	645279	keystroke_a	a	n/a
322.804	0.09	645608	keystroke_r	r	n/a
323.149	0.0745	646298	keystroke_t	t	n/a
323.523	0.075	647046	keystroke_Key.backspace	Key.backspace	n/a
323.6885	0.045	647377	keystroke_Key.backspace	Key.backspace	n/a
323.8385	0.0445	647677	keystroke_Key.backspace	Key.backspace	n/a
323.988	0.045	647976	keystroke_Key.backspace	Key.backspace	n/a
324.1225	0.045	648245	keystroke_Key.backspace	Key.backspace	n/a
324.497	0.12	648994	keystroke_e	e	n/a
324.587	0.105	649174	keystroke_w	w	n/a
324.8125	0.12	649625	keystroke_a	a	n/a
325.337	0.0895	650674	keystroke_r	r	n/a
325.397	0.0895	650794	keystroke_t	t	n/a
325.711	0.121	651422	keystroke_Key.space	Key.space	n/a
326.1755	0.09	652351	keystroke_q	q	n/a
326.3255	0.09	652651	keystroke_u	u	n/a
326.58	0.075	653160	keystroke_a	a	n/a
326.76	0.1045	653520	keystroke_n	n	n/a
326.9245	0.0905	653849	keystroke_t	t	n/a
327.15	0.09	654300	keystroke_u	u	n/a
327.4045	0.0445	654809	keystroke_m	m	n/a
328.288	0.09	656576	keystroke_Key.space	Key.space	n/a
328.4525	0.1195	656905	keystroke_a	a	n/a
328.588	0.104	657176	keystroke_l	l	n/a
328.678	0.15	657356	keystroke_e	e	n/a
328.783	0.1195	657566	keystroke_r	r	n/a
329.0075	0.075	658015	keystroke_t	t	n/a
329.307	0.09	658614	keystroke_s	s	n/a
329.5315	0.06	659063	keystroke_Key.space	Key.space	n/a
329.6665	0.12	659333	keystroke_s	s	n/a
329.8915	0.0895	659783	keystroke_e	e	n/a
330.146	0.075	660292	keystroke_c	c	n/a
330.3855	0.046	660771	keystroke_t	t	n/a
330.4615	0.1195	660923	keystroke_o	o	n/a
330.641	0.075	661282	keystroke_r	r	n/a
330.851	0.1345	661702	keystroke_Key.enter	Key.enter	n/a
330.9905	11.5945	661981	prompt	n/a	increasingly sends influences publication\n
331.7195	0.09	663439	keystroke_i	i	n/a
331.899	0.12	663798	keystroke_n	n	n/a
332.02	0.1035	664040	keystroke_c	c	n/a
332.2585	0.09	664517	keystroke_r	r	n/a
332.3195	0.1035	664639	keystroke_e	e	n/a
332.544	0.075	665088	keystroke_d	d	n/a
332.949	0.09	665898	keystroke_Key.backspace	Key.backspace	n/a
333.054	0.1045	666108	keystroke_a	a	n/a
333.1285	0.12	666257	keystroke_s	s	n/a
333.428	0.0895	666856	keystroke_i	i	n/a
333.6225	0.09	667245	keystroke_n	n	n/a
333.787	0.105	667574	keystroke_g	g	n/a
333.997	0.0895	667994	keystroke_;	;	n/a
334.552	0.075	669104	keystroke_Key.backspace	Key.backspace	n/a
334.821	0.06	669642	keystroke_l	l	n/a
334.941	0.075	669882	keystroke_y	y	n/a
335.405	0.105	670810	keystroke_Key.space	Key.space	n/a
335.75	0.12	671500	keystroke_s	s	n/a
335.855	0.1345	671710	keystroke_e	e	n/a
335.9595	0.105	671919	keystroke_n	n	n/a
336.0795	0.1345	672159	keystroke_s	s	n/a
336.6495	0.09	673299	keystroke_Key.backspace	Key.backspace	n/a
336.7095	0.12	673419	keystroke_d	d	n/a
336.7695	0.1495	673539	keystroke_s	s	n/a
336.9635	0.15	673927	keystroke_Key.space	Key.space	n/a
337.1285	0.105	674257	keystroke_i	i	n/a
337.1885	0.1195	674377	keystroke_n	n	n/a
337.713	0.09	675426	keystroke_f	f	n/a
337.818	0.0895	675636	keystroke_l	l	n/a
338.087	0.09	676174	keystroke_u	u	n/a
338.2675	0.1045	676535	keystroke_e	e	n/a
338.357	0.105	676714	keystroke_n	n	n/a
338.522	0.1195	677044	keystroke_c	c	n/a
338.6115	0.09	677223	keystroke_e	e	n/a
338.8365	0.105	677673	keystroke_s	s	n/a
339.0015	0.1045	678003	keystroke_Key.space	Key.space	n/a
339.4215	0.09	678843	keystroke_p	p	n/a
339.6605	0.075	679321	keystroke_h	h	n/a
340.05	0.0915	680100	keystroke_Key.backspace	Key.backspace	n/a
340.276	0.0745	680552	keystroke_u	u	n/a
340.485	0.06	680970	keystroke_b	b	n/a
340.725	0.045	681450	keystroke_l	l	n/a
340.92	0.045	681840	keystroke_i	i	n/a
341.0095	0.1055	682019	keystroke_c	c	n/a
341.385	0.0745	682770	keystroke_a	a	n/a
341.5945	0.1195	683189	keystroke_t	t	n/a
341.699	0.09	683398	keystroke_i	i	n/a
341.8935	0.135	683787	keystroke_o	o	n/a
341.9835	0.12	683967	keystroke_n	n	n/a
342.448	0.135	684896	keystroke_Key.enter	Key.enter	n/a
342.5905	20.2575	685181	prompt	n/a	negotiations biological genome physicians\n
343.632	0.045	687264	keystroke_n	n	n/a
343.707	0.0595	687414	keystroke_e	e	n/a
343.8715	0.106	687743	keystroke_g	g	n/a
344.0075	0.0895	688015	keystroke_o	o	n/a
344.172	0.075	688344	keystroke_t	t	n/a
344.382	0.06	688764	keystroke_a	a	n/a
344.5165	0.105	689033	keystroke_t	t	n/a
344.6665	0.09	689333	keystroke_i	i	n/a
344.876	0.1195	689752	keystroke_o	o	n/a
345.3405	0.0595	690681	keystroke_Key.backspace	Key.backspace	n/a
345.49	0.06	690980	keystroke_Key.backspace	Key.backspace	n/a
345.6405	0.09	691281	keystroke_Key.backspace	Key.backspace	n/a
346.015	0.09	692030	keystroke_Key.backspace	Key.backspace	n/a
346.195	0.0895	692390	keystroke_t	t	n/a
346.3145	0.09	692629	keystroke_i	i	n/a
346.4945	0.06	692989	keystroke_a	a	n/a
346.809	0.045	693618	keystroke_Key.backspace	Key.backspace	n/a
346.9435	0.06	693887	keystroke_Key.backspace	Key.backspace	n/a
347.0795	0.06	694159	keystroke_Key.backspace	Key.backspace	n/a
347.319	0.075	694638	keystroke_i	i	n/a
347.514	0.0595	695028	keystroke_a	a	n/a
347.6785	0.075	695357	keystroke_t	t	n/a
347.799	0.119	695598	keystroke_i	i	n/a
348.7125	0.1345	697425	keystroke_o	o	n/a
348.817	0.106	697634	keystroke_n	n	n/a
349.043	0.104	698086	keystroke_s	s	n/a
349.222	0.105	698444	keystroke_Key.space	Key.space	n/a
350.076	0.105	700152	keystroke_b	b	n/a
350.2705	0.06	700541	keystroke_i	i	n/a
350.4805	0.06	700961	keystroke_o	o	n/a
350.75	0.031	701500	keystroke_l	l	n/a
351.1705	0.105	702341	keystroke_o	o	n/a
351.365	0.075	702730	keystroke_g	g	n/a
351.5	0.105	703000	keystroke_i	i	n/a
351.7095	0.12	703419	keystroke_c	c	n/a
351.7995	0.0895	703599	keystroke_a	a	n/a
351.8745	0.1195	703749	keystroke_l	l	n/a
352.3685	0.105	704737	keystroke_Key.space	Key.space	n/a
353.1335	0.105	706267	keystroke_g	g	n/a
353.2535	0.1195	706507	keystroke_e	e	n/a
353.448	0.12	706896	keystroke_n	n	n/a
353.718	0.12	707436	keystroke_o	o	n/a
353.973	0.06	707946	keystroke_e	e	n/a
354.1375	0.06	708275	keystroke_m	m	n/a
354.3925	0.0595	708785	keystroke_Key.backspace	Key.backspace	n/a
354.527	0.1205	709054	keystroke_Key.backspace	Key.backspace	n/a
354.842	0.12	709684	keystroke_m	m	n/a
355.1265	0.075	710253	keystroke_e	e	n/a
355.2315	0.12	710463	keystroke_Key.space	Key.space	n/a
355.6365	0.09	711273	keystroke_o	o	n/a
355.876	0.075	711752	keystroke_h	h	n/a
356.2205	0.09	712441	keystroke_y	y	n/a
356.4755	0.0895	712951	keystroke_s	s	n/a
356.655	0.09	713310	keystroke_i	i	n/a
356.9395	0.12	713879	keystroke_c	c	n/a
357.0445	0.1045	714089	keystroke_i	i	n/a
357.21	0.0895	714420	keystroke_a	a	n/a
357.27	0.1195	714540	keystroke_n	n	n/a
357.704	0.06	715408	keystroke_s	s	n/a
358.4685	0.06	716937	keystroke_Key.backspace	Key.backspace	n/a
358.6485	0.03	717297	keystroke_Key.backspace	Key.backspace	n/a
358.783	0.0605	717566	keystroke_Key.backspace	Key.backspace	n/a
358.963	0.045	717926	keystroke_Key.backspace	Key.backspace	n/a
359.113	0.06	718226	keystroke_Key.backspace	Key.backspace	n/a
359.263	0.06	718526	keystroke_Key.backspace	Key.backspace	n/a
359.4275	0.045	718855	keystroke_Key.backspace	Key.backspace	n/a
359.5775	0.06	719155	keystroke_Key.backspace	Key.backspace	n/a
359.7125	0.0745	719425	keystroke_Key.backspace	Key.backspace	n/a
360.2975	0.09	720595	keystroke_Key.backspace	Key.backspace	n/a
360.657	0.12	721314	keystroke_p	p	n/a
360.9415	0.09	721883	keystroke_h	h	n/a
361.241	0.075	722482	keystroke_y	y	n/a
361.5255	0.09	723051	keystroke_s	s	n/a
361.7055	0.075	723411	keystroke_i	i	n/a
361.946	0.135	723892	keystroke_c	c	n/a
362.095	0.091	724190	keystroke_i	i	n/a
362.2605	0.105	724521	keystroke_a	a	n/a
362.3505	0.105	724701	keystroke_n	n	n/a
362.53	0.075	725060	keystroke_s	s	n/a
362.695	0.1505	725390	keystroke_Key.enter	Key.enter	n/a
362.8505	10.2175	725701	prompt	n/a	filing cinema whale representative\n
363.849	0.06	727698	keystroke_f	f	n/a
363.9535	0.09	727907	keystroke_i	i	n/a
364.4335	0.0445	728867	keystroke_k	k	n/a
364.9585	0.075	729917	keystroke_Key.backspace	Key.backspace	n/a
365.2125	0.105	730425	keystroke_l	l	n/a
365.437	0.121	730874	keystroke_i	i	n/a
365.543	0.1045	731086	keystroke_n	n	n/a
365.812	0.09	731624	keystroke_g	g	n/a
365.962	0.12	731924	keystroke_Key.space	Key.space	n/a
366.3815	0.091	732763	keystroke_c	c	n/a
366.622	0.0745	733244	keystroke_i	i	n/a
366.876	0.09	733752	keystroke_n	n	n/a
367.2805	0.106	734561	keystroke_e	e	n/a
367.416	0.09	734832	keystroke_m	m	n/a
367.6255	0.06	735251	keystroke_a	a	n/a
367.745	0.105	735490	keystroke_Key.space	Key.space	n/a
368.03	0.09	736060	keystroke_w	w	n/a
368.15	0.0605	736300	keystroke_h	h	n/a
368.2855	0.0745	736571	keystroke_a	a	n/a
368.42	0.135	736840	keystroke_l	l	n/a
368.5995	0.076	737199	keystroke_e	e	n/a
368.735	0.105	737470	keystroke_Key.space	Key.space	n/a
369.1545	0.105	738309	keystroke_r	r	n/a
369.1995	0.135	738399	keystroke_e	e	n/a
369.3495	0.1045	738699	keystroke_p	p	n/a
369.604	0.105	739208	keystroke_r	r	n/a
369.664	0.1195	739328	keystroke_e	e	n/a
369.9185	0.105	739837	keystroke_s	s	n/a
370.1285	0.0895	740257	keystroke_e	e	n/a
370.278	0.105	740556	keystroke_n	n	n/a
370.5785	0.06	741157	keystroke_e	e	n/a
371.223	0.015	742446	keystroke_Key.backspace	Key.backspace	n/a
371.283	0.045	742566	keystroke_t	t	n/a
371.4325	0.1505	742865	keystroke_a	a	n/a
372.2425	0.044	744485	keystroke_t	t	n/a
372.3025	0.015	744605	keystroke_i	i	n/a
372.4375	0.1195	744875	keystroke_v	v	n/a
372.572	0.075	745144	keystroke_e	e	n/a
372.9015	0.1645	745803	keystroke_Key.enter	Key.enter	n/a
373.0705	10.5045	746141	prompt	n/a	themselves columns introductory bumper\n
373.7255	0.09	747451	keystroke_t	t	n/a
373.8455	0.075	747691	keystroke_h	h	n/a
373.9355	0.0895	747871	keystroke_e	e	n/a
374.055	0.075	748110	keystroke_m	m	n/a
374.16	0.06	748320	keystroke_s	s	n/a
374.341	0.075	748682	keystroke_e	e	n/a
374.4905	0.075	748981	keystroke_l	l	n/a
374.5955	0.1045	749191	keystroke_v	v	n/a
374.685	0.06	749370	keystroke_e	e	n/a
374.865	0.075	749730	keystroke_s	s	n/a
374.9695	0.09	749939	keystroke_Key.space	Key.space	n/a
375.1045	0.12	750209	keystroke_c	c	n/a
375.2105	0.09	750421	keystroke_o	o	n/a
375.51	0.075	751020	keystroke_l	l	n/a
376.184	0.075	752368	keystroke_u	u	n/a
376.4085	0.06	752817	keystroke_m	m	n/a
376.5885	0.09	753177	keystroke_n	n	n/a
376.7085	0.0905	753417	keystroke_s	s	n/a
377.1135	0.12	754227	keystroke_Key.space	Key.space	n/a
377.503	0.105	755006	keystroke_i	i	n/a
377.593	0.1345	755186	keystroke_n	n	n/a
378.0875	0.135	756175	keystroke_t	t	n/a
378.147	0.1055	756294	keystroke_r	r	n/a
378.3125	0.0895	756625	keystroke_i	i	n/a
378.8515	0.0445	757703	keystroke_Key.backspace	Key.backspace	n/a
379.001	0.0905	758002	keystroke_o	o	n/a
379.6465	0.105	759293	keystroke_d	d	n/a
380.2455	0.06	760491	keystroke_u	u	n/a
380.441	0.09	760882	keystroke_c	c	n/a
380.6655	0.075	761331	keystroke_t	t	n/a
380.7705	0.105	761541	keystroke_o	o	n/a
380.9355	0.075	761871	keystroke_r	r	n/a
381.0405	0.1045	762081	keystroke_y	y	n/a
381.58	0.135	763160	keystroke_Key.space	Key.space	n/a
382.3145	0.0455	764629	keystroke_b	b	n/a
382.4495	0.09	764899	keystroke_u	u	n/a
382.6595	0.0745	765319	keystroke_m	m	n/a
382.869	0.075	765738	keystroke_p	p	n/a
383.0485	0.09	766097	keystroke_e	e	n/a
383.1235	0.06	766247	keystroke_r	r	n/a
383.438	0.135	766876	keystroke_Key.enter	Key.enter	n/a
383.578	11.2095	767156	prompt	n/a	prostores andale idea shows\n
384.2485	0.089	768497	keystroke_p	p	n/a
384.4125	0.1055	768825	keystroke_r	r	n/a
384.8175	0.0895	769635	keystroke_o	o	n/a
385.057	0.061	770114	keystroke_s	s	n/a
385.2375	0.105	770475	keystroke_t	t	n/a
385.4325	0.105	770865	keystroke_o	o	n/a
385.5675	0.104	771135	keystroke_r	r	n/a
385.6415	0.0905	771283	keystroke_e	e	n/a
385.8515	0.075	771703	keystroke_s	s	n/a
385.9715	0.1055	771943	keystroke_Key.space	Key.space	n/a
386.106	0.106	772212	keystroke_a	a	n/a
386.3465	0.12	772693	keystroke_d	d	n/a
387.021	0.0745	774042	keystroke_Key.backspace	Key.backspace	n/a
387.2155	0.09	774431	keystroke_n	n	n/a
387.3355	0.12	774671	keystroke_d	d	n/a
387.726	0.075	775452	keystroke_a	a	n/a
387.861	0.1035	775722	keystroke_l	l	n/a
388.0555	0.06	776111	keystroke_e	e	n/a
388.52	0.12	777040	keystroke_Key.space	Key.space	n/a
388.759	0.075	777518	keystroke_i	i	n/a
388.879	0.1505	777758	keystroke_d	d	n/a
389.0135	0.121	778027	keystroke_e	e	n/a
389.1795	0.09	778359	keystroke_a	a	n/a
389.2995	0.12	778599	keystroke_Key.space	Key.space	n/a
389.5545	0.075	779109	keystroke_s	s	n/a
389.644	0.09	779288	keystroke_h	h	n/a
389.839	0.075	779678	keystroke_p	p	n/a
389.944	0.0745	779888	keystroke_w	w	n/a
390.1235	0.075	780247	keystroke_s	s	n/a
390.738	0.0745	781476	keystroke_Key.backspace	Key.backspace	n/a
390.9025	0.076	781805	keystroke_Key.backspace	Key.backspace	n/a
391.0535	0.1035	782107	keystroke_Key.backspace	Key.backspace	n/a
391.263	0.09	782526	keystroke_i	i	n/a
391.368	0.1045	782736	keystroke_w	w	n/a
391.7575	0.06	783515	keystroke_Key.backspace	Key.backspace	n/a
391.907	0.075	783814	keystroke_Key.backspace	Key.backspace	n/a
392.057	0.09	784114	keystroke_p	p	n/a
392.177	0.0895	784354	keystroke_w	w	n/a
392.3875	0.074	784775	keystroke_s	s	n/a
392.6115	0.046	785223	keystroke_Key.backspace	Key.backspace	n/a
392.747	0.075	785494	keystroke_Key.backspace	Key.backspace	n/a
392.897	0.075	785794	keystroke_Key.backspace	Key.backspace	n/a
393.152	0.06	786304	keystroke_i	i	n/a
393.2415	0.09	786483	keystroke_w	w	n/a
393.5565	0.06	787113	keystroke_Key.backspace	Key.backspace	n/a
393.706	0.09	787412	keystroke_Key.backspace	Key.backspace	n/a
393.961	0.0895	787922	keystroke_o	o	n/a
394.0655	0.091	788131	keystroke_w	w	n/a
394.2455	0.106	788491	keystroke_s	s	n/a
394.621	0.165	789242	keystroke_Key.enter	Key.enter	n/a
394.7905	9.4555	789581	prompt	n/a	miniature pirates okay clothing\n
395.505	0.0755	791010	keystroke_m	m	n/a
395.6555	0.09	791311	keystroke_i	i	n/a
395.835	0.075	791670	keystroke_n	n	n/a
395.97	0.09	791940	keystroke_i	i	n/a
396.2245	0.075	792449	keystroke_a	a	n/a
396.6895	0.0895	793379	keystroke_t	t	n/a
396.824	0.105	793648	keystroke_u	u	n/a
396.974	0.075	793948	keystroke_r	r	n/a
397.019	0.0895	794038	keystroke_e	e	n/a
397.1235	0.105	794247	keystroke_Key.space	Key.space	n/a
397.2595	0.105	794519	keystroke_p	p	n/a
397.4535	0.09	794907	keystroke_i	i	n/a
397.6185	0.105	795237	keystroke_r	r	n/a
398.279	0.06	796558	keystroke_a	a	n/a
398.4435	0.1345	796887	keystroke_t	t	n/a
398.563	0.075	797126	keystroke_e	e	n/a
398.7575	0.045	797515	keystroke_s	s	n/a
398.8625	0.06	797725	keystroke_Key.space	Key.space	n/a
399.403	0.15	798806	keystroke_o	o	n/a
399.643	0.0895	799286	keystroke_k	k	n/a
400.227	0.0745	800454	keystroke_a	a	n/a
400.3165	0.075	800633	keystroke_y	y	n/a
400.4815	0.12	800963	keystroke_Key.space	Key.space	n/a
400.6025	0.1345	801205	keystroke_c	c	n/a
400.737	0.075	801474	keystroke_l	l	n/a
400.9015	0.075	801803	keystroke_o	o	n/a
401.0065	0.09	802013	keystroke_t	t	n/a
401.0815	0.0745	802163	keystroke_h	h	n/a
401.2615	0.15	802523	keystroke_n	n	n/a
401.7265	0.06	803453	keystroke_Key.backspace	Key.backspace	n/a
402.161	0.1345	804322	keystroke_n	n	n/a
402.64	0.045	805280	keystroke_Key.backspace	Key.backspace	n/a
402.9255	0.135	805851	keystroke_i	i	n/a
403.15	0.045	806300	keystroke_g	g	n/a
403.45	0.075	806900	keystroke_Key.backspace	Key.backspace	n/a
403.69	0.0745	807380	keystroke_n	n	n/a
403.7945	0.0905	807589	keystroke_g	g	n/a
404.125	0.1195	808250	keystroke_Key.enter	Key.enter	n/a
404.2515	6.606	808503	prompt	n/a	june murphy ballet jump\n
405.399	0.0595	810798	keystroke_j	j	n/a
405.549	0.075	811098	keystroke_u	u	n/a
405.609	0.12	811218	keystroke_n	n	n/a
405.744	0.105	811488	keystroke_e	e	n/a
405.864	0.119	811728	keystroke_Key.space	Key.space	n/a
406.028	0.105	812056	keystroke_m	m	n/a
406.223	0.09	812446	keystroke_u	u	n/a
406.358	0.075	812716	keystroke_r	r	n/a
406.478	0.0755	812956	keystroke_p	p	n/a
406.6885	0.0745	813377	keystroke_h	h	n/a
406.823	0.09	813646	keystroke_y	y	n/a
407.093	0.0895	814186	keystroke_Key.space	Key.space	n/a
407.887	0.075	815774	keystroke_b	b	n/a
408.022	0.075	816044	keystroke_a	a	n/a
408.127	0.0445	816254	keystroke_l	l	n/a
408.2615	0.075	816523	keystroke_l	l	n/a
408.4115	0.1355	816823	keystroke_e	e	n/a
408.5175	0.119	817035	keystroke_t	t	n/a
408.6965	0.09	817393	keystroke_Key.space	Key.space	n/a
408.8765	0.0295	817753	keystroke_j	j	n/a
409.611	0.075	819222	keystroke_u	u	n/a
409.851	0.135	819702	keystroke_m	m	n/a
410.331	0.105	820662	keystroke_p	p	n/a
410.7505	0.105	821501	keystroke_Key.enter	Key.enter	n/a
410.8615	18.5255	821723	prompt	n/a	cornwall communications device keyboards\n
411.6205	0.1045	823241	keystroke_c	c	n/a
411.74	0.105	823480	keystroke_o	o	n/a
411.935	0.06	823870	keystroke_r	r	n/a
412.025	0.075	824050	keystroke_n	n	n/a
412.3695	0.135	824739	keystroke_w	w	n/a
412.4895	0.1195	824979	keystroke_a	a	n/a
412.834	0.075	825668	keystroke_l	l	n/a
412.9835	0.06	825967	keystroke_l	l	n/a
413.3885	0.105	826777	keystroke_Key.space	Key.space	n/a
413.868	0.09	827736	keystroke_c	c	n/a
414.018	0.076	828036	keystroke_i	i	n/a
414.2135	0.075	828427	keystroke_m	m	n/a
414.3935	0.075	828787	keystroke_m	m	n/a
414.558	0.0895	829116	keystroke_u	u	n/a
414.618	0.1055	829236	keystroke_n	n	n/a
414.7825	0.076	829565	keystroke_i	i	n/a
414.9335	0.0895	829867	keystroke_c	c	n/a
415.038	0.0905	830076	keystroke_a	a	n/a
415.173	0.09	830346	keystroke_t	t	n/a
415.9825	0.1195	831965	keystroke_Key.backspace	Key.backspace	n/a
416.2375	0.06	832475	keystroke_Key.backspace	Key.backspace	n/a
416.4025	0.06	832805	keystroke_Key.backspace	Key.backspace	n/a
416.582	0.045	833164	keystroke_Key.backspace	Key.backspace	n/a
416.732	0.075	833464	keystroke_Key.backspace	Key.backspace	n/a
416.897	0.075	833794	keystroke_Key.backspace	Key.backspace	n/a
417.0615	0.075	834123	keystroke_Key.backspace	Key.backspace	n/a
417.227	0.045	834454	keystroke_Key.backspace	Key.backspace	n/a
417.3765	0.045	834753	keystroke_Key.backspace	Key.backspace	n/a
418.0065	0.075	836013	keystroke_o	o	n/a
418.2465	0.0745	836493	keystroke_m	m	n/a
418.381	0.105	836762	keystroke_m	m	n/a
418.6055	0.03	837211	keystroke_i	i	n/a
418.981	0.06	837962	keystroke_Key.backspace	Key.backspace	n/a
419.2355	0.12	838471	keystroke_u	u	n/a
419.3255	0.105	838651	keystroke_n	n	n/a
419.5205	0.0595	839041	keystroke_i	i	n/a
419.7755	0.1045	839551	keystroke_c	c	n/a
419.895	0.075	839790	keystroke_a	a	n/a
420.075	0.0745	840150	keystroke_t	t	n/a
420.84	0.0445	841680	keystroke_i	i	n/a
421.124	0.09	842248	keystroke_o	o	n/a
421.244	0.1055	842488	keystroke_n	n	n/a
421.5595	0.0745	843119	keystroke_s	s	n/a
421.844	0.1195	843688	keystroke_Key.space	Key.space	n/a
422.3545	0.1495	844709	keystroke_d	d	n/a
422.444	0.12	844888	keystroke_e	e	n/a
422.669	0.1045	845338	keystroke_c	c	n/a
422.848	0.075	845696	keystroke_i	i	n/a
423.0435	0.06	846087	keystroke_d	d	n/a
423.3135	0.045	846627	keystroke_Key.backspace	Key.backspace	n/a
423.4635	0.0595	846927	keystroke_Key.backspace	Key.backspace	n/a
423.613	0.0745	847226	keystroke_Key.backspace	Key.backspace	n/a
423.7035	0.12	847407	keystroke_v	v	n/a
423.9585	0.075	847917	keystroke_i	i	n/a
424.198	0.15	848396	keystroke_d	d	n/a
424.363	0.075	848726	keystroke_e	e	n/a
424.6925	0.06	849385	keystroke_Key.backspace	Key.backspace	n/a
424.8425	0.075	849685	keystroke_Key.backspace	Key.backspace	n/a
425.052	0.12	850104	keystroke_c	c	n/a
425.127	0.105	850254	keystroke_e	e	n/a
425.262	0.135	850524	keystroke_Key.space	Key.space	n/a
425.5765	0.06	851153	keystroke_j	j	n/a
425.7115	0.106	851423	keystroke_e	e	n/a
426.057	0.045	852114	keystroke_Key.backspace	Key.backspace	n/a
426.192	0.075	852384	keystroke_Key.backspace	Key.backspace	n/a
426.4165	0.03	852833	keystroke_j	j	n/a
426.5065	0.09	853013	keystroke_e	e	n/a
427.076	0.12	854152	keystroke_Key.backspace	Key.backspace	n/a
427.271	0.0745	854542	keystroke_Key.backspace	Key.backspace	n/a
427.7805	0.06	855561	keystroke_k	k	n/a
427.9305	0.075	855861	keystroke_e	e	n/a
428.0655	0.0755	856131	keystroke_y	y	n/a
428.3205	0.075	856641	keystroke_b	b	n/a
428.5005	0.09	857001	keystroke_o	o	n/a
428.6055	0.105	857211	keystroke_a	a	n/a
428.7255	0.075	857451	keystroke_r	r	n/a
428.95	0.12	857900	keystroke_d	d	n/a
429.055	0.075	858110	keystroke_s	s	n/a
429.28	0.105	858560	keystroke_Key.enter	Key.enter	n/a
429.398	12.058	858796	prompt	n/a	bacteria improving increase decades\n
430.2555	0.0285	860511	keystroke_b	b	n/a
430.314	0.075	860628	keystroke_a	a	n/a
430.48	0.09	860960	keystroke_c	c	n/a
430.57	0.09	861140	keystroke_k	k	n/a
430.7795	0.0895	861559	keystroke_t	t	n/a
430.944	0.105	861888	keystroke_e	e	n/a
431.004	0.1195	862008	keystroke_r	r	n/a
431.109	0.075	862218	keystroke_i	i	n/a
431.274	0.06	862548	keystroke_a	a	n/a
431.394	0.105	862788	keystroke_Key.space	Key.space	n/a
432.2185	0.075	864437	keystroke_Key.backspace	Key.backspace	n/a
432.3835	0.06	864767	keystroke_Key.backspace	Key.backspace	n/a
432.548	0.06	865096	keystroke_Key.backspace	Key.backspace	n/a
432.713	0.045	865426	keystroke_Key.backspace	Key.backspace	n/a
432.848	0.06	865696	keystroke_Key.backspace	Key.backspace	n/a
432.9835	0.09	865967	keystroke_Key.backspace	Key.backspace	n/a
433.2085	0.12	866417	keystroke_t	t	n/a
433.463	0.06	866926	keystroke_Key.backspace	Key.backspace	n/a
433.598	0.105	867196	keystroke_Key.backspace	Key.backspace	n/a
433.763	0.06	867526	keystroke_t	t	n/a
433.9725	0.075	867945	keystroke_e	e	n/a
434.0325	0.06	868065	keystroke_r	r	n/a
434.1525	0.09	868305	keystroke_i	i	n/a
434.3325	0.0755	868665	keystroke_a	a	n/a
434.542	0.091	869084	keystroke_Key.space	Key.space	n/a
434.693	0.1195	869386	keystroke_i	i	n/a
434.7975	0.075	869595	keystroke_m	m	n/a
435.0525	0.015	870105	keystroke_p	p	n/a
435.0825	0.075	870165	keystroke_o	o	n/a
435.7565	0.075	871513	keystroke_Key.backspace	Key.backspace	n/a
435.8915	0.09	871783	keystroke_r	r	n/a
436.0865	0.0745	872173	keystroke_o	o	n/a
436.297	0.1045	872594	keystroke_v	v	n/a
436.5365	0.06	873073	keystroke_i	i	n/a
436.6115	0.075	873223	keystroke_n	n	n/a
437.031	0.075	874062	keystroke_g	g	n/a
437.241	0.075	874482	keystroke_Key.space	Key.space	n/a
437.392	0.0595	874784	keystroke_d	d	n/a
437.781	0.0745	875562	keystroke_Key.backspace	Key.backspace	n/a
438.0955	0.075	876191	keystroke_i	i	n/a
438.1255	0.105	876251	keystroke_n	n	n/a
438.2005	0.1495	876401	keystroke_c	c	n/a
438.335	0.0755	876670	keystroke_e	e	n/a
438.8445	0.105	877689	keystroke_Key.backspace	Key.backspace	n/a
438.9805	0.105	877961	keystroke_r	r	n/a
439.0855	0.03	878171	keystroke_e	e	n/a
439.3255	0.1495	878651	keystroke_a	a	n/a
439.445	0.1045	878890	keystroke_s	s	n/a
439.5345	0.105	879069	keystroke_e	e	n/a
439.6695	0.105	879339	keystroke_Key.space	Key.space	n/a
439.8955	0.1195	879791	keystroke_d	d	n/a
440	0.09	880000	keystroke_e	e	n/a
440.18	0.12	880360	keystroke_c	c	n/a
440.315	0.1055	880630	keystroke_a	a	n/a
440.704	0.15	881408	keystroke_d	d	n/a
440.84	0.1195	881680	keystroke_e	e	n/a
441.125	0.0895	882250	keystroke_s	s	n/a
441.3045	0.1495	882609	keystroke_Key.enter	Key.enter	n/a
441.4585	6.2645	882917	prompt	n/a	violent reduce jack ellen\n
442.488	0.091	884976	keystroke_v	v	n/a
442.593	0.09	885186	keystroke_i	i	n/a
443.148	0.06	886296	keystroke_l	l	n/a
443.583	0.091	887166	keystroke_Key.backspace	Key.backspace	n/a
443.8235	0.09	887647	keystroke_o	o	n/a
444.0485	0.0595	888097	keystroke_l	l	n/a
444.198	0.075	888396	keystroke_e	e	n/a
444.258	0.09	888516	keystroke_n	n	n/a
444.408	0.0745	888816	keystroke_t	t	n/a
444.5575	0.0895	889115	keystroke_Key.space	Key.space	n/a
444.707	0.121	889414	keystroke_r	r	n/a
444.798	0.09	889596	keystroke_e	e	n/a
445.0675	0.105	890135	keystroke_d	d	n/a
445.2175	0.09	890435	keystroke_u	u	n/a
445.4125	0.1195	890825	keystroke_c	c	n/a
445.533	0.044	891066	keystroke_e	e	n/a
445.637	0.105	891274	keystroke_Key.space	Key.space	n/a
445.9975	0.09	891995	keystroke_j	j	n/a
446.1775	0.104	892355	keystroke_a	a	n/a
446.3415	0.135	892683	keystroke_c	c	n/a
446.5065	0.06	893013	keystroke_k	k	n/a
446.7165	0.1055	893433	keystroke_Key.space	Key.space	n/a
446.867	0.075	893734	keystroke_e	e	n/a
446.957	0.075	893914	keystroke_l	l	n/a
447.122	0.0745	894244	keystroke_l	l	n/a
447.2115	0.1055	894423	keystroke_e	e	n/a
447.302	0.1195	894604	keystroke_n	n	n/a
447.6015	0.12	895203	keystroke_Key.enter	Key.enter	n/a
447.726	7.6585	895452	prompt	n/a	insured safer heater adjustment\n
448.5465	0.09	897093	keystroke_i	i	n/a
448.6055	0.106	897211	keystroke_n	n	n/a
448.7255	0.0905	897451	keystroke_s	s	n/a
448.831	0.09	897662	keystroke_u	u	n/a
448.951	0.1055	897902	keystroke_r	r	n/a
449.0265	0.1045	898053	keystroke_e	e	n/a
449.251	0.06	898502	keystroke_d	d	n/a
449.326	0.105	898652	keystroke_Key.space	Key.space	n/a
449.4905	0.1645	898981	keystroke_s	s	n/a
449.625	0.09	899250	keystroke_a	a	n/a
449.821	0.0745	899642	keystroke_f	f	n/a
450.0005	0.135	900001	keystroke_e	e	n/a
450.0755	0.1195	900151	keystroke_r	r	n/a
450.225	0.09	900450	keystroke_Key.space	Key.space	n/a
450.375	0.0895	900750	keystroke_h	h	n/a
450.4795	0.12	900959	keystroke_e	e	n/a
450.5695	0.136	901139	keystroke_a	a	n/a
450.7355	0.1045	901471	keystroke_t	t	n/a
450.8845	0.076	901769	keystroke_h	h	n/a
450.9905	0.09	901981	keystroke_e	e	n/a
451.0655	0.1045	902131	keystroke_r	r	n/a
451.215	0.105	902430	keystroke_Key.space	Key.space	n/a
451.5745	0.06	903149	keystroke_Key.backspace	Key.backspace	n/a
451.7245	0.06	903449	keystroke_Key.backspace	Key.backspace	n/a
451.874	0.06	903748	keystroke_Key.backspace	Key.backspace	n/a
452.009	0.091	904018	keystroke_Key.backspace	Key.backspace	n/a
452.16	0.09	904320	keystroke_e	e	n/a
452.25	0.0745	904500	keystroke_r	r	n/a
452.3695	0.12	904739	keystroke_Key.space	Key.space	n/a
452.5045	0.09	905009	keystroke_a	a	n/a
453.5985	0.09	907197	keystroke_d	d	n/a
453.883	0.06	907766	keystroke_j	j	n/a
454.0485	0.06	908097	keystroke_u	u	n/a
454.0935	0.09	908187	keystroke_s	s	n/a
454.2885	0.06	908577	keystroke_t	t	n/a
454.3935	0.0745	908787	keystroke_m	m	n/a
454.483	0.1055	908966	keystroke_e	e	n/a
454.6035	0.0595	909207	keystroke_n	n	n/a
454.678	0.09	909356	keystroke_t	t	n/a
454.858	0.09	909716	keystroke_s	s	n/a
455.2035	0.18	910407	keystroke_Key.enter	Key.enter	n/a
455.3895	8.9165	910779	prompt	n/a	prix remembered tasks reflects\n
456.4625	0.0905	912925	keystroke_p	p	n/a
456.643	0.0595	913286	keystroke_r	r	n/a
456.7335	0.09	913467	keystroke_i	i	n/a
457.153	0.09	914306	keystroke_x	x	n/a
457.288	0.0745	914576	keystroke_Key.space	Key.space	n/a
457.4225	0.105	914845	keystroke_r	r	n/a
457.482	0.1205	914964	keystroke_e	e	n/a
457.5875	0.075	915175	keystroke_m	m	n/a
457.7525	0.06	915505	keystroke_m	m	n/a
458.157	0.075	916314	keystroke_Key.backspace	Key.backspace	n/a
458.262	0.09	916524	keystroke_e	e	n/a
458.382	0.075	916764	keystroke_m	m	n/a
458.5915	0.06	917183	keystroke_b	b	n/a
458.6965	0.09	917393	keystroke_e	e	n/a
458.7565	0.091	917513	keystroke_r	r	n/a
459.3565	0.075	918713	keystroke_e	e	n/a
459.5365	0.09	919073	keystroke_d	d	n/a
459.6415	0.15	919283	keystroke_Key.space	Key.space	n/a
459.821	0.09	919642	keystroke_r	r	n/a
459.986	0.09	919972	keystroke_a	a	n/a
460.091	0.1055	920182	keystroke_s	s	n/a
460.2265	0.0895	920453	keystroke_k	k	n/a
460.616	0.06	921232	keystroke_Key.backspace	Key.backspace	n/a
460.781	0.06	921562	keystroke_Key.backspace	Key.backspace	n/a
460.931	0.06	921862	keystroke_Key.backspace	Key.backspace	n/a
461.066	0.0745	922132	keystroke_Key.backspace	Key.backspace	n/a
461.1555	0.06	922311	keystroke_t	t	n/a
461.3655	0.15	922731	keystroke_a	a	n/a
461.5005	0.12	923001	keystroke_s	s	n/a
461.6805	0.105	923361	keystroke_k	k	n/a
461.8155	0.09	923631	keystroke_s	s	n/a
462.1755	0.0895	924351	keystroke_Key.space	Key.space	n/a
462.49	0.12	924980	keystroke_r	r	n/a
462.535	0.135	925070	keystroke_e	e	n/a
462.805	0.0745	925610	keystroke_f	f	n/a
462.9245	0.091	925849	keystroke_l	l	n/a
463.0305	0.105	926061	keystroke_e	e	n/a
463.1505	0.1195	926301	keystroke_c	c	n/a
463.39	0.03	926780	keystroke_t	t	n/a
463.54	0.105	927080	keystroke_s	s	n/a
464.1695	0.135	928339	keystroke_Key.enter	Key.enter	n/a
464.3095	7.899	928619	prompt	n/a	means medicare care specify\n
464.9645	0.06	929929	keystroke_m	m	n/a
465.0695	0.1345	930139	keystroke_e	e	n/a
465.189	0.105	930378	keystroke_a	a	n/a
465.295	0.074	930590	keystroke_n	n	n/a
465.414	0.1055	930828	keystroke_s	s	n/a
465.6695	0.06	931339	keystroke_Key.space	Key.space	n/a
466.089	0.075	932178	keystroke_m	m	n/a
466.194	0.0745	932388	keystroke_e	e	n/a
466.4035	0.09	932807	keystroke_d	d	n/a
466.5085	0.105	933017	keystroke_i	i	n/a
466.6745	0.0885	933349	keystroke_c	c	n/a
466.779	0.06	933558	keystroke_a	a	n/a
466.9435	0.105	933887	keystroke_r	r	n/a
467.0635	0.06	934127	keystroke_e	e	n/a
467.723	0.091	935446	keystroke_Key.space	Key.space	n/a
468.1585	0.09	936317	keystroke_c	c	n/a
468.2635	0.06	936527	keystroke_a	a	n/a
469.0435	0.105	938087	keystroke_r	r	n/a
469.1185	0.09	938237	keystroke_e	e	n/a
469.2835	0.0895	938567	keystroke_Key.space	Key.space	n/a
469.8685	0.105	939737	keystroke_s	s	n/a
470.692	0.09	941384	keystroke_p	p	n/a
470.797	0.091	941594	keystroke_e	e	n/a
471.0525	0.105	942105	keystroke_c	c	n/a
471.172	0.105	942344	keystroke_i	i	n/a
471.427	0.075	942854	keystroke_f	f	n/a
471.877	0.06	943754	keystroke_y	y	n/a
472.087	0.12	944174	keystroke_Key.enter	Key.enter	n/a
472.217	8.4935	944434	prompt	n/a	disposal peace measurements dosage\n
473.1365	0.09	946273	keystroke_d	d	n/a
473.2415	0.09	946483	keystroke_i	i	n/a
473.3465	0.105	946693	keystroke_s	s	n/a
473.4965	0.1045	946993	keystroke_p	p	n/a
473.631	0.1355	947262	keystroke_o	o	n/a
474.051	0.1655	948102	keystroke_s	s	n/a
474.2305	0.046	948461	keystroke_a	a	n/a
474.3215	0.12	948643	keystroke_l	l	n/a
474.6065	0.09	949213	keystroke_Key.space	Key.space	n/a
474.8755	0.075	949751	keystroke_p	p	n/a
475.0255	0.09	950051	keystroke_e	e	n/a
475.19	0.09	950380	keystroke_a	a	n/a
475.295	0.091	950590	keystroke_s	s	n/a
475.431	0.1045	950862	keystroke_e	e	n/a
475.5805	0.12	951161	keystroke_Key.space	Key.space	n/a
475.896	0.075	951792	keystroke_Key.backspace	Key.backspace	n/a
476.0605	0.045	952121	keystroke_Key.backspace	Key.backspace	n/a
476.1955	0.09	952391	keystroke_Key.backspace	Key.backspace	n/a
476.3305	0.1495	952661	keystroke_c	c	n/a
476.45	0.09	952900	keystroke_e	e	n/a
476.541	0.104	953082	keystroke_Key.space	Key.space	n/a
476.735	0.105	953470	keystroke_m	m	n/a
476.87	0.06	953740	keystroke_e	e	n/a
476.991	0.1345	953982	keystroke_a	a	n/a
477.1105	0.12	954221	keystroke_s	s	n/a
477.35	0.105	954700	keystroke_u	u	n/a
477.5005	0.1195	955001	keystroke_r	r	n/a
477.71	0.09	955420	keystroke_e	e	n/a
477.89	0.045	955780	keystroke_m	m	n/a
478.01	0.09	956020	keystroke_e	e	n/a
478.085	0.1045	956170	keystroke_n	n	n/a
478.205	0.0895	956410	keystroke_t	t	n/a
478.7745	0.105	957549	keystroke_s	s	n/a
478.9095	0.135	957819	keystroke_Key.space	Key.space	n/a
479.359	0.1055	958718	keystroke_d	d	n/a
479.5245	0.045	959049	keystroke_o	o	n/a
479.8385	0.18	959677	keystroke_s	s	n/a
480.0195	0.089	960039	keystroke_a	a	n/a
480.2295	0.105	960459	keystroke_g	g	n/a
480.379	0.0905	960758	keystroke_e	e	n/a
480.5745	0.1345	961149	keystroke_Key.enter	Key.enter	n/a
480.713	11.139	961426	prompt	n/a	arthur pantyhose under decades\n
481.5335	0.0895	963067	keystroke_a	a	n/a
481.743	0.135	963486	keystroke_r	r	n/a
481.833	0.12	963666	keystroke_t	t	n/a
481.968	0.1205	963936	keystroke_h	h	n/a
482.119	0.0895	964238	keystroke_u	u	n/a
482.3435	0.09	964687	keystroke_e	e	n/a
482.4185	0.06	964837	keystroke_r	r	n/a
482.5985	0.105	965197	keystroke_Key.space	Key.space	n/a
482.913	0.0895	965826	keystroke_p	p	n/a
483.2575	0.045	966515	keystroke_Key.backspace	Key.backspace	n/a
483.4075	0.046	966815	keystroke_Key.backspace	Key.backspace	n/a
483.573	0.03	967146	keystroke_Key.backspace	Key.backspace	n/a
483.6925	0.09	967385	keystroke_Key.backspace	Key.backspace	n/a
483.9325	0.075	967865	keystroke_r	r	n/a
484.2925	0.1045	968585	keystroke_Key.space	Key.space	n/a
484.817	0.075	969634	keystroke_o	o	n/a
485.1775	0.09	970355	keystroke_Key.backspace	Key.backspace	n/a
485.3425	0.12	970685	keystroke_p	p	n/a
485.507	0.075	971014	keystroke_a	a	n/a
485.627	0.075	971254	keystroke_n	n	n/a
485.822	0.06	971644	keystroke_t	t	n/a
486.062	0.1045	972124	keystroke_u	u	n/a
486.5865	0.0905	973173	keystroke_Key.backspace	Key.backspace	n/a
486.872	0.06	973744	keystroke_y	y	n/a
487.127	0.0895	974254	keystroke_h	h	n/a
487.3215	0.12	974643	keystroke_o	o	n/a
487.486	0.1505	974972	keystroke_s	s	n/a
487.6065	0.09	975213	keystroke_e	e	n/a
487.8765	0.1045	975753	keystroke_Key.space	Key.space	n/a
488.041	0.12	976082	keystroke_u	u	n/a
488.131	0.12	976262	keystroke_n	n	n/a
488.266	0.105	976532	keystroke_d	d	n/a
488.431	0.105	976862	keystroke_e	e	n/a
488.506	0.091	977012	keystroke_r	r	n/a
488.642	0.105	977284	keystroke_Key.space	Key.space	n/a
489.0765	0.1495	978153	keystroke_e	e	n/a
489.5105	0.105	979021	keystroke_Key.backspace	Key.backspace	n/a
489.6015	0.15	979203	keystroke_d	d	n/a
489.6915	0.105	979383	keystroke_e	e	n/a
489.9165	0.089	979833	keystroke_c	c	n/a
490.1715	0.09	980343	keystroke_a	a	n/a
490.426	0.09	980852	keystroke_s	s	n/a
490.531	0.06	981062	keystroke_e	e	n/a
490.8305	0.045	981661	keystroke_Key.backspace	Key.backspace	n/a
490.9505	0.1045	981901	keystroke_Key.backspace	Key.backspace	n/a
491.071	0.15	982142	keystroke_d	d	n/a
491.205	0.0905	982410	keystroke_e	e	n/a
491.49	0.091	982980	keystroke_s	s	n/a
491.671	0.1795	983342	keystroke_Key.enter	Key.enter	n/a
491.8545	6.3855	983709	prompt	n/a	trance caught enhancing retained\n
492.87	0.1345	985740	keystroke_t	t	n/a
492.9445	0.0905	985889	keystroke_r	r	n/a
493.11	0.105	986220	keystroke_a	a	n/a
493.23	0.075	986460	keystroke_n	n	n/a
493.35	0.06	986700	keystroke_c	c	n/a
493.395	0.0895	986790	keystroke_e	e	n/a
493.5145	0.105	987029	keystroke_Key.space	Key.space	n/a
493.5745	0.12	987149	keystroke_c	c	n/a
493.6645	0.09	987329	keystroke_a	a	n/a
493.7395	0.105	987479	keystroke_u	u	n/a
493.8755	0.09	987751	keystroke_g	g	n/a
493.9805	0.0745	987961	keystroke_h	h	n/a
494.085	0.105	988170	keystroke_t	t	n/a
494.22	0.1195	988440	keystroke_Key.space	Key.space	n/a
494.4295	0.105	988859	keystroke_e	e	n/a
494.5495	0.075	989099	keystroke_n	n	n/a
495.465	0.0745	990930	keystroke_h	h	n/a
495.5695	0.105	991139	keystroke_a	a	n/a
495.6895	0.105	991379	keystroke_n	n	n/a
495.9445	0.09	991889	keystroke_c	c	n/a
496.094	0.0895	992188	keystroke_i	i	n/a
496.169	0.09	992338	keystroke_n	n	n/a
496.274	0.0745	992548	keystroke_g	g	n/a
496.4535	0.045	992907	keystroke_Key.space	Key.space	n/a
496.5285	0.105	993057	keystroke_r	r	n/a
496.6185	0.091	993237	keystroke_e	e	n/a
496.949	0.0755	993898	keystroke_t	t	n/a
497.204	0.015	994408	keystroke_a	a	n/a
497.294	0.075	994588	keystroke_i	i	n/a
497.309	0.1345	994618	keystroke_n	n	n/a
497.653	0.061	995306	keystroke_e	e	n/a
497.834	0.09	995668	keystroke_d	d	n/a
498.1035	0.135	996207	keystroke_Key.enter	Key.enter	n/a
498.243	9.5345	996486	prompt	n/a	subjects issue south lexington\n
498.8535	0.075	997707	keystroke_s	s	n/a
498.9435	0.075	997887	keystroke_u	u	n/a
499.1385	0.09	998277	keystroke_b	b	n/a
499.5885	0.0895	999177	keystroke_j	j	n/a
499.723	0.075	999446	keystroke_e	e	n/a
499.948	0.09	999896	keystroke_x	x	n/a
500.3375	0.09	1000675	keystroke_Key.backspace	Key.backspace	n/a
500.4135	0.09	1000827	keystroke_c	c	n/a
500.638	0.06	1001276	keystroke_t	t	n/a
500.803	0.1045	1001606	keystroke_s	s	n/a
500.8925	0.105	1001785	keystroke_Key.space	Key.space	n/a
500.9975	0.105	1001995	keystroke_i	i	n/a
501.1175	0.105	1002235	keystroke_s	s	n/a
501.3575	0.09	1002715	keystroke_s	s	n/a
501.5225	0.09	1003045	keystroke_u	u	n/a
501.747	0.076	1003494	keystroke_e	e	n/a
501.898	0.12	1003796	keystroke_Key.space	Key.space	n/a
502.1675	0.09	1004335	keystroke_s	s	n/a
502.2875	0.18	1004575	keystroke_o	o	n/a
502.4075	0.1045	1004815	keystroke_u	u	n/a
502.572	0.12	1005144	keystroke_t	t	n/a
502.693	0.104	1005386	keystroke_h	h	n/a
502.902	0.1205	1005804	keystroke_Key.space	Key.space	n/a
503.0675	0.1195	1006135	keystroke_l	l	n/a
503.172	0.12	1006344	keystroke_e	e	n/a
503.7125	0.0895	1007425	keystroke_x	x	n/a
504.072	0.15	1008144	keystroke_o	o	n/a
504.192	0.12	1008384	keystroke_n	n	n/a
504.297	0.06	1008594	keystroke_g	g	n/a
504.477	0.075	1008954	keystroke_t	t	n/a
504.537	0.15	1009074	keystroke_o	o	n/a
504.657	0.12	1009314	keystroke_n	n	n/a
505.0315	0.075	1010063	keystroke_Key.backspace	Key.backspace	n/a
505.196	0.045	1010392	keystroke_Key.backspace	Key.backspace	n/a
505.346	0.045	1010692	keystroke_Key.backspace	Key.backspace	n/a
505.496	0.06	1010992	keystroke_Key.backspace	Key.backspace	n/a
505.631	0.105	1011262	keystroke_Key.backspace	Key.backspace	n/a
505.7965	0.0895	1011593	keystroke_Key.backspace	Key.backspace	n/a
506.636	0.1495	1013272	keystroke_i	i	n/a
506.696	0.1345	1013392	keystroke_n	n	n/a
506.8455	0.091	1013691	keystroke_g	g	n/a
507.0865	0.075	1014173	keystroke_t	t	n/a
507.1315	0.15	1014263	keystroke_o	o	n/a
507.2365	0.1045	1014473	keystroke_n	n	n/a
507.6555	0.12	1015311	keystroke_Key.enter	Key.enter	n/a
507.7815	8.439	1015563	prompt	n/a	archives refuse approaches luggage\n
508.466	0.12	1016932	keystroke_a	a	n/a
508.6755	0.075	1017351	keystroke_r	r	n/a
508.886	0.105	1017772	keystroke_c	c	n/a
509.006	0.09	1018012	keystroke_h	h	n/a
509.111	0.12	1018222	keystroke_i	i	n/a
509.246	0.09	1018492	keystroke_v	v	n/a
509.381	0.075	1018762	keystroke_e	e	n/a
509.576	0.06	1019152	keystroke_s	s	n/a
509.6955	0.105	1019391	keystroke_Key.space	Key.space	n/a
509.7855	0.1345	1019571	keystroke_r	r	n/a
509.86	0.12	1019720	keystroke_e	e	n/a
510.07	0.135	1020140	keystroke_f	f	n/a
510.43	0.1045	1020860	keystroke_u	u	n/a
510.686	0.1195	1021372	keystroke_s	s	n/a
510.7905	0.09	1021581	keystroke_e	e	n/a
510.9255	0.09	1021851	keystroke_Key.space	Key.space	n/a
511.0305	0.12	1022061	keystroke_a	a	n/a
511.1655	0.075	1022331	keystroke_p	p	n/a
511.4205	0.12	1022841	keystroke_r	r	n/a
511.7955	0.09	1023591	keystroke_Key.backspace	Key.backspace	n/a
511.9455	0.1195	1023891	keystroke_p	p	n/a
512.08	0.0745	1024160	keystroke_r	r	n/a
512.2595	0.105	1024519	keystroke_a	a	n/a
512.545	0.045	1025090	keystroke_c	c	n/a
512.83	0.0745	1025660	keystroke_Key.backspace	Key.backspace	n/a
512.9645	0.09	1025929	keystroke_Key.backspace	Key.backspace	n/a
513.1145	0.105	1026229	keystroke_o	o	n/a
513.2045	0.075	1026409	keystroke_a	a	n/a
513.2645	0.135	1026529	keystroke_c	c	n/a
513.4295	0.06	1026859	keystroke_h	h	n/a
513.5345	0.09	1027069	keystroke_e	e	n/a
513.8195	0.1045	1027639	keystroke_s	s	n/a
514.029	0.105	1028058	keystroke_Key.space	Key.space	n/a
514.345	0.09	1028690	keystroke_l	l	n/a
514.5695	0.09	1029139	keystroke_u	u	n/a
514.7345	0.06	1029469	keystroke_g	g	n/a
514.899	0.045	1029798	keystroke_g	g	n/a
515.064	0.075	1030128	keystroke_e	e	n/a
515.454	0.075	1030908	keystroke_Key.backspace	Key.backspace	n/a
515.589	0.045	1031178	keystroke_a	a	n/a
515.769	0.0595	1031538	keystroke_g	g	n/a
515.904	0.06	1031808	keystroke_e	e	n/a
516.114	0.105	1032228	keystroke_Key.enter	Key.enter	n/a
516.223	6.731	1032446	prompt	n/a	contests aids heading lance\n
517.074	0.03	1034148	keystroke_c	c	n/a
517.224	0.12	1034448	keystroke_o	o	n/a
517.554	0.075	1035108	keystroke_n	n	n/a
518.063	0.045	1036126	keystroke_t	t	n/a
518.153	0.075	1036306	keystroke_e	e	n/a
518.379	0.09	1036758	keystroke_s	s	n/a
518.9485	0.1345	1037897	keystroke_t	t	n/a
519.2185	0.0595	1038437	keystroke_s	s	n/a
519.398	0.06	1038796	keystroke_Key.space	Key.space	n/a
519.488	0.09	1038976	keystroke_a	a	n/a
519.608	0.12	1039216	keystroke_i	i	n/a
519.9825	0.135	1039965	keystroke_d	d	n/a
520.1775	0.1205	1040355	keystroke_s	s	n/a
520.433	0.0745	1040866	keystroke_Key.space	Key.space	n/a
520.8235	0.0745	1041647	keystroke_h	h	n/a
521.0625	0.12	1042125	keystroke_e	e	n/a
521.2275	0.135	1042455	keystroke_a	a	n/a
521.3325	0.105	1042665	keystroke_d	d	n/a
521.543	0.15	1043086	keystroke_i	i	n/a
521.633	0.12	1043266	keystroke_n	n	n/a
521.738	0.09	1043476	keystroke_g	g	n/a
521.918	0.12	1043836	keystroke_Key.space	Key.space	n/a
522.068	0.105	1044136	keystroke_l	l	n/a
522.174	0.1035	1044348	keystroke_a	a	n/a
522.3375	0.105	1044675	keystroke_n	n	n/a
522.5175	0.12	1045035	keystroke_c	c	n/a
522.6225	0.0895	1045245	keystroke_e	e	n/a
522.787	0.165	1045574	keystroke_Key.enter	Key.enter	n/a
522.958	7.5995	1045916	prompt	n/a	accessory maryland road third\n
523.537	0.0755	1047074	keystroke_a	a	n/a
523.717	0.075	1047434	keystroke_c	c	n/a
523.912	0.12	1047824	keystroke_c	c	n/a
524.092	0.0895	1048184	keystroke_e	e	n/a
524.3175	0.044	1048635	keystroke_s	s	n/a
524.4675	0.0445	1048935	keystroke_s	s	n/a
524.782	0.12	1049564	keystroke_o	o	n/a
525.0065	0.09	1050013	keystroke_r	r	n/a
525.1115	0.12	1050223	keystroke_y	y	n/a
525.3525	0.1045	1050705	keystroke_Key.space	Key.space	n/a
525.517	0.12	1051034	keystroke_m	m	n/a
525.682	0.135	1051364	keystroke_a	a	n/a
525.802	0.135	1051604	keystroke_r	r	n/a
526.027	0.105	1052054	keystroke_l	l	n/a
526.5815	0.09	1053163	keystroke_Key.backspace	Key.backspace	n/a
526.8515	0.0595	1053703	keystroke_y	y	n/a
526.957	0.0895	1053914	keystroke_l	l	n/a
527.0905	0.075	1054181	keystroke_a	a	n/a
527.1815	0.09	1054363	keystroke_n	n	n/a
527.3015	0.09	1054603	keystroke_d	d	n/a
527.4065	0.105	1054813	keystroke_Key.space	Key.space	n/a
527.5715	0.105	1055143	keystroke_r	r	n/a
527.9915	0.0895	1055983	keystroke_o	o	n/a
528.366	0.135	1056732	keystroke_a	a	n/a
528.456	0.12	1056912	keystroke_d	d	n/a
528.606	0.1045	1057212	keystroke_Key.space	Key.space	n/a
528.7405	0.091	1057481	keystroke_t	t	n/a
528.8155	0.1055	1057631	keystroke_h	h	n/a
529.011	0.09	1058022	keystroke_r	r	n/a
529.4005	0.1355	1058801	keystroke_d	d	n/a
529.671	0.09	1059342	keystroke_Key.backspace	Key.backspace	n/a
529.821	0.06	1059642	keystroke_Key.backspace	Key.backspace	n/a
529.986	0.105	1059972	keystroke_i	i	n/a
530.046	0.105	1060092	keystroke_r	r	n/a
530.256	0.1045	1060512	keystroke_d	d	n/a
530.421	0.1345	1060842	keystroke_Key.enter	Key.enter	n/a
530.5605	8.005	1061121	prompt	n/a	advance symposium charlie lying\n
531.246	0.06	1062492	keystroke_a	a	n/a
531.4705	0.1045	1062941	keystroke_d	d	n/a
531.77	0.09	1063540	keystroke_v	v	n/a
531.95	0.121	1063900	keystroke_a	a	n/a
532.1155	0.075	1064231	keystroke_n	n	n/a
532.2055	0.105	1064411	keystroke_c	c	n/a
532.2955	0.09	1064591	keystroke_e	e	n/a
532.4455	0.09	1064891	keystroke_Key.space	Key.space	n/a
533.5255	0.105	1067051	keystroke_s	s	n/a
533.8405	0.0895	1067681	keystroke_y	y	n/a
534.08	0.09	1068160	keystroke_m	m	n/a
534.275	0.0905	1068550	keystroke_p	p	n/a
534.3505	0.0895	1068701	keystroke_o	o	n/a
534.5	0.09	1069000	keystroke_s	s	n/a
534.62	0.09	1069240	keystroke_i	i	n/a
534.86	0.075	1069720	keystroke_u	u	n/a
535.07	0.0895	1070140	keystroke_m	m	n/a
535.595	0.1195	1071190	keystroke_Key.space	Key.space	n/a
535.8945	0.075	1071789	keystroke_c	c	n/a
535.9845	0.09	1071969	keystroke_h	h	n/a
536.0895	0.09	1072179	keystroke_a	a	n/a
536.1645	0.105	1072329	keystroke_r	r	n/a
536.314	0.1055	1072628	keystroke_l	l	n/a
536.5545	0.09	1073109	keystroke_i	i	n/a
536.7045	0.09	1073409	keystroke_e	e	n/a
536.8395	0.105	1073679	keystroke_Key.space	Key.space	n/a
537.0495	0.09	1074099	keystroke_l	l	n/a
537.4095	0.075	1074819	keystroke_y	y	n/a
537.7095	0.09	1075419	keystroke_i	i	n/a
537.7845	0.09	1075569	keystroke_n	n	n/a
537.8895	0.0895	1075779	keystroke_g	g	n/a
538.474	0.09	1076948	keystroke_Key.enter	Key.enter	n/a
538.5695	11.3645	1077139	prompt	n/a	parliamentary port proudly legends\n
539.404	0.06	1078808	keystroke_a	a	n/a
539.749	0.075	1079498	keystroke_Key.backspace	Key.backspace	n/a
539.929	0.1045	1079858	keystroke_p	p	n/a
540.0485	0.105	1080097	keystroke_a	a	n/a
540.1385	0.135	1080277	keystroke_r	r	n/a
540.2585	0.09	1080517	keystroke_l	l	n/a
540.783	0.06	1081566	keystroke_i	i	n/a
540.994	0.06	1081988	keystroke_a	a	n/a
541.294	0.06	1082588	keystroke_m	m	n/a
541.4885	0.135	1082977	keystroke_e	e	n/a
541.6085	0.075	1083217	keystroke_n	n	n/a
541.9685	0.09	1083937	keystroke_r	r	n/a
542.163	0.075	1084326	keystroke_a	a	n/a
542.613	0.06	1085226	keystroke_Key.backspace	Key.backspace	n/a
542.748	0.09	1085496	keystroke_Key.backspace	Key.backspace	n/a
542.823	0.105	1085646	keystroke_t	t	n/a
543.003	0.135	1086006	keystroke_a	a	n/a
543.093	0.12	1086186	keystroke_r	r	n/a
543.243	0.1045	1086486	keystroke_y	y	n/a
543.6475	0.121	1087295	keystroke_Key.space	Key.space	n/a
544.0675	0.135	1088135	keystroke_o	o	n/a
544.3375	0.045	1088675	keystroke_i	i	n/a
544.3535	0.044	1088707	keystroke_o	o	n/a
544.863	0.045	1089726	keystroke_Key.backspace	Key.backspace	n/a
544.998	0.075	1089996	keystroke_Key.backspace	Key.backspace	n/a
545.148	0.06	1090296	keystroke_Key.backspace	Key.backspace	n/a
545.928	0.2095	1091856	keystroke_p	p	n/a
546.018	0.1345	1092036	keystroke_o	o	n/a
546.1225	0.105	1092245	keystroke_r	r	n/a
546.1985	0.104	1092397	keystroke_t	t	n/a
546.3175	0.1205	1092635	keystroke_Key.space	Key.space	n/a
546.857	0.1355	1093714	keystroke_p	p	n/a
547.0375	0.1055	1094075	keystroke_r	r	n/a
547.2325	0.09	1094465	keystroke_o	o	n/a
547.4425	0.06	1094885	keystroke_u	u	n/a
547.6375	0.135	1095275	keystroke_d	d	n/a
547.7875	0.1195	1095575	keystroke_l	l	n/a
547.9525	0.12	1095905	keystroke_y	y	n/a
548.1925	0.09	1096385	keystroke_Key.space	Key.space	n/a
548.777	0.09	1097554	keystroke_l	l	n/a
548.927	0.06	1097854	keystroke_e	e	n/a
549.092	0.075	1098184	keystroke_g	g	n/a
549.257	0.075	1098514	keystroke_e	e	n/a
549.347	0.0755	1098694	keystroke_n	n	n/a
549.482	0.1655	1098964	keystroke_d	d	n/a
549.617	0.105	1099234	keystroke_s	s	n/a
549.827	0.105	1099654	keystroke_Key.enter	Key.enter	n/a
549.9365	10.6155	1099873	prompt	n/a	everyday animated somerset korean\n
550.7875	0.075	1101575	keystroke_e	e	n/a
550.9225	0.1045	1101845	keystroke_v	v	n/a
551.012	0.105	1102024	keystroke_e	e	n/a
551.072	0.105	1102144	keystroke_r	r	n/a
551.162	0.0595	1102324	keystroke_y	y	n/a
551.3865	0.135	1102773	keystroke_d	d	n/a
551.4915	0.105	1102983	keystroke_a	a	n/a
551.5665	0.091	1103133	keystroke_y	y	n/a
551.776	0.121	1103552	keystroke_Key.space	Key.space	n/a
552.4365	0.045	1104873	keystroke_a	a	n/a
552.5265	0.075	1105053	keystroke_n	n	n/a
552.6915	0.06	1105383	keystroke_i	i	n/a
552.8715	0.09	1105743	keystroke_m	m	n/a
552.9465	0.075	1105893	keystroke_a	a	n/a
553.096	0.09	1106192	keystroke_t	t	n/a
553.201	0.09	1106402	keystroke_e	e	n/a
553.381	0.1055	1106762	keystroke_d	d	n/a
553.5465	0.135	1107093	keystroke_Key.space	Key.space	n/a
553.8165	0.0895	1107633	keystroke_s	s	n/a
553.921	0.12	1107842	keystroke_o	o	n/a
554.206	0.09	1108412	keystroke_e	e	n/a
554.5215	0.09	1109043	keystroke_Key.backspace	Key.backspace	n/a
554.8505	0.105	1109701	keystroke_e	e	n/a
554.9405	0.075	1109881	keystroke_r	r	n/a
555.1655	0.075	1110331	keystroke_Key.backspace	Key.backspace	n/a
555.3005	0.075	1110601	keystroke_Key.backspace	Key.backspace	n/a
555.5115	0.09	1111023	keystroke_m	m	n/a
555.6165	0.1195	1111233	keystroke_e	e	n/a
555.6915	0.0895	1111383	keystroke_r	r	n/a
555.946	0.075	1111892	keystroke_s	s	n/a
