onset	duration	sample	value	key	prompt_text
4.146	13.627	8292	prompt	n/a	the quick brown fox jumps over a lazy dog\n
7.4525	0.057	14905	keystroke_t	t	n/a
7.5395	0.106	15079	keystroke_h	h	n/a
7.6605	0.12	15321	keystroke_e	e	n/a
7.7805	0.1045	15561	keystroke_Key.space	Key.space	n/a
8.17	0.15	16340	keystroke_q	q	n/a
8.365	0.1055	16730	keystroke_u	u	n/a
8.5755	0.12	17151	keystroke_i	i	n/a
8.7255	0.135	17451	keystroke_c	c	n/a
8.8905	0.165	17781	keystroke_k	k	n/a
9.0705	0.09	18141	keystroke_Key.space	Key.space	n/a
10.1505	0.105	20301	keystroke_b	b	n/a
10.5255	0.105	21051	keystroke_r	r	n/a
10.6905	0.105	21381	keystroke_o	o	n/a
10.8105	0.135	21621	keystroke_w	w	n/a
11.0805	0.09	22161	keystroke_n	n	n/a
11.62	0.12	23240	keystroke_Key.space	Key.space	n/a
12.041	0.134	24082	keystroke_f	f	n/a
12.28	0.121	24560	keystroke_o	o	n/a
12.806	0.179	25612	keystroke_x	x	n/a
13.12	0.105	26240	keystroke_Key.space	Key.space	n/a
13.315	0.105	26630	keystroke_j	j	n/a
13.555	0.105	27110	keystroke_u	u	n/a
13.81	0.105	27620	keystroke_m	m	n/a
14.005	0.12	28010	keystroke_p	p	n/a
14.11	0.135	28220	keystroke_s	s	n/a
14.275	0.105	28550	keystroke_Key.space	Key.space	n/a
14.365	0.18	28730	keystroke_o	o	n/a
14.92	0.105	29840	keystroke_v	v	n/a
15.22	0.18	30440	keystroke_e	e	n/a
15.385	0.105	30770	keystroke_r	r	n/a
15.46	0.09	30920	keystroke_Key.space	Key.space	n/a
15.58	0.105	31160	keystroke_a	a	n/a
15.655	0.09	31310	keystroke_Key.space	Key.space	n/a
15.97	0.195	31940	keystroke_l	l	n/a
16.105	0.12	32210	keystroke_a	a	n/a
16.375	0.15	32750	keystroke_z	z	n/a
16.57	0.21	33140	keystroke_y	y	n/a
16.69	0.165	33380	keystroke_Key.space	Key.space	n/a
16.87	0.135	33740	keystroke_d	d	n/a
17.006	0.119	34012	keystroke_o	o	n/a
17.365	0.135	34730	keystroke_g	g	n/a
17.65	0.12	35300	keystroke_Key.enter	Key.enter	n/a
17.7775	13.4945	35555	prompt	n/a	amended different initiative trying\n
18.715	0.12	37430	keystroke_a	a	n/a
18.925	0.135	37850	keystroke_m	m	n/a
19.061	0.089	38122	keystroke_e	e	n/a
19.165	0.105	38330	keystroke_n	n	n/a
19.33	0.12	38660	keystroke_d	d	n/a
19.585	0.075	39170	keystroke_e	e	n/a
19.81	0.165	39620	keystroke_d	d	n/a
20.08	0.075	40160	keystroke_Key.space	Key.space	n/a
20.29	0.106	40580	keystroke_a	a	n/a
20.785	0.15	41570	keystroke_Key.backspace	Key.backspace	n/a
20.906	0.12	41812	keystroke_d	d	n/a
21.16	0.136	42320	keystroke_i	i	n/a
21.551	0.09	43102	keystroke_f	f	n/a
21.76	0.061	43520	keystroke_f	f	n/a
21.986	0.224	43972	keystroke_e	e	n/a
22.15	0.165	44300	keystroke_r	r	n/a
23.065	0.15	46130	keystroke_e	e	n/a
23.2905	0.1045	46581	keystroke_n	n	n/a
23.4405	0.0745	46881	keystroke_t	t	n/a
23.725	0.12	47450	keystroke_Key.space	Key.space	n/a
24.025	0.1205	48050	keystroke_i	i	n/a
24.115	0.0905	48230	keystroke_n	n	n/a
24.2955	0.09	48591	keystroke_i	i	n/a
24.3705	0.12	48741	keystroke_t	t	n/a
24.4905	0.09	48981	keystroke_i	i	n/a
24.5955	0.105	49191	keystroke_a	a	n/a
25.6305	0.09	51261	keystroke_t	t	n/a
25.7655	0.105	51531	keystroke_i	i	n/a
26.0205	0.03	52041	keystroke_i	i	n/a
26.0655	0.1795	52131	keystroke_v	v	n/a
26.23	0.12	52460	keystroke_e	e	n/a
26.455	0.075	52910	keystroke_Key.space	Key.space	n/a
26.905	0.09	53810	keystroke_Key.backspace	Key.backspace	n/a
27.055	0.075	54110	keystroke_Key.backspace	Key.backspace	n/a
27.16	0.09	54320	keystroke_Key.backspace	Key.backspace	n/a
27.31	0.09	54620	keystroke_Key.backspace	Key.backspace	n/a
27.625	0.135	55250	keystroke_v	v	n/a
27.88	0.135	55760	keystroke_e	e	n/a
28	0.09	56000	keystroke_Key.space	Key.space	n/a
28.6455	0.15	57291	keystroke_t	t	n/a
28.9305	0.135	57861	keystroke_r	r	n/a
29.0955	0.105	58191	keystroke_y	y	n/a
29.3205	0.18	58641	keystroke_i	i	n/a
29.4705	0.105	58941	keystroke_n	n	n/a
29.5305	0.09	59061	keystroke_g	g	n/a
31.1505	0.12	62301	keystroke_Key.enter	Key.enter	n/a
31.2755	11.0215	62551	prompt	n/a	semiconductor wave bookings because\n
32.1255	0.09	64251	keystroke_s	s	n/a
32.3055	0.105	64611	keystroke_e	e	n/a
32.5005	0.06	65001	keystroke_m	m	n/a
32.7405	0.09	65481	keystroke_i	i	n/a
33.2655	0.135	66531	keystroke_c	c	n/a
33.7755	0.21	67551	keystroke_o	o	n/a
33.9255	0.09	67851	keystroke_n	n	n/a
34.3305	0.09	68661	keystroke_d	d	n/a
34.4655	0.105	68931	keystroke_u	u	n/a
34.7055	0.105	69411	keystroke_c	c	n/a
35.1555	0.09	70311	keystroke_t	t	n/a
35.3205	0.15	70641	keystroke_o	o	n/a
35.4555	0.09	70911	keystroke_r	r	n/a
35.7405	0.075	71481	keystroke_Key.space	Key.space	n/a
35.9805	0.105	71961	keystroke_w	w	n/a
36.0405	0.15	72081	keystroke_a	a	n/a
36.5955	0.135	73191	keystroke_v	v	n/a
36.7755	0.12	73551	keystroke_e	e	n/a
36.9405	0.075	73881	keystroke_Key.space	Key.space	n/a
37.9755	0.09	75951	keystroke_b	b	n/a
38.2005	0.075	76401	keystroke_o	o	n/a
38.3355	0.105	76671	keystroke_o	o	n/a
38.5455	0.12	77091	keystroke_k	k	n/a
38.7855	0.15	77571	keystroke_i	i	n/a
38.9205	0.15	77841	keystroke_n	n	n/a
39.0555	0.09	78111	keystroke_g	g	n/a
39.4305	0.15	78861	keystroke_s	s	n/a
39.6405	0.105	79281	keystroke_Key.space	Key.space	n/a
39.9405	0.09	79881	keystroke_b	b	n/a
40.1805	0.09	80361	keystroke_e	e	n/a
40.556	0.0595	81112	keystroke_c	c	n/a
40.9005	0.09	81801	keystroke_a	a	n/a
41.0505	0.1495	82101	keystroke_u	u	n/a
41.215	0.15	82430	keystroke_s	s	n/a
41.38	0.165	82760	keystroke_e	e	n/a
42.175	0.12	84350	keystroke_Key.enter	Key.enter	n/a
42.3005	16.1515	84601	prompt	n/a	daisy mediterranean earthquake wallpaper\n
43.45	0.045	86900	keystroke_d	d	n/a
43.555	0.105	87110	keystroke_a	a	n/a
43.675	0.135	87350	keystroke_i	i	n/a
43.87	0.121	87740	keystroke_d	d	n/a
44.05	0.165	88100	keystroke_y	y	n/a
44.155	0.18	88310	keystroke_Key.space	Key.space	n/a
45.325	0.105	90650	keystroke_Key.backspace	Key.backspace	n/a
45.535	0.09	91070	keystroke_Key.backspace	Key.backspace	n/a
45.715	0.12	91430	keystroke_Key.backspace	Key.backspace	n/a
45.895	0.12	91790	keystroke_s	s	n/a
46.15	0.196	92300	keystroke_y	y	n/a
46.255	0.18	92510	keystroke_Key.space	Key.space	n/a
46.66	0.12	93320	keystroke_m	m	n/a
46.735	0.09	93470	keystroke_e	e	n/a
47.005	0.105	94010	keystroke_d	d	n/a
47.08	0.135	94160	keystroke_i	i	n/a
47.92	0.105	95840	keystroke_t	t	n/a
48.25	0.15	96500	keystroke_e	e	n/a
48.371	0.12	96742	keystroke_r	r	n/a
48.625	0.075	97250	keystroke_r	r	n/a
49.525	0.121	99050	keystroke_a	a	n/a
49.751	0.119	99502	keystroke_n	n	n/a
49.945	0.105	99890	keystroke_e	e	n/a
50.2605	0.075	100521	keystroke_a	a	n/a
50.5455	0.12	101091	keystroke_n	n	n/a
50.8305	0.15	101661	keystroke_Key.space	Key.space	n/a
52.691	0.119	105382	keystroke_e	e	n/a
52.96	0.121	105920	keystroke_a	a	n/a
53.171	0.119	106342	keystroke_r	r	n/a
53.456	0.09	106912	keystroke_t	t	n/a
53.621	0.164	107242	keystroke_h	h	n/a
53.98	0.136	107960	keystroke_q	q	n/a
54.2055	0.15	108411	keystroke_u	u	n/a
54.4305	0.12	108861	keystroke_a	a	n/a
54.9405	0.1645	109881	keystroke_k	k	n/a
55.0755	0.1045	110151	keystroke_e	e	n/a
55.51	0.12	111020	keystroke_Key.space	Key.space	n/a
55.87	0.195	111740	keystroke_w	w	n/a
56.05	0.12	112100	keystroke_a	a	n/a
56.2	0.09	112400	keystroke_l	l	n/a
56.38	0.105	112760	keystroke_l	l	n/a
56.635	0.135	113270	keystroke_p	p	n/a
56.785	0.12	113570	keystroke_a	a	n/a
57.625	0.135	115250	keystroke_p	p	n/a
57.775	0.18	115550	keystroke_e	e	n/a
57.91	0.18	115820	keystroke_r	r	n/a
58.315	0.135	116630	keystroke_Key.enter	Key.enter	n/a
58.455	11.1275	116910	prompt	n/a	resulting sagem scottish historic\n
59.65	0.15	119300	keystroke_r	r	n/a
59.815	0.09	119630	keystroke_e	e	n/a
59.95	0.135	119900	keystroke_s	s	n/a
60.1	0.0905	120200	keystroke_u	u	n/a
60.3705	0.165	120741	keystroke_l	l	n/a
60.5655	0.12	121131	keystroke_t	t	n/a
60.6555	0.15	121311	keystroke_i	i	n/a
60.7905	0.1355	121581	keystroke_n	n	n/a
60.851	0.1195	121702	keystroke_g	g	n/a
61.4505	0.135	122901	keystroke_Key.space	Key.space	n/a
61.8705	0.12	123741	keystroke_s	s	n/a
62.0805	0.15	124161	keystroke_a	a	n/a
62.2905	0.135	124581	keystroke_g	g	n/a
62.5305	0.075	125061	keystroke_e	e	n/a
62.8155	0.12	125631	keystroke_m	m	n/a
63.1905	0.105	126381	keystroke_Key.space	Key.space	n/a
63.6405	0.12	127281	keystroke_c	c	n/a
64.1505	0.105	128301	keystroke_Key.backspace	Key.backspace	n/a
64.2705	0.105	128541	keystroke_s	s	n/a
64.5105	0.135	129021	keystroke_c	c	n/a
64.6305	0.15	129261	keystroke_o	o	n/a
65.0205	0.03	130041	keystroke_t	t	n/a
65.1705	0.075	130341	keystroke_t	t	n/a
65.4105	0.165	130821	keystroke_i	i	n/a
65.7405	0.15	131481	keystroke_s	s	n/a
65.9805	0.165	131961	keystroke_h	h	n/a
66.1605	0.12	132321	keystroke_Key.space	Key.space	n/a
66.6555	0.15	133311	keystroke_h	h	n/a
66.7905	0.165	133581	keystroke_o	o	n/a
66.9855	0.135	133971	keystroke_s	s	n/a
67.3455	0.015	134691	keystroke_t	t	n/a
67.4805	0.105	134961	keystroke_o	o	n/a
67.6605	0.12	135321	keystroke_i	i	n/a
68.2605	0.105	136521	keystroke_Key.backspace	Key.backspace	n/a
68.4405	0.09	136881	keystroke_r	r	n/a
68.5605	0.105	137121	keystroke_i	i	n/a
68.8755	0.12	137751	keystroke_c	c	n/a
69.5205	0.06	139041	keystroke_Key.enter	Key.enter	n/a
69.5865	9.8355	139173	prompt	n/a	combine baltimore florist highlight\n
70.7205	0.12	141441	keystroke_c	c	n/a
70.8705	0.105	141741	keystroke_o	o	n/a
71.1405	0.12	142281	keystroke_m	m	n/a
71.3355	0.09	142671	keystroke_b	b	n/a
71.5005	0.15	143001	keystroke_i	i	n/a
71.7555	0.12	143511	keystroke_n	n	n/a
71.8905	0.09	143781	keystroke_e	e	n/a
72.3555	0.165	144711	keystroke_Key.space	Key.space	n/a
72.8205	0.12	145641	keystroke_b	b	n/a
73.0455	0.105	146091	keystroke_a	a	n/a
73.2555	0.165	146511	keystroke_l	l	n/a
73.5105	0.075	147021	keystroke_t	t	n/a
73.6455	0.12	147291	keystroke_i	i	n/a
73.9305	0.135	147861	keystroke_m	m	n/a
74.2155	0.165	148431	keystroke_o	o	n/a
74.3355	0.135	148671	keystroke_r	r	n/a
74.4555	0.15	148911	keystroke_e	e	n/a
75.0405	0.045	150081	keystroke_Key.space	Key.space	n/a
75.2805	0.12	150561	keystroke_f	f	n/a
75.5505	0.105	151101	keystroke_l	l	n/a
76.0155	0.12	152031	keystroke_o	o	n/a
76.2855	0.105	152571	keystroke_r	r	n/a
76.4205	0.12	152841	keystroke_i	i	n/a
76.6005	0.15	153201	keystroke_s	s	n/a
76.9605	0.09	153921	keystroke_t	t	n/a
77.0955	0.105	154191	keystroke_Key.space	Key.space	n/a
77.2755	0.195	154551	keystroke_h	h	n/a
77.4405	0.165	154881	keystroke_i	i	n/a
77.5905	0.105	155181	keystroke_g	g	n/a
77.7105	0.09	155421	keystroke_h	h	n/a
78.0105	0.12	156021	keystroke_l	l	n/a
78.2355	0.12	156471	keystroke_i	i	n/a
78.3405	0.12	156681	keystroke_g	g	n/a
78.4755	0.135	156951	keystroke_h	h	n/a
78.7005	0.045	157401	keystroke_t	t	n/a
79.3305	0.09	158661	keystroke_Key.enter	Key.enter	n/a
79.4255	8.261	158851	prompt	n/a	generic casio would've pope\n
80.291	0.09	160582	keystroke_g	g	n/a
80.456	0.12	160912	keystroke_e	e	n/a
80.65	0.121	161300	keystroke_n	n	n/a
80.756	0.15	161512	keystroke_e	e	n/a
80.846	0.135	161692	keystroke_r	r	n/a
81.101	0.105	162202	keystroke_i	i	n/a
81.326	0.15	162652	keystroke_c	c	n/a
81.595	0.106	163190	keystroke_Key.space	Key.space	n/a
82.046	0.1045	164092	keystroke_c	c	n/a
82.3455	0.105	164691	keystroke_a	a	n/a
82.5855	0.105	165171	keystroke_s	s	n/a
82.7205	0.075	165441	keystroke_i	i	n/a
82.8105	0.165	165621	keystroke_o	o	n/a
83.0505	0.12	166101	keystroke_Key.space	Key.space	n/a
83.7105	0.135	167421	keystroke_w	w	n/a
83.8755	0.135	167751	keystroke_o	o	n/a
83.9655	0.135	167931	keystroke_u	u	n/a
84.205	0.165	168410	keystroke_l	l	n/a
84.385	0.105	168770	keystroke_d	d	n/a
85.105	0.12	170210	keystroke_'	'	n/a
85.375	0.12	170750	keystroke_v	v	n/a
85.615	0.121	171230	keystroke_e	e	n/a
85.915	0.105	171830	keystroke_Key.space	Key.space	n/a
86.29	0.12	172580	keystroke_p	p	n/a
86.515	0.165	173030	keystroke_o	o	n/a
86.65	0.12	173300	keystroke_p	p	n/a
87.16	0.105	174320	keystroke_e	e	n/a
87.58	0.105	175160	keystroke_Key.enter	Key.enter	n/a
87.6915	9.4155	175383	prompt	n/a	widespread are economic inexpensive\n
88.585	0.09	177170	keystroke_w	w	n/a
88.69	0.09	177380	keystroke_i	i	n/a
89.11	0.09	178220	keystroke_d	d	n/a
89.32	0.09	178640	keystroke_e	e	n/a
89.53	0.12	179060	keystroke_s	s	n/a
89.74	0.105	179480	keystroke_p	p	n/a
89.92	0.165	179840	keystroke_r	r	n/a
90.055	0.1655	180110	keystroke_e	e	n/a
90.1905	0.105	180381	keystroke_a	a	n/a
90.4455	0.135	180891	keystroke_d	d	n/a
90.6555	0.105	181311	keystroke_Key.space	Key.space	n/a
90.941	0.135	181882	keystroke_a	a	n/a
91.061	0.165	182122	keystroke_r	r	n/a
91.1955	0.1355	182391	keystroke_e	e	n/a
91.391	0.0745	182782	keystroke_Key.space	Key.space	n/a
91.526	0.1195	183052	keystroke_e	e	n/a
91.8405	0.1205	183681	keystroke_c	c	n/a
91.9455	0.1955	183891	keystroke_o	o	n/a
92.1255	0.135	184251	keystroke_n	n	n/a
92.2605	0.1205	184521	keystroke_o	o	n/a
92.4255	0.12	184851	keystroke_m	m	n/a
92.681	0.0895	185362	keystroke_i	i	n/a
92.8605	0.1205	185721	keystroke_c	c	n/a
93.1305	0.09	186261	keystroke_Key.space	Key.space	n/a
93.8205	0.06	187641	keystroke_e	e	n/a
94.0755	0.09	188151	keystroke_Key.backspace	Key.backspace	n/a
94.4205	0.15	188841	keystroke_i	i	n/a
94.5405	0.135	189081	keystroke_n	n	n/a
94.661	0.0895	189322	keystroke_e	e	n/a
95.0055	0.105	190011	keystroke_x	x	n/a
95.1405	0.15	190281	keystroke_p	p	n/a
95.3205	0.09	190641	keystroke_e	e	n/a
95.4855	0.12	190971	keystroke_n	n	n/a
95.6205	0.105	191241	keystroke_s	s	n/a
95.7555	0.12	191511	keystroke_i	i	n/a
95.9955	0.1055	191991	keystroke_v	v	n/a
96.1755	0.15	192351	keystroke_e	e	n/a
96.9855	0.12	193971	keystroke_Key.enter	Key.enter	n/a
97.11	8.742	194220	prompt	n/a	footage partners extreme joyce\n
98.0805	0.09	196161	keystroke_f	f	n/a
98.2605	0.045	196521	keystroke_o	o	n/a
98.3805	0.135	196761	keystroke_o	o	n/a
98.5755	0.15	197151	keystroke_t	t	n/a
98.7705	0.12	197541	keystroke_a	a	n/a
98.9955	0.12	197991	keystroke_g	g	n/a
99.1305	0.105	198261	keystroke_e	e	n/a
99.3405	0.105	198681	keystroke_Key.space	Key.space	n/a
99.5655	0.12	199131	keystroke_p	p	n/a
99.7455	0.135	199491	keystroke_a	a	n/a
99.8205	0.135	199641	keystroke_r	r	n/a
100.1055	0.075	200211	keystroke_t	t	n/a
100.2255	0.1205	200451	keystroke_n	n	n/a
100.36	0.15	200720	keystroke_e	e	n/a
100.481	0.045	200962	keystroke_r	r	n/a
100.72	0.106	201440	keystroke_s	s	n/a
100.9	0.12	201800	keystroke_Key.space	Key.space	n/a
101.32	0.105	202640	keystroke_e	e	n/a
101.891	0.105	203782	keystroke_x	x	n/a
102.266	0.075	204532	keystroke_t	t	n/a
102.476	0.134	204952	keystroke_r	r	n/a
102.625	0.121	205250	keystroke_e	e	n/a
102.986	0.12	205972	keystroke_m	m	n/a
103.121	0.104	206242	keystroke_e	e	n/a
103.586	0.014	207172	keystroke_Key.space	Key.space	n/a
103.751	0.135	207502	keystroke_j	j	n/a
103.946	0.165	207892	keystroke_o	o	n/a
104.171	0.165	208342	keystroke_y	y	n/a
105.206	0.105	210412	keystroke_c	c	n/a
105.491	0.089	210982	keystroke_e	e	n/a
105.761	0.09	211522	keystroke_Key.enter	Key.enter	n/a
105.855	10.0915	211710	prompt	n/a	guestbook vessels communication reasons\n
106.766	0.09	213532	keystroke_q	q	n/a
107.291	0.089	214582	keystroke_Key.backspace	Key.backspace	n/a
107.561	0.09	215122	keystroke_g	g	n/a
107.741	0.135	215482	keystroke_u	u	n/a
107.846	0.12	215692	keystroke_e	e	n/a
107.996	0.09	215992	keystroke_s	s	n/a
108.221	0.06	216442	keystroke_t	t	n/a
108.626	0.12	217252	keystroke_b	b	n/a
108.866	0.06	217732	keystroke_o	o	n/a
109.001	0.105	218002	keystroke_o	o	n/a
109.271	0.165	218542	keystroke_k	k	n/a
109.556	0.15	219112	keystroke_Key.space	Key.space	n/a
109.826	0.09	219652	keystroke_v	v	n/a
110.006	0.1345	220012	keystroke_e	e	n/a
110.2305	0.075	220461	keystroke_s	s	n/a
110.4105	0.09	220821	keystroke_s	s	n/a
110.6055	0.105	221211	keystroke_e	e	n/a
110.8905	0.15	221781	keystroke_l	l	n/a
111.0255	0.12	222051	keystroke_s	s	n/a
111.2505	0.12	222501	keystroke_Key.space	Key.space	n/a
111.7155	0.135	223431	keystroke_c	c	n/a
111.8955	0.105	223791	keystroke_o	o	n/a
112.21	0.06	224420	keystroke_m	m	n/a
112.331	0.089	224662	keystroke_m	m	n/a
112.63	0.091	225260	keystroke_u	u	n/a
112.885	0.09	225770	keystroke_n	n	n/a
112.946	0.134	225892	keystroke_i	i	n/a
113.2	0.12	226400	keystroke_c	c	n/a
113.5	0.075	227000	keystroke_a	a	n/a
113.68	0.09	227360	keystroke_t	t	n/a
113.741	0.209	227482	keystroke_i	i	n/a
113.815	0.165	227630	keystroke_o	o	n/a
113.92	0.18	227840	keystroke_n	n	n/a
114.46	0.09	228920	keystroke_Key.space	Key.space	n/a
114.775	0.135	229550	keystroke_r	r	n/a
114.88	0.165	229760	keystroke_e	e	n/a
115.03	0.06	230060	keystroke_a	a	n/a
115.225	0.09	230450	keystroke_s	s	n/a
115.285	0.135	230570	keystroke_o	o	n/a
115.39	0.135	230780	keystroke_n	n	n/a
115.495	0.105	230990	keystroke_s	s	n/a
115.84	0.105	231680	keystroke_Key.enter	Key.enter	n/a
115.95	9.792	231900	prompt	n/a	wide compared forward efficiently\n
116.921	0.089	233842	keystroke_w	w	n/a
117.025	0.12	234050	keystroke_i	i	n/a
117.266	0.104	234532	keystroke_d	d	n/a
117.505	0.105	235010	keystroke_e	e	n/a
117.64	0.105	235280	keystroke_Key.space	Key.space	n/a
118.2105	0.12	236421	keystroke_c	c	n/a
118.3605	0.15	236721	keystroke_o	o	n/a
118.9305	0.135	237861	keystroke_m	m	n/a
119.2305	0.135	238461	keystroke_p	p	n/a
119.3955	0.15	238791	keystroke_a	a	n/a
119.5155	0.165	239031	keystroke_r	r	n/a
120.0705	0.075	240141	keystroke_e	e	n/a
120.325	0.045	240650	keystroke_d	d	n/a
120.445	0.105	240890	keystroke_Key.space	Key.space	n/a
120.67	0.12	241340	keystroke_f	f	n/a
120.82	0.105	241640	keystroke_o	o	n/a
121.555	0.15	243110	keystroke_r	r	n/a
121.915	0.15	243830	keystroke_w	w	n/a
122.035	0.15	244070	keystroke_a	a	n/a
122.2	0.09	244400	keystroke_r	r	n/a
122.515	0.165	245030	keystroke_d	d	n/a
122.695	0.09	245390	keystroke_Key.space	Key.space	n/a
122.92	0.12	245840	keystroke_e	e	n/a
123.175	0.06	246350	keystroke_f	f	n/a
123.355	0.045	246710	keystroke_f	f	n/a
123.415	0.105	246830	keystroke_i	i	n/a
123.775	0.105	247550	keystroke_c	c	n/a
124.24	0.165	248480	keystroke_i	i	n/a
124.42	0.105	248840	keystroke_e	e	n/a
124.54	0.12	249080	keystroke_n	n	n/a
124.69	0.105	249380	keystroke_t	t	n/a
124.87	0.135	249740	keystroke_l	l	n/a
125.2	0.12	250400	keystroke_y	y	n/a
125.635	0.105	251270	keystroke_Key.enter	Key.enter	n/a
125.7465	12.9105	251493	prompt	n/a	corrections science exam rabbit\n
126.79	0.12	253580	keystroke_c	c	n/a
126.925	0.15	253850	keystroke_o	o	n/a
127.225	0.09	254450	keystroke_r	r	n/a
127.39	0.15	254780	keystroke_r	r	n/a
127.66	0.105	255320	keystroke_e	e	n/a
127.96	0.09	255920	keystroke_c	c	n/a
128.305	0.09	256610	keystroke_t	t	n/a
128.44	0.18	256880	keystroke_i	i	n/a
128.53	0.135	257060	keystroke_o	o	n/a
128.605	0.135	257210	keystroke_n	n	n/a
128.725	0.105	257450	keystroke_s	s	n/a
129.295	0.09	258590	keystroke_Key.space	Key.space	n/a
129.64	0.09	259280	keystroke_s	s	n/a
129.88	0.09	259760	keystroke_c	c	n/a
129.985	0.18	259970	keystroke_i	i	n/a
130.18	0.09	260360	keystroke_e	e	n/a
130.33	0.135	260660	keystroke_n	n	n/a
130.495	0.075	260990	keystroke_c	c	n/a
130.81	0.105	261620	keystroke_e	e	n/a
130.945	0.105	261890	keystroke_Key.space	Key.space	n/a
131.29	0.105	262580	keystroke_e	e	n/a
131.635	0.105	263270	keystroke_x	x	n/a
131.935	0.12	263870	keystroke_a	a	n/a
132.07	0.105	264140	keystroke_m	m	n/a
132.22	0.135	264440	keystroke_Key.space	Key.space	n/a
132.58	0.15	265160	keystroke_r	r	n/a
132.715	0.105	265430	keystroke_a	a	n/a
133	0.075	266000	keystroke_b	b	n/a
133.105	0.21	266210	keystroke_i	i	n/a
133.405	0.105	266810	keystroke_t	t	n/a
133.915	0.06	267830	keystroke_Key.backspace	Key.backspace	n/a
134.065	0.075	268130	keystroke_Key.backspace	Key.backspace	n/a
134.485	0.105	268970	keystroke_b	b	n/a
134.635	0.15	269270	keystroke_i	i	n/a
134.815	0.075	269630	keystroke_t	t	n/a
138.598	0.057	277196	keystroke_Key.enter	Key.enter	n/a
138.661	9.821	277322	prompt	n/a	great shops slovakia medieval\n
139.481	0.105	278962	keystroke_g	g	n/a
139.796	0.165	279592	keystroke_r	r	n/a
139.916	0.165	279832	keystroke_e	e	n/a
140.05	0.151	280100	keystroke_a	a	n/a
140.185	0.12	280370	keystroke_t	t	n/a
140.5	0.135	281000	keystroke_Key.space	Key.space	n/a
140.681	0.104	281362	keystroke_s	s	n/a
140.77	0.091	281540	keystroke_h	h	n/a
140.846	0.209	281692	keystroke_o	o	n/a
141.175	0.121	282350	keystroke_p	p	n/a
141.341	0.135	282682	keystroke_s	s	n/a
141.55	0.106	283100	keystroke_Key.space	Key.space	n/a
141.985	0.1055	283970	keystroke_s	s	n/a
142.48	0.121	284960	keystroke_l	l	n/a
142.691	0.119	285382	keystroke_o	o	n/a
142.885	0.09	285770	keystroke_v	v	n/a
143.17	0.075	286340	keystroke_a	a	n/a
143.35	0.106	286700	keystroke_k	k	n/a
143.575	0.105	287150	keystroke_i	i	n/a
143.875	0.12	287750	keystroke_a	a	n/a
144.3105	0.105	288621	keystroke_Key.space	Key.space	n/a
144.6105	0.15	289221	keystroke_m	m	n/a
144.7455	0.075	289491	keystroke_e	e	n/a
145.4045	0.121	290809	keystroke_d	d	n/a
146.0055	0.06	292011	keystroke_e	e	n/a
146.845	0.091	293690	keystroke_Key.backspace	Key.backspace	n/a
147.07	0.105	294140	keystroke_i	i	n/a
147.161	0.105	294322	keystroke_e	e	n/a
147.49	0.105	294980	keystroke_v	v	n/a
147.671	0.105	295342	keystroke_a	a	n/a
147.806	0.165	295612	keystroke_l	l	n/a
148.3445	0.135	296689	keystroke_Key.enter	Key.enter	n/a
148.485	6.5215	296970	prompt	n/a	msgid rosa same lewis\n
149.846	0.105	299692	keystroke_m	m	n/a
149.98	0.1055	299960	keystroke_s	s	n/a
150.236	0.119	300472	keystroke_g	g	n/a
150.55	0.135	301100	keystroke_i	i	n/a
150.716	0.1185	301432	keystroke_d	d	n/a
151.24	0.0745	302480	keystroke_Key.space	Key.space	n/a
151.4505	0.104	302901	keystroke_r	r	n/a
151.5845	0.136	303169	keystroke_o	o	n/a
151.7505	0.15	303501	keystroke_s	s	n/a
152.0505	0.105	304101	keystroke_a	a	n/a
152.3495	0.105	304699	keystroke_Key.space	Key.space	n/a
152.6055	0.104	305211	keystroke_s	s	n/a
152.8445	0.09	305689	keystroke_a	a	n/a
152.9655	0.15	305931	keystroke_m	m	n/a
153.0995	0.091	306199	keystroke_e	e	n/a
153.3405	0.089	306681	keystroke_Key.space	Key.space	n/a
154.0305	0.21	308061	keystroke_l	l	n/a
154.1955	0.149	308391	keystroke_e	e	n/a
154.3295	0.121	308659	keystroke_w	w	n/a
154.5255	0.105	309051	keystroke_i	i	n/a
154.6595	0.091	309319	keystroke_s	s	n/a
154.8995	0.105	309799	keystroke_Key.enter	Key.enter	n/a
155.0095	10.347	310019	prompt	n/a	exercise amanda diagram butts\n
155.9355	0.09	311871	keystroke_e	e	n/a
156.2355	0.105	312471	keystroke_x	x	n/a
156.5355	0.149	313071	keystroke_e	e	n/a
156.6705	0.135	313341	keystroke_r	r	n/a
157.3455	0.09	314691	keystroke_c	c	n/a
157.4655	0.12	314931	keystroke_i	i	n/a
157.6305	0.15	315261	keystroke_s	s	n/a
157.7805	0.12	315561	keystroke_e	e	n/a
158.1105	0.074	316221	keystroke_Key.space	Key.space	n/a
158.9055	0.12	317811	keystroke_a	a	n/a
159.1755	0.12	318351	keystroke_m	m	n/a
159.2805	0.06	318561	keystroke_a	a	n/a
159.6255	0.135	319251	keystroke_n	n	n/a
160.2405	0.105	320481	keystroke_d	d	n/a
160.4355	0.09	320871	keystroke_a	a	n/a
160.7945	0.136	321589	keystroke_Key.space	Key.space	n/a
161.6355	0.135	323271	keystroke_d	d	n/a
161.8305	0.12	323661	keystroke_i	i	n/a
162.0705	0.15	324141	keystroke_a	a	n/a
162.7755	0.09	325551	keystroke_g	g	n/a
163.0455	0.12	326091	keystroke_r	r	n/a
163.1505	0.09	326301	keystroke_a	a	n/a
163.3305	0.105	326661	keystroke_m	m	n/a
163.6155	0.12	327231	keystroke_Key.space	Key.space	n/a
164.1555	0.105	328311	keystroke_b	b	n/a
164.3655	0.12	328731	keystroke_u	u	n/a
164.5305	0.075	329061	keystroke_t	t	n/a
164.6805	0.09	329361	keystroke_t	t	n/a
164.8905	0.105	329781	keystroke_s	s	n/a
165.2505	0.105	330501	keystroke_Key.enter	Key.enter	n/a
165.36	12.148	330720	prompt	n/a	phenomenon wifi catch alabama\n
166.2105	0.12	332421	keystroke_p	p	n/a
166.5705	0.015	333141	keystroke_h	h	n/a
166.6305	0.105	333261	keystroke_e	e	n/a
166.9155	0.105	333831	keystroke_n	n	n/a
167.4705	0.12	334941	keystroke_o	o	n/a
167.7255	0.105	335451	keystroke_m	m	n/a
170.3225	0.028	340645	keystroke_e	e	n/a
170.6055	0.12	341211	keystroke_n	n	n/a
170.7405	0.15	341481	keystroke_o	o	n/a
170.8605	0.105	341721	keystroke_n	n	n/a
171.2055	0.12	342411	keystroke_Key.space	Key.space	n/a
171.4755	0.105	342951	keystroke_w	w	n/a
171.6255	0.105	343251	keystroke_i	i	n/a
171.9705	0.09	343941	keystroke_f	f	n/a
172.0755	0.1195	344151	keystroke_i	i	n/a
172.285	0.09	344570	keystroke_Key.space	Key.space	n/a
172.585	0.075	345170	keystroke_c	c	n/a
172.84	0.105	345680	keystroke_a	a	n/a
173.68	0.075	347360	keystroke_t	t	n/a
174.1	0.1205	348200	keystroke_c	c	n/a
174.2505	0.105	348501	keystroke_h	h	n/a
174.4455	0.135	348891	keystroke_Key.space	Key.space	n/a
175.0005	0.105	350001	keystroke_a	a	n/a
175.2405	0.15	350481	keystroke_l	l	n/a
175.3305	0.105	350661	keystroke_a	a	n/a
175.6005	0.075	351201	keystroke_b	b	n/a
175.7805	0.09	351561	keystroke_a	a	n/a
176.0505	0.149	352101	keystroke_m	m	n/a
176.2295	0.091	352459	keystroke_a	a	n/a
177.3545	0.152	354709	keystroke_Key.enter	Key.enter	n/a
177.512	11.2895	355024	prompt	n/a	tribute anaheim within represents\n
178.69	0.105	357380	keystroke_t	t	n/a
178.915	0.09	357830	keystroke_r	r	n/a
178.99	0.105	357980	keystroke_i	i	n/a
179.305	0.105	358610	keystroke_u	u	n/a
179.77	0.12	359540	keystroke_Key.backspace	Key.backspace	n/a
179.846	0.104	359692	keystroke_b	b	n/a
180.04	0.135	360080	keystroke_u	u	n/a
180.2205	0.135	360441	keystroke_t	t	n/a
180.4155	0.105	360831	keystroke_e	e	n/a
180.5805	0.12	361161	keystroke_Key.space	Key.space	n/a
181.1055	0.15	362211	keystroke_a	a	n/a
181.5405	0.12	363081	keystroke_n	n	n/a
181.7205	0.12	363441	keystroke_a	a	n/a
182.0505	0.15	364101	keystroke_h	h	n/a
182.3655	0.105	364731	keystroke_e	e	n/a
182.5155	0.15	365031	keystroke_i	i	n/a
182.9505	0.09	365901	keystroke_m	m	n/a
183.1755	0.09	366351	keystroke_Key.space	Key.space	n/a
183.3855	0.12	366771	keystroke_w	w	n/a
183.5355	0.135	367071	keystroke_i	i	n/a
183.7005	0.105	367401	keystroke_t	t	n/a
183.7905	0.09	367581	keystroke_h	h	n/a
183.9105	0.15	367821	keystroke_i	i	n/a
184.0455	0.105	368091	keystroke_n	n	n/a
184.4505	0.09	368901	keystroke_Key.space	Key.space	n/a
184.7655	0.15	369531	keystroke_r	r	n/a
184.9005	0.12	369801	keystroke_e	e	n/a
185.1705	0.15	370341	keystroke_p	p	n/a
185.2905	0.165	370581	keystroke_r	r	n/a
185.4555	0.09	370911	keystroke_e	e	n/a
186.0405	0.135	372081	keystroke_s	s	n/a
186.1905	0.135	372381	keystroke_e	e	n/a
186.3705	0.105	372741	keystroke_n	n	n/a
187.3305	0.075	374661	keystroke_t	t	n/a
187.7355	0.12	375471	keystroke_s	s	n/a
188.6955	0.105	377391	keystroke_Key.enter	Key.enter	n/a
188.805	10.3465	377610	prompt	n/a	appearing block members parameter\n
189.7605	0.15	379521	keystroke_a	a	n/a
190.0455	0.06	380091	keystroke_p	p	n/a
190.1955	0.12	380391	keystroke_p	p	n/a
190.8255	0.12	381651	keystroke_e	e	n/a
190.9605	0.12	381921	keystroke_a	a	n/a
191.0355	0.135	382071	keystroke_r	r	n/a
191.3655	0.15	382731	keystroke_i	i	n/a
191.5005	0.15	383001	keystroke_n	n	n/a
191.6055	0.135	383211	keystroke_g	g	n/a
192.0555	0.12	384111	keystroke_Key.space	Key.space	n/a
192.6405	0.105	385281	keystroke_b	b	n/a
192.9105	0.135	385821	keystroke_l	l	n/a
193.1955	0.09	386391	keystroke_o	o	n/a
193.3305	0.135	386661	keystroke_c	c	n/a
193.5405	0.135	387081	keystroke_k	k	n/a
193.7655	0.075	387531	keystroke_Key.space	Key.space	n/a
194.2155	0.105	388431	keystroke_m	m	n/a
194.3355	0.105	388671	keystroke_e	e	n/a
194.4705	0.105	388941	keystroke_m	m	n/a
195.0255	0.105	390051	keystroke_b	b	n/a
195.2955	0.165	390591	keystroke_e	e	n/a
195.4155	0.135	390831	keystroke_r	r	n/a
195.6705	0.12	391341	keystroke_s	s	n/a
195.8655	0.075	391731	keystroke_Key.space	Key.space	n/a
196.2855	0.135	392571	keystroke_p	p	n/a
196.4055	0.195	392811	keystroke_a	a	n/a
196.5855	0.15	393171	keystroke_r	r	n/a
196.7205	0.12	393441	keystroke_a	a	n/a
196.9605	0.12	393921	keystroke_m	m	n/a
197.1105	0.135	394221	keystroke_e	e	n/a
197.4255	0.105	394851	keystroke_t	t	n/a
197.7405	0.165	395481	keystroke_e	e	n/a
197.8755	0.12	395751	keystroke_r	r	n/a
199.0305	0.12	398061	keystroke_Key.enter	Key.enter	n/a
199.1575	11.4545	398315	prompt	n/a	girlfriend products picks rosa\n
200.125	0.12	400250	keystroke_f	f	n/a
200.32	0.12	400640	keystroke_i	i	n/a
200.455	0.09	400910	keystroke_r	r	n/a
200.665	0.15	401330	keystroke_l	l	n/a
201.265	0.045	402530	keystroke_Key.backspace	Key.backspace	n/a
201.46	0.075	402920	keystroke_Key.backspace	Key.backspace	n/a
201.61	0.09	403220	keystroke_Key.backspace	Key.backspace	n/a
201.715	0.105	403430	keystroke_Key.backspace	Key.backspace	n/a
202.5705	0.1045	405141	keystroke_g	g	n/a
202.75	0.105	405500	keystroke_i	i	n/a
202.885	0.075	405770	keystroke_r	r	n/a
203.02	0.135	406040	keystroke_l	l	n/a
203.29	0.12	406580	keystroke_f	f	n/a
203.44	0.135	406880	keystroke_i	i	n/a
203.83	0.135	407660	keystroke_r	r	n/a
204.4305	0.075	408861	keystroke_Key.backspace	Key.backspace	n/a
204.5655	0.105	409131	keystroke_Key.backspace	Key.backspace	n/a
204.6855	0.105	409371	keystroke_r	r	n/a
204.8205	0.105	409641	keystroke_i	i	n/a
204.9105	0.09	409821	keystroke_e	e	n/a
205.0455	0.105	410091	keystroke_n	n	n/a
205.2855	0.105	410571	keystroke_d	d	n/a
205.7655	0.12	411531	keystroke_Key.space	Key.space	n/a
206.0055	0.135	412011	keystroke_p	p	n/a
206.1705	0.105	412341	keystroke_r	r	n/a
206.2605	0.135	412521	keystroke_o	o	n/a
206.5455	0.12	413091	keystroke_d	d	n/a
206.7255	0.105	413451	keystroke_u	u	n/a
206.8455	0.12	413691	keystroke_c	c	n/a
207.2505	0.135	414501	keystroke_t	t	n/a
207.5355	0.135	415071	keystroke_s	s	n/a
207.6855	0.12	415371	keystroke_Key.space	Key.space	n/a
208.0005	0.12	416001	keystroke_p	p	n/a
208.21	0.12	416420	keystroke_i	i	n/a
208.375	0.135	416750	keystroke_c	c	n/a
208.54	0.1205	417080	keystroke_k	k	n/a
208.705	0.1055	417410	keystroke_s	s	n/a
208.855	0.105	417710	keystroke_Key.space	Key.space	n/a
209.14	0.09	418280	keystroke_r	r	n/a
209.275	0.09	418550	keystroke_o	o	n/a
209.62	0.135	419240	keystroke_s	s	n/a
209.785	0.135	419570	keystroke_a	a	n/a
210.4895	0.12	420979	keystroke_Key.enter	Key.enter	n/a
210.6145	16.2575	421229	prompt	n/a	don't postcard hats junction\n
214.4225	0.043	428845	keystroke_d	d	n/a
214.4655	0.165	428931	keystroke_o	o	n/a
214.6005	0.1955	429201	keystroke_n	n	n/a
214.7355	0.135	429471	keystroke_'	'	n/a
214.9005	0.09	429801	keystroke_t	t	n/a
215.1705	0.12	430341	keystroke_Key.space	Key.space	n/a
215.5755	0.105	431151	keystroke_p	p	n/a
215.7255	0.195	431451	keystroke_o	o	n/a
215.8455	0.135	431691	keystroke_s	s	n/a
216.1755	0.135	432351	keystroke_t	t	n/a
217.0605	0.12	434121	keystroke_c	c	n/a
217.3755	0.18	434751	keystroke_a	a	n/a
217.5405	0.12	435081	keystroke_r	r	n/a
217.9155	0.075	435831	keystroke_d	d	n/a
218.1105	0.09	436221	keystroke_Key.space	Key.space	n/a
218.4855	0.165	436971	keystroke_h	h	n/a
218.5905	0.135	437181	keystroke_a	a	n/a
219.0405	0.075	438081	keystroke_t	t	n/a
219.3405	0.09	438681	keystroke_s	s	n/a
219.5355	0.105	439071	keystroke_Key.space	Key.space	n/a
220.0305	0.105	440061	keystroke_j	j	n/a
220.2855	0.075	440571	keystroke_u	u	n/a
220.5105	0.09	441021	keystroke_n	n	n/a
220.6905	0.12	441381	keystroke_c	c	n/a
220.8555	0.105	441711	keystroke_i	i	n/a
221.5305	0.105	443061	keystroke_Key.backspace	Key.backspace	n/a
221.7855	0.09	443571	keystroke_t	t	n/a
221.8755	0.225	443751	keystroke_i	i	n/a
221.9805	0.15	443961	keystroke_o	o	n/a
222.0705	0.18	444141	keystroke_n	n	n/a
226.7675	0.103	453535	keystroke_Key.enter	Key.enter	n/a
226.8755	15.3565	453751	prompt	n/a	expertise editing australia refused\n
227.6505	0.105	455301	keystroke_e	e	n/a
228.3105	0.12	456621	keystroke_x	x	n/a
228.4005	0.105	456801	keystroke_p	p	n/a
228.8505	0.195	457701	keystroke_e	e	n/a
229.0155	0.15	458031	keystroke_r	r	n/a
229.7955	0.105	459591	keystroke_t	t	n/a
230.0055	0.12	460011	keystroke_i	i	n/a
230.4705	0.135	460941	keystroke_s	s	n/a
230.8755	0.105	461751	keystroke_e	e	n/a
231.3105	0.12	462621	keystroke_Key.space	Key.space	n/a
231.6705	0.105	463341	keystroke_e	e	n/a
231.9405	0.12	463881	keystroke_d	d	n/a
232.0905	0.1345	464181	keystroke_i	i	n/a
232.661	0.104	465322	keystroke_t	t	n/a
232.766	0.105	465532	keystroke_i	i	n/a
232.84	0.165	465680	keystroke_n	n	n/a
232.975	0.075	465950	keystroke_g	g	n/a
233.275	0.12	466550	keystroke_Key.space	Key.space	n/a
233.86	0.135	467720	keystroke_a	a	n/a
234.01	0.12	468020	keystroke_u	u	n/a
234.175	0.12	468350	keystroke_s	s	n/a
234.475	0.09	468950	keystroke_t	t	n/a
234.715	0.06	469430	keystroke_r	r	n/a
234.776	0.089	469552	keystroke_i	i	n/a
235.48	0.105	470960	keystroke_Key.backspace	Key.backspace	n/a
235.705	0.135	471410	keystroke_a	a	n/a
235.945	0.15	471890	keystroke_l	l	n/a
236.215	0.135	472430	keystroke_i	i	n/a
236.38	0.12	472760	keystroke_a	a	n/a
236.725	0.135	473450	keystroke_Key.space	Key.space	n/a
237.535	0.15	475070	keystroke_r	r	n/a
237.715	0.105	475430	keystroke_e	e	n/a
238.435	0.091	476870	keystroke_f	f	n/a
238.706	0.134	477412	keystroke_u	u	n/a
239.111	0.089	478222	keystroke_s	s	n/a
239.395	0.105	478790	keystroke_e	e	n/a
239.696	0.165	479392	keystroke_d	d	n/a
242.1575	0.073	484315	keystroke_Key.enter	Key.enter	n/a
242.236	12.521	484472	prompt	n/a	hyundai victims political pure\n
243.2055	0.12	486411	keystroke_h	h	n/a
243.5355	0.06	487071	keystroke_u	u	n/a
244.2105	0.12	488421	keystroke_Key.backspace	Key.backspace	n/a
244.4355	0.135	488871	keystroke_y	y	n/a
244.7955	0.12	489591	keystroke_u	u	n/a
245.0955	0.15	490191	keystroke_n	n	n/a
245.7255	0.135	491451	keystroke_d	d	n/a
245.9355	0.09	491871	keystroke_a	a	n/a
246.0705	0.12	492141	keystroke_i	i	n/a
246.4755	0.135	492951	keystroke_Key.space	Key.space	n/a
246.7605	0.135	493521	keystroke_v	v	n/a
246.9855	0.105	493971	keystroke_i	i	n/a
247.2555	0.105	494511	keystroke_c	c	n/a
247.6455	0.09	495291	keystroke_t	t	n/a
247.7805	0.105	495561	keystroke_i	i	n/a
247.9455	0.15	495891	keystroke_m	m	n/a
248.3505	0.015	496701	keystroke_s	s	n/a
248.6655	0.105	497331	keystroke_Key.space	Key.space	n/a
249.0855	0.135	498171	keystroke_p	p	n/a
249.3555	0.105	498711	keystroke_o	o	n/a
249.6105	0.15	499221	keystroke_l	l	n/a
249.8955	0.21	499791	keystroke_i	i	n/a
250.1505	0.15	500301	keystroke_t	t	n/a
250.3155	0.12	500631	keystroke_i	i	n/a
250.7055	0.09	501411	keystroke_c	c	n/a
250.9455	0.09	501891	keystroke_a	a	n/a
251.0505	0.135	502101	keystroke_l	l	n/a
251.2155	0.135	502431	keystroke_Key.space	Key.space	n/a
251.5605	0.12	503121	keystroke_p	p	n/a
251.8455	0.12	503691	keystroke_u	u	n/a
252.0555	0.15	504111	keystroke_r	r	n/a
252.0705	0.06	504141	keystroke_f	f	n/a
252.1605	0.15	504321	keystroke_e	e	n/a
252.9105	0.075	505821	keystroke_Key.backspace	Key.backspace	n/a
253.0755	0.09	506151	keystroke_Key.backspace	Key.backspace	n/a
253.2705	0.12	506541	keystroke_e	e	n/a
254.6355	0.12	509271	keystroke_Key.enter	Key.enter	n/a
254.76	9.207	509520	prompt	n/a	developing interface hidden devon\n
255.5805	0.105	511161	keystroke_d	d	n/a
255.7905	0.105	511581	keystroke_e	e	n/a
256.0455	0.135	512091	keystroke_v	v	n/a
256.1655	0.12	512331	keystroke_e	e	n/a
256.2555	0.105	512511	keystroke_l	l	n/a
256.4655	0.135	512931	keystroke_o	o	n/a
256.6005	0.12	513201	keystroke_p	p	n/a
256.7955	0.15	513591	keystroke_i	i	n/a
256.9305	0.135	513861	keystroke_n	n	n/a
257.0655	0.09	514131	keystroke_g	g	n/a
257.1105	0.06	514221	keystroke_t	t	n/a
257.2455	0.105	514491	keystroke_Key.space	Key.space	n/a
257.9055	0.09	515811	keystroke_Key.backspace	Key.backspace	n/a
258.1455	0.075	516291	keystroke_Key.backspace	Key.backspace	n/a
258.4905	0.12	516981	keystroke_Key.space	Key.space	n/a
259.0155	0.195	518031	keystroke_i	i	n/a
259.1355	0.195	518271	keystroke_n	n	n/a
259.3305	0.135	518661	keystroke_t	t	n/a
259.5555	0.165	519111	keystroke_e	e	n/a
259.6605	0.105	519321	keystroke_r	r	n/a
260.0205	0.1045	520041	keystroke_f	f	n/a
260.395	0.045	520790	keystroke_a	a	n/a
260.755	0.09	521510	keystroke_c	c	n/a
261.025	0.105	522050	keystroke_e	e	n/a
261.145	0.105	522290	keystroke_Key.space	Key.space	n/a
261.325	0.135	522650	keystroke_h	h	n/a
261.43	0.136	522860	keystroke_i	i	n/a
261.6555	0.075	523311	keystroke_d	d	n/a
261.8205	0.09	523641	keystroke_d	d	n/a
262.0605	0.09	524121	keystroke_e	e	n/a
262.1655	0.09	524331	keystroke_n	n	n/a
262.3755	0.09	524751	keystroke_Key.space	Key.space	n/a
262.5405	0.1045	525081	keystroke_d	d	n/a
262.7955	0.1045	525591	keystroke_e	e	n/a
263.0355	0.135	526071	keystroke_v	v	n/a
263.32	0.1505	526640	keystroke_o	o	n/a
263.4705	0.12	526941	keystroke_n	n	n/a
263.86	0.105	527720	keystroke_Key.enter	Key.enter	n/a
263.972	9.31	527944	prompt	n/a	complexity peripherals actions cult\n
264.9705	0.12	529941	keystroke_c	c	n/a
265.0905	0.105	530181	keystroke_o	o	n/a
265.3005	0.105	530601	keystroke_m	m	n/a
265.5105	0.075	531021	keystroke_p	p	n/a
265.7205	0.15	531441	keystroke_l	l	n/a
265.8405	0.09	531681	keystroke_e	e	n/a
266.1855	0.12	532371	keystroke_x	x	n/a
266.3205	0.12	532641	keystroke_i	i	n/a
266.5755	0.105	533151	keystroke_t	t	n/a
266.7705	0.135	533541	keystroke_y	y	n/a
267.1155	0.09	534231	keystroke_Key.space	Key.space	n/a
267.4755	0.15	534951	keystroke_p	p	n/a
267.7155	0.18	535431	keystroke_e	e	n/a
267.8505	0.15	535701	keystroke_r	r	n/a
267.9855	0.105	535971	keystroke_i	i	n/a
268.3455	0.09	536691	keystroke_p	p	n/a
268.5405	0.135	537081	keystroke_h	h	n/a
268.6905	0.165	537381	keystroke_e	e	n/a
268.8105	0.165	537621	keystroke_r	r	n/a
269.0205	0.09	538041	keystroke_a	a	n/a
269.2305	0.12	538461	keystroke_l	l	n/a
269.4555	0.105	538911	keystroke_s	s	n/a
269.6955	0.12	539391	keystroke_Key.space	Key.space	n/a
270.1305	0.1045	540261	keystroke_a	a	n/a
270.4455	0.1345	540891	keystroke_c	c	n/a
270.835	0.105	541670	keystroke_t	t	n/a
270.955	0.18	541910	keystroke_i	i	n/a
271.0455	0.1045	542091	keystroke_o	o	n/a
271.0905	0.15	542181	keystroke_n	n	n/a
271.27	0.105	542540	keystroke_s	s	n/a
271.795	0.1055	543590	keystroke_Key.space	Key.space	n/a
272.02	0.15	544040	keystroke_c	c	n/a
272.155	0.09	544310	keystroke_u	u	n/a
272.425	0.135	544850	keystroke_l	l	n/a
272.62	0.09	545240	keystroke_t	t	n/a
273.175	0.105	546350	keystroke_Key.enter	Key.enter	n/a
273.285	10.902	546570	prompt	n/a	relate glossary bracelets acknowledged\n
274.24	0.165	548480	keystroke_r	r	n/a
274.45	0.105	548900	keystroke_e	e	n/a
274.645	0.15	549290	keystroke_l	l	n/a
274.825	0.165	549650	keystroke_a	a	n/a
274.96	0.135	549920	keystroke_t	t	n/a
275.14	0.105	550280	keystroke_e	e	n/a
275.305	0.09	550610	keystroke_Key.space	Key.space	n/a
275.89	0.09	551780	keystroke_g	g	n/a
276.07	0.12	552140	keystroke_l	l	n/a
276.295	0.105	552590	keystroke_o	o	n/a
276.43	0.075	552860	keystroke_s	s	n/a
276.61	0.09	553220	keystroke_s	s	n/a
276.85	0.12	553700	keystroke_a	a	n/a
276.985	0.12	553970	keystroke_r	r	n/a
277.195	0.105	554390	keystroke_y	y	n/a
277.705	0.105	555410	keystroke_Key.space	Key.space	n/a
278.005	0.06	556010	keystroke_b	b	n/a
278.425	0.06	556850	keystroke_r	r	n/a
278.455	0.12	556910	keystroke_a	a	n/a
278.8905	0.09	557781	keystroke_c	c	n/a
279.1605	0.09	558321	keystroke_e	e	n/a
279.3105	0.165	558621	keystroke_l	l	n/a
279.4305	0.09	558861	keystroke_e	e	n/a
279.9705	0.075	559941	keystroke_t	t	n/a
280.2255	0.09	560451	keystroke_s	s	n/a
280.4505	0.105	560901	keystroke_Key.space	Key.space	n/a
280.7055	0.09	561411	keystroke_a	a	n/a
281.0205	0.12	562041	keystroke_c	c	n/a
281.2455	0.12	562491	keystroke_k	k	n/a
281.4405	0.105	562881	keystroke_n	n	n/a
281.6205	0.135	563241	keystroke_o	o	n/a
281.8005	0.12	563601	keystroke_w	w	n/a
282.0105	0.195	564021	keystroke_l	l	n/a
282.1455	0.12	564291	keystroke_e	e	n/a
282.4305	0.105	564861	keystroke_d	d	n/a
282.8355	0.075	565671	keystroke_g	g	n/a
283.0155	0.09	566031	keystroke_e	e	n/a
283.3455	0.09	566691	keystroke_d	d	n/a
284.0955	0.09	568191	keystroke_Key.enter	Key.enter	n/a
284.19	8.2315	568380	prompt	n/a	client deeper traffic economics\n
285.0405	0.105	570081	keystroke_c	c	n/a
285.3855	0.015	570771	keystroke_l	l	n/a
285.4905	0.12	570981	keystroke_i	i	n/a
285.5805	0.12	571161	keystroke_e	e	n/a
285.7305	0.09	571461	keystroke_n	n	n/a
285.8355	0.12	571671	keystroke_t	t	n/a
286.0155	0.045	572031	keystroke_Key.space	Key.space	n/a
286.2705	0.105	572541	keystroke_d	d	n/a
286.5255	0.075	573051	keystroke_e	e	n/a
286.6755	0.105	573351	keystroke_e	e	n/a
286.8405	0.135	573681	keystroke_p	p	n/a
287.2005	0.18	574401	keystroke_e	e	n/a
287.3355	0.12	574671	keystroke_r	r	n/a
287.4855	0.105	574971	keystroke_Key.space	Key.space	n/a
287.8305	0.12	575661	keystroke_t	t	n/a
288.0555	0.165	576111	keystroke_r	r	n/a
288.1755	0.09	576351	keystroke_a	a	n/a
288.4605	0.06	576921	keystroke_f	f	n/a
288.6255	0.045	577251	keystroke_f	f	n/a
288.6715	0.119	577343	keystroke_i	i	n/a
288.8955	0.12	577791	keystroke_c	c	n/a
289.4955	0.09	578991	keystroke_Key.space	Key.space	n/a
289.7505	0.075	579501	keystroke_e	e	n/a
290.0955	0.105	580191	keystroke_c	c	n/a
290.2305	0.135	580461	keystroke_o	o	n/a
290.3505	0.165	580701	keystroke_n	n	n/a
290.4855	0.12	580971	keystroke_o	o	n/a
290.9505	0.09	581901	keystroke_m	m	n/a
291.2355	0.135	582471	keystroke_i	i	n/a
291.4305	0.12	582861	keystroke_c	c	n/a
291.7455	0.105	583491	keystroke_s	s	n/a
292.2705	0.15	584541	keystroke_Key.enter	Key.enter	n/a
292.4245	7.9925	584849	prompt	n/a	offense allowed annotation bearing\n
293.2305	0.18	586461	keystroke_o	o	n/a
293.3505	0.03	586701	keystroke_f	f	n/a
293.5005	0.075	587001	keystroke_f	f	n/a
293.6055	0.12	587211	keystroke_e	e	n/a
293.8155	0.09	587631	keystroke_n	n	n/a
294.1755	0.105	588351	keystroke_s	s	n/a
294.4155	0.105	588831	keystroke_e	e	n/a
295.0605	0.12	590121	keystroke_Key.space	Key.space	n/a
295.3005	0.135	590601	keystroke_a	a	n/a
295.4805	0.09	590961	keystroke_l	l	n/a
295.6155	0.12	591231	keystroke_l	l	n/a
295.8405	0.135	591681	keystroke_o	o	n/a
295.9455	0.15	591891	keystroke_w	w	n/a
296.1105	0.12	592221	keystroke_e	e	n/a
296.3805	0.12	592761	keystroke_d	d	n/a
296.5605	0.09	593121	keystroke_Key.space	Key.space	n/a
296.9355	0.105	593871	keystroke_a	a	n/a
297.0705	0.06	594141	keystroke_n	n	n/a
297.2055	0.09	594411	keystroke_n	n	n/a
297.3555	0.195	594711	keystroke_o	o	n/a
297.6705	0.105	595341	keystroke_t	t	n/a
297.8205	0.12	595641	keystroke_a	a	n/a
297.9705	0.12	595941	keystroke_t	t	n/a
298.1055	0.18	596211	keystroke_i	i	n/a
298.1655	0.15	596331	keystroke_o	o	n/a
298.2405	0.135	596481	keystroke_n	n	n/a
298.6305	0.135	597261	keystroke_Key.space	Key.space	n/a
298.9305	0.075	597861	keystroke_b	b	n/a
299.1705	0.15	598341	keystroke_e	e	n/a
299.3955	0.12	598791	keystroke_a	a	n/a
299.5005	0.12	599001	keystroke_r	r	n/a
299.6955	0.165	599391	keystroke_i	i	n/a
299.8155	0.15	599631	keystroke_n	n	n/a
299.9055	0.105	599811	keystroke_g	g	n/a
300.2955	0.12	600591	keystroke_Key.enter	Key.enter	n/a
300.42	9.162	600840	prompt	n/a	shareware compounds natural mind\n
301.4505	0.105	602901	keystroke_s	s	n/a
301.6005	0.165	603201	keystroke_h	h	n/a
301.7355	0.105	603471	keystroke_a	a	n/a
301.7955	0.15	603591	keystroke_r	r	n/a
301.9305	0.105	603861	keystroke_e	e	n/a
302.725	0.1805	605450	keystroke_w	w	n/a
302.8905	0.15	605781	keystroke_a	a	n/a
302.9955	0.165	605991	keystroke_r	r	n/a
303.1905	0.135	606381	keystroke_e	e	n/a
303.5205	0.075	607041	keystroke_Key.space	Key.space	n/a
304.135	0.09	608270	keystroke_c	c	n/a
304.27	0.1355	608540	keystroke_o	o	n/a
304.5405	0.09	609081	keystroke_m	m	n/a
304.7805	0.1645	609561	keystroke_p	p	n/a
304.9465	0.1035	609893	keystroke_u	u	n/a
305.65	0.06	611300	keystroke_Key.backspace	Key.backspace	n/a
305.86	0.1805	611720	keystroke_o	o	n/a
306.01	0.12	612020	keystroke_u	u	n/a
306.2655	0.1195	612531	keystroke_n	n	n/a
306.3705	0.105	612741	keystroke_d	d	n/a
306.6255	0.09	613251	keystroke_s	s	n/a
306.88	0.105	613760	keystroke_Key.space	Key.space	n/a
307.165	0.1355	614330	keystroke_n	n	n/a
307.301	0.134	614602	keystroke_a	a	n/a
307.4805	0.09	614961	keystroke_t	t	n/a
307.6305	0.1795	615261	keystroke_u	u	n/a
307.795	0.135	615590	keystroke_r	r	n/a
307.9005	0.1195	615801	keystroke_a	a	n/a
308.065	0.12	616130	keystroke_l	l	n/a
308.245	0.105	616490	keystroke_Key.space	Key.space	n/a
308.62	0.105	617240	keystroke_m	m	n/a
308.845	0.15	617690	keystroke_i	i	n/a
308.965	0.121	617930	keystroke_n	n	n/a
309.145	0.12	618290	keystroke_d	d	n/a
309.475	0.105	618950	keystroke_Key.enter	Key.enter	n/a
309.5865	7.4505	619173	prompt	n/a	housewives peer generation twist\n
310.316	0.104	620632	keystroke_h	h	n/a
310.45	0.225	620900	keystroke_o	o	n/a
310.57	0.21	621140	keystroke_u	u	n/a
310.765	0.15	621530	keystroke_s	s	n/a
310.93	0.135	621860	keystroke_e	e	n/a
311.515	0.105	623030	keystroke_w	w	n/a
311.635	0.135	623270	keystroke_i	i	n/a
312.19	0.091	624380	keystroke_v	v	n/a
312.416	0.164	624832	keystroke_e	e	n/a
312.61	0.135	625220	keystroke_s	s	n/a
312.775	0.075	625550	keystroke_Key.space	Key.space	n/a
313.015	0.105	626030	keystroke_p	p	n/a
313.21	0.075	626420	keystroke_e	e	n/a
313.39	0.15	626780	keystroke_e	e	n/a
313.525	0.12	627050	keystroke_r	r	n/a
313.69	0.09	627380	keystroke_Key.space	Key.space	n/a
314.23	0.06	628460	keystroke_g	g	n/a
314.41	0.12	628820	keystroke_e	e	n/a
314.56	0.121	629120	keystroke_n	n	n/a
314.681	0.119	629362	keystroke_e	e	n/a
314.756	0.15	629512	keystroke_r	r	n/a
314.92	0.135	629840	keystroke_a	a	n/a
315.116	0.09	630232	keystroke_t	t	n/a
315.19	0.18	630380	keystroke_i	i	n/a
315.281	0.165	630562	keystroke_o	o	n/a
315.325	0.135	630650	keystroke_n	n	n/a
315.49	0.135	630980	keystroke_Key.space	Key.space	n/a
315.73	0.106	631460	keystroke_t	t	n/a
315.85	0.106	631700	keystroke_w	w	n/a
315.97	0.165	631940	keystroke_i	i	n/a
316.27	0.105	632540	keystroke_s	s	n/a
316.585	0.121	633170	keystroke_t	t	n/a
316.915	0.12	633830	keystroke_Key.enter	Key.enter	n/a
317.0395	8.2025	634079	prompt	n/a	anime enjoy secrets relying\n
317.876	0.135	635752	keystroke_a	a	n/a
318.025	0.076	636050	keystroke_n	n	n/a
318.19	0.12	636380	keystroke_i	i	n/a
318.401	0.119	636802	keystroke_m	m	n/a
318.535	0.09	637070	keystroke_e	e	n/a
318.7	0.09	637400	keystroke_Key.space	Key.space	n/a
319.09	0.121	638180	keystroke_e	e	n/a
319.255	0.09	638510	keystroke_n	n	n/a
319.511	0.089	639022	keystroke_j	j	n/a
319.75	0.21	639500	keystroke_o	o	n/a
319.946	0.135	639892	keystroke_y	y	n/a
320.846	0.105	641692	keystroke_Key.space	Key.space	n/a
321.296	0.1345	642592	keystroke_s	s	n/a
321.446	0.1195	642892	keystroke_e	e	n/a
321.836	0.0895	643672	keystroke_c	c	n/a
322.21	0.1655	644420	keystroke_r	r	n/a
322.36	0.15	644720	keystroke_e	e	n/a
322.8705	0.0895	645741	keystroke_t	t	n/a
323.125	0.15	646250	keystroke_s	s	n/a
323.335	0.105	646670	keystroke_Key.space	Key.space	n/a
323.575	0.15	647150	keystroke_r	r	n/a
323.71	0.15	647420	keystroke_e	e	n/a
323.89	0.165	647780	keystroke_l	l	n/a
324.206	0.12	648412	keystroke_y	y	n/a
324.416	0.1795	648832	keystroke_i	i	n/a
324.566	0.1645	649132	keystroke_n	n	n/a
324.7005	0.105	649401	keystroke_g	g	n/a
325.1355	0.105	650271	keystroke_Key.enter	Key.enter	n/a
325.2475	9.9995	650495	prompt	n/a	blogging gasoline booking disclaimer\n
326.216	0.105	652432	keystroke_b	b	n/a
326.47	0.106	652940	keystroke_l	l	n/a
326.681	0.135	653362	keystroke_o	o	n/a
326.921	0.075	653842	keystroke_g	g	n/a
327.086	0.09	654172	keystroke_g	g	n/a
327.146	0.18	654292	keystroke_i	i	n/a
327.296	0.12	654592	keystroke_n	n	n/a
327.521	0.09	655042	keystroke_d	d	n/a
328.031	0.105	656062	keystroke_Key.backspace	Key.backspace	n/a
328.195	0.135	656390	keystroke_g	g	n/a
328.435	0.09	656870	keystroke_Key.space	Key.space	n/a
328.8705	0.09	657741	keystroke_s	s	n/a
329.2905	0.105	658581	keystroke_Key.backspace	Key.backspace	n/a
329.3505	0.165	658701	keystroke_g	g	n/a
329.5305	0.045	659061	keystroke_a	a	n/a
329.7105	0.105	659421	keystroke_s	s	n/a
329.9205	0.09	659841	keystroke_o	o	n/a
330.1455	0.1345	660291	keystroke_l	l	n/a
330.355	0.18	660710	keystroke_i	i	n/a
330.476	0.134	660952	keystroke_n	n	n/a
330.565	0.135	661130	keystroke_e	e	n/a
330.805	0.09	661610	keystroke_Key.space	Key.space	n/a
331.36	0.12	662720	keystroke_b	b	n/a
331.6	0.076	663200	keystroke_o	o	n/a
331.75	0.135	663500	keystroke_o	o	n/a
332.035	0.165	664070	keystroke_k	k	n/a
332.305	0.21	664610	keystroke_i	i	n/a
332.47	0.136	664940	keystroke_n	n	n/a
332.59	0.12	665180	keystroke_g	g	n/a
332.725	0.075	665450	keystroke_Key.space	Key.space	n/a
333.265	0.075	666530	keystroke_d	d	n/a
333.37	0.105	666740	keystroke_i	i	n/a
333.49	0.075	666980	keystroke_s	s	n/a
333.76	0.12	667520	keystroke_c	c	n/a
333.955	0.165	667910	keystroke_l	l	n/a
334.18	0.06	668360	keystroke_a	a	n/a
334.3	0.105	668600	keystroke_i	i	n/a
334.525	0.135	669050	keystroke_m	m	n/a
334.645	0.105	669290	keystroke_e	e	n/a
334.705	0.18	669410	keystroke_r	r	n/a
335.095	0.15	670190	keystroke_Key.enter	Key.enter	n/a
335.25	10.6465	670500	prompt	n/a	shift subjects furnishings threaded\n
336.0095	0.135	672019	keystroke_s	s	n/a
336.1595	0.135	672319	keystroke_h	h	n/a
336.3095	0.1805	672619	keystroke_i	i	n/a
336.595	0.1045	673190	keystroke_f	f	n/a
336.9245	0.06	673849	keystroke_t	t	n/a
336.9995	0.09	673999	keystroke_Key.space	Key.space	n/a
337.495	0.105	674990	keystroke_s	s	n/a
337.6455	0.1345	675291	keystroke_u	u	n/a
337.8405	0.0745	675681	keystroke_b	b	n/a
338.0505	0.105	676101	keystroke_j	j	n/a
338.6505	0.075	677301	keystroke_e	e	n/a
338.9205	0.12	677841	keystroke_c	c	n/a
339.325	0.12	678650	keystroke_t	t	n/a
339.6555	0.105	679311	keystroke_s	s	n/a
339.9855	0.075	679971	keystroke_Key.space	Key.space	n/a
340.2705	0.0895	680541	keystroke_f	f	n/a
340.435	0.105	680870	keystroke_u	u	n/a
340.57	0.06	681140	keystroke_r	r	n/a
340.7355	0.105	681471	keystroke_n	n	n/a
340.96	0.135	681920	keystroke_i	i	n/a
341.065	0.12	682130	keystroke_s	s	n/a
341.17	0.12	682340	keystroke_h	h	n/a
341.305	0.12	682610	keystroke_i	i	n/a
341.425	0.15	682850	keystroke_n	n	n/a
341.53	0.09	683060	keystroke_g	g	n/a
341.755	0.105	683510	keystroke_s	s	n/a
341.995	0.045	683990	keystroke_Key.space	Key.space	n/a
342.43	0.045	684860	keystroke_t	t	n/a
342.505	0.15	685010	keystroke_h	h	n/a
342.7	0.18	685400	keystroke_r	r	n/a
342.73	0.03	685460	keystroke_h	h	n/a
342.85	0.18	685700	keystroke_e	e	n/a
343.045	0.09	686090	keystroke_a	a	n/a
343.75	0.015	687500	keystroke_Key.backspace	Key.backspace	n/a
343.855	0.105	687710	keystroke_Key.backspace	Key.backspace	n/a
344.2	0.135	688400	keystroke_Key.backspace	Key.backspace	n/a
344.425	0.15	688850	keystroke_e	e	n/a
344.56	0.09	689120	keystroke_a	a	n/a
344.86	0.105	689720	keystroke_d	d	n/a
345.1	0.075	690200	keystroke_e	e	n/a
345.34	0.12	690680	keystroke_d	d	n/a
345.82	0.075	691640	keystroke_Key.enter	Key.enter	n/a
345.9	12.1915	691800	prompt	n/a	trunk country pride pharmaceuticals\n
346.81	0.09	693620	keystroke_t	t	n/a
347.02	0.105	694040	keystroke_r	r	n/a
347.215	0.09	694430	keystroke_u	u	n/a
347.47	0.165	694940	keystroke_n	n	n/a
347.62	0.105	695240	keystroke_k	k	n/a
347.89	0.075	695780	keystroke_Key.space	Key.space	n/a
348.175	0.165	696350	keystroke_c	c	n/a
348.355	0.195	696710	keystroke_o	o	n/a
348.475	0.135	696950	keystroke_u	u	n/a
348.76	0.105	697520	keystroke_n	n	n/a
348.88	0.09	697760	keystroke_t	t	n/a
349.2405	0.1045	698481	keystroke_y	y	n/a
349.675	0.135	699350	keystroke_Key.backspace	Key.backspace	n/a
350.3805	0.105	700761	keystroke_r	r	n/a
350.6045	0.18	701209	keystroke_y	y	n/a
350.7245	0.15	701449	keystroke_Key.space	Key.space	n/a
351.5945	0.136	703189	keystroke_p	p	n/a
351.7445	0.09	703489	keystroke_r	r	n/a
351.8505	0.119	703701	keystroke_i	i	n/a
352.165	0.09	704330	keystroke_d	d	n/a
352.39	0.105	704780	keystroke_e	e	n/a
352.525	0.12	705050	keystroke_Key.space	Key.space	n/a
352.69	0.15	705380	keystroke_p	p	n/a
353.095	0.165	706190	keystroke_h	h	n/a
353.29	0.12	706580	keystroke_a	a	n/a
353.395	0.09	706790	keystroke_r	r	n/a
353.665	0.105	707330	keystroke_a	a	n/a
354.175	0.06	708350	keystroke_Key.backspace	Key.backspace	n/a
354.355	0.135	708710	keystroke_m	m	n/a
354.535	0.075	709070	keystroke_a	a	n/a
354.91	0.15	709820	keystroke_c	c	n/a
355.54	0.105	711080	keystroke_e	e	n/a
355.765	0.09	711530	keystroke_u	u	n/a
356.185	0.12	712370	keystroke_t	t	n/a
356.395	0.105	712790	keystroke_i	i	n/a
356.65	0.105	713300	keystroke_c	c	n/a
356.98	0.06	713960	keystroke_a	a	n/a
357.085	0.1195	714170	keystroke_l	l	n/a
357.325	0.0895	714650	keystroke_s	s	n/a
357.895	0.1945	715790	keystroke_Key.enter	Key.enter	n/a
358.095	12.3115	716190	prompt	n/a	licensed changed brunswick robust\n
358.945	0.135	717890	keystroke_l	l	n/a
359.125	0.18	718250	keystroke_i	i	n/a
359.335	0.045	718670	keystroke_i	i	n/a
359.395	0.105	718790	keystroke_c	c	n/a
359.665	0.09	719330	keystroke_e	e	n/a
359.8	0.135	719600	keystroke_n	n	n/a
359.965	0.15	719930	keystroke_s	s	n/a
360.4755	0.09	720951	keystroke_Key.backspace	Key.backspace	n/a
360.6855	0.075	721371	keystroke_Key.backspace	Key.backspace	n/a
360.8805	0.045	721761	keystroke_Key.backspace	Key.backspace	n/a
361.0455	0.045	722091	keystroke_Key.backspace	Key.backspace	n/a
361.1955	0.075	722391	keystroke_Key.backspace	Key.backspace	n/a
361.8105	0.12	723621	keystroke_c	c	n/a
362.0955	0.105	724191	keystroke_e	e	n/a
362.2305	0.12	724461	keystroke_n	n	n/a
362.3805	0.15	724761	keystroke_s	s	n/a
362.5155	0.12	725031	keystroke_e	e	n/a
362.875	0.06	725750	keystroke_d	d	n/a
363.37	0.12	726740	keystroke_Key.space	Key.space	n/a
363.79	0.12	727580	keystroke_c	c	n/a
363.955	0.12	727910	keystroke_h	h	n/a
364.12	0.12	728240	keystroke_a	a	n/a
364.255	0.09	728510	keystroke_n	n	n/a
364.375	0.15	728750	keystroke_g	g	n/a
364.555	0.105	729110	keystroke_e	e	n/a
364.84	0.105	729680	keystroke_d	d	n/a
364.975	0.09	729950	keystroke_Key.space	Key.space	n/a
365.245	0.075	730490	keystroke_b	b	n/a
365.575	0.09	731150	keystroke_r	r	n/a
365.74	0.105	731480	keystroke_u	u	n/a
366.145	0.09	732290	keystroke_n	n	n/a
366.25	0.12	732500	keystroke_s	s	n/a
367.135	0.09	734270	keystroke_w	w	n/a
367.27	0.105	734540	keystroke_i	i	n/a
367.57	0.09	735140	keystroke_c	c	n/a
367.765	0.105	735530	keystroke_k	k	n/a
368.02	0.105	736040	keystroke_Key.space	Key.space	n/a
368.695	0.15	737390	keystroke_r	r	n/a
368.905	0.09	737810	keystroke_o	o	n/a
369.115	0.09	738230	keystroke_b	b	n/a
369.28	0.105	738560	keystroke_u	u	n/a
369.445	0.09	738890	keystroke_s	s	n/a
369.85	0.105	739700	keystroke_t	t	n/a
370.285	0.12	740570	keystroke_Key.enter	Key.enter	n/a
370.4095	7.482	740819	prompt	n/a	seafood logged analysis step\n
371.635	0.075	743270	keystroke_s	s	n/a
371.8	0.165	743600	keystroke_e	e	n/a
372.01	0.09	744020	keystroke_a	a	n/a
372.25	0.075	744500	keystroke_f	f	n/a
372.415	0.075	744830	keystroke_o	o	n/a
372.55	0.135	745100	keystroke_o	o	n/a
372.73	0.135	745460	keystroke_d	d	n/a
372.925	0.09	745850	keystroke_Key.space	Key.space	n/a
373.18	0.12	746360	keystroke_l	l	n/a
373.375	0.165	746750	keystroke_o	o	n/a
373.51	0.105	747020	keystroke_g	g	n/a
373.705	0.12	747410	keystroke_g	g	n/a
373.855	0.105	747710	keystroke_e	e	n/a
374.125	0.135	748250	keystroke_d	d	n/a
374.275	0.09	748550	keystroke_Key.space	Key.space	n/a
374.545	0.105	749090	keystroke_a	a	n/a
374.71	0.09	749420	keystroke_n	n	n/a
375.055	0.12	750110	keystroke_a	a	n/a
375.325	0.15	750650	keystroke_l	l	n/a
375.61	0.12	751220	keystroke_y	y	n/a
375.79	0.075	751580	keystroke_s	s	n/a
375.88	0.09	751760	keystroke_i	i	n/a
375.985	0.075	751970	keystroke_s	s	n/a
376.24	0.0895	752480	keystroke_Key.space	Key.space	n/a
376.4345	0.105	752869	keystroke_s	s	n/a
376.7045	0.12	753409	keystroke_t	t	n/a
376.8395	0.09	753679	keystroke_e	e	n/a
377.4245	0.105	754849	keystroke_p	p	n/a
377.7845	0.105	755569	keystroke_Key.enter	Key.enter	n/a
377.894	8.4875	755788	prompt	n/a	obvious cliff verde nasa\n
378.8645	0.165	757729	keystroke_o	o	n/a
379.0595	0.075	758119	keystroke_b	b	n/a
379.0745	0.015	758149	keystroke_Key.space	Key.space	n/a
379.7345	0.09	759469	keystroke_Key.backspace	Key.backspace	n/a
380.0045	0.1205	760009	keystroke_v	v	n/a
380.17	0.135	760340	keystroke_i	i	n/a
380.35	0.18	760700	keystroke_o	o	n/a
380.47	0.18	760940	keystroke_u	u	n/a
380.665	0.12	761330	keystroke_s	s	n/a
380.95	0.105	761900	keystroke_Key.space	Key.space	n/a
381.2805	0.105	762561	keystroke_c	c	n/a
381.4305	0.135	762861	keystroke_l	l	n/a
381.6855	0.135	763371	keystroke_i	i	n/a
382.0305	0.1045	764061	keystroke_f	f	n/a
382.72	0.12	765440	keystroke_f	f	n/a
382.96	0.105	765920	keystroke_Key.space	Key.space	n/a
383.29	0.105	766580	keystroke_v	v	n/a
383.59	0.135	767180	keystroke_e	e	n/a
383.695	0.12	767390	keystroke_r	r	n/a
384.04	0.0905	768080	keystroke_d	d	n/a
384.2655	0.12	768531	keystroke_e	e	n/a
384.4745	0.105	768949	keystroke_Key.space	Key.space	n/a
384.7755	0.12	769551	keystroke_n	n	n/a
384.9255	0.12	769851	keystroke_a	a	n/a
385.1805	0.09	770361	keystroke_s	s	n/a
385.5255	0.105	771051	keystroke_a	a	n/a
386.2895	0.09	772579	keystroke_Key.enter	Key.enter	n/a
386.385	10.0015	772770	prompt	n/a	autumn containers mechanisms lexus\n
387.2195	0.106	774439	keystroke_a	a	n/a
387.6555	0.12	775311	keystroke_u	u	n/a
387.8195	0.09	775639	keystroke_t	t	n/a
388.1195	0.12	776239	keystroke_u	u	n/a
388.4495	0.09	776899	keystroke_m	m	n/a
388.6745	0.075	777349	keystroke_n	n	n/a
389.2145	0.075	778429	keystroke_Key.space	Key.space	n/a
389.6495	0.105	779299	keystroke_c	c	n/a
389.7245	0.165	779449	keystroke_o	o	n/a
389.8745	0.165	779749	keystroke_n	n	n/a
390.0545	0.06	780109	keystroke_t	t	n/a
390.2345	0.06	780469	keystroke_a	a	n/a
390.3545	0.18	780709	keystroke_i	i	n/a
390.4895	0.18	780979	keystroke_n	n	n/a
390.6695	0.135	781339	keystroke_e	e	n/a
390.7445	0.135	781489	keystroke_r	r	n/a
391.0445	0.105	782089	keystroke_s	s	n/a
391.2995	0.09	782599	keystroke_Key.space	Key.space	n/a
391.7645	0.165	783529	keystroke_m	m	n/a
391.9445	0.075	783889	keystroke_e	e	n/a
392.2295	0.12	784459	keystroke_c	c	n/a
392.4095	0.105	784819	keystroke_h	h	n/a
392.6195	0.09	785239	keystroke_a	a	n/a
392.6945	0.135	785389	keystroke_n	n	n/a
392.8305	0.134	785661	keystroke_i	i	n/a
392.9795	0.09	785959	keystroke_s	s	n/a
393.5495	0.12	787099	keystroke_m	m	n/a
393.7595	0.135	787519	keystroke_s	s	n/a
394.1795	0.09	788359	keystroke_Key.space	Key.space	n/a
394.4345	0.15	788869	keystroke_l	l	n/a
394.5395	0.09	789079	keystroke_e	e	n/a
394.9295	0.135	789859	keystroke_x	x	n/a
395.1395	0.105	790279	keystroke_u	u	n/a
395.4395	0.135	790879	keystroke_s	s	n/a
396.2645	0.12	792529	keystroke_Key.enter	Key.enter	n/a
396.3895	6.867	792779	prompt	n/a	provided contained hang knee\n
397.225	0.15	794450	keystroke_p	p	n/a
397.45	0.12	794900	keystroke_r	r	n/a
397.57	0.12	795140	keystroke_o	o	n/a
397.825	0.12	795650	keystroke_v	v	n/a
397.99	0.09	795980	keystroke_i	i	n/a
398.26	0.105	796520	keystroke_d	d	n/a
398.515	0.105	797030	keystroke_e	e	n/a
398.8	0.105	797600	keystroke_Key.space	Key.space	n/a
399.0395	0.135	798079	keystroke_c	c	n/a
399.1895	0.15	798379	keystroke_o	o	n/a
399.3095	0.15	798619	keystroke_n	n	n/a
399.4755	0.134	798951	keystroke_t	t	n/a
399.6395	0.09	799279	keystroke_a	a	n/a
399.7445	0.15	799489	keystroke_i	i	n/a
399.8345	0.135	799669	keystroke_n	n	n/a
399.9545	0.105	799909	keystroke_e	e	n/a
400.2245	0.09	800449	keystroke_d	d	n/a
400.3295	0.105	800659	keystroke_Key.space	Key.space	n/a
400.6895	0.136	801379	keystroke_h	h	n/a
400.8255	0.104	801651	keystroke_a	a	n/a
400.9445	0.105	801889	keystroke_n	n	n/a
401.0655	0.074	802131	keystroke_g	g	n/a
401.2145	0.06	802429	keystroke_Key.space	Key.space	n/a
401.5445	0.136	803089	keystroke_k	k	n/a
401.6355	0.165	803271	keystroke_n	n	n/a
401.8155	0.149	803631	keystroke_w	w	n/a
402.4745	0.12	804949	keystroke_Key.backspace	Key.backspace	n/a
402.6105	0.09	805221	keystroke_e	e	n/a
402.8045	0.105	805609	keystroke_e	e	n/a
403.1645	0.09	806329	keystroke_Key.enter	Key.enter	n/a
403.261	7.525	806522	prompt	n/a	meaning touring monthly someone's\n
403.9455	0.149	807891	keystroke_m	m	n/a
404.1545	0.166	808309	keystroke_e	e	n/a
404.2895	0.121	808579	keystroke_a	a	n/a
404.3805	0.074	808761	keystroke_n	n	n/a
404.5295	0.165	809059	keystroke_i	i	n/a
404.6205	0.149	809241	keystroke_n	n	n/a
404.7545	0.09	809509	keystroke_g	g	n/a
404.9495	0.09	809899	keystroke_Key.space	Key.space	n/a
405.3545	0.135	810709	keystroke_t	t	n/a
405.5045	0.18	811009	keystroke_o	o	n/a
405.6105	0.179	811221	keystroke_u	u	n/a
405.7595	0.091	811519	keystroke_r	r	n/a
405.8955	0.135	811791	keystroke_i	i	n/a
406.0145	0.121	812029	keystroke_n	n	n/a
406.0895	0.12	812179	keystroke_g	g	n/a
406.2695	0.09	812539	keystroke_Key.space	Key.space	n/a
406.7505	0.09	813501	keystroke_m	m	n/a
406.9455	0.194	813891	keystroke_o	o	n/a
407.1255	0.194	814251	keystroke_n	n	n/a
407.3655	0.075	814731	keystroke_t	t	n/a
407.5005	0.089	815001	keystroke_h	h	n/a
407.8305	0.15	815661	keystroke_l	l	n/a
408.1145	0.166	816229	keystroke_y	y	n/a
408.3095	0.135	816619	keystroke_Key.space	Key.space	n/a
408.5205	0.105	817041	keystroke_s	s	n/a
408.6855	0.119	817371	keystroke_o	o	n/a
409.2255	0.105	818451	keystroke_m	m	n/a
409.4355	0.09	818871	keystroke_e	e	n/a
409.5855	0.165	819171	keystroke_o	o	n/a
409.7055	0.134	819411	keystroke_n	n	n/a
409.8255	0.104	819651	keystroke_e	e	n/a
410.1245	0.105	820249	keystroke_'	'	n/a
410.3945	0.09	820789	keystroke_s	s	n/a
410.6795	0.105	821359	keystroke_Key.enter	Key.enter	n/a
410.79	8.5915	821580	prompt	n/a	manage speakers attract sizes\n
411.3845	0.12	822769	keystroke_s	s	n/a
411.8645	0.06	823729	keystroke_Key.backspace	Key.backspace	n/a
412.0445	0.09	824089	keystroke_m	m	n/a
412.1645	0.105	824329	keystroke_a	a	n/a
412.3295	0.09	824659	keystroke_n	n	n/a
412.4205	0.119	824841	keystroke_a	a	n/a
412.5995	0.12	825199	keystroke_g	g	n/a
412.7045	0.105	825409	keystroke_e	e	n/a
412.9445	0.09	825889	keystroke_Key.space	Key.space	n/a
413.1245	0.12	826249	keystroke_s	s	n/a
413.3045	0.135	826609	keystroke_p	p	n/a
413.4095	0.15	826819	keystroke_e	e	n/a
413.5445	0.12	827089	keystroke_a	a	n/a
413.6795	0.12	827359	keystroke_k	k	n/a
413.7845	0.15	827569	keystroke_e	e	n/a
413.9045	0.105	827809	keystroke_r	r	n/a
414.2495	0.105	828499	keystroke_Key.space	Key.space	n/a
414.6995	0.105	829399	keystroke_Key.backspace	Key.backspace	n/a
414.8345	0.12	829669	keystroke_s	s	n/a
415.0295	0.105	830059	keystroke_Key.space	Key.space	n/a
415.2095	0.105	830419	keystroke_a	a	n/a
415.4045	0.075	830809	keystroke_t	t	n/a
415.5695	0.075	831139	keystroke_t	t	n/a
416.3045	0.09	832609	keystroke_r	r	n/a
416.4845	0.12	832969	keystroke_a	a	n/a
416.8145	0.09	833629	keystroke_c	c	n/a
417.1745	0.09	834349	keystroke_t	t	n/a
417.2945	0.1055	834589	keystroke_Key.space	Key.space	n/a
417.685	0.075	835370	keystroke_s	s	n/a
417.835	0.135	835670	keystroke_i	i	n/a
418.195	0.06	836390	keystroke_z	z	n/a
418.525	0.09	837050	keystroke_e	e	n/a
418.75	0.12	837500	keystroke_s	s	n/a
419.32	0.06	838640	keystroke_Key.enter	Key.enter	n/a
419.3845	16.407	838769	prompt	n/a	ensuring answering conflicts lady\n
420.325	0.105	840650	keystroke_e	e	n/a
420.535	0.075	841070	keystroke_n	n	n/a
420.64	0.12	841280	keystroke_s	s	n/a
420.82	0.12	841640	keystroke_u	u	n/a
420.94	0.12	841880	keystroke_r	r	n/a
421.12	0.12	842240	keystroke_i	i	n/a
421.225	0.09	842450	keystroke_n	n	n/a
421.255	0.09	842510	keystroke_g	g	n/a
421.48	0.06	842960	keystroke_Key.space	Key.space	n/a
423.325	0.075	846650	keystroke_a	a	n/a
423.445	0.12	846890	keystroke_n	n	n/a
423.7	0.09	847400	keystroke_s	s	n/a
424.075	0.135	848150	keystroke_w	w	n/a
424.195	0.195	848390	keystroke_e	e	n/a
424.36	0.15	848720	keystroke_r	r	n/a
424.66	0.165	849320	keystroke_i	i	n/a
424.84	0.105	849680	keystroke_n	n	n/a
424.93	0.09	849860	keystroke_g	g	n/a
426.04	0.09	852080	keystroke_Key.backspace	Key.backspace	n/a
426.265	0.06	852530	keystroke_Key.backspace	Key.backspace	n/a
426.445	0.075	852890	keystroke_Key.backspace	Key.backspace	n/a
426.64	0.105	853280	keystroke_Key.backspace	Key.backspace	n/a
426.91	0.105	853820	keystroke_Key.backspace	Key.backspace	n/a
427.21	0.12	854420	keystroke_Key.backspace	Key.backspace	n/a
427.975	0.12	855950	keystroke_e	e	n/a
428.245	0.12	856490	keystroke_w	w	n/a
429.1	0.12	858200	keystroke_Key.backspace	Key.backspace	n/a
429.385	0.09	858770	keystroke_Key.backspace	Key.backspace	n/a
429.655	0.09	859310	keystroke_Key.backspace	Key.backspace	n/a
430.675	0.105	861350	keystroke_s	s	n/a
430.96	0.135	861920	keystroke_w	w	n/a
431.08	0.165	862160	keystroke_e	e	n/a
431.26	0.15	862520	keystroke_r	r	n/a
431.695	0.18	863390	keystroke_i	i	n/a
431.845	0.135	863690	keystroke_n	n	n/a
431.965	0.15	863930	keystroke_g	g	n/a
432.25	0.075	864500	keystroke_Key.space	Key.space	n/a
432.76	0.135	865520	keystroke_c	c	n/a
432.82	0.15	865640	keystroke_o	o	n/a
432.925	0.15	865850	keystroke_n	n	n/a
433.105	0.105	866210	keystroke_f	f	n/a
433.255	0.105	866510	keystroke_l	l	n/a
433.45	0.12	866900	keystroke_i	i	n/a
433.69	0.09	867380	keystroke_c	c	n/a
434.02	0.075	868040	keystroke_t	t	n/a
434.26	0.075	868520	keystroke_s	s	n/a
434.35	0.09	868700	keystroke_Key.space	Key.space	n/a
434.71	0.15	869420	keystroke_l	l	n/a
434.89	0.09	869780	keystroke_a	a	n/a
435.175	0.105	870350	keystroke_d	d	n/a
435.37	0.105	870740	keystroke_y	y	n/a
435.685	0.105	871370	keystroke_Key.enter	Key.enter	n/a
435.795	9.0715	871590	prompt	n/a	three fact styles spotlight\n
436.7655	0.089	873531	keystroke_t	t	n/a
436.9605	0.164	873921	keystroke_h	h	n/a
437.0805	0.134	874161	keystroke_r	r	n/a
437.2755	0.104	874551	keystroke_e	e	n/a
437.4705	0.105	874941	keystroke_e	e	n/a
437.9205	0.119	875841	keystroke_Key.space	Key.space	n/a
438.2505	0.105	876501	keystroke_f	f	n/a
438.4445	0.121	876889	keystroke_a	a	n/a
438.7895	0.106	877579	keystroke_c	c	n/a
439.1505	0.104	878301	keystroke_t	t	n/a
439.3145	0.121	878629	keystroke_Key.space	Key.space	n/a
439.7205	0.12	879441	keystroke_s	s	n/a
440.1395	0.105	880279	keystroke_t	t	n/a
440.3195	0.091	880639	keystroke_y	y	n/a
440.6205	0.15	881241	keystroke_l	l	n/a
440.7705	0.06	881541	keystroke_e	e	n/a
440.9195	0.136	881839	keystroke_s	s	n/a
441.4895	0.121	882979	keystroke_Key.space	Key.space	n/a
441.7895	0.151	883579	keystroke_s	s	n/a
442.0305	0.075	884061	keystroke_p	p	n/a
442.1645	0.15	884329	keystroke_o	o	n/a
442.4345	0.12	884869	keystroke_t	t	n/a
442.5845	0.12	885169	keystroke_l	l	n/a
442.7945	0.165	885589	keystroke_i	i	n/a
442.9145	0.09	885829	keystroke_g	g	n/a
443.0345	0.045	886069	keystroke_h	h	n/a
443.2295	0.061	886459	keystroke_t	t	n/a
444.835	0.03	889670	keystroke_Key.enter	Key.enter	n/a
444.87	8.8165	889740	prompt	n/a	artificial omega craft demanding\n
446.02	0.1795	892040	keystroke_a	a	n/a
446.1855	0.12	892371	keystroke_r	r	n/a
446.4555	0.075	892911	keystroke_t	t	n/a
446.5455	0.105	893091	keystroke_i	i	n/a
446.6955	0.105	893391	keystroke_f	f	n/a
446.7855	0.105	893571	keystroke_i	i	n/a
447.1305	0.09	894261	keystroke_c	c	n/a
447.2505	0.12	894501	keystroke_i	i	n/a
447.4605	0.135	894921	keystroke_a	a	n/a
447.5805	0.15	895161	keystroke_l	l	n/a
447.7455	0.1195	895491	keystroke_Key.space	Key.space	n/a
447.925	0.15	895850	keystroke_o	o	n/a
448.225	0.12	896450	keystroke_m	m	n/a
448.36	0.075	896720	keystroke_e	e	n/a
448.63	0.075	897260	keystroke_g	g	n/a
448.75	0.12	897500	keystroke_a	a	n/a
449.005	0.105	898010	keystroke_Key.space	Key.space	n/a
449.995	0.105	899990	keystroke_c	c	n/a
450.355	0.165	900710	keystroke_r	r	n/a
450.505	0.09	901010	keystroke_a	a	n/a
450.73	0.075	901460	keystroke_f	f	n/a
451.045	0.09	902090	keystroke_t	t	n/a
451.285	0.09	902570	keystroke_Key.space	Key.space	n/a
451.675	0.12	903350	keystroke_d	d	n/a
451.9	0.105	903800	keystroke_e	e	n/a
452.065	0.12	904130	keystroke_m	m	n/a
452.2	0.075	904400	keystroke_a	a	n/a
452.32	0.09	904640	keystroke_n	n	n/a
452.455	0.09	904910	keystroke_d	d	n/a
452.575	0.15	905150	keystroke_i	i	n/a
452.71	0.12	905420	keystroke_n	n	n/a
452.8	0.075	905600	keystroke_g	g	n/a
453.535	0.15	907070	keystroke_Key.enter	Key.enter	n/a
453.6895	11.157	907379	prompt	n/a	friend compatible imported tamil\n
454.5095	0.105	909019	keystroke_f	f	n/a
454.99	0.075	909980	keystroke_r	r	n/a
455.0795	0.135	910159	keystroke_i	i	n/a
455.1995	0.0905	910399	keystroke_e	e	n/a
455.3345	0.12	910669	keystroke_n	n	n/a
455.4845	0.12	910969	keystroke_d	d	n/a
455.9195	0.12	911839	keystroke_Key.space	Key.space	n/a
456.5045	0.135	913009	keystroke_c	c	n/a
456.6545	0.12	913309	keystroke_o	o	n/a
456.8495	0.105	913699	keystroke_m	m	n/a
457.0595	0.105	914119	keystroke_p	p	n/a
457.1795	0.135	914359	keystroke_a	a	n/a
457.4945	0.09	914989	keystroke_t	t	n/a
457.5695	0.12	915139	keystroke_i	i	n/a
459.0095	0.135	918019	keystroke_b	b	n/a
459.2195	0.12	918439	keystroke_l	l	n/a
459.3545	0.105	918709	keystroke_e	e	n/a
460.4345	0.105	920869	keystroke_Key.space	Key.space	n/a
460.5695	0.15	921139	keystroke_i	i	n/a
460.7795	0.12	921559	keystroke_m	m	n/a
461.0645	0.12	922129	keystroke_p	p	n/a
461.2295	0.165	922459	keystroke_o	o	n/a
461.5295	0.105	923059	keystroke_r	r	n/a
461.7845	0.105	923569	keystroke_t	t	n/a
462.0995	0.105	924199	keystroke_e	e	n/a
462.4445	0.09	924889	keystroke_d	d	n/a
462.7595	0.105	925519	keystroke_Key.space	Key.space	n/a
463.3295	0.15	926659	keystroke_t	t	n/a
463.4945	0.135	926989	keystroke_a	a	n/a
463.7345	0.105	927469	keystroke_m	m	n/a
463.9595	0.105	927919	keystroke_i	i	n/a
464.1845	0.12	928369	keystroke_l	l	n/a
464.7095	0.135	929419	keystroke_Key.enter	Key.enter	n/a
464.8495	9.852	929699	prompt	n/a	paragraphs sender nuke disciplines\n
465.6105	0.149	931221	keystroke_p	p	n/a
465.7445	0.15	931489	keystroke_a	a	n/a
465.8795	0.165	931759	keystroke_r	r	n/a
466.0295	0.12	932059	keystroke_a	a	n/a
466.6145	0.09	933229	keystroke_g	g	n/a
466.8695	0.165	933739	keystroke_r	r	n/a
466.9745	0.12	933949	keystroke_a	a	n/a
467.2895	0.21	934579	keystroke_p	p	n/a
467.6345	0.18	935269	keystroke_h	h	n/a
467.9645	0.135	935929	keystroke_s	s	n/a
468.2345	0.075	936469	keystroke_Key.space	Key.space	n/a
468.5195	0.105	937039	keystroke_s	s	n/a
468.6845	0.105	937369	keystroke_e	e	n/a
468.8045	0.12	937609	keystroke_n	n	n/a
468.9695	0.12	937939	keystroke_d	d	n/a
469.2545	0.15	938509	keystroke_e	e	n/a
469.3595	0.12	938719	keystroke_r	r	n/a
469.4945	0.075	938989	keystroke_Key.space	Key.space	n/a
469.8695	0.09	939739	keystroke_n	n	n/a
470.14	0.075	940280	keystroke_u	u	n/a
470.3955	0.1045	940791	keystroke_k	k	n/a
470.485	0.12	940970	keystroke_e	e	n/a
470.71	0.105	941420	keystroke_Key.space	Key.space	n/a
471.205	0.12	942410	keystroke_d	d	n/a
471.4	0.165	942800	keystroke_i	i	n/a
472.09	0.12	944180	keystroke_s	s	n/a
472.405	0.105	944810	keystroke_c	c	n/a
472.585	0.135	945170	keystroke_i	i	n/a
472.81	0.09	945620	keystroke_p	p	n/a
473.095	0.135	946190	keystroke_l	l	n/a
473.335	0.195	946670	keystroke_i	i	n/a
473.485	0.135	946970	keystroke_n	n	n/a
473.545	0.12	947090	keystroke_e	e	n/a
473.74	0.15	947480	keystroke_s	s	n/a
474.5805	0.119	949161	keystroke_Key.enter	Key.enter	n/a
474.704	12.9725	949408	prompt	n/a	bald agree indie advance\n
476.5145	0.09	953029	keystroke_b	b	n/a
476.6945	0.12	953389	keystroke_a	a	n/a
476.8595	0.15	953719	keystroke_l	l	n/a
477.0245	0.12	954049	keystroke_d	d	n/a
477.2495	0.105	954499	keystroke_Key.space	Key.space	n/a
477.5645	0.105	955129	keystroke_a	a	n/a
477.7895	0.12	955579	keystroke_g	g	n/a
478.1045	0.1205	956209	keystroke_r	r	n/a
478.3	0.1055	956600	keystroke_e	e	n/a
478.495	0.09	956990	keystroke_e	e	n/a
478.7505	0.1195	957501	keystroke_Key.space	Key.space	n/a
479.1255	0.18	958251	keystroke_i	i	n/a
479.2905	0.15	958581	keystroke_n	n	n/a
479.5455	0.1045	959091	keystroke_d	d	n/a
479.635	0.1205	959270	keystroke_i	i	n/a
479.7855	0.105	959571	keystroke_e	e	n/a
480.43	0.12	960860	keystroke_Key.space	Key.space	n/a
480.835	0.135	961670	keystroke_a	a	n/a
481.105	0.105	962210	keystroke_d	d	n/a
481.36	0.135	962720	keystroke_n	n	n/a
481.555	0.09	963110	keystroke_v	v	n/a
481.705	0.09	963410	keystroke_a	a	n/a
481.825	0.105	963650	keystroke_n	n	n/a
482.425	0.09	964850	keystroke_Key.backspace	Key.backspace	n/a
482.62	0.075	965240	keystroke_Key.backspace	Key.backspace	n/a
482.77	0.075	965540	keystroke_Key.backspace	Key.backspace	n/a
482.95	0.045	965900	keystroke_Key.backspace	Key.backspace	n/a
483.115	0.075	966230	keystroke_Key.backspace	Key.backspace	n/a
483.775	0.09	967550	keystroke_d	d	n/a
484.3	0.105	968600	keystroke_v	v	n/a
484.48	0.12	968960	keystroke_a	a	n/a
484.63	0.105	969260	keystroke_n	n	n/a
484.84	0.105	969680	keystroke_c	c	n/a
485.14	0.09	970280	keystroke_e	e	n/a
485.365	0.09	970730	keystroke_Key.space	Key.space	n/a
486.91	0.09	973820	keystroke_Key.backspace	Key.backspace	n/a
487.5395	0.135	975079	keystroke_Key.enter	Key.enter	n/a
487.68	7.646	975360	prompt	n/a	featured prior carmen vitamin\n
488.8445	0.12	977689	keystroke_f	f	n/a
489.1745	0.045	978349	keystroke_e	e	n/a
489.1895	0.18	978379	keystroke_a	a	n/a
489.5795	0.105	979159	keystroke_t	t	n/a
489.8495	0.27	979699	keystroke_u	u	n/a
489.9395	0.15	979879	keystroke_r	r	n/a
490.1045	0.06	980209	keystroke_e	e	n/a
490.2995	0.09	980599	keystroke_d	d	n/a
490.4645	0.09	980929	keystroke_Key.space	Key.space	n/a
490.8395	0.12	981679	keystroke_p	p	n/a
490.9745	0.12	981949	keystroke_r	r	n/a
491.0495	0.165	982099	keystroke_i	i	n/a
491.1995	0.165	982399	keystroke_o	o	n/a
491.3195	0.12	982639	keystroke_r	r	n/a
491.5295	0.09	983059	keystroke_Key.space	Key.space	n/a
492.0095	0.075	984019	keystroke_c	c	n/a
492.2345	0.135	984469	keystroke_a	a	n/a
492.3395	0.135	984679	keystroke_r	r	n/a
492.4895	0.12	984979	keystroke_m	m	n/a
492.6245	0.12	985249	keystroke_e	e	n/a
492.7295	0.09	985459	keystroke_n	n	n/a
493.1495	0.105	986299	keystroke_Key.space	Key.space	n/a
493.5395	0.105	987079	keystroke_v	v	n/a
493.6595	0.15	987319	keystroke_i	i	n/a
493.9295	0.15	987859	keystroke_t	t	n/a
494.0805	0.104	988161	keystroke_a	a	n/a
494.2295	0.105	988459	keystroke_m	m	n/a
494.6045	0.195	989209	keystroke_i	i	n/a
494.7395	0.135	989479	keystroke_n	n	n/a
495.1895	0.135	990379	keystroke_Key.enter	Key.enter	n/a
495.33	10.4815	990660	prompt	n/a	acid animal paraguay invitations\n
496.1795	0.09	992359	keystroke_a	a	n/a
496.4345	0.135	992869	keystroke_c	c	n/a
496.6745	0.105	993349	keystroke_i	i	n/a
496.9745	0.09	993949	keystroke_Key.space	Key.space	n/a
497.3795	0.12	994759	keystroke_Key.backspace	Key.backspace	n/a
497.5295	0.105	995059	keystroke_d	d	n/a
497.6945	0.12	995389	keystroke_Key.space	Key.space	n/a
497.8895	0.12	995779	keystroke_a	a	n/a
498.0545	0.075	996109	keystroke_n	n	n/a
498.1895	0.12	996379	keystroke_i	i	n/a
498.3695	0.135	996739	keystroke_m	m	n/a
498.5195	0.09	997039	keystroke_a	a	n/a
498.5945	0.135	997189	keystroke_l	l	n/a
499.0295	0.105	998059	keystroke_Key.space	Key.space	n/a
499.5845	0.075	999169	keystroke_p	p	n/a
499.6745	0.15	999349	keystroke_a	a	n/a
499.8095	0.15	999619	keystroke_r	r	n/a
499.9745	0.105	999949	keystroke_a	a	n/a
500.14	0.09	1000280	keystroke_p	p	n/a
500.77	0.105	1001540	keystroke_Key.backspace	Key.backspace	n/a
500.995	0.12	1001990	keystroke_g	g	n/a
501.16	0.15	1002320	keystroke_u	u	n/a
501.295	0.12	1002590	keystroke_a	a	n/a
501.625	0.135	1003250	keystroke_y	y	n/a
502.2695	0.105	1004539	keystroke_Key.space	Key.space	n/a
502.5695	0.135	1005139	keystroke_i	i	n/a
502.6745	0.15	1005349	keystroke_n	n	n/a
503.1845	0.09	1006369	keystroke_v	v	n/a
503.2895	0.24	1006579	keystroke_i	i	n/a
503.6645	0.105	1007329	keystroke_t	t	n/a
503.8295	0.135	1007659	keystroke_a	a	n/a
504.0545	0.1055	1008109	keystroke_t	t	n/a
504.625	0.255	1009250	keystroke_i	i	n/a
504.76	0.165	1009520	keystroke_o	o	n/a
504.85	0.135	1009700	keystroke_n	n	n/a
505.015	0.105	1010030	keystroke_s	s	n/a
505.66	0.15	1011320	keystroke_Key.enter	Key.enter	n/a
505.8145	7.707	1011629	prompt	n/a	votes portable isolated looks\n
506.77	0.105	1013540	keystroke_v	v	n/a
506.95	0.135	1013900	keystroke_o	o	n/a
507.16	0.135	1014320	keystroke_t	t	n/a
507.31	0.135	1014620	keystroke_e	e	n/a
507.46	0.15	1014920	keystroke_s	s	n/a
507.685	0.09	1015370	keystroke_Key.space	Key.space	n/a
508.2845	0.135	1016569	keystroke_p	p	n/a
508.5095	0.165	1017019	keystroke_o	o	n/a
508.5995	0.135	1017199	keystroke_r	r	n/a
508.9895	0.135	1017979	keystroke_t	t	n/a
509.1845	0.105	1018369	keystroke_a	a	n/a
509.4395	0.075	1018879	keystroke_b	b	n/a
509.6045	0.12	1019209	keystroke_l	l	n/a
509.6795	0.105	1019359	keystroke_e	e	n/a
510.0095	0.105	1020019	keystroke_Key.space	Key.space	n/a
510.31	0.135	1020620	keystroke_i	i	n/a
510.429	0.1515	1020858	keystroke_s	s	n/a
510.565	0.105	1021130	keystroke_o	o	n/a
510.8355	0.2395	1021671	keystroke_l	l	n/a
510.91	0.21	1021820	keystroke_a	a	n/a
511.0905	0.149	1022181	keystroke_t	t	n/a
511.27	0.1055	1022540	keystroke_e	e	n/a
511.57	0.12	1023140	keystroke_d	d	n/a
511.75	0.104	1023500	keystroke_Key.space	Key.space	n/a
512.155	0.135	1024310	keystroke_l	l	n/a
512.4255	0.075	1024851	keystroke_o	o	n/a
512.56	0.12	1025120	keystroke_o	o	n/a
512.785	0.15	1025570	keystroke_k	k	n/a
512.935	0.105	1025870	keystroke_s	s	n/a
513.4	0.12	1026800	keystroke_Key.enter	Key.enter	n/a
513.526	19.8105	1027052	prompt	n/a	mobile mortgages minute professional\n
516.3125	0.028	1032625	keystroke_m	m	n/a
516.4905	0.105	1032981	keystroke_o	o	n/a
519.7175	0.043	1039435	keystroke_b	b	n/a
519.8355	0.09	1039671	keystroke_i	i	n/a
520.0305	0.15	1040061	keystroke_l	l	n/a
520.1505	0.075	1040301	keystroke_e	e	n/a
520.6305	0.09	1041261	keystroke_Key.space	Key.space	n/a
520.9155	0.105	1041831	keystroke_m	m	n/a
521.1255	0.225	1042251	keystroke_o	o	n/a
521.2605	0.105	1042521	keystroke_r	r	n/a
521.5005	0.12	1043001	keystroke_t	t	n/a
521.9955	0.105	1043991	keystroke_g	g	n/a
522.1755	0.105	1044351	keystroke_a	a	n/a
522.5805	0.165	1045161	keystroke_g	g	n/a
522.7605	0.105	1045521	keystroke_e	e	n/a
522.9555	0.15	1045911	keystroke_s	s	n/a
523.4505	0.12	1046901	keystroke_Key.space	Key.space	n/a
523.7355	0.12	1047471	keystroke_m	m	n/a
523.9755	0.165	1047951	keystroke_i	i	n/a
524.0955	0.105	1048191	keystroke_n	n	n/a
524.3655	0.15	1048731	keystroke_u	u	n/a
524.5605	0.15	1049121	keystroke_t	t	n/a
524.7105	0.135	1049421	keystroke_e	e	n/a
525.0555	0.075	1050111	keystroke_Key.space	Key.space	n/a
525.5055	0.135	1051011	keystroke_p	p	n/a
525.6705	0.105	1051341	keystroke_r	r	n/a
525.7605	0.12	1051521	keystroke_o	o	n/a
526.3755	0.09	1052751	keystroke_f	f	n/a
526.4955	0.12	1052991	keystroke_e	e	n/a
526.7055	0.09	1053411	keystroke_s	s	n/a
526.8555	0.12	1053711	keystroke_s	s	n/a
526.9605	0.195	1053921	keystroke_i	i	n/a
527.0505	0.075	1054101	keystroke_o	o	n/a
527.1105	0.135	1054221	keystroke_n	n	n/a
527.2755	0.105	1054551	keystroke_a	a	n/a
527.3955	0.135	1054791	keystroke_l	l	n/a
533.2775	0.058	1066555	keystroke_Key.enter	Key.enter	n/a
533.34	7.962	1066680	prompt	n/a	shelter dont succeed alive\n
534.115	0.135	1068230	keystroke_s	s	n/a
534.265	0.09	1068530	keystroke_h	h	n/a
534.385	0.09	1068770	keystroke_e	e	n/a
534.52	0.225	1069040	keystroke_l	l	n/a
535.045	0.12	1070090	keystroke_t	t	n/a
535.24	0.18	1070480	keystroke_e	e	n/a
535.345	0.18	1070690	keystroke_r	r	n/a
535.57	0.105	1071140	keystroke_Key.space	Key.space	n/a
536.0655	0.12	1072131	keystroke_d	d	n/a
536.1705	0.135	1072341	keystroke_o	o	n/a
536.2905	0.18	1072581	keystroke_n	n	n/a
536.4255	0.09	1072851	keystroke_'	'	n/a
537.0105	0.105	1074021	keystroke_Key.backspace	Key.backspace	n/a
537.1455	0.135	1074291	keystroke_t	t	n/a
537.3555	0.105	1074711	keystroke_Key.space	Key.space	n/a
537.7905	0.15	1075581	keystroke_s	s	n/a
538.3305	0.1495	1076661	keystroke_u	u	n/a
538.6605	0.1045	1077321	keystroke_c	c	n/a
538.825	0.12	1077650	keystroke_c	c	n/a
539.17	0.135	1078340	keystroke_e	e	n/a
539.365	0.12	1078730	keystroke_e	e	n/a
539.68	0.135	1079360	keystroke_d	d	n/a
539.92	0.105	1079840	keystroke_Key.space	Key.space	n/a
540.13	0.12	1080260	keystroke_a	a	n/a
540.295	0.12	1080590	keystroke_l	l	n/a
540.505	0.12	1081010	keystroke_i	i	n/a
540.655	0.166	1081310	keystroke_v	v	n/a
540.791	0.18	1081582	keystroke_e	e	n/a
541.165	0.135	1082330	keystroke_Key.enter	Key.enter	n/a
541.3065	10.96	1082613	prompt	n/a	copyrights influence attorney everyday\n
542.021	0.089	1084042	keystroke_a	a	n/a
542.47	0.06	1084940	keystroke_Key.backspace	Key.backspace	n/a
542.516	0.134	1085032	keystroke_c	c	n/a
542.71	0.135	1085420	keystroke_o	o	n/a
542.921	0.104	1085842	keystroke_p	p	n/a
543.46	0.18	1086920	keystroke_y	y	n/a
543.775	0.075	1087550	keystroke_r	r	n/a
543.88	0.15	1087760	keystroke_i	i	n/a
544.031	0.09	1088062	keystroke_g	g	n/a
544.135	0.135	1088270	keystroke_h	h	n/a
544.255	0.075	1088510	keystroke_t	t	n/a
544.705	0.091	1089410	keystroke_s	s	n/a
544.855	0.105	1089710	keystroke_Key.space	Key.space	n/a
545.56	0.12	1091120	keystroke_i	i	n/a
545.65	0.136	1091300	keystroke_n	n	n/a
545.816	0.1335	1091632	keystroke_f	f	n/a
546.1005	0.119	1092201	keystroke_l	l	n/a
546.3555	0.105	1092711	keystroke_u	u	n/a
546.5655	0.134	1093131	keystroke_e	e	n/a
546.7305	0.119	1093461	keystroke_n	n	n/a
546.9405	0.134	1093881	keystroke_c	c	n/a
547.2705	0.134	1094541	keystroke_e	e	n/a
547.4795	0.105	1094959	keystroke_Key.space	Key.space	n/a
547.8105	0.12	1095621	keystroke_a	a	n/a
548.0955	0.09	1096191	keystroke_t	t	n/a
548.2605	0.105	1096521	keystroke_t	t	n/a
548.5445	0.151	1097089	keystroke_o	o	n/a
548.6655	0.119	1097331	keystroke_r	r	n/a
548.8905	0.105	1097781	keystroke_n	n	n/a
549.1305	0.149	1098261	keystroke_e	e	n/a
549.4155	0.195	1098831	keystroke_y	y	n/a
549.5495	0.181	1099099	keystroke_Key.space	Key.space	n/a
550.3295	0.091	1100659	keystroke_e	e	n/a
550.5995	0.121	1101199	keystroke_v	v	n/a
550.7955	0.135	1101591	keystroke_e	e	n/a
550.9155	0.15	1101831	keystroke_r	r	n/a
551.1105	0.135	1102221	keystroke_y	y	n/a
551.3495	0.151	1102699	keystroke_d	d	n/a
551.5295	0.121	1103059	keystroke_a	a	n/a
551.6955	0.195	1103391	keystroke_y	y	n/a
552.1455	0.12	1104291	keystroke_Key.enter	Key.enter	n/a
552.27	10.9615	1104540	prompt	n/a	coordination synopsis essays tunisia\n
553.1955	0.135	1106391	keystroke_c	c	n/a
553.3455	0.09	1106691	keystroke_o	o	n/a
553.4945	0.135	1106989	keystroke_o	o	n/a
553.9155	0.12	1107831	keystroke_r	r	n/a
554.3655	0.09	1108731	keystroke_d	d	n/a
554.4555	0.179	1108911	keystroke_i	i	n/a
554.6205	0.15	1109241	keystroke_n	n	n/a
554.6955	0.165	1109391	keystroke_a	a	n/a
554.8305	0.135	1109661	keystroke_t	t	n/a
554.9505	0.15	1109901	keystroke_i	i	n/a
554.9945	0.166	1109989	keystroke_o	o	n/a
555.0855	0.09	1110171	keystroke_n	n	n/a
555.6105	0.105	1111221	keystroke_Key.space	Key.space	n/a
555.9095	0.151	1111819	keystroke_s	s	n/a
556.0755	0.135	1112151	keystroke_y	y	n/a
556.4955	0.15	1112991	keystroke_o	o	n/a
556.9905	0.09	1113981	keystroke_Key.backspace	Key.backspace	n/a
557.1705	0.105	1114341	keystroke_n	n	n/a
557.3205	0.15	1114641	keystroke_o	o	n/a
557.5605	0.105	1115121	keystroke_p	p	n/a
557.8605	0.09	1115721	keystroke_s	s	n/a
557.9355	0.12	1115871	keystroke_i	i	n/a
558.0705	0.105	1116141	keystroke_s	s	n/a
558.5655	0.105	1117131	keystroke_Key.space	Key.space	n/a
558.8955	0.105	1117791	keystroke_e	e	n/a
559.0905	0.075	1118181	keystroke_s	s	n/a
559.2555	0.12	1118511	keystroke_s	s	n/a
559.4505	0.09	1118901	keystroke_a	a	n/a
559.5855	0.12	1119171	keystroke_y	y	n/a
559.6905	0.12	1119381	keystroke_s	s	n/a
560.0055	0.134	1120011	keystroke_Key.space	Key.space	n/a
560.4695	0.15	1120939	keystroke_t	t	n/a
560.6495	0.075	1121299	keystroke_u	u	n/a
560.8895	0.12	1121779	keystroke_n	n	n/a
560.9945	0.165	1121989	keystroke_i	i	n/a
561.1745	0.135	1122349	keystroke_s	s	n/a
561.2945	0.105	1122589	keystroke_i	i	n/a
562.03	0.12	1124060	keystroke_a	a	n/a
563.095	0.135	1126190	keystroke_Key.enter	Key.enter	n/a
563.235	8.6665	1126470	prompt	n/a	item video medications samuel\n
564.475	0.075	1128950	keystroke_i	i	n/a
564.655	0.12	1129310	keystroke_t	t	n/a
564.79	0.135	1129580	keystroke_e	e	n/a
564.88	0.12	1129760	keystroke_m	m	n/a
565.51	0.09	1131020	keystroke_Key.space	Key.space	n/a
566.05	0.12	1132100	keystroke_v	v	n/a
566.155	0.12	1132310	keystroke_i	i	n/a
566.32	0.12	1132640	keystroke_d	d	n/a
566.59	0.105	1133180	keystroke_e	e	n/a
566.71	0.12	1133420	keystroke_o	o	n/a
567.25	0.09	1134500	keystroke_Key.space	Key.space	n/a
567.61	0.15	1135220	keystroke_m	m	n/a
567.745	0.09	1135490	keystroke_e	e	n/a
567.985	0.105	1135970	keystroke_d	d	n/a
568.105	0.1205	1136210	keystroke_i	i	n/a
568.8105	0.12	1137621	keystroke_c	c	n/a
569.1555	0.075	1138311	keystroke_a	a	n/a
569.3505	0.12	1138701	keystroke_t	t	n/a
569.4555	0.165	1138911	keystroke_i	i	n/a
569.5305	0.12	1139061	keystroke_o	o	n/a
569.5755	0.149	1139151	keystroke_n	n	n/a
569.7555	0.12	1139511	keystroke_s	s	n/a
570.2045	0.09	1140409	keystroke_Key.space	Key.space	n/a
570.4295	0.12	1140859	keystroke_s	s	n/a
570.6245	0.09	1141249	keystroke_a	a	n/a
570.7595	0.105	1141519	keystroke_m	m	n/a
571.0895	0.105	1142179	keystroke_u	u	n/a
571.2395	0.15	1142479	keystroke_e	e	n/a
571.4345	0.12	1142869	keystroke_l	l	n/a
571.8245	0.075	1143649	keystroke_Key.enter	Key.enter	n/a
571.904	13.6025	1143808	prompt	n/a	moldova reason jake rehab\n
573.1595	0.105	1146319	keystroke_m	m	n/a
573.4145	0.09	1146829	keystroke_o	o	n/a
573.6245	0.135	1147249	keystroke_l	l	n/a
573.7445	0.12	1147489	keystroke_d	d	n/a
573.9995	0.12	1147999	keystroke_o	o	n/a
574.2095	0.105	1148419	keystroke_v	v	n/a
574.4795	0.09	1148959	keystroke_a	a	n/a
575.1695	0.09	1150339	keystroke_Key.space	Key.space	n/a
575.4245	0.12	1150849	keystroke_r	r	n/a
575.5145	0.166	1151029	keystroke_e	e	n/a
575.6495	0.12	1151299	keystroke_a	a	n/a
576.5645	0.135	1153129	keystroke_s	s	n/a
576.8345	0.1505	1153669	keystroke_o	o	n/a
576.97	0.15	1153940	keystroke_n	n	n/a
577.66	0.105	1155320	keystroke_Key.space	Key.space	n/a
577.84	0.165	1155680	keystroke_j	j	n/a
578.02	0.075	1156040	keystroke_a	a	n/a
578.035	0.03	1156070	keystroke_j	j	n/a
578.305	0.09	1156610	keystroke_k	k	n/a
578.41	0.09	1156820	keystroke_e	e	n/a
578.815	0.03	1157630	keystroke_Key.backspace	Key.backspace	n/a
578.935	0.09	1157870	keystroke_Key.backspace	Key.backspace	n/a
579.295	0.09	1158590	keystroke_Key.backspace	Key.backspace	n/a
579.52	0.135	1159040	keystroke_k	k	n/a
579.625	0.12	1159250	keystroke_e	e	n/a
580.21	0.075	1160420	keystroke_Key.space	Key.space	n/a
580.525	0.135	1161050	keystroke_r	r	n/a
580.63	0.165	1161260	keystroke_e	e	n/a
580.975	0.135	1161950	keystroke_h	h	n/a
581.17	0.09	1162340	keystroke_a	a	n/a
581.68	0.135	1163360	keystroke_b	b	n/a
585.447	0.058	1170894	keystroke_Key.enter	Key.enter	n/a
585.5095	17.337	1171019	prompt	n/a	aerial behalf retrieve founded\n
588.327	0.028	1176654	keystroke_a	a	n/a
588.505	0.105	1177010	keystroke_e	e	n/a
588.745	0.12	1177490	keystroke_r	r	n/a
588.88	0.12	1177760	keystroke_i	i	n/a
588.985	0.12	1177970	keystroke_e	e	n/a
589.765	0.075	1179530	keystroke_Key.backspace	Key.backspace	n/a
589.9	0.135	1179800	keystroke_a	a	n/a
590.05	0.15	1180100	keystroke_l	l	n/a
591.58	0.12	1183160	keystroke_Key.backspace	Key.backspace	n/a
592.2705	0.165	1184541	keystroke_l	l	n/a
592.5255	0.12	1185051	keystroke_Key.space	Key.space	n/a
592.9005	0.09	1185801	keystroke_b	b	n/a
593.1405	0.135	1186281	keystroke_e	e	n/a
593.4705	0.195	1186941	keystroke_h	h	n/a
593.6355	0.12	1187271	keystroke_a	a	n/a
593.8905	0.09	1187781	keystroke_f	f	n/a
594.61	0.09	1189220	keystroke_Key.space	Key.space	n/a
595.21	0.075	1190420	keystroke_Key.backspace	Key.backspace	n/a
595.66	0.09	1191320	keystroke_Key.backspace	Key.backspace	n/a
595.945	0.165	1191890	keystroke_l	l	n/a
596.08	0.1205	1192160	keystroke_f	f	n/a
596.3955	0.12	1192791	keystroke_Key.space	Key.space	n/a
596.8755	0.15	1193751	keystroke_r	r	n/a
596.9955	0.15	1193991	keystroke_e	e	n/a
597.4755	0.105	1194951	keystroke_t	t	n/a
597.7605	0.105	1195521	keystroke_r	r	n/a
597.9405	0.285	1195881	keystroke_i	i	n/a
598.0605	0.12	1196121	keystroke_e	e	n/a
598.9755	0.12	1197951	keystroke_v	v	n/a
599.2305	0.12	1198461	keystroke_e	e	n/a
599.5605	0.105	1199121	keystroke_Key.space	Key.space	n/a
600.28	0.09	1200560	keystroke_f	f	n/a
600.4	0.225	1200800	keystroke_o	o	n/a
600.52	0.12	1201040	keystroke_u	u	n/a
600.79	0.12	1201580	keystroke_n	n	n/a
600.91	0.105	1201820	keystroke_d	d	n/a
601.285	0.06	1202570	keystroke_e	e	n/a
601.555	0.15	1203110	keystroke_d	d	n/a
602.665	0.18	1205330	keystroke_Key.enter	Key.enter	n/a
602.85	14.847	1205700	prompt	n/a	love surgical spouse academics\n
603.79	0.105	1207580	keystroke_l	l	n/a
603.97	0.18	1207940	keystroke_o	o	n/a
604.09	0.135	1208180	keystroke_v	v	n/a
604.195	0.15	1208390	keystroke_e	e	n/a
604.36	0.09	1208720	keystroke_Key.space	Key.space	n/a
604.51	0.135	1209020	keystroke_s	s	n/a
604.615	0.195	1209230	keystroke_u	u	n/a
604.825	0.105	1209650	keystroke_r	r	n/a
605.215	0.09	1210430	keystroke_g	g	n/a
605.275	0.135	1210550	keystroke_i	i	n/a
605.665	0.105	1211330	keystroke_c	c	n/a
605.905	0.105	1211810	keystroke_a	a	n/a
606.025	0.165	1212050	keystroke_l	l	n/a
606.22	0.135	1212440	keystroke_Key.space	Key.space	n/a
606.43	0.135	1212860	keystroke_s	s	n/a
607.015	0.09	1214030	keystroke_o	o	n/a
607.42	0.0745	1214840	keystroke_Key.backspace	Key.backspace	n/a
607.6905	0.24	1215381	keystroke_p	p	n/a
607.8855	0.255	1215771	keystroke_u	u	n/a
608.5305	0.074	1217061	keystroke_Key.backspace	Key.backspace	n/a
608.7855	0.18	1217571	keystroke_o	o	n/a
608.9055	0.27	1217811	keystroke_u	u	n/a
609.0555	0.195	1218111	keystroke_s	s	n/a
609.2805	0.18	1218561	keystroke_e	e	n/a
609.6405	0.075	1219281	keystroke_Key.space	Key.space	n/a
610.0605	0.09	1220121	keystroke_a	a	n/a
610.3455	0.105	1220691	keystroke_c	c	n/a
610.5855	0.075	1221171	keystroke_a	a	n/a
611.0055	0.105	1222011	keystroke_d	d	n/a
611.2305	0.09	1222461	keystroke_e	e	n/a
611.3505	0.09	1222701	keystroke_m	m	n/a
611.5605	0.12	1223121	keystroke_i	i	n/a
611.7555	0.12	1223511	keystroke_c	c	n/a
612.0555	0.135	1224111	keystroke_s	s	n/a
617.623	0.072	1235246	keystroke_Key.enter	Key.enter	n/a
617.7035	10.3735	1235407	prompt	n/a	coach departmental glossary mike\n
618.581	0.135	1237162	keystroke_c	c	n/a
618.775	0.136	1237550	keystroke_o	o	n/a
618.911	0.12	1237822	keystroke_a	a	n/a
619.166	0.119	1238332	keystroke_c	c	n/a
619.27	0.105	1238540	keystroke_h	h	n/a
620.0805	0.12	1240161	keystroke_Key.space	Key.space	n/a
620.215	0.105	1240430	keystroke_d	d	n/a
620.4855	0.0745	1240971	keystroke_e	e	n/a
620.695	0.1655	1241390	keystroke_p	p	n/a
620.9205	0.1795	1241841	keystroke_a	a	n/a
621.04	0.1355	1242080	keystroke_r	r	n/a
621.3255	0.0895	1242651	keystroke_t	t	n/a
621.88	0.12	1243760	keystroke_m	m	n/a
622.045	0.1355	1244090	keystroke_e	e	n/a
622.165	0.1355	1244330	keystroke_n	n	n/a
622.3155	0.09	1244631	keystroke_t	t	n/a
622.7205	0.135	1245441	keystroke_a	a	n/a
622.8555	0.15	1245711	keystroke_l	l	n/a
623.1105	0.135	1246221	keystroke_Key.space	Key.space	n/a
623.4705	0.105	1246941	keystroke_p	p	n/a
623.8605	0.075	1247721	keystroke_Key.backspace	Key.backspace	n/a
623.9655	0.15	1247931	keystroke_f	f	n/a
624.7005	0.15	1249401	keystroke_Key.backspace	Key.backspace	n/a
625.1205	0.075	1250241	keystroke_g	g	n/a
625.3005	0.135	1250601	keystroke_l	l	n/a
625.5255	0.195	1251051	keystroke_o	o	n/a
625.6455	0.09	1251291	keystroke_s	s	n/a
625.7955	0.12	1251591	keystroke_s	s	n/a
625.9605	0.15	1251921	keystroke_a	a	n/a
626.0955	0.1345	1252191	keystroke_r	r	n/a
626.245	0.105	1252490	keystroke_y	y	n/a
626.485	0.105	1252970	keystroke_Key.space	Key.space	n/a
626.741	0.089	1253482	keystroke_m	m	n/a
626.951	0.089	1253902	keystroke_i	i	n/a
627.13	0.105	1254260	keystroke_k	k	n/a
627.22	0.151	1254440	keystroke_e	e	n/a
627.955	0.12	1255910	keystroke_Key.enter	Key.enter	n/a
628.0805	16.916	1256161	prompt	n/a	blast instant ourselves antarctica\n
628.975	0.135	1257950	keystroke_b	b	n/a
629.245	0.21	1258490	keystroke_l	l	n/a
629.38	0.09	1258760	keystroke_a	a	n/a
629.575	0.105	1259150	keystroke_s	s	n/a
629.86	0.135	1259720	keystroke_t	t	n/a
630.01	0.105	1260020	keystroke_Key.space	Key.space	n/a
630.325	0.15	1260650	keystroke_i	i	n/a
630.445	0.18	1260890	keystroke_n	n	n/a
630.565	0.15	1261130	keystroke_s	s	n/a
630.85	0.15	1261700	keystroke_t	t	n/a
630.985	0.15	1261970	keystroke_a	a	n/a
631.15	0.12	1262300	keystroke_n	n	n/a
631.24	0.135	1262480	keystroke_t	t	n/a
631.54	0.075	1263080	keystroke_Key.space	Key.space	n/a
631.9	0.15	1263800	keystroke_o	o	n/a
632.38	0.225	1264760	keystroke_u	u	n/a
632.9205	0.12	1265841	keystroke_r	r	n/a
633.1905	0.135	1266381	keystroke_s	s	n/a
633.4155	0.12	1266831	keystroke_e	e	n/a
633.5955	0.18	1267191	keystroke_l	l	n/a
633.7905	0.12	1267581	keystroke_v	v	n/a
633.9405	0.12	1267881	keystroke_e	e	n/a
634.1955	0.12	1268391	keystroke_s	s	n/a
634.885	0.12	1269770	keystroke_Key.space	Key.space	n/a
635.14	0.165	1270280	keystroke_a	a	n/a
635.35	0.135	1270700	keystroke_n	n	n/a
635.86	0.135	1271720	keystroke_a	a	n/a
636.34	0.15	1272680	keystroke_Key.backspace	Key.backspace	n/a
636.535	0.105	1273070	keystroke_t	t	n/a
636.67	0.165	1273340	keystroke_a	a	n/a
636.805	0.105	1273610	keystroke_r	r	n/a
637.06	0.075	1274120	keystroke_t	t	n/a
637.195	0.12	1274390	keystroke_i	i	n/a
637.375	0.06	1274750	keystroke_i	i	n/a
637.465	0.12	1274930	keystroke_c	c	n/a
637.78	0.045	1275560	keystroke_a	a	n/a
638.47	0.075	1276940	keystroke_Key.backspace	Key.backspace	n/a
638.62	0.09	1277240	keystroke_Key.backspace	Key.backspace	n/a
638.77	0.105	1277540	keystroke_Key.backspace	Key.backspace	n/a
639.04	0.09	1278080	keystroke_c	c	n/a
639.295	0.12	1278590	keystroke_a	a	n/a
642.5675	0.058	1285135	keystroke_Key.backspace	Key.backspace	n/a
642.7755	0.06	1285551	keystroke_Key.backspace	Key.backspace	n/a
643.0155	0.06	1286031	keystroke_Key.backspace	Key.backspace	n/a
643.2105	0.06	1286421	keystroke_Key.backspace	Key.backspace	n/a
643.4955	0.135	1286991	keystroke_c	c	n/a
643.9455	0.105	1287891	keystroke_t	t	n/a
644.0655	0.09	1288131	keystroke_i	i	n/a
644.3055	0.12	1288611	keystroke_c	c	n/a
644.6055	0.09	1289211	keystroke_a	a	n/a
644.8755	0.12	1289751	keystroke_Key.enter	Key.enter	n/a
645.0025	9.8795	1290005	prompt	n/a	points casa sophisticated dodge\n
645.9705	0.105	1291941	keystroke_p	p	n/a
646.1655	0.15	1292331	keystroke_o	o	n/a
646.2705	0.18	1292541	keystroke_i	i	n/a
646.4205	0.165	1292841	keystroke_n	n	n/a
646.5705	0.09	1293141	keystroke_t	t	n/a
646.8555	0.15	1293711	keystroke_s	s	n/a
647.1555	0.105	1294311	keystroke_Key.space	Key.space	n/a
647.5155	0.135	1295031	keystroke_c	c	n/a
647.8005	0.12	1295601	keystroke_a	a	n/a
647.9805	0.18	1295961	keystroke_s	s	n/a
648.2055	0.12	1296411	keystroke_a	a	n/a
648.5055	0.135	1297011	keystroke_Key.space	Key.space	n/a
649.0755	0.12	1298151	keystroke_s	s	n/a
649.2405	0.12	1298481	keystroke_o	o	n/a
649.4205	0.15	1298841	keystroke_p	p	n/a
649.6905	0.15	1299381	keystroke_h	h	n/a
649.8555	0.15	1299711	keystroke_i	i	n/a
649.9905	0.1345	1299981	keystroke_s	s	n/a
650.7855	0.135	1301571	keystroke_t	t	n/a
650.9505	0.255	1301901	keystroke_i	i	n/a
651.2655	0.135	1302531	keystroke_c	c	n/a
651.5655	0.135	1303131	keystroke_a	a	n/a
651.7155	0.135	1303431	keystroke_t	t	n/a
651.9405	0.09	1303881	keystroke_e	e	n/a
652.2405	0.105	1304481	keystroke_d	d	n/a
652.4055	0.105	1304811	keystroke_Key.space	Key.space	n/a
652.6005	0.105	1305201	keystroke_d	d	n/a
652.6905	0.15	1305381	keystroke_o	o	n/a
653.7855	0.12	1307571	keystroke_d	d	n/a
654.0555	0.135	1308111	keystroke_g	g	n/a
654.1755	0.135	1308351	keystroke_e	e	n/a
654.7455	0.135	1309491	keystroke_Key.enter	Key.enter	n/a
654.8855	10.526	1309771	prompt	n/a	rational convenience bedrooms example\n
655.7955	0.195	1311591	keystroke_r	r	n/a
655.9605	0.09	1311921	keystroke_a	a	n/a
656.1405	0.09	1312281	keystroke_t	t	n/a
656.2755	0.195	1312551	keystroke_i	i	n/a
656.3955	0.135	1312791	keystroke_o	o	n/a
656.4555	0.135	1312911	keystroke_n	n	n/a
656.5605	0.135	1313121	keystroke_a	a	n/a
656.7255	0.15	1313451	keystroke_l	l	n/a
657.1305	0.12	1314261	keystroke_Key.space	Key.space	n/a
657.5205	0.18	1315041	keystroke_c	c	n/a
657.6105	0.165	1315221	keystroke_o	o	n/a
657.7605	0.195	1315521	keystroke_n	n	n/a
658.1205	0.09	1316241	keystroke_v	v	n/a
658.3155	0.12	1316631	keystroke_e	e	n/a
658.4655	0.09	1316931	keystroke_n	n	n/a
658.6605	0.12	1317321	keystroke_i	i	n/a
658.7355	0.105	1317471	keystroke_e	e	n/a
658.8705	0.12	1317741	keystroke_n	n	n/a
659.0655	0.135	1318131	keystroke_c	c	n/a
659.5155	0.045	1319031	keystroke_e	e	n/a
659.6055	0.12	1319211	keystroke_Key.space	Key.space	n/a
660.4905	0.105	1320981	keystroke_b	b	n/a
660.6705	0.105	1321341	keystroke_e	e	n/a
660.9255	0.105	1321851	keystroke_d	d	n/a
661.2255	0.12	1322451	keystroke_r	r	n/a
661.4655	0.06	1322931	keystroke_o	o	n/a
661.5855	0.15	1323171	keystroke_o	o	n/a
661.8105	0.135	1323621	keystroke_m	m	n/a
662.2005	0.105	1324401	keystroke_s	s	n/a
662.4255	0.105	1324851	keystroke_Key.space	Key.space	n/a
662.9055	0.09	1325811	keystroke_e	e	n/a
663.2205	0.12	1326441	keystroke_x	x	n/a
663.4905	0.105	1326981	keystroke_a	a	n/a
663.6705	0.09	1327341	keystroke_m	m	n/a
663.9105	0.12	1327821	keystroke_p	p	n/a
664.1805	0.24	1328361	keystroke_l	l	n/a
664.3005	0.165	1328601	keystroke_e	e	n/a
665.2905	0.12	1330581	keystroke_Key.enter	Key.enter	n/a
665.415	6.447	1330830	prompt	n/a	buying sept ralph fool\n
666.4155	0.12	1332831	keystroke_b	b	n/a
666.5505	0.105	1333101	keystroke_u	u	n/a
666.7455	0.12	1333491	keystroke_y	y	n/a
667.0155	0.135	1334031	keystroke_i	i	n/a
667.1205	0.12	1334241	keystroke_n	n	n/a
667.2255	0.135	1334451	keystroke_g	g	n/a
667.3905	0.09	1334781	keystroke_Key.space	Key.space	n/a
667.9755	0.105	1335951	keystroke_s	s	n/a
668.1855	0.105	1336371	keystroke_e	e	n/a
668.3355	0.135	1336671	keystroke_p	p	n/a
668.5905	0.135	1337181	keystroke_t	t	n/a
668.8755	0.09	1337751	keystroke_Key.space	Key.space	n/a
669.3555	0.18	1338711	keystroke_r	r	n/a
669.5055	0.09	1339011	keystroke_a	a	n/a
669.7005	0.165	1339401	keystroke_l	l	n/a
670.0155	0.15	1340031	keystroke_p	p	n/a
670.1505	0.195	1340301	keystroke_h	h	n/a
670.3305	0.12	1340661	keystroke_Key.space	Key.space	n/a
670.8705	0.12	1341741	keystroke_f	f	n/a
671.0505	0.075	1342101	keystroke_o	o	n/a
671.1855	0.135	1342371	keystroke_o	o	n/a
671.4555	0.15	1342911	keystroke_l	l	n/a
671.7555	0.105	1343511	keystroke_Key.enter	Key.enter	n/a
671.865	18.552	1343730	prompt	n/a	pubmed fighting reservations greensboro\n
675.4175	0.103	1350835	keystroke_p	p	n/a
675.5055	0.135	1351011	keystroke_u	u	n/a
675.9255	0.12	1351851	keystroke_b	b	n/a
676.2705	0.1645	1352541	keystroke_m	m	n/a
676.4805	0.09	1352961	keystroke_e	e	n/a
676.735	0.105	1353470	keystroke_d	d	n/a
677.38	0.09	1354760	keystroke_Key.space	Key.space	n/a
677.8	0.09	1355600	keystroke_f	f	n/a
679.585	0.24	1359170	keystroke_i	i	n/a
679.87	0.15	1359740	keystroke_g	g	n/a
680.05	0.165	1360100	keystroke_h	h	n/a
680.23	0.09	1360460	keystroke_t	t	n/a
680.335	0.165	1360670	keystroke_i	i	n/a
680.485	0.135	1360970	keystroke_n	n	n/a
680.635	0.03	1361270	keystroke_g	g	n/a
681.46	0.105	1362920	keystroke_Key.space	Key.space	n/a
681.986	0.15	1363972	keystroke_r	r	n/a
682.12	0.135	1364240	keystroke_e	e	n/a
682.63	0.12	1365260	keystroke_s	s	n/a
682.87	0.15	1365740	keystroke_e	e	n/a
682.975	0.135	1365950	keystroke_r	r	n/a
683.38	0.135	1366760	keystroke_v	v	n/a
683.665	0.135	1367330	keystroke_a	a	n/a
683.845	0.165	1367690	keystroke_t	t	n/a
683.98	0.196	1367960	keystroke_i	i	n/a
684.055	0.106	1368110	keystroke_o	o	n/a
684.1	0.151	1368200	keystroke_n	n	n/a
685.016	0.15	1370032	keystroke_s	s	n/a
685.211	0.09	1370422	keystroke_Key.space	Key.space	n/a
685.6605	0.1655	1371321	keystroke_r	r	n/a
685.916	0.1495	1371832	keystroke_e	e	n/a
686.6205	0.075	1373241	keystroke_Key.backspace	Key.backspace	n/a
686.74	0.12	1373480	keystroke_Key.backspace	Key.backspace	n/a
686.8755	0.105	1373751	keystroke_g	g	n/a
687.16	0.15	1374320	keystroke_r	r	n/a
687.3705	0.075	1374741	keystroke_e	e	n/a
687.535	0.1205	1375070	keystroke_e	e	n/a
687.835	0.165	1375670	keystroke_n	n	n/a
688.601	0.105	1377202	keystroke_s	s	n/a
689.036	0.135	1378072	keystroke_b	b	n/a
689.246	0.15	1378492	keystroke_o	o	n/a
689.426	0.09	1378852	keystroke_r	r	n/a
689.531	0.135	1379062	keystroke_o	o	n/a
690.2805	0.135	1380561	keystroke_Key.enter	Key.enter	n/a
690.42	10.812	1380840	prompt	n/a	soap thesis endorsement studies\n
691.2105	0.135	1382421	keystroke_s	s	n/a
691.4655	0.18	1382931	keystroke_o	o	n/a
691.8405	0.135	1383681	keystroke_a	a	n/a
692.0355	0.15	1384071	keystroke_p	p	n/a
692.6355	0.09	1385271	keystroke_Key.space	Key.space	n/a
692.9805	0.12	1385961	keystroke_t	t	n/a
693.1455	0.15	1386291	keystroke_h	h	n/a
693.2655	0.12	1386531	keystroke_e	e	n/a
693.5205	0.09	1387041	keystroke_s	s	n/a
693.6115	0.119	1387223	keystroke_i	i	n/a
693.7455	0.12	1387491	keystroke_s	s	n/a
694.2405	0.09	1388481	keystroke_Key.space	Key.space	n/a
694.5255	0.12	1389051	keystroke_e	e	n/a
694.6605	0.135	1389321	keystroke_n	n	n/a
694.8105	0.09	1389621	keystroke_s	s	n/a
695.1855	0.15	1390371	keystroke_d	d	n/a
695.5755	0.21	1391151	keystroke_Key.backspace	Key.backspace	n/a
695.8605	0.12	1391721	keystroke_d	d	n/a
696.2055	0.06	1392411	keystroke_Key.backspace	Key.backspace	n/a
696.3555	0.075	1392711	keystroke_Key.backspace	Key.backspace	n/a
696.5505	0.105	1393101	keystroke_d	d	n/a
696.6705	0.15	1393341	keystroke_o	o	n/a
696.8805	0.075	1393761	keystroke_r	r	n/a
697.6755	0.015	1395351	keystroke_s	s	n/a
697.7055	0.135	1395411	keystroke_e	e	n/a
697.9755	0.09	1395951	keystroke_m	m	n/a
698.0505	0.105	1396101	keystroke_e	e	n/a
698.1705	0.09	1396341	keystroke_n	n	n/a
698.3205	0.03	1396641	keystroke_t	t	n/a
698.6955	0.105	1397391	keystroke_Key.space	Key.space	n/a
699.0255	0.105	1398051	keystroke_s	s	n/a
699.2655	0.075	1398531	keystroke_t	t	n/a
699.4455	0.135	1398891	keystroke_u	u	n/a
699.6255	0.12	1399251	keystroke_d	d	n/a
700.1805	0.15	1400361	keystroke_i	i	n/a
700.3155	0.12	1400631	keystroke_e	e	n/a
700.5705	0.135	1401141	keystroke_s	s	n/a
701.1105	0.12	1402221	keystroke_Key.enter	Key.enter	n/a
701.2375	42.648	1402475	prompt	n/a	birmingham length specializing scoring\n
702.1005	0.135	1404201	keystroke_b	b	n/a
702.3255	0.12	1404651	keystroke_i	i	n/a
702.4605	0.075	1404921	keystroke_r	r	n/a
