onset	duration	sample	value	key	prompt_text
6.828	12.453	13656	prompt	n/a	the quick brown fox jumps over a lazy dog\n
8.8185	0.042	17637	keystroke	t	n/a
8.8755	0.105	17751	keystroke	h	n/a
9.0255	0.135	18051	keystroke	e	n/a
9.7755	0.135	19551	keystroke	Key.space	n/a
10.1355	0.105	20271	keystroke	q	n/a
11.3815	0.105	22763	keystroke	u	n/a
11.6665	0.12	23333	keystroke	i	n/a
11.9655	0.166	23931	keystroke	c	n/a
12.1165	0.15	24233	keystroke	k	n/a
12.896	0.0745	25792	keystroke	Key.space	n/a
13.1215	0.164	26243	keystroke	f	n/a
13.2555	0.105	26511	keystroke	o	n/a
13.6455	0.12	27291	keystroke	x	n/a
13.8255	0.105	27651	keystroke	Key.space	n/a
14.0355	0.165	28071	keystroke	j	n/a
14.2015	0.105	28403	keystroke	o	n/a
14.5455	0.12	29091	keystroke	Key.backspace	n/a
14.8455	0.09	29691	keystroke	u	n/a
15.1005	0.105	30201	keystroke	m	n/a
15.2665	0.134	30533	keystroke	p	n/a
15.5505	0.135	31101	keystroke	s	n/a
15.7455	0.12	31491	keystroke	Key.space	n/a
16.0005	0.135	32001	keystroke	o	n/a
16.1955	0.12	32391	keystroke	v	n/a
16.3605	0.21	32721	keystroke	e	n/a
16.5255	0.12	33051	keystroke	r	n/a
16.6155	0.105	33231	keystroke	Key.space	n/a
16.7805	0.135	33561	keystroke	a	n/a
16.8705	0.106	33741	keystroke	Key.space	n/a
17.111	0.12	34222	keystroke	l	n/a
17.186	0.15	34372	keystroke	a	n/a
17.516	0.18	35032	keystroke	z	n/a
17.726	0.105	35452	keystroke	y	n/a
18.071	0.09	36142	keystroke	Key.space	n/a
18.476	0.15	36952	keystroke	d	n/a
18.581	0.12	37162	keystroke	o	n/a
18.896	0.12	37792	keystroke	g	n/a
19.196	0.075	38392	keystroke	Key.enter	n/a
19.287	9.474	38574	prompt	n/a	comfort meditation airports appeal\n
20.111	0.135	40222	keystroke	c	n/a
20.171	0.12	40342	keystroke	o	n/a
20.381	0.0745	40762	keystroke	m	n/a
21.2805	0.135	42561	keystroke	f	n/a
21.3855	0.105	42771	keystroke	o	n/a
21.5505	0.105	43101	keystroke	r	n/a
21.7755	0.12	43551	keystroke	t	n/a
22.1655	0.09	44331	keystroke	Key.space	n/a
22.5855	0.105	45171	keystroke	m	n/a
22.8105	0.09	45621	keystroke	e	n/a
23.0655	0.15	46131	keystroke	d	n/a
23.2005	0.105	46401	keystroke	i	n/a
23.6515	0.165	47303	keystroke	t	n/a
23.8315	0.12	47663	keystroke	a	n/a
23.9365	0.15	47873	keystroke	t	n/a
24.0715	0.225	48143	keystroke	i	n/a
24.1765	0.135	48353	keystroke	o	n/a
24.4015	0.105	48803	keystroke	n	n/a
24.8065	0.104	49613	keystroke	Key.space	n/a
25.0765	0.105	50153	keystroke	a	n/a
25.2705	0.121	50541	keystroke	i	n/a
25.4665	0.105	50933	keystroke	r	n/a
25.7205	0.075	51441	keystroke	p	n/a
25.9005	0.121	51801	keystroke	o	n/a
26.0365	0.09	52073	keystroke	r	n/a
26.2755	0.121	52551	keystroke	t	n/a
26.5305	0.151	53061	keystroke	s	n/a
26.6955	0.076	53391	keystroke	Key.space	n/a
27.0405	0.09	54081	keystroke	a	n/a
27.3705	0.135	54741	keystroke	p	n/a
27.5805	0.09	55161	keystroke	p	n/a
27.6855	0.12	55371	keystroke	e	n/a
27.8805	0.12	55761	keystroke	a	n/a
28.0905	0.12	56181	keystroke	l	n/a
28.646	0.105	57292	keystroke	Key.enter	n/a
28.766	11.7555	57532	prompt	n/a	colin attract explicitly manufacture\n
29.441	0.15	58882	keystroke	c	n/a
29.546	0.12	59092	keystroke	o	n/a
29.801	0.18	59602	keystroke	l	n/a
30.071	0.135	60142	keystroke	i	n/a
30.341	0.12	60682	keystroke	n	n/a
30.506	0.075	61012	keystroke	Key.space	n/a
30.776	0.15	61552	keystroke	a	n/a
31.211	0.12	62422	keystroke	t	n/a
31.481	0.105	62962	keystroke	t	n/a
31.721	0.21	63442	keystroke	r	n/a
31.916	0.12	63832	keystroke	a	n/a
32.186	0.165	64372	keystroke	c	n/a
32.471	0.135	64942	keystroke	t	n/a
32.636	0.105	65272	keystroke	Key.space	n/a
32.861	0.12	65722	keystroke	e	n/a
33.116	0.15	66232	keystroke	x	n/a
33.251	0.105	66502	keystroke	p	n/a
33.476	0.21	66952	keystroke	l	n/a
33.611	0.09	67222	keystroke	i	n/a
33.836	0.135	67672	keystroke	c	n/a
33.956	0.105	67912	keystroke	i	n/a
34.586	0.12	69172	keystroke	t	n/a
35.426	0.105	70852	keystroke	l	n/a
35.6965	0.12	71393	keystroke	y	n/a
35.9215	0.09	71843	keystroke	Key.space	n/a
36.2215	0.09	72443	keystroke	m	n/a
36.6565	0.104	73313	keystroke	a	n/a
37.0615	0.105	74123	keystroke	n	n/a
37.3765	0.0895	74753	keystroke	u	n/a
37.871	0.165	75742	keystroke	f	n/a
38.066	0.12	76132	keystroke	a	n/a
38.306	0.135	76612	keystroke	c	n/a
39.0715	0.1345	78143	keystroke	t	n/a
39.476	0.105	78952	keystroke	u	n/a
39.626	0.15	79252	keystroke	r	n/a
39.761	0.105	79522	keystroke	e	n/a
40.451	0.06	80902	keystroke	Key.enter	n/a
40.5265	9.31	81053	prompt	n/a	decor variables bulgaria misc\n
41.141	0.12	82282	keystroke	d	n/a
41.336	0.105	82672	keystroke	e	n/a
41.6065	0.165	83213	keystroke	c	n/a
41.7865	0.09	83573	keystroke	o	n/a
42.0415	0.104	84083	keystroke	r	n/a
42.2355	0.075	84471	keystroke	Key.space	n/a
42.821	0.1505	85642	keystroke	v	n/a
43.0015	0.165	86003	keystroke	a	n/a
43.1965	0.135	86393	keystroke	r	n/a
43.3315	0.1195	86663	keystroke	i	n/a
43.511	0.105	87022	keystroke	a	n/a
43.811	0.105	87622	keystroke	b	n/a
43.961	0.12	87922	keystroke	l	n/a
44.066	0.135	88132	keystroke	e	n/a
44.2905	0.09	88581	keystroke	Key.space	n/a
45.2805	0.12	90561	keystroke	Key.backspace	n/a
45.4305	0.15	90861	keystroke	s	n/a
45.971	0.09	91942	keystroke	Key.space	n/a
46.181	0.15	92362	keystroke	b	n/a
46.376	0.105	92752	keystroke	u	n/a
47.051	0.075	94102	keystroke	l	n/a
47.246	0.09	94492	keystroke	g	n/a
47.4415	0.165	94883	keystroke	a	n/a
47.6065	0.135	95213	keystroke	r	n/a
47.8015	0.09	95603	keystroke	i	n/a
48.326	0.1045	96652	keystroke	a	n/a
48.566	0.09	97132	keystroke	Key.space	n/a
48.7905	0.1355	97581	keystroke	m	n/a
48.911	0.09	97822	keystroke	i	n/a
49.076	0.135	98152	keystroke	s	n/a
49.436	0.12	98872	keystroke	c	n/a
49.7355	0.09	99471	keystroke	Key.enter	n/a
49.8445	9.9365	99689	prompt	n/a	answered indie called pennsylvania\n
50.441	0.12	100882	keystroke	a	n/a
50.7115	0.105	101423	keystroke	n	n/a
50.9815	0.1195	101963	keystroke	s	n/a
51.251	0.195	102502	keystroke	w	n/a
51.341	0.24	102682	keystroke	e	n/a
51.536	0.18	103072	keystroke	r	n/a
51.671	0.135	103342	keystroke	e	n/a
51.956	0.1355	103912	keystroke	d	n/a
52.1055	0.09	104211	keystroke	Key.space	n/a
52.2855	0.1355	104571	keystroke	i	n/a
52.4355	0.105	104871	keystroke	n	n/a
52.6155	0.12	105231	keystroke	d	n/a
52.7205	0.105	105441	keystroke	i	n/a
52.9005	0.12	105801	keystroke	e	n/a
53.1105	0.105	106221	keystroke	Key.space	n/a
53.3955	0.1055	106791	keystroke	c	n/a
53.5455	0.12	107091	keystroke	a	n/a
53.6955	0.075	107391	keystroke	l	n/a
53.876	0.105	107752	keystroke	l	n/a
53.951	0.12	107902	keystroke	e	n/a
54.191	0.12	108382	keystroke	d	n/a
54.326	0.105	108652	keystroke	Key.space	n/a
54.686	0.09	109372	keystroke	p	n/a
54.836	0.135	109672	keystroke	e	n/a
55.196	0.09	110392	keystroke	n	n/a
55.466	0.06	110932	keystroke	n	n/a
55.9905	0.105	111981	keystroke	Key.backspace	n/a
56.7855	0.075	113571	keystroke	n	n/a
57.1755	0.15	114351	keystroke	s	n/a
57.3405	0.105	114681	keystroke	y	n/a
57.9555	0.09	115911	keystroke	l	n/a
58.4505	0.2105	116901	keystroke	v	n/a
58.5705	0.1205	117141	keystroke	a	n/a
58.811	0.15	117622	keystroke	n	n/a
59.051	0.105	118102	keystroke	i	n/a
59.4255	0.121	118851	keystroke	a	n/a
59.6805	0.09	119361	keystroke	Key.enter	n/a
59.7855	10.5115	119571	prompt	n/a	descending passage substances dependence\n
60.6115	0.089	121223	keystroke	d	n/a
60.8055	0.105	121611	keystroke	e	n/a
61.0155	0.09	122031	keystroke	s	n/a
61.2105	0.09	122421	keystroke	c	n/a
61.4205	0.121	122841	keystroke	e	n/a
61.5705	0.105	123141	keystroke	n	n/a
61.7805	0.105	123561	keystroke	d	n/a
61.8705	0.121	123741	keystroke	i	n/a
62.0965	0.12	124193	keystroke	n	n/a
62.2315	0.15	124463	keystroke	g	n/a
62.3665	0.075	124733	keystroke	Key.space	n/a
62.5315	0.09	125063	keystroke	p	n/a
62.651	0.18	125302	keystroke	a	n/a
62.906	0.105	125812	keystroke	s	n/a
63.101	0.165	126202	keystroke	s	n/a
63.236	0.15	126472	keystroke	a	n/a
63.491	0.105	126982	keystroke	g	n/a
63.671	0.135	127342	keystroke	e	n/a
63.821	0.075	127642	keystroke	Key.space	n/a
64.046	0.12	128092	keystroke	s	n/a
64.181	0.09	128362	keystroke	u	n/a
64.346	0.135	128692	keystroke	b	n/a
64.646	0.135	129292	keystroke	s	n/a
64.826	0.135	129652	keystroke	t	n/a
65.036	0.09	130072	keystroke	a	n/a
65.1855	0.105	130371	keystroke	n	n/a
65.3655	0.105	130731	keystroke	c	n/a
65.5905	0.12	131181	keystroke	e	n/a
65.801	0.105	131602	keystroke	s	n/a
65.921	0.06	131842	keystroke	Key.space	n/a
66.086	0.075	132172	keystroke	d	n/a
66.266	0.1195	132532	keystroke	e	n/a
66.3705	0.135	132741	keystroke	p	n/a
66.5955	0.12	133191	keystroke	e	n/a
66.7455	0.09	133491	keystroke	n	n/a
66.9405	0.105	133881	keystroke	c	n/a
67.5115	0.089	135023	keystroke	e	n/a
68.666	0.105	137332	keystroke	Key.backspace	n/a
68.951	0.075	137902	keystroke	Key.backspace	n/a
69.311	0.06	138622	keystroke	d	n/a
69.506	0.09	139012	keystroke	e	n/a
69.611	0.06	139222	keystroke	n	n/a
69.791	0.09	139582	keystroke	c	n/a
70.001	0.12	140002	keystroke	e	n/a
70.1955	0.09	140391	keystroke	Key.enter	n/a
70.3025	16.538	140605	prompt	n/a	remaining devoted slowly veterinary\n
71.0205	0.165	142041	keystroke	r	n/a
71.1255	0.15	142251	keystroke	e	n/a
71.3505	0.135	142701	keystroke	m	n/a
71.5005	0.12	143001	keystroke	a	n/a
71.6055	0.135	143211	keystroke	i	n/a
71.8455	0.105	143691	keystroke	n	n/a
72.4905	0.045	144981	keystroke	i	n/a
72.701	0.09	145402	keystroke	n	n/a
72.9705	0.09	145941	keystroke	g	n/a
73.5555	0.0905	147111	keystroke	Key.space	n/a
73.946	0.105	147892	keystroke	d	n/a
74.141	0.1045	148282	keystroke	e	n/a
74.3505	0.12	148701	keystroke	v	n/a
74.5005	0.06	149001	keystroke	o	n/a
74.906	0.0895	149812	keystroke	t	n/a
75.1005	0.12	150201	keystroke	e	n/a
75.461	0.135	150922	keystroke	s	n/a
75.8955	0.105	151791	keystroke	Key.space	n/a
76.225	0.1355	152450	keystroke	s	n/a
76.6455	0.135	153291	keystroke	l	n/a
76.9005	0.1205	153801	keystroke	o	n/a
77.036	0.104	154072	keystroke	w	n/a
77.5755	0.1055	155151	keystroke	l	n/a
78.086	0.135	156172	keystroke	y	n/a
79.0005	0.06	158001	keystroke	Key.backspace	n/a
79.1655	0.075	158331	keystroke	Key.backspace	n/a
79.3305	0.075	158661	keystroke	Key.backspace	n/a
79.5105	0.045	159021	keystroke	Key.backspace	n/a
79.66	0.076	159320	keystroke	Key.backspace	n/a
79.811	0.105	159622	keystroke	Key.backspace	n/a
80.036	0.03	160072	keystroke	Key.backspace	n/a
80.171	0.045	160342	keystroke	Key.backspace	n/a
80.6805	0.15	161361	keystroke	d	n/a
80.8005	0.105	161601	keystroke	Key.space	n/a
81.0105	0.1355	162021	keystroke	s	n/a
81.131	0.105	162262	keystroke	l	n/a
81.341	0.12	162682	keystroke	o	n/a
81.476	0.105	162952	keystroke	w	n/a
81.761	0.105	163522	keystroke	l	n/a
81.956	0.105	163912	keystroke	y	n/a
82.196	0.09	164392	keystroke	Key.space	n/a
82.811	0.12	165622	keystroke	v	n/a
82.976	0.21	165952	keystroke	e	n/a
83.171	0.134	166342	keystroke	t	n/a
83.335	0.166	166670	keystroke	e	n/a
83.516	0.104	167032	keystroke	r	n/a
84.28	0.09	168560	keystroke	i	n/a
86.0055	0.12	172011	keystroke	n	n/a
86.1105	0.135	172221	keystroke	a	n/a
86.3055	0.15	172611	keystroke	r	n/a
86.4555	0.105	172911	keystroke	y	n/a
86.7555	0.075	173511	keystroke	Key.enter	n/a
86.848	8.8725	173696	prompt	n/a	silver brandon holdings operational\n
87.6105	0.12	175221	keystroke	s	n/a
87.9855	0.105	175971	keystroke	i	n/a
88.1955	0.105	176391	keystroke	l	n/a
88.3905	0.12	176781	keystroke	v	n/a
88.5555	0.2255	177111	keystroke	e	n/a
88.721	0.105	177442	keystroke	r	n/a
88.841	0.075	177682	keystroke	Key.space	n/a
89.021	0.09	178042	keystroke	b	n/a
89.246	0.15	178492	keystroke	r	n/a
89.381	0.09	178762	keystroke	a	n/a
89.546	0.12	179092	keystroke	n	n/a
89.741	0.1195	179482	keystroke	d	n/a
89.8755	0.105	179751	keystroke	o	n/a
90.0855	0.15	180171	keystroke	n	n/a
90.2805	0.09	180561	keystroke	Key.space	n/a
90.9405	0.135	181881	keystroke	h	n/a
91.0605	0.105	182121	keystroke	o	n/a
91.2705	0.12	182541	keystroke	l	n/a
91.8405	0.1205	183681	keystroke	d	n/a
92.051	0.12	184102	keystroke	i	n/a
92.291	0.09	184582	keystroke	n	n/a
92.426	0.105	184852	keystroke	g	n/a
92.636	0.12	185272	keystroke	s	n/a
92.785	0.0755	185570	keystroke	Key.space	n/a
93.3255	0.12	186651	keystroke	o	n/a
93.5505	0.09	187101	keystroke	p	n/a
93.8955	0.15	187791	keystroke	e	n/a
94.1655	0.15	188331	keystroke	r	n/a
94.4055	0.12	188811	keystroke	a	n/a
94.541	0.1345	189082	keystroke	t	n/a
94.6605	0.24	189321	keystroke	i	n/a
94.7805	0.135	189561	keystroke	o	n/a
94.9305	0.15	189861	keystroke	n	n/a
95.1555	0.12	190311	keystroke	a	n/a
95.2905	0.105	190581	keystroke	l	n/a
95.6355	0.075	191271	keystroke	Key.enter	n/a
95.7255	10.7995	191451	prompt	n/a	stanford measurements mounts would\n
96.325	0.15	192650	keystroke	s	n/a
96.565	0.1505	193130	keystroke	t	n/a
96.9105	0.075	193821	keystroke	n	n/a
97.2705	0.09	194541	keystroke	Key.backspace	n/a
97.3155	0.1505	194631	keystroke	a	n/a
97.541	0.105	195082	keystroke	n	n/a
97.691	0.119	195382	keystroke	f	n/a
97.826	0.119	195652	keystroke	o	n/a
97.975	0.091	195950	keystroke	r	n/a
98.276	0.12	196552	keystroke	d	n/a
98.441	0.119	196882	keystroke	Key.space	n/a
98.696	0.09	197392	keystroke	m	n/a
98.77	0.09	197540	keystroke	e	n/a
98.951	0.105	197902	keystroke	a	n/a
99.236	0.135	198472	keystroke	s	n/a
99.385	0.091	198770	keystroke	u	n/a
100.0455	0.12	200091	keystroke	r	n/a
100.6455	0.135	201291	keystroke	e	n/a
101.0505	0.12	202101	keystroke	m	n/a
101.2005	0.15	202401	keystroke	e	n/a
101.3505	0.105	202701	keystroke	n	n/a
101.4705	0.105	202941	keystroke	t	n/a
101.7705	0.15	203541	keystroke	s	n/a
102.0705	0.105	204141	keystroke	Key.space	n/a
102.3255	0.135	204651	keystroke	m	n/a
102.4305	0.21	204861	keystroke	o	n/a
102.6255	0.09	205251	keystroke	u	n/a
102.895	0.105	205790	keystroke	n	n/a
103.045	0.12	206090	keystroke	t	n/a
103.3005	0.12	206601	keystroke	s	n/a
103.466	0.104	206932	keystroke	Key.space	n/a
103.976	0.0595	207952	keystroke	w	n/a
104.0505	0.1505	208101	keystroke	o	n/a
104.155	0.106	208310	keystroke	u	n/a
104.396	0.09	208792	keystroke	l	n/a
105.251	0.119	210502	keystroke	d	n/a
106.405	0.1055	212810	keystroke	Key.enter	n/a
106.5335	11.047	213067	prompt	n/a	michigan watches models metropolitan\n
107.276	0.135	214552	keystroke	m	n/a
107.396	0.12	214792	keystroke	i	n/a
107.696	0.165	215392	keystroke	c	n/a
107.846	0.15	215692	keystroke	h	n/a
107.921	0.105	215842	keystroke	i	n/a
108.3855	0.1205	216771	keystroke	g	n/a
108.581	0.1495	217162	keystroke	a	n/a
109	0.091	218000	keystroke	n	n/a
109.7055	0.09	219411	keystroke	Key.space	n/a
110.02	0.1055	220040	keystroke	w	n/a
110.56	0.1205	221120	keystroke	a	n/a
110.6505	0.1055	221301	keystroke	t	n/a
110.966	0.134	221932	keystroke	c	n/a
111.085	0.045	222170	keystroke	h	n/a
111.25	0.1065	222500	keystroke	e	n/a
111.4765	0.1185	222953	keystroke	s	n/a
111.6105	0.105	223221	keystroke	Key.space	n/a
111.8505	0.12	223701	keystroke	m	n/a
111.9255	0.12	223851	keystroke	o	n/a
112.1505	0.09	224301	keystroke	d	n/a
112.3765	0.1045	224753	keystroke	e	n/a
112.5865	0.1045	225173	keystroke	l	n/a
113.0355	0.1195	226071	keystroke	s	n/a
113.411	0.089	226822	keystroke	Key.space	n/a
113.6665	0.119	227333	keystroke	m	n/a
113.8005	0.1805	227601	keystroke	e	n/a
113.9815	0.1495	227963	keystroke	t	n/a
114.191	0.119	228382	keystroke	r	n/a
114.3255	0.1055	228651	keystroke	o	n/a
114.7755	0.12	229551	keystroke	p	n/a
115.0305	0.1205	230061	keystroke	o	n/a
115.3005	0.18	230601	keystroke	l	n/a
115.4505	0.1205	230901	keystroke	i	n/a
115.6305	0.196	231261	keystroke	t	n/a
115.8105	0.121	231621	keystroke	a	n/a
115.9325	0.088	231865	keystroke	l	n/a
116.905	0.075	233810	keystroke	Key.backspace	n/a
117.221	0.059	234442	keystroke	n	n/a
117.505	0.0605	235010	keystroke	Key.enter	n/a
117.588	15.8895	235176	prompt	n/a	rats labs computing diagnostic\n
118.4655	0.105	236931	keystroke	r	n/a
118.5555	0.1805	237111	keystroke	a	n/a
118.991	0.1495	237982	keystroke	t	n/a
119.875	0.135	239750	keystroke	s	n/a
120.13	0.105	240260	keystroke	Key.space	n/a
120.37	0.106	240740	keystroke	l	n/a
120.445	0.1355	240890	keystroke	a	n/a
120.8655	0.1045	241731	keystroke	b	n/a
121.12	0.12	242240	keystroke	s	n/a
121.4205	0.0895	242841	keystroke	Key.space	n/a
121.6905	0.1195	243381	keystroke	c	n/a
121.795	0.1055	243590	keystroke	o	n/a
121.9605	0.12	243921	keystroke	m	n/a
122.141	0.165	244282	keystroke	p	n/a
122.261	0.105	244522	keystroke	u	n/a
122.486	0.105	244972	keystroke	t	n/a
122.651	0.209	245302	keystroke	e	n/a
122.8	0.105	245600	keystroke	r	n/a
123.6105	0.09	247221	keystroke	Key.backspace	n/a
123.85	0.1355	247700	keystroke	Key.backspace	n/a
126.1785	0.042	252357	keystroke	t	n/a
126.475	0.0905	252950	keystroke	Key.backspace	n/a
126.746	0.104	253492	keystroke	i	n/a
126.955	0.075	253910	keystroke	n	n/a
128.3355	0.12	256671	keystroke	g	n/a
128.575	0.1205	257150	keystroke	Key.space	n/a
128.9055	0.15	257811	keystroke	d	n/a
129.0855	0.105	258171	keystroke	i	n/a
129.4155	0.1195	258831	keystroke	a	n/a
129.596	0.135	259192	keystroke	g	n/a
130.601	0.209	261202	keystroke	n	n/a
130.7655	0.0895	261531	keystroke	o	n/a
131.125	0.151	262250	keystroke	s	n/a
131.86	0.12	263720	keystroke	t	n/a
132.07	0.12	264140	keystroke	i	n/a
132.6555	0.045	265311	keystroke	s	n/a
132.985	0.106	265970	keystroke	Key.backspace	n/a
133.061	0.119	266122	keystroke	c	n/a
133.435	0.03	266870	keystroke	Key.enter	n/a
133.4855	17.6195	266971	prompt	n/a	oliver deleted mask delete\n
142.228	0.012	284456	keystroke	o	n/a
142.3465	0.1935	284693	keystroke	l	n/a
142.4655	0.105	284931	keystroke	i	n/a
142.66	0.135	285320	keystroke	v	n/a
142.812	0.2535	285624	keystroke	e	n/a
143.0055	0.12	286011	keystroke	r	n/a
143.0955	0.135	286191	keystroke	Key.space	n/a
144.28	0.12	288560	keystroke	d	n/a
144.505	0.1205	289010	keystroke	e	n/a
144.686	0.1345	289372	keystroke	l	n/a
144.79	0.211	289580	keystroke	e	n/a
144.9555	0.135	289911	keystroke	t	n/a
145.105	0.135	290210	keystroke	e	n/a
145.36	0.1355	290720	keystroke	d	n/a
145.48	0.105	290960	keystroke	Key.space	n/a
145.811	0.1345	291622	keystroke	m	n/a
145.9305	0.12	291861	keystroke	a	n/a
146.0945	0.136	292189	keystroke	s	n/a
146.3205	0.12	292641	keystroke	k	n/a
147.01	0.1355	294020	keystroke	Key.space	n/a
147.1755	0.1045	294351	keystroke	d	n/a
147.3705	0.15	294741	keystroke	e	n/a
147.46	0.12	294920	keystroke	l	n/a
147.685	0.195	295370	keystroke	e	n/a
147.97	0.12	295940	keystroke	t	n/a
148.3305	0.1205	296661	keystroke	e	n/a
148.855	0.105	297710	keystroke	d	n/a
151.077	0.0135	302154	keystroke	Key.enter	n/a
151.112	23.6575	302224	prompt	n/a	listed christopher resource honduras\n
152.2605	0.149	304521	keystroke	l	n/a
152.35	0.1055	304700	keystroke	i	n/a
152.4855	0.1795	304971	keystroke	s	n/a
152.62	0.18	305240	keystroke	t	n/a
152.77	0.105	305540	keystroke	e	n/a
153.0105	0.135	306021	keystroke	d	n/a
153.1605	0.0595	306321	keystroke	Key.space	n/a
153.7305	0.1495	307461	keystroke	c	n/a
153.865	0.0905	307730	keystroke	h	n/a
154.1055	0.1045	308211	keystroke	r	n/a
154.3	0.09	308600	keystroke	i	n/a
154.4655	0.15	308931	keystroke	s	n/a
155.9055	0.1345	311811	keystroke	t	n/a
156.07	0.091	312140	keystroke	o	n/a
169.4225	0.073	338845	keystroke	p	n/a
169.5105	0.165	339021	keystroke	h	n/a
169.9305	0.15	339861	keystroke	e	n/a
170.2005	0.12	340401	keystroke	r	n/a
170.3805	0.09	340761	keystroke	Key.space	n/a
170.545	0.15	341090	keystroke	r	n/a
170.635	0.15	341270	keystroke	e	n/a
170.92	0.165	341840	keystroke	s	n/a
171.1	0.18	342200	keystroke	o	n/a
171.22	0.075	342440	keystroke	u	n/a
171.6255	0.09	343251	keystroke	r	n/a
172.0155	0.03	344031	keystroke	c	n/a
172.2405	0.135	344481	keystroke	e	n/a
172.5855	0.09	345171	keystroke	Key.space	n/a
172.8855	0.15	345771	keystroke	h	n/a
173.0505	0.105	346101	keystroke	o	n/a
173.2905	0.105	346581	keystroke	n	n/a
173.4255	0.165	346851	keystroke	d	n/a
173.5755	0.12	347151	keystroke	u	n/a
173.935	0.12	347870	keystroke	r	n/a
174.16	0.1355	348320	keystroke	a	n/a
174.4145	0.106	348829	keystroke	s	n/a
174.7005	0.06	349401	keystroke	Key.enter	n/a
174.774	11.83	349548	prompt	n/a	raymond forecast fascinating guys\n
176.05	0.1805	352100	keystroke	r	n/a
176.2155	0.105	352431	keystroke	a	n/a
176.3655	0.12	352731	keystroke	y	n/a
176.6355	0.12	353271	keystroke	m	n/a
176.8155	0.135	353631	keystroke	o	n/a
177.0405	0.12	354081	keystroke	n	n/a
177.2205	0.135	354441	keystroke	d	n/a
177.94	0.06	355880	keystroke	Key.space	n/a
178.225	0.1355	356450	keystroke	f	n/a
178.3455	0.12	356691	keystroke	o	n/a
178.5255	0.135	357051	keystroke	r	n/a
178.7655	0.09	357531	keystroke	e	n/a
179.0355	0.12	358071	keystroke	c	n/a
179.245	0.12	358490	keystroke	a	n/a
179.485	0.18	358970	keystroke	s	n/a
179.74	0.12	359480	keystroke	t	n/a
180.04	0.105	360080	keystroke	Key.space	n/a
180.595	0.18	361190	keystroke	f	n/a
180.76	0.135	361520	keystroke	a	n/a
181.03	0.105	362060	keystroke	s	n/a
181.375	0.105	362750	keystroke	c	n/a
181.555	0.1045	363110	keystroke	i	n/a
182.7105	0.104	365421	keystroke	n	n/a
182.8295	0.151	365659	keystroke	a	n/a
182.9955	0.135	365991	keystroke	t	n/a
183.1145	0.121	366229	keystroke	i	n/a
183.4	0.135	366800	keystroke	n	n/a
183.625	0.12	367250	keystroke	g	n/a
183.805	0.06	367610	keystroke	Key.space	n/a
184.075	0.105	368150	keystroke	g	n/a
184.285	0.12	368570	keystroke	y	n/a
185.005	0.12	370010	keystroke	Key.backspace	n/a
185.29	0.105	370580	keystroke	u	n/a
185.515	0.105	371030	keystroke	y	n/a
185.71	0.15	371420	keystroke	s	n/a
186.52	0.075	373040	keystroke	Key.enter	n/a
186.6085	11.6205	373217	prompt	n/a	largely sweden delivers precipitation\n
187.315	0.045	374630	keystroke	l	n/a
187.39	0.165	374780	keystroke	a	n/a
187.93	0.105	375860	keystroke	r	n/a
188.17	0.2095	376340	keystroke	g	n/a
188.3045	0.165	376609	keystroke	e	n/a
188.4845	0.105	376969	keystroke	l	n/a
188.755	0.135	377510	keystroke	y	n/a
188.875	0.12	377750	keystroke	Key.space	n/a
189.13	0.1945	378260	keystroke	s	n/a
189.265	0.1195	378530	keystroke	e	n/a
190.12	0.09	380240	keystroke	Key.backspace	n/a
190.285	0.1495	380570	keystroke	w	n/a
190.405	0.1355	380810	keystroke	e	n/a
190.6905	0.105	381381	keystroke	d	n/a
191.0055	0.015	382011	keystroke	e	n/a
191.1255	0.165	382251	keystroke	n	n/a
191.3205	0.09	382641	keystroke	Key.space	n/a
191.5005	0.12	383001	keystroke	d	n/a
191.71	0.12	383420	keystroke	e	n/a
192.34	0.165	384680	keystroke	l	n/a
192.46	0.09	384920	keystroke	i	n/a
192.97	0.105	385940	keystroke	v	n/a
193.15	0.225	386300	keystroke	e	n/a
193.3	0.12	386600	keystroke	r	n/a
193.54	0.15	387080	keystroke	s	n/a
194.23	0.09	388460	keystroke	Key.space	n/a
194.4695	0.105	388939	keystroke	p	n/a
194.6495	0.18	389299	keystroke	r	n/a
194.7845	0.09	389569	keystroke	e	n/a
195.2645	0.106	390529	keystroke	c	n/a
195.4445	0.136	390889	keystroke	i	n/a
195.7595	0.09	391519	keystroke	p	n/a
196.1045	0.12	392209	keystroke	i	n/a
196.4505	0.105	392901	keystroke	t	n/a
196.6595	0.135	393319	keystroke	a	n/a
196.7805	0.1345	393561	keystroke	t	n/a
196.8845	0.2855	393769	keystroke	i	n/a
196.99	0.165	393980	keystroke	o	n/a
197.185	0.075	394370	keystroke	n	n/a
198.13	0.09	396260	keystroke	Key.enter	n/a
198.233	9.6105	396466	prompt	n/a	bacon vulnerability chad core\n
198.955	0.195	397910	keystroke	b	n/a
199.105	0.135	398210	keystroke	a	n/a
199.36	0.15	398720	keystroke	c	n/a
199.57	0.12	399140	keystroke	o	n/a
199.825	0.18	399650	keystroke	n	n/a
199.975	0.105	399950	keystroke	Key.space	n/a
200.215	0.135	400430	keystroke	v	n/a
200.335	0.105	400670	keystroke	u	n/a
200.545	0.105	401090	keystroke	l	n/a
200.785	0.09	401570	keystroke	n	n/a
202.9615	0.163	405923	keystroke	e	n/a
203.1395	0.1355	406279	keystroke	r	n/a
203.3795	0.09	406759	keystroke	a	n/a
203.965	0.135	407930	keystroke	b	n/a
204.295	0.105	408590	keystroke	i	n/a
204.535	0.1655	409070	keystroke	l	n/a
204.6245	0.106	409249	keystroke	i	n/a
204.7605	0.15	409521	keystroke	t	n/a
204.9405	0.12	409881	keystroke	y	n/a
205.1205	0.12	410241	keystroke	Key.space	n/a
205.4055	0.15	410811	keystroke	c	n/a
205.5105	0.12	411021	keystroke	h	n/a
205.66	0.105	411320	keystroke	a	n/a
205.9	0.135	411800	keystroke	d	n/a
206.7245	0.106	413449	keystroke	Key.space	n/a
207.0705	0.135	414141	keystroke	c	n/a
207.1745	0.091	414349	keystroke	o	n/a
207.3555	0.15	414711	keystroke	r	n/a
207.4745	0.12	414949	keystroke	e	n/a
207.7445	0.09	415489	keystroke	Key.enter	n/a
207.8485	10.525	415697	prompt	n/a	immigrants nested avenue buyer\n
208.4795	0.12	416959	keystroke	i	n/a
208.7055	0.074	417411	keystroke	m	n/a
208.8845	0.15	417769	keystroke	m	n/a
208.9895	0.15	417979	keystroke	i	n/a
209.2445	0.12	418489	keystroke	g	n/a
209.4845	0.195	418969	keystroke	r	n/a
209.6645	0.12	419329	keystroke	a	n/a
210.1145	0.105	420229	keystroke	n	n/a
210.3695	0.12	420739	keystroke	t	n/a
210.6095	0.135	421219	keystroke	s	n/a
210.7745	0.105	421549	keystroke	Key.space	n/a
210.9545	0.12	421909	keystroke	n	n/a
211.0445	0.105	422089	keystroke	e	n/a
211.2695	0.1205	422539	keystroke	s	n/a
211.585	0.105	423170	keystroke	e	n/a
211.81	0.135	423620	keystroke	d	n/a
211.885	0.105	423770	keystroke	Key.space	n/a
212.08	0.105	424160	keystroke	a	n/a
212.44	0.075	424880	keystroke	Key.backspace	n/a
212.635	0.075	425270	keystroke	Key.backspace	n/a
212.815	0.075	425630	keystroke	Key.backspace	n/a
213.025	0.105	426050	keystroke	Key.backspace	n/a
213.295	0.135	426590	keystroke	t	n/a
213.475	0.105	426950	keystroke	e	n/a
213.97	0.15	427940	keystroke	d	n/a
214.12	0.105	428240	keystroke	Key.space	n/a
214.39	0.09	428780	keystroke	v	n/a
214.72	0.12	429440	keystroke	Key.backspace	n/a
214.825	0.135	429650	keystroke	a	n/a
215.02	0.12	430040	keystroke	v	n/a
215.185	0.135	430370	keystroke	e	n/a
215.38	0.12	430760	keystroke	n	n/a
215.635	0.105	431270	keystroke	u	n/a
216.0695	0.151	432139	keystroke	e	n/a
216.2495	0.106	432499	keystroke	Key.space	n/a
216.5945	0.12	433189	keystroke	b	n/a
216.9395	0.12	433879	keystroke	u	n/a
217.1795	0.121	434359	keystroke	y	n/a
217.7805	0.21	435561	keystroke	e	n/a
217.9145	0.15	435829	keystroke	r	n/a
218.2745	0.09	436549	keystroke	Key.enter	n/a
218.378	12.3285	436756	prompt	n/a	russian merit assembly minneapolis\n
219.0545	0.135	438109	keystroke	r	n/a
219.2195	0.105	438439	keystroke	u	n/a
219.3395	0.105	438679	keystroke	s	n/a
219.5345	0.135	439069	keystroke	s	n/a
219.6545	0.12	439309	keystroke	i	n/a
219.8945	0.105	439789	keystroke	n	n/a
220.57	0.09	441140	keystroke	Key.backspace	n/a
220.675	0.135	441350	keystroke	a	n/a
220.87	0.165	441740	keystroke	n	n/a
221.02	0.12	442040	keystroke	Key.space	n/a
221.41	0.105	442820	keystroke	m	n/a
221.545	0.195	443090	keystroke	e	n/a
221.695	0.15	443390	keystroke	r	n/a
221.86	0.12	443720	keystroke	i	n/a
222.43	0.135	444860	keystroke	t	n/a
222.925	0.075	445850	keystroke	Key.space	n/a
223.15	0.105	446300	keystroke	a	n/a
223.36	0.075	446720	keystroke	s	n/a
223.525	0.12	447050	keystroke	s	n/a
223.75	0.105	447500	keystroke	e	n/a
223.93	0.12	447860	keystroke	m	n/a
224.275	0.06	448550	keystroke	b	n/a
224.83	0.135	449660	keystroke	l	n/a
225.16	0.105	450320	keystroke	y	n/a
225.4	0.09	450800	keystroke	Key.space	n/a
225.64	0.18	451280	keystroke	m	n/a
225.79	0.105	451580	keystroke	i	n/a
226.06	0.135	452120	keystroke	n	n/a
226.615	0.1345	453230	keystroke	n	n/a
226.8245	0.135	453649	keystroke	e	n/a
227.0495	0.12	454099	keystroke	a	n/a
228.0245	0.105	456049	keystroke	p	n/a
228.3845	0.09	456769	keystroke	o	n/a
228.5945	0.195	457189	keystroke	l	n/a
228.7445	0.12	457489	keystroke	i	n/a
228.9695	0.135	457939	keystroke	s	n/a
229.6445	0.09	459289	keystroke	Key.space	n/a
230.3045	0.09	460609	keystroke	Key.backspace	n/a
230.6195	0.075	461239	keystroke	Key.enter	n/a
230.7155	6.9255	461431	prompt	n/a	istanbul grams if enable\n
231.5645	0.135	463129	keystroke	i	n/a
231.7445	0.18	463489	keystroke	s	n/a
232.0745	0.195	464149	keystroke	t	n/a
232.2695	0.135	464539	keystroke	a	n/a
232.4345	0.15	464869	keystroke	n	n/a
232.9145	0.18	465829	keystroke	b	n/a
233.0345	0.12	466069	keystroke	u	n/a
233.2895	0.135	466579	keystroke	l	n/a
233.5745	0.105	467149	keystroke	Key.space	n/a
233.7695	0.15	467539	keystroke	g	n/a
234.0245	0.195	468049	keystroke	r	n/a
234.2045	0.09	468409	keystroke	a	n/a
234.4895	0.1205	468979	keystroke	m	n/a
234.685	0.164	469370	keystroke	s	n/a
235.464	0.105	470928	keystroke	Key.space	n/a
235.704	0.106	471408	keystroke	i	n/a
235.824	0.135	471648	keystroke	f	n/a
235.929	0.105	471858	keystroke	Key.space	n/a
236.185	0.194	472370	keystroke	e	n/a
236.394	0.121	472788	keystroke	n	n/a
236.529	0.121	473058	keystroke	a	n/a
236.799	0.12	473598	keystroke	b	n/a
237.0095	0.105	474019	keystroke	l	n/a
237.0995	0.12	474199	keystroke	e	n/a
237.5045	0.135	475009	keystroke	Key.enter	n/a
237.645	7.743	475290	prompt	n/a	concerns easter exhibits maintains\n
238.255	0.165	476510	keystroke	c	n/a
238.405	0.135	476810	keystroke	o	n/a
238.585	0.135	477170	keystroke	n	n/a
238.735	0.12	477470	keystroke	c	n/a
238.975	0.21	477950	keystroke	e	n/a
239.11	0.135	478220	keystroke	r	n/a
239.38	0.105	478760	keystroke	n	n/a
239.635	0.12	479270	keystroke	s	n/a
239.98	0.09	479960	keystroke	Key.space	n/a
240.205	0.15	480410	keystroke	e	n/a
240.43	0.165	480860	keystroke	a	n/a
240.64	0.135	481280	keystroke	s	n/a
240.835	0.12	481670	keystroke	t	n/a
241	0.225	482000	keystroke	e	n/a
241.18	0.09	482360	keystroke	r	n/a
241.285	0.09	482570	keystroke	Key.space	n/a
241.48	0.12	482960	keystroke	e	n/a
241.735	0.105	483470	keystroke	x	n/a
241.915	0.165	483830	keystroke	h	n/a
242.035	0.12	484070	keystroke	i	n/a
242.275	0.135	484550	keystroke	b	n/a
242.425	0.075	484850	keystroke	i	n/a
242.635	0.12	485270	keystroke	t	n/a
242.905	0.15	485810	keystroke	s	n/a
243.07	0.105	486140	keystroke	Key.space	n/a
243.31	0.15	486620	keystroke	m	n/a
243.4	0.105	486800	keystroke	a	n/a
243.535	0.12	487070	keystroke	i	n/a
243.64	0.12	487280	keystroke	n	n/a
243.85	0.135	487700	keystroke	t	n/a
244.045	0.105	488090	keystroke	a	n/a
244.39	0.105	488780	keystroke	i	n/a
244.6295	0.09	489259	keystroke	n	n/a
244.915	0.12	489830	keystroke	s	n/a
245.305	0.075	490610	keystroke	Key.enter	n/a
245.3925	7.7805	490785	prompt	n/a	enemies daddy fish antibodies\n
245.995	0.15	491990	keystroke	e	n/a
246.28	0.105	492560	keystroke	n	n/a
246.49	0.09	492980	keystroke	e	n/a
246.699	0.105	493398	keystroke	m	n/a
246.925	0.105	493850	keystroke	i	n/a
247.21	0.15	494420	keystroke	s	n/a
247.99	0.104	495980	keystroke	Key.backspace	n/a
248.259	0.1055	496518	keystroke	e	n/a
248.4845	0.15	496969	keystroke	s	n/a
248.664	0.12	497328	keystroke	Key.space	n/a
248.874	0.135	497748	keystroke	d	n/a
249.069	0.09	498138	keystroke	a	n/a
249.324	0.015	498648	keystroke	d	n/a
249.399	0.15	498798	keystroke	d	n/a
249.564	0.165	499128	keystroke	y	n/a
249.684	0.12	499368	keystroke	Key.space	n/a
249.909	0.12	499818	keystroke	f	n/a
249.999	0.1205	499998	keystroke	i	n/a
250.1495	0.15	500299	keystroke	s	n/a
250.3595	0.105	500719	keystroke	h	n/a
250.539	0.105	501078	keystroke	Key.space	n/a
250.8095	0.09	501619	keystroke	a	n/a
251.0195	0.12	502039	keystroke	n	n/a
251.1695	0.135	502339	keystroke	t	n/a
251.2895	0.105	502579	keystroke	i	n/a
251.6495	0.09	503299	keystroke	b	n/a
251.8295	0.12	503659	keystroke	o	n/a
252.1145	0.135	504229	keystroke	d	n/a
252.2645	0.105	504529	keystroke	i	n/a
252.4295	0.12	504859	keystroke	e	n/a
252.6545	0.12	505309	keystroke	s	n/a
253.0895	0.075	506179	keystroke	Key.enter	n/a
253.18	7.733	506360	prompt	n/a	quiet depending return jelsoft\n
253.9295	0.105	507859	keystroke	q	n/a
254.0645	0.195	508129	keystroke	u	n/a
254.2445	0.09	508489	keystroke	i	n/a
254.4245	0.225	508849	keystroke	e	n/a
254.6345	0.12	509269	keystroke	t	n/a
255.264	0.105	510528	keystroke	Key.space	n/a
255.6395	0.09	511279	keystroke	d	n/a
255.8345	0.12	511669	keystroke	e	n/a
255.9695	0.09	511939	keystroke	p	n/a
256.1045	0.135	512209	keystroke	e	n/a
256.2995	0.105	512599	keystroke	n	n/a
256.5245	0.105	513049	keystroke	d	n/a
256.7495	0.12	513499	keystroke	i	n/a
256.9745	0.135	513949	keystroke	n	n/a
257.1245	0.12	514249	keystroke	g	n/a
257.2145	0.105	514429	keystroke	Key.space	n/a
257.4095	0.12	514819	keystroke	r	n/a
257.4695	0.12	514939	keystroke	e	n/a
257.6495	0.135	515299	keystroke	t	n/a
257.8145	0.12	515629	keystroke	u	n/a
257.9795	0.075	515959	keystroke	r	n/a
258.1895	0.1645	516379	keystroke	n	n/a
258.339	0.12	516678	keystroke	Key.space	n/a
258.744	0.135	517488	keystroke	j	n/a
258.909	0.12	517818	keystroke	e	n/a
259.659	0.105	519318	keystroke	l	n/a
259.899	0.15	519798	keystroke	s	n/a
259.989	0.135	519978	keystroke	o	n/a
260.199	0.105	520398	keystroke	f	n/a
260.409	0.12	520818	keystroke	t	n/a
260.829	0.075	521658	keystroke	Key.enter	n/a
260.9195	9.6085	521839	prompt	n/a	hygiene calcium framed proven\n
261.609	0.105	523218	keystroke	h	n/a
261.879	0.135	523758	keystroke	y	n/a
262.2545	0.1045	524509	keystroke	h	n/a
262.569	0.12	525138	keystroke	e	n/a
262.899	0.075	525798	keystroke	Key.backspace	n/a
263.079	0.075	526158	keystroke	Key.backspace	n/a
263.229	0.15	526458	keystroke	g	n/a
263.679	0.0745	527358	keystroke	i	n/a
263.8735	0.12	527747	keystroke	e	n/a
264.0685	0.09	528137	keystroke	n	n/a
264.895	0.105	529790	keystroke	e	n/a
265.389	0.105	530778	keystroke	Key.space	n/a
265.689	0.12	531378	keystroke	c	n/a
265.929	0.12	531858	keystroke	a	n/a
266.064	0.075	532128	keystroke	l	n/a
266.289	0.12	532578	keystroke	c	n/a
266.41	0.089	532820	keystroke	i	n/a
267.0395	0.105	534079	keystroke	u	n/a
267.3545	0.135	534709	keystroke	m	n/a
267.5945	0.09	535189	keystroke	Key.space	n/a
267.8945	0.12	535789	keystroke	f	n/a
268.1195	0.165	536239	keystroke	r	n/a
268.2995	0.075	536599	keystroke	a	n/a
268.4045	0.105	536809	keystroke	m	n/a
268.5095	0.15	537019	keystroke	e	n/a
268.7795	0.135	537559	keystroke	d	n/a
268.9445	0.135	537889	keystroke	Key.space	n/a
269.319	0.105	538638	keystroke	p	n/a
269.439	0.135	538878	keystroke	r	n/a
269.589	0.075	539178	keystroke	o	n/a
269.829	0.105	539658	keystroke	v	n/a
269.979	0.12	539958	keystroke	e	n/a
270.204	0.105	540408	keystroke	n	n/a
270.444	0.075	540888	keystroke	Key.enter	n/a
270.535	19.538	541070	prompt	n/a	premises monroe theory teacher\n
271.179	0.105	542358	keystroke	p	n/a
271.299	0.195	542598	keystroke	r	n/a
271.449	0.09	542898	keystroke	e	n/a
271.674	0.12	543348	keystroke	s	n/a
272.199	0.06	544398	keystroke	Key.backspace	n/a
272.469	0.12	544938	keystroke	m	n/a
272.544	0.12	545088	keystroke	i	n/a
272.694	0.15	545388	keystroke	s	n/a
272.904	0.135	545808	keystroke	e	n/a
273.084	0.15	546168	keystroke	s	n/a
273.474	0.105	546948	keystroke	Key.space	n/a
273.699	0.135	547398	keystroke	m	n/a
273.789	0.135	547578	keystroke	o	n/a
273.999	0.075	547998	keystroke	n	n/a
274.179	0.105	548358	keystroke	r	n/a
274.254	0.12	548508	keystroke	o	n/a
274.449	0.09	548898	keystroke	w	n/a
274.8245	0.105	549649	keystroke	Key.space	n/a
275.0795	0.105	550159	keystroke	t	n/a
275.1995	0.09	550399	keystroke	h	n/a
275.3345	0.149	550669	keystroke	e	n/a
275.7845	0.12	551569	keystroke	o	n/a
275.9495	0.1195	551899	keystroke	r	n/a
276.144	0.09	552288	keystroke	y	n/a
276.504	0.09	553008	keystroke	Key.space	n/a
276.684	0.12	553368	keystroke	t	n/a
276.834	0.135	553668	keystroke	e	n/a
277.029	0.09	554058	keystroke	a	n/a
277.269	0.135	554538	keystroke	c	n/a
277.419	0.03	554838	keystroke	h	n/a
277.554	0.18	555108	keystroke	e	n/a
277.674	0.12	555348	keystroke	r	n/a
280.014	0.06	560028	keystroke	Key.backspace	n/a
280.209	0.06	560418	keystroke	Key.backspace	n/a
280.389	0.06	560778	keystroke	Key.backspace	n/a
280.5685	0.061	561137	keystroke	Key.backspace	n/a
280.7485	0.06	561497	keystroke	Key.backspace	n/a
280.9285	0.06	561857	keystroke	Key.backspace	n/a
281.0935	0.09	562187	keystroke	Key.backspace	n/a
281.2885	0.075	562577	keystroke	Key.backspace	n/a
281.4685	0.09	562937	keystroke	Key.backspace	n/a
282.3985	0.121	564797	keystroke	e	n/a
283.3135	0.105	566627	keystroke	Key.space	n/a
283.7185	0.136	567437	keystroke	t	n/a
283.8235	0.106	567647	keystroke	h	n/a
285.339	0.15	570678	keystroke	e	n/a
286.0135	0.165	572027	keystroke	h	n/a
286.4185	0.09	572837	keystroke	Key.backspace	n/a
286.704	0.105	573408	keystroke	o	n/a
286.9745	0.135	573949	keystroke	r	n/a
287.1545	0.105	574309	keystroke	y	n/a
287.874	0.105	575748	keystroke	Key.space	n/a
288.084	0.12	576168	keystroke	t	n/a
288.264	0.15	576528	keystroke	e	n/a
288.474	0.105	576948	keystroke	a	n/a
288.6685	0.15	577337	keystroke	c	n/a
288.8195	0.089	577639	keystroke	h	n/a
288.9985	0.165	577997	keystroke	e	n/a
289.1185	0.12	578237	keystroke	r	n/a
290.0045	0.06	580009	keystroke	Key.enter	n/a
290.078	6.8195	580156	prompt	n/a	brake clearly cooked united\n
291.0535	0.12	582107	keystroke	b	n/a
291.3085	0.18	582617	keystroke	r	n/a
291.4585	0.076	582917	keystroke	a	n/a
291.6385	0.105	583277	keystroke	k	n/a
291.7445	0.149	583489	keystroke	e	n/a
291.9085	0.09	583817	keystroke	Key.space	n/a
292.1185	0.105	584237	keystroke	c	n/a
292.5845	0.1195	585169	keystroke	l	n/a
292.719	0.12	585438	keystroke	e	n/a
292.959	0.09	585918	keystroke	a	n/a
293.034	0.075	586068	keystroke	r	n/a
293.364	0.105	586728	keystroke	l	n/a
293.649	0.12	587298	keystroke	y	n/a
293.784	0.09	587568	keystroke	Key.space	n/a
293.994	0.165	587988	keystroke	c	n/a
294.039	0.105	588078	keystroke	o	n/a
294.234	0.105	588468	keystroke	o	n/a
294.444	0.09	588888	keystroke	k	n/a
294.549	0.1045	589098	keystroke	e	n/a
294.7885	0.12	589577	keystroke	d	n/a
294.849	0.1195	589698	keystroke	Key.space	n/a
295.1635	0.075	590327	keystroke	u	n/a
295.3885	0.18	590777	keystroke	n	n/a
295.4935	0.12	590987	keystroke	i	n/a
295.6285	0.105	591257	keystroke	t	n/a
295.809	0.1195	591618	keystroke	e	n/a
296.1085	0.06	592217	keystroke	d	n/a
296.7995	0.09	593599	keystroke	Key.enter	n/a
296.9015	7.7435	593803	prompt	n/a	asus appointed musical rejected\n
297.6095	0.074	595219	keystroke	a	n/a
297.7735	0.121	595547	keystroke	s	n/a
297.9845	0.12	595969	keystroke	u	n/a
298.1935	0.105	596387	keystroke	s	n/a
298.4035	0.105	596807	keystroke	Key.space	n/a
298.6585	0.135	597317	keystroke	a	n/a
298.8235	0.09	597647	keystroke	p	n/a
299.0185	0.091	598037	keystroke	p	n/a
299.1835	0.195	598367	keystroke	o	n/a
299.3035	0.18	598607	keystroke	i	n/a
299.4985	0.12	598997	keystroke	n	n/a
299.6485	0.12	599297	keystroke	t	n/a
299.8595	0.104	599719	keystroke	e	n/a
300.1135	0.135	600227	keystroke	d	n/a
300.1585	0.105	600317	keystroke	Key.space	n/a
300.4735	0.09	600947	keystroke	m	n/a
300.6995	0.12	601399	keystroke	u	n/a
300.8035	0.121	601607	keystroke	s	n/a
300.9995	0.089	601999	keystroke	i	n/a
301.2085	0.121	602417	keystroke	c	n/a
301.9145	0.105	603829	keystroke	a	n/a
302.0645	0.18	604129	keystroke	l	n/a
302.2295	0.105	604459	keystroke	Key.space	n/a
302.4095	0.165	604819	keystroke	r	n/a
302.4995	0.119	604999	keystroke	e	n/a
302.7985	0.061	605597	keystroke	k	n/a
303.1445	0.074	606289	keystroke	Key.backspace	n/a
303.3835	0.105	606767	keystroke	j	n/a
303.4735	0.075	606947	keystroke	e	n/a
303.7145	0.134	607429	keystroke	c	n/a
303.9545	0.15	607909	keystroke	t	n/a
304.1045	0.09	608209	keystroke	e	n/a
304.3295	0.104	608659	keystroke	d	n/a
304.539	0.105	609078	keystroke	Key.enter	n/a
304.648	10.445	609296	prompt	n/a	referenced bahrain laden democrats\n
305.274	0.1495	610548	keystroke	r	n/a
305.349	0.1195	610698	keystroke	e	n/a
305.5885	0.15	611177	keystroke	f	n/a
305.7235	0.195	611447	keystroke	e	n/a
305.9935	0.12	611987	keystroke	e	n/a
306.2485	0.09	612497	keystroke	n	n/a
306.3835	0.09	612767	keystroke	c	n/a
306.654	0.075	613308	keystroke	Key.backspace	n/a
306.849	0.06	613698	keystroke	Key.backspace	n/a
307.014	0.075	614028	keystroke	Key.backspace	n/a
307.104	0.12	614208	keystroke	r	n/a
307.194	0.09	614388	keystroke	e	n/a
307.434	0.075	614868	keystroke	n	n/a
307.599	0.09	615198	keystroke	c	n/a
307.869	0.12	615738	keystroke	e	n/a
308.379	0.12	616758	keystroke	d	n/a
308.679	0.105	617358	keystroke	Key.space	n/a
309.069	0.15	618138	keystroke	b	n/a
309.309	0.105	618618	keystroke	a	n/a
309.549	0.135	619098	keystroke	h	n/a
309.954	0.1945	619908	keystroke	r	n/a
310.1185	0.105	620237	keystroke	a	n/a
310.809	0.165	621618	keystroke	i	n/a
311.094	0.15	622188	keystroke	n	n/a
311.214	0.12	622428	keystroke	Key.space	n/a
311.424	0.12	622848	keystroke	l	n/a
311.559	0.09	623118	keystroke	a	n/a
311.919	0.105	623838	keystroke	d	n/a
312.129	0.12	624258	keystroke	e	n/a
312.249	0.12	624498	keystroke	n	n/a
312.669	0.12	625338	keystroke	Key.space	n/a
312.969	0.105	625938	keystroke	d	n/a
313.164	0.135	626328	keystroke	e	n/a
313.284	0.165	626568	keystroke	m	n/a
313.419	0.12	626838	keystroke	o	n/a
313.8085	0.105	627617	keystroke	c	n/a
314.0185	0.225	628037	keystroke	r	n/a
314.1835	0.12	628367	keystroke	a	n/a
314.4085	0.12	628817	keystroke	t	n/a
314.7085	0.12	629417	keystroke	s	n/a
314.9935	0.09	629987	keystroke	Key.enter	n/a
315.097	6.798	630194	prompt	n/a	wallpapers starts aging almost\n
315.5485	0.045	631097	keystroke	r	n/a
315.8785	0.105	631757	keystroke	Key.backspace	n/a
315.9985	0.15	631997	keystroke	w	n/a
316.1185	0.12	632237	keystroke	a	n/a
316.3435	0.09	632687	keystroke	l	n/a
316.5385	0.105	633077	keystroke	l	n/a
316.8235	0.105	633647	keystroke	p	n/a
316.9885	0.15	633977	keystroke	a	n/a
317.1685	0.12	634337	keystroke	p	n/a
317.3635	0.195	634727	keystroke	e	n/a
317.4985	0.105	634997	keystroke	r	n/a
317.7535	0.165	635507	keystroke	s	n/a
317.9035	0.12	635807	keystroke	Key.space	n/a
318.1285	0.18	636257	keystroke	s	n/a
318.2785	0.135	636557	keystroke	t	n/a
318.4285	0.12	636857	keystroke	a	n/a
318.5635	0.09	637127	keystroke	r	n/a
318.7435	0.09	637487	keystroke	t	n/a
318.9685	0.135	637937	keystroke	s	n/a
319.1185	0.09	638237	keystroke	Key.space	n/a
319.629	0.1345	639258	keystroke	a	n/a
319.7785	0.135	639557	keystroke	g	n/a
319.8985	0.1195	639797	keystroke	i	n/a
320.1085	0.105	640217	keystroke	n	n/a
320.2735	0.15	640547	keystroke	g	n/a
320.3935	0.09	640787	keystroke	Key.space	n/a
320.6185	0.105	641237	keystroke	a	n/a
320.7085	0.12	641417	keystroke	l	n/a
321.0235	0.165	642047	keystroke	m	n/a
321.1435	0.12	642287	keystroke	o	n/a
321.3685	0.12	642737	keystroke	s	n/a
321.5935	0.12	643187	keystroke	t	n/a
321.8035	0.09	643607	keystroke	Key.enter	n/a
321.8995	6.7005	643799	prompt	n/a	walk category hood leone\n
322.839	0.044	645678	keystroke	w	n/a
322.898	0.15	645796	keystroke	a	n/a
323.258	0.1205	646516	keystroke	l	n/a
323.7535	0.09	647507	keystroke	k	n/a
323.9185	0.105	647837	keystroke	Key.space	n/a
324.2185	0.105	648437	keystroke	c	n/a
324.4135	0.135	648827	keystroke	a	n/a
324.5335	0.135	649067	keystroke	t	n/a
324.7135	0.18	649427	keystroke	e	n/a
324.8635	0.09	649727	keystroke	r	n/a
325.3135	0.075	650627	keystroke	Key.backspace	n/a
325.4335	0.12	650867	keystroke	g	n/a
325.5685	0.105	651137	keystroke	o	n/a
325.7035	0.105	651407	keystroke	r	n/a
325.8685	0.105	651737	keystroke	y	n/a
326.0485	0.09	652097	keystroke	Key.space	n/a
326.2585	0.09	652517	keystroke	h	n/a
326.3185	0.105	652637	keystroke	o	n/a
326.4835	0.135	652967	keystroke	o	n/a
326.6335	0.1495	653267	keystroke	d	n/a
326.784	0.119	653568	keystroke	Key.space	n/a
327.218	0.045	654436	keystroke	l	n/a
327.308	0.12	654616	keystroke	e	n/a
327.504	0.149	655008	keystroke	o	n/a
328.103	0.105	656206	keystroke	n	n/a
328.223	0.12	656446	keystroke	e	n/a
328.538	0.06	657076	keystroke	Key.enter	n/a
328.605	7.1125	657210	prompt	n/a	accessing boring nike roberts\n
329.199	0.105	658398	keystroke	a	n/a
329.529	0.12	659058	keystroke	c	n/a
329.844	0.015	659688	keystroke	c	n/a
329.949	0.1195	659898	keystroke	e	n/a
330.1435	0.09	660287	keystroke	s	n/a
330.3385	0.12	660677	keystroke	s	n/a
330.4435	0.12	660887	keystroke	i	n/a
330.5785	0.105	661157	keystroke	n	n/a
330.7285	0.105	661457	keystroke	g	n/a
330.8785	0.105	661757	keystroke	Key.space	n/a
331.2685	0.135	662537	keystroke	b	n/a
331.3885	0.09	662777	keystroke	o	n/a
331.6885	0.075	663377	keystroke	r	n/a
331.9135	0.09	663827	keystroke	i	n/a
332.1235	0.09	664247	keystroke	n	n/a
332.2735	0.105	664547	keystroke	g	n/a
332.3635	0.075	664727	keystroke	Key.space	n/a
332.5735	0.1505	665147	keystroke	n	n/a
332.694	0.09	665388	keystroke	i	n/a
332.919	0.12	665838	keystroke	k	n/a
333.024	0.105	666048	keystroke	e	n/a
333.519	0.105	667038	keystroke	Key.space	n/a
333.849	0.135	667698	keystroke	r	n/a
333.968	0.091	667936	keystroke	o	n/a
334.494	0.0895	668988	keystroke	b	n/a
334.689	0.195	669378	keystroke	e	n/a
334.809	0.12	669618	keystroke	r	n/a
335.034	0.09	670068	keystroke	t	n/a
335.259	0.15	670518	keystroke	s	n/a
335.633	0.076	671266	keystroke	Key.enter	n/a
335.7215	17.1405	671443	prompt	n/a	volunteers switzerland vocabulary clouds\n
336.3835	0.135	672767	keystroke	v	n/a
336.5035	0.06	673007	keystroke	o	n/a
336.6985	0.135	673397	keystroke	l	n/a
336.8485	0.09	673697	keystroke	u	n/a
337.0885	0.105	674177	keystroke	n	n/a
337.2085	0.09	674417	keystroke	t	n/a
337.389	0.12	674778	keystroke	e	n/a
337.629	0.165	675258	keystroke	e	n/a
337.734	0.135	675468	keystroke	r	n/a
338.109	0.135	676218	keystroke	s	n/a
338.394	0.06	676788	keystroke	Key.space	n/a
338.619	0.135	677238	keystroke	s	n/a
338.889	0.12	677778	keystroke	w	n/a
340.389	0.12	680778	keystroke	i	n/a
340.5385	0.135	681077	keystroke	t	n/a
341.4235	0.135	682847	keystroke	z	n/a
341.874	0.2095	683748	keystroke	e	n/a
342.0385	0.12	684077	keystroke	r	n/a
342.2635	0.075	684527	keystroke	a	n/a
343.5985	0.06	687197	keystroke	Key.backspace	n/a
344.019	0.1195	688038	keystroke	l	n/a
344.2435	0.075	688487	keystroke	a	n/a
344.3335	0.105	688667	keystroke	n	n/a
344.4835	0.165	688967	keystroke	d	n/a
344.6335	0.105	689267	keystroke	Key.space	n/a
344.9335	0.135	689867	keystroke	v	n/a
345.3235	0.075	690647	keystroke	o	n/a
345.5185	0.12	691037	keystroke	c	n/a
345.7585	0.09	691517	keystroke	a	n/a
346.7035	0.12	693407	keystroke	b	n/a
346.9585	0.1205	693917	keystroke	u	n/a
347.213	0.18	694426	keystroke	l	n/a
347.768	0.15	695536	keystroke	a	n/a
347.948	0.151	695896	keystroke	r	n/a
348.143	0.105	696286	keystroke	y	n/a
348.698	0.075	697396	keystroke	Key.space	n/a
349.058	0.135	698116	keystroke	c	n/a
349.208	0.075	698416	keystroke	l	n/a
349.418	0.12	698836	keystroke	o	n/a
349.583	0.09	699166	keystroke	w	n/a
349.823	0.105	699646	keystroke	u	n/a
350.303	0.06	700606	keystroke	Key.backspace	n/a
350.4685	0.0895	700937	keystroke	Key.backspace	n/a
350.663	0.12	701326	keystroke	u	n/a
350.9935	0.12	701987	keystroke	d	n/a
351.7735	0.135	703547	keystroke	s	n/a
352.7785	0.075	705557	keystroke	Key.enter	n/a
352.8665	11.1105	705733	prompt	n/a	celebrate farmer appointment prisoners\n
353.708	0.09	707416	keystroke	c	n/a
353.918	0.135	707836	keystroke	e	n/a
354.023	0.12	708046	keystroke	l	n/a
354.608	0.1505	709216	keystroke	e	n/a
355.0435	0.09	710087	keystroke	b	n/a
355.2985	0.165	710597	keystroke	r	n/a
355.4485	0.105	710897	keystroke	a	n/a
355.5385	0.15	711077	keystroke	t	n/a
355.7035	0.12	711407	keystroke	e	n/a
356.439	0.1345	712878	keystroke	Key.space	n/a
356.8885	0.135	713777	keystroke	f	n/a
357.0835	0.1495	714167	keystroke	a	n/a
357.2185	0.1045	714437	keystroke	r	n/a
357.488	0.12	714976	keystroke	m	n/a
357.593	0.12	715186	keystroke	e	n/a
357.758	0.075	715516	keystroke	n	n/a
357.863	0.09	715726	keystroke	t	n/a
358.343	0.075	716686	keystroke	Key.backspace	n/a
358.508	0.105	717016	keystroke	Key.backspace	n/a
358.943	0.105	717886	keystroke	r	n/a
359.513	0.09	719026	keystroke	Key.space	n/a
359.723	0.135	719446	keystroke	a	n/a
359.798	0.09	719596	keystroke	p	n/a
359.978	0.105	719956	keystroke	p	n/a
360.173	0.18	720346	keystroke	o	n/a
360.248	0.21	720496	keystroke	i	n/a
360.473	0.105	720946	keystroke	n	n/a
360.623	0.105	721246	keystroke	t	n/a
360.908	0.105	721816	keystroke	m	n/a
361.014	0.149	722028	keystroke	e	n/a
361.148	0.12	722296	keystroke	n	n/a
361.283	0.12	722566	keystroke	t	n/a
361.508	0.105	723016	keystroke	Key.space	n/a
361.778	0.0905	723556	keystroke	p	n/a
361.8985	0.15	723797	keystroke	r	n/a
362.0335	0.12	724067	keystroke	i	n/a
362.3935	0.06	724787	keystroke	s	n/a
362.4385	0.135	724877	keystroke	i	n/a
362.5885	0.1345	725177	keystroke	o	n/a
362.798	0.106	725596	keystroke	n	n/a
363.0385	0.18	726077	keystroke	e	n/a
363.1735	0.105	726347	keystroke	r	n/a
363.4285	0.12	726857	keystroke	s	n/a
363.9085	0.06	727817	keystroke	Key.enter	n/a
363.9865	10.2655	727973	prompt	n/a	orange rugby dream underground\n
364.6135	0.09	729227	keystroke	o	n/a
364.7785	0.135	729557	keystroke	r	n/a
365.0335	0.105	730067	keystroke	a	n/a
365.1085	0.09	730217	keystroke	n	n/a
365.3185	0.105	730637	keystroke	c	n/a
365.6485	0.09	731297	keystroke	Key.backspace	n/a
365.7235	0.105	731447	keystroke	g	n/a
365.9035	0.135	731807	keystroke	e	n/a
366.2185	0.09	732437	keystroke	Key.space	n/a
366.5335	0.075	733067	keystroke	r	n/a
366.6235	0.105	733247	keystroke	u	n/a
366.8035	0.105	733607	keystroke	g	n/a
367.538	0.12	735076	keystroke	b	n/a
367.703	0.105	735406	keystroke	y	n/a
368.063	0.165	736126	keystroke	Key.space	n/a
368.348	0.105	736696	keystroke	d	n/a
368.543	0.15	737086	keystroke	r	n/a
368.648	0.105	737296	keystroke	e	n/a
368.8285	0.0895	737657	keystroke	a	n/a
369.068	0.1505	738136	keystroke	m	n/a
369.2035	0.12	738407	keystroke	Key.space	n/a
369.4885	0.09	738977	keystroke	u	n/a
369.713	0.0905	739426	keystroke	n	n/a
369.743	0.1205	739486	keystroke	d	n/a
369.9535	0.21	739907	keystroke	e	n/a
370.1035	0.09	740207	keystroke	r	n/a
370.658	0.09	741316	keystroke	g	n/a
370.898	0.075	741796	keystroke	r	n/a
371.3935	0.0895	742787	keystroke	u	n/a
371.798	0.06	743596	keystroke	Key.backspace	n/a
372.038	0.15	744076	keystroke	o	n/a
372.113	0.12	744226	keystroke	u	n/a
372.413	0.09	744826	keystroke	n	n/a
372.548	0.135	745096	keystroke	d	n/a
373.148	0.105	746296	keystroke	Key.space	n/a
373.8675	0.075	747735	keystroke	Key.backspace	n/a
374.1675	0.075	748335	keystroke	Key.enter	n/a
374.2565	6.708	748513	prompt	n/a	delays operators thing aurora\n
374.8435	0.09	749687	keystroke	d	n/a
375.0385	0.12	750077	keystroke	e	n/a
375.1435	0.12	750287	keystroke	l	n/a
375.2785	0.105	750557	keystroke	a	n/a
375.4585	0.09	750917	keystroke	y	n/a
375.5935	0.15	751187	keystroke	s	n/a
375.7275	0.106	751455	keystroke	Key.space	n/a
375.9085	0.164	751817	keystroke	o	n/a
376.0885	0.105	752177	keystroke	p	n/a
376.2385	0.18	752477	keystroke	e	n/a
376.3575	0.136	752715	keystroke	r	n/a
376.5385	0.1045	753077	keystroke	a	n/a
376.6135	0.1345	753227	keystroke	t	n/a
376.808	0.135	753616	keystroke	o	n/a
377.003	0.105	754006	keystroke	r	n/a
377.393	0.135	754786	keystroke	s	n/a
377.543	0.105	755086	keystroke	Key.space	n/a
377.828	0.135	755656	keystroke	t	n/a
377.903	0.135	755806	keystroke	h	n/a
377.993	0.09	755986	keystroke	i	n/a
378.203	0.0905	756406	keystroke	n	n/a
378.3375	0.135	756675	keystroke	g	n/a
379.0425	0.12	758085	keystroke	Key.space	n/a
379.733	0.15	759466	keystroke	a	n/a
379.838	0.12	759676	keystroke	u	n/a
380.063	0.12	760126	keystroke	r	n/a
380.228	0.105	760456	keystroke	o	n/a
380.378	0.135	760756	keystroke	r	n/a
380.6485	0.105	761297	keystroke	a	n/a
380.9035	0.0595	761807	keystroke	Key.enter	n/a
380.967	10.58	761934	prompt	n/a	board reduce edinburgh myanmar\n
381.668	0.12	763336	keystroke	b	n/a
381.773	0.105	763546	keystroke	o	n/a
382.028	0.15	764056	keystroke	a	n/a
382.223	0.12	764446	keystroke	r	n/a
382.493	0.12	764986	keystroke	d	n/a
382.763	0.105	765526	keystroke	Key.space	n/a
383.288	0.18	766576	keystroke	r	n/a
383.423	0.09	766846	keystroke	e	n/a
383.663	0.12	767326	keystroke	d	n/a
383.798	0.105	767596	keystroke	u	n/a
384.038	0.09	768076	keystroke	c	n/a
384.278	0.105	768556	keystroke	e	n/a
384.458	0.105	768916	keystroke	Key.space	n/a
384.728	0.12	769456	keystroke	e	n/a
384.998	0.135	769996	keystroke	d	n/a
385.118	0.105	770236	keystroke	i	n/a
385.388	0.105	770776	keystroke	n	n/a
386.063	0.045	772126	keystroke	b	n/a
386.303	0.105	772606	keystroke	e	n/a
386.858	0.09	773716	keystroke	Key.backspace	n/a
387.113	0.12	774226	keystroke	u	n/a
387.293	0.12	774586	keystroke	r	n/a
387.788	0.135	775576	keystroke	g	n/a
387.908	0.105	775816	keystroke	h	n/a
388.418	0.09	776836	keystroke	Key.space	n/a
388.733	0.12	777466	keystroke	m	n/a
388.898	0.075	777796	keystroke	a	n/a
389.258	0.0905	778516	keystroke	Key.backspace	n/a
389.558	0.105	779116	keystroke	y	n/a
389.888	0.06	779776	keystroke	a	n/a
390.143	0.105	780286	keystroke	n	n/a
390.413	0.1205	780826	keystroke	m	n/a
390.6385	0.1195	781277	keystroke	a	n/a
390.7435	0.0745	781487	keystroke	n	n/a
391.088	0.0905	782176	keystroke	Key.backspace	n/a
391.238	0.15	782476	keystroke	r	n/a
391.448	0.09	782896	keystroke	Key.enter	n/a
391.5515	9.445	783103	prompt	n/a	boundary macromedia susan increases\n
392.1985	0.105	784397	keystroke	b	n/a
392.3185	0.119	784637	keystroke	o	n/a
392.4085	0.06	784817	keystroke	u	n/a
392.6485	0.074	785297	keystroke	n	n/a
392.6625	0.121	785325	keystroke	d	n/a
392.8735	0.135	785747	keystroke	a	n/a
392.9935	0.119	785987	keystroke	r	n/a
393.1735	0.09	786347	keystroke	y	n/a
393.4435	0.09	786887	keystroke	Key.space	n/a
393.8485	0.105	787697	keystroke	m	n/a
393.9825	0.121	787965	keystroke	a	n/a
394.3125	0.106	788625	keystroke	c	n/a
394.5685	0.12	789137	keystroke	r	n/a
394.7335	0.075	789467	keystroke	o	n/a
395.2435	0.135	790487	keystroke	m	n/a
395.3925	0.136	790785	keystroke	e	n/a
395.6485	0.135	791297	keystroke	d	n/a
396.413	0.075	792826	keystroke	i	n/a
397.013	0.105	794026	keystroke	a	n/a
397.178	0.09	794356	keystroke	Key.space	n/a
397.373	0.135	794746	keystroke	s	n/a
397.523	0.075	795046	keystroke	u	n/a
397.718	0.225	795436	keystroke	s	n/a
397.898	0.135	795796	keystroke	a	n/a
398.168	0.165	796336	keystroke	n	n/a
398.318	0.105	796636	keystroke	Key.space	n/a
398.558	0.105	797116	keystroke	i	n/a
398.738	0.105	797476	keystroke	n	n/a
398.888	0.12	797776	keystroke	c	n/a
399.128	0.165	798256	keystroke	r	n/a
399.203	0.15	798406	keystroke	e	n/a
399.428	0.105	798856	keystroke	a	n/a
399.638	0.18	799276	keystroke	s	n/a
399.788	0.135	799576	keystroke	e	n/a
400.043	0.12	800086	keystroke	s	n/a
400.238	0.045	800476	keystroke	Key.space	n/a
400.6275	0.0605	801255	keystroke	Key.backspace	n/a
400.913	0.075	801826	keystroke	Key.enter	n/a
401.001	6.881	802002	prompt	n/a	authorities alien post quotes\n
401.6935	0.12	803387	keystroke	a	n/a
401.8285	0.09	803657	keystroke	u	n/a
401.9785	0.135	803957	keystroke	t	n/a
402.0985	0.135	804197	keystroke	h	n/a
402.2485	0.12	804497	keystroke	o	n/a
402.3985	0.12	804797	keystroke	r	n/a
402.5335	0.075	805067	keystroke	i	n/a
402.6535	0.15	805307	keystroke	t	n/a
402.8035	0.06	805607	keystroke	y	n/a
403.1485	0.06	806297	keystroke	Key.backspace	n/a
403.3885	0.105	806777	keystroke	i	n/a
403.4485	0.12	806897	keystroke	e	n/a
403.6735	0.1345	807347	keystroke	s	n/a
403.838	0.09	807676	keystroke	Key.space	n/a
404.033	0.12	808066	keystroke	a	n/a
404.0935	0.1645	808187	keystroke	l	n/a
404.2135	0.1045	808427	keystroke	i	n/a
404.528	0.075	809056	keystroke	a	n/a
404.843	0.09	809686	keystroke	Key.backspace	n/a
404.903	0.135	809806	keystroke	e	n/a
405.158	0.09	810316	keystroke	n	n/a
405.4435	0.104	810887	keystroke	Key.space	n/a
405.6985	0.09	811397	keystroke	p	n/a
405.8925	0.12	811785	keystroke	o	n/a
405.9685	0.164	811937	keystroke	s	n/a
406.1485	0.105	812297	keystroke	t	n/a
406.3125	0.075	812625	keystroke	Key.space	n/a
406.733	0.09	813466	keystroke	q	n/a
406.808	0.09	813616	keystroke	u	n/a
407.033	0.12	814066	keystroke	o	n/a
407.183	0.09	814366	keystroke	t	n/a
407.363	0.09	814726	keystroke	e	n/a
407.558	0.135	815116	keystroke	s	n/a
407.798	0.075	815596	keystroke	Key.enter	n/a
407.8865	7.5395	815773	prompt	n/a	wife gateway rich poem\n
408.758	0.075	817516	keystroke	w	n/a
408.848	0.075	817696	keystroke	i	n/a
408.968	0.12	817936	keystroke	r	n/a
409.508	0.075	819016	keystroke	Key.backspace	n/a
409.568	0.24	819136	keystroke	f	n/a
409.748	0.12	819496	keystroke	e	n/a
410.183	0.09	820366	keystroke	Key.space	n/a
410.573	0.135	821146	keystroke	g	n/a
410.753	0.15	821506	keystroke	a	n/a
411.023	0.075	822046	keystroke	e	n/a
411.368	0.075	822736	keystroke	Key.backspace	n/a
411.428	0.21	822856	keystroke	t	n/a
411.593	0.12	823186	keystroke	e	n/a
411.833	0.18	823666	keystroke	w	n/a
412.028	0.105	824056	keystroke	a	n/a
412.178	0.09	824356	keystroke	y	n/a
412.433	0.12	824866	keystroke	Key.space	n/a
412.658	0.105	825316	keystroke	r	n/a
412.718	0.12	825436	keystroke	i	n/a
412.973	0.165	825946	keystroke	c	n/a
413.168	0.15	826336	keystroke	h	n/a
413.333	0.135	826666	keystroke	Key.space	n/a
413.558	0.135	827116	keystroke	o	n/a
413.978	0.09	827956	keystroke	Key.backspace	n/a
414.263	0.105	828526	keystroke	p	n/a
414.503	0.12	829006	keystroke	o	n/a
414.848	0.165	829696	keystroke	e	n/a
415.088	0.12	830176	keystroke	m	n/a
415.328	0.09	830656	keystroke	Key.enter	n/a
415.4315	12.9995	830863	prompt	n/a	corporations sandwich mapping campaigns\n
416.393	0.18	832786	keystroke	c	n/a
416.513	0.09	833026	keystroke	o	n/a
416.738	0.075	833476	keystroke	m	n/a
416.873	0.105	833746	keystroke	p	n/a
417.488	0.12	834976	keystroke	Key.backspace	n/a
417.638	0.09	835276	keystroke	Key.backspace	n/a
417.803	0.135	835606	keystroke	r	n/a
418.343	0.12	836686	keystroke	p	n/a
418.583	0.12	837166	keystroke	o	n/a
418.718	0.165	837436	keystroke	r	n/a
418.898	0.135	837796	keystroke	a	n/a
419.003	0.165	838006	keystroke	t	n/a
419.093	0.255	838186	keystroke	i	n/a
419.213	0.15	838426	keystroke	o	n/a
419.333	0.1195	838666	keystroke	n	n/a
419.5425	0.135	839085	keystroke	s	n/a
419.7075	0.135	839415	keystroke	Key.space	n/a
420.0825	0.21	840165	keystroke	s	n/a
420.2475	0.15	840495	keystroke	a	n/a
420.3825	0.12	840765	keystroke	n	n/a
420.4725	0.135	840945	keystroke	d	n/a
420.8475	0.12	841695	keystroke	w	n/a
420.9525	0.1355	841905	keystroke	i	n/a
421.238	0.165	842476	keystroke	c	n/a
421.358	0.105	842716	keystroke	h	n/a
421.583	0.105	843166	keystroke	Key.space	n/a
422.288	0.135	844576	keystroke	m	n/a
422.438	0.12	844876	keystroke	a	n/a
422.708	0.09	845416	keystroke	p	n/a
422.873	0.12	845746	keystroke	p	n/a
423.098	0.12	846196	keystroke	i	n/a
423.593	0.135	847186	keystroke	n	n/a
423.833	0.15	847666	keystroke	g	n/a
424.8675	0.09	849735	keystroke	Key.space	n/a
425.1075	0.1655	850215	keystroke	c	n/a
425.2275	0.0905	850455	keystroke	o	n/a
425.918	0.105	851836	keystroke	Key.backspace	n/a
426.083	0.09	852166	keystroke	a	n/a
426.278	0.09	852556	keystroke	m	n/a
426.473	0.105	852946	keystroke	p	n/a
427.237	0.09	854474	keystroke	a	n/a
427.387	0.121	854774	keystroke	i	n/a
427.568	0.149	855136	keystroke	g	n/a
427.807	0.105	855614	keystroke	n	n/a
428.122	0.135	856244	keystroke	s	n/a
428.347	0.075	856694	keystroke	Key.enter	n/a
428.4405	9.1105	856881	prompt	n/a	is knight fail multimedia\n
429.157	0.105	858314	keystroke	i	n/a
429.322	0.18	858644	keystroke	s	n/a
429.442	0.09	858884	keystroke	Key.space	n/a
429.623	0.224	859246	keystroke	k	n/a
429.832	0.225	859664	keystroke	n	n/a
430.087	0.105	860174	keystroke	o	n/a
430.717	0.075	861434	keystroke	Key.backspace	n/a
430.957	0.12	861914	keystroke	i	n/a
431.692	0.15	863384	keystroke	g	n/a
432.202	0.105	864404	keystroke	h	n/a
432.412	0.105	864824	keystroke	t	n/a
432.817	0.075	865634	keystroke	Key.space	n/a
433.087	0.15	866174	keystroke	f	n/a
433.312	0.105	866624	keystroke	a	n/a
434.197	0.105	868394	keystroke	i	n/a
434.422	0.12	868844	keystroke	l	n/a
434.647	0.09	869294	keystroke	Key.space	n/a
434.932	0.135	869864	keystroke	m	n/a
435.232	0.12	870464	keystroke	u	n/a
435.742	0.105	871484	keystroke	l	n/a
435.892	0.15	871784	keystroke	t	n/a
435.997	0.105	871994	keystroke	i	n/a
436.252	0.12	872504	keystroke	m	n/a
436.417	0.105	872834	keystroke	e	n/a
436.627	0.15	873254	keystroke	d	n/a
436.702	0.12	873404	keystroke	i	n/a
437.227	0.105	874454	keystroke	a	n/a
437.497	0.045	874994	keystroke	Key.enter	n/a
437.5555	9.806	875111	prompt	n/a	dominant basketball innovative therefore\n
438.262	0.15	876524	keystroke	d	n/a
438.532	0.12	877064	keystroke	o	n/a
438.742	0.135	877484	keystroke	m	n/a
438.862	0.135	877724	keystroke	i	n/a
439.132	0.105	878264	keystroke	n	n/a
439.972	0.135	879944	keystroke	a	n/a
440.062	0.12	880124	keystroke	n	n/a
440.5125	0.15	881025	keystroke	t	n/a
440.7375	0.12	881475	keystroke	Key.space	n/a
441.0375	0.165	882075	keystroke	b	n/a
441.1875	0.135	882375	keystroke	a	n/a
441.3675	0.135	882735	keystroke	s	n/a
441.4875	0.105	882975	keystroke	k	n/a
441.6225	0.15	883245	keystroke	e	n/a
441.8175	0.1495	883635	keystroke	t	n/a
442.4325	0.18	884865	keystroke	b	n/a
442.5975	0.135	885195	keystroke	a	n/a
442.7775	0.105	885555	keystroke	l	n/a
443.0025	0.195	886005	keystroke	l	n/a
443.1225	0.15	886245	keystroke	Key.space	n/a
443.4675	0.135	886935	keystroke	i	n/a
443.6475	0.075	887295	keystroke	n	n/a
443.8125	0.1795	887625	keystroke	n	n/a
443.902	0.135	887804	keystroke	o	n/a
444.142	0.18	888284	keystroke	v	n/a
444.337	0.135	888674	keystroke	a	n/a
444.457	0.12	888914	keystroke	t	n/a
444.532	0.135	889064	keystroke	i	n/a
444.817	0.12	889634	keystroke	v	n/a
445.117	0.135	890234	keystroke	e	n/a
445.417	0.135	890834	keystroke	Key.space	n/a
445.7475	0.12	891495	keystroke	t	n/a
445.8685	0.119	891737	keystroke	h	n/a
446.0025	0.135	892005	keystroke	e	n/a
446.0925	0.195	892185	keystroke	r	n/a
446.2275	0.135	892455	keystroke	e	n/a
446.4975	0.12	892995	keystroke	f	n/a
446.5875	0.09	893175	keystroke	o	n/a
446.7975	0.15	893595	keystroke	r	n/a
446.8875	0.105	893775	keystroke	e	n/a
447.262	0.09	894524	keystroke	Key.enter	n/a
447.3655	8.4105	894731	prompt	n/a	conferences such casio junior\n
448.102	0.18	896204	keystroke	c	n/a
448.207	0.105	896414	keystroke	o	n/a
448.387	0.09	896774	keystroke	n	n/a
448.912	0.165	897824	keystroke	f	n/a
449.062	0.18	898124	keystroke	e	n/a
449.212	0.15	898424	keystroke	r	n/a
449.347	0.075	898694	keystroke	e	n/a
449.407	0.135	898814	keystroke	n	n/a
449.587	0.12	899174	keystroke	c	n/a
449.827	0.12	899654	keystroke	e	n/a
450.067	0.105	900134	keystroke	s	n/a
450.142	0.09	900284	keystroke	Key.space	n/a
450.352	0.135	900704	keystroke	s	n/a
450.472	0.12	900944	keystroke	u	n/a
450.652	0.15	901304	keystroke	c	n/a
450.772	0.165	901544	keystroke	h	n/a
450.877	0.12	901754	keystroke	Key.space	n/a
451.297	0.135	902594	keystroke	c	n/a
451.492	0.075	902984	keystroke	a	n/a
451.687	0.1505	903374	keystroke	s	n/a
451.8225	0.09	903645	keystroke	u	n/a
452.2125	0.06	904425	keystroke	Key.backspace	n/a
452.5425	0.06	905085	keystroke	i	n/a
452.6325	0.12	905265	keystroke	o	n/a
452.8125	0.105	905625	keystroke	Key.space	n/a
453.4275	0.045	906855	keystroke	j	n/a
453.8015	0.105	907603	keystroke	u	n/a
454.2525	0.194	908505	keystroke	n	n/a
454.4025	0.105	908805	keystroke	i	n/a
454.6275	0.105	909255	keystroke	o	n/a
455.1065	0.121	910213	keystroke	r	n/a
455.6915	0.075	911383	keystroke	Key.enter	n/a
455.7805	15.6705	911561	prompt	n/a	initiative subsection config happened\n
456.3815	0.1355	912763	keystroke	i	n/a
456.532	0.165	913064	keystroke	n	n/a
456.653	0.119	913306	keystroke	i	n/a
456.802	0.1655	913604	keystroke	t	n/a
457.0275	0.09	914055	keystroke	a	n/a
457.7625	0.06	915525	keystroke	Key.backspace	n/a
457.8975	0.15	915795	keystroke	a	n/a
458.0025	0.12	916005	keystroke	t	n/a
458.6475	0.06	917295	keystroke	Key.backspace	n/a
458.8125	0.075	917625	keystroke	Key.backspace	n/a
458.9925	0.075	917985	keystroke	Key.backspace	n/a
459.1125	0.165	918225	keystroke	a	n/a
459.2475	0.12	918495	keystroke	t	n/a
459.922	0.12	919844	keystroke	i	n/a
460.177	0.21	920354	keystroke	v	n/a
460.342	0.165	920684	keystroke	e	n/a
461.947	0.075	923894	keystroke	Key.backspace	n/a
462.127	0.075	924254	keystroke	Key.backspace	n/a
462.292	0.075	924584	keystroke	Key.backspace	n/a
462.457	0.075	924914	keystroke	Key.backspace	n/a
462.802	0.06	925604	keystroke	Key.backspace	n/a
463.057	0.15	926114	keystroke	t	n/a
463.162	0.105	926324	keystroke	i	n/a
464.002	0.105	928004	keystroke	a	n/a
464.467	0.15	928934	keystroke	t	n/a
464.617	0.09	929234	keystroke	i	n/a
464.842	0.195	929684	keystroke	v	n/a
465.022	0.075	930044	keystroke	e	n/a
465.232	0.12	930464	keystroke	Key.space	n/a
465.472	0.135	930944	keystroke	s	n/a
465.577	0.075	931154	keystroke	u	n/a
465.802	0.12	931604	keystroke	b	n/a
466.702	0.195	933404	keystroke	s	n/a
466.867	0.105	933734	keystroke	e	n/a
467.137	0.12	934274	keystroke	c	n/a
467.377	0.1355	934754	keystroke	t	n/a
467.467	0.2555	934934	keystroke	i	n/a
467.5725	0.195	935145	keystroke	o	n/a
467.7525	0.15	935505	keystroke	n	n/a
467.9475	0.12	935895	keystroke	Key.space	n/a
468.1725	0.12	936345	keystroke	s	n/a
468.5175	0.075	937035	keystroke	Key.backspace	n/a
468.6075	0.18	937215	keystroke	c	n/a
468.7725	0.12	937545	keystroke	o	n/a
468.9675	0.105	937935	keystroke	n	n/a
469.1325	0.165	938265	keystroke	f	n/a
469.2525	0.09	938505	keystroke	i	n/a
469.5675	0.12	939135	keystroke	g	n/a
469.7625	0.09	939525	keystroke	Key.space	n/a
469.9575	0.105	939915	keystroke	h	n/a
470.0175	0.12	940035	keystroke	a	n/a
470.2725	0.03	940545	keystroke	p	n/a
470.4225	0.09	940845	keystroke	p	n/a
470.5275	0.15	941055	keystroke	e	n/a
470.6625	0.105	941325	keystroke	n	n/a
470.8125	0.135	941625	keystroke	e	n/a
471.0825	0.105	942165	keystroke	d	n/a
471.3675	0.075	942735	keystroke	Key.enter	n/a
471.455	11.412	942910	prompt	n/a	checklist difficulties universities racing\n
472.0875	0.135	944175	keystroke	c	n/a
472.2075	0.105	944415	keystroke	h	n/a
472.3725	0.075	944745	keystroke	e	n/a
473.0325	0.15	946065	keystroke	c	n/a
473.1975	0.105	946395	keystroke	k	n/a
473.4675	0.195	946935	keystroke	l	n/a
473.6025	0.105	947205	keystroke	i	n/a
473.7825	0.12	947565	keystroke	s	n/a
474.0675	0.12	948135	keystroke	t	n/a
474.3975	0.105	948795	keystroke	Key.space	n/a
474.7275	0.12	949455	keystroke	d	n/a
474.8175	0.09	949635	keystroke	i	n/a
474.9975	0.09	949995	keystroke	f	n/a
475.1775	0.12	950355	keystroke	f	n/a
475.2375	0.105	950475	keystroke	i	n/a
475.4475	0.135	950895	keystroke	c	n/a
475.5975	0.03	951195	keystroke	i	n/a
475.9125	0.09	951825	keystroke	Key.backspace	n/a
476.1375	0.12	952275	keystroke	u	n/a
476.3775	0.15	952755	keystroke	l	n/a
476.6025	0.135	953205	keystroke	t	n/a
476.7075	0.075	953415	keystroke	i	n/a
476.9175	0.135	953835	keystroke	e	n/a
477.1725	0.12	954345	keystroke	s	n/a
477.2775	0.135	954555	keystroke	Key.space	n/a
477.7575	0.09	955515	keystroke	u	n/a
478.1775	0.135	956355	keystroke	n	n/a
478.4025	0.105	956805	keystroke	i	n/a
479.1375	0.12	958275	keystroke	e	n/a
479.5125	0.075	959025	keystroke	Key.backspace	n/a
479.6025	0.165	959205	keystroke	v	n/a
479.7525	0.24	959505	keystroke	e	n/a
479.9325	0.12	959865	keystroke	r	n/a
480.2325	0.105	960465	keystroke	s	n/a
480.3075	0.105	960615	keystroke	i	n/a
480.4715	0.121	960943	keystroke	t	n/a
480.6365	0.091	961273	keystroke	i	n/a
480.9225	0.105	961845	keystroke	e	n/a
481.1925	0.12	962385	keystroke	s	n/a
481.3575	0.09	962715	keystroke	Key.space	n/a
481.5825	0.179	963165	keystroke	r	n/a
481.7475	0.09	963495	keystroke	a	n/a
481.9875	0.105	963975	keystroke	c	n/a
482.2275	0.12	964455	keystroke	i	n/a
482.4225	0.135	964845	keystroke	n	n/a
482.6165	0.1355	965233	keystroke	g	n/a
482.767	0.09	965534	keystroke	Key.enter	n/a
482.8715	6.107	965743	prompt	n/a	attacked newer wood lived\n
483.4715	0.09	966943	keystroke	a	n/a
483.6065	0.105	967213	keystroke	t	n/a
483.8015	0.15	967603	keystroke	t	n/a
483.8915	0.105	967783	keystroke	a	n/a
484.1465	0.135	968293	keystroke	c	n/a
484.3265	0.12	968653	keystroke	k	n/a
484.4615	0.105	968923	keystroke	e	n/a
484.6865	0.15	969373	keystroke	d	n/a
484.8215	0.105	969643	keystroke	Key.space	n/a
485.0765	0.105	970153	keystroke	n	n/a
485.1965	0.195	970393	keystroke	e	n/a
485.3165	0.18	970633	keystroke	w	n/a
485.5265	0.105	971053	keystroke	a	n/a
485.6465	0.135	971293	keystroke	r	n/a
486.0665	0.06	972133	keystroke	Key.backspace	n/a
486.2315	0.075	972463	keystroke	Key.backspace	n/a
486.2765	0.165	972553	keystroke	e	n/a
486.3815	0.12	972763	keystroke	r	n/a
486.8165	0.12	973633	keystroke	Key.space	n/a
487.0415	0.105	974083	keystroke	w	n/a
487.1165	0.09	974233	keystroke	o	n/a
487.2965	0.135	974593	keystroke	o	n/a
487.4915	0.135	974983	keystroke	d	n/a
487.7315	0.105	975463	keystroke	Key.space	n/a
488.0465	0.165	976093	keystroke	l	n/a
488.1665	0.105	976333	keystroke	i	n/a
488.3465	0.18	976693	keystroke	v	n/a
488.4965	0.12	976993	keystroke	e	n/a
488.7065	0.15	977413	keystroke	d	n/a
488.8715	0.105	977743	keystroke	Key.enter	n/a
488.981	10.67	977962	prompt	n/a	robots pregnancy nurses buyer\n
489.5765	0.045	979153	keystroke	t	n/a
490.0265	0.075	980053	keystroke	Key.backspace	n/a
490.1465	0.12	980293	keystroke	r	n/a
490.672	0.015	981344	keystroke	o	n/a
491.242	0.15	982484	keystroke	b	n/a
491.407	0.105	982814	keystroke	o	n/a
491.557	0.105	983114	keystroke	t	n/a
491.902	0.12	983804	keystroke	s	n/a
493.042	0.0905	986084	keystroke	Key.space	n/a
493.3725	0.105	986745	keystroke	p	n/a
493.5375	0.165	987075	keystroke	r	n/a
493.6575	0.09	987315	keystroke	e	n/a
494.0625	0.135	988125	keystroke	g	n/a
494.7675	0.135	989535	keystroke	n	n/a
494.9465	0.121	989893	keystroke	a	n/a
495.0515	0.12	990103	keystroke	n	n/a
495.2325	0.164	990465	keystroke	c	n/a
495.3815	0.121	990763	keystroke	y	n/a
495.5765	0.121	991153	keystroke	Key.space	n/a
495.8315	0.12	991663	keystroke	n	n/a
496.0575	0.12	992115	keystroke	u	n/a
496.297	0.12	992594	keystroke	r	n/a
496.942	0.195	993884	keystroke	s	n/a
497.047	0.15	994094	keystroke	e	n/a
497.3765	0.135	994753	keystroke	s	n/a
497.5415	0.135	995083	keystroke	Key.space	n/a
497.8565	0.165	995713	keystroke	b	n/a
497.9315	0.12	995863	keystroke	u	n/a
498.2615	0.09	996523	keystroke	y	n/a
498.7565	0.225	997513	keystroke	e	n/a
498.9215	0.12	997843	keystroke	r	n/a
499.5665	0.075	999133	keystroke	Key.enter	n/a
499.655	13.1205	999310	prompt	n/a	indonesian bruce rear prayers\n
500.3165	0.12	1000633	keystroke	i	n/a
500.5265	0.105	1001053	keystroke	n	n/a
500.662	0.165	1001324	keystroke	d	n/a
500.782	0.105	1001564	keystroke	o	n/a
501.112	0.12	1002224	keystroke	n	n/a
501.922	0.105	1003844	keystroke	e	n/a
502.612	0.135	1005224	keystroke	s	n/a
502.987	0.33	1005974	keystroke	i	n/a
503.107	0.195	1006214	keystroke	o	n/a
503.257	0.105	1006514	keystroke	n	n/a
503.722	0.075	1007444	keystroke	Key.backspace	n/a
503.902	0.09	1007804	keystroke	Key.backspace	n/a
504.007	0.12	1008014	keystroke	a	n/a
504.172	0.06	1008344	keystroke	n	n/a
504.697	0.12	1009394	keystroke	Key.space	n/a
505.087	0.06	1010174	keystroke	b	n/a
507.5335	0.088	1015067	keystroke	r	n/a
507.6365	0.12	1015273	keystroke	u	n/a
508.0265	0.1205	1016053	keystroke	c	n/a
508.2965	0.121	1016593	keystroke	e	n/a
508.3715	0.105	1016743	keystroke	Key.space	n/a
508.5965	0.165	1017193	keystroke	r	n/a
508.7165	0.105	1017433	keystroke	e	n/a
508.9415	0.09	1017883	keystroke	a	n/a
509.4365	0.12	1018873	keystroke	r	n/a
509.6915	0.12	1019383	keystroke	Key.space	n/a
509.9165	0.105	1019833	keystroke	p	n/a
510.0365	0.195	1020073	keystroke	r	n/a
510.2465	0.135	1020493	keystroke	a	n/a
510.5915	0.12	1021183	keystroke	y	n/a
511.102	0.135	1022204	keystroke	a	n/a
511.537	0.075	1023074	keystroke	Key.backspace	n/a
511.642	0.27	1023284	keystroke	e	n/a
511.867	0.12	1023734	keystroke	r	n/a
512.137	0.12	1024274	keystroke	s	n/a
512.7065	0.06	1025413	keystroke	Key.enter	n/a
512.783	6	1025566	prompt	n/a	cars mardi wrapped omaha\n
513.6515	0.15	1027303	keystroke	c	n/a
513.8465	0.135	1027693	keystroke	a	n/a
513.9665	0.12	1027933	keystroke	r	n/a
514.4315	0.1355	1028863	keystroke	s	n/a
514.582	0.105	1029164	keystroke	Key.space	n/a
514.822	0.134	1029644	keystroke	m	n/a
514.971	0.166	1029942	keystroke	a	n/a
515.122	0.075	1030244	keystroke	r	n/a
515.437	0.105	1030874	keystroke	d	n/a
515.617	0.165	1031234	keystroke	i	n/a
515.752	0.12	1031504	keystroke	Key.space	n/a
516.051	0.151	1032102	keystroke	w	n/a
516.247	0.194	1032494	keystroke	r	n/a
516.456	0.09	1032912	keystroke	a	n/a
516.607	0.059	1033214	keystroke	p	n/a
516.757	0.12	1033514	keystroke	p	n/a
516.862	0.119	1033724	keystroke	e	n/a
517.132	0.12	1034264	keystroke	d	n/a
517.252	0.12	1034504	keystroke	Key.space	n/a
517.762	0.12	1035524	keystroke	o	n/a
518.002	0.135	1036004	keystroke	m	n/a
518.182	0.09	1036364	keystroke	a	n/a
518.302	0.12	1036604	keystroke	h	n/a
518.422	0.12	1036844	keystroke	a	n/a
518.722	0.06	1037444	keystroke	Key.enter	n/a
518.7875	8.568	1037575	prompt	n/a	donald health fruits findings\n
519.5315	0.165	1039063	keystroke	d	n/a
519.6215	0.135	1039243	keystroke	o	n/a
519.8765	0.12	1039753	keystroke	n	n/a
520.0415	0.105	1040083	keystroke	a	n/a
520.1915	0.12	1040383	keystroke	l	n/a
520.3715	0.15	1040743	keystroke	d	n/a
520.6265	0.0895	1041253	keystroke	Key.space	n/a
520.867	0.119	1041734	keystroke	h	n/a
521.001	0.12	1042002	keystroke	e	n/a
521.151	0.12	1042302	keystroke	l	n/a
521.316	0.045	1042632	keystroke	a	n/a
521.736	0.06	1043472	keystroke	Key.backspace	n/a
521.901	0.06	1043802	keystroke	Key.backspace	n/a
522.262	0.134	1044524	keystroke	a	n/a
522.412	0.119	1044824	keystroke	l	n/a
522.681	0.09	1045362	keystroke	t	n/a
522.9965	0.09	1045993	keystroke	h	n/a
523.5065	0.12	1047013	keystroke	Key.space	n/a
523.7465	0.105	1047493	keystroke	f	n/a
523.9565	0.1345	1047913	keystroke	r	n/a
524.0465	0.1345	1048093	keystroke	u	n/a
524.301	0.105	1048602	keystroke	i	n/a
524.526	0.105	1049052	keystroke	t	n/a
524.7515	0.075	1049503	keystroke	e	n/a
525.1115	0.12	1050223	keystroke	Key.backspace	n/a
525.2015	0.105	1050403	keystroke	s	n/a
525.6515	0.12	1051303	keystroke	Key.space	n/a
526.0115	0.135	1052023	keystroke	f	n/a
526.0865	0.12	1052173	keystroke	i	n/a
526.2965	0.105	1052593	keystroke	n	n/a
526.3715	0.15	1052743	keystroke	d	n/a
526.5065	0.12	1053013	keystroke	i	n/a
526.611	0.1355	1053222	keystroke	n	n/a
526.7315	0.135	1053463	keystroke	g	n/a
526.9865	0.135	1053973	keystroke	s	n/a
527.2115	0.135	1054423	keystroke	Key.enter	n/a
527.36	7.255	1054720	prompt	n/a	knight smell geek called\n
528.1115	0.135	1056223	keystroke	k	n/a
528.3065	0.225	1056613	keystroke	n	n/a
528.4715	0.105	1056943	keystroke	o	n/a
528.6665	0.165	1057333	keystroke	g	n/a
528.7565	0.15	1057513	keystroke	h	n/a
528.9515	0.15	1057903	keystroke	t	n/a
529.1315	0.12	1058263	keystroke	Key.space	n/a
529.3865	0.165	1058773	keystroke	s	n/a
529.5665	0.15	1059133	keystroke	m	n/a
529.6715	0.105	1059343	keystroke	e	n/a
529.9415	0.135	1059883	keystroke	s	n/a
530.4515	0.075	1060903	keystroke	Key.backspace	n/a
530.7365	0.12	1061473	keystroke	l	n/a
530.9465	0.18	1061893	keystroke	l	n/a
531.0965	0.15	1062193	keystroke	Key.space	n/a
531.5765	0.135	1063153	keystroke	g	n/a
531.9215	0.075	1063843	keystroke	Key.backspace	n/a
532.4165	0.12	1064833	keystroke	g	n/a
532.6265	0.105	1065253	keystroke	e	n/a
532.8065	0.135	1065613	keystroke	e	n/a
532.9865	0.21	1065973	keystroke	k	n/a
533.1515	0.12	1066303	keystroke	Key.space	n/a
533.4365	0.12	1066873	keystroke	c	n/a
533.6615	0.135	1067323	keystroke	a	n/a
533.7815	0.105	1067563	keystroke	l	n/a
533.961	0.12	1067922	keystroke	l	n/a
534.021	0.135	1068042	keystroke	e	n/a
534.261	0.15	1068522	keystroke	d	n/a
534.501	0.105	1069002	keystroke	Key.enter	n/a
534.619	9.836	1069238	prompt	n/a	camp health cadillac groundwater\n
535.806	0.15	1071612	keystroke	c	n/a
536.002	0.119	1072004	keystroke	a	n/a
536.256	0.105	1072512	keystroke	m	n/a
536.496	0.12	1072992	keystroke	p	n/a
536.676	0.12	1073352	keystroke	Key.space	n/a
537.126	0.016	1074252	keystroke	k	n/a
537.322	0.105	1074644	keystroke	h	n/a
537.666	0.045	1075332	keystroke	Key.backspace	n/a
537.802	0.09	1075604	keystroke	Key.backspace	n/a
538.027	0.104	1076054	keystroke	h	n/a
538.072	0.15	1076144	keystroke	e	n/a
538.341	0.106	1076682	keystroke	a	n/a
538.521	0.1055	1077042	keystroke	l	n/a
538.776	0.12	1077552	keystroke	t	n/a
538.881	0.105	1077762	keystroke	h	n/a
539.316	0.105	1078632	keystroke	Key.space	n/a
539.541	0.135	1079082	keystroke	c	n/a
539.706	0.12	1079412	keystroke	a	n/a
539.901	0.165	1079802	keystroke	d	n/a
539.961	0.12	1079922	keystroke	i	n/a
540.486	0.09	1080972	keystroke	l	n/a
540.651	0.105	1081302	keystroke	l	n/a
540.771	0.135	1081542	keystroke	a	n/a
541.401	0.135	1082802	keystroke	c	n/a
541.791	0.09	1083582	keystroke	Key.space	n/a
542.046	0.105	1084092	keystroke	g	n/a
542.316	0.09	1084632	keystroke	r	n/a
542.481	0.135	1084962	keystroke	o	n/a
542.586	0.105	1085172	keystroke	u	n/a
542.871	0.135	1085742	keystroke	n	n/a
542.991	0.151	1085982	keystroke	d	n/a
543.441	0.195	1086882	keystroke	w	n/a
543.606	0.135	1087212	keystroke	a	n/a
543.711	0.121	1087422	keystroke	t	n/a
543.906	0.195	1087812	keystroke	e	n/a
544.041	0.12	1088082	keystroke	r	n/a
544.356	0.09	1088712	keystroke	Key.enter	n/a
544.459	11.951	1088918	prompt	n/a	stereo adolescent integration roll\n
545.0765	0.18	1090153	keystroke	s	n/a
545.2115	0.135	1090423	keystroke	t	n/a
545.4365	0.195	1090873	keystroke	e	n/a
545.5865	0.18	1091173	keystroke	r	n/a
545.7515	0.1495	1091503	keystroke	e	n/a
546.441	0.1955	1092882	keystroke	o	n/a
546.561	0.15	1093122	keystroke	Key.space	n/a
546.831	0.045	1093662	keystroke	a	n/a
546.996	0.135	1093992	keystroke	d	n/a
547.101	0.12	1094202	keystroke	o	n/a
547.386	0.09	1094772	keystroke	l	n/a
547.581	0.12	1095162	keystroke	o	n/a
548.136	0.135	1096272	keystroke	s	n/a
548.8865	0.015	1097773	keystroke	Key.backspace	n/a
549.0215	0.09	1098043	keystroke	Key.backspace	n/a
550.281	0.12	1100562	keystroke	e	n/a
550.5355	0.1205	1101071	keystroke	s	n/a
550.776	0.15	1101552	keystroke	c	n/a
551.421	0.135	1102842	keystroke	e	n/a
551.931	0.12	1103862	keystroke	n	n/a
552.096	0.105	1104192	keystroke	t	n/a
552.411	0.105	1104822	keystroke	Key.space	n/a
552.591	0.165	1105182	keystroke	i	n/a
552.741	0.15	1105482	keystroke	n	n/a
552.846	0.09	1105692	keystroke	t	n/a
553.581	0.165	1107162	keystroke	e	n/a
554.046	0.105	1108092	keystroke	g	n/a
554.286	0.18	1108572	keystroke	r	n/a
554.481	0.09	1108962	keystroke	a	n/a
554.586	0.15	1109172	keystroke	t	n/a
554.706	0.315	1109412	keystroke	i	n/a
554.811	0.195	1109622	keystroke	o	n/a
554.991	0.165	1109982	keystroke	n	n/a
555.2315	0.12	1110463	keystroke	Key.space	n/a
555.4265	0.15	1110853	keystroke	r	n/a
555.5465	0.105	1111093	keystroke	o	n/a
555.8315	0.09	1111663	keystroke	l	n/a
556.0115	0.135	1112023	keystroke	l	n/a
556.2965	0.105	1112593	keystroke	Key.enter	n/a
556.414	9.656	1112828	prompt	n/a	changing norfolk celtic bracelets\n
557.0915	0.18	1114183	keystroke	c	n/a
557.4665	0.105	1114933	keystroke	h	n/a
557.6315	0.12	1115263	keystroke	a	n/a
557.7665	0.15	1115533	keystroke	n	n/a
557.8715	0.165	1115743	keystroke	g	n/a
557.9915	0.15	1115983	keystroke	i	n/a
558.1555	0.15	1116311	keystroke	n	n/a
558.2765	0.12	1116553	keystroke	g	n/a
558.531	0.105	1117062	keystroke	Key.space	n/a
559.101	0.21	1118202	keystroke	n	n/a
559.281	0.105	1118562	keystroke	o	n/a
559.446	0.105	1118892	keystroke	r	n/a
559.986	0.135	1119972	keystroke	f	n/a
560.271	0.105	1120542	keystroke	o	n/a
560.706	0.105	1121412	keystroke	l	n/a
561.441	0.12	1122882	keystroke	k	n/a
561.831	0.105	1123662	keystroke	Key.space	n/a
562.131	0.09	1124262	keystroke	c	n/a
562.341	0.15	1124682	keystroke	e	n/a
562.461	0.135	1124922	keystroke	l	n/a
562.641	0.15	1125282	keystroke	t	n/a
562.761	0.12	1125522	keystroke	i	n/a
563.106	0.105	1126212	keystroke	c	n/a
563.691	0.12	1127382	keystroke	Key.space	n/a
564.051	0.105	1128102	keystroke	b	n/a
564.276	0.195	1128552	keystroke	r	n/a
564.456	0.075	1128912	keystroke	a	n/a
564.711	0.09	1129422	keystroke	c	n/a
564.9505	0.1355	1129901	keystroke	e	n/a
565.206	0.15	1130412	keystroke	l	n/a
565.326	0.15	1130652	keystroke	e	n/a
565.551	0.12	1131102	keystroke	t	n/a
565.761	0.135	1131522	keystroke	s	n/a
565.956	0.1055	1131912	keystroke	Key.enter	n/a
566.0745	7.6905	1132149	prompt	n/a	norton utah brush preferred\n
566.6915	0.165	1133383	keystroke	n	n/a
566.8715	0.105	1133743	keystroke	o	n/a
567.0665	0.105	1134133	keystroke	r	n/a
567.2915	0.12	1134583	keystroke	t	n/a
567.5315	0.1045	1135063	keystroke	o	n/a
567.8015	0.135	1135603	keystroke	n	n/a
567.9965	0.12	1135993	keystroke	Key.space	n/a
568.2365	0.135	1136473	keystroke	u	n/a
568.4315	0.15	1136863	keystroke	t	n/a
569.0015	0.105	1138003	keystroke	a	n/a
569.2715	0.135	1138543	keystroke	h	n/a
569.4815	0.135	1138963	keystroke	Key.space	n/a
569.9765	0.165	1139953	keystroke	b	n/a
570.2915	0.15	1140583	keystroke	r	n/a
570.3965	0.12	1140793	keystroke	u	n/a
570.6365	0.18	1141273	keystroke	s	n/a
570.8015	0.15	1141603	keystroke	h	n/a
570.9665	0.105	1141933	keystroke	Key.space	n/a
571.4165	0.09	1142833	keystroke	p	n/a
571.5215	0.195	1143043	keystroke	r	n/a
571.6415	0.105	1143283	keystroke	e	n/a
571.8815	0.06	1143763	keystroke	s	n/a
572.3165	0.09	1144633	keystroke	Key.backspace	n/a
572.3915	0.225	1144783	keystroke	f	n/a
572.5565	0.12	1145113	keystroke	e	n/a
572.8265	0.075	1145653	keystroke	r	n/a
573.0215	0.195	1146043	keystroke	r	n/a
573.1565	0.135	1146313	keystroke	e	n/a
573.4415	0.12	1146883	keystroke	d	n/a
573.6965	0.06	1147393	keystroke	Key.enter	n/a
573.769	8.4855	1147538	prompt	n/a	listprice weird develops moon\n
574.6115	0.105	1149223	keystroke	l	n/a
574.851	0.1045	1149702	keystroke	i	n/a
575.0615	0.165	1150123	keystroke	s	n/a
575.2405	0.15	1150481	keystroke	t	n/a
575.4505	0.121	1150901	keystroke	p	n/a
575.7515	0.119	1151503	keystroke	i	n/a
576.0805	0.09	1152161	keystroke	Key.backspace	n/a
576.1855	0.136	1152371	keystroke	r	n/a
576.3365	0.12	1152673	keystroke	i	n/a
576.6055	0.135	1153211	keystroke	c	n/a
576.8755	0.135	1153751	keystroke	e	n/a
576.9505	0.12	1153901	keystroke	Key.space	n/a
577.1765	0.089	1154353	keystroke	w	n/a
577.2805	0.105	1154561	keystroke	i	n/a
578.3305	0.0455	1156661	keystroke	Key.backspace	n/a
578.406	0.135	1156812	keystroke	e	n/a
578.676	0.09	1157352	keystroke	i	n/a
578.901	0.1055	1157802	keystroke	r	n/a
579.3965	0.135	1158793	keystroke	d	n/a
579.5615	0.105	1159123	keystroke	Key.space	n/a
579.7715	0.12	1159543	keystroke	d	n/a
579.9665	0.075	1159933	keystroke	e	n/a
580.1765	0.105	1160353	keystroke	v	n/a
580.2965	0.105	1160593	keystroke	e	n/a
580.4615	0.0745	1160923	keystroke	l	n/a
580.6565	0.15	1161313	keystroke	o	n/a
580.8515	0.135	1161703	keystroke	p	n/a
581.0765	0.12	1162153	keystroke	s	n/a
581.1815	0.104	1162363	keystroke	Key.space	n/a
581.4215	0.15	1162843	keystroke	m	n/a
581.5415	0.105	1163083	keystroke	o	n/a
581.7215	0.135	1163443	keystroke	o	n/a
581.9155	0.121	1163831	keystroke	n	n/a
582.1405	0.105	1164281	keystroke	Key.enter	n/a
582.2585	11.201	1164517	prompt	n/a	components variations appearance anniversary\n
583.3115	0.164	1166623	keystroke	c	n/a
583.4605	0.06	1166921	keystroke	o	n/a
583.6265	0.104	1167253	keystroke	m	n/a
583.7605	0.106	1167521	keystroke	p	n/a
584.0455	0.106	1168091	keystroke	o	n/a
584.3155	0.12	1168631	keystroke	n	n/a
584.5855	0.136	1169171	keystroke	e	n/a
584.8105	0.15	1169621	keystroke	n	n/a
585.0065	0.119	1170013	keystroke	t	n/a
585.2915	0.1195	1170583	keystroke	s	n/a
585.3505	0.1205	1170701	keystroke	Key.space	n/a
585.666	0.21	1171332	keystroke	v	n/a
585.861	0.105	1171722	keystroke	a	n/a
585.996	0.165	1171992	keystroke	r	n/a
586.146	0.075	1172292	keystroke	i	n/a
586.416	0.12	1172832	keystroke	a	n/a
586.641	0.15	1173282	keystroke	t	n/a
586.716	0.255	1173432	keystroke	i	n/a
586.821	0.165	1173642	keystroke	o	n/a
586.941	0.135	1173882	keystroke	n	n/a
587.106	0.135	1174212	keystroke	s	n/a
587.256	0.09	1174512	keystroke	Key.space	n/a
587.616	0.075	1175232	keystroke	a	n/a
587.706	0.015	1175412	keystroke	p	n/a
587.826	0.09	1175652	keystroke	p	n/a
587.901	0.105	1175802	keystroke	e	n/a
588.081	0.135	1176162	keystroke	a	n/a
588.201	0.105	1176402	keystroke	r	n/a
588.546	0.1345	1177092	keystroke	a	n/a
588.6505	0.12	1177301	keystroke	n	n/a
589.3115	0.119	1178623	keystroke	c	n/a
589.5665	0.12	1179133	keystroke	e	n/a
589.6555	0.105	1179311	keystroke	Key.space	n/a
589.8355	0.091	1179671	keystroke	a	n/a
589.9405	0.09	1179881	keystroke	n	n/a
590.1055	0.15	1180211	keystroke	n	n/a
590.4205	0.105	1180841	keystroke	i	n/a
590.6755	0.121	1181351	keystroke	v	n/a
590.8105	0.21	1181621	keystroke	e	n/a
590.9755	0.09	1181951	keystroke	r	n/a
591.3355	0.015	1182671	keystroke	s	n/a
591.3805	0.15	1182761	keystroke	a	n/a
592.146	0.105	1184292	keystroke	y	n/a
592.536	0.075	1185072	keystroke	Key.backspace	n/a
592.6405	0.135	1185281	keystroke	r	n/a
592.8055	0.105	1185611	keystroke	y	n/a
593.3755	0.075	1186751	keystroke	Key.enter	n/a
593.464	14.0955	1186928	prompt	n/a	they'll differ mentor pharmacies\n
594.2605	0.12	1188521	keystroke	t	n/a
594.3505	0.12	1188701	keystroke	h	n/a
594.5155	0.15	1189031	keystroke	e	n/a
594.6505	0.105	1189301	keystroke	y	n/a
595.0105	0.105	1190021	keystroke	'	n/a
595.431	0.105	1190862	keystroke	l	n/a
595.626	0.18	1191252	keystroke	l	n/a
595.731	0.135	1191462	keystroke	Key.space	n/a
596.391	0.105	1192782	keystroke	d	n/a
596.541	0.105	1193082	keystroke	i	n/a
596.691	0.075	1193382	keystroke	f	n/a
596.871	0.15	1193742	keystroke	f	n/a
597.051	0.195	1194102	keystroke	e	n/a
597.171	0.135	1194342	keystroke	r	n/a
597.336	0.12	1194672	keystroke	Key.space	n/a
597.546	0.105	1195092	keystroke	m	n/a
597.606	0.15	1195212	keystroke	e	n/a
597.786	0.105	1195572	keystroke	n	n/a
597.83	0.136	1195660	keystroke	t	n/a
598.055	0.121	1196110	keystroke	o	n/a
598.191	0.12	1196382	keystroke	Key.space	n/a
598.491	0.12	1196982	keystroke	p	n/a
598.686	0.12	1197372	keystroke	h	n/a
598.865	0.1665	1197730	keystroke	a	n/a
599.016	0.1345	1198032	keystroke	r	n/a
599.2705	0.1355	1198541	keystroke	m	n/a
599.45	0.1055	1198900	keystroke	a	n/a
599.6915	0.149	1199383	keystroke	c	n/a
599.8255	0.075	1199651	keystroke	i	n/a
600.0055	0.105	1200011	keystroke	e	n/a
600.2315	0.12	1200463	keystroke	d	n/a
600.6505	0.12	1201301	keystroke	Key.backspace	n/a
600.7565	0.15	1201513	keystroke	s	n/a
601.8205	0.12	1203641	keystroke	Key.backspace	n/a
602.0005	0.09	1204001	keystroke	Key.backspace	n/a
602.1955	0.045	1204391	keystroke	Key.backspace	n/a
602.3455	0.06	1204691	keystroke	Key.backspace	n/a
602.5105	0.045	1205021	keystroke	Key.backspace	n/a
602.6605	0.046	1205321	keystroke	Key.backspace	n/a
602.8255	0.045	1205651	keystroke	Key.backspace	n/a
602.9755	0.06	1205951	keystroke	Key.backspace	n/a
603.1405	0.06	1206281	keystroke	Key.backspace	n/a
603.3055	0.06	1206611	keystroke	Key.backspace	n/a
603.4855	0.045	1206971	keystroke	Key.backspace	n/a
604.1155	0.12	1208231	keystroke	r	n/a
604.3855	0.1055	1208771	keystroke	Key.space	n/a
604.626	0.105	1209252	keystroke	p	n/a
604.791	0.165	1209582	keystroke	h	n/a
604.971	0.135	1209942	keystroke	a	n/a
605.406	0.12	1210812	keystroke	r	n/a
605.661	0.12	1211322	keystroke	m	n/a
605.826	0.1345	1211652	keystroke	a	n/a
606.1105	0.165	1212221	keystroke	c	n/a
606.2455	0.105	1212491	keystroke	i	n/a
606.6805	0.12	1213361	keystroke	e	n/a
607.2355	0.135	1214471	keystroke	s	n/a
607.4905	0.06	1214981	keystroke	Key.enter	n/a
607.5645	7.4805	1215129	prompt	n/a	archives stuff translation somehow\n
608.1655	0.12	1216331	keystroke	a	n/a
608.3455	0.12	1216691	keystroke	r	n/a
608.6155	0.135	1217231	keystroke	c	n/a
608.7205	0.18	1217441	keystroke	h	n/a
608.8405	0.09	1217681	keystroke	i	n/a
609.0355	0.15	1218071	keystroke	v	n/a
609.2005	0.12	1218401	keystroke	e	n/a
609.4555	0.12	1218911	keystroke	s	n/a
609.7255	0.12	1219451	keystroke	Key.space	n/a
610.0105	0.12	1220021	keystroke	s	n/a
610.1755	0.15	1220351	keystroke	t	n/a
610.3105	0.105	1220621	keystroke	u	n/a
610.55	0.1055	1221100	keystroke	f	n/a
610.7605	0.135	1221521	keystroke	f	n/a
610.8505	0.12	1221701	keystroke	Key.space	n/a
611.0905	0.12	1222181	keystroke	t	n/a
611.3155	0.165	1222631	keystroke	r	n/a
611.4955	0.075	1222991	keystroke	a	n/a
611.6155	0.09	1223231	keystroke	n	n/a
611.7955	0.105	1223591	keystroke	s	n/a
611.9155	0.12	1223831	keystroke	l	n/a
612.0955	0.105	1224191	keystroke	a	n/a
612.1855	0.15	1224371	keystroke	t	n/a
612.2755	0.27	1224551	keystroke	i	n/a
612.3955	0.18	1224791	keystroke	o	n/a
612.5305	0.135	1225061	keystroke	n	n/a
613.1155	0.09	1226231	keystroke	Key.space	n/a
613.3255	0.165	1226651	keystroke	s	n/a
613.4455	0.15	1226891	keystroke	o	n/a
613.6865	0.134	1227373	keystroke	m	n/a
613.8055	0.075	1227611	keystroke	e	n/a
614.3605	0.21	1228721	keystroke	h	n/a
614.4805	0.15	1228961	keystroke	o	n/a
614.6755	0.12	1229351	keystroke	w	n/a
614.9755	0.06	1229951	keystroke	Key.enter	n/a
615.0515	6.893	1230103	prompt	n/a	and hostels beer confirm\n
615.6955	0.105	1231391	keystroke	a	n/a
615.7855	0.135	1231571	keystroke	n	n/a
615.9355	0.12	1231871	keystroke	d	n/a
616.3855	0.075	1232771	keystroke	Key.space	n/a
616.5805	0.165	1233161	keystroke	h	n/a
616.6855	0.12	1233371	keystroke	o	n/a
617.3305	0.09	1234661	keystroke	s	n/a
617.6605	0.06	1235321	keystroke	t	n/a
617.7955	0.15	1235591	keystroke	e	n/a
617.9755	0.105	1235951	keystroke	l	n/a
618.0955	0.15	1236191	keystroke	s	n/a
618.5755	0.105	1237151	keystroke	Key.space	n/a
618.8905	0.075	1237781	keystroke	b	n/a
619.0705	0.09	1238141	keystroke	e	n/a
619.2505	0.195	1238501	keystroke	e	n/a
619.4005	0.12	1238801	keystroke	r	n/a
619.8205	0.105	1239641	keystroke	Key.space	n/a
620.241	0.135	1240482	keystroke	c	n/a
620.316	0.135	1240632	keystroke	o	n/a
620.481	0.12	1240962	keystroke	n	n/a
620.6605	0.12	1241321	keystroke	f	n/a
620.8855	0.12	1241771	keystroke	i	n/a
621.0355	0.105	1242071	keystroke	r	n/a
621.5455	0.105	1243091	keystroke	m	n/a
621.8605	0.075	1243721	keystroke	Key.enter	n/a
621.9485	10.016	1243897	prompt	n/a	motorola stroke picking annotation\n
622.6105	0.165	1245221	keystroke	m	n/a
622.7305	0.15	1245461	keystroke	o	n/a
622.8955	0.105	1245791	keystroke	r	n/a
623.1805	0.135	1246361	keystroke	t	n/a
623.3005	0.105	1246601	keystroke	o	n/a
623.6155	0.045	1247231	keystroke	Key.backspace	n/a
623.7655	0.105	1247531	keystroke	Key.backspace	n/a
623.9155	0.15	1247831	keystroke	t	n/a
624.0505	0.12	1248101	keystroke	o	n/a
624.3955	0.12	1248791	keystroke	Key.backspace	n/a
624.5605	0.105	1249121	keystroke	Key.backspace	n/a
624.7555	0.09	1249511	keystroke	Key.backspace	n/a
624.9055	0.15	1249811	keystroke	t	n/a
625.0705	0.12	1250141	keystroke	o	n/a
625.2655	0.15	1250531	keystroke	r	n/a
625.4305	0.12	1250861	keystroke	o	n/a
625.7155	0.09	1251431	keystroke	l	n/a
625.9105	0.105	1251821	keystroke	l	n/a
626.0755	0.12	1252151	keystroke	a	n/a
626.4805	0.09	1252961	keystroke	Key.space	n/a
626.7955	0.15	1253591	keystroke	s	n/a
626.9155	0.12	1253831	keystroke	t	n/a
627.1405	0.12	1254281	keystroke	r	n/a
627.2455	0.09	1254491	keystroke	o	n/a
627.5005	0.09	1255001	keystroke	k	n/a
627.6355	0.15	1255271	keystroke	e	n/a
627.7705	0.09	1255541	keystroke	Key.space	n/a
628.0555	0.12	1256111	keystroke	p	n/a
628.2955	0.09	1256591	keystroke	i	n/a
629.046	0.09	1258092	keystroke	c	n/a
629.301	0.1045	1258602	keystroke	k	n/a
629.511	0.12	1259022	keystroke	i	n/a
629.676	0.135	1259352	keystroke	n	n/a
629.856	0.15	1259712	keystroke	g	n/a
630.021	0.135	1260042	keystroke	Key.space	n/a
630.2755	0.1055	1260551	keystroke	a	n/a
630.366	0.075	1260732	keystroke	n	n/a
630.546	0.165	1261092	keystroke	n	n/a
630.681	0.075	1261362	keystroke	o	n/a
630.831	0.075	1261662	keystroke	t	n/a
631.146	0.09	1262292	keystroke	a	n/a
631.311	0.15	1262622	keystroke	t	n/a
631.371	0.255	1262742	keystroke	i	n/a
631.446	0.15	1262892	keystroke	o	n/a
631.581	0.135	1263162	keystroke	n	n/a
631.881	0.075	1263762	keystroke	Key.enter	n/a
631.9685	10.3005	1263937	prompt	n/a	sacred sugar munich permitted\n
632.766	0.21	1265532	keystroke	s	n/a
633.096	0.1495	1266192	keystroke	c	n/a
633.5905	0.075	1267181	keystroke	Key.backspace	n/a
633.6955	0.105	1267391	keystroke	a	n/a
633.9205	0.12	1267841	keystroke	c	n/a
634.1755	0.21	1268351	keystroke	r	n/a
634.5055	0.18	1269011	keystroke	e	n/a
635.1955	0.075	1270391	keystroke	d	n/a
635.4355	0.09	1270871	keystroke	Key.space	n/a
635.6005	0.15	1271201	keystroke	s	n/a
635.7205	0.12	1271441	keystroke	u	n/a
636.1105	0.12	1272221	keystroke	g	n/a
636.3655	0.15	1272731	keystroke	a	n/a
636.6355	0.09	1273271	keystroke	r	n/a
636.8905	0.09	1273781	keystroke	Key.space	n/a
637.2655	0.12	1274531	keystroke	n	n/a
637.5805	0.105	1275161	keystroke	Key.backspace	n/a
637.8655	0.105	1275731	keystroke	m	n/a
638.1205	0.105	1276241	keystroke	u	n/a
638.8255	0.135	1277651	keystroke	c	n/a
639.1855	0.09	1278371	keystroke	Key.backspace	n/a
639.4405	0.165	1278881	keystroke	n	n/a
639.5455	0.135	1279091	keystroke	i	n/a
639.7255	0.135	1279451	keystroke	c	n/a
639.8455	0.105	1279691	keystroke	h	n/a
640.2805	0.09	1280561	keystroke	Key.space	n/a
640.5355	0.105	1281071	keystroke	p	n/a
640.6705	0.18	1281341	keystroke	e	n/a
640.8055	0.12	1281611	keystroke	r	n/a
640.9855	0.135	1281971	keystroke	m	n/a
641.0905	0.105	1282181	keystroke	i	n/a
641.2555	0.105	1282511	keystroke	t	n/a
641.4505	0.165	1282901	keystroke	t	n/a
641.5555	0.15	1283111	keystroke	e	n/a
641.8555	0.12	1283711	keystroke	d	n/a
642.1855	0.075	1284371	keystroke	Key.enter	n/a
642.2735	6.9855	1284547	prompt	n/a	door arms nobody ryan\n
643.0105	0.15	1286021	keystroke	d	n/a
643.1155	0.075	1286231	keystroke	o	n/a
643.2955	0.105	1286591	keystroke	o	n/a
643.4305	0.15	1286861	keystroke	r	n/a
643.5805	0.105	1287161	keystroke	Key.space	n/a
643.7755	0.12	1287551	keystroke	a	n/a
644.0605	0.12	1288121	keystroke	r	n/a
644.2555	0.12	1288511	keystroke	m	n/a
644.4955	0.15	1288991	keystroke	s	n/a
644.63	0.1055	1289260	keystroke	Key.space	n/a
645.5605	0.165	1291121	keystroke	n	n/a
645.6805	0.09	1291361	keystroke	o	n/a
646.0705	0.15	1292141	keystroke	b	n/a
646.2655	0.105	1292531	keystroke	o	n/a
646.5205	0.15	1293041	keystroke	d	n/a
646.7005	0.135	1293401	keystroke	y	n/a
646.8505	0.12	1293701	keystroke	Key.space	n/a
647.0605	0.165	1294121	keystroke	r	n/a
647.3005	0.12	1294601	keystroke	y	n/a
647.5255	0.075	1295051	keystroke	s	n/a
647.8705	0.09	1295741	keystroke	Key.backspace	n/a
647.9755	0.105	1295951	keystroke	a	n/a
648.1705	0.12	1296341	keystroke	n	n/a
649.175	0.075	1298350	keystroke	Key.enter	n/a
649.263	10.9165	1298526	prompt	n/a	verizon botswana journalism assault\n
650.03	0.166	1300060	keystroke	v	n/a
650.18	0.21	1300360	keystroke	e	n/a
650.3455	0.1195	1300691	keystroke	r	n/a
650.45	0.075	1300900	keystroke	i	n/a
651.035	0.135	1302070	keystroke	z	n/a
651.155	0.135	1302310	keystroke	o	n/a
651.38	0.15	1302760	keystroke	n	n/a
651.56	0.105	1303120	keystroke	Key.space	n/a
651.95	0.135	1303900	keystroke	b	n/a
652.115	0.12	1304230	keystroke	o	n/a
652.31	0.15	1304620	keystroke	t	n/a
652.61	0.135	1305220	keystroke	s	n/a
653.225	0.18	1306450	keystroke	w	n/a
653.375	0.105	1306750	keystroke	a	n/a
653.555	0.12	1307110	keystroke	n	n/a
653.765	0.12	1307530	keystroke	n	n/a
654.14	0.135	1308280	keystroke	Key.backspace	n/a
654.305	0.135	1308610	keystroke	a	n/a
654.56	0.105	1309120	keystroke	Key.space	n/a
655.1	0.165	1310200	keystroke	j	n/a
655.28	0.195	1310560	keystroke	o	n/a
655.43	0.09	1310860	keystroke	u	n/a
655.655	0.135	1311310	keystroke	r	n/a
656.09	0.135	1312180	keystroke	n	n/a
656.315	0.09	1312630	keystroke	a	n/a
656.435	0.165	1312870	keystroke	l	n/a
656.57	0.105	1313140	keystroke	i	n/a
656.72	0.135	1313440	keystroke	s	n/a
657.11	0.12	1314220	keystroke	m	n/a
657.665	0.09	1315330	keystroke	Key.space	n/a
657.83	0.105	1315660	keystroke	a	n/a
658.04	0.09	1316080	keystroke	s	n/a
658.235	0.15	1316470	keystroke	s	n/a
658.325	0.15	1316650	keystroke	a	n/a
658.46	0.105	1316920	keystroke	u	n/a
659	0.045	1318000	keystroke	t	n/a
659.42	0.105	1318840	keystroke	Key.backspace	n/a
659.69	0.135	1319380	keystroke	l	n/a
659.78	0.105	1319560	keystroke	t	n/a
660.0805	0.09	1320161	keystroke	Key.enter	n/a
660.1835	9.5355	1320367	prompt	n/a	editor criminal randy jake\n
660.8605	0.105	1321721	keystroke	e	n/a
661.1005	0.135	1322201	keystroke	d	n/a
661.2505	0.105	1322501	keystroke	i	n/a
661.4305	0.135	1322861	keystroke	t	n/a
661.5805	0.165	1323161	keystroke	o	n/a
661.7305	0.12	1323461	keystroke	Key.space	n/a
662.2255	0.18	1324451	keystroke	c	n/a
662.81	0.075	1325620	keystroke	Key.backspace	n/a
662.99	0.12	1325980	keystroke	Key.backspace	n/a
663.125	0.12	1326250	keystroke	r	n/a
663.26	0.0755	1326520	keystroke	Key.space	n/a
663.6505	0.105	1327301	keystroke	e	n/a
664.0405	0.06	1328081	keystroke	Key.backspace	n/a
664.1455	0.15	1328291	keystroke	c	n/a
664.4305	0.1195	1328861	keystroke	r	n/a
664.64	0.105	1329280	keystroke	e	n/a
665.135	0.09	1330270	keystroke	Key.backspace	n/a
665.39	0.0595	1330780	keystroke	i	n/a
665.6	0.1345	1331200	keystroke	m	n/a
665.6895	0.105	1331379	keystroke	i	n/a
665.8995	0.12	1331799	keystroke	n	n/a
666.0345	0.105	1332069	keystroke	a	n/a
666.2445	0.15	1332489	keystroke	l	n/a
666.3645	0.105	1332729	keystroke	Key.space	n/a
666.62	0.165	1333240	keystroke	r	n/a
666.77	0.135	1333540	keystroke	a	n/a
666.83	0.135	1333660	keystroke	n	n/a
667.04	0.15	1334080	keystroke	d	n/a
667.205	0.15	1334410	keystroke	y	n/a
667.31	0.135	1334620	keystroke	Key.space	n/a
667.73	0.09	1335460	keystroke	a	n/a
668.3	0.0745	1336600	keystroke	Key.backspace	n/a
668.5545	0.105	1337109	keystroke	j	n/a
668.9445	0.09	1337889	keystroke	a	n/a
669.2145	0.135	1338429	keystroke	k	n/a
669.3645	0.12	1338729	keystroke	e	n/a
669.6045	0.105	1339209	keystroke	Key.enter	n/a
669.7245	8.2	1339449	prompt	n/a	origin compliance cosmetic concrete\n
670.58	0.1345	1341160	keystroke	o	n/a
670.6845	0.15	1341369	keystroke	r	n/a
670.8645	0.12	1341729	keystroke	i	n/a
671.1045	0.135	1342209	keystroke	g	n/a
671.3295	0.105	1342659	keystroke	i	n/a
671.5545	0.12	1343109	keystroke	n	n/a
672.0795	0.105	1344159	keystroke	Key.space	n/a
672.3645	0.165	1344729	keystroke	c	n/a
672.4095	0.135	1344819	keystroke	o	n/a
672.6045	0.15	1345209	keystroke	m	n/a
672.7395	0.105	1345479	keystroke	p	n/a
672.9645	0.165	1345929	keystroke	l	n/a
673.1445	0.09	1346289	keystroke	i	n/a
673.4295	0.12	1346859	keystroke	a	n/a
673.5505	0.1345	1347101	keystroke	n	n/a
673.76	0.135	1347520	keystroke	c	n/a
674.03	0.135	1348060	keystroke	e	n/a
674.09	0.105	1348180	keystroke	Key.space	n/a
674.36	0.1795	1348720	keystroke	c	n/a
674.48	0.15	1348960	keystroke	o	n/a
674.795	0.12	1349590	keystroke	s	n/a
675.065	0.135	1350130	keystroke	m	n/a
675.14	0.1805	1350280	keystroke	e	n/a
675.3355	0.1345	1350671	keystroke	t	n/a
675.5	0.12	1351000	keystroke	i	n/a
675.785	0.135	1351570	keystroke	c	n/a
676.1	0.105	1352200	keystroke	Key.space	n/a
676.295	0.165	1352590	keystroke	c	n/a
676.385	0.105	1352770	keystroke	o	n/a
676.58	0.105	1353160	keystroke	n	n/a
676.835	0.135	1353670	keystroke	c	n/a
677.105	0.135	1354210	keystroke	r	n/a
677.21	0.135	1354420	keystroke	e	n/a
677.405	0.15	1354810	keystroke	t	n/a
677.54	0.135	1355080	keystroke	e	n/a
677.795	0.12	1355590	keystroke	Key.enter	n/a
677.929	8.3495	1355858	prompt	n/a	framing success footage leaves\n
678.68	0.105	1357360	keystroke	f	n/a
678.89	0.165	1357780	keystroke	r	n/a
679.025	0.075	1358050	keystroke	a	n/a
679.595	0.12	1359190	keystroke	m	n/a
679.79	0.15	1359580	keystroke	i	n/a
679.955	0.105	1359910	keystroke	n	n/a
680.09	0.15	1360180	keystroke	g	n/a
680.21	0.12	1360420	keystroke	Key.space	n/a
680.4345	0.12	1360869	keystroke	s	n/a
680.5395	0.0905	1361079	keystroke	u	n/a
680.734	0.075	1361468	keystroke	c	n/a
680.899	0.105	1361798	keystroke	c	n/a
681.11	0.119	1362220	keystroke	e	n/a
681.305	0.135	1362610	keystroke	s	n/a
681.53	0.1195	1363060	keystroke	s	n/a
681.8145	0.105	1363629	keystroke	Key.space	n/a
682.2045	0.135	1364409	keystroke	f	n/a
682.4145	0.09	1364829	keystroke	o	n/a
682.5795	0.12	1365159	keystroke	o	n/a
682.6545	0.151	1365309	keystroke	t	n/a
682.8645	0.12	1365729	keystroke	a	n/a
683.0445	0.18	1366089	keystroke	g	n/a
683.2095	0.135	1366419	keystroke	e	n/a
683.2695	0.135	1366539	keystroke	Key.space	n/a
683.4195	0.1345	1366839	keystroke	l	n/a
683.5245	0.1345	1367049	keystroke	e	n/a
683.7195	0.1495	1367439	keystroke	a	n/a
684.4545	0.195	1368909	keystroke	v	n/a
684.6195	0.12	1369239	keystroke	e	n/a
684.8445	0.1205	1369689	keystroke	a	n/a
685.19	0.105	1370380	keystroke	Key.backspace	n/a
685.28	0.09	1370560	keystroke	e	n/a
685.894	0.0905	1371788	keystroke	Key.backspace	n/a
685.969	0.166	1371938	keystroke	s	n/a
686.165	0.104	1372330	keystroke	Key.enter	n/a
686.283	8.8155	1372566	prompt	n/a	bathrooms framing observe applicant\n
687.1095	0.15	1374219	keystroke	b	n/a
687.5445	0.135	1375089	keystroke	a	n/a
687.6945	0.15	1375389	keystroke	t	n/a
687.8295	0.135	1375659	keystroke	h	n/a
688.1745	0.135	1376349	keystroke	r	n/a
688.2495	0.09	1376499	keystroke	o	n/a
688.4295	0.135	1376859	keystroke	o	n/a
688.6845	0.105	1377369	keystroke	m	n/a
689.2245	0.15	1378449	keystroke	s	n/a
689.5545	0.09	1379109	keystroke	Key.space	n/a
689.7945	0.09	1379589	keystroke	f	n/a
689.9895	0.135	1379979	keystroke	r	n/a
690.1245	0.12	1380249	keystroke	a	n/a
690.2745	0.15	1380549	keystroke	m	n/a
690.4095	0.135	1380819	keystroke	i	n/a
690.5145	0.15	1381029	keystroke	n	n/a
690.6495	0.12	1381299	keystroke	g	n/a
690.8295	0.12	1381659	keystroke	Key.space	n/a
691.1145	0.15	1382229	keystroke	o	n/a
691.3545	0.105	1382709	keystroke	b	n/a
691.8195	0.15	1383639	keystroke	s	n/a
692.1945	0.2105	1384389	keystroke	e	n/a
692.345	0.12	1384690	keystroke	r	n/a
692.645	0.15	1385290	keystroke	v	n/a
692.825	0.165	1385650	keystroke	e	n/a
693.11	0.105	1386220	keystroke	Key.space	n/a
693.41	0.12	1386820	keystroke	a	n/a
693.545	0.03	1387090	keystroke	p	n/a
693.68	0.09	1387360	keystroke	p	n/a
693.875	0.195	1387750	keystroke	l	n/a
693.95	0.135	1387900	keystroke	i	n/a
694.115	0.195	1388230	keystroke	c	n/a
694.34	0.119	1388680	keystroke	a	n/a
694.475	0.135	1388950	keystroke	n	n/a
694.774	0.121	1389548	keystroke	t	n/a
694.954	0.135	1389908	keystroke	Key.enter	n/a
695.1025	12.1455	1390205	prompt	n/a	university chinese implied africa\n
695.735	0.1045	1391470	keystroke	u	n/a
695.9445	0.1795	1391889	keystroke	n	n/a
696.0495	0.1045	1392099	keystroke	i	n/a
696.4845	0.12	1392969	keystroke	r	n/a
696.6945	0.135	1393389	keystroke	s	n/a
