onset	duration	sample	value	key	prompt_text
7.057	8.3285	14114	prompt	n/a	the quick brown fox jumps over a lazy dog\n
9.61	0.0275	19220	keystroke_t	t	n/a
9.6225	0.1195	19245	keystroke_h	h	n/a
9.697	0.1205	19394	keystroke_e	e	n/a
9.832	0.1355	19664	keystroke_Key.space	Key.space	n/a
9.997	0.12	19994	keystroke_q	q	n/a
10.073	0.1045	20146	keystroke_u	u	n/a
10.147	0.1205	20294	keystroke_i	i	n/a
10.2975	0.1195	20595	keystroke_c	c	n/a
10.387	0.12	20774	keystroke_k	k	n/a
10.5525	0.165	21105	keystroke_Key.space	Key.space	n/a
10.822	0.0605	21644	keystroke_b	b	n/a
11.032	0.0605	22064	keystroke_r	r	n/a
11.0775	0.1355	22155	keystroke_o	o	n/a
11.228	0.1345	22456	keystroke_w	w	n/a
11.303	0.12	22606	keystroke_n	n	n/a
11.497	0.1805	22994	keystroke_Key.space	Key.space	n/a
11.828	0.119	23656	keystroke_f	f	n/a
11.902	0.105	23804	keystroke_o	o	n/a
12.038	0.1195	24076	keystroke_x	x	n/a
12.1425	0.15	24285	keystroke_Key.space	Key.space	n/a
12.248	0.119	24496	keystroke_j	j	n/a
12.4725	0.0755	24945	keystroke_u	u	n/a
12.698	0.135	25396	keystroke_m	m	n/a
12.9075	0.09	25815	keystroke_p	p	n/a
13.0575	0.1495	26115	keystroke_s	s	n/a
13.267	0.105	26534	keystroke_Key.space	Key.space	n/a
13.402	0.1205	26804	keystroke_o	o	n/a
13.463	0.0895	26926	keystroke_v	v	n/a
13.657	0.1655	27314	keystroke_e	e	n/a
13.7625	0.0905	27525	keystroke_r	r	n/a
13.8375	0.1045	27675	keystroke_Key.space	Key.space	n/a
13.9725	0.1195	27945	keystroke_a	a	n/a
14.0775	0.135	28155	keystroke_Key.space	Key.space	n/a
14.287	0.15	28574	keystroke_l	l	n/a
14.407	0.12	28814	keystroke_a	a	n/a
14.692	0.1205	29384	keystroke_z	z	n/a
14.767	0.0755	29534	keystroke_y	y	n/a
14.932	0.1205	29864	keystroke_Key.space	Key.space	n/a
14.978	0.1345	29956	keystroke_d	d	n/a
15.0975	0.09	30195	keystroke_o	o	n/a
15.203	0.075	30406	keystroke_g	g	n/a
15.307	0.075	30614	keystroke_Key.enter	Key.enter	n/a
15.3905	4.119	30781	prompt	n/a	goes asia barrel choice\n
16.192	0.1205	32384	keystroke_g	g	n/a
16.327	0.1205	32654	keystroke_o	o	n/a
16.432	0.151	32864	keystroke_e	e	n/a
16.5525	0.12	33105	keystroke_s	s	n/a
16.6575	0.105	33315	keystroke_Key.space	Key.space	n/a
16.8975	0.105	33795	keystroke_a	a	n/a
17.0785	0.134	34157	keystroke_s	s	n/a
17.228	0.1195	34456	keystroke_i	i	n/a
17.318	0.119	34636	keystroke_a	a	n/a
17.5275	0.1645	35055	keystroke_Key.space	Key.space	n/a
17.7375	0.0895	35475	keystroke_b	b	n/a
17.873	0.135	35746	keystroke_a	a	n/a
17.978	0.09	35956	keystroke_r	r	n/a
18.172	0.1055	36344	keystroke_r	r	n/a
18.323	0.12	36646	keystroke_e	e	n/a
18.457	0.151	36914	keystroke_l	l	n/a
18.6375	0.1195	37275	keystroke_Key.space	Key.space	n/a
18.773	0.105	37546	keystroke_c	c	n/a
18.8475	0.1505	37695	keystroke_h	h	n/a
18.953	0.1195	37906	keystroke_o	o	n/a
19.0125	0.1345	38025	keystroke_i	i	n/a
19.073	0.104	38146	keystroke_c	c	n/a
19.283	0.1045	38566	keystroke_e	e	n/a
19.4325	0.0745	38865	keystroke_Key.enter	Key.enter	n/a
19.5145	6.355	39029	prompt	n/a	reuters frozen manhattan passed\n
20.452	0.1505	40904	keystroke_r	r	n/a
20.5575	0.1055	41115	keystroke_e	e	n/a
20.887	0.1055	41774	keystroke_u	u	n/a
21.0375	0.0895	42075	keystroke_t	t	n/a
21.172	0.165	42344	keystroke_e	e	n/a
21.2775	0.1955	42555	keystroke_r	r	n/a
21.4875	0.1345	42975	keystroke_s	s	n/a
21.637	0.1655	43274	keystroke_Key.space	Key.space	n/a
21.7875	0.075	43575	keystroke_f	f	n/a
21.9675	0.105	43935	keystroke_r	r	n/a
22.0725	0.105	44145	keystroke_o	o	n/a
22.1925	0.165	44385	keystroke_z	z	n/a
22.328	0.12	44656	keystroke_e	e	n/a
22.598	0.15	45196	keystroke_n	n	n/a
22.988	0.015	45976	keystroke_Key.space	Key.space	n/a
23.1675	0.1355	46335	keystroke_m	m	n/a
23.318	0.0895	46636	keystroke_a	a	n/a
23.4225	0.105	46845	keystroke_n	n	n/a
23.9175	0.1055	47835	keystroke_h	h	n/a
24.037	0.1655	48074	keystroke_a	a	n/a
24.308	0.03	48616	keystroke_t	t	n/a
24.443	0.105	48886	keystroke_t	t	n/a
24.5775	0.18	49155	keystroke_a	a	n/a
24.6975	0.12	49395	keystroke_n	n	n/a
24.9075	0.06	49815	keystroke_Key.space	Key.space	n/a
24.9975	0.1055	49995	keystroke_p	p	n/a
25.058	0.15	50116	keystroke_a	a	n/a
25.148	0.105	50296	keystroke_s	s	n/a
25.328	0.164	50656	keystroke_s	s	n/a
25.4775	0.0745	50955	keystroke_e	e	n/a
25.6575	0.135	51315	keystroke_d	d	n/a
25.7775	0.09	51555	keystroke_Key.enter	Key.enter	n/a
25.875	6.865	51750	prompt	n/a	prescribed advancement routers shield\n
26.587	0.136	53174	keystroke_p	p	n/a
26.663	0.134	53326	keystroke_r	r	n/a
26.753	0.105	53506	keystroke_e	e	n/a
26.993	0.149	53986	keystroke_s	s	n/a
27.278	0.1045	54556	keystroke_c	c	n/a
27.4575	0.1045	54915	keystroke_r	r	n/a
27.607	0.15	55214	keystroke_i	i	n/a
27.7425	0.105	55485	keystroke_b	b	n/a
27.892	0.136	55784	keystroke_e	e	n/a
28.1475	0.1345	56295	keystroke_d	d	n/a
28.328	0.1495	56656	keystroke_Key.space	Key.space	n/a
28.5075	0.135	57015	keystroke_a	a	n/a
28.597	0.136	57194	keystroke_d	d	n/a
28.8825	0.105	57765	keystroke_v	v	n/a
29.2125	0.1645	58425	keystroke_a	a	n/a
29.363	0.1345	58726	keystroke_n	n	n/a
29.5275	0.12	59055	keystroke_c	c	n/a
30.308	0.105	60616	keystroke_e	e	n/a
30.488	0.15	60976	keystroke_m	m	n/a
30.593	0.12	61186	keystroke_e	e	n/a
30.742	0.151	61484	keystroke_n	n	n/a
30.833	0.075	61666	keystroke_t	t	n/a
30.982	0.1355	61964	keystroke_Key.space	Key.space	n/a
31.1025	0.1205	62205	keystroke_r	r	n/a
31.208	0.1345	62416	keystroke_o	o	n/a
31.298	0.135	62596	keystroke_u	u	n/a
31.477	0.106	62954	keystroke_t	t	n/a
31.613	0.254	63226	keystroke_e	e	n/a
31.718	0.135	63436	keystroke_r	r	n/a
31.822	0.166	63644	keystroke_s	s	n/a
31.973	0.12	63946	keystroke_Key.space	Key.space	n/a
32.078	0.1345	64156	keystroke_s	s	n/a
32.167	0.091	64334	keystroke_h	h	n/a
32.227	0.1655	64454	keystroke_i	i	n/a
32.303	0.1045	64606	keystroke_e	e	n/a
32.4525	0.12	64905	keystroke_l	l	n/a
32.5425	0.105	65085	keystroke_d	d	n/a
32.6775	0.06	65355	keystroke_Key.enter	Key.enter	n/a
32.7445	4.4055	65489	prompt	n/a	amber writings outside angle\n
33.4875	0.09	66975	keystroke_a	a	n/a
33.563	0.1195	67126	keystroke_m	m	n/a
33.6975	0.09	67395	keystroke_b	b	n/a
33.848	0.179	67696	keystroke_e	e	n/a
33.952	0.121	67904	keystroke_r	r	n/a
34.0875	0.1355	68175	keystroke_Key.space	Key.space	n/a
34.342	0.151	68684	keystroke_w	w	n/a
34.4625	0.1355	68925	keystroke_r	r	n/a
34.6275	0.12	69255	keystroke_i	i	n/a
34.7325	0.1205	69465	keystroke_t	t	n/a
34.838	0.1645	69676	keystroke_i	i	n/a
35.0025	0.15	70005	keystroke_n	n	n/a
35.0775	0.1505	70155	keystroke_g	g	n/a
35.1975	0.1505	70395	keystroke_s	s	n/a
35.3325	0.1195	70665	keystroke_Key.space	Key.space	n/a
35.497	0.15	70994	keystroke_o	o	n/a
35.602	0.1055	71204	keystroke_u	u	n/a
35.693	0.105	71386	keystroke_t	t	n/a
35.828	0.15	71656	keystroke_s	s	n/a
35.963	0.1345	71926	keystroke_i	i	n/a
36.0225	0.1205	72045	keystroke_d	d	n/a
36.232	0.1355	72464	keystroke_e	e	n/a
36.323	0.1195	72646	keystroke_Key.space	Key.space	n/a
36.4725	0.135	72945	keystroke_a	a	n/a
36.593	0.135	73186	keystroke_n	n	n/a
36.7125	0.1055	73425	keystroke_g	g	n/a
36.8475	0.165	73695	keystroke_l	l	n/a
36.9225	0.105	73845	keystroke_e	e	n/a
37.0875	0.06	74175	keystroke_Key.enter	Key.enter	n/a
37.156	6.2345	74312	prompt	n/a	activated celebration leeds prot\n
37.7475	0.135	75495	keystroke_a	a	n/a
37.928	0.0745	75856	keystroke_c	c	n/a
38.0925	0.06	76185	keystroke_t	t	n/a
38.169	0.134	76338	keystroke_i	i	n/a
38.7225	0.15	77445	keystroke_v	v	n/a
38.888	0.1495	77776	keystroke_a	a	n/a
39.053	0.0895	78106	keystroke_t	t	n/a
39.1125	0.12	78225	keystroke_e	e	n/a
39.3675	0.0905	78735	keystroke_d	d	n/a
39.4875	0.135	78975	keystroke_Key.space	Key.space	n/a
39.638	0.06	79276	keystroke_c	c	n/a
39.803	0.1045	79606	keystroke_e	e	n/a
39.893	0.1495	79786	keystroke_l	l	n/a
40.0275	0.09	80055	keystroke_e	e	n/a
40.313	0.0895	80626	keystroke_b	b	n/a
40.5375	0.09	81075	keystroke_r	r	n/a
40.6125	0.165	81225	keystroke_a	a	n/a
40.7625	0.105	81525	keystroke_t	t	n/a
40.9125	0.1045	81825	keystroke_i	i	n/a
40.9875	0.1195	81975	keystroke_o	o	n/a
41.092	0.1205	82184	keystroke_n	n	n/a
41.468	0.105	82936	keystroke_Key.space	Key.space	n/a
41.857	0.151	83714	keystroke_l	l	n/a
41.993	0.21	83986	keystroke_e	e	n/a
42.2925	0.1055	84585	keystroke_e	e	n/a
42.5025	0.15	85005	keystroke_d	d	n/a
42.6075	0.135	85215	keystroke_s	s	n/a
42.7575	0.075	85515	keystroke_Key.space	Key.space	n/a
42.863	0.1045	85726	keystroke_p	p	n/a
42.983	0.09	85966	keystroke_r	r	n/a
43.088	0.105	86176	keystroke_o	o	n/a
43.1625	0.09	86325	keystroke_t	t	n/a
43.3425	0.045	86685	keystroke_Key.enter	Key.enter	n/a
43.4	6.426	86800	prompt	n/a	bias accommodation system hadn't\n
44.198	0.105	88396	keystroke_b	b	n/a
44.288	0.1345	88576	keystroke_i	i	n/a
44.347	0.181	88694	keystroke_a	a	n/a
44.453	0.15	88906	keystroke_s	s	n/a
44.6175	0.135	89235	keystroke_Key.space	Key.space	n/a
45.068	0.1195	90136	keystroke_a	a	n/a
45.2925	0.0905	90585	keystroke_c	c	n/a
45.488	0.1045	90976	keystroke_c	c	n/a
45.7125	0.1055	91425	keystroke_o	o	n/a
46.0125	0.1045	92025	keystroke_m	m	n/a
46.3725	0.1505	92745	keystroke_m	m	n/a
46.5675	0.105	93135	keystroke_o	o	n/a
46.883	0.1655	93766	keystroke_d	d	n/a
47.0175	0.135	94035	keystroke_a	a	n/a
47.1385	0.104	94277	keystroke_t	t	n/a
47.2125	0.12	94425	keystroke_i	i	n/a
47.3025	0.105	94605	keystroke_o	o	n/a
47.393	0.1205	94786	keystroke_n	n	n/a
47.5875	0.1345	95175	keystroke_Key.space	Key.space	n/a
47.752	0.076	95504	keystroke_s	s	n/a
47.843	0.105	95686	keystroke_y	y	n/a
47.948	0.225	95896	keystroke_s	s	n/a
48.158	0.18	96316	keystroke_t	t	n/a
48.277	0.1655	96554	keystroke_e	e	n/a
48.353	0.1495	96706	keystroke_m	m	n/a
48.5475	0.1655	97095	keystroke_Key.space	Key.space	n/a
48.698	0.1345	97396	keystroke_h	h	n/a
48.788	0.165	97576	keystroke_a	a	n/a
48.8775	0.165	97755	keystroke_d	d	n/a
49.0875	0.1205	98175	keystroke_n	n	n/a
49.267	0.1055	98534	keystroke_'	'	n/a
49.388	0.1045	98776	keystroke_t	t	n/a
49.762	0.06	99524	keystroke_Key.enter	Key.enter	n/a
49.83	6.0245	99660	prompt	n/a	coleman rosa halloween armed\n
50.8735	0.089	101747	keystroke_c	c	n/a
50.9325	0.075	101865	keystroke_o	o	n/a
51.128	0.12	102256	keystroke_l	l	n/a
51.203	0.15	102406	keystroke_e	e	n/a
51.443	0.1645	102886	keystroke_m	m	n/a
51.8175	0.1805	103635	keystroke_a	a	n/a
51.8625	0.1205	103725	keystroke_n	n	n/a
52.193	0.1345	104386	keystroke_Key.space	Key.space	n/a
52.388	0.12	104776	keystroke_r	r	n/a
52.448	0.12	104896	keystroke_o	o	n/a
52.7025	0.2555	105405	keystroke_s	s	n/a
52.943	0.1945	105886	keystroke_a	a	n/a
53.108	0.1195	106216	keystroke_Key.space	Key.space	n/a
53.348	0.104	106696	keystroke_h	h	n/a
53.437	0.165	106874	keystroke_a	a	n/a
53.573	0.105	107146	keystroke_l	l	n/a
53.7385	0.1195	107477	keystroke_l	l	n/a
53.933	0.1345	107866	keystroke_o	o	n/a
54.0525	0.151	108105	keystroke_w	w	n/a
54.158	0.12	108316	keystroke_e	e	n/a
54.338	0.135	108676	keystroke_e	e	n/a
54.518	0.1495	109036	keystroke_n	n	n/a
54.7875	0.12	109575	keystroke_Key.space	Key.space	n/a
54.938	0.2095	109876	keystroke_a	a	n/a
55.088	0.09	110176	keystroke_r	r	n/a
55.222	0.15	110444	keystroke_m	m	n/a
55.388	0.1195	110776	keystroke_e	e	n/a
55.6285	0.1195	111257	keystroke_d	d	n/a
55.7775	0.0745	111555	keystroke_Key.enter	Key.enter	n/a
55.859	5.5645	111718	prompt	n/a	shall doug annual scope\n
57.368	0.135	114736	keystroke_s	s	n/a
57.503	0.135	115006	keystroke_h	h	n/a
57.608	0.12	115216	keystroke_a	a	n/a
57.773	0.06	115546	keystroke_l	l	n/a
57.923	0.1495	115846	keystroke_l	l	n/a
58.0425	0.12	116085	keystroke_Key.space	Key.space	n/a
58.1325	0.135	116265	keystroke_d	d	n/a
58.1925	0.1505	116385	keystroke_o	o	n/a
58.2825	0.1355	116565	keystroke_u	u	n/a
58.538	0.1195	117076	keystroke_g	g	n/a
58.7475	0.1505	117495	keystroke_Key.space	Key.space	n/a
59.0025	0.165	118005	keystroke_a	a	n/a
59.1225	0.075	118245	keystroke_n	n	n/a
59.3035	0.074	118607	keystroke_n	n	n/a
59.4975	0.105	118995	keystroke_u	u	n/a
60.008	0.165	120016	keystroke_a	a	n/a
60.1135	0.1345	120227	keystroke_l	l	n/a
60.263	0.1795	120526	keystroke_Key.space	Key.space	n/a
60.5485	0.164	121097	keystroke_s	s	n/a
60.833	0.12	121666	keystroke_c	c	n/a
60.938	0.1945	121876	keystroke_o	o	n/a
61.043	0.1195	122086	keystroke_p	p	n/a
61.148	0.105	122296	keystroke_e	e	n/a
61.342	0.075	122684	keystroke_Key.enter	Key.enter	n/a
61.4235	6.5055	122847	prompt	n/a	mazda induction violation meaningful\n
62.2275	0.12	124455	keystroke_m	m	n/a
62.318	0.089	124636	keystroke_a	a	n/a
62.618	0.12	125236	keystroke_z	z	n/a
62.8135	0.2095	125627	keystroke_d	d	n/a
62.963	0.15	125926	keystroke_a	a	n/a
63.1275	0.1505	126255	keystroke_Key.space	Key.space	n/a
63.368	0.15	126736	keystroke_i	i	n/a
63.5025	0.1345	127005	keystroke_n	n	n/a
63.802	0.121	127604	keystroke_d	d	n/a
63.9375	0.1205	127875	keystroke_u	u	n/a
64.073	0.075	128146	keystroke_c	c	n/a
64.238	0.1045	128476	keystroke_t	t	n/a
64.313	0.0895	128626	keystroke_i	i	n/a
64.3725	0.12	128745	keystroke_o	o	n/a
64.478	0.1045	128956	keystroke_n	n	n/a
64.6425	0.1355	129285	keystroke_Key.space	Key.space	n/a
64.7625	0.105	129525	keystroke_v	v	n/a
64.8375	0.1205	129675	keystroke_i	i	n/a
64.943	0.1195	129886	keystroke_o	o	n/a
65.528	0.135	131056	keystroke_l	l	n/a
65.888	0.1495	131776	keystroke_a	a	n/a
66.008	0.105	132016	keystroke_t	t	n/a
66.098	0.135	132196	keystroke_i	i	n/a
66.2025	0.0905	132405	keystroke_o	o	n/a
66.277	0.1205	132554	keystroke_n	n	n/a
66.4875	0.135	132975	keystroke_Key.space	Key.space	n/a
66.6375	0.1205	133275	keystroke_m	m	n/a
66.698	0.1495	133396	keystroke_e	e	n/a
66.7875	0.165	133575	keystroke_a	a	n/a
66.8775	0.105	133755	keystroke_n	n	n/a
67.058	0.1195	134116	keystroke_i	i	n/a
67.1625	0.1355	134325	keystroke_n	n	n/a
67.2525	0.075	134505	keystroke_g	g	n/a
67.463	0.1495	134926	keystroke_f	f	n/a
67.5375	0.105	135075	keystroke_u	u	n/a
67.688	0.1345	135376	keystroke_l	l	n/a
67.853	0.0745	135706	keystroke_Key.enter	Key.enter	n/a
67.9335	7.511	135867	prompt	n/a	kentucky affiliation resources highly\n
68.558	0.18	137116	keystroke_k	k	n/a
68.693	0.119	137386	keystroke_e	e	n/a
68.858	0.165	137716	keystroke_n	n	n/a
69.068	0.12	138136	keystroke_t	t	n/a
69.218	0.1195	138436	keystroke_u	u	n/a
69.352	0.105	138704	keystroke_c	c	n/a
69.443	0.1495	138886	keystroke_k	k	n/a
69.788	0.015	139576	keystroke_y	y	n/a
69.863	0.15	139726	keystroke_Key.space	Key.space	n/a
70.298	0.18	140596	keystroke_a	a	n/a
70.4325	0.09	140865	keystroke_f	f	n/a
70.6125	0.1355	141225	keystroke_f	f	n/a
70.8825	0.1505	141765	keystroke_i	i	n/a
71.063	0.195	142126	keystroke_l	l	n/a
71.243	0.149	142486	keystroke_i	i	n/a
71.513	0.135	143026	keystroke_a	a	n/a
71.618	0.12	143236	keystroke_t	t	n/a
71.783	0.12	143566	keystroke_i	i	n/a
71.873	0.105	143746	keystroke_o	o	n/a
71.9635	0.104	143927	keystroke_n	n	n/a
72.157	0.166	144314	keystroke_Key.space	Key.space	n/a
72.278	0.105	144556	keystroke_s	s	n/a
72.698	0.06	145396	keystroke_Key.backspace	Key.backspace	n/a
72.9825	0.1655	145965	keystroke_r	r	n/a
73.0885	0.164	146177	keystroke_e	e	n/a
73.208	0.135	146416	keystroke_s	s	n/a
73.523	0.1495	147046	keystroke_o	o	n/a
73.6425	0.135	147285	keystroke_u	u	n/a
73.7625	0.0905	147525	keystroke_r	r	n/a
73.9575	0.0905	147915	keystroke_c	c	n/a
74.183	0.1645	148366	keystroke_e	e	n/a
74.2575	0.1355	148515	keystroke_s	s	n/a
74.3775	0.1055	148755	keystroke_Key.space	Key.space	n/a
74.5425	0.1505	149085	keystroke_h	h	n/a
74.6775	0.1655	149355	keystroke_i	i	n/a
74.752	0.091	149504	keystroke_g	g	n/a
74.844	0.119	149688	keystroke_h	h	n/a
74.978	0.164	149956	keystroke_l	l	n/a
75.1575	0.0895	150315	keystroke_y	y	n/a
75.397	0.046	150794	keystroke_Key.enter	Key.enter	n/a
75.4495	6.205	150899	prompt	n/a	them copyrights brutal commissioners\n
76.193	0.135	152386	keystroke_t	t	n/a
76.268	0.105	152536	keystroke_h	h	n/a
76.343	0.12	152686	keystroke_e	e	n/a
76.478	0.1195	152956	keystroke_m	m	n/a
76.673	0.1345	153346	keystroke_Key.space	Key.space	n/a
76.748	0.105	153496	keystroke_c	c	n/a
76.853	0.1645	153706	keystroke_o	o	n/a
76.9425	0.105	153885	keystroke_p	p	n/a
77.1975	0.12	154395	keystroke_y	y	n/a
77.633	0.09	155266	keystroke_r	r	n/a
77.753	0.1205	155506	keystroke_i	i	n/a
77.843	0.089	155686	keystroke_g	g	n/a
77.918	0.105	155836	keystroke_h	h	n/a
78.037	0.121	156074	keystroke_t	t	n/a
78.1275	0.1645	156255	keystroke_s	s	n/a
78.278	0.165	156556	keystroke_Key.space	Key.space	n/a
78.4875	0.075	156975	keystroke_b	b	n/a
78.698	0.09	157396	keystroke_r	r	n/a
78.803	0.135	157606	keystroke_u	u	n/a
78.9675	0.1655	157935	keystroke_t	t	n/a
79.118	0.165	158236	keystroke_a	a	n/a
79.298	0.15	158596	keystroke_l	l	n/a
79.507	0.136	159014	keystroke_Key.space	Key.space	n/a
79.688	0.12	159376	keystroke_c	c	n/a
79.748	0.12	159496	keystroke_o	o	n/a
79.883	0.09	159766	keystroke_m	m	n/a
80.048	0.105	160096	keystroke_m	m	n/a
80.213	0.105	160426	keystroke_i	i	n/a
80.333	0.105	160666	keystroke_s	s	n/a
80.513	0.15	161026	keystroke_s	s	n/a
80.678	0.12	161356	keystroke_i	i	n/a
80.768	0.075	161536	keystroke_o	o	n/a
80.828	0.12	161656	keystroke_n	n	n/a
81.2775	0.2405	162555	keystroke_e	e	n/a
81.3675	0.1355	162735	keystroke_r	r	n/a
81.4575	0.1505	162915	keystroke_s	s	n/a
81.5775	0.075	163155	keystroke_Key.enter	Key.enter	n/a
81.6595	5.576	163319	prompt	n/a	relevance eastern nike boundaries\n
82.357	0.076	164714	keystroke_r	r	n/a
82.613	0.1195	165226	keystroke_e	e	n/a
82.7625	0.15	165525	keystroke_l	l	n/a
82.8675	0.1505	165735	keystroke_e	e	n/a
83.213	0.1045	166426	keystroke_v	v	n/a
83.333	0.1345	166666	keystroke_a	a	n/a
83.453	0.1495	166906	keystroke_n	n	n/a
83.543	0.09	167086	keystroke_c	c	n/a
83.7675	0.105	167535	keystroke_e	e	n/a
83.8875	0.1355	167775	keystroke_Key.space	Key.space	n/a
84.023	0.1495	168046	keystroke_e	e	n/a
84.1275	0.18	168255	keystroke_a	a	n/a
84.2175	0.1655	168435	keystroke_s	s	n/a
84.458	0.119	168916	keystroke_t	t	n/a
84.6075	0.1505	169215	keystroke_e	e	n/a
84.713	0.105	169426	keystroke_r	r	n/a
84.908	0.104	169816	keystroke_n	n	n/a
85.102	0.1055	170204	keystroke_Key.space	Key.space	n/a
85.223	0.12	170446	keystroke_n	n	n/a
85.373	0.105	170746	keystroke_i	i	n/a
85.597	0.1505	171194	keystroke_k	k	n/a
85.687	0.105	171374	keystroke_e	e	n/a
85.822	0.1205	171644	keystroke_Key.space	Key.space	n/a
85.973	0.12	171946	keystroke_b	b	n/a
86.063	0.179	172126	keystroke_o	o	n/a
86.153	0.09	172306	keystroke_u	u	n/a
86.363	0.135	172726	keystroke_n	n	n/a
86.438	0.195	172876	keystroke_d	d	n/a
86.618	0.18	173236	keystroke_a	a	n/a
86.753	0.121	173506	keystroke_r	r	n/a
86.859	0.134	173718	keystroke_i	i	n/a
86.948	0.18	173896	keystroke_e	e	n/a
87.053	0.165	174106	keystroke_s	s	n/a
87.143	0.09	174286	keystroke_Key.enter	Key.enter	n/a
87.2395	4.84	174479	prompt	n/a	renew primary argue dubai\n
87.893	0.135	175786	keystroke_r	r	n/a
87.983	0.135	175966	keystroke_e	e	n/a
88.178	0.135	176356	keystroke_n	n	n/a
88.358	0.195	176716	keystroke_e	e	n/a
88.493	0.15	176986	keystroke_w	w	n/a
88.658	0.1045	177316	keystroke_Key.space	Key.space	n/a
88.8375	0.06	177675	keystroke_p	p	n/a
88.9425	0.105	177885	keystroke_r	r	n/a
89.033	0.12	178066	keystroke_i	i	n/a
89.1375	0.195	178275	keystroke_m	m	n/a
89.3175	0.165	178635	keystroke_a	a	n/a
89.4225	0.135	178845	keystroke_r	r	n/a
89.573	0.09	179146	keystroke_y	y	n/a
89.7825	0.18	179565	keystroke_Key.space	Key.space	n/a
89.933	0.1805	179866	keystroke_a	a	n/a
90.068	0.0895	180136	keystroke_r	r	n/a
90.263	0.1195	180526	keystroke_g	g	n/a
90.398	0.1195	180796	keystroke_u	u	n/a
90.503	0.1045	181006	keystroke_e	e	n/a
90.6975	0.12	181395	keystroke_Key.space	Key.space	n/a
91.043	0.18	182086	keystroke_d	d	n/a
91.238	0.134	182476	keystroke_u	u	n/a
91.554	0.149	183108	keystroke_b	b	n/a
91.748	0.195	183496	keystroke_a	a	n/a
91.823	0.105	183646	keystroke_i	i	n/a
92.003	0.075	184006	keystroke_Key.enter	Key.enter	n/a
92.085	8.1405	184170	prompt	n/a	distinction stream incorporated practitioner\n
92.813	0.135	185626	keystroke_d	d	n/a
92.9175	0.1505	185835	keystroke_i	i	n/a
93.069	0.119	186138	keystroke_s	s	n/a
93.473	0.12	186946	keystroke_t	t	n/a
93.593	0.15	187186	keystroke_i	i	n/a
93.728	0.15	187456	keystroke_n	n	n/a
94.058	0.0895	188116	keystroke_c	c	n/a
94.238	0.105	188476	keystroke_t	t	n/a
94.2685	0.1495	188537	keystroke_i	i	n/a
94.3585	0.1195	188717	keystroke_o	o	n/a
94.463	0.1045	188926	keystroke_n	n	n/a
94.6425	0.1655	189285	keystroke_Key.space	Key.space	n/a
94.7625	0.1355	189525	keystroke_s	s	n/a
94.8525	0.1355	189705	keystroke_t	t	n/a
94.9275	0.135	189855	keystroke_e	e	n/a
95.0025	0.15	190005	keystroke_a	a	n/a
95.078	0.135	190156	keystroke_m	m	n/a
95.2875	0.1355	190575	keystroke_Key.space	Key.space	n/a
95.6175	0.12	191235	keystroke_i	i	n/a
95.7675	0.12	191535	keystroke_n	n	n/a
95.9325	0.0905	191865	keystroke_c	c	n/a
96.0385	0.104	192077	keystroke_o	o	n/a
96.173	0.12	192346	keystroke_r	r	n/a
96.623	0.0895	193246	keystroke_p	p	n/a
96.8175	0.121	193635	keystroke_o	o	n/a
96.953	0.1205	193906	keystroke_r	r	n/a
97.238	0.15	194476	keystroke_a	a	n/a
97.343	0.135	194686	keystroke_t	t	n/a
97.433	0.119	194866	keystroke_e	e	n/a
97.6735	0.1035	195347	keystroke_d	d	n/a
97.793	0.1045	195586	keystroke_Key.space	Key.space	n/a
97.943	0.12	195886	keystroke_p	p	n/a
98.048	0.1345	196096	keystroke_r	r	n/a
98.153	0.1345	196306	keystroke_a	a	n/a
98.348	0.0895	196696	keystroke_c	c	n/a
98.497	0.121	196994	keystroke_t	t	n/a
98.663	0.1345	197326	keystroke_i	i	n/a
99.2935	0.1195	198587	keystroke_t	t	n/a
99.398	0.135	198796	keystroke_i	i	n/a
99.503	0.09	199006	keystroke_o	o	n/a
99.578	0.135	199156	keystroke_n	n	n/a
99.938	0.1495	199876	keystroke_e	e	n/a
100.0135	0.104	200027	keystroke_r	r	n/a
100.163	0.06	200326	keystroke_Key.enter	Key.enter	n/a
100.23	8.7245	200460	prompt	n/a	secondary operational pulse languages\n
100.868	0.1795	201736	keystroke_s	s	n/a
101.0175	0.09	202035	keystroke_e	e	n/a
101.273	0.075	202546	keystroke_c	c	n/a
101.303	0.1205	202606	keystroke_o	o	n/a
101.513	0.165	203026	keystroke_n	n	n/a
101.753	0.21	203506	keystroke_d	d	n/a
102.008	0.15	204016	keystroke_a	a	n/a
102.113	0.135	204226	keystroke_r	r	n/a
102.233	0.09	204466	keystroke_y	y	n/a
102.442	0.1355	204884	keystroke_Key.space	Key.space	n/a
102.6085	0.1945	205217	keystroke_o	o	n/a
102.698	0.1195	205396	keystroke_p	p	n/a
103.043	0.18	206086	keystroke_e	e	n/a
103.148	0.105	206296	keystroke_r	r	n/a
103.913	0.165	207826	keystroke_a	a	n/a
104.0175	0.105	208035	keystroke_t	t	n/a
104.108	0.1355	208216	keystroke_i	i	n/a
104.213	0.0895	208426	keystroke_o	o	n/a
104.287	0.166	208574	keystroke_n	n	n/a
104.678	0.165	209356	keystroke_a	a	n/a
104.7675	0.1655	209535	keystroke_l	l	n/a
104.9775	0.1055	209955	keystroke_Key.space	Key.space	n/a
105.157	0.121	210314	keystroke_p	p	n/a
105.293	0.12	210586	keystroke_u	u	n/a
105.7585	0.165	211517	keystroke_l	l	n/a
106.1625	0.195	212325	keystroke_s	s	n/a
106.3425	0.226	212685	keystroke_e	e	n/a
106.508	0.15	213016	keystroke_Key.space	Key.space	n/a
107.018	0.195	214036	keystroke_l	l	n/a
107.243	0.195	214486	keystroke_a	a	n/a
107.363	0.135	214726	keystroke_n	n	n/a
107.513	0.12	215026	keystroke_g	g	n/a
107.6935	0.1345	215387	keystroke_u	u	n/a
108.278	0.21	216556	keystroke_a	a	n/a
108.5335	0.149	217067	keystroke_g	g	n/a
108.638	0.105	217276	keystroke_e	e	n/a
108.6975	0.09	217395	keystroke_s	s	n/a
108.8625	0.09	217725	keystroke_Key.enter	Key.enter	n/a
108.961	7.8685	217922	prompt	n/a	sample educated assumed cakes\n
110.663	0.2395	221326	keystroke_s	s	n/a
110.8425	0.135	221685	keystroke_a	a	n/a
110.9325	0.12	221865	keystroke_m	m	n/a
111.128	0.1045	222256	keystroke_p	p	n/a
111.2475	0.18	222495	keystroke_l	l	n/a
111.3825	0.075	222765	keystroke_e	e	n/a
111.5025	0.18	223005	keystroke_Key.space	Key.space	n/a
111.7135	0.1045	223427	keystroke_e	e	n/a
111.952	0.091	223904	keystroke_d	d	n/a
112.073	0.104	224146	keystroke_u	u	n/a
112.253	0.1945	224506	keystroke_c	c	n/a
112.418	0.195	224836	keystroke_a	a	n/a
112.568	0.1495	225136	keystroke_t	t	n/a
112.733	0.045	225466	keystroke_e	e	n/a
113.0475	0.0455	226095	keystroke_Key.backspace	Key.backspace	n/a
113.498	0.105	226996	keystroke_e	e	n/a
113.738	0.1795	227476	keystroke_d	d	n/a
113.8425	0.12	227685	keystroke_Key.space	Key.space	n/a
114.8035	0.195	229607	keystroke_a	a	n/a
114.923	0.15	229846	keystroke_s	s	n/a
115.133	0.15	230266	keystroke_s	s	n/a
115.223	0.105	230446	keystroke_u	u	n/a
115.4775	0.135	230955	keystroke_m	m	n/a
115.5375	0.09	231075	keystroke_e	e	n/a
115.7775	0.12	231555	keystroke_d	d	n/a
115.9725	0.18	231945	keystroke_Key.space	Key.space	n/a
116.2275	0.12	232455	keystroke_c	c	n/a
116.3325	0.1505	232665	keystroke_a	a	n/a
116.4375	0.1805	232875	keystroke_k	k	n/a
116.543	0.18	233086	keystroke_e	e	n/a
116.633	0.165	233266	keystroke_s	s	n/a
116.753	0.075	233506	keystroke_Key.enter	Key.enter	n/a
116.8335	8.891	233667	prompt	n/a	champions christ demonstration difficulty\n
117.5035	0.1195	235007	keystroke_c	c	n/a
117.5625	0.1055	235125	keystroke_h	h	n/a
117.683	0.1645	235366	keystroke_a	a	n/a
117.8185	0.119	235637	keystroke_m	m	n/a
117.983	0.105	235966	keystroke_p	p	n/a
118.3725	0.1805	236745	keystroke_i	i	n/a
118.523	0.135	237046	keystroke_o	o	n/a
118.642	0.121	237284	keystroke_n	n	n/a
118.777	0.151	237554	keystroke_s	s	n/a
118.943	0.104	237886	keystroke_Key.space	Key.space	n/a
119.183	0.045	238366	keystroke_c	c	n/a
119.198	0.12	238396	keystroke_h	h	n/a
119.3785	0.089	238757	keystroke_r	r	n/a
119.4535	0.134	238907	keystroke_i	i	n/a
119.617	0.196	239234	keystroke_s	s	n/a
120.278	0.0745	240556	keystroke_Key.backspace	Key.backspace	n/a
120.683	0.164	241366	keystroke_s	s	n/a
120.9525	0.1055	241905	keystroke_t	t	n/a
121.043	0.15	242086	keystroke_Key.space	Key.space	n/a
121.343	0.075	242686	keystroke_d	d	n/a
121.538	0.135	243076	keystroke_e	e	n/a
121.703	0.15	243406	keystroke_m	m	n/a
122.078	0.09	244156	keystroke_o	o	n/a
122.183	0.165	244366	keystroke_n	n	n/a
122.498	0.195	244996	keystroke_s	s	n/a
122.648	0.105	245296	keystroke_t	t	n/a
123.008	0.15	246016	keystroke_r	r	n/a
123.1735	0.1645	246347	keystroke_a	a	n/a
123.308	0.105	246616	keystroke_t	t	n/a
123.533	0.104	247066	keystroke_i	i	n/a
123.623	0.104	247246	keystroke_o	o	n/a
123.713	0.105	247426	keystroke_n	n	n/a
123.908	0.12	247816	keystroke_Key.space	Key.space	n/a
123.998	0.1345	247996	keystroke_d	d	n/a
124.0875	0.12	248175	keystroke_i	i	n/a
124.223	0.09	248446	keystroke_f	f	n/a
124.403	0.12	248806	keystroke_f	f	n/a
124.538	0.135	249076	keystroke_i	i	n/a
124.808	0.135	249616	keystroke_c	c	n/a
124.913	0.105	249826	keystroke_u	u	n/a
125.078	0.135	250156	keystroke_l	l	n/a
125.228	0.15	250456	keystroke_t	t	n/a
125.393	0.075	250786	keystroke_y	y	n/a
125.633	0.09	251266	keystroke_Key.enter	Key.enter	n/a
125.7295	7.3155	251459	prompt	n/a	detector concerning equity builders\n
126.277	0.136	252554	keystroke_d	d	n/a
126.623	0.12	253246	keystroke_e	e	n/a
126.848	0.18	253696	keystroke_t	t	n/a
126.998	0.105	253996	keystroke_e	e	n/a
127.298	0.09	254596	keystroke_c	c	n/a
127.493	0.1345	254986	keystroke_t	t	n/a
127.643	0.1495	255286	keystroke_o	o	n/a
127.7775	0.0755	255555	keystroke_r	r	n/a
127.927	0.18	255854	keystroke_Key.space	Key.space	n/a
128.1225	0.106	256245	keystroke_c	c	n/a
128.1835	0.09	256367	keystroke_o	o	n/a
128.2885	0.1645	256577	keystroke_n	n	n/a
128.393	0.0905	256786	keystroke_c	c	n/a
128.587	0.166	257174	keystroke_e	e	n/a
128.677	0.121	257354	keystroke_r	r	n/a
128.933	0.134	257866	keystroke_n	n	n/a
129.157	0.12	258314	keystroke_i	i	n/a
129.263	0.15	258526	keystroke_n	n	n/a
129.352	0.105	258704	keystroke_g	g	n/a
129.5175	0.135	259035	keystroke_Key.space	Key.space	n/a
129.7875	0.1355	259575	keystroke_e	e	n/a
130.0125	0.12	260025	keystroke_q	q	n/a
130.1625	0.15	260325	keystroke_u	u	n/a
130.508	0.1345	261016	keystroke_i	i	n/a
130.7175	0.135	261435	keystroke_t	t	n/a
130.8825	0.1205	261765	keystroke_y	y	n/a
131.123	0.134	262246	keystroke_Key.space	Key.space	n/a
131.3325	0.09	262665	keystroke_f	f	n/a
131.6925	0.09	263385	keystroke_Key.backspace	Key.backspace	n/a
131.903	0.1045	263806	keystroke_b	b	n/a
132.0375	0.12	264075	keystroke_u	u	n/a
132.1425	0.09	264285	keystroke_i	i	n/a
132.2175	0.1505	264435	keystroke_l	l	n/a
132.338	0.135	264676	keystroke_d	d	n/a
132.593	0.255	265186	keystroke_e	e	n/a
132.698	0.165	265396	keystroke_r	r	n/a
132.833	0.165	265666	keystroke_s	s	n/a
132.938	0.105	265876	keystroke_Key.enter	Key.enter	n/a
133.049	6.2805	266098	prompt	n/a	weekend andale russia cemetery\n
133.8975	0.15	267795	keystroke_w	w	n/a
133.973	0.1195	267946	keystroke_e	e	n/a
134.1675	0.15	268335	keystroke_e	e	n/a
134.3475	0.1805	268695	keystroke_k	k	n/a
134.468	0.165	268936	keystroke_e	e	n/a
134.633	0.164	269266	keystroke_n	n	n/a
134.783	0.15	269566	keystroke_d	d	n/a
134.9475	0.1345	269895	keystroke_Key.space	Key.space	n/a
135.173	0.1945	270346	keystroke_a	a	n/a
135.352	0.136	270704	keystroke_n	n	n/a
135.457	0.0905	270914	keystroke_d	d	n/a
136.058	0.135	272116	keystroke_a	a	n/a
136.163	0.1795	272326	keystroke_l	l	n/a
136.2975	0.105	272595	keystroke_e	e	n/a
136.448	0.165	272896	keystroke_Key.space	Key.space	n/a
136.688	0.12	273376	keystroke_r	r	n/a
136.838	0.135	273676	keystroke_u	u	n/a
137.017	0.09	274034	keystroke_s	s	n/a
137.2135	0.1345	274427	keystroke_s	s	n/a
137.333	0.1195	274666	keystroke_i	i	n/a
137.408	0.1345	274816	keystroke_a	a	n/a
137.6025	0.15	275205	keystroke_Key.space	Key.space	n/a
137.7675	0.105	275535	keystroke_c	c	n/a
138.0075	0.0755	276015	keystroke_e	e	n/a
138.0675	0.1355	276135	keystroke_m	m	n/a
138.188	0.104	276376	keystroke_e	e	n/a
138.518	0.12	277036	keystroke_t	t	n/a
138.758	0.18	277516	keystroke_e	e	n/a
138.863	0.149	277726	keystroke_r	r	n/a
139.0425	0.09	278085	keystroke_y	y	n/a
139.268	0.06	278536	keystroke_Key.enter	Key.enter	n/a
139.334	5.9055	278668	prompt	n/a	lemon skirts rings martial\n
140.183	0.135	280366	keystroke_l	l	n/a
140.243	0.1495	280486	keystroke_e	e	n/a
140.408	0.105	280816	keystroke_m	m	n/a
140.528	0.105	281056	keystroke_o	o	n/a
140.618	0.135	281236	keystroke_n	n	n/a
140.798	0.1795	281596	keystroke_Key.space	Key.space	n/a
140.903	0.165	281806	keystroke_s	s	n/a
140.993	0.12	281986	keystroke_k	k	n/a
141.1725	0.135	282345	keystroke_i	i	n/a
141.353	0.0745	282706	keystroke_r	r	n/a
141.533	0.1645	283066	keystroke_t	t	n/a
141.638	0.165	283276	keystroke_s	s	n/a
141.803	0.1345	283606	keystroke_Key.space	Key.space	n/a
141.983	0.105	283966	keystroke_r	r	n/a
142.058	0.09	284116	keystroke_i	i	n/a
142.163	0.15	284326	keystroke_n	n	n/a
142.253	0.1195	284506	keystroke_g	g	n/a
142.343	0.135	284686	keystroke_s	s	n/a
142.4625	0.135	284925	keystroke_Key.space	Key.space	n/a
142.6125	0.136	285225	keystroke_m	m	n/a
142.7035	0.179	285407	keystroke_a	a	n/a
142.8225	0.1055	285645	keystroke_r	r	n/a
143.168	0.134	286336	keystroke_t	t	n/a
143.272	0.166	286544	keystroke_i	i	n/a
143.348	0.165	286696	keystroke_a	a	n/a
143.4685	0.1345	286937	keystroke_l	l	n/a
145.163	0.074	290326	keystroke_Key.enter	Key.enter	n/a
145.244	8.336	290488	prompt	n/a	roland perspectives privilege modular\n
146.843	0.1205	293686	keystroke_r	r	n/a
147.0075	0.09	294015	keystroke_o	o	n/a
147.203	0.165	294406	keystroke_l	l	n/a
147.338	0.165	294676	keystroke_a	a	n/a
147.473	0.15	294946	keystroke_n	n	n/a
147.533	0.165	295066	keystroke_d	d	n/a
147.728	0.0895	295456	keystroke_Key.space	Key.space	n/a
147.8475	0.09	295695	keystroke_p	p	n/a
147.893	0.1945	295786	keystroke_e	e	n/a
147.9975	0.136	295995	keystroke_r	r	n/a
148.238	0.1645	296476	keystroke_s	s	n/a
148.373	0.09	296746	keystroke_p	p	n/a
148.4325	0.0755	296865	keystroke_e	e	n/a
148.673	0.12	297346	keystroke_c	c	n/a
148.823	0.12	297646	keystroke_t	t	n/a
148.958	0.135	297916	keystroke_i	i	n/a
149.124	0.104	298248	keystroke_v	v	n/a
149.213	0.15	298426	keystroke_e	e	n/a
149.513	0.18	299026	keystroke_s	s	n/a
149.528	0.03	299056	keystroke_Key.space	Key.space	n/a
150.5775	0.09	301155	keystroke_p	p	n/a
150.728	0.09	301456	keystroke_r	r	n/a
150.862	0.136	301724	keystroke_i	i	n/a
150.9825	0.165	301965	keystroke_v	v	n/a
151.1025	0.1805	302205	keystroke_i	i	n/a
151.3275	0.225	302655	keystroke_l	l	n/a
151.5375	0.136	303075	keystroke_a	a	n/a
151.6575	0.15	303315	keystroke_t	t	n/a
151.7635	0.1495	303527	keystroke_e	e	n/a
151.9575	0.1355	303915	keystroke_Key.space	Key.space	n/a
152.333	0.12	304666	keystroke_m	m	n/a
152.468	0.1045	304936	keystroke_o	o	n/a
152.5575	0.2105	305115	keystroke_d	d	n/a
152.7825	0.09	305565	keystroke_u	u	n/a
152.933	0.1205	305866	keystroke_l	l	n/a
152.993	0.1945	305986	keystroke_a	a	n/a
153.3225	0.121	306645	keystroke_r	r	n/a
153.5175	0.06	307035	keystroke_Key.enter	Key.enter	n/a
153.5845	7.285	307169	prompt	n/a	weren't extending hills hampshire\n
154.222	0.136	308444	keystroke_w	w	n/a
154.2975	0.1205	308595	keystroke_e	e	n/a
154.373	0.195	308746	keystroke_r	r	n/a
154.493	0.15	308986	keystroke_e	e	n/a
154.673	0.15	309346	keystroke_n	n	n/a
154.928	0.135	309856	keystroke_'	'	n/a
155.078	0.12	310156	keystroke_t	t	n/a
155.362	0.1355	310724	keystroke_Key.space	Key.space	n/a
155.5125	0.135	311025	keystroke_e	e	n/a
155.8275	0.135	311655	keystroke_x	x	n/a
155.993	0.135	311986	keystroke_t	t	n/a
156.233	0.135	312466	keystroke_e	e	n/a
156.352	0.166	312704	keystroke_n	n	n/a
156.473	0.135	312946	keystroke_d	d	n/a
156.593	0.135	313186	keystroke_i	i	n/a
156.713	0.15	313426	keystroke_n	n	n/a
156.8035	0.0895	313607	keystroke_g	g	n/a
156.983	0.134	313966	keystroke_Key.space	Key.space	n/a
157.403	0.15	314806	keystroke_h	h	n/a
157.493	0.12	314986	keystroke_i	i	n/a
157.583	0.134	315166	keystroke_l	l	n/a
157.8075	0.0595	315615	keystroke_s	s	n/a
157.898	0.195	315796	keystroke_l	l	n/a
158.273	0.075	316546	keystroke_Key.backspace	Key.backspace	n/a
158.4675	0.075	316935	keystroke_Key.backspace	Key.backspace	n/a
158.678	0.165	317356	keystroke_l	l	n/a
158.798	0.15	317596	keystroke_s	s	n/a
158.948	0.105	317896	keystroke_Key.space	Key.space	n/a
159.158	0.105	318316	keystroke_h	h	n/a
159.248	0.15	318496	keystroke_a	a	n/a
159.383	0.1195	318766	keystroke_m	m	n/a
159.5185	0.104	319037	keystroke_p	p	n/a
160.1175	0.21	320235	keystroke_s	s	n/a
160.3125	0.121	320625	keystroke_h	h	n/a
160.4175	0.121	320835	keystroke_i	i	n/a
160.5235	0.165	321047	keystroke_r	r	n/a
160.6135	0.135	321227	keystroke_e	e	n/a
160.7635	0.104	321527	keystroke_Key.enter	Key.enter	n/a
160.8735	4.871	321747	prompt	n/a	strap liable missouri marie\n
161.513	0.195	323026	keystroke_s	s	n/a
161.738	0.0895	323476	keystroke_t	t	n/a
161.948	0.0895	323896	keystroke_r	r	n/a
162.008	0.1795	324016	keystroke_a	a	n/a
162.158	0.105	324316	keystroke_p	p	n/a
162.3825	0.1505	324765	keystroke_Key.space	Key.space	n/a
162.5475	0.165	325095	keystroke_l	l	n/a
162.6375	0.166	325275	keystroke_i	i	n/a
162.8475	0.12	325695	keystroke_a	a	n/a
162.9825	0.1055	325965	keystroke_b	b	n/a
163.103	0.1795	326206	keystroke_l	l	n/a
163.1925	0.15	326385	keystroke_e	e	n/a
163.3575	0.12	326715	keystroke_Key.space	Key.space	n/a
163.5375	0.1655	327075	keystroke_m	m	n/a
163.7335	0.1495	327467	keystroke_i	i	n/a
163.868	0.075	327736	keystroke_s	s	n/a
164.063	0.165	328126	keystroke_s	s	n/a
164.168	0.15	328336	keystroke_o	o	n/a
164.288	0.1495	328576	keystroke_u	u	n/a
164.423	0.09	328846	keystroke_r	r	n/a
164.5875	0.15	329175	keystroke_i	i	n/a
164.8275	0.1805	329655	keystroke_Key.space	Key.space	n/a
165.023	0.1345	330046	keystroke_m	m	n/a
165.113	0.164	330226	keystroke_a	a	n/a
165.232	0.106	330464	keystroke_r	r	n/a
165.323	0.15	330646	keystroke_i	i	n/a
165.427	0.166	330854	keystroke_e	e	n/a
165.517	0.1505	331034	keystroke_s	s	n/a
165.6825	0.0605	331365	keystroke_Key.enter	Key.enter	n/a
165.7495	7.51	331499	prompt	n/a	mine entitled clearing components\n
166.6275	0.1205	333255	keystroke_m	m	n/a
166.8225	0.1205	333645	keystroke_i	i	n/a
166.928	0.15	333856	keystroke_n	n	n/a
167.0025	0.1205	334005	keystroke_e	e	n/a
167.198	0.105	334396	keystroke_Key.space	Key.space	n/a
167.3175	0.0905	334635	keystroke_e	e	n/a
167.3625	0.1655	334725	keystroke_n	n	n/a
167.738	0.0745	335476	keystroke_t	t	n/a
167.828	0.15	335656	keystroke_i	i	n/a
167.933	0.105	335866	keystroke_t	t	n/a
168.098	0.15	336196	keystroke_l	l	n/a
168.263	0.1345	336526	keystroke_e	e	n/a
168.5025	0.105	337005	keystroke_d	d	n/a
168.638	0.1495	337276	keystroke_Key.space	Key.space	n/a
168.8925	0.1055	337785	keystroke_c	c	n/a
169.027	0.1505	338054	keystroke_l	l	n/a
169.1175	0.24	338235	keystroke_e	e	n/a
169.2525	0.165	338505	keystroke_a	a	n/a
169.3575	0.1505	338715	keystroke_r	r	n/a
169.4625	0.06	338925	keystroke_n	n	n/a
169.8375	0.105	339675	keystroke_Key.backspace	Key.backspace	n/a
170.123	0.135	340246	keystroke_i	i	n/a
170.243	0.15	340486	keystroke_n	n	n/a
170.303	0.105	340606	keystroke_g	g	n/a
170.4675	0.15	340935	keystroke_Key.space	Key.space	n/a
170.6025	0.105	341205	keystroke_c	c	n/a
170.678	0.09	341356	keystroke_o	o	n/a
170.7825	0.12	341565	keystroke_m	m	n/a
170.9625	0.12	341925	keystroke_p	p	n/a
171.3525	0.045	342705	keystroke_e	e	n/a
171.803	0.06	343606	keystroke_Key.backspace	Key.backspace	n/a
172.013	0.1195	344026	keystroke_o	o	n/a
172.613	0.105	345226	keystroke_n	n	n/a
172.703	0.1355	345406	keystroke_e	e	n/a
172.8535	0.1345	345707	keystroke_n	n	n/a
172.943	0.15	345886	keystroke_t	t	n/a
173.048	0.15	346096	keystroke_s	s	n/a
173.167	0.09	346334	keystroke_Key.enter	Key.enter	n/a
173.27	5.1945	346540	prompt	n/a	featured didn't attending credit\n
174.0375	0.21	348075	keystroke_f	f	n/a
174.1875	0.1355	348375	keystroke_e	e	n/a
174.2925	0.1355	348585	keystroke_a	a	n/a
174.413	0.12	348826	keystroke_t	t	n/a
174.578	0.104	349156	keystroke_u	u	n/a
174.668	0.1345	349336	keystroke_r	r	n/a
174.758	0.1195	349516	keystroke_e	e	n/a
174.997	0.091	349994	keystroke_d	d	n/a
175.102	0.1505	350204	keystroke_Key.space	Key.space	n/a
175.2375	0.075	350475	keystroke_d	d	n/a
175.2975	0.135	350595	keystroke_i	i	n/a
175.3875	0.18	350775	keystroke_d	d	n/a
175.5825	0.09	351165	keystroke_n	n	n/a
175.718	0.119	351436	keystroke_'	'	n/a
175.8525	0.105	351705	keystroke_t	t	n/a
175.9875	0.0895	351975	keystroke_Key.space	Key.space	n/a
176.3175	0.15	352635	keystroke_a	a	n/a
176.4825	0.09	352965	keystroke_t	t	n/a
176.6325	0.135	353265	keystroke_t	t	n/a
176.783	0.134	353566	keystroke_e	e	n/a
176.933	0.15	353866	keystroke_n	n	n/a
177.0525	0.1355	354105	keystroke_d	d	n/a
177.172	0.1205	354344	keystroke_i	i	n/a
177.2775	0.15	354555	keystroke_n	n	n/a
177.383	0.104	354766	keystroke_g	g	n/a
177.562	0.105	355124	keystroke_Key.space	Key.space	n/a
177.592	0.1355	355184	keystroke_c	c	n/a
177.7425	0.1505	355485	keystroke_r	r	n/a
177.848	0.1195	355696	keystroke_e	e	n/a
178.0575	0.105	356115	keystroke_d	d	n/a
178.1475	0.1355	356295	keystroke_i	i	n/a
178.2525	0.09	356505	keystroke_t	t	n/a
178.3875	0.075	356775	keystroke_Key.enter	Key.enter	n/a
178.4705	4.5995	356941	prompt	n/a	gratis impose clan source\n
179.1375	0.0905	358275	keystroke_g	g	n/a
179.3475	0.12	358695	keystroke_r	r	n/a
179.423	0.2095	358846	keystroke_a	a	n/a
179.9325	0.12	359865	keystroke_t	t	n/a
180.037	0.1655	360074	keystroke_i	i	n/a
180.1425	0.15	360285	keystroke_s	s	n/a
180.307	0.15	360614	keystroke_Key.space	Key.space	n/a
180.5025	0.1505	361005	keystroke_i	i	n/a
180.6375	0.1345	361275	keystroke_m	m	n/a
180.847	0.091	361694	keystroke_p	p	n/a
181.028	0.105	362056	keystroke_o	o	n/a
181.119	0.1635	362238	keystroke_s	s	n/a
181.2375	0.12	362475	keystroke_e	e	n/a
181.3725	0.1345	362745	keystroke_Key.space	Key.space	n/a
181.522	0.121	363044	keystroke_c	c	n/a
181.583	0.15	363166	keystroke_l	l	n/a
181.687	0.196	363374	keystroke_a	a	n/a
181.868	0.09	363736	keystroke_n	n	n/a
182.062	0.106	364124	keystroke_Key.space	Key.space	n/a
182.123	0.165	364246	keystroke_s	s	n/a
182.213	0.149	364426	keystroke_o	o	n/a
182.347	0.09	364694	keystroke_u	u	n/a
182.3925	0.0905	364785	keystroke_r	r	n/a
182.6025	0.06	365205	keystroke_c	c	n/a
182.7675	0.1495	365535	keystroke_e	e	n/a
182.962	0.106	365924	keystroke_Key.enter	Key.enter	n/a
183.077	6.7575	366154	prompt	n/a	amazing packets fairy kathy\n
183.833	0.03	367666	keystroke_m	m	n/a
183.847	0.1955	367694	keystroke_a	a	n/a
184.3275	0.075	368655	keystroke_Key.backspace	Key.backspace	n/a
184.5075	0.075	369015	keystroke_Key.backspace	Key.backspace	n/a
184.6875	0.12	369375	keystroke_a	a	n/a
184.8225	0.1355	369645	keystroke_m	m	n/a
184.8375	0.03	369675	keystroke_k	k	n/a
184.898	0.1345	369796	keystroke_a	a	n/a
185.5575	0.06	371115	keystroke_Key.backspace	Key.backspace	n/a
185.7075	0.075	371415	keystroke_Key.backspace	Key.backspace	n/a
185.9625	0.0905	371925	keystroke_a	a	n/a
186.2625	0.1045	372525	keystroke_z	z	n/a
186.3375	0.1055	372675	keystroke_i	i	n/a
186.4275	0.18	372855	keystroke_n	n	n/a
186.593	0.1195	373186	keystroke_g	g	n/a
186.7575	0.1055	373515	keystroke_Key.space	Key.space	n/a
187.1175	0.12	374235	keystroke_p	p	n/a
187.1925	0.135	374385	keystroke_a	a	n/a
187.3725	0.1055	374745	keystroke_c	c	n/a
187.4625	0.1645	374925	keystroke_k	k	n/a
187.6125	0.255	375225	keystroke_e	e	n/a
187.732	0.12	375464	keystroke_t	t	n/a
187.807	0.165	375614	keystroke_s	s	n/a
187.957	0.135	375914	keystroke_Key.space	Key.space	n/a
188.1375	0.2105	376275	keystroke_f	f	n/a
188.273	0.15	376546	keystroke_a	a	n/a
188.363	0.15	376726	keystroke_i	i	n/a
188.543	0.15	377086	keystroke_r	r	n/a
188.738	0.09	377476	keystroke_y	y	n/a
188.947	0.135	377894	keystroke_Key.space	Key.space	n/a
189.068	0.134	378136	keystroke_k	k	n/a
189.128	0.135	378256	keystroke_a	a	n/a
189.248	0.105	378496	keystroke_t	t	n/a
189.338	0.09	378676	keystroke_h	h	n/a
189.5175	0.0745	379035	keystroke_y	y	n/a
189.757	0.0755	379514	keystroke_Key.enter	Key.enter	n/a
189.839	6.91	379678	prompt	n/a	macromedia native trader perfume\n
190.793	0.1645	381586	keystroke_m	m	n/a
190.9125	0.1505	381825	keystroke_a	a	n/a
191.153	0.09	382306	keystroke_c	c	n/a
191.333	0.105	382666	keystroke_r	r	n/a
191.438	0.089	382876	keystroke_o	o	n/a
191.738	0.135	383476	keystroke_m	m	n/a
191.783	0.105	383566	keystroke_e	e	n/a
192.038	0.105	384076	keystroke_d	d	n/a
192.128	0.135	384256	keystroke_i	i	n/a
192.248	0.194	384496	keystroke_a	a	n/a
192.457	0.1505	384914	keystroke_Key.space	Key.space	n/a
192.9375	0.135	385875	keystroke_n	n	n/a
193.0575	0.165	386115	keystroke_a	a	n/a
193.3875	0.12	386775	keystroke_t	t	n/a
193.5225	0.1505	387045	keystroke_i	i	n/a
193.658	0.104	387316	keystroke_v	v	n/a
193.747	0.1205	387494	keystroke_e	e	n/a
193.8525	0.15	387705	keystroke_Key.space	Key.space	n/a
194.047	0.12	388094	keystroke_t	t	n/a
194.2875	0.12	388575	keystroke_r	r	n/a
194.392	0.165	388784	keystroke_a	a	n/a
194.753	0.0145	389506	keystroke_d	d	n/a
194.828	0.149	389656	keystroke_e	e	n/a
194.9025	0.1355	389805	keystroke_r	r	n/a
195.008	0.1045	390016	keystroke_Key.space	Key.space	n/a
195.1425	0.12	390285	keystroke_p	p	n/a
195.2175	0.18	390435	keystroke_e	e	n/a
195.3075	0.105	390615	keystroke_r	r	n/a
195.5475	0.18	391095	keystroke_f	f	n/a
195.713	0.1045	391426	keystroke_u	u	n/a
195.9075	0.061	391815	keystroke_l	l	n/a
196.2675	0.075	392535	keystroke_Key.backspace	Key.backspace	n/a
196.4325	0.1505	392865	keystroke_m	m	n/a
196.5375	0.135	393075	keystroke_e	e	n/a
196.658	0.0895	393316	keystroke_Key.enter	Key.enter	n/a
196.754	7.5105	393508	prompt	n/a	calculated gerald offshore protection\n
197.348	0.1195	394696	keystroke_c	c	n/a
197.483	0.15	394966	keystroke_a	a	n/a
197.6925	0.075	395385	keystroke_c	c	n/a
198.068	0.09	396136	keystroke_Key.backspace	Key.backspace	n/a
198.383	0.149	396766	keystroke_l	l	n/a
198.698	0.135	397396	keystroke_c	c	n/a
198.817	0.091	397634	keystroke_u	u	n/a
199.3275	0.1795	398655	keystroke_l	l	n/a
199.448	0.135	398896	keystroke_a	a	n/a
199.538	0.1495	399076	keystroke_t	t	n/a
199.613	0.134	399226	keystroke_e	e	n/a
199.852	0.1055	399704	keystroke_d	d	n/a
200.002	0.1355	400004	keystroke_Key.space	Key.space	n/a
200.212	0.09	400424	keystroke_g	g	n/a
200.407	0.1655	400814	keystroke_e	e	n/a
200.4975	0.1355	400995	keystroke_r	r	n/a
200.8575	0.1805	401715	keystroke_a	a	n/a
201.052	0.1515	402104	keystroke_l	l	n/a
201.188	0.1355	402376	keystroke_d	d	n/a
201.338	0.1195	402676	keystroke_Key.space	Key.space	n/a
201.5625	0.1055	403125	keystroke_o	o	n/a
201.6525	0.1055	403305	keystroke_f	f	n/a
201.818	0.119	403636	keystroke_f	f	n/a
202.223	0.1795	404446	keystroke_s	s	n/a
202.298	0.0895	404596	keystroke_h	h	n/a
202.373	0.135	404746	keystroke_o	o	n/a
202.463	0.1345	404926	keystroke_r	r	n/a
202.5525	0.12	405105	keystroke_e	e	n/a
202.6575	0.105	405315	keystroke_Key.space	Key.space	n/a
202.8075	0.105	405615	keystroke_p	p	n/a
202.973	0.0895	405946	keystroke_r	r	n/a
203.0475	0.12	406095	keystroke_o	o	n/a
203.227	0.166	406454	keystroke_t	t	n/a
203.348	0.12	406696	keystroke_e	e	n/a
203.618	0.0745	407236	keystroke_c	c	n/a
203.7825	0.1195	407565	keystroke_t	t	n/a
203.842	0.1205	407684	keystroke_i	i	n/a
203.933	0.089	407866	keystroke_o	o	n/a
204.007	0.0905	408014	keystroke_n	n	n/a
204.202	0.06	408404	keystroke_Key.enter	Key.enter	n/a
204.269	11.6205	408538	prompt	n/a	westminster robin presenting requesting\n
204.9375	0.1205	409875	keystroke_e	e	n/a
205.4325	0.06	410865	keystroke_Key.backspace	Key.backspace	n/a
205.658	0.2095	411316	keystroke_w	w	n/a
206.048	0.12	412096	keystroke_e	e	n/a
206.318	0.149	412636	keystroke_s	s	n/a
206.5275	0.105	413055	keystroke_t	t	n/a
207.113	0.105	414226	keystroke_m	m	n/a
207.307	0.045	414614	keystroke_i	i	n/a
207.3675	0.1345	414735	keystroke_n	n	n/a
207.5175	0.1195	415035	keystroke_i	i	n/a
208.1925	0.0745	416385	keystroke_Key.backspace	Key.backspace	n/a
208.3725	0.075	416745	keystroke_Key.backspace	Key.backspace	n/a
209.077	0.136	418154	keystroke_n	n	n/a
209.4075	0.1655	418815	keystroke_s	s	n/a
209.557	0.105	419114	keystroke_t	t	n/a
209.6775	0.1645	419355	keystroke_e	e	n/a
209.7825	0.1055	419565	keystroke_r	r	n/a
210.0375	0.12	420075	keystroke_Key.space	Key.space	n/a
210.2925	0.075	420585	keystroke_r	r	n/a
210.3975	0.12	420795	keystroke_o	o	n/a
210.533	0.09	421066	keystroke_b	b	n/a
210.7875	0.135	421575	keystroke_i	i	n/a
210.9075	0.12	421815	keystroke_n	n	n/a
211.1175	0.135	422235	keystroke_Key.space	Key.space	n/a
211.433	0.119	422866	keystroke_p	p	n/a
211.597	0.15	423194	keystroke_r	r	n/a
211.688	0.1795	423376	keystroke_e	e	n/a
211.9575	0.21	423915	keystroke_s	s	n/a
212.152	0.0905	424304	keystroke_e	e	n/a
212.3925	0.18	424785	keystroke_n	n	n/a
212.5875	0.1345	425175	keystroke_t	t	n/a
212.693	0.134	425386	keystroke_i	i	n/a
212.813	0.1495	425626	keystroke_n	n	n/a
212.932	0.061	425864	keystroke_g	g	n/a
213.067	0.135	426134	keystroke_Key.space	Key.space	n/a
213.218	0.135	426436	keystroke_r	r	n/a
213.308	0.194	426616	keystroke_e	e	n/a
213.487	0.06	426974	keystroke_w	w	n/a
213.517	0.0755	427034	keystroke_q	q	n/a
213.578	0.1345	427156	keystroke_u	u	n/a
213.9375	0.0755	427875	keystroke_Key.backspace	Key.backspace	n/a
214.2075	0.015	428415	keystroke_Key.backspace	Key.backspace	n/a
214.402	0.075	428804	keystroke_Key.backspace	Key.backspace	n/a
214.8675	0.15	429735	keystroke_q	q	n/a
215.0775	0.135	430155	keystroke_u	u	n/a
215.1525	0.1955	430305	keystroke_e	e	n/a
215.257	0.121	430514	keystroke_s	s	n/a
215.348	0.135	430696	keystroke_t	t	n/a
215.4975	0.1205	430995	keystroke_i	i	n/a
215.602	0.136	431204	keystroke_n	n	n/a
215.6925	0.0755	431385	keystroke_g	g	n/a
215.797	0.0905	431594	keystroke_Key.enter	Key.enter	n/a
215.893	8.9215	431786	prompt	n/a	aquatic addiction cove pharmacies\n
216.623	0.104	433246	keystroke_a	a	n/a
216.9375	0.105	433875	keystroke_q	q	n/a
217.073	0.1495	434146	keystroke_u	u	n/a
217.9575	0.1655	435915	keystroke_a	a	n/a
218.2725	0.105	436545	keystroke_t	t	n/a
218.3925	0.165	436785	keystroke_i	i	n/a
218.528	0.045	437056	keystroke_s	s	n/a
218.542	0.075	437084	keystroke_c	c	n/a
218.6625	0.12	437325	keystroke_Key.space	Key.space	n/a
218.962	0.075	437924	keystroke_Key.backspace	Key.backspace	n/a
219.1875	0.0895	438375	keystroke_Key.backspace	Key.backspace	n/a
219.3975	0.09	438795	keystroke_Key.backspace	Key.backspace	n/a
219.6225	0.15	439245	keystroke_c	c	n/a
219.817	0.1205	439634	keystroke_Key.space	Key.space	n/a
220.057	0.1655	440114	keystroke_a	a	n/a
220.178	0.104	440356	keystroke_d	d	n/a
220.3575	0.105	440715	keystroke_d	d	n/a
220.4475	0.135	440895	keystroke_i	i	n/a
220.5975	0.09	441195	keystroke_c	c	n/a
220.7475	0.09	441495	keystroke_t	t	n/a
220.8075	0.105	441615	keystroke_i	i	n/a
220.8975	0.105	441795	keystroke_o	o	n/a
220.973	0.1345	441946	keystroke_n	n	n/a
221.1375	0.15	442275	keystroke_Key.space	Key.space	n/a
221.2575	0.12	442515	keystroke_c	c	n/a
221.3625	0.1355	442725	keystroke_o	o	n/a
221.513	0.0445	443026	keystroke_v	v	n/a
221.617	0.166	443234	keystroke_e	e	n/a
221.707	0.1055	443414	keystroke_r	r	n/a
221.827	0.135	443654	keystroke_Key.space	Key.space	n/a
222.233	0.0445	444466	keystroke_Key.backspace	Key.backspace	n/a
222.3675	0.0895	444735	keystroke_Key.backspace	Key.backspace	n/a
222.593	0.1195	445186	keystroke_Key.space	Key.space	n/a
222.937	0.061	445874	keystroke_p	p	n/a
223.312	0.106	446624	keystroke_h	h	n/a
223.403	0.1795	446806	keystroke_a	a	n/a
223.537	0.105	447074	keystroke_r	r	n/a
223.7475	0.1355	447495	keystroke_m	m	n/a
223.8525	0.135	447705	keystroke_a	a	n/a
224.1525	0.151	448305	keystroke_c	c	n/a
224.3325	0.1505	448665	keystroke_i	i	n/a
224.4675	0.1645	448935	keystroke_e	e	n/a
224.558	0.165	449116	keystroke_s	s	n/a
224.7075	0.105	449415	keystroke_Key.enter	Key.enter	n/a
224.82	5.8465	449640	prompt	n/a	brick facts france thomson\n
225.547	0.076	451094	keystroke_b	b	n/a
225.758	0.075	451516	keystroke_r	r	n/a
225.863	0.12	451726	keystroke_i	i	n/a
225.968	0.134	451936	keystroke_c	c	n/a
226.118	0.1045	452236	keystroke_k	k	n/a
226.283	0.119	452566	keystroke_Key.space	Key.space	n/a
226.3425	0.1355	452685	keystroke_f	f	n/a
226.4475	0.1345	452895	keystroke_a	a	n/a
226.613	0.1195	453226	keystroke_c	c	n/a
226.748	0.165	453496	keystroke_t	t	n/a
226.867	0.165	453734	keystroke_s	s	n/a
227.047	0.1805	454094	keystroke_Key.space	Key.space	n/a
227.2725	0.18	454545	keystroke_f	f	n/a
227.438	0.1045	454876	keystroke_a	a	n/a
227.8875	0.045	455775	keystroke_Key.backspace	Key.backspace	n/a
228.0825	0.12	456165	keystroke_r	r	n/a
228.1875	0.165	456375	keystroke_a	a	n/a
228.367	0.136	456734	keystroke_n	n	n/a
228.4875	0.09	456975	keystroke_c	c	n/a
228.6975	0.105	457395	keystroke_e	e	n/a
228.7875	0.12	457575	keystroke_Key.space	Key.space	n/a
229.013	0.104	458026	keystroke_t	t	n/a
229.073	0.105	458146	keystroke_h	h	n/a
229.238	0.12	458476	keystroke_o	o	n/a
229.372	0.166	458744	keystroke_m	m	n/a
229.553	0.135	459106	keystroke_a	a	n/a
229.6125	0.1355	459225	keystroke_s	s	n/a
229.898	0.059	459796	keystroke_Key.backspace	Key.backspace	n/a
230.062	0.0905	460124	keystroke_Key.backspace	Key.backspace	n/a
230.2585	0.164	460517	keystroke_s	s	n/a
230.303	0.1045	460606	keystroke_o	o	n/a
230.4075	0.1055	460815	keystroke_n	n	n/a
230.572	0.091	461144	keystroke_Key.enter	Key.enter	n/a
230.67	6.0695	461340	prompt	n/a	modify compute christina fleece\n
231.292	0.106	462584	keystroke_m	m	n/a
231.413	0.0895	462826	keystroke_o	o	n/a
231.457	0.1805	462914	keystroke_d	d	n/a
231.6525	0.1045	463305	keystroke_i	i	n/a
231.773	0.1795	463546	keystroke_f	f	n/a
231.9975	0.09	463995	keystroke_y	y	n/a
232.2075	0.135	464415	keystroke_Key.space	Key.space	n/a
232.372	0.1055	464744	keystroke_c	c	n/a
232.418	0.0895	464836	keystroke_o	o	n/a
232.5225	0.135	465045	keystroke_m	m	n/a
232.6875	0.12	465375	keystroke_p	p	n/a
232.7925	0.1205	465585	keystroke_u	u	n/a
232.8825	0.0905	465765	keystroke_t	t	n/a
233.048	0.089	466096	keystroke_e	e	n/a
233.4675	0.15	466935	keystroke_Key.space	Key.space	n/a
233.738	0.1195	467476	keystroke_c	c	n/a
234.3075	0.1955	468615	keystroke_h	h	n/a
234.638	0.1195	469276	keystroke_r	r	n/a
234.773	0.134	469546	keystroke_i	i	n/a
234.878	0.149	469756	keystroke_s	s	n/a
235.043	0.12	470086	keystroke_t	t	n/a
235.148	0.12	470296	keystroke_i	i	n/a
235.253	0.165	470506	keystroke_n	n	n/a
235.358	0.135	470716	keystroke_a	a	n/a
235.508	0.15	471016	keystroke_Key.space	Key.space	n/a
235.673	0.105	471346	keystroke_f	f	n/a
235.763	0.15	471526	keystroke_l	l	n/a
235.8825	0.0905	471765	keystroke_e	e	n/a
236.078	0.09	472156	keystroke_e	e	n/a
236.333	0.074	472666	keystroke_c	c	n/a
236.5275	0.105	473055	keystroke_e	e	n/a
236.6775	0.06	473355	keystroke_Key.enter	Key.enter	n/a
236.744	7.4205	473488	prompt	n/a	nominated religions popularity manner\n
237.428	0.0895	474856	keystroke_n	n	n/a
237.5475	0.1345	475095	keystroke_o	o	n/a
237.6675	0.135	475335	keystroke_m	m	n/a
238.0875	0.1355	476175	keystroke_i	i	n/a
238.297	0.1815	476594	keystroke_n	n	n/a
238.4925	0.1655	476985	keystroke_a	a	n/a
238.612	0.135	477224	keystroke_t	t	n/a
238.687	0.121	477374	keystroke_e	e	n/a
238.927	0.09	477854	keystroke_d	d	n/a
239.032	0.136	478064	keystroke_Key.space	Key.space	n/a
239.168	0.165	478336	keystroke_r	r	n/a
239.2875	0.1205	478575	keystroke_e	e	n/a
239.5275	0.18	479055	keystroke_l	l	n/a
239.783	0.1495	479566	keystroke_i	i	n/a
240.0225	0.1505	480045	keystroke_g	g	n/a
240.188	0.1345	480376	keystroke_i	i	n/a
240.2925	0.1205	480585	keystroke_o	o	n/a
241.1775	0.1355	482355	keystroke_n	n	n/a
241.297	0.135	482594	keystroke_s	s	n/a
241.447	0.105	482894	keystroke_Key.space	Key.space	n/a
241.6275	0.105	483255	keystroke_p	p	n/a
241.8525	0.1505	483705	keystroke_o	o	n/a
241.9125	0.105	483825	keystroke_p	p	n/a
242.1825	0.1055	484365	keystroke_u	u	n/a
242.348	0.1495	484696	keystroke_l	l	n/a
242.4825	0.1805	484965	keystroke_a	a	n/a
242.618	0.089	485236	keystroke_r	r	n/a
242.7375	0.1355	485475	keystroke_i	i	n/a
242.888	0.149	485776	keystroke_t	t	n/a
243.022	0.091	486044	keystroke_y	y	n/a
243.263	0.165	486526	keystroke_Key.space	Key.space	n/a
243.413	0.135	486826	keystroke_m	m	n/a
243.578	0.165	487156	keystroke_a	a	n/a
243.668	0.09	487336	keystroke_n	n	n/a
243.833	0.12	487666	keystroke_n	n	n/a
243.893	0.1345	487786	keystroke_e	e	n/a
243.998	0.1195	487996	keystroke_r	r	n/a
244.0725	0.09	488145	keystroke_Key.enter	Key.enter	n/a
244.1685	7.1805	488337	prompt	n/a	quarterly sigma province retreat\n
244.943	0.12	489886	keystroke_q	q	n/a
245.017	0.166	490034	keystroke_u	u	n/a
245.228	0.2095	490456	keystroke_a	a	n/a
245.408	0.105	490816	keystroke_r	r	n/a
246.143	0.1195	492286	keystroke_t	t	n/a
246.308	0.195	492616	keystroke_e	e	n/a
246.4275	0.12	492855	keystroke_r	r	n/a
246.5925	0.1205	493185	keystroke_l	l	n/a
246.788	0.06	493576	keystroke_y	y	n/a
246.953	0.15	493906	keystroke_Key.space	Key.space	n/a
247.058	0.135	494116	keystroke_s	s	n/a
247.148	0.165	494296	keystroke_i	i	n/a
247.268	0.105	494536	keystroke_g	g	n/a
247.523	0.135	495046	keystroke_m	m	n/a
247.703	0.15	495406	keystroke_a	a	n/a
247.778	0.105	495556	keystroke_n	n	n/a
247.972	0.1055	495944	keystroke_Key.space	Key.space	n/a
248.107	0.091	496214	keystroke_p	p	n/a
248.1825	0.0905	496365	keystroke_r	r	n/a
248.317	0.136	496634	keystroke_o	o	n/a
248.498	0.134	496996	keystroke_v	v	n/a
248.648	0.135	497296	keystroke_i	i	n/a
248.767	0.1505	497534	keystroke_n	n	n/a
248.857	0.046	497714	keystroke_c	c	n/a
249.038	0.104	498076	keystroke_e	e	n/a
249.278	0.119	498556	keystroke_Key.space	Key.space	n/a
249.967	0.15	499934	keystroke_r	r	n/a
250.057	0.12	500114	keystroke_e	e	n/a
250.297	0.0905	500594	keystroke_t	t	n/a
250.5375	0.21	501075	keystroke_r	r	n/a
250.6425	0.1655	501285	keystroke_e	e	n/a
250.7325	0.1945	501465	keystroke_a	a	n/a
251.0775	0.12	502155	keystroke_t	t	n/a
251.2875	0.06	502575	keystroke_Key.enter	Key.enter	n/a
251.353	7.9315	502706	prompt	n/a	uruguay second bids compilation\n
252.3075	0.135	504615	keystroke_u	u	n/a
252.6975	0.1345	505395	keystroke_r	r	n/a
252.8475	0.1655	505695	keystroke_u	u	n/a
253.313	0.15	506626	keystroke_g	g	n/a
253.493	0.18	506986	keystroke_u	u	n/a
253.6425	0.1955	507285	keystroke_a	a	n/a
254.062	0.076	508124	keystroke_y	y	n/a
254.2725	0.1645	508545	keystroke_Key.space	Key.space	n/a
254.408	0.1805	508816	keystroke_s	s	n/a
254.573	0.045	509146	keystroke_e	e	n/a
254.7825	0.1195	509565	keystroke_c	c	n/a
254.917	0.121	509834	keystroke_o	o	n/a
255.053	0.165	510106	keystroke_n	n	n/a
255.143	0.105	510286	keystroke_d	d	n/a
255.353	0.135	510706	keystroke_Key.space	Key.space	n/a
255.473	0.12	510946	keystroke_b	b	n/a
255.548	0.15	511096	keystroke_i	i	n/a
255.683	0.239	511366	keystroke_d	d	n/a
255.832	0.151	511664	keystroke_s	s	n/a
255.9375	0.1645	511875	keystroke_Key.space	Key.space	n/a
256.237	0.091	512474	keystroke_c	c	n/a
256.2525	0.1195	512505	keystroke_o	o	n/a
256.447	0.12	512894	keystroke_m	m	n/a
256.642	0.135	513284	keystroke_p	p	n/a
256.928	0.12	513856	keystroke_i	i	n/a
257.033	0.135	514066	keystroke_l	l	n/a
257.2875	0.1205	514575	keystroke_i	i	n/a
257.783	0.0595	515566	keystroke_Key.backspace	Key.backspace	n/a
258.2925	0.105	516585	keystroke_a	a	n/a
258.727	0.1355	517454	keystroke_t	t	n/a
258.847	0.1205	517694	keystroke_i	i	n/a
258.9525	0.075	517905	keystroke_o	o	n/a
258.9975	0.105	517995	keystroke_n	n	n/a
259.1925	0.09	518385	keystroke_Key.enter	Key.enter	n/a
259.289	7.0005	518578	prompt	n/a	reprints sugar scholarships chambers\n
260.0775	0.1805	520155	keystroke_r	r	n/a
260.1975	0.2105	520395	keystroke_e	e	n/a
260.692	0.076	521384	keystroke_p	p	n/a
260.828	0.105	521656	keystroke_r	r	n/a
260.993	0.135	521986	keystroke_i	i	n/a
261.128	0.135	522256	keystroke_n	n	n/a
261.173	0.134	522346	keystroke_t	t	n/a
261.278	0.15	522556	keystroke_s	s	n/a
261.473	0.12	522946	keystroke_Key.space	Key.space	n/a
261.653	0.164	523306	keystroke_s	s	n/a
261.757	0.1355	523514	keystroke_u	u	n/a
261.8775	0.105	523755	keystroke_g	g	n/a
261.9975	0.1655	523995	keystroke_a	a	n/a
262.1025	0.12	524205	keystroke_r	r	n/a
262.2825	0.1345	524565	keystroke_Key.space	Key.space	n/a
262.523	0.105	525046	keystroke_s	s	n/a
262.748	0.135	525496	keystroke_c	c	n/a
262.9425	0.1355	525885	keystroke_h	h	n/a
263.138	0.0745	526276	keystroke_o	o	n/a
263.3625	0.1505	526725	keystroke_l	l	n/a
263.4975	0.15	526995	keystroke_a	a	n/a
263.6025	0.12	527205	keystroke_r	r	n/a
264.5025	0.15	529005	keystroke_s	s	n/a
264.578	0.0895	529156	keystroke_h	h	n/a
264.638	0.1345	529276	keystroke_i	i	n/a
264.758	0.1045	529516	keystroke_p	p	n/a
264.9075	0.12	529815	keystroke_s	s	n/a
264.9825	0.15	529965	keystroke_Key.space	Key.space	n/a
265.193	0.135	530386	keystroke_c	c	n/a
265.253	0.0895	530506	keystroke_h	h	n/a
265.3575	0.165	530715	keystroke_a	a	n/a
265.493	0.1495	530986	keystroke_m	m	n/a
265.7325	0.076	531465	keystroke_b	b	n/a
265.8525	0.27	531705	keystroke_e	e	n/a
265.958	0.1495	531916	keystroke_r	r	n/a
266.0475	0.18	532095	keystroke_s	s	n/a
266.2125	0.075	532425	keystroke_Key.enter	Key.enter	n/a
266.2965	8.842	532593	prompt	n/a	worlds experts vulnerability consequence\n
266.963	0.135	533926	keystroke_w	w	n/a
267.068	0.105	534136	keystroke_o	o	n/a
267.158	0.0895	534316	keystroke_r	r	n/a
267.3075	0.15	534615	keystroke_l	l	n/a
267.3825	0.195	534765	keystroke_d	d	n/a
267.5325	0.15	535065	keystroke_s	s	n/a
267.6975	0.165	535395	keystroke_Key.space	Key.space	n/a
267.9225	0.09	535845	keystroke_e	e	n/a
268.148	0.1045	536296	keystroke_x	x	n/a
268.3125	0.12	536625	keystroke_p	p	n/a
268.4025	0.2105	536805	keystroke_e	e	n/a
268.538	0.15	537076	keystroke_r	r	n/a
268.8675	0.165	537735	keystroke_t	t	n/a
269.0025	0.1955	538005	keystroke_s	s	n/a
269.2275	0.1355	538455	keystroke_Key.space	Key.space	n/a
269.3925	0.135	538785	keystroke_v	v	n/a
269.5125	0.135	539025	keystroke_u	u	n/a
269.6925	0.1355	539385	keystroke_l	l	n/a
270.038	0.15	540076	keystroke_n	n	n/a
270.188	0.195	540376	keystroke_e	e	n/a
270.293	0.105	540586	keystroke_r	r	n/a
270.818	0.165	541636	keystroke_a	a	n/a
271.103	0.119	542206	keystroke_b	b	n/a
271.2825	0.165	542565	keystroke_i	i	n/a
271.4185	0.1795	542837	keystroke_l	l	n/a
271.5675	0.165	543135	keystroke_i	i	n/a
271.7335	0.164	543467	keystroke_t	t	n/a
271.883	0.0895	543766	keystroke_y	y	n/a
272.1225	0.15	544245	keystroke_Key.space	Key.space	n/a
272.3925	0.1055	544785	keystroke_c	c	n/a
272.4525	0.075	544905	keystroke_o	o	n/a
272.5425	0.1505	545085	keystroke_n	n	n/a
272.648	0.1645	545296	keystroke_s	s	n/a
272.7675	0.15	545535	keystroke_e	e	n/a
273.022	0.091	546044	keystroke_s	s	n/a
273.472	0.091	546944	keystroke_Key.backspace	Key.backspace	n/a
273.998	0.135	547996	keystroke_q	q	n/a
274.103	0.1045	548206	keystroke_u	u	n/a
274.373	0.1345	548746	keystroke_e	e	n/a
274.6275	0.165	549255	keystroke_n	n	n/a
274.7625	0.075	549525	keystroke_c	c	n/a
274.943	0.1045	549886	keystroke_e	e	n/a
275.0625	0.075	550125	keystroke_Key.enter	Key.enter	n/a
275.1425	6.327	550285	prompt	n/a	amounts listed nominations marks\n
275.798	0.1195	551596	keystroke_a	a	n/a
275.8425	0.105	551685	keystroke_m	m	n/a
275.9625	0.1505	551925	keystroke_o	o	n/a
276.068	0.089	552136	keystroke_u	u	n/a
276.278	0.15	552556	keystroke_n	n	n/a
276.337	0.121	552674	keystroke_t	t	n/a
276.413	0.135	552826	keystroke_s	s	n/a
276.5625	0.1195	553125	keystroke_Key.space	Key.space	n/a
276.653	0.195	553306	keystroke_l	l	n/a
276.7425	0.1355	553485	keystroke_i	i	n/a
276.817	0.1205	553634	keystroke_s	s	n/a
276.907	0.151	553814	keystroke_t	t	n/a
277.013	0.105	554026	keystroke_e	e	n/a
277.238	0.105	554476	keystroke_d	d	n/a
277.3725	0.105	554745	keystroke_Key.space	Key.space	n/a
277.553	0.1045	555106	keystroke_n	n	n/a
277.673	0.12	555346	keystroke_o	o	n/a
277.793	0.149	555586	keystroke_m	m	n/a
278.123	0.1495	556246	keystroke_i	i	n/a
278.4075	0.1505	556815	keystroke_n	n	n/a
278.5725	0.1645	557145	keystroke_a	a	n/a
278.708	0.1345	557416	keystroke_t	t	n/a
278.782	0.1205	557564	keystroke_i	i	n/a
278.8875	0.0895	557775	keystroke_o	o	n/a
278.962	0.15	557924	keystroke_n	n	n/a
279.0675	0.1495	558135	keystroke_s	s	n/a
279.218	0.104	558436	keystroke_Key.space	Key.space	n/a
279.4725	0.1345	558945	keystroke_m	m	n/a
279.577	0.195	559154	keystroke_a	a	n/a
279.712	0.136	559424	keystroke_k	k	n/a
279.938	0.119	559876	keystroke_r	r	n/a
280.2825	0.0745	560565	keystroke_Key.backspace	Key.backspace	n/a
280.402	0.105	560804	keystroke_Key.backspace	Key.backspace	n/a
280.898	0.12	561796	keystroke_r	r	n/a
281.1085	0.1635	562217	keystroke_k	k	n/a
281.2575	0.12	562515	keystroke_s	s	n/a
281.3925	0.0745	562785	keystroke_Key.enter	Key.enter	n/a
281.474	7.0445	562948	prompt	n/a	finally housewives healthcare replica\n
282.143	0.1795	564286	keystroke_f	f	n/a
282.248	0.134	564496	keystroke_i	i	n/a
282.368	0.119	564736	keystroke_n	n	n/a
282.457	0.12	564914	keystroke_a	a	n/a
282.5475	0.1045	565095	keystroke_l	l	n/a
282.743	0.12	565486	keystroke_l	l	n/a
282.953	0.089	565906	keystroke_y	y	n/a
283.147	0.135	566294	keystroke_Key.space	Key.space	n/a
283.268	0.074	566536	keystroke_h	h	n/a
283.328	0.18	566656	keystroke_o	o	n/a
283.448	0.12	566896	keystroke_u	u	n/a
283.523	0.12	567046	keystroke_s	s	n/a
283.613	0.135	567226	keystroke_e	e	n/a
283.823	0.105	567646	keystroke_w	w	n/a
283.913	0.179	567826	keystroke_i	i	n/a
284.063	0.18	568126	keystroke_v	v	n/a
284.198	0.2095	568396	keystroke_e	e	n/a
284.288	0.1795	568576	keystroke_s	s	n/a
285.3525	0.135	570705	keystroke_Key.space	Key.space	n/a
285.908	0.135	571816	keystroke_h	h	n/a
285.953	0.165	571906	keystroke_e	e	n/a
286.057	0.151	572114	keystroke_a	a	n/a
286.1325	0.135	572265	keystroke_l	l	n/a
286.2975	0.105	572595	keystroke_t	t	n/a
286.3875	0.135	572775	keystroke_h	h	n/a
286.897	0.121	573794	keystroke_c	c	n/a
287.047	0.1655	574094	keystroke_a	a	n/a
287.1535	0.1335	574307	keystroke_r	r	n/a
287.227	0.135	574454	keystroke_e	e	n/a
287.392	0.135	574784	keystroke_Key.space	Key.space	n/a
287.572	0.151	575144	keystroke_r	r	n/a
287.677	0.151	575354	keystroke_e	e	n/a
287.783	0.09	575566	keystroke_p	p	n/a
287.932	0.1805	575864	keystroke_l	l	n/a
288.0525	0.165	576105	keystroke_i	i	n/a
288.1575	0.12	576315	keystroke_c	c	n/a
288.2625	0.135	576525	keystroke_a	a	n/a
288.443	0.074	576886	keystroke_Key.enter	Key.enter	n/a
288.5215	6.808	577043	prompt	n/a	websites surge weren't explaining\n
289.178	0.1345	578356	keystroke_w	w	n/a
289.4175	0.119	578835	keystroke_e	e	n/a
289.6575	0.1055	579315	keystroke_b	b	n/a
289.853	0.09	579706	keystroke_s	s	n/a
290.153	0.15	580306	keystroke_i	i	n/a
290.273	0.165	580546	keystroke_t	t	n/a
290.3625	0.21	580725	keystroke_e	e	n/a
290.4675	0.1505	580935	keystroke_s	s	n/a
290.678	0.1795	581356	keystroke_Key.space	Key.space	n/a
290.9325	0.165	581865	keystroke_s	s	n/a
291.1575	0.12	582315	keystroke_u	u	n/a
291.2925	0.0755	582585	keystroke_r	r	n/a
291.5325	0.1355	583065	keystroke_g	g	n/a
291.6525	0.1655	583305	keystroke_e	e	n/a
291.847	0.135	583694	keystroke_Key.space	Key.space	n/a
292.193	0.1795	584386	keystroke_w	w	n/a
292.283	0.135	584566	keystroke_e	e	n/a
292.358	0.1645	584716	keystroke_r	r	n/a
292.493	0.1345	584986	keystroke_e	e	n/a
292.6425	0.135	585285	keystroke_n	n	n/a
292.838	0.1195	585676	keystroke_'	'	n/a
292.942	0.121	585884	keystroke_t	t	n/a
293.2575	0.135	586515	keystroke_Key.space	Key.space	n/a
293.4525	0.09	586905	keystroke_e	e	n/a
293.7075	0.12	587415	keystroke_x	x	n/a
293.7825	0.1205	587565	keystroke_p	p	n/a
293.9175	0.1805	587835	keystroke_l	l	n/a
294.0525	0.1805	588105	keystroke_a	a	n/a
294.637	0.1505	589274	keystroke_i	i	n/a
294.772	0.12	589544	keystroke_n	n	n/a
294.9525	0.135	589905	keystroke_i	i	n/a
295.058	0.1195	590116	keystroke_n	n	n/a
295.1325	0.075	590265	keystroke_g	g	n/a
295.2675	0.06	590535	keystroke_Key.enter	Key.enter	n/a
295.343	5.7055	590686	prompt	n/a	alice martial apartment plane\n
296.018	0.135	592036	keystroke_a	a	n/a
296.093	0.18	592186	keystroke_l	l	n/a
296.228	0.15	592456	keystroke_i	i	n/a
296.303	0.06	592606	keystroke_c	c	n/a
296.483	0.105	592966	keystroke_e	e	n/a
296.573	0.135	593146	keystroke_Key.space	Key.space	n/a
296.693	0.1345	593386	keystroke_m	m	n/a
296.7675	0.15	593535	keystroke_a	a	n/a
296.9025	0.09	593805	keystroke_r	r	n/a
297.0975	0.1205	594195	keystroke_t	t	n/a
297.1875	0.1495	594375	keystroke_i	i	n/a
297.292	0.1655	594584	keystroke_a	a	n/a
297.4125	0.1645	594825	keystroke_l	l	n/a
297.592	0.15	595184	keystroke_Key.space	Key.space	n/a
297.802	0.15	595604	keystroke_a	a	n/a
297.997	0.09	595994	keystroke_p	p	n/a
298.103	0.164	596206	keystroke_a	a	n/a
298.2375	0.105	596475	keystroke_r	r	n/a
298.4775	0.15	596955	keystroke_t	t	n/a
298.6575	0.18	597315	keystroke_m	m	n/a
298.8225	0.135	597645	keystroke_e	e	n/a
298.9725	0.135	597945	keystroke_n	n	n/a
299.0325	0.12	598065	keystroke_t	t	n/a
299.2275	0.06	598455	keystroke_Key.space	Key.space	n/a
299.3025	0.15	598605	keystroke_p	p	n/a
299.4375	0.225	598875	keystroke_l	l	n/a
299.5725	0.105	599145	keystroke_k	k	n/a
299.6325	0.18	599265	keystroke_a	a	n/a
300.0375	0.06	600075	keystroke_Key.backspace	Key.backspace	n/a
300.2325	0.06	600465	keystroke_Key.backspace	Key.backspace	n/a
300.5925	0.1805	601185	keystroke_a	a	n/a
300.7275	0.1355	601455	keystroke_n	n	n/a
300.8175	0.135	601635	keystroke_e	e	n/a
300.9675	0.075	601935	keystroke_Key.enter	Key.enter	n/a
301.0485	8.5455	602097	prompt	n/a	items textbooks headquarters temporal\n
301.778	0.135	603556	keystroke_i	i	n/a
301.883	0.1345	603766	keystroke_t	t	n/a
301.972	0.121	603944	keystroke_e	e	n/a
302.063	0.1645	604126	keystroke_m	m	n/a
302.212	0.1505	604424	keystroke_s	s	n/a
302.347	0.1355	604694	keystroke_Key.space	Key.space	n/a
302.663	0.12	605326	keystroke_t	t	n/a
302.7525	0.135	605505	keystroke_e	e	n/a
303.0525	0.09	606105	keystroke_x	x	n/a
303.3675	0.12	606735	keystroke_t	t	n/a
303.7725	0.09	607545	keystroke_b	b	n/a
303.8475	0.0905	607695	keystroke_o	o	n/a
304.028	0.1645	608056	keystroke_o	o	n/a
304.162	0.166	608324	keystroke_k	k	n/a
304.177	0.136	608354	keystroke_s	s	n/a
304.5075	0.15	609015	keystroke_Key.space	Key.space	n/a
305.182	0.12	610364	keystroke_h	h	n/a
305.272	0.136	610544	keystroke_e	e	n/a
305.4225	0.1945	610845	keystroke_a	a	n/a
305.618	0.179	611236	keystroke_d	d	n/a
306.067	0.12	612134	keystroke_q	q	n/a
306.217	0.106	612434	keystroke_u	u	n/a
306.3665	0.196	612733	keystroke_a	a	n/a
306.5175	0.1055	613035	keystroke_r	r	n/a
306.7425	0.09	613485	keystroke_t	t	n/a
306.8625	0.315	613725	keystroke_e	e	n/a
306.9975	0.15	613995	keystroke_r	r	n/a
307.1325	0.15	614265	keystroke_s	s	n/a
307.5675	0.1645	615135	keystroke_Key.space	Key.space	n/a
307.9125	0.1805	615825	keystroke_t	t	n/a
308.048	0.18	616096	keystroke_e	e	n/a
308.317	0.151	616634	keystroke_m	m	n/a
308.513	0.1195	617026	keystroke_p	p	n/a
308.9325	0.135	617865	keystroke_o	o	n/a
309.0975	0.135	618195	keystroke_r	r	n/a
309.2635	0.179	618527	keystroke_a	a	n/a
309.3525	0.1345	618705	keystroke_l	l	n/a
309.517	0.075	619034	keystroke_Key.enter	Key.enter	n/a
309.599	4.48	619198	prompt	n/a	watches jerry invitation another\n
310.192	0.15	620384	keystroke_w	w	n/a
310.2825	0.18	620565	keystroke_a	a	n/a
310.3875	0.1055	620775	keystroke_t	t	n/a
310.583	0.1045	621166	keystroke_c	c	n/a
310.703	0.1195	621406	keystroke_h	h	n/a
310.807	0.151	621614	keystroke_e	e	n/a
310.868	0.149	621736	keystroke_s	s	n/a
311.047	0.105	622094	keystroke_Key.space	Key.space	n/a
311.123	0.15	622246	keystroke_j	j	n/a
311.182	0.166	622364	keystroke_e	e	n/a
311.317	0.061	622634	keystroke_r	r	n/a
311.453	0.12	622906	keystroke_r	r	n/a
311.558	0.09	623116	keystroke_y	y	n/a
311.767	0.12	623534	keystroke_Key.space	Key.space	n/a
311.918	0.09	623836	keystroke_i	i	n/a
311.993	0.135	623986	keystroke_n	n	n/a
312.187	0.1055	624374	keystroke_v	v	n/a
312.2625	0.1355	624525	keystroke_i	i	n/a
312.623	0.075	625246	keystroke_t	t	n/a
312.7125	0.135	625425	keystroke_a	a	n/a
312.8025	0.15	625605	keystroke_t	t	n/a
312.9375	0.12	625875	keystroke_i	i	n/a
313.0275	0.12	626055	keystroke_o	o	n/a
313.1175	0.12	626235	keystroke_n	n	n/a
313.2975	0.09	626595	keystroke_Key.space	Key.space	n/a
313.3885	0.1485	626777	keystroke_a	a	n/a
313.4925	0.0605	626985	keystroke_n	n	n/a
313.5675	0.1055	627135	keystroke_o	o	n/a
313.6425	0.09	627285	keystroke_t	t	n/a
313.7175	0.12	627435	keystroke_h	h	n/a
313.7925	0.12	627585	keystroke_e	e	n/a
313.8525	0.12	627705	keystroke_r	r	n/a
314.0025	0.075	628005	keystroke_Key.enter	Key.enter	n/a
314.082	5.4875	628164	prompt	n/a	plane victory foods pockets\n
314.737	0.15	629474	keystroke_p	p	n/a
314.888	0.1945	629776	keystroke_l	l	n/a
315.0225	0.18	630045	keystroke_a	a	n/a
315.158	0.1345	630316	keystroke_n	n	n/a
315.6525	0.135	631305	keystroke_e	e	n/a
315.8625	0.105	631725	keystroke_Key.space	Key.space	n/a
316.3425	0.0895	632685	keystroke_v	v	n/a
316.402	0.1355	632804	keystroke_i	i	n/a
316.567	0.09	633134	keystroke_c	c	n/a
316.807	0.12	633614	keystroke_t	t	n/a
316.9125	0.1355	633825	keystroke_o	o	n/a
317.093	0.1345	634186	keystroke_r	r	n/a
317.2425	0.0595	634485	keystroke_y	y	n/a
317.437	0.1505	634874	keystroke_Key.space	Key.space	n/a
317.648	0.1195	635296	keystroke_f	f	n/a
317.753	0.059	635506	keystroke_o	o	n/a
317.917	0.1055	635834	keystroke_o	o	n/a
317.962	0.1805	635924	keystroke_d	d	n/a
318.0675	0.1805	636135	keystroke_s	s	n/a
318.2025	0.105	636405	keystroke_Key.space	Key.space	n/a
318.3525	0.1345	636705	keystroke_p	p	n/a
318.683	0.15	637366	keystroke_o	o	n/a
318.877	0.135	637754	keystroke_c	c	n/a
319.058	0.18	638116	keystroke_k	k	n/a
319.147	0.27	638294	keystroke_e	e	n/a
319.2515	0.1505	638503	keystroke_t	t	n/a
319.342	0.151	638684	keystroke_s	s	n/a
319.477	0.0905	638954	keystroke_Key.enter	Key.enter	n/a
319.572	7.0175	639144	prompt	n/a	education assessed directly booking\n
320.2275	0.105	640455	keystroke_e	e	n/a
320.4375	0.105	640875	keystroke_d	d	n/a
320.5275	0.105	641055	keystroke_u	u	n/a
320.6925	0.195	641385	keystroke_a	a	n/a
321.2625	0.09	642525	keystroke_Key.backspace	Key.backspace	n/a
321.4875	0.135	642975	keystroke_c	c	n/a
321.6075	0.1495	643215	keystroke_a	a	n/a
321.742	0.0905	643484	keystroke_t	t	n/a
321.8475	0.1055	643695	keystroke_i	i	n/a
321.9225	0.12	643845	keystroke_o	o	n/a
322.0125	0.105	644025	keystroke_n	n	n/a
322.1925	0.12	644385	keystroke_Key.space	Key.space	n/a
322.2825	0.1805	644565	keystroke_a	a	n/a
322.403	0.1195	644806	keystroke_s	s	n/a
322.5975	0.1645	645195	keystroke_s	s	n/a
322.777	0.2105	645554	keystroke_e	e	n/a
322.912	0.105	645824	keystroke_s	s	n/a
323.1075	0.1645	646215	keystroke_s	s	n/a
323.3025	0.0905	646605	keystroke_e	e	n/a
323.543	0.104	647086	keystroke_d	d	n/a
323.6175	0.151	647235	keystroke_Key.space	Key.space	n/a
323.7525	0.135	647505	keystroke_d	d	n/a
323.858	0.1345	647716	keystroke_i	i	n/a
323.9775	0.105	647955	keystroke_r	r	n/a
324.3075	0.0755	648615	keystroke_c	c	n/a
324.6975	0.045	649395	keystroke_Key.backspace	Key.backspace	n/a
324.8175	0.0755	649635	keystroke_e	e	n/a
325.028	0.0895	650056	keystroke_c	c	n/a
325.1775	0.135	650355	keystroke_t	t	n/a
325.2375	0.1505	650475	keystroke_l	l	n/a
325.4325	0.075	650865	keystroke_y	y	n/a
325.5975	0.1495	651195	keystroke_Key.space	Key.space	n/a
325.687	0.1205	651374	keystroke_b	b	n/a
325.793	0.059	651586	keystroke_o	o	n/a
325.942	0.1355	651884	keystroke_o	o	n/a
326.0475	0.135	652095	keystroke_k	k	n/a
326.258	0.0895	652516	keystroke_i	i	n/a
326.3475	0.1045	652695	keystroke_n	n	n/a
326.423	0.09	652846	keystroke_g	g	n/a
326.513	0.074	653026	keystroke_Key.enter	Key.enter	n/a
326.593	6.9865	653186	prompt	n/a	connecting forecast classifieds mistake\n
327.3825	0.075	654765	keystroke_c	c	n/a
327.4125	0.105	654825	keystroke_o	o	n/a
327.5325	0.075	655065	keystroke_n	n	n/a
327.683	0.1345	655366	keystroke_n	n	n/a
327.8025	0.105	655605	keystroke_e	e	n/a
328.0425	0.105	656085	keystroke_c	c	n/a
328.1925	0.12	656385	keystroke_t	t	n/a
328.2825	0.1205	656565	keystroke_i	i	n/a
328.3875	0.1355	656775	keystroke_n	n	n/a
328.508	0.0895	657016	keystroke_g	g	n/a
328.6275	0.1495	657255	keystroke_Key.space	Key.space	n/a
328.8225	0.1045	657645	keystroke_f	f	n/a
328.912	0.135	657824	keystroke_o	o	n/a
329.032	0.1055	658064	keystroke_r	r	n/a
329.1075	0.075	658215	keystroke_e	e	n/a
329.3475	0.105	658695	keystroke_c	c	n/a
329.438	0.2245	658876	keystroke_a	a	n/a
329.5875	0.15	659175	keystroke_s	s	n/a
329.7675	0.09	659535	keystroke_t	t	n/a
329.9025	0.15	659805	keystroke_Key.space	Key.space	n/a
330.2775	0.1205	660555	keystroke_c	c	n/a
330.382	0.151	660764	keystroke_l	l	n/a
330.487	0.12	660974	keystroke_a	a	n/a
330.548	0.134	661096	keystroke_s	s	n/a
330.7875	0.12	661575	keystroke_s	s	n/a
330.937	0.1355	661874	keystroke_i	i	n/a
331.102	0.166	662204	keystroke_f	f	n/a
331.298	0.1495	662596	keystroke_i	i	n/a
331.4025	0.1505	662805	keystroke_e	e	n/a
331.6865	0.136	663373	keystroke_d	d	n/a
331.9575	0.21	663915	keystroke_s	s	n/a
332.1525	0.105	664305	keystroke_Key.space	Key.space	n/a
332.602	0.106	665204	keystroke_m	m	n/a
332.7375	0.135	665475	keystroke_i	i	n/a
332.812	0.15	665624	keystroke_s	s	n/a
333.037	0.121	666074	keystroke_t	t	n/a
333.1725	0.1505	666345	keystroke_a	a	n/a
333.262	0.1805	666524	keystroke_k	k	n/a
333.352	0.135	666704	keystroke_e	e	n/a
333.517	0.0605	667034	keystroke_Key.enter	Key.enter	n/a
333.5865	4.4325	667173	prompt	n/a	driven grams joining opens\n
334.1325	0.18	668265	keystroke_d	d	n/a
334.4775	0.105	668955	keystroke_r	r	n/a
334.6425	0.15	669285	keystroke_i	i	n/a
334.7935	0.1345	669587	keystroke_v	v	n/a
334.898	0.1195	669796	keystroke_e	e	n/a
335.1525	0.1355	670305	keystroke_n	n	n/a
335.3625	0.1655	670725	keystroke_Key.space	Key.space	n/a
335.588	0.06	671176	keystroke_g	g	n/a
335.783	0.074	671566	keystroke_r	r	n/a
335.843	0.15	671686	keystroke_a	a	n/a
335.933	0.149	671866	keystroke_m	m	n/a
336.067	0.151	672134	keystroke_s	s	n/a
336.188	0.135	672376	keystroke_Key.space	Key.space	n/a
336.3525	0.195	672705	keystroke_j	j	n/a
336.5325	0.135	673065	keystroke_o	o	n/a
336.6525	0.105	673305	keystroke_i	i	n/a
336.7425	0.12	673485	keystroke_n	n	n/a
336.9225	0.15	673845	keystroke_i	i	n/a
337.0425	0.15	674085	keystroke_n	n	n/a
337.1935	0.1195	674387	keystroke_g	g	n/a
337.3275	0.075	674655	keystroke_Key.space	Key.space	n/a
337.4175	0.18	674835	keystroke_o	o	n/a
337.4925	0.09	674985	keystroke_p	p	n/a
337.5525	0.165	675105	keystroke_e	e	n/a
337.7325	0.12	675465	keystroke_n	n	n/a
337.8225	0.18	675645	keystroke_s	s	n/a
337.9425	0.075	675885	keystroke_Key.enter	Key.enter	n/a
338.023	4.6755	676046	prompt	n/a	almost offering sending urgent\n
338.693	0.1345	677386	keystroke_a	a	n/a
338.753	0.1495	677506	keystroke_l	l	n/a
338.8875	0.1055	677775	keystroke_m	m	n/a
339.0075	0.12	678015	keystroke_o	o	n/a
339.1125	0.135	678225	keystroke_s	s	n/a
339.2175	0.105	678435	keystroke_t	t	n/a
339.3375	0.12	678675	keystroke_Key.space	Key.space	n/a
339.4725	0.1355	678945	keystroke_o	o	n/a
339.5775	0.09	679155	keystroke_f	f	n/a
339.7575	0.0905	679515	keystroke_f	f	n/a
339.9075	0.135	679815	keystroke_e	e	n/a
339.9825	0.1505	679965	keystroke_r	r	n/a
340.118	0.105	680236	keystroke_i	i	n/a
340.2075	0.149	680415	keystroke_n	n	n/a
340.313	0.09	680626	keystroke_g	g	n/a
340.477	0.135	680954	keystroke_Key.space	Key.space	n/a
340.582	0.18	681164	keystroke_s	s	n/a
340.732	0.121	681464	keystroke_e	e	n/a
340.808	0.1795	681616	keystroke_n	n	n/a
340.973	0.1195	681946	keystroke_d	d	n/a
341.0625	0.105	682125	keystroke_i	i	n/a
341.153	0.1495	682306	keystroke_n	n	n/a
341.2725	0.09	682545	keystroke_g	g	n/a
341.4075	0.105	682815	keystroke_Key.space	Key.space	n/a
341.618	0.1195	683236	keystroke_u	u	n/a
341.753	0.0595	683506	keystroke_r	r	n/a
341.9625	0.15	683925	keystroke_g	g	n/a
342.0825	0.1345	684165	keystroke_e	e	n/a
342.2325	0.1195	684465	keystroke_n	n	n/a
342.3975	0.12	684795	keystroke_t	t	n/a
342.6375	0.06	685275	keystroke_Key.enter	Key.enter	n/a
342.701	4.0175	685402	prompt	n/a	often tons demanding maria\n
343.3875	0.1055	686775	keystroke_o	o	n/a
343.4935	0.104	686987	keystroke_f	f	n/a
343.7025	0.1195	687405	keystroke_t	t	n/a
343.7925	0.15	687585	keystroke_e	e	n/a
343.897	0.121	687794	keystroke_n	n	n/a
344.0925	0.135	688185	keystroke_Key.space	Key.space	n/a
344.1975	0.12	688395	keystroke_t	t	n/a
344.257	0.1055	688514	keystroke_o	o	n/a
344.3775	0.12	688755	keystroke_n	n	n/a
344.4825	0.09	688965	keystroke_s	s	n/a
344.5875	0.12	689175	keystroke_Key.space	Key.space	n/a
344.6775	0.105	689355	keystroke_d	d	n/a
344.8725	0.136	689745	keystroke_e	e	n/a
344.9925	0.15	689985	keystroke_m	m	n/a
345.1275	0.15	690255	keystroke_a	a	n/a
345.263	0.135	690526	keystroke_n	n	n/a
345.3225	0.1645	690645	keystroke_d	d	n/a
345.4575	0.15	690915	keystroke_i	i	n/a
345.562	0.136	691124	keystroke_n	n	n/a
345.652	0.106	691304	keystroke_g	g	n/a
345.802	0.12	691604	keystroke_Key.space	Key.space	n/a
345.9075	0.18	691815	keystroke_m	m	n/a
346.0575	0.1655	692115	keystroke_a	a	n/a
346.192	0.1055	692384	keystroke_r	r	n/a
346.3875	0.135	692775	keystroke_i	i	n/a
346.4625	0.15	692925	keystroke_a	a	n/a
346.6275	0.09	693255	keystroke_Key.enter	Key.enter	n/a
346.721	5.968	693442	prompt	n/a	loss pour mothers accommodate\n
347.2585	0.119	694517	keystroke_l	l	n/a
347.4675	0.1355	694935	keystroke_o	o	n/a
347.5875	0.12	695175	keystroke_s	s	n/a
347.798	0.179	695596	keystroke_s	s	n/a
347.962	0.1355	695924	keystroke_Key.space	Key.space	n/a
348.367	0.106	696734	keystroke_p	p	n/a
348.5925	0.1655	697185	keystroke_o	o	n/a
348.8625	0.1505	697725	keystroke_u	u	n/a
348.998	0.135	697996	keystroke_r	r	n/a
349.1925	0.1495	698385	keystroke_Key.space	Key.space	n/a
349.6275	0.09	699255	keystroke_m	m	n/a
349.7475	0.135	699495	keystroke_o	o	n/a
349.8525	0.075	699705	keystroke_t	t	n/a
349.8975	0.105	699795	keystroke_h	h	n/a
349.973	0.2695	699946	keystroke_e	e	n/a
350.0625	0.135	700125	keystroke_r	r	n/a
350.1525	0.15	700305	keystroke_s	s	n/a
350.3025	0.1345	700605	keystroke_Key.space	Key.space	n/a
350.4225	0.1645	700845	keystroke_a	a	n/a
350.632	0.106	701264	keystroke_c	c	n/a
350.8425	0.09	701685	keystroke_c	c	n/a
351.0075	0.135	702015	keystroke_o	o	n/a
351.1575	0.165	702315	keystroke_m	m	n/a
351.3825	0.09	702765	keystroke_m	m	n/a
351.862	0.106	703724	keystroke_o	o	n/a
352.177	0.1505	704354	keystroke_d	d	n/a
352.313	0.1345	704626	keystroke_a	a	n/a
352.3875	0.12	704775	keystroke_t	t	n/a
352.478	0.1345	704956	keystroke_e	e	n/a
352.6125	0.075	705225	keystroke_Key.enter	Key.enter	n/a
352.6925	8.157	705385	prompt	n/a	regularly environment fluid values\n
353.333	0.149	706666	keystroke_r	r	n/a
353.437	0.105	706874	keystroke_e	e	n/a
353.603	0.105	707206	keystroke_g	g	n/a
353.693	0.135	707386	keystroke_u	u	n/a
353.933	0.15	707866	keystroke_l	l	n/a
354.1125	0.195	708225	keystroke_a	a	n/a
354.2625	0.1045	708525	keystroke_r	r	n/a
354.893	0.12	709786	keystroke_l	l	n/a
355.103	0.075	710206	keystroke_y	y	n/a
355.298	0.18	710596	keystroke_Key.space	Key.space	n/a
355.523	0.12	711046	keystroke_e	e	n/a
355.673	0.1195	711346	keystroke_n	n	n/a
356.198	0.0595	712396	keystroke_v	v	n/a
356.468	0.1345	712936	keystroke_i	i	n/a
356.7225	0.105	713445	keystroke_r	r	n/a
356.8425	0.1355	713685	keystroke_o	o	n/a
356.963	0.135	713926	keystroke_n	n	n/a
357.3225	0.12	714645	keystroke_m	m	n/a
357.3975	0.135	714795	keystroke_e	e	n/a
357.578	0.0745	715156	keystroke_n	n	n/a
357.608	0.0895	715216	keystroke_t	t	n/a
357.8025	0.1655	715605	keystroke_Key.space	Key.space	n/a
357.9525	0.18	715905	keystroke_f	f	n/a
358.1475	0.105	716295	keystroke_u	u	n/a
358.463	0.15	716926	keystroke_l	l	n/a
358.732	0.0605	717464	keystroke_Key.backspace	Key.backspace	n/a
358.8825	0.0745	717765	keystroke_Key.backspace	Key.backspace	n/a
359.0475	0.1805	718095	keystroke_l	l	n/a
359.257	0.121	718514	keystroke_u	u	n/a
359.362	0.135	718724	keystroke_i	i	n/a
359.527	0.166	719054	keystroke_d	d	n/a
359.723	0.1195	719446	keystroke_Key.space	Key.space	n/a
360.0075	0.151	720015	keystroke_v	v	n/a
360.143	0.1795	720286	keystroke_a	a	n/a
360.3075	0.1955	720615	keystroke_l	l	n/a
360.488	0.12	720976	keystroke_u	u	n/a
360.547	0.166	721094	keystroke_e	e	n/a
360.638	0.15	721276	keystroke_s	s	n/a
360.773	0.074	721546	keystroke_Key.enter	Key.enter	n/a
360.8535	7.886	721707	prompt	n/a	ministers gerald vatican adopt\n
361.5075	0.12	723015	keystroke_m	m	n/a
361.7915	0.1965	723583	keystroke_n	n	n/a
362.0335	0.1645	724067	keystroke_i	i	n/a
362.4365	0.061	724873	keystroke_Key.backspace	Key.backspace	n/a
362.6025	0.0445	725205	keystroke_Key.backspace	Key.backspace	n/a
362.8725	0.165	725745	keystroke_i	i	n/a
363.038	0.119	726076	keystroke_n	n	n/a
363.1725	0.1505	726345	keystroke_i	i	n/a
363.1875	0.0305	726375	keystroke_l	l	n/a
363.712	0.105	727424	keystroke_Key.backspace	Key.backspace	n/a
364.0125	0.045	728025	keystroke_Key.backspace	Key.backspace	n/a
364.462	0.105	728924	keystroke_i	i	n/a
364.733	0.149	729466	keystroke_s	s	n/a
364.837	0.105	729674	keystroke_t	t	n/a
364.957	0.1955	729914	keystroke_e	e	n/a
365.063	0.1645	730126	keystroke_r	r	n/a
365.1975	0.1355	730395	keystroke_s	s	n/a
365.393	0.1345	730786	keystroke_Key.space	Key.space	n/a
365.6025	0.0755	731205	keystroke_g	g	n/a
365.707	0.1955	731414	keystroke_e	e	n/a
365.827	0.12	731654	keystroke_r	r	n/a
366.037	0.135	732074	keystroke_a	a	n/a
366.173	0.119	732346	keystroke_l	l	n/a
366.233	0.1495	732466	keystroke_d	d	n/a
366.4715	0.091	732943	keystroke_Key.space	Key.space	n/a
366.8025	0.135	733605	keystroke_v	v	n/a
366.9825	0.105	733965	keystroke_a	a	n/a
367.2975	0.1055	734595	keystroke_t	t	n/a
367.433	0.1495	734866	keystroke_i	i	n/a
367.5675	0.12	735135	keystroke_c	c	n/a
367.6725	0.135	735345	keystroke_a	a	n/a
367.7325	0.12	735465	keystroke_n	n	n/a
367.9425	0.135	735885	keystroke_Key.space	Key.space	n/a
368.033	0.1945	736066	keystroke_a	a	n/a
368.168	0.1645	736336	keystroke_d	d	n/a
368.3025	0.1805	736605	keystroke_o	o	n/a
368.377	0.106	736754	keystroke_p	p	n/a
368.468	0.09	736936	keystroke_t	t	n/a
368.677	0.06	737354	keystroke_Key.enter	Key.enter	n/a
368.743	5.726	737486	prompt	n/a	temporary devel screen relation\n
369.398	0.1345	738796	keystroke_t	t	n/a
369.4875	0.135	738975	keystroke_e	e	n/a
369.6375	0.12	739275	keystroke_m	m	n/a
369.8175	0.09	739635	keystroke_p	p	n/a
369.9975	0.135	739995	keystroke_o	o	n/a
370.1025	0.1345	740205	keystroke_r	r	n/a
370.4625	0.165	740925	keystroke_a	a	n/a
370.598	0.1345	741196	keystroke_r	r	n/a
370.8225	0.075	741645	keystroke_y	y	n/a
371.002	0.1505	742004	keystroke_Key.space	Key.space	n/a
371.122	0.105	742244	keystroke_d	d	n/a
371.3025	0.0905	742605	keystroke_e	e	n/a
371.4375	0.1195	742875	keystroke_v	v	n/a
371.647	0.106	743294	keystroke_e	e	n/a
371.798	0.134	743596	keystroke_l	l	n/a
372.0675	0.1645	744135	keystroke_Key.space	Key.space	n/a
372.2765	0.15	744553	keystroke_s	s	n/a
372.5025	0.105	745005	keystroke_c	c	n/a
372.6375	0.15	745275	keystroke_r	r	n/a
372.7575	0.09	745515	keystroke_e	e	n/a
372.9225	0.105	745845	keystroke_e	e	n/a
373.1025	0.12	746205	keystroke_n	n	n/a
373.297	0.15	746594	keystroke_Key.space	Key.space	n/a
373.4925	0.1345	746985	keystroke_r	r	n/a
373.582	0.1205	747164	keystroke_e	e	n/a
373.7325	0.1355	747465	keystroke_l	l	n/a
373.822	0.105	747644	keystroke_a	a	n/a
373.912	0.1205	747824	keystroke_t	t	n/a
374.0175	0.1205	748035	keystroke_i	i	n/a
374.093	0.104	748186	keystroke_o	o	n/a
374.183	0.119	748366	keystroke_n	n	n/a
374.392	0.0755	748784	keystroke_Key.enter	Key.enter	n/a
374.473	8.952	748946	prompt	n/a	classic interact conservative multimedia\n
375.2625	0.075	750525	keystroke_s	s	n/a
375.652	0.0905	751304	keystroke_Key.backspace	Key.backspace	n/a
375.8775	0.1645	751755	keystroke_c	c	n/a
376.0275	0.1655	752055	keystroke_l	l	n/a
376.162	0.2105	752324	keystroke_a	a	n/a
376.2825	0.105	752565	keystroke_s	s	n/a
376.5075	0.12	753015	keystroke_s	s	n/a
376.658	0.1645	753316	keystroke_i	i	n/a
376.7625	0.12	753525	keystroke_c	c	n/a
376.9425	0.135	753885	keystroke_Key.space	Key.space	n/a
377.2275	0.105	754455	keystroke_i	i	n/a
377.3325	0.18	754665	keystroke_n	n	n/a
377.438	0.0895	754876	keystroke_t	t	n/a
377.558	0.1645	755116	keystroke_e	e	n/a
377.662	0.1205	755324	keystroke_r	r	n/a
377.947	0.1505	755894	keystroke_a	a	n/a
378.112	0.105	756224	keystroke_c	c	n/a
378.263	0.104	756526	keystroke_t	t	n/a
378.3525	0.15	756705	keystroke_Key.space	Key.space	n/a
378.487	0.106	756974	keystroke_c	c	n/a
378.562	0.121	757124	keystroke_o	o	n/a
378.697	0.12	757394	keystroke_n	n	n/a
379.012	0.21	758024	keystroke_s	s	n/a
379.208	0.21	758416	keystroke_e	e	n/a
379.313	0.119	758626	keystroke_r	r	n/a
379.568	0.134	759136	keystroke_v	v	n/a
379.717	0.1655	759434	keystroke_a	a	n/a
379.9425	0.105	759885	keystroke_t	t	n/a
380.0625	0.1655	760125	keystroke_i	i	n/a
380.1975	0.105	760395	keystroke_v	v	n/a
380.2725	0.105	760545	keystroke_e	e	n/a
380.4075	0.165	760815	keystroke_Key.space	Key.space	n/a
380.588	0.1195	761176	keystroke_m	m	n/a
380.812	0.105	761624	keystroke_u	u	n/a
380.9925	0.1505	761985	keystroke_l	l	n/a
381.172	0.1215	762344	keystroke_t	t	n/a
381.232	0.1505	762464	keystroke_i	i	n/a
381.907	0.15	763814	keystroke_m	m	n/a
382.072	0.105	764144	keystroke_e	e	n/a
382.298	0.1345	764596	keystroke_d	d	n/a
382.4925	0.12	764985	keystroke_i	i	n/a
383.0775	0.18	766155	keystroke_a	a	n/a
383.3325	0.089	766665	keystroke_Key.enter	Key.enter	n/a
383.429	5.3355	766858	prompt	n/a	wooden julia pair medical\n
384.0825	0.1505	768165	keystroke_w	w	n/a
384.188	0.075	768376	keystroke_o	o	n/a
384.3675	0.105	768735	keystroke_o	o	n/a
384.4275	0.12	768855	keystroke_d	d	n/a
384.6525	0.165	769305	keystroke_e	e	n/a
384.773	0.1495	769546	keystroke_n	n	n/a
385.0275	0.12	770055	keystroke_Key.space	Key.space	n/a
385.1775	0.09	770355	keystroke_j	j	n/a
385.3575	0.135	770715	keystroke_u	u	n/a
385.9425	0.135	771885	keystroke_l	l	n/a
386.4525	0.135	772905	keystroke_i	i	n/a
386.5725	0.15	773145	keystroke_a	a	n/a
386.7375	0.12	773475	keystroke_Key.space	Key.space	n/a
386.9775	0.059	773955	keystroke_p	p	n/a
387.023	0.1645	774046	keystroke_a	a	n/a
387.1725	0.15	774345	keystroke_i	i	n/a
387.2925	0.09	774585	keystroke_r	r	n/a
387.4125	0.135	774825	keystroke_Key.space	Key.space	n/a
387.6525	0.1205	775305	keystroke_m	m	n/a
387.7125	0.105	775425	keystroke_e	e	n/a
387.9385	0.134	775877	keystroke_d	d	n/a
388.1025	0.165	776205	keystroke_i	i	n/a
388.2375	0.135	776475	keystroke_c	c	n/a
388.3575	0.1805	776715	keystroke_a	a	n/a
388.493	0.1495	776986	keystroke_l	l	n/a
388.7175	0.045	777435	keystroke_Key.enter	Key.enter	n/a
388.769	6.8355	777538	prompt	n/a	debate knitting ethnic preparing\n
389.3775	0.105	778755	keystroke_d	d	n/a
389.5725	0.1045	779145	keystroke_e	e	n/a
389.797	0.1055	779594	keystroke_b	b	n/a
389.9475	0.18	779895	keystroke_a	a	n/a
390.0975	0.135	780195	keystroke_l	l	n/a
390.487	0.075	780974	keystroke_Key.backspace	Key.backspace	n/a
390.623	0.165	781246	keystroke_t	t	n/a
390.728	0.149	781456	keystroke_e	e	n/a
390.892	0.211	781784	keystroke_Key.space	Key.space	n/a
391.087	0.166	782174	keystroke_k	k	n/a
391.2675	0.165	782535	keystroke_n	n	n/a
391.493	0.1345	782986	keystroke_i	i	n/a
391.6425	0.105	783285	keystroke_t	t	n/a
391.8375	0.12	783675	keystroke_t	t	n/a
392.0025	0.135	784005	keystroke_i	i	n/a
392.1225	0.135	784245	keystroke_n	n	n/a
392.2725	0.06	784545	keystroke_g	g	n/a
392.3775	0.12	784755	keystroke_Key.space	Key.space	n/a
392.4525	0.165	784905	keystroke_e	e	n/a
392.7525	0.1805	785505	keystroke_t	t	n/a
392.8725	0.1205	785745	keystroke_h	h	n/a
393.2175	0.105	786435	keystroke_n	n	n/a
393.3825	0.15	786765	keystroke_i	i	n/a
393.5775	0.09	787155	keystroke_c	c	n/a
393.7425	0.135	787485	keystroke_Key.space	Key.space	n/a
393.893	0.1195	787786	keystroke_p	p	n/a
394.043	0.1195	788086	keystroke_r	r	n/a
394.1475	0.075	788295	keystroke_e	e	n/a
394.253	0.1495	788506	keystroke_p	p	n/a
394.4175	0.165	788835	keystroke_a	a	n/a
394.523	0.1345	789046	keystroke_r	r	n/a
394.5975	0.105	789195	keystroke_e	e	n/a
394.9875	0.06	789975	keystroke_Key.backspace	Key.backspace	n/a
395.2275	0.12	790455	keystroke_i	i	n/a
395.3325	0.12	790665	keystroke_n	n	n/a
395.3925	0.075	790785	keystroke_g	g	n/a
395.5125	0.09	791025	keystroke_Key.enter	Key.enter	n/a
395.612	5.7825	791224	prompt	n/a	condition raised sole respected\n
396.4735	0.104	792947	keystroke_c	c	n/a
396.563	0.1045	793126	keystroke_o	o	n/a
396.682	0.136	793364	keystroke_n	n	n/a
396.758	0.134	793516	keystroke_d	d	n/a
396.922	0.15	793844	keystroke_i	i	n/a
397.237	0.151	794474	keystroke_t	t	n/a
397.357	0.1355	794714	keystroke_i	i	n/a
397.478	0.075	794956	keystroke_o	o	n/a
397.538	0.21	795076	keystroke_n	n	n/a
397.7775	0.18	795555	keystroke_Key.space	Key.space	n/a
398.3025	0.12	796605	keystroke_r	r	n/a
398.4075	0.165	796815	keystroke_a	a	n/a
398.498	0.1795	796996	keystroke_i	i	n/a
398.6175	0.15	797235	keystroke_s	s	n/a
398.7225	0.1055	797445	keystroke_e	e	n/a
398.9775	0.1355	797955	keystroke_d	d	n/a
399.1425	0.165	798285	keystroke_Key.space	Key.space	n/a
399.3975	0.195	798795	keystroke_s	s	n/a
399.503	0.0745	799006	keystroke_o	o	n/a
399.7725	0.075	799545	keystroke_l	l	n/a
399.7875	0.0905	799575	keystroke_e	e	n/a
399.9075	0.18	799815	keystroke_Key.space	Key.space	n/a
400.0275	0.18	800055	keystroke_r	r	n/a
400.1325	0.135	800265	keystroke_e	e	n/a
400.2225	0.165	800445	keystroke_s	s	n/a
400.343	0.1045	800686	keystroke_p	p	n/a
400.4325	0.105	800865	keystroke_e	e	n/a
400.7025	0.1205	801405	keystroke_c	c	n/a
400.8525	0.1355	801705	keystroke_t	t	n/a
400.958	0.105	801916	keystroke_e	e	n/a
401.183	0.105	802366	keystroke_d	d	n/a
401.303	0.09	802606	keystroke_Key.enter	Key.enter	n/a
401.3975	7.002	802795	prompt	n/a	injury amber trailers considers\n
402.1875	0.1355	804375	keystroke_i	i	n/a
402.308	0.1195	804616	keystroke_n	n	n/a
402.533	0.0745	805066	keystroke_j	j	n/a
402.7275	0.1355	805455	keystroke_u	u	n/a
402.8925	0.1355	805785	keystroke_r	r	n/a
402.9975	0.0895	805995	keystroke_y	y	n/a
403.207	0.12	806414	keystroke_Key.space	Key.space	n/a
403.328	0.1495	806656	keystroke_a	a	n/a
403.463	0.135	806926	keystroke_m	m	n/a
403.673	0.075	807346	keystroke_b	b	n/a
403.823	0.18	807646	keystroke_e	e	n/a
403.898	0.12	807796	keystroke_r	r	n/a
404.078	0.15	808156	keystroke_Key.space	Key.space	n/a
404.392	0.105	808784	keystroke_t	t	n/a
404.617	0.09	809234	keystroke_r	r	n/a
404.692	0.1955	809384	keystroke_a	a	n/a
404.843	0.135	809686	keystroke_i	i	n/a
404.9625	0.15	809925	keystroke_l	l	n/a
405.0075	0.2705	810015	keystroke_e	e	n/a
405.097	0.1655	810194	keystroke_r	r	n/a
405.202	0.18	810404	keystroke_s	s	n/a
405.3975	0.1055	810795	keystroke_Key.space	Key.space	n/a
405.892	0.121	811784	keystroke_o	o	n/a
405.968	0.075	811936	keystroke_c	c	n/a
406.3575	0.045	812715	keystroke_Key.backspace	Key.backspace	n/a
406.598	0.075	813196	keystroke_Key.backspace	Key.backspace	n/a
406.8675	0.09	813735	keystroke_c	c	n/a
406.9425	0.09	813885	keystroke_o	o	n/a
407.048	0.1345	814096	keystroke_n	n	n/a
407.2125	0.18	814425	keystroke_s	s	n/a
407.4525	0.1505	814905	keystroke_i	i	n/a
407.588	0.09	815176	keystroke_d	d	n/a
407.782	0.181	815564	keystroke_e	e	n/a
407.843	0.165	815686	keystroke_r	r	n/a
407.993	0.225	815986	keystroke_s	s	n/a
408.2925	0.105	816585	keystroke_Key.enter	Key.enter	n/a
408.4035	5.1855	816807	prompt	n/a	barbara plug zealand cams\n
409.058	0.104	818116	keystroke_b	b	n/a
409.2075	0.1355	818415	keystroke_a	a	n/a
409.313	0.135	818626	keystroke_r	r	n/a
409.627	0.12	819254	keystroke_b	b	n/a
409.793	0.149	819586	keystroke_a	a	n/a
409.898	0.18	819796	keystroke_r	r	n/a
410.1225	0.165	820245	keystroke_a	a	n/a
410.3925	0.12	820785	keystroke_Key.space	Key.space	n/a
410.6175	0.1505	821235	keystroke_p	p	n/a
410.798	0.2095	821596	keystroke_l	l	n/a
411.0225	0.135	822045	keystroke_u	u	n/a
411.2025	0.12	822405	keystroke_g	g	n/a
411.3675	0.15	822735	keystroke_Key.space	Key.space	n/a
411.7275	0.135	823455	keystroke_z	z	n/a
411.8775	0.2105	823755	keystroke_e	e	n/a
412.0725	0.18	824145	keystroke_a	a	n/a
412.2825	0.15	824565	keystroke_l	l	n/a
412.5975	0.1495	825195	keystroke_a	a	n/a
412.733	0.15	825466	keystroke_n	n	n/a
412.807	0.12	825614	keystroke_d	d	n/a
412.972	0.1505	825944	keystroke_Key.space	Key.space	n/a
413.0925	0.0895	826185	keystroke_c	c	n/a
413.197	0.166	826394	keystroke_a	a	n/a
413.287	0.121	826574	keystroke_m	m	n/a
413.377	0.121	826754	keystroke_s	s	n/a
413.513	0.074	827026	keystroke_Key.enter	Key.enter	n/a
413.5945	10.3745	827189	prompt	n/a	cartridges symposium introducing revolution\n
414.398	0.1195	828796	keystroke_c	c	n/a
414.5185	0.164	829037	keystroke_a	a	n/a
414.6225	0.1055	829245	keystroke_r	r	n/a
414.8625	0.135	829725	keystroke_t	t	n/a
415.2975	0.15	830595	keystroke_r	r	n/a
415.4925	0.1655	830985	keystroke_i	i	n/a
415.748	0.2095	831496	keystroke_d	d	n/a
415.9125	0.1495	831825	keystroke_g	g	n/a
416.0325	0.1795	832065	keystroke_e	e	n/a
416.123	0.149	832246	keystroke_s	s	n/a
416.318	0.149	832636	keystroke_Key.space	Key.space	n/a
416.4975	0.18	832995	keystroke_s	s	n/a
416.6925	0.0605	833385	keystroke_y	y	n/a
416.962	0.09	833924	keystroke_m	m	n/a
417.143	0.12	834286	keystroke_p	p	n/a
417.412	0.1055	834824	keystroke_o	o	n/a
417.712	0.2105	835424	keystroke_s	s	n/a
417.877	0.105	835754	keystroke_u	u	n/a
418.372	0.06	836744	keystroke_Key.backspace	Key.backspace	n/a
418.5375	0.165	837075	keystroke_i	i	n/a
418.8075	0.0905	837615	keystroke_u	u	n/a
419.0475	0.1195	838095	keystroke_m	m	n/a
419.243	0.1195	838486	keystroke_Key.space	Key.space	n/a
419.348	0.105	838696	keystroke_i	i	n/a
419.453	0.135	838906	keystroke_n	n	n/a
419.5575	0.0745	839115	keystroke_t	t	n/a
419.723	0.104	839446	keystroke_r	r	n/a
419.813	0.104	839626	keystroke_o	o	n/a
419.978	0.1045	839956	keystroke_d	d	n/a
420.248	0.09	840496	keystroke_c	c	n/a
420.263	0.104	840526	keystroke_u	u	n/a
421.3725	0.06	842745	keystroke_Key.backspace	Key.backspace	n/a
421.5225	0.09	843045	keystroke_Key.backspace	Key.backspace	n/a
421.748	0.12	843496	keystroke_u	u	n/a
421.9275	0.0905	843855	keystroke_c	c	n/a
422.0485	0.134	844097	keystroke_i	i	n/a
422.1675	0.135	844335	keystroke_n	n	n/a
422.2725	0.0755	844545	keystroke_g	g	n/a
422.408	0.135	844816	keystroke_Key.space	Key.space	n/a
422.528	0.1345	845056	keystroke_r	r	n/a
422.6175	0.105	845235	keystroke_e	e	n/a
422.8275	0.12	845655	keystroke_v	v	n/a
422.9325	0.0905	845865	keystroke_o	o	n/a
423.1425	0.12	846285	keystroke_l	l	n/a
423.3225	0.09	846645	keystroke_u	u	n/a
423.3675	0.15	846735	keystroke_t	t	n/a
423.563	0.1345	847126	keystroke_i	i	n/a
423.6825	0.09	847365	keystroke_o	o	n/a
423.7875	0.03	847575	keystroke_n	n	n/a
423.9075	0.0595	847815	keystroke_Key.enter	Key.enter	n/a
423.9725	6.402	847945	prompt	n/a	cubic thou enforcement pulse\n
424.583	0.09	849166	keystroke_c	c	n/a
424.687	0.105	849374	keystroke_u	u	n/a
424.822	0.105	849644	keystroke_b	b	n/a
425.288	0.1495	850576	keystroke_i	i	n/a
425.4825	0.1055	850965	keystroke_c	c	n/a
425.707	0.135	851414	keystroke_Key.space	Key.space	n/a
426.023	0.12	852046	keystroke_t	t	n/a
426.082	0.105	852164	keystroke_h	h	n/a
426.173	0.1795	852346	keystroke_o	o	n/a
426.3675	0.1195	852735	keystroke_u	u	n/a
426.923	0.1345	853846	keystroke_Key.space	Key.space	n/a
427.3875	0.15	854775	keystroke_e	e	n/a
427.5375	0.12	855075	keystroke_n	n	n/a
427.6125	0.105	855225	keystroke_f	f	n/a
427.7775	0.12	855555	keystroke_o	o	n/a
427.8825	0.1055	855765	keystroke_r	r	n/a
428.1225	0.075	856245	keystroke_c	c	n/a
428.3475	0.1205	856695	keystroke_e	e	n/a
428.6325	0.135	857265	keystroke_m	m	n/a
428.738	0.1195	857476	keystroke_e	e	n/a
428.8875	0.12	857775	keystroke_n	n	n/a
428.948	0.1045	857896	keystroke_t	t	n/a
429.1125	0.105	858225	keystroke_Key.space	Key.space	n/a
429.2625	0.24	858525	keystroke_p	p	n/a
429.3525	0.2405	858705	keystroke_u	u	n/a
429.878	0.1645	859756	keystroke_l	l	n/a
430.0125	0.1495	860025	keystroke_s	s	n/a
430.117	0.1205	860234	keystroke_e	e	n/a
430.282	0.091	860564	keystroke_Key.enter	Key.enter	n/a
430.3775	5.5315	860755	prompt	n/a	receiver relates annie cocktail\n
431.063	0.15	862126	keystroke_r	r	n/a
431.167	0.106	862334	keystroke_e	e	n/a
431.4225	0.0755	862845	keystroke_c	c	n/a
431.6325	0.12	863265	keystroke_e	e	n/a
431.828	0.1645	863656	keystroke_i	i	n/a
431.948	0.075	863896	keystroke_v	v	n/a
432.083	0.1345	864166	keystroke_e	e	n/a
432.1575	0.0905	864315	keystroke_r	r	n/a
432.2775	0.1355	864555	keystroke_Key.space	Key.space	n/a
432.547	0.166	865094	keystroke_r	r	n/a
432.6375	0.1205	865275	keystroke_e	e	n/a
432.817	0.166	865634	keystroke_l	l	n/a
432.968	0.105	865936	keystroke_a	a	n/a
433.043	0.15	866086	keystroke_t	t	n/a
433.118	0.165	866236	keystroke_e	e	n/a
433.208	0.165	866416	keystroke_s	s	n/a
433.403	0.12	866806	keystroke_Key.space	Key.space	n/a
433.628	0.15	867256	keystroke_a	a	n/a
433.7035	0.0885	867407	keystroke_n	n	n/a
433.898	0.059	867796	keystroke_n	n	n/a
434.033	0.135	868066	keystroke_i	i	n/a
434.138	0.104	868276	keystroke_e	e	n/a
434.303	0.134	868606	keystroke_Key.space	Key.space	n/a
434.423	0.1045	868846	keystroke_c	c	n/a
434.5125	0.0895	869025	keystroke_o	o	n/a
434.738	0.185	869476	keystroke_c	c	n/a
434.933	0.1345	869866	keystroke_k	k	n/a
435.337	0.106	870674	keystroke_t	t	n/a
435.458	0.225	870916	keystroke_a	a	n/a
435.472	0.15	870944	keystroke_i	i	n/a
435.608	0.164	871216	keystroke_l	l	n/a
435.8325	0.075	871665	keystroke_Key.enter	Key.enter	n/a
435.914	6.3255	871828	prompt	n/a	postings speeds wider success\n
436.613	0.09	873226	keystroke_p	p	n/a
436.823	0.09	873646	keystroke_o	o	n/a
436.883	0.135	873766	keystroke_s	s	n/a
437.033	0.105	874066	keystroke_t	t	n/a
437.168	0.165	874336	keystroke_i	i	n/a
437.348	0.165	874696	keystroke_n	n	n/a
437.438	0.149	874876	keystroke_g	g	n/a
437.543	0.164	875086	keystroke_s	s	n/a
437.7225	0.15	875445	keystroke_Key.space	Key.space	n/a
437.993	0.15	875986	keystroke_s	s	n/a
438.113	0.105	876226	keystroke_p	p	n/a
438.233	0.254	876466	keystroke_e	e	n/a
438.9225	0.1195	877845	keystroke_e	e	n/a
439.193	0.21	878386	keystroke_d	d	n/a
439.343	0.119	878686	keystroke_s	s	n/a
439.477	0.1055	878954	keystroke_Key.space	Key.space	n/a
439.567	0.106	879134	keystroke_w	w	n/a
439.688	0.1495	879376	keystroke_i	i	n/a
439.778	0.104	879556	keystroke_d	d	n/a
439.973	0.15	879946	keystroke_e	e	n/a
440.047	0.151	880094	keystroke_r	r	n/a
440.228	0.165	880456	keystroke_Key.space	Key.space	n/a
440.408	0.105	880816	keystroke_s	s	n/a
440.5425	0.1055	881085	keystroke_u	u	n/a
440.677	0.091	881354	keystroke_c	c	n/a
440.948	0.075	881896	keystroke_c	c	n/a
441.158	0.1495	882316	keystroke_e	e	n/a
441.2625	0.135	882525	keystroke_s	s	n/a
441.4875	0.09	882975	keystroke_s	s	n/a
442.1475	0.09	884295	keystroke_Key.enter	Key.enter	n/a
442.2425	8.142	884485	prompt	n/a	pursue bachelor construction encoding\n
442.853	0.09	885706	keystroke_p	p	n/a
443.033	0.1345	886066	keystroke_r	r	n/a
443.557	0.0605	887114	keystroke_Key.backspace	Key.backspace	n/a
443.767	0.105	887534	keystroke_u	u	n/a
443.873	0.105	887746	keystroke_r	r	n/a
444.353	0.165	888706	keystroke_s	s	n/a
444.548	0.15	889096	keystroke_u	u	n/a
444.878	0.15	889756	keystroke_e	e	n/a
445.0425	0.1495	890085	keystroke_Key.space	Key.space	n/a
445.5525	0.1045	891105	keystroke_b	b	n/a
445.672	0.196	891344	keystroke_a	a	n/a
445.9875	0.1055	891975	keystroke_c	c	n/a
446.123	0.12	892246	keystroke_h	h	n/a
446.318	0.135	892636	keystroke_e	e	n/a
446.5275	0.1205	893055	keystroke_l	l	n/a
446.858	0.015	893716	keystroke_o	o	n/a
446.887	0.06	893774	keystroke_r	r	n/a
446.992	0.121	893984	keystroke_Key.space	Key.space	n/a
447.217	0.1205	894434	keystroke_c	c	n/a
447.293	0.104	894586	keystroke_o	o	n/a
447.413	0.12	894826	keystroke_n	n	n/a
447.473	0.1495	894946	keystroke_s	s	n/a
447.5925	0.105	895185	keystroke_t	t	n/a
447.8025	0.135	895605	keystroke_r	r	n/a
447.8925	0.15	895785	keystroke_u	u	n/a
448.0875	0.1055	896175	keystroke_c	c	n/a
448.2675	0.1045	896535	keystroke_t	t	n/a
448.357	0.1205	896714	keystroke_i	i	n/a
448.463	0.074	896926	keystroke_o	o	n/a
448.522	0.1205	897044	keystroke_n	n	n/a
448.687	0.135	897374	keystroke_Key.space	Key.space	n/a
448.7775	0.1345	897555	keystroke_e	e	n/a
