onset	duration	sample	value	key	prompt_text
51.7435	12.825	103487	prompt	n/a	the quick brown fox jumps over a lazy dog\n
56.798	0.013	113596	keystroke	t	n/a
56.811	0.06	113622	keystroke	h	n/a
56.916	0.059	113832	keystroke	e	n/a
56.9905	0.0745	113981	keystroke	Key.space	n/a
57.291	0.074	114582	keystroke	q	n/a
57.516	0.149	115032	keystroke	y	n/a
57.606	0.105	115212	keystroke	u	n/a
58.7005	0.06	117401	keystroke	Key.backspace	n/a
58.8355	0.06	117671	keystroke	Key.backspace	n/a
59.0015	0.0445	118003	keystroke	Key.backspace	n/a
59.616	0.089	119232	keystroke	q	n/a
59.7355	0.1345	119471	keystroke	u	n/a
59.825	0.0755	119650	keystroke	i	n/a
59.961	0.059	119922	keystroke	c	n/a
60.0805	0.1195	120161	keystroke	k	n/a
60.1855	0.0895	120371	keystroke	Key.space	n/a
60.3655	0.09	120731	keystroke	b	n/a
60.5155	0.075	121031	keystroke	r	n/a
60.5755	0.09	121151	keystroke	o	n/a
60.6955	0.1045	121391	keystroke	w	n/a
60.785	0.091	121570	keystroke	n	n/a
60.845	0.0905	121690	keystroke	Key.space	n/a
60.981	0.074	121962	keystroke	f	n/a
61.07	0.076	122140	keystroke	o	n/a
61.221	0.0895	122442	keystroke	x	n/a
61.325	0.075	122650	keystroke	Key.space	n/a
61.5205	0.09	123041	keystroke	j	n/a
61.686	0.089	123372	keystroke	u	n/a
61.926	0.059	123852	keystroke	m	n/a
61.971	0.135	123942	keystroke	p	n/a
62.3005	0.075	124601	keystroke	s	n/a
62.4505	0.075	124901	keystroke	Key.space	n/a
62.556	0.0895	125112	keystroke	o	n/a
62.66	0.09	125320	keystroke	v	n/a
62.7805	0.15	125561	keystroke	e	n/a
62.9005	0.0595	125801	keystroke	r	n/a
62.945	0.09	125890	keystroke	Key.space	n/a
63.0805	0.075	126161	keystroke	a	n/a
63.1105	0.105	126221	keystroke	Key.space	n/a
63.351	0.105	126702	keystroke	l	n/a
63.4405	0.06	126881	keystroke	a	n/a
63.6205	0.06	127241	keystroke	z	n/a
63.7255	0.12	127451	keystroke	y	n/a
63.831	0.0595	127662	keystroke	Key.space	n/a
63.921	0.09	127842	keystroke	d	n/a
63.9955	0.075	127991	keystroke	o	n/a
64.1155	0.06	128231	keystroke	g	n/a
64.4895	0.0755	128979	keystroke	Key.enter	n/a
64.574	5.3935	129148	prompt	n/a	trailer prev realistic pros\n
65.2705	0.0755	130541	keystroke	t	n/a
65.435	0.0755	130870	keystroke	r	n/a
65.48	0.075	130960	keystroke	a	n/a
65.571	0.119	131142	keystroke	i	n/a
65.6755	0.1045	131351	keystroke	l	n/a
65.7655	0.15	131531	keystroke	e	n/a
65.8855	0.1055	131771	keystroke	r	n/a
65.975	0.0755	131950	keystroke	Key.space	n/a
66.365	0.106	132730	keystroke	p	n/a
66.576	0.18	133152	keystroke	r	n/a
66.711	0.0895	133422	keystroke	e	n/a
66.921	0.0745	133842	keystroke	v	n/a
67.025	0.0755	134050	keystroke	Key.space	n/a
67.895	0.1205	135790	keystroke	r	n/a
67.971	0.089	135942	keystroke	e	n/a
68.045	0.0895	136090	keystroke	a	n/a
68.166	0.0895	136332	keystroke	l	n/a
68.2405	0.12	136481	keystroke	i	n/a
68.3605	0.105	136721	keystroke	s	n/a
68.4505	0.0595	136901	keystroke	t	n/a
68.57	0.09	137140	keystroke	i	n/a
68.661	0.074	137322	keystroke	c	n/a
68.78	0.06	137560	keystroke	Key.space	n/a
69.215	0.0755	138430	keystroke	p	n/a
69.306	0.059	138612	keystroke	r	n/a
69.41	0.075	138820	keystroke	o	n/a
69.5	0.045	139000	keystroke	s	n/a
69.89	0.075	139780	keystroke	Key.enter	n/a
69.973	5.353	139946	prompt	n/a	grill amber chicago armed\n
70.596	0.0595	141192	keystroke	g	n/a
70.7455	0.0605	141491	keystroke	r	n/a
70.8205	0.075	141641	keystroke	i	n/a
71.0005	0.045	142001	keystroke	l	n/a
71.1205	0.09	142241	keystroke	l	n/a
71.2405	0.105	142481	keystroke	Key.space	n/a
71.421	0.06	142842	keystroke	a	n/a
71.4955	0.06	142991	keystroke	m	n/a
71.705	0.045	143410	keystroke	b	n/a
71.766	0.1345	143532	keystroke	e	n/a
71.871	0.0745	143742	keystroke	r	n/a
72.2455	0.075	144491	keystroke	Key.space	n/a
72.9055	0.075	145811	keystroke	c	n/a
72.9955	0.075	145991	keystroke	h	n/a
73.086	0.09	146172	keystroke	i	n/a
73.1905	0.089	146381	keystroke	c	n/a
73.3105	0.075	146621	keystroke	a	n/a
73.5355	0.0455	147071	keystroke	g	n/a
73.6255	0.075	147251	keystroke	o	n/a
73.7455	0.059	147491	keystroke	Key.space	n/a
74.5105	0.0905	149021	keystroke	a	n/a
74.6455	0.0745	149291	keystroke	r	n/a
74.705	0.09	149410	keystroke	m	n/a
74.841	0.03	149682	keystroke	e	n/a
74.9605	0.0755	149921	keystroke	d	n/a
75.2755	0.0445	150551	keystroke	Key.enter	n/a
75.329	8.9035	150658	prompt	n/a	louise random found viewing\n
76.1315	0.0745	152263	keystroke	l	n/a
76.3255	0.105	152651	keystroke	o	n/a
76.6105	0.1195	153221	keystroke	u	n/a
76.715	0.106	153430	keystroke	i	n/a
76.8355	0.1805	153671	keystroke	s	n/a
77.0005	0.06	154001	keystroke	e	n/a
77.135	0.0605	154270	keystroke	Key.space	n/a
77.855	0.075	155710	keystroke	r	n/a
77.9605	0.0745	155921	keystroke	a	n/a
78.02	0.105	156040	keystroke	n	n/a
78.156	0.089	156312	keystroke	d	n/a
78.2755	0.1205	156551	keystroke	o	n/a
78.5155	0.045	157031	keystroke	Key.space	n/a
80.03	0.06	160060	keystroke	Key.backspace	n/a
80.6305	0.0605	161261	keystroke	m	n/a
80.7655	0.09	161531	keystroke	Key.space	n/a
81.621	0.0595	163242	keystroke	d	n/a
81.9655	0.0595	163931	keystroke	Key.backspace	n/a
82.146	0.06	164292	keystroke	f	n/a
82.281	0.1345	164562	keystroke	o	n/a
82.37	0.075	164740	keystroke	u	n/a
82.5655	0.105	165131	keystroke	n	n/a
82.656	0.0895	165312	keystroke	d	n/a
82.7755	0.06	165551	keystroke	Key.space	n/a
83.2855	0.045	166571	keystroke	v	n/a
83.3755	0.0905	166751	keystroke	i	n/a
83.481	0.119	166962	keystroke	e	n/a
83.54	0.12	167080	keystroke	w	n/a
83.646	0.12	167292	keystroke	i	n/a
83.7205	0.09	167441	keystroke	n	n/a
83.8105	0.0605	167621	keystroke	g	n/a
84.14	0.09	168280	keystroke	Key.enter	n/a
84.2375	6.266	168475	prompt	n/a	passing wearing install fragrance\n
84.86	0.0905	169720	keystroke	p	n/a
84.9355	0.0745	169871	keystroke	a	n/a
85.071	0.0595	170142	keystroke	s	n/a
85.205	0.091	170410	keystroke	s	n/a
85.296	0.1345	170592	keystroke	i	n/a
85.355	0.106	170710	keystroke	n	n/a
85.4455	0.045	170891	keystroke	g	n/a
85.5205	0.09	171041	keystroke	Key.space	n/a
85.9855	0.09	171971	keystroke	w	n/a
86.0905	0.135	172181	keystroke	e	n/a
86.2105	0.075	172421	keystroke	a	n/a
86.2555	0.0745	172511	keystroke	r	n/a
86.345	0.105	172690	keystroke	i	n/a
86.42	0.0745	172840	keystroke	n	n/a
86.48	0.0595	172960	keystroke	g	n/a
86.6005	0.0445	173201	keystroke	Key.space	n/a
87.306	0.134	174612	keystroke	i	n/a
87.38	0.075	174760	keystroke	n	n/a
87.47	0.075	174940	keystroke	s	n/a
87.56	0.06	175120	keystroke	t	n/a
87.635	0.075	175270	keystroke	a	n/a
87.711	0.045	175422	keystroke	l	n/a
87.83	0.105	175660	keystroke	l	n/a
87.9505	0.09	175901	keystroke	Key.space	n/a
88.235	0.075	176470	keystroke	f	n/a
88.4155	0.0595	176831	keystroke	r	n/a
88.5055	0.1045	177011	keystroke	a	n/a
88.611	0.059	177222	keystroke	g	n/a
88.8055	0.0595	177611	keystroke	a	n/a
89.541	0.0745	179082	keystroke	Key.backspace	n/a
89.631	0.09	179262	keystroke	r	n/a
89.736	0.0745	179472	keystroke	a	n/a
89.855	0.076	179710	keystroke	n	n/a
89.961	0.089	179922	keystroke	c	n/a
90.036	0.06	180072	keystroke	e	n/a
90.4405	0.06	180881	keystroke	Key.enter	n/a
90.508	6.8045	181016	prompt	n/a	departure craft civilian without\n
91.1455	0.075	182291	keystroke	d	n/a
91.325	0.06	182650	keystroke	e	n/a
91.475	0.076	182950	keystroke	p	n/a
91.5355	0.0895	183071	keystroke	a	n/a
91.626	0.059	183252	keystroke	r	n/a
91.8055	0.0755	183611	keystroke	t	n/a
92.016	0.0745	184032	keystroke	u	n/a
92.106	0.1045	184212	keystroke	r	n/a
92.181	0.09	184362	keystroke	e	n/a
92.285	0.0755	184570	keystroke	Key.space	n/a
92.9905	0.195	185981	keystroke	c	n/a
93.2005	0.015	186401	keystroke	r	n/a
93.2305	0.12	186461	keystroke	a	n/a
93.3205	0.075	186641	keystroke	f	n/a
93.5005	0.045	187001	keystroke	t	n/a
93.5905	0.045	187181	keystroke	Key.space	n/a
94.2055	0.0895	188411	keystroke	c	n/a
94.64	0.09	189280	keystroke	i	n/a
94.82	0.0595	189640	keystroke	v	n/a
94.926	0.1035	189852	keystroke	i	n/a
95.1805	0.0755	190361	keystroke	l	n/a
95.2705	0.1045	190541	keystroke	i	n/a
95.4205	0.045	190841	keystroke	a	n/a
95.5105	0.075	191021	keystroke	n	n/a
95.6455	0.0745	191291	keystroke	Key.space	n/a
96.3205	0.075	192641	keystroke	w	n/a
96.4245	0.061	192849	keystroke	i	n/a
96.515	0.0605	193030	keystroke	t	n/a
96.59	0.0755	193180	keystroke	h	n/a
96.7255	0.12	193451	keystroke	o	n/a
96.8005	0.0605	193601	keystroke	u	n/a
96.8755	0.06	193751	keystroke	t	n/a
97.2505	0.06	194501	keystroke	Key.enter	n/a
97.321	10.0415	194642	prompt	n/a	stamp beliefs revised impossible\n
97.835	0.0155	195670	keystroke	d	n/a
97.8505	0.1495	195701	keystroke	s	n/a
98.4055	0.0595	196811	keystroke	Key.backspace	n/a
98.5405	0.074	197081	keystroke	Key.backspace	n/a
98.6305	0.089	197261	keystroke	s	n/a
98.7055	0.075	197411	keystroke	t	n/a
98.8105	0.059	197621	keystroke	a	n/a
98.8555	0.09	197711	keystroke	m	n/a
98.9595	0.091	197919	keystroke	p	n/a
99.1405	0.06	198281	keystroke	Key.space	n/a
99.665	0.0755	199330	keystroke	b	n/a
99.725	0.075	199450	keystroke	e	n/a
99.89	0.075	199780	keystroke	l	n/a
100.025	0.09	200050	keystroke	i	n/a
100.1	0.0905	200200	keystroke	e	n/a
100.175	0.075	200350	keystroke	f	n/a
100.3105	0.09	200621	keystroke	s	n/a
100.4155	0.045	200831	keystroke	Key.space	n/a
101.1345	0.136	202269	keystroke	r	n/a
101.2405	0.105	202481	keystroke	e	n/a
101.42	0.0755	202840	keystroke	v	n/a
101.5105	0.075	203021	keystroke	i	n/a
101.7055	0.1345	203411	keystroke	s	n/a
101.825	0.0755	203650	keystroke	e	n/a
101.975	0.105	203950	keystroke	d	n/a
102.0955	0.0445	204191	keystroke	Key.space	n/a
102.7405	0.1805	205481	keystroke	i	n/a
102.8455	0.12	205691	keystroke	m	n/a
103.055	0.0755	206110	keystroke	p	n/a
103.2355	0.075	206471	keystroke	o	n/a
103.3255	0.045	206651	keystroke	s	n/a
103.4605	0.0745	206921	keystroke	s	n/a
103.5505	0.105	207101	keystroke	i	n/a
103.76	0.0905	207520	keystroke	l	n/a
104.3755	0.075	208751	keystroke	Key.backspace	n/a
104.5395	0.076	209079	keystroke	b	n/a
104.735	0.0455	209470	keystroke	;	n/a
104.75	0.0155	209500	keystroke	l	n/a
104.811	0.0745	209622	keystroke	e	n/a
105.2455	0.06	210491	keystroke	Key.backspace	n/a
105.3805	0.09	210761	keystroke	Key.backspace	n/a
105.7545	0.046	211509	keystroke	Key.backspace	n/a
106.416	0.0895	212832	keystroke	l	n/a
106.5205	0.0605	213041	keystroke	e	n/a
107.3005	0.0595	214601	keystroke	Key.enter	n/a
107.3675	5.364	214735	prompt	n/a	scoop legend chem carries\n
107.9755	0.09	215951	keystroke	s	n/a
108.1105	0.075	216221	keystroke	c	n/a
108.2455	0.06	216491	keystroke	o	n/a
108.3805	0.075	216761	keystroke	o	n/a
108.5305	0.09	217061	keystroke	p	n/a
108.6655	0.06	217331	keystroke	Key.space	n/a
109.07	0.105	218140	keystroke	l	n/a
109.16	0.06	218320	keystroke	e	n/a
109.325	0.06	218650	keystroke	g	n/a
109.355	0.09	218710	keystroke	e	n/a
109.46	0.0905	218920	keystroke	n	n/a
109.5805	0.06	219161	keystroke	d	n/a
109.7	0.045	219400	keystroke	Key.space	n/a
110.3905	0.12	220781	keystroke	c	n/a
110.511	0.0745	221022	keystroke	h	n/a
110.6005	0.075	221201	keystroke	e	n/a
110.7205	0.074	221441	keystroke	m	n/a
110.8395	0.075	221679	keystroke	Key.space	n/a
111.4855	0.09	222971	keystroke	c	n/a
111.6355	0.0595	223271	keystroke	a	n/a
111.74	0.0755	223480	keystroke	r	n/a
111.876	0.074	223752	keystroke	r	n/a
111.9805	0.09	223961	keystroke	i	n/a
112.026	0.149	224052	keystroke	e	n/a
112.1	0.135	224200	keystroke	s	n/a
112.625	0.105	225250	keystroke	Key.enter	n/a
112.7355	5.4715	225471	prompt	n/a	yoga bread access games\n
113.691	0.059	227382	keystroke	y	n/a
113.8405	0.09	227681	keystroke	o	n/a
113.9455	0.089	227891	keystroke	g	n/a
114.0055	0.089	228011	keystroke	a	n/a
114.1395	0.061	228279	keystroke	Key.space	n/a
114.65	0.0605	229300	keystroke	b	n/a
114.696	0.1045	229392	keystroke	r	n/a
114.755	0.12	229510	keystroke	e	n/a
114.845	0.15	229690	keystroke	a	n/a
114.965	0.105	229930	keystroke	d	n/a
115.055	0.0455	230110	keystroke	Key.space	n/a
115.7745	0.121	231549	keystroke	a	n/a
115.9405	0.09	231881	keystroke	c	n/a
116.0755	0.104	232151	keystroke	c	n/a
116.2555	0.075	232511	keystroke	e	n/a
116.4055	0.09	232811	keystroke	s	n/a
116.5705	0.089	233141	keystroke	s	n/a
116.7045	0.0605	233409	keystroke	Key.space	n/a
117.47	0.09	234940	keystroke	g	n/a
117.545	0.091	235090	keystroke	a	n/a
117.6055	0.105	235211	keystroke	m	n/a
117.68	0.12	235360	keystroke	e	n/a
117.77	0.0905	235540	keystroke	s	n/a
118.1905	0.0145	236381	keystroke	Key.enter	n/a
118.2125	10.4195	236425	prompt	n/a	live limousines cottages experiences\n
118.9405	0.105	237881	keystroke	l	n/a
119.1355	0.09	238271	keystroke	i	n/a
119.1955	0.105	238391	keystroke	v	n/a
119.3155	0.06	238631	keystroke	e	n/a
119.391	0.089	238782	keystroke	Key.space	n/a
119.525	0.1055	239050	keystroke	l	n/a
119.87	0.0905	239740	keystroke	o	n/a
120.2305	0.0745	240461	keystroke	Key.backspace	n/a
120.5305	0.1045	241061	keystroke	i	n/a
120.7105	0.1055	241421	keystroke	m	n/a
120.8455	0.074	241691	keystroke	o	n/a
121.1155	0.0895	242231	keystroke	s	n/a
121.34	0.12	242680	keystroke	u	n/a
122.3	0.0755	244600	keystroke	Key.backspace	n/a
122.7505	0.09	245501	keystroke	Key.backspace	n/a
123.2605	0.045	246521	keystroke	u	n/a
123.575	0.075	247150	keystroke	s	n/a
123.695	0.12	247390	keystroke	i	n/a
123.7705	0.105	247541	keystroke	n	n/a
123.9055	0.1805	247811	keystroke	e	n/a
124.055	0.121	248110	keystroke	s	n/a
124.176	0.059	248352	keystroke	Key.space	n/a
124.9555	0.09	249911	keystroke	c	n/a
125.0755	0.075	250151	keystroke	o	n/a
125.2105	0.075	250421	keystroke	t	n/a
125.3605	0.075	250721	keystroke	t	n/a
125.4955	0.12	250991	keystroke	a	n/a
125.6155	0.105	251231	keystroke	g	n/a
125.6905	0.165	251381	keystroke	e	n/a
125.7655	0.15	251531	keystroke	s	n/a
125.9305	0.06	251861	keystroke	Key.space	n/a
126.6655	0.045	253331	keystroke	e	n/a
126.8305	0.075	253661	keystroke	x	n/a
126.9945	0.076	253989	keystroke	p	n/a
127.0855	0.09	254171	keystroke	e	n/a
127.1605	0.0605	254321	keystroke	r	n/a
127.5805	0.0595	255161	keystroke	i	n/a
127.655	0.075	255310	keystroke	e	n/a
127.7905	0.105	255581	keystroke	n	n/a
127.88	0.1055	255760	keystroke	c	n/a
127.9705	0.12	255941	keystroke	e	n/a
128.0605	0.105	256121	keystroke	s	n/a
128.5395	0.091	257079	keystroke	Key.enter	n/a
128.6375	7.8105	257275	prompt	n/a	specialized districts respond goods\n
129.2905	0.0905	258581	keystroke	s	n/a
129.4855	0.06	258971	keystroke	e	n/a
129.5605	0.105	259121	keystroke	p	n/a
129.8445	0.045	259689	keystroke	Key.backspace	n/a
129.9655	0.06	259931	keystroke	Key.backspace	n/a
130.1155	0.089	260231	keystroke	p	n/a
130.1745	0.0755	260349	keystroke	e	n/a
130.2955	0.0745	260591	keystroke	c	n/a
130.4	0.0605	260800	keystroke	i	n/a
130.4905	0.075	260981	keystroke	a	n/a
130.625	0.0755	261250	keystroke	l	n/a
130.925	0.06	261850	keystroke	i	n/a
131.001	0.074	262002	keystroke	z	n/a
131.1355	0.075	262271	keystroke	e	n/a
131.3	0.061	262600	keystroke	d	n/a
131.45	0.015	262900	keystroke	Key.space	n/a
132.14	0.06	264280	keystroke	d	n/a
132.32	0.09	264640	keystroke	i	n/a
132.425	0.1205	264850	keystroke	s	n/a
132.5305	0.0605	265061	keystroke	t	n/a
132.6805	0.06	265361	keystroke	r	n/a
132.7255	0.09	265451	keystroke	i	n/a
132.8455	0.059	265691	keystroke	c	n/a
133.0405	0.075	266081	keystroke	t	n/a
133.1005	0.0895	266201	keystroke	s	n/a
133.25	0.0755	266500	keystroke	Key.space	n/a
134.0455	0.105	268091	keystroke	r	n/a
134.1355	0.09	268271	keystroke	e	n/a
134.1965	0.075	268393	keystroke	s	n/a
134.2865	0.074	268573	keystroke	p	n/a
134.4655	0.12	268931	keystroke	o	n/a
134.5555	0.0745	269111	keystroke	n	n/a
134.615	0.075	269230	keystroke	d	n/a
134.75	0.06	269500	keystroke	Key.space	n/a
135.4255	0.0745	270851	keystroke	g	n/a
135.53	0.06	271060	keystroke	o	n/a
135.6355	0.09	271271	keystroke	o	n/a
135.7105	0.1345	271421	keystroke	d	n/a
135.8	0.0905	271600	keystroke	s	n/a
136.3705	0.0745	272741	keystroke	Key.enter	n/a
136.453	7.2545	272906	prompt	n/a	barrier visiting toronto maps\n
137.18	0.0905	274360	keystroke	b	n/a
137.2405	0.075	274481	keystroke	a	n/a
137.3305	0.06	274661	keystroke	r	n/a
137.4655	0.09	274931	keystroke	r	n/a
137.5855	0.075	275171	keystroke	i	n/a
137.6305	0.12	275261	keystroke	e	n/a
137.721	0.0745	275442	keystroke	r	n/a
137.796	0.0445	275592	keystroke	Key.space	n/a
138.651	0.074	277302	keystroke	v	n/a
138.7555	0.075	277511	keystroke	i	n/a
138.861	0.075	277722	keystroke	s	n/a
138.9655	0.0745	277931	keystroke	i	n/a
139.0555	0.06	278111	keystroke	t	n/a
139.1455	0.119	278291	keystroke	i	n/a
139.2355	0.0905	278471	keystroke	n	n/a
139.326	0.044	278652	keystroke	g	n/a
139.4145	0.076	278829	keystroke	Key.space	n/a
140.3005	0.06	280601	keystroke	t	n/a
140.4205	0.075	280841	keystroke	o	n/a
140.5255	0.06	281051	keystroke	r	n/a
140.645	0.135	281290	keystroke	o	n/a
140.735	0.075	281470	keystroke	n	n/a
140.8705	0.0595	281741	keystroke	t	n/a
141.005	0.06	282010	keystroke	Key.space	n/a
141.365	0.0755	282730	keystroke	Key.backspace	n/a
141.56	0.075	283120	keystroke	o	n/a
141.6955	0.0745	283391	keystroke	Key.space	n/a
142.6855	0.0755	285371	keystroke	m	n/a
142.7455	0.105	285491	keystroke	a	n/a
142.8955	0.12	285791	keystroke	p	n/a
143.0455	0.09	286091	keystroke	s	n/a
143.6305	0.075	287261	keystroke	Key.enter	n/a
143.712	7.8995	287424	prompt	n/a	appeals severe blessed indian\n
144.2455	0.075	288491	keystroke	a	n/a
144.3945	0.076	288789	keystroke	p	n/a
144.5155	0.09	289031	keystroke	p	n/a
144.5905	0.075	289181	keystroke	e	n/a
144.6655	0.12	289331	keystroke	a	n/a
144.8005	0.075	289601	keystroke	l	n/a
144.9205	0.06	289841	keystroke	s	n/a
144.9945	0.06	289989	keystroke	Key.space	n/a
145.7145	0.106	291429	keystroke	s	n/a
145.8505	0.149	291701	keystroke	e	n/a
146.2855	0.089	292571	keystroke	v	n/a
146.4055	0.134	292811	keystroke	e	n/a
146.5555	0.0895	293111	keystroke	r	n/a
146.616	0.105	293232	keystroke	e	n/a
146.75	0.075	293500	keystroke	Key.space	n/a
147.695	0.0755	295390	keystroke	b	n/a
147.845	0.075	295690	keystroke	e	n/a
148.3105	0.015	296621	keystroke	Key.backspace	n/a
148.6705	0.015	297341	keystroke	l	n/a
148.7005	0.075	297401	keystroke	e	n/a
148.9105	0.015	297821	keystroke	s	n/a
149.0305	0.075	298061	keystroke	s	n/a
149.1505	0.045	298301	keystroke	e	n/a
149.2855	0.0745	298571	keystroke	d	n/a
149.375	0.0905	298750	keystroke	Key.space	n/a
149.9905	0.09	299981	keystroke	i	n/a
150.1255	0.105	300251	keystroke	n	n/a
150.2455	0.075	300491	keystroke	d	n/a
150.3955	0.06	300791	keystroke	i	n/a
150.5005	0.059	301001	keystroke	a	n/a
150.5905	0.105	301181	keystroke	n	n/a
151.535	0.075	303070	keystroke	Key.enter	n/a
151.615	8.8915	303230	prompt	n/a	telephone transcript tradition reported\n
152.3455	0.0895	304691	keystroke	t	n/a
152.45	0.09	304900	keystroke	e	n/a
152.6905	0.09	305381	keystroke	l	n/a
152.8405	0.06	305681	keystroke	e	n/a
152.9905	0.045	305981	keystroke	p	n/a
153.1855	0.075	306371	keystroke	h	n/a
153.2905	0.135	306581	keystroke	o	n/a
153.3805	0.105	306761	keystroke	n	n/a
153.4705	0.0745	306941	keystroke	e	n/a
153.5755	0.0745	307151	keystroke	Key.space	n/a
154.2045	0.0615	308409	keystroke	t	n/a
154.355	0.0905	308710	keystroke	r	n/a
154.4605	0.075	308921	keystroke	a	n/a
154.52	0.09	309040	keystroke	n	n/a
154.67	0.0605	309340	keystroke	s	n/a
154.8805	0.074	309761	keystroke	i	n/a
155.2095	0.076	310419	keystroke	Key.backspace	n/a
155.2855	0.075	310571	keystroke	c	n/a
155.466	0.0595	310932	keystroke	r	n/a
155.5705	0.075	311141	keystroke	i	n/a
155.7355	0.074	311471	keystroke	p	n/a
155.8405	0.06	311681	keystroke	t	n/a
155.9745	0.06	311949	keystroke	Key.space	n/a
156.621	0.0745	313242	keystroke	t	n/a
156.7705	0.0895	313541	keystroke	r	n/a
156.845	0.1055	313690	keystroke	a	n/a
157.0555	0.0745	314111	keystroke	d	n/a
157.1905	0.0745	314381	keystroke	i	n/a
157.31	0.0605	314620	keystroke	t	n/a
157.4155	0.21	314831	keystroke	i	n/a
157.4455	0.135	314891	keystroke	o	n/a
157.5055	0.1645	315011	keystroke	n	n/a
157.671	0.0595	315342	keystroke	Key.space	n/a
158.405	0.121	316810	keystroke	r	n/a
158.4955	0.09	316991	keystroke	e	n/a
158.6155	0.06	317231	keystroke	p	n/a
158.7805	0.075	317561	keystroke	o	n/a
158.8705	0.045	317741	keystroke	r	n/a
159.02	0.0905	318040	keystroke	t	n/a
159.0955	0.075	318191	keystroke	e	n/a
159.2445	0.0605	318489	keystroke	d	n/a
160.4305	0.074	320861	keystroke	Key.enter	n/a
160.5105	8.1865	321021	prompt	n/a	describes favor engine supplies\n
161.2095	0.061	322419	keystroke	d	n/a
161.57	0.0745	323140	keystroke	Key.backspace	n/a
161.8555	0.06	323711	keystroke	d	n/a
162.0355	0.105	324071	keystroke	e	n/a
162.1105	0.12	324221	keystroke	s	n/a
162.2905	0.074	324581	keystroke	r	n/a
162.4255	0.1345	324851	keystroke	i	n/a
162.515	0.1055	325030	keystroke	b	n/a
163.2355	0.045	326471	keystroke	Key.backspace	n/a
163.3705	0.06	326741	keystroke	Key.backspace	n/a
163.5205	0.075	327041	keystroke	Key.backspace	n/a
163.5805	0.06	327161	keystroke	c	n/a
163.7605	0.06	327521	keystroke	r	n/a
163.8055	0.12	327611	keystroke	i	n/a
163.8655	0.105	327731	keystroke	b	n/a
163.9705	0.045	327941	keystroke	e	n/a
164.1355	0.06	328271	keystroke	s	n/a
164.2705	0.059	328541	keystroke	Key.space	n/a
164.946	0.09	329892	keystroke	f	n/a
165.066	0.1045	330132	keystroke	a	n/a
165.155	0.075	330310	keystroke	v	n/a
165.2755	0.06	330551	keystroke	o	n/a
165.3655	0.0595	330731	keystroke	r	n/a
165.47	0.0605	330940	keystroke	Key.space	n/a
165.8905	0.06	331781	keystroke	e	n/a
165.9655	0.09	331931	keystroke	n	n/a
166.0705	0.0605	332141	keystroke	g	n/a
166.1455	0.075	332291	keystroke	i	n/a
166.1905	0.105	332381	keystroke	n	n/a
166.251	0.06	332502	keystroke	e	n/a
166.3705	0.06	332741	keystroke	Key.space	n/a
167	0.0755	334000	keystroke	s	n/a
167.1955	0.075	334391	keystroke	u	n/a
167.3155	0.1055	334631	keystroke	p	n/a
167.4655	0.09	334931	keystroke	p	n/a
167.6905	0.06	335381	keystroke	l	n/a
167.871	0.0595	335742	keystroke	i	n/a
167.9155	0.089	335831	keystroke	e	n/a
168.0355	0.135	336071	keystroke	s	n/a
168.605	0.0895	337210	keystroke	Key.enter	n/a
168.702	8.9505	337404	prompt	n/a	summaries importance nevada single\n
169.3705	0.075	338741	keystroke	s	n/a
169.5355	0.06	339071	keystroke	u	n/a
169.7155	0.06	339431	keystroke	m	n/a
169.835	0.0905	339670	keystroke	m	n/a
169.91	0.075	339820	keystroke	a	n/a
169.971	0.0895	339942	keystroke	r	n/a
170.075	0.0605	340150	keystroke	i	n/a
170.1355	0.075	340271	keystroke	e	n/a
170.36	0.075	340720	keystroke	s	n/a
170.4805	0.06	340961	keystroke	Key.space	n/a
171.1705	0.1345	342341	keystroke	i	n/a
171.261	0.105	342522	keystroke	m	n/a
171.4705	0.0745	342941	keystroke	p	n/a
171.635	0.0905	343270	keystroke	o	n/a
171.711	0.0735	343422	keystroke	r	n/a
171.8905	0.09	343781	keystroke	t	n/a
171.9505	0.105	343901	keystroke	a	n/a
172.026	0.09	344052	keystroke	n	n/a
172.1605	0.044	344321	keystroke	t	n/a
172.2495	0.061	344499	keystroke	Key.space	n/a
172.535	0.0605	345070	keystroke	Key.backspace	n/a
172.6555	0.06	345311	keystroke	Key.backspace	n/a
172.7905	0.12	345581	keystroke	c	n/a
172.9705	0.075	345941	keystroke	e	n/a
173.1805	0.06	346361	keystroke	Key.space	n/a
174.2155	0.0895	348431	keystroke	n	n/a
174.3055	0.06	348611	keystroke	e	n/a
174.4705	0.119	348941	keystroke	v	n/a
174.5455	0.105	349091	keystroke	a	n/a
174.8	0.075	349600	keystroke	d	n/a
174.935	0.0755	349870	keystroke	a	n/a
175.07	0.06	350140	keystroke	Key.space	n/a
175.8055	0.075	351611	keystroke	s	n/a
175.9705	0.119	351941	keystroke	i	n/a
176.0305	0.105	352061	keystroke	n	n/a
176.121	0.0585	352242	keystroke	g	n/a
176.2855	0.075	352571	keystroke	l	n/a
176.4495	0.061	352899	keystroke	e	n/a
177.5605	0.09	355121	keystroke	Key.enter	n/a
177.659	6.6525	355318	prompt	n/a	limits sizes prayer warcraft\n
178.37	0.1055	356740	keystroke	l	n/a
178.55	0.135	357100	keystroke	i	n/a
178.6555	0.1645	357311	keystroke	m	n/a
178.805	0.1205	357610	keystroke	i	n/a
178.9405	0.0755	357881	keystroke	t	n/a
179.121	0.075	358242	keystroke	s	n/a
179.2255	0.0595	358451	keystroke	Key.space	n/a
179.7955	0.09	359591	keystroke	s	n/a
179.9905	0.075	359981	keystroke	i	n/a
180.0955	0.09	360191	keystroke	z	n/a
180.275	0.0455	360550	keystroke	e	n/a
180.4405	0.0755	360881	keystroke	s	n/a
180.5455	0.06	361091	keystroke	Key.space	n/a
181.1455	0.075	362291	keystroke	p	n/a
181.2355	0.1205	362471	keystroke	r	n/a
181.3255	0.075	362651	keystroke	a	n/a
181.7005	0.075	363401	keystroke	y	n/a
181.7905	0.135	363581	keystroke	e	n/a
181.88	0.105	363760	keystroke	r	n/a
181.955	0.075	363910	keystroke	Key.space	n/a
182.8855	0.09	365771	keystroke	w	n/a
183.0355	0.105	366071	keystroke	a	n/a
183.126	0.0595	366252	keystroke	r	n/a
183.321	0.0585	366642	keystroke	c	n/a
183.4855	0.0745	366971	keystroke	r	n/a
183.575	0.105	367150	keystroke	a	n/a
183.665	0.075	367330	keystroke	f	n/a
183.86	0.03	367720	keystroke	t	n/a
184.25	0.06	368500	keystroke	Key.enter	n/a
184.315	8.3825	368630	prompt	n/a	cheers anonymous anything month\n
185.091	0.1045	370182	keystroke	c	n/a
185.2395	0.0755	370479	keystroke	h	n/a
185.331	0.0445	370662	keystroke	e	n/a
185.4655	0.12	370931	keystroke	e	n/a
185.6005	0.105	371201	keystroke	r	n/a
185.6905	0.074	371381	keystroke	s	n/a
185.7795	0.091	371559	keystroke	Key.space	n/a
185.991	0.045	371982	keystroke	a	n/a
186.0955	0.1045	372191	keystroke	n	n/a
186.2905	0.075	372581	keystroke	o	n/a
186.545	0.0605	373090	keystroke	n	n/a
186.8305	0.06	373661	keystroke	y	n/a
187.1005	0.105	374201	keystroke	m	n/a
187.2505	0.135	374501	keystroke	o	n/a
187.3555	0.075	374711	keystroke	u	n/a
187.4455	0.075	374891	keystroke	s	n/a
187.5655	0.075	375131	keystroke	Key.space	n/a
188.2405	0.045	376481	keystroke	s	n/a
188.316	0.1045	376632	keystroke	a	n/a
188.4955	0.029	376991	keystroke	n	n/a
188.705	0.0455	377410	keystroke	Key.backspace	n/a
188.825	0.0755	377650	keystroke	Key.backspace	n/a
188.9755	0.09	377951	keystroke	Key.backspace	n/a
189.08	0.0605	378160	keystroke	a	n/a
189.155	0.0755	378310	keystroke	n	n/a
189.3505	0.0745	378701	keystroke	y	n/a
189.4555	0.0745	378911	keystroke	t	n/a
189.56	0.09	379120	keystroke	h	n/a
189.5755	0.03	379151	keystroke	g	n/a
189.6655	0.1195	379331	keystroke	i	n/a
189.7405	0.09	379481	keystroke	n	n/a
189.846	0.044	379692	keystroke	g	n/a
190.205	0.0455	380410	keystroke	Key.backspace	n/a
190.3405	0.059	380681	keystroke	Key.backspace	n/a
190.4605	0.0745	380921	keystroke	Key.backspace	n/a
190.6105	0.075	381221	keystroke	Key.backspace	n/a
190.8055	0.09	381611	keystroke	i	n/a
190.8505	0.075	381701	keystroke	n	n/a
190.9405	0.06	381881	keystroke	g	n/a
191.0605	0.045	382121	keystroke	Key.space	n/a
191.825	0.1055	383650	keystroke	m	n/a
191.9905	0.12	383981	keystroke	o	n/a
192.0655	0.09	384131	keystroke	n	n/a
192.1705	0.075	384341	keystroke	t	n/a
192.2755	0.045	384551	keystroke	h	n/a
192.6655	0.03	385331	keystroke	Key.enter	n/a
192.702	10.976	385404	prompt	n/a	you'll thompson member makes\n
193.6105	0.015	387221	keystroke	y	n/a
193.6705	0.165	387341	keystroke	o	n/a
193.7755	0.09	387551	keystroke	u	n/a
194.0605	0.075	388121	keystroke	;	n/a
194.361	0.044	388722	keystroke	l	n/a
195.0805	0.06	390161	keystroke	Key.backspace	n/a
195.2305	0.03	390461	keystroke	Key.backspace	n/a
195.68	0.0755	391360	keystroke	'	n/a
196.175	0.075	392350	keystroke	l	n/a
196.325	0.09	392650	keystroke	l	n/a
196.5055	0.0595	393011	keystroke	Key.space	n/a
198.6825	0.013	397365	keystroke	t	n/a
198.6835	0.057	397367	keystroke	h	n/a
198.8305	0.1055	397661	keystroke	o	n/a
198.8755	0.09	397751	keystroke	m	n/a
199.0705	0.12	398141	keystroke	s	n/a
199.805	0.0755	399610	keystroke	Key.backspace	n/a
200.001	0.0745	400002	keystroke	p	n/a
200.166	0.089	400332	keystroke	s	n/a
200.285	0.135	400570	keystroke	o	n/a
200.3605	0.1045	400721	keystroke	n	n/a
200.6155	0.059	401231	keystroke	Key.space	n/a
201.8305	0.075	403661	keystroke	m	n/a
201.98	0.0755	403960	keystroke	e	n/a
202.0705	0.089	404141	keystroke	m	n/a
202.3105	0.0445	404621	keystroke	b	n/a
202.386	0.119	404772	keystroke	e	n/a
202.4755	0.0745	404951	keystroke	r	n/a
202.5655	0.06	405131	keystroke	Key.space	n/a
202.9105	0.12	405821	keystroke	m	n/a
203.0155	0.105	406031	keystroke	a	n/a
203.1355	0.1195	406271	keystroke	k	n/a
203.2105	0.1045	406421	keystroke	e	n/a
203.2855	0.12	406571	keystroke	s	n/a
203.6305	0.0445	407261	keystroke	Key.enter	n/a
203.683	11.26	407366	prompt	n/a	printer conclusions irrigation professionals\n
204.351	0.059	408702	keystroke	p	n/a
204.4255	0.0745	408851	keystroke	r	n/a
204.5455	0.075	409091	keystroke	i	n/a
204.5895	0.091	409179	keystroke	n	n/a
204.6805	0.105	409361	keystroke	t	n/a
204.771	0.1045	409542	keystroke	e	n/a
204.8605	0.09	409721	keystroke	r	n/a
204.9355	0.045	409871	keystroke	Key.space	n/a
205.5955	0.075	411191	keystroke	c	n/a
205.6855	0.2105	411371	keystroke	o	n/a
205.8355	0.075	411671	keystroke	n	n/a
205.9405	0.075	411881	keystroke	c	n/a
206.0755	0.09	412151	keystroke	l	n/a
206.2255	0.06	412451	keystroke	u	n/a
206.3305	0.045	412661	keystroke	s	n/a
206.4505	0.2695	412901	keystroke	i	n/a
206.57	0.18	413140	keystroke	n	n/a
206.5855	0.1055	413171	keystroke	o	n/a
206.765	0.075	413530	keystroke	s	n/a
206.9455	0.0595	413891	keystroke	Key.space	n/a
207.3505	0.0595	414701	keystroke	Key.backspace	n/a
207.4855	0.045	414971	keystroke	Key.backspace	n/a
207.62	0.06	415240	keystroke	Key.backspace	n/a
207.755	0.06	415510	keystroke	Key.backspace	n/a
207.981	0.1045	415962	keystroke	o	n/a
208.041	0.0895	416082	keystroke	n	n/a
208.1605	0.105	416321	keystroke	s	n/a
208.2805	0.06	416561	keystroke	Key.space	n/a
209.0455	0.135	418091	keystroke	i	n/a
209.3455	0.075	418691	keystroke	r	n/a
209.4955	0.075	418991	keystroke	r	n/a
209.5855	0.075	419171	keystroke	i	n/a
209.7205	0.075	419441	keystroke	g	n/a
209.8255	0.105	419651	keystroke	a	n/a
209.9155	0.075	419831	keystroke	t	n/a
210.0505	0.225	420101	keystroke	i	n/a
210.1105	0.135	420221	keystroke	o	n/a
210.1555	0.1655	420311	keystroke	n	n/a
210.3055	0.075	420611	keystroke	Key.space	n/a
211.1305	0.09	422261	keystroke	p	n/a
211.2215	0.104	422443	keystroke	r	n/a
211.4305	0.075	422861	keystroke	o	n/a
211.6405	0.1355	423281	keystroke	f	n/a
211.745	0.0905	423490	keystroke	e	n/a
211.941	0.0595	423882	keystroke	s	n/a
212.105	0.045	424210	keystroke	s	n/a
212.1655	0.24	424331	keystroke	i	n/a
212.3605	0.194	424721	keystroke	o	n/a
212.4955	0.09	424991	keystroke	n	n/a
212.7055	0.0755	425411	keystroke	a	n/a
212.8555	0.059	425711	keystroke	l	n/a
212.975	0.0905	425950	keystroke	s	n/a
214.8955	0.045	429791	keystroke	Key.enter	n/a
214.9475	6.55	429895	prompt	n/a	viewed anger grand oops\n
215.676	0.06	431352	keystroke	v	n/a
215.7805	0.0755	431561	keystroke	i	n/a
215.8255	0.12	431651	keystroke	e	n/a
215.901	0.1645	431802	keystroke	w	n/a
216.081	0.0745	432162	keystroke	e	n/a
216.2455	0.09	432491	keystroke	d	n/a
216.3195	0.061	432639	keystroke	Key.space	n/a
216.815	0.0755	433630	keystroke	a	n/a
216.906	0.0885	433812	keystroke	n	n/a
216.9955	0.0595	433991	keystroke	g	n/a
217.1005	0.0895	434201	keystroke	e	n/a
217.1755	0.0755	434351	keystroke	r	n/a
217.2645	0.06	434529	keystroke	Key.space	n/a
217.8655	0.06	435731	keystroke	g	n/a
218.0295	0.076	436059	keystroke	r	n/a
218.0905	0.075	436181	keystroke	a	n/a
218.1805	0.075	436361	keystroke	n	n/a
218.2705	0.06	436541	keystroke	d	n/a
218.3605	0.074	436721	keystroke	Key.space	n/a
218.9305	0.1205	437861	keystroke	o	n/a
219.096	0.044	438192	keystroke	p	n/a
219.2005	0.0895	438401	keystroke	p	n/a
219.306	0.074	438612	keystroke	s	n/a
219.7855	0.0595	439571	keystroke	Key.backspace	n/a
219.92	0.075	439840	keystroke	Key.backspace	n/a
220.055	0.075	440110	keystroke	Key.backspace	n/a
220.716	0.1795	441432	keystroke	o	n/a
220.8505	0.104	441701	keystroke	p	n/a
220.9855	0.074	441971	keystroke	s	n/a
221.435	0.0595	442870	keystroke	Key.enter	n/a
221.502	10.7695	443004	prompt	n/a	latino negotiations likelihood vanilla\n
222.305	0.0755	444610	keystroke	l	n/a
222.35	0.06	444700	keystroke	a	n/a
222.5005	0.0445	445001	keystroke	t	n/a
222.545	0.105	445090	keystroke	i	n/a
222.62	0.09	445240	keystroke	n	n/a
222.7265	0.1035	445453	keystroke	o	n/a
222.845	0.0605	445690	keystroke	Key.space	n/a
223.611	0.06	447222	keystroke	n	n/a
223.656	0.06	447312	keystroke	e	n/a
223.791	0.074	447582	keystroke	g	n/a
223.8955	0.0755	447791	keystroke	i	n/a
224.5255	0.135	449051	keystroke	Key.backspace	n/a
224.811	0.0745	449622	keystroke	o	n/a
225.0065	0.074	450013	keystroke	t	n/a
225.1405	0.0605	450281	keystroke	i	n/a
225.2905	0.075	450581	keystroke	a	n/a
225.6055	0.06	451211	keystroke	t	n/a
225.7405	0.2255	451481	keystroke	i	n/a
225.815	0.136	451630	keystroke	o	n/a
225.875	0.135	451750	keystroke	n	n/a
225.995	0.091	451990	keystroke	s	n/a
226.1455	0.075	452291	keystroke	Key.space	n/a
226.85	0.09	453700	keystroke	l	n/a
227.0155	0.075	454031	keystroke	i	n/a
227.2255	0.0895	454451	keystroke	k	n/a
227.3755	0.0745	454751	keystroke	e	n/a
227.5705	0.0745	455141	keystroke	l	n/a
227.795	0.1055	455590	keystroke	i	n/a
228.035	0.06	456070	keystroke	h	n/a
228.1555	0.0745	456311	keystroke	o	n/a
228.29	0.076	456580	keystroke	o	n/a
228.366	0.089	456732	keystroke	d	n/a
228.5	0.045	457000	keystroke	Key.space	n/a
229.13	0.0905	458260	keystroke	v	n/a
229.2055	0.045	458411	keystroke	a	n/a
229.2505	0.105	458501	keystroke	n	n/a
229.416	0.0895	458832	keystroke	i	n/a
229.565	0.06	459130	keystroke	l	n/a
229.685	0.091	459370	keystroke	l	n/a
229.731	0.0745	459462	keystroke	a	n/a
232.268	0.001	464536	keystroke	Key.enter	n/a
232.2755	6.5615	464551	prompt	n/a	arab shaft excellence william\n
232.955	0.0755	465910	keystroke	a	n/a
233.061	0.075	466122	keystroke	r	n/a
233.1655	0.0755	466331	keystroke	a	n/a
233.256	0.075	466512	keystroke	b	n/a
233.36	0.0905	466720	keystroke	Key.space	n/a
233.8255	0.0905	467651	keystroke	s	n/a
233.886	0.0895	467772	keystroke	h	n/a
234.0045	0.0765	468009	keystroke	a	n/a
234.096	0.0585	468192	keystroke	f	n/a
234.261	0.06	468522	keystroke	t	n/a
234.3505	0.075	468701	keystroke	Key.space	n/a
235.25	0.0605	470500	keystroke	e	n/a
235.4305	0.075	470861	keystroke	x	n/a
235.5655	0.135	471131	keystroke	c	n/a
235.6555	0.075	471311	keystroke	e	n/a
235.7905	0.075	471581	keystroke	l	n/a
235.9255	0.075	471851	keystroke	l	n/a
236.0155	0.06	472031	keystroke	e	n/a
236.0905	0.105	472181	keystroke	n	n/a
236.2105	0.12	472421	keystroke	c	n/a
236.3155	0.105	472631	keystroke	e	n/a
236.4055	0.0595	472811	keystroke	Key.space	n/a
237.186	0.0745	474372	keystroke	w	n/a
237.2905	0.075	474581	keystroke	i	n/a
237.471	0.0595	474942	keystroke	l	n/a
237.5755	0.0605	475151	keystroke	l	n/a
237.6505	0.135	475301	keystroke	i	n/a
237.801	0.0745	475602	keystroke	a	n/a
237.9055	0.1045	475811	keystroke	m	n/a
238.7755	0.06	477551	keystroke	Key.enter	n/a
238.843	8.124	477686	prompt	n/a	beverly makers delivering enjoying\n
239.586	0.0895	479172	keystroke	b	n/a
239.6605	0.0595	479321	keystroke	e	n/a
239.796	0.0745	479592	keystroke	v	n/a
239.8855	0.1655	479771	keystroke	e	n/a
240.0205	0.075	480041	keystroke	r	n/a
240.2305	0.075	480461	keystroke	l	n/a
240.4405	0.06	480881	keystroke	y	n/a
240.5605	0.06	481121	keystroke	Key.space	n/a
241.371	0.059	482742	keystroke	m	n/a
242	0.0905	484000	keystroke	a	n/a
242.12	0.06	484240	keystroke	k	n/a
242.1805	0.1045	484361	keystroke	e	n/a
242.255	0.166	484510	keystroke	r	n/a
242.406	0.104	484812	keystroke	s	n/a
242.4955	0.075	484991	keystroke	Key.space	n/a
243.35	0.061	486700	keystroke	d	n/a
243.501	0.06	487002	keystroke	e	n/a
243.5905	0.0905	487181	keystroke	l	n/a
243.7705	0.0755	487541	keystroke	i	n/a
243.8305	0.06	487661	keystroke	v	n/a
243.9205	0.1345	487841	keystroke	e	n/a
244.026	0.044	488052	keystroke	r	n/a
244.13	0.091	488260	keystroke	i	n/a
244.1905	0.09	488381	keystroke	n	n/a
244.2355	0.06	488471	keystroke	g	n/a
244.8655	0.0745	489731	keystroke	Key.space	n/a
245.286	0.045	490572	keystroke	e	n/a
245.346	0.0745	490692	keystroke	n	n/a
245.526	0.075	491052	keystroke	j	n/a
245.676	0.135	491352	keystroke	o	n/a
245.795	0.0605	491590	keystroke	y	n/a
245.991	0.0895	491982	keystroke	i	n/a
246.0355	0.09	492071	keystroke	n	n/a
246.1105	0.045	492221	keystroke	g	n/a
246.905	0.0605	493810	keystroke	Key.enter	n/a
246.972	4.855	493944	prompt	n/a	feet meaning ebay mission\n
247.67	0.075	495340	keystroke	f	n/a
247.8055	0.0595	495611	keystroke	e	n/a
247.955	0.105	495910	keystroke	e	n/a
248.0905	0.0745	496181	keystroke	t	n/a
248.1805	0.09	496361	keystroke	Key.space	n/a
248.3155	0.105	496631	keystroke	m	n/a
248.4055	0.0605	496811	keystroke	e	n/a
248.646	0.0595	497292	keystroke	a	n/a
248.7655	0.09	497531	keystroke	n	n/a
248.945	0.076	497890	keystroke	i	n/a
248.9905	0.075	497981	keystroke	n	n/a
249.051	0.0595	498102	keystroke	g	n/a
249.1705	0.0595	498341	keystroke	Key.space	n/a
249.7705	0.075	499541	keystroke	e	n/a
249.861	0.0595	499722	keystroke	b	n/a
249.9655	0.0755	499931	keystroke	a	n/a
250.0855	0.09	500171	keystroke	y	n/a
250.2045	0.076	500409	keystroke	Key.space	n/a
250.715	0.105	501430	keystroke	m	n/a
250.85	0.09	501700	keystroke	i	n/a
250.97	0.0605	501940	keystroke	s	n/a
251.1205	0.075	502241	keystroke	s	n/a
251.18	0.225	502360	keystroke	i	n/a
251.2405	0.135	502481	keystroke	o	n/a
251.3	0.12	502600	keystroke	n	n/a
251.78	0.0455	503560	keystroke	Key.enter	n/a
251.832	10.375	503664	prompt	n/a	privileges unit armstrong foul\n
252.6355	0.03	505271	keystroke	o	n/a
252.6805	0.075	505361	keystroke	r	n/a
253.145	0.0605	506290	keystroke	Key.backspace	n/a
253.2955	0.045	506591	keystroke	Key.backspace	n/a
254.0155	0.09	508031	keystroke	p	n/a
254.1355	0.075	508271	keystroke	r	n/a
254.2705	0.075	508541	keystroke	i	n/a
254.3905	0.06	508781	keystroke	v	n/a
254.496	0.09	508992	keystroke	i	n/a
255.17	0.105	510340	keystroke	l	n/a
255.395	0.046	510790	keystroke	e	n/a
255.53	0.091	511060	keystroke	g	n/a
255.606	0.149	511212	keystroke	e	n/a
255.725	0.105	511450	keystroke	s	n/a
255.845	0.061	511690	keystroke	Key.space	n/a
256.6405	0.075	513281	keystroke	u	n/a
256.8365	0.089	513673	keystroke	n	n/a
256.9105	0.105	513821	keystroke	i	n/a
257.0005	0.06	514001	keystroke	t	n/a
257.0905	0.059	514181	keystroke	Key.space	n/a
257.211	0.104	514422	keystroke	a	n/a
257.3	0.075	514600	keystroke	r	n/a
257.39	0.0905	514780	keystroke	m	n/a
257.526	0.074	515052	keystroke	s	n/a
257.63	0.06	515260	keystroke	t	n/a
257.78	0.061	515560	keystroke	r	n/a
257.81	0.135	515620	keystroke	o	n/a
257.885	0.09	515770	keystroke	n	n/a
257.99	0.045	515980	keystroke	Key.space	n/a
258.051	0.044	516102	keystroke	g	n/a
258.4705	0.0445	516941	keystroke	Key.backspace	n/a
258.59	0.09	517180	keystroke	Key.backspace	n/a
258.6955	0.06	517391	keystroke	g	n/a
258.7855	0.075	517571	keystroke	Key.space	n/a
261.0675	0.0005	522135	keystroke	f	n/a
261.155	0.1355	522310	keystroke	o	n/a
261.246	0.1045	522492	keystroke	u	n/a
261.5605	0.0895	523121	keystroke	l	n/a
262.16	0.0455	524320	keystroke	Key.enter	n/a
262.2145	7.764	524429	prompt	n/a	elderly char belief prices\n
262.925	0.075	525850	keystroke	e	n/a
263.091	0.0895	526182	keystroke	l	n/a
263.21	0.046	526420	keystroke	d	n/a
263.375	0.105	526750	keystroke	e	n/a
263.465	0.06	526930	keystroke	r	n/a
263.675	0.0605	527350	keystroke	l	n/a
263.915	0.045	527830	keystroke	y	n/a
264.0505	0.06	528101	keystroke	Key.space	n/a
264.876	0.075	529752	keystroke	c	n/a
264.981	0.119	529962	keystroke	h	n/a
265.055	0.0905	530110	keystroke	a	n/a
265.116	0.075	530232	keystroke	r	n/a
265.2505	0.045	530501	keystroke	Key.space	n/a
265.5055	0.09	531011	keystroke	b	n/a
265.6105	0.045	531221	keystroke	e	n/a
265.7295	0.076	531459	keystroke	l	n/a
265.8505	0.105	531701	keystroke	i	n/a
266.0005	0.09	532001	keystroke	e	n/a
266.0755	0.0755	532151	keystroke	f	n/a
266.6455	0.0745	533291	keystroke	Key.space	n/a
267.006	0.075	534012	keystroke	o	n/a
267.126	0.074	534252	keystroke	r	n/a
267.322	0.044	534644	keystroke	i	n/a
267.56	0.0455	535120	keystroke	Key.backspace	n/a
267.6805	0.06	535361	keystroke	Key.backspace	n/a
267.8155	0.09	535631	keystroke	Key.backspace	n/a
267.9955	0.075	535991	keystroke	p	n/a
268.1005	0.06	536201	keystroke	r	n/a
268.2205	0.075	536441	keystroke	i	n/a
268.2355	0.015	536471	keystroke	u	n/a
268.2805	0.09	536561	keystroke	c	n/a
268.3555	0.105	536711	keystroke	e	n/a
268.4155	0.12	536831	keystroke	s	n/a
268.701	0.045	537402	keystroke	Key.backspace	n/a
268.836	0.06	537672	keystroke	Key.backspace	n/a
268.9555	0.075	537911	keystroke	Key.backspace	n/a
269.105	0.09	538210	keystroke	Key.backspace	n/a
269.181	0.1195	538362	keystroke	c	n/a
269.241	0.105	538482	keystroke	e	n/a
269.285	0.135	538570	keystroke	s	n/a
269.915	0.0605	539830	keystroke	Key.enter	n/a
269.9825	6.2345	539965	prompt	n/a	trader uses magical brochures\n
270.726	0.0595	541452	keystroke	t	n/a
270.8455	0.06	541691	keystroke	r	n/a
270.8905	0.1205	541781	keystroke	a	n/a
271.0245	0.0615	542049	keystroke	d	n/a
271.2055	0.09	542411	keystroke	e	n/a
271.2805	0.075	542561	keystroke	r	n/a
271.3855	0.075	542771	keystroke	Key.space	n/a
271.626	0.0745	543252	keystroke	u	n/a
271.7015	0.0595	543403	keystroke	s	n/a
271.7155	0.105	543431	keystroke	e	n/a
271.8955	0.09	543791	keystroke	s	n/a
272.0155	0.045	544031	keystroke	Key.space	n/a
272.405	0.0905	544810	keystroke	m	n/a
272.451	0.09	544902	keystroke	a	n/a
272.6005	0.075	545201	keystroke	g	n/a
272.8705	0.09	545741	keystroke	i	n/a
273.0955	0.12	546191	keystroke	c	n/a
273.2005	0.1055	546401	keystroke	a	n/a
273.2905	0.09	546581	keystroke	l	n/a
273.5005	0.0445	547001	keystroke	Key.space	n/a
274.1755	0.09	548351	keystroke	b	n/a
274.28	0.0605	548560	keystroke	r	n/a
274.43	0.076	548860	keystroke	o	n/a
274.5505	0.06	549101	keystroke	c	n/a
274.6705	0.045	549341	keystroke	u	n/a
274.9705	0.06	549941	keystroke	Key.backspace	n/a
275.1505	0.12	550301	keystroke	h	n/a
275.2405	0.12	550481	keystroke	u	n/a
275.3455	0.135	550691	keystroke	r	n/a
275.4055	0.18	550811	keystroke	e	n/a
275.5255	0.12	551051	keystroke	s	n/a
276.1405	0.075	552281	keystroke	Key.enter	n/a
276.222	9.4755	552444	prompt	n/a	sbjct decisions benchmark soundtrack\n
277.0855	0.0755	554171	keystroke	s	n/a
277.386	0.1045	554772	keystroke	b	n/a
277.6105	0.09	555221	keystroke	j	n/a
277.7905	0.0745	555581	keystroke	c	n/a
278.0455	0.045	556091	keystroke	t	n/a
278.165	0.075	556330	keystroke	Key.space	n/a
278.976	0.074	557952	keystroke	d	n/a
279.1405	0.0745	558281	keystroke	e	n/a
279.29	0.076	558580	keystroke	c	n/a
279.396	0.074	558792	keystroke	i	n/a
279.546	0.059	559092	keystroke	s	n/a
279.6355	0.2095	559271	keystroke	i	n/a
279.681	0.135	559362	keystroke	o	n/a
279.711	0.15	559422	keystroke	n	n/a
279.831	0.09	559662	keystroke	s	n/a
279.9655	0.0745	559931	keystroke	Key.space	n/a
280.895	0.075	561790	keystroke	b	n/a
280.985	0.061	561970	keystroke	e	n/a
281.0755	0.0755	562151	keystroke	n	n/a
281.2255	0.0605	562451	keystroke	c	n/a
281.435	0.076	562870	keystroke	h	n/a
281.646	0.09	563292	keystroke	m	n/a
281.751	0.09	563502	keystroke	a	n/a
281.826	0.075	563652	keystroke	r	n/a
281.916	0.075	563832	keystroke	k	n/a
282.05	0.06	564100	keystroke	Key.space	n/a
282.696	0.09	565392	keystroke	s	n/a
282.831	0.134	565662	keystroke	o	n/a
282.921	0.075	565842	keystroke	u	n/a
283.071	0.105	566142	keystroke	n	n/a
283.161	0.09	566322	keystroke	d	n/a
283.296	0.119	566592	keystroke	t	n/a
283.506	0.104	567012	keystroke	r	n/a
283.655	0.15	567310	keystroke	a	n/a
283.775	0.106	567550	keystroke	c	n/a
283.865	0.091	567730	keystroke	k	n/a
285.6355	0.06	571271	keystroke	Key.enter	n/a
285.702	6.2055	571404	prompt	n/a	land arrivals bodies basics\n
286.3855	0.09	572771	keystroke	l	n/a
286.491	0.1045	572982	keystroke	a	n/a
286.6105	0.0895	573221	keystroke	n	n/a
286.715	0.0605	573430	keystroke	d	n/a
286.7905	0.075	573581	keystroke	Key.space	n/a
286.9255	0.09	573851	keystroke	a	n/a
287.0455	0.09	574091	keystroke	r	n/a
287.2105	0.09	574421	keystroke	r	n/a
287.3905	0.105	574781	keystroke	i	n/a
287.481	0.0745	574962	keystroke	v	n/a
287.5255	0.075	575051	keystroke	a	n/a
287.6455	0.09	575291	keystroke	l	n/a
287.7805	0.0605	575561	keystroke	s	n/a
287.9305	0.045	575861	keystroke	Key.space	n/a
288.8145	0.016	577629	keystroke	b	n/a
288.8905	0.09	577781	keystroke	o	n/a
288.9655	0.075	577931	keystroke	d	n/a
289.0855	0.075	578171	keystroke	i	n/a
289.1455	0.1355	578291	keystroke	e	n/a
289.22	0.136	578440	keystroke	s	n/a
289.3405	0.06	578681	keystroke	Key.space	n/a
290.03	0.0755	580060	keystroke	b	n/a
290.12	0.0755	580240	keystroke	a	n/a
290.1655	0.1355	580331	keystroke	s	n/a
290.286	0.075	580572	keystroke	i	n/a
290.375	0.0755	580750	keystroke	c	n/a
290.961	0.059	581922	keystroke	s	n/a
291.8455	0.059	583691	keystroke	Key.enter	n/a
291.9105	7.7065	583821	prompt	n/a	sunglasses singh congressional heavy\n
292.5655	0.06	585131	keystroke	s	n/a
292.6855	0.06	585371	keystroke	u	n/a
292.85	0.1055	585700	keystroke	n	n/a
292.9395	0.076	585879	keystroke	g	n/a
293.0895	0.091	586179	keystroke	l	n/a
293.166	0.09	586332	keystroke	a	n/a
293.3455	0.045	586691	keystroke	s	n/a
293.4655	0.09	586931	keystroke	s	n/a
293.645	0.09	587290	keystroke	e	n/a
293.7505	0.105	587501	keystroke	s	n/a
294.3655	0.0445	588731	keystroke	Key.space	n/a
294.636	0.0735	589272	keystroke	s	n/a
294.7405	0.12	589481	keystroke	i	n/a
294.7995	0.106	589599	keystroke	n	n/a
294.9495	0.061	589899	keystroke	g	n/a
295.0555	0.075	590111	keystroke	h	n/a
295.2205	0.059	590441	keystroke	Key.space	n/a
296.165	0.0905	592330	keystroke	c	n/a
296.3155	0.1655	592631	keystroke	o	n/a
296.3905	0.12	592781	keystroke	n	n/a
296.495	0.061	592990	keystroke	g	n/a
296.66	0.0905	593320	keystroke	r	n/a
296.7205	0.105	593441	keystroke	e	n/a
296.9305	0.075	593861	keystroke	s	n/a
297.0655	0.105	594131	keystroke	s	n/a
297.1405	0.24	594281	keystroke	i	n/a
297.231	0.1645	594462	keystroke	o	n/a
297.2905	0.12	594581	keystroke	n	n/a
297.4255	0.06	594851	keystroke	a	n/a
297.5155	0.105	595031	keystroke	l	n/a
297.7245	0.061	595449	keystroke	Key.space	n/a
298.625	0.0755	597250	keystroke	h	n/a
298.685	0.1055	597370	keystroke	e	n/a
298.7605	0.12	597521	keystroke	a	n/a
298.881	0.0745	597762	keystroke	v	n/a
298.9705	0.075	597941	keystroke	y	n/a
299.5545	0.0605	599109	keystroke	Key.enter	n/a
299.6215	8.0955	599243	prompt	n/a	editor rochester where technological\n
300.276	0.059	600552	keystroke	e	n/a
300.41	0.0755	600820	keystroke	d	n/a
300.515	0.076	601030	keystroke	i	n/a
300.6355	0.0445	601271	keystroke	t	n/a
300.6955	0.0755	601391	keystroke	o	n/a
300.786	0.059	601572	keystroke	r	n/a
300.9055	0.045	601811	keystroke	Key.space	n/a
301.61	0.075	603220	keystroke	r	n/a
301.715	0.06	603430	keystroke	o	n/a
301.82	0.1205	603640	keystroke	c	n/a
301.9255	0.0745	603851	keystroke	h	n/a
301.971	0.134	603942	keystroke	e	n/a
302.091	0.1045	604182	keystroke	s	n/a
302.211	0.0745	604422	keystroke	t	n/a
302.2995	0.151	604599	keystroke	e	n/a
302.3745	0.0915	604749	keystroke	r	n/a
302.4955	0.0445	604991	keystroke	Key.space	n/a
303.2605	0.06	606521	keystroke	w	n/a
303.3655	0.0755	606731	keystroke	h	n/a
303.456	0.0585	606912	keystroke	e	n/a
303.546	0.1045	607092	keystroke	r	n/a
303.6055	0.09	607211	keystroke	e	n/a
303.7255	0.045	607451	keystroke	Key.space	n/a
304.461	0.0745	608922	keystroke	t	n/a
304.5505	0.1045	609101	keystroke	e	n/a
304.73	0.09	609460	keystroke	c	n/a
304.9105	0.06	609821	keystroke	h	n/a
305.2255	0.075	610451	keystroke	n	n/a
305.331	0.0745	610662	keystroke	o	n/a
305.8855	0.0605	611771	keystroke	l	n/a
306.0355	0.09	612071	keystroke	o	n/a
306.1405	0.075	612281	keystroke	g	n/a
306.3505	0.0895	612701	keystroke	i	n/a
306.4555	0.0905	612911	keystroke	c	n/a
306.531	0.0885	613062	keystroke	a	n/a
306.65	0.0905	613300	keystroke	l	n/a
307.6405	0.075	615281	keystroke	Key.enter	n/a
307.722	7.24	615444	prompt	n/a	brunswick renaissance fees barry\n
308.4955	0.09	616991	keystroke	b	n/a
308.7055	0.06	617411	keystroke	r	n/a
308.8855	0.1345	617771	keystroke	u	n/a
308.9455	0.1055	617891	keystroke	n	n/a
309.066	0.06	618132	keystroke	s	n/a
309.2455	0.075	618491	keystroke	w	n/a
309.3505	0.0895	618701	keystroke	i	n/a
309.471	0.075	618942	keystroke	c	n/a
309.591	0.0745	619182	keystroke	k	n/a
309.875	0.0755	619750	keystroke	Key.space	n/a
310.775	0.12	621550	keystroke	r	n/a
310.865	0.09	621730	keystroke	e	n/a
310.94	0.09	621880	keystroke	n	n/a
311.151	0.0745	622302	keystroke	a	n/a
311.315	0.0605	622630	keystroke	i	n/a
311.4805	0.0595	622961	keystroke	s	n/a
311.9755	0.0605	623951	keystroke	s	n/a
312.215	0.075	624430	keystroke	a	n/a
312.35	0.0905	624700	keystroke	n	n/a
312.455	0.106	624910	keystroke	c	n/a
312.53	0.1055	625060	keystroke	e	n/a
312.6055	0.0445	625211	keystroke	Key.space	n/a
313.2955	0.09	626591	keystroke	f	n/a
313.4155	0.09	626831	keystroke	e	n/a
313.566	0.1045	627132	keystroke	e	n/a
313.7005	0.1355	627401	keystroke	s	n/a
313.8505	0.06	627701	keystroke	Key.space	n/a
314.2105	0.0755	628421	keystroke	b	n/a
314.2705	0.06	628541	keystroke	a	n/a
314.3455	0.06	628691	keystroke	r	n/a
314.466	0.0745	628932	keystroke	r	n/a
314.556	0.089	629112	keystroke	y	n/a
314.9	0.06	629800	keystroke	Key.enter	n/a
314.9665	7.9455	629933	prompt	n/a	groove observe hope joyce\n
315.575	0.12	631150	keystroke	g	n/a
315.8	0.06	631600	keystroke	r	n/a
316.056	0.06	632112	keystroke	o	n/a
316.19	0.076	632380	keystroke	o	n/a
316.236	0.0895	632472	keystroke	v	n/a
316.31	0.105	632620	keystroke	e	n/a
316.43	0.0605	632860	keystroke	Key.space	n/a
317.091	0.0895	634182	keystroke	b	n/a
317.4955	0.075	634991	keystroke	Key.backspace	n/a
317.706	0.1045	635412	keystroke	o	n/a
317.7955	0.0905	635591	keystroke	b	n/a
317.886	0.1195	635772	keystroke	s	n/a
317.96	0.105	635920	keystroke	e	n/a
318.2005	0.105	636401	keystroke	v	n/a
318.6505	0.06	637301	keystroke	Key.backspace	n/a
318.696	0.045	637392	keystroke	r	n/a
318.8905	0.0445	637781	keystroke	v	n/a
318.9955	0.1195	637991	keystroke	e	n/a
319.0855	0.06	638171	keystroke	r	n/a
319.205	0.06	638410	keystroke	Key.space	n/a
319.7005	0.075	639401	keystroke	Key.backspace	n/a
319.8355	0.0745	639671	keystroke	Key.backspace	n/a
319.955	0.075	639910	keystroke	Key.space	n/a
320.766	0.074	641532	keystroke	h	n/a
320.9305	0.0745	641861	keystroke	o	n/a
321.0955	0.075	642191	keystroke	p	n/a
321.185	0.0605	642370	keystroke	e	n/a
321.2905	0.06	642581	keystroke	Key.space	n/a
321.6505	0.0745	643301	keystroke	j	n/a
321.8905	0.105	643781	keystroke	o	n/a
322.0555	0.06	644111	keystroke	y	n/a
322.3255	0.105	644651	keystroke	c	n/a
322.4155	0.09	644831	keystroke	e	n/a
322.8655	0.045	645731	keystroke	Key.enter	n/a
322.916	8.232	645832	prompt	n/a	dosage aggressive realty escape\n
323.631	0.075	647262	keystroke	d	n/a
323.766	0.0595	647532	keystroke	o	n/a
323.8555	0.075	647711	keystroke	s	n/a
323.9755	0.135	647951	keystroke	a	n/a
324.1255	0.0895	648251	keystroke	g	n/a
324.1855	0.105	648371	keystroke	e	n/a
324.3205	0.045	648641	keystroke	Key.space	n/a
325.0255	0.1355	650051	keystroke	a	n/a
325.25	0.046	650500	keystroke	g	n/a
325.3855	0.06	650771	keystroke	f	n/a
325.9855	0.045	651971	keystroke	Key.backspace	n/a
326.1055	0.0755	652211	keystroke	g	n/a
326.271	0.1345	652542	keystroke	r	n/a
326.361	0.105	652722	keystroke	e	n/a
326.4205	0.1355	652841	keystroke	s	n/a
326.8705	0.1055	653741	keystroke	s	n/a
327.051	0.06	654102	keystroke	i	n/a
327.126	0.089	654252	keystroke	v	n/a
327.2	0.105	654400	keystroke	e	n/a
327.32	0.0605	654640	keystroke	Key.space	n/a
328.19	0.0605	656380	keystroke	a	n/a
328.6255	0.0295	657251	keystroke	Key.backspace	n/a
328.776	0.105	657552	keystroke	r	n/a
328.85	0.075	657700	keystroke	e	n/a
328.881	0.1055	657762	keystroke	a	n/a
328.971	0.105	657942	keystroke	l	n/a
329.121	0.044	658242	keystroke	t	n/a
329.256	0.059	658512	keystroke	y	n/a
329.5855	0.0595	659171	keystroke	Key.space	n/a
330.1405	0.06	660281	keystroke	e	n/a
330.2455	0.1055	660491	keystroke	s	n/a
330.411	0.1195	660822	keystroke	c	n/a
330.5155	0.075	661031	keystroke	a	n/a
330.6055	0.09	661211	keystroke	p	n/a
330.7255	0.0605	661451	keystroke	e	n/a
331.0855	0.0595	662171	keystroke	Key.enter	n/a
331.152	6.9855	662304	prompt	n/a	easter rural mixed morning\n
331.775	0.091	663550	keystroke	e	n/a
332.3605	0.0755	664721	keystroke	a	n/a
332.4205	0.1505	664841	keystroke	s	n/a
332.5555	0.06	665111	keystroke	t	n/a
332.6305	0.135	665261	keystroke	e	n/a
332.7215	0.134	665443	keystroke	r	n/a
332.8255	0.045	665651	keystroke	Key.space	n/a
333.696	0.0445	667392	keystroke	r	n/a
333.8155	0.06	667631	keystroke	u	n/a
333.8605	0.0605	667721	keystroke	r	n/a
333.9655	0.091	667931	keystroke	a	n/a
334.041	0.09	668082	keystroke	l	n/a
334.2055	0.0745	668411	keystroke	Key.space	n/a
334.941	0.105	669882	keystroke	m	n/a
335.105	0.076	670210	keystroke	i	n/a
335.1655	0.0595	670331	keystroke	x	n/a
335.24	0.016	670480	keystroke	d	n/a
335.271	0.029	670542	keystroke	e	n/a
335.42	0.03	670840	keystroke	d	n/a
335.841	0.059	671682	keystroke	Key.backspace	n/a
335.96	0.075	671920	keystroke	Key.backspace	n/a
336.11	0.075	672220	keystroke	Key.backspace	n/a
336.155	0.0605	672310	keystroke	e	n/a
336.2905	0.0755	672581	keystroke	d	n/a
336.3805	0.06	672761	keystroke	Key.space	n/a
337.0855	0.075	674171	keystroke	m	n/a
337.1905	0.12	674381	keystroke	o	n/a
337.2955	0.0745	674591	keystroke	r	n/a
337.4305	0.075	674861	keystroke	n	n/a
337.5355	0.15	675071	keystroke	i	n/a
337.6105	0.09	675221	keystroke	n	n/a
337.6855	0.045	675371	keystroke	g	n/a
338.0905	0.045	676181	keystroke	Key.enter	n/a
338.1425	5.2145	676285	prompt	n/a	laos yearly random mails\n
338.7055	0.12	677411	keystroke	l	n/a
338.8405	0.06	677681	keystroke	a	n/a
338.976	0.0745	677952	keystroke	o	n/a
339.0655	0.0755	678131	keystroke	s	n/a
339.1705	0.06	678341	keystroke	Key.space	n/a
339.8155	0.075	679631	keystroke	y	n/a
339.9055	0.12	679811	keystroke	e	n/a
339.981	0.1045	679962	keystroke	a	n/a
340.0555	0.06	680111	keystroke	r	n/a
340.1305	0.06	680261	keystroke	l	n/a
340.2955	0.0445	680591	keystroke	y	n/a
340.4305	0.0445	680861	keystroke	Key.space	n/a
341.06	0.076	682120	keystroke	r	n/a
341.15	0.09	682300	keystroke	a	n/a
341.211	0.0745	682422	keystroke	n	n/a
341.33	0.06	682660	keystroke	d	n/a
341.435	0.0755	682870	keystroke	o	n/a
341.496	0.105	682992	keystroke	m	n/a
341.63	0.06	683260	keystroke	Key.space	n/a
342.4555	0.12	684911	keystroke	m	n/a
342.6205	0.0755	685241	keystroke	a	n/a
342.711	0.1045	685422	keystroke	i	n/a
342.8455	0.09	685691	keystroke	l	n/a
342.921	0.0595	685842	keystroke	s	n/a
343.3255	0.03	686651	keystroke	Key.enter	n/a
343.3645	7.0875	686729	prompt	n/a	brick georgia direction artists\n
343.971	0.0595	687942	keystroke	b	n/a
344.046	0.044	688092	keystroke	r	n/a
344.136	0.06	688272	keystroke	i	n/a
344.241	0.06	688482	keystroke	c	n/a
344.2855	0.06	688571	keystroke	k	n/a
344.3905	0.0755	688781	keystroke	Key.space	n/a
345.021	0.074	690042	keystroke	g	n/a
345.155	0.075	690310	keystroke	e	n/a
345.336	0.0595	690672	keystroke	o	n/a
345.411	0.074	690822	keystroke	r	n/a
345.591	0.0745	691182	keystroke	g	n/a
345.681	0.0445	691362	keystroke	e	n/a
346.055	0.075	692110	keystroke	Key.backspace	n/a
346.25	0.061	692500	keystroke	i	n/a
346.311	0.075	692622	keystroke	a	n/a
346.445	0.0755	692890	keystroke	Key.space	n/a
347.2555	0.0905	694511	keystroke	d	n/a
347.4055	0.0605	694811	keystroke	i	n/a
347.4805	0.09	694961	keystroke	r	n/a
347.5405	0.18	695081	keystroke	e	n/a
347.675	0.0755	695350	keystroke	c	n/a
347.8555	0.06	695711	keystroke	t	n/a
347.9315	0.15	695863	keystroke	i	n/a
347.9755	0.0905	695951	keystroke	o	n/a
348.021	0.1045	696042	keystroke	n	n/a
348.1105	0.075	696221	keystroke	Key.space	n/a
348.86	0.075	697720	keystroke	a	n/a
348.98	0.076	697960	keystroke	r	n/a
349.161	0.059	698322	keystroke	t	n/a
349.266	0.075	698532	keystroke	i	n/a
349.371	0.1645	698742	keystroke	s	n/a
349.4305	0.075	698861	keystroke	t	n/a
349.8955	0.045	699791	keystroke	s	n/a
350.4055	0.045	700811	keystroke	Key.enter	n/a
350.456	16.9315	700912	prompt	n/a	i'll designer findings filing\n
351.695	0.0755	703390	keystroke	i	n/a
352.1755	0.0605	704351	keystroke	'	n/a
353.1205	0.075	706241	keystroke	l	n/a
353.2405	0.075	706481	keystroke	l	n/a
353.571	0.0745	707142	keystroke	Key.space	n/a
354.65	0.046	709300	keystroke	d	n/a
354.77	0.121	709540	keystroke	e	n/a
354.845	0.121	709690	keystroke	s	n/a
354.981	0.075	709962	keystroke	i	n/a
355.1	0.0605	710200	keystroke	g	n/a
355.1755	0.075	710351	keystroke	n	n/a
355.2655	0.1055	710531	keystroke	e	n/a
355.325	0.0905	710650	keystroke	r	n/a
355.4	0.0455	710800	keystroke	Key.space	n/a
356.345	0.075	712690	keystroke	f	n/a
356.435	0.09	712870	keystroke	i	n/a
356.48	0.105	712960	keystroke	n	n/a
356.57	0.075	713140	keystroke	d	n/a
356.66	0.136	713320	keystroke	i	n/a
356.7355	0.075	713471	keystroke	n	n/a
356.826	0.0595	713652	keystroke	g	n/a
356.9305	0.105	713861	keystroke	s	n/a
357.0655	0.075	714131	keystroke	Key.space	n/a
357.876	0.0595	715752	keystroke	f	n/a
357.9805	0.06	715961	keystroke	i	n/a
358.145	0.091	716290	keystroke	l	n/a
358.401	0.075	716802	keystroke	i	n/a
358.5505	0.15	717101	keystroke	n	n/a
358.5655	0.06	717131	keystroke	i	n/a
358.6855	0.06	717371	keystroke	g	n/a
359.1505	0.046	718301	keystroke	Key.backspace	n/a
359.2405	0.06	718481	keystroke	Key.backspace	n/a
359.4205	0.045	718841	keystroke	g	n/a
359.6905	0.045	719381	keystroke	Key.space	n/a
360.425	0.06	720850	keystroke	Key.backspace	n/a
367.373	0.013	734746	keystroke	Key.enter	n/a
367.3925	8.2	734785	prompt	n/a	add voyeurweb worse creator\n
368.0905	0.09	736181	keystroke	a	n/a
368.241	0.0595	736482	keystroke	d	n/a
368.406	0.0595	736812	keystroke	d	n/a
368.4955	0.1055	736991	keystroke	Key.space	n/a
368.8105	0.076	737621	keystroke	v	n/a
368.961	0.075	737922	keystroke	o	n/a
370.131	0.075	740262	keystroke	y	n/a
370.2065	0.12	740413	keystroke	e	n/a
370.3105	0.0605	740621	keystroke	r	n/a
370.9405	0.0305	741881	keystroke	Key.backspace	n/a
371.0615	0.075	742123	keystroke	u	n/a
371.1365	0.06	742273	keystroke	r	n/a
371.406	0.105	742812	keystroke	w	n/a
371.4815	0.074	742963	keystroke	e	n/a
371.6315	0.059	743263	keystroke	b	n/a
371.8555	0.075	743711	keystroke	Key.space	n/a
373.2815	0.1195	746563	keystroke	w	n/a
373.431	0.09	746862	keystroke	o	n/a
373.536	0.09	747072	keystroke	r	n/a
373.596	0.15	747192	keystroke	s	n/a
373.686	0.12	747372	keystroke	e	n/a
373.791	0.06	747582	keystroke	Key.space	n/a
374.496	0.0905	748992	keystroke	c	n/a
374.7215	0.135	749443	keystroke	r	n/a
374.7805	0.12	749561	keystroke	e	n/a
374.8865	0.09	749773	keystroke	a	n/a
374.9605	0.0755	749921	keystroke	t	n/a
375.0665	0.075	750133	keystroke	o	n/a
375.1565	0.06	750313	keystroke	r	n/a
375.5455	0.045	751091	keystroke	Key.enter	n/a
375.598	6.3395	751196	prompt	n/a	gasoline manor bids registrar\n
376.1915	0.0895	752383	keystroke	g	n/a
376.296	0.09	752592	keystroke	a	n/a
376.446	0.09	752892	keystroke	s	n/a
376.821	0.06	753642	keystroke	o	n/a
377.001	0.06	754002	keystroke	l	n/a
377.241	0.15	754482	keystroke	i	n/a
377.331	0.135	754662	keystroke	n	n/a
377.421	0.09	754842	keystroke	e	n/a
377.571	0.059	755142	keystroke	Key.space	n/a
378.396	0.045	756792	keystroke	m	n/a
378.4565	0.0595	756913	keystroke	a	n/a
378.5615	0.0745	757123	keystroke	n	n/a
378.666	0.0895	757332	keystroke	o	n/a
378.7415	0.0895	757483	keystroke	r	n/a
378.86	0.076	757720	keystroke	Key.space	n/a
379.386	0.09	758772	keystroke	b	n/a
379.5355	0.121	759071	keystroke	i	n/a
379.6415	0.135	759283	keystroke	d	n/a
379.7155	0.1355	759431	keystroke	s	n/a
379.866	0.06	759732	keystroke	Key.space	n/a
380.421	0.105	760842	keystroke	r	n/a
380.481	0.1195	760962	keystroke	e	n/a
380.7205	0.046	761441	keystroke	g	n/a
380.796	0.075	761592	keystroke	i	n/a
380.9005	0.09	761801	keystroke	s	n/a
380.976	0.045	761952	keystroke	t	n/a
381.111	0.1355	762222	keystroke	r	n/a
381.231	0.1045	762462	keystroke	a	n/a
381.3205	0.06	762641	keystroke	r	n/a
381.8605	0.0755	763721	keystroke	Key.enter	n/a
381.9405	7.4525	763881	prompt	n/a	infant river raid infections\n
382.5665	0.0895	765133	keystroke	i	n/a
382.6115	0.089	765223	keystroke	n	n/a
382.6855	0.076	765371	keystroke	f	n/a
382.7915	0.089	765583	keystroke	a	n/a
382.8655	0.09	765731	keystroke	n	n/a
383.001	0.06	766002	keystroke	t	n/a
383.076	0.0745	766152	keystroke	Key.space	n/a
383.3305	0.0755	766661	keystroke	r	n/a
383.436	0.06	766872	keystroke	i	n/a
383.526	0.045	767052	keystroke	v	n/a
383.586	0.03	767172	keystroke	c	n/a
383.601	0.15	767202	keystroke	e	n/a
383.721	0.075	767442	keystroke	r	n/a
383.796	0.06	767592	keystroke	Key.space	n/a
383.916	0.06	767832	keystroke	r	n/a
383.9315	0.0145	767863	keystroke	e	n/a
383.9915	0.0895	767983	keystroke	a	n/a
384.081	0.075	768162	keystroke	i	n/a
384.171	0.075	768342	keystroke	d	n/a
384.4705	0.045	768941	keystroke	Key.backspace	n/a
384.576	0.0605	769152	keystroke	Key.backspace	n/a
384.7105	0.0455	769421	keystroke	Key.backspace	n/a
384.8305	0.061	769661	keystroke	Key.backspace	n/a
384.9505	0.061	769901	keystroke	Key.backspace	n/a
385.0855	0.06	770171	keystroke	Key.backspace	n/a
385.2205	0.061	770441	keystroke	Key.backspace	n/a
385.356	0.09	770712	keystroke	Key.backspace	n/a
385.851	0.015	771702	keystroke	Key.backspace	n/a
385.881	0.135	771762	keystroke	e	n/a
386.001	0.0605	772002	keystroke	r	n/a
386.076	0.06	772152	keystroke	Key.space	n/a
386.391	0.09	772782	keystroke	r	n/a
386.466	0.0745	772932	keystroke	a	n/a
386.556	0.0745	773112	keystroke	i	n/a
386.6455	0.075	773291	keystroke	d	n/a
386.766	0.06	773532	keystroke	Key.space	n/a
387.5015	0.075	775003	keystroke	i	n/a
387.546	0.09	775092	keystroke	n	n/a
387.621	0.12	775242	keystroke	f	n/a
387.711	0.165	775422	keystroke	e	n/a
387.861	0.075	775722	keystroke	c	n/a
388.0405	0.045	776081	keystroke	t	n/a
388.1005	0.181	776201	keystroke	i	n/a
388.161	0.1345	776322	keystroke	o	n/a
388.2065	0.09	776413	keystroke	n	n/a
388.3115	0.074	776623	keystroke	s	n/a
389.3155	0.075	778631	keystroke	Key.enter	n/a
389.398	8.0795	778796	prompt	n/a	travelers reaching pension boats\n
390.1265	0.044	780253	keystroke	t	n/a
390.2755	0.075	780551	keystroke	r	n/a
390.3365	0.09	780673	keystroke	a	n/a
390.4865	0.1045	780973	keystroke	v	n/a
390.7715	0.0595	781543	keystroke	l	n/a
391.146	0.06	782292	keystroke	Key.backspace	n/a
391.386	0.06	782772	keystroke	e	n/a
391.491	0.0755	782982	keystroke	l	n/a
391.596	0.12	783192	keystroke	e	n/a
391.671	0.135	783342	keystroke	r	n/a
391.806	0.15	783612	keystroke	s	n/a
392.0605	0.075	784121	keystroke	Key.space	n/a
392.7215	0.075	785443	keystroke	r	n/a
392.8105	0.121	785621	keystroke	a	n/a
392.9465	0.1195	785893	keystroke	e	n/a
393.3355	0.0605	786671	keystroke	Key.backspace	n/a
393.456	0.0745	786912	keystroke	Key.backspace	n/a
393.5015	0.0895	787003	keystroke	e	n/a
393.5765	0.12	787153	keystroke	a	n/a
393.6665	0.0895	787333	keystroke	c	n/a
393.7415	0.059	787483	keystroke	h	n/a
393.846	0.12	787692	keystroke	i	n/a
393.9215	0.089	787843	keystroke	n	n/a
393.9965	0.0445	787993	keystroke	g	n/a
394.1005	0.06	788201	keystroke	Key.space	n/a
394.956	0.0605	789912	keystroke	p	n/a
395.061	0.0605	790122	keystroke	e	n/a
395.151	0.0755	790302	keystroke	n	n/a
395.256	0.075	790512	keystroke	s	n/a
395.3615	0.2545	790723	keystroke	i	n/a
395.4515	0.1345	790903	keystroke	o	n/a
395.526	0.1205	791052	keystroke	n	n/a
395.661	0.075	791322	keystroke	Key.space	n/a
396.411	0.06	792822	keystroke	b	n/a
396.636	0.015	793272	keystroke	o	n/a
396.681	0.12	793362	keystroke	a	n/a
396.8315	0.1345	793663	keystroke	t	n/a
396.921	0.12	793842	keystroke	s	n/a
397.401	0.075	794802	keystroke	Key.enter	n/a
397.4815	8.201	794963	prompt	n/a	offering rabbit tournaments capable\n
398.1955	0.0605	796391	keystroke	o	n/a
398.271	0.0455	796542	keystroke	f	n/a
398.406	0.0605	796812	keystroke	f	n/a
398.511	0.1195	797022	keystroke	e	n/a
398.601	0.0605	797202	keystroke	r	n/a
398.6755	0.12	797351	keystroke	i	n/a
398.7515	0.104	797503	keystroke	n	n/a
398.8415	0.045	797683	keystroke	g	n/a
398.9315	0.074	797863	keystroke	Key.space	n/a
399.6215	0.0595	799243	keystroke	r	n/a
399.696	0.075	799392	keystroke	a	n/a
399.786	0.075	799572	keystroke	b	n/a
399.9215	0.0595	799843	keystroke	b	n/a
400.011	0.1055	800022	keystroke	i	n/a
400.146	0.06	800292	keystroke	t	n/a
400.251	0.0595	800502	keystroke	Key.space	n/a
401.0605	0.061	802121	keystroke	t	n/a
401.166	0.1195	802332	keystroke	o	n/a
401.256	0.09	802512	keystroke	u	n/a
401.3615	0.074	802723	keystroke	r	n/a
401.5255	0.075	803051	keystroke	n	n/a
401.7065	0.075	803413	keystroke	a	n/a
401.7515	0.045	803503	keystroke	m	n/a
402.4265	0.09	804853	keystroke	n	n/a
402.7705	0.075	805541	keystroke	Key.backspace	n/a
402.8755	0.0605	805751	keystroke	e	n/a
402.981	0.0595	805962	keystroke	n	n/a
403.0555	0.06	806111	keystroke	t	n/a
403.1765	0.09	806353	keystroke	s	n/a
403.505	0.0465	807010	keystroke	Key.space	n/a
404.2265	0.12	808453	keystroke	c	n/a
404.3165	0.0895	808633	keystroke	a	n/a
404.466	0.075	808932	keystroke	p	n/a
404.571	0.0895	809142	keystroke	a	n/a
404.7965	0.09	809593	keystroke	b	n/a
404.9615	0.074	809923	keystroke	l	n/a
405.0805	0.031	810161	keystroke	e	n/a
405.606	0.075	811212	keystroke	Key.enter	n/a
405.6855	7.4385	811371	prompt	n/a	motorola refer donations piece\n
406.462	0.104	812924	keystroke	m	n/a
406.5815	0.119	813163	keystroke	o	n/a
406.8655	0.0605	813731	keystroke	t	n/a
407.002	0.074	814004	keystroke	o	n/a
407.106	0.06	814212	keystroke	r	n/a
407.5865	0.06	815173	keystroke	o	n/a
407.751	0.06	815502	keystroke	l	n/a
407.826	0.075	815652	keystroke	a	n/a
407.945	0.061	815890	keystroke	Key.space	n/a
408.741	0.135	817482	keystroke	r	n/a
408.951	0.105	817902	keystroke	e	n/a
409.221	0.091	818442	keystroke	f	n/a
409.356	0.1205	818712	keystroke	e	n/a
409.4455	0.0905	818891	keystroke	r	n/a
409.746	0.06	819492	keystroke	Key.space	n/a
410.241	0.075	820482	keystroke	d	n/a
410.3305	0.0755	820661	keystroke	o	n/a
410.3915	0.075	820783	keystroke	n	n/a
410.4805	0.0755	820961	keystroke	a	n/a
410.616	0.075	821232	keystroke	t	n/a
410.721	0.1955	821442	keystroke	i	n/a
410.796	0.09	821592	keystroke	o	n/a
410.811	0.165	821622	keystroke	n	n/a
410.961	0.0905	821922	keystroke	s	n/a
411.096	0.075	822192	keystroke	Key.space	n/a
412.041	0.0605	824082	keystroke	p	n/a
412.236	0.06	824472	keystroke	i	n/a
412.281	0.0745	824562	keystroke	e	n/a
412.4165	0.104	824833	keystroke	c	n/a
412.4915	0.104	824983	keystroke	e	n/a
413.0605	0.06	826121	keystroke	Key.enter	n/a
413.1285	6.8945	826257	prompt	n/a	processes month canyon howard\n
413.7805	0.0755	827561	keystroke	p	n/a
413.8405	0.09	827681	keystroke	r	n/a
413.9915	0.059	827983	keystroke	o	n/a
414.066	0.0905	828132	keystroke	c	n/a
414.126	0.1195	828252	keystroke	e	n/a
414.351	0.075	828702	keystroke	s	n/a
414.486	0.105	828972	keystroke	s	n/a
414.606	0.105	829212	keystroke	e	n/a
414.726	0.135	829452	keystroke	s	n/a
414.891	0.06	829782	keystroke	Key.space	n/a
415.5805	0.0755	831161	keystroke	m	n/a
415.686	0.105	831372	keystroke	o	n/a
415.821	0.09	831642	keystroke	n	n/a
415.941	0.09	831882	keystroke	t	n/a
416.0455	0.0605	832091	keystroke	h	n/a
416.1505	0.075	832301	keystroke	Key.space	n/a
416.5705	0.0905	833141	keystroke	c	n/a
416.7665	0.0595	833533	keystroke	a	n/a
416.8715	0.0745	833743	keystroke	n	n/a
417.081	0.0455	834162	keystroke	y	n/a
417.2165	0.1045	834433	keystroke	o	n/a
417.276	0.075	834552	keystroke	n	n/a
417.396	0.0745	834792	keystroke	Key.space	n/a
418.116	0.0755	836232	keystroke	b	n/a
418.58	0.016	837160	keystroke	Key.backspace	n/a
418.701	0.06	837402	keystroke	h	n/a
418.851	0.029	837702	keystroke	o	n/a
418.911	0.0595	837822	keystroke	w	n/a
419.2405	0.091	838481	keystroke	a	n/a
419.3315	0.104	838663	keystroke	r	n/a
419.4215	0.1045	838843	keystroke	d	n/a
419.9605	0.0605	839921	keystroke	Key.enter	n/a
420.0275	7.525	840055	prompt	n/a	sampling labor cardiff lightning\n
420.681	0.09	841362	keystroke	s	n/a
420.8305	0.075	841661	keystroke	a	n/a
421.0405	0.046	842081	keystroke	m	n/a
421.1305	0.09	842261	keystroke	p	n/a
421.3255	0.06	842651	keystroke	l	n/a
421.5055	0.0755	843011	keystroke	i	n/a
421.5505	0.075	843101	keystroke	n	n/a
421.6265	0.0595	843253	keystroke	g	n/a
421.731	0.0445	843462	keystroke	Key.space	n/a
422.481	0.06	844962	keystroke	l	n/a
422.6005	0.075	845201	keystroke	a	n/a
422.6755	0.0605	845351	keystroke	b	n/a
422.8105	0.09	845621	keystroke	o	n/a
422.9165	0.045	845833	keystroke	r	n/a
422.9905	0.075	845981	keystroke	Key.space	n/a
423.876	0.1205	847752	keystroke	c	n/a
424.026	0.075	848052	keystroke	a	n/a
424.1315	0.0745	848263	keystroke	r	n/a
424.296	0.06	848592	keystroke	i	n/a
424.7155	0.0605	849431	keystroke	Key.backspace	n/a
424.806	0.075	849612	keystroke	d	n/a
424.956	0.0905	849912	keystroke	i	n/a
425.061	0.03	850122	keystroke	f	n/a
425.241	0.0155	850482	keystroke	f	n/a
425.286	0.06	850572	keystroke	Key.space	n/a
426.0965	0.074	852193	keystroke	l	n/a
426.261	0.075	852522	keystroke	i	n/a
426.351	0.075	852702	keystroke	g	n/a
426.441	0.0755	852882	keystroke	h	n/a
426.5305	0.076	853061	keystroke	t	n/a
426.7115	0.075	853423	keystroke	n	n/a
426.8605	0.121	853721	keystroke	i	n/a
426.9365	0.06	853873	keystroke	n	n/a
427.0415	0.059	854083	keystroke	g	n/a
427.491	0.0595	854982	keystroke	Key.enter	n/a
427.5555	6.7625	855111	prompt	n/a	contract bored videos macedonia\n
428.2865	0.09	856573	keystroke	c	n/a
428.3915	0.09	856783	keystroke	o	n/a
428.4665	0.0595	856933	keystroke	n	n/a
428.5265	0.045	857053	keystroke	t	n/a
428.6455	0.076	857291	keystroke	r	n/a
428.7655	0.12	857531	keystroke	a	n/a
428.8565	0.09	857713	keystroke	c	n/a
429.0515	0.0595	858103	keystroke	t	n/a
429.1415	0.074	858283	keystroke	Key.space	n/a
429.726	0.06	859452	keystroke	b	n/a
429.831	0.09	859662	keystroke	o	n/a
429.891	0.12	859782	keystroke	r	n/a
429.996	0.075	859992	keystroke	e	n/a
430.1465	0.0895	860293	keystroke	d	n/a
430.266	0.06	860532	keystroke	Key.space	n/a
431.091	0.06	862182	keystroke	v	n/a
431.181	0.0745	862362	keystroke	i	n/a
431.2705	0.045	862541	keystroke	d	n/a
431.421	0.044	862842	keystroke	e	n/a
431.481	0.075	862962	keystroke	o	n/a
431.5865	0.089	863173	keystroke	s	n/a
431.691	0.045	863382	keystroke	Key.space	n/a
432.7105	0.0755	865421	keystroke	m	n/a
432.801	0.09	865602	keystroke	a	n/a
432.936	0.1055	865872	keystroke	c	n/a
433.0265	0.075	866053	keystroke	e	n/a
433.2815	0.06	866563	keystroke	d	n/a
433.5065	0.09	867013	keystroke	o	n/a
433.6405	0.09	867281	keystroke	n	n/a
433.7455	0.105	867491	keystroke	i	n/a
433.8665	0.045	867733	keystroke	a	n/a
434.2555	0.06	868511	keystroke	Key.enter	n/a
434.325	9.2785	868650	prompt	n/a	pollution compensation which refinance\n
435.0055	0.091	870011	keystroke	p	n/a
436.356	0.09	872712	keystroke	o	n/a
436.521	0.09	873042	keystroke	l	n/a
436.6865	0.0745	873373	keystroke	l	n/a
436.8965	0.0595	873793	keystroke	u	n/a
437.046	0.045	874092	keystroke	t	n/a
437.106	0.24	874212	keystroke	i	n/a
437.211	0.105	874422	keystroke	o	n/a
437.241	0.18	874482	keystroke	n	n/a
437.406	0.075	874812	keystroke	Key.space	n/a
438.156	0.0905	876312	keystroke	c	n/a
438.2615	0.105	876523	keystroke	o	n/a
438.3215	0.0895	876643	keystroke	m	n/a
438.471	0.09	876942	keystroke	p	n/a
438.5765	0.075	877153	keystroke	e	n/a
438.681	0.075	877362	keystroke	n	n/a
438.906	0.12	877812	keystroke	s	n/a
439.147	0.104	878294	keystroke	a	n/a
439.2815	0.0745	878563	keystroke	t	n/a
439.386	0.165	878772	keystroke	i	n/a
439.431	0.105	878862	keystroke	o	n/a
439.461	0.12	878922	keystroke	n	n/a
439.581	0.075	879162	keystroke	Key.space	n/a
440.226	0.06	880452	keystroke	w	n/a
440.316	0.0755	880632	keystroke	h	n/a
440.4065	0.0745	880813	keystroke	i	n/a
440.4965	0.0745	880993	keystroke	c	n/a
440.571	0.0755	881142	keystroke	h	n/a
440.661	0.0595	881322	keystroke	Key.space	n/a
441.7865	0.1795	883573	keystroke	r	n/a
441.921	0.0905	883842	keystroke	e	n/a
442.101	0.0755	884202	keystroke	f	n/a
442.191	0.09	884382	keystroke	i	n/a
442.7465	0.06	885493	keystroke	n	n/a
442.8365	0.074	885673	keystroke	a	n/a
442.9555	0.0755	885911	keystroke	n	n/a
443.0465	0.105	886093	keystroke	c	n/a
443.1355	0.091	886271	keystroke	e	n/a
443.5865	0.014	887173	keystroke	Key.enter	n/a
443.6075	8.1555	887215	prompt	n/a	dynamics collection barely briefs\n
444.3965	0.059	888793	keystroke	d	n/a
445.116	0.09	890232	keystroke	y	n/a
445.416	0.0755	890832	keystroke	n	n/a
445.5365	0.074	891073	keystroke	a	n/a
445.6265	0.09	891253	keystroke	m	n/a
445.761	0.0745	891522	keystroke	i	n/a
445.851	0.0895	891702	keystroke	c	n/a
445.9115	0.105	891823	keystroke	s	n/a
446.0005	0.06	892001	keystroke	Key.space	n/a
446.6455	0.075	893291	keystroke	c	n/a
446.7505	0.0605	893501	keystroke	o	n/a
447.0205	0.09	894041	keystroke	l	n/a
447.291	0.09	894582	keystroke	l	n/a
447.441	0.15	894882	keystroke	e	n/a
447.531	0.105	895062	keystroke	c	n/a
447.741	0.06	895482	keystroke	t	n/a
447.831	0.2705	895662	keystroke	i	n/a
447.936	0.1345	895872	keystroke	o	n/a
447.981	0.1505	895962	keystroke	n	n/a
448.1155	0.075	896231	keystroke	Key.space	n/a
448.911	0.0755	897822	keystroke	b	n/a
449.001	0.075	898002	keystroke	a	n/a
449.061	0.12	898122	keystroke	r	n/a
449.151	0.1195	898302	keystroke	e	n/a
449.2115	0.089	898423	keystroke	l	n/a
449.406	0.0605	898812	keystroke	y	n/a
449.526	0.045	899052	keystroke	Key.space	n/a
450.2015	0.0895	900403	keystroke	b	n/a
450.306	0.075	900612	keystroke	r	n/a
450.441	0.0755	900882	keystroke	i	n/a
450.5005	0.075	901001	keystroke	e	n/a
450.621	0.0895	901242	keystroke	f	n/a
450.8005	0.076	901601	keystroke	s	n/a
451.6705	0.091	903341	keystroke	Key.enter	n/a
451.7675	10.765	903535	prompt	n/a	career codes aren't herb\n
452.346	0.09	904692	keystroke	c	n/a
452.646	0.09	905292	keystroke	a	n/a
453.081	0.06	906162	keystroke	r	n/a
453.246	0.045	906492	keystroke	e	n/a
453.366	0.09	906732	keystroke	e	n/a
453.471	0.075	906942	keystroke	r	n/a
453.591	0.06	907182	keystroke	Key.space	n/a
453.996	0.1055	907992	keystroke	c	n/a
454.131	0.075	908262	keystroke	o	n/a
454.611	0.06	909222	keystroke	d	n/a
454.777	0.1345	909554	keystroke	e	n/a
454.8665	0.134	909733	keystroke	s	n/a
454.9855	0.06	909971	keystroke	Key.space	n/a
455.6615	0.074	911323	keystroke	a	n/a
455.7515	0.134	911503	keystroke	r	n/a
455.8555	0.106	911711	keystroke	e	n/a
455.916	0.105	911832	keystroke	n	n/a
456.036	0.0755	912072	keystroke	t	n/a
456.801	0.0755	913602	keystroke	'	n/a
456.906	0.06	913812	keystroke	t	n/a
457.116	0.06	914232	keystroke	Key.space	n/a
458.6015	0.0145	917203	keystroke	Key.backspace	n/a
458.706	0.075	917412	keystroke	Key.backspace	n/a
458.8555	0.0755	917711	keystroke	Key.backspace	n/a
459.201	0.06	918402	keystroke	Key.backspace	n/a
459.981	0.105	919962	keystroke	'	n/a
460.1765	0.0745	920353	keystroke	t	n/a
460.506	0.0595	921012	keystroke	Key.space	n/a
461.6155	0.045	923231	keystroke	h	n/a
461.6905	0.09	923381	keystroke	e	n/a
461.7505	0.09	923501	keystroke	r	n/a
461.826	0.0605	923652	keystroke	b	n/a
462.4555	0.075	924911	keystroke	Key.enter	n/a
462.5375	6.2205	925075	prompt	n/a	vintage deviation meta terrorist\n
463.116	0.075	926232	keystroke	v	n/a
463.2665	0.089	926533	keystroke	i	n/a
463.3415	0.09	926683	keystroke	n	n/a
463.4155	0.075	926831	keystroke	t	n/a
463.5365	0.105	927073	keystroke	a	n/a
463.6265	0.089	927253	keystroke	g	n/a
463.701	0.1055	927402	keystroke	e	n/a
463.8215	0.059	927643	keystroke	Key.space	n/a
464.4515	0.1345	928903	keystroke	d	n/a
464.6915	0.06	929383	keystroke	e	n/a
464.8115	0.089	929623	keystroke	v	n/a
464.9315	0.075	929863	keystroke	i	n/a
465.0205	0.1205	930041	keystroke	a	n/a
465.1265	0.075	930253	keystroke	t	n/a
465.2165	0.195	930433	keystroke	i	n/a
465.261	0.135	930522	keystroke	o	n/a
465.291	0.135	930582	keystroke	n	n/a
465.861	0.075	931722	keystroke	Key.space	n/a
466.146	0.09	932292	keystroke	m	n/a
466.221	0.06	932442	keystroke	e	n/a
466.326	0.09	932652	keystroke	t	n/a
466.401	0.075	932802	keystroke	a	n/a
466.491	0.075	932982	keystroke	Key.space	n/a
467.0015	0.06	934003	keystroke	t	n/a
467.091	0.1355	934182	keystroke	e	n/a
467.241	0.045	934482	keystroke	r	n/a
467.361	0.091	934722	keystroke	r	n/a
467.481	0.09	934962	keystroke	o	n/a
467.586	0.06	935172	keystroke	r	n/a
467.9015	0.0745	935803	keystroke	i	n/a
468.006	0.15	936012	keystroke	s	n/a
468.112	0.059	936224	keystroke	t	n/a
468.741	0.015	937482	keystroke	Key.enter	n/a
468.761	8.037	937522	prompt	n/a	patents service tribal ever\n
469.4765	0.0745	938953	keystroke	p	n/a
469.596	0.1195	939192	keystroke	a	n/a
469.731	0.1205	939462	keystroke	t	n/a
469.986	0.105	939972	keystroke	e	n/a
470.271	0.15	940542	keystroke	n	n/a
470.406	0.105	940812	keystroke	t	n/a
470.496	0.135	940992	keystroke	s	n/a
470.646	0.075	941292	keystroke	Key.space	n/a
471.261	0.09	942522	keystroke	s	n/a
471.411	0.105	942822	keystroke	e	n/a
471.486	0.075	942972	keystroke	r	n/a
471.696	0.03	943392	keystroke	v	n/a
471.7715	0.0745	943543	keystroke	i	n/a
471.8315	0.1045	943663	keystroke	c	n/a
471.891	0.105	943782	keystroke	e	n/a
472.026	0.06	944052	keystroke	Key.space	n/a
472.701	0.06	945402	keystroke	t	n/a
472.806	0.075	945612	keystroke	r	n/a
472.926	0.12	945852	keystroke	i	n/a
473.076	0.06	946152	keystroke	a	n/a
473.151	0.09	946302	keystroke	b	n/a
473.286	0.105	946572	keystroke	l	n/a
473.361	0.06	946722	keystroke	e	n/a
473.856	0.0445	947712	keystroke	Key.backspace	n/a
473.9755	0.06	947951	keystroke	Key.backspace	n/a
474.126	0.09	948252	keystroke	Key.backspace	n/a
474.336	0.0755	948672	keystroke	Key.backspace	n/a
474.4565	0.0745	948913	keystroke	b	n/a
474.5465	0.104	949093	keystroke	a	n/a
474.6655	0.061	949331	keystroke	l	n/a
474.981	0.0745	949962	keystroke	Key.space	n/a
475.896	0.0895	951792	keystroke	e	n/a
476.091	0.0895	952182	keystroke	v	n/a
476.2105	0.136	952421	keystroke	e	n/a
476.331	0.0745	952662	keystroke	r	n/a
476.721	0.075	953442	keystroke	Key.enter	n/a
476.801	7.062	953602	prompt	n/a	incident idol troubleshooting blog\n
477.456	0.09	954912	keystroke	i	n/a
477.561	0.09	955122	keystroke	n	n/a
477.636	0.0905	955272	keystroke	c	n/a
477.756	0.0605	955512	keystroke	i	n/a
477.801	0.06	955602	keystroke	d	n/a
477.966	0.0595	955932	keystroke	e	n/a
478.011	0.0905	956022	keystroke	n	n/a
478.1165	0.059	956233	keystroke	t	n/a
478.2055	0.075	956411	keystroke	Key.space	n/a
478.745	0.016	957490	keystroke	i	n/a
478.776	0.0905	957552	keystroke	d	n/a
479.0315	0.12	958063	keystroke	o	n/a
479.331	0.075	958662	keystroke	l	n/a
479.5405	0.0605	959081	keystroke	Key.space	n/a
480.3065	0.06	960613	keystroke	t	n/a
480.4565	0.06	960913	keystroke	r	n/a
480.5165	0.12	961033	keystroke	o	n/a
480.6055	0.061	961211	keystroke	u	n/a
480.8015	0.089	961603	keystroke	b	n/a
480.981	0.0895	961962	keystroke	l	n/a
481.1015	0.075	962203	keystroke	e	n/a
481.2965	0.074	962593	keystroke	s	n/a
481.4165	0.075	962833	keystroke	h	n/a
481.5665	0.0595	963133	keystroke	o	n/a
481.7015	0.075	963403	keystroke	o	n/a
481.7605	0.075	963521	keystroke	t	n/a
481.8815	0.12	963763	keystroke	i	n/a
481.9415	0.105	963883	keystroke	n	n/a
482.031	0.0455	964062	keystroke	g	n/a
482.1965	0.06	964393	keystroke	Key.space	n/a
482.8715	0.0745	965743	keystroke	b	n/a
483.006	0.105	966012	keystroke	l	n/a
483.216	0.075	966432	keystroke	o	n/a
483.381	0.0605	966762	keystroke	g	n/a
483.801	0.06	967602	keystroke	Key.enter	n/a
483.868	6.8345	967736	prompt	n/a	turned metro volkswagen views\n
484.566	0.06	969132	keystroke	t	n/a
484.671	0.059	969342	keystroke	u	n/a
484.7615	0.0595	969523	keystroke	r	n/a
484.8515	0.0895	969703	keystroke	n	n/a
484.9265	0.06	969853	keystroke	e	n/a
485.06	0.106	970120	keystroke	d	n/a
485.166	0.0745	970332	keystroke	Key.space	n/a
485.421	0.09	970842	keystroke	m	n/a
485.496	0.0605	970992	keystroke	e	n/a
485.5865	0.06	971173	keystroke	t	n/a
485.706	0.075	971412	keystroke	r	n/a
485.796	0.075	971592	keystroke	o	n/a
485.916	0.06	971832	keystroke	Key.space	n/a
486.576	0.1955	973152	keystroke	v	n/a
487.116	0.0745	974232	keystroke	o	n/a
487.3105	0.076	974621	keystroke	l	n/a
487.521	0.1355	975042	keystroke	k	n/a
487.7005	0.135	975401	keystroke	s	n/a
488.032	0.1645	976064	keystroke	w	n/a
488.556	0.09	977112	keystroke	a	n/a
488.6915	0.104	977383	keystroke	g	n/a
488.7815	0.1045	977563	keystroke	e	n/a
488.901	0.0745	977802	keystroke	n	n/a
489.1105	0.06	978221	keystroke	Key.space	n/a
489.9965	0.0745	979993	keystroke	v	n/a
490.116	0.075	980232	keystroke	i	n/a
490.176	0.1195	980352	keystroke	e	n/a
490.2365	0.1045	980473	keystroke	w	n/a
490.4005	0.1205	980801	keystroke	s	n/a
490.6705	0.0305	981341	keystroke	Key.enter	n/a
490.7075	5.3665	981415	prompt	n/a	discovered vast courts anyone\n
491.3015	0.044	982603	keystroke	d	n/a
491.3905	0.0765	982781	keystroke	i	n/a
491.436	0.1805	982872	keystroke	s	n/a
491.5715	0.0745	983143	keystroke	c	n/a
491.811	0.075	983622	keystroke	o	n/a
491.901	0.075	983802	keystroke	v	n/a
492.006	0.105	984012	keystroke	e	n/a
492.126	0.1055	984252	keystroke	r	n/a
492.201	0.075	984402	keystroke	e	n/a
492.351	0.09	984702	keystroke	d	n/a
492.456	0.075	984912	keystroke	Key.space	n/a
493.026	0.0755	986052	keystroke	v	n/a
493.1015	0.1195	986203	keystroke	a	n/a
493.1915	0.1795	986383	keystroke	s	n/a
493.326	0.06	986652	keystroke	t	n/a
493.401	0.075	986802	keystroke	Key.space	n/a
493.596	0.0755	987192	keystroke	c	n/a
493.7015	0.1045	987403	keystroke	o	n/a
493.776	0.075	987552	keystroke	u	n/a
493.836	0.06	987672	keystroke	r	n/a
494.001	0.0755	988002	keystroke	t	n/a
494.091	0.105	988182	keystroke	s	n/a
494.241	0.075	988482	keystroke	Key.space	n/a
494.991	0.09	989982	keystroke	a	n/a
495.1105	0.075	990221	keystroke	n	n/a
495.3055	0.06	990611	keystroke	y	n/a
495.4865	0.119	990973	keystroke	o	n/a
495.5605	0.105	991121	keystroke	n	n/a
495.6505	0.0605	991301	keystroke	e	n/a
496.0105	0.061	992021	keystroke	Key.enter	n/a
496.0785	6.0095	992157	prompt	n/a	scientist lonely islam border\n
496.7465	0.075	993493	keystroke	s	n/a
496.8965	0.09	993793	keystroke	c	n/a
497.0015	0.059	994003	keystroke	i	n/a
497.091	0.06	994182	keystroke	e	n/a
497.166	0.0755	994332	keystroke	n	n/a
497.271	0.06	994542	keystroke	t	n/a
497.661	0.03	995322	keystroke	i	n/a
497.8865	0.12	995773	keystroke	s	n/a
497.976	0.06	995952	keystroke	t	n/a
498.066	0.06	996132	keystroke	Key.space	n/a
498.486	0.0905	996972	keystroke	l	n/a
498.7115	0.1045	997423	keystroke	o	n/a
498.801	0.105	997602	keystroke	n	n/a
498.891	0.0605	997782	keystroke	e	n/a
498.9965	0.0745	997993	keystroke	l	n/a
499.1615	0.0595	998323	keystroke	y	n/a
499.266	0.06	998532	keystroke	Key.space	n/a
500.0155	0.076	1000031	keystroke	i	n/a
500.1055	0.06	1000211	keystroke	s	n/a
500.241	0.0595	1000482	keystroke	l	n/a
500.3165	0.089	1000633	keystroke	a	n/a
500.4215	0.1195	1000843	keystroke	m	n/a
500.6155	0.1055	1001231	keystroke	Key.space	n/a
500.9305	0.076	1001861	keystroke	b	n/a
501.0965	0.0895	1002193	keystroke	o	n/a
501.1715	0.1045	1002343	keystroke	r	n/a
501.231	0.075	1002462	keystroke	d	n/a
501.411	0.1205	1002822	keystroke	e	n/a
501.4865	0.09	1002973	keystroke	r	n/a
502.0265	0.06	1004053	keystroke	Key.enter	n/a
502.093	5.921	1004186	prompt	n/a	colored action apartment afford\n
502.7465	0.0745	1005493	keystroke	c	n/a
502.851	0.0755	1005702	keystroke	o	n/a
503.0615	0.0295	1006123	keystroke	l	n/a
503.196	0.06	1006392	keystroke	o	n/a
503.3015	0.09	1006603	keystroke	r	n/a
503.376	0.0905	1006752	keystroke	e	n/a
503.526	0.105	1007052	keystroke	d	n/a
503.646	0.075	1007292	keystroke	Key.space	n/a
504.2315	0.1795	1008463	keystroke	a	n/a
504.367	0.089	1008734	keystroke	c	n/a
504.5765	0.0445	1009153	keystroke	t	n/a
504.636	0.18	1009272	keystroke	i	n/a
504.696	0.105	1009392	keystroke	o	n/a
504.711	0.135	1009422	keystroke	n	n/a
504.847	0.044	1009694	keystroke	Key.space	n/a
505.491	0.1045	1010982	keystroke	a	n/a
505.7305	0.076	1011461	keystroke	p	n/a
505.8215	0.0745	1011643	keystroke	a	n/a
505.9115	0.045	1011823	keystroke	r	n/a
506.046	0.0605	1012092	keystroke	t	n/a
506.151	0.0895	1012302	keystroke	m	n/a
506.2565	0.0595	1012513	keystroke	e	n/a
506.3455	0.076	1012691	keystroke	n	n/a
506.4355	0.0455	1012871	keystroke	t	n/a
506.526	0.075	1013052	keystroke	Key.space	n/a
506.691	0.0595	1013382	keystroke	a	n/a
506.781	0.06	1013562	keystroke	f	n/a
506.917	0.0595	1013834	keystroke	f	n/a
507.0065	0.09	1014013	keystroke	o	n/a
507.0965	0.1045	1014193	keystroke	r	n/a
507.171	0.09	1014342	keystroke	d	n/a
507.936	0.075	1015872	keystroke	Key.enter	n/a
508.0175	10.6005	1016035	prompt	n/a	bill broadcast trinity variety\n
508.9115	0.0445	1017823	keystroke	b	n/a
509.001	0.09	1018002	keystroke	i	n/a
509.166	0.06	1018332	keystroke	l	n/a
509.286	0.0895	1018572	keystroke	l	n/a
509.391	0.09	1018782	keystroke	Key.space	n/a
509.5255	0.076	1019051	keystroke	b	n/a
509.6015	0.0595	1019203	keystroke	r	n/a
509.706	0.075	1019412	keystroke	o	n/a
509.796	0.075	1019592	keystroke	a	n/a
509.901	0.075	1019802	keystroke	d	n/a
510.186	0.105	1020372	keystroke	c	n/a
510.306	0.135	1020612	keystroke	a	n/a
510.396	0.105	1020792	keystroke	s	n/a
510.5605	0.105	1021121	keystroke	s	n/a
510.6955	0.075	1021391	keystroke	Key.space	n/a
511.161	0.0445	1022322	keystroke	Key.backspace	n/a
511.2665	0.0595	1022533	keystroke	Key.backspace	n/a
511.7765	0.0445	1023553	keystroke	t	n/a
511.836	0.0155	1023672	keystroke	Key.space	n/a
512.766	0.06	1025532	keystroke	t	n/a
512.901	0.09	1025802	keystroke	r	n/a
512.916	0.12	1025832	keystroke	i	n/a
513.051	0.12	1026102	keystroke	n	n/a
513.141	0.12	1026282	keystroke	i	n/a
513.291	0.075	1026582	keystroke	t	n/a
513.486	0.06	1026972	keystroke	y	n/a
513.636	0.0755	1027272	keystroke	Key.space	n/a
514.2365	0.09	1028473	keystroke	v	n/a
514.416	0.105	1028832	keystroke	a	n/a
514.6565	0.029	1029313	keystroke	i	n/a
515.0605	0.09	1030121	keystroke	Key.backspace	n/a
515.1365	0.074	1030273	keystroke	r	n/a
515.2705	0.0905	1030541	keystroke	i	n/a
515.3765	0.12	1030753	keystroke	e	n/a
515.451	0.075	1030902	keystroke	t	n/a
515.571	0.075	1031142	keystroke	y	n/a
515.706	0.06	1031412	keystroke	Key.space	n/a
516.771	0.09	1033542	keystroke	Key.backspace	n/a
518.5565	0.059	1037113	keystroke	Key.enter	n/a
518.6255	6.5775	1037251	prompt	n/a	charming violent complex ieee\n
519.2165	0.1045	1038433	keystroke	c	n/a
519.351	0.09	1038702	keystroke	h	n/a
519.396	0.105	1038792	keystroke	a	n/a
519.486	0.09	1038972	keystroke	r	n/a
519.561	0.0755	1039122	keystroke	m	n/a
519.711	0.09	1039422	keystroke	i	n/a
519.771	0.09	1039542	keystroke	n	n/a
519.846	0.045	1039692	keystroke	g	n/a
519.921	0.06	1039842	keystroke	Key.space	n/a
520.656	0.075	1041312	keystroke	v	n/a
520.776	0.1955	1041552	keystroke	i	n/a
520.9565	0.12	1041913	keystroke	o	n/a
521.181	0.09	1042362	keystroke	l	n/a
521.346	0.045	1042692	keystroke	e	n/a
521.376	0.09	1042752	keystroke	n	n/a
521.496	0.0755	1042992	keystroke	t	n/a
521.586	0.0605	1043172	keystroke	Key.space	n/a
522.4265	0.075	1044853	keystroke	c	n/a
522.5165	0.105	1045033	keystroke	o	n/a
522.5765	0.074	1045153	keystroke	m	n/a
522.7115	0.075	1045423	keystroke	p	n/a
522.861	0.09	1045722	keystroke	l	n/a
522.921	0.075	1045842	keystroke	e	n/a
523.116	0.06	1046232	keystroke	x	n/a
523.191	0.06	1046382	keystroke	Key.space	n/a
524.211	0.015	1048422	keystroke	i	n/a
524.271	0.03	1048542	keystroke	e	n/a
524.406	0.0605	1048812	keystroke	e	n/a
524.557	0.059	1049114	keystroke	e	n/a
525.1265	0.0745	1050253	keystroke	Key.enter	n/a
525.2075	6.3545	1050415	prompt	n/a	latvia morgan adidas acid\n
526.251	0.0905	1052502	keystroke	l	n/a
526.3415	0.0895	1052683	keystroke	a	n/a
526.431	0.06	1052862	keystroke	t	n/a
526.626	0.0595	1053252	keystroke	v	n/a
526.7155	0.091	1053431	keystroke	i	n/a
526.7915	0.06	1053583	keystroke	a	n/a
526.8955	0.0605	1053791	keystroke	Key.space	n/a
527.886	0.075	1055772	keystroke	m	n/a
527.976	0.075	1055952	keystroke	o	n/a
528.066	0.075	1056132	keystroke	r	n/a
528.246	0.0455	1056492	keystroke	g	n/a
528.261	0.09	1056522	keystroke	a	n/a
528.3665	0.089	1056733	keystroke	n	n/a
528.4705	0.06	1056941	keystroke	Key.space	n/a
529.176	0.075	1058352	keystroke	a	n/a
529.311	0.06	1058622	keystroke	d	n/a
529.431	0.0605	1058862	keystroke	i	n/a
529.536	0.06	1059072	keystroke	d	n/a
529.8965	0.09	1059793	keystroke	a	n/a
530.016	0.0455	1060032	keystroke	s	n/a
530.646	0.045	1061292	keystroke	Key.space	n/a
530.871	0.1055	1061742	keystroke	a	n/a
531.006	0.075	1062012	keystroke	c	n/a
531.1115	0.0745	1062223	keystroke	i	n/a
531.201	0.075	1062402	keystroke	d	n/a
531.4865	0.0745	1062973	keystroke	Key.enter	n/a
531.5655	5.2475	1063131	prompt	n/a	critical moon strange line\n
532.1615	0.0595	1064323	keystroke	c	n/a
532.3405	0.0455	1064681	keystroke	r	n/a
532.416	0.0745	1064832	keystroke	i	n/a
532.506	0.06	1065012	keystroke	t	n/a
532.611	0.075	1065222	keystroke	i	n/a
532.671	0.09	1065342	keystroke	c	n/a
532.746	0.075	1065492	keystroke	a	n/a
532.821	0.0605	1065642	keystroke	l	n/a
532.9255	0.06	1065851	keystroke	Key.space	n/a
533.5865	0.089	1067173	keystroke	m	n/a
533.7215	0.075	1067443	keystroke	o	n/a
533.9005	0.121	1067801	keystroke	o	n/a
533.9915	0.09	1067983	keystroke	n	n/a
534.0955	0.045	1068191	keystroke	Key.space	n/a
534.4555	0.091	1068911	keystroke	s	n/a
534.5915	0.044	1069183	keystroke	t	n/a
534.6955	0.076	1069391	keystroke	r	n/a
534.7855	0.0905	1069571	keystroke	a	n/a
534.8455	0.0605	1069691	keystroke	n	n/a
534.9515	0.044	1069903	keystroke	g	n/a
534.981	0.0755	1069962	keystroke	e	n/a
535.0705	0.0605	1070141	keystroke	Key.space	n/a
535.986	0.06	1071972	keystroke	l	n/a
536.166	0.09	1072332	keystroke	i	n/a
536.226	0.075	1072452	keystroke	n	n/a
536.257	0.074	1072514	keystroke	e	n/a
536.736	0.075	1073472	keystroke	Key.enter	n/a
536.817	5.0055	1073634	prompt	n/a	update beach jamie gifts\n
537.456	0.06	1074912	keystroke	u	n/a
537.561	0.105	1075122	keystroke	p	n/a
537.696	0.09	1075392	keystroke	d	n/a
537.787	0.1045	1075574	keystroke	a	n/a
537.906	0.075	1075812	keystroke	t	n/a
537.936	0.1205	1075872	keystroke	e	n/a
538.101	0.045	1076202	keystroke	Key.space	n/a
538.671	0.0905	1077342	keystroke	b	n/a
538.791	0.09	1077582	keystroke	e	n/a
538.881	0.12	1077762	keystroke	a	n/a
538.956	0.09	1077912	keystroke	c	n/a
539.016	0.09	1078032	keystroke	h	n/a
539.136	0.06	1078272	keystroke	Key.space	n/a
539.7365	0.074	1079473	keystroke	j	n/a
539.841	0.0755	1079682	keystroke	a	n/a
539.9165	0.119	1079833	keystroke	m	n/a
540.0665	0.075	1080133	keystroke	i	n/a
540.1555	0.075	1080311	keystroke	e	n/a
540.2605	0.06	1080521	keystroke	Key.space	n/a
540.966	0.06	1081932	keystroke	g	n/a
541.041	0.075	1082082	keystroke	i	n/a
541.131	0.09	1082262	keystroke	f	n/a
541.326	0.135	1082652	keystroke	t	n/a
541.4465	0.1195	1082893	keystroke	s	n/a
541.776	0.045	1083552	keystroke	Key.enter	n/a
541.8265	6.716	1083653	prompt	n/a	kodak drawings mentor icons\n
542.4955	0.075	1084991	keystroke	k	n/a
542.676	0.0605	1085352	keystroke	o	n/a
542.752	0.0895	1085504	keystroke	d	n/a
542.8565	0.1045	1085713	keystroke	a	n/a
543.0205	0.076	1086041	keystroke	k	n/a
543.1555	0.06	1086311	keystroke	Key.space	n/a
543.892	0.0745	1087784	keystroke	d	n/a
544.071	0.105	1088142	keystroke	a	n/a
544.221	0.105	1088442	keystroke	r	n/a
544.461	0.075	1088922	keystroke	Key.backspace	n/a
544.626	0.045	1089252	keystroke	Key.backspace	n/a
544.6415	0.09	1089283	keystroke	r	n/a
544.7465	0.0595	1089493	keystroke	a	n/a
544.8515	0.105	1089703	keystroke	w	n/a
545.001	0.135	1090002	keystroke	i	n/a
545.0755	0.121	1090151	keystroke	n	n/a
545.166	0.09	1090332	keystroke	g	n/a
545.2705	0.106	1090541	keystroke	s	n/a
545.391	0.075	1090782	keystroke	Key.space	n/a
546.0965	0.1195	1092193	keystroke	m	n/a
546.2015	0.0595	1092403	keystroke	e	n/a
546.3065	0.06	1092613	keystroke	n	n/a
546.367	0.0445	1092734	keystroke	t	n/a
546.4565	0.105	1092913	keystroke	o	n/a
546.5915	0.0595	1093183	keystroke	r	n/a
546.696	0.06	1093392	keystroke	Key.space	n/a
547.326	0.09	1094652	keystroke	i	n/a
547.431	0.09	1094862	keystroke	c	n/a
547.536	0.165	1095072	keystroke	o	n/a
547.641	0.12	1095282	keystroke	n	n/a
547.791	0.06	1095582	keystroke	s	n/a
548.481	0.06	1096962	keystroke	Key.enter	n/a
548.547	6.9855	1097094	prompt	n/a	rome look browsers solo\n
549.1715	0.075	1098343	keystroke	r	n/a
549.2915	0.074	1098583	keystroke	o	n/a
549.3215	0.105	1098643	keystroke	m	n/a
549.4115	0.075	1098823	keystroke	e	n/a
549.5465	0.0745	1099093	keystroke	Key.space	n/a
549.726	0.045	1099452	keystroke	l	n/a
549.891	0.03	1099782	keystroke	o	n/a
549.9815	0.1345	1099963	keystroke	o	n/a
550.0865	0.1045	1100173	keystroke	k	n/a
550.221	0.105	1100442	keystroke	Key.space	n/a
551.031	0.075	1102062	keystroke	b	n/a
551.121	0.105	1102242	keystroke	r	n/a
551.211	0.0755	1102422	keystroke	w	n/a
551.2415	0.0595	1102483	keystroke	o	n/a
551.661	0.03	1103322	keystroke	Key.backspace	n/a
551.766	0.075	1103532	keystroke	Key.backspace	n/a
551.9315	0.074	1103863	keystroke	o	n/a
552.0205	0.061	1104041	keystroke	w	n/a
552.171	0.0745	1104342	keystroke	s	n/a
552.336	0.09	1104672	keystroke	e	n/a
552.4115	0.149	1104823	keystroke	r	n/a
552.5305	0.09	1105061	keystroke	s	n/a
552.6355	0.09	1105271	keystroke	Key.space	n/a
553.386	0.06	1106772	keystroke	s	n/a
553.536	0.06	1107072	keystroke	o	n/a
554.001	0.06	1108002	keystroke	l	n/a
554.196	0.03	1108392	keystroke	o	n/a
555.4565	0.074	1110913	keystroke	Key.enter	n/a
555.5365	4.2565	1111073	prompt	n/a	loved venues acting chris\n
556.1765	0.075	1112353	keystroke	l	n/a
556.3715	0.06	1112743	keystroke	o	n/a
556.4165	0.09	1112833	keystroke	v	n/a
556.5215	0.059	1113043	keystroke	e	n/a
556.6565	0.12	1113313	keystroke	d	n/a
556.7615	0.075	1113523	keystroke	Key.space	n/a
556.9265	0.045	1113853	keystroke	v	n/a
557.0015	0.075	1114003	keystroke	e	n/a
557.0915	0.12	1114183	keystroke	n	n/a
557.1965	0.105	1114393	keystroke	u	n/a
557.3465	0.134	1114693	keystroke	e	n/a
557.4365	0.12	1114873	keystroke	s	n/a
557.5575	0.074	1115115	keystroke	Key.space	n/a
558.2165	0.105	1116433	keystroke	a	n/a
558.3365	0.0745	1116673	keystroke	c	n/a
558.5165	0.06	1117033	keystroke	t	n/a
558.5915	0.149	1117183	keystroke	i	n/a
558.6665	0.1355	1117333	keystroke	n	n/a
558.786	0.0455	1117572	keystroke	g	n/a
558.8915	0.074	1117783	keystroke	Key.space	n/a
558.9965	0.09	1117993	keystroke	c	n/a
559.1165	0.105	1118233	keystroke	h	n/a
559.2065	0.045	1118413	keystroke	r	n/a
559.2815	0.0895	1118563	keystroke	i	n/a
559.3415	0.09	1118683	keystroke	s	n/a
559.7455	0.0455	1119491	keystroke	Key.enter	n/a
559.7975	5.936	1119595	prompt	n/a	sauce crude likelihood turner\n
560.421	0.075	1120842	keystroke	s	n/a
560.541	0.075	1121082	keystroke	a	n/a
560.661	0.06	1121322	keystroke	u	n/a
560.736	0.135	1121472	keystroke	c	n/a
560.856	0.075	1121712	keystroke	e	n/a
560.946	0.0755	1121892	keystroke	Key.space	n/a
561.1115	0.105	1122223	keystroke	c	n/a
561.322	0.0445	1122644	keystroke	r	n/a
561.3965	0.075	1122793	keystroke	u	n/a
561.5315	0.1045	1123063	keystroke	d	n/a
561.7105	0.046	1123421	keystroke	e	n/a
561.8155	0.0455	1123631	keystroke	Key.space	n/a
562.311	0.0745	1124622	keystroke	l	n/a
562.476	0.075	1124952	keystroke	i	n/a
562.626	0.09	1125252	keystroke	k	n/a
562.7905	0.0755	1125581	keystroke	e	n/a
563.0905	0.106	1126181	keystroke	l	n/a
563.301	0.0755	1126602	keystroke	i	n/a
563.5255	0.06	1127051	keystroke	h	n/a
563.6315	0.06	1127263	keystroke	o	n/a
563.766	0.09	1127532	keystroke	o	n/a
563.8405	0.075	1127681	keystroke	d	n/a
563.946	0.0745	1127892	keystroke	Key.space	n/a
564.651	0.09	1129302	keystroke	t	n/a
564.7865	0.0745	1129573	keystroke	u	n/a
564.8915	0.0745	1129783	keystroke	r	n/a
564.9815	0.105	1129963	keystroke	n	n/a
565.146	0.1195	1130292	keystroke	e	n/a
565.221	0.076	1130442	keystroke	r	n/a
565.6565	0.074	1131313	keystroke	Key.enter	n/a
565.7385	7.7345	1131477	prompt	n/a	junior graphics sequence pools\n
566.4365	0.074	1132873	keystroke	j	n/a
566.616	0.075	1133232	keystroke	u	n/a
566.811	0.1055	1133622	keystroke	n	n/a
566.9465	0.2395	1133893	keystroke	i	n/a
567.111	0.195	1134222	keystroke	o	n/a
567.321	0.0605	1134642	keystroke	r	n/a
567.426	0.075	1134852	keystroke	Key.space	n/a
567.9065	0.059	1135813	keystroke	g	n/a
568.057	0.074	1136114	keystroke	r	n/a
568.191	0.0455	1136382	keystroke	p	n/a
568.2065	0.06	1136413	keystroke	a	n/a
568.4315	0.09	1136863	keystroke	h	n/a
568.5065	0.059	1137013	keystroke	i	n/a
568.7455	0.045	1137491	keystroke	Key.backspace	n/a
568.8665	0.06	1137733	keystroke	Key.backspace	n/a
569.0005	0.09	1138001	keystroke	Key.backspace	n/a
569.1655	0.06	1138331	keystroke	Key.backspace	n/a
569.2715	0.074	1138543	keystroke	a	n/a
569.3615	0.09	1138723	keystroke	p	n/a
569.4815	0.075	1138963	keystroke	h	n/a
569.8715	0.045	1139743	keystroke	i	n/a
569.9305	0.09	1139861	keystroke	c	n/a
569.991	0.1055	1139982	keystroke	s	n/a
570.126	0.0595	1140252	keystroke	Key.space	n/a
570.861	0.09	1141722	keystroke	s	n/a
570.981	0.075	1141962	keystroke	e	n/a
571.161	0.075	1142322	keystroke	q	n/a
571.251	0.09	1142502	keystroke	u	n/a
571.371	0.06	1142742	keystroke	e	n/a
571.461	0.075	1142922	keystroke	n	n/a
571.566	0.1055	1143132	keystroke	c	n/a
571.656	0.09	1143312	keystroke	e	n/a
571.761	0.03	1143522	keystroke	Key.space	n/a
572.421	0.075	1144842	keystroke	p	n/a
572.6305	0.045	1145261	keystroke	o	n/a
572.7355	0.075	1145471	keystroke	o	n/a
572.886	0.075	1145772	keystroke	l	n/a
573.0065	0.0745	1146013	keystroke	s	n/a
573.3955	0.0755	1146791	keystroke	Key.enter	n/a
573.477	14.0065	1146954	prompt	n/a	ownership glasgow swiss do\n
574.4005	0.0455	1148801	keystroke	p	n/a
574.506	0.1795	1149012	keystroke	w	n/a
575.3905	0.045	1150781	keystroke	Key.backspace	n/a
575.511	0.06	1151022	keystroke	Key.backspace	n/a
575.661	0.045	1151322	keystroke	Key.backspace	n/a
576.4115	0.074	1152823	keystroke	o	n/a
576.531	0.15	1153062	keystroke	w	n/a
576.6215	0.104	1153243	keystroke	e	n/a
576.6965	0.09	1153393	keystroke	r	n/a
576.816	0.1045	1153632	keystroke	n	n/a
576.981	0.0905	1153962	keystroke	s	n/a
577.1305	0.1205	1154261	keystroke	h	n/a
577.2065	0.119	1154413	keystroke	i	n/a
577.4765	0.075	1154953	keystroke	p	n/a
577.8655	0.075	1155731	keystroke	Key.space	n/a
578.451	0.075	1156902	keystroke	g	n/a
578.541	0.0895	1157082	keystroke	a	n/a
579.3955	0.0755	1158791	keystroke	Key.backspace	n/a
579.996	0.0145	1159992	keystroke	Key.backspace	n/a
580.101	0.045	1160202	keystroke	Key.backspace	n/a
580.221	0.0605	1160442	keystroke	Key.backspace	n/a
580.356	0.06	1160712	keystroke	Key.backspace	n/a
580.491	0.06	1160982	keystroke	Key.backspace	n/a
580.611	0.06	1161222	keystroke	Key.backspace	n/a
580.7465	0.0745	1161493	keystroke	Key.backspace	n/a
580.881	0.075	1161762	keystroke	Key.backspace	n/a
581.061	0.075	1162122	keystroke	Key.backspace	n/a
582.126	0.03	1164252	keystroke	n	n/a
582.141	0.09	1164282	keystroke	e	n/a
582.1715	0.1195	1164343	keystroke	r	n/a
582.336	0.09	1164672	keystroke	s	n/a
582.411	0.0895	1164822	keystroke	h	n/a
582.4855	0.1055	1164971	keystroke	i	n/a
582.7265	0.105	1165453	keystroke	p	n/a
582.9515	0.06	1165903	keystroke	Key.space	n/a
583.8215	0.045	1167643	keystroke	g	n/a
583.9265	0.045	1167853	keystroke	l	n/a
584.0765	0.135	1168153	keystroke	a	n/a
584.1815	0.105	1168363	keystroke	s	n/a
584.5255	0.0605	1169051	keystroke	g	n/a
584.6915	0.0745	1169383	keystroke	o	n/a
584.7815	0.074	1169563	keystroke	w	n/a
584.9005	0.046	1169801	keystroke	Key.space	n/a
585.681	0.03	1171362	keystroke	s	n/a
585.816	0.0755	1171632	keystroke	w	n/a
585.9515	0.059	1171903	keystroke	i	n/a
586.0715	0.06	1172143	keystroke	s	n/a
586.2215	0.0745	1172443	keystroke	s	n/a
586.3405	0.016	1172681	keystroke	Key.space	n/a
586.926	0.0455	1173852	keystroke	d	n/a
586.986	0.0905	1173972	keystroke	o	n/a
587.451	0.0305	1174902	keystroke	Key.enter	n/a
587.487	14.2925	1174974	prompt	n/a	likewise programmer news shopzilla\n
592.8245	0.027	1185649	keystroke	l	n/a
593.0015	0.075	1186003	keystroke	i	n/a
593.1515	0.12	1186303	keystroke	k	n/a
593.2865	0.0755	1186573	keystroke	e	n/a
593.5115	0.06	1187023	keystroke	w	n/a
593.6015	0.075	1187203	keystroke	i	n/a
593.7065	0.0905	1187413	keystroke	s	n/a
593.781	0.091	1187562	keystroke	e	n/a
593.856	0.075	1187712	keystroke	Key.space	n/a
594.126	0.06	1188252	keystroke	o	n/a
594.141	0.0305	1188282	keystroke	p	n/a
594.201	0.0605	1188402	keystroke	r	n/a
594.3665	0.06	1188733	keystroke	g	n/a
594.741	0.06	1189482	keystroke	Key.backspace	n/a
594.9355	0.015	1189871	keystroke	Key.backspace	n/a
595.0115	0.06	1190023	keystroke	Key.backspace	n/a
595.1465	0.075	1190293	keystroke	Key.backspace	n/a
595.3265	0.06	1190653	keystroke	p	n/a
595.4165	0.075	1190833	keystroke	r	n/a
595.9265	0.075	1191853	keystroke	o	n/a
596.0315	0.075	1192063	keystroke	g	n/a
596.1815	0.105	1192363	keystroke	r	n/a
596.2715	0.09	1192543	keystroke	a	n/a
596.3315	0.06	1192663	keystroke	m	n/a
596.4665	0.06	1192933	keystroke	m	n/a
596.5115	0.12	1193023	keystroke	e	n/a
596.5865	0.09	1193173	keystroke	r	n/a
596.6915	0.074	1193383	keystroke	Key.space	n/a
597.5765	0.075	1195153	keystroke	n	n/a
597.6365	0.12	1195273	keystroke	e	n/a
597.6965	0.09	1195393	keystroke	w	n/a
597.846	0.12	1195692	keystroke	s	n/a
597.9515	0.0895	1195903	keystroke	Key.space	n/a
598.6415	0.12	1197283	keystroke	s	n/a
598.7765	0.0445	1197553	keystroke	h	n/a
598.8065	0.104	1197613	keystroke	i	n/a
599.092	0.0445	1198184	keystroke	p	n/a
599.5715	0.045	1199143	keystroke	Key.backspace	n/a
599.691	0.045	1199382	keystroke	Key.backspace	n/a
599.887	0.2095	1199774	keystroke	o	n/a
600.291	0.0905	1200582	keystroke	p	n/a
600.5015	0.075	1201003	keystroke	z	n/a
600.6365	0.06	1201273	keystroke	i	n/a
600.816	0.061	1201632	keystroke	l	n/a
600.9665	0.0745	1201933	keystroke	l	n/a
601.056	0.0755	1202112	keystroke	a	n/a
601.686	0.09	1203372	keystroke	Key.enter	n/a
601.784	4.599	1203568	prompt	n/a	cannon shore store arrangement\n
602.4515	0.12	1204903	keystroke	c	n/a
602.5565	0.0895	1205113	keystroke	a	n/a
602.661	0.0605	1205322	keystroke	n	n/a
602.782	0.074	1205564	keystroke	n	n/a
602.946	0.1055	1205892	keystroke	o	n/a
603.036	0.09	1206072	keystroke	n	n/a
603.1415	0.0595	1206283	keystroke	Key.space	n/a
603.351	0.076	1206702	keystroke	s	n/a
