onset	duration	sample	value	key	prompt_text
5.3905	17.381	10781	prompt	n/a	the quick brown fox jumps over a lazy dog\n
6.8875	0.028	13775	keystroke_t	t	n/a
6.9005	0.0755	13801	keystroke_h	h	n/a
7.111	0.0295	14222	keystroke_e	e	n/a
7.411	0.0595	14822	keystroke_Key.space	Key.space	n/a
7.5605	0.09	15121	keystroke_q	q	n/a
7.6355	0.0605	15271	keystroke_u	u	n/a
7.906	0.09	15812	keystroke_i	i	n/a
8.0255	0.075	16051	keystroke_c	c	n/a
8.176	0.015	16352	keystroke_k	k	n/a
8.3855	0.0755	16771	keystroke_Key.space	Key.space	n/a
8.5655	0.105	17131	keystroke_b	b	n/a
8.7605	0.0755	17521	keystroke_o	o	n/a
8.8655	0.0755	17731	keystroke_r	r	n/a
9.06	0.077	18120	keystroke_n	n	n/a
9.0755	0.09	18151	keystroke_w	w	n/a
9.496	0.0445	18992	keystroke_Key.backspace	Key.backspace	n/a
9.631	0.045	19262	keystroke_Key.backspace	Key.backspace	n/a
9.7655	0.0755	19531	keystroke_Key.backspace	Key.backspace	n/a
10.381	0.1045	20762	keystroke_Key.backspace	Key.backspace	n/a
10.5015	0.0445	21003	keystroke_r	r	n/a
10.6215	0.074	21243	keystroke_o	o	n/a
10.7105	0.0755	21421	keystroke_w	w	n/a
10.816	0.0755	21632	keystroke_n	n	n/a
11.026	0.075	22052	keystroke_Key.space	Key.space	n/a
11.5805	0.0755	23161	keystroke_f	f	n/a
11.672	0.074	23344	keystroke_o	o	n/a
12.196	0.0755	24392	keystroke_x	x	n/a
12.331	0.075	24662	keystroke_Key.space	Key.space	n/a
12.6755	0.06	25351	keystroke_f	f	n/a
12.751	0.0445	25502	keystroke_u	u	n/a
12.9915	0.089	25983	keystroke_m	m	n/a
13.1105	0.091	26221	keystroke_p	p	n/a
13.231	0.0895	26462	keystroke_s	s	n/a
13.3505	0.0755	26701	keystroke_Key.space	Key.space	n/a
13.486	0.0895	26972	keystroke_o	o	n/a
13.6355	0.0755	27271	keystroke_v	v	n/a
13.786	0.1045	27572	keystroke_e	e	n/a
13.846	0.105	27692	keystroke_r	r	n/a
13.92	0.076	27840	keystroke_Key.space	Key.space	n/a
14.1005	0.0755	28201	keystroke_Key.backspace	Key.backspace	n/a
14.281	0.045	28562	keystroke_Key.backspace	Key.backspace	n/a
14.416	0.0595	28832	keystroke_Key.backspace	Key.backspace	n/a
14.566	0.0595	29132	keystroke_Key.backspace	Key.backspace	n/a
14.716	0.06	29432	keystroke_Key.backspace	Key.backspace	n/a
14.8655	0.045	29731	keystroke_Key.backspace	Key.backspace	n/a
15.0155	0.045	30031	keystroke_Key.backspace	Key.backspace	n/a
15.151	0.06	30302	keystroke_Key.backspace	Key.backspace	n/a
15.286	0.0595	30572	keystroke_Key.backspace	Key.backspace	n/a
15.436	0.0745	30872	keystroke_Key.backspace	Key.backspace	n/a
15.901	0.06	31802	keystroke_Key.backspace	Key.backspace	n/a
16.3055	0.075	32611	keystroke_j	j	n/a
16.5455	0.03	33091	keystroke_u	u	n/a
17.2205	0.0755	34441	keystroke_m	m	n/a
17.461	0.09	34922	keystroke_p	p	n/a
17.686	0.0745	35372	keystroke_s	s	n/a
17.7905	0.075	35581	keystroke_Key.space	Key.space	n/a
18.4355	0.105	36871	keystroke_o	o	n/a
18.6155	0.1055	37231	keystroke_v	v	n/a
18.766	0.1355	37532	keystroke_e	e	n/a
18.8565	0.0895	37713	keystroke_r	r	n/a
18.9305	0.09	37861	keystroke_Key.space	Key.space	n/a
19.1855	0.0905	38371	keystroke_Key.space	Key.space	n/a
19.6955	0.0755	39391	keystroke_Key.backspace	Key.backspace	n/a
19.936	0.0755	39872	keystroke_a	a	n/a
20.4615	0.104	40923	keystroke_Key.space	Key.space	n/a
20.851	0.0895	41702	keystroke_l	l	n/a
20.9855	0.0755	41971	keystroke_a	a	n/a
21.2265	0.1195	42453	keystroke_z	z	n/a
21.361	0.0595	42722	keystroke_y	y	n/a
21.466	0.105	42932	keystroke_Key.space	Key.space	n/a
21.6315	0.074	43263	keystroke_g	g	n/a
21.7515	0.0745	43503	keystroke_o	o	n/a
22.0365	0.0595	44073	keystroke_Key.backspace	Key.backspace	n/a
22.2005	0.061	44401	keystroke_Key.backspace	Key.backspace	n/a
22.291	0.1205	44582	keystroke_d	d	n/a
22.4265	0.075	44853	keystroke_o	o	n/a
22.516	0.0605	45032	keystroke_g	g	n/a
22.6655	0.09	45331	keystroke_Key.enter	Key.enter	n/a
22.7825	5.932	45565	prompt	n/a	anger fork screw pepper\n
23.5365	0.045	47073	keystroke_a	a	n/a
23.5965	0.015	47193	keystroke_n	n	n/a
23.6555	0.0605	47311	keystroke_g	g	n/a
23.8355	0.0755	47671	keystroke_e	e	n/a
23.881	0.0755	47762	keystroke_r	r	n/a
23.9865	0.1045	47973	keystroke_Key.space	Key.space	n/a
24.226	0.09	48452	keystroke_f	f	n/a
24.3615	0.074	48723	keystroke_o	o	n/a
24.466	0.0605	48932	keystroke_r	r	n/a
24.6165	0.15	49233	keystroke_m	m	n/a
24.9305	0.0605	49861	keystroke_Key.space	Key.space	n/a
25.2455	0.061	50491	keystroke_Key.backspace	Key.backspace	n/a
25.4105	0.0605	50821	keystroke_Key.backspace	Key.backspace	n/a
25.636	0.0895	51272	keystroke_k	k	n/a
25.891	0.06	51782	keystroke_Key.space	Key.space	n/a
26.3415	0.1345	52683	keystroke_s	s	n/a
26.431	0.105	52862	keystroke_c	c	n/a
26.612	0.0885	53224	keystroke_r	r	n/a
26.8065	0.149	53613	keystroke_e	e	n/a
26.9415	0.105	53883	keystroke_w	w	n/a
27.1215	0.09	54243	keystroke_Key.space	Key.space	n/a
27.646	0.089	55292	keystroke_p	p	n/a
27.8255	0.1355	55651	keystroke_e	e	n/a
27.901	0.165	55802	keystroke_r	r	n/a
28.2155	0.045	56431	keystroke_p	p	n/a
28.381	0.045	56762	keystroke_p	p	n/a
28.456	0.121	56912	keystroke_e	e	n/a
28.5605	0.06	57121	keystroke_r	r	n/a
28.6355	0.0755	57271	keystroke_Key.enter	Key.enter	n/a
28.749	17.141	57498	prompt	n/a	soldier individual paying outputs\n
30.016	0.075	60032	keystroke_s	s	n/a
30.092	0.059	60184	keystroke_o	o	n/a
30.271	0.091	60542	keystroke_l	l	n/a
30.3465	0.0745	60693	keystroke_f	f	n/a
30.4515	0.06	60903	keystroke_i	i	n/a
30.5565	0.12	61113	keystroke_e	e	n/a
30.616	0.105	61232	keystroke_r	r	n/a
30.9165	0.06	61833	keystroke_Key.backspace	Key.backspace	n/a
31.1115	0.015	62223	keystroke_Key.backspace	Key.backspace	n/a
31.2465	0.044	62493	keystroke_Key.backspace	Key.backspace	n/a
31.456	0.015	62912	keystroke_Key.backspace	Key.backspace	n/a
31.531	0.1055	63062	keystroke_d	d	n/a
31.6515	0.089	63303	keystroke_i	i	n/a
31.7715	0.1195	63543	keystroke_e	e	n/a
31.831	0.1205	63662	keystroke_r	r	n/a
32.371	0.09	64742	keystroke_Key.space	Key.space	n/a
32.746	0.105	65492	keystroke_s	s	n/a
33.3155	0.0755	66631	keystroke_Key.backspace	Key.backspace	n/a
33.5415	0.15	67083	keystroke_i	i	n/a
33.7215	0.119	67443	keystroke_n	n	n/a
33.931	0.075	67862	keystroke_v	v	n/a
34.036	0.075	68072	keystroke_i	i	n/a
34.1865	0.0445	68373	keystroke_d	d	n/a
34.276	0.075	68552	keystroke_i	i	n/a
34.562	0.0445	69124	keystroke_u	u	n/a
34.6505	0.076	69301	keystroke_a	a	n/a
34.8315	0.12	69663	keystroke_l	l	n/a
35.0565	0.09	70113	keystroke_Key.space	Key.space	n/a
35.7155	0.06	71431	keystroke_Key.backspace	Key.backspace	n/a
35.8665	0.0595	71733	keystroke_Key.backspace	Key.backspace	n/a
36.016	0.075	72032	keystroke_Key.backspace	Key.backspace	n/a
36.166	0.09	72332	keystroke_Key.backspace	Key.backspace	n/a
36.3305	0.106	72661	keystroke_Key.backspace	Key.backspace	n/a
37.666	0.12	75332	keystroke_d	d	n/a
37.8465	0.0745	75693	keystroke_u	u	n/a
37.9515	0.105	75903	keystroke_a	a	n/a
38.042	0.0745	76084	keystroke_l	l	n/a
38.2215	0.06	76443	keystroke_Key.space	Key.space	n/a
38.806	0.06	77612	keystroke_Key.backspace	Key.backspace	n/a
38.9715	0.0595	77943	keystroke_Key.backspace	Key.backspace	n/a
39.121	0.12	78242	keystroke_Key.backspace	Key.backspace	n/a
39.3765	0.12	78753	keystroke_Key.backspace	Key.backspace	n/a
39.541	0.1355	79082	keystroke_Key.backspace	Key.backspace	n/a
39.781	0.0605	79562	keystroke_Key.backspace	Key.backspace	n/a
39.931	0.075	79862	keystroke_Key.backspace	Key.backspace	n/a
40.081	0.0755	80162	keystroke_Key.backspace	Key.backspace	n/a
40.4565	0.075	80913	keystroke_d	d	n/a
40.741	0.105	81482	keystroke_i	i	n/a
40.9065	0.09	81813	keystroke_v	v	n/a
41.056	0.0755	82112	keystroke_i	i	n/a
41.2515	0.074	82503	keystroke_d	d	n/a
41.402	0.045	82804	keystroke_u	u	n/a
41.522	0.089	83044	keystroke_a	a	n/a
41.596	0.1205	83192	keystroke_l	l	n/a
41.8365	0.0895	83673	keystroke_Key.space	Key.space	n/a
42.916	0.09	85832	keystroke_p	p	n/a
43.096	0.09	86192	keystroke_a	a	n/a
43.4265	0.0605	86853	keystroke_y	y	n/a
43.786	0.075	87572	keystroke_i	i	n/a
43.921	0.0905	87842	keystroke_n	n	n/a
44.0265	0.075	88053	keystroke_g	g	n/a
44.1305	0.09	88261	keystroke_Key.space	Key.space	n/a
44.3415	0.0905	88683	keystroke_o	o	n/a
44.581	0.0455	89162	keystroke_u	u	n/a
44.6415	0.09	89283	keystroke_t	t	n/a
44.9265	0.0905	89853	keystroke_p	p	n/a
45.226	0.0755	90452	keystroke_u	u	n/a
45.3305	0.121	90661	keystroke_t	t	n/a
45.4365	0.089	90873	keystroke_s	s	n/a
45.8115	0.0745	91623	keystroke_Key.enter	Key.enter	n/a
45.902	7.966	91804	prompt	n/a	addiction malawi already nokia\n
46.4565	0.0605	92913	keystroke_s	s	n/a
46.8005	0.061	93601	keystroke_Key.backspace	Key.backspace	n/a
46.876	0.1055	93752	keystroke_a	a	n/a
46.997	0.0895	93994	keystroke_d	d	n/a
47.1615	0.0895	94323	keystroke_d	d	n/a
47.2815	0.0745	94563	keystroke_i	i	n/a
47.372	0.09	94744	keystroke_c	c	n/a
47.6115	0.075	95223	keystroke_t	t	n/a
47.7015	0.225	95403	keystroke_i	i	n/a
47.8065	0.18	95613	keystroke_o	o	n/a
47.9415	0.12	95883	keystroke_n	n	n/a
48.091	0.09	96182	keystroke_Key.space	Key.space	n/a
48.5565	0.06	97113	keystroke_m	m	n/a
48.7065	0.09	97413	keystroke_a	a	n/a
48.8265	0.105	97653	keystroke_l	l	n/a
49.0065	0.06	98013	keystroke_a	a	n/a
49.801	0.12	99602	keystroke_w	w	n/a
50.207	0.09	100414	keystroke_i	i	n/a
50.401	0.09	100802	keystroke_Key.space	Key.space	n/a
51.407	0.074	102814	keystroke_a	a	n/a
51.526	0.106	103052	keystroke_;	;	n/a
51.902	0.1205	103804	keystroke_r	r	n/a
51.9915	0.12	103983	keystroke_e	e	n/a
52.1265	0.1355	104253	keystroke_a	a	n/a
52.247	0.075	104494	keystroke_d	d	n/a
52.5015	0.06	105003	keystroke_y	y	n/a
52.606	0.105	105212	keystroke_Key.space	Key.space	n/a
53.072	0.09	106144	keystroke_n	n	n/a
53.2065	0.105	106413	keystroke_o	o	n/a
53.4015	0.075	106803	keystroke_k	k	n/a
53.582	0.06	107164	keystroke_i	i	n/a
53.657	0.089	107314	keystroke_a	a	n/a
53.806	0.0605	107612	keystroke_Key.enter	Key.enter	n/a
53.8855	7.3025	107771	prompt	n/a	favorites quote moisture isbn\n
54.617	0.0895	109234	keystroke_f	f	n/a
54.7515	0.0755	109503	keystroke_o	o	n/a
55.651	0.06	111302	keystroke_Key.backspace	Key.backspace	n/a
55.7415	0.105	111483	keystroke_a	a	n/a
55.816	0.12	111632	keystroke_v	v	n/a
55.9215	0.0745	111843	keystroke_o	o	n/a
56.1015	0.089	112203	keystroke_r	r	n/a
56.2065	0.075	112413	keystroke_i	i	n/a
56.326	0.135	112652	keystroke_t	t	n/a
56.4315	0.1205	112863	keystroke_e	e	n/a
56.626	0.0905	113252	keystroke_Key.space	Key.space	n/a
57.0315	0.1195	114063	keystroke_q	q	n/a
57.362	0.105	114724	keystroke_u	u	n/a
57.4815	0.135	114963	keystroke_o	o	n/a
57.6015	0.1345	115203	keystroke_t	t	n/a
57.9465	0.09	115893	keystroke_e	e	n/a
58.1415	0.075	116283	keystroke_Key.space	Key.space	n/a
58.487	0.059	116974	keystroke_m	m	n/a
58.666	0.1205	117332	keystroke_o	o	n/a
58.816	0.09	117632	keystroke_i	i	n/a
58.951	0.1805	117902	keystroke_s	s	n/a
59.1475	0.1185	118295	keystroke_t	t	n/a
59.356	0.105	118712	keystroke_u	u	n/a
59.491	0.135	118982	keystroke_r	r	n/a
59.581	0.0905	119162	keystroke_e	e	n/a
59.686	0.075	119372	keystroke_Key.space	Key.space	n/a
60.2115	0.0605	120423	keystroke_i	i	n/a
60.316	0.15	120632	keystroke_s	s	n/a
60.616	0.045	121232	keystroke_b	b	n/a
60.7965	0.0445	121593	keystroke_n	n	n/a
61.156	0.0305	122312	keystroke_Key.enter	Key.enter	n/a
61.1965	7.1765	122393	prompt	n/a	forum southern barcelona kinase\n
61.996	0.075	123992	keystroke_f	f	n/a
62.101	0.09	124202	keystroke_o	o	n/a
62.281	0.06	124562	keystroke_r	r	n/a
62.4765	0.0595	124953	keystroke_u	u	n/a
62.8965	0.1205	125793	keystroke_m	m	n/a
63.121	0.09	126242	keystroke_Key.space	Key.space	n/a
63.286	0.0755	126572	keystroke_s	s	n/a
63.376	0.0755	126752	keystroke_o	o	n/a
63.541	0.0605	127082	keystroke_t	t	n/a
63.8705	0.0155	127741	keystroke_Key.backspace	Key.backspace	n/a
64.0665	0.075	128133	keystroke_u	u	n/a
64.1425	0.059	128285	keystroke_t	t	n/a
64.561	0.0905	129122	keystroke_h	h	n/a
64.6365	0.1645	129273	keystroke_e	e	n/a
64.7265	0.1045	129453	keystroke_r	r	n/a
64.922	0.06	129844	keystroke_n	n	n/a
65.0865	0.074	130173	keystroke_Key.space	Key.space	n/a
65.6265	0.0595	131253	keystroke_b	b	n/a
65.716	0.1055	131432	keystroke_a	a	n/a
65.7765	0.105	131553	keystroke_r	r	n/a
66.017	0.134	132034	keystroke_c	c	n/a
66.136	0.0905	132272	keystroke_e	e	n/a
66.211	0.061	132422	keystroke_l	l	n/a
66.391	0.075	132782	keystroke_o	o	n/a
66.556	0.0895	133112	keystroke_n	n	n/a
66.7065	0.0895	133413	keystroke_a	a	n/a
67.0515	0.06	134103	keystroke_Key.space	Key.space	n/a
67.2165	0.09	134433	keystroke_k	k	n/a
67.4265	0.045	134853	keystroke_i	i	n/a
67.5465	0.1055	135093	keystroke_n	n	n/a
67.8755	0.106	135751	keystroke_a	a	n/a
68.0265	0.195	136053	keystroke_s	s	n/a
68.1465	0.12	136293	keystroke_e	e	n/a
68.326	0.045	136652	keystroke_Key.enter	Key.enter	n/a
68.3785	12.355	136757	prompt	n/a	corrected preparing they'd pediatric\n
69.466	0.0905	138932	keystroke_c	c	n/a
69.571	0.06	139142	keystroke_o	o	n/a
69.737	0.0595	139474	keystroke_o	o	n/a
69.826	0.09	139652	keystroke_r	r	n/a
69.9765	0.1195	139953	keystroke_e	e	n/a
70.246	0.06	140492	keystroke_Key.backspace	Key.backspace	n/a
70.396	0.0605	140792	keystroke_Key.backspace	Key.backspace	n/a
70.561	0.0755	141122	keystroke_Key.backspace	Key.backspace	n/a
70.592	0.1345	141184	keystroke_r	r	n/a
70.7865	0.105	141573	keystroke_e	e	n/a
71.191	0.045	142382	keystroke_Key.backspace	Key.backspace	n/a
71.282	0.134	142564	keystroke_r	r	n/a
71.4015	0.1195	142803	keystroke_e	e	n/a
71.611	0.076	143222	keystroke_c	c	n/a
71.792	0.0895	143584	keystroke_t	t	n/a
71.8665	0.105	143733	keystroke_e	e	n/a
72.0755	0.075	144151	keystroke_d	d	n/a
72.2255	0.0915	144451	keystroke_Key.space	Key.space	n/a
72.422	0.104	144844	keystroke_o	o	n/a
72.631	0.151	145262	keystroke_r	r	n/a
72.752	0.135	145504	keystroke_e	e	n/a
73.201	0.09	146402	keystroke_Key.backspace	Key.backspace	n/a
73.3665	0.074	146733	keystroke_Key.backspace	Key.backspace	n/a
73.9215	0.074	147843	keystroke_Key.backspace	Key.backspace	n/a
74.2065	0.105	148413	keystroke_p	p	n/a
74.2965	0.135	148593	keystroke_r	r	n/a
74.3865	0.1045	148773	keystroke_e	e	n/a
74.551	0.0755	149102	keystroke_p	p	n/a
74.762	0.1045	149524	keystroke_a	a	n/a
74.837	0.1045	149674	keystroke_r	r	n/a
75.0165	0.1045	150033	keystroke_i	i	n/a
75.241	0.0905	150482	keystroke_n	n	n/a
75.3605	0.075	150721	keystroke_g	g	n/a
75.4805	0.106	150961	keystroke_Key.space	Key.space	n/a
76.171	0.09	152342	keystroke_t	t	n/a
76.276	0.076	152552	keystroke_h	h	n/a
76.3815	0.09	152763	keystroke_e	e	n/a
76.921	0.06	153842	keystroke_y	y	n/a
77.386	0.0605	154772	keystroke_'	'	n/a
77.4615	0.075	154923	keystroke_d	d	n/a
77.851	0.0905	155702	keystroke_Key.space	Key.space	n/a
78.376	0.0755	156752	keystroke_p	p	n/a
78.5715	0.165	157143	keystroke_e	e	n/a
79.0065	0.0895	158013	keystroke_d	d	n/a
79.126	0.075	158252	keystroke_i	i	n/a
79.501	0.105	159002	keystroke_a	a	n/a
79.561	0.135	159122	keystroke_t	t	n/a
79.876	0.045	159752	keystroke_i	i	n/a
80.161	0.045	160322	keystroke_Key.backspace	Key.backspace	n/a
80.2665	0.06	160533	keystroke_r	r	n/a
80.371	0.0905	160742	keystroke_i	i	n/a
80.5365	0.074	161073	keystroke_c	c	n/a
80.6715	0.06	161343	keystroke_Key.enter	Key.enter	n/a
80.7385	8.3045	161477	prompt	n/a	reproduce poverty pressing happy\n
81.602	0.134	163204	keystroke_r	r	n/a
81.706	0.0905	163412	keystroke_e	e	n/a
81.976	0.0755	163952	keystroke_p	p	n/a
82.1115	0.1045	164223	keystroke_r	r	n/a
82.2765	0.0745	164553	keystroke_o	o	n/a
82.501	0.09	165002	keystroke_d	d	n/a
82.9065	0.0895	165813	keystroke_u	u	n/a
83.027	0.1195	166054	keystroke_c	c	n/a
83.1165	0.105	166233	keystroke_e	e	n/a
83.2515	0.09	166503	keystroke_Key.space	Key.space	n/a
83.6265	0.0895	167253	keystroke_p	p	n/a
83.821	0.1055	167642	keystroke_o	o	n/a
84.3455	0.091	168691	keystroke_v	v	n/a
84.511	0.12	169022	keystroke_e	e	n/a
84.5715	0.105	169143	keystroke_r	r	n/a
84.826	0.075	169652	keystroke_t	t	n/a
84.961	0.075	169922	keystroke_y	y	n/a
85.1415	0.0745	170283	keystroke_Key.space	Key.space	n/a
85.5765	0.105	171153	keystroke_p	p	n/a
85.6665	0.105	171333	keystroke_r	r	n/a
86.056	0.09	172112	keystroke_s	s	n/a
86.4005	0.075	172801	keystroke_Key.backspace	Key.backspace	n/a
86.4915	0.135	172983	keystroke_e	e	n/a
86.641	0.0905	173282	keystroke_s	s	n/a
86.8215	0.104	173643	keystroke_s	s	n/a
87.016	0.135	174032	keystroke_i	i	n/a
87.2255	0.121	174451	keystroke_n	n	n/a
87.4365	0.059	174873	keystroke_g	g	n/a
87.571	0.12	175142	keystroke_Key.space	Key.space	n/a
88.1405	0.03	176281	keystroke_h	h	n/a
88.2455	0.121	176491	keystroke_a	a	n/a
88.561	0.0605	177122	keystroke_p	p	n/a
88.726	0.0455	177452	keystroke_p	p	n/a
88.8315	0.06	177663	keystroke_y	y	n/a
88.981	0.06	177962	keystroke_Key.enter	Key.enter	n/a
89.0545	10.5635	178109	prompt	n/a	remind dash political contributing\n
89.791	0.1355	179582	keystroke_r	r	n/a
89.8965	0.105	179793	keystroke_e	e	n/a
90.0465	0.075	180093	keystroke_m	m	n/a
90.436	0.0595	180872	keystroke_Key.backspace	Key.backspace	n/a
90.707	0.0595	181414	keystroke_m	m	n/a
90.916	0.045	181832	keystroke_i	i	n/a
91.081	0.0905	182162	keystroke_n	n	n/a
91.246	0.061	182492	keystroke_d	d	n/a
91.381	0.0895	182762	keystroke_Key.space	Key.space	n/a
91.7265	0.0895	183453	keystroke_d	d	n/a
91.996	0.1655	183992	keystroke_a	a	n/a
92.1165	0.12	184233	keystroke_s	s	n/a
92.2965	0.12	184593	keystroke_h	h	n/a
92.5215	0.075	185043	keystroke_Key.space	Key.space	n/a
93.3455	0.091	186691	keystroke_p	p	n/a
93.5415	0.089	187083	keystroke_o	o	n/a
93.886	0.06	187772	keystroke_l	l	n/a
94.0215	0.075	188043	keystroke_i	i	n/a
94.1115	0.06	188223	keystroke_t	t	n/a
94.2465	0.09	188493	keystroke_i	i	n/a
94.3655	0.151	188731	keystroke_c	c	n/a
94.5175	0.089	189035	keystroke_a	a	n/a
94.667	0.09	189334	keystroke_l	l	n/a
94.846	0.1055	189692	keystroke_Key.space	Key.space	n/a
95.2505	0.106	190501	keystroke_c	c	n/a
95.3415	0.1355	190683	keystroke_o	o	n/a
95.5065	0.09	191013	keystroke_n	n	n/a
95.6715	0.1345	191343	keystroke_t	t	n/a
95.776	0.1055	191552	keystroke_r	r	n/a
95.8965	0.1045	191793	keystroke_i	i	n/a
96.1065	0.075	192213	keystroke_b	b	n/a
96.6165	0.1195	193233	keystroke_Key.backspace	Key.backspace	n/a
97.696	0.1055	195392	keystroke_b	b	n/a
97.8615	0.15	195723	keystroke_i	i	n/a
98.431	0.075	196862	keystroke_Key.backspace	Key.backspace	n/a
98.6415	0.06	197283	keystroke_u	u	n/a
98.761	0.075	197522	keystroke_t	t	n/a
98.896	0.105	197792	keystroke_i	i	n/a
98.9865	0.0605	197973	keystroke_n	n	n/a
99.061	0.06	198122	keystroke_g	g	n/a
99.5405	0.076	199081	keystroke_Key.enter	Key.enter	n/a
99.622	8.4705	199244	prompt	n/a	listed london when's previously\n
100.351	0.0905	200702	keystroke_l	l	n/a
100.5455	0.075	201091	keystroke_i	i	n/a
100.6215	0.1345	201243	keystroke_s	s	n/a
100.711	0.1645	201422	keystroke_t	t	n/a
100.816	0.1055	201632	keystroke_e	e	n/a
101.0255	0.06	202051	keystroke_d	d	n/a
101.6565	0.1045	203313	keystroke_Key.backspace	Key.backspace	n/a
101.986	0.105	203972	keystroke_d	d	n/a
102.181	0.1055	204362	keystroke_Key.space	Key.space	n/a
102.541	0.0905	205082	keystroke_l	l	n/a
102.796	0.075	205592	keystroke_o	o	n/a
103.006	0.06	206012	keystroke_n	n	n/a
103.321	0.0455	206642	keystroke_d	d	n/a
103.4265	0.0745	206853	keystroke_o	o	n/a
103.607	0.0595	207214	keystroke_n	n	n/a
103.7565	0.09	207513	keystroke_Key.space	Key.space	n/a
104.0865	0.0745	208173	keystroke_w	w	n/a
104.2065	0.045	208413	keystroke_h	h	n/a
104.2965	0.0905	208593	keystroke_e	e	n/a
104.4305	0.061	208861	keystroke_n	n	n/a
104.611	0.091	209222	keystroke_'	'	n/a
104.777	0.045	209554	keystroke_s	s	n/a
104.9265	0.12	209853	keystroke_Key.space	Key.space	n/a
105.5265	0.06	211053	keystroke_p	p	n/a
105.6615	0.1345	211323	keystroke_r	r	n/a
105.7665	0.12	211533	keystroke_e	e	n/a
106.0515	0.0745	212103	keystroke_v	v	n/a
106.1865	0.09	212373	keystroke_i	i	n/a
106.381	0.12	212762	keystroke_o	o	n/a
106.621	0.091	213242	keystroke_u	u	n/a
106.9655	0.031	213931	keystroke_d	d	n/a
107.341	0.075	214682	keystroke_Key.backspace	Key.backspace	n/a
107.5365	0.045	215073	keystroke_s	s	n/a
107.6415	0.135	215283	keystroke_l	l	n/a
107.8215	0.074	215643	keystroke_y	y	n/a
108.0305	0.061	216061	keystroke_Key.enter	Key.enter	n/a
108.0965	9.161	216193	prompt	n/a	hydraulic surgical fifty chairs\n
109.067	0.015	218134	keystroke_h	h	n/a
109.216	0.06	218432	keystroke_r	r	n/a
109.5615	0.06	219123	keystroke_Key.backspace	Key.backspace	n/a
110.0565	0.045	220113	keystroke_y	y	n/a
110.236	0.105	220472	keystroke_d	d	n/a
110.311	0.135	220622	keystroke_r	r	n/a
110.6415	0.075	221283	keystroke_a	a	n/a
110.8365	0.075	221673	keystroke_u	u	n/a
110.956	0.1195	221912	keystroke_l	l	n/a
111.1665	0.06	222333	keystroke_i	i	n/a
111.3765	0.0895	222753	keystroke_c	c	n/a
111.646	0.105	223292	keystroke_Key.space	Key.space	n/a
111.826	0.0905	223652	keystroke_s	s	n/a
111.992	0.0745	223984	keystroke_u	u	n/a
112.081	0.075	224162	keystroke_r	r	n/a
112.5315	0.0745	225063	keystroke_g	g	n/a
112.651	0.0605	225302	keystroke_i	i	n/a
112.771	0.1355	225542	keystroke_v	v	n/a
112.876	0.1205	225752	keystroke_a	a	n/a
113.2365	0.0745	226473	keystroke_Key.backspace	Key.backspace	n/a
113.416	0.06	226832	keystroke_Key.backspace	Key.backspace	n/a
113.476	0.09	226952	keystroke_c	c	n/a
113.611	0.06	227222	keystroke_a	a	n/a
113.837	0.1345	227674	keystroke_k	k	n/a
114.601	0.09	229202	keystroke_Key.backspace	Key.backspace	n/a
114.9315	0.074	229863	keystroke_l	l	n/a
115.141	0.0895	230282	keystroke_Key.space	Key.space	n/a
115.2465	0.104	230493	keystroke_f	f	n/a
115.411	0.075	230822	keystroke_i	i	n/a
115.591	0.105	231182	keystroke_f	f	n/a
115.816	0.0755	231632	keystroke_t	t	n/a
115.9815	0.075	231963	keystroke_y	y	n/a
116.1315	0.0895	232263	keystroke_Key.space	Key.space	n/a
116.4315	0.0745	232863	keystroke_c	c	n/a
116.536	0.1055	233072	keystroke_h	h	n/a
116.626	0.1055	233252	keystroke_a	a	n/a
116.776	0.0895	233552	keystroke_i	i	n/a
116.8965	0.12	233793	keystroke_r	r	n/a
117.046	0.09	234092	keystroke_s	s	n/a
117.181	0.075	234362	keystroke_Key.enter	Key.enter	n/a
117.2675	6.05	234535	prompt	n/a	count tutorials adapter frames\n
117.9915	0.1195	235983	keystroke_c	c	n/a
118.096	0.18	236192	keystroke_o	o	n/a
118.321	0.045	236642	keystroke_u	u	n/a
118.501	0.075	237002	keystroke_n	n	n/a
118.591	0.09	237182	keystroke_t	t	n/a
118.6965	0.135	237393	keystroke_Key.space	Key.space	n/a
119.162	0.0885	238324	keystroke_t	t	n/a
119.3565	0.0595	238713	keystroke_u	u	n/a
119.461	0.06	238922	keystroke_t	t	n/a
119.716	0.0905	239432	keystroke_o	o	n/a
120.016	0.105	240032	keystroke_r	r	n/a
120.1365	0.1045	240273	keystroke_i	i	n/a
120.286	0.09	240572	keystroke_a	a	n/a
120.421	0.105	240842	keystroke_l	l	n/a
120.5715	0.0745	241143	keystroke_s	s	n/a
120.721	0.0755	241442	keystroke_Key.space	Key.space	n/a
120.9305	0.1805	241861	keystroke_a	a	n/a
121.1115	0.1195	242223	keystroke_d	d	n/a
121.2605	0.0905	242521	keystroke_a	a	n/a
121.4405	0.06	242881	keystroke_p	p	n/a
121.6355	0.106	243271	keystroke_t	t	n/a
121.7565	0.135	243513	keystroke_e	e	n/a
121.8315	0.105	243663	keystroke_r	r	n/a
122.0105	0.105	244021	keystroke_Key.space	Key.space	n/a
122.3565	0.075	244713	keystroke_f	f	n/a
122.506	0.1055	245012	keystroke_r	r	n/a
122.6565	0.075	245313	keystroke_a	a	n/a
122.7015	0.105	245403	keystroke_m	m	n/a
122.941	0.1505	245882	keystroke_e	e	n/a
123.0465	0.0905	246093	keystroke_s	s	n/a
123.256	0.06	246512	keystroke_Key.enter	Key.enter	n/a
123.3265	8.2855	246653	prompt	n/a	coach despite desirable stays\n
124.156	0.075	248312	keystroke_c	c	n/a
124.276	0.105	248552	keystroke_o	o	n/a
124.456	0.12	248912	keystroke_a	a	n/a
124.621	0.105	249242	keystroke_c	c	n/a
124.711	0.09	249422	keystroke_h	h	n/a
124.846	0.12	249692	keystroke_Key.space	Key.space	n/a
125.446	0.1055	250892	keystroke_d	d	n/a
125.6415	0.089	251283	keystroke_e	e	n/a
125.7755	0.12	251551	keystroke_p	p	n/a
125.9705	0.1355	251941	keystroke_s	s	n/a
126.4055	0.1055	252811	keystroke_Key.backspace	Key.backspace	n/a
126.571	0.15	253142	keystroke_Key.backspace	Key.backspace	n/a
126.736	0.1055	253472	keystroke_s	s	n/a
126.9015	0.105	253803	keystroke_p	p	n/a
127.1265	0.104	254253	keystroke_i	i	n/a
127.321	0.15	254642	keystroke_t	t	n/a
127.441	0.09	254882	keystroke_e	e	n/a
127.636	0.075	255272	keystroke_d	d	n/a
128.0115	0.0735	256023	keystroke_Key.backspace	Key.backspace	n/a
128.251	0.0895	256502	keystroke_Key.space	Key.space	n/a
128.582	0.089	257164	keystroke_d	d	n/a
128.7615	0.1195	257523	keystroke_e	e	n/a
128.941	0.09	257882	keystroke_s	s	n/a
129.0765	0.0745	258153	keystroke_i	i	n/a
129.496	0.166	258992	keystroke_r	r	n/a
129.647	0.149	259294	keystroke_a	a	n/a
129.781	0.075	259562	keystroke_b	b	n/a
129.931	0.0755	259862	keystroke_l	l	n/a
130.021	0.075	260042	keystroke_e	e	n/a
130.126	0.09	260252	keystroke_Key.space	Key.space	n/a
130.5455	0.1065	261091	keystroke_t	t	n/a
130.831	0.075	261662	keystroke_Key.backspace	Key.backspace	n/a
130.891	0.165	261782	keystroke_s	s	n/a
131.012	0.134	262024	keystroke_t	t	n/a
131.161	0.105	262322	keystroke_a	a	n/a
131.267	0.059	262534	keystroke_y	y	n/a
131.401	0.075	262802	keystroke_s	s	n/a
131.536	0.075	263072	keystroke_Key.enter	Key.enter	n/a
131.628	19.1995	263256	prompt	n/a	brief transition gonna keyboards\n
132.481	0.06	264962	keystroke_b	b	n/a
132.5555	0.091	265111	keystroke_r	r	n/a
132.661	0.0895	265322	keystroke_i	i	n/a
132.7655	0.076	265531	keystroke_e	e	n/a
133.1115	0.0605	266223	keystroke_d	d	n/a
133.756	0.1345	267512	keystroke_f	f	n/a
133.906	0.0145	267812	keystroke_Key.backspace	Key.backspace	n/a
134.5365	0.074	269073	keystroke_Key.backspace	Key.backspace	n/a
134.672	0.0735	269344	keystroke_f	f	n/a
134.8355	0.12	269671	keystroke_Key.space	Key.space	n/a
135.226	0.1955	270452	keystroke_t	t	n/a
135.346	0.1805	270692	keystroke_r	r	n/a
135.482	0.135	270964	keystroke_a	a	n/a
135.631	0.135	271262	keystroke_i	i	n/a
135.721	0.1205	271442	keystroke_n	n	n/a
135.9015	0.0895	271803	keystroke_s	s	n/a
136.0355	0.076	272071	keystroke_i	i	n/a
136.1865	0.074	272373	keystroke_t	t	n/a
136.2765	0.165	272553	keystroke_i	i	n/a
136.3805	0.1805	272761	keystroke_o	o	n/a
136.546	0.1055	273092	keystroke_n	n	n/a
136.6965	0.104	273393	keystroke_Key.space	Key.space	n/a
136.9955	0.045	273991	keystroke_g	g	n/a
137.0705	0.1055	274141	keystroke_o	o	n/a
137.2505	0.075	274501	keystroke_n	n	n/a
137.4315	0.06	274863	keystroke_n	n	n/a
137.5355	0.075	275071	keystroke_a	a	n/a
137.626	0.0745	275252	keystroke_Key.space	Key.space	n/a
138.0015	0.0745	276003	keystroke_b	b	n/a
138.1515	0.1045	276303	keystroke_e	e	n/a
138.391	0.015	276782	keystroke_y	y	n/a
139.201	0.06	278402	keystroke_Key.backspace	Key.backspace	n/a
139.336	0.0905	278672	keystroke_Key.backspace	Key.backspace	n/a
139.756	0.06	279512	keystroke_Key.backspace	Key.backspace	n/a
140.461	0.06	280922	keystroke_Key.backspace	Key.backspace	n/a
140.611	0.0605	281222	keystroke_Key.backspace	Key.backspace	n/a
140.7615	0.074	281523	keystroke_Key.backspace	Key.backspace	n/a
140.9105	0.075	281821	keystroke_Key.backspace	Key.backspace	n/a
141.0905	0.061	282181	keystroke_Key.backspace	Key.backspace	n/a
141.2565	0.044	282513	keystroke_Key.backspace	Key.backspace	n/a
141.3905	0.075	282781	keystroke_Key.backspace	Key.backspace	n/a
141.5405	0.075	283081	keystroke_Key.backspace	Key.backspace	n/a
141.7205	0.045	283441	keystroke_Key.backspace	Key.backspace	n/a
141.8705	0.0755	283741	keystroke_Key.backspace	Key.backspace	n/a
142.036	0.075	284072	keystroke_Key.backspace	Key.backspace	n/a
142.231	0.075	284462	keystroke_Key.backspace	Key.backspace	n/a
142.411	0.09	284822	keystroke_Key.backspace	Key.backspace	n/a
142.576	0.09	285152	keystroke_Key.backspace	Key.backspace	n/a
142.786	0.0595	285572	keystroke_Key.backspace	Key.backspace	n/a
143.3555	0.031	286711	keystroke_n	n	n/a
143.521	0.09	287042	keystroke_s	s	n/a
143.626	0.075	287252	keystroke_i	i	n/a
143.746	0.076	287492	keystroke_t	t	n/a
143.836	0.18	287672	keystroke_i	i	n/a
143.956	0.1655	287912	keystroke_o	o	n/a
144.061	0.0455	288122	keystroke_i	i	n/a
144.0915	0.09	288183	keystroke_n	n	n/a
144.2405	0.105	288481	keystroke_Key.space	Key.space	n/a
144.7655	0.0905	289531	keystroke_g	g	n/a
144.901	0.09	289802	keystroke_o	o	n/a
145.096	0.06	290192	keystroke_n	n	n/a
145.591	0.059	291182	keystroke_Key.backspace	Key.backspace	n/a
145.726	0.0755	291452	keystroke_Key.backspace	Key.backspace	n/a
145.876	0.0895	291752	keystroke_Key.backspace	Key.backspace	n/a
146.0405	0.075	292081	keystroke_Key.backspace	Key.backspace	n/a
146.2205	0.075	292441	keystroke_Key.backspace	Key.backspace	n/a
146.386	0.075	292772	keystroke_Key.backspace	Key.backspace	n/a
146.5815	0.0745	293163	keystroke_Key.backspace	Key.backspace	n/a
147.1365	0.134	294273	keystroke_o	o	n/a
147.316	0.0745	294632	keystroke_n	n	n/a
147.5265	0.059	295053	keystroke_Key.space	Key.space	n/a
147.9305	0.091	295861	keystroke_g	g	n/a
148.066	0.075	296132	keystroke_o	o	n/a
148.261	0.0445	296522	keystroke_n	n	n/a
148.426	0.0305	296852	keystroke_n	n	n/a
148.5155	0.1055	297031	keystroke_a	a	n/a
148.6355	0.091	297271	keystroke_Key.space	Key.space	n/a
149.086	0.091	298172	keystroke_k	k	n/a
149.191	0.09	298382	keystroke_e	e	n/a
149.4465	0.0305	298893	keystroke_y	y	n/a
149.7015	0.0745	299403	keystroke_b	b	n/a
149.926	0.0595	299852	keystroke_o	o	n/a
150.091	0.1345	300182	keystroke_a	a	n/a
150.211	0.0745	300422	keystroke_r	r	n/a
150.5415	0.135	301083	keystroke_d	d	n/a
150.647	0.0745	301294	keystroke_s	s	n/a
150.7515	0.074	301503	keystroke_Key.enter	Key.enter	n/a
150.8375	13.13	301675	prompt	n/a	linear tuition liechtenstein gentle\n
151.666	0.075	303332	keystroke_l	l	n/a
151.831	0.06	303662	keystroke_i	i	n/a
151.996	0.075	303992	keystroke_n	n	n/a
152.086	0.21	304172	keystroke_e	e	n/a
152.326	0.06	304652	keystroke_e	e	n/a
152.341	0.18	304682	keystroke_a	a	n/a
152.446	0.15	304892	keystroke_r	r	n/a
152.671	0.075	305342	keystroke_Key.space	Key.space	n/a
152.8215	0.0895	305643	keystroke_t	t	n/a
153.016	0.0745	306032	keystroke_u	u	n/a
153.136	0.0755	306272	keystroke_t	t	n/a
153.2565	0.0595	306513	keystroke_u	u	n/a
153.346	0.075	306692	keystroke_i	i	n/a
153.5555	0.0915	307111	keystroke_t	t	n/a
153.7505	0.3455	307501	keystroke_o	o	n/a
153.8115	0.1645	307623	keystroke_i	i	n/a
154.411	0.06	308822	keystroke_Key.backspace	Key.backspace	n/a
154.546	0.09	309092	keystroke_Key.backspace	Key.backspace	n/a
155.132	0.209	310264	keystroke_o	o	n/a
155.446	0.06	310892	keystroke_Key.backspace	Key.backspace	n/a
155.6105	0.06	311221	keystroke_Key.backspace	Key.backspace	n/a
157.065	0.091	314130	keystroke_Key.backspace	Key.backspace	n/a
157.245	0.0765	314490	keystroke_Key.backspace	Key.backspace	n/a
157.44	0.061	314880	keystroke_Key.backspace	Key.backspace	n/a
158.326	0.0445	316652	keystroke_i	i	n/a
158.4165	0.089	316833	keystroke_t	t	n/a
158.5355	0.2705	317071	keystroke_i	i	n/a
158.626	0.15	317252	keystroke_o	o	n/a
158.761	0.105	317522	keystroke_n	n	n/a
158.9715	0.1045	317943	keystroke_Key.space	Key.space	n/a
159.4965	0.1195	318993	keystroke_l	l	n/a
159.736	0.075	319472	keystroke_i	i	n/a
160.051	0.0745	320102	keystroke_e	e	n/a
160.2915	0.1045	320583	keystroke_c	c	n/a
160.426	0.089	320852	keystroke_h	h	n/a
161.1315	0.1345	322263	keystroke_t	t	n/a
161.281	0.075	322562	keystroke_e	e	n/a
161.4315	0.0895	322863	keystroke_n	n	n/a
161.626	0.06	323252	keystroke_Key.space	Key.space	n/a
161.776	0.105	323552	keystroke_s	s	n/a
161.851	0.135	323702	keystroke_t	t	n/a
162.031	0.105	324062	keystroke_e	e	n/a
162.1515	0.1195	324303	keystroke_i	i	n/a
162.241	0.15	324482	keystroke_n	n	n/a
162.421	0.105	324842	keystroke_Key.space	Key.space	n/a
162.856	0.1205	325712	keystroke_g	g	n/a
162.9615	0.12	325923	keystroke_e	e	n/a
163.0965	0.089	326193	keystroke_n	n	n/a
163.2765	0.0585	326553	keystroke_t	t	n/a
163.6515	0.044	327303	keystroke_l	l	n/a
163.711	0.0455	327422	keystroke_e	e	n/a
163.891	0.075	327782	keystroke_Key.enter	Key.enter	n/a
163.972	12.6715	327944	prompt	n/a	upper observer educational communications\n
166.1425	0.001	332285	keystroke_u	u	n/a
166.441	0.045	332882	keystroke_p	p	n/a
166.5905	0.06	333181	keystroke_p	p	n/a
167.071	0.12	334142	keystroke_e	e	n/a
167.161	0.1045	334322	keystroke_r	r	n/a
167.3705	0.0905	334741	keystroke_Key.space	Key.space	n/a
167.8665	0.105	335733	keystroke_o	o	n/a
167.9555	0.106	335911	keystroke_v	v	n/a
168.4055	0.0905	336811	keystroke_Key.backspace	Key.backspace	n/a
168.6165	0.0745	337233	keystroke_b	b	n/a
168.736	0.1655	337472	keystroke_e	e	n/a
169.786	0.0895	339572	keystroke_Key.backspace	Key.backspace	n/a
169.8915	0.135	339783	keystroke_s	s	n/a
169.9665	0.224	339933	keystroke_e	e	n/a
170.1605	0.09	340321	keystroke_r	r	n/a
170.6865	0.105	341373	keystroke_v	v	n/a
170.8065	0.1505	341613	keystroke_e	e	n/a
170.9265	0.0895	341853	keystroke_r	r	n/a
171.0605	0.1355	342121	keystroke_Key.space	Key.space	n/a
171.571	0.059	343142	keystroke_e	e	n/a
171.7665	0.0895	343533	keystroke_d	d	n/a
172.5605	0.045	345121	keystroke_u	u	n/a
173.057	0.104	346114	keystroke_c	c	n/a
173.176	0.12	346352	keystroke_a	a	n/a
173.281	0.1045	346562	keystroke_t	t	n/a
173.3705	0.181	346741	keystroke_i	i	n/a
173.4915	0.18	346983	keystroke_o	o	n/a
173.6265	0.119	347253	keystroke_n	n	n/a
173.791	0.0605	347582	keystroke_a	a	n/a
173.8655	0.0905	347731	keystroke_l	l	n/a
174.0605	0.105	348121	keystroke_Key.space	Key.space	n/a
174.2555	0.076	348511	keystroke_c	c	n/a
174.3615	0.09	348723	keystroke_o	o	n/a
174.6165	0.06	349233	keystroke_m	m	n/a
174.7815	0.0595	349563	keystroke_m	m	n/a
174.9915	0.059	349983	keystroke_u	u	n/a
175.2165	0.0745	350433	keystroke_n	n	n/a
175.381	0.075	350762	keystroke_i	i	n/a
175.561	0.075	351122	keystroke_c	c	n/a
175.6805	0.136	351361	keystroke_a	a	n/a
175.8015	0.1195	351603	keystroke_t	t	n/a
175.907	0.1645	351814	keystroke_i	i	n/a
176.0415	0.149	352083	keystroke_o	o	n/a
176.1465	0.105	352293	keystroke_n	n	n/a
176.2805	0.1055	352561	keystroke_s	s	n/a
176.521	0.119	353042	keystroke_Key.enter	Key.enter	n/a
176.6585	6.689	353317	prompt	n/a	arrangement length thanks code\n
177.2565	0.105	354513	keystroke_a	a	n/a
177.5415	0.06	355083	keystroke_r	r	n/a
177.6755	0.121	355351	keystroke_r	r	n/a
177.7985	0.0725	355597	keystroke_a	a	n/a
177.9155	0.1055	355831	keystroke_n	n	n/a
178.051	0.1055	356102	keystroke_g	g	n/a
178.171	0.0455	356342	keystroke_e	e	n/a
178.291	0.06	356582	keystroke_m	m	n/a
178.591	0.074	357182	keystroke_Key.backspace	Key.backspace	n/a
178.7705	0.075	357541	keystroke_Key.backspace	Key.backspace	n/a
179.2365	0.075	358473	keystroke_e	e	n/a
179.7315	0.075	359463	keystroke_m	m	n/a
179.8965	0.119	359793	keystroke_e	e	n/a
180.0165	0.075	360033	keystroke_n	n	n/a
180.1365	0.075	360273	keystroke_t	t	n/a
180.301	0.09	360602	keystroke_Key.space	Key.space	n/a
180.541	0.105	361082	keystroke_l	l	n/a
180.631	0.09	361262	keystroke_e	e	n/a
180.7955	0.09	361591	keystroke_n	n	n/a
180.931	0.0755	361862	keystroke_g	g	n/a
181.11	0.0915	362220	keystroke_t	t	n/a
181.2315	0.09	362463	keystroke_h	h	n/a
181.3665	0.1045	362733	keystroke_Key.space	Key.space	n/a
181.6965	0.104	363393	keystroke_t	t	n/a
181.8155	0.0455	363631	keystroke_h	h	n/a
181.921	0.0905	363842	keystroke_a	a	n/a
182.0265	0.105	364053	keystroke_n	n	n/a
182.1455	0.106	364291	keystroke_k	k	n/a
182.1905	0.091	364381	keystroke_s	s	n/a
182.5815	0.074	365163	keystroke_Key.space	Key.space	n/a
182.7155	0.1505	365431	keystroke_c	c	n/a
182.8215	0.0895	365643	keystroke_o	o	n/a
182.941	0.09	365882	keystroke_d	d	n/a
183.136	0.0445	366272	keystroke_e	e	n/a
183.2555	0.09	366511	keystroke_Key.enter	Key.enter	n/a
183.351	8.3215	366702	prompt	n/a	pirates distributors nokia presentation\n
184.2615	0.1045	368523	keystroke_p	p	n/a
184.7255	0.06	369451	keystroke_i	i	n/a
184.8305	0.075	369661	keystroke_r	r	n/a
185.131	0.136	370262	keystroke_a	a	n/a
185.221	0.1205	370442	keystroke_t	t	n/a
185.3115	0.1195	370623	keystroke_e	e	n/a
185.491	0.135	370982	keystroke_s	s	n/a
185.761	0.09	371522	keystroke_Key.space	Key.space	n/a
185.941	0.06	371882	keystroke_d	d	n/a
186.061	0.0745	372122	keystroke_i	i	n/a
186.2705	0.105	372541	keystroke_s	s	n/a
186.5115	0.1645	373023	keystroke_t	t	n/a
186.6615	0.1045	373323	keystroke_r	r	n/a
186.811	0.09	373622	keystroke_i	i	n/a
187.021	0.046	374042	keystroke_b	b	n/a
187.396	0.031	374792	keystroke_u	u	n/a
187.5605	0.075	375121	keystroke_t	t	n/a
187.7555	0.091	375511	keystroke_o	o	n/a
187.891	0.1205	375782	keystroke_r	r	n/a
188.086	0.09	376172	keystroke_s	s	n/a
188.251	0.09	376502	keystroke_Key.space	Key.space	n/a
188.461	0.1205	376922	keystroke_k	k	n/a
188.806	0.0595	377612	keystroke_Key.backspace	Key.backspace	n/a
188.8805	0.076	377761	keystroke_n	n	n/a
189.0915	0.09	378183	keystroke_o	o	n/a
189.271	0.075	378542	keystroke_k	k	n/a
189.436	0.06	378872	keystroke_i	i	n/a
189.541	0.09	379082	keystroke_a	a	n/a
189.661	0.075	379322	keystroke_Key.space	Key.space	n/a
189.961	0.06	379922	keystroke_p	p	n/a
190.0515	0.12	380103	keystroke_r	r	n/a
190.1415	0.194	380283	keystroke_e	e	n/a
190.321	0.15	380642	keystroke_s	s	n/a
190.501	0.105	381002	keystroke_e	e	n/a
190.666	0.0595	381332	keystroke_n	n	n/a
190.7705	0.091	381541	keystroke_t	t	n/a
190.906	0.1205	381812	keystroke_a	a	n/a
191.0115	0.09	382023	keystroke_t	t	n/a
191.0715	0.165	382143	keystroke_i	i	n/a
191.191	0.1205	382382	keystroke_o	o	n/a
191.2965	0.105	382593	keystroke_n	n	n/a
191.611	0.06	383222	keystroke_Key.enter	Key.enter	n/a
191.68	7.0575	383360	prompt	n/a	timely hierarchy digit destiny\n
192.3905	0.076	384781	keystroke_t	t	n/a
192.526	0.046	385052	keystroke_i	i	n/a
192.9455	0.0605	385891	keystroke_m	m	n/a
193.0215	0.1345	386043	keystroke_e	e	n/a
193.276	0.105	386552	keystroke_l	l	n/a
193.396	0.0605	386792	keystroke_y	y	n/a
193.6205	0.0905	387241	keystroke_Key.space	Key.space	n/a
194.2965	0.135	388593	keystroke_h	h	n/a
194.4465	0.0745	388893	keystroke_i	i	n/a
194.7615	0.15	389523	keystroke_e	e	n/a
194.852	0.1485	389704	keystroke_r	r	n/a
195.2115	0.165	390423	keystroke_a	a	n/a
195.3455	0.0905	390691	keystroke_r	r	n/a
195.6015	0.0895	391203	keystroke_c	c	n/a
195.7505	0.091	391501	keystroke_h	h	n/a
195.886	0.0595	391772	keystroke_y	y	n/a
196.0955	0.0905	392191	keystroke_Key.space	Key.space	n/a
196.4265	0.0595	392853	keystroke_d	d	n/a
196.516	0.075	393032	keystroke_i	i	n/a
196.786	0.09	393572	keystroke_g	g	n/a
196.921	0.0605	393842	keystroke_i	i	n/a
197.011	0.06	394022	keystroke_t	t	n/a
197.536	0.1195	395072	keystroke_Key.space	Key.space	n/a
197.7605	0.076	395521	keystroke_d	d	n/a
197.9415	0.2095	395883	keystroke_e	e	n/a
198.0605	0.165	396121	keystroke_s	s	n/a
198.211	0.1055	396422	keystroke_t	t	n/a
198.2715	0.165	396543	keystroke_i	i	n/a
198.406	0.104	396812	keystroke_n	n	n/a
198.601	0.045	397202	keystroke_y	y	n/a
198.676	0.06	397352	keystroke_Key.enter	Key.enter	n/a
198.7405	7.827	397481	prompt	n/a	navigation vintage spell excel\n
199.6515	0.089	399303	keystroke_n	n	n/a
199.7255	0.105	399451	keystroke_a	a	n/a
200.011	0.0445	400022	keystroke_v	v	n/a
200.265	0.0465	400530	keystroke_i	i	n/a
200.386	0.105	400772	keystroke_g	g	n/a
200.551	0.12	401102	keystroke_a	a	n/a
200.656	0.135	401312	keystroke_t	t	n/a
200.776	0.135	401552	keystroke_i	i	n/a
200.8665	0.1645	401733	keystroke_o	o	n/a
200.971	0.12	401942	keystroke_n	n	n/a
201.167	0.089	402334	keystroke_Key.space	Key.space	n/a
201.526	0.0755	403052	keystroke_b	b	n/a
201.9155	0.075	403831	keystroke_Key.backspace	Key.backspace	n/a
202.0515	0.074	404103	keystroke_v	v	n/a
202.1705	0.165	404341	keystroke_i	i	n/a
202.321	0.105	404642	keystroke_n	n	n/a
202.6055	0.1205	405211	keystroke_t	t	n/a
202.7705	0.12	405541	keystroke_a	a	n/a
202.8305	0.181	405661	keystroke_g	g	n/a
202.9665	0.105	405933	keystroke_e	e	n/a
203.146	0.105	406292	keystroke_Key.space	Key.space	n/a
203.6855	0.09	407371	keystroke_s	s	n/a
203.8355	0.1055	407671	keystroke_p	p	n/a
204.0005	0.0605	408001	keystroke_e	e	n/a
204.136	0.0745	408272	keystroke_l	l	n/a
204.376	0.015	408752	keystroke_l	l	n/a
204.541	0.075	409082	keystroke_Key.space	Key.space	n/a
204.841	0.09	409682	keystroke_e	e	n/a
205.5915	0.105	411183	keystroke_x	x	n/a
205.861	0.15	411722	keystroke_c	c	n/a
205.9955	0.1205	411991	keystroke_e	e	n/a
206.1305	0.0905	412261	keystroke_l	l	n/a
206.491	0.0745	412982	keystroke_Key.enter	Key.enter	n/a
206.571	9.086	413142	prompt	n/a	quantum patrick lucy finds\n
207.5415	0.09	415083	keystroke_q	q	n/a
207.6455	0.0905	415291	keystroke_u	u	n/a
207.9155	0.075	415831	keystroke_a	a	n/a
208.0505	0.075	416101	keystroke_n	n	n/a
208.261	0.1055	416522	keystroke_t	t	n/a
208.531	0.105	417062	keystroke_u	u	n/a
208.816	0.09	417632	keystroke_m	m	n/a
209.026	0.09	418052	keystroke_Key.space	Key.space	n/a
209.4	0.0755	418800	keystroke_p	p	n/a
209.61	0.166	419220	keystroke_a	a	n/a
209.716	0.09	419432	keystroke_r	r	n/a
210.0755	0.06	420151	keystroke_Key.backspace	Key.backspace	n/a
210.1655	0.1355	420331	keystroke_t	t	n/a
210.2405	0.1355	420481	keystroke_r	r	n/a
210.3765	0.1045	420753	keystroke_i	i	n/a
210.5865	0.0895	421173	keystroke_c	c	n/a
210.7055	0.1205	421411	keystroke_k	k	n/a
210.8855	0.0905	421771	keystroke_Key.space	Key.space	n/a
211.1565	0.089	422313	keystroke_l	l	n/a
211.5455	0.105	423091	keystroke_u	u	n/a
211.6515	0.105	423303	keystroke_c	c	n/a
211.7715	0.059	423543	keystroke_y	y	n/a
211.9205	0.09	423841	keystroke_Key.space	Key.space	n/a
212.1465	0.074	424293	keystroke_t	t	n/a
212.506	0.0745	425012	keystroke_Key.backspace	Key.backspace	n/a
212.881	0.0745	425762	keystroke_f	f	n/a
212.971	0.1355	425942	keystroke_u	u	n/a
213.1515	0.045	426303	keystroke_b	b	n/a
213.7055	0.0755	427411	keystroke_Key.backspace	Key.backspace	n/a
214.516	0.09	429032	keystroke_Key.backspace	Key.backspace	n/a
215.071	0.135	430142	keystroke_i	i	n/a
215.161	0.1045	430322	keystroke_n	n	n/a
215.2515	0.149	430503	keystroke_d	d	n/a
215.356	0.105	430712	keystroke_s	s	n/a
215.5655	0.0895	431131	keystroke_Key.enter	Key.enter	n/a
215.663	9.924	431326	prompt	n/a	legislature genre built compiler\n
217.275	0.0605	434550	keystroke_l	l	n/a
217.35	0.105	434700	keystroke_e	e	n/a
217.426	0.1195	434852	keystroke_g	g	n/a
217.6355	0.2405	435271	keystroke_i	i	n/a
218.401	0.149	436802	keystroke_s	s	n/a
220.2155	0.1055	440431	keystroke_l	l	n/a
220.3955	0.15	440791	keystroke_a	a	n/a
220.5165	0.074	441033	keystroke_t	t	n/a
220.7255	0.076	441451	keystroke_u	u	n/a
220.8165	0.1495	441633	keystroke_r	r	n/a
220.8905	0.121	441781	keystroke_e	e	n/a
221.041	0.0895	442082	keystroke_Key.space	Key.space	n/a
221.85	0.0755	443700	keystroke_g	g	n/a
221.896	0.1195	443792	keystroke_e	e	n/a
222.001	0.0895	444002	keystroke_n	n	n/a
222.1365	0.105	444273	keystroke_r	r	n/a
222.211	0.09	444422	keystroke_e	e	n/a
222.361	0.075	444722	keystroke_Key.space	Key.space	n/a
222.8555	0.0755	445711	keystroke_b	b	n/a
223.0205	0.0905	446041	keystroke_u	u	n/a
223.186	0.09	446372	keystroke_i	i	n/a
223.396	0.09	446792	keystroke_l	l	n/a
223.5015	0.104	447003	keystroke_t	t	n/a
223.651	0.1045	447302	keystroke_Key.space	Key.space	n/a
223.8905	0.0755	447781	keystroke_c	c	n/a
224.2665	0.104	448533	keystroke_o	o	n/a
224.5365	0.075	449073	keystroke_m	m	n/a
224.791	0.1055	449582	keystroke_p	p	n/a
225.0005	0.076	450001	keystroke_i	i	n/a
225.2265	0.104	450453	keystroke_l	l	n/a
225.3155	0.1055	450631	keystroke_e	e	n/a
225.376	0.105	450752	keystroke_r	r	n/a
225.511	0.074	451022	keystroke_Key.enter	Key.enter	n/a
225.5935	7.419	451187	prompt	n/a	wheel slovakia charity plastics\n
226.321	0.09	452642	keystroke_w	w	n/a
226.441	0.0745	452882	keystroke_h	h	n/a
226.546	0.0755	453092	keystroke_e	e	n/a
226.741	0.06	453482	keystroke_e	e	n/a
226.921	0.075	453842	keystroke_l	l	n/a
227.086	0.075	454172	keystroke_Key.space	Key.space	n/a
227.566	0.1045	455132	keystroke_s	s	n/a
227.6855	0.075	455371	keystroke_l	l	n/a
227.8805	0.075	455761	keystroke_o	o	n/a
228.0915	0.105	456183	keystroke_v	v	n/a
228.3755	0.105	456751	keystroke_a	a	n/a
228.5405	0.075	457081	keystroke_k	k	n/a
228.7055	0.06	457411	keystroke_i	i	n/a
228.8265	0.0745	457653	keystroke_a	a	n/a
228.9605	0.075	457921	keystroke_Key.space	Key.space	n/a
229.7105	0.075	459421	keystroke_c	c	n/a
229.8005	0.045	459601	keystroke_h	h	n/a
229.8605	0.15	459721	keystroke_a	a	n/a
230.0555	0.091	460111	keystroke_r	r	n/a
230.281	0.059	460562	keystroke_i	i	n/a
230.431	0.0755	460862	keystroke_t	t	n/a
230.566	0.075	461132	keystroke_y	y	n/a
230.701	0.12	461402	keystroke_Key.space	Key.space	n/a
231.0305	0.0755	462061	keystroke_p	p	n/a
231.526	0.105	463052	keystroke_l	l	n/a
231.781	0.105	463562	keystroke_a	a	n/a
232.352	0.134	464704	keystroke_s	s	n/a
232.441	0.1205	464882	keystroke_t	t	n/a
232.591	0.06	465182	keystroke_i	i	n/a
232.726	0.105	465452	keystroke_c	c	n/a
232.816	0.0905	465632	keystroke_s	s	n/a
232.921	0.09	465842	keystroke_Key.enter	Key.enter	n/a
233.0225	13.2055	466045	prompt	n/a	exam islamic accepting humanities\n
233.7315	0.059	467463	keystroke_e	e	n/a
234.016	0.1805	468032	keystroke_x	x	n/a
234.226	0.12	468452	keystroke_a	a	n/a
234.331	0.0745	468662	keystroke_n	n	n/a
234.4805	0.1055	468961	keystroke_Key.space	Key.space	n/a
235.231	0.09	470462	keystroke_i	i	n/a
235.366	0.09	470732	keystroke_s	s	n/a
235.501	0.075	471002	keystroke_l	l	n/a
235.621	0.075	471242	keystroke_a	a	n/a
235.9065	0.075	471813	keystroke_m	m	n/a
236.0555	0.0755	472111	keystroke_i	i	n/a
236.3255	0.105	472651	keystroke_c	c	n/a
236.566	0.0895	473132	keystroke_Key.space	Key.space	n/a
237.6305	0.0455	475261	keystroke_Key.backspace	Key.backspace	n/a
237.766	0.06	475532	keystroke_Key.backspace	Key.backspace	n/a
237.901	0.06	475802	keystroke_Key.backspace	Key.backspace	n/a
238.111	0.015	476222	keystroke_Key.backspace	Key.backspace	n/a
238.201	0.06	476402	keystroke_Key.backspace	Key.backspace	n/a
238.351	0.045	476702	keystroke_Key.backspace	Key.backspace	n/a
238.471	0.075	476942	keystroke_Key.backspace	Key.backspace	n/a
238.6055	0.075	477211	keystroke_Key.backspace	Key.backspace	n/a
238.7555	0.105	477511	keystroke_Key.backspace	Key.backspace	n/a
239.085	0.1055	478170	keystroke_Key.backspace	Key.backspace	n/a
239.6105	0.045	479221	keystroke_m	m	n/a
239.7755	0.06	479551	keystroke_Key.space	Key.space	n/a
240.346	0.075	480692	keystroke_i	i	n/a
240.45	0.091	480900	keystroke_s	s	n/a
240.631	0.0155	481262	keystroke_l	l	n/a
240.72	0.076	481440	keystroke_a	a	n/a
241.036	0.15	482072	keystroke_m	m	n/a
241.3055	0.0455	482611	keystroke_i	i	n/a
241.4565	0.059	482913	keystroke_c	c	n/a
241.5905	0.0905	483181	keystroke_Key.space	Key.space	n/a
242.055	0.136	484110	keystroke_a	a	n/a
242.206	0.12	484412	keystroke_c	c	n/a
242.431	0.045	484862	keystroke_c	c	n/a
242.595	0.0755	485190	keystroke_e	e	n/a
242.701	0.09	485402	keystroke_p	p	n/a
242.851	0.09	485702	keystroke_t	t	n/a
243.001	0.075	486002	keystroke_u	u	n/a
243.436	0.075	486872	keystroke_Key.backspace	Key.backspace	n/a
243.7055	0.105	487411	keystroke_i	i	n/a
243.885	0.105	487770	keystroke_n	n	n/a
244.036	0.06	488072	keystroke_g	g	n/a
244.17	0.12	488340	keystroke_Key.space	Key.space	n/a
244.531	0.104	489062	keystroke_h	h	n/a
244.696	0.089	489392	keystroke_u	u	n/a
244.95	0.0905	489900	keystroke_m	m	n/a
245.146	0.075	490292	keystroke_n	n	n/a
245.3105	0.1045	490621	keystroke_a	a	n/a
245.401	0.12	490802	keystroke_t	t	n/a
245.522	0.074	491044	keystroke_i	i	n/a
245.7455	0.06	491491	keystroke_t	t	n/a
245.7905	0.06	491581	keystroke_i	i	n/a
245.9415	0.164	491883	keystroke_e	e	n/a
246.0455	0.105	492091	keystroke_s	s	n/a
246.1355	0.09	492271	keystroke_Key.enter	Key.enter	n/a
246.24	6.737	492480	prompt	n/a	charts hearings session category\n
246.8415	0.0895	493683	keystroke_c	c	n/a
246.961	0.075	493922	keystroke_h	h	n/a
247.006	0.18	494012	keystroke_a	a	n/a
247.141	0.089	494282	keystroke_r	r	n/a
247.336	0.104	494672	keystroke_t	t	n/a
247.411	0.105	494822	keystroke_s	s	n/a
247.56	0.0905	495120	keystroke_Key.space	Key.space	n/a
247.9065	0.06	495813	keystroke_h	h	n/a
248.011	0.0595	496022	keystroke_e	e	n/a
248.026	0.1345	496052	keystroke_a	a	n/a
248.1305	0.105	496261	keystroke_r	r	n/a
248.2955	0.091	496591	keystroke_i	i	n/a
248.431	0.0745	496862	keystroke_n	n	n/a
248.5515	0.0745	497103	keystroke_g	g	n/a
248.6855	0.09	497371	keystroke_Key.space	Key.space	n/a
248.8805	0.105	497761	keystroke_s	s	n/a
249.0305	0.1355	498061	keystroke_e	e	n/a
249.2105	0.091	498421	keystroke_s	s	n/a
249.3915	0.0745	498783	keystroke_s	s	n/a
249.4815	0.209	498963	keystroke_i	i	n/a
249.6165	0.135	499233	keystroke_o	o	n/a
249.7815	0.09	499563	keystroke_n	n	n/a
249.931	0.09	499862	keystroke_Key.space	Key.space	n/a
250.066	0.09	500132	keystroke_c	c	n/a
250.171	0.1205	500342	keystroke_a	a	n/a
250.306	0.1345	500612	keystroke_t	t	n/a
250.4105	0.135	500821	keystroke_e	e	n/a
250.7255	0.0755	501451	keystroke_g	g	n/a
250.8155	0.105	501631	keystroke_o	o	n/a
251.1755	0.0755	502351	keystroke_y	y	n/a
251.2955	0.075	502591	keystroke_r	r	n/a
252	0.045	504000	keystroke_Key.backspace	Key.backspace	n/a
252.1505	0.075	504301	keystroke_Key.backspace	Key.backspace	n/a
252.3455	0.12	504691	keystroke_r	r	n/a
252.6755	0.09	505351	keystroke_y	y	n/a
252.8855	0.09	505771	keystroke_Key.enter	Key.enter	n/a
252.9815	7.0605	505963	prompt	n/a	living organizing reload followed\n
254.161	0.09	508322	keystroke_l	l	n/a
254.386	0.075	508772	keystroke_i	i	n/a
254.67	0.061	509340	keystroke_v	v	n/a
254.761	0.0895	509522	keystroke_i	i	n/a
254.9255	0.09	509851	keystroke_n	n	n/a
255.03	0.061	510060	keystroke_g	g	n/a
255.165	0.105	510330	keystroke_Key.space	Key.space	n/a
255.555	0.0905	511110	keystroke_o	o	n/a
255.63	0.061	511260	keystroke_r	r	n/a
255.8255	0.09	511651	keystroke_g	g	n/a
255.916	0.1045	511832	keystroke_a	a	n/a
256.065	0.091	512130	keystroke_n	n	n/a
256.2305	0.075	512461	keystroke_i	i	n/a
256.3505	0.0905	512701	keystroke_z	z	n/a
256.5015	0.149	513003	keystroke_i	i	n/a
256.6205	0.1055	513241	keystroke_n	n	n/a
256.7705	0.0905	513541	keystroke_g	g	n/a
256.9055	0.09	513811	keystroke_Key.space	Key.space	n/a
257.4455	0.1205	514891	keystroke_r	r	n/a
257.535	0.0905	515070	keystroke_e	e	n/a
257.671	0.0745	515342	keystroke_l	l	n/a
257.866	0.059	515732	keystroke_o	o	n/a
257.97	0.135	515940	keystroke_a	a	n/a
258.075	0.106	516150	keystroke_d	d	n/a
258.195	0.1055	516390	keystroke_Key.space	Key.space	n/a
258.406	0.0745	516812	keystroke_f	f	n/a
258.616	0.0595	517232	keystroke_o	o	n/a
258.811	0.0745	517622	keystroke_l	l	n/a
258.946	0.075	517892	keystroke_l	l	n/a
259.126	0.06	518252	keystroke_o	o	n/a
259.23	0.121	518460	keystroke_w	w	n/a
259.381	0.135	518762	keystroke_e	e	n/a
259.8005	0.075	519601	keystroke_d	d	n/a
259.9805	0.0595	519961	keystroke_Key.enter	Key.enter	n/a
260.0515	6.411	520103	prompt	n/a	indirect world sensitive weather\n
260.8955	0.06	521791	keystroke_i	i	n/a
261.046	0.0755	522092	keystroke_n	n	n/a
261.151	0.0745	522302	keystroke_d	d	n/a
261.2555	0.0755	522511	keystroke_i	i	n/a
261.4055	0.12	522811	keystroke_r	r	n/a
261.526	0.1195	523052	keystroke_e	e	n/a
261.825	0.075	523650	keystroke_c	c	n/a
262.0205	0.075	524041	keystroke_t	t	n/a
262.1255	0.09	524251	keystroke_Key.space	Key.space	n/a
262.2305	0.1055	524461	keystroke_w	w	n/a
262.3505	0.0755	524701	keystroke_o	o	n/a
262.5005	0.045	525001	keystroke_r	r	n/a
262.6505	0.09	525301	keystroke_l	l	n/a
262.7855	0.091	525571	keystroke_d	d	n/a
262.9355	0.075	525871	keystroke_Key.space	Key.space	n/a
263.176	0.089	526352	keystroke_s	s	n/a
263.386	0.074	526772	keystroke_e	e	n/a
263.521	0.0745	527042	keystroke_n	n	n/a
263.6255	0.075	527251	keystroke_t	t	n/a
264.105	0.045	528210	keystroke_Key.backspace	Key.backspace	n/a
264.225	0.0905	528450	keystroke_s	s	n/a
264.33	0.061	528660	keystroke_i	i	n/a
264.4355	0.0755	528871	keystroke_t	t	n/a
264.7205	0.075	529441	keystroke_i	i	n/a
264.9305	0.135	529861	keystroke_v	v	n/a
265.0505	0.1055	530101	keystroke_e	e	n/a
265.1855	0.09	530371	keystroke_Key.space	Key.space	n/a
265.3655	0.135	530731	keystroke_w	w	n/a
265.5905	0.2555	531181	keystroke_e	e	n/a
265.6655	0.1645	531331	keystroke_a	a	n/a
265.891	0.105	531782	keystroke_t	t	n/a
266.011	0.074	532022	keystroke_h	h	n/a
266.131	0.135	532262	keystroke_e	e	n/a
266.2055	0.1205	532411	keystroke_r	r	n/a
266.385	0.075	532770	keystroke_Key.enter	Key.enter	n/a
266.467	9.0705	532934	prompt	n/a	assembled croatia dinner influences\n
267.2255	0.135	534451	keystroke_a	a	n/a
267.3905	0.09	534781	keystroke_s	s	n/a
267.585	0.076	535170	keystroke_s	s	n/a
267.7655	0.0595	535531	keystroke_e	e	n/a
267.9155	0.06	535831	keystroke_m	m	n/a
268.3355	0.031	536671	keystroke_b	b	n/a
268.4555	0.09	536911	keystroke_l	l	n/a
268.561	0.0745	537122	keystroke_e	e	n/a
268.7405	0.075	537481	keystroke_d	d	n/a
268.9055	0.06	537811	keystroke_Key.space	Key.space	n/a
269.2805	0.076	538561	keystroke_c	c	n/a
269.581	0.0745	539162	keystroke_o	o	n/a
269.9705	0.045	539941	keystroke_Key.backspace	Key.backspace	n/a
270.031	0.0745	540062	keystroke_r	r	n/a
270.1805	0.105	540361	keystroke_o	o	n/a
270.3455	0.105	540691	keystroke_a	a	n/a
270.4055	0.12	540811	keystroke_t	t	n/a
270.5555	0.06	541111	keystroke_i	i	n/a
270.6605	0.09	541321	keystroke_a	a	n/a
270.8555	0.075	541711	keystroke_Key.space	Key.space	n/a
271.6355	0.0595	543271	keystroke_Key.backspace	Key.backspace	n/a
271.831	0.044	543662	keystroke_Key.backspace	Key.backspace	n/a
272.3855	0.0745	544771	keystroke_a	a	n/a
272.521	0.089	545042	keystroke_Key.space	Key.space	n/a
272.88	0.06	545760	keystroke_d	d	n/a
272.986	0.074	545972	keystroke_i	i	n/a
273.15	0.06	546300	keystroke_n	n	n/a
273.3005	0.045	546601	keystroke_n	n	n/a
273.3605	0.105	546721	keystroke_e	e	n/a
273.421	0.105	546842	keystroke_r	r	n/a
273.5105	0.075	547021	keystroke_Key.space	Key.space	n/a
274.2155	0.015	548431	keystroke_i	i	n/a
274.291	0.06	548582	keystroke_n	n	n/a
274.426	0.075	548852	keystroke_f	f	n/a
274.53	0.1355	549060	keystroke_l	l	n/a
274.725	0.0605	549450	keystroke_u	u	n/a
274.9505	0.09	549901	keystroke_e	e	n/a
275.056	0.0595	550112	keystroke_n	n	n/a
275.161	0.149	550322	keystroke_c	c	n/a
275.2655	0.1345	550531	keystroke_e	e	n/a
275.37	0.09	550740	keystroke_s	s	n/a
275.475	0.06	550950	keystroke_Key.enter	Key.enter	n/a
275.556	7.8105	551112	prompt	n/a	virginia contents edges daren't\n
276.6605	0.0905	553321	keystroke_v	v	n/a
276.78	0.06	553560	keystroke_i	i	n/a
276.8705	0.0745	553741	keystroke_r	r	n/a
276.99	0.045	553980	keystroke_g	g	n/a
277.051	0.134	554102	keystroke_i	i	n/a
277.201	0.09	554402	keystroke_n	n	n/a
277.321	0.0895	554642	keystroke_a	a	n/a
277.47	0.12	554940	keystroke_Key.space	Key.space	n/a
277.935	0.0155	555870	keystroke_Key.backspace	Key.backspace	n/a
278.0555	0.0745	556111	keystroke_Key.backspace	Key.backspace	n/a
278.2505	0.089	556501	keystroke_i	i	n/a
278.3855	0.0905	556771	keystroke_a	a	n/a
278.5655	0.075	557131	keystroke_Key.space	Key.space	n/a
278.761	0.0745	557522	keystroke_c	c	n/a
278.8355	0.105	557671	keystroke_o	o	n/a
278.9855	0.075	557971	keystroke_n	n	n/a
279.1055	0.09	558211	keystroke_t	t	n/a
279.1805	0.089	558361	keystroke_e	e	n/a
279.2855	0.06	558571	keystroke_n	n	n/a
279.541	0.1045	559082	keystroke_s	s	n/a
279.571	0.18	559142	keystroke_t	t	n/a
280.0505	0.06	560101	keystroke_Key.backspace	Key.backspace	n/a
280.2	0.075	560400	keystroke_Key.backspace	Key.backspace	n/a
280.26	0.121	560520	keystroke_t	t	n/a
280.351	0.104	560702	keystroke_s	s	n/a
280.5	0.0905	561000	keystroke_Key.space	Key.space	n/a
280.9955	0.045	561991	keystroke_e	e	n/a
281.1755	0.09	562351	keystroke_d	d	n/a
281.4005	0.1655	562801	keystroke_g	g	n/a
281.49	0.165	562980	keystroke_e	e	n/a
281.58	0.136	563160	keystroke_s	s	n/a
281.73	0.09	563460	keystroke_Key.space	Key.space	n/a
282.2705	0.1645	564541	keystroke_d	d	n/a
282.42	0.15	564840	keystroke_a	a	n/a
282.51	0.181	565020	keystroke_r	r	n/a
282.675	0.0905	565350	keystroke_e	e	n/a
282.8255	0.1045	565651	keystroke_n	n	n/a
283.051	0.0895	566102	keystroke_'	'	n/a
283.155	0.061	566310	keystroke_t	t	n/a
283.335	0.0305	566670	keystroke_Key.enter	Key.enter	n/a
283.372	9.1155	566744	prompt	n/a	horizontal insert get rapids\n
284.5795	0.0905	569159	keystroke_h	h	n/a
284.701	0.1195	569402	keystroke_o	o	n/a
284.836	0.059	569672	keystroke_r	r	n/a
284.9705	0.0745	569941	keystroke_i	i	n/a
285.7355	0.12	571471	keystroke_z	z	n/a
285.8405	0.12	571681	keystroke_o	o	n/a
285.946	0.1045	571892	keystroke_n	n	n/a
286.0955	0.06	572191	keystroke_a	a	n/a
286.1855	0.09	572371	keystroke_l	l	n/a
286.8455	0.075	573691	keystroke_Key.backspace	Key.backspace	n/a
287.0255	0.12	574051	keystroke_Key.backspace	Key.backspace	n/a
287.955	0.0905	575910	keystroke_t	t	n/a
288.06	0.09	576120	keystroke_a	a	n/a
288.1655	0.075	576331	keystroke_l	l	n/a
288.3455	0.1045	576691	keystroke_Key.space	Key.space	n/a
288.5705	0.1045	577141	keystroke_i	i	n/a
288.72	0.09	577440	keystroke_n	n	n/a
288.87	0.18	577740	keystroke_s	s	n/a
289.035	0.21	578070	keystroke_e	e	n/a
289.1705	0.1205	578341	keystroke_r	r	n/a
289.381	0.075	578762	keystroke_t	t	n/a
289.545	0.105	579090	keystroke_Key.space	Key.space	n/a
289.936	0.135	579872	keystroke_g	g	n/a
290.086	0.134	580172	keystroke_e	e	n/a
290.655	0.077	581310	keystroke_t	t	n/a
290.82	0.105	581640	keystroke_Key.space	Key.space	n/a
291.585	0.1355	583170	keystroke_r	r	n/a
291.766	0.1045	583532	keystroke_a	a	n/a
291.9155	0.09	583831	keystroke_p	p	n/a
292.1855	0.016	584371	keystroke_i	i	n/a
292.215	0.12	584430	keystroke_d	d	n/a
292.29	0.106	584580	keystroke_s	s	n/a
292.4105	0.0745	584821	keystroke_Key.enter	Key.enter	n/a
292.501	11.717	585002	prompt	n/a	floppy technician reads describe\n
293.146	0.074	586292	keystroke_f	f	n/a
293.281	0.104	586562	keystroke_l	l	n/a
293.4905	0.0755	586981	keystroke_o	o	n/a
293.701	0.09	587402	keystroke_o	o	n/a
293.895	0.0905	587790	keystroke_p	p	n/a
294.09	0.0605	588180	keystroke_y	y	n/a
294.2705	0.1045	588541	keystroke_Key.space	Key.space	n/a
294.6005	0.1355	589201	keystroke_t	t	n/a
294.72	0.1205	589440	keystroke_e	e	n/a
294.9305	0.135	589861	keystroke_c	c	n/a
295.0355	0.09	590071	keystroke_h	h	n/a
295.3195	0.09	590639	keystroke_n	n	n/a
295.4405	0.089	590881	keystroke_i	i	n/a
295.8455	0.075	591691	keystroke_Key.backspace	Key.backspace	n/a
295.995	0.06	591990	keystroke_Key.backspace	Key.backspace	n/a
296.145	0.0455	592290	keystroke_Key.backspace	Key.backspace	n/a
296.28	0.06	592560	keystroke_Key.backspace	Key.backspace	n/a
296.43	0.06	592860	keystroke_Key.backspace	Key.backspace	n/a
296.5655	0.0745	593131	keystroke_Key.backspace	Key.backspace	n/a
296.715	0.09	593430	keystroke_Key.backspace	Key.backspace	n/a
296.895	0.0605	593790	keystroke_Key.backspace	Key.backspace	n/a
297.06	0.0905	594120	keystroke_Key.backspace	Key.backspace	n/a
297.2545	0.091	594509	keystroke_Key.backspace	Key.backspace	n/a
297.8255	0.075	595651	keystroke_p	p	n/a
298.006	0.06	596012	keystroke_p	p	n/a
298.1855	0.0905	596371	keystroke_y	y	n/a
298.365	0.135	596730	keystroke_Key.space	Key.space	n/a
298.59	0.1355	597180	keystroke_t	t	n/a
298.726	0.12	597452	keystroke_e	e	n/a
298.965	0.0755	597930	keystroke_c	c	n/a
299.055	0.09	598110	keystroke_h	h	n/a
299.281	0.09	598562	keystroke_n	n	n/a
299.416	0.075	598832	keystroke_i	i	n/a
300.031	0.089	600062	keystroke_c	c	n/a
300.136	0.0895	600272	keystroke_i	i	n/a
300.285	0.1055	600570	keystroke_a	a	n/a
300.6605	0.0595	601321	keystroke_n	n	n/a
300.825	0.091	601650	keystroke_s	s	n/a
301.005	0.0905	602010	keystroke_Key.space	Key.space	n/a
301.276	0.1345	602552	keystroke_r	r	n/a
301.365	0.1055	602730	keystroke_e	e	n/a
301.425	0.1505	602850	keystroke_a	a	n/a
301.5905	0.09	603181	keystroke_d	d	n/a
301.7255	0.105	603451	keystroke_s	s	n/a
301.8745	0.076	603749	keystroke_Key.space	Key.space	n/a
302.0105	0.105	604021	keystroke_s	s	n/a
302.446	0.0295	604892	keystroke_Key.backspace	Key.backspace	n/a
302.4605	0.075	604921	keystroke_d	d	n/a
302.6255	0.12	605251	keystroke_e	e	n/a
302.7295	0.166	605459	keystroke_s	s	n/a
302.8805	0.181	605761	keystroke_c	c	n/a
303.0305	0.105	606061	keystroke_r	r	n/a
303.2255	0.075	606451	keystroke_u	u	n/a
303.6005	0.0745	607201	keystroke_Key.backspace	Key.backspace	n/a
303.7795	0.0915	607559	keystroke_i	i	n/a
303.9005	0.1195	607801	keystroke_b	b	n/a
303.9905	0.1045	607981	keystroke_e	e	n/a
304.1405	0.0745	608281	keystroke_Key.enter	Key.enter	n/a
304.234	10.5585	608468	prompt	n/a	cooperation continent hawaiian cherry\n
304.875	0.076	609750	keystroke_c	c	n/a
304.9955	0.0745	609991	keystroke_o	o	n/a
305.1755	0.0895	610351	keystroke_o	o	n/a
305.3395	0.0605	610679	keystroke_p	p	n/a
305.4605	0.149	610921	keystroke_e	e	n/a
305.5945	0.121	611189	keystroke_r	r	n/a
305.851	0.1945	611702	keystroke_a	a	n/a
305.9855	0.135	611971	keystroke_t	t	n/a
306.0745	0.226	612149	keystroke_i	i	n/a
306.2105	0.18	612421	keystroke_o	o	n/a
306.3605	0.105	612721	keystroke_n	n	n/a
306.5255	0.075	613051	keystroke_Key.space	Key.space	n/a
306.6155	0.075	613231	keystroke_c	c	n/a
306.7505	0.165	613501	keystroke_o	o	n/a
306.9005	0.075	613801	keystroke_n	n	n/a
307.0205	0.09	614041	keystroke_t	t	n/a
307.1255	0.105	614251	keystroke_i	i	n/a
307.2755	0.09	614551	keystroke_n	n	n/a
307.4105	0.105	614821	keystroke_e	e	n/a
307.5165	0.074	615033	keystroke_n	n	n/a
307.6505	0.09	615301	keystroke_t	t	n/a
307.8305	0.0895	615661	keystroke_Key.space	Key.space	n/a
308.3705	0.06	616741	keystroke_h	h	n/a
308.4145	0.136	616829	keystroke_a	a	n/a
308.7005	0.135	617401	keystroke_w	w	n/a
308.8655	0.12	617731	keystroke_a	a	n/a
309.2405	0.075	618481	keystroke_i	i	n/a
309.42	0.061	618840	keystroke_i	i	n/a
309.69	0.12	619380	keystroke_n	n	n/a
310.275	0.0605	620550	keystroke_Key.backspace	Key.backspace	n/a
310.4405	0.0595	620881	keystroke_a	a	n/a
310.545	0.1055	621090	keystroke_n	n	n/a
310.6805	0.12	621361	keystroke_Key.space	Key.space	n/a
311.085	0.046	622170	keystroke_c	c	n/a
311.175	0.031	622350	keystroke_h	h	n/a
311.295	0.1205	622590	keystroke_e	e	n/a
311.535	0.1205	623070	keystroke_e	e	n/a
311.6405	0.09	623281	keystroke_r	r	n/a
311.8655	0.06	623731	keystroke_y	y	n/a
313.021	0.059	626042	keystroke_Key.backspace	Key.backspace	n/a
313.1855	0.06	626371	keystroke_Key.backspace	Key.backspace	n/a
313.35	0.075	626700	keystroke_Key.backspace	Key.backspace	n/a
313.471	0.105	626942	keystroke_r	r	n/a
313.6955	0.06	627391	keystroke_y	y	n/a
314.31	0.0605	628620	keystroke_Key.backspace	Key.backspace	n/a
314.386	0.0745	628772	keystroke_r	r	n/a
314.55	0.075	629100	keystroke_y	y	n/a
314.6855	0.105	629371	keystroke_Key.enter	Key.enter	n/a
314.8095	9.538	629619	prompt	n/a	interior rating contains maximize\n
315.6755	0.075	631351	keystroke_i	i	n/a
315.825	0.09	631650	keystroke_n	n	n/a
315.9005	0.0905	631801	keystroke_t	t	n/a
316.0355	0.1495	632071	keystroke_e	e	n/a
316.1405	0.0895	632281	keystroke_r	r	n/a
316.291	0.104	632582	keystroke_i	i	n/a
316.411	0.134	632822	keystroke_o	o	n/a
316.62	0.091	633240	keystroke_r	r	n/a
316.77	0.121	633540	keystroke_Key.space	Key.space	n/a
317.31	0.1055	634620	keystroke_t	t	n/a
317.4	0.12	634800	keystroke_a	a	n/a
317.506	0.089	635012	keystroke_t	t	n/a
317.566	0.119	635132	keystroke_i	i	n/a
317.7305	0.0905	635461	keystroke_n	n	n/a
317.866	0.0745	635732	keystroke_g	g	n/a
318.12	0.0595	636240	keystroke_Key.backspace	Key.backspace	n/a
318.2705	0.074	636541	keystroke_Key.backspace	Key.backspace	n/a
318.4205	0.074	636841	keystroke_Key.backspace	Key.backspace	n/a
318.5845	0.075	637169	keystroke_Key.backspace	Key.backspace	n/a
318.915	0.06	637830	keystroke_Key.backspace	Key.backspace	n/a
319.1395	0.015	638279	keystroke_Key.backspace	Key.backspace	n/a
319.1855	0.1205	638371	keystroke_r	r	n/a
319.29	0.15	638580	keystroke_a	a	n/a
319.47	0.105	638940	keystroke_t	t	n/a
319.665	0.105	639330	keystroke_i	i	n/a
319.785	0.075	639570	keystroke_n	n	n/a
319.89	0.09	639780	keystroke_g	g	n/a
320.055	0.106	640110	keystroke_Key.space	Key.space	n/a
320.73	0.0905	641460	keystroke_c	c	n/a
320.7895	0.135	641579	keystroke_o	o	n/a
320.94	0.0905	641880	keystroke_n	n	n/a
321.061	0.0895	642122	keystroke_t	t	n/a
321.1805	0.105	642361	keystroke_a	a	n/a
321.241	0.1345	642482	keystroke_i	i	n/a
321.3905	0.0895	642781	keystroke_n	n	n/a
321.51	0.09	643020	keystroke_s	s	n/a
321.8995	0.076	643799	keystroke_Key.space	Key.space	n/a
322.111	0.104	644222	keystroke_m	m	n/a
322.246	0.1045	644492	keystroke_a	a	n/a
322.7245	0.091	645449	keystroke_x	x	n/a
322.8305	0.06	645661	keystroke_i	i	n/a
323.3555	0.135	646711	keystroke_m	m	n/a
323.55	0.105	647100	keystroke_i	i	n/a
323.67	0.09	647340	keystroke_z	z	n/a
324	0.0905	648000	keystroke_e	e	n/a
324.24	0.1055	648480	keystroke_Key.enter	Key.enter	n/a
324.374	6.6625	648748	prompt	n/a	involving deaf loading builder\n
324.9455	0.12	649891	keystroke_i	i	n/a
325.0805	0.105	650161	keystroke_n	n	n/a
325.3345	0.076	650669	keystroke_v	v	n/a
325.4115	0.089	650823	keystroke_o	o	n/a
325.6055	0.091	651211	keystroke_l	l	n/a
325.7255	0.0745	651451	keystroke_v	v	n/a
325.8455	0.09	651691	keystroke_i	i	n/a
325.9805	0.105	651961	keystroke_n	n	n/a
326.0855	0.075	652171	keystroke_g	g	n/a
326.2355	0.075	652471	keystroke_Key.space	Key.space	n/a
326.3265	0.0745	652653	keystroke_d	d	n/a
326.4755	0.12	652951	keystroke_e	e	n/a
326.581	0.1635	653162	keystroke_a	a	n/a
326.9845	0.046	653969	keystroke_Key.backspace	Key.backspace	n/a
327.076	0.0745	654152	keystroke_f	f	n/a
327.645	0.0755	655290	keystroke_Key.backspace	Key.backspace	n/a
327.826	0.0895	655652	keystroke_a	a	n/a
327.945	0.09	655890	keystroke_f	f	n/a
328.1705	0.105	656341	keystroke_Key.space	Key.space	n/a
328.3805	0.0745	656761	keystroke_l	l	n/a
328.515	0.12	657030	keystroke_a	a	n/a
328.62	0.0905	657240	keystroke_o	o	n/a
328.845	0.045	657690	keystroke_d	d	n/a
328.9205	0.1195	657841	keystroke_i	i	n/a
329.07	0.106	658140	keystroke_n	n	n/a
329.19	0.0755	658380	keystroke_g	g	n/a
329.2805	0.1045	658561	keystroke_Key.space	Key.space	n/a
329.941	0.0445	659882	keystroke_b	b	n/a
330.075	0.0905	660150	keystroke_u	u	n/a
330.195	0.0605	660390	keystroke_u	u	n/a
330.2405	0.075	660481	keystroke_i	i	n/a
330.4355	0.105	660871	keystroke_l	l	n/a
330.5865	0.074	661173	keystroke_d	d	n/a
330.7505	0.12	661501	keystroke_e	e	n/a
330.8255	0.105	661651	keystroke_r	r	n/a
330.9445	0.09	661889	keystroke_Key.enter	Key.enter	n/a
331.041	8.3355	662082	prompt	n/a	invention swiss celtic unavailable\n
332.0555	0.09	664111	keystroke_i	i	n/a
332.175	0.105	664350	keystroke_n	n	n/a
332.3855	0.09	664771	keystroke_v	v	n/a
332.491	0.12	664982	keystroke_e	e	n/a
332.581	0.044	665162	keystroke_n	n	n/a
332.7	0.105	665400	keystroke_t	t	n/a
332.82	0.165	665640	keystroke_i	i	n/a
332.9405	0.1495	665881	keystroke_o	o	n/a
333.045	0.1355	666090	keystroke_n	n	n/a
333.2255	0.1045	666451	keystroke_Key.space	Key.space	n/a
333.466	0.0895	666932	keystroke_s	s	n/a
333.705	0.1055	667410	keystroke_w	w	n/a
333.9	0.046	667800	keystroke_i	i	n/a
334.0345	0.076	668069	keystroke_i	i	n/a
334.1405	0.0895	668281	keystroke_s	s	n/a
334.5895	0.0455	669179	keystroke_Key.backspace	Key.backspace	n/a
334.7395	0.06	669479	keystroke_Key.backspace	Key.backspace	n/a
334.9505	0.0745	669901	keystroke_s	s	n/a
335.131	0.0595	670262	keystroke_s	s	n/a
335.31	0.0905	670620	keystroke_Key.space	Key.space	n/a
335.5955	0.1045	671191	keystroke_c	c	n/a
335.7305	0.0895	671461	keystroke_e	e	n/a
335.9255	0.0895	671851	keystroke_l	l	n/a
336.21	0.09	672420	keystroke_t	t	n/a
336.36	0.0905	672720	keystroke_i	i	n/a
336.4805	0.09	672961	keystroke_c	c	n/a
336.6005	0.104	673201	keystroke_Key.space	Key.space	n/a
337.3955	0.0595	674791	keystroke_u	u	n/a
337.5745	0.0755	675149	keystroke_n	n	n/a
337.7095	0.121	675419	keystroke_a	a	n/a
337.9505	0.0895	675901	keystroke_v	v	n/a
338.085	0.09	676170	keystroke_a	a	n/a
338.2645	0.075	676529	keystroke_i	i	n/a
338.5205	0.075	677041	keystroke_l	l	n/a
338.7455	0.1195	677491	keystroke_a	a	n/a
338.9695	0.06	677939	keystroke_b	b	n/a
339.1045	0.0615	678209	keystroke_l	l	n/a
339.1795	0.075	678359	keystroke_e	e	n/a
339.2995	0.0755	678599	keystroke_Key.enter	Key.enter	n/a
339.3805	9.342	678761	prompt	n/a	shelter construct southampton comparison\n
340.1555	0.1055	680311	keystroke_s	s	n/a
340.3355	0.045	680671	keystroke_h	h	n/a
340.4095	0.1365	680819	keystroke_e	e	n/a
340.5595	0.091	681119	keystroke_l	l	n/a
340.6805	0.1045	681361	keystroke_t	t	n/a
340.8005	0.1655	681601	keystroke_e	e	n/a
340.906	0.105	681812	keystroke_r	r	n/a
341.0245	0.1055	682049	keystroke_Key.space	Key.space	n/a
341.4905	0.0745	682981	keystroke_c	c	n/a
341.58	0.1505	683160	keystroke_o	o	n/a
341.7155	0.09	683431	keystroke_n	n	n/a
341.8505	0.12	683701	keystroke_s	s	n/a
341.9555	0.1495	683911	keystroke_t	t	n/a
342.0455	0.1345	684091	keystroke_r	r	n/a
342.21	0.09	684420	keystroke_u	u	n/a
342.375	0.091	684750	keystroke_c	c	n/a
342.616	0.059	685232	keystroke_t	t	n/a
342.69	0.105	685380	keystroke_Key.space	Key.space	n/a
343.05	0.0905	686100	keystroke_s	s	n/a
343.156	0.164	686312	keystroke_o	o	n/a
343.305	0.09	686610	keystroke_u	u	n/a
343.425	0.0905	686850	keystroke_t	t	n/a
343.546	0.0895	687092	keystroke_h	h	n/a
344.145	0.1055	688290	keystroke_h	h	n/a
344.265	0.09	688530	keystroke_a	a	n/a
344.4	0.09	688800	keystroke_p	p	n/a
345.195	0.075	690390	keystroke_Key.backspace	Key.backspace	n/a
345.7055	0.104	691411	keystroke_m	m	n/a
346.1105	0.09	692221	keystroke_p	p	n/a
346.2455	0.074	692491	keystroke_t	t	n/a
346.3645	0.18	692729	keystroke_o	o	n/a
346.5595	0.12	693119	keystroke_n	n	n/a
346.755	0.0745	693510	keystroke_Key.space	Key.space	n/a
347.1	0.0755	694200	keystroke_c	c	n/a
347.2205	0.135	694441	keystroke_o	o	n/a
347.415	0.0605	694830	keystroke_m	m	n/a
347.6105	0.09	695221	keystroke_p	p	n/a
347.6855	0.1195	695371	keystroke_a	a	n/a
347.7895	0.0905	695579	keystroke_r	r	n/a
347.9105	0.074	695821	keystroke_i	i	n/a
348.0305	0.104	696061	keystroke_s	s	n/a
348.2245	0.1655	696449	keystroke_o	o	n/a
348.4045	0.09	696809	keystroke_n	n	n/a
348.6295	0.09	697259	keystroke_Key.enter	Key.enter	n/a
348.7375	6.134	697475	prompt	n/a	goal tapes soldiers nothing\n
349.8145	0.076	699629	keystroke_g	g	n/a
349.9195	0.106	699839	keystroke_o	o	n/a
350.0405	0.09	700081	keystroke_a	a	n/a
350.1455	0.09	700291	keystroke_l	l	n/a
350.325	0.075	700650	keystroke_Key.space	Key.space	n/a
350.505	0.09	701010	keystroke_t	t	n/a
350.67	0.09	701340	keystroke_a	a	n/a
350.7155	0.0445	701431	keystroke_k	k	n/a
351.3305	0.104	702661	keystroke_Key.backspace	Key.backspace	n/a
351.63	0.105	703260	keystroke_p	p	n/a
351.78	0.1955	703560	keystroke_e	e	n/a
351.9005	0.15	703801	keystroke_s	s	n/a
352.0345	0.12	704069	keystroke_Key.space	Key.space	n/a
352.395	0.0895	704790	keystroke_s	s	n/a
352.4695	0.09	704939	keystroke_o	o	n/a
352.681	0.0735	705362	keystroke_l	l	n/a
352.8605	0.0595	705721	keystroke_i	i	n/a
352.965	0.075	705930	keystroke_d	d	n/a
353.1305	0.1345	706261	keystroke_e	e	n/a
353.22	0.135	706440	keystroke_r	r	n/a
353.565	0.075	707130	keystroke_s	s	n/a
353.715	0.09	707430	keystroke_Key.space	Key.space	n/a
354.045	0.06	708090	keystroke_n	n	n/a
354.15	0.09	708300	keystroke_o	o	n/a
354.1955	0.0745	708391	keystroke_t	t	n/a
354.33	0.1055	708660	keystroke_h	h	n/a
354.4205	0.15	708841	keystroke_i	i	n/a
354.5395	0.106	709079	keystroke_n	n	n/a
354.6155	0.075	709231	keystroke_g	g	n/a
354.7945	0.075	709589	keystroke_Key.enter	Key.enter	n/a
354.88	6.9365	709760	prompt	n/a	providence donate marks density\n
355.7555	0.0745	711511	keystroke_p	p	n/a
355.9355	0.09	711871	keystroke_r	r	n/a
356.1455	0.09	712291	keystroke_o	o	n/a
356.3405	0.06	712681	keystroke_v	v	n/a
356.4455	0.09	712891	keystroke_i	i	n/a
357.1945	0.061	714389	keystroke_d	d	n/a
357.3605	0.06	714721	keystroke_e	e	n/a
357.4355	0.06	714871	keystroke_n	n	n/a
357.6005	0.1495	715201	keystroke_c	c	n/a
357.705	0.105	715410	keystroke_e	e	n/a
357.825	0.12	715650	keystroke_Key.space	Key.space	n/a
358.02	0.076	716040	keystroke_d	d	n/a
358.1555	0.0895	716311	keystroke_o	o	n/a
358.32	0.075	716640	keystroke_n	n	n/a
358.425	0.075	716850	keystroke_t	t	n/a
358.545	0.12	717090	keystroke_a	a	n/a
358.7845	0.0605	717569	keystroke_Key.backspace	Key.backspace	n/a
358.9495	0.0755	717899	keystroke_Key.backspace	Key.backspace	n/a
359.0695	0.136	718139	keystroke_a	a	n/a
359.1905	0.135	718381	keystroke_t	t	n/a
359.2955	0.12	718591	keystroke_e	e	n/a
359.5195	0.0905	719039	keystroke_Key.space	Key.space	n/a
359.925	0.105	719850	keystroke_m	m	n/a
360.045	0.12	720090	keystroke_a	a	n/a
360.12	0.1205	720240	keystroke_r	r	n/a
360.255	0.1055	720510	keystroke_k	k	n/a
360.4055	0.0895	720811	keystroke_s	s	n/a
360.525	0.075	721050	keystroke_Key.space	Key.space	n/a
360.81	0.06	721620	keystroke_d	d	n/a
360.9605	0.074	721921	keystroke_e	e	n/a
361.0495	0.0905	722099	keystroke_n	n	n/a
361.2145	0.105	722429	keystroke_s	s	n/a
361.3345	0.061	722669	keystroke_i	i	n/a
361.455	0.0445	722910	keystroke_t	t	n/a
361.6045	0.046	723209	keystroke_y	y	n/a
361.725	0.0895	723450	keystroke_Key.enter	Key.enter	n/a
361.821	6.3405	723642	prompt	n/a	efforts jacob presentations freedom\n
362.4895	0.075	724979	keystroke_e	e	n/a
362.655	0.0755	725310	keystroke_f	f	n/a
362.8055	0.074	725611	keystroke_f	f	n/a
362.9545	0.075	725909	keystroke_o	o	n/a
363.1045	0.09	726209	keystroke_r	r	n/a
363.2695	0.12	726539	keystroke_t	t	n/a
363.3755	0.119	726751	keystroke_s	s	n/a
363.54	0.0895	727080	keystroke_Key.space	Key.space	n/a
364.02	0.074	728040	keystroke_j	j	n/a
364.11	0.06	728220	keystroke_a	a	n/a
364.4095	0.09	728819	keystroke_c	c	n/a
364.5145	0.151	729029	keystroke_o	o	n/a
364.6355	0.0905	729271	keystroke_b	b	n/a
364.8305	0.0895	729661	keystroke_Key.space	Key.space	n/a
365.145	0.09	730290	keystroke_p	p	n/a
365.2645	0.1505	730529	keystroke_r	r	n/a
365.3395	0.121	730679	keystroke_e	e	n/a
365.6705	0.015	731341	keystroke_s	s	n/a
365.7	0.106	731400	keystroke_e	e	n/a
365.82	0.06	731640	keystroke_n	n	n/a
365.94	0.104	731880	keystroke_t	t	n/a
366.06	0.12	732120	keystroke_a	a	n/a
366.165	0.135	732330	keystroke_t	t	n/a
366.24	0.21	732480	keystroke_i	i	n/a
366.3595	0.18	732719	keystroke_o	o	n/a
366.45	0.1205	732900	keystroke_n	n	n/a
366.63	0.09	733260	keystroke_Key.space	Key.space	n/a
366.8545	0.075	733709	keystroke_f	f	n/a
367.1545	0.076	734309	keystroke_r	r	n/a
367.3355	0.075	734671	keystroke_e	e	n/a
367.4855	0.074	734971	keystroke_e	e	n/a
367.665	0.075	735330	keystroke_d	d	n/a
367.755	0.09	735510	keystroke_o	o	n/a
367.9045	0.076	735809	keystroke_m	m	n/a
368.0995	0.06	736199	keystroke_Key.enter	Key.enter	n/a
368.169	9.7275	736338	prompt	n/a	starsmerchant number labor series\n
369.0295	0.091	738059	keystroke_s	s	n/a
369.24	0.0905	738480	keystroke_t	t	n/a
369.2695	0.195	738539	keystroke_a	a	n/a
369.4495	0.091	738899	keystroke_r	r	n/a
369.7505	0.1345	739501	keystroke_s	s	n/a
370.2455	0.0445	740491	keystroke_c	c	n/a
370.575	0.075	741150	keystroke_Key.backspace	Key.backspace	n/a
370.8	0.0895	741600	keystroke_m	m	n/a
370.875	0.12	741750	keystroke_e	e	n/a
370.935	0.09	741870	keystroke_r	r	n/a
371.13	0.12	742260	keystroke_c	c	n/a
371.235	0.06	742470	keystroke_h	h	n/a
371.34	0.136	742680	keystroke_a	a	n/a
371.415	0.1195	742830	keystroke_t	t	n/a
371.8495	0.0755	743699	keystroke_Key.backspace	Key.backspace	n/a
372.06	0.075	744120	keystroke_n	n	n/a
372.12	0.075	744240	keystroke_t	t	n/a
372.24	0.09	744480	keystroke_Key.space	Key.space	n/a
372.585	0.075	745170	keystroke_m	m	n/a
372.9	0.09	745800	keystroke_Key.backspace	Key.backspace	n/a
373.155	0.076	746310	keystroke_n	n	n/a
373.35	0.06	746700	keystroke_u	u	n/a
373.5455	0.059	747091	keystroke_m	m	n/a
373.845	0.12	747690	keystroke_e	e	n/a
374.475	0.075	748950	keystroke_Key.backspace	Key.backspace	n/a
374.9405	0.044	749881	keystroke_b	b	n/a
375	0.1355	750000	keystroke_e	e	n/a
375.0595	0.136	750119	keystroke_r	r	n/a
375.2405	0.1645	750481	keystroke_Key.space	Key.space	n/a
375.6905	0.0295	751381	keystroke_l	l	n/a
375.795	0.09	751590	keystroke_a	a	n/a
376.035	0.06	752070	keystroke_b	b	n/a
376.1405	0.075	752281	keystroke_o	o	n/a
376.26	0.09	752520	keystroke_r	r	n/a
376.424	0.106	752848	keystroke_Key.space	Key.space	n/a
377.1	0.1505	754200	keystroke_s	s	n/a
377.2195	0.135	754439	keystroke_e	e	n/a
377.2955	0.1345	754591	keystroke_r	r	n/a
377.4755	0.075	754951	keystroke_i	i	n/a
377.5945	0.1505	755189	keystroke_e	e	n/a
377.7	0.09	755400	keystroke_s	s	n/a
377.8045	0.0905	755609	keystroke_Key.enter	Key.enter	n/a
377.9005	5.366	755801	prompt	n/a	grand feeding loose vault\n
378.8095	0.1505	757619	keystroke_g	g	n/a
378.9	0.135	757800	keystroke_r	r	n/a
378.99	0.105	757980	keystroke_a	a	n/a
379.125	0.06	758250	keystroke_n	n	n/a
379.425	0.075	758850	keystroke_d	d	n/a
379.56	0.105	759120	keystroke_Key.space	Key.space	n/a
379.86	0.0595	759720	keystroke_f	f	n/a
380.0095	0.0755	760019	keystroke_e	e	n/a
380.1745	0.06	760349	keystroke_e	e	n/a
380.3395	0.0905	760679	keystroke_d	d	n/a
380.4145	0.1355	760829	keystroke_i	i	n/a
380.535	0.1195	761070	keystroke_n	n	n/a
380.6395	0.0605	761279	keystroke_g	g	n/a
380.7595	0.0905	761519	keystroke_Key.space	Key.space	n/a
380.9095	0.06	761819	keystroke_l	l	n/a
381.0595	0.076	762119	keystroke_o	o	n/a
381.2395	0.045	762479	keystroke_o	o	n/a
381.3005	0.134	762601	keystroke_s	s	n/a
381.3895	0.135	762779	keystroke_e	e	n/a
381.7195	0.12	763439	keystroke_Key.space	Key.space	n/a
381.8855	0.1045	763771	keystroke_w	w	n/a
382.26	0.075	764520	keystroke_Key.backspace	Key.backspace	n/a
382.395	0.105	764790	keystroke_v	v	n/a
382.4845	0.1205	764969	keystroke_a	a	n/a
382.575	0.0745	765150	keystroke_u	u	n/a
382.785	0.075	765570	keystroke_l	l	n/a
382.9205	0.089	765841	keystroke_t	t	n/a
383.1895	0.075	766379	keystroke_Key.enter	Key.enter	n/a
383.2745	9.893	766549	prompt	n/a	alfred situations they're modifications\n
384.1505	0.1045	768301	keystroke_a	a	n/a
384.3595	0.075	768719	keystroke_l	l	n/a
384.7345	0.15	769469	keystroke_f	f	n/a
384.8395	0.106	769679	keystroke_r	r	n/a
385.02	0.0895	770040	keystroke_e	e	n/a
385.215	0.09	770430	keystroke_d	d	n/a
385.3795	0.105	770759	keystroke_Key.space	Key.space	n/a
385.6495	0.1055	771299	keystroke_s	s	n/a
385.9195	0.046	771839	keystroke_i	i	n/a
386.5195	0.09	773039	keystroke_t	t	n/a
387.269	0.0765	774538	keystroke_u	u	n/a
387.3895	0.1045	774779	keystroke_a	a	n/a
387.465	0.105	774930	keystroke_t	t	n/a
387.5845	0.121	775169	keystroke_i	i	n/a
387.69	0.149	775380	keystroke_o	o	n/a
387.81	0.09	775620	keystroke_n	n	n/a
387.944	0.091	775888	keystroke_s	s	n/a
388.049	0.105	776098	keystroke_Key.space	Key.space	n/a
388.35	0.074	776700	keystroke_t	t	n/a
388.44	0.06	776880	keystroke_h	h	n/a
388.5145	0.1355	777029	keystroke_e	e	n/a
389.2345	0.0155	778469	keystroke_y	y	n/a
389.6545	0.075	779309	keystroke_'	'	n/a
389.715	0.1345	779430	keystroke_r	r	n/a
389.7895	0.121	779579	keystroke_e	e	n/a
389.9395	0.15	779879	keystroke_Key.space	Key.space	n/a
390.7195	0.061	781439	keystroke_m	m	n/a
391.0495	0.195	782099	keystroke_o	o	n/a
391.2745	0.09	782549	keystroke_d	d	n/a
391.4245	0.06	782849	keystroke_i	i	n/a
391.5595	0.075	783119	keystroke_f	f	n/a
391.83	0.1045	783660	keystroke_c	c	n/a
391.844	0.091	783688	keystroke_i	i	n/a
392.174	0.1205	784348	keystroke_a	a	n/a
392.249	0.105	784498	keystroke_t	t	n/a
392.3995	0.105	784799	keystroke_i	i	n/a
392.565	0.15	785130	keystroke_o	o	n/a
392.73	0.075	785460	keystroke_n	n	n/a
392.909	0.076	785818	keystroke_s	s	n/a
393.074	0.09	786148	keystroke_Key.enter	Key.enter	n/a
393.1835	10.1535	786367	prompt	n/a	wasn't divisions simulation bond\n
394.275	0.09	788550	keystroke_w	w	n/a
394.38	0.15	788760	keystroke_a	a	n/a
394.4695	0.1655	788939	keystroke_s	s	n/a
394.7245	0.1055	789449	keystroke_n	n	n/a
394.9345	0.045	789869	keystroke_'	'	n/a
395.235	0.0895	790470	keystroke_t	t	n/a
395.384	0.136	790768	keystroke_Key.space	Key.space	n/a
395.58	0.0595	791160	keystroke_d	d	n/a
395.6545	0.076	791309	keystroke_i	i	n/a
395.8945	0.0905	791789	keystroke_v	v	n/a
396.0295	0.045	792059	keystroke_i	i	n/a
396.1345	0.09	792269	keystroke_d	d	n/a
396.2395	0.0905	792479	keystroke_i	i	n/a
396.3745	0.18	792749	keystroke_o	o	n/a
396.4805	0.089	792961	keystroke_s	s	n/a
396.8395	0.045	793679	keystroke_Key.backspace	Key.backspace	n/a
396.9895	0.06	793979	keystroke_Key.backspace	Key.backspace	n/a
397.1545	0.06	794309	keystroke_Key.backspace	Key.backspace	n/a
397.2745	0.09	794549	keystroke_s	s	n/a
397.4095	0.165	794819	keystroke_i	i	n/a
397.5295	0.1655	795059	keystroke_o	o	n/a
397.68	0.089	795360	keystroke_n	n	n/a
397.83	0.0755	795660	keystroke_s	s	n/a
398.2045	0.075	796409	keystroke_Key.backspace	Key.backspace	n/a
398.355	0.0745	796710	keystroke_Key.backspace	Key.backspace	n/a
398.505	0.075	797010	keystroke_Key.backspace	Key.backspace	n/a
398.6695	0.06	797339	keystroke_Key.backspace	Key.backspace	n/a
398.8345	0.075	797669	keystroke_Key.backspace	Key.backspace	n/a
399.03	0.059	798060	keystroke_Key.backspace	Key.backspace	n/a
399.18	0.105	798360	keystroke_s	s	n/a
399.3155	0.1645	798631	keystroke_i	i	n/a
399.4195	0.165	798839	keystroke_o	o	n/a
399.63	0.0745	799260	keystroke_n	n	n/a
399.8995	0.09	799799	keystroke_s	s	n/a
400.095	0.0445	800190	keystroke_Key.space	Key.space	n/a
400.245	0.0895	800490	keystroke_s	s	n/a
400.425	0.06	800850	keystroke_i	i	n/a
400.6495	0.106	801299	keystroke_m	m	n/a
400.9355	0.074	801871	keystroke_u	u	n/a
401.4905	0.06	802981	keystroke_l	l	n/a
401.714	0.106	803428	keystroke_a	a	n/a
401.7595	0.136	803519	keystroke_t	t	n/a
401.8805	0.15	803761	keystroke_i	i	n/a
402.0005	0.1495	804001	keystroke_o	o	n/a
402.1645	0.091	804329	keystroke_n	n	n/a
402.345	0.0895	804690	keystroke_Key.space	Key.space	n/a
402.7205	0.059	805441	keystroke_b	b	n/a
402.8705	0.135	805741	keystroke_o	o	n/a
403.0205	0.09	806041	keystroke_n	n	n/a
403.14	0.0595	806280	keystroke_d	d	n/a
403.2445	0.09	806489	keystroke_Key.enter	Key.enter	n/a
403.3495	6.377	806699	prompt	n/a	string discussing endif queue\n
403.86	0.135	807720	keystroke_s	s	n/a
404.025	0.12	808050	keystroke_t	t	n/a
404.325	0.0605	808650	keystroke_r	r	n/a
404.415	0.15	808830	keystroke_i	i	n/a
404.52	0.09	809040	keystroke_n	n	n/a
404.64	0.045	809280	keystroke_g	g	n/a
404.76	0.105	809520	keystroke_Key.space	Key.space	n/a
405.0605	0.059	810121	keystroke_d	d	n/a
405.2105	0.03	810421	keystroke_i	i	n/a
405.3455	0.135	810691	keystroke_s	s	n/a
405.5555	0.075	811111	keystroke_c	c	n/a
405.795	0.03	811590	keystroke_u	u	n/a
405.87	0.09	811740	keystroke_s	s	n/a
406.035	0.089	812070	keystroke_s	s	n/a
406.17	0.15	812340	keystroke_i	i	n/a
406.3055	0.1185	812611	keystroke_n	n	n/a
406.41	0.075	812820	keystroke_g	g	n/a
406.545	0.089	813090	keystroke_Key.space	Key.space	n/a
406.8905	0.0595	813781	keystroke_e	e	n/a
407.024	0.076	814048	keystroke_n	n	n/a
407.145	0.075	814290	keystroke_d	d	n/a
407.265	0.06	814530	keystroke_i	i	n/a
407.37	0.0905	814740	keystroke_f	f	n/a
407.685	0.12	815370	keystroke_Key.space	Key.space	n/a
408.15	0.105	816300	keystroke_q	q	n/a
408.3155	0.0605	816631	keystroke_u	u	n/a
408.4055	0.1205	816811	keystroke_e	e	n/a
408.7655	0.059	817531	keystroke_u	u	n/a
408.9	0.105	817800	keystroke_e	e	n/a
409.6645	0.06	819329	keystroke_Key.enter	Key.enter	n/a
409.735	12.217	819470	prompt	n/a	comprehensive championships qualify mechanical\n
410.5655	0.1045	821131	keystroke_c	c	n/a
410.685	0.195	821370	keystroke_o	o	n/a
410.895	0.0905	821790	keystroke_m	m	n/a
411.255	0.09	822510	keystroke_p	p	n/a
412.1095	0.1055	824219	keystroke_r	r	n/a
412.3645	0.076	824729	keystroke_h	h	n/a
412.74	0.075	825480	keystroke_Key.backspace	Key.backspace	n/a
412.83	0.0755	825660	keystroke_e	e	n/a
412.965	0.0595	825930	keystroke_h	h	n/a
413.7455	0.059	827491	keystroke_e	e	n/a
413.9105	0.075	827821	keystroke_n	n	n/a
414.0905	0.09	828181	keystroke_s	s	n/a
414.1955	0.0745	828391	keystroke_i	i	n/a
414.51	0.03	829020	keystroke_v	v	n/a
414.5255	0.0745	829051	keystroke_e	e	n/a
414.63	0.1045	829260	keystroke_Key.space	Key.space	n/a
414.9155	0.105	829831	keystroke_c	c	n/a
415.0505	0.075	830101	keystroke_h	h	n/a
415.185	0.075	830370	keystroke_a	a	n/a
415.305	0.0755	830610	keystroke_m	m	n/a
415.9345	0.135	831869	keystroke_p	p	n/a
416.22	0.12	832440	keystroke_i	i	n/a
416.3555	0.1945	832711	keystroke_o	o	n/a
416.5645	0.061	833129	keystroke_n	n	n/a
416.6845	0.075	833369	keystroke_s	s	n/a
416.8945	0.121	833789	keystroke_h	h	n/a
417.0295	0.166	834059	keystroke_i	i	n/a
417.404	0.091	834808	keystroke_p	p	n/a
417.525	0.1195	835050	keystroke_s	s	n/a
417.8695	0.1055	835739	keystroke_Key.space	Key.space	n/a
418.0795	0.105	836159	keystroke_q	q	n/a
418.3045	0.0905	836609	keystroke_u	u	n/a
418.8455	0.0895	837691	keystroke_a	a	n/a
418.98	0.1055	837960	keystroke_l	l	n/a
419.4145	0.06	838829	keystroke_i	i	n/a
419.595	0.0595	839190	keystroke_f	f	n/a
419.7145	0.0605	839429	keystroke_y	y	n/a
419.85	0.09	839700	keystroke_Key.space	Key.space	n/a
420.525	0.0745	841050	keystroke_m	m	n/a
420.645	0.075	841290	keystroke_e	e	n/a
420.81	0.0895	841620	keystroke_c	c	n/a
420.885	0.06	841770	keystroke_h	h	n/a
421.035	0.0895	842070	keystroke_a	a	n/a
421.1095	0.0755	842219	keystroke_n	n	n/a
421.2745	0.075	842549	keystroke_i	i	n/a
421.4245	0.1205	842849	keystroke_c	c	n/a
421.53	0.09	843060	keystroke_a	a	n/a
421.665	0.105	843330	keystroke_l	l	n/a
421.89	0.059	843780	keystroke_Key.enter	Key.enter	n/a
421.9685	7.033	843937	prompt	n/a	incl prague kingston rates\n
422.685	0.105	845370	keystroke_i	i	n/a
422.91	0.0605	845820	keystroke_n	n	n/a
423.03	0.09	846060	keystroke_c	c	n/a
423.165	0.0755	846330	keystroke_l	l	n/a
423.945	0.075	847890	keystroke_Key.space	Key.space	n/a
424.455	0.105	848910	keystroke_p	p	n/a
424.605	0.15	849210	keystroke_r	r	n/a
424.695	0.135	849390	keystroke_e	e	n/a
425.145	0.075	850290	keystroke_g	g	n/a
425.25	0.06	850500	keystroke_u	u	n/a
425.325	0.075	850650	keystroke_e	e	n/a
425.46	0.12	850920	keystroke_Key.space	Key.space	n/a
425.94	0.09	851880	keystroke_k	k	n/a
426.15	0.1055	852300	keystroke_i	i	n/a
426.3155	0.0895	852631	keystroke_n	n	n/a
426.45	0.15	852900	keystroke_s	s	n/a
426.96	0.06	853920	keystroke_Key.backspace	Key.backspace	n/a
427.125	0.105	854250	keystroke_g	g	n/a
427.395	0.12	854790	keystroke_s	s	n/a
427.47	0.104	854940	keystroke_t	t	n/a
427.8	0.105	855600	keystroke_o	o	n/a
427.95	0.09	855900	keystroke_n	n	n/a
428.16	0.075	856320	keystroke_Key.space	Key.space	n/a
428.325	0.165	856650	keystroke_r	r	n/a
428.49	0.15	856980	keystroke_a	a	n/a
428.595	0.15	857190	keystroke_t	t	n/a
428.655	0.18	857310	keystroke_e	e	n/a
428.76	0.105	857520	keystroke_s	s	n/a
428.895	0.105	857790	keystroke_Key.enter	Key.enter	n/a
429.0055	5.6665	858011	prompt	n/a	them incident ebooks flickr\n
429.75	0.089	859500	keystroke_t	t	n/a
429.854	0.06	859708	keystroke_h	h	n/a
429.929	0.0755	859858	keystroke_e	e	n/a
430.14	0.09	860280	keystroke_m	m	n/a
430.335	0.0595	860670	keystroke_Key.space	Key.space	n/a
430.5745	0.12	861149	keystroke_i	i	n/a
430.7095	0.0905	861419	keystroke_n	n	n/a
430.8745	0.09	861749	keystroke_c	c	n/a
430.98	0.06	861960	keystroke_i	i	n/a
431.1	0.09	862200	keystroke_d	d	n/a
431.295	0.0745	862590	keystroke_e	e	n/a
431.385	0.0895	862770	keystroke_n	n	n/a
431.5345	0.09	863069	keystroke_t	t	n/a
431.6245	0.105	863249	keystroke_Key.space	Key.space	n/a
431.881	0.0735	863762	keystroke_e	e	n/a
432.3145	0.0755	864629	keystroke_b	b	n/a
432.4345	0.0455	864869	keystroke_o	o	n/a
432.585	0.1045	865170	keystroke_o	o	n/a
432.7645	0.105	865529	keystroke_k	k	n/a
432.9145	0.105	865829	keystroke_s	s	n/a
433.0345	0.105	866069	keystroke_Key.space	Key.space	n/a
433.2595	0.0755	866519	keystroke_f	f	n/a
433.4395	0.106	866879	keystroke_l	l	n/a
434.1005	0.044	868201	keystroke_i	i	n/a
434.16	0.09	868320	keystroke_c	c	n/a
434.265	0.075	868530	keystroke_k	k	n/a
434.49	0.0745	868980	keystroke_r	r	n/a
434.58	0.0895	869160	keystroke_Key.enter	Key.enter	n/a
434.679	6.4725	869358	prompt	n/a	social alcohol remark sealed\n
435.4805	0.0895	870961	keystroke_s	s	n/a
435.5395	0.09	871079	keystroke_o	o	n/a
435.8545	0.105	871709	keystroke_c	c	n/a
435.945	0.0745	871890	keystroke_i	i	n/a
436.0945	0.09	872189	keystroke_a	a	n/a
436.1855	0.09	872371	keystroke_l	l	n/a
436.4405	0.044	872881	keystroke_Key.space	Key.space	n/a
436.7405	0.09	873481	keystroke_a	a	n/a
436.8595	0.09	873719	keystroke_l	l	n/a
436.9805	0.12	873961	keystroke_c	c	n/a
437.3695	0.091	874739	keystroke_o	o	n/a
437.595	0.045	875190	keystroke_h	h	n/a
437.7	0.1045	875400	keystroke_o	o	n/a
437.9245	0.0905	875849	keystroke_l	l	n/a
438.06	0.09	876120	keystroke_Key.space	Key.space	n/a
438.195	0.105	876390	keystroke_r	r	n/a
438.2545	0.105	876509	keystroke_e	e	n/a
438.405	0.0755	876810	keystroke_m	m	n/a
438.5395	0.106	877079	keystroke_a	a	n/a
438.7195	0.09	877439	keystroke_r	r	n/a
438.84	0.0895	877680	keystroke_k	k	n/a
439.004	0.076	878008	keystroke_Key.space	Key.space	n/a
439.2605	0.1195	878521	keystroke_s	s	n/a
439.485	0.0895	878970	keystroke_e	e	n/a
439.695	0.0595	879390	keystroke_e	e	n/a
439.8745	0.06	879749	keystroke_l	l	n/a
440.25	0.0595	880500	keystroke_Key.backspace	Key.backspace	n/a
440.3995	0.0605	880799	keystroke_Key.backspace	Key.backspace	n/a
440.5045	0.1205	881009	keystroke_a	a	n/a
440.6555	0.074	881311	keystroke_l	l	n/a
440.7605	0.0595	881521	keystroke_e	e	n/a
440.94	0.0595	881880	keystroke_d	d	n/a
441.1045	0.045	882209	keystroke_Key.enter	Key.enter	n/a
441.1725	8.694	882345	prompt	n/a	handles hampshire mechanical turns\n
442.0045	0.06	884009	keystroke_h	h	n/a
442.0945	0.09	884189	keystroke_a	a	n/a
442.23	0.03	884460	keystroke_n	n	n/a
442.605	0.0745	885210	keystroke_Key.backspace	Key.backspace	n/a
443.1	0.0595	886200	keystroke_n	n	n/a
443.2195	0.075	886439	keystroke_d	d	n/a
443.3245	0.075	886649	keystroke_l	l	n/a
443.4295	0.21	886859	keystroke_e	e	n/a
443.5345	0.135	887069	keystroke_s	s	n/a
443.7295	0.09	887459	keystroke_Key.space	Key.space	n/a
444.0445	0.075	888089	keystroke_h	h	n/a
444.15	0.1045	888300	keystroke_a	a	n/a
444.315	0.1345	888630	keystroke_m	m	n/a
444.6145	0.1055	889229	keystroke_s	s	n/a
445.2595	0.121	890519	keystroke_h	h	n/a
445.4395	0.09	890879	keystroke_i	i	n/a
445.875	0.1345	891750	keystroke_r	r	n/a
445.9495	0.1205	891899	keystroke_e	e	n/a
446.7595	0.075	893519	keystroke_Key.space	Key.space	n/a
447.1795	0.0755	894359	keystroke_m	m	n/a
447.2395	0.075	894479	keystroke_e	e	n/a
447.435	0.1205	894870	keystroke_c	c	n/a
447.5395	0.06	895079	keystroke_h	h	n/a
447.6445	0.106	895289	keystroke_a	a	n/a
447.7345	0.105	895469	keystroke_n	n	n/a
447.9	0.075	895800	keystroke_i	i	n/a
448.08	0.09	896160	keystroke_c	c	n/a
448.185	0.105	896370	keystroke_a	a	n/a
448.305	0.075	896610	keystroke_l	l	n/a
448.47	0.075	896940	keystroke_Key.space	Key.space	n/a
449.13	0.075	898260	keystroke_t	t	n/a
449.34	0.045	898680	keystroke_u	u	n/a
449.4	0.09	898800	keystroke_r	r	n/a
449.565	0.045	899130	keystroke_n	n	n/a
449.625	0.09	899250	keystroke_s	s	n/a
449.775	0.09	899550	keystroke_Key.enter	Key.enter	n/a
449.882	10.185	899764	prompt	n/a	promised provisions levy whom'st\n
450.81	0.105	901620	keystroke_p	p	n/a
450.945	0.09	901890	keystroke_r	r	n/a
451.095	0.09	902190	keystroke_o	o	n/a
451.41	0.06	902820	keystroke_k	k	n/a
451.83	0.09	903660	keystroke_=	=	n/a
452.085	0.09	904170	keystroke_m	m	n/a
452.355	0.09	904710	keystroke_Key.backspace	Key.backspace	n/a
452.535	0.075	905070	keystroke_Key.backspace	Key.backspace	n/a
452.7	0.09	905400	keystroke_Key.backspace	Key.backspace	n/a
452.97	0.06	905940	keystroke_m	m	n/a
453.165	0.045	906330	keystroke_i	i	n/a
453.285	0.15	906570	keystroke_s	s	n/a
453.405	0.12	906810	keystroke_e	e	n/a
453.63	0.119	907260	keystroke_d	d	n/a
453.779	0.105	907558	keystroke_Key.space	Key.space	n/a
454.2	0.0745	908400	keystroke_p	p	n/a
454.305	0.105	908610	keystroke_r	r	n/a
454.529	0.09	909058	keystroke_o	o	n/a
454.785	0.059	909570	keystroke_v	v	n/a
454.905	0.0745	909810	keystroke_i	i	n/a
455.115	0.074	910230	keystroke_d	d	n/a
455.744	0.075	911488	keystroke_Key.backspace	Key.backspace	n/a
455.91	0.09	911820	keystroke_s	s	n/a
456.18	0.195	912360	keystroke_i	i	n/a
456.314	0.195	912628	keystroke_o	o	n/a
456.615	0.105	913230	keystroke_n	n	n/a
456.765	0.089	913530	keystroke_s	s	n/a
456.869	0.105	913738	keystroke_Key.space	Key.space	n/a
457.0055	0.134	914011	keystroke_l	l	n/a
457.0795	0.105	914159	keystroke_e	e	n/a
457.41	0.09	914820	keystroke_v	v	n/a
457.71	0.06	915420	keystroke_y	y	n/a
457.86	0.09	915720	keystroke_Key.space	Key.space	n/a
458.5205	0.1045	917041	keystroke_w	w	n/a
458.655	0.12	917310	keystroke_h	h	n/a
458.775	0.135	917550	keystroke_o	o	n/a
459.015	0.045	918030	keystroke_m	m	n/a
459.435	0.075	918870	keystroke_'	'	n/a
459.645	0.09	919290	keystroke_s	s	n/a
459.855	0.075	919710	keystroke_t	t	n/a
459.99	0.075	919980	keystroke_Key.enter	Key.enter	n/a
460.083	7.4835	920166	prompt	n/a	document meant grove reset\n
460.905	0.06	921810	keystroke_d	d	n/a
461.175	0.09	922350	keystroke_o	o	n/a
461.34	0.06	922680	keystroke_c	c	n/a
461.415	0.06	922830	keystroke_u	u	n/a
461.85	0.075	923700	keystroke_m	m	n/a
462.645	0.105	925290	keystroke_e	e	n/a
462.9455	0.0745	925891	keystroke_n	n	n/a
463.0655	0.0895	926131	keystroke_t	t	n/a
463.215	0.105	926430	keystroke_Key.space	Key.space	n/a
463.695	0.075	927390	keystroke_m	m	n/a
463.8155	0.1345	927631	keystroke_e	e	n/a
463.92	0.105	927840	keystroke_a	a	n/a
464.055	0.0755	928110	keystroke_n	n	n/a
464.1755	0.1045	928351	keystroke_t	t	n/a
464.4	0.09	928800	keystroke_Key.space	Key.space	n/a
464.85	0.12	929700	keystroke_g	g	n/a
464.925	0.135	929850	keystroke_r	r	n/a
465.09	0.12	930180	keystroke_o	o	n/a
465.45	0.18	930900	keystroke_v	v	n/a
465.615	0.12	931230	keystroke_e	e	n/a
465.78	0.09	931560	keystroke_Key.space	Key.space	n/a
466.215	0.15	932430	keystroke_r	r	n/a
466.321	0.494	932642	keystroke_e	e	n/a
466.4555	0.1945	932911	keystroke_s	s	n/a
466.635	0.105	933270	keystroke_t	t	n/a
467.145	0.09	934290	keystroke_Key.backspace	Key.backspace	n/a
467.25	0.12	934500	keystroke_e	e	n/a
467.325	0.105	934650	keystroke_t	t	n/a
467.49	0.075	934980	keystroke_Key.enter	Key.enter	n/a
467.5695	10.498	935139	prompt	n/a	back purposes clarke desired\n
468.735	0.03	937470	keystroke_b	b	n/a
468.7805	0.149	937561	keystroke_a	a	n/a
468.96	0.12	937920	keystroke_c	c	n/a
469.065	0.135	938130	keystroke_k	k	n/a
469.275	0.09	938550	keystroke_Key.space	Key.space	n/a
469.7545	0.09	939509	keystroke_p	p	n/a
470.5945	0.0605	941189	keystroke_u	u	n/a
470.776	0.059	941552	keystroke_r	r	n/a
471.0295	0.075	942059	keystroke_p	p	n/a
471.1795	0.09	942359	keystroke_o	o	n/a
471.2845	0.1205	942569	keystroke_s	s	n/a
471.3445	0.1355	942689	keystroke_e	e	n/a
471.5095	0.136	943019	keystroke_s	s	n/a
471.69	0.075	943380	keystroke_Key.space	Key.space	n/a
472.5	0.075	945000	keystroke_c	c	n/a
472.68	0.075	945360	keystroke_l	l	n/a
472.74	0.12	945480	keystroke_a	a	n/a
472.8905	0.0895	945781	keystroke_r	r	n/a
473.01	0.075	946020	keystroke_k	k	n/a
473.13	0.061	946260	keystroke_e	e	n/a
473.445	0.09	946890	keystroke_Key.space	Key.space	n/a
473.655	0.075	947310	keystroke_d	d	n/a
473.79	0.075	947580	keystroke_i	i	n/a
473.88	0.135	947760	keystroke_e	e	n/a
474.3	0.075	948600	keystroke_s	s	n/a
474.78	0.045	949560	keystroke_Key.backspace	Key.backspace	n/a
474.915	0.075	949830	keystroke_Key.backspace	Key.backspace	n/a
475.17	0.12	950340	keystroke_s	s	n/a
475.47	0.075	950940	keystroke_Key.backspace	Key.backspace	n/a
475.815	0.12	951630	keystroke_s	s	n/a
475.965	0.105	951930	keystroke_i	i	n/a
476.4	0.06	952800	keystroke_Key.backspace	Key.backspace	n/a
476.565	0.075	953130	keystroke_Key.backspace	Key.backspace	n/a
477.0295	0.0745	954059	keystroke_Key.backspace	Key.backspace	n/a
477.15	0.0745	954300	keystroke_e	e	n/a
477.42	0.12	954840	keystroke_s	s	n/a
477.554	0.0455	955108	keystroke_i	i	n/a
477.629	0.106	955258	keystroke_r	r	n/a
477.705	0.104	955410	keystroke_e	e	n/a
477.899	0.0755	955798	keystroke_d	d	n/a
477.989	0.075	955978	keystroke_Key.enter	Key.enter	n/a
478.0805	7.997	956161	prompt	n/a	nova railway that'd toolbar\n
479.475	0.014	958950	keystroke_n	n	n/a
479.534	0.106	959068	keystroke_o	o	n/a
479.655	0.104	959310	keystroke_v	v	n/a
479.76	0.045	959520	keystroke_e	e	n/a
479.8955	0.0895	959791	keystroke_a	a	n/a
480.329	0.075	960658	keystroke_Key.backspace	Key.backspace	n/a
480.5545	0.075	961109	keystroke_Key.backspace	Key.backspace	n/a
480.735	0.059	961470	keystroke_a	a	n/a
480.8545	0.105	961709	keystroke_Key.space	Key.space	n/a
481.1545	0.135	962309	keystroke_r	r	n/a
481.2755	0.119	962551	keystroke_a	a	n/a
481.4695	0.105	962939	keystroke_i	i	n/a
481.635	0.105	963270	keystroke_l	l	n/a
481.9195	0.1505	963839	keystroke_w	w	n/a
482.055	0.09	964110	keystroke_a	a	n/a
482.22	0.09	964440	keystroke_y	y	n/a
482.385	0.105	964770	keystroke_Key.space	Key.space	n/a
482.8045	0.1055	965609	keystroke_t	t	n/a
482.925	0.0445	965850	keystroke_h	h	n/a
482.9705	0.134	965941	keystroke_a	a	n/a
483.0595	0.1205	966119	keystroke_t	t	n/a
483.3295	0.09	966659	keystroke_'	'	n/a
483.765	0.06	967530	keystroke_d	d	n/a
483.9895	0.1055	967979	keystroke_Key.space	Key.space	n/a
484.7245	0.0605	969449	keystroke_t	t	n/a
484.7995	0.03	969599	keystroke_o	o	n/a
484.9345	0.075	969869	keystroke_o	o	n/a
485.145	0.09	970290	keystroke_l	l	n/a
485.67	0.0295	971340	keystroke_b	b	n/a
485.7295	0.15	971459	keystroke_a	a	n/a
485.8495	0.1055	971699	keystroke_r	r	n/a
485.9845	0.09	971969	keystroke_Key.enter	Key.enter	n/a
486.087	28.805	972174	prompt	n/a	reasonably starsmerchant perception governing\n
487.0195	0.1655	974039	keystroke_r	r	n/a
487.11	0.1345	974220	keystroke_e	e	n/a
487.1995	0.195	974399	keystroke_a	a	n/a
487.3645	0.1355	974729	keystroke_s	s	n/a
487.485	0.1495	974970	keystroke_o	o	n/a
487.6355	0.0895	975271	keystroke_n	n	n/a
487.7095	0.0755	975419	keystroke_a	a	n/a
487.86	0.1055	975720	keystroke_l	l	n/a
488.01	0.0745	976020	keystroke_y	y	n/a
488.43	0.1045	976860	keystroke_s	s	n/a
488.5495	0.1205	977099	keystroke_t	t	n/a
488.655	0.1495	977310	keystroke_a	a	n/a
488.7745	0.105	977549	keystroke_r	r	n/a
489.1195	0.0605	978239	keystroke_c	c	n/a
489.404	0.046	978808	keystroke_h	h	n/a
489.7195	0.0605	979439	keystroke_Key.backspace	Key.backspace	n/a
489.885	0.075	979770	keystroke_Key.backspace	Key.backspace	n/a
490.964	0.106	981928	keystroke_Key.backspace	Key.backspace	n/a
491.16	0.105	982320	keystroke_Key.backspace	Key.backspace	n/a
491.6695	0.105	983339	keystroke_Key.backspace	Key.backspace	n/a
491.864	0.1055	983728	keystroke_Key.backspace	Key.backspace	n/a
492.0595	0.1355	984119	keystroke_Key.backspace	Key.backspace	n/a
492.5545	0.165	985109	keystroke_Key.backspace	Key.backspace	n/a
494.4905	0.075	988981	keystroke_b	b	n/a
494.6105	0.074	989221	keystroke_l	l	n/a
494.775	0.1195	989550	keystroke_e	e	n/a
495.1945	0.09	990389	keystroke_Key.backspace	Key.backspace	n/a
495.3455	0.089	990691	keystroke_t	t	n/a
495.7945	0.075	991589	keystroke_Key.backspace	Key.backspace	n/a
495.8855	0.074	991771	keystroke_y	y	n/a
496.0345	0.1055	992069	keystroke_Key.space	Key.space	n/a
496.38	0.135	992760	keystroke_s	s	n/a
496.5	0.165	993000	keystroke_a	a	n/a
496.575	0.135	993150	keystroke_t	t	n/a
496.89	0.134	993780	keystroke_e	e	n/a
497.2795	0.0595	994559	keystroke_Key.backspace	Key.backspace	n/a
497.355	0.105	994710	keystroke_r	r	n/a
497.475	0.09	994950	keystroke_s	s	n/a
497.624	0.06	995248	keystroke_Key.space	Key.space	n/a
498.06	0.075	996120	keystroke_Key.backspace	Key.backspace	n/a
498.299	0.061	996598	keystroke_m	m	n/a
498.4205	0.1485	996841	keystroke_e	e	n/a
498.54	0.105	997080	keystroke_r	r	n/a
498.7345	0.105	997469	keystroke_c	c	n/a
498.8245	0.06	997649	keystroke_h	h	n/a
498.975	0.1495	997950	keystroke_a	a	n/a
499.1395	0.1055	998279	keystroke_n	n	n/a
499.289	0.06	998578	keystroke_t	t	n/a
499.394	0.06	998788	keystroke_Key.space	Key.space	n/a
499.62	0.1055	999240	keystroke_p	p	n/a
499.875	0.15	999750	keystroke_r	r	n/a
499.995	0.12	999990	keystroke_e	e	n/a
500.4	0.1055	1000800	keystroke_c	c	n/a
500.5195	0.1205	1001039	keystroke_e	e	n/a
500.835	0.1045	1001670	keystroke_p	p	n/a
500.955	0.09	1001910	keystroke_t	t	n/a
501.1355	0.1195	1002271	keystroke_i	i	n/a
501.24	0.149	1002480	keystroke_o	o	n/a
501.42	0.12	1002840	keystroke_n	n	n/a
501.7945	0.12	1003589	keystroke_Key.space	Key.space	n/a
501.9445	0.1055	1003889	keystroke_g	g	n/a
502.0945	0.1055	1004189	keystroke_o	o	n/a
502.5595	0.1045	1005119	keystroke_Key.backspace	Key.backspace	n/a
503.2495	0.0745	1006499	keystroke_Key.backspace	Key.backspace	n/a
503.37	0.075	1006740	keystroke_Key.backspace	Key.backspace	n/a
503.5495	0.105	1007099	keystroke_Key.backspace	Key.backspace	n/a
504.4495	0.09	1008899	keystroke_Key.backspace	Key.backspace	n/a
504.675	0.09	1009350	keystroke_Key.backspace	Key.backspace	n/a
504.8545	0.1055	1009709	keystroke_Key.backspace	Key.backspace	n/a
505.035	0.105	1010070	keystroke_Key.backspace	Key.backspace	n/a
505.23	0.075	1010460	keystroke_Key.backspace	Key.backspace	n/a
505.4245	0.06	1010849	keystroke_Key.backspace	Key.backspace	n/a
505.6045	0.0905	1011209	keystroke_Key.backspace	Key.backspace	n/a
505.8445	0.06	1011689	keystroke_Key.backspace	Key.backspace	n/a
506.295	0.1345	1012590	keystroke_e	e	n/a
506.415	0.0595	1012830	keystroke_r	r	n/a
508.065	0.0895	1016130	keystroke_c	c	n/a
509.475	0.105	1018950	keystroke_e	e	n/a
509.64	0.0595	1019280	keystroke_o	o	n/a
510.03	0.1195	1020060	keystroke_t	t	n/a
510.285	0.0595	1020570	keystroke_Key.backspace	Key.backspace	n/a
510.4645	0.0755	1020929	keystroke_Key.backspace	Key.backspace	n/a
510.915	0.09	1021830	keystroke_p	p	n/a
511.02	0.09	1022040	keystroke_t	t	n/a
511.2	0.1645	1022400	keystroke_i	i	n/a
511.3795	0.0905	1022759	keystroke_o	o	n/a
511.5895	0.0755	1023179	keystroke_n	n	n/a
511.7395	0.09	1023479	keystroke_Key.space	Key.space	n/a
512.024	0.09	1024048	keystroke_g	g	n/a
512.204	0.0755	1024408	keystroke_o	o	n/a
512.595	0.03	1025190	keystroke_v	v	n/a
