onset	duration	sample	value	key	prompt_text
3.237	15.4765	6474	prompt	n/a	the quick brown fox jumps over a lazy dog\n
4.869	0.001	9738	keystroke_t	t	n/a
4.87	0.013	9740	keystroke_h	h	n/a
5.078	0.18	10156	keystroke_e	e	n/a
5.272	0.1205	10544	keystroke_Key.space	Key.space	n/a
5.5125	0.12	11025	keystroke_q	q	n/a
5.5875	0.075	11175	keystroke_u	u	n/a
5.794	0.075	11588	keystroke_i	i	n/a
5.915	0.239	11830	keystroke_c	c	n/a
6.139	0.03	12278	keystroke_k	k	n/a
6.3495	0.09	12699	keystroke_Key.space	Key.space	n/a
6.6795	0.105	13359	keystroke_f	f	n/a
6.7995	0.105	13599	keystroke_o	o	n/a
7.0695	0.135	14139	keystroke_x	x	n/a
7.2495	0.105	14499	keystroke_Key.space	Key.space	n/a
7.5355	0.18	15071	keystroke_j	j	n/a
7.6545	0.09	15309	keystroke_u	u	n/a
7.8945	0.12	15789	keystroke_m	m	n/a
8.0895	0.105	16179	keystroke_p	p	n/a
8.66	0.06	17320	keystroke_Key.backspace	Key.backspace	n/a
8.8255	0.045	17651	keystroke_Key.backspace	Key.backspace	n/a
8.975	0.045	17950	keystroke_Key.backspace	Key.backspace	n/a
9.14	0.06	18280	keystroke_Key.backspace	Key.backspace	n/a
9.32	0.075	18640	keystroke_Key.backspace	Key.backspace	n/a
9.515	0.06	19030	keystroke_Key.backspace	Key.backspace	n/a
9.71	0.0605	19420	keystroke_Key.backspace	Key.backspace	n/a
9.8755	0.06	19751	keystroke_Key.backspace	Key.backspace	n/a
10.326	0.029	20652	keystroke_b	b	n/a
10.46	0.12	20920	keystroke_r	r	n/a
10.6555	0.0905	21311	keystroke_o	o	n/a
10.851	0.09	21702	keystroke_w	w	n/a
10.985	0.106	21970	keystroke_n	n	n/a
11.435	0.136	22870	keystroke_Key.space	Key.space	n/a
11.901	0.1195	23802	keystroke_f	f	n/a
12.0355	0.12	24071	keystroke_o	o	n/a
12.5905	0.12	25181	keystroke_x	x	n/a
12.7705	0.105	25541	keystroke_Key.space	Key.space	n/a
12.981	0.1195	25962	keystroke_j	j	n/a
13.1755	0.03	26351	keystroke_u	u	n/a
13.3705	0.075	26741	keystroke_m	m	n/a
13.5805	0.105	27161	keystroke_p	p	n/a
13.8055	0.12	27611	keystroke_s	s	n/a
13.9265	0.1345	27853	keystroke_Key.space	Key.space	n/a
14.121	0.135	28242	keystroke_o	o	n/a
14.271	0.18	28542	keystroke_v	v	n/a
14.421	0.15	28842	keystroke_e	e	n/a
14.511	0.15	29022	keystroke_r	r	n/a
14.676	0.12	29352	keystroke_Key.space	Key.space	n/a
14.931	0.12	29862	keystroke_Key.space	Key.space	n/a
15.396	0.09	30792	keystroke_Key.backspace	Key.backspace	n/a
15.501	0.165	31002	keystroke_a	a	n/a
15.681	0.105	31362	keystroke_Key.space	Key.space	n/a
16.356	0.105	32712	keystroke_l	l	n/a
16.626	0.15	33252	keystroke_z	z	n/a
17.1205	0.06	34241	keystroke_Key.backspace	Key.backspace	n/a
17.2405	0.1055	34481	keystroke_a	a	n/a
17.481	0.135	34962	keystroke_z	z	n/a
17.601	0.03	35202	keystroke_y	y	n/a
17.781	0.105	35562	keystroke_Key.space	Key.space	n/a
18.0215	0.12	36043	keystroke_d	d	n/a
18.1865	0.1045	36373	keystroke_o	o	n/a
18.396	0.1045	36792	keystroke_g	g	n/a
18.621	0.0895	37242	keystroke_Key.enter	Key.enter	n/a
18.719	18.2185	37438	prompt	n/a	investing broadway involved precisely\n
19.4455	0.0905	38891	keystroke_i	i	n/a
19.641	0.09	39282	keystroke_v	v	n/a
19.851	0.12	39702	keystroke_e	e	n/a
20.106	0.15	40212	keystroke_s	s	n/a
22.116	0.12	44232	keystroke_Key.backspace	Key.backspace	n/a
22.4605	0.106	44921	keystroke_Key.backspace	Key.backspace	n/a
22.6715	0.059	45343	keystroke_Key.backspace	Key.backspace	n/a
23.5115	0.12	47023	keystroke_m	m	n/a
24.186	0.075	48372	keystroke_Key.backspace	Key.backspace	n/a
24.711	0.06	49422	keystroke_n	n	n/a
24.936	0.105	49872	keystroke_v	v	n/a
25.161	0.165	50322	keystroke_e	e	n/a
25.296	0.135	50592	keystroke_s	s	n/a
25.476	0.12	50952	keystroke_t	t	n/a
25.6405	0.2255	51281	keystroke_i	i	n/a
25.7315	0.1795	51463	keystroke_n	n	n/a
25.881	0.12	51762	keystroke_g	g	n/a
25.986	0.15	51972	keystroke_Key.space	Key.space	n/a
26.316	0.075	52632	keystroke_b	b	n/a
26.466	0.12	52932	keystroke_r	r	n/a
26.601	0.1195	53202	keystroke_o	o	n/a
26.7805	0.12	53561	keystroke_w	w	n/a
27.1105	0.075	54221	keystroke_a	a	n/a
27.951	0.075	55902	keystroke_Key.backspace	Key.backspace	n/a
28.116	0.075	56232	keystroke_Key.backspace	Key.backspace	n/a
29.121	0.15	58242	keystroke_a	a	n/a
29.4505	0.18	58901	keystroke_d	d	n/a
29.8405	0.15	59681	keystroke_w	w	n/a
30.0055	0.15	60011	keystroke_a	a	n/a
30.4705	0.075	60941	keystroke_y	y	n/a
30.7255	0.12	61451	keystroke_Key.space	Key.space	n/a
30.8755	0.196	61751	keystroke_i	i	n/a
30.9805	0.15	61961	keystroke_n	n	n/a
32.301	0.165	64602	keystroke_v	v	n/a
32.676	0.165	65352	keystroke_o	o	n/a
33.126	0.1955	66252	keystroke_l	l	n/a
33.4105	0.12	66821	keystroke_v	v	n/a
33.5905	0.09	67181	keystroke_e	e	n/a
33.8015	0.149	67603	keystroke_d	d	n/a
34.1005	0.12	68201	keystroke_Key.space	Key.space	n/a
34.5655	0.105	69131	keystroke_p	p	n/a
34.911	0.12	69822	keystroke_r	r	n/a
35.001	0.135	70002	keystroke_e	e	n/a
35.601	0.135	71202	keystroke_c	c	n/a
35.766	0.105	71532	keystroke_i	i	n/a
36.051	0.135	72102	keystroke_s	s	n/a
36.261	0.135	72522	keystroke_e	e	n/a
36.471	0.105	72942	keystroke_l	l	n/a
36.636	0.12	73272	keystroke_y	y	n/a
36.876	0.06	73752	keystroke_Key.enter	Key.enter	n/a
36.9425	11.095	73885	prompt	n/a	occupational newspapers controversy mainland\n
37.941	0.09	75882	keystroke_o	o	n/a
38.136	0.105	76272	keystroke_c	c	n/a
38.271	0.15	76542	keystroke_c	c	n/a
38.9155	0.075	77831	keystroke_u	u	n/a
39.456	0.12	78912	keystroke_p	p	n/a
40.3555	0.12	80711	keystroke_a	a	n/a
40.6705	0.09	81341	keystroke_t	t	n/a
40.8055	0.24	81611	keystroke_i	i	n/a
40.8955	0.12	81791	keystroke_o	o	n/a
40.9705	0.135	81941	keystroke_n	n	n/a
41.1205	0.09	82241	keystroke_a	a	n/a
41.2855	0.105	82571	keystroke_l	l	n/a
41.4205	0.12	82841	keystroke_Key.space	Key.space	n/a
41.616	0.09	83232	keystroke_n	n	n/a
41.736	0.165	83472	keystroke_e	e	n/a
41.886	0.105	83772	keystroke_w	w	n/a
42.126	0.105	84252	keystroke_s	s	n/a
42.3505	0.075	84701	keystroke_p	p	n/a
42.5005	0.105	85001	keystroke_a	a	n/a
42.6205	0.09	85241	keystroke_p	p	n/a
42.8005	0.241	85601	keystroke_e	e	n/a
42.9505	0.135	85901	keystroke_r	r	n/a
43.1005	0.1355	86201	keystroke_s	s	n/a
43.461	0.15	86922	keystroke_Key.space	Key.space	n/a
43.896	0.15	87792	keystroke_c	c	n/a
43.986	0.1795	87972	keystroke_o	o	n/a
44.106	0.1495	88212	keystroke_n	n	n/a
44.3605	0.105	88721	keystroke_t	t	n/a
44.5105	0.165	89021	keystroke_r	r	n/a
44.7055	0.0905	89411	keystroke_o	o	n/a
44.9755	0.09	89951	keystroke_v	v	n/a
45.2315	0.195	90463	keystroke_e	e	n/a
45.3815	0.135	90763	keystroke_r	r	n/a
45.6515	0.12	91303	keystroke_s	s	n/a
45.9365	0.09	91873	keystroke_y	y	n/a
46.2205	0.0905	92441	keystroke_Key.space	Key.space	n/a
46.4915	0.089	92983	keystroke_m	m	n/a
46.6705	0.075	93341	keystroke_a	a	n/a
46.8055	0.15	93611	keystroke_i	i	n/a
46.8655	0.15	93731	keystroke_n	n	n/a
47.3605	0.075	94721	keystroke_l	l	n/a
47.4655	0.09	94931	keystroke_a	a	n/a
47.6155	0.105	95231	keystroke_n	n	n/a
47.7505	0.09	95501	keystroke_d	d	n/a
47.9755	0.0605	95951	keystroke_Key.enter	Key.enter	n/a
48.0415	8.741	96083	prompt	n/a	providence bean construct crown\n
48.921	0.075	97842	keystroke_p	p	n/a
49.011	0.105	98022	keystroke_r	r	n/a
49.191	0.12	98382	keystroke_o	o	n/a
49.476	0.09	98952	keystroke_v	v	n/a
49.596	0.075	99192	keystroke_i	i	n/a
49.731	0.105	99462	keystroke_d	d	n/a
49.956	0.075	99912	keystroke_e	e	n/a
50.061	0.135	100122	keystroke_n	n	n/a
50.256	0.15	100512	keystroke_c	c	n/a
50.391	0.135	100782	keystroke_e	e	n/a
50.541	0.12	101082	keystroke_Key.space	Key.space	n/a
50.826	0.06	101652	keystroke_b	b	n/a
50.946	0.105	101892	keystroke_e	e	n/a
51.066	0.1645	102132	keystroke_a	a	n/a
51.2315	0.1045	102463	keystroke_n	n	n/a
51.7405	0.105	103481	keystroke_Key.space	Key.space	n/a
52.2805	0.135	104561	keystroke_c	c	n/a
52.3705	0.1505	104741	keystroke_o	o	n/a
52.4755	0.106	104951	keystroke_n	n	n/a
52.7315	0.045	105463	keystroke_s	s	n/a
52.9115	0.105	105823	keystroke_t	t	n/a
53.1665	0.104	106333	keystroke_u	u	n/a
53.3905	0.105	106781	keystroke_c	c	n/a
53.991	0.135	107982	keystroke_Key.space	Key.space	n/a
54.891	0.075	109782	keystroke_Key.backspace	Key.backspace	n/a
55.071	0.135	110142	keystroke_t	t	n/a
55.3405	0.12	110681	keystroke_Key.space	Key.space	n/a
55.6105	0.12	111221	keystroke_c	c	n/a
55.8505	0.12	111701	keystroke_r	r	n/a
56.121	0.09	112242	keystroke_o	o	n/a
56.271	0.09	112542	keystroke_w	w	n/a
56.421	0.075	112842	keystroke_n	n	n/a
56.721	0.06	113442	keystroke_Key.enter	Key.enter	n/a
56.787	9.6715	113574	prompt	n/a	ohio limousines finances quick\n
57.8455	0.1355	115691	keystroke_o	o	n/a
58.281	0.075	116562	keystroke_h	h	n/a
59.211	0.075	118422	keystroke_i	i	n/a
59.391	0.09	118782	keystroke_o	o	n/a
59.706	0.12	119412	keystroke_Key.space	Key.space	n/a
60.336	0.06	120672	keystroke_l	l	n/a
60.501	0.09	121002	keystroke_i	i	n/a
60.8455	0.12	121691	keystroke_m	m	n/a
61.1155	0.135	122231	keystroke_o	o	n/a
62.1205	0.135	124241	keystroke_i	i	n/a
62.691	0.15	125382	keystroke_s	s	n/a
62.826	0.09	125652	keystroke_i	i	n/a
62.991	0.12	125982	keystroke_n	n	n/a
63.141	0.1355	126282	keystroke_e	e	n/a
63.291	0.15	126582	keystroke_s	s	n/a
63.456	0.135	126912	keystroke_Key.space	Key.space	n/a
63.681	0.12	127362	keystroke_f	f	n/a
63.8765	0.119	127753	keystroke_i	i	n/a
64.0715	0.12	128143	keystroke_n	n	n/a
64.2815	0.105	128563	keystroke_a	a	n/a
64.4015	0.104	128803	keystroke_n	n	n/a
64.6415	0.105	129283	keystroke_c	c	n/a
64.7465	0.1345	129493	keystroke_e	e	n/a
64.896	0.165	129792	keystroke_s	s	n/a
65.091	0.135	130182	keystroke_Key.space	Key.space	n/a
65.361	0.12	130722	keystroke_q	q	n/a
65.496	0.075	130992	keystroke_u	u	n/a
65.691	0.0905	131382	keystroke_i	i	n/a
65.8415	0.15	131683	keystroke_c	c	n/a
66.0665	0.075	132133	keystroke_k	k	n/a
66.3665	0.09	132733	keystroke_Key.enter	Key.enter	n/a
66.4615	12.881	132923	prompt	n/a	aerospace frequently leadership plymouth\n
67.3405	0.0905	134681	keystroke_a	a	n/a
67.791	0.1795	135582	keystroke_e	e	n/a
67.9865	0.149	135973	keystroke_r	r	n/a
68.7365	0.09	137473	keystroke_o	o	n/a
69.2155	0.09	138431	keystroke_p	p	n/a
69.591	0.075	139182	keystroke_Key.backspace	Key.backspace	n/a
69.726	0.105	139452	keystroke_s	s	n/a
69.861	0.105	139722	keystroke_p	p	n/a
70.116	0.15	140232	keystroke_a	a	n/a
70.386	0.165	140772	keystroke_c	c	n/a
70.536	0.15	141072	keystroke_e	e	n/a
70.671	0.15	141342	keystroke_Key.space	Key.space	n/a
70.911	0.09	141822	keystroke_f	f	n/a
71.166	0.12	142332	keystroke_r	r	n/a
71.226	0.1345	142452	keystroke_e	e	n/a
71.4505	0.135	142901	keystroke_q	q	n/a
71.601	0.105	143202	keystroke_u	u	n/a
71.811	0.135	143622	keystroke_e	e	n/a
72.246	0.105	144492	keystroke_n	n	n/a
72.4415	0.12	144883	keystroke_t	t	n/a
72.6815	0.12	145363	keystroke_l	l	n/a
72.8315	0.1345	145663	keystroke_y	y	n/a
73.176	0.015	146352	keystroke_Key.space	Key.space	n/a
73.266	0.105	146532	keystroke_l	l	n/a
73.386	0.105	146772	keystroke_e	e	n/a
73.476	0.15	146952	keystroke_a	a	n/a
73.656	0.105	147312	keystroke_d	d	n/a
73.896	0.1655	147792	keystroke_e	e	n/a
73.9715	0.165	147943	keystroke_r	r	n/a
74.2565	0.1195	148513	keystroke_s	s	n/a
74.406	0.105	148812	keystroke_h	h	n/a
75.2765	0.075	150553	keystroke_i	i	n/a
75.4705	0.076	150941	keystroke_p	p	n/a
75.9055	0.1505	151811	keystroke_Key.space	Key.space	n/a
76.311	0.105	152622	keystroke_p	p	n/a
76.686	0.09	153372	keystroke_l	l	n/a
77.4215	0.06	154843	keystroke_y	y	n/a
77.9015	0.105	155803	keystroke_m	m	n/a
78.0815	0.09	156163	keystroke_o	o	n/a
78.3515	0.0745	156703	keystroke_u	u	n/a
78.591	0.12	157182	keystroke_t	t	n/a
78.786	0.12	157572	keystroke_h	h	n/a
79.251	0.09	158502	keystroke_Key.enter	Key.enter	n/a
79.3465	9.777	158693	prompt	n/a	praise eggs insurance typically\n
80.136	0.09	160272	keystroke_r	r	n/a
80.586	0.075	161172	keystroke_Key.backspace	Key.backspace	n/a
81.126	0.0905	162252	keystroke_p	p	n/a
81.3215	0.1345	162643	keystroke_r	r	n/a
81.9365	0.1345	163873	keystroke_a	a	n/a
83.0165	0.075	166033	keystroke_i	i	n/a
83.1365	0.1645	166273	keystroke_s	s	n/a
83.271	0.1955	166542	keystroke_e	e	n/a
83.391	0.1655	166782	keystroke_Key.space	Key.space	n/a
83.8265	0.1045	167653	keystroke_e	e	n/a
84.066	0.045	168132	keystroke_g	g	n/a
84.246	0.045	168492	keystroke_g	g	n/a
84.411	0.165	168822	keystroke_s	s	n/a
84.591	0.12	169182	keystroke_Key.space	Key.space	n/a
85.071	0.12	170142	keystroke_i	i	n/a
85.176	0.15	170352	keystroke_n	n	n/a
85.401	0.105	170802	keystroke_s	s	n/a
85.551	0.12	171102	keystroke_u	u	n/a
85.836	0.135	171672	keystroke_r	r	n/a
86.136	0.18	172272	keystroke_a	a	n/a
86.391	0.15	172782	keystroke_n	n	n/a
86.556	0.1195	173112	keystroke_c	c	n/a
86.646	0.165	173292	keystroke_e	e	n/a
86.8115	0.149	173623	keystroke_Key.space	Key.space	n/a
87.351	0.12	174702	keystroke_t	t	n/a
87.516	0.09	175032	keystroke_y	y	n/a
87.831	0.03	175662	keystroke_p	p	n/a
87.9965	0.09	175993	keystroke_i	i	n/a
88.1915	0.12	176383	keystroke_c	c	n/a
88.3115	0.12	176623	keystroke_a	a	n/a
88.4465	0.06	176893	keystroke_l	l	n/a
88.5965	0.075	177193	keystroke_l	l	n/a
88.7465	0.105	177493	keystroke_y	y	n/a
89.0165	0.105	178033	keystroke_Key.enter	Key.enter	n/a
89.1285	6.8645	178257	prompt	n/a	sender protein winter prefix\n
89.811	0.09	179622	keystroke_s	s	n/a
89.976	0.105	179952	keystroke_e	e	n/a
90.111	0.12	180222	keystroke_n	n	n/a
90.246	0.135	180492	keystroke_d	d	n/a
90.4865	0.2245	180973	keystroke_e	e	n/a
90.6215	0.1645	181243	keystroke_r	r	n/a
90.801	0.135	181602	keystroke_Key.space	Key.space	n/a
91.101	0.1345	182202	keystroke_p	p	n/a
91.2965	0.09	182593	keystroke_r	r	n/a
91.4155	0.105	182831	keystroke_o	o	n/a
91.6115	0.15	183223	keystroke_t	t	n/a
91.8505	0.076	183701	keystroke_e	e	n/a
92.181	0.09	184362	keystroke_i	i	n/a
92.4505	0.09	184901	keystroke_n	n	n/a
92.6305	0.12	185261	keystroke_Key.space	Key.space	n/a
92.8555	0.09	185711	keystroke_w	w	n/a
92.9905	0.09	185981	keystroke_i	i	n/a
93.246	0.09	186492	keystroke_m	m	n/a
93.906	0.075	187812	keystroke_Key.backspace	Key.backspace	n/a
94.191	0.105	188382	keystroke_n	n	n/a
94.341	0.12	188682	keystroke_t	t	n/a
94.446	0.2095	188892	keystroke_e	e	n/a
94.6105	0.135	189221	keystroke_r	r	n/a
94.6705	0.15	189341	keystroke_Key.space	Key.space	n/a
94.881	0.1195	189762	keystroke_p	p	n/a
95.0155	0.09	190031	keystroke_r	r	n/a
95.0455	0.12	190091	keystroke_e	e	n/a
95.3155	0.1055	190631	keystroke_f	f	n/a
95.4215	0.059	190843	keystroke_i	i	n/a
95.6605	0.1205	191321	keystroke_x	x	n/a
95.9305	0.06	191861	keystroke_Key.enter	Key.enter	n/a
95.9975	12.025	191995	prompt	n/a	goods game undergraduate voyeurweb\n
96.7255	0.105	193451	keystroke_g	g	n/a
96.981	0.06	193962	keystroke_o	o	n/a
97.116	0.09	194232	keystroke_o	o	n/a
97.266	0.105	194532	keystroke_d	d	n/a
97.386	0.1505	194772	keystroke_s	s	n/a
97.6115	0.09	195223	keystroke_Key.space	Key.space	n/a
97.8065	0.09	195613	keystroke_g	g	n/a
97.9115	0.0895	195823	keystroke_a	a	n/a
98.181	0.105	196362	keystroke_e	e	n/a
98.301	0.105	196602	keystroke_Key.space	Key.space	n/a
98.9305	0.045	197861	keystroke_Key.backspace	Key.backspace	n/a
99.0655	0.06	198131	keystroke_Key.backspace	Key.backspace	n/a
99.426	0.105	198852	keystroke_m	m	n/a
99.606	0.105	199212	keystroke_e	e	n/a
99.681	0.135	199362	keystroke_Key.space	Key.space	n/a
99.936	0.075	199872	keystroke_u	u	n/a
100.191	0.03	200382	keystroke_n	n	n/a
100.206	0.105	200412	keystroke_d	d	n/a
100.4455	0.166	200891	keystroke_e	e	n/a
100.5665	0.12	201133	keystroke_r	r	n/a
101.151	0.12	202302	keystroke_g	g	n/a
101.316	0.105	202632	keystroke_r	r	n/a
101.406	0.135	202812	keystroke_a	a	n/a
101.9755	0.105	203951	keystroke_d	d	n/a
102.2605	0.09	204521	keystroke_u	u	n/a
102.4705	0.105	204941	keystroke_a	a	n/a
102.6505	0.135	205301	keystroke_g	g	n/a
103.161	0.0755	206322	keystroke_Key.backspace	Key.backspace	n/a
103.3715	0.105	206743	keystroke_t	t	n/a
103.4315	0.1795	206863	keystroke_e	e	n/a
103.9715	0.105	207943	keystroke_Key.space	Key.space	n/a
104.391	0.12	208782	keystroke_v	v	n/a
104.571	0.09	209142	keystroke_o	o	n/a
105.066	0.1355	210132	keystroke_y	y	n/a
105.816	0.1655	211632	keystroke_e	e	n/a
106.4465	0.1945	212893	keystroke_u	u	n/a
106.791	0.12	213582	keystroke_r	r	n/a
107.3315	0.12	214663	keystroke_w	w	n/a
107.481	0.18	214962	keystroke_e	e	n/a
107.646	0.09	215292	keystroke_b	b	n/a
107.9905	0.03	215981	keystroke_Key.enter	Key.enter	n/a
108.026	13.6615	216052	prompt	n/a	skating boulevard finnish establishing\n
108.861	0.12	217722	keystroke_s	s	n/a
109.596	0.09	219192	keystroke_k	k	n/a
109.8205	0.1055	219641	keystroke_a	a	n/a
110.136	0.075	220272	keystroke_t	t	n/a
110.796	0.2705	221592	keystroke_i	i	n/a
110.916	0.1955	221832	keystroke_n	n	n/a
111.0515	0.1795	222103	keystroke_g	g	n/a
111.396	0.135	222792	keystroke_Key.space	Key.space	n/a
111.7415	0.09	223483	keystroke_b	b	n/a
111.9965	0.09	223993	keystroke_o	o	n/a
112.3415	0.075	224683	keystroke_u	u	n/a
112.5965	0.105	225193	keystroke_l	l	n/a
113.631	0.165	227262	keystroke_e	e	n/a
114.261	0.15	228522	keystroke_v	v	n/a
114.546	0.12	229092	keystroke_a	a	n/a
114.726	0.09	229452	keystroke_r	r	n/a
114.936	0.165	229872	keystroke_d	d	n/a
115.116	0.09	230232	keystroke_Key.space	Key.space	n/a
115.2365	0.12	230473	keystroke_f	f	n/a
115.3715	0.135	230743	keystroke_i	i	n/a
115.4915	0.149	230983	keystroke_n	n	n/a
115.6565	0.12	231313	keystroke_i	i	n/a
117.231	0.09	234462	keystroke_Key.backspace	Key.backspace	n/a
117.606	0.09	235212	keystroke_n	n	n/a
117.846	0.0895	235692	keystroke_i	i	n/a
118.0255	0.135	236051	keystroke_s	s	n/a
118.1615	0.104	236323	keystroke_h	h	n/a
118.3255	0.12	236651	keystroke_Key.space	Key.space	n/a
118.7005	0.075	237401	keystroke_e	e	n/a
118.9255	0.105	237851	keystroke_s	s	n/a
119.2555	0.1055	238511	keystroke_t	t	n/a
119.391	0.12	238782	keystroke_a	a	n/a
119.691	0.105	239382	keystroke_b	b	n/a
120.336	0.12	240672	keystroke_l	l	n/a
120.561	0.09	241122	keystroke_i	i	n/a
120.726	0.135	241452	keystroke_s	s	n/a
121.011	0.09	242022	keystroke_h	h	n/a
121.2215	0.165	242443	keystroke_i	i	n/a
121.2955	0.166	242591	keystroke_n	n	n/a
121.4465	0.105	242893	keystroke_g	g	n/a
121.6115	0.075	243223	keystroke_Key.enter	Key.enter	n/a
121.691	10.1065	243382	prompt	n/a	thou advert extremely sophisticated\n
122.4815	0.1345	244963	keystroke_t	t	n/a
122.5865	0.1045	245173	keystroke_h	h	n/a
122.721	0.1955	245442	keystroke_o	o	n/a
122.811	0.1795	245622	keystroke_u	u	n/a
123.621	0.135	247242	keystroke_Key.space	Key.space	n/a
124.026	0.105	248052	keystroke_a	a	n/a
124.191	0.12	248382	keystroke_d	d	n/a
124.386	0.1355	248772	keystroke_v	v	n/a
124.566	0.105	249132	keystroke_e	e	n/a
124.656	0.12	249312	keystroke_r	r	n/a
124.866	0.135	249732	keystroke_t	t	n/a
125.106	0.1205	250212	keystroke_Key.space	Key.space	n/a
125.2565	0.105	250513	keystroke_e	e	n/a
125.4815	0.12	250963	keystroke_x	x	n/a
125.8115	0.12	251623	keystroke_t	t	n/a
126.1565	0.15	252313	keystroke_r	r	n/a
126.4115	0.135	252823	keystroke_e	e	n/a
127.4165	0.135	254833	keystroke_m	m	n/a
128.1655	0.135	256331	keystroke_e	e	n/a
128.4505	0.12	256901	keystroke_l	l	n/a
128.6315	0.134	257263	keystroke_y	y	n/a
128.7805	0.1355	257561	keystroke_Key.space	Key.space	n/a
129.0215	0.1345	258043	keystroke_s	s	n/a
129.171	0.105	258342	keystroke_o	o	n/a
129.426	0.09	258852	keystroke_p	p	n/a
129.636	0.105	259272	keystroke_h	h	n/a
129.8465	0.105	259693	keystroke_i	i	n/a
130.1465	0.0895	260293	keystroke_s	s	n/a
130.536	0.06	261072	keystroke_t	t	n/a
130.626	0.09	261252	keystroke_i	i	n/a
130.821	0.12	261642	keystroke_c	c	n/a
130.956	0.1055	261912	keystroke_a	a	n/a
131.1205	0.106	262241	keystroke_t	t	n/a
131.2115	0.09	262423	keystroke_e	e	n/a
131.3615	0.165	262723	keystroke_d	d	n/a
131.7055	0.09	263411	keystroke_Key.enter	Key.enter	n/a
131.801	9.3865	263602	prompt	n/a	invention dedicated strips stephanie\n
132.516	0.1655	265032	keystroke_i	i	n/a
132.6065	0.18	265213	keystroke_n	n	n/a
132.7565	0.15	265513	keystroke_v	v	n/a
132.8915	0.135	265783	keystroke_e	e	n/a
133.0565	0.09	266113	keystroke_n	n	n/a
133.1765	0.1195	266353	keystroke_t	t	n/a
133.356	0.225	266712	keystroke_i	i	n/a
133.461	0.105	266922	keystroke_o	o	n/a
133.476	0.18	266952	keystroke_n	n	n/a
133.671	0.15	267342	keystroke_Key.space	Key.space	n/a
134.0465	0.075	268093	keystroke_d	d	n/a
134.2265	0.075	268453	keystroke_e	e	n/a
135.966	0.03	271932	keystroke_d	d	n/a
136.026	0.09	272052	keystroke_i	i	n/a
136.206	0.09	272412	keystroke_c	c	n/a
136.401	0.06	272802	keystroke_a	a	n/a
136.536	0.12	273072	keystroke_t	t	n/a
136.641	0.135	273282	keystroke_e	e	n/a
136.882	0.134	273764	keystroke_d	d	n/a
137.017	0.134	274034	keystroke_Key.space	Key.space	n/a
137.226	0.1055	274452	keystroke_s	s	n/a
137.3765	0.15	274753	keystroke_t	t	n/a
137.5865	0.135	275173	keystroke_r	r	n/a
138.171	0.18	276342	keystroke_i	i	n/a
138.291	0.165	276582	keystroke_p	p	n/a
138.471	0.135	276942	keystroke_s	s	n/a
138.561	0.165	277122	keystroke_Key.space	Key.space	n/a
139.116	0.1055	278232	keystroke_s	s	n/a
139.3415	0.165	278683	keystroke_t	t	n/a
139.6865	0.1345	279373	keystroke_e	e	n/a
139.986	0.075	279972	keystroke_p	p	n/a
140.181	0.105	280362	keystroke_h	h	n/a
140.421	0.135	280842	keystroke_a	a	n/a
140.571	0.1045	281142	keystroke_i	i	n/a
140.6455	0.166	281291	keystroke_n	n	n/a
140.8555	0.09	281711	keystroke_e	e	n/a
141.1255	0.06	282251	keystroke_Key.enter	Key.enter	n/a
141.1905	7.872	282381	prompt	n/a	science auditor afterwards special\n
141.891	0.1045	283782	keystroke_s	s	n/a
142.176	0.195	284352	keystroke_c	c	n/a
142.341	0.105	284682	keystroke_i	i	n/a
142.611	0.12	285222	keystroke_e	e	n/a
142.836	0.15	285672	keystroke_n	n	n/a
143.106	0.1195	286212	keystroke_c	c	n/a
143.181	0.1505	286362	keystroke_e	e	n/a
143.3455	0.09	286691	keystroke_Key.space	Key.space	n/a
143.5255	0.135	287051	keystroke_a	a	n/a
143.6905	0.135	287381	keystroke_u	u	n/a
144.1265	0.165	288253	keystroke_d	d	n/a
144.2765	0.075	288553	keystroke_i	i	n/a
144.4865	0.105	288973	keystroke_t	t	n/a
144.6365	0.12	289273	keystroke_o	o	n/a
144.7715	0.15	289543	keystroke_r	r	n/a
144.8915	0.135	289783	keystroke_Key.space	Key.space	n/a
145.1315	0.104	290263	keystroke_a	a	n/a
145.2965	0.134	290593	keystroke_f	f	n/a
145.7005	0.12	291401	keystroke_t	t	n/a
145.956	0.18	291912	keystroke_e	e	n/a
146.076	0.18	292152	keystroke_r	r	n/a
146.451	0.09	292902	keystroke_w	w	n/a
146.721	0.105	293442	keystroke_a	a	n/a
146.871	0.09	293742	keystroke_r	r	n/a
147.111	0.1805	294222	keystroke_d	d	n/a
147.2765	0.15	294553	keystroke_s	s	n/a
147.591	0.105	295182	keystroke_Key.space	Key.space	n/a
147.831	0.105	295662	keystroke_s	s	n/a
148.0415	0.0745	296083	keystroke_p	p	n/a
148.131	0.075	296262	keystroke_e	e	n/a
148.341	0.135	296682	keystroke_c	c	n/a
148.461	0.075	296922	keystroke_i	i	n/a
148.626	0.09	297252	keystroke_a	a	n/a
148.731	0.075	297462	keystroke_l	l	n/a
149.016	0.045	298032	keystroke_Key.enter	Key.enter	n/a
149.0655	13.692	298131	prompt	n/a	trade supplier evanescence posting\n
149.901	0.045	299802	keystroke_t	t	n/a
149.9905	0.18	299981	keystroke_r	r	n/a
150.1555	0.135	300311	keystroke_a	a	n/a
150.3205	0.105	300641	keystroke_g	g	n/a
150.8005	0.0755	301601	keystroke_Key.backspace	Key.backspace	n/a
150.8155	0.12	301631	keystroke_d	d	n/a
151.0405	0.1505	302081	keystroke_e	e	n/a
151.176	0.135	302352	keystroke_Key.space	Key.space	n/a
151.7315	0.1045	303463	keystroke_s	s	n/a
151.8805	0.075	303761	keystroke_u	u	n/a
152.166	0.06	304332	keystroke_p	p	n/a
152.3155	0.045	304631	keystroke_p	p	n/a
152.511	0.0755	305022	keystroke_l	l	n/a
152.6905	0.0755	305381	keystroke_i	i	n/a
152.9455	0.165	305891	keystroke_e	e	n/a
153.0515	0.1495	306103	keystroke_r	r	n/a
153.186	0.09	306372	keystroke_Key.space	Key.space	n/a
153.336	0.0905	306672	keystroke_e	e	n/a
153.5765	0.135	307153	keystroke_v	v	n/a
153.7415	0.15	307483	keystroke_a	a	n/a
153.9365	0.09	307873	keystroke_n	n	n/a
155.0615	0.075	310123	keystroke_e	e	n/a
155.2265	0.105	310453	keystroke_s	s	n/a
155.8565	0.12	311713	keystroke_c	c	n/a
156.3665	0.135	312733	keystroke_e	e	n/a
156.6665	0.12	313333	keystroke_n	n	n/a
158.6465	0.165	317293	keystroke_c	c	n/a
158.7965	0.15	317593	keystroke_e	e	n/a
159.0215	0.15	318043	keystroke_Key.space	Key.space	n/a
159.5465	0.09	319093	keystroke_p	p	n/a
159.7415	0.12	319483	keystroke_o	o	n/a
159.8765	0.1045	319753	keystroke_s	s	n/a
160.071	0.2105	320142	keystroke_i	i	n/a
160.086	0.1205	320172	keystroke_t	t	n/a
160.176	0.1805	320352	keystroke_n	n	n/a
160.4615	0.165	320923	keystroke_g	g	n/a
161.4505	0.06	322901	keystroke_Key.backspace	Key.backspace	n/a
161.601	0.06	323202	keystroke_Key.backspace	Key.backspace	n/a
161.751	0.06	323502	keystroke_Key.backspace	Key.backspace	n/a
161.886	0.075	323772	keystroke_Key.backspace	Key.backspace	n/a
162.096	0.12	324192	keystroke_t	t	n/a
162.276	0.18	324552	keystroke_i	i	n/a
162.351	0.15	324702	keystroke_n	n	n/a
162.502	0.119	325004	keystroke_g	g	n/a
162.696	0.06	325392	keystroke_Key.enter	Key.enter	n/a
162.761	6.5815	325522	prompt	n/a	treat leslie cliff notre\n
163.4465	0.15	326893	keystroke_t	t	n/a
163.7765	0.15	327553	keystroke_r	r	n/a
163.9115	0.135	327823	keystroke_e	e	n/a
164.2115	0.12	328423	keystroke_a	a	n/a
164.3165	0.165	328633	keystroke_t	t	n/a
164.5115	0.15	329023	keystroke_Key.space	Key.space	n/a
164.8115	0.045	329623	keystroke_t	t	n/a
165.306	0.03	330612	keystroke_Key.backspace	Key.backspace	n/a
165.501	0.12	331002	keystroke_l	l	n/a
165.636	0.12	331272	keystroke_e	e	n/a
165.726	0.195	331452	keystroke_s	s	n/a
166.206	0.105	332412	keystroke_l	l	n/a
166.356	0.075	332712	keystroke_i	i	n/a
166.581	0.15	333162	keystroke_e	e	n/a
166.791	0.105	333582	keystroke_Key.space	Key.space	n/a
167.0305	0.12	334061	keystroke_c	c	n/a
167.1055	0.09	334211	keystroke_l	l	n/a
167.301	0.075	334602	keystroke_i	i	n/a
167.496	0.06	334992	keystroke_f	f	n/a
167.6465	0.105	335293	keystroke_f	f	n/a
167.8715	0.1045	335743	keystroke_Key.space	Key.space	n/a
168.216	0.09	336432	keystroke_n	n	n/a
168.411	0.09	336822	keystroke_o	o	n/a
168.576	0.12	337152	keystroke_t	t	n/a
168.801	0.105	337602	keystroke_r	r	n/a
168.996	0.105	337992	keystroke_e	e	n/a
169.251	0.09	338502	keystroke_Key.enter	Key.enter	n/a
169.346	11.967	338692	prompt	n/a	snapshot gear approve tribune\n
170.316	0.09	340632	keystroke_s	s	n/a
170.826	0.075	341652	keystroke_n	n	n/a
170.976	0.135	341952	keystroke_a	a	n/a
171.186	0.09	342372	keystroke_p	p	n/a
171.471	0.12	342942	keystroke_s	s	n/a
171.606	0.105	343212	keystroke_h	h	n/a
171.756	0.015	343512	keystroke_h	h	n/a
171.816	0.06	343632	keystroke_i	i	n/a
172.446	0.0605	344892	keystroke_Key.backspace	Key.backspace	n/a
172.5815	0.06	345163	keystroke_Key.backspace	Key.backspace	n/a
173.256	0.075	346512	keystroke_o	o	n/a
173.766	0.1505	347532	keystroke_t	t	n/a
173.9615	0.135	347923	keystroke_Key.space	Key.space	n/a
174.2915	0.075	348583	keystroke_g	g	n/a
174.696	0.27	349392	keystroke_e	e	n/a
175.0855	0.1805	350171	keystroke_a	a	n/a
175.311	0.165	350622	keystroke_r	r	n/a
175.611	0.12	351222	keystroke_Key.space	Key.space	n/a
175.866	0.12	351732	keystroke_a	a	n/a
176.076	0.075	352152	keystroke_p	p	n/a
176.226	0.075	352452	keystroke_p	p	n/a
176.346	0.12	352692	keystroke_r	r	n/a
176.496	0.0905	352992	keystroke_o	o	n/a
176.7065	0.135	353413	keystroke_v	v	n/a
176.8565	0.12	353713	keystroke_e	e	n/a
176.9915	0.135	353983	keystroke_Key.space	Key.space	n/a
177.4865	0.105	354973	keystroke_t	t	n/a
177.8315	0.135	355663	keystroke_r	r	n/a
178.6865	0.06	357373	keystroke_u	u	n/a
179.226	0.0755	358452	keystroke_Key.backspace	Key.backspace	n/a
179.7665	0.09	359533	keystroke_i	i	n/a
180.0065	0.105	360013	keystroke_b	b	n/a
180.1865	0.09	360373	keystroke_u	u	n/a
180.3515	0.12	360703	keystroke_n	n	n/a
180.5015	0.135	361003	keystroke_e	e	n/a
181.2215	0.0895	362443	keystroke_Key.enter	Key.enter	n/a
181.316	8.3965	362632	prompt	n/a	coral angle permissions manchester\n
182.496	0.105	364992	keystroke_c	c	n/a
182.601	0.1055	365202	keystroke_o	o	n/a
182.8265	0.105	365653	keystroke_r	r	n/a
183.0815	0.135	366163	keystroke_a	a	n/a
183.2165	0.105	366433	keystroke_l	l	n/a
183.3805	0.105	366761	keystroke_Key.space	Key.space	n/a
183.6065	0.104	367213	keystroke_a	a	n/a
183.7415	0.105	367483	keystroke_n	n	n/a
184.026	0.135	368052	keystroke_g	g	n/a
184.266	0.09	368532	keystroke_l	l	n/a
184.386	0.165	368772	keystroke_e	e	n/a
184.566	0.135	369132	keystroke_Key.space	Key.space	n/a
184.821	0.075	369642	keystroke_p	p	n/a
184.971	0.195	369942	keystroke_e	e	n/a
185.121	0.0905	370242	keystroke_r	r	n/a
185.4215	0.105	370843	keystroke_m	m	n/a
185.6015	0.09	371203	keystroke_i	i	n/a
185.7815	0.06	371563	keystroke_s	s	n/a
185.9615	0.075	371923	keystroke_s	s	n/a
186.126	0.21	372252	keystroke_i	i	n/a
186.186	0.135	372372	keystroke_o	o	n/a
186.246	0.165	372492	keystroke_n	n	n/a
186.396	0.135	372792	keystroke_s	s	n/a
186.516	0.165	373032	keystroke_Key.space	Key.space	n/a
186.846	0.09	373692	keystroke_m	m	n/a
187.161	0.0905	374322	keystroke_n	n	n/a
187.2665	0.135	374533	keystroke_a	a	n/a
187.626	0.075	375252	keystroke_Key.backspace	Key.backspace	n/a
187.7615	0.09	375523	keystroke_Key.backspace	Key.backspace	n/a
187.8965	0.1195	375793	keystroke_a	a	n/a
188.076	0.09	376152	keystroke_n	n	n/a
188.316	0.15	376632	keystroke_c	c	n/a
188.451	0.09	376902	keystroke_h	h	n/a
188.646	0.105	377292	keystroke_e	e	n/a
188.721	0.135	377442	keystroke_s	s	n/a
188.916	0.15	377832	keystroke_t	t	n/a
189.051	0.135	378102	keystroke_e	e	n/a
189.141	0.1045	378282	keystroke_r	r	n/a
189.6805	0.03	379361	keystroke_Key.enter	Key.enter	n/a
189.7155	9.747	379431	prompt	n/a	char conscious societies compliance\n
190.4165	0.12	380833	keystroke_c	c	n/a
190.5665	0.105	381133	keystroke_h	h	n/a
190.6865	0.105	381373	keystroke_a	a	n/a
190.8065	0.18	381613	keystroke_r	r	n/a
190.9865	0.12	381973	keystroke_Key.space	Key.space	n/a
191.241	0.15	382482	keystroke_c	c	n/a
191.406	0.105	382812	keystroke_o	o	n/a
191.451	0.15	382902	keystroke_n	n	n/a
191.841	0.106	383682	keystroke_s	s	n/a
192.141	0.105	384282	keystroke_c	c	n/a
192.261	0.09	384522	keystroke_i	i	n/a
192.501	0.1805	385002	keystroke_o	o	n/a
192.576	0.1205	385152	keystroke_u	u	n/a
192.7865	0.1345	385573	keystroke_s	s	n/a
192.966	0.135	385932	keystroke_Key.space	Key.space	n/a
193.191	0.12	386382	keystroke_s	s	n/a
193.371	0.1055	386742	keystroke_o	o	n/a
193.7615	0.135	387523	keystroke_c	c	n/a
193.9115	0.1195	387823	keystroke_i	i	n/a
194.3915	0.104	388783	keystroke_e	e	n/a
194.6165	0.135	389233	keystroke_t	t	n/a
194.8565	0.09	389713	keystroke_i	i	n/a
195.1405	0.106	390281	keystroke_e	e	n/a
195.321	0.12	390642	keystroke_s	s	n/a
195.561	0.135	391122	keystroke_Key.space	Key.space	n/a
196.1465	0.12	392293	keystroke_c	c	n/a
196.2965	0.06	392593	keystroke_m	m	n/a
196.3115	0.255	392623	keystroke_o	o	n/a
197.1965	0.0595	394393	keystroke_Key.backspace	Key.backspace	n/a
197.331	0.06	394662	keystroke_Key.backspace	Key.backspace	n/a
197.6615	0.075	395323	keystroke_o	o	n/a
197.9015	0.075	395803	keystroke_m	m	n/a
198.171	0.09	396342	keystroke_p	p	n/a
198.3965	0.075	396793	keystroke_l	l	n/a
198.6215	0.075	397243	keystroke_i	i	n/a
198.9065	0.105	397813	keystroke_a	a	n/a
199.0265	0.105	398053	keystroke_n	n	n/a
199.1765	0.105	398353	keystroke_c	c	n/a
199.2515	0.12	398503	keystroke_e	e	n/a
199.4165	0.045	398833	keystroke_Key.enter	Key.enter	n/a
199.466	7.752	398932	prompt	n/a	strong agreement resume respect\n
200.136	0.105	400272	keystroke_s	s	n/a
200.361	0.1355	400722	keystroke_t	t	n/a
200.5415	0.165	401083	keystroke_r	r	n/a
200.7515	0.12	401503	keystroke_o	o	n/a
200.7815	0.165	401563	keystroke_n	n	n/a
200.9915	0.15	401983	keystroke_g	g	n/a
201.5765	0.149	403153	keystroke_Key.space	Key.space	n/a
201.8615	0.135	403723	keystroke_a	a	n/a
202.2665	0.105	404533	keystroke_g	g	n/a
202.566	0.075	405132	keystroke_r	r	n/a
202.761	0.09	405522	keystroke_e	e	n/a
202.956	0.045	405912	keystroke_e	e	n/a
203.3015	0.075	406603	keystroke_m	m	n/a
203.4515	0.105	406903	keystroke_e	e	n/a
203.6615	0.075	407323	keystroke_n	n	n/a
203.8565	0.15	407713	keystroke_t	t	n/a
204.0965	0.12	408193	keystroke_Key.space	Key.space	n/a
204.3365	0.225	408673	keystroke_r	r	n/a
204.5165	0.15	409033	keystroke_e	e	n/a
204.8015	0.135	409603	keystroke_s	s	n/a
204.9515	0.06	409903	keystroke_u	u	n/a
205.206	0.09	410412	keystroke_m	m	n/a
205.311	0.165	410622	keystroke_e	e	n/a
205.461	0.105	410922	keystroke_Key.space	Key.space	n/a
205.8215	0.15	411643	keystroke_r	r	n/a
205.8965	0.12	411793	keystroke_e	e	n/a
206.1355	0.121	412271	keystroke_s	s	n/a
206.3455	0.076	412691	keystroke_p	p	n/a
206.4965	0.0445	412993	keystroke_e	e	n/a
206.6915	0.0895	413383	keystroke_c	c	n/a
206.931	0.075	413862	keystroke_t	t	n/a
207.141	0.075	414282	keystroke_Key.enter	Key.enter	n/a
207.223	12.91	414446	prompt	n/a	giant hearing mustang runtime\n
208.146	0.105	416292	keystroke_g	g	n/a
208.386	0.105	416772	keystroke_a	a	n/a
208.612	0.075	417224	keystroke_i	i	n/a
208.821	0.076	417642	keystroke_n	n	n/a
209.001	0.135	418002	keystroke_t	t	n/a
209.181	0.105	418362	keystroke_Key.space	Key.space	n/a
209.452	0.075	418904	keystroke_h	h	n/a
209.556	0.151	419112	keystroke_e	e	n/a
209.646	0.15	419292	keystroke_a	a	n/a
209.781	0.1355	419562	keystroke_r	r	n/a
209.9615	0.195	419923	keystroke_i	i	n/a
210.0365	0.18	420073	keystroke_n	n	n/a
210.2015	0.15	420403	keystroke_g	g	n/a
211.2805	0.046	422561	keystroke_Key.backspace	Key.backspace	n/a
211.4465	0.045	422893	keystroke_Key.backspace	Key.backspace	n/a
211.6105	0.046	423221	keystroke_Key.backspace	Key.backspace	n/a
211.7765	0.06	423553	keystroke_Key.backspace	Key.backspace	n/a
211.9565	0.06	423913	keystroke_Key.backspace	Key.backspace	n/a
212.121	0.0605	424242	keystroke_Key.backspace	Key.backspace	n/a
212.301	0.045	424602	keystroke_Key.backspace	Key.backspace	n/a
212.481	0.03	424962	keystroke_Key.backspace	Key.backspace	n/a
212.661	0.045	425322	keystroke_Key.backspace	Key.backspace	n/a
212.8415	0.045	425683	keystroke_Key.backspace	Key.backspace	n/a
213.0365	0.045	426073	keystroke_Key.backspace	Key.backspace	n/a
213.2615	0.045	426523	keystroke_Key.backspace	Key.backspace	n/a
214.056	0.06	428112	keystroke_i	i	n/a
214.281	0.105	428562	keystroke_a	a	n/a
214.431	0.075	428862	keystroke_n	n	n/a
214.611	0.135	429222	keystroke_t	t	n/a
214.731	0.165	429462	keystroke_Key.space	Key.space	n/a
215.4515	0.015	430903	keystroke_h	h	n/a
215.5115	0.12	431023	keystroke_e	e	n/a
215.6015	0.15	431203	keystroke_a	a	n/a
215.8415	0.1045	431683	keystroke_r	r	n/a
215.991	0.195	431982	keystroke_i	i	n/a
216.096	0.15	432192	keystroke_n	n	n/a
216.291	0.09	432582	keystroke_g	g	n/a
216.336	0.15	432672	keystroke_Key.space	Key.space	n/a
216.816	0.105	433632	keystroke_m	m	n/a
217.086	0.075	434172	keystroke_u	u	n/a
217.3565	0.09	434713	keystroke_s	s	n/a
217.656	0.1205	435312	keystroke_t	t	n/a
217.8365	0.12	435673	keystroke_a	a	n/a
217.9865	0.1195	435973	keystroke_n	n	n/a
218.181	0.1655	436362	keystroke_g	g	n/a
218.3615	0.119	436723	keystroke_Key.space	Key.space	n/a
218.6165	0.135	437233	keystroke_r	r	n/a
218.7655	0.106	437531	keystroke_u	u	n/a
219.0515	0.09	438103	keystroke_n	n	n/a
219.3365	0.09	438673	keystroke_t	t	n/a
219.4715	0.09	438943	keystroke_i	i	n/a
219.7265	0.0745	439453	keystroke_m	m	n/a
219.8615	0.12	439723	keystroke_e	e	n/a
220.071	0.06	440142	keystroke_Key.enter	Key.enter	n/a
220.136	7.962	440272	prompt	n/a	decimal spec switched batman\n
220.8365	0.075	441673	keystroke_d	d	n/a
221.0165	0.06	442033	keystroke_e	e	n/a
221.1815	0.135	442363	keystroke_c	c	n/a
221.3015	0.09	442603	keystroke_i	i	n/a
221.5865	0.09	443173	keystroke_m	m	n/a
221.7215	0.105	443443	keystroke_a	a	n/a
221.8565	0.105	443713	keystroke_l	l	n/a
222.0215	0.105	444043	keystroke_Key.space	Key.space	n/a
222.2615	0.12	444523	keystroke_s	s	n/a
222.4565	0.09	444913	keystroke_p	p	n/a
222.4865	0.105	444973	keystroke_e	e	n/a
222.756	0.24	445512	keystroke_c	c	n/a
223.041	0.09	446082	keystroke_c	c	n/a
223.5965	0.075	447193	keystroke_Key.backspace	Key.backspace	n/a
223.7765	0.12	447553	keystroke_Key.space	Key.space	n/a
224.0015	0.075	448003	keystroke_s	s	n/a
224.1815	0.0895	448363	keystroke_i	i	n/a
224.631	0.06	449262	keystroke_Key.backspace	Key.backspace	n/a
224.721	0.105	449442	keystroke_w	w	n/a
224.886	0.09	449772	keystroke_i	i	n/a
225.036	0.105	450072	keystroke_t	t	n/a
225.606	0.1205	451212	keystroke_c	c	n/a
225.7115	0.075	451423	keystroke_h	h	n/a
225.8765	0.075	451753	keystroke_e	e	n/a
226.0715	0.1195	452143	keystroke_d	d	n/a
226.2065	0.105	452413	keystroke_Key.space	Key.space	n/a
226.432	0.059	452864	keystroke_b	b	n/a
226.551	0.135	453102	keystroke_a	a	n/a
227.017	0.12	454034	keystroke_t	t	n/a
227.3765	0.09	454753	keystroke_m	m	n/a
227.5415	0.105	455083	keystroke_a	a	n/a
227.7065	0.0595	455413	keystroke_n	n	n/a
228.051	0.045	456102	keystroke_Key.enter	Key.enter	n/a
228.101	8.082	456202	prompt	n/a	reasonable utah documentation provided\n
228.951	0.135	457902	keystroke_r	r	n/a
228.996	0.135	457992	keystroke_e	e	n/a
229.146	0.135	458292	keystroke_a	a	n/a
229.341	0.135	458682	keystroke_s	s	n/a
229.521	0.135	459042	keystroke_o	o	n/a
229.596	0.135	459192	keystroke_n	n	n/a
229.716	0.105	459432	keystroke_a	a	n/a
229.926	0.135	459852	keystroke_b	b	n/a
230.046	0.15	460092	keystroke_l	l	n/a
230.166	0.135	460332	keystroke_e	e	n/a
230.271	0.15	460542	keystroke_Key.space	Key.space	n/a
230.481	0.09	460962	keystroke_u	u	n/a
230.677	0.1045	461354	keystroke_t	t	n/a
230.9465	0.105	461893	keystroke_a	a	n/a
231.2465	0.09	462493	keystroke_h	h	n/a
231.5315	0.105	463063	keystroke_Key.space	Key.space	n/a
231.7265	0.12	463453	keystroke_d	d	n/a
231.9215	0.09	463843	keystroke_o	o	n/a
232.1165	0.12	464233	keystroke_c	c	n/a
232.2215	0.075	464443	keystroke_u	u	n/a
232.4915	0.075	464983	keystroke_m	m	n/a
232.6265	0.09	465253	keystroke_e	e	n/a
232.791	0.075	465582	keystroke_n	n	n/a
233.047	0.104	466094	keystroke_t	t	n/a
233.2265	0.135	466453	keystroke_a	a	n/a
233.3915	0.12	466783	keystroke_t	t	n/a
233.5865	0.195	467173	keystroke_i	i	n/a
233.6615	0.105	467323	keystroke_o	o	n/a
233.7065	0.15	467413	keystroke_n	n	n/a
234.5015	0.135	469003	keystroke_Key.space	Key.space	n/a
234.9965	0.075	469993	keystroke_p	p	n/a
235.1165	0.1055	470233	keystroke_r	r	n/a
235.236	0.075	470472	keystroke_o	o	n/a
235.431	0.09	470862	keystroke_v	v	n/a
235.551	0.09	471102	keystroke_i	i	n/a
235.671	0.06	471342	keystroke_d	d	n/a
235.851	0.031	471702	keystroke_e	e	n/a
235.986	0.075	471972	keystroke_d	d	n/a
236.121	0.06	472242	keystroke_Key.enter	Key.enter	n/a
236.186	11.067	472372	prompt	n/a	attraction prizes respectively uniform\n
236.7965	0.12	473593	keystroke_a	a	n/a
237.0365	0.09	474073	keystroke_t	t	n/a
237.2015	0.09	474403	keystroke_t	t	n/a
237.4265	0.135	474853	keystroke_r	r	n/a
237.6065	0.105	475213	keystroke_a	a	n/a
237.8765	0.075	475753	keystroke_c	c	n/a
238.1165	0.09	476233	keystroke_t	t	n/a
238.2665	0.2105	476533	keystroke_i	i	n/a
238.326	0.135	476652	keystroke_o	o	n/a
238.386	0.15	476772	keystroke_n	n	n/a
238.491	0.12	476982	keystroke_Key.space	Key.space	n/a
238.821	0.12	477642	keystroke_r	r	n/a
239.271	0.075	478542	keystroke_Key.backspace	Key.backspace	n/a
239.511	0.09	479022	keystroke_p	p	n/a
239.661	0.12	479322	keystroke_r	r	n/a
239.8115	0.0895	479623	keystroke_o	o	n/a
240.021	0.12	480042	keystroke_z	z	n/a
240.516	0.0455	481032	keystroke_Key.backspace	Key.backspace	n/a
240.636	0.06	481272	keystroke_Key.backspace	Key.backspace	n/a
241.251	0.075	482502	keystroke_i	i	n/a
241.401	0.135	482802	keystroke_z	z	n/a
241.611	0.12	483222	keystroke_e	e	n/a
241.851	0.135	483702	keystroke_s	s	n/a
242.151	0.12	484302	keystroke_Key.space	Key.space	n/a
242.556	0.135	485112	keystroke_r	r	n/a
242.631	0.1205	485262	keystroke_e	e	n/a
242.7965	0.135	485593	keystroke_s	s	n/a
243.0365	0.075	486073	keystroke_p	p	n/a
243.2015	0.075	486403	keystroke_e	e	n/a
243.3965	0.105	486793	keystroke_c	c	n/a
243.6815	0.105	487363	keystroke_r	r	n/a
244.536	0.1055	489072	keystroke_Key.backspace	Key.backspace	n/a
244.7015	0.105	489403	keystroke_t	t	n/a
244.8665	0.09	489733	keystroke_i	i	n/a
245.0615	0.1345	490123	keystroke_v	v	n/a
245.1515	0.1645	490303	keystroke_e	e	n/a
245.331	0.105	490662	keystroke_l	l	n/a
245.481	0.15	490962	keystroke_y	y	n/a
245.781	0.1505	491562	keystroke_Key.space	Key.space	n/a
245.9615	0.09	491923	keystroke_u	u	n/a
246.171	0.12	492342	keystroke_n	n	n/a
246.276	0.1055	492552	keystroke_i	i	n/a
246.5015	0.1195	493003	keystroke_f	f	n/a
246.6065	0.0895	493213	keystroke_o	o	n/a
246.726	0.105	493452	keystroke_r	r	n/a
246.876	0.075	493752	keystroke_m	m	n/a
247.191	0.06	494382	keystroke_Key.enter	Key.enter	n/a
247.256	9.762	494512	prompt	n/a	tribune douglas principle period\n
248.227	0.104	496454	keystroke_t	t	n/a
248.3915	0.15	496783	keystroke_r	r	n/a
248.6015	0.06	497203	keystroke_y	y	n/a
248.9465	0.105	497893	keystroke_b	b	n/a
249.621	0.045	499242	keystroke_Key.backspace	Key.backspace	n/a
249.741	0.09	499482	keystroke_Key.backspace	Key.backspace	n/a
250.431	0.06	500862	keystroke_i	i	n/a
250.731	0.09	501462	keystroke_b	b	n/a
250.911	0.075	501822	keystroke_u	u	n/a
251.166	0.075	502332	keystroke_n	n	n/a
251.301	0.165	502602	keystroke_e	e	n/a
251.451	0.135	502902	keystroke_Key.space	Key.space	n/a
251.9015	0.15	503803	keystroke_d	d	n/a
252.0665	0.09	504133	keystroke_o	o	n/a
252.3815	0.06	504763	keystroke_u	u	n/a
252.6965	0.105	505393	keystroke_g	g	n/a
252.906	0.075	505812	keystroke_l	l	n/a
253.026	0.075	506052	keystroke_a	a	n/a
253.3865	0.105	506773	keystroke_s	s	n/a
253.7015	0.135	507403	keystroke_Key.space	Key.space	n/a
254.1065	0.09	508213	keystroke_p	p	n/a
254.2115	0.1345	508423	keystroke_r	r	n/a
254.361	0.135	508722	keystroke_i	i	n/a
254.661	0.09	509322	keystroke_c	c	n/a
254.766	0.075	509532	keystroke_i	i	n/a
254.991	0.06	509982	keystroke_p	p	n/a
255.171	0.0905	510342	keystroke_l	l	n/a
255.2765	0.165	510553	keystroke_e	e	n/a
255.4115	0.15	510823	keystroke_Key.space	Key.space	n/a
255.6965	0.09	511393	keystroke_p	p	n/a
255.8615	0.15	511723	keystroke_e	e	n/a
256.0265	0.135	512053	keystroke_r	r	n/a
256.2965	0.15	512593	keystroke_i	i	n/a
256.5665	0.09	513133	keystroke_o	o	n/a
256.7015	0.12	513403	keystroke_d	d	n/a
256.9415	0.075	513883	keystroke_Key.enter	Key.enter	n/a
257.021	9.702	514042	prompt	n/a	pill sufficiently only soldier\n
257.6765	0.09	515353	keystroke_p	p	n/a
257.916	0.075	515832	keystroke_o	o	n/a
258.276	0.045	516552	keystroke_l	l	n/a
258.576	0.06	517152	keystroke_Key.backspace	Key.backspace	n/a
258.726	0.06	517452	keystroke_Key.backspace	Key.backspace	n/a
259.281	0.045	518562	keystroke_i	i	n/a
259.536	0.06	519072	keystroke_l	l	n/a
259.686	0.075	519372	keystroke_l	l	n/a
259.866	0.135	519732	keystroke_Key.space	Key.space	n/a
260.076	0.135	520152	keystroke_s	s	n/a
260.271	0.075	520542	keystroke_u	u	n/a
260.661	0.105	521322	keystroke_f	f	n/a
260.781	0.15	521562	keystroke_f	f	n/a
261.066	0.09	522132	keystroke_f	f	n/a
261.741	0.075	523482	keystroke_Key.backspace	Key.backspace	n/a
262.0265	0.09	524053	keystroke_i	i	n/a
262.3715	0.135	524743	keystroke_c	c	n/a
262.5215	0.075	525043	keystroke_i	i	n/a
262.7165	0.12	525433	keystroke_e	e	n/a
262.8815	0.1355	525763	keystroke_n	n	n/a
263.092	0.15	526184	keystroke_t	t	n/a
263.4065	0.105	526813	keystroke_l	l	n/a
263.5565	0.105	527113	keystroke_y	y	n/a
263.7815	0.1195	527563	keystroke_Key.space	Key.space	n/a
264.036	0.091	528072	keystroke_o	o	n/a
264.186	0.09	528372	keystroke_n	n	n/a
264.3365	0.105	528673	keystroke_l	l	n/a
264.4865	0.18	528973	keystroke_y	y	n/a
264.6215	0.15	529243	keystroke_Key.space	Key.space	n/a
264.9215	0.15	529843	keystroke_s	s	n/a
265.0115	0.075	530023	keystroke_o	o	n/a
265.2215	0.0895	530443	keystroke_l	l	n/a
265.326	0.09	530652	keystroke_d	d	n/a
265.566	0.045	531132	keystroke_e	e	n/a
265.956	0.06	531912	keystroke_Key.backspace	Key.backspace	n/a
266.196	0.09	532392	keystroke_i	i	n/a
266.316	0.15	532632	keystroke_e	e	n/a
266.421	0.1205	532842	keystroke_r	r	n/a
266.6465	0.075	533293	keystroke_Key.enter	Key.enter	n/a
266.7275	11.0805	533455	prompt	n/a	wayne baking justify direct\n
267.5315	0.15	535063	keystroke_w	w	n/a
267.6665	0.15	535333	keystroke_a	a	n/a
267.7865	0.09	535573	keystroke_y	y	n/a
268.1465	0.075	536293	keystroke_n	n	n/a
268.3415	0.135	536683	keystroke_e	e	n/a
268.5065	0.135	537013	keystroke_Key.space	Key.space	n/a
268.9115	0.075	537823	keystroke_b	b	n/a
269.6615	0.09	539323	keystroke_a	a	n/a
269.7815	0.075	539563	keystroke_k	k	n/a
270.0215	0.21	540043	keystroke_i	i	n/a
270.1265	0.15	540253	keystroke_n	n	n/a
270.2165	0.165	540433	keystroke_g	g	n/a
270.3965	0.105	540793	keystroke_Key.space	Key.space	n/a
270.5915	0.12	541183	keystroke_j	j	n/a
270.7865	0.09	541573	keystroke_u	u	n/a
270.9665	0.075	541933	keystroke_s	s	n/a
271.236	0.015	542472	keystroke_t	t	n/a
271.296	0.106	542592	keystroke_i	i	n/a
271.461	0.136	542922	keystroke_f	f	n/a
271.626	0.045	543252	keystroke_u	u	n/a
271.641	0.015	543282	keystroke_y	y	n/a
272.2265	0.075	544453	keystroke_Key.backspace	Key.backspace	n/a
272.736	0.06	545472	keystroke_Key.backspace	Key.backspace	n/a
273.187	0.074	546374	keystroke_y	y	n/a
273.3815	0.135	546763	keystroke_Key.space	Key.space	n/a
274.0115	0.105	548023	keystroke_f	f	n/a
274.1315	0.09	548263	keystroke_i	i	n/a
274.5065	0.12	549013	keystroke_r	r	n/a
274.8665	0.06	549733	keystroke_Key.backspace	Key.backspace	n/a
275.0165	0.075	550033	keystroke_Key.backspace	Key.backspace	n/a
275.316	0.015	550632	keystroke_d	d	n/a
275.346	0.06	550692	keystroke_i	i	n/a
275.841	0.0605	551682	keystroke_Key.backspace	Key.backspace	n/a
275.9915	0.0745	551983	keystroke_Key.backspace	Key.backspace	n/a
276.126	0.105	552252	keystroke_Key.backspace	Key.backspace	n/a
276.306	0.1355	552612	keystroke_d	d	n/a
276.5015	0.09	553003	keystroke_i	i	n/a
276.7115	0.105	553423	keystroke_r	r	n/a
276.9365	0.075	553873	keystroke_e	e	n/a
277.1615	0.0895	554323	keystroke_c	c	n/a
277.431	0.09	554862	keystroke_t	t	n/a
277.746	0.06	555492	keystroke_Key.enter	Key.enter	n/a
277.8115	11.4415	555623	prompt	n/a	mambo coupon nottingham testimony\n
278.6915	0.1345	557383	keystroke_m	m	n/a
278.916	0.105	557832	keystroke_a	a	n/a
279.111	0.0905	558222	keystroke_m	m	n/a
279.4265	0.0745	558853	keystroke_b	b	n/a
279.667	0.1045	559334	keystroke_o	o	n/a
279.9515	0.105	559903	keystroke_Key.space	Key.space	n/a
280.1915	0.135	560383	keystroke_c	c	n/a
280.356	0.135	560712	keystroke_o	o	n/a
280.4165	0.0895	560833	keystroke_u	u	n/a
280.642	0.075	561284	keystroke_p	p	n/a
281.287	0.06	562574	keystroke_o	o	n/a
281.466	0.061	562932	keystroke_n	n	n/a
281.856	0.105	563712	keystroke_Key.space	Key.space	n/a
282.366	0.09	564732	keystroke_n	n	n/a
282.546	0.105	565092	keystroke_o	o	n/a
283.011	0.06	566022	keystroke_t	t	n/a
283.176	0.09	566352	keystroke_t	t	n/a
283.372	0.195	566744	keystroke_i	i	n/a
283.477	0.164	566954	keystroke_n	n	n/a
283.626	0.091	567252	keystroke_g	g	n/a
284.167	0.03	568334	keystroke_h	h	n/a
284.3615	0.105	568723	keystroke_a	a	n/a
284.5115	0.09	569023	keystroke_m	m	n/a
285.9065	0.12	571813	keystroke_Key.space	Key.space	n/a
286.1915	0.12	572383	keystroke_t	t	n/a
286.3415	0.165	572683	keystroke_e	e	n/a
286.4465	0.195	572893	keystroke_r	r	n/a
287.3915	0.09	574783	keystroke_Key.backspace	Key.backspace	n/a
287.5415	0.105	575083	keystroke_s	s	n/a
287.6765	0.135	575353	keystroke_t	t	n/a
287.8865	0.075	575773	keystroke_i	i	n/a
288.2765	0.1055	576553	keystroke_m	m	n/a
288.472	0.075	576944	keystroke_o	o	n/a
288.622	0.09	577244	keystroke_n	n	n/a
288.892	0.06	577784	keystroke_y	y	n/a
289.177	0.074	578354	keystroke_Key.enter	Key.enter	n/a
289.2565	13.7365	578513	prompt	n/a	pendant clinic physics stretch\n
290.0165	0.105	580033	keystroke_p	p	n/a
290.2715	0.105	580543	keystroke_e	e	n/a
290.4065	0.12	580813	keystroke_n	n	n/a
290.6165	0.12	581233	keystroke_d	d	n/a
290.841	0.12	581682	keystroke_a	a	n/a
290.976	0.106	581952	keystroke_n	n	n/a
291.1565	0.135	582313	keystroke_t	t	n/a
291.3065	0.105	582613	keystroke_Key.space	Key.space	n/a
291.5615	0.15	583123	keystroke_c	c	n/a
291.7265	0.09	583453	keystroke_l	l	n/a
291.9215	0.075	583843	keystroke_i	i	n/a
292.1915	0.09	584383	keystroke_n	n	n/a
292.6265	0.075	585253	keystroke_i	i	n/a
292.8065	0.12	585613	keystroke_c	c	n/a
293.0615	0.135	586123	keystroke_Key.space	Key.space	n/a
293.3915	0.09	586783	keystroke_p	p	n/a
293.6315	0.075	587263	keystroke_h	h	n/a
294.666	0.075	589332	keystroke_y	y	n/a
295.041	0.12	590082	keystroke_s	s	n/a
295.206	0.03	590412	keystroke_u	u	n/a
296.2115	0.075	592423	keystroke_Key.backspace	Key.backspace	n/a
296.4815	0.0745	592963	keystroke_i	i	n/a
296.796	0.1205	593592	keystroke_c	c	n/a
297.0665	0.09	594133	keystroke_s	s	n/a
297.2915	0.12	594583	keystroke_Key.space	Key.space	n/a
297.5615	0.105	595123	keystroke_s	s	n/a
297.7565	0.12	595513	keystroke_t	t	n/a
297.9815	0.15	595963	keystroke_r	r	n/a
300.639	0	601278	keystroke_Key.backspace	Key.backspace	n/a
300.741	0.075	601482	keystroke_Key.backspace	Key.backspace	n/a
301.2965	0.105	602593	keystroke_t	t	n/a
301.5365	0.15	603073	keystroke_r	r	n/a
301.7765	0.15	603553	keystroke_e	e	n/a
302.1815	0.105	604363	keystroke_t	t	n/a
302.5415	0.135	605083	keystroke_c	c	n/a
302.6465	0.075	605293	keystroke_h	h	n/a
302.9315	0.06	605863	keystroke_Key.enter	Key.enter	n/a
302.9965	12.627	605993	prompt	n/a	alias consumption living solving\n
303.727	0.15	607454	keystroke_a	a	n/a
304.176	0.091	608352	keystroke_l	l	n/a
304.387	0.075	608774	keystroke_i	i	n/a
304.597	0.09	609194	keystroke_a	a	n/a
304.777	0.119	609554	keystroke_s	s	n/a
305.7515	0.165	611503	keystroke_Key.space	Key.space	n/a
306.0815	0.12	612163	keystroke_c	c	n/a
306.2465	0.09	612493	keystroke_o	o	n/a
306.6665	0.06	613333	keystroke_n	n	n/a
306.9065	0.135	613813	keystroke_s	s	n/a
307.0265	0.075	614053	keystroke_u	u	n/a
307.222	0.074	614444	keystroke_m	m	n/a
307.431	0.076	614862	keystroke_p	p	n/a
307.641	0.09	615282	keystroke_t	t	n/a
307.851	0.256	615702	keystroke_i	i	n/a
307.987	0.089	615974	keystroke_o	o	n/a
308.017	0.164	616034	keystroke_n	n	n/a
308.166	0.12	616332	keystroke_Key.space	Key.space	n/a
308.421	0.105	616842	keystroke_i	i	n/a
308.586	0.12	617172	keystroke_v	v	n/a
309.0665	0.075	618133	keystroke_Key.backspace	Key.backspace	n/a
309.216	0.045	618432	keystroke_Key.backspace	Key.backspace	n/a
309.426	0.09	618852	keystroke_l	l	n/a
309.576	0.105	619152	keystroke_v	v	n/a
309.757	0.149	619514	keystroke_i	i	n/a
309.832	0.119	619664	keystroke_n	n	n/a
309.996	0.15	619992	keystroke_g	g	n/a
310.566	0.075	621132	keystroke_Key.backspace	Key.backspace	n/a
310.731	0.03	621462	keystroke_Key.backspace	Key.backspace	n/a
310.836	0.09	621672	keystroke_Key.backspace	Key.backspace	n/a
311.346	0.06	622692	keystroke_Key.backspace	Key.backspace	n/a
311.692	0.059	623384	keystroke_i	i	n/a
312.247	0.149	624494	keystroke_v	v	n/a
312.652	0.18	625304	keystroke_i	i	n/a
312.712	0.1795	625424	keystroke_n	n	n/a
312.832	0.1645	625664	keystroke_g	g	n/a
313.0265	0.135	626053	keystroke_Key.space	Key.space	n/a
313.2515	0.135	626503	keystroke_s	s	n/a
313.4915	0.06	626983	keystroke_o	o	n/a
313.6865	0.075	627373	keystroke_l	l	n/a
313.9565	0.135	627913	keystroke_b	b	n/a
314.3315	0.12	628663	keystroke_i	i	n/a
314.7215	0.06	629443	keystroke_Key.backspace	Key.backspace	n/a
314.8715	0.075	629743	keystroke_Key.backspace	Key.backspace	n/a
314.9315	0.165	629863	keystroke_v	v	n/a
315.1715	0.1795	630343	keystroke_i	i	n/a
315.231	0.165	630462	keystroke_n	n	n/a
315.336	0.12	630672	keystroke_g	g	n/a
315.561	0.061	631122	keystroke_Key.enter	Key.enter	n/a
315.628	5.8	631256	prompt	n/a	fold custody current handed\n
316.3415	0.135	632683	keystroke_f	f	n/a
316.4615	0.09	632923	keystroke_o	o	n/a
316.6715	0.075	633343	keystroke_l	l	n/a
316.8065	0.1495	633613	keystroke_d	d	n/a
316.8965	0.1345	633793	keystroke_Key.space	Key.space	n/a
317.391	0.136	634782	keystroke_c	c	n/a
317.511	0.075	635022	keystroke_u	u	n/a
317.661	0.121	635322	keystroke_s	s	n/a
317.916	0.12	635832	keystroke_t	t	n/a
318.021	0.09	636042	keystroke_o	o	n/a
318.216	0.1355	636432	keystroke_d	d	n/a
318.3815	0.09	636763	keystroke_y	y	n/a
318.636	0.12	637272	keystroke_Key.space	Key.space	n/a
319.0415	0.105	638083	keystroke_c	c	n/a
319.1615	0.0895	638323	keystroke_u	u	n/a
319.356	0.075	638712	keystroke_r	r	n/a
319.521	0.15	639042	keystroke_r	r	n/a
319.626	0.1355	639252	keystroke_e	e	n/a
319.7915	0.135	639583	keystroke_n	n	n/a
319.9115	0.1505	639823	keystroke_t	t	n/a
320.032	0.135	640064	keystroke_Key.space	Key.space	n/a
320.287	0.09	640574	keystroke_h	h	n/a
320.407	0.105	640814	keystroke_a	a	n/a
320.542	0.09	641084	keystroke_n	n	n/a
320.767	0.075	641534	keystroke_d	d	n/a
320.992	0.045	641984	keystroke_e	e	n/a
321.1715	0.09	642343	keystroke_d	d	n/a
321.3665	0.06	642733	keystroke_Key.enter	Key.enter	n/a
321.4305	11.9075	642861	prompt	n/a	twist independently hurt parliament\n
322.447	0.089	644894	keystroke_t	t	n/a
322.626	0.076	645252	keystroke_w	w	n/a
323.2865	0.075	646573	keystroke_i	i	n/a
323.646	0.106	647292	keystroke_s	s	n/a
323.901	0.135	647802	keystroke_t	t	n/a
324.066	0.12	648132	keystroke_Key.space	Key.space	n/a
324.321	0.135	648642	keystroke_i	i	n/a
324.426	0.135	648852	keystroke_n	n	n/a
324.606	0.076	649212	keystroke_d	d	n/a
324.786	0.09	649572	keystroke_e	e	n/a
324.981	0.075	649962	keystroke_p	p	n/a
325.146	0.1055	650292	keystroke_e	e	n/a
325.3115	0.09	650623	keystroke_n	n	n/a
325.5065	0.12	651013	keystroke_d	d	n/a
325.7765	0.105	651553	keystroke_e	e	n/a
326.0165	0.075	652033	keystroke_n	n	n/a
326.1665	0.09	652333	keystroke_t	t	n/a
326.3465	0.075	652693	keystroke_l	l	n/a
326.4665	0.1195	652933	keystroke_y	y	n/a
326.6765	0.135	653353	keystroke_Key.space	Key.space	n/a
326.9165	0.135	653833	keystroke_h	h	n/a
327.0965	0.09	654193	keystroke_u	u	n/a
327.2315	0.12	654463	keystroke_r	r	n/a
327.4115	0.1645	654823	keystroke_t	t	n/a
327.651	0.12	655302	keystroke_Key.space	Key.space	n/a
327.831	0.105	655662	keystroke_p	p	n/a
328.131	0.09	656262	keystroke_r	r	n/a
328.161	0.18	656322	keystroke_a	a	n/a
328.776	0.045	657552	keystroke_Key.backspace	Key.backspace	n/a
328.881	0.105	657762	keystroke_Key.backspace	Key.backspace	n/a
328.971	0.12	657942	keystroke_a	a	n/a
329.046	0.15	658092	keystroke_r	r	n/a
329.256	0.105	658512	keystroke_l	l	n/a
329.511	0.075	659022	keystroke_i	i	n/a
330.1565	0.075	660313	keystroke_m	m	n/a
330.2315	0.105	660463	keystroke_e	e	n/a
330.577	0.0595	661154	keystroke_Key.backspace	Key.backspace	n/a
330.7115	0.075	661423	keystroke_Key.backspace	Key.backspace	n/a
332.212	0.12	664424	keystroke_a	a	n/a
332.722	0.06	665444	keystroke_m	m	n/a
332.842	0.105	665684	keystroke_e	e	n/a
332.932	0.09	665864	keystroke_n	n	n/a
333.067	0.105	666134	keystroke_t	t	n/a
333.277	0.0595	666554	keystroke_Key.enter	Key.enter	n/a
333.3415	7.7965	666683	prompt	n/a	florida lanes debate corpus\n
334.027	0.135	668054	keystroke_f	f	n/a
334.462	0.074	668924	keystroke_l	l	n/a
334.656	0.105	669312	keystroke_o	o	n/a
335.2565	0.105	670513	keystroke_r	r	n/a
335.3765	0.045	670753	keystroke_i	i	n/a
335.6765	0.15	671353	keystroke_d	d	n/a
335.8115	0.1195	671623	keystroke_a	a	n/a
336.007	0.135	672014	keystroke_Key.space	Key.space	n/a
336.277	0.09	672554	keystroke_l	l	n/a
336.427	0.09	672854	keystroke_a	a	n/a
336.532	0.1195	673064	keystroke_n	n	n/a
336.8465	0.075	673693	keystroke_e	e	n/a
337.5815	0.105	675163	keystroke_s	s	n/a
337.8815	0.105	675763	keystroke_Key.space	Key.space	n/a
338.1215	0.09	676243	keystroke_d	d	n/a
338.3315	0.06	676663	keystroke_e	e	n/a
338.872	0.0745	677744	keystroke_b	b	n/a
338.9915	0.135	677983	keystroke_a	a	n/a
339.2015	0.135	678403	keystroke_t	t	n/a
339.3065	0.165	678613	keystroke_e	e	n/a
339.5015	0.12	679003	keystroke_Key.space	Key.space	n/a
339.7865	0.15	679573	keystroke_c	c	n/a
339.9215	0.12	679843	keystroke_o	o	n/a
340.1465	0.105	680293	keystroke_r	r	n/a
340.4015	0.075	680803	keystroke_p	p	n/a
340.6265	0.09	681253	keystroke_u	u	n/a
340.7915	0.12	681583	keystroke_s	s	n/a
341.0915	0.045	682183	keystroke_Key.enter	Key.enter	n/a
341.1415	8.2015	682283	prompt	n/a	parties bradley noticed shops\n
341.9315	0.09	683863	keystroke_p	p	n/a
342.1115	0.165	684223	keystroke_a	a	n/a
342.2915	0.105	684583	keystroke_r	r	n/a
342.501	0.105	685002	keystroke_t	t	n/a
342.607	0.089	685214	keystroke_i	i	n/a
342.756	0.136	685512	keystroke_e	e	n/a
342.831	0.181	685662	keystroke_s	s	n/a
343.012	0.165	686024	keystroke_Key.space	Key.space	n/a
343.342	0.105	686684	keystroke_b	b	n/a
343.5965	0.12	687193	keystroke_r	r	n/a
343.8365	0.105	687673	keystroke_e	e	n/a
344.8865	0.09	689773	keystroke_Key.backspace	Key.backspace	n/a
345.0515	0.135	690103	keystroke_a	a	n/a
345.2465	0.12	690493	keystroke_d	d	n/a
345.6815	0.06	691363	keystroke_l	l	n/a
345.7865	0.09	691573	keystroke_e	e	n/a
345.9815	0.12	691963	keystroke_t	t	n/a
346.2215	0.12	692443	keystroke_Key.space	Key.space	n/a
346.6415	0.18	693283	keystroke_n	n	n/a
346.8065	0.105	693613	keystroke_o	o	n/a
346.9265	0.105	693853	keystroke_t	t	n/a
347.0915	0.09	694183	keystroke_i	i	n/a
347.3015	0.09	694603	keystroke_c	c	n/a
347.3615	0.12	694723	keystroke_e	e	n/a
347.6465	0.105	695293	keystroke_d	d	n/a
347.7365	0.12	695473	keystroke_Key.space	Key.space	n/a
348.186	0.09	696372	keystroke_s	s	n/a
348.2915	0.1805	696583	keystroke_h	h	n/a
348.487	0.105	696974	keystroke_o	o	n/a
348.786	0.075	697572	keystroke_p	p	n/a
349.026	0.09	698052	keystroke_s	s	n/a
349.2665	0.075	698533	keystroke_Key.enter	Key.enter	n/a
349.346	7.842	698692	prompt	n/a	spiritual forge doug reviews\n
350.5265	0.105	701053	keystroke_s	s	n/a
350.6165	0.075	701233	keystroke_p	p	n/a
350.8265	0.06	701653	keystroke_i	i	n/a
351.307	0.12	702614	keystroke_r	r	n/a
351.471	0.106	702942	keystroke_i	i	n/a
352.312	0.12	704624	keystroke_t	t	n/a
352.492	0.075	704984	keystroke_u	u	n/a
352.687	0.12	705374	keystroke_a	a	n/a
352.822	0.09	705644	keystroke_l	l	n/a
352.957	0.105	705914	keystroke_Key.space	Key.space	n/a
353.167	0.1195	706334	keystroke_f	f	n/a
353.2715	0.105	706543	keystroke_o	o	n/a
353.3915	0.135	706783	keystroke_r	r	n/a
353.7365	0.1655	707473	keystroke_g	g	n/a
353.872	0.165	707744	keystroke_e	e	n/a
354.112	0.12	708224	keystroke_Key.space	Key.space	n/a
354.442	0.135	708884	keystroke_d	d	n/a
354.607	0.165	709214	keystroke_o	o	n/a
354.682	0.12	709364	keystroke_u	u	n/a
354.9815	0.15	709963	keystroke_g	g	n/a
355.3265	0.12	710653	keystroke_Key.space	Key.space	n/a
355.8815	0.15	711763	keystroke_r	r	n/a
355.9415	0.15	711883	keystroke_e	e	n/a
356.2865	0.105	712573	keystroke_v	v	n/a
356.3915	0.105	712783	keystroke_i	i	n/a
356.5565	0.15	713113	keystroke_e	e	n/a
356.6615	0.09	713323	keystroke_w	w	n/a
356.8715	0.105	713743	keystroke_s	s	n/a
357.1115	0.075	714223	keystroke_Key.enter	Key.enter	n/a
357.1915	9.6415	714383	prompt	n/a	alert easily study alive\n
357.8615	0.135	715723	keystroke_a	a	n/a
358.0565	0.09	716113	keystroke_l	l	n/a
358.4315	0.165	716863	keystroke_e	e	n/a
358.6115	0.18	717223	keystroke_r	r	n/a
358.8065	0.15	717613	keystroke_Key.space	Key.space	n/a
359.1815	0.135	718363	keystroke_e	e	n/a
359.3165	0.135	718633	keystroke_a	a	n/a
359.5715	0.09	719143	keystroke_s	s	n/a
360.2165	0.15	720433	keystroke_i	i	n/a
360.4865	0.075	720973	keystroke_l	l	n/a
360.817	0.06	721634	keystroke_y	y	n/a
361.387	0.12	722774	keystroke_Key.space	Key.space	n/a
361.747	0.12	723494	keystroke_s	s	n/a
361.927	0.089	723854	keystroke_u	u	n/a
362.6465	0.105	725293	keystroke_d	d	n/a
362.991	0.075	725982	keystroke_Key.backspace	Key.backspace	n/a
363.156	0.06	726312	keystroke_Key.backspace	Key.backspace	n/a
363.3365	0.09	726673	keystroke_t	t	n/a
363.4865	0.075	726973	keystroke_i	i	n/a
363.667	0.15	727334	keystroke_d	d	n/a
364.117	0.045	728234	keystroke_Key.backspace	Key.backspace	n/a
364.252	0.06	728504	keystroke_Key.backspace	Key.backspace	n/a
364.8515	0.06	729703	keystroke_u	u	n/a
365.0165	0.135	730033	keystroke_d	d	n/a
365.1665	0.0755	730333	keystroke_y	y	n/a
365.4215	0.135	730843	keystroke_Key.space	Key.space	n/a
365.8715	0.135	731743	keystroke_a	a	n/a
366.0365	0.09	732073	keystroke_l	l	n/a
366.2315	0.09	732463	keystroke_i	i	n/a
366.3965	0.15	732793	keystroke_v	v	n/a
366.5015	0.165	733003	keystroke_e	e	n/a
366.8015	0.03	733603	keystroke_Key.enter	Key.enter	n/a
366.8365	10.5115	733673	prompt	n/a	bool advertising milton egypt\n
367.8815	0.1045	735763	keystroke_b	b	n/a
368.046	0.075	736092	keystroke_o	o	n/a
368.196	0.061	736392	keystroke_o	o	n/a
368.4065	0.09	736813	keystroke_l	l	n/a
368.676	0.135	737352	keystroke_Key.space	Key.space	n/a
369.021	0.12	738042	keystroke_a	a	n/a
369.186	0.121	738372	keystroke_d	d	n/a
369.396	0.1205	738792	keystroke_v	v	n/a
369.486	0.1205	738972	keystroke_e	e	n/a
369.5765	0.1055	739153	keystroke_r	r	n/a
369.802	0.135	739604	keystroke_t	t	n/a
370.042	0.045	740084	keystroke_i	i	n/a
370.222	0.105	740444	keystroke_s	s	n/a
370.372	0.21	740744	keystroke_i	i	n/a
370.447	0.195	740894	keystroke_n	n	n/a
370.597	0.135	741194	keystroke_g	g	n/a
370.717	0.135	741434	keystroke_Key.space	Key.space	n/a
371.077	0.09	742154	keystroke_m	m	n/a
371.3025	0.015	742605	keystroke_u	u	n/a
371.4965	0.09	742993	keystroke_l	l	n/a
372.0065	0.045	744013	keystroke_Key.backspace	Key.backspace	n/a
372.1265	0.075	744253	keystroke_Key.backspace	Key.backspace	n/a
372.6365	0.0455	745273	keystroke_i	i	n/a
372.817	0.09	745634	keystroke_l	l	n/a
373.072	0.12	746144	keystroke_t	t	n/a
373.297	0.09	746594	keystroke_o	o	n/a
373.522	0.075	747044	keystroke_n	n	n/a
373.7465	0.15	747493	keystroke_Key.space	Key.space	n/a
374.0015	0.1195	748003	keystroke_e	e	n/a
374.632	0.075	749264	keystroke_g	g	n/a
374.962	0.045	749924	keystroke_y	y	n/a
375.8315	0.075	751663	keystroke_p	p	n/a
376.3565	0.075	752713	keystroke_y	y	n/a
376.836	0.09	753672	keystroke_Key.backspace	Key.backspace	n/a
376.956	0.09	753912	keystroke_t	t	n/a
377.2715	0.075	754543	keystroke_Key.enter	Key.enter	n/a
377.3515	8.2015	754703	prompt	n/a	everyone's laden protect screens\n
378.501	0.09	757002	keystroke_e	e	n/a
378.681	0.165	757362	keystroke_v	v	n/a
378.816	0.165	757632	keystroke_e	e	n/a
378.876	0.1805	757752	keystroke_r	r	n/a
378.981	0.0905	757962	keystroke_y	y	n/a
379.2215	0.195	758443	keystroke_o	o	n/a
379.3565	0.135	758713	keystroke_n	n	n/a
379.4765	0.1205	758953	keystroke_e	e	n/a
380.527	0.09	761054	keystroke_'	'	n/a
380.662	0.105	761324	keystroke_s	s	n/a
380.722	0.12	761444	keystroke_Key.space	Key.space	n/a
380.887	0.09	761774	keystroke_l	l	n/a
381.022	0.105	762044	keystroke_a	a	n/a
381.157	0.09	762314	keystroke_d	d	n/a
381.3515	0.09	762703	keystroke_e	e	n/a
381.5465	0.075	763093	keystroke_n	n	n/a
381.7865	0.135	763573	keystroke_Key.space	Key.space	n/a
382.102	0.09	764204	keystroke_p	p	n/a
382.252	0.134	764504	keystroke_r	r	n/a
382.432	0.09	764864	keystroke_o	o	n/a
382.657	0.149	765314	keystroke_t	t	n/a
382.761	0.151	765522	keystroke_e	e	n/a
383.047	0.09	766094	keystroke_c	c	n/a
383.272	0.135	766544	keystroke_t	t	n/a
383.437	0.12	766874	keystroke_Key.space	Key.space	n/a
383.632	0.12	767264	keystroke_s	s	n/a
383.887	0.105	767774	keystroke_c	c	n/a
384.202	0.135	768404	keystroke_r	r	n/a
384.592	0.06	769184	keystroke_e	e	n/a
384.742	0.09	769484	keystroke_e	e	n/a
384.967	0.06	769934	keystroke_n	n	n/a
385.192	0.119	770384	keystroke_s	s	n/a
385.492	0.06	770984	keystroke_Key.enter	Key.enter	n/a
385.556	11.817	771112	prompt	n/a	indicating desirable acid salvador\n
386.242	0.179	772484	keystroke_i	i	n/a
386.317	0.165	772634	keystroke_n	n	n/a
386.527	0.105	773054	keystroke_d	d	n/a
386.662	0.09	773324	keystroke_i	i	n/a
386.812	0.104	773624	keystroke_c	c	n/a
387.007	0.12	774014	keystroke_a	a	n/a
387.246	0.091	774492	keystroke_t	t	n/a
387.412	0.24	774824	keystroke_i	i	n/a
388.2215	0.1345	776443	keystroke_g	g	n/a
388.822	0.075	777644	keystroke_Key.backspace	Key.backspace	n/a
388.972	0.06	777944	keystroke_Key.backspace	Key.backspace	n/a
389.092	0.075	778184	keystroke_Key.backspace	Key.backspace	n/a
389.242	0.15	778484	keystroke_g	g	n/a
389.962	0.135	779924	keystroke_Key.space	Key.space	n/a
390.382	0.09	780764	keystroke_d	d	n/a
390.562	0.075	781124	keystroke_e	e	n/a
390.787	0.135	781574	keystroke_s	s	n/a
390.937	0.09	781874	keystroke_i	i	n/a
391.417	0.135	782834	keystroke_a	a	n/a
391.852	0.0895	783704	keystroke_Key.backspace	Key.backspace	n/a
391.9265	0.12	783853	keystroke_r	r	n/a
392.0015	0.15	784003	keystroke_a	a	n/a
392.3165	0.1795	784633	keystroke_b	b	n/a
392.451	0.105	784902	keystroke_l	l	n/a
392.601	0.12	785202	keystroke_e	e	n/a
393.066	0.105	786132	keystroke_Key.space	Key.space	n/a
393.396	0.105	786792	keystroke_a	a	n/a
393.606	0.12	787212	keystroke_c	c	n/a
393.771	0.075	787542	keystroke_i	i	n/a
393.891	0.18	787782	keystroke_d	d	n/a
394.041	0.12	788082	keystroke_Key.space	Key.space	n/a
394.266	0.046	788532	keystroke_a	a	n/a
394.701	0.09	789402	keystroke_Key.backspace	Key.backspace	n/a
394.836	0.075	789672	keystroke_s	s	n/a
394.926	0.15	789852	keystroke_a	a	n/a
395.242	0.105	790484	keystroke_l	l	n/a
396.382	0.105	792764	keystroke_v	v	n/a
396.457	0.105	792914	keystroke_a	a	n/a
396.817	0.075	793634	keystroke_d	d	n/a
396.967	0.075	793934	keystroke_o	o	n/a
397.117	0.1195	794234	keystroke_r	r	n/a
397.3265	0.045	794653	keystroke_Key.enter	Key.enter	n/a
397.3765	5.757	794753	prompt	n/a	will predict liberty vast\n
398.2265	0.105	796453	keystroke_w	w	n/a
398.3325	0.0745	796665	keystroke_i	i	n/a
398.527	0.075	797054	keystroke_l	l	n/a
398.677	0.0895	797354	keystroke_l	l	n/a
398.7815	0.105	797563	keystroke_Key.space	Key.space	n/a
398.9465	0.075	797893	keystroke_p	p	n/a
399.1715	0.135	798343	keystroke_r	r	n/a
399.2615	0.105	798523	keystroke_e	e	n/a
399.5165	0.075	799033	keystroke_d	d	n/a
399.6365	0.03	799273	keystroke_i	i	n/a
399.7565	0.075	799513	keystroke_c	c	n/a
400.011	0.135	800022	keystroke_t	t	n/a
400.506	0.135	801012	keystroke_Key.space	Key.space	n/a
400.776	0.075	801552	keystroke_l	l	n/a
400.972	0.0895	801944	keystroke_i	i	n/a
401.1665	0.076	802333	keystroke_b	b	n/a
401.3475	0.149	802695	keystroke_e	e	n/a
401.4665	0.105	802933	keystroke_r	r	n/a
401.6465	0.12	803293	keystroke_t	t	n/a
401.7815	0.12	803563	keystroke_y	y	n/a
401.992	0.135	803984	keystroke_Key.space	Key.space	n/a
402.277	0.135	804554	keystroke_v	v	n/a
402.397	0.12	804794	keystroke_a	a	n/a
402.577	0.09	805154	keystroke_s	s	n/a
402.802	0.15	805604	keystroke_t	t	n/a
403.057	0.075	806114	keystroke_Key.enter	Key.enter	n/a
403.138	7.27	806276	prompt	n/a	bang ruled voice bingo\n
403.8515	0.075	807703	keystroke_b	b	n/a
403.9565	0.1355	807913	keystroke_a	a	n/a
404.137	0.12	808274	keystroke_n	n	n/a
404.302	0.165	808604	keystroke_g	g	n/a
404.557	0.09	809114	keystroke_Key.space	Key.space	n/a
404.752	0.15	809504	keystroke_r	r	n/a
404.842	0.09	809684	keystroke_u	u	n/a
405.097	0.09	810194	keystroke_l	l	n/a
405.262	0.105	810524	keystroke_e	e	n/a
405.502	0.135	811004	keystroke_d	d	n/a
405.682	0.12	811364	keystroke_Key.space	Key.space	n/a
405.937	0.1345	811874	keystroke_v	v	n/a
406.0725	0.089	812145	keystroke_o	o	n/a
406.2365	0.09	812473	keystroke_i	i	n/a
406.4165	0.135	812833	keystroke_c	c	n/a
406.5365	0.165	813073	keystroke_e	e	n/a
406.6865	0.12	813373	keystroke_Key.space	Key.space	n/a
407.242	0.105	814484	keystroke_n	n	n/a
407.467	0.09	814934	keystroke_i	i	n/a
407.6915	0.09	815383	keystroke_n	n	n/a
408.262	0.0595	816524	keystroke_Key.backspace	Key.backspace	n/a
408.4115	0.06	816823	keystroke_Key.backspace	Key.backspace	n/a
408.5465	0.075	817093	keystroke_Key.backspace	Key.backspace	n/a
409.072	0.075	818144	keystroke_b	b	n/a
409.2965	0.075	818593	keystroke_i	i	n/a
409.4765	0.105	818953	keystroke_n	n	n/a
409.7165	0.09	819433	keystroke_g	g	n/a
409.8665	0.09	819733	keystroke_o	o	n/a
410.3315	0.075	820663	keystroke_Key.enter	Key.enter	n/a
410.4115	6.822	820823	prompt	n/a	spread suits foster irrigation\n
411.172	0.12	822344	keystroke_s	s	n/a
411.577	0.09	823154	keystroke_p	p	n/a
411.8615	0.15	823723	keystroke_r	r	n/a
411.9365	0.15	823873	keystroke_e	e	n/a
412.0415	0.165	824083	keystroke_a	a	n/a
412.2665	0.1205	824533	keystroke_d	d	n/a
412.672	0.135	825344	keystroke_Key.space	Key.space	n/a
413.107	0.165	826214	keystroke_s	s	n/a
413.257	0.09	826514	keystroke_u	u	n/a
413.466	0.0905	826932	keystroke_i	i	n/a
413.6165	0.105	827233	keystroke_t	t	n/a
413.7815	0.21	827563	keystroke_s	s	n/a
413.9765	0.12	827953	keystroke_Key.space	Key.space	n/a
414.2765	0.15	828553	keystroke_f	f	n/a
414.4115	0.075	828823	keystroke_o	o	n/a
414.5615	0.105	829123	keystroke_s	s	n/a
414.7415	0.135	829483	keystroke_t	t	n/a
414.8915	0.195	829783	keystroke_e	e	n/a
414.9965	0.18	829993	keystroke_r	r	n/a
415.1315	0.135	830263	keystroke_Key.space	Key.space	n/a
415.4315	0.105	830863	keystroke_i	i	n/a
415.7015	0.075	831403	keystroke_r	r	n/a
415.8515	0.09	831703	keystroke_r	r	n/a
415.9865	0.075	831973	keystroke_i	i	n/a
416.3015	0.09	832603	keystroke_g	g	n/a
416.4065	0.135	832813	keystroke_a	a	n/a
416.6165	0.1195	833233	keystroke_t	t	n/a
416.8115	0.21	833623	keystroke_i	i	n/a
416.8865	0.12	833773	keystroke_o	o	n/a
416.9165	0.135	833833	keystroke_n	n	n/a
417.1715	0.06	834343	keystroke_Key.enter	Key.enter	n/a
417.238	10.69	834476	prompt	n/a	spanish enabled message investor\n
417.9965	0.105	835993	keystroke_s	s	n/a
418.1615	0.09	836323	keystroke_p	p	n/a
418.3115	0.12	836623	keystroke_a	a	n/a
418.5515	0.09	837103	keystroke_n	n	n/a
419.0015	0.075	838003	keystroke_i	i	n/a
419.8415	0.135	839683	keystroke_c	c	n/a
419.9465	0.12	839893	keystroke_h	h	n/a
420.3515	0.06	840703	keystroke_Key.backspace	Key.backspace	n/a
420.4865	0.075	840973	keystroke_Key.backspace	Key.backspace	n/a
420.6815	0.12	841363	keystroke_s	s	n/a
420.8315	0.075	841663	keystroke_h	h	n/a
420.9815	0.135	841963	keystroke_Key.space	Key.space	n/a
421.2665	0.105	842533	keystroke_e	e	n/a
421.3865	0.09	842773	keystroke_n	n	n/a
421.6865	0.105	843373	keystroke_a	a	n/a
421.8965	0.1055	843793	keystroke_b	b	n/a
422.017	0.12	844034	keystroke_l	l	n/a
422.332	0.12	844664	keystroke_e	e	n/a
422.587	0.12	845174	keystroke_d	d	n/a
422.767	0.15	845534	keystroke_Key.space	Key.space	n/a
423.142	0.09	846284	keystroke_m	m	n/a
423.262	0.105	846524	keystroke_e	e	n/a
423.502	0.075	847004	keystroke_s	s	n/a
423.8915	0.135	847783	keystroke_a	a	n/a
424.6865	0.075	849373	keystroke_Key.backspace	Key.backspace	n/a
424.9115	0.1205	849823	keystroke_s	s	n/a
425.137	0.12	850274	keystroke_a	a	n/a
425.332	0.12	850664	keystroke_g	g	n/a
425.437	0.15	850874	keystroke_e	e	n/a
425.632	0.12	851264	keystroke_Key.space	Key.space	n/a
426.082	0.15	852164	keystroke_i	i	n/a
426.187	0.135	852374	keystroke_n	n	n/a
426.397	0.12	852794	keystroke_v	v	n/a
426.622	0.135	853244	keystroke_e	e	n/a
426.742	0.15	853484	keystroke_s	s	n/a
427.2965	0.0905	854593	keystroke_t	t	n/a
427.417	0.09	854834	keystroke_o	o	n/a
427.582	0.105	855164	keystroke_r	r	n/a
427.852	0.0745	855704	keystroke_Key.enter	Key.enter	n/a
427.931	9.7925	855862	prompt	n/a	pontiac dressing weighted remember\n
428.677	0.0745	857354	keystroke_p	p	n/a
428.9615	0.045	857923	keystroke_i	i	n/a
429.1865	0.1055	858373	keystroke_n	n	n/a
429.907	0.06	859814	keystroke_Key.backspace	Key.backspace	n/a
430.042	0.06	860084	keystroke_Key.backspace	Key.backspace	n/a
430.2965	0.075	860593	keystroke_o	o	n/a
430.5365	0.0605	861073	keystroke_n	n	n/a
430.837	0.12	861674	keystroke_t	t	n/a
430.957	0.075	861914	keystroke_i	i	n/a
431.212	0.075	862424	keystroke_a	a	n/a
431.452	0.0905	862904	keystroke_c	c	n/a
431.8715	0.12	863743	keystroke_Key.space	Key.space	n/a
432.1265	0.105	864253	keystroke_d	d	n/a
432.382	0.105	864764	keystroke_r	r	n/a
432.592	0.09	865184	keystroke_e	e	n/a
432.832	0.075	865664	keystroke_s	s	n/a
433.012	0.09	866024	keystroke_s	s	n/a
433.192	0.195	866384	keystroke_i	i	n/a
433.282	0.195	866564	keystroke_n	n	n/a
433.432	0.165	866864	keystroke_g	g	n/a
433.6415	0.135	867283	keystroke_Key.space	Key.space	n/a
434.0915	0.105	868183	keystroke_w	w	n/a
434.1815	0.24	868363	keystroke_e	e	n/a
434.6325	0.105	869265	keystroke_i	i	n/a
434.872	0.09	869744	keystroke_g	g	n/a
434.977	0.0895	869954	keystroke_h	h	n/a
435.1265	0.1205	870253	keystroke_t	t	n/a
435.352	0.105	870704	keystroke_e	e	n/a
435.5615	0.12	871123	keystroke_d	d	n/a
435.7115	0.15	871423	keystroke_Key.space	Key.space	n/a
436.147	0.12	872294	keystroke_r	r	n/a
436.207	0.195	872414	keystroke_e	e	n/a
436.462	0.09	872924	keystroke_m	m	n/a
436.627	0.09	873254	keystroke_e	e	n/a
436.807	0.06	873614	keystroke_m	m	n/a
437.092	0.09	874184	keystroke_b	b	n/a
437.257	0.18	874514	keystroke_e	e	n/a
437.377	0.12	874754	keystroke_r	r	n/a
437.662	0.06	875324	keystroke_Key.enter	Key.enter	n/a
437.727	8.6965	875454	prompt	n/a	anything russell audio packaging\n
438.3965	0.12	876793	keystroke_a	a	n/a
438.5315	0.105	877063	keystroke_n	n	n/a
438.8015	0.075	877603	keystroke_y	y	n/a
439.0865	0.1055	878173	keystroke_t	t	n/a
439.2665	0.0905	878533	keystroke_h	h	n/a
439.3265	0.1805	878653	keystroke_i	i	n/a
439.462	0.135	878924	keystroke_n	n	n/a
439.627	0.135	879254	keystroke_g	g	n/a
439.777	0.105	879554	keystroke_Key.space	Key.space	n/a
440.437	0.075	880874	keystroke_r	r	n/a
440.542	0.09	881084	keystroke_u	u	n/a
440.797	0.0895	881594	keystroke_s	s	n/a
440.9615	0.09	881923	keystroke_s	s	n/a
441.1865	0.0755	882373	keystroke_e	e	n/a
441.397	0.045	882794	keystroke_l	l	n/a
441.532	0.075	883064	keystroke_l	l	n/a
441.712	0.105	883424	keystroke_Key.space	Key.space	n/a
441.877	0.12	883754	keystroke_a	a	n/a
442.042	0.075	884084	keystroke_u	u	n/a
442.222	0.12	884444	keystroke_d	d	n/a
442.3865	0.075	884773	keystroke_i	i	n/a
443.392	0.075	886784	keystroke_o	o	n/a
443.872	0.105	887744	keystroke_Key.space	Key.space	n/a
444.277	0.075	888554	keystroke_p	p	n/a
444.397	0.09	888794	keystroke_a	a	n/a
444.577	0.165	889154	keystroke_c	c	n/a
444.727	0.075	889454	keystroke_k	k	n/a
445.162	0.12	890324	keystroke_a	a	n/a
445.7165	0.045	891433	keystroke_g	g	n/a
445.8975	0.164	891795	keystroke_i	i	n/a
445.9715	0.136	891943	keystroke_n	n	n/a
446.0765	0.106	892153	keystroke_g	g	n/a
446.3615	0.06	892723	keystroke_Key.enter	Key.enter	n/a
446.4265	11.217	892853	prompt	n/a	moderator american partial cambridge\n
447.1865	0.1055	894373	keystroke_m	m	n/a
447.382	0.09	894764	keystroke_o	o	n/a
447.532	0.075	895064	keystroke_d	d	n/a
447.742	0.1505	895484	keystroke_e	e	n/a
447.802	0.1645	895604	keystroke_r	r	n/a
448.2965	0.12	896593	keystroke_a	a	n/a
448.5365	0.09	897073	keystroke_t	t	n/a
448.7015	0.09	897403	keystroke_o	o	n/a
448.8365	0.15	897673	keystroke_r	r	n/a
449.0165	0.105	898033	keystroke_Key.space	Key.space	n/a
449.287	0.135	898574	keystroke_a	a	n/a
449.467	0.075	898934	keystroke_m	m	n/a
449.647	0.135	899294	keystroke_e	e	n/a
449.737	0.09	899474	keystroke_r	r	n/a
449.887	0.09	899774	keystroke_i	i	n/a
450.082	0.12	900164	keystroke_c	c	n/a
450.262	0.12	900524	keystroke_a	a	n/a
450.472	0.0895	900944	keystroke_n	n	n/a
450.907	0.15	901814	keystroke_Key.space	Key.space	n/a
451.222	0.105	902444	keystroke_p	p	n/a
451.387	0.135	902774	keystroke_a	a	n/a
451.567	0.105	903134	keystroke_r	r	n/a
451.9115	0.18	903823	keystroke_t	t	n/a
452.2865	0.09	904573	keystroke_i	i	n/a
452.6465	0.18	905293	keystroke_a	a	n/a
452.7815	0.075	905563	keystroke_l	l	n/a
452.9915	0.135	905983	keystroke_Key.space	Key.space	n/a
454.4165	0.12	908833	keystroke_c	c	n/a
454.642	0.075	909284	keystroke_h	h	n/a
455.0465	0.075	910093	keystroke_Key.backspace	Key.backspace	n/a
455.1365	0.1355	910273	keystroke_a	a	n/a
455.362	0.105	910724	keystroke_m	m	n/a
455.6615	0.105	911323	keystroke_p	p	n/a
456.082	0.045	912164	keystroke_Key.backspace	Key.backspace	n/a
456.322	0.075	912644	keystroke_b	b	n/a
456.502	0.105	913004	keystroke_r	r	n/a
456.652	0.09	913304	keystroke_i	i	n/a
456.967	0.12	913934	keystroke_d	d	n/a
457.207	0.135	914414	keystroke_g	g	n/a
457.312	0.135	914624	keystroke_e	e	n/a
457.597	0.045	915194	keystroke_Key.enter	Key.enter	n/a
457.6465	8.0365	915293	prompt	n/a	collections celebrities ranch brain\n
458.332	0.1495	916664	keystroke_c	c	n/a
458.467	0.0745	916934	keystroke_o	o	n/a
458.6915	0.075	917383	keystroke_l	l	n/a
458.8565	0.075	917713	keystroke_l	l	n/a
458.9165	0.105	917833	keystroke_e	e	n/a
459.217	0.045	918434	keystroke_c	c	n/a
459.427	0.09	918854	keystroke_t	t	n/a
459.637	0.225	919274	keystroke_i	i	n/a
459.712	0.135	919424	keystroke_o	o	n/a
459.772	0.15	919544	keystroke_n	n	n/a
459.907	0.12	919814	keystroke_s	s	n/a
460.042	0.135	920084	keystroke_Key.space	Key.space	n/a
460.432	0.105	920864	keystroke_c	c	n/a
460.6425	0.104	921285	keystroke_e	e	n/a
460.8075	0.104	921615	keystroke_l	l	n/a
460.9425	0.104	921885	keystroke_e	e	n/a
461.257	0.075	922514	keystroke_b	b	n/a
461.437	0.12	922874	keystroke_r	r	n/a
461.647	0.09	923294	keystroke_i	i	n/a
461.917	0.1195	923834	keystroke_t	t	n/a
462.0965	0.09	924193	keystroke_i	i	n/a
462.2165	0.12	924433	keystroke_e	e	n/a
462.3065	0.195	924613	keystroke_s	s	n/a
462.5165	0.135	925033	keystroke_Key.space	Key.space	n/a
462.802	0.09	925604	keystroke_r	r	n/a
462.967	0.12	925934	keystroke_a	a	n/a
463.117	0.105	926234	keystroke_n	n	n/a
463.537	0.21	927074	keystroke_c	c	n/a
463.702	0.075	927404	keystroke_h	h	n/a
463.882	0.105	927764	keystroke_Key.space	Key.space	n/a
464.2415	0.06	928483	keystroke_b	b	n/a
464.4215	0.121	928843	keystroke_r	r	n/a
464.6915	0.12	929383	keystroke_a	a	n/a
464.9765	0.075	929953	keystroke_i	i	n/a
465.2915	0.075	930583	keystroke_n	n	n/a
465.6065	0.075	931213	keystroke_Key.enter	Key.enter	n/a
465.6875	8.9355	931375	prompt	n/a	empirical three quarters fill\n
466.492	0.105	932984	keystroke_e	e	n/a
466.657	0.09	933314	keystroke_m	m	n/a
466.897	0.0895	933794	keystroke_p	p	n/a
467.1365	0.075	934273	keystroke_i	i	n/a
467.3765	0.135	934753	keystroke_r	r	n/a
467.5415	0.12	935083	keystroke_a	a	n/a
468.0065	0.06	936013	keystroke_Key.backspace	Key.backspace	n/a
468.2175	0.105	936435	keystroke_i	i	n/a
468.3825	0.15	936765	keystroke_c	c	n/a
468.6075	0.12	937215	keystroke_a	a	n/a
468.7575	0.09	937515	keystroke_l	l	n/a
468.9065	0.136	937813	keystroke_Key.space	Key.space	n/a
469.2965	0.121	938593	keystroke_t	t	n/a
469.5375	0.09	939075	keystroke_h	h	n/a
469.8375	0.135	939675	keystroke_r	r	n/a
470.1075	0.0595	940215	keystroke_e	e	n/a
470.257	0.1045	940514	keystroke_e	e	n/a
470.4065	0.135	940813	keystroke_Key.space	Key.space	n/a
470.6465	0.135	941293	keystroke_q	q	n/a
470.7965	0.105	941593	keystroke_u	u	n/a
470.992	0.105	941984	keystroke_a	a	n/a
471.172	0.105	942344	keystroke_r	r	n/a
471.397	0.09	942794	keystroke_t	t	n/a
471.547	0.165	943094	keystroke_e	e	n/a
471.667	0.165	943334	keystroke_r	r	n/a
472.1325	0.135	944265	keystroke_s	s	n/a
472.3125	0.134	944625	keystroke_Key.space	Key.space	n/a
472.4925	0.119	944985	keystroke_f	f	n/a
472.6575	0.015	945315	keystroke_u	u	n/a
472.9265	0.046	945853	keystroke_l	l	n/a
473.2715	0.075	946543	keystroke_Key.backspace	Key.backspace	n/a
473.4065	0.06	946813	keystroke_Key.backspace	Key.backspace	n/a
473.977	0.045	947954	keystroke_i	i	n/a
474.217	0.0455	948434	keystroke_l	l	n/a
474.3525	0.06	948705	keystroke_l	l	n/a
474.5615	0.06	949123	keystroke_Key.enter	Key.enter	n/a
474.6275	10.632	949255	prompt	n/a	upload contemporary pasta intensity\n
475.3125	0.09	950625	keystroke_u	u	n/a
475.5675	0.075	951135	keystroke_p	p	n/a
475.8375	0.075	951675	keystroke_l	l	n/a
476.0325	0.06	952065	keystroke_o	o	n/a
476.1675	0.105	952335	keystroke_a	a	n/a
476.3475	0.1195	952695	keystroke_d	d	n/a
476.557	0.15	953114	keystroke_Key.space	Key.space	n/a
476.917	0.135	953834	keystroke_c	c	n/a
477.037	0.135	954074	keystroke_o	o	n/a
477.112	0.15	954224	keystroke_n	n	n/a
477.517	0.12	955034	keystroke_t	t	n/a
477.772	0.21	955544	keystroke_e	e	n/a
478.0875	0.06	956175	keystroke_m	m	n/a
478.8825	0.09	957765	keystroke_p	p	n/a
479.1665	0.091	958333	keystroke_o	o	n/a
479.5575	0.119	959115	keystroke_r	r	n/a
479.7215	0.105	959443	keystroke_a	a	n/a
480.1865	0.151	960373	keystroke_r	r	n/a
480.4725	0.1045	960945	keystroke_y	y	n/a
480.787	0.12	961574	keystroke_Key.space	Key.space	n/a
481.117	0.0905	962234	keystroke_p	p	n/a
481.2675	0.135	962535	keystroke_a	a	n/a
481.4325	0.12	962865	keystroke_s	s	n/a
481.7765	0.1205	963553	keystroke_t	t	n/a
482.017	0.12	964034	keystroke_a	a	n/a
482.287	0.105	964574	keystroke_Key.space	Key.space	n/a
482.962	0.165	965924	keystroke_i	i	n/a
483.037	0.18	966074	keystroke_n	n	n/a
483.247	0.1345	966494	keystroke_t	t	n/a
483.3065	0.165	966613	keystroke_e	e	n/a
483.5165	0.09	967033	keystroke_n	n	n/a
484.402	0.105	968804	keystroke_s	s	n/a
484.522	0.09	969044	keystroke_i	i	n/a
484.732	0.105	969464	keystroke_t	t	n/a
484.867	0.0755	969734	keystroke_y	y	n/a
485.197	0.06	970394	keystroke_Key.enter	Key.enter	n/a
485.2635	8.35	970527	prompt	n/a	fields glow details pictures\n
485.947	0.135	971894	keystroke_f	f	n/a
486.067	0.09	972134	keystroke_i	i	n/a
486.7275	0.09	973455	keystroke_e	e	n/a
486.9515	0.075	973903	keystroke_l	l	n/a
487.1465	0.12	974293	keystroke_d	d	n/a
487.387	0.105	974774	keystroke_s	s	n/a
487.672	0.15	975344	keystroke_Key.space	Key.space	n/a
487.972	0.105	975944	keystroke_g	g	n/a
488.092	0.0755	976184	keystroke_l	l	n/a
488.287	0.075	976574	keystroke_o	o	n/a
488.482	0.1055	976964	keystroke_w	w	n/a
488.7965	0.12	977593	keystroke_Key.space	Key.space	n/a
489.2465	0.09	978493	keystroke_d	d	n/a
489.4415	0.09	978883	keystroke_e	e	n/a
489.652	0.165	979304	keystroke_t	t	n/a
489.802	0.135	979604	keystroke_a	a	n/a
489.952	0.09	979904	keystroke_i	i	n/a
490.1775	0.09	980355	keystroke_l	l	n/a
490.5675	0.15	981135	keystroke_s	s	n/a
490.7475	0.1645	981495	keystroke_Key.space	Key.space	n/a
491.257	0.075	982514	keystroke_p	p	n/a
491.497	0.075	982994	keystroke_i	i	n/a
491.9025	0.0895	983805	keystroke_c	c	n/a
492.172	0.09	984344	keystroke_t	t	n/a
492.577	0.09	985154	keystroke_u	u	n/a
492.787	0.105	985574	keystroke_r	r	n/a
492.877	0.12	985754	keystroke_e	e	n/a
493.2825	0.12	986565	keystroke_s	s	n/a
493.5525	0.06	987105	keystroke_Key.enter	Key.enter	n/a
493.617	8.9815	987234	prompt	n/a	shaw ferrari enabled morocco\n
494.3165	0.12	988633	keystroke_s	s	n/a
494.5865	0.12	989173	keystroke_h	h	n/a
494.7965	0.105	989593	keystroke_a	a	n/a
495.022	0.12	990044	keystroke_w	w	n/a
495.187	0.1495	990374	keystroke_Key.space	Key.space	n/a
495.697	0.135	991394	keystroke_f	f	n/a
495.997	0.12	991994	keystroke_e	e	n/a
496.222	0.075	992444	keystroke_r	r	n/a
496.387	0.105	992774	keystroke_r	r	n/a
496.642	0.12	993284	keystroke_a	a	n/a
496.957	0.135	993914	keystroke_r	r	n/a
497.182	0.1205	994364	keystroke_i	i	n/a
497.5425	0.12	995085	keystroke_Key.space	Key.space	n/a
497.7375	0.12	995475	keystroke_e	e	n/a
497.8725	0.1045	995745	keystroke_n	n	n/a
498.067	0.135	996134	keystroke_a	a	n/a
498.712	0.12	997424	keystroke_b	b	n/a
498.892	0.105	997784	keystroke_l	l	n/a
499.012	0.135	998024	keystroke_e	e	n/a
499.252	0.12	998504	keystroke_d	d	n/a
499.417	0.12	998834	keystroke_Key.space	Key.space	n/a
500.017	0.0745	1000034	keystroke_l	l	n/a
500.6015	0.06	1001203	keystroke_Key.backspace	Key.backspace	n/a
500.8865	0.09	1001773	keystroke_m	m	n/a
501.127	0.09	1002254	keystroke_o	o	n/a
501.382	0.135	1002764	keystroke_r	r	n/a
501.562	0.09	1003124	keystroke_o	o	n/a
501.877	0.075	1003754	keystroke_c	c	n/a
502.042	0.105	1004084	keystroke_c	c	n/a
502.237	0.075	1004474	keystroke_o	o	n/a
502.522	0.075	1005044	keystroke_Key.enter	Key.enter	n/a
502.604	11.4995	1005208	prompt	n/a	preference projects verification nobody\n
503.3775	0.105	1006755	keystroke_p	p	n/a
503.5725	0.15	1007145	keystroke_r	r	n/a
503.6625	0.12	1007325	keystroke_e	e	n/a
503.9025	0.15	1007805	keystroke_f	f	n/a
504.1575	0.135	1008315	keystroke_e	e	n/a
504.2775	0.12	1008555	keystroke_r	r	n/a
504.3825	0.135	1008765	keystroke_e	e	n/a
504.4875	0.135	1008975	keystroke_n	n	n/a
504.6525	0.105	1009305	keystroke_c	c	n/a
504.6975	0.18	1009395	keystroke_e	e	n/a
505.1625	0.0895	1010325	keystroke_Key.space	Key.space	n/a
505.387	0.075	1010774	keystroke_p	p	n/a
505.492	0.135	1010984	keystroke_r	r	n/a
505.642	0.09	1011284	keystroke_o	o	n/a
505.867	0.06	1011734	keystroke_j	j	n/a
505.957	0.1055	1011914	keystroke_e	e	n/a
506.182	0.135	1012364	keystroke_c	c	n/a
506.482	0.18	1012964	keystroke_t	t	n/a
506.647	0.18	1013294	keystroke_s	s	n/a
507.1415	0.09	1014283	keystroke_Key.space	Key.space	n/a
507.637	0.09	1015274	keystroke_v	v	n/a
507.862	0.12	1015724	keystroke_e	e	n/a
507.952	0.135	1015904	keystroke_r	r	n/a
508.177	0.09	1016354	keystroke_i	i	n/a
508.552	0.09	1017104	keystroke_f	f	n/a
508.657	0.06	1017314	keystroke_i	i	n/a
508.972	0.105	1017944	keystroke_c	c	n/a
509.107	0.1045	1018214	keystroke_a	a	n/a
509.317	0.105	1018634	keystroke_t	t	n/a
509.467	0.195	1018934	keystroke_i	i	n/a
509.527	0.12	1019054	keystroke_o	o	n/a
509.587	0.1645	1019174	keystroke_n	n	n/a
509.722	0.1045	1019444	keystroke_Key.space	Key.space	n/a
509.9765	0.105	1019953	keystroke_b	b	n/a
510.0965	0.105	1020193	keystroke_o	o	n/a
511.5525	0.06	1023105	keystroke_Key.backspace	Key.backspace	n/a
511.6875	0.09	1023375	keystroke_Key.backspace	Key.backspace	n/a
512.407	0.1055	1024814	keystroke_n	n	n/a
512.5725	0.0745	1025145	keystroke_o	o	n/a
512.977	0.12	1025954	keystroke_b	b	n/a
513.352	0.075	1026704	keystroke_o	o	n/a
513.562	0.135	1027124	keystroke_d	d	n/a
513.727	0.06	1027454	keystroke_y	y	n/a
514.057	0.045	1028114	keystroke_Key.enter	Key.enter	n/a
514.072	0.015	1028144	keystroke_\	\	n/a
514.107	13.7365	1028214	prompt	n/a	identity activities wrong overseas\n
515.4975	0.075	1030995	keystroke_u	u	n/a
515.9775	0.045	1031955	keystroke_d	d	n/a
516.2625	0.06	1032525	keystroke_Key.backspace	Key.backspace	n/a
516.3975	0.075	1032795	keystroke_Key.backspace	Key.backspace	n/a
516.6825	0.075	1033365	keystroke_i	i	n/a
517.0725	0.075	1034145	keystroke_d	d	n/a
517.267	0.105	1034534	keystroke_e	e	n/a
517.372	0.09	1034744	keystroke_n	n	n/a
517.567	0.105	1035134	keystroke_t	t	n/a
517.687	0.075	1035374	keystroke_i	i	n/a
517.9725	0.105	1035945	keystroke_f	f	n/a
518.1225	0.075	1036245	keystroke_u	u	n/a
518.947	0.075	1037894	keystroke_Key.backspace	Key.backspace	n/a
520.192	0.06	1040384	keystroke_Key.backspace	Key.backspace	n/a
520.402	0.09	1040804	keystroke_t	t	n/a
520.567	0.06	1041134	keystroke_y	y	n/a
520.777	0.12	1041554	keystroke_Key.space	Key.space	n/a
521.2115	0.105	1042423	keystroke_a	a	n/a
521.4215	0.105	1042843	keystroke_c	c	n/a
521.6765	0.09	1043353	keystroke_t	t	n/a
521.8575	0.074	1043715	keystroke_i	i	n/a
523.582	0.09	1047164	keystroke_v	v	n/a
523.732	0.075	1047464	keystroke_i	i	n/a
523.912	0.105	1047824	keystroke_t	t	n/a
524.077	0.075	1048154	keystroke_i	i	n/a
524.182	0.12	1048364	keystroke_e	e	n/a
524.272	0.165	1048544	keystroke_s	s	n/a
524.452	0.135	1048904	keystroke_Key.space	Key.space	n/a
524.782	0.12	1049564	keystroke_w	w	n/a
525.067	0.105	1050134	keystroke_r	r	n/a
525.322	0.165	1050644	keystroke_o	o	n/a
525.412	0.1655	1050824	keystroke_n	n	n/a
525.5475	0.18	1051095	keystroke_g	g	n/a
526.1015	0.12	1052203	keystroke_Key.space	Key.space	n/a
526.4165	0.105	1052833	keystroke_o	o	n/a
526.5815	0.136	1053163	keystroke_v	v	n/a
526.6865	0.12	1053373	keystroke_e	e	n/a
526.7615	0.105	1053523	keystroke_r	r	n/a
527.0025	0.12	1054005	keystroke_s	s	n/a
527.1675	0.1645	1054335	keystroke_e	e	n/a
527.317	0.135	1054634	keystroke_a	a	n/a
527.527	0.12	1055054	keystroke_s	s	n/a
527.767	0.075	1055534	keystroke_Key.enter	Key.enter	n/a
527.847	6.4165	1055694	prompt	n/a	status ceiling wants heather\n
528.5325	0.09	1057065	keystroke_s	s	n/a
528.7565	0.106	1057513	keystroke_t	t	n/a
528.9515	0.1355	1057903	keystroke_a	a	n/a
529.312	0.1055	1058624	keystroke_t	t	n/a
529.4925	0.09	1058985	keystroke_u	u	n/a
529.6715	0.135	1059343	keystroke_s	s	n/a
529.8365	0.15	1059673	keystroke_Key.space	Key.space	n/a
530.3015	0.12	1060603	keystroke_c	c	n/a
530.5265	0.09	1061053	keystroke_e	e	n/a
530.7665	0.075	1061533	keystroke_i	i	n/a
530.977	0.09	1061954	keystroke_l	l	n/a
531.232	0.18	1062464	keystroke_i	i	n/a
531.307	0.165	1062614	keystroke_n	n	n/a
531.427	0.165	1062854	keystroke_g	g	n/a
531.562	0.165	1063124	keystroke_Key.space	Key.space	n/a
531.832	0.12	1063664	keystroke_w	w	n/a
531.937	0.165	1063874	keystroke_a	a	n/a
532.132	0.105	1064264	keystroke_n	n	n/a
532.297	0.1055	1064594	keystroke_t	t	n/a
532.5065	0.1955	1065013	keystroke_s	s	n/a
532.672	0.18	1065344	keystroke_Key.space	Key.space	n/a
532.927	0.105	1065854	keystroke_h	h	n/a
533.092	0.06	1066184	keystroke_e	e	n/a
533.122	0.1795	1066244	keystroke_a	a	n/a
533.6465	0.105	1067293	keystroke_t	t	n/a
533.7365	0.09	1067473	keystroke_h	h	n/a
533.8565	0.151	1067713	keystroke_e	e	n/a
533.9765	0.12	1067953	keystroke_r	r	n/a
534.2165	0.045	1068433	keystroke_Key.enter	Key.enter	n/a
534.2665	11.187	1068533	prompt	n/a	ecuador recommend binary for\n
534.9065	0.105	1069813	keystroke_e	e	n/a
535.627	0.12	1071254	keystroke_c	c	n/a
536.032	0.105	1072064	keystroke_u	u	n/a
537.1565	0.1055	1074313	keystroke_a	a	n/a
537.412	0.09	1074824	keystroke_d	d	n/a
537.517	0.09	1075034	keystroke_o	o	n/a
537.652	0.1495	1075304	keystroke_r	r	n/a
537.8915	0.15	1075783	keystroke_Key.space	Key.space	n/a
540.3545	0.072	1080709	keystroke_r	r	n/a
540.3555	0.131	1080711	keystroke_e	e	n/a
540.6215	0.15	1081243	keystroke_c	c	n/a
540.7565	0.09	1081513	keystroke_o	o	n/a
541.0565	0.015	1082113	keystroke_m	m	n/a
541.1615	0.0755	1082323	keystroke_m	m	n/a
541.312	0.165	1082624	keystroke_e	e	n/a
541.552	0.09	1083104	keystroke_n	n	n/a
541.807	0.15	1083614	keystroke_d	d	n/a
541.987	0.15	1083974	keystroke_Key.space	Key.space	n/a
542.497	0.1045	1084994	keystroke_b	b	n/a
542.6615	0.045	1085323	keystroke_i	i	n/a
543.667	0.09	1087334	keystroke_n	n	n/a
543.787	0.105	1087574	keystroke_a	a	n/a
543.967	0.1205	1087934	keystroke_r	r	n/a
544.2525	0.075	1088505	keystroke_y	y	n/a
544.5675	0.1195	1089135	keystroke_Key.space	Key.space	n/a
544.927	0.135	1089854	keystroke_f	f	n/a
545.047	0.105	1090094	keystroke_o	o	n/a
545.167	0.12	1090334	keystroke_r	r	n/a
545.392	0.06	1090784	keystroke_Key.enter	Key.enter	n/a
545.4565	10.047	1090913	prompt	n/a	increase locator possibly voyuer\n
546.097	0.15	1092194	keystroke_i	i	n/a
546.172	0.165	1092344	keystroke_n	n	n/a
546.457	0.105	1092914	keystroke_c	c	n/a
546.787	0.15	1093574	keystroke_r	r	n/a
546.877	0.135	1093754	keystroke_e	e	n/a
546.982	0.135	1093964	keystroke_a	a	n/a
547.177	0.195	1094354	keystroke_s	s	n/a
547.312	0.21	1094624	keystroke_e	e	n/a
547.552	0.1495	1095104	keystroke_Key.space	Key.space	n/a
548.032	0.075	1096064	keystroke_l	l	n/a
548.212	0.09	1096424	keystroke_o	o	n/a
548.392	0.15	1096784	keystroke_c	c	n/a
548.482	0.135	1096964	keystroke_a	a	n/a
548.7375	0.105	1097475	keystroke_t	t	n/a
548.8725	0.09	1097745	keystroke_o	o	n/a
549.0525	0.12	1098105	keystroke_r	r	n/a
549.1575	0.1645	1098315	keystroke_Key.space	Key.space	n/a
549.412	0.0595	1098824	keystroke_p	p	n/a
549.5915	0.0905	1099183	keystroke_o	o	n/a
550.1475	0.09	1100295	keystroke_s	s	n/a
550.2975	0.105	1100595	keystroke_s	s	n/a
550.4475	0.105	1100895	keystroke_i	i	n/a
550.897	0.045	1101794	keystroke_b	b	n/a
551.002	0.09	1102004	keystroke_l	l	n/a
551.182	0.135	1102364	keystroke_e	e	n/a
551.287	0.1505	1102574	keystroke_Key.space	Key.space	n/a
552.8765	0.075	1105753	keystroke_v	v	n/a
553.1015	0.09	1106203	keystroke_o	o	n/a
553.5815	0.105	1107163	keystroke_y	y	n/a
554.5725	0.074	1109145	keystroke_u	u	n/a
555.0075	0.135	1110015	keystroke_e	e	n/a
555.1125	0.15	1110225	keystroke_r	r	n/a
555.4125	0.09	1110825	keystroke_Key.enter	Key.enter	n/a
555.5065	9.177	1111013	prompt	n/a	political invite pics choices\n
556.282	0.045	1112564	keystroke_p	p	n/a
556.492	0.075	1112984	keystroke_o	o	n/a
556.897	0.105	1113794	keystroke_l	l	n/a
557.122	0.0755	1114244	keystroke_i	i	n/a
558.0515	0.06	1116103	keystroke_t	t	n/a
558.1415	0.075	1116283	keystroke_i	i	n/a
558.352	0.1345	1116704	keystroke_c	c	n/a
558.457	0.165	1116914	keystroke_a	a	n/a
558.6225	0.1495	1117245	keystroke_l	l	n/a
558.7415	0.135	1117483	keystroke_Key.space	Key.space	n/a
558.9965	0.165	1117993	keystroke_i	i	n/a
559.1015	0.135	1118203	keystroke_n	n	n/a
559.4615	0.075	1118923	keystroke_i	i	n/a
560.3775	0.045	1120755	keystroke_Key.backspace	Key.backspace	n/a
560.4375	0.135	1120875	keystroke_v	v	n/a
560.6475	0.12	1121295	keystroke_i	i	n/a
560.9625	0.15	1121925	keystroke_t	t	n/a
561.0825	0.2095	1122165	keystroke_e	e	n/a
561.322	0.165	1122644	keystroke_Key.space	Key.space	n/a
561.547	0.105	1123094	keystroke_p	p	n/a
561.787	0.09	1123574	keystroke_i	i	n/a
562.177	0.12	1124354	keystroke_c	c	n/a
562.4465	0.106	1124893	keystroke_s	s	n/a
562.6865	0.135	1125373	keystroke_Key.space	Key.space	n/a
563.0615	0.135	1126123	keystroke_c	c	n/a
563.2415	0.15	1126483	keystroke_h	h	n/a
563.5425	0.105	1127085	keystroke_o	o	n/a
563.7675	0.09	1127535	keystroke_i	i	n/a
564.0225	0.135	1128045	keystroke_c	c	n/a
564.2025	0.09	1128405	keystroke_e	e	n/a
564.2775	0.15	1128555	keystroke_s	s	n/a
564.6075	0.075	1129215	keystroke_Key.enter	Key.enter	n/a
564.6865	15.282	1129373	prompt	n/a	allocated employees integer installing\n
565.4025	0.12	1130805	keystroke_a	a	n/a
565.747	0.06	1131494	keystroke_l	l	n/a
565.882	0.105	1131764	keystroke_l	l	n/a
566.077	0.105	1132154	keystroke_o	o	n/a
566.257	0.135	1132514	keystroke_c	c	n/a
566.377	0.15	1132754	keystroke_a	a	n/a
566.632	0.09	1133264	keystroke_t	t	n/a
566.677	0.135	1133354	keystroke_e	e	n/a
566.947	0.105	1133894	keystroke_d	d	n/a
567.487	0.1345	1134974	keystroke_Key.space	Key.space	n/a
567.8775	0.105	1135755	keystroke_e	e	n/a
568.1025	0.075	1136205	keystroke_m	m	n/a
568.3275	0.09	1136655	keystroke_p	p	n/a
568.5225	0.09	1137045	keystroke_l	l	n/a
569.662	0.075	1139324	keystroke_y	y	n/a
571.387	0.075	1142774	keystroke_Key.backspace	Key.backspace	n/a
572.242	0.06	1144484	keystroke_o	o	n/a
572.572	0.0895	1145144	keystroke_y	y	n/a
573.6515	0.075	1147303	keystroke_e	e	n/a
573.7865	0.12	1147573	keystroke_e	e	n/a
574.012	0.15	1148024	keystroke_s	s	n/a
574.237	0.1495	1148474	keystroke_Key.space	Key.space	n/a
574.4915	0.136	1148983	keystroke_i	i	n/a
574.5665	0.181	1149133	keystroke_n	n	n/a
575.1375	0.165	1150275	keystroke_t	t	n/a
575.4375	0.12	1150875	keystroke_e	e	n/a
576.1125	0.045	1152225	keystroke_f	f	n/a
576.3525	0.18	1152705	keystroke_e	e	n/a
576.4725	0.119	1152945	keystroke_r	r	n/a
576.9525	0.074	1153905	keystroke_Key.backspace	Key.backspace	n/a
577.1315	0.0605	1154263	keystroke_Key.backspace	Key.backspace	n/a
577.282	0.045	1154564	keystroke_Key.backspace	Key.backspace	n/a
577.6415	0.135	1155283	keystroke_g	g	n/a
577.8675	0.195	1155735	keystroke_e	e	n/a
577.9875	0.135	1155975	keystroke_r	r	n/a
578.2275	0.135	1156455	keystroke_Key.space	Key.space	n/a
578.4075	0.105	1156815	keystroke_i	i	n/a
578.4675	0.165	1156935	keystroke_n	n	n/a
578.6475	0.12	1157295	keystroke_s	s	n/a
578.8725	0.15	1157745	keystroke_t	t	n/a
579.0075	0.135	1158015	keystroke_a	a	n/a
579.202	0.075	1158404	keystroke_l	l	n/a
579.337	0.09	1158674	keystroke_l	l	n/a
579.532	0.165	1159064	keystroke_i	i	n/a
579.607	0.15	1159214	keystroke_n	n	n/a
579.682	0.195	1159364	keystroke_g	g	n/a
579.937	0.0295	1159874	keystroke_Key.enter	Key.enter	n/a
579.972	6.5365	1159944	prompt	n/a	jews alternative assume usda\n
580.762	0.135	1161524	keystroke_j	j	n/a
580.912	0.18	1161824	keystroke_e	e	n/a
581.047	0.135	1162094	keystroke_w	w	n/a
581.287	0.12	1162574	keystroke_s	s	n/a
581.452	0.15	1162904	keystroke_Key.space	Key.space	n/a
581.7075	0.15	1163415	keystroke_a	a	n/a
581.8725	0.075	1163745	keystroke_l	l	n/a
582.0975	0.075	1164195	keystroke_t	t	n/a
582.1575	0.1945	1164315	keystroke_e	e	n/a
582.292	0.135	1164584	keystroke_r	r	n/a
582.442	0.105	1164884	keystroke_n	n	n/a
582.562	0.135	1165124	keystroke_a	a	n/a
582.712	0.12	1165424	keystroke_t	t	n/a
582.877	0.09	1165754	keystroke_i	i	n/a
583.072	0.12	1166144	keystroke_v	v	n/a
583.147	0.15	1166294	keystroke_e	e	n/a
583.312	0.15	1166624	keystroke_Key.space	Key.space	n/a
583.9415	0.1205	1167883	keystroke_a	a	n/a
584.182	0.075	1168364	keystroke_s	s	n/a
584.332	0.105	1168664	keystroke_s	s	n/a
584.422	0.09	1168844	keystroke_u	u	n/a
584.767	0.075	1169534	keystroke_m	m	n/a
584.857	0.135	1169714	keystroke_e	e	n/a
585.037	0.12	1170074	keystroke_Key.space	Key.space	n/a
585.247	0.09	1170494	keystroke_u	u	n/a
585.397	0.09	1170794	keystroke_s	s	n/a
585.787	0.18	1171574	keystroke_d	d	n/a
585.997	0.1195	1171994	keystroke_a	a	n/a
586.432	0.0745	1172864	keystroke_Key.enter	Key.enter	n/a
586.512	8.7415	1173024	prompt	n/a	pins litigation measure bears\n
587.227	0.06	1174454	keystroke_p	p	n/a
587.437	0.165	1174874	keystroke_i	i	n/a
587.542	0.165	1175084	keystroke_n	n	n/a
587.692	0.165	1175384	keystroke_s	s	n/a
587.858	0.1345	1175716	keystroke_Key.space	Key.space	n/a
588.4575	0.075	1176915	keystroke_l	l	n/a
588.6675	0.075	1177335	keystroke_i	i	n/a
588.9375	0.12	1177875	keystroke_t	t	n/a
589.0275	0.09	1178055	keystroke_i	i	n/a
589.282	0.12	1178564	keystroke_g	g	n/a
589.387	0.135	1178774	keystroke_a	a	n/a
589.597	0.135	1179194	keystroke_t	t	n/a
589.777	0.21	1179554	keystroke_i	i	n/a
589.837	0.135	1179674	keystroke_o	o	n/a
589.897	0.15	1179794	keystroke_n	n	n/a
590.227	0.12	1180454	keystroke_Key.space	Key.space	n/a
590.497	0.075	1180994	keystroke_m	m	n/a
590.632	0.12	1181264	keystroke_e	e	n/a
590.767	0.15	1181534	keystroke_a	a	n/a
591.1425	0.12	1182285	keystroke_s	s	n/a
591.3075	0.105	1182615	keystroke_u	u	n/a
591.4715	0.166	1182943	keystroke_r	r	n/a
591.5615	0.181	1183123	keystroke_e	e	n/a
591.7565	0.165	1183513	keystroke_Key.space	Key.space	n/a
592.0875	0.075	1184175	keystroke_l	l	n/a
593.0915	0.091	1186183	keystroke_Key.backspace	Key.backspace	n/a
594.0075	0.075	1188015	keystroke_b	b	n/a
594.2775	0.314	1188555	keystroke_e	e	n/a
594.4715	0.136	1188943	keystroke_a	a	n/a
594.5475	0.165	1189095	keystroke_r	r	n/a
594.7875	0.134	1189575	keystroke_s	s	n/a
595.192	0.06	1190384	keystroke_Key.enter	Key.enter	n/a
595.257	10.5865	1190514	prompt	n/a	spoke museum coffee unfortunately\n
595.972	0.075	1191944	keystroke_s	s	n/a
596.977	0.075	1193954	keystroke_p	p	n/a
597.187	0.0605	1194374	keystroke_o	o	n/a
597.4425	0.105	1194885	keystroke_k	k	n/a
597.6075	0.165	1195215	keystroke_e	e	n/a
597.7125	0.165	1195425	keystroke_Key.space	Key.space	n/a
598.1925	0.0895	1196385	keystroke_m	m	n/a
598.417	0.09	1196834	keystroke_u	u	n/a
598.642	0.135	1197284	keystroke_s	s	n/a
598.927	0.105	1197854	keystroke_e	e	n/a
599.347	0.06	1198694	keystroke_u	u	n/a
599.662	0.06	1199324	keystroke_m	m	n/a
599.932	0.165	1199864	keystroke_Key.space	Key.space	n/a
600.502	0.09	1201004	keystroke_o	o	n/a
600.727	0.06	1201454	keystroke_f	f	n/a
601.567	0.06	1203134	keystroke_Key.backspace	Key.backspace	n/a
601.717	0.06	1203434	keystroke_Key.backspace	Key.backspace	n/a
602.002	0.15	1204004	keystroke_c	c	n/a
602.167	0.09	1204334	keystroke_o	o	n/a
602.377	0.06	1204754	keystroke_f	f	n/a
602.527	0.0895	1205054	keystroke_f	f	n/a
602.7375	0.059	1205475	keystroke_e	e	n/a
602.9015	0.121	1205803	keystroke_e	e	n/a
603.0665	0.135	1206133	keystroke_Key.space	Key.space	n/a
603.2915	0.076	1206583	keystroke_u	u	n/a
603.4715	0.135	1206943	keystroke_n	n	n/a
603.7415	0.12	1207483	keystroke_f	f	n/a
603.8775	0.119	1207755	keystroke_o	o	n/a
603.9975	0.1345	1207995	keystroke_r	r	n/a
604.372	0.09	1208744	keystroke_t	t	n/a
604.477	0.09	1208954	keystroke_u	u	n/a
604.6725	0.105	1209345	keystroke_n	n	n/a
604.8375	0.12	1209675	keystroke_a	a	n/a
605.0025	0.105	1210005	keystroke_t	t	n/a
605.1975	0.15	1210395	keystroke_e	e	n/a
605.5125	0.015	1211025	keystroke_l	l	n/a
605.5575	0.09	1211115	keystroke_y	y	n/a
605.7975	0.045	1211595	keystroke_Key.enter	Key.enter	n/a
605.848	9.011	1211696	prompt	n/a	arbitration when registrar meal\n
606.622	0.12	1213244	keystroke_a	a	n/a
606.817	0.105	1213634	keystroke_r	r	n/a
607.912	0.1205	1215824	keystroke_b	b	n/a
608.1075	0.075	1216215	keystroke_i	i	n/a
608.6025	0.1045	1217205	keystroke_t	t	n/a
609.4125	0.105	1218825	keystroke_r	r	n/a
609.6525	0.135	1219305	keystroke_a	a	n/a
609.8925	0.0895	1219785	keystroke_t	t	n/a
610.0575	0.2395	1220115	keystroke_i	i	n/a
610.1475	0.1345	1220295	keystroke_o	o	n/a
610.1925	0.1645	1220385	keystroke_n	n	n/a
610.372	0.09	1220744	keystroke_Key.space	Key.space	n/a
610.567	0.12	1221134	keystroke_w	w	n/a
610.702	0.075	1221404	keystroke_h	h	n/a
610.792	0.135	1221584	keystroke_e	e	n/a
610.942	0.12	1221884	keystroke_n	n	n/a
611.107	0.1055	1222214	keystroke_Key.space	Key.space	n/a
611.3625	0.12	1222725	keystroke_r	r	n/a
611.407	0.105	1222814	keystroke_e	e	n/a
611.662	0.12	1223324	keystroke_g	g	n/a
611.752	0.09	1223504	keystroke_i	i	n/a
611.902	0.12	1223804	keystroke_s	s	n/a
612.157	0.105	1224314	keystroke_t	t	n/a
612.577	0.1055	1225154	keystroke_r	r	n/a
612.8325	0.09	1225665	keystroke_a	a	n/a
613.207	0.135	1226414	keystroke_r	r	n/a
613.447	0.12	1226894	keystroke_Key.space	Key.space	n/a
613.717	0.09	1227434	keystroke_m	m	n/a
613.822	0.1205	1227644	keystroke_e	e	n/a
613.912	0.1955	1227824	keystroke_a	a	n/a
614.482	0.075	1228964	keystroke_l	l	n/a
614.782	0.075	1229564	keystroke_Key.enter	Key.enter	n/a
614.8615	10.497	1229723	prompt	n/a	neutral ticket lafayette postcard\n
616.1925	0.03	1232385	keystroke_b	b	n/a
616.9715	0.075	1233943	keystroke_Key.backspace	Key.backspace	n/a
617.9325	0.0745	1235865	keystroke_n	n	n/a
618.157	0.18	1236314	keystroke_e	e	n/a
618.517	0.12	1237034	keystroke_u	u	n/a
619.1025	0.1195	1238205	keystroke_t	t	n/a
619.327	0.135	1238654	keystroke_r	r	n/a
619.5665	0.195	1239133	keystroke_a	a	n/a
619.8075	0.03	1239615	keystroke_l	l	n/a
619.9265	0.105	1239853	keystroke_Key.space	Key.space	n/a
620.2715	0.075	1240543	keystroke_t	t	n/a
620.3775	0.074	1240755	keystroke_i	i	n/a
620.542	0.135	1241084	keystroke_c	c	n/a
620.692	0.09	1241384	keystroke_k	k	n/a
