onset	duration	sample	value	key	prompt_text
4.3475	11.493	8695	prompt	n/a	the quick brown fox jumps over a lazy dog\n
5.924	0.0735	11848	keystroke_t	t	n/a
6.073	0.135	12146	keystroke_h	h	n/a
6.298	0.12	12596	keystroke_e	e	n/a
6.478	0.105	12956	keystroke_Key.space	Key.space	n/a
7.213	0.09	14426	keystroke_q	q	n/a
7.348	0.1795	14696	keystroke_u	u	n/a
7.468	0.1495	14936	keystroke_i	i	n/a
7.6775	0.105	15355	keystroke_c	c	n/a
7.7835	0.194	15567	keystroke_k	k	n/a
7.9625	0.1355	15925	keystroke_Key.space	Key.space	n/a
8.128	0.195	16256	keystroke_b	b	n/a
8.5625	0.0905	17125	keystroke_r	r	n/a
8.683	0.1345	17366	keystroke_o	o	n/a
8.8325	0.105	17665	keystroke_q	q	n/a
9.283	0.0895	18566	keystroke_Key.backspace	Key.backspace	n/a
9.4625	0.1055	18925	keystroke_w	w	n/a
9.658	0.21	19316	keystroke_n	n	n/a
9.853	0.12	19706	keystroke_Key.space	Key.space	n/a
10.4075	0.061	20815	keystroke_f	f	n/a
10.603	0.105	21206	keystroke_o	o	n/a
10.798	0.105	21596	keystroke_x	x	n/a
10.933	0.12	21866	keystroke_Key.space	Key.space	n/a
11.188	0.1645	22376	keystroke_j	j	n/a
11.2925	0.12	22585	keystroke_u	u	n/a
11.533	0.195	23066	keystroke_m	m	n/a
11.668	0.18	23336	keystroke_p	p	n/a
11.818	0.18	23636	keystroke_s	s	n/a
12.088	0.12	24176	keystroke_Key.space	Key.space	n/a
12.493	0.09	24986	keystroke_o	o	n/a
12.673	0.09	25346	keystroke_v	v	n/a
12.853	0.105	25706	keystroke_e	e	n/a
13.0335	0.1195	26067	keystroke_r	r	n/a
13.183	0.105	26366	keystroke_Key.space	Key.space	n/a
13.333	0.12	26666	keystroke_a	a	n/a
13.498	0.105	26996	keystroke_Key.space	Key.space	n/a
13.723	0.12	27446	keystroke_l	l	n/a
13.828	0.135	27656	keystroke_a	a	n/a
14.4435	0.09	28887	keystroke_z	z	n/a
14.6235	0.165	29247	keystroke_y	y	n/a
14.7585	0.135	29517	keystroke_Key.space	Key.space	n/a
14.9385	0.12	29877	keystroke_d	d	n/a
15.0735	0.105	30147	keystroke_o	o	n/a
15.2385	0.075	30477	keystroke_g	g	n/a
15.718	0.12	31436	keystroke_Key.enter	Key.enter	n/a
15.845	6.61	31690	prompt	n/a	determining persian me oliver\n
16.6335	0.0745	33267	keystroke_d	d	n/a
16.8135	0.105	33627	keystroke_e	e	n/a
17.0225	0.076	34045	keystroke_t	t	n/a
17.2035	0.105	34407	keystroke_e	e	n/a
17.3985	0.075	34797	keystroke_r	r	n/a
17.6535	0.165	35307	keystroke_m	m	n/a
17.7885	0.195	35577	keystroke_i	i	n/a
17.9685	0.21	35937	keystroke_n	n	n/a
18.1335	0.24	36267	keystroke_i	i	n/a
18.3135	0.134	36627	keystroke_n	n	n/a
18.4175	0.12	36835	keystroke_g	g	n/a
18.5675	0.12	37135	keystroke_Key.space	Key.space	n/a
19.1225	0.135	38245	keystroke_p	p	n/a
19.2875	0.076	38575	keystroke_e	e	n/a
19.4525	0.075	38905	keystroke_r	r	n/a
19.6775	0.106	39355	keystroke_s	s	n/a
19.7675	0.121	39535	keystroke_i	i	n/a
19.9175	0.165	39835	keystroke_a	a	n/a
20.053	0.1645	40106	keystroke_n	n	n/a
20.1875	0.09	40375	keystroke_Key.space	Key.space	n/a
20.323	0.15	40646	keystroke_m	m	n/a
20.458	0.105	40916	keystroke_e	e	n/a
20.593	0.105	41186	keystroke_Key.space	Key.space	n/a
21.268	0.0905	42536	keystroke_o	o	n/a
21.463	0.09	42926	keystroke_l	l	n/a
21.6435	0.1045	43287	keystroke_i	i	n/a
21.778	0.09	43556	keystroke_v	v	n/a
22.003	0.075	44006	keystroke_e	e	n/a
22.168	0.075	44336	keystroke_r	r	n/a
22.378	0.075	44756	keystroke_Key.enter	Key.enter	n/a
22.4585	11.2615	44917	prompt	n/a	activation symbol christians scenes\n
23.4285	0.135	46857	keystroke_a	a	n/a
23.8785	0.075	47757	keystroke_c	c	n/a
24.1035	0.075	48207	keystroke_t	t	n/a
24.2685	0.105	48537	keystroke_i	i	n/a
24.3885	0.09	48777	keystroke_v	v	n/a
24.6585	0.1045	49317	keystroke_a	a	n/a
24.883	0.075	49766	keystroke_t	t	n/a
25.003	0.195	50006	keystroke_i	i	n/a
25.168	0.2105	50336	keystroke_o	o	n/a
25.3335	0.15	50667	keystroke_n	n	n/a
25.4235	0.135	50847	keystroke_Key.space	Key.space	n/a
25.6635	0.15	51327	keystroke_s	s	n/a
25.8435	0.105	51687	keystroke_y	y	n/a
26.0835	0.12	52167	keystroke_m	m	n/a
26.3235	0.18	52647	keystroke_b	b	n/a
26.4735	0.12	52947	keystroke_o	o	n/a
26.6685	0.18	53337	keystroke_l	l	n/a
26.8185	0.12	53637	keystroke_Key.space	Key.space	n/a
27.6585	0.105	55317	keystroke_c	c	n/a
27.7635	0.15	55527	keystroke_h	h	n/a
27.9735	0.12	55947	keystroke_r	r	n/a
28.1235	0.105	56247	keystroke_i	i	n/a
28.2425	0.105	56485	keystroke_s	s	n/a
28.4685	0.075	56937	keystroke_t	t	n/a
28.5735	0.105	57147	keystroke_i	i	n/a
28.7535	0.135	57507	keystroke_a	a	n/a
28.8735	0.104	57747	keystroke_n	n	n/a
29.0075	0.136	58015	keystroke_s	s	n/a
29.2175	0.1205	58435	keystroke_Key.space	Key.space	n/a
29.458	0.12	58916	keystroke_s	s	n/a
30.103	0.09	60206	keystroke_c	c	n/a
30.343	0.09	60686	keystroke_e	e	n/a
30.463	0.12	60926	keystroke_n	n	n/a
31.5885	0.09	63177	keystroke_e	e	n/a
31.7835	0.135	63567	keystroke_s	s	n/a
33.508	0.21	67016	keystroke_Key.enter	Key.enter	n/a
33.7235	12.0865	67447	prompt	n/a	africa skin seriously precipitation\n
34.7085	0.105	69417	keystroke_a	a	n/a
34.9485	0.06	69897	keystroke_f	f	n/a
35.1135	0.075	70227	keystroke_r	r	n/a
35.2335	0.1195	70467	keystroke_i	i	n/a
35.368	0.09	70736	keystroke_c	c	n/a
35.593	0.12	71186	keystroke_a	a	n/a
35.698	0.105	71396	keystroke_Key.space	Key.space	n/a
35.923	0.105	71846	keystroke_s	s	n/a
36.013	0.09	72026	keystroke_k	k	n/a
36.238	0.18	72476	keystroke_i	i	n/a
36.373	0.18	72746	keystroke_n	n	n/a
36.508	0.12	73016	keystroke_Key.space	Key.space	n/a
36.808	0.09	73616	keystroke_s	s	n/a
37.003	0.09	74006	keystroke_e	e	n/a
37.153	0.105	74306	keystroke_r	r	n/a
37.348	0.165	74696	keystroke_i	i	n/a
37.483	0.3	74966	keystroke_o	o	n/a
37.753	0.165	75506	keystroke_u	u	n/a
37.993	0.1355	75986	keystroke_s	s	n/a
38.1585	0.12	76317	keystroke_n	n	n/a
38.503	0.0755	77006	keystroke_Key.backspace	Key.backspace	n/a
38.7885	0.105	77577	keystroke_l	l	n/a
38.9235	0.105	77847	keystroke_y	y	n/a
39.163	0.12	78326	keystroke_Key.space	Key.space	n/a
39.763	0.135	79526	keystroke_p	p	n/a
39.943	0.09	79886	keystroke_r	r	n/a
40.123	0.0905	80246	keystroke_e	e	n/a
40.363	0.0755	80726	keystroke_c	c	n/a
40.468	0.195	80936	keystroke_i	i	n/a
40.6185	0.165	81237	keystroke_p	p	n/a
40.7685	0.105	81537	keystroke_a	a	n/a
41.008	0.0755	82016	keystroke_t	t	n/a
41.143	0.1355	82286	keystroke_i	i	n/a
41.8485	0.06	83697	keystroke_Key.backspace	Key.backspace	n/a
41.9835	0.09	83967	keystroke_Key.backspace	Key.backspace	n/a
42.313	0.09	84626	keystroke_Key.backspace	Key.backspace	n/a
42.703	0.105	85406	keystroke_u	u	n/a
42.913	0.1055	85826	keystroke_t	t	n/a
43.1835	0.06	86367	keystroke_Key.backspace	Key.backspace	n/a
43.3185	0.105	86637	keystroke_Key.backspace	Key.backspace	n/a
43.9935	0.12	87987	keystroke_i	i	n/a
44.0985	0.0745	88197	keystroke_t	t	n/a
44.3535	0.12	88707	keystroke_a	a	n/a
44.6385	0.0745	89277	keystroke_t	t	n/a
44.7285	0.18	89457	keystroke_i	i	n/a
44.8785	0.24	89757	keystroke_o	o	n/a
45.0735	0.12	90147	keystroke_n	n	n/a
45.6885	0.12	91377	keystroke_Key.enter	Key.enter	n/a
45.8135	8.7865	91627	prompt	n/a	combo senator revolutionary europe\n
46.633	0.105	93266	keystroke_c	c	n/a
46.753	0.195	93506	keystroke_o	o	n/a
46.888	0.15	93776	keystroke_m	m	n/a
47.158	0.18	94316	keystroke_b	b	n/a
47.2785	0.2095	94557	keystroke_o	o	n/a
47.443	0.135	94886	keystroke_Key.space	Key.space	n/a
47.593	0.135	95186	keystroke_s	s	n/a
47.803	0.135	95606	keystroke_e	e	n/a
47.953	0.12	95906	keystroke_n	n	n/a
48.253	0.105	96506	keystroke_a	a	n/a
48.5085	0.089	97017	keystroke_t	t	n/a
48.6135	0.1045	97227	keystroke_o	o	n/a
48.748	0.105	97496	keystroke_r	r	n/a
48.928	0.0755	97856	keystroke_Key.space	Key.space	n/a
49.6635	0.075	99327	keystroke_r	r	n/a
49.8435	0.09	99687	keystroke_e	e	n/a
50.0685	0.105	100137	keystroke_v	v	n/a
50.1585	0.09	100317	keystroke_o	o	n/a
50.3235	0.09	100647	keystroke_l	l	n/a
50.5035	0.12	101007	keystroke_u	u	n/a
50.6085	0.09	101217	keystroke_t	t	n/a
50.8485	0.135	101697	keystroke_a	a	n/a
51.4785	0.075	102957	keystroke_Key.backspace	Key.backspace	n/a
51.7185	0.18	103437	keystroke_i	i	n/a
51.8685	0.15	103737	keystroke_o	o	n/a
51.9885	0.135	103977	keystroke_n	n	n/a
52.1085	0.105	104217	keystroke_a	a	n/a
52.3635	0.105	104727	keystroke_r	r	n/a
52.5885	0.12	105177	keystroke_y	y	n/a
52.8735	0.1195	105747	keystroke_Key.space	Key.space	n/a
53.458	0.105	106916	keystroke_e	e	n/a
53.578	0.105	107156	keystroke_u	u	n/a
53.728	0.105	107456	keystroke_r	r	n/a
53.878	0.195	107756	keystroke_o	o	n/a
54.013	0.15	108026	keystroke_p	p	n/a
54.133	0.1355	108266	keystroke_e	e	n/a
54.5085	0.09	109017	keystroke_Key.enter	Key.enter	n/a
54.6035	5.8165	109207	prompt	n/a	corp blank elder metal\n
55.4085	0.09	110817	keystroke_c	c	n/a
55.5435	0.12	111087	keystroke_o	o	n/a
55.6785	0.09	111357	keystroke_r	r	n/a
55.8435	0.18	111687	keystroke_p	p	n/a
56.0085	0.09	112017	keystroke_Key.space	Key.space	n/a
56.2335	0.165	112467	keystroke_b	b	n/a
56.3685	0.165	112737	keystroke_l	l	n/a
56.4885	0.12	112977	keystroke_a	a	n/a
56.6675	0.301	113335	keystroke_n	n	n/a
56.8485	0.21	113697	keystroke_k	k	n/a
56.9975	0.151	113995	keystroke_Key.space	Key.space	n/a
57.2085	0.09	114417	keystroke_e	e	n/a
57.3135	0.135	114627	keystroke_l	l	n/a
57.4635	0.12	114927	keystroke_d	d	n/a
57.943	0.09	115886	keystroke_e	e	n/a
58.108	0.135	116216	keystroke_r	r	n/a
58.228	0.12	116456	keystroke_Key.space	Key.space	n/a
59.323	0.135	118646	keystroke_m	m	n/a
59.413	0.105	118826	keystroke_e	e	n/a
59.638	0.09	119276	keystroke_t	t	n/a
59.908	0.12	119816	keystroke_a	a	n/a
60.073	0.09	120146	keystroke_l	l	n/a
60.343	0.075	120686	keystroke_Key.enter	Key.enter	n/a
60.4235	9.026	120847	prompt	n/a	what've emacs refer doctors\n
61.3625	0.1055	122725	keystroke_w	w	n/a
61.498	0.1195	122996	keystroke_h	h	n/a
61.6025	0.09	123205	keystroke_s	s	n/a
62.2775	0.1055	124555	keystroke_Key.backspace	Key.backspace	n/a
62.398	0.0905	124796	keystroke_a	a	n/a
62.683	0.0745	125366	keystroke_t	t	n/a
62.878	0.1205	125756	keystroke_'	'	n/a
63.6285	0.075	127257	keystroke_v	v	n/a
63.8835	0.135	127767	keystroke_e	e	n/a
64.0035	0.105	128007	keystroke_Key.space	Key.space	n/a
64.2735	0.09	128547	keystroke_e	e	n/a
64.3935	0.12	128787	keystroke_m	m	n/a
64.6485	0.09	129297	keystroke_a	a	n/a
64.9035	0.09	129807	keystroke_c	c	n/a
65.1435	0.135	130287	keystroke_s	s	n/a
65.2635	0.135	130527	keystroke_Key.space	Key.space	n/a
65.7735	0.075	131547	keystroke_r	r	n/a
65.9685	0.075	131937	keystroke_e	e	n/a
66.178	0.075	132356	keystroke_f	f	n/a
66.343	0.075	132686	keystroke_e	e	n/a
66.493	0.105	132986	keystroke_r	r	n/a
66.628	0.105	133256	keystroke_Key.space	Key.space	n/a
67.333	0.105	134666	keystroke_d	d	n/a
67.439	0.104	134878	keystroke_o	o	n/a
67.558	0.09	135116	keystroke_c	c	n/a
67.813	0.075	135626	keystroke_t	t	n/a
67.963	0.105	135926	keystroke_o	o	n/a
68.053	0.0905	136106	keystroke_r	r	n/a
68.338	0.12	136676	keystroke_s	s	n/a
69.3435	0.105	138687	keystroke_Key.enter	Key.enter	n/a
69.4545	8.5305	138909	prompt	n/a	terms replica predictions dash\n
70.4085	0.105	140817	keystroke_t	t	n/a
70.6335	0.09	141267	keystroke_e	e	n/a
70.8135	0.075	141627	keystroke_r	r	n/a
70.9485	0.12	141897	keystroke_m	m	n/a
71.1585	0.09	142317	keystroke_s	s	n/a
71.2635	0.12	142527	keystroke_Key.space	Key.space	n/a
71.5935	0.09	143187	keystroke_r	r	n/a
71.7585	0.12	143517	keystroke_e	e	n/a
71.8935	0.195	143787	keystroke_p	p	n/a
72.0585	0.165	144117	keystroke_l	l	n/a
72.268	0.105	144536	keystroke_c	c	n/a
72.613	0.06	145226	keystroke_Key.backspace	Key.backspace	n/a
72.853	0.09	145706	keystroke_i	i	n/a
72.928	0.105	145856	keystroke_c	c	n/a
73.183	0.135	146366	keystroke_a	a	n/a
73.318	0.15	146636	keystroke_Key.space	Key.space	n/a
74.068	0.135	148136	keystroke_p	p	n/a
74.173	0.075	148346	keystroke_r	r	n/a
74.3535	0.09	148707	keystroke_e	e	n/a
74.5785	0.075	149157	keystroke_c	c	n/a
74.8485	0.09	149697	keystroke_Key.backspace	Key.backspace	n/a
74.9985	0.075	149997	keystroke_d	d	n/a
75.1035	0.1045	150207	keystroke_i	i	n/a
75.4635	0.075	150927	keystroke_c	c	n/a
75.7635	0.075	151527	keystroke_t	t	n/a
75.8535	0.15	151707	keystroke_i	i	n/a
75.9585	0.195	151917	keystroke_o	o	n/a
76.1085	0.18	152217	keystroke_n	n	n/a
76.273	0.15	152546	keystroke_s	s	n/a
76.4085	0.12	152817	keystroke_Key.space	Key.space	n/a
76.8885	0.09	153777	keystroke_d	d	n/a
77.128	0.09	154256	keystroke_a	a	n/a
77.3235	0.12	154647	keystroke_s	s	n/a
77.5035	0.105	155007	keystroke_h	h	n/a
77.893	0.09	155786	keystroke_Key.enter	Key.enter	n/a
77.9885	6.3415	155977	prompt	n/a	plays colleges husband mount\n
78.7035	0.165	157407	keystroke_p	p	n/a
78.7935	0.18	157587	keystroke_l	l	n/a
78.9585	0.165	157917	keystroke_a	a	n/a
79.1985	0.12	158397	keystroke_y	y	n/a
79.3335	0.12	158667	keystroke_s	s	n/a
79.4685	0.12	158937	keystroke_Key.space	Key.space	n/a
79.6035	0.12	159207	keystroke_c	c	n/a
79.7685	0.03	159537	keystroke_o	o	n/a
79.9335	0.075	159867	keystroke_l	l	n/a
80.0685	0.12	160137	keystroke_l	l	n/a
80.1735	0.165	160347	keystroke_e	e	n/a
80.3535	0.135	160707	keystroke_g	g	n/a
80.4735	0.105	160947	keystroke_e	e	n/a
80.6985	0.09	161397	keystroke_d	d	n/a
81.088	0.105	162176	keystroke_Key.backspace	Key.backspace	n/a
81.178	0.12	162356	keystroke_s	s	n/a
81.343	0.105	162686	keystroke_Key.space	Key.space	n/a
82.048	0.18	164096	keystroke_h	h	n/a
82.138	0.15	164276	keystroke_u	u	n/a
82.318	0.12	164636	keystroke_s	s	n/a
82.439	0.104	164878	keystroke_b	b	n/a
82.588	0.12	165176	keystroke_a	a	n/a
82.723	0.09	165446	keystroke_n	n	n/a
82.858	0.135	165716	keystroke_d	d	n/a
82.978	0.105	165956	keystroke_Key.space	Key.space	n/a
83.3085	0.18	166617	keystroke_m	m	n/a
83.4735	0.21	166947	keystroke_o	o	n/a
83.6085	0.18	167217	keystroke_u	u	n/a
83.7135	0.165	167427	keystroke_n	n	n/a
83.8935	0.135	167787	keystroke_t	t	n/a
84.2385	0.09	168477	keystroke_Key.enter	Key.enter	n/a
84.333	5.7575	168666	prompt	n/a	cheese spaces judge week\n
85.1235	0.09	170247	keystroke_c	c	n/a
85.2585	0.0895	170517	keystroke_h	h	n/a
85.378	0.061	170756	keystroke_e	e	n/a
85.514	0.089	171028	keystroke_e	e	n/a
85.738	0.12	171476	keystroke_s	s	n/a
85.933	0.106	171866	keystroke_e	e	n/a
86.068	0.12	172136	keystroke_Key.space	Key.space	n/a
86.309	0.104	172618	keystroke_s	s	n/a
86.4435	0.135	172887	keystroke_p	p	n/a
86.5935	0.105	173187	keystroke_a	a	n/a
86.8185	0.075	173637	keystroke_c	c	n/a
87.0435	0.09	174087	keystroke_e	e	n/a
87.2385	0.135	174477	keystroke_s	s	n/a
87.3585	0.105	174717	keystroke_Key.space	Key.space	n/a
87.959	0.18	175918	keystroke_j	j	n/a
88.109	0.165	176218	keystroke_u	u	n/a
88.259	0.135	176518	keystroke_d	d	n/a
88.454	0.12	176908	keystroke_g	g	n/a
88.589	0.12	177178	keystroke_e	e	n/a
88.724	0.105	177448	keystroke_Key.space	Key.space	n/a
89.174	0.105	178348	keystroke_w	w	n/a
89.429	0.105	178858	keystroke_e	e	n/a
89.594	0.135	179188	keystroke_e	e	n/a
89.744	0.12	179488	keystroke_k	k	n/a
89.999	0.09	179998	keystroke_Key.enter	Key.enter	n/a
90.0935	12.9865	180187	prompt	n/a	furnishings portsmouth rarely carnival\n
91.004	0.15	182008	keystroke_f	f	n/a
91.184	0.1195	182368	keystroke_u	u	n/a
91.3035	0.105	182607	keystroke_r	r	n/a
91.5735	0.1795	183147	keystroke_n	n	n/a
91.6785	0.1645	183357	keystroke_i	i	n/a
91.858	0.165	183716	keystroke_s	s	n/a
91.994	0.15	183988	keystroke_h	h	n/a
92.128	0.21	184256	keystroke_i	i	n/a
92.264	0.18	184528	keystroke_n	n	n/a
92.458	0.0905	184916	keystroke_g	g	n/a
92.683	0.12	185366	keystroke_s	s	n/a
92.923	0.12	185846	keystroke_Key.space	Key.space	n/a
93.329	0.165	186658	keystroke_p	p	n/a
93.479	0.165	186958	keystroke_o	o	n/a
94.124	0.15	188248	keystroke_r	r	n/a
94.333	0.075	188666	keystroke_t	t	n/a
94.603	0.121	189206	keystroke_s	s	n/a
94.739	0.164	189478	keystroke_m	m	n/a
94.889	0.194	189778	keystroke_o	o	n/a
95.024	0.179	190048	keystroke_u	u	n/a
95.579	0.105	191158	keystroke_t	t	n/a
95.668	0.1955	191336	keystroke_h	h	n/a
95.8185	0.135	191637	keystroke_Key.space	Key.space	n/a
97.5135	0.09	195027	keystroke_r	r	n/a
98.459	0.12	196918	keystroke_a	a	n/a
98.714	0.09	197428	keystroke_r	r	n/a
98.894	0.1195	197788	keystroke_e	e	n/a
99.0585	0.135	198117	keystroke_l	l	n/a
99.2385	0.1205	198477	keystroke_y	y	n/a
99.344	0.12	198688	keystroke_Key.space	Key.space	n/a
100.1835	0.09	200367	keystroke_c	c	n/a
100.4235	0.105	200847	keystroke_a	a	n/a
100.6785	0.09	201357	keystroke_r	r	n/a
100.7985	0.195	201597	keystroke_n	n	n/a
100.9485	0.15	201897	keystroke_i	i	n/a
101.1135	0.075	202227	keystroke_v	v	n/a
101.413	0.1355	202826	keystroke_a	a	n/a
101.5635	0.12	203127	keystroke_l	l	n/a
102.943	0.135	205886	keystroke_Key.enter	Key.enter	n/a
103.083	7.542	206166	prompt	n/a	cabinet retailer loved prize\n
104.1585	0.1045	208317	keystroke_c	c	n/a
104.308	0.1655	208616	keystroke_a	a	n/a
104.4885	0.135	208977	keystroke_b	b	n/a
104.6085	0.18	209217	keystroke_i	i	n/a
104.7285	0.195	209457	keystroke_n	n	n/a
104.8635	0.12	209727	keystroke_e	e	n/a
105.164	0.0895	210328	keystroke_t	t	n/a
105.2535	0.105	210507	keystroke_Key.space	Key.space	n/a
105.913	0.09	211826	keystroke_r	r	n/a
106.093	0.105	212186	keystroke_e	e	n/a
106.318	0.0905	212636	keystroke_t	t	n/a
106.5735	0.12	213147	keystroke_a	a	n/a
106.7085	0.165	213417	keystroke_i	i	n/a
106.8285	0.165	213657	keystroke_l	l	n/a
106.9635	0.075	213927	keystroke_e	e	n/a
107.1135	0.135	214227	keystroke_r	r	n/a
107.2335	0.12	214467	keystroke_Key.space	Key.space	n/a
107.4135	0.105	214827	keystroke_l	l	n/a
107.6235	0.12	215247	keystroke_o	o	n/a
108.0135	0.12	216027	keystroke_v	v	n/a
108.1485	0.165	216297	keystroke_e	e	n/a
108.4335	0.1045	216867	keystroke_d	d	n/a
108.718	0.105	217436	keystroke_Key.space	Key.space	n/a
109.003	0.105	218006	keystroke_p	p	n/a
109.153	0.12	218306	keystroke_r	r	n/a
109.258	0.12	218516	keystroke_i	i	n/a
109.5135	0.03	219027	keystroke_x	x	n/a
109.8585	0.075	219717	keystroke_Key.backspace	Key.backspace	n/a
109.9935	0.12	219987	keystroke_z	z	n/a
110.2485	0.09	220497	keystroke_e	e	n/a
110.5185	0.105	221037	keystroke_Key.enter	Key.enter	n/a
110.6295	7.631	221259	prompt	n/a	army completed natural settlement\n
111.7785	0.165	223557	keystroke_a	a	n/a
112.0935	0.12	224187	keystroke_r	r	n/a
112.2435	0.165	224487	keystroke_m	m	n/a
112.4835	0.195	224967	keystroke_y	y	n/a
112.6335	0.135	225267	keystroke_Key.space	Key.space	n/a
113.3235	0.12	226647	keystroke_c	c	n/a
113.4285	0.18	226857	keystroke_o	o	n/a
113.5485	0.2555	227097	keystroke_m	m	n/a
113.6985	0.135	227397	keystroke_p	p	n/a
113.7885	0.18	227577	keystroke_l	l	n/a
113.9085	0.225	227817	keystroke_e	e	n/a
114.1185	0.12	228237	keystroke_t	t	n/a
114.3135	0.165	228627	keystroke_e	e	n/a
114.5985	0.12	229197	keystroke_d	d	n/a
114.7185	0.12	229437	keystroke_Key.space	Key.space	n/a
115.3335	0.135	230667	keystroke_n	n	n/a
115.438	0.135	230876	keystroke_a	a	n/a
115.6935	0.09	231387	keystroke_t	t	n/a
115.798	0.12	231596	keystroke_u	u	n/a
115.9035	0.0895	231807	keystroke_r	r	n/a
116.143	0.2105	232286	keystroke_a	a	n/a
116.263	0.165	232526	keystroke_l	l	n/a
116.383	0.12	232766	keystroke_Key.space	Key.space	n/a
116.669	0.1045	233338	keystroke_s	s	n/a
116.879	0.09	233758	keystroke_e	e	n/a
117.104	0.045	234208	keystroke_t	t	n/a
117.194	0.105	234388	keystroke_t	t	n/a
117.314	0.135	234628	keystroke_l	l	n/a
117.464	0.075	234928	keystroke_e	e	n/a
117.539	0.12	235078	keystroke_m	m	n/a
117.644	0.12	235288	keystroke_e	e	n/a
117.749	0.12	235498	keystroke_n	n	n/a
117.884	0.12	235768	keystroke_t	t	n/a
118.139	0.12	236278	keystroke_Key.enter	Key.enter	n/a
118.2635	9.0565	236527	prompt	n/a	forgotten labs bird personality\n
119.024	0.105	238048	keystroke_f	f	n/a
119.114	0.12	238228	keystroke_o	o	n/a
119.219	0.075	238438	keystroke_r	r	n/a
119.384	0.105	238768	keystroke_g	g	n/a
119.504	0.105	239008	keystroke_o	o	n/a
119.624	0.06	239248	keystroke_t	t	n/a
119.744	0.075	239488	keystroke_t	t	n/a
119.969	0.1345	239938	keystroke_e	e	n/a
120.0885	0.165	240177	keystroke_n	n	n/a
120.2085	0.12	240417	keystroke_Key.space	Key.space	n/a
120.3585	0.15	240717	keystroke_l	l	n/a
120.5235	0.1805	241047	keystroke_a	a	n/a
120.734	0.135	241468	keystroke_b	b	n/a
121.034	0.09	242068	keystroke_Key.space	Key.space	n/a
121.694	0.09	243388	keystroke_Key.backspace	Key.backspace	n/a
121.799	0.135	243598	keystroke_s	s	n/a
121.919	0.135	243838	keystroke_Key.space	Key.space	n/a
122.234	0.18	244468	keystroke_b	b	n/a
122.339	0.165	244678	keystroke_i	i	n/a
122.474	0.15	244948	keystroke_r	r	n/a
122.819	0.135	245638	keystroke_d	d	n/a
123.239	0.105	246478	keystroke_Key.space	Key.space	n/a
123.494	0.134	246988	keystroke_p	p	n/a
123.613	0.09	247226	keystroke_e	e	n/a
123.778	0.105	247556	keystroke_r	r	n/a
124.303	0.12	248606	keystroke_s	s	n/a
124.438	0.1805	248876	keystroke_o	o	n/a
124.6035	0.1345	249207	keystroke_n	n	n/a
124.723	0.105	249446	keystroke_a	a	n/a
124.843	0.196	249686	keystroke_l	l	n/a
124.993	0.18	249986	keystroke_i	i	n/a
125.144	0.119	250288	keystroke_r	r	n/a
125.428	0.121	250856	keystroke_t	t	n/a
125.743	0.075	251486	keystroke_Key.backspace	Key.backspace	n/a
125.878	0.09	251756	keystroke_Key.backspace	Key.backspace	n/a
126.4785	0.105	252957	keystroke_t	t	n/a
126.6585	0.105	253317	keystroke_y	y	n/a
127.2285	0.09	254457	keystroke_Key.enter	Key.enter	n/a
127.3235	8.802	254647	prompt	n/a	hiking climb mechanisms flights\n
128.144	0.18	256288	keystroke_h	h	n/a
128.264	0.105	256528	keystroke_i	i	n/a
128.444	0.105	256888	keystroke_k	k	n/a
128.669	0.135	257338	keystroke_i	i	n/a
128.744	0.15	257488	keystroke_n	n	n/a
129.749	0.09	259498	keystroke_g	g	n/a
129.869	0.12	259738	keystroke_Key.space	Key.space	n/a
130.139	0.105	260278	keystroke_c	c	n/a
130.259	0.18	260518	keystroke_l	l	n/a
130.409	0.24	260818	keystroke_i	i	n/a
130.559	0.195	261118	keystroke_m	m	n/a
130.769	0.1345	261538	keystroke_d	d	n/a
131.3535	0.09	262707	keystroke_Key.backspace	Key.backspace	n/a
131.849	0.135	263698	keystroke_b	b	n/a
131.953	0.121	263906	keystroke_Key.space	Key.space	n/a
132.2535	0.15	264507	keystroke_m	m	n/a
132.3735	0.105	264747	keystroke_e	e	n/a
132.8685	0.135	265737	keystroke_c	c	n/a
132.9885	0.12	265977	keystroke_h	h	n/a
133.1085	0.15	266217	keystroke_a	a	n/a
133.2735	0.1655	266547	keystroke_n	n	n/a
133.379	0.15	266758	keystroke_i	i	n/a
133.514	0.225	267028	keystroke_s	s	n/a
133.694	0.135	267388	keystroke_m	m	n/a
133.859	0.165	267718	keystroke_s	s	n/a
133.994	0.09	267988	keystroke_Key.space	Key.space	n/a
134.684	0.179	269368	keystroke_f	f	n/a
134.834	0.135	269668	keystroke_l	l	n/a
134.909	0.24	269818	keystroke_i	i	n/a
135.089	0.12	270178	keystroke_g	g	n/a
135.254	0.135	270508	keystroke_h	h	n/a
135.374	0.09	270748	keystroke_t	t	n/a
135.614	0.15	271228	keystroke_s	s	n/a
136.019	0.1045	272038	keystroke_Key.enter	Key.enter	n/a
136.1285	7.2415	272257	prompt	n/a	days acceptance tech driver\n
136.9185	0.09	273837	keystroke_d	d	n/a
137.0985	0.15	274197	keystroke_a	a	n/a
137.2335	0.105	274467	keystroke_y	y	n/a
137.3685	0.21	274737	keystroke_s	s	n/a
137.5485	0.105	275097	keystroke_Key.space	Key.space	n/a
137.9085	0.105	275817	keystroke_a	a	n/a
138.224	0.09	276448	keystroke_c	c	n/a
138.3735	0.09	276747	keystroke_c	c	n/a
138.6585	0.135	277317	keystroke_e	e	n/a
138.8235	0.105	277647	keystroke_p	p	n/a
139.0185	0.09	278037	keystroke_t	t	n/a
139.2885	0.1055	278577	keystroke_a	a	n/a
139.4085	0.135	278817	keystroke_n	n	n/a
139.5885	0.1055	279177	keystroke_c	c	n/a
139.8735	0.12	279747	keystroke_e	e	n/a
139.9945	0.1195	279989	keystroke_Key.space	Key.space	n/a
140.309	0.1045	280618	keystroke_t	t	n/a
140.564	0.03	281128	keystroke_e	e	n/a
141.254	0.18	282508	keystroke_c	c	n/a
141.404	0.165	282808	keystroke_h	h	n/a
141.539	0.105	283078	keystroke_Key.space	Key.space	n/a
142.0485	0.09	284097	keystroke_d	d	n/a
142.2435	0.075	284487	keystroke_r	r	n/a
142.3785	0.105	284757	keystroke_i	i	n/a
142.4985	0.06	284997	keystroke_v	v	n/a
142.7535	0.075	285507	keystroke_e	e	n/a
142.9485	0.105	285897	keystroke_r	r	n/a
143.2635	0.105	286527	keystroke_Key.enter	Key.enter	n/a
143.3735	6.4915	286747	prompt	n/a	user locked federal broke\n
144.1035	0.15	288207	keystroke_u	u	n/a
144.4935	0.121	288987	keystroke_s	s	n/a
144.6885	0.105	289377	keystroke_e	e	n/a
144.8685	0.135	289737	keystroke_r	r	n/a
145.0185	0.1055	290037	keystroke_Key.space	Key.space	n/a
145.259	0.075	290518	keystroke_l	l	n/a
145.679	0.12	291358	keystroke_o	o	n/a
145.814	0.135	291628	keystroke_c	c	n/a
145.964	0.12	291928	keystroke_k	k	n/a
146.249	0.12	292498	keystroke_e	e	n/a
146.5185	0.12	293037	keystroke_d	d	n/a
146.6835	0.135	293367	keystroke_Key.space	Key.space	n/a
147.3735	0.135	294747	keystroke_f	f	n/a
147.5385	0.12	295077	keystroke_e	e	n/a
147.779	0.075	295558	keystroke_d	d	n/a
147.944	0.075	295888	keystroke_e	e	n/a
148.109	0.075	296218	keystroke_r	r	n/a
148.334	0.15	296668	keystroke_a	a	n/a
148.454	0.18	296908	keystroke_l	l	n/a
148.604	0.09	297208	keystroke_Key.space	Key.space	n/a
148.784	0.15	297568	keystroke_b	b	n/a
148.949	0.09	297898	keystroke_r	r	n/a
149.099	0.195	298198	keystroke_o	o	n/a
149.264	0.1645	298528	keystroke_k	k	n/a
149.4435	0.15	298887	keystroke_e	e	n/a
149.7435	0.12	299487	keystroke_Key.enter	Key.enter	n/a
149.868	7.8875	299736	prompt	n/a	water aware breathing actions\n
151.0035	0.09	302007	keystroke_w	w	n/a
151.484	0.135	302968	keystroke_a	a	n/a
151.664	0.045	303328	keystroke_t	t	n/a
151.964	0.1195	303928	keystroke_e	e	n/a
152.1585	0.15	304317	keystroke_r	r	n/a
152.2935	0.12	304587	keystroke_Key.space	Key.space	n/a
152.6085	0.136	305217	keystroke_a	a	n/a
152.8485	0.091	305697	keystroke_w	w	n/a
153.0595	0.104	306119	keystroke_a	a	n/a
153.3435	0.06	306687	keystroke_e	e	n/a
153.7035	0.105	307407	keystroke_Key.backspace	Key.backspace	n/a
153.7935	0.09	307587	keystroke_r	r	n/a
154.0035	0.105	308007	keystroke_e	e	n/a
154.1385	0.105	308277	keystroke_Key.space	Key.space	n/a
154.409	0.135	308818	keystroke_b	b	n/a
154.529	0.075	309058	keystroke_r	r	n/a
154.739	0.075	309478	keystroke_e	e	n/a
155.0085	0.09	310017	keystroke_a	a	n/a
155.2785	0.0905	310557	keystroke_t	t	n/a
155.384	0.165	310768	keystroke_h	h	n/a
155.504	0.225	311008	keystroke_i	i	n/a
155.654	0.15	311308	keystroke_n	n	n/a
155.774	0.15	311548	keystroke_g	g	n/a
155.909	0.105	311818	keystroke_Key.space	Key.space	n/a
156.3285	0.075	312657	keystroke_a	a	n/a
156.5085	0.09	313017	keystroke_c	c	n/a
156.7495	0.09	313499	keystroke_t	t	n/a
156.8695	0.179	313739	keystroke_i	i	n/a
157.0035	0.195	314007	keystroke_o	o	n/a
157.1395	0.1645	314279	keystroke_n	n	n/a
157.289	0.1495	314578	keystroke_s	s	n/a
157.6635	0.09	315327	keystroke_Key.enter	Key.enter	n/a
157.76	7.0005	315520	prompt	n/a	nathan specified security iron\n
158.414	0.165	316828	keystroke_n	n	n/a
158.564	0.105	317128	keystroke_a	a	n/a
158.804	0.0745	317608	keystroke_t	t	n/a
158.9085	0.12	317817	keystroke_h	h	n/a
159.0885	0.18	318177	keystroke_a	a	n/a
159.2535	0.2105	318507	keystroke_n	n	n/a
159.404	0.135	318808	keystroke_Key.space	Key.space	n/a
159.614	0.12	319228	keystroke_s	s	n/a
159.749	0.12	319498	keystroke_p	p	n/a
159.899	0.105	319798	keystroke_e	e	n/a
160.1685	0.1205	320337	keystroke_c	c	n/a
160.2895	0.119	320579	keystroke_i	i	n/a
160.4235	0.1055	320847	keystroke_f	f	n/a
160.544	0.1195	321088	keystroke_i	i	n/a
160.8135	0.0905	321627	keystroke_e	e	n/a
161.009	0.1495	322018	keystroke_d	d	n/a
161.144	0.0895	322288	keystroke_Key.space	Key.space	n/a
161.7135	0.09	323427	keystroke_s	s	n/a
161.8935	0.105	323787	keystroke_e	e	n/a
162.299	0.12	324598	keystroke_c	c	n/a
162.434	0.12	324868	keystroke_u	u	n/a
162.614	0.12	325228	keystroke_r	r	n/a
162.719	0.105	325438	keystroke_i	i	n/a
162.959	0.12	325918	keystroke_t	t	n/a
163.124	0.225	326248	keystroke_y	y	n/a
163.289	0.15	326578	keystroke_Key.space	Key.space	n/a
163.904	0.135	327808	keystroke_i	i	n/a
164.054	0.12	328108	keystroke_r	r	n/a
164.189	0.21	328378	keystroke_o	o	n/a
164.354	0.15	328708	keystroke_n	n	n/a
164.654	0.105	329308	keystroke_Key.enter	Key.enter	n/a
164.7635	9.387	329527	prompt	n/a	effort disturbed troops restoration\n
165.539	0.045	331078	keystroke_d	d	n/a
165.854	0.09	331708	keystroke_Key.backspace	Key.backspace	n/a
165.959	0.075	331918	keystroke_e	e	n/a
166.184	0.06	332368	keystroke_f	f	n/a
166.364	0.075	332728	keystroke_f	f	n/a
166.424	0.12	332848	keystroke_o	o	n/a
166.604	0.09	333208	keystroke_r	r	n/a
166.769	0.105	333538	keystroke_t	t	n/a
166.889	0.1195	333778	keystroke_Key.space	Key.space	n/a
167.519	0.105	335038	keystroke_d	d	n/a
167.639	0.12	335278	keystroke_i	i	n/a
167.804	0.105	335608	keystroke_s	s	n/a
168.044	0.06	336088	keystroke_t	t	n/a
168.194	0.12	336388	keystroke_r	r	n/a
168.344	0.165	336688	keystroke_i	i	n/a
168.494	0.21	336988	keystroke_b	b	n/a
168.659	0.165	337318	keystroke_u	u	n/a
168.794	0.12	337588	keystroke_t	t	n/a
169.034	0.12	338068	keystroke_e	e	n/a
169.259	0.105	338518	keystroke_d	d	n/a
169.379	0.105	338758	keystroke_Key.space	Key.space	n/a
169.709	0.09	339418	keystroke_t	t	n/a
169.904	0.105	339808	keystroke_r	r	n/a
170.054	0.105	340108	keystroke_o	o	n/a
170.234	0.165	340468	keystroke_o	o	n/a
170.339	0.165	340678	keystroke_p	p	n/a
170.489	0.15	340978	keystroke_s	s	n/a
170.639	0.12	341278	keystroke_Key.space	Key.space	n/a
171.149	0.075	342298	keystroke_r	r	n/a
171.299	0.09	342598	keystroke_e	e	n/a
171.569	0.06	343138	keystroke_s	s	n/a
172.169	0.09	344338	keystroke_t	t	n/a
172.244	0.1195	344488	keystroke_o	o	n/a
172.4535	0.105	344907	keystroke_r	r	n/a
172.7385	0.09	345477	keystroke_a	a	n/a
173.0085	0.09	346017	keystroke_t	t	n/a
173.0835	0.21	346167	keystroke_i	i	n/a
173.2485	0.24	346497	keystroke_o	o	n/a
173.4435	0.195	346887	keystroke_n	n	n/a
174.044	0.105	348088	keystroke_Key.enter	Key.enter	n/a
174.1535	6.942	348307	prompt	n/a	convenient must've crown hybrid\n
174.959	0.105	349918	keystroke_c	c	n/a
175.079	0.1645	350158	keystroke_o	o	n/a
175.1985	0.18	350397	keystroke_n	n	n/a
175.3485	0.09	350697	keystroke_v	v	n/a
175.5885	0.15	351177	keystroke_e	e	n/a
175.7685	0.21	351537	keystroke_n	n	n/a
175.9035	0.18	351807	keystroke_i	i	n/a
176.1135	0.165	352227	keystroke_e	e	n/a
176.3235	0.18	352647	keystroke_n	n	n/a
176.4735	0.135	352947	keystroke_t	t	n/a
176.6385	0.12	353277	keystroke_Key.space	Key.space	n/a
176.9235	0.105	353847	keystroke_m	m	n/a
177.2535	0.105	354507	keystroke_u	u	n/a
177.3735	0.12	354747	keystroke_s	s	n/a
177.6285	0.105	355257	keystroke_t	t	n/a
177.7785	0.1205	355557	keystroke_'	'	n/a
177.914	0.075	355828	keystroke_v	v	n/a
178.124	0.105	356248	keystroke_e	e	n/a
178.259	0.1045	356518	keystroke_Key.space	Key.space	n/a
178.619	0.075	357238	keystroke_c	c	n/a
178.814	0.09	357628	keystroke_r	r	n/a
178.934	0.135	357868	keystroke_o	o	n/a
179.069	0.15	358138	keystroke_w	w	n/a
179.249	0.165	358498	keystroke_n	n	n/a
179.384	0.12	358768	keystroke_Key.space	Key.space	n/a
179.849	0.15	359698	keystroke_h	h	n/a
180.014	0.135	360028	keystroke_y	y	n/a
180.164	0.15	360328	keystroke_b	b	n/a
180.314	0.12	360628	keystroke_r	r	n/a
180.449	0.135	360898	keystroke_i	i	n/a
180.629	0.12	361258	keystroke_d	d	n/a
180.974	0.12	361948	keystroke_Key.enter	Key.enter	n/a
181.098	8.067	362196	prompt	n/a	kirk cheap consideration texts\n
181.769	0.105	363538	keystroke_k	k	n/a
181.9785	0.09	363957	keystroke_i	i	n/a
182.0685	0.18	364137	keystroke_r	r	n/a
182.2785	0.165	364557	keystroke_k	k	n/a
182.4135	0.12	364827	keystroke_Key.space	Key.space	n/a
182.6085	0.105	365217	keystroke_c	c	n/a
182.7285	0.105	365457	keystroke_h	h	n/a
183.2235	0.09	366447	keystroke_e	e	n/a
183.659	0.165	367318	keystroke_a	a	n/a
183.809	0.225	367618	keystroke_p	p	n/a
183.974	0.135	367948	keystroke_Key.space	Key.space	n/a
184.8735	0.105	369747	keystroke_c	c	n/a
184.9485	0.195	369897	keystroke_o	o	n/a
185.1135	0.135	370227	keystroke_n	n	n/a
185.2335	0.121	370467	keystroke_s	s	n/a
185.384	0.105	370768	keystroke_i	i	n/a
185.474	0.105	370948	keystroke_d	d	n/a
185.669	0.09	371338	keystroke_e	e	n/a
185.909	0.06	371818	keystroke_t	t	n/a
186.479	0.09	372958	keystroke_Key.backspace	Key.backspace	n/a
186.599	0.075	373198	keystroke_r	r	n/a
186.809	0.09	373618	keystroke_a	a	n/a
187.094	0.09	374188	keystroke_t	t	n/a
187.169	0.1645	374338	keystroke_i	i	n/a
187.274	0.2245	374548	keystroke_o	o	n/a
187.4245	0.164	374849	keystroke_n	n	n/a
187.5435	0.12	375087	keystroke_Key.space	Key.space	n/a
188.1585	0.1205	376317	keystroke_t	t	n/a
188.2335	0.1055	376467	keystroke_e	e	n/a
188.489	0.1195	376978	keystroke_x	x	n/a
188.6235	0.105	377247	keystroke_t	t	n/a
188.7585	0.15	377517	keystroke_s	s	n/a
189.0585	0.105	378117	keystroke_Key.enter	Key.enter	n/a
189.1685	6.732	378337	prompt	n/a	jordan habits math wallpaper\n
190.0785	0.18	380157	keystroke_j	j	n/a
190.1985	0.195	380397	keystroke_o	o	n/a
190.3485	0.09	380697	keystroke_r	r	n/a
190.5885	0.075	381177	keystroke_d	d	n/a
190.7985	0.15	381597	keystroke_a	a	n/a
190.9335	0.18	381867	keystroke_n	n	n/a
191.0685	0.105	382137	keystroke_Key.space	Key.space	n/a
191.7885	0.135	383577	keystroke_h	h	n/a
191.9385	0.135	383877	keystroke_a	a	n/a
192.0885	0.1805	384177	keystroke_b	b	n/a
192.209	0.165	384418	keystroke_i	i	n/a
192.329	0.09	384658	keystroke_t	t	n/a
192.614	0.135	385228	keystroke_s	s	n/a
192.809	0.18	385618	keystroke_Key.space	Key.space	n/a
192.899	0.24	385798	keystroke_m	m	n/a
193.094	0.12	386188	keystroke_a	a	n/a
193.379	0.105	386758	keystroke_t	t	n/a
193.529	0.21	387058	keystroke_h	h	n/a
193.679	0.12	387358	keystroke_Key.space	Key.space	n/a
194.039	0.105	388078	keystroke_w	w	n/a
194.3535	0.105	388707	keystroke_a	a	n/a
194.5185	0.0905	389037	keystroke_l	l	n/a
194.699	0.09	389398	keystroke_l	l	n/a
194.879	0.12	389758	keystroke_p	p	n/a
195.029	0.12	390058	keystroke_a	a	n/a
195.165	0.134	390330	keystroke_p	p	n/a
195.329	0.09	390658	keystroke_e	e	n/a
195.5085	0.1355	391017	keystroke_r	r	n/a
195.809	0.09	391618	keystroke_Key.enter	Key.enter	n/a
195.9035	8.337	391807	prompt	n/a	season motherboard accused lies\n
196.6785	0.09	393357	keystroke_s	s	n/a
196.8885	0.075	393777	keystroke_e	e	n/a
197.0835	0.09	394167	keystroke_a	a	n/a
197.2785	0.151	394557	keystroke_s	s	n/a
197.3995	0.225	394799	keystroke_o	o	n/a
197.5795	0.18	395159	keystroke_n	n	n/a
197.7145	0.165	395429	keystroke_Key.space	Key.space	n/a
197.8945	0.225	395789	keystroke_m	m	n/a
198.0295	0.195	396059	keystroke_o	o	n/a
198.449	0.09	396898	keystroke_t	t	n/a
198.569	0.12	397138	keystroke_h	h	n/a
198.704	0.075	397408	keystroke_e	e	n/a
198.869	0.09	397738	keystroke_r	r	n/a
198.989	0.195	397978	keystroke_b	b	n/a
199.109	0.18	398218	keystroke_o	o	n/a
199.244	0.09	398488	keystroke_a	a	n/a
199.469	0.09	398938	keystroke_r	r	n/a
199.679	0.135	399358	keystroke_d	d	n/a
200.024	0.105	400048	keystroke_Key.space	Key.space	n/a
200.504	0.09	401008	keystroke_a	a	n/a
200.759	0.06	401518	keystroke_c	c	n/a
200.879	0.0895	401758	keystroke_c	c	n/a
201.0295	0.0895	402059	keystroke_u	u	n/a
201.134	0.12	402268	keystroke_s	s	n/a
201.674	0.12	403348	keystroke_e	e	n/a
201.884	0.135	403768	keystroke_d	d	n/a
201.989	0.105	403978	keystroke_Key.space	Key.space	n/a
202.259	0.195	404518	keystroke_l	l	n/a
202.379	0.165	404758	keystroke_i	i	n/a
202.499	0.09	404998	keystroke_s	s	n/a
202.934	0.105	405868	keystroke_Key.backspace	Key.backspace	n/a
203.054	0.09	406108	keystroke_e	e	n/a
203.294	0.09	406588	keystroke_d	d	n/a
203.654	0.06	407308	keystroke_Key.backspace	Key.backspace	n/a
203.729	0.105	407458	keystroke_s	s	n/a
204.119	0.12	408238	keystroke_Key.enter	Key.enter	n/a
204.2435	10.257	408487	prompt	n/a	chassis convicted walt function\n
204.899	0.105	409798	keystroke_a	a	n/a
205.244	0.0895	410488	keystroke_Key.backspace	Key.backspace	n/a
205.3785	0.09	410757	keystroke_c	c	n/a
205.4835	0.105	410967	keystroke_h	h	n/a
205.6335	0.105	411267	keystroke_a	a	n/a
205.8435	0.075	411687	keystroke_s	s	n/a
205.9935	0.105	411987	keystroke_s	s	n/a
206.1135	0.135	412227	keystroke_i	i	n/a
206.2635	0.165	412527	keystroke_s	s	n/a
206.4135	0.12	412827	keystroke_Key.space	Key.space	n/a
207.434	0.09	414868	keystroke_c	c	n/a
207.509	0.1795	415018	keystroke_o	o	n/a
207.6435	0.165	415287	keystroke_n	n	n/a
207.7785	0.165	415557	keystroke_v	v	n/a
207.9585	0.105	415917	keystroke_i	i	n/a
208.1535	0.09	416307	keystroke_c	c	n/a
208.3935	0.091	416787	keystroke_t	t	n/a
208.6185	0.09	417237	keystroke_e	e	n/a
208.8435	0.045	417687	keystroke_d	d	n/a
209.4585	0.12	418917	keystroke_Key.space	Key.space	n/a
210.0895	0.059	420179	keystroke_w	w	n/a
210.3895	0.165	420779	keystroke_a	a	n/a
210.5235	0.24	421047	keystroke_l	l	n/a
210.7045	0.225	421409	keystroke_k	k	n/a
210.8835	0.121	421767	keystroke_Key.space	Key.space	n/a
211.4095	0.074	422819	keystroke_Key.backspace	Key.backspace	n/a
211.5295	0.105	423059	keystroke_Key.backspace	Key.backspace	n/a
211.8295	0.09	423659	keystroke_t	t	n/a
211.9345	0.1195	423869	keystroke_Key.space	Key.space	n/a
212.714	0.105	425428	keystroke_f	f	n/a
212.864	0.225	425728	keystroke_u	u	n/a
212.999	0.195	425998	keystroke_n	n	n/a
213.104	0.12	426208	keystroke_c	c	n/a
213.374	0.165	426748	keystroke_t	t	n/a
213.494	0.21	426988	keystroke_i	i	n/a
213.659	0.2545	427318	keystroke_o	o	n/a
213.8545	0.164	427709	keystroke_n	n	n/a
214.3945	0.104	428789	keystroke_Key.enter	Key.enter	n/a
214.504	6.2215	429008	prompt	n/a	enter nerve tips drilling\n
215.234	0.135	430468	keystroke_e	e	n/a
215.384	0.135	430768	keystroke_n	n	n/a
215.534	0.105	431068	keystroke_t	t	n/a
215.774	0.075	431548	keystroke_e	e	n/a
215.924	0.105	431848	keystroke_r	r	n/a
216.0435	0.1205	432087	keystroke_Key.space	Key.space	n/a
216.284	0.1495	432568	keystroke_n	n	n/a
216.4935	0.075	432987	keystroke_e	e	n/a
216.7635	0.1055	433527	keystroke_r	r	n/a
216.929	0.105	433858	keystroke_v	v	n/a
217.154	0.06	434308	keystroke_e	e	n/a
217.319	0.105	434638	keystroke_Key.space	Key.space	n/a
217.7835	0.09	435567	keystroke_t	t	n/a
217.9185	0.24	435837	keystroke_i	i	n/a
218.0685	0.196	436137	keystroke_p	p	n/a
218.219	0.225	436438	keystroke_s	s	n/a
218.384	0.09	436768	keystroke_Key.space	Key.space	n/a
219.089	0.075	438178	keystroke_d	d	n/a
219.269	0.09	438538	keystroke_r	r	n/a
219.389	0.12	438778	keystroke_i	i	n/a
219.629	0.06	439258	keystroke_l	l	n/a
219.779	0.135	439558	keystroke_l	l	n/a
219.869	0.24	439738	keystroke_i	i	n/a
220.034	0.135	440068	keystroke_n	n	n/a
220.184	0.15	440368	keystroke_g	g	n/a
220.619	0.105	441238	keystroke_Key.enter	Key.enter	n/a
220.7285	7.272	441457	prompt	n/a	cruise cartridge aids demo\n
221.609	0.075	443218	keystroke_c	c	n/a
221.789	0.09	443578	keystroke_r	r	n/a
221.954	0.24	443908	keystroke_u	u	n/a
222.089	0.21	444178	keystroke_i	i	n/a
222.209	0.105	444418	keystroke_s	s	n/a
222.419	0.105	444838	keystroke_e	e	n/a
222.554	0.12	445108	keystroke_Key.space	Key.space	n/a
222.944	0.045	445888	keystroke_c	c	n/a
223.184	0.12	446368	keystroke_a	a	n/a
223.4235	0.09	446847	keystroke_r	r	n/a
223.6045	0.104	447209	keystroke_t	t	n/a
223.994	0.075	447988	keystroke_r	r	n/a
224.204	0.1355	448408	keystroke_i	i	n/a
224.9095	0.12	449819	keystroke_d	d	n/a
225.0445	0.075	450089	keystroke_g	g	n/a
225.1645	0.105	450329	keystroke_e	e	n/a
225.2985	0.12	450597	keystroke_Key.space	Key.space	n/a
225.659	0.105	451318	keystroke_a	a	n/a
225.809	0.135	451618	keystroke_i	i	n/a
226.0785	0.105	452157	keystroke_d	d	n/a
226.2895	0.15	452579	keystroke_s	s	n/a
226.4245	0.15	452849	keystroke_Key.space	Key.space	n/a
227.0545	0.074	454109	keystroke_d	d	n/a
227.2345	0.2545	454469	keystroke_e	e	n/a
227.369	0.24	454738	keystroke_m	m	n/a
227.564	0.135	455128	keystroke_o	o	n/a
227.924	0.075	455848	keystroke_Key.enter	Key.enter	n/a
228.003	6.7325	456006	prompt	n/a	hong villa holds variety\n
228.794	0.15	457588	keystroke_h	h	n/a
228.884	0.255	457768	keystroke_o	o	n/a
229.079	0.165	458158	keystroke_n	n	n/a
229.214	0.1205	458428	keystroke_g	g	n/a
229.3785	0.121	458757	keystroke_Key.space	Key.space	n/a
230.0385	0.09	460077	keystroke_v	v	n/a
230.1435	0.12	460287	keystroke_i	i	n/a
230.3685	0.075	460737	keystroke_l	l	n/a
230.5035	0.135	461007	keystroke_l	l	n/a
230.6535	0.18	461307	keystroke_a	a	n/a
230.8035	0.12	461607	keystroke_Key.space	Key.space	n/a
231.6135	0.165	463227	keystroke_h	h	n/a
231.7485	0.12	463497	keystroke_o	o	n/a
231.9585	0.135	463917	keystroke_l	l	n/a
232.0785	0.12	464157	keystroke_d	d	n/a
232.2585	0.18	464517	keystroke_s	s	n/a
232.4535	0.1055	464907	keystroke_Key.space	Key.space	n/a
233.0395	0.135	466079	keystroke_v	v	n/a
233.1585	0.1505	466317	keystroke_a	a	n/a
233.594	0.105	467188	keystroke_r	r	n/a
233.744	0.12	467488	keystroke_i	i	n/a
233.849	0.1205	467698	keystroke_e	e	n/a
234.0895	0.105	468179	keystroke_t	t	n/a
234.2685	0.166	468537	keystroke_y	y	n/a
234.6435	0.09	469287	keystroke_Key.enter	Key.enter	n/a
234.7405	6.79	469481	prompt	n/a	patch caught jewelry kids\n
235.3485	0.15	470697	keystroke_p	p	n/a
235.4385	0.12	470877	keystroke_a	a	n/a
235.8885	0.091	471777	keystroke_t	t	n/a
236.1585	0.151	472317	keystroke_c	c	n/a
236.2935	0.196	472587	keystroke_h	h	n/a
236.4285	0.1055	472857	keystroke_Key.space	Key.space	n/a
236.714	0.09	473428	keystroke_c	c	n/a
236.924	0.105	473848	keystroke_a	a	n/a
237.059	0.105	474118	keystroke_u	u	n/a
237.239	0.09	474478	keystroke_g	g	n/a
237.374	0.1045	474748	keystroke_h	h	n/a
237.5085	0.135	475017	keystroke_t	t	n/a
237.6285	0.106	475257	keystroke_Key.space	Key.space	n/a
238.109	0.135	476218	keystroke_j	j	n/a
238.229	0.12	476458	keystroke_e	e	n/a
238.454	0.105	476908	keystroke_w	w	n/a
238.709	0.075	477418	keystroke_e	e	n/a
238.904	0.12	477808	keystroke_l	l	n/a
239.4435	0.075	478887	keystroke_r	r	n/a
240.2385	0.15	480477	keystroke_y	y	n/a
240.3585	0.105	480717	keystroke_Key.space	Key.space	n/a
240.599	0.09	481198	keystroke_k	k	n/a
240.809	0.105	481618	keystroke_i	i	n/a
240.899	0.105	481798	keystroke_d	d	n/a
241.109	0.15	482218	keystroke_s	s	n/a
241.424	0.105	482848	keystroke_Key.enter	Key.enter	n/a
241.5335	8.547	483067	prompt	n/a	moisture despite gotta sbjct\n
242.279	0.165	484558	keystroke_m	m	n/a
242.384	0.24	484768	keystroke_o	o	n/a
242.564	0.165	485128	keystroke_i	i	n/a
242.714	0.135	485428	keystroke_s	s	n/a
243.329	0.105	486658	keystroke_t	t	n/a
243.449	0.12	486898	keystroke_u	u	n/a
243.584	0.09	487168	keystroke_r	r	n/a
243.794	0.105	487588	keystroke_e	e	n/a
243.9595	0.1045	487919	keystroke_Key.space	Key.space	n/a
244.7385	0.045	489477	keystroke_d	d	n/a
244.8735	0.075	489747	keystroke_e	e	n/a
245.0985	0.12	490197	keystroke_s	s	n/a
245.2035	0.195	490407	keystroke_p	p	n/a
245.3685	0.165	490737	keystroke_i	i	n/a
245.5485	0.105	491097	keystroke_t	t	n/a
245.7885	0.121	491577	keystroke_e	e	n/a
245.924	0.09	491848	keystroke_Key.space	Key.space	n/a
246.404	0.09	492808	keystroke_g	g	n/a
246.509	0.105	493018	keystroke_o	o	n/a
246.644	0.06	493288	keystroke_t	t	n/a
246.779	0.09	493558	keystroke_t	t	n/a
247.094	0.135	494188	keystroke_a	a	n/a
247.214	0.105	494428	keystroke_Key.space	Key.space	n/a
247.664	0.12	495328	keystroke_s	s	n/a
248.1745	0.2095	496349	keystroke_b	b	n/a
248.339	0.15	496678	keystroke_j	j	n/a
248.684	0.09	497368	keystroke_c	c	n/a
248.924	0.285	497848	keystroke_t	t	n/a
249.974	0.105	499948	keystroke_Key.enter	Key.enter	n/a
250.0835	6.402	500167	prompt	n/a	instrument vista then senator\n
250.9195	0.225	501839	keystroke_i	i	n/a
251.0535	0.196	502107	keystroke_n	n	n/a
251.1745	0.105	502349	keystroke_s	s	n/a
251.4145	0.0745	502829	keystroke_t	t	n/a
251.579	0.105	503158	keystroke_r	r	n/a
251.699	0.075	503398	keystroke_u	u	n/a
251.894	0.12	503788	keystroke_m	m	n/a
252.029	0.12	504058	keystroke_e	e	n/a
252.15	0.1045	504300	keystroke_n	n	n/a
252.2695	0.105	504539	keystroke_t	t	n/a
252.4345	0.105	504869	keystroke_Key.space	Key.space	n/a
252.8395	0.09	505679	keystroke_v	v	n/a
252.9445	0.105	505889	keystroke_i	i	n/a
253.109	0.09	506218	keystroke_s	s	n/a
253.364	0.075	506728	keystroke_t	t	n/a
253.649	0.135	507298	keystroke_a	a	n/a
253.754	0.12	507508	keystroke_Key.space	Key.space	n/a
254.069	0.09	508138	keystroke_t	t	n/a
254.189	0.1045	508378	keystroke_h	h	n/a
254.3235	0.195	508647	keystroke_e	e	n/a
254.4585	0.225	508917	keystroke_n	n	n/a
254.6385	0.135	509277	keystroke_Key.space	Key.space	n/a
254.8335	0.12	509667	keystroke_s	s	n/a
255.0735	0.105	510147	keystroke_e	e	n/a
255.2235	0.1205	510447	keystroke_n	n	n/a
255.539	0.1045	511078	keystroke_a	a	n/a
255.8085	0.075	511617	keystroke_t	t	n/a
255.8985	0.1355	511797	keystroke_o	o	n/a
256.0485	0.15	512097	keystroke_r	r	n/a
256.394	0.09	512788	keystroke_Key.enter	Key.enter	n/a
256.4895	9.2665	512979	prompt	n/a	existence broader equity replication\n
257.204	0.09	514408	keystroke_e	e	n/a
257.429	0.105	514858	keystroke_x	x	n/a
257.549	0.09	515098	keystroke_i	i	n/a
257.654	0.09	515308	keystroke_s	s	n/a
257.924	0.075	515848	keystroke_t	t	n/a
258.149	0.105	516298	keystroke_e	e	n/a
258.299	0.105	516598	keystroke_n	n	n/a
258.434	0.09	516868	keystroke_c	c	n/a
258.674	0.09	517348	keystroke_e	e	n/a
258.779	0.105	517558	keystroke_Key.space	Key.space	n/a
259.334	0.1055	518668	keystroke_b	b	n/a
259.4845	0.09	518969	keystroke_r	r	n/a
259.5895	0.12	519179	keystroke_o	o	n/a
259.7545	0.104	519509	keystroke_a	a	n/a
259.9785	0.06	519957	keystroke_d	d	n/a
260.1595	0.059	520319	keystroke_e	e	n/a
260.3235	0.12	520647	keystroke_r	r	n/a
260.5035	0.135	521007	keystroke_Key.space	Key.space	n/a
261.374	0.12	522748	keystroke_q	q	n/a
261.779	0.105	523558	keystroke_Key.backspace	Key.backspace	n/a
261.944	0.075	523888	keystroke_e	e	n/a
262.229	0.105	524458	keystroke_q	q	n/a
262.349	0.165	524698	keystroke_u	u	n/a
262.469	0.15	524938	keystroke_i	i	n/a
262.664	0.105	525328	keystroke_t	t	n/a
262.874	0.12	525748	keystroke_y	y	n/a
262.979	0.135	525958	keystroke_Key.space	Key.space	n/a
263.594	0.075	527188	keystroke_r	r	n/a
263.7595	0.1045	527519	keystroke_e	e	n/a
263.879	0.21	527758	keystroke_p	p	n/a
264.029	0.1355	528058	keystroke_l	l	n/a
264.2695	0.135	528539	keystroke_i	i	n/a
264.3595	0.09	528719	keystroke_c	c	n/a
264.5845	0.09	529169	keystroke_a	a	n/a
264.8695	0.09	529739	keystroke_t	t	n/a
264.9445	0.165	529889	keystroke_i	i	n/a
265.0945	0.24	530189	keystroke_o	o	n/a
265.3195	0.135	530639	keystroke_n	n	n/a
265.6495	0.105	531299	keystroke_Key.enter	Key.enter	n/a
265.759	8.2765	531518	prompt	n/a	recreation howard beginner headset\n
266.5345	0.075	533069	keystroke_r	r	n/a
266.7145	0.09	533429	keystroke_e	e	n/a
267.0145	0.06	534029	keystroke_c	c	n/a
267.2095	0.06	534419	keystroke_r	r	n/a
267.374	0.075	534748	keystroke_e	e	n/a
267.5845	0.075	535169	keystroke_a	a	n/a
267.8245	0.089	535649	keystroke_t	t	n/a
267.8985	0.195	535797	keystroke_i	i	n/a
268.0635	0.24	536127	keystroke_o	o	n/a
268.2735	0.12	536547	keystroke_n	n	n/a
268.3335	0.135	536667	keystroke_Key.space	Key.space	n/a
268.814	0.15	537628	keystroke_h	h	n/a
268.889	0.1795	537778	keystroke_o	o	n/a
269.0535	0.09	538107	keystroke_w	w	n/a
269.2635	0.0905	538527	keystroke_a	a	n/a
269.5035	0.06	539007	keystroke_r	r	n/a
269.6985	0.09	539397	keystroke_d	d	n/a
269.8335	0.09	539667	keystroke_Key.space	Key.space	n/a
270.1185	0.135	540237	keystroke_b	b	n/a
270.2385	0.09	540477	keystroke_e	e	n/a
270.4635	0.09	540927	keystroke_g	g	n/a
270.5685	0.165	541137	keystroke_i	i	n/a
270.6885	0.105	541377	keystroke_n	n	n/a
270.8685	0.135	541737	keystroke_n	n	n/a
271.0185	0.075	542037	keystroke_e	e	n/a
271.1835	0.1055	542367	keystroke_r	r	n/a
271.319	0.105	542638	keystroke_Key.space	Key.space	n/a
272.5495	0.135	545099	keystroke_h	h	n/a
272.6545	0.075	545309	keystroke_e	e	n/a
272.8645	0.09	545729	keystroke_a	a	n/a
273.0595	0.075	546119	keystroke_d	d	n/a
273.2845	0.075	546569	keystroke_s	s	n/a
273.4795	0.06	546959	keystroke_e	e	n/a
273.6895	0.105	547379	keystroke_t	t	n/a
273.9445	0.0895	547889	keystroke_Key.enter	Key.enter	n/a
274.039	8.3665	548078	prompt	n/a	refuse indexes recover occurring\n
274.784	0.075	549568	keystroke_r	r	n/a
274.949	0.075	549898	keystroke_e	e	n/a
275.249	0.075	550498	keystroke_f	f	n/a
275.339	0.105	550678	keystroke_u	u	n/a
275.519	0.09	551038	keystroke_s	s	n/a
275.729	0.09	551458	keystroke_e	e	n/a
275.864	0.09	551728	keystroke_Key.space	Key.space	n/a
276.119	0.195	552238	keystroke_i	i	n/a
276.269	0.18	552538	keystroke_n	n	n/a
276.404	0.06	552808	keystroke_d	d	n/a
276.584	0.075	553168	keystroke_e	e	n/a
276.824	0.075	553648	keystroke_x	x	n/a
277.019	0.06	554038	keystroke_e	e	n/a
277.244	0.105	554488	keystroke_s	s	n/a
277.3795	0.12	554759	keystroke_Key.space	Key.space	n/a
277.709	0.09	555418	keystroke_r	r	n/a
277.979	0.015	555958	keystroke_e	e	n/a
278.099	0.09	556198	keystroke_c	c	n/a
278.204	0.12	556408	keystroke_o	o	n/a
278.339	0.075	556678	keystroke_v	v	n/a
278.564	0.075	557128	keystroke_e	e	n/a
278.714	0.105	557428	keystroke_r	r	n/a
278.849	0.12	557698	keystroke_Key.space	Key.space	n/a
279.074	0.135	558148	keystroke_o	o	n/a
279.5695	0.0595	559139	keystroke_c	c	n/a
279.689	0.09	559378	keystroke_c	c	n/a
279.989	0.09	559978	keystroke_u	u	n/a
280.1095	0.105	560219	keystroke_r	r	n/a
280.2445	0.21	560489	keystroke_i	i	n/a
280.4395	0.15	560879	keystroke_n	n	n/a
280.8145	0.075	561629	keystroke_Key.backspace	Key.backspace	n/a
281.2795	0.075	562559	keystroke_Key.backspace	Key.backspace	n/a
281.4895	0.12	562979	keystroke_r	r	n/a
281.6695	0.15	563339	keystroke_i	i	n/a
281.7745	0.12	563549	keystroke_n	n	n/a
281.9245	0.15	563849	keystroke_g	g	n/a
282.2835	0.12	564567	keystroke_Key.enter	Key.enter	n/a
282.4085	5.9225	564817	prompt	n/a	slowly plays either delays\n
283.019	0.1655	566038	keystroke_s	s	n/a
283.1545	0.105	566309	keystroke_l	l	n/a
283.3345	0.135	566669	keystroke_o	o	n/a
283.4395	0.105	566879	keystroke_w	w	n/a
283.6195	0.1045	567239	keystroke_l	l	n/a
283.9345	0.1645	567869	keystroke_y	y	n/a
284.084	0.105	568168	keystroke_Key.space	Key.space	n/a
284.579	0.195	569158	keystroke_p	p	n/a
284.744	0.165	569488	keystroke_l	l	n/a
284.91	0.149	569820	keystroke_a	a	n/a
285.3295	0.2695	570659	keystroke_y	y	n/a
285.539	0.105	571078	keystroke_s	s	n/a
285.719	0.15	571438	keystroke_Key.space	Key.space	n/a
285.944	0.135	571888	keystroke_e	e	n/a
286.094	0.135	572188	keystroke_i	i	n/a
286.244	0.105	572488	keystroke_t	t	n/a
286.409	0.135	572818	keystroke_h	h	n/a
286.529	0.09	573058	keystroke_e	e	n/a
286.694	0.105	573388	keystroke_r	r	n/a
286.814	0.1055	573628	keystroke_Key.space	Key.space	n/a
287.264	0.09	574528	keystroke_d	d	n/a
287.444	0.09	574888	keystroke_e	e	n/a
287.535	0.104	575070	keystroke_l	l	n/a
287.669	0.135	575338	keystroke_a	a	n/a
287.864	0.09	575728	keystroke_y	y	n/a
287.984	0.12	575968	keystroke_s	s	n/a
288.224	0.105	576448	keystroke_Key.enter	Key.enter	n/a
288.334	7.917	576668	prompt	n/a	prevention wiki scholarship linear\n
289.094	0.15	578188	keystroke_p	p	n/a
289.289	0.075	578578	keystroke_r	r	n/a
289.454	0.075	578908	keystroke_e	e	n/a
289.694	0.06	579388	keystroke_v	v	n/a
289.874	0.135	579748	keystroke_e	e	n/a
289.994	0.1205	579988	keystroke_n	n	n/a
290.1595	0.18	580319	keystroke_t	t	n/a
290.2945	0.15	580589	keystroke_i	i	n/a
290.4295	0.225	580859	keystroke_o	o	n/a
290.5795	0.195	581159	keystroke_n	n	n/a
290.7295	0.15	581459	keystroke_Key.space	Key.space	n/a
290.9845	0.135	581969	keystroke_w	w	n/a
291.0895	0.105	582179	keystroke_i	i	n/a
291.2695	0.135	582539	keystroke_k	k	n/a
291.4945	0.195	582989	keystroke_i	i	n/a
291.6145	0.12	583229	keystroke_Key.space	Key.space	n/a
291.8845	0.09	583769	keystroke_s	s	n/a
292.1095	0.075	584219	keystroke_c	c	n/a
292.1995	0.18	584399	keystroke_h	h	n/a
292.3345	0.135	584669	keystroke_o	o	n/a
292.5445	0.15	585089	keystroke_l	l	n/a
292.6795	0.15	585359	keystroke_a	a	n/a
292.964	0.09	585928	keystroke_t	t	n/a
293.249	0.105	586498	keystroke_s	s	n/a
293.564	0.06	587128	keystroke_Key.backspace	Key.backspace	n/a
293.699	0.0895	587398	keystroke_Key.backspace	Key.backspace	n/a
293.8035	0.121	587607	keystroke_r	r	n/a
294.059	0.1355	588118	keystroke_s	s	n/a
294.1785	0.18	588357	keystroke_h	h	n/a
294.3	0.2385	588600	keystroke_i	i	n/a
294.4635	0.1965	588927	keystroke_p	p	n/a
294.6285	0.15	589257	keystroke_Key.space	Key.space	n/a
294.8085	0.196	589617	keystroke_l	l	n/a
294.9585	0.1955	589917	keystroke_i	i	n/a
295.0935	0.181	590187	keystroke_n	n	n/a
295.199	0.12	590398	keystroke_e	e	n/a
295.424	0.105	590848	keystroke_a	a	n/a
295.694	0.06	591388	keystroke_r	r	n/a
296.144	0.105	592288	keystroke_Key.enter	Key.enter	n/a
296.2535	6.687	592507	prompt	n/a	atmospheric about correct novels\n
297.0745	0.105	594149	keystroke_a	a	n/a
297.3295	0.075	594659	keystroke_t	t	n/a
297.4795	0.195	594959	keystroke_m	m	n/a
297.5995	0.18	595199	keystroke_o	o	n/a
297.7645	0.135	595529	keystroke_s	s	n/a
297.9595	0.135	595919	keystroke_p	p	n/a
298.1095	0.165	596219	keystroke_h	h	n/a
298.2595	0.09	596519	keystroke_e	e	n/a
298.4245	0.075	596849	keystroke_r	r	n/a
298.5595	0.09	597119	keystroke_i	i	n/a
298.7245	0.12	597449	keystroke_c	c	n/a
298.9345	0.105	597869	keystroke_Key.space	Key.space	n/a
299.3095	0.1055	598619	keystroke_a	a	n/a
299.399	0.285	598798	keystroke_b	b	n/a
299.534	0.18	599068	keystroke_o	o	n/a
299.669	0.27	599338	keystroke_u	u	n/a
299.82	0.105	599640	keystroke_t	t	n/a
299.969	0.165	599938	keystroke_Key.space	Key.space	n/a
300.3295	0.074	600659	keystroke_c	c	n/a
300.4335	0.12	600867	keystroke_o	o	n/a
300.599	0.075	601198	keystroke_r	r	n/a
300.734	0.09	601468	keystroke_r	r	n/a
300.9	0.104	601800	keystroke_e	e	n/a
301.139	0.09	602278	keystroke_c	c	n/a
301.3645	0.09	602729	keystroke_t	t	n/a
301.4845	0.15	602969	keystroke_Key.space	Key.space	n/a
301.7095	0.18	603419	keystroke_n	n	n/a
301.8295	0.225	603659	keystroke_o	o	n/a
302.0995	0.135	604199	keystroke_v	v	n/a
302.2195	0.15	604439	keystroke_e	e	n/a
302.3995	0.135	604799	keystroke_l	l	n/a
302.5345	0.21	605069	keystroke_s	s	n/a
302.8495	0.09	605699	keystroke_Key.enter	Key.enter	n/a
302.9435	9.5375	605887	prompt	n/a	steering pressing synopsis zdnet\n
303.644	0.09	607288	keystroke_s	s	n/a
303.959	0.09	607918	keystroke_t	t	n/a
304.4845	0.075	608969	keystroke_e	e	n/a
304.8445	0.075	609689	keystroke_e	e	n/a
305.0695	0.075	610139	keystroke_r	r	n/a
305.1595	0.225	610319	keystroke_i	i	n/a
305.3095	0.15	610619	keystroke_n	n	n/a
305.3995	0.09	610799	keystroke_g	g	n/a
305.4295	0.06	610859	keystroke_f	f	n/a
305.564	0.09	611128	keystroke_Key.space	Key.space	n/a
305.9545	0.0595	611909	keystroke_Key.backspace	Key.backspace	n/a
306.089	0.105	612178	keystroke_Key.backspace	Key.backspace	n/a
306.269	0.1355	612538	keystroke_Key.space	Key.space	n/a
306.4645	0.135	612929	keystroke_p	p	n/a
306.5695	0.075	613139	keystroke_r	r	n/a
306.7645	0.09	613529	keystroke_e	e	n/a
307.0045	0.06	614009	keystroke_s	s	n/a
307.1695	0.075	614339	keystroke_s	s	n/a
307.2895	0.2095	614579	keystroke_i	i	n/a
307.424	0.15	614848	keystroke_n	n	n/a
307.529	0.135	615058	keystroke_g	g	n/a
307.679	0.105	615358	keystroke_Key.space	Key.space	n/a
308.114	0.105	616228	keystroke_s	s	n/a
308.519	0.12	617038	keystroke_y	y	n/a
308.714	0.2995	617428	keystroke_n	n	n/a
308.9385	0.225	617877	keystroke_o	o	n/a
309.1035	0.165	618207	keystroke_p	p	n/a
309.3285	0.15	618657	keystroke_s	s	n/a
309.4795	0.12	618959	keystroke_i	i	n/a
309.6145	0.104	619229	keystroke_s	s	n/a
309.7335	0.12	619467	keystroke_Key.space	Key.space	n/a
311.114	0.105	622228	keystroke_z	z	n/a
311.324	0.09	622648	keystroke_d	d	n/a
311.429	0.105	622858	keystroke_n	n	n/a
311.549	0.09	623098	keystroke_e	e	n/a
311.789	0.12	623578	keystroke_t	t	n/a
312.359	0.12	624718	keystroke_Key.enter	Key.enter	n/a
312.4855	9.4305	624971	prompt	n/a	considering boat specialties unsubscribe\n
313.3945	0.105	626789	keystroke_c	c	n/a
313.4845	0.18	626969	keystroke_o	o	n/a
313.6195	0.15	627239	keystroke_n	n	n/a
313.7545	0.135	627509	keystroke_s	s	n/a
313.8895	0.135	627779	keystroke_i	i	n/a
314.0395	0.075	628079	keystroke_d	d	n/a
314.2195	0.0745	628439	keystroke_e	e	n/a
314.384	0.105	628768	keystroke_r	r	n/a
314.504	0.195	629008	keystroke_i	i	n/a
314.609	0.18	629218	keystroke_n	n	n/a
314.744	0.165	629488	keystroke_g	g	n/a
314.894	0.135	629788	keystroke_Key.space	Key.space	n/a
315.044	0.18	630088	keystroke_b	b	n/a
315.164	0.15	630328	keystroke_o	o	n/a
315.254	0.12	630508	keystroke_a	a	n/a
315.539	0.075	631078	keystroke_t	t	n/a
315.629	0.12	631258	keystroke_Key.space	Key.space	n/a
316.0795	0.1045	632159	keystroke_s	s	n/a
316.169	0.135	632338	keystroke_p	p	n/a
316.349	0.075	632698	keystroke_e	e	n/a
316.559	0.075	633118	keystroke_c	c	n/a
316.664	0.12	633328	keystroke_i	i	n/a
316.829	0.09	633658	keystroke_a	a	n/a
317.039	0.165	634078	keystroke_l	l	n/a
317.5045	0.09	635009	keystroke_t	t	n/a
317.7595	0.105	635519	keystroke_i	i	n/a
317.9695	0.105	635939	keystroke_e	e	n/a
318.1795	0.12	636359	keystroke_s	s	n/a
318.3745	0.135	636749	keystroke_Key.space	Key.space	n/a
318.9445	0.1945	637889	keystroke_u	u	n/a
319.079	0.18	638158	keystroke_n	n	n/a
319.244	0.12	638488	keystroke_s	s	n/a
319.544	0.1805	639088	keystroke_u	u	n/a
319.6645	0.165	639329	keystroke_b	b	n/a
319.8895	0.09	639779	keystroke_s	s	n/a
320.1145	0.0745	640229	keystroke_c	c	n/a
320.3095	0.075	640619	keystroke_r	r	n/a
320.4445	0.165	640889	keystroke_i	i	n/a
320.7145	0.03	641429	keystroke_b	b	n/a
321.0895	0.105	642179	keystroke_e	e	n/a
321.8095	0.105	643619	keystroke_Key.enter	Key.enter	n/a
321.919	7.2115	643838	prompt	n/a	earn donations legitimate custody\n
322.769	0.09	645538	keystroke_e	e	n/a
322.979	0.105	645958	keystroke_a	a	n/a
323.2045	0.09	646409	keystroke_r	r	n/a
323.3395	0.165	646679	keystroke_n	n	n/a
323.4445	0.165	646889	keystroke_Key.space	Key.space	n/a
323.774	0.075	647548	keystroke_d	d	n/a
323.879	0.18	647758	keystroke_o	o	n/a
324.029	0.1655	648058	keystroke_n	n	n/a
324.1495	0.075	648299	keystroke_a	a	n/a
324.3745	0.09	648749	keystroke_t	t	n/a
324.4795	0.195	648959	keystroke_i	i	n/a
324.6145	0.225	649229	keystroke_o	o	n/a
324.7645	0.225	649529	keystroke_n	n	n/a
324.9295	0.15	649859	keystroke_s	s	n/a
325.0645	0.1045	650129	keystroke_Key.space	Key.space	n/a
325.2895	0.135	650579	keystroke_l	l	n/a
325.4095	0.09	650819	keystroke_e	e	n/a
325.6195	0.105	651239	keystroke_g	g	n/a
325.7395	0.135	651479	keystroke_i	i	n/a
325.9045	0.12	651809	keystroke_t	t	n/a
325.9945	0.195	651989	keystroke_i	i	n/a
326.1745	0.195	652349	keystroke_m	m	n/a
326.3245	0.105	652649	keystroke_a	a	n/a
326.5945	0.09	653189	keystroke_t	t	n/a
326.8345	0.12	653669	keystroke_e	e	n/a
326.9545	0.09	653909	keystroke_Key.space	Key.space	n/a
327.749	0.06	655498	keystroke_c	c	n/a
327.824	0.1355	655648	keystroke_u	u	n/a
327.9745	0.09	655949	keystroke_s	s	n/a
328.2595	0.075	656519	keystroke_t	t	n/a
328.3495	0.105	656699	keystroke_o	o	n/a
328.5445	0.105	657089	keystroke_d	d	n/a
328.6495	0.105	657299	keystroke_y	y	n/a
329.0245	0.105	658049	keystroke_Key.enter	Key.enter	n/a
329.134	7.272	658268	prompt	n/a	remote maximum ceiling gilbert\n
329.849	0.075	659698	keystroke_r	r	n/a
329.999	0.135	659998	keystroke_e	e	n/a
330.164	0.195	660328	keystroke_m	m	n/a
330.284	0.18	660568	keystroke_o	o	n/a
330.419	0.105	660838	keystroke_t	t	n/a
330.629	0.135	661258	keystroke_e	e	n/a
330.779	0.12	661558	keystroke_Key.space	Key.space	n/a
331.004	0.165	662008	keystroke_m	m	n/a
331.139	0.09	662278	keystroke_a	a	n/a
331.619	0.09	663238	keystroke_x	x	n/a
331.859	0.24	663718	keystroke_i	i	n/a
332.069	0.195	664138	keystroke_m	m	n/a
332.234	0.195	664468	keystroke_u	u	n/a
332.399	0.255	664798	keystroke_m	m	n/a
332.579	0.165	665158	keystroke_Key.space	Key.space	n/a
333.3745	0.075	666749	keystroke_c	c	n/a
333.5545	0.135	667109	keystroke_e	e	n/a
333.6895	0.18	667379	keystroke_i	i	n/a
333.8395	0.255	667679	keystroke_l	l	n/a
334.0195	0.2695	668039	keystroke_i	i	n/a
334.169	0.165	668338	keystroke_n	n	n/a
334.304	0.105	668608	keystroke_g	g	n/a
334.424	0.12	668848	keystroke_Key.space	Key.space	n/a
334.9795	0.09	669959	keystroke_g	g	n/a
335.0845	0.15	670169	keystroke_i	i	n/a
335.2045	0.1795	670409	keystroke_l	l	n/a
335.384	0.135	670768	keystroke_b	b	n/a
335.474	0.09	670948	keystroke_e	e	n/a
335.639	0.12	671278	keystroke_r	r	n/a
335.864	0.135	671728	keystroke_t	t	n/a
336.2695	0.1345	672539	keystroke_Key.enter	Key.enter	n/a
336.409	6.78	672818	prompt	n/a	itunes grade rare refined\n
337.0495	0.18	674099	keystroke_i	i	n/a
337.2145	0.12	674429	keystroke_t	t	n/a
337.3495	0.18	674699	keystroke_u	u	n/a
337.5145	0.18	675029	keystroke_n	n	n/a
337.7095	0.09	675419	keystroke_e	e	n/a
337.9195	0.105	675839	keystroke_s	s	n/a
338.0545	0.12	676109	keystroke_Key.space	Key.space	n/a
338.429	0.12	676858	keystroke_g	g	n/a
338.7	0.014	677400	keystroke_r	r	n/a
338.8345	0.105	677669	keystroke_a	a	n/a
339.0445	0.06	678089	keystroke_d	d	n/a
339.2245	0.09	678449	keystroke_e	e	n/a
339.3295	0.12	678659	keystroke_Key.space	Key.space	n/a
339.7045	0.075	679409	keystroke_r	r	n/a
339.9145	0.12	679829	keystroke_a	a	n/a
340.1545	0.0895	680309	keystroke_r	r	n/a
340.364	0.135	680728	keystroke_e	e	n/a
340.484	0.12	680968	keystroke_Key.space	Key.space	n/a
340.844	0.075	681688	keystroke_r	r	n/a
341.039	0.105	682078	keystroke_e	e	n/a
342.104	0.09	684208	keystroke_f	f	n/a
342.179	0.18	684358	keystroke_i	i	n/a
342.299	0.15	684598	keystroke_n	n	n/a
342.389	0.09	684778	keystroke_e	e	n/a
342.584	0.15	685168	keystroke_d	d	n/a
343.1095	0.074	686219	keystroke_Key.enter	Key.enter	n/a
343.189	5.772	686378	prompt	n/a	artists borough setup dual\n
343.95	0.1045	687900	keystroke_a	a	n/a
344.1745	0.0745	688349	keystroke_r	r	n/a
344.3395	0.075	688679	keystroke_t	t	n/a
344.4745	0.135	688949	keystroke_i	i	n/a
344.6245	0.075	689249	keystroke_s	s	n/a
344.8195	0.09	689639	keystroke_t	t	n/a
345.0595	0.12	690119	keystroke_s	s	n/a
345.1945	0.12	690389	keystroke_Key.space	Key.space	n/a
345.569	0.18	691138	keystroke_b	b	n/a
345.659	0.18	691318	keystroke_o	o	n/a
345.809	0.12	691618	keystroke_r	r	n/a
345.944	0.195	691888	keystroke_o	o	n/a
346.109	0.256	692218	keystroke_u	u	n/a
346.259	0.12	692518	keystroke_g	g	n/a
346.35	0.194	692700	keystroke_h	h	n/a
346.499	0.135	692998	keystroke_Key.space	Key.space	n/a
346.725	0.12	693450	keystroke_s	s	n/a
346.935	0.089	693870	keystroke_e	e	n/a
347.144	0.09	694288	keystroke_t	t	n/a
347.339	0.165	694678	keystroke_u	u	n/a
347.444	0.24	694888	keystroke_p	p	n/a
347.639	0.12	695278	keystroke_Key.space	Key.space	n/a
348.044	0.09	696088	keystroke_d	d	n/a
348.164	0.135	696328	keystroke_u	u	n/a
348.329	0.181	696658	keystroke_a	a	n/a
348.539	0.105	697078	keystroke_l	l	n/a
348.869	0.09	697738	keystroke_Key.enter	Key.enter	n/a
348.9645	8.7565	697929	prompt	n/a	departmental senator commentary copyright\n
349.859	0.075	699718	keystroke_d	d	n/a
350.024	0.09	700048	keystroke_e	e	n/a
350.144	0.136	700288	keystroke_p	p	n/a
350.28	0.089	700560	keystroke_a	a	n/a
350.504	0.06	701008	keystroke_r	r	n/a
350.684	0.046	701368	keystroke_t	t	n/a
350.774	0.12	701548	keystroke_m	m	n/a
350.969	0.105	701938	keystroke_e	e	n/a
351.059	0.12	702118	keystroke_n	n	n/a
351.224	0.09	702448	keystroke_t	t	n/a
351.494	0.195	702988	keystroke_a	a	n/a
351.629	0.195	703258	keystroke_l	l	n/a
351.764	0.12	703528	keystroke_Key.space	Key.space	n/a
351.914	0.09	703828	keystroke_s	s	n/a
352.109	0.09	704218	keystroke_e	e	n/a
352.259	0.12	704518	keystroke_n	n	n/a
352.349	0.12	704698	keystroke_a	a	n/a
352.649	0.06	705298	keystroke_t	t	n/a
352.739	0.12	705478	keystroke_o	o	n/a
352.874	0.09	705748	keystroke_r	r	n/a
353.3245	0.165	706649	keystroke_Key.space	Key.space	n/a
353.6245	0.1045	707249	keystroke_c	c	n/a
353.7145	0.1795	707429	keystroke_o	o	n/a
353.864	0.105	707728	keystroke_m	m	n/a
354.014	0.1505	708028	keystroke_m	m	n/a
354.1495	0.105	708299	keystroke_e	e	n/a
354.2695	0.135	708539	keystroke_n	n	n/a
354.5395	0.09	709079	keystroke_t	t	n/a
354.8395	0.105	709679	keystroke_a	a	n/a
355.079	0.09	710158	keystroke_r	r	n/a
355.229	0.165	710458	keystroke_y	y	n/a
355.694	0.12	711388	keystroke_Key.space	Key.space	n/a
356.159	0.045	712318	keystroke_c	c	n/a
356.249	0.18	712498	keystroke_o	o	n/a
356.369	0.135	712738	keystroke_p	p	n/a
356.624	0.105	713248	keystroke_y	y	n/a
356.789	0.1055	713578	keystroke_r	r	n/a
356.909	0.105	713818	keystroke_i	i	n/a
357.044	0.09	714088	keystroke_g	g	n/a
357.149	0.12	714298	keystroke_h	h	n/a
357.2845	0.15	714569	keystroke_t	t	n/a
357.5995	0.12	715199	keystroke_Key.enter	Key.enter	n/a
357.724	5.952	715448	prompt	n/a	former align maker elementary\n
358.53	0.105	717060	keystroke_f	f	n/a
358.605	0.15	717210	keystroke_o	o	n/a
358.74	0.105	717480	keystroke_r	r	n/a
358.86	0.135	717720	keystroke_m	m	n/a
359.01	0.1045	718020	keystroke_e	e	n/a
359.205	0.1045	718410	keystroke_r	r	n/a
359.3545	0.135	718709	keystroke_Key.space	Key.space	n/a
359.6545	0.075	719309	keystroke_a	a	n/a
359.7445	0.195	719489	keystroke_l	l	n/a
359.9245	0.15	719849	keystroke_i	i	n/a
360.0895	0.135	720179	keystroke_g	g	n/a
360.2395	0.15	720479	keystroke_n	n	n/a
360.3595	0.1195	720719	keystroke_Key.space	Key.space	n/a
360.539	0.18	721078	keystroke_m	m	n/a
360.689	0.12	721378	keystroke_a	a	n/a
360.839	0.135	721678	keystroke_k	k	n/a
360.989	0.09	721978	keystroke_e	e	n/a
361.184	0.12	722368	keystroke_r	r	n/a
361.334	0.105	722668	keystroke_Key.space	Key.space	n/a
361.634	0.12	723268	keystroke_e	e	n/a
361.739	0.1505	723478	keystroke_l	l	n/a
361.904	0.15	723808	keystroke_e	e	n/a
361.994	0.135	723988	keystroke_m	m	n/a
362.159	0.12	724318	keystroke_e	e	n/a
362.294	0.15	724588	keystroke_n	n	n/a
362.429	0.09	724858	keystroke_t	t	n/a
362.684	0.12	725368	keystroke_a	a	n/a
362.894	0.1355	725788	keystroke_r	r	n/a
363.014	0.135	726028	keystroke_y	y	n/a
363.584	0.09	727168	keystroke_Key.enter	Key.enter	n/a
363.679	6.447	727358	prompt	n/a	calculate cook integrating babies\n
364.409	0.075	728818	keystroke_c	c	n/a
364.589	0.165	729178	keystroke_a	a	n/a
364.769	0.06	729538	keystroke_l	l	n/a
364.874	0.09	729748	keystroke_c	c	n/a
364.979	0.135	729958	keystroke_u	u	n/a
365.099	0.15	730198	keystroke_l	l	n/a
365.219	0.12	730438	keystroke_a	a	n/a
365.4745	0.075	730949	keystroke_t	t	n/a
365.6845	0.09	731369	keystroke_e	e	n/a
365.8195	0.105	731639	keystroke_Key.space	Key.space	n/a
366.224	0.06	732448	keystroke_c	c	n/a
366.299	0.09	732598	keystroke_o	o	n/a
366.464	0.21	732928	keystroke_o	o	n/a
366.629	0.21	733258	keystroke_k	k	n/a
366.779	0.15	733558	keystroke_Key.space	Key.space	n/a
367.034	0.18	734068	keystroke_i	i	n/a
367.154	0.165	734308	keystroke_n	n	n/a
367.289	0.075	734578	keystroke_t	t	n/a
367.484	0.105	734968	keystroke_e	e	n/a
367.637	0.102	735274	keystroke_g	g	n/a
367.814	0.075	735628	keystroke_r	r	n/a
368.024	0.105	736048	keystroke_a	a	n/a
368.264	0.075	736528	keystroke_t	t	n/a
368.354	0.195	736708	keystroke_i	i	n/a
368.504	0.181	737008	keystroke_n	n	n/a
368.609	0.12	737218	keystroke_g	g	n/a
368.744	0.105	737488	keystroke_Key.space	Key.space	n/a
368.924	0.135	737848	keystroke_b	b	n/a
369.06	0.119	738120	keystroke_a	a	n/a
369.15	0.209	738300	keystroke_b	b	n/a
369.2845	0.1495	738569	keystroke_i	i	n/a
369.449	0.09	738898	keystroke_e	e	n/a
369.659	0.105	739318	keystroke_s	s	n/a
370.019	0.105	740038	keystroke_Key.enter	Key.enter	n/a
370.129	6.567	740258	prompt	n/a	prove display involved classics\n
370.7845	0.12	741569	keystroke_p	p	n/a
370.8895	0.135	741779	keystroke_r	r	n/a
371.0395	0.135	742079	keystroke_o	o	n/a
371.1745	0.09	742349	keystroke_v	v	n/a
371.414	0.1055	742828	keystroke_e	e	n/a
371.5495	0.105	743099	keystroke_Key.space	Key.space	n/a
371.9095	0.075	743819	keystroke_d	d	n/a
371.9995	0.12	743999	keystroke_i	i	n/a
372.1195	0.1205	744239	keystroke_s	s	n/a
372.27	0.149	744540	keystroke_p	p	n/a
372.359	0.15	744718	keystroke_l	l	n/a
372.539	0.135	745078	keystroke_a	a	n/a
372.704	0.1955	745408	keystroke_y	y	n/a
372.8545	0.12	745709	keystroke_Key.space	Key.space	n/a
373.0795	0.2095	746159	keystroke_i	i	n/a
373.2295	0.15	746459	keystroke_n	n	n/a
373.529	0.09	747058	keystroke_v	v	n/a
373.62	0.089	747240	keystroke_o	o	n/a
373.784	0.15	747568	keystroke_l	l	n/a
373.919	0.06	747838	keystroke_v	v	n/a
374.1895	0.075	748379	keystroke_e	e	n/a
374.369	0.12	748738	keystroke_d	d	n/a
374.504	0.105	749008	keystroke_Key.space	Key.space	n/a
375.059	0.09	750118	keystroke_c	c	n/a
375.194	0.1355	750388	keystroke_l	l	n/a
375.2995	0.105	750599	keystroke_a	a	n/a
375.5245	0.0595	751049	keystroke_s	s	n/a
375.674	0.09	751348	keystroke_s	s	n/a
375.839	0.135	751678	keystroke_i	i	n/a
376.079	0.075	752158	keystroke_c	c	n/a
376.2895	0.1195	752579	keystroke_s	s	n/a
376.559	0.135	753118	keystroke_Key.enter	Key.enter	n/a
376.7	10.796	753400	prompt	n/a	identified compete vsnet activation\n
377.444	0.15	754888	keystroke_i	i	n/a
377.609	0.075	755218	keystroke_d	d	n/a
377.774	0.105	755548	keystroke_e	e	n/a
377.894	0.105	755788	keystroke_n	n	n/a
378.044	0.09	756088	keystroke_t	t	n/a
378.164	0.105	756328	keystroke_i	i	n/a
378.299	0.09	756598	keystroke_f	f	n/a
378.405	0.105	756810	keystroke_i	i	n/a
378.599	0.045	757198	keystroke_e	e	n/a
378.78	0.0445	757560	keystroke_d	d	n/a
379.1695	0.105	758339	keystroke_Key.space	Key.space	n/a
379.485	0.09	758970	keystroke_c	c	n/a
379.589	0.1205	759178	keystroke_o	o	n/a
380.3395	0.195	760679	keystroke_m	m	n/a
380.4895	0.165	760979	keystroke_p	p	n/a
380.6245	0.12	761249	keystroke_e	e	n/a
380.8945	0.1045	761789	keystroke_t	t	n/a
381.119	0.091	762238	keystroke_e	e	n/a
381.269	0.105	762538	keystroke_Key.space	Key.space	n/a
382.4095	0.12	764819	keystroke_v	v	n/a
382.5595	0.12	765119	keystroke_s	s	n/a
382.6945	0.12	765389	keystroke_n	n	n/a
382.8145	0.105	765629	keystroke_e	e	n/a
383.0845	0.12	766169	keystroke_t	t	n/a
383.2495	0.1495	766499	keystroke_Key.space	Key.space	n/a
384.7345	0.09	769469	keystroke_a	a	n/a
384.9745	0.06	769949	keystroke_c	c	n/a
385.1845	0.075	770369	keystroke_t	t	n/a
385.3495	0.105	770699	keystroke_i	i	n/a
385.4395	0.075	770879	keystroke_v	v	n/a
385.6345	0.075	771269	keystroke_i	i	n/a
386.0545	0.09	772109	keystroke_Key.backspace	Key.backspace	n/a
386.1295	0.105	772259	keystroke_a	a	n/a
386.3995	0.0895	772799	keystroke_t	t	n/a
386.504	0.166	773008	keystroke_i	i	n/a
386.67	0.239	773340	keystroke_o	o	n/a
386.849	0.165	773698	keystroke_n	n	n/a
387.4195	0.075	774839	keystroke_Key.enter	Key.enter	n/a
387.502	7.3285	775004	prompt	n/a	assumption butterfly mainly cable\n
388.199	0.09	776398	keystroke_a	a	n/a
388.425	0.074	776850	keystroke_s	s	n/a
388.589	0.106	777178	keystroke_s	s	n/a
388.634	0.105	777268	keystroke_u	u	n/a
388.904	0.21	777808	keystroke_m	m	n/a
389.039	0.181	778078	keystroke_p	p	n/a
389.264	0.105	778528	keystroke_t	t	n/a
389.399	0.21	778798	keystroke_i	i	n/a
389.579	0.225	779158	keystroke_o	o	n/a
389.775	0.179	779550	keystroke_n	n	n/a
389.924	0.12	779848	keystroke_Key.space	Key.space	n/a
390.344	0.18	780688	keystroke_b	b	n/a
390.509	0.1505	781018	keystroke_u	u	n/a
390.7495	0.075	781499	keystroke_t	t	n/a
390.8845	0.105	781769	keystroke_t	t	n/a
391.1245	0.075	782249	keystroke_e	e	n/a
391.2595	0.06	782519	keystroke_r	r	n/a
391.4395	0.09	782879	keystroke_f	f	n/a
391.5595	0.09	783119	keystroke_l	l	n/a
391.8145	0.165	783629	keystroke_y	y	n/a
391.9495	0.12	783899	keystroke_Key.space	Key.space	n/a
392.1745	0.15	784349	keystroke_m	m	n/a
392.2795	0.18	784559	keystroke_a	a	n/a
392.4445	0.225	784889	keystroke_i	i	n/a
392.5945	0.195	785189	keystroke_n	n	n/a
392.7445	0.165	785489	keystroke_l	l	n/a
392.9245	0.09	785849	keystroke_y	y	n/a
393.0595	0.15	786119	keystroke_Key.space	Key.space	n/a
393.6295	0.105	787259	keystroke_c	c	n/a
393.7945	0.1645	787589	keystroke_a	a	n/a
393.989	0.195	787978	keystroke_b	b	n/a
394.139	0.165	788278	keystroke_l	l	n/a
394.259	0.105	788518	keystroke_e	e	n/a
394.754	0.075	789508	keystroke_Key.enter	Key.enter	n/a
394.8355	10.1055	789671	prompt	n/a	prerequisite owen effectively kiss\n
395.6095	0.165	791219	keystroke_p	p	n/a
395.7145	0.105	791429	keystroke_r	r	n/a
395.924	0.12	791848	keystroke_e	e	n/a
396.54	0.09	793080	keystroke_r	r	n/a
397.02	0.075	794040	keystroke_e	e	n/a
398.2345	0.12	796469	keystroke_q	q	n/a
398.3695	0.195	796739	keystroke_u	u	n/a
398.5045	0.165	797009	keystroke_i	i	n/a
398.6545	0.135	797309	keystroke_s	s	n/a
398.8045	0.15	797609	keystroke_i	i	n/a
398.985	0.089	797970	keystroke_t	t	n/a
399.224	0.1055	798448	keystroke_e	e	n/a
399.3145	0.12	798629	keystroke_Key.space	Key.space	n/a
399.6895	0.15	799379	keystroke_o	o	n/a
399.9745	0.105	799949	keystroke_w	w	n/a
400.1395	0.1655	800279	keystroke_e	e	n/a
400.32	0.1645	800640	keystroke_n	n	n/a
400.4695	0.12	800939	keystroke_Key.space	Key.space	n/a
401.04	0.075	802080	keystroke_e	e	n/a
401.25	0.0595	802500	keystroke_f	f	n/a
401.3995	0.075	802799	keystroke_f	f	n/a
401.5495	0.105	803099	keystroke_e	e	n/a
401.7745	0.0905	803549	keystroke_c	c	n/a
402.0895	0.075	804179	keystroke_t	t	n/a
402.779	0.1355	805558	keystroke_i	i	n/a
402.9745	0.105	805949	keystroke_v	v	n/a
403.1695	0.135	806339	keystroke_e	e	n/a
403.3195	0.105	806639	keystroke_l	l	n/a
403.5895	0.135	807179	keystroke_y	y	n/a
403.6945	0.1195	807389	keystroke_Key.space	Key.space	n/a
403.949	0.105	807898	keystroke_k	k	n/a
404.144	0.135	808288	keystroke_i	i	n/a
404.294	0.075	808588	keystroke_s	s	n/a
404.444	0.135	808888	keystroke_s	s	n/a
404.849	0.09	809698	keystroke_Key.enter	Key.enter	n/a
404.944	8.487	809888	prompt	n/a	proceeds physician lazy hawaiian\n
405.6445	0.135	811289	keystroke_p	p	n/a
405.9	0.09	811800	keystroke_r	r	n/a
406.05	0.105	812100	keystroke_o	o	n/a
406.2295	0.075	812459	keystroke_c	c	n/a
406.514	0.06	813028	keystroke_e	e	n/a
406.694	0.075	813388	keystroke_e	e	n/a
406.9795	0.09	813959	keystroke_d	d	n/a
407.1595	0.1495	814319	keystroke_s	s	n/a
407.384	0.12	814768	keystroke_Key.space	Key.space	n/a
407.789	0.105	815578	keystroke_p	p	n/a
408.149	0.1655	816298	keystroke_h	h	n/a
408.329	0.12	816658	keystroke_y	y	n/a
408.45	0.164	816900	keystroke_s	s	n/a
408.629	0.1205	817258	keystroke_i	i	n/a
408.8245	0.1055	817649	keystroke_c	c	n/a
408.915	0.12	817830	keystroke_i	i	n/a
409.125	0.15	818250	keystroke_a	a	n/a
409.3045	0.165	818609	keystroke_n	n	n/a
409.4545	0.135	818909	keystroke_Key.space	Key.space	n/a
409.8145	0.12	819629	keystroke_l	l	n/a
409.9195	0.12	819839	keystroke_a	a	n/a
410.2195	0.135	820439	keystroke_z	z	n/a
410.3395	0.1645	820679	keystroke_y	y	n/a
410.489	0.12	820978	keystroke_Key.space	Key.space	n/a
411.194	0.151	822388	keystroke_h	h	n/a
411.3145	0.15	822629	keystroke_a	a	n/a
411.615	0.105	823230	keystroke_w	w	n/a
411.81	0.15	823620	keystroke_a	a	n/a
412.02	0.105	824040	keystroke_i	i	n/a
412.23	0.1195	824460	keystroke_i	i	n/a
412.5445	0.12	825089	keystroke_a	a	n/a
412.6795	0.12	825359	keystroke_n	n	n/a
413.325	0.105	826650	keystroke_Key.enter	Key.enter	n/a
413.435	6.7615	826870	prompt	n/a	servers quote file wearing\n
414.1345	0.105	828269	keystroke_s	s	n/a
414.3445	0.075	828689	keystroke_e	e	n/a
414.5095	0.09	829019	keystroke_r	r	n/a
414.6145	0.075	829229	keystroke_v	v	n/a
414.7195	0.09	829439	keystroke_e	e	n/a
414.8695	0.09	829739	keystroke_r	r	n/a
415.0945	0.12	830189	keystroke_s	s	n/a
415.1995	0.12	830399	keystroke_Key.space	Key.space	n/a
415.7245	0.18	831449	keystroke_q	q	n/a
415.8295	0.18	831659	keystroke_u	u	n/a
415.9795	0.18	831959	keystroke_o	o	n/a
416.1295	0.105	832259	keystroke_t	t	n/a
416.3395	0.1495	832679	keystroke_e	e	n/a
416.444	0.12	832888	keystroke_Key.space	Key.space	n/a
417.134	0.09	834268	keystroke_f	f	n/a
417.269	0.195	834538	keystroke_i	i	n/a
417.419	0.2555	834838	keystroke_l	l	n/a
417.5395	0.12	835079	keystroke_e	e	n/a
417.6895	0.135	835379	keystroke_Key.space	Key.space	n/a
417.8845	0.135	835769	keystroke_w	w	n/a
418.0495	0.09	836099	keystroke_e	e	n/a
418.2745	0.12	836549	keystroke_a	a	n/a
418.7845	0.06	837569	keystroke_e	e	n/a
419.2345	0.105	838469	keystroke_Key.backspace	Key.backspace	n/a
419.3245	0.105	838649	keystroke_r	r	n/a
419.5345	0.18	839069	keystroke_i	i	n/a
419.6545	0.135	839309	keystroke_n	n	n/a
419.7745	0.135	839549	keystroke_g	g	n/a
420.0745	0.12	840149	keystroke_Key.enter	Key.enter	n/a
420.199	9.5975	840398	prompt	n/a	disco oman authentication printed\n
421.3045	0.075	842609	keystroke_d	d	n/a
421.3945	0.105	842789	keystroke_i	i	n/a
421.5145	0.06	843029	keystroke_c	c	n/a
421.8145	0.09	843629	keystroke_Key.backspace	Key.backspace	n/a
421.9195	0.09	843839	keystroke_s	s	n/a
422.1145	0.105	844229	keystroke_c	c	n/a
422.2345	0.195	844469	keystroke_o	o	n/a
422.3845	0.135	844769	keystroke_Key.space	Key.space	n/a
422.5945	0.195	845189	keystroke_o	o	n/a
422.7445	0.165	845489	keystroke_m	m	n/a
422.9245	0.18	845849	keystroke_a	a	n/a
423.0595	0.2255	846119	keystroke_n	n	n/a
423.2245	0.1355	846449	keystroke_Key.space	Key.space	n/a
423.495	0.135	846990	keystroke_a	a	n/a
423.675	0.12	847350	keystroke_u	u	n/a
424.005	0.015	848010	keystroke_t	t	n/a
424.035	0.075	848070	keystroke_h	h	n/a
424.125	0.105	848250	keystroke_e	e	n/a
424.275	0.12	848550	keystroke_n	n	n/a
424.41	0.09	848820	keystroke_t	t	n/a
424.59	0.105	849180	keystroke_i	i	n/a
424.755	0.09	849510	keystroke_a	a	n/a
425.07	0.105	850140	keystroke_Key.backspace	Key.backspace	n/a
425.19	0.075	850380	keystroke_c	c	n/a
425.3845	0.105	850769	keystroke_a	a	n/a
425.6395	0.105	851279	keystroke_t	t	n/a
425.7295	0.15	851459	keystroke_i	i	n/a
425.8645	0.225	851729	keystroke_o	o	n/a
426.0295	0.2395	852059	keystroke_n	n	n/a
426.194	0.15	852388	keystroke_Key.space	Key.space	n/a
426.3895	0.12	852779	keystroke_p	p	n/a
426.5395	0.135	853079	keystroke_r	r	n/a
426.6595	0.21	853319	keystroke_i	i	n/a
426.8105	0.164	853621	keystroke_n	n	n/a
427.5295	0.0755	855059	keystroke_e	e	n/a
428.04	0.105	856080	keystroke_Key.backspace	Key.backspace	n/a
428.85	0.09	857700	keystroke_t	t	n/a
429.06	0.075	858120	keystroke_e	e	n/a
429.285	0.105	858570	keystroke_d	d	n/a
429.69	0.105	859380	keystroke_Key.enter	Key.enter	n/a
429.799	11.248	859598	prompt	n/a	contributing promises afghanistan dakota\n
430.5595	0.09	861119	keystroke_c	c	n/a
430.6345	0.225	861269	keystroke_o	o	n/a
430.8145	0.2255	861629	keystroke_n	n	n/a
431.22	0.105	862440	keystroke_t	t	n/a
431.445	0.105	862890	keystroke_r	r	n/a
431.7605	0.195	863521	keystroke_i	i	n/a
431.9255	0.2695	863851	keystroke_b	b	n/a
432.1505	0.18	864301	keystroke_u	u	n/a
432.4955	0.105	864991	keystroke_t	t	n/a
432.6155	0.195	865231	keystroke_i	i	n/a
432.7505	0.135	865501	keystroke_n	n	n/a
432.8545	0.151	865709	keystroke_g	g	n/a
432.9895	0.135	865979	keystroke_Key.space	Key.space	n/a
433.365	0.12	866730	keystroke_p	p	n/a
433.5	0.105	867000	keystroke_r	r	n/a
433.62	0.1195	867240	keystroke_o	o	n/a
433.7845	0.18	867569	keystroke_m	m	n/a
433.9045	0.165	867809	keystroke_i	i	n/a
434.0845	0.06	868169	keystroke_s	s	n/a
434.325	0.075	868650	keystroke_e	e	n/a
434.52	0.15	869040	keystroke_s	s	n/a
434.655	0.12	869310	keystroke_Key.space	Key.space	n/a
435.075	0.105	870150	keystroke_a	a	n/a
435.6595	0.075	871319	keystroke_f	f	n/a
435.7795	0.105	871559	keystroke_g	g	n/a
435.9745	0.1205	871949	keystroke_h	h	n/a
436.08	0.105	872160	keystroke_a	a	n/a
436.2445	0.195	872489	keystroke_n	n	n/a
436.3795	0.15	872759	keystroke_i	i	n/a
436.4995	0.135	872999	keystroke_s	s	n/a
436.7695	0.09	873539	keystroke_t	t	n/a
437.0395	0.135	874079	keystroke_a	a	n/a
437.2045	0.1805	874409	keystroke_n	n	n/a
437.355	0.12	874710	keystroke_Key.space	Key.space	n/a
439.0355	0.09	878071	keystroke_d	d	n/a
439.2305	0.1045	878461	keystroke_a	a	n/a
439.905	0.1805	879810	keystroke_k	k	n/a
440.01	0.1805	880020	keystroke_o	o	n/a
440.1605	0.09	880321	keystroke_t	t	n/a
440.4905	0.12	880981	keystroke_a	a	n/a
440.9245	0.1205	881849	keystroke_Key.enter	Key.enter	n/a
441.0515	6.64	882103	prompt	n/a	earlier alex chick chocolate\n
441.8105	0.09	883621	keystroke_e	e	n/a
442.0045	0.09	884009	keystroke_a	a	n/a
442.2295	0.075	884459	keystroke_r	r	n/a
442.3195	0.18	884639	keystroke_l	l	n/a
442.4695	0.165	884939	keystroke_i	i	n/a
442.6045	0.09	885209	keystroke_e	e	n/a
442.7845	0.105	885569	keystroke_r	r	n/a
442.9195	0.105	885839	keystroke_Key.space	Key.space	n/a
443.1445	0.09	886289	keystroke_a	a	n/a
443.3095	0.091	886619	keystroke_l	l	n/a
443.4145	0.09	886829	keystroke_e	e	n/a
444.2545	0.105	888509	keystroke_x	x	n/a
444.3895	0.135	888779	keystroke_Key.space	Key.space	n/a
444.6595	0.105	889319	keystroke_c	c	n/a
444.7495	0.165	889499	keystroke_h	h	n/a
444.8695	0.135	889739	keystroke_i	i	n/a
445.0195	0.3005	890039	keystroke_c	c	n/a
445.155	0.21	890310	keystroke_k	k	n/a
445.305	0.135	890610	keystroke_Key.space	Key.space	n/a
446.025	0.12	892050	keystroke_c	c	n/a
446.19	0.165	892380	keystroke_h	h	n/a
446.31	0.165	892620	keystroke_o	o	n/a
446.49	0.105	892980	keystroke_c	c	n/a
446.58	0.075	893160	keystroke_o	o	n/a
446.73	0.15	893460	keystroke_l	l	n/a
446.85	0.105	893700	keystroke_a	a	n/a
447.12	0.09	894240	keystroke_t	t	n/a
447.345	0.09	894690	keystroke_e	e	n/a
447.57	0.12	895140	keystroke_Key.enter	Key.enter	n/a
447.6945	10.077	895389	prompt	n/a	graphs thailand please louisiana\n
448.59	0.105	897180	keystroke_g	g	n/a
448.68	0.075	897360	keystroke_r	r	n/a
448.89	0.15	897780	keystroke_a	a	n/a
449.01	0.21	898020	keystroke_p	p	n/a
449.175	0.165	898350	keystroke_h	h	n/a
449.295	0.135	898590	keystroke_s	s	n/a
449.43	0.12	898860	keystroke_Key.space	Key.space	n/a
449.76	0.075	899520	keystroke_t	t	n/a
449.85	0.1345	899700	keystroke_h	h	n/a
450.0145	0.15	900029	keystroke_a	a	n/a
450.1795	0.225	900359	keystroke_i	i	n/a
450.3595	0.1505	900719	keystroke_l	l	n/a
450.4945	0.1505	900989	keystroke_a	a	n/a
450.69	0.18	901380	keystroke_n	n	n/a
450.87	0.075	901740	keystroke_d	d	n/a
451.215	0.1345	902430	keystroke_Key.space	Key.space	n/a
451.8145	0.226	903629	keystroke_p	p	n/a
451.9495	0.24	903899	keystroke_l	l	n/a
452.1295	0.075	904259	keystroke_e	e	n/a
452.3095	0.12	904619	keystroke_a	a	n/a
452.5045	0.09	905009	keystroke_s	s	n/a
452.6995	0.105	905399	keystroke_e	e	n/a
452.8495	0.105	905699	keystroke_Key.space	Key.space	n/a
453.1345	0.09	906269	keystroke_l	l	n/a
453.3595	0.18	906719	keystroke_o	o	n/a
453.5245	0.135	907049	keystroke_u	u	n/a
453.8095	0.12	907619	keystroke_i	i	n/a
454.0345	0.121	908069	keystroke_s	s	n/a
454.7545	0.0755	909509	keystroke_i	i	n/a
455.3245	0.105	910649	keystroke_a	a	n/a
455.505	0.135	911010	keystroke_n	n	n/a
455.655	0.105	911310	keystroke_a	a	n/a
455.775	0.12	911550	keystroke_Key.space	Key.space	n/a
456.3145	0.12	912629	keystroke_Key.backspace	Key.backspace	n/a
457.695	0.075	915390	keystroke_Key.enter	Key.enter	n/a
457.7745	9.2525	915549	prompt	n/a	cartridge referral military twist\n
458.6405	0.1045	917281	keystroke_c	c	n/a
458.85	0.075	917700	keystroke_r	r	n/a
459.18	0.09	918360	keystroke_Key.backspace	Key.backspace	n/a
459.24	0.1055	918480	keystroke_a	a	n/a
459.4955	0.06	918991	keystroke_r	r	n/a
459.6455	0.075	919291	keystroke_t	t	n/a
459.8555	0.075	919711	keystroke_r	r	n/a
459.9755	0.105	919951	keystroke_i	i	n/a
460.1855	0.0745	920371	keystroke_d	d	n/a
460.32	0.105	920640	keystroke_g	g	n/a
460.455	0.12	920910	keystroke_e	e	n/a
460.59	0.105	921180	keystroke_Key.space	Key.space	n/a
461.04	0.105	922080	keystroke_r	r	n/a
461.25	0.075	922500	keystroke_e	e	n/a
461.85	0.135	923700	keystroke_f	f	n/a
462	0.06	924000	keystroke_e	e	n/a
462.165	0.0605	924330	keystroke_r	r	n/a
462.27	0.105	924540	keystroke_r	r	n/a
462.555	0.15	925110	keystroke_a	a	n/a
462.69	0.1805	925380	keystroke_l	l	n/a
462.8105	0.135	925621	keystroke_Key.space	Key.space	n/a
463.0655	0.21	926131	keystroke_m	m	n/a
463.2005	0.1945	926401	keystroke_i	i	n/a
463.38	0.24	926760	keystroke_l	l	n/a
463.575	0.165	927150	keystroke_i	i	n/a
464.3555	0.06	928711	keystroke_t	t	n/a
464.5805	0.12	929161	keystroke_a	a	n/a
464.8055	0.105	929611	keystroke_r	r	n/a
464.9555	0.165	929911	keystroke_y	y	n/a
465.1055	0.104	930211	keystroke_Key.space	Key.space	n/a
465.7055	0.09	931411	keystroke_t	t	n/a
465.9455	0.105	931891	keystroke_w	w	n/a
466.0355	0.105	932071	keystroke_i	i	n/a
466.335	0.105	932670	keystroke_s	s	n/a
466.605	0.12	933210	keystroke_t	t	n/a
466.905	0.12	933810	keystroke_Key.enter	Key.enter	n/a
467.0305	8.606	934061	prompt	n/a	benz firewire session propose\n
467.8195	0.135	935639	keystroke_b	b	n/a
467.9845	0.105	935969	keystroke_e	e	n/a
468.1495	0.136	936299	keystroke_n	n	n/a
468.4655	0.135	936931	keystroke_z	z	n/a
468.6455	0.105	937291	keystroke_Key.space	Key.space	n/a
469.7405	0.105	939481	keystroke_f	f	n/a
469.8305	0.1495	939661	keystroke_i	i	n/a
469.965	0.075	939930	keystroke_r	r	n/a
470.175	0.105	940350	keystroke_e	e	n/a
470.7895	0.105	941579	keystroke_w	w	n/a
470.9095	0.1055	941819	keystroke_i	i	n/a
471.6295	0.105	943259	keystroke_r	r	n/a
471.8095	0.12	943619	keystroke_e	e	n/a
472.0795	0.12	944159	keystroke_Key.space	Key.space	n/a
472.3045	0.105	944609	keystroke_s	s	n/a
472.4995	0.075	944999	keystroke_e	e	n/a
472.6795	0.075	945359	keystroke_s	s	n/a
473.0845	0.105	946169	keystroke_s	s	n/a
473.2345	0.165	946469	keystroke_i	i	n/a
473.3845	0.195	946769	keystroke_o	o	n/a
473.5345	0.196	947069	keystroke_n	n	n/a
473.6845	0.136	947369	keystroke_Key.space	Key.space	n/a
473.8805	0.135	947761	keystroke_p	p	n/a
474.0305	0.105	948061	keystroke_r	r	n/a
474.1505	0.1795	948301	keystroke_o	o	n/a
474.3	0.165	948600	keystroke_p	p	n/a
474.435	0.21	948870	keystroke_o	o	n/a
474.705	0.09	949410	keystroke_s	s	n/a
474.9	0.105	949800	keystroke_e	e	n/a
475.5295	0.1045	951059	keystroke_Key.enter	Key.enter	n/a
475.641	8.08	951282	prompt	n/a	mastercard john taking cookbook\n
476.2645	0.1355	952529	keystroke_m	m	n/a
476.625	0.09	953250	keystroke_a	a	n/a
476.82	0.075	953640	keystroke_s	s	n/a
477.105	0.06	954210	keystroke_t	t	n/a
477.3	0.075	954600	keystroke_e	e	n/a
477.45	0.06	954900	keystroke_r	r	n/a
477.675	0.075	955350	keystroke_c	c	n/a
477.855	0.105	955710	keystroke_a	a	n/a
478.065	0.09	956130	keystroke_r	r	n/a
478.275	0.09	956550	keystroke_d	d	n/a
478.38	0.09	956760	keystroke_Key.space	Key.space	n/a
478.95	0.12	957900	keystroke_j	j	n/a
479.025	0.225	958050	keystroke_o	o	n/a
479.22	0.0905	958440	keystroke_h	h	n/a
479.4295	0.135	958859	keystroke_n	n	n/a
479.5495	0.12	959099	keystroke_Key.space	Key.space	n/a
480.0595	0.09	960119	keystroke_t	t	n/a
480.3145	0.105	960629	keystroke_a	a	n/a
480.4495	0.1045	960899	keystroke_k	k	n/a
480.675	0.195	961350	keystroke_i	i	n/a
480.78	0.18	961560	keystroke_n	n	n/a
480.9	0.104	961800	keystroke_g	g	n/a
481.035	0.134	962070	keystroke_Key.space	Key.space	n/a
481.4245	0.105	962849	keystroke_c	c	n/a
481.5295	0.075	963059	keystroke_o	o	n/a
481.6945	0.165	963389	keystroke_o	o	n/a
481.8595	0.075	963719	keystroke_k	k	n/a
482.4745	0.105	964949	keystroke_b	b	n/a
482.6545	0.105	965309	keystroke_o	o	n/a
482.8495	0.12	965699	keystroke_o	o	n/a
482.9995	0.135	965999	keystroke_k	k	n/a
483.599	0.12	967198	keystroke_Key.enter	Key.enter	n/a
483.7235	9.567	967447	prompt	n/a	careers religious insects linear\n
484.59	0.075	969180	keystroke_c	c	n/a
484.8	0.105	969600	keystroke_a	a	n/a
485.025	0.075	970050	keystroke_r	r	n/a
485.22	0.06	970440	keystroke_e	e	n/a
485.3395	0.0895	970679	keystroke_e	e	n/a
485.519	0.0905	971038	keystroke_r	r	n/a
485.759	0.105	971518	keystroke_s	s	n/a
485.879	0.075	971758	keystroke_Key.space	Key.space	n/a
486.209	0.06	972418	keystroke_r	r	n/a
486.3895	0.105	972779	keystroke_e	e	n/a
486.5095	0.12	973019	keystroke_l	l	n/a
486.7045	0.135	973409	keystroke_i	i	n/a
486.9745	0.105	973949	keystroke_g	g	n/a
487.0945	0.105	974189	keystroke_i	i	n/a
487.1845	0.194	974369	keystroke_o	o	n/a
487.3045	0.179	974609	keystroke_u	u	n/a
487.4245	0.165	974849	keystroke_s	s	n/a
487.5595	0.1355	975119	keystroke_Key.space	Key.space	n/a
487.845	0.195	975690	keystroke_i	i	n/a
487.964	0.196	975928	keystroke_n	n	n/a
488.13	0.104	976260	keystroke_s	s	n/a
488.309	0.12	976618	keystroke_e	e	n/a
488.609	0.09	977218	keystroke_c	c	n/a
488.819	0.03	977638	keystroke_r	r	n/a
488.834	0.06	977668	keystroke_t	t	n/a
489.104	0.12	978208	keystroke_s	s	n/a
489.209	0.105	978418	keystroke_Key.space	Key.space	n/a
489.4195	0.2245	978839	keystroke_l	l	n/a
489.5695	0.24	979139	keystroke_i	i	n/a
490.0345	0.075	980069	keystroke_Key.backspace	Key.backspace	n/a
490.199	0.06	980398	keystroke_Key.backspace	Key.backspace	n/a
490.349	0.075	980698	keystroke_Key.backspace	Key.backspace	n/a
490.514	0.0445	981028	keystroke_Key.backspace	Key.backspace	n/a
490.6635	0.075	981327	keystroke_Key.backspace	Key.backspace	n/a
490.844	0.09	981688	keystroke_Key.backspace	Key.backspace	n/a
491.4745	0.09	982949	keystroke_t	t	n/a
491.6995	0.135	983399	keystroke_s	s	n/a
491.8345	0.21	983669	keystroke_Key.space	Key.space	n/a
491.9695	0.18	983939	keystroke_l	l	n/a
492.0895	0.1955	984179	keystroke_i	i	n/a
492.224	0.18	984448	keystroke_n	n	n/a
492.374	0.09	984748	keystroke_e	e	n/a
492.629	0.105	985258	keystroke_a	a	n/a
492.8845	0.105	985769	keystroke_r	r	n/a
493.1695	0.12	986339	keystroke_Key.enter	Key.enter	n/a
493.294	9.9715	986588	prompt	n/a	quit horrible mountains decreased\n
494.2195	0.105	988439	keystroke_q	q	n/a
494.3395	0.15	988679	keystroke_u	u	n/a
494.4445	0.18	988889	keystroke_i	i	n/a
494.6095	0.12	989219	keystroke_t	t	n/a
494.7445	0.135	989489	keystroke_Key.space	Key.space	n/a
494.9545	0.15	989909	keystroke_h	h	n/a
495.0595	0.165	990119	keystroke_i	i	n/a
495.1945	0.075	990389	keystroke_r	r	n/a
495.344	0.135	990688	keystroke_r	r	n/a
495.494	0.06	990988	keystroke_i	i	n/a
495.854	0.075	991708	keystroke_Key.backspace	Key.backspace	n/a
496.004	0.075	992008	keystroke_Key.backspace	Key.backspace	n/a
496.184	0.045	992368	keystroke_Key.backspace	Key.backspace	n/a
496.334	0.0895	992668	keystroke_Key.backspace	Key.backspace	n/a
496.979	0.15	993958	keystroke_o	o	n/a
497.144	0.045	994288	keystroke_r	r	n/a
497.264	0.12	994528	keystroke_r	r	n/a
497.399	0.24	994798	keystroke_i	i	n/a
497.594	0.225	995188	keystroke_b	b	n/a
497.744	0.18	995488	keystroke_l	l	n/a
497.879	0.15	995758	keystroke_e	e	n/a
498.059	0.12	996118	keystroke_Key.space	Key.space	n/a
498.3445	0.195	996689	keystroke_m	m	n/a
498.4495	0.24	996899	keystroke_o	o	n/a
498.5995	0.24	997199	keystroke_u	u	n/a
498.7345	0.225	997469	keystroke_n	n	n/a
498.8695	0.12	997739	keystroke_t	t	n/a
499.1695	0.1195	998339	keystroke_a	a	n/a
499.319	0.225	998638	keystroke_i	i	n/a
499.469	0.1505	998938	keystroke_n	n	n/a
499.6485	0.121	999297	keystroke_s	s	n/a
499.7835	0.12	999567	keystroke_Key.space	Key.space	n/a
500.4895	0.074	1000979	keystroke_d	d	n/a
500.6685	0.075	1001337	keystroke_e	e	n/a
500.8785	0.075	1001757	keystroke_c	c	n/a
501.0735	0.075	1002147	keystroke_r	r	n/a
501.2385	0.1055	1002477	keystroke_e	e	n/a
501.464	0.09	1002928	keystroke_a	a	n/a
501.7185	0.045	1003437	keystroke_d	d	n/a
502.349	0.105	1004698	keystroke_Key.backspace	Key.backspace	n/a
502.469	0.105	1004938	keystroke_s	s	n/a
502.664	0.06	1005328	keystroke_e	e	n/a
502.814	0.12	1005628	keystroke_d	d	n/a
503.159	0.105	1006318	keystroke_Key.enter	Key.enter	n/a
503.2695	13.4665	1006539	prompt	n/a	minolta occasionally stainless week\n
504.074	0.15	1008148	keystroke_m	m	n/a
504.179	0.1205	1008358	keystroke_i	i	n/a
504.8245	0.1345	1009649	keystroke_n	n	n/a
504.989	0.12	1009978	keystroke_o	o	n/a
505.184	0.12	1010368	keystroke_l	l	n/a
505.499	0.09	1010998	keystroke_r	r	n/a
505.8145	0.0745	1011629	keystroke_a	a	n/a
506.099	0.045	1012198	keystroke_Key.backspace	Key.backspace	n/a
506.204	0.105	1012408	keystroke_Key.backspace	Key.backspace	n/a
506.294	0.1055	1012588	keystroke_t	t	n/a
506.5795	0.105	1013159	keystroke_a	a	n/a
506.6845	0.104	1013369	keystroke_Key.space	Key.space	n/a
508.0935	0.105	1016187	keystroke_o	o	n/a
508.3195	0.074	1016639	keystroke_c	c	n/a
508.4545	0.104	1016909	keystroke_c	c	n/a
508.6645	0.089	1017329	keystroke_a	a	n/a
508.8745	0.12	1017749	keystroke_s	s	n/a
509.1585	0.105	1018317	keystroke_s	s	n/a
509.489	0.18	1018978	keystroke_i	i	n/a
509.624	0.165	1019248	keystroke_o	o	n/a
510.074	0.045	1020148	keystroke_Key.backspace	Key.backspace	n/a
510.209	0.09	1020418	keystroke_Key.backspace	Key.backspace	n/a
510.8545	0.075	1021709	keystroke_Key.backspace	Key.backspace	n/a
510.8695	0.03	1021739	keystroke_=	=	n/a
511.3345	0.09	1022669	keystroke_Key.backspace	Key.backspace	n/a
511.4845	0.105	1022969	keystroke_Key.backspace	Key.backspace	n/a
511.994	0.09	1023988	keystroke_s	s	n/a
512.174	0.15	1024348	keystroke_i	i	n/a
512.279	0.195	1024558	keystroke_o	o	n/a
512.414	0.15	1024828	keystroke_n	n	n/a
512.489	0.135	1024978	keystroke_a	a	n/a
512.684	0.09	1025368	keystroke_l	l	n/a
512.834	0.12	1025668	keystroke_l	l	n/a
512.939	0.135	1025878	keystroke_y	y	n/a
513.089	0.12	1026178	keystroke_Key.space	Key.space	n/a
513.884	0.1055	1027768	keystroke_s	s	n/a
514.1245	0.09	1028249	keystroke_t	t	n/a
514.3945	0.135	1028789	keystroke_a	a	n/a
514.5145	0.1805	1029029	keystroke_i	i	n/a
514.665	0.21	1029330	keystroke_n	n	n/a
514.829	0.181	1029658	keystroke_l	l	n/a
514.965	0.12	1029930	keystroke_e	e	n/a
515.22	0.09	1030440	keystroke_s	s	n/a
515.385	0.134	1030770	keystroke_s	s	n/a
515.534	0.1205	1031068	keystroke_Key.space	Key.space	n/a
515.8645	0.075	1031729	keystroke_w	w	n/a
516.0445	0.06	1032089	keystroke_e	e	n/a
516.1945	0.12	1032389	keystroke_e	e	n/a
516.3445	0.135	1032689	keystroke_k	k	n/a
516.6445	0.09	1033289	keystroke_Key.enter	Key.enter	n/a
516.7395	9.6265	1033479	prompt	n/a	switched revised subaru beatles\n
517.5745	0.075	1035149	keystroke_s	s	n/a
517.7545	0.105	1035509	keystroke_w	w	n/a
517.8895	0.135	1035779	keystroke_i	i	n/a
518.0845	0.105	1036169	keystroke_t	t	n/a
518.3245	0.105	1036649	keystroke_c	c	n/a
518.4445	0.06	1036889	keystroke_h	h	n/a
518.5495	0.09	1037099	keystroke_e	e	n/a
518.924	0.09	1037848	keystroke_d	d	n/a
519.1345	0.12	1038269	keystroke_Key.space	Key.space	n/a
519.944	0.045	1039888	keystroke_r	r	n/a
520.0795	0.09	1040159	keystroke_e	e	n/a
520.3945	0.09	1040789	keystroke_v	v	n/a
520.4995	0.12	1040999	keystroke_i	i	n/a
520.7245	0.075	1041449	keystroke_e	e	n/a
521.4	0.12	1042800	keystroke_Key.backspace	Key.backspace	n/a
521.505	0.12	1043010	keystroke_s	s	n/a
521.6545	0.09	1043309	keystroke_e	e	n/a
521.8495	0.105	1043699	keystroke_d	d	n/a
521.9395	0.12	1043879	keystroke_Key.space	Key.space	n/a
522.284	0.105	1044568	keystroke_s	s	n/a
522.359	0.18	1044718	keystroke_u	u	n/a
522.509	0.165	1045018	keystroke_b	b	n/a
522.689	0.12	1045378	keystroke_a	a	n/a
523.079	0.105	1046158	keystroke_r	r	n/a
523.259	0.135	1046518	keystroke_u	u	n/a
523.499	0.135	1046998	keystroke_Key.space	Key.space	n/a
524.159	0.135	1048318	keystroke_b	b	n/a
524.249	0.121	1048498	keystroke_e	e	n/a
524.535	0.075	1049070	keystroke_a	a	n/a
524.775	0.09	1049550	keystroke_t	t	n/a
524.895	0.1195	1049790	keystroke_l	l	n/a
525.4185	0.1055	1050837	keystroke_e	e	n/a
525.719	0.1355	1051438	keystroke_s	s	n/a
526.244	0.12	1052488	keystroke_Key.enter	Key.enter	n/a
526.3695	9.192	1052739	prompt	n/a	petersburg converted theories shots\n
527.0695	0.165	1054139	keystroke_p	p	n/a
527.2045	0.105	1054409	keystroke_e	e	n/a
527.4145	0.09	1054829	keystroke_t	t	n/a
527.6395	0.075	1055279	keystroke_e	e	n/a
527.7745	0.0745	1055549	keystroke_r	r	n/a
527.999	0.165	1055998	keystroke_s	s	n/a
528.149	0.21	1056298	keystroke_b	b	n/a
528.269	0.165	1056538	keystroke_u	u	n/a
528.449	0.165	1056898	keystroke_r	r	n/a
528.584	0.18	1057168	keystroke_g	g	n/a
528.689	0.135	1057378	keystroke_Key.space	Key.space	n/a
529.934	0.105	1059868	keystroke_c	c	n/a
529.964	0.18	1059928	keystroke_o	o	n/a
530.084	0.18	1060168	keystroke_n	n	n/a
530.294	0.09	1060588	keystroke_v	v	n/a
530.579	0.195	1061158	keystroke_e	e	n/a
530.894	0.075	1061788	keystroke_r	r	n/a
531.299	0.12	1062598	keystroke_t	t	n/a
531.5395	0.1045	1063079	keystroke_e	e	n/a
531.7495	0.135	1063499	keystroke_d	d	n/a
532.1095	0.12	1064219	keystroke_Key.space	Key.space	n/a
532.4995	0.09	1064999	keystroke_t	t	n/a
532.6495	0.135	1065299	keystroke_h	h	n/a
532.7845	0.135	1065569	keystroke_e	e	n/a
532.9195	0.12	1065839	keystroke_o	o	n/a
533.0845	0.09	1066169	keystroke_r	r	n/a
533.2795	0.105	1066559	keystroke_i	i	n/a
533.5495	0.1045	1067099	keystroke_e	e	n/a
533.894	0.12	1067788	keystroke_s	s	n/a
534.044	0.105	1068088	keystroke_Key.space	Key.space	n/a
534.554	0.135	1069108	keystroke_s	s	n/a
534.644	0.195	1069288	keystroke_h	h	n/a
534.809	0.105	1069618	keystroke_o	o	n/a
534.929	0.105	1069858	keystroke_t	t	n/a
535.214	0.135	1070428	keystroke_s	s	n/a
535.454	0.105	1070908	keystroke_Key.enter	Key.enter	n/a
535.564	7.857	1071128	prompt	n/a	confirmation country guys qualification\n
536.3545	0.1055	1072709	keystroke_c	c	n/a
536.43	0.195	1072860	keystroke_o	o	n/a
536.58	0.165	1073160	keystroke_n	n	n/a
536.775	0.105	1073550	keystroke_f	f	n/a
536.895	0.09	1073790	keystroke_i	i	n/a
537.015	0.09	1074030	keystroke_r	r	n/a
537.12	0.12	1074240	keystroke_m	m	n/a
537.285	0.12	1074570	keystroke_a	a	n/a
537.555	0.075	1075110	keystroke_t	t	n/a
537.615	0.18	1075230	keystroke_i	i	n/a
537.78	0.195	1075560	keystroke_o	o	n/a
537.915	0.21	1075830	keystroke_n	n	n/a
538.065	0.135	1076130	keystroke_Key.space	Key.space	n/a
538.395	0.15	1076790	keystroke_c	c	n/a
538.515	0.18	1077030	keystroke_o	o	n/a
538.635	0.18	1077270	keystroke_u	u	n/a
538.755	0.21	1077510	keystroke_n	n	n/a
538.875	0.09	1077750	keystroke_t	t	n/a
539.07	0.1645	1078140	keystroke_r	r	n/a
539.1745	0.18	1078349	keystroke_y	y	n/a
539.2945	0.165	1078589	keystroke_Key.space	Key.space	n/a
540.0595	0.105	1080119	keystroke_g	g	n/a
540.1645	0.12	1080329	keystroke_u	u	n/a
540.3595	0.1355	1080719	keystroke_y	y	n/a
540.48	0.1495	1080960	keystroke_s	s	n/a
540.6445	0.105	1081289	keystroke_Key.space	Key.space	n/a
541.1395	0.1355	1082279	keystroke_q	q	n/a
541.2445	0.12	1082489	keystroke_u	u	n/a
541.3945	0.12	1082789	keystroke_a	a	n/a
541.5295	0.165	1083059	keystroke_l	l	n/a
541.6495	0.15	1083299	keystroke_i	i	n/a
541.8145	0.12	1083629	keystroke_f	f	n/a
541.9195	0.135	1083839	keystroke_i	i	n/a
542.0695	0.09	1084139	keystroke_c	c	n/a
542.2495	0.105	1084499	keystroke_a	a	n/a
542.5945	0.105	1085189	keystroke_t	t	n/a
542.7595	0.165	1085519	keystroke_i	i	n/a
542.8945	0.165	1085789	keystroke_o	o	n/a
543.0145	0.165	1086029	keystroke_n	n	n/a
543.3445	0.075	1086689	keystroke_Key.enter	Key.enter	n/a
543.425	10.421	1086850	prompt	n/a	papua gross testament internationally\n
544.274	0.121	1088548	keystroke_p	p	n/a
544.365	0.15	1088730	keystroke_a	a	n/a
544.529	0.0605	1089058	keystroke_p	p	n/a
544.7545	0.09	1089509	keystroke_u	u	n/a
544.8595	0.12	1089719	keystroke_a	a	n/a
545.0095	0.105	1090019	keystroke_Key.space	Key.space	n/a
547.502	0.057	1095004	keystroke_g	g	n/a
547.62	0.105	1095240	keystroke_r	r	n/a
547.74	0.119	1095480	keystroke_o	o	n/a
547.889	0.1205	1095778	keystroke_s	s	n/a
548.0695	0.105	1096139	keystroke_s	s	n/a
548.1595	0.1495	1096319	keystroke_Key.space	Key.space	n/a
548.804	0.06	1097608	keystroke_t	t	n/a
548.999	0.075	1097998	keystroke_e	e	n/a
549.239	0.09	1098478	keystroke_s	s	n/a
549.464	0.105	1098928	keystroke_t	t	n/a
549.629	0.12	1099258	keystroke_a	a	n/a
549.794	0.1055	1099588	keystroke_m	m	n/a
549.989	0.106	1099978	keystroke_e	e	n/a
550.08	0.135	1100160	keystroke_n	n	n/a
550.245	0.15	1100490	keystroke_t	t	n/a
550.365	0.105	1100730	keystroke_Key.space	Key.space	n/a
551.025	0.18	1102050	keystroke_i	i	n/a
551.145	0.195	1102290	keystroke_n	n	n/a
551.295	0.09	1102590	keystroke_t	t	n/a
551.505	0.09	1103010	keystroke_e	e	n/a
551.685	0.075	1103370	keystroke_r	r	n/a
551.775	0.135	1103550	keystroke_n	n	n/a
551.94	0.105	1103880	keystroke_a	a	n/a
552.21	0.075	1104420	keystroke_t	t	n/a
552.27	0.165	1104540	keystroke_i	i	n/a
552.39	0.195	1104780	keystroke_o	o	n/a
552.51	0.18	1105020	keystroke_n	n	n/a
552.675	0.1195	1105350	keystroke_a	a	n/a
552.8245	0.075	1105649	keystroke_l	l	n/a
552.9595	0.135	1105919	keystroke_l	l	n/a
553.1245	0.105	1106249	keystroke_y	y	n/a
553.695	0.15	1107390	keystroke_Key.enter	Key.enter	n/a
553.849	5.697	1107698	prompt	n/a	grip patterns backup editing\n
554.7895	0.09	1109579	keystroke_g	g	n/a
554.9545	0.135	1109909	keystroke_r	r	n/a
555.0895	0.18	1110179	keystroke_i	i	n/a
555.2245	0.21	1110449	keystroke_p	p	n/a
555.3745	0.15	1110749	keystroke_Key.space	Key.space	n/a
555.749	0.1355	1111498	keystroke_p	p	n/a
555.8995	0.075	1111799	keystroke_a	a	n/a
556.1395	0.045	1112279	keystroke_t	t	n/a
556.244	0.105	1112488	keystroke_t	t	n/a
556.454	0.075	1112908	keystroke_e	e	n/a
556.619	0.076	1113238	keystroke_r	r	n/a
556.724	0.1505	1113448	keystroke_n	n	n/a
556.8445	0.135	1113689	keystroke_s	s	n/a
556.9945	0.09	1113989	keystroke_Key.space	Key.space	n/a
557.1445	0.135	1114289	keystroke_b	b	n/a
557.2345	0.09	1114469	keystroke_a	a	n/a
557.4745	0.105	1114949	keystroke_c	c	n/a
557.5645	0.12	1115129	keystroke_k	k	n/a
557.8495	0.165	1115699	keystroke_u	u	n/a
557.9245	0.225	1115849	keystroke_p	p	n/a
558.1045	0.135	1116209	keystroke_Key.space	Key.space	n/a
558.4045	0.1045	1116809	keystroke_e	e	n/a
558.6145	0.12	1117229	keystroke_d	d	n/a
558.6895	0.12	1117379	keystroke_i	i	n/a
558.8695	0.0595	1117739	keystroke_t	t	n/a
558.944	0.18	1117888	keystroke_i	i	n/a
559.064	0.15	1118128	keystroke_n	n	n/a
559.154	0.1505	1118308	keystroke_g	g	n/a
559.4395	0.105	1118879	keystroke_Key.enter	Key.enter	n/a
559.549	5.697	1119098	prompt	n/a	penn stroke mounts tender\n
560.2495	0.18	1120499	keystroke_p	p	n/a
560.4445	0.09	1120889	keystroke_e	e	n/a
560.5945	0.09	1121189	keystroke_n	n	n/a
560.7445	0.135	1121489	keystroke_n	n	n/a
560.8945	0.1495	1121789	keystroke_Key.space	Key.space	n/a
561.09	0.105	1122180	keystroke_s	s	n/a
561.345	0.075	1122690	keystroke_t	t	n/a
561.524	0.091	1123048	keystroke_r	r	n/a
561.645	0.149	1123290	keystroke_o	o	n/a
561.764	0.166	1123528	keystroke_k	k	n/a
561.885	0.135	1123770	keystroke_e	e	n/a
562.034	0.12	1124068	keystroke_Key.space	Key.space	n/a
562.6345	0.135	1125269	keystroke_m	m	n/a
562.7845	0.24	1125569	keystroke_o	o	n/a
562.9345	0.1955	1125869	keystroke_u	u	n/a
563.0545	0.1805	1126109	keystroke_n	n	n/a
563.16	0.089	1126320	keystroke_t	t	n/a
563.429	0.105	1126858	keystroke_s	s	n/a
