onset	duration	sample	value	key	prompt_text
1.573	15.5855	3146	prompt	n/a	the quick brown fox jumps over a lazy dog\n
3.5495	0.027	7099	keystroke_t	t	n/a
3.6215	0.075	7243	keystroke_h	h	n/a
3.7265	0.09	7453	keystroke_e	e	n/a
3.8315	0.09	7663	keystroke_Key.space	Key.space	n/a
4.641	0.1055	9282	keystroke_q	q	n/a
4.8825	0.074	9765	keystroke_u	u	n/a
5.0915	0.09	10183	keystroke_i	i	n/a
5.2565	0.045	10513	keystroke_c	c	n/a
5.3465	0.091	10693	keystroke_k	k	n/a
5.5715	0.0755	11143	keystroke_Key.space	Key.space	n/a
6.127	0.075	12254	keystroke_b	b	n/a
6.308	0.075	12616	keystroke_r	r	n/a
6.427	0.106	12854	keystroke_o	o	n/a
6.728	0.075	13456	keystroke_w	w	n/a
6.878	0.075	13756	keystroke_n	n	n/a
7.0735	0.075	14147	keystroke_Key.space	Key.space	n/a
7.344	0.075	14688	keystroke_f	f	n/a
7.449	0.09	14898	keystroke_o	o	n/a
7.944	0.075	15888	keystroke_Key.space	Key.space	n/a
8.425	0.0895	16850	keystroke_Key.backspace	Key.backspace	n/a
8.725	0.074	17450	keystroke_x	x	n/a
8.904	0.061	17808	keystroke_Key.space	Key.space	n/a
9.505	0.075	19010	keystroke_j	j	n/a
9.685	0.075	19370	keystroke_u	u	n/a
9.88	0.075	19760	keystroke_m	m	n/a
10.044	0.091	20088	keystroke_p	p	n/a
10.24	0.075	20480	keystroke_s	s	n/a
10.329	0.061	20658	keystroke_Key.space	Key.space	n/a
10.54	0.09	21080	keystroke_o	o	n/a
10.66	0.075	21320	keystroke_v	v	n/a
10.84	0.12	21680	keystroke_e	e	n/a
10.885	0.09	21770	keystroke_r	r	n/a
11.0345	0.0595	22069	keystroke_Key.space	Key.space	n/a
11.17	0.09	22340	keystroke_a	a	n/a
11.274	0.076	22548	keystroke_Key.space	Key.space	n/a
11.665	0.075	23330	keystroke_l	l	n/a
12.084	0.106	24168	keystroke_a	a	n/a
13.3145	0.075	26629	keystroke_z	z	n/a
13.6745	0.045	27349	keystroke_y	y	n/a
14.0195	0.0745	28039	keystroke_Key.space	Key.space	n/a
14.32	0.074	28640	keystroke_g	g	n/a
14.44	0.104	28880	keystroke_o	o	n/a
15.534	0.06	31068	keystroke_Key.backspace	Key.backspace	n/a
15.7	0.044	31400	keystroke_Key.backspace	Key.backspace	n/a
15.925	0.06	31850	keystroke_d	d	n/a
16.03	0.105	32060	keystroke_o	o	n/a
16.224	0.061	32448	keystroke_g	g	n/a
17.0945	0.06	34189	keystroke_Key.enter	Key.enter	n/a
17.1665	11.0445	34333	prompt	n/a	murray involve cards arrangements\n
18.069	0.06	36138	keystroke_m	m	n/a
18.294	0.06	36588	keystroke_u	u	n/a
18.489	0.075	36978	keystroke_r	r	n/a
18.639	0.06	37278	keystroke_r	r	n/a
18.789	0.105	37578	keystroke_a	a	n/a
18.939	0.06	37878	keystroke_y	y	n/a
19.149	0.075	38298	keystroke_Key.space	Key.space	n/a
19.389	0.12	38778	keystroke_i	i	n/a
19.524	0.09	39048	keystroke_n	n	n/a
20.364	0.075	40728	keystroke_v	v	n/a
20.6035	0.09	41207	keystroke_o	o	n/a
20.7985	0.09	41597	keystroke_l	l	n/a
21.6535	0.0755	43307	keystroke_v	v	n/a
21.849	0.09	43698	keystroke_e	e	n/a
22.989	0.06	45978	keystroke_Key.space	Key.space	n/a
23.229	0.075	46458	keystroke_c	c	n/a
23.379	0.135	46758	keystroke_a	a	n/a
23.544	0.135	47088	keystroke_r	r	n/a
23.784	0.12	47568	keystroke_d	d	n/a
23.904	0.12	47808	keystroke_s	s	n/a
24.114	0.075	48228	keystroke_Key.space	Key.space	n/a
24.669	0.09	49338	keystroke_a	a	n/a
24.909	0.045	49818	keystroke_r	r	n/a
25.029	0.075	50058	keystroke_r	r	n/a
25.209	0.135	50418	keystroke_a	a	n/a
25.389	0.09	50778	keystroke_n	n	n/a
26.259	0.06	52518	keystroke_g	g	n/a
26.514	0.06	53028	keystroke_e	e	n/a
26.814	0.075	53628	keystroke_m	m	n/a
26.949	0.105	53898	keystroke_e	e	n/a
27.084	0.075	54168	keystroke_n	n	n/a
27.204	0.09	54408	keystroke_t	t	n/a
27.429	0.09	54858	keystroke_s	s	n/a
28.149	0.06	56298	keystroke_Key.enter	Key.enter	n/a
28.216	9.5955	56432	prompt	n/a	submitting notebooks who'd animals\n
28.929	0.075	57858	keystroke_s	s	n/a
29.064	0.09	58128	keystroke_u	u	n/a
29.454	0.075	58908	keystroke_b	b	n/a
29.859	0.06	59718	keystroke_m	m	n/a
30.174	0.09	60348	keystroke_i	i	n/a
30.504	0.06	61008	keystroke_t	t	n/a
31.089	0.06	62178	keystroke_t	t	n/a
31.329	0.105	62658	keystroke_i	i	n/a
31.419	0.09	62838	keystroke_n	n	n/a
31.644	0.075	63288	keystroke_g	g	n/a
31.809	0.06	63618	keystroke_Key.space	Key.space	n/a
32.274	0.06	64548	keystroke_n	n	n/a
32.454	0.075	64908	keystroke_o	o	n/a
32.559	0.09	65118	keystroke_t	t	n/a
32.739	0.105	65478	keystroke_e	e	n/a
33.069	0.06	66138	keystroke_b	b	n/a
33.324	0.06	66648	keystroke_o	o	n/a
33.444	0.075	66888	keystroke_o	o	n/a
33.624	0.09	67248	keystroke_k	k	n/a
33.894	0.09	67788	keystroke_s	s	n/a
34.074	0.06	68148	keystroke_Key.space	Key.space	n/a
34.464	0.09	68928	keystroke_w	w	n/a
34.569	0.075	69138	keystroke_h	h	n/a
34.719	0.15	69438	keystroke_o	o	n/a
35.049	0.06	70098	keystroke_'	'	n/a
35.289	0.09	70578	keystroke_d	d	n/a
35.454	0.045	70908	keystroke_Key.space	Key.space	n/a
35.814	0.105	71628	keystroke_a	a	n/a
35.934	0.09	71868	keystroke_n	n	n/a
36.114	0.135	72228	keystroke_i	i	n/a
36.264	0.09	72528	keystroke_m	m	n/a
36.519	0.09	73038	keystroke_a	a	n/a
36.654	0.09	73308	keystroke_l	l	n/a
36.954	0.09	73908	keystroke_s	s	n/a
37.749	0.06	75498	keystroke_Key.enter	Key.enter	n/a
37.8175	28.3145	75635	prompt	n/a	securely detroit licence roommates\n
46.287	0.057	92574	keystroke_s	s	n/a
46.464	0.09	92928	keystroke_e	e	n/a
46.719	0.06	93438	keystroke_c	c	n/a
47.049	0.075	94098	keystroke_u	u	n/a
47.289	0.105	94578	keystroke_s	s	n/a
48.354	0.09	96708	keystroke_Key.backspace	Key.backspace	n/a
48.834	0.06	97668	keystroke_Key.backspace	Key.backspace	n/a
49.599	0.06	99198	keystroke_u	u	n/a
49.929	0.135	99858	keystroke_r	r	n/a
50.019	0.12	100038	keystroke_e	e	n/a
50.439	0.075	100878	keystroke_l	l	n/a
50.664	0.045	101328	keystroke_y	y	n/a
50.859	0.09	101718	keystroke_Key.space	Key.space	n/a
51.084	0.06	102168	keystroke_d	d	n/a
51.279	0.105	102558	keystroke_e	e	n/a
51.594	0.075	103188	keystroke_t	t	n/a
51.789	0.075	103578	keystroke_r	r	n/a
51.909	0.135	103818	keystroke_o	o	n/a
51.984	0.165	103968	keystroke_i	i	n/a
52.479	0.06	104958	keystroke_t	t	n/a
52.599	0.06	105198	keystroke_Key.space	Key.space	n/a
53.034	0.075	106068	keystroke_l	l	n/a
53.814	0.075	107628	keystroke_i	i	n/a
53.994	0.09	107988	keystroke_c	c	n/a
54.264	0.06	108528	keystroke_e	e	n/a
54.414	0.075	108828	keystroke_n	n	n/a
54.804	0.06	109608	keystroke_c	c	n/a
55.584	0.075	111168	keystroke_e	e	n/a
55.839	0.06	111678	keystroke_Key.space	Key.space	n/a
56.349	0.06	112698	keystroke_r	r	n/a
61.257	0.012	122514	keystroke_o	o	n/a
61.329	0.105	122658	keystroke_o	o	n/a
62.634	0.075	125268	keystroke_m	m	n/a
62.769	0.075	125538	keystroke_m	m	n/a
62.964	0.12	125928	keystroke_a	a	n/a
63.129	0.12	126258	keystroke_t	t	n/a
63.219	0.12	126438	keystroke_e	e	n/a
63.414	0.105	126828	keystroke_s	s	n/a
66.102	0.027	132204	keystroke_Key.enter	Key.enter	n/a
66.138	10.823	132276	prompt	n/a	cadillac karaoke beverages suppose\n
66.879	0.09	133758	keystroke_c	c	n/a
67.164	0.09	134328	keystroke_a	a	n/a
68.259	0.105	136518	keystroke_d	d	n/a
68.634	0.09	137268	keystroke_i	i	n/a
69.4	0.059	138800	keystroke_l	l	n/a
69.535	0.074	139070	keystroke_l	l	n/a
69.624	0.135	139248	keystroke_a	a	n/a
69.744	0.105	139488	keystroke_c	c	n/a
69.894	0.075	139788	keystroke_Key.space	Key.space	n/a
70.989	0.075	141978	keystroke_k	k	n/a
71.154	0.105	142308	keystroke_a	a	n/a
71.394	0.091	142788	keystroke_r	r	n/a
71.59	0.12	143180	keystroke_a	a	n/a
72.325	0.059	144650	keystroke_o	o	n/a
72.505	0.089	145010	keystroke_k	k	n/a
72.699	0.09	145398	keystroke_e	e	n/a
72.804	0.075	145608	keystroke_Key.space	Key.space	n/a
73.089	0.075	146178	keystroke_b	b	n/a
73.239	0.105	146478	keystroke_e	e	n/a
73.599	0.09	147198	keystroke_v	v	n/a
73.779	0.135	147558	keystroke_e	e	n/a
73.855	0.089	147710	keystroke_r	r	n/a
74.2	0.105	148400	keystroke_a	a	n/a
74.334	0.09	148668	keystroke_g	g	n/a
74.439	0.09	148878	keystroke_e	e	n/a
74.634	0.09	149268	keystroke_s	s	n/a
74.784	0.075	149568	keystroke_Key.space	Key.space	n/a
75.129	0.06	150258	keystroke_s	s	n/a
75.28	0.059	150560	keystroke_u	u	n/a
75.489	0.075	150978	keystroke_p	p	n/a
75.64	0.074	151280	keystroke_p	p	n/a
75.819	0.075	151638	keystroke_o	o	n/a
75.955	0.09	151910	keystroke_s	s	n/a
76.119	0.061	152238	keystroke_e	e	n/a
76.884	0.075	153768	keystroke_Key.enter	Key.enter	n/a
76.967	13.7195	153934	prompt	n/a	nevertheless pulling texas undertake\n
77.649	0.06	155298	keystroke_b	b	n/a
78.399	0.09	156798	keystroke_Key.backspace	Key.backspace	n/a
79.15	0.06	158300	keystroke_n	n	n/a
79.42	0.075	158840	keystroke_e	e	n/a
79.584	0.06	159168	keystroke_v	v	n/a
79.689	0.136	159378	keystroke_e	e	n/a
79.78	0.074	159560	keystroke_r	r	n/a
80.064	0.091	160128	keystroke_l	l	n/a
80.8585	0.075	161717	keystroke_Key.backspace	Key.backspace	n/a
81.3845	0.09	162769	keystroke_t	t	n/a
81.8345	0.075	163669	keystroke_h	h	n/a
82.0285	0.076	164057	keystroke_e	e	n/a
82.2835	0.091	164567	keystroke_l	l	n/a
82.5085	0.075	165017	keystroke_e	e	n/a
82.7795	0.06	165559	keystroke_s	s	n/a
82.9285	0.045	165857	keystroke_s	s	n/a
83.0335	0.075	166067	keystroke_Key.space	Key.space	n/a
83.3635	0.06	166727	keystroke_u	u	n/a
83.7085	0.075	167417	keystroke_Key.backspace	Key.backspace	n/a
84.4885	0.075	168977	keystroke_p	p	n/a
84.729	0.045	169458	keystroke_u	u	n/a
84.939	0.089	169878	keystroke_l	l	n/a
85.074	0.104	170148	keystroke_l	l	n/a
85.418	0.09	170836	keystroke_i	i	n/a
85.569	0.09	171138	keystroke_n	n	n/a
85.718	0.06	171436	keystroke_g	g	n/a
85.824	0.074	171648	keystroke_Key.space	Key.space	n/a
86.468	0.105	172936	keystroke_t	t	n/a
86.694	0.06	173388	keystroke_e	e	n/a
87.054	0.105	174108	keystroke_x	x	n/a
87.278	0.091	174556	keystroke_a	a	n/a
87.608	0.075	175216	keystroke_s	s	n/a
87.804	0.074	175608	keystroke_Key.space	Key.space	n/a
88.059	0.075	176118	keystroke_u	u	n/a
88.269	0.074	176538	keystroke_n	n	n/a
88.418	0.076	176836	keystroke_d	d	n/a
88.599	0.104	177198	keystroke_e	e	n/a
88.659	0.075	177318	keystroke_r	r	n/a
88.929	0.075	177858	keystroke_t	t	n/a
89.108	0.091	178216	keystroke_a	a	n/a
89.229	0.075	178458	keystroke_k	k	n/a
89.574	0.089	179148	keystroke_e	e	n/a
90.624	0.059	181248	keystroke_Key.enter	Key.enter	n/a
90.693	10.928	181386	prompt	n/a	mess cage studying photographs\n
91.419	0.074	182838	keystroke_m	m	n/a
91.538	0.091	183076	keystroke_e	e	n/a
91.779	0.06	183558	keystroke_s	s	n/a
91.928	0.061	183856	keystroke_s	s	n/a
92.063	0.075	184126	keystroke_Key.space	Key.space	n/a
92.229	0.105	184458	keystroke_a	a	n/a
92.604	0.09	185208	keystroke_c	c	n/a
92.918	0.075	185836	keystroke_Key.backspace	Key.backspace	n/a
93.039	0.074	186078	keystroke_Key.backspace	Key.backspace	n/a
93.084	0.12	186168	keystroke_c	c	n/a
93.219	0.12	186438	keystroke_a	a	n/a
93.639	0.06	187278	keystroke_g	g	n/a
93.804	0.059	187608	keystroke_e	e	n/a
93.983	0.075	187966	keystroke_Key.space	Key.space	n/a
94.194	0.09	188388	keystroke_s	s	n/a
94.344	0.09	188688	keystroke_t	t	n/a
94.509	0.09	189018	keystroke_u	u	n/a
94.719	0.075	189438	keystroke_d	d	n/a
95.139	0.03	190278	keystroke_i	i	n/a
95.603	0.06	191206	keystroke_Key.backspace	Key.backspace	n/a
96.084	0.104	192168	keystroke_i	i	n/a
96.803	0.076	193606	keystroke_Key.backspace	Key.backspace	n/a
97.119	0.075	194238	keystroke_y	y	n/a
97.419	0.15	194838	keystroke_i	i	n/a
97.539	0.105	195078	keystroke_n	n	n/a
97.719	0.06	195438	keystroke_g	g	n/a
97.854	0.075	195708	keystroke_Key.space	Key.space	n/a
98.454	0.075	196908	keystroke_p	p	n/a
98.664	0.075	197328	keystroke_h	h	n/a
99.279	0.06	198558	keystroke_o	o	n/a
99.429	0.075	198858	keystroke_t	t	n/a
99.534	0.09	199068	keystroke_o	o	n/a
99.819	0.075	199638	keystroke_g	g	n/a
99.999	0.105	199998	keystroke_r	r	n/a
100.209	0.075	200418	keystroke_a	a	n/a
100.344	0.12	200688	keystroke_p	p	n/a
100.524	0.105	201048	keystroke_h	h	n/a
100.674	0.105	201348	keystroke_s	s	n/a
101.559	0.06	203118	keystroke_Key.enter	Key.enter	n/a
101.6285	7.687	203257	prompt	n/a	shops belkin dresses endif\n
102.249	0.075	204498	keystroke_s	s	n/a
102.504	0.075	205008	keystroke_h	h	n/a
102.684	0.075	205368	keystroke_o	o	n/a
102.894	0.09	205788	keystroke_p	p	n/a
103.059	0.09	206118	keystroke_s	s	n/a
103.209	0.075	206418	keystroke_Key.space	Key.space	n/a
103.509	0.06	207018	keystroke_b	b	n/a
103.929	0.075	207858	keystroke_e	e	n/a
104.139	0.09	208278	keystroke_l	l	n/a
104.394	0.06	208788	keystroke_k	k	n/a
104.544	0.075	209088	keystroke_i	i	n/a
104.679	0.105	209358	keystroke_n	n	n/a
104.934	0.075	209868	keystroke_Key.space	Key.space	n/a
105.729	0.075	211458	keystroke_d	d	n/a
105.984	0.12	211968	keystroke_r	r	n/a
106.044	0.105	212088	keystroke_e	e	n/a
106.344	0.045	212688	keystroke_s	s	n/a
106.48	0.074	212960	keystroke_s	s	n/a
106.734	0.09	213468	keystroke_e	e	n/a
106.929	0.075	213858	keystroke_s	s	n/a
107.154	0.06	214308	keystroke_Key.space	Key.space	n/a
107.649	0.075	215298	keystroke_e	e	n/a
107.784	0.075	215568	keystroke_n	n	n/a
107.949	0.075	215898	keystroke_d	d	n/a
108.144	0.09	216288	keystroke_i	i	n/a
108.444	0.045	216888	keystroke_f	f	n/a
109.254	0.06	218508	keystroke_Key.enter	Key.enter	n/a
109.3195	9.897	218639	prompt	n/a	downloads inkjet shots contacting\n
110.289	0.045	220578	keystroke_d	d	n/a
110.589	0.09	221178	keystroke_o	o	n/a
110.859	0.06	221718	keystroke_w	w	n/a
110.994	0.045	221988	keystroke_n	n	n/a
111.279	0.075	222558	keystroke_l	l	n/a
111.459	0.09	222918	keystroke_o	o	n/a
111.579	0.105	223158	keystroke_a	a	n/a
111.744	0.105	223488	keystroke_d	d	n/a
111.924	0.09	223848	keystroke_s	s	n/a
112.149	0.075	224298	keystroke_Key.space	Key.space	n/a
112.539	0.075	225078	keystroke_i	i	n/a
112.794	0.015	225588	keystroke_n	n	n/a
113.259	0.075	226518	keystroke_k	k	n/a
113.844	0.075	227688	keystroke_j	j	n/a
114.084	0.09	228168	keystroke_e	e	n/a
114.909	0.075	229818	keystroke_t	t	n/a
115.119	0.06	230238	keystroke_Key.space	Key.space	n/a
115.314	0.075	230628	keystroke_s	s	n/a
115.419	0.075	230838	keystroke_h	h	n/a
115.584	0.09	231168	keystroke_o	o	n/a
115.794	0.09	231588	keystroke_t	t	n/a
115.989	0.075	231978	keystroke_s	s	n/a
116.109	0.075	232218	keystroke_Key.space	Key.space	n/a
116.829	0.075	233658	keystroke_c	c	n/a
117.009	0.105	234018	keystroke_o	o	n/a
117.07	0.074	234140	keystroke_n	n	n/a
117.459	0.09	234918	keystroke_t	t	n/a
117.669	0.12	235338	keystroke_a	a	n/a
117.804	0.09	235608	keystroke_c	c	n/a
118.014	0.06	236028	keystroke_t	t	n/a
118.149	0.105	236298	keystroke_i	i	n/a
118.239	0.09	236478	keystroke_n	n	n/a
118.344	0.06	236688	keystroke_g	g	n/a
119.154	0.06	238308	keystroke_Key.enter	Key.enter	n/a
119.221	5.935	238442	prompt	n/a	doing smile lone portion\n
119.919	0.075	239838	keystroke_d	d	n/a
120.13	0.089	240260	keystroke_o	o	n/a
120.159	0.15	240318	keystroke_i	i	n/a
120.279	0.09	240558	keystroke_n	n	n/a
120.414	0.06	240828	keystroke_g	g	n/a
120.534	0.075	241068	keystroke_Key.space	Key.space	n/a
120.819	0.075	241638	keystroke_s	s	n/a
120.939	0.09	241878	keystroke_m	m	n/a
121.134	0.075	242268	keystroke_i	i	n/a
121.284	0.105	242568	keystroke_l	l	n/a
121.419	0.09	242838	keystroke_e	e	n/a
121.524	0.075	243048	keystroke_Key.space	Key.space	n/a
121.704	0.06	243408	keystroke_o	o	n/a
122.139	0.09	244278	keystroke_Key.backspace	Key.backspace	n/a
122.394	0.105	244788	keystroke_l	l	n/a
122.604	0.18	245208	keystroke_o	o	n/a
122.769	0.105	245538	keystroke_n	n	n/a
122.964	0.09	245928	keystroke_e	e	n/a
123.174	0.06	246348	keystroke_Key.space	Key.space	n/a
123.354	0.075	246708	keystroke_p	p	n/a
123.564	0.105	247128	keystroke_o	o	n/a
123.774	0.045	247548	keystroke_r	r	n/a
123.939	0.06	247878	keystroke_t	t	n/a
124.074	0.15	248148	keystroke_i	i	n/a
124.209	0.135	248418	keystroke_o	o	n/a
124.284	0.105	248568	keystroke_n	n	n/a
125.079	0.075	250158	keystroke_Key.enter	Key.enter	n/a
125.1605	10.4205	250321	prompt	n/a	survive quarter hardware preferred\n
126.489	0.06	252978	keystroke_s	s	n/a
127.119	0.075	254238	keystroke_u	u	n/a
127.314	0.09	254628	keystroke_r	r	n/a
127.569	0.075	255138	keystroke_v	v	n/a
127.704	0.09	255408	keystroke_i	i	n/a
128.349	0.075	256698	keystroke_v	v	n/a
128.529	0.075	257058	keystroke_e	e	n/a
128.709	0.06	257418	keystroke_Key.space	Key.space	n/a
129.624	0.06	259248	keystroke_q	q	n/a
129.879	0.075	259758	keystroke_u	u	n/a
130.194	0.09	260388	keystroke_a	a	n/a
130.374	0.075	260748	keystroke_r	r	n/a
130.569	0.06	261138	keystroke_t	t	n/a
130.749	0.135	261498	keystroke_e	e	n/a
130.824	0.075	261648	keystroke_r	r	n/a
131.094	0.075	262188	keystroke_Key.space	Key.space	n/a
131.35	0.059	262700	keystroke_h	h	n/a
131.439	0.105	262878	keystroke_a	a	n/a
131.589	0.12	263178	keystroke_r	r	n/a
131.934	0.075	263868	keystroke_d	d	n/a
132.369	0.075	264738	keystroke_w	w	n/a
132.519	0.105	265038	keystroke_a	a	n/a
132.639	0.12	265278	keystroke_r	r	n/a
132.714	0.12	265428	keystroke_e	e	n/a
132.924	0.09	265848	keystroke_Key.space	Key.space	n/a
133.149	0.105	266298	keystroke_p	p	n/a
133.299	0.09	266598	keystroke_r	r	n/a
133.344	0.09	266688	keystroke_e	e	n/a
133.704	0.075	267408	keystroke_f	f	n/a
133.989	0.075	267978	keystroke_e	e	n/a
134.349	0.045	268698	keystroke_r	r	n/a
134.469	0.075	268938	keystroke_r	r	n/a
134.604	0.075	269208	keystroke_e	e	n/a
134.799	0.09	269598	keystroke_d	d	n/a
135.489	0.09	270978	keystroke_Key.enter	Key.enter	n/a
135.588	12.2475	271176	prompt	n/a	what'd harvest they'll apparatus\n
136.644	0.09	273288	keystroke_w	w	n/a
136.974	0.06	273948	keystroke_h	h	n/a
137.154	0.1045	274308	keystroke_a	a	n/a
137.304	0.105	274608	keystroke_t	t	n/a
137.7535	0.09	275507	keystroke_'	'	n/a
137.9485	0.075	275897	keystroke_d	d	n/a
138.1135	0.06	276227	keystroke_Key.space	Key.space	n/a
138.7285	0.075	277457	keystroke_h	h	n/a
138.8335	0.135	277667	keystroke_a	a	n/a
139.4035	0.045	278807	keystroke_r	r	n/a
139.6735	0.075	279347	keystroke_v	v	n/a
139.8535	0.075	279707	keystroke_e	e	n/a
140.0335	0.09	280067	keystroke_s	s	n/a
140.1685	0.075	280337	keystroke_t	t	n/a
140.3035	0.075	280607	keystroke_Key.space	Key.space	n/a
140.6635	0.075	281327	keystroke_t	t	n/a
140.7535	0.075	281507	keystroke_h	h	n/a
141.0535	0.045	282107	keystroke_e	e	n/a
141.2935	0.015	282587	keystroke_y	y	n/a
142.6285	0.09	285257	keystroke_'	'	n/a
142.9435	0.06	285887	keystroke_l	l	n/a
143.0785	0.075	286157	keystroke_l	l	n/a
143.2285	0.105	286457	keystroke_Key.space	Key.space	n/a
143.8885	0.09	287777	keystroke_a	a	n/a
144.0835	0.075	288167	keystroke_p	p	n/a
144.2185	0.09	288437	keystroke_p	p	n/a
144.4435	0.09	288887	keystroke_a	a	n/a
144.6685	0.075	289337	keystroke_r	r	n/a
144.9385	0.151	289877	keystroke_a	a	n/a
145.5985	0.075	291197	keystroke_t	t	n/a
145.8235	0.075	291647	keystroke_u	u	n/a
146.0335	0.075	292067	keystroke_s	s	n/a
147.7585	0.075	295517	keystroke_Key.enter	Key.enter	n/a
147.8425	7.1485	295685	prompt	n/a	hitting moss regards folders\n
148.7945	0.059	297589	keystroke_h	h	n/a
148.9585	0.075	297917	keystroke_i	i	n/a
149.1985	0.06	298397	keystroke_t	t	n/a
149.3185	0.075	298637	keystroke_t	t	n/a
149.3785	0.135	298757	keystroke_i	i	n/a
149.4835	0.105	298967	keystroke_n	n	n/a
149.6035	0.06	299207	keystroke_g	g	n/a
149.7235	0.075	299447	keystroke_Key.space	Key.space	n/a
149.9635	0.075	299927	keystroke_m	m	n/a
150.1585	0.09	300317	keystroke_o	o	n/a
150.3685	0.06	300737	keystroke_s	s	n/a
150.4885	0.06	300977	keystroke_s	s	n/a
150.6985	0.075	301397	keystroke_Key.space	Key.space	n/a
150.8485	0.105	301697	keystroke_r	r	n/a
150.9085	0.09	301817	keystroke_e	e	n/a
151.3585	0.061	302717	keystroke_g	g	n/a
151.5835	0.09	303167	keystroke_a	a	n/a
151.8085	0.075	303617	keystroke_r	r	n/a
152.0935	0.09	304187	keystroke_d	d	n/a
152.2435	0.12	304487	keystroke_s	s	n/a
152.4685	0.075	304937	keystroke_Key.space	Key.space	n/a
152.799	0.0595	305598	keystroke_f	f	n/a
152.9635	0.075	305927	keystroke_o	o	n/a
153.1445	0.089	306289	keystroke_l	l	n/a
153.3385	0.075	306677	keystroke_d	d	n/a
153.5485	0.09	307097	keystroke_e	e	n/a
153.5945	0.074	307189	keystroke_r	r	n/a
153.8035	0.075	307607	keystroke_s	s	n/a
154.9285	0.06	309857	keystroke_Key.enter	Key.enter	n/a
154.9945	19.2715	309989	prompt	n/a	indicates invite romania enquiry\n
155.6935	0.075	311387	keystroke_i	i	n/a
155.8435	0.09	311687	keystroke_n	n	n/a
155.9935	0.075	311987	keystroke_d	d	n/a
156.1285	0.075	312257	keystroke_i	i	n/a
156.3985	0.075	312797	keystroke_c	c	n/a
156.5335	0.12	313067	keystroke_a	a	n/a
156.7135	0.15	313427	keystroke_r	r	n/a
157.2985	0.075	314597	keystroke_Key.backspace	Key.backspace	n/a
157.3885	0.105	314777	keystroke_t	t	n/a
157.5085	0.09	315017	keystroke_e	e	n/a
157.7785	0.075	315557	keystroke_s	s	n/a
157.9285	0.06	315857	keystroke_Key.space	Key.space	n/a
158.2735	0.046	316547	keystroke_o	o	n/a
158.2885	0.075	316577	keystroke_i	i	n/a
158.3785	0.106	316757	keystroke_n	n	n/a
159.0085	0.06	318017	keystroke_Key.backspace	Key.backspace	n/a
159.1285	0.09	318257	keystroke_Key.backspace	Key.backspace	n/a
159.7435	0.06	319487	keystroke_Key.backspace	Key.backspace	n/a
160.178	0.06	320356	keystroke_i	i	n/a
160.418	0.075	320836	keystroke_n	n	n/a
160.629	0.059	321258	keystroke_v	v	n/a
160.808	0.075	321616	keystroke_i	i	n/a
161.003	0.06	322006	keystroke_t	t	n/a
161.093	0.105	322186	keystroke_e	e	n/a
161.273	0.09	322546	keystroke_Key.space	Key.space	n/a
161.798	0.105	323596	keystroke_r	r	n/a
162.083	0.15	324166	keystroke_o	o	n/a
162.219	0.119	324438	keystroke_m	m	n/a
162.953	0.09	325906	keystroke_a	a	n/a
163.343	0.076	326686	keystroke_n	n	n/a
163.538	0.075	327076	keystroke_i	i	n/a
164.124	0.06	328248	keystroke_a	a	n/a
164.423	0.075	328846	keystroke_Key.space	Key.space	n/a
166.857	0.012	333714	keystroke_e	e	n/a
166.928	0.091	333856	keystroke_n	n	n/a
168.578	0.076	337156	keystroke_q	q	n/a
168.833	0.076	337666	keystroke_u	u	n/a
169.028	0.091	338056	keystroke_i	i	n/a
169.238	0.075	338476	keystroke_r	r	n/a
169.328	0.09	338656	keystroke_i	i	n/a
169.553	0.075	339106	keystroke_y	y	n/a
169.808	0.075	339616	keystroke_Key.space	Key.space	n/a
170.393	0.076	340786	keystroke_Key.backspace	Key.backspace	n/a
170.558	0.06	341116	keystroke_Key.backspace	Key.backspace	n/a
170.693	0.075	341386	keystroke_Key.backspace	Key.backspace	n/a
172.464	0.06	344928	keystroke_y	y	n/a
174.203	0.061	348406	keystroke_Key.enter	Key.enter	n/a
174.2835	14.7275	348567	prompt	n/a	representative porcelain sanyo toner\n
175.028	0.106	350056	keystroke_r	r	n/a
175.073	0.121	350146	keystroke_e	e	n/a
175.448	0.091	350896	keystroke_p	p	n/a
175.643	0.091	351286	keystroke_r	r	n/a
175.674	0.104	351348	keystroke_e	e	n/a
176.018	0.076	352036	keystroke_s	s	n/a
177.069	0.075	354138	keystroke_n	n	n/a
177.908	0.09	355816	keystroke_Key.backspace	Key.backspace	n/a
178.104	0.105	356208	keystroke_e	e	n/a
178.358	0.045	356716	keystroke_n	n	n/a
179.514	0.09	359028	keystroke_t	t	n/a
179.754	0.105	359508	keystroke_a	a	n/a
180.039	0.119	360078	keystroke_t	t	n/a
180.459	0.075	360918	keystroke_i	i	n/a
180.594	0.06	361188	keystroke_v	v	n/a
180.684	0.074	361368	keystroke_e	e	n/a
180.803	0.09	361606	keystroke_Key.space	Key.space	n/a
181.449	0.09	362898	keystroke_p	p	n/a
181.778	0.076	363556	keystroke_o	o	n/a
182.003	0.075	364006	keystroke_r	r	n/a
182.364	0.075	364728	keystroke_c	c	n/a
182.574	0.074	365148	keystroke_l	l	n/a
183.023	0.09	366046	keystroke_Key.backspace	Key.backspace	n/a
183.144	0.074	366288	keystroke_e	e	n/a
183.294	0.135	366588	keystroke_l	l	n/a
183.804	0.074	367608	keystroke_i	i	n/a
184.268	0.076	368536	keystroke_Key.backspace	Key.backspace	n/a
184.374	0.105	368748	keystroke_a	a	n/a
185.109	0.075	370218	keystroke_i	i	n/a
185.259	0.105	370518	keystroke_n	n	n/a
185.513	0.045	371026	keystroke_Key.space	Key.space	n/a
186.384	0.015	372768	keystroke_s	s	n/a
186.533	0.106	373066	keystroke_a	a	n/a
186.654	0.09	373308	keystroke_n	n	n/a
186.954	0.045	373908	keystroke_y	y	n/a
187.119	0.09	374238	keystroke_o	o	n/a
187.284	0.09	374568	keystroke_Key.space	Key.space	n/a
187.554	0.105	375108	keystroke_t	t	n/a
187.674	0.135	375348	keystroke_o	o	n/a
187.749	0.105	375498	keystroke_n	n	n/a
188.064	0.165	376128	keystroke_e	e	n/a
188.214	0.105	376428	keystroke_r	r	n/a
188.934	0.075	377868	keystroke_Key.enter	Key.enter	n/a
189.017	8.334	378034	prompt	n/a	surname crest hostels degree\n
190.029	0.09	380058	keystroke_s	s	n/a
190.344	0.06	380688	keystroke_u	u	n/a
190.614	0.075	381228	keystroke_r	r	n/a
191.199	0.075	382398	keystroke_n	n	n/a
191.319	0.12	382638	keystroke_a	a	n/a
191.424	0.075	382848	keystroke_m	m	n/a
191.574	0.06	383148	keystroke_e	e	n/a
191.664	0.075	383328	keystroke_Key.space	Key.space	n/a
191.919	0.075	383838	keystroke_c	c	n/a
192.129	0.12	384258	keystroke_r	r	n/a
192.204	0.105	384408	keystroke_e	e	n/a
192.489	0.089	384978	keystroke_s	s	n/a
192.639	0.075	385278	keystroke_t	t	n/a
192.804	0.06	385608	keystroke_Key.space	Key.space	n/a
193.089	0.075	386178	keystroke_h	h	n/a
193.269	0.075	386538	keystroke_o	o	n/a
193.404	0.105	386808	keystroke_s	s	n/a
193.554	0.135	387108	keystroke_t	t	n/a
194.619	0.075	389238	keystroke_e	e	n/a
194.769	0.09	389538	keystroke_l	l	n/a
194.949	0.075	389898	keystroke_s	s	n/a
195.054	0.06	390108	keystroke_Key.space	Key.space	n/a
195.384	0.075	390768	keystroke_d	d	n/a
195.609	0.09	391218	keystroke_e	e	n/a
195.954	0.075	391908	keystroke_g	g	n/a
196.149	0.09	392298	keystroke_r	r	n/a
196.419	0.045	392838	keystroke_e	e	n/a
196.554	0.045	393108	keystroke_e	e	n/a
197.289	0.06	394578	keystroke_Key.enter	Key.enter	n/a
197.3565	11.0345	394713	prompt	n/a	relative discover transcript relaxation\n
198.069	0.09	396138	keystroke_r	r	n/a
198.084	0.12	396168	keystroke_e	e	n/a
198.384	0.075	396768	keystroke_l	l	n/a
198.909	0.09	397818	keystroke_a	a	n/a
199.089	0.09	398178	keystroke_t	t	n/a
199.179	0.075	398358	keystroke_i	i	n/a
199.299	0.12	398598	keystroke_v	v	n/a
199.449	0.09	398898	keystroke_e	e	n/a
199.629	0.09	399258	keystroke_Key.space	Key.space	n/a
200.169	0.06	400338	keystroke_d	d	n/a
200.349	0.09	400698	keystroke_i	i	n/a
200.514	0.09	401028	keystroke_s	s	n/a
200.634	0.09	401268	keystroke_c	c	n/a
200.769	0.105	401538	keystroke_o	o	n/a
200.994	0.06	401988	keystroke_v	v	n/a
201.174	0.18	402348	keystroke_e	e	n/a
201.309	0.105	402618	keystroke_r	r	n/a
201.594	0.075	403188	keystroke_Key.space	Key.space	n/a
201.969	0.075	403938	keystroke_t	t	n/a
202.134	0.09	404268	keystroke_r	r	n/a
202.764	0.09	405528	keystroke_a	a	n/a
203.454	0.06	406908	keystroke_n	n	n/a
203.574	0.075	407148	keystroke_s	s	n/a
203.799	0.09	407598	keystroke_c	c	n/a
204.069	0.09	408138	keystroke_r	r	n/a
204.264	0.09	408528	keystroke_i	i	n/a
204.444	0.105	408888	keystroke_p	p	n/a
204.579	0.09	409158	keystroke_t	t	n/a
204.714	0.075	409428	keystroke_Key.space	Key.space	n/a
205.059	0.105	410118	keystroke_r	r	n/a
205.104	0.105	410208	keystroke_e	e	n/a
205.419	0.075	410838	keystroke_l	l	n/a
205.554	0.135	411108	keystroke_a	a	n/a
206.694	0.09	413388	keystroke_x	x	n/a
207.129	0.12	414258	keystroke_a	a	n/a
207.324	0.09	414648	keystroke_t	t	n/a
207.384	0.12	414768	keystroke_i	i	n/a
207.459	0.135	414918	keystroke_o	o	n/a
207.549	0.09	415098	keystroke_n	n	n/a
208.314	0.075	416628	keystroke_Key.enter	Key.enter	n/a
208.3975	9.8485	416795	prompt	n/a	attacked informational ranks says\n
209.079	0.09	418158	keystroke_a	a	n/a
209.274	0.06	418548	keystroke_t	t	n/a
209.394	0.09	418788	keystroke_t	t	n/a
209.635	0.134	419270	keystroke_a	a	n/a
209.889	0.09	419778	keystroke_c	c	n/a
210.054	0.075	420108	keystroke_k	k	n/a
210.159	0.075	420318	keystroke_e	e	n/a
210.354	0.075	420708	keystroke_d	d	n/a
210.444	0.09	420888	keystroke_Key.space	Key.space	n/a
210.699	0.09	421398	keystroke_i	i	n/a
210.804	0.09	421608	keystroke_n	n	n/a
211.6885	0.075	423377	keystroke_f	f	n/a
211.9735	0.09	423947	keystroke_o	o	n/a
212.2135	0.075	424427	keystroke_r	r	n/a
213.0085	0.075	426017	keystroke_m	m	n/a
213.234	0.12	426468	keystroke_a	a	n/a
213.4135	0.09	426827	keystroke_t	t	n/a
213.4735	0.195	426947	keystroke_i	i	n/a
213.5785	0.135	427157	keystroke_o	o	n/a
213.6385	0.105	427277	keystroke_n	n	n/a
213.9835	0.075	427967	keystroke_a	a	n/a
214.1185	0.09	428237	keystroke_l	l	n/a
214.3285	0.075	428657	keystroke_Key.space	Key.space	n/a
214.6585	0.105	429317	keystroke_r	r	n/a
214.7335	0.09	429467	keystroke_e	e	n/a
215.3485	0.075	430697	keystroke_Key.backspace	Key.backspace	n/a
215.6035	0.09	431207	keystroke_a	a	n/a
215.8585	0.06	431717	keystroke_n	n	n/a
216.2785	0.09	432557	keystroke_k	k	n/a
216.3835	0.09	432767	keystroke_s	s	n/a
216.6235	0.075	433247	keystroke_Key.space	Key.space	n/a
216.9385	0.075	433877	keystroke_s	s	n/a
217.0885	0.105	434177	keystroke_a	a	n/a
217.3285	0.015	434657	keystroke_y	y	n/a
217.4935	0.105	434987	keystroke_s	s	n/a
218.1835	0.06	436367	keystroke_Key.enter	Key.enter	n/a
218.2555	7.685	436511	prompt	n/a	falls roof style flour\n
219.039	0.06	438078	keystroke_f	f	n/a
219.203	0.091	438406	keystroke_a	a	n/a
219.399	0.044	438798	keystroke_l	l	n/a
219.503	0.091	439006	keystroke_l	l	n/a
219.608	0.075	439216	keystroke_s	s	n/a
219.713	0.09	439426	keystroke_Key.space	Key.space	n/a
219.953	0.091	439906	keystroke_r	r	n/a
220.239	0.074	440478	keystroke_o	o	n/a
220.373	0.09	440746	keystroke_o	o	n/a
220.658	0.06	441316	keystroke_f	f	n/a
220.793	0.075	441586	keystroke_Key.space	Key.space	n/a
221.258	0.061	442516	keystroke_s	s	n/a
221.393	0.091	442786	keystroke_t	t	n/a
221.5445	0.0585	443089	keystroke_y	y	n/a
221.723	0.045	443446	keystroke_o	o	n/a
221.754	0.059	443508	keystroke_l	l	n/a
221.829	0.075	443658	keystroke_e	e	n/a
221.918	0.091	443836	keystroke_Key.space	Key.space	n/a
222.099	0.089	444198	keystroke_f	f	n/a
222.264	0.12	444528	keystroke_l	l	n/a
222.7135	0.0595	445427	keystroke_Key.backspace	Key.backspace	n/a
222.8635	0.0745	445727	keystroke_Key.backspace	Key.backspace	n/a
223.013	0.06	446026	keystroke_Key.backspace	Key.backspace	n/a
223.1935	0.03	446387	keystroke_Key.backspace	Key.backspace	n/a
223.3135	0.09	446627	keystroke_Key.backspace	Key.backspace	n/a
223.6585	0.075	447317	keystroke_Key.backspace	Key.backspace	n/a
223.9295	0.074	447859	keystroke_l	l	n/a
224.0635	0.076	448127	keystroke_e	e	n/a
224.1985	0.075	448397	keystroke_Key.space	Key.space	n/a
224.6045	0.045	449209	keystroke_f	f	n/a
224.8585	0.016	449717	keystroke_l	l	n/a
224.9945	0.135	449989	keystroke_o	o	n/a
225.0845	0.105	450169	keystroke_u	u	n/a
225.2635	0.076	450527	keystroke_r	r	n/a
225.8935	0.045	451787	keystroke_Key.enter	Key.enter	n/a
225.9465	5.8745	451893	prompt	n/a	remote wishing logo sectors\n
226.7945	0.105	453589	keystroke_r	r	n/a
226.8535	0.091	453707	keystroke_e	e	n/a
227.0945	0.045	454189	keystroke_m	m	n/a
227.2595	0.09	454519	keystroke_o	o	n/a
227.3945	0.09	454789	keystroke_t	t	n/a
227.5285	0.091	455057	keystroke_e	e	n/a
227.6335	0.09	455267	keystroke_Key.space	Key.space	n/a
227.9345	0.09	455869	keystroke_w	w	n/a
228.0545	0.074	456109	keystroke_i	i	n/a
228.1895	0.075	456379	keystroke_s	s	n/a
228.2345	0.09	456469	keystroke_h	h	n/a
228.3535	0.181	456707	keystroke_i	i	n/a
228.4885	0.09	456977	keystroke_n	n	n/a
228.6245	0.075	457249	keystroke_g	g	n/a
228.7145	0.075	457429	keystroke_Key.space	Key.space	n/a
228.9545	0.09	457909	keystroke_l	l	n/a
229.1495	0.075	458299	keystroke_o	o	n/a
229.2695	0.06	458539	keystroke_g	g	n/a
229.4195	0.089	458839	keystroke_o	o	n/a
229.6285	0.075	459257	keystroke_Key.space	Key.space	n/a
229.9745	0.075	459949	keystroke_s	s	n/a
230.1395	0.105	460279	keystroke_e	e	n/a
230.3795	0.09	460759	keystroke_c	c	n/a
230.6345	0.06	461269	keystroke_t	t	n/a
230.7245	0.09	461449	keystroke_o	o	n/a
230.8285	0.121	461657	keystroke_r	r	n/a
231.1145	0.075	462229	keystroke_s	s	n/a
231.7445	0.075	463489	keystroke_Key.enter	Key.enter	n/a
231.8255	10.5255	463651	prompt	n/a	verse mitchell robots charged\n
232.7345	0.075	465469	keystroke_v	v	n/a
232.8845	0.12	465769	keystroke_e	e	n/a
232.9445	0.09	465889	keystroke_r	r	n/a
233.3045	0.09	466609	keystroke_s	s	n/a
233.4845	0.09	466969	keystroke_e	e	n/a
233.6345	0.06	467269	keystroke_Key.space	Key.space	n/a
234.1145	0.06	468229	keystroke_m	m	n/a
234.3245	0.09	468649	keystroke_i	i	n/a
234.5195	0.06	469039	keystroke_c	c	n/a
235.7645	0.075	471529	keystroke_Key.backspace	Key.backspace	n/a
236.0495	0.075	472099	keystroke_t	t	n/a
236.3045	0.06	472609	keystroke_c	c	n/a
236.4095	0.075	472819	keystroke_h	h	n/a
236.5895	0.06	473179	keystroke_e	e	n/a
236.8145	0.06	473629	keystroke_l	l	n/a
236.9345	0.075	473869	keystroke_l	l	n/a
237.0545	0.09	474109	keystroke_Key.space	Key.space	n/a
238.5395	0.045	477079	keystroke_r	r	n/a
238.6745	0.09	477349	keystroke_o	o	n/a
238.8695	0.075	477739	keystroke_b	b	n/a
239.0195	0.09	478039	keystroke_o	o	n/a
239.1245	0.09	478249	keystroke_t	t	n/a
239.3195	0.09	478639	keystroke_s	s	n/a
239.7995	0.075	479599	keystroke_Key.space	Key.space	n/a
240.0995	0.06	480199	keystroke_c	c	n/a
240.2795	0.075	480559	keystroke_h	h	n/a
240.7895	0.105	481579	keystroke_a	a	n/a
240.9995	0.075	481999	keystroke_r	r	n/a
241.1945	0.06	482389	keystroke_g	g	n/a
241.3445	0.075	482689	keystroke_e	e	n/a
241.5545	0.09	483109	keystroke_d	d	n/a
242.2895	0.06	484579	keystroke_Key.enter	Key.enter	n/a
242.3565	11.23	484713	prompt	n/a	distinguished johnson jerry provide\n
243.3245	0.045	486649	keystroke_d	d	n/a
243.7595	0.075	487519	keystroke_i	i	n/a
243.9695	0.06	487939	keystroke_s	s	n/a
244.1195	0.105	488239	keystroke_c	c	n/a
244.7795	0.075	489559	keystroke_Key.backspace	Key.backspace	n/a
245.199	0.09	490398	keystroke_t	t	n/a
245.394	0.09	490788	keystroke_i	i	n/a
245.679	0.045	491358	keystroke_n	n	n/a
246.309	0.075	492618	keystroke_g	g	n/a
246.594	0.075	493188	keystroke_u	u	n/a
246.7445	0.1195	493489	keystroke_i	i	n/a
247.044	0.0755	494088	keystroke_s	s	n/a
247.194	0.075	494388	keystroke_h	h	n/a
247.299	0.09	494598	keystroke_e	e	n/a
247.479	0.09	494958	keystroke_d	d	n/a
247.584	0.075	495168	keystroke_Key.space	Key.space	n/a
247.839	0.075	495678	keystroke_j	j	n/a
248.034	0.09	496068	keystroke_o	o	n/a
248.589	0.045	497178	keystroke_h	h	n/a
248.769	0.06	497538	keystroke_n	n	n/a
249.009	0.075	498018	keystroke_s	s	n/a
249.114	0.12	498228	keystroke_o	o	n/a
249.144	0.135	498288	keystroke_n	n	n/a
249.459	0.09	498918	keystroke_Key.space	Key.space	n/a
249.744	0.075	499488	keystroke_j	j	n/a
249.954	0.12	499908	keystroke_e	e	n/a
250.014	0.12	500028	keystroke_r	r	n/a
250.464	0.06	500928	keystroke_r	r	n/a
250.659	0.06	501318	keystroke_y	y	n/a
250.869	0.045	501738	keystroke_Key.space	Key.space	n/a
251.019	0.09	502038	keystroke_p	p	n/a
251.349	0.09	502698	keystroke_o	o	n/a
251.769	0.075	503538	keystroke_Key.backspace	Key.backspace	n/a
251.889	0.09	503778	keystroke_r	r	n/a
252.039	0.105	504078	keystroke_o	o	n/a
252.384	0.075	504768	keystroke_v	v	n/a
252.579	0.09	505158	keystroke_i	i	n/a
252.699	0.075	505398	keystroke_d	d	n/a
252.894	0.075	505788	keystroke_e	e	n/a
253.524	0.06	507048	keystroke_Key.enter	Key.enter	n/a
253.591	6.5355	507182	prompt	n/a	hired research flag cuts\n
254.499	0.075	508998	keystroke_h	h	n/a
254.664	0.075	509328	keystroke_i	i	n/a
254.919	0.09	509838	keystroke_r	r	n/a
254.979	0.09	509958	keystroke_e	e	n/a
255.174	0.09	510348	keystroke_d	d	n/a
255.309	0.075	510618	keystroke_Key.space	Key.space	n/a
255.609	0.105	511218	keystroke_r	r	n/a
255.639	0.105	511278	keystroke_e	e	n/a
255.879	0.09	511758	keystroke_s	s	n/a
256.134	0.105	512268	keystroke_e	e	n/a
256.314	0.15	512628	keystroke_a	a	n/a
256.614	0.09	513228	keystroke_r	r	n/a
256.869	0.075	513738	keystroke_c	c	n/a
257.064	0.06	514128	keystroke_h	h	n/a
257.319	0.06	514638	keystroke_Key.space	Key.space	n/a
257.664	0.075	515328	keystroke_f	f	n/a
257.829	0.09	515658	keystroke_l	l	n/a
257.994	0.12	515988	keystroke_a	a	n/a
258.354	0.06	516708	keystroke_g	g	n/a
258.534	0.09	517068	keystroke_Key.space	Key.space	n/a
258.864	0.06	517728	keystroke_c	c	n/a
259.029	0.06	518058	keystroke_u	u	n/a
259.179	0.12	518358	keystroke_t	t	n/a
259.434	0.09	518868	keystroke_s	s	n/a
260.064	0.06	520128	keystroke_Key.enter	Key.enter	n/a
260.1325	6.3995	520265	prompt	n/a	ashley territory anti solve\n
260.769	0.1055	521538	keystroke_a	a	n/a
260.964	0.075	521928	keystroke_s	s	n/a
261.054	0.0755	522108	keystroke_h	h	n/a
261.294	0.105	522588	keystroke_l	l	n/a
261.384	0.09	522768	keystroke_e	e	n/a
261.624	0.075	523248	keystroke_y	y	n/a
261.834	0.09	523668	keystroke_Key.space	Key.space	n/a
262.314	0.075	524628	keystroke_t	t	n/a
262.509	0.135	525018	keystroke_e	e	n/a
262.584	0.105	525168	keystroke_r	r	n/a
262.929	0.0605	525858	keystroke_r	r	n/a
263.139	0.075	526278	keystroke_i	i	n/a
263.4245	0.0745	526849	keystroke_t	t	n/a
263.559	0.0905	527118	keystroke_o	o	n/a
263.724	0.045	527448	keystroke_r	r	n/a
263.814	0.0755	527628	keystroke_y	y	n/a
264.039	0.0755	528078	keystroke_Key.space	Key.space	n/a
264.3845	0.105	528769	keystroke_a	a	n/a
264.5045	0.075	529009	keystroke_n	n	n/a
264.8045	0.09	529609	keystroke_t	t	n/a
264.9395	0.0895	529879	keystroke_i	i	n/a
265.1495	0.09	530299	keystroke_Key.space	Key.space	n/a
265.3895	0.06	530779	keystroke_s	s	n/a
265.4645	0.09	530929	keystroke_o	o	n/a
265.6295	0.12	531259	keystroke_l	l	n/a
265.6895	0.09	531379	keystroke_v	v	n/a
265.8545	0.09	531709	keystroke_e	e	n/a
266.4545	0.075	532909	keystroke_Key.enter	Key.enter	n/a
266.5365	8.2	533073	prompt	n/a	innovation jury counted said\n
267.2345	0.075	534469	keystroke_i	i	n/a
267.4445	0.045	534889	keystroke_n	n	n/a
267.5945	0.045	535189	keystroke_n	n	n/a
267.7595	0.075	535519	keystroke_o	o	n/a
267.9545	0.09	535909	keystroke_v	v	n/a
268.8995	0.105	537799	keystroke_a	a	n/a
269.0495	0.09	538099	keystroke_t	t	n/a
269.0945	0.135	538189	keystroke_i	i	n/a
269.1995	0.09	538399	keystroke_o	o	n/a
269.2445	0.09	538489	keystroke_n	n	n/a
269.4245	0.075	538849	keystroke_Key.space	Key.space	n/a
269.6795	0.075	539359	keystroke_j	j	n/a
269.8895	0.075	539779	keystroke_u	u	n/a
270.0245	0.09	540049	keystroke_r	r	n/a
270.2045	0.075	540409	keystroke_s	s	n/a
270.3395	0.09	540679	keystroke_t	t	n/a
270.5045	0.075	541009	keystroke_y	y	n/a
270.8945	0.075	541789	keystroke_Key.backspace	Key.backspace	n/a
271.0445	0.06	542089	keystroke_Key.backspace	Key.backspace	n/a
271.1795	0.075	542359	keystroke_Key.backspace	Key.backspace	n/a
271.4195	0.06	542839	keystroke_y	y	n/a
271.7045	0.075	543409	keystroke_Key.space	Key.space	n/a
272.2295	0.045	544459	keystroke_c	c	n/a
272.3195	0.12	544639	keystroke_o	o	n/a
272.4095	0.09	544819	keystroke_u	u	n/a
272.6195	0.09	545239	keystroke_n	n	n/a
272.7245	0.105	545449	keystroke_t	t	n/a
272.8595	0.12	545719	keystroke_e	e	n/a
273.0845	0.09	546169	keystroke_d	d	n/a
273.2345	0.075	546469	keystroke_Key.space	Key.space	n/a
273.4745	0.09	546949	keystroke_s	s	n/a
273.6545	0.09	547309	keystroke_a	a	n/a
273.7295	0.09	547459	keystroke_i	i	n/a
273.9395	0.09	547879	keystroke_d	d	n/a
274.6745	0.06	549349	keystroke_Key.enter	Key.enter	n/a
274.7415	6.445	549483	prompt	n/a	outlets full up export\n
275.4995	0.105	550999	keystroke_o	o	n/a
275.5745	0.09	551149	keystroke_u	u	n/a
275.7245	0.09	551449	keystroke_t	t	n/a
275.8445	0.105	551689	keystroke_l	l	n/a
275.9795	0.105	551959	keystroke_e	e	n/a
276.2195	0.09	552439	keystroke_t	t	n/a
276.4145	0.075	552829	keystroke_s	s	n/a
276.5345	0.09	553069	keystroke_Key.space	Key.space	n/a
276.7745	0.045	553549	keystroke_f	f	n/a
276.9695	0.015	553939	keystroke_u	u	n/a
277.1345	0.061	554269	keystroke_l	l	n/a
277.2545	0.06	554509	keystroke_l	l	n/a
277.3745	0.09	554749	keystroke_Key.space	Key.space	n/a
277.6895	0.06	555379	keystroke_u	u	n/a
277.8545	0.075	555709	keystroke_p	p	n/a
278.0045	0.105	556009	keystroke_Key.space	Key.space	n/a
278.2145	0.06	556429	keystroke_e	e	n/a
279.3095	0.06	558619	keystroke_x	x	n/a
279.6395	0.06	559279	keystroke_p	p	n/a
279.8345	0.075	559669	keystroke_o	o	n/a
279.9845	0.075	559969	keystroke_r	r	n/a
280.1795	0.045	560359	keystroke_t	t	n/a
281.14	0.045	562280	keystroke_Key.enter	Key.enter	n/a
281.1925	7.149	562385	prompt	n/a	locally nested officer broad\n
281.98	0.105	563960	keystroke_l	l	n/a
282.205	0.0745	564410	keystroke_o	o	n/a
282.3845	0.09	564769	keystroke_c	c	n/a
282.5795	0.09	565159	keystroke_a	a	n/a
282.7595	0.045	565519	keystroke_l	l	n/a
282.9095	0.045	565819	keystroke_l	l	n/a
283.0445	0.06	566089	keystroke_y	y	n/a
283.2545	0.075	566509	keystroke_Key.space	Key.space	n/a
283.4795	0.045	566959	keystroke_n	n	n/a
283.5845	0.09	567169	keystroke_e	e	n/a
283.7795	0.105	567559	keystroke_s	s	n/a
283.9295	0.09	567859	keystroke_t	t	n/a
284.0945	0.135	568189	keystroke_e	e	n/a
284.3345	0.06	568669	keystroke_d	d	n/a
284.4545	0.06	568909	keystroke_Key.space	Key.space	n/a
284.6945	0.09	569389	keystroke_o	o	n/a
284.8595	0.045	569719	keystroke_f	f	n/a
285.0095	0.045	570019	keystroke_f	f	n/a
285.0995	0.105	570199	keystroke_i	i	n/a
285.2195	0.075	570439	keystroke_c	c	n/a
285.4745	0.106	570949	keystroke_e	e	n/a
285.5195	0.075	571039	keystroke_r	r	n/a
285.6695	0.09	571339	keystroke_Key.space	Key.space	n/a
285.9245	0.075	571849	keystroke_b	b	n/a
286.0595	0.121	572119	keystroke_r	r	n/a
286.1645	0.12	572329	keystroke_e	e	n/a
286.7045	0.075	573409	keystroke_Key.backspace	Key.backspace	n/a
286.9605	0.089	573921	keystroke_o	o	n/a
287.1395	0.09	574279	keystroke_a	a	n/a
287.5295	0.075	575059	keystroke_d	d	n/a
288.2795	0.06	576559	keystroke_Key.enter	Key.enter	n/a
288.346	9.34	576692	prompt	n/a	stack delicious neon 'tis\n
289.029	0.09	578058	keystroke_s	s	n/a
289.194	0.09	578388	keystroke_t	t	n/a
289.404	0.105	578808	keystroke_a	a	n/a
289.524	0.0905	579048	keystroke_c	c	n/a
289.659	0.075	579318	keystroke_k	k	n/a
289.809	0.0905	579618	keystroke_Key.space	Key.space	n/a
290.214	0.06	580428	keystroke_d	d	n/a
290.394	0.045	580788	keystroke_e	e	n/a
290.574	0.09	581148	keystroke_l	l	n/a
290.83	0.059	581660	keystroke_i	i	n/a
291.219	0.06	582438	keystroke_c	c	n/a
291.385	0.119	582770	keystroke_i	i	n/a
291.654	0.12	583308	keystroke_o	o	n/a
291.744	0.105	583488	keystroke_u	u	n/a
292.209	0.075	584418	keystroke_s	s	n/a
292.419	0.075	584838	keystroke_Key.space	Key.space	n/a
292.959	0.075	585918	keystroke_n	n	n/a
293.064	0.12	586128	keystroke_e	e	n/a
293.274	0.09	586548	keystroke_o	o	n/a
294.4295	0.074	588859	keystroke_n	n	n/a
294.6385	0.075	589277	keystroke_Key.space	Key.space	n/a
296.0185	0.075	592037	keystroke_'	'	n/a
296.5435	0.06	593087	keystroke_t	t	n/a
296.6935	0.09	593387	keystroke_i	i	n/a
296.8735	0.06	593747	keystroke_s	s	n/a
297.6235	0.06	595247	keystroke_Key.enter	Key.enter	n/a
297.692	9.8335	595384	prompt	n/a	out fragrance spectrum physical\n
298.3885	0.121	596777	keystroke_o	o	n/a
298.4485	0.106	596897	keystroke_u	u	n/a
298.6135	0.075	597227	keystroke_t	t	n/a
298.7635	0.075	597527	keystroke_Key.space	Key.space	n/a
298.8985	0.075	597797	keystroke_f	f	n/a
299.0935	0.105	598187	keystroke_r	r	n/a
299.3345	0.104	598669	keystroke_a	a	n/a
299.4995	0.074	598999	keystroke_g	g	n/a
299.6785	0.075	599357	keystroke_r	r	n/a
299.8595	0.089	599719	keystroke_a	a	n/a
299.9935	0.075	599987	keystroke_n	n	n/a
300.0995	0.119	600199	keystroke_c	c	n/a
300.2035	0.075	600407	keystroke_e	e	n/a
300.3085	0.075	600617	keystroke_Key.space	Key.space	n/a
300.6535	0.06	601307	keystroke_s	s	n/a
300.7885	0.075	601577	keystroke_p	p	n/a
301.1345	0.059	602269	keystroke_e	e	n/a
301.4335	0.12	602867	keystroke_c	c	n/a
301.7335	0.075	603467	keystroke_t	t	n/a
301.8985	0.075	603797	keystroke_r	r	n/a
302.0635	0.075	604127	keystroke_u	u	n/a
302.2885	0.076	604577	keystroke_m	m	n/a
302.4835	0.075	604967	keystroke_Key.space	Key.space	n/a
302.7695	0.074	605539	keystroke_p	p	n/a
302.9785	0.075	605957	keystroke_h	h	n/a
303.2035	0.06	606407	keystroke_u	u	n/a
303.2185	0.046	606437	keystroke_y	y	n/a
303.5635	0.075	607127	keystroke_s	s	n/a
304.1635	0.075	608327	keystroke_Key.backspace	Key.backspace	n/a
304.3135	0.075	608627	keystroke_Key.backspace	Key.backspace	n/a
304.643	0.06	609286	keystroke_Key.backspace	Key.backspace	n/a
305.289	0.045	610578	keystroke_u	u	n/a
305.663	0.0755	611326	keystroke_Key.backspace	Key.backspace	n/a
305.904	0.059	611808	keystroke_y	y	n/a
306.263	0.075	612526	keystroke_s	s	n/a
306.413	0.076	612826	keystroke_i	i	n/a
306.5035	0.1195	613007	keystroke_c	c	n/a
306.683	0.105	613366	keystroke_a	a	n/a
306.8035	0.0905	613607	keystroke_l	l	n/a
307.463	0.0605	614926	keystroke_Key.enter	Key.enter	n/a
307.536	9.8595	615072	prompt	n/a	suppliers jade robinson interested\n
308.199	0.06	616398	keystroke_s	s	n/a
308.439	0.089	616878	keystroke_u	u	n/a
308.934	0.06	617868	keystroke_p	p	n/a
309.549	0.075	619098	keystroke_p	p	n/a
310.089	0.074	620178	keystroke_l	l	n/a
310.313	0.076	620626	keystroke_i	i	n/a
310.493	0.166	620986	keystroke_e	e	n/a
310.613	0.105	621226	keystroke_r	r	n/a
310.854	0.075	621708	keystroke_s	s	n/a
310.988	0.06	621976	keystroke_Key.space	Key.space	n/a
311.273	0.046	622546	keystroke_j	j	n/a
311.394	0.134	622788	keystroke_a	a	n/a
311.889	0.12	623778	keystroke_d	d	n/a
312.098	0.061	624196	keystroke_e	e	n/a
312.173	0.06	624346	keystroke_Key.space	Key.space	n/a
312.624	0.06	625248	keystroke_r	r	n/a
312.728	0.135	625456	keystroke_o	o	n/a
313.434	0.059	626868	keystroke_b	b	n/a
314.004	0.089	628008	keystroke_i	i	n/a
314.184	0.089	628368	keystroke_n	n	n/a
314.454	0.059	628908	keystroke_s	s	n/a
314.558	0.135	629116	keystroke_o	o	n/a
314.648	0.091	629296	keystroke_n	n	n/a
314.918	0.06	629836	keystroke_Key.space	Key.space	n/a
315.204	0.06	630408	keystroke_i	i	n/a
315.354	0.075	630708	keystroke_n	n	n/a
315.594	0.06	631188	keystroke_t	t	n/a
315.773	0.121	631546	keystroke_e	e	n/a
315.848	0.075	631696	keystroke_r	r	n/a
316.044	0.104	632088	keystroke_e	e	n/a
316.268	0.091	632536	keystroke_s	s	n/a
316.389	0.104	632778	keystroke_t	t	n/a
316.538	0.091	633076	keystroke_e	e	n/a
316.718	0.105	633436	keystroke_d	d	n/a
317.318	0.075	634636	keystroke_Key.enter	Key.enter	n/a
317.4015	9.204	634803	prompt	n/a	tabs reward latex evil\n
318.068	0.105	636136	keystroke_t	t	n/a
318.249	0.105	636498	keystroke_a	a	n/a
318.354	0.09	636708	keystroke_b	b	n/a
318.488	0.091	636976	keystroke_s	s	n/a
318.623	0.09	637246	keystroke_Key.space	Key.space	n/a
318.864	0.09	637728	keystroke_r	r	n/a
318.909	0.135	637818	keystroke_e	e	n/a
319.388	0.106	638776	keystroke_q	q	n/a
319.689	0.045	639378	keystroke_u	u	n/a
320.199	0.074	640398	keystroke_Key.backspace	Key.backspace	n/a
320.304	0.105	640608	keystroke_a	a	n/a
320.634	0.059	641268	keystroke_Key.backspace	Key.backspace	n/a
320.768	0.091	641536	keystroke_Key.backspace	Key.backspace	n/a
320.964	0.06	641928	keystroke_q	q	n/a
321.638	0.061	643276	keystroke_Key.backspace	Key.backspace	n/a
322.269	0.09	644538	keystroke_w	w	n/a
322.614	0.09	645228	keystroke_a	a	n/a
322.809	0.06	645618	keystroke_r	r	n/a
323.048	0.136	646096	keystroke_d	d	n/a
323.154	0.105	646308	keystroke_s	s	n/a
323.634	0.074	647268	keystroke_Key.space	Key.space	n/a
323.859	0.09	647718	keystroke_l	l	n/a
324.024	0.105	648048	keystroke_a	a	n/a
324.218	0.076	648436	keystroke_t	t	n/a
324.369	0.12	648738	keystroke_e	e	n/a
324.684	0.105	649368	keystroke_x	x	n/a
324.954	0.059	649908	keystroke_Key.space	Key.space	n/a
325.149	0.075	650298	keystroke_e	e	n/a
325.434	0.089	650868	keystroke_v	v	n/a
325.644	0.09	651288	keystroke_i	i	n/a
325.854	0.09	651708	keystroke_l	l	n/a
326.499	0.105	652998	keystroke_Key.enter	Key.enter	n/a
326.61	9.2215	653220	prompt	n/a	shell pipes deferred taxes\n
327.309	0.06	654618	keystroke_s	s	n/a
327.489	0.075	654978	keystroke_h	h	n/a
327.654	0.075	655308	keystroke_e	e	n/a
327.849	0.074	655698	keystroke_l	l	n/a
327.984	0.06	655968	keystroke_l	l	n/a
328.104	0.075	656208	keystroke_Key.space	Key.space	n/a
328.284	0.09	656568	keystroke_p	p	n/a
328.524	0.105	657048	keystroke_i	i	n/a
328.794	0.09	657588	keystroke_p	p	n/a
329.139	0.075	658278	keystroke_e	e	n/a
329.364	0.075	658728	keystroke_s	s	n/a
329.454	0.074	658908	keystroke_Key.space	Key.space	n/a
329.844	0.06	659688	keystroke_d	d	n/a
330.054	0.105	660108	keystroke_e	e	n/a
330.339	0.06	660678	keystroke_f	f	n/a
330.759	0.06	661518	keystroke_e	e	n/a
331.074	0.06	662148	keystroke_r	r	n/a
331.224	0.06	662448	keystroke_r	r	n/a
331.599	0.075	663198	keystroke_d	d	n/a
332.349	0.075	664698	keystroke_Key.backspace	Key.backspace	n/a
332.454	0.075	664908	keystroke_e	e	n/a
332.604	0.12	665208	keystroke_d	d	n/a
332.784	0.075	665568	keystroke_Key.space	Key.space	n/a
333.204	0.075	666408	keystroke_t	t	n/a
333.639	0.075	667278	keystroke_a	a	n/a
335.079	0.06	670158	keystroke_x	x	n/a
335.289	0.045	670578	keystroke_e	e	n/a
335.529	0.075	671058	keystroke_s	s	n/a
335.754	0.075	671508	keystroke_Key.enter	Key.enter	n/a
335.837	14.6035	671674	prompt	n/a	execute francisco extent revenues\n
336.639	0.075	673278	keystroke_e	e	n/a
337.764	0.06	675528	keystroke_x	x	n/a
338.649	0.075	677298	keystroke_e	e	n/a
339.024	0.075	678048	keystroke_c	c	n/a
339.219	0.06	678438	keystroke_u	u	n/a
339.339	0.12	678678	keystroke_t	t	n/a
339.489	0.09	678978	keystroke_e	e	n/a
339.579	0.075	679158	keystroke_Key.space	Key.space	n/a
339.804	0.09	679608	keystroke_f	f	n/a
340.014	0.09	680028	keystroke_r	r	n/a
340.224	0.09	680448	keystroke_a	a	n/a
340.374	0.06	680748	keystroke_n	n	n/a
340.809	0.075	681618	keystroke_i	i	n/a
341.334	0.075	682668	keystroke_Key.backspace	Key.backspace	n/a
341.424	0.09	682848	keystroke_c	c	n/a
341.679	0.075	683358	keystroke_i	i	n/a
341.964	0.06	683928	keystroke_s	s	n/a
342.429	0.075	684858	keystroke_c	c	n/a
342.579	0.09	685158	keystroke_o	o	n/a
342.774	0.09	685548	keystroke_Key.space	Key.space	n/a
343.059	0.06	686118	keystroke_e	e	n/a
344.214	0.075	688428	keystroke_x	x	n/a
344.544	0.1045	689088	keystroke_t	t	n/a
344.7535	0.075	689507	keystroke_e	e	n/a
344.8735	0.105	689747	keystroke_n	n	n/a
344.9935	0.075	689987	keystroke_t	t	n/a
346.1935	0.075	692387	keystroke_Key.space	Key.space	n/a
346.5235	0.106	693047	keystroke_r	r	n/a
346.5835	0.09	693167	keystroke_e	e	n/a
346.8235	0.075	693647	keystroke_v	v	n/a
347.0635	0.06	694127	keystroke_e	e	n/a
347.1985	0.09	694397	keystroke_n	n	n/a
347.4835	0.075	694967	keystroke_u	u	n/a
347.6035	0.105	695207	keystroke_r	r	n/a
348.1435	0.075	696287	keystroke_e	e	n/a
349.0135	0.06	698027	keystroke_Key.backspace	Key.backspace	n/a
349.1335	0.09	698267	keystroke_Key.backspace	Key.backspace	n/a
349.2385	0.105	698477	keystroke_e	e	n/a
349.4485	0.075	698897	keystroke_s	s	n/a
350.3635	0.075	700727	keystroke_Key.enter	Key.enter	n/a
350.446	7.39	700892	prompt	n/a	month originally homeless yours\n
351.2035	0.075	702407	keystroke_m	m	n/a
351.3835	0.09	702767	keystroke_o	o	n/a
351.4435	0.12	702887	keystroke_n	n	n/a
351.6395	0.059	703279	keystroke_t	t	n/a
351.7435	0.06	703487	keystroke_h	h	n/a
352.0135	0.015	704027	keystroke_Key.space	Key.space	n/a
352.1195	0.089	704239	keystroke_o	o	n/a
352.2835	0.075	704567	keystroke_r	r	n/a
352.4635	0.075	704927	keystroke_i	i	n/a
353.2745	0.074	706549	keystroke_g	g	n/a
353.4845	0.074	706969	keystroke_i	i	n/a
353.6185	0.106	707237	keystroke_n	n	n/a
353.9635	0.09	707927	keystroke_a	a	n/a
354.1585	0.06	708317	keystroke_l	l	n/a
354.2785	0.09	708557	keystroke_l	l	n/a
354.4735	0.06	708947	keystroke_y	y	n/a
354.6535	0.09	709307	keystroke_Key.space	Key.space	n/a
354.9985	0.09	709997	keystroke_h	h	n/a
355.1935	0.165	710387	keystroke_o	o	n/a
355.2835	0.12	710567	keystroke_m	m	n/a
355.4935	0.09	710987	keystroke_e	e	n/a
355.6585	0.091	711317	keystroke_l	l	n/a
355.8095	0.074	711619	keystroke_e	e	n/a
356.0485	0.075	712097	keystroke_s	s	n/a
356.1835	0.075	712367	keystroke_s	s	n/a
356.2435	0.12	712487	keystroke_Key.space	Key.space	n/a
356.5585	0.045	713117	keystroke_y	y	n/a
356.6785	0.121	713357	keystroke_o	o	n/a
356.7385	0.091	713477	keystroke_u	u	n/a
356.8735	0.06	713747	keystroke_r	r	n/a
357.0685	0.09	714137	keystroke_s	s	n/a
357.7585	0.075	715517	keystroke_Key.enter	Key.enter	n/a
357.841	7.466	715682	prompt	n/a	powerful assuming enhancing cons\n
358.4645	0.074	716929	keystroke_p	p	n/a
358.6745	0.075	717349	keystroke_o	o	n/a
359.0645	0.104	718129	keystroke_w	w	n/a
359.1835	0.135	718367	keystroke_e	e	n/a
359.2595	0.12	718519	keystroke_r	r	n/a
359.6345	0.06	719269	keystroke_f	f	n/a
359.7685	0.061	719537	keystroke_u	u	n/a
359.9635	0.091	719927	keystroke_l	l	n/a
360.0985	0.105	720197	keystroke_Key.space	Key.space	n/a
360.2945	0.105	720589	keystroke_a	a	n/a
360.5945	0.06	721189	keystroke_s	s	n/a
360.7295	0.075	721459	keystroke_s	s	n/a
360.8195	0.075	721639	keystroke_u	u	n/a
361.0295	0.074	722059	keystroke_m	m	n/a
361.2085	0.105	722417	keystroke_i	i	n/a
361.2845	0.104	722569	keystroke_n	n	n/a
361.4185	0.075	722837	keystroke_g	g	n/a
361.5385	0.075	723077	keystroke_Key.space	Key.space	n/a
361.9595	0.074	723919	keystroke_e	e	n/a
362.0795	0.074	724159	keystroke_n	n	n/a
362.4545	0.059	724909	keystroke_h	h	n/a
362.5895	0.104	725179	keystroke_a	a	n/a
362.7385	0.091	725477	keystroke_n	n	n/a
363.1145	0.075	726229	keystroke_c	c	n/a
363.3095	0.119	726619	keystroke_i	i	n/a
363.4145	0.075	726829	keystroke_n	n	n/a
363.5345	0.075	727069	keystroke_g	g	n/a
363.9235	0.076	727847	keystroke_Key.space	Key.space	n/a
364.1935	0.061	728387	keystroke_c	c	n/a
364.2845	0.105	728569	keystroke_o	o	n/a
364.3135	0.121	728627	keystroke_n	n	n/a
364.6135	0.091	729227	keystroke_s	s	n/a
365.2295	0.075	730459	keystroke_Key.enter	Key.enter	n/a
365.3115	14.319	730623	prompt	n/a	photographer evaluate terminology openings\n
366.0545	0.075	732109	keystroke_p	p	n/a
366.2195	0.075	732439	keystroke_r	r	n/a
366.6245	0.075	733249	keystroke_h	h	n/a
367.238	0.061	734476	keystroke_Key.backspace	Key.backspace	n/a
367.373	0.09	734746	keystroke_Key.backspace	Key.backspace	n/a
367.629	0.089	735258	keystroke_h	h	n/a
367.838	0.091	735676	keystroke_o	o	n/a
368.109	0.09	736218	keystroke_t	t	n/a
368.229	0.074	736458	keystroke_o	o	n/a
368.423	0.075	736846	keystroke_g	g	n/a
368.603	0.105	737206	keystroke_r	r	n/a
368.814	0.12	737628	keystroke_a	a	n/a
368.964	0.12	737928	keystroke_p	p	n/a
369.189	0.09	738378	keystroke_h	h	n/a
369.293	0.121	738586	keystroke_e	e	n/a
369.339	0.105	738678	keystroke_r	r	n/a
369.683	0.091	739366	keystroke_Key.space	Key.space	n/a
369.969	0.089	739938	keystroke_e	e	n/a
370.269	0.089	740538	keystroke_v	v	n/a
370.464	0.09	740928	keystroke_a	a	n/a
370.583	0.105	741166	keystroke_l	l	n/a
370.794	0.075	741588	keystroke_u	u	n/a
371.469	0.105	742938	keystroke_a	a	n/a
371.618	0.091	743236	keystroke_t	t	n/a
371.724	0.105	743448	keystroke_e	e	n/a
371.933	0.06	743866	keystroke_Key.space	Key.space	n/a
372.204	0.104	744408	keystroke_t	t	n/a
372.414	0.104	744828	keystroke_e	e	n/a
372.459	0.104	744918	keystroke_r	r	n/a
372.789	0.074	745578	keystroke_m	m	n/a
372.968	0.076	745936	keystroke_i	i	n/a
373.104	0.089	746208	keystroke_n	n	n/a
373.284	0.104	746568	keystroke_o	o	n/a
373.478	0.091	746956	keystroke_l	l	n/a
373.689	0.09	747378	keystroke_o	o	n/a
373.839	0.09	747678	keystroke_g	g	n/a
373.959	0.06	747918	keystroke_y	y	n/a
374.184	0.075	748368	keystroke_Key.space	Key.space	n/a
374.454	0.089	748908	keystroke_o	o	n/a
374.649	0.075	749298	keystroke_p	p	n/a
374.814	0.075	749628	keystroke_e	e	n/a
374.904	0.09	749808	keystroke_n	n	n/a
375.218	0.091	750436	keystroke_i	i	n/a
376.434	0.075	752868	keystroke_i	i	n/a
376.554	0.09	753108	keystroke_n	n	n/a
376.809	0.075	753618	keystroke_g	g	n/a
377.214	0.059	754428	keystroke_Key.backspace	Key.backspace	n/a
377.364	0.06	754728	keystroke_Key.backspace	Key.backspace	n/a
377.499	0.059	754998	keystroke_Key.backspace	Key.backspace	n/a
377.724	0.075	755448	keystroke_n	n	n/a
377.874	0.075	755748	keystroke_g	g	n/a
378.054	0.06	756108	keystroke_s	s	n/a
378.159	0.06	756318	keystroke_Key.space	Key.space	n/a
378.788	0.091	757576	keystroke_Key.backspace	Key.backspace	n/a
379.569	0.06	759138	keystroke_Key.enter	Key.enter	n/a
379.6355	8.9205	759271	prompt	n/a	yards detailed historical holocaust\n
380.499	0.06	760998	keystroke_y	y	n/a
380.799	0.12	761598	keystroke_a	a	n/a
380.949	0.105	761898	keystroke_r	r	n/a
381.189	0.135	762378	keystroke_d	d	n/a
381.309	0.12	762618	keystroke_s	s	n/a
381.534	0.075	763068	keystroke_Key.space	Key.space	n/a
381.849	0.06	763698	keystroke_d	d	n/a
382.014	0.09	764028	keystroke_e	e	n/a
382.299	0.075	764598	keystroke_t	t	n/a
382.479	0.09	764958	keystroke_a	a	n/a
382.629	0.09	765258	keystroke_i	i	n/a
382.809	0.105	765618	keystroke_l	l	n/a
382.959	0.075	765918	keystroke_e	e	n/a
383.139	0.09	766278	keystroke_d	d	n/a
383.23	0.089	766460	keystroke_Key.space	Key.space	n/a
383.619	0.06	767238	keystroke_h	h	n/a
383.814	0.075	767628	keystroke_i	i	n/a
383.964	0.075	767928	keystroke_s	s	n/a
384.144	0.06	768288	keystroke_t	t	n/a
384.294	0.09	768588	keystroke_o	o	n/a
384.519	0.075	769038	keystroke_r	r	n/a
384.624	0.075	769248	keystroke_i	i	n/a
384.834	0.09	769668	keystroke_c	c	n/a
384.984	0.09	769968	keystroke_a	a	n/a
385.089	0.075	770178	keystroke_l	l	n/a
385.224	0.09	770448	keystroke_Key.space	Key.space	n/a
385.509	0.06	771018	keystroke_h	h	n/a
385.659	0.09	771318	keystroke_o	o	n/a
385.839	0.075	771678	keystroke_l	l	n/a
386.019	0.045	772038	keystroke_o	o	n/a
386.574	0.09	773148	keystroke_c	c	n/a
386.814	0.135	773628	keystroke_a	a	n/a
387.324	0.06	774648	keystroke_u	u	n/a
387.759	0.09	775518	keystroke_s	s	n/a
387.879	0.12	775758	keystroke_t	t	n/a
388.494	0.06	776988	keystroke_Key.enter	Key.enter	n/a
388.562	12.5345	777124	prompt	n/a	cartridge casual possession mixture\n
389.724	0.09	779448	keystroke_c	c	n/a
389.889	0.135	779778	keystroke_a	a	n/a
390.114	0.06	780228	keystroke_r	r	n/a
390.279	0.075	780558	keystroke_t	t	n/a
391.629	0.06	783258	keystroke_r	r	n/a
391.854	0.075	783708	keystroke_i	i	n/a
392.079	0.045	784158	keystroke_d	d	n/a
392.529	0.09	785058	keystroke_g	g	n/a
392.694	0.135	785388	keystroke_e	e	n/a
392.784	0.075	785568	keystroke_r	r	n/a
393.039	0.09	786078	keystroke_Key.space	Key.space	n/a
393.309	0.105	786618	keystroke_c	c	n/a
393.744	0.075	787488	keystroke_Key.backspace	Key.backspace	n/a
393.894	0.075	787788	keystroke_Key.backspace	Key.backspace	n/a
394.044	0.0745	788088	keystroke_Key.backspace	Key.backspace	n/a
394.2835	0.09	788567	keystroke_Key.space	Key.space	n/a
394.6735	0.09	789347	keystroke_c	c	n/a
394.8535	0.105	789707	keystroke_a	a	n/a
395.3035	0.09	790607	keystroke_s	s	n/a
395.5135	0.045	791027	keystroke_u	u	n/a
395.9185	0.075	791837	keystroke_a	a	n/a
396.0235	0.09	792047	keystroke_l	l	n/a
396.1735	0.09	792347	keystroke_Key.space	Key.space	n/a
396.4135	0.09	792827	keystroke_p	p	n/a
396.6545	0.074	793309	keystroke_o	o	n/a
396.9835	0.06	793967	keystroke_s	s	n/a
397.1335	0.045	794267	keystroke_s	s	n/a
397.4495	0.059	794899	keystroke_e	e	n/a
397.7035	0.06	795407	keystroke_s	s	n/a
397.8545	0.06	795709	keystroke_s	s	n/a
397.9435	0.165	795887	keystroke_i	i	n/a
398.0485	0.09	796097	keystroke_o	o	n/a
398.0935	0.09	796187	keystroke_n	n	n/a
398.2885	0.06	796577	keystroke_Key.space	Key.space	n/a
398.4985	0.075	796997	keystroke_m	m	n/a
398.6785	0.09	797357	keystroke_i	i	n/a
399.4595	0.089	798919	keystroke_x	x	n/a
399.9685	0.075	799937	keystroke_t	t	n/a
400.1485	0.06	800297	keystroke_u	u	n/a
400.2385	0.105	800477	keystroke_r	r	n/a
400.2995	0.089	800599	keystroke_e	e	n/a
401.0335	0.06	802067	keystroke_Key.enter	Key.enter	n/a
401.1035	11.632	802207	prompt	n/a	digit patient sheer heath\n
401.8595	0.074	803719	keystroke_d	d	n/a
401.9785	0.09	803957	keystroke_i	i	n/a
402.1285	0.06	804257	keystroke_g	g	n/a
402.2795	0.089	804559	keystroke_i	i	n/a
402.5635	0.045	805127	keystroke_g	g	n/a
402.9985	0.075	805997	keystroke_Key.backspace	Key.backspace	n/a
403.1345	0.075	806269	keystroke_t	t	n/a
403.2835	0.06	806567	keystroke_Key.space	Key.space	n/a
403.8985	0.091	807797	keystroke_p	p	n/a
404.0635	0.106	808127	keystroke_a	a	n/a
404.7395	0.06	809479	keystroke_t	t	n/a
404.9795	0.074	809959	keystroke_i	i	n/a
405.0995	0.135	810199	keystroke_e	e	n/a
405.4285	0.061	810857	keystroke_n	n	n/a
405.5785	0.061	811157	keystroke_t	t	n/a
405.6535	0.075	811307	keystroke_Key.space	Key.space	n/a
405.9995	0.09	811999	keystroke_s	s	n/a
406.1045	0.075	812209	keystroke_h	h	n/a
406.3285	0.046	812657	keystroke_e	e	n/a
406.4485	0.06	812897	keystroke_e	e	n/a
406.6595	0.075	813319	keystroke_r	r	n/a
406.8235	0.075	813647	keystroke_Key.space	Key.space	n/a
407.1845	0.075	814369	keystroke_h	h	n/a
407.2745	0.104	814549	keystroke_e	e	n/a
407.4095	0.12	814819	keystroke_a	a	n/a
407.5435	0.091	815087	keystroke_l	l	n/a
407.6945	0.074	815389	keystroke_t	t	n/a
407.7835	0.061	815567	keystroke_h	h	n/a
410.2175	0.011	820435	keystroke_Key.backspace	Key.backspace	n/a
410.3045	0.074	820609	keystroke_Key.backspace	Key.backspace	n/a
410.9335	0.06	821867	keystroke_Key.backspace	Key.backspace	n/a
411.6395	0.074	823279	keystroke_t	t	n/a
411.7895	0.075	823579	keystroke_h	h	n/a
412.6735	0.06	825347	keystroke_Key.enter	Key.enter	n/a
412.742	8.0335	825484	prompt	n/a	span scripts sensitivity subjective\n
413.5895	0.075	827179	keystroke_s	s	n/a
413.6945	0.089	827389	keystroke_p	p	n/a
413.8585	0.091	827717	keystroke_a	a	n/a
413.979	0.075	827958	keystroke_n	n	n/a
414.158	0.09	828316	keystroke_Key.space	Key.space	n/a
414.353	0.091	828706	keystroke_s	s	n/a
414.533	0.091	829066	keystroke_c	c	n/a
414.759	0.12	829518	keystroke_r	r	n/a
414.924	0.105	829848	keystroke_i	i	n/a
415.119	0.09	830238	keystroke_p	p	n/a
415.254	0.075	830508	keystroke_t	t	n/a
415.433	0.076	830866	keystroke_s	s	n/a
415.494	0.074	830988	keystroke_Key.space	Key.space	n/a
415.7935	0.06	831587	keystroke_s	s	n/a
415.9435	0.075	831887	keystroke_e	e	n/a
416.1085	0.075	832217	keystroke_n	n	n/a
416.5735	0.075	833147	keystroke_s	s	n/a
416.7235	0.075	833447	keystroke_i	i	n/a
417.1885	0.06	834377	keystroke_t	t	n/a
417.2935	0.075	834587	keystroke_i	i	n/a
417.4885	0.045	834977	keystroke_v	v	n/a
417.5935	0.09	835187	keystroke_i	i	n/a
417.7435	0.075	835487	keystroke_t	t	n/a
417.8635	0.06	835727	keystroke_y	y	n/a
418.0885	0.075	836177	keystroke_Key.space	Key.space	n/a
418.4935	0.045	836987	keystroke_s	s	n/a
418.6285	0.075	837257	keystroke_u	u	n/a
418.8535	0.075	837707	keystroke_b	b	n/a
419.0935	0.09	838187	keystroke_j	j	n/a
419.2735	0.09	838547	keystroke_e	e	n/a
419.4685	0.075	838937	keystroke_c	c	n/a
419.6935	0.06	839387	keystroke_t	t	n/a
419.8135	0.105	839627	keystroke_i	i	n/a
419.9485	0.105	839897	keystroke_v	v	n/a
420.1285	0.075	840257	keystroke_e	e	n/a
420.6985	0.075	841397	keystroke_Key.enter	Key.enter	n/a
420.786	8.435	841572	prompt	n/a	possibilities hills remedy aging\n
421.4335	0.09	842867	keystroke_p	p	n/a
421.7035	0.075	843407	keystroke_o	o	n/a
421.9735	0.06	843947	keystroke_s	s	n/a
422.1085	0.06	844217	keystroke_s	s	n/a
422.1985	0.06	844397	keystroke_i	i	n/a
422.3785	0.105	844757	keystroke_b	b	n/a
422.6035	0.09	845207	keystroke_i	i	n/a
422.8135	0.09	845627	keystroke_l	l	n/a
423.0235	0.075	846047	keystroke_i	i	n/a
423.2635	0.06	846527	keystroke_t	t	n/a
423.9985	0.075	847997	keystroke_i	i	n/a
424.0885	0.06	848177	keystroke_e	e	n/a
424.2235	0.105	848447	keystroke_s	s	n/a
424.3585	0.075	848717	keystroke_Key.space	Key.space	n/a
424.7785	0.075	849557	keystroke_h	h	n/a
424.9135	0.09	849827	keystroke_i	i	n/a
425.1385	0.06	850277	keystroke_l	l	n/a
425.2735	0.06	850547	keystroke_l	l	n/a
425.4385	0.075	850877	keystroke_s	s	n/a
425.5885	0.075	851177	keystroke_Key.space	Key.space	n/a
426.0235	0.105	852047	keystroke_r	r	n/a
426.1135	0.06	852227	keystroke_e	e	n/a
426.2935	0.075	852587	keystroke_m	m	n/a
426.4135	0.075	852827	keystroke_e	e	n/a
426.7285	0.075	853457	keystroke_d	d	n/a
426.9835	0.06	853967	keystroke_y	y	n/a
427.2085	0.06	854417	keystroke_Key.space	Key.space	n/a
427.7485	0.105	855497	keystroke_a	a	n/a
427.9735	0.075	855947	keystroke_g	g	n/a
428.2135	0.105	856427	keystroke_i	i	n/a
428.3335	0.09	856667	keystroke_n	n	n/a
428.4535	0.075	856907	keystroke_g	g	n/a
429.1585	0.06	858317	keystroke_Key.enter	Key.enter	n/a
429.227	7.899	858454	prompt	n/a	lance diagnosis were italia\n
429.8335	0.105	859667	keystroke_l	l	n/a
429.9535	0.09	859907	keystroke_a	a	n/a
430.0735	0.09	860147	keystroke_n	n	n/a
430.2085	0.12	860417	keystroke_c	c	n/a
430.3435	0.09	860687	keystroke_e	e	n/a
430.4785	0.09	860957	keystroke_Key.space	Key.space	n/a
430.8085	0.045	861617	keystroke_d	d	n/a
431.3485	0.105	862697	keystroke_i	i	n/a
431.7235	0.12	863447	keystroke_a	a	n/a
431.9335	0.075	863867	keystroke_g	g	n/a
432.2335	0.091	864467	keystroke_n	n	n/a
432.4585	0.075	864917	keystroke_o	o	n/a
432.6385	0.075	865277	keystroke_s	s	n/a
432.7435	0.075	865487	keystroke_i	i	n/a
432.8485	0.045	865697	keystroke_s	s	n/a
433.2685	0.06	866537	keystroke_Key.space	Key.space	n/a
433.4935	0.12	866987	keystroke_w	w	n/a
433.6435	0.105	867287	keystroke_e	e	n/a
433.7335	0.15	867467	keystroke_r	r	n/a
433.8385	0.105	867677	keystroke_e	e	n/a
434.0935	0.06	868187	keystroke_Key.space	Key.space	n/a
434.2885	0.09	868577	keystroke_i	i	n/a
434.4385	0.075	868877	keystroke_t	t	n/a
434.6485	0.09	869297	keystroke_a	a	n/a
434.8135	0.075	869627	keystroke_l	l	n/a
434.9935	0.075	869987	keystroke_i	i	n/a
435.1295	0.044	870259	keystroke_t	t	n/a
436.2385	0.06	872477	keystroke_Key.backspace	Key.backspace	n/a
436.3735	0.105	872747	keystroke_a	a	n/a
437.0635	0.06	874127	keystroke_Key.enter	Key.enter	n/a
437.133	4.883	874266	prompt	n/a	wind males fist flag\n
437.9335	0.091	875867	keystroke_w	w	n/a
438.0385	0.15	876077	keystroke_i	i	n/a
438.2335	0.03	876467	keystroke_n	n	n/a
438.2785	0.075	876557	keystroke_d	d	n/a
438.4135	0.09	876827	keystroke_Key.space	Key.space	n/a
438.6985	0.091	877397	keystroke_m	m	n/a
438.9085	0.09	877817	keystroke_a	a	n/a
439.0285	0.105	878057	keystroke_l	l	n/a
439.2385	0.075	878477	keystroke_e	e	n/a
439.4035	0.09	878807	keystroke_s	s	n/a
439.4945	0.074	878989	keystroke_Key.space	Key.space	n/a
439.6885	0.06	879377	keystroke_f	f	n/a
439.7785	0.09	879557	keystroke_i	i	n/a
439.9285	0.105	879857	keystroke_s	s	n/a
440.0635	0.106	880127	keystroke_t	t	n/a
440.1535	0.075	880307	keystroke_Key.space	Key.space	n/a
440.5585	0.105	881117	keystroke_f	f	n/a
440.7835	0.075	881567	keystroke_l	l	n/a
440.9035	0.091	881807	keystroke_a	a	n/a
441.2635	0.06	882527	keystroke_g	g	n/a
441.953	0.06	883906	keystroke_Key.enter	Key.enter	n/a
442.024	6.893	884048	prompt	n/a	rico testimony postal joins\n
442.838	0.0755	885676	keystroke_r	r	n/a
443.063	0.075	886126	keystroke_i	i	n/a
443.183	0.09	886366	keystroke_c	c	n/a
443.318	0.09	886636	keystroke_o	o	n/a
443.498	0.09	886996	keystroke_Key.space	Key.space	n/a
443.738	0.106	887476	keystroke_t	t	n/a
443.933	0.09	887866	keystroke_e	e	n/a
444.174	0.075	888348	keystroke_s	s	n/a
444.593	0.075	889186	keystroke_t	t	n/a
444.803	0.075	889606	keystroke_i	i	n/a
445.043	0.06	890086	keystroke_m	m	n/a
445.313	0.121	890626	keystroke_o	o	n/a
445.464	0.104	890928	keystroke_n	n	n/a
445.808	0.06	891616	keystroke_y	y	n/a
446.033	0.09	892066	keystroke_Key.space	Key.space	n/a
446.244	0.074	892488	keystroke_p	p	n/a
446.468	0.076	892936	keystroke_o	o	n/a
446.588	0.09	893176	keystroke_s	s	n/a
446.708	0.091	893416	keystroke_t	t	n/a
446.903	0.09	893806	keystroke_a	a	n/a
447.023	0.09	894046	keystroke_l	l	n/a
447.203	0.105	894406	keystroke_Key.space	Key.space	n/a
447.488	0.09	894976	keystroke_j	j	n/a
447.698	0.12	895396	keystroke_o	o	n/a
447.758	0.151	895516	keystroke_i	i	n/a
447.938	0.12	895876	keystroke_n	n	n/a
448.269	0.09	896538	keystroke_s	s	n/a
448.838	0.075	897676	keystroke_Key.enter	Key.enter	n/a
448.9235	9.112	897847	prompt	n/a	sunshine spoken physician polymer\n
449.558	0.09	899116	keystroke_s	s	n/a
449.723	0.075	899446	keystroke_u	u	n/a
449.903	0.09	899806	keystroke_n	n	n/a
450.113	0.076	900226	keystroke_s	s	n/a
450.203	0.075	900406	keystroke_h	h	n/a
450.323	0.121	900646	keystroke_i	i	n/a
450.503	0.09	901006	keystroke_n	n	n/a
450.638	0.075	901276	keystroke_e	e	n/a
450.728	0.09	901456	keystroke_Key.space	Key.space	n/a
450.998	0.09	901996	keystroke_s	s	n/a
451.118	0.105	902236	keystroke_p	p	n/a
451.358	0.09	902716	keystroke_o	o	n/a
451.583	0.09	903166	keystroke_k	k	n/a
451.779	0.059	903558	keystroke_e	e	n/a
451.928	0.076	903856	keystroke_n	n	n/a
452.123	0.075	904246	keystroke_Key.space	Key.space	n/a
452.439	0.074	904878	keystroke_p	p	n/a
452.648	0.046	905296	keystroke_h	h	n/a
452.888	0.06	905776	keystroke_y	y	n/a
453.534	0.089	907068	keystroke_s	s	n/a
454.148	0.075	908296	keystroke_i	i	n/a
454.343	0.076	908686	keystroke_c	c	n/a
454.508	0.06	909016	keystroke_i	i	n/a
454.944	0.075	909888	keystroke_a	a	n/a
455.034	0.09	910068	keystroke_n	n	n/a
455.228	0.06	910456	keystroke_Key.space	Key.space	n/a
455.589	0.089	911178	keystroke_p	p	n/a
455.888	0.06	911776	keystroke_o	o	n/a
456.608	0.075	913216	keystroke_l	l	n/a
456.848	0.045	913696	keystroke_y	y	n/a
457.119	0.075	914238	keystroke_m	m	n/a
457.253	0.151	914506	keystroke_e	e	n/a
457.344	0.104	914688	keystroke_r	r	n/a
457.974	0.059	915948	keystroke_Key.enter	Key.enter	n/a
458.0395	6.4155	916079	prompt	n/a	submit gold assure cabinet\n
458.724	0.074	917448	keystroke_s	s	n/a
458.858	0.09	917716	keystroke_u	u	n/a
459.114	0.089	918228	keystroke_b	b	n/a
459.444	0.075	918888	keystroke_m	m	n/a
459.728	0.075	919456	keystroke_i	i	n/a
459.908	0.091	919816	keystroke_t	t	n/a
460.133	0.075	920266	keystroke_Key.space	Key.space	n/a
460.734	0.06	921468	keystroke_g	g	n/a
460.883	0.091	921766	keystroke_o	o	n/a
461.064	0.09	922128	keystroke_l	l	n/a
461.184	0.075	922368	keystroke_d	d	n/a
461.333	0.06	922666	keystroke_Key.space	Key.space	n/a
461.573	0.076	923146	keystroke_a	a	n/a
461.829	0.074	923658	keystroke_s	s	n/a
461.978	0.061	923956	keystroke_s	s	n/a
462.068	0.075	924136	keystroke_u	u	n/a
462.249	0.12	924498	keystroke_r	r	n/a
462.338	0.09	924676	keystroke_e	e	n/a
462.473	0.09	924946	keystroke_Key.space	Key.space	n/a
462.744	0.089	925488	keystroke_c	c	n/a
462.924	0.105	925848	keystroke_a	a	n/a
463.058	0.06	926116	keystroke_b	b	n/a
463.224	0.09	926448	keystroke_i	i	n/a
463.418	0.076	926836	keystroke_n	n	n/a
463.613	0.121	927226	keystroke_e	e	n/a
463.778	0.091	927556	keystroke_t	t	n/a
464.393	0.06	928786	keystroke_Key.enter	Key.enter	n/a
464.459	9.6715	928918	prompt	n/a	salad applicant pontiac stands\n
465.069	0.089	930138	keystroke_s	s	n/a
465.384	0.09	930768	keystroke_a	a	n/a
465.534	0.089	931068	keystroke_l	l	n/a
465.639	0.089	931278	keystroke_s	s	n/a
466.433	0.06	932866	keystroke_Key.backspace	Key.backspace	n/a
466.824	0.09	933648	keystroke_a	a	n/a
467.019	0.104	934038	keystroke_d	d	n/a
467.168	0.09	934336	keystroke_Key.space	Key.space	n/a
467.634	0.09	935268	keystroke_a	a	n/a
467.814	0.075	935628	keystroke_p	p	n/a
467.964	0.075	935928	keystroke_p	p	n/a
468.669	0.075	937338	keystroke_l	l	n/a
468.864	0.075	937728	keystroke_i	i	n/a
469.014	0.09	938028	keystroke_c	c	n/a
469.269	0.12	938538	keystroke_a	a	n/a
469.599	0.075	939198	keystroke_n	n	n/a
469.719	0.09	939438	keystroke_t	t	n/a
469.823	0.076	939646	keystroke_Key.space	Key.space	n/a
470.244	0.075	940488	keystroke_p	p	n/a
470.484	0.135	940968	keystroke_o	o	n/a
470.754	0.06	941508	keystroke_n	n	n/a
471.024	0.09	942048	keystroke_t	t	n/a
471.159	0.06	942318	keystroke_i	i	n/a
471.879	0.105	943758	keystroke_a	a	n/a
472.164	0.09	944328	keystroke_c	c	n/a
472.389	0.075	944778	keystroke_Key.space	Key.space	n/a
472.689	0.09	945378	keystroke_s	s	n/a
472.854	0.09	945708	keystroke_t	t	n/a
473.019	0.12	946038	keystroke_a	a	n/a
473.154	0.06	946308	keystroke_n	n	n/a
473.259	0.105	946518	keystroke_d	d	n/a
473.439	0.09	946878	keystroke_s	s	n/a
474.0535	0.0755	948107	keystroke_Key.enter	Key.enter	n/a
474.136	6.7455	948272	prompt	n/a	on recommend edges britain\n
474.774	0.135	949548	keystroke_o	o	n/a
474.864	0.105	949728	keystroke_n	n	n/a
475.044	0.104	950088	keystroke_Key.space	Key.space	n/a
475.269	0.105	950538	keystroke_r	r	n/a
475.328	0.106	950656	keystroke_e	e	n/a
475.689	0.075	951378	keystroke_c	c	n/a
476.199	0.075	952398	keystroke_o	o	n/a
476.424	0.06	952848	keystroke_m	m	n/a
476.559	0.075	953118	keystroke_m	m	n/a
476.694	0.09	953388	keystroke_e	e	n/a
476.799	0.09	953598	keystroke_n	n	n/a
477.129	0.075	954258	keystroke_d	d	n/a
477.264	0.075	954528	keystroke_Key.space	Key.space	n/a
477.594	0.06	955188	keystroke_e	e	n/a
477.774	0.12	955548	keystroke_d	d	n/a
477.984	0.09	955968	keystroke_g	g	n/a
478.089	0.12	956178	keystroke_e	e	n/a
478.314	0.105	956628	keystroke_s	s	n/a
478.464	0.075	956928	keystroke_Key.space	Key.space	n/a
478.794	0.075	957588	keystroke_b	b	n/a
478.944	0.105	957888	keystroke_r	r	n/a
479.064	0.075	958128	keystroke_i	i	n/a
479.349	0.075	958698	keystroke_t	t	n/a
479.709	0.075	959418	keystroke_a	a	n/a
479.904	0.135	959808	keystroke_i	i	n/a
480.024	0.09	960048	keystroke_n	n	n/a
480.804	0.075	961608	keystroke_Key.enter	Key.enter	n/a
480.8875	9.7885	961775	prompt	n/a	shopping warren singapore warren\n
481.734	0.09	963468	keystroke_s	s	n/a
482.034	0.09	964068	keystroke_h	h	n/a
482.259	0.105	964518	keystroke_o	o	n/a
482.544	0.06	965088	keystroke_p	p	n/a
482.664	0.09	965328	keystroke_p	p	n/a
482.814	0.135	965628	keystroke_i	i	n/a
482.919	0.09	965838	keystroke_n	n	n/a
483.069	0.09	966138	keystroke_g	g	n/a
483.174	0.075	966348	keystroke_Key.space	Key.space	n/a
483.414	0.105	966828	keystroke_w	w	n/a
483.624	0.135	967248	keystroke_a	a	n/a
483.909	0.045	967818	keystroke_r	r	n/a
484.044	0.06	968088	keystroke_r	r	n/a
484.599	0.045	969198	keystroke_e	e	n/a
484.809	0.015	969618	keystroke_n	n	n/a
484.899	0.09	969798	keystroke_Key.space	Key.space	n/a
485.094	0.075	970188	keystroke_s	s	n/a
485.229	0.135	970458	keystroke_i	i	n/a
485.349	0.09	970698	keystroke_n	n	n/a
485.5435	0.06	971087	keystroke_g	g	n/a
485.7385	0.09	971477	keystroke_a	a	n/a
485.9185	0.061	971837	keystroke_p	p	n/a
486.1285	0.075	972257	keystroke_o	o	n/a
486.2185	0.09	972437	keystroke_r	r	n/a
486.2935	0.06	972587	keystroke_e	e	n/a
486.4735	0.075	972947	keystroke_Key.space	Key.space	n/a
486.6835	0.09	973367	keystroke_w	w	n/a
486.8485	0.12	973697	keystroke_a	a	n/a
487.1185	0.045	974237	keystroke_r	r	n/a
487.2385	0.076	974477	keystroke_r	r	n/a
487.3885	0.075	974777	keystroke_n	n	n/a
487.4785	0.075	974957	keystroke_e	e	n/a
488.753	0.09	977506	keystroke_Key.backspace	Key.backspace	n/a
488.903	0.075	977806	keystroke_Key.backspace	Key.backspace	n/a
489.5335	0.0745	979067	keystroke_e	e	n/a
489.789	0.074	979578	keystroke_n	n	n/a
490.613	0.06	981226	keystroke_Key.enter	Key.enter	n/a
490.6825	7.2525	981365	prompt	n/a	productive vintage peaceful go\n
491.363	0.09	982726	keystroke_p	p	n/a
491.574	0.074	983148	keystroke_r	r	n/a
491.678	0.075	983356	keystroke_o	o	n/a
491.873	0.0605	983746	keystroke_d	d	n/a
492.0085	0.075	984017	keystroke_u	u	n/a
492.098	0.09	984196	keystroke_c	c	n/a
492.338	0.09	984676	keystroke_t	t	n/a
492.398	0.105	984796	keystroke_i	i	n/a
492.623	0.075	985246	keystroke_v	v	n/a
492.743	0.09	985486	keystroke_e	e	n/a
492.818	0.075	985636	keystroke_Key.space	Key.space	n/a
493.688	0.09	987376	keystroke_v	v	n/a
493.973	0.06	987946	keystroke_i	i	n/a
494.139	0.09	988278	keystroke_n	n	n/a
494.423	0.091	988846	keystroke_t	t	n/a
494.603	0.121	989206	keystroke_a	a	n/a
494.738	0.105	989476	keystroke_g	g	n/a
494.874	0.074	989748	keystroke_e	e	n/a
494.978	0.075	989956	keystroke_Key.space	Key.space	n/a
495.188	0.075	990376	keystroke_p	p	n/a
495.323	0.106	990646	keystroke_e	e	n/a
495.488	0.165	990976	keystroke_a	a	n/a
495.789	0.104	991578	keystroke_c	c	n/a
495.924	0.075	991848	keystroke_e	e	n/a
496.313	0.045	992626	keystroke_f	f	n/a
496.434	0.075	992868	keystroke_u	u	n/a
496.599	0.104	993198	keystroke_l	l	n/a
496.808	0.075	993616	keystroke_Key.space	Key.space	n/a
497.123	0.06	994246	keystroke_g	g	n/a
497.214	0.075	994428	keystroke_o	o	n/a
497.858	0.075	995716	keystroke_Key.enter	Key.enter	n/a
497.939	8.6065	995878	prompt	n/a	whale scary represent zoom\n
498.728	0.091	997456	keystroke_w	w	n/a
498.863	0.09	997726	keystroke_h	h	n/a
499.0585	0.09	998117	keystroke_o	o	n/a
499.5685	0.075	999137	keystroke_Key.backspace	Key.backspace	n/a
499.6735	0.105	999347	keystroke_a	a	n/a
499.8235	0.105	999647	keystroke_l	l	n/a
500.0035	0.075	1000007	keystroke_e	e	n/a
500.1685	0.06	1000337	keystroke_Key.space	Key.space	n/a
500.3485	0.075	1000697	keystroke_s	s	n/a
500.4985	0.09	1000997	keystroke_c	c	n/a
500.9635	0.09	1001927	keystroke_a	a	n/a
501.1285	0.06	1002257	keystroke_r	r	n/a
501.2485	0.075	1002497	keystroke_y	y	n/a
501.4885	0.075	1002977	keystroke_Key.space	Key.space	n/a
501.7435	0.06	1003487	keystroke_p	p	n/a
502.1185	0.075	1004237	keystroke_Key.backspace	Key.backspace	n/a
502.2685	0.12	1004537	keystroke_r	r	n/a
502.3585	0.09	1004717	keystroke_e	e	n/a
503.5435	0.09	1007087	keystroke_p	p	n/a
503.7385	0.09	1007477	keystroke_r	r	n/a
504.0535	0.06	1008107	keystroke_e	e	n/a
504.2935	0.075	1008587	keystroke_s	s	n/a
504.5185	0.09	1009037	keystroke_e	e	n/a
504.6685	0.075	1009337	keystroke_n	n	n/a
504.7735	0.075	1009547	keystroke_t	t	n/a
505.0435	0.075	1010087	keystroke_Key.space	Key.space	n/a
505.2985	0.105	1010597	keystroke_z	z	n/a
505.5685	0.075	1011137	keystroke_o	o	n/a
505.7185	0.075	1011437	keystroke_o	o	n/a
505.8685	0.075	1011737	keystroke_m	m	n/a
506.4835	0.06	1012967	keystroke_Key.enter	Key.enter	n/a
506.5515	9.5345	1013103	prompt	n/a	protected penalty settle that'd\n
507.1585	0.09	1014317	keystroke_p	p	n/a
507.3085	0.09	1014617	keystroke_r	r	n/a
507.4885	0.075	1014977	keystroke_o	o	n/a
507.7735	0.075	1015547	keystroke_t	t	n/a
507.9085	0.09	1015817	keystroke_e	e	n/a
508.1335	0.075	1016267	keystroke_c	c	n/a
508.3435	0.105	1016687	keystroke_t	t	n/a
508.5385	0.075	1017077	keystroke_e	e	n/a
508.7035	0.075	1017407	keystroke_d	d	n/a
508.8235	0.075	1017647	keystroke_Key.space	Key.space	n/a
509.0335	0.09	1018067	keystroke_p	p	n/a
509.1835	0.09	1018367	keystroke_e	e	n/a
509.3785	0.075	1018757	keystroke_n	n	n/a
509.5435	0.09	1019087	keystroke_a	a	n/a
509.6635	0.105	1019327	keystroke_l	l	n/a
509.9185	0.06	1019837	keystroke_t	t	n/a
510.0835	0.015	1020167	keystroke_y	y	n/a
510.2785	0.09	1020557	keystroke_Key.space	Key.space	n/a
511.1035	0.075	1022207	keystroke_s	s	n/a
511.2835	0.09	1022567	keystroke_e	e	n/a
511.5235	0.06	1023047	keystroke_t	t	n/a
511.6285	0.06	1023257	keystroke_t	t	n/a
511.7035	0.09	1023407	keystroke_l	l	n/a
511.8235	0.09	1023647	keystroke_e	e	n/a
511.9285	0.06	1023857	keystroke_Key.space	Key.space	n/a
512.2435	0.075	1024487	keystroke_t	t	n/a
512.3935	0.075	1024787	keystroke_h	h	n/a
512.4985	0.12	1024997	keystroke_a	a	n/a
512.7235	0.09	1025447	keystroke_'	'	n/a
512.9635	0.09	1025927	keystroke_s	s	n/a
513.3835	0.09	1026767	keystroke_Key.backspace	Key.backspace	n/a
513.5335	0.09	1027067	keystroke_Key.backspace	Key.backspace	n/a
513.8335	0.09	1027667	keystroke_t	t	n/a
514.7635	0.075	1029527	keystroke_'	'	n/a
515.0635	0.045	1030127	keystroke_d	d	n/a
516.0085	0.075	1032017	keystroke_Key.enter	Key.enter	n/a
516.0955	11.4045	1032191	prompt	n/a	locking simon netherlands jane\n
516.774	0.09	1033548	keystroke_l	l	n/a
516.984	0.074	1033968	keystroke_o	o	n/a
517.119	0.075	1034238	keystroke_c	c	n/a
517.223	0.091	1034446	keystroke_k	k	n/a
517.403	0.076	1034806	keystroke_i	i	n/a
517.494	0.105	1034988	keystroke_n	n	n/a
517.584	0.06	1035168	keystroke_g	g	n/a
517.688	0.075	1035376	keystroke_Key.space	Key.space	n/a
517.869	0.075	1035738	keystroke_s	s	n/a
517.974	0.09	1035948	keystroke_i	i	n/a
518.124	0.09	1036248	keystroke_m	m	n/a
518.304	0.09	1036608	keystroke_o	o	n/a
518.334	0.135	1036668	keystroke_n	n	n/a
518.544	0.089	1037088	keystroke_Key.space	Key.space	n/a
518.889	0.075	1037778	keystroke_b	b	n/a
519.024	0.15	1038048	keystroke_e	e	n/a
519.234	0.09	1038468	keystroke_t	t	n/a
519.429	0.06	1038858	keystroke_h	h	n/a
519.519	0.09	1039038	keystroke_e	e	n/a
519.579	0.045	1039158	keystroke_r	r	n/a
520.193	0.06	1040386	keystroke_Key.backspace	Key.backspace	n/a
520.3275	0.075	1040655	keystroke_Key.backspace	Key.backspace	n/a
520.4925	0.06	1040985	keystroke_Key.backspace	Key.backspace	n/a
520.6425	0.061	1041285	keystroke_Key.backspace	Key.backspace	n/a
520.7935	0.044	1041587	keystroke_Key.backspace	Key.backspace	n/a
520.9125	0.075	1041825	keystroke_Key.backspace	Key.backspace	n/a
521.5435	0.075	1043087	keystroke_n	n	n/a
521.7235	0.06	1043447	keystroke_e	e	n/a
521.9335	0.089	1043867	keystroke_t	t	n/a
522.0385	0.059	1044077	keystroke_h	h	n/a
522.1285	0.135	1044257	keystroke_e	e	n/a
522.2185	0.06	1044437	keystroke_r	r	n/a
522.4435	0.09	1044887	keystroke_l	l	n/a
522.5625	0.091	1045125	keystroke_a	a	n/a
522.6685	0.06	1045337	keystroke_n	n	n/a
522.7435	0.12	1045487	keystroke_d	d	n/a
522.9085	0.105	1045817	keystroke_s	s	n/a
523.0575	0.09	1046115	keystroke_Key.space	Key.space	n/a
523.3135	0.075	1046627	keystroke_h	h	n/a
523.4185	0.135	1046837	keystroke_a	a	n/a
524.3935	0.075	1048787	keystroke_n	n	n/a
524.7985	0.06	1049597	keystroke_e	e	n/a
525.4885	0.059	1050977	keystroke_Key.backspace	Key.backspace	n/a
525.6225	0.076	1051245	keystroke_Key.backspace	Key.backspace	n/a
525.8775	0.075	1051755	keystroke_Key.backspace	Key.backspace	n/a
526.1025	0.09	1052205	keystroke_Key.backspace	Key.backspace	n/a
526.7335	0.06	1053467	keystroke_j	j	n/a
526.8535	0.09	1053707	keystroke_a	a	n/a
526.9585	0.075	1053917	keystroke_n	n	n/a
527.1085	0.12	1054217	keystroke_e	e	n/a
527.4235	0.075	1054847	keystroke_Key.enter	Key.enter	n/a
527.506	16.013	1055012	prompt	n/a	emergency packaging alternatively rally\n
529.6165	0	1059233	keystroke_e	e	n/a
529.6735	0.075	1059347	keystroke_m	m	n/a
529.8085	0.135	1059617	keystroke_e	e	n/a
529.8985	0.09	1059797	keystroke_r	r	n/a
530.2435	0.06	1060487	keystroke_g	g	n/a
530.4835	0.06	1060967	keystroke_e	e	n/a
530.6335	0.06	1061267	keystroke_n	n	n/a
530.7535	0.12	1061507	keystroke_c	c	n/a
530.9935	0.06	1061987	keystroke_y	y	n/a
531.2035	0.06	1062407	keystroke_Key.space	Key.space	n/a
531.3835	0.075	1062767	keystroke_p	p	n/a
531.5035	0.075	1063007	keystroke_a	a	n/a
531.6835	0.09	1063367	keystroke_c	c	n/a
531.8035	0.09	1063607	keystroke_k	k	n/a
532.0135	0.075	1064027	keystroke_i	i	n/a
532.1785	0.075	1064357	keystroke_n	n	n/a
532.1935	0.045	1064387	keystroke_g	g	n/a
533.663	0.06	1067326	keystroke_Key.backspace	Key.backspace	n/a
533.828	0.06	1067656	keystroke_Key.backspace	Key.backspace	n/a
533.978	0.06	1067956	keystroke_Key.backspace	Key.backspace	n/a
534.428	0.075	1068856	keystroke_a	a	n/a
534.623	0.075	1069246	keystroke_g	g	n/a
534.878	0.09	1069756	keystroke_i	i	n/a
534.983	0.09	1069966	keystroke_n	n	n/a
535.088	0.075	1070176	keystroke_g	g	n/a
535.238	0.09	1070476	keystroke_Key.space	Key.space	n/a
536.078	0.06	1072156	keystroke_a	a	n/a
536.213	0.09	1072426	keystroke_l	l	n/a
536.378	0.105	1072756	keystroke_t	t	n/a
536.558	0.12	1073116	keystroke_e	e	n/a
536.618	0.09	1073236	keystroke_r	r	n/a
536.798	0.09	1073596	keystroke_n	n	n/a
536.963	0.105	1073926	keystroke_a	a	n/a
537.098	0.105	1074196	keystroke_t	t	n/a
537.683	0.075	1075366	keystroke_i	i	n/a
537.803	0.075	1075606	keystroke_v	v	n/a
539.018	0.06	1078036	keystroke_e	e	n/a
539.153	0.105	1078306	keystroke_l	l	n/a
539.423	0.06	1078846	keystroke_y	y	n/a
539.693	0.06	1079386	keystroke_Key.space	Key.space	n/a
540.323	0.0595	1080646	keystroke_a	a	n/a
540.6975	0.075	1081395	keystroke_Key.backspace	Key.backspace	n/a
540.8175	0.12	1081635	keystroke_r	r	n/a
540.8775	0.105	1081755	keystroke_e	e	n/a
541.0725	0.09	1082145	keystroke_a	a	n/a
541.2825	0.06	1082565	keystroke_l	l	n/a
541.5675	0.075	1083135	keystroke_Key.backspace	Key.backspace	n/a
541.7175	0.06	1083435	keystroke_Key.backspace	Key.backspace	n/a
541.8525	0.075	1083705	keystroke_Key.backspace	Key.backspace	n/a
542.2425	0.075	1084485	keystroke_a	a	n/a
542.4525	0.06	1084905	keystroke_l	l	n/a
542.5875	0.075	1085175	keystroke_l	l	n/a
542.7675	0.06	1085535	keystroke_y	y	n/a
543.4575	0.06	1086915	keystroke_Key.enter	Key.enter	n/a
543.5245	25.811	1087049	prompt	n/a	organisation skiing speeds media\n
544.2075	0.105	1088415	keystroke_o	o	n/a
544.3875	0.09	1088775	keystroke_r	r	n/a
545.3625	0.075	1090725	keystroke_g	g	n/a
545.5575	0.09	1091115	keystroke_a	a	n/a
545.7075	0.075	1091415	keystroke_n	n	n/a
545.9325	0.075	1091865	keystroke_i	i	n/a
546.2175	0.075	1092435	keystroke_s	s	n/a
546.4575	0.09	1092915	keystroke_a	a	n/a
546.5925	0.075	1093185	keystroke_t	t	n/a
546.6225	0.15	1093245	keystroke_i	i	n/a
546.6975	0.12	1093395	keystroke_o	o	n/a
546.7725	0.075	1093545	keystroke_n	n	n/a
546.9975	0.045	1093995	keystroke_Key.space	Key.space	n/a
547.8525	0.075	1095705	keystroke_Key.backspace	Key.backspace	n/a
548.0325	0.045	1096065	keystroke_Key.backspace	Key.backspace	n/a
548.1975	0.075	1096395	keystroke_Key.backspace	Key.backspace	n/a
552.3555	0.027	1104711	keystroke_o	o	n/a
552.4725	0.075	1104945	keystroke_n	n	n/a
552.6525	0.06	1105305	keystroke_Key.space	Key.space	n/a
560.6355	0.012	1121271	keystroke_s	s	n/a
560.6775	0.06	1121355	keystroke_k	k	n/a
560.8425	0.09	1121685	keystroke_i	i	n/a
561.1125	0.075	1122225	keystroke_i	i	n/a
561.2475	0.06	1122495	keystroke_i	i	n/a
561.3825	0.075	1122765	keystroke_n	n	n/a
561.5025	0.09	1123005	keystroke_g	g	n/a
561.6525	0.09	1123305	keystroke_Key.space	Key.space	n/a
562.4175	0.06	1124835	keystroke_Key.backspace	Key.backspace	n/a
562.5675	0.075	1125135	keystroke_Key.backspace	Key.backspace	n/a
562.7175	0.075	1125435	keystroke_Key.backspace	Key.backspace	n/a
563.8875	0.09	1127775	keystroke_Key.backspace	Key.backspace	n/a
564.8025	0.06	1129605	keystroke_n	n	n/a
564.9225	0.09	1129845	keystroke_g	g	n/a
565.0275	0.06	1130055	keystroke_Key.space	Key.space	n/a
566.4525	0.12	1132905	keystroke_s	s	n/a
566.6325	0.09	1133265	keystroke_p	p	n/a
566.8425	0.06	1133685	keystroke_e	e	n/a
566.9625	0.075	1133925	keystroke_e	e	n/a
567.1425	0.12	1134285	keystroke_d	d	n/a
567.2775	0.075	1134555	keystroke_s	s	n/a
567.2925	0.075	1134585	keystroke_Key.space	Key.space	n/a
567.5775	0.075	1135155	keystroke_m	m	n/a
567.6675	0.09	1135335	keystroke_e	e	n/a
567.9385	0.134	1135877	keystroke_d	d	n/a
568.1325	0.09	1136265	keystroke_i	i	n/a
568.2825	0.09	1136565	keystroke_a	a	n/a
569.2575	0.075	1138515	keystroke_Key.enter	Key.enter	n/a
569.3405	19.824	1138681	prompt	n/a	beginners meetup obviously hopes\n
570.2925	0.06	1140585	keystroke_b	b	n/a
570.5325	0.105	1141065	keystroke_e	e	n/a
570.7575	0.075	1141515	keystroke_g	g	n/a
571.0125	0.075	1142025	keystroke_i	i	n/a
571.3125	0.06	1142625	keystroke_n	n	n/a
571.4475	0.06	1142895	keystroke_n	n	n/a
571.5225	0.12	1143045	keystroke_e	e	n/a
571.5825	0.09	1143165	keystroke_r	r	n/a
571.7775	0.075	1143555	keystroke_s	s	n/a
571.8375	0.09	1143675	keystroke_Key.space	Key.space	n/a
572.1385	0.059	1144277	keystroke_m	m	n/a
572.3325	0.045	1144665	keystroke_e	e	n/a
572.4375	0.075	1144875	keystroke_e	e	n/a
572.7375	0.105	1145475	keystroke_u	u	n/a
573.2025	0.075	1146405	keystroke_Key.backspace	Key.backspace	n/a
573.3085	0.074	1146617	keystroke_t	t	n/a
573.4125	0.12	1146825	keystroke_u	u	n/a
573.6375	0.06	1147275	keystroke_p	p	n/a
574.3125	0.075	1148625	keystroke_Key.space	Key.space	n/a
574.7775	0.105	1149555	keystroke_o	o	n/a
574.9425	0.09	1149885	keystroke_b	b	n/a
575.6025	0.075	1151205	keystroke_i	i	n/a
576.1125	0.105	1152225	keystroke_v	v	n/a
576.6075	0.075	1153215	keystroke_i	i	n/a
576.8175	0.105	1153635	keystroke_o	o	n/a
576.8925	0.105	1153785	keystroke_u	u	n/a
577.0425	0.105	1154085	keystroke_s	s	n/a
577.1775	0.105	1154355	keystroke_l	l	n/a
577.4025	0.045	1154805	keystroke_y	y	n/a
577.5825	0.075	1155165	keystroke_Key.space	Key.space	n/a
577.7925	0.075	1155585	keystroke_h	h	n/a
578.0025	0.045	1156005	keystroke_o	o	n/a
578.1525	0.075	1156305	keystroke_p	p	n/a
578.4225	0.09	1156845	keystroke_e	e	n/a
583.5105	0	1167021	keystroke_Key.backspace	Key.backspace	n/a
583.5825	0.075	1167165	keystroke_Key.backspace	Key.backspace	n/a
583.7325	0.09	1167465	keystroke_Key.backspace	Key.backspace	n/a
583.8825	0.075	1167765	keystroke_Key.backspace	Key.backspace	n/a
584.032	0.09	1168064	keystroke_Key.backspace	Key.backspace	n/a
584.1825	0.0895	1168365	keystroke_Key.backspace	Key.backspace	n/a
584.347	0.075	1168694	keystroke_Key.backspace	Key.backspace	n/a
584.512	0.0605	1169024	keystroke_Key.backspace	Key.backspace	n/a
584.662	0.075	1169324	keystroke_Key.backspace	Key.backspace	n/a
584.812	0.075	1169624	keystroke_Key.backspace	Key.backspace	n/a
584.977	0.06	1169954	keystroke_Key.backspace	Key.backspace	n/a
585.127	0.075	1170254	keystroke_Key.backspace	Key.backspace	n/a
585.322	0.075	1170644	keystroke_Key.backspace	Key.backspace	n/a
585.592	0.09	1171184	keystroke_v	v	n/a
585.877	0.09	1171754	keystroke_i	i	n/a
586.072	0.165	1172144	keystroke_o	o	n/a
586.222	0.075	1172444	keystroke_u	u	n/a
586.432	0.075	1172864	keystroke_s	s	n/a
586.552	0.105	1173104	keystroke_l	l	n/a
586.762	0.06	1173524	keystroke_y	y	n/a
587.587	0.0755	1175174	keystroke_Key.space	Key.space	n/a
587.902	0.075	1175804	keystroke_h	h	n/a
588.0675	0.0745	1176135	keystroke_o	o	n/a
588.232	0.075	1176464	keystroke_p	p	n/a
588.3525	0.1045	1176705	keystroke_e	e	n/a
588.562	0.105	1177124	keystroke_s	s	n/a
589.1025	0.0595	1178205	keystroke_Key.enter	Key.enter	n/a
589.1705	14.034	1178341	prompt	n/a	encouraged foot psychological locations\n
589.928	0.089	1179856	keystroke_e	e	n/a
590.107	0.076	1180214	keystroke_n	n	n/a
590.242	0.12	1180484	keystroke_c	c	n/a
590.423	0.134	1180846	keystroke_o	o	n/a
590.497	0.091	1180994	keystroke_u	u	n/a
590.662	0.15	1181324	keystroke_r	r	n/a
590.783	0.089	1181566	keystroke_e	e	n/a
591.487	0.075	1182974	keystroke_Key.backspace	Key.backspace	n/a
591.623	0.134	1183246	keystroke_a	a	n/a
591.742	0.12	1183484	keystroke_g	g	n/a
591.892	0.091	1183784	keystroke_e	e	n/a
592.103	0.089	1184206	keystroke_d	d	n/a
592.222	0.075	1184444	keystroke_Key.space	Key.space	n/a
592.537	0.06	1185074	keystroke_f	f	n/a
592.747	0.06	1185494	keystroke_o	o	n/a
592.867	0.075	1185734	keystroke_o	o	n/a
592.987	0.09	1185974	keystroke_t	t	n/a
593.092	0.075	1186184	keystroke_Key.space	Key.space	n/a
593.288	0.074	1186576	keystroke_p	p	n/a
593.903	0.075	1187806	keystroke_h	h	n/a
594.157	0.06	1188314	keystroke_y	y	n/a
595.717	0.09	1191434	keystroke_s	s	n/a
596.602	0.06	1193204	keystroke_Key.backspace	Key.backspace	n/a
597.083	0.059	1194166	keystroke_Key.backspace	Key.backspace	n/a
597.232	0.09	1194464	keystroke_Key.backspace	Key.backspace	n/a
597.428	0.089	1194856	keystroke_s	s	n/a
597.593	0.074	1195186	keystroke_y	y	n/a
597.772	0.105	1195544	keystroke_c	c	n/a
598.028	0.075	1196056	keystroke_h	h	n/a
598.208	0.074	1196416	keystroke_o	o	n/a
598.433	0.09	1196866	keystroke_l	l	n/a
598.627	0.105	1197254	keystroke_o	o	n/a
598.822	0.075	1197644	keystroke_g	g	n/a
598.958	0.09	1197916	keystroke_i	i	n/a
600.128	0.089	1200256	keystroke_c	c	n/a
600.278	0.075	1200556	keystroke_a	a	n/a
600.383	0.075	1200766	keystroke_l	l	n/a
600.562	0.075	1201124	keystroke_Key.space	Key.space	n/a
600.9085	0.105	1201817	keystroke_l	l	n/a
601.1325	0.091	1202265	keystroke_o	o	n/a
601.2685	0.09	1202537	keystroke_c	c	n/a
601.6735	0.119	1203347	keystroke_a	a	n/a
601.8685	0.09	1203737	keystroke_t	t	n/a
601.9425	0.121	1203885	keystroke_i	i	n/a
602.0785	0.09	1204157	keystroke_o	o	n/a
602.0925	0.105	1204185	keystroke_n	n	n/a
602.2875	0.091	1204575	keystroke_s	s	n/a
603.143	0.06	1206286	keystroke_Key.enter	Key.enter	n/a
603.2095	7.0755	1206419	prompt	n/a	operating damages belle oracle\n
603.9825	0.06	1207965	keystroke_o	o	n/a
604.1325	0.075	1208265	keystroke_p	p	n/a
604.328	0.15	1208656	keystroke_e	e	n/a
604.433	0.09	1208866	keystroke_r	r	n/a
605.213	0.09	1210426	keystroke_a	a	n/a
605.438	0.06	1210876	keystroke_t	t	n/a
605.528	0.09	1211056	keystroke_i	i	n/a
605.633	0.09	1211266	keystroke_n	n	n/a
605.753	0.06	1211506	keystroke_g	g	n/a
605.858	0.09	1211716	keystroke_Key.space	Key.space	n/a
606.233	0.09	1212466	keystroke_d	d	n/a
606.398	0.09	1212796	keystroke_a	a	n/a
606.548	0.09	1213096	keystroke_m	m	n/a
606.848	0.12	1213696	keystroke_a	a	n/a
607.043	0.075	1214086	keystroke_g	g	n/a
607.163	0.105	1214326	keystroke_e	e	n/a
607.358	0.09	1214716	keystroke_s	s	n/a
607.478	0.09	1214956	keystroke_Key.space	Key.space	n/a
607.718	0.09	1215436	keystroke_b	b	n/a
607.913	0.045	1215826	keystroke_e	e	n/a
608.048	0.075	1216096	keystroke_l	l	n/a
608.183	0.09	1216366	keystroke_l	l	n/a
608.288	0.06	1216576	keystroke_e	e	n/a
608.393	0.09	1216786	keystroke_Key.space	Key.space	n/a
608.708	0.075	1217416	keystroke_o	o	n/a
608.858	0.09	1217716	keystroke_r	r	n/a
609.098	0.12	1218196	keystroke_a	a	n/a
609.428	0.09	1218856	keystroke_c	c	n/a
609.563	0.105	1219126	keystroke_l	l	n/a
609.683	0.06	1219366	keystroke_e	e	n/a
610.193	0.09	1220386	keystroke_Key.enter	Key.enter	n/a
610.2905	8.2895	1220581	prompt	n/a	payments preference genres mentor\n
611.018	0.075	1222036	keystroke_p	p	n/a
611.198	0.075	1222396	keystroke_a	a	n/a
611.348	0.06	1222696	keystroke_y	y	n/a
611.5875	0.0755	1223175	keystroke_m	m	n/a
611.8125	0.075	1223625	keystroke_e	e	n/a
611.9325	0.0905	1223865	keystroke_n	n	n/a
612.0525	0.09	1224105	keystroke_t	t	n/a
612.2475	0.075	1224495	keystroke_s	s	n/a
612.3375	0.09	1224675	keystroke_Key.space	Key.space	n/a
612.5625	0.0755	1225125	keystroke_p	p	n/a
612.6525	0.09	1225305	keystroke_r	r	n/a
612.6975	0.09	1225395	keystroke_e	e	n/a
613.088	0.0895	1226176	keystroke_f	f	n/a
613.2975	0.21	1226595	keystroke_e	e	n/a
613.4775	0.18	1226955	keystroke_r	r	n/a
613.6425	0.105	1227285	keystroke_e	e	n/a
614.2575	0.075	1228515	keystroke_n	n	n/a
614.3475	0.12	1228695	keystroke_c	c	n/a
614.4825	0.075	1228965	keystroke_e	e	n/a
614.5875	0.075	1229175	keystroke_Key.space	Key.space	n/a
615.0075	0.06	1230015	keystroke_g	g	n/a
615.1875	0.105	1230375	keystroke_e	e	n/a
615.4125	0.06	1230825	keystroke_n	n	n/a
615.6975	0.18	1231395	keystroke_r	r	n/a
615.9375	0.12	1231875	keystroke_e	e	n/a
616.4775	0.075	1232955	keystroke_s	s	n/a
616.8225	0.075	1233645	keystroke_Key.space	Key.space	n/a
617.0625	0.075	1234125	keystroke_m	m	n/a
617.1825	0.06	1234365	keystroke_e	e	n/a
617.2885	0.089	1234577	keystroke_n	n	n/a
617.4675	0.075	1234935	keystroke_t	t	n/a
617.5875	0.09	1235175	keystroke_o	o	n/a
617.7675	0.075	1235535	keystroke_r	r	n/a
618.5025	0.075	1237005	keystroke_Key.enter	Key.enter	n/a
618.587	12.0075	1237174	prompt	n/a	heavy mercury house sequences\n
619.3135	0.059	1238627	keystroke_h	h	n/a
619.3875	0.105	1238775	keystroke_e	e	n/a
619.5225	0.135	1239045	keystroke_a	a	n/a
619.8975	0.09	1239795	keystroke_v	v	n/a
620.1525	0.06	1240305	keystroke_y	y	n/a
620.4225	0.075	1240845	keystroke_Key.space	Key.space	n/a
620.6775	0.075	1241355	keystroke_m	m	n/a
620.8725	0.12	1241745	keystroke_e	e	n/a
620.9325	0.075	1241865	keystroke_r	r	n/a
621.2325	0.075	1242465	keystroke_c	c	n/a
621.3975	0.06	1242795	keystroke_u	u	n/a
621.5925	0.105	1243185	keystroke_r	r	n/a
621.7425	0.061	1243485	keystroke_y	y	n/a
621.9525	0.09	1243905	keystroke_Key.space	Key.space	n/a
622.3285	0.074	1244657	keystroke_h	h	n/a
622.5225	0.12	1245045	keystroke_o	o	n/a
622.5685	0.119	1245137	keystroke_u	u	n/a
622.7175	0.105	1245435	keystroke_s	s	n/a
622.7925	0.075	1245585	keystroke_e	e	n/a
622.9125	0.105	1245825	keystroke_Key.space	Key.space	n/a
623.1675	0.06	1246335	keystroke_s	s	n/a
623.4525	0.105	1246905	keystroke_w	w	n/a
624.0375	0.075	1248075	keystroke_Key.backspace	Key.backspace	n/a
624.6225	0.075	1249245	keystroke_u	u	n/a
624.8925	0.105	1249785	keystroke_q	q	n/a
625.2535	0.059	1250507	keystroke_e	e	n/a
626.0625	0.09	1252125	keystroke_Key.backspace	Key.backspace	n/a
626.3775	0.075	1252755	keystroke_u	u	n/a
626.9175	0.06	1253835	keystroke_Key.backspace	Key.backspace	n/a
627.0525	0.075	1254105	keystroke_Key.backspace	Key.backspace	n/a
627.2025	0.075	1254405	keystroke_Key.backspace	Key.backspace	n/a
627.7425	0.075	1255485	keystroke_e	e	n/a
628.1025	0.09	1256205	keystroke_q	q	n/a
628.3875	0.045	1256775	keystroke_u	u	n/a
628.6875	0.075	1257375	keystroke_e	e	n/a
628.8075	0.075	1257615	keystroke_n	n	n/a
628.9585	0.119	1257917	keystroke_c	c	n/a
629.0785	0.104	1258157	keystroke_e	e	n/a
629.7375	0.075	1259475	keystroke_s	s	n/a
630.5325	0.06	1261065	keystroke_Key.enter	Key.enter	n/a
630.601	9.5195	1261202	prompt	n/a	writes manner hopes cleared\n
631.3725	0.09	1262745	keystroke_w	w	n/a
631.7785	0.074	1263557	keystroke_i	i	n/a
632.1375	0.075	1264275	keystroke_Key.backspace	Key.backspace	n/a
632.2285	0.089	1264457	keystroke_r	r	n/a
632.4075	0.06	1264815	keystroke_t	t	n/a
632.4225	0.09	1264845	keystroke_i	i	n/a
632.6035	0.089	1265207	keystroke_e	e	n/a
632.8125	0.091	1265625	keystroke_s	s	n/a
632.9325	0.075	1265865	keystroke_Key.space	Key.space	n/a
633.2325	0.06	1266465	keystroke_m	m	n/a
634.1775	0.075	1268355	keystroke_Key.backspace	Key.backspace	n/a
634.3275	0.075	1268655	keystroke_Key.backspace	Key.backspace	n/a
634.4775	0.075	1268955	keystroke_Key.backspace	Key.backspace	n/a
634.6275	0.06	1269255	keystroke_Key.backspace	Key.backspace	n/a
634.7925	0.045	1269585	keystroke_Key.backspace	Key.backspace	n/a
634.9125	0.045	1269825	keystroke_Key.backspace	Key.backspace	n/a
635.1975	0.075	1270395	keystroke_i	i	n/a
635.3925	0.091	1270785	keystroke_t	t	n/a
635.9175	0.06	1271835	keystroke_e	e	n/a
636.0985	0.075	1272197	keystroke_s	s	n/a
636.2025	0.075	1272405	keystroke_Key.space	Key.space	n/a
636.4575	0.075	1272915	keystroke_m	m	n/a
636.6225	0.076	1273245	keystroke_a	a	n/a
636.7875	0.045	1273575	keystroke_n	n	n/a
636.9225	0.06	1273845	keystroke_n	n	n/a
636.9975	0.106	1273995	keystroke_e	e	n/a
637.0575	0.075	1274115	keystroke_r	r	n/a
637.1775	0.09	1274355	keystroke_Key.space	Key.space	n/a
637.4485	0.074	1274897	keystroke_h	h	n/a
637.6275	0.06	1275255	keystroke_o	o	n/a
637.7635	0.089	1275527	keystroke_p	p	n/a
637.9125	0.091	1275825	keystroke_e	e	n/a
638.1375	0.075	1276275	keystroke_s	s	n/a
638.2575	0.075	1276515	keystroke_Key.space	Key.space	n/a
638.6025	0.076	1277205	keystroke_c	c	n/a
638.7225	0.091	1277445	keystroke_l	l	n/a
638.8275	0.135	1277655	keystroke_e	e	n/a
639.0075	0.135	1278015	keystroke_a	a	n/a
639.1875	0.135	1278375	keystroke_r	r	n/a
639.3675	0.12	1278735	keystroke_e	e	n/a
639.5775	0.09	1279155	keystroke_d	d	n/a
640.0575	0.06	1280115	keystroke_Key.enter	Key.enter	n/a
640.1265	9.2035	1280253	prompt	n/a	employ coordinated duration atlas\n
640.7935	0.0445	1281587	keystroke_e	e	n/a
640.882	0.075	1281764	keystroke_m	m	n/a
641.0625	0.0745	1282125	keystroke_p	p	n/a
641.7225	0.1055	1283445	keystroke_l	l	n/a
642.038	0.075	1284076	keystroke_o	o	n/a
642.367	0.045	1284734	keystroke_y	y	n/a
642.727	0.06	1285454	keystroke_Key.space	Key.space	n/a
643.298	0.074	1286596	keystroke_c	c	n/a
643.553	0.059	1287106	keystroke_o	o	n/a
643.673	0.089	1287346	keystroke_o	o	n/a
643.837	0.09	1287674	keystroke_r	r	n/a
644.078	0.089	1288156	keystroke_d	d	n/a
644.287	0.075	1288574	keystroke_i	i	n/a
644.423	0.089	1288846	keystroke_n	n	n/a
644.647	0.12	1289294	keystroke_a	a	n/a
644.842	0.105	1289684	keystroke_t	t	n/a
645.037	0.075	1290074	keystroke_e	e	n/a
645.188	0.09	1290376	keystroke_d	d	n/a
645.307	0.105	1290614	keystroke_Key.space	Key.space	n/a
645.592	0.075	1291184	keystroke_d	d	n/a
645.802	0.061	1291604	keystroke_u	u	n/a
646.132	0.06	1292264	keystroke_r	r	n/a
646.418	0.089	1292836	keystroke_a	a	n/a
646.553	0.09	1293106	keystroke_t	t	n/a
646.628	0.15	1293256	keystroke_i	i	n/a
646.717	0.135	1293434	keystroke_o	o	n/a
646.822	0.061	1293644	keystroke_n	n	n/a
647.002	0.075	1294004	keystroke_Key.space	Key.space	n/a
647.438	0.074	1294876	keystroke_a	a	n/a
647.648	0.074	1295296	keystroke_s	s	n/a
648.007	0.06	1296014	keystroke_Key.backspace	Key.backspace	n/a
648.112	0.075	1296224	keystroke_t	t	n/a
648.323	0.089	1296646	keystroke_l	l	n/a
648.428	0.089	1296856	keystroke_a	a	n/a
648.638	0.09	1297276	keystroke_s	s	n/a
649.253	0.075	1298506	keystroke_Key.enter	Key.enter	n/a
649.3365	9.3235	1298673	prompt	n/a	chocolate uganda moral boat\n
649.973	0.075	1299946	keystroke_c	c	n/a
650.1525	0.075	1300305	keystroke_h	h	n/a
650.8725	0.015	1301745	keystroke_o	o	n/a
651.1125	0.075	1302225	keystroke_v	v	n/a
651.3225	0.075	1302645	keystroke_o	o	n/a
651.7575	0.045	1303515	keystroke_Key.backspace	Key.backspace	n/a
651.8775	0.06	1303755	keystroke_Key.backspace	Key.backspace	n/a
651.9975	0.075	1303995	keystroke_c	c	n/a
652.1325	0.09	1304265	keystroke_o	o	n/a
652.3425	0.075	1304685	keystroke_l	l	n/a
652.5975	0.09	1305195	keystroke_a	a	n/a
652.7775	0.09	1305555	keystroke_t	t	n/a
652.8525	0.105	1305705	keystroke_e	e	n/a
653.0475	0.105	1306095	keystroke_Key.space	Key.space	n/a
653.3325	0.09	1306665	keystroke_u	u	n/a
653.9325	0.06	1307865	keystroke_g	g	n/a
654.1275	0.09	1308255	keystroke_a	a	n/a
654.2475	0.075	1308495	keystroke_n	n	n/a
654.8025	0.09	1309605	keystroke_d	d	n/a
654.9525	0.09	1309905	keystroke_a	a	n/a
655.1325	0.075	1310265	keystroke_Key.space	Key.space	n/a
655.4325	0.06	1310865	keystroke_m	m	n/a
655.6275	0.075	1311255	keystroke_o	o	n/a
656.2575	0.075	1312515	keystroke_r	r	n/a
656.5725	0.09	1313145	keystroke_a	a	n/a
656.7825	0.075	1313565	keystroke_l	l	n/a
656.9325	0.075	1313865	keystroke_Key.space	Key.space	n/a
657.1575	0.06	1314315	keystroke_b	b	n/a
657.3375	0.09	1314675	keystroke_o	o	n/a
657.6525	0.12	1315305	keystroke_a	a	n/a
657.9075	0.06	1315815	keystroke_t	t	n/a
658.5975	0.06	1317195	keystroke_Key.enter	Key.enter	n/a
658.668	13.9865	1317336	prompt	n/a	bouquet jackson computation fountain\n
659.5875	0.075	1319175	keystroke_b	b	n/a
660.4875	0.105	1320975	keystroke_o	o	n/a
660.5475	0.105	1321095	keystroke_u	u	n/a
660.8175	0.09	1321635	keystroke_t	t	n/a
661.5825	0.075	1323165	keystroke_Key.backspace	Key.backspace	n/a
662.1075	0.09	1324215	keystroke_q	q	n/a
662.3175	0.06	1324635	keystroke_u	u	n/a
662.4675	0.105	1324935	keystroke_e	e	n/a
662.7825	0.045	1325565	keystroke_t	t	n/a
662.9025	0.075	1325805	keystroke_Key.space	Key.space	n/a
663.7425	0.06	1327485	keystroke_j	j	n/a
663.7575	0.03	1327515	keystroke_h	h	n/a
663.8475	0.09	1327695	keystroke_a	a	n/a
663.9525	0.09	1327905	keystroke_c	c	n/a
