onset	duration	sample	value	key	prompt_text
1.509	15.0755	3018	prompt	n/a	the quick brown fox jumps over a lazy dog\n
6.216	0.0125	12432	keystroke	t	n/a
6.289	0.0745	12578	keystroke	h	n/a
6.3785	0.0925	12757	keystroke	e	n/a
6.561	0.076	13122	keystroke	Key.space	n/a
6.9065	0.0605	13813	keystroke	q	n/a
7.072	0.0745	14144	keystroke	u	n/a
7.2815	0.1045	14563	keystroke	i	n/a
7.477	0.06	14954	keystroke	c	n/a
7.5965	0.09	15193	keystroke	k	n/a
7.971	0.0755	15942	keystroke	Key.space	n/a
8.377	0.075	16754	keystroke	b	n/a
8.617	0.0295	17234	keystroke	r	n/a
8.7515	0.0895	17503	keystroke	o	n/a
8.901	0.106	17802	keystroke	w	n/a
9.067	0.1045	18134	keystroke	n	n/a
9.321	0.0755	18642	keystroke	Key.space	n/a
9.967	0.06	19934	keystroke	f	n/a
10.1615	0.0755	20323	keystroke	o	n/a
10.372	0.0885	20744	keystroke	x	n/a
10.4905	0.046	20981	keystroke	Key.space	n/a
10.702	0.1045	21404	keystroke	j	n/a
10.8215	0.09	21643	keystroke	u	n/a
11.032	0.0745	22064	keystroke	m	n/a
11.2115	0.09	22423	keystroke	p	n/a
11.3615	0.0755	22723	keystroke	s	n/a
11.4965	0.089	22993	keystroke	Key.space	n/a
12.741	0.0605	25482	keystroke	o	n/a
12.877	0.09	25754	keystroke	v	n/a
13.011	0.135	26022	keystroke	e	n/a
13.1315	0.089	26263	keystroke	r	n/a
13.2515	0.12	26503	keystroke	Key.space	n/a
13.3565	0.0745	26713	keystroke	a	n/a
13.491	0.0905	26982	keystroke	Key.space	n/a
14.122	0.06	28244	keystroke	l	n/a
14.2265	0.075	28453	keystroke	a	n/a
15.2915	0.1055	30583	keystroke	z	n/a
15.637	0.044	31274	keystroke	y	n/a
15.831	0.076	31662	keystroke	Key.space	n/a
15.951	0.106	31902	keystroke	d	n/a
16.087	0.134	32174	keystroke	o	n/a
16.327	0.0745	32654	keystroke	g	n/a
16.522	0.059	33044	keystroke	Key.enter	n/a
16.591	6.862	33182	prompt	n/a	appeal bernard right advertise\n
17.316	0.0905	34632	keystroke	a	n/a
17.572	0.06	35144	keystroke	p	n/a
17.691	0.1055	35382	keystroke	p	n/a
17.767	0.165	35534	keystroke	e	n/a
17.887	0.1195	35774	keystroke	a	n/a
18.112	0.1045	36224	keystroke	l	n/a
18.456	0.0755	36912	keystroke	Key.space	n/a
18.7865	0.06	37573	keystroke	b	n/a
18.8315	0.12	37663	keystroke	e	n/a
18.9665	0.0905	37933	keystroke	r	n/a
19.1315	0.0745	38263	keystroke	n	n/a
19.2365	0.09	38473	keystroke	a	n/a
19.4165	0.0895	38833	keystroke	r	n/a
19.7465	0.105	39493	keystroke	d	n/a
20.091	0.0905	40182	keystroke	Key.space	n/a
20.7215	0.0895	41443	keystroke	r	n/a
20.947	0.105	41894	keystroke	i	n/a
21.066	0.1055	42132	keystroke	g	n/a
21.187	0.09	42374	keystroke	h	n/a
21.262	0.0745	42524	keystroke	t	n/a
21.456	0.0905	42912	keystroke	Key.space	n/a
21.742	0.075	43484	keystroke	a	n/a
21.8915	0.0895	43783	keystroke	d	n/a
22.147	0.074	44294	keystroke	v	n/a
22.2965	0.15	44593	keystroke	e	n/a
22.402	0.1045	44804	keystroke	r	n/a
22.672	0.0445	45344	keystroke	t	n/a
22.7915	0.075	45583	keystroke	i	n/a
22.897	0.105	45794	keystroke	s	n/a
23.121	0.0755	46242	keystroke	e	n/a
23.3765	0.0745	46753	keystroke	Key.enter	n/a
23.4585	10.6605	46917	prompt	n/a	hydraulic participated postcards principal\n
24.426	0.0905	48852	keystroke	h	n/a
24.651	0.0755	49302	keystroke	y	n/a
24.952	0.0745	49904	keystroke	d	n/a
25.146	0.076	50292	keystroke	r	n/a
25.356	0.106	50712	keystroke	a	n/a
25.566	0.075	51132	keystroke	u	n/a
25.881	0.091	51762	keystroke	l	n/a
26.106	0.0755	52212	keystroke	i	n/a
26.272	0.06	52544	keystroke	c	n/a
26.376	0.075	52752	keystroke	Key.space	n/a
27.007	0.075	54014	keystroke	p	n/a
27.052	0.1045	54104	keystroke	a	n/a
27.247	0.0745	54494	keystroke	r	n/a
27.457	0.045	54914	keystroke	t	n/a
27.637	0.059	55274	keystroke	i	n/a
27.832	0.0745	55664	keystroke	c	n/a
27.9365	0.0895	55873	keystroke	i	n/a
28.207	0.074	56414	keystroke	p	n/a
28.296	0.091	56592	keystroke	a	n/a
28.522	0.0895	57044	keystroke	t	n/a
28.6415	0.1055	57283	keystroke	e	n/a
28.837	0.1045	57674	keystroke	d	n/a
29.376	0.0755	58752	keystroke	Key.space	n/a
29.676	0.076	59352	keystroke	p	n/a
30.0215	0.0745	60043	keystroke	o	n/a
30.1115	0.0905	60223	keystroke	s	n/a
30.352	0.06	60704	keystroke	t	n/a
30.6365	0.1355	61273	keystroke	c	n/a
30.787	0.12	61574	keystroke	a	n/a
30.967	0.09	61934	keystroke	r	n/a
31.207	0.09	62414	keystroke	d	n/a
31.342	0.089	62684	keystroke	s	n/a
31.5815	0.075	63163	keystroke	Key.space	n/a
31.837	0.1045	63674	keystroke	p	n/a
32.0615	0.06	64123	keystroke	r	n/a
32.2115	0.1205	64423	keystroke	i	n/a
32.2715	0.1355	64543	keystroke	n	n/a
32.527	0.0595	65054	keystroke	c	n/a
32.6465	0.105	65293	keystroke	i	n/a
33.022	0.105	66044	keystroke	p	n/a
33.187	0.1045	66374	keystroke	a	n/a
33.7565	0.105	67513	keystroke	l	n/a
34.0415	0.075	68083	keystroke	Key.enter	n/a
34.123	7.15	68246	prompt	n/a	shall eval kitty checking\n
35.1065	0.105	70213	keystroke	s	n/a
35.2715	0.075	70543	keystroke	h	n/a
35.332	0.09	70664	keystroke	a	n/a
35.556	0.046	71112	keystroke	l	n/a
35.6915	0.09	71383	keystroke	l	n/a
35.9915	0.075	71983	keystroke	Key.space	n/a
36.0815	0.12	72163	keystroke	e	n/a
36.367	0.075	72734	keystroke	v	n/a
36.471	0.075	72942	keystroke	a	n/a
36.6665	0.075	73333	keystroke	l	n/a
36.9665	0.075	73933	keystroke	Key.space	n/a
37.4315	0.1055	74863	keystroke	k	n/a
37.6565	0.0905	75313	keystroke	i	n/a
37.867	0.0595	75734	keystroke	t	n/a
38.0015	0.075	76003	keystroke	t	n/a
38.256	0.06	76512	keystroke	y	n/a
38.4215	0.09	76843	keystroke	Key.space	n/a
38.7065	0.1045	77413	keystroke	c	n/a
38.872	0.0595	77744	keystroke	h	n/a
38.9915	0.1045	77983	keystroke	e	n/a
39.201	0.0905	78402	keystroke	c	n/a
39.3215	0.075	78643	keystroke	k	n/a
39.4865	0.12	78973	keystroke	i	n/a
39.5615	0.1195	79123	keystroke	n	n/a
41.046	0.075	82092	keystroke	g	n/a
41.196	0.0755	82392	keystroke	Key.enter	n/a
41.285	5.6585	82570	prompt	n/a	india tasks kick crossing\n
42.1865	0.1345	84373	keystroke	i	n/a
42.262	0.135	84524	keystroke	n	n/a
42.412	0.09	84824	keystroke	d	n/a
42.547	0.12	85094	keystroke	i	n/a
42.712	0.075	85424	keystroke	a	n/a
42.892	0.074	85784	keystroke	Key.space	n/a
43.417	0.09	86834	keystroke	t	n/a
43.582	0.09	87164	keystroke	a	n/a
43.732	0.105	87464	keystroke	s	n/a
44.452	0.074	88904	keystroke	k	n/a
44.5115	0.0745	89023	keystroke	s	n/a
44.661	0.0605	89322	keystroke	Key.space	n/a
44.8715	0.075	89743	keystroke	k	n/a
45.022	0.105	90044	keystroke	i	n/a
45.142	0.0895	90284	keystroke	c	n/a
45.2465	0.105	90493	keystroke	k	n/a
45.6215	0.09	91243	keystroke	Key.space	n/a
45.8315	0.09	91663	keystroke	c	n/a
46.042	0.075	92084	keystroke	r	n/a
46.192	0.1045	92384	keystroke	o	n/a
46.3265	0.075	92653	keystroke	s	n/a
46.491	0.0755	92982	keystroke	s	n/a
46.5515	0.15	93103	keystroke	i	n/a
46.6115	0.135	93223	keystroke	n	n/a
46.7315	0.0755	93463	keystroke	g	n/a
46.896	0.0455	93792	keystroke	Key.enter	n/a
46.948	8.3805	93896	prompt	n/a	emission classic initiated surgical\n
47.767	0.075	95534	keystroke	e	n/a
47.9465	0.075	95893	keystroke	m	n/a
48.1415	0.075	96283	keystroke	i	n/a
48.232	0.0595	96464	keystroke	s	n/a
48.3665	0.09	96733	keystroke	s	n/a
48.487	0.195	96974	keystroke	i	n/a
48.5315	0.105	97063	keystroke	o	n/a
48.6065	0.1355	97213	keystroke	n	n/a
49.2515	0.075	98503	keystroke	Key.space	n/a
49.5215	0.06	99043	keystroke	c	n/a
49.6565	0.06	99313	keystroke	l	n/a
49.7915	0.1055	99583	keystroke	a	n/a
49.9265	0.06	99853	keystroke	s	n/a
50.0915	0.06	100183	keystroke	s	n/a
50.2415	0.09	100483	keystroke	i	n/a
50.4065	0.075	100813	keystroke	c	n/a
50.5415	0.075	101083	keystroke	Key.space	n/a
51.231	0.105	102462	keystroke	i	n/a
51.261	0.1355	102522	keystroke	n	n/a
51.591	0.076	103182	keystroke	i	n/a
51.7565	0.0895	103513	keystroke	t	n/a
52.0265	0.075	104053	keystroke	i	n/a
52.191	0.0755	104382	keystroke	a	n/a
52.867	0.1045	105734	keystroke	t	n/a
52.987	0.18	105974	keystroke	e	n/a
53.167	0.1195	106334	keystroke	d	n/a
53.3315	0.09	106663	keystroke	Key.space	n/a
53.707	0.074	107414	keystroke	s	n/a
53.917	0.09	107834	keystroke	u	n/a
54.067	0.075	108134	keystroke	r	n/a
54.397	0.075	108794	keystroke	g	n/a
54.5615	0.09	109123	keystroke	i	n/a
54.7265	0.1205	109453	keystroke	c	n/a
54.9065	0.0895	109813	keystroke	a	n/a
55.011	0.1055	110022	keystroke	l	n/a
55.251	0.075	110502	keystroke	Key.enter	n/a
55.335	6.143	110670	prompt	n/a	listings cool summer riders\n
56.047	0.0595	112094	keystroke	l	n/a
56.241	0.09	112482	keystroke	i	n/a
56.316	0.0755	112632	keystroke	s	n/a
56.5565	0.06	113113	keystroke	t	n/a
56.6015	0.135	113203	keystroke	i	n/a
56.6615	0.135	113323	keystroke	n	n/a
56.8115	0.09	113623	keystroke	g	n/a
57.0665	0.075	114133	keystroke	s	n/a
57.2915	0.075	114583	keystroke	Key.space	n/a
57.4865	0.075	114973	keystroke	c	n/a
57.6665	0.075	115333	keystroke	o	n/a
57.8315	0.09	115663	keystroke	o	n/a
58.0565	0.09	116113	keystroke	l	n/a
58.3115	0.0895	116623	keystroke	Key.space	n/a
58.462	0.12	116924	keystroke	s	n/a
58.626	0.09	117252	keystroke	u	n/a
58.8515	0.0595	117703	keystroke	m	n/a
58.986	0.076	117972	keystroke	m	n/a
59.0315	0.09	118063	keystroke	e	n/a
59.106	0.09	118212	keystroke	r	n/a
59.2265	0.09	118453	keystroke	Key.space	n/a
59.631	0.0905	119262	keystroke	r	n/a
59.7965	0.075	119593	keystroke	i	n/a
59.916	0.106	119832	keystroke	f	n/a
60.3665	0.06	120733	keystroke	Key.backspace	n/a
60.4115	0.135	120823	keystroke	d	n/a
60.5315	0.1805	121063	keystroke	e	n/a
60.667	0.1045	121334	keystroke	r	n/a
61.222	0.0895	122444	keystroke	s	n/a
61.3865	0.09	122773	keystroke	Key.enter	n/a
61.4875	5.8705	122975	prompt	n/a	enlargement join oops with\n
62.2865	0.0605	124573	keystroke	e	n/a
62.497	0.0745	124994	keystroke	n	n/a
62.737	0.075	125474	keystroke	l	n/a
62.812	0.074	125624	keystroke	a	n/a
62.992	0.075	125984	keystroke	r	n/a
63.2465	0.075	126493	keystroke	g	n/a
63.532	0.09	127064	keystroke	m	n/a
63.6515	0.105	127303	keystroke	e	n/a
63.7715	0.0755	127543	keystroke	n	n/a
63.8765	0.0755	127753	keystroke	t	n/a
64.3565	0.075	128713	keystroke	Key.space	n/a
64.6865	0.0905	129373	keystroke	j	n/a
64.8215	0.0905	129643	keystroke	o	n/a
65.0165	0.1205	130033	keystroke	i	n/a
65.122	0.09	130244	keystroke	n	n/a
65.376	0.0755	130752	keystroke	Key.space	n/a
65.887	0.06	131774	keystroke	o	n/a
66.007	0.0895	132014	keystroke	o	n/a
66.2165	0.0755	132433	keystroke	p	n/a
66.352	0.075	132704	keystroke	s	n/a
66.486	0.09	132972	keystroke	Key.space	n/a
66.711	0.09	133422	keystroke	w	n/a
66.8165	0.105	133633	keystroke	i	n/a
66.9815	0.075	133963	keystroke	t	n/a
67.0715	0.06	134143	keystroke	h	n/a
67.3115	0.0455	134623	keystroke	Key.enter	n/a
67.3635	9.115	134727	prompt	n/a	madison theater technician angry\n
68.107	0.075	136214	keystroke	m	n/a
68.227	0.119	136454	keystroke	a	n/a
68.452	0.075	136904	keystroke	d	n/a
68.587	0.075	137174	keystroke	i	n/a
68.677	0.0745	137354	keystroke	s	n/a
68.7965	0.1355	137593	keystroke	o	n/a
68.902	0.119	137804	keystroke	n	n/a
69.1865	0.0755	138373	keystroke	Key.space	n/a
69.472	0.105	138944	keystroke	t	n/a
69.621	0.0755	139242	keystroke	h	n/a
69.7115	0.165	139423	keystroke	e	n/a
69.9515	0.12	139903	keystroke	a	n/a
70.1615	0.09	140323	keystroke	t	n/a
70.2965	0.15	140593	keystroke	e	n/a
70.552	0.1045	141104	keystroke	r	n/a
71.0615	0.09	142123	keystroke	Key.space	n/a
71.5415	0.09	143083	keystroke	t	n/a
71.6915	0.135	143383	keystroke	e	n/a
72.0815	0.0745	144163	keystroke	c	n/a
72.291	0.106	144582	keystroke	h	n/a
72.667	0.089	145334	keystroke	n	n/a
73.1775	0.089	146355	keystroke	i	n/a
73.387	0.0745	146774	keystroke	c	n/a
74.4215	0.075	148843	keystroke	i	n/a
74.5265	0.09	149053	keystroke	a	n/a
74.677	0.0895	149354	keystroke	n	n/a
74.9765	0.06	149953	keystroke	Key.space	n/a
75.172	0.104	150344	keystroke	a	n/a
75.562	0.09	151124	keystroke	n	n/a
75.727	0.105	151454	keystroke	g	n/a
75.997	0.06	151994	keystroke	r	n/a
76.102	0.09	152204	keystroke	y	n/a
76.4015	0.0745	152803	keystroke	Key.enter	n/a
76.483	9.4305	152966	prompt	n/a	green justin classification macintosh\n
77.436	0.0755	154872	keystroke	g	n/a
77.586	0.091	155172	keystroke	r	n/a
77.796	0.0755	155592	keystroke	e	n/a
77.977	0.06	155954	keystroke	e	n/a
78.127	0.0745	156254	keystroke	n	n/a
78.3665	0.0755	156733	keystroke	Key.space	n/a
78.667	0.0745	157334	keystroke	j	n/a
78.8465	0.075	157693	keystroke	u	n/a
78.8915	0.091	157783	keystroke	s	n/a
79.1315	0.06	158263	keystroke	t	n/a
79.206	0.105	158412	keystroke	i	n/a
79.267	0.119	158534	keystroke	n	n/a
80.017	0.075	160034	keystroke	Key.space	n/a
80.257	0.0745	160514	keystroke	c	n/a
80.4365	0.075	160873	keystroke	l	n/a
80.527	0.105	161054	keystroke	a	n/a
80.662	0.03	161324	keystroke	s	n/a
80.782	0.09	161564	keystroke	s	n/a
81.1565	0.105	162313	keystroke	i	n/a
81.576	0.09	163152	keystroke	f	n/a
81.772	0.12	163544	keystroke	i	n/a
82.2515	0.0905	164503	keystroke	c	n/a
82.387	0.105	164774	keystroke	a	n/a
82.567	0.075	165134	keystroke	t	n/a
82.672	0.165	165344	keystroke	i	n/a
82.717	0.1055	165434	keystroke	o	n/a
82.762	0.135	165524	keystroke	n	n/a
83.737	0.06	167474	keystroke	Key.space	n/a
84.2615	0.0605	168523	keystroke	m	n/a
84.3365	0.105	168673	keystroke	a	n/a
84.5475	0.0885	169095	keystroke	c	n/a
84.697	0.15	169394	keystroke	i	n/a
84.7875	0.1045	169575	keystroke	n	n/a
85.1015	0.075	170203	keystroke	t	n/a
85.312	0.105	170624	keystroke	o	n/a
85.492	0.0895	170984	keystroke	s	n/a
85.642	0.075	171284	keystroke	h	n/a
85.8365	0.075	171673	keystroke	Key.enter	n/a
85.9185	14.155	171837	prompt	n/a	pharmacology pieces pathology ends\n
86.7815	0.09	173563	keystroke	p	n/a
87.156	0.061	174312	keystroke	h	n/a
87.232	0.104	174464	keystroke	a	n/a
87.516	0.076	175032	keystroke	r	n/a
88.6115	0.09	177223	keystroke	m	n/a
88.7165	0.0755	177433	keystroke	a	n/a
89.977	0.0605	179954	keystroke	c	n/a
90.0825	0.0745	180165	keystroke	o	n/a
90.276	0.0755	180552	keystroke	l	n/a
90.442	0.09	180884	keystroke	o	n/a
90.637	0.074	181274	keystroke	g	n/a
90.802	0.074	181604	keystroke	y	n/a
91.2215	0.06	182443	keystroke	Key.space	n/a
91.687	0.075	183374	keystroke	p	n/a
91.912	0.075	183824	keystroke	i	n/a
92.122	0.075	184244	keystroke	c	n/a
92.3325	0.075	184665	keystroke	e	n/a
92.6015	0.09	185203	keystroke	s	n/a
94.071	0.0905	188142	keystroke	Key.backspace	n/a
94.282	0.0595	188564	keystroke	Key.backspace	n/a
94.4465	0.045	188893	keystroke	Key.backspace	n/a
95.332	0.1055	190664	keystroke	e	n/a
95.5715	0.1055	191143	keystroke	c	n/a
95.707	0.0745	191414	keystroke	e	n/a
95.9765	0.06	191953	keystroke	s	n/a
96.472	0.06	192944	keystroke	Key.space	n/a
96.772	0.12	193544	keystroke	p	n/a
96.877	0.075	193754	keystroke	a	n/a
97.072	0.0745	194144	keystroke	t	n/a
97.1765	0.0905	194353	keystroke	h	n/a
97.342	0.105	194684	keystroke	o	n/a
97.5965	0.06	195193	keystroke	l	n/a
97.762	0.0905	195524	keystroke	o	n/a
98.3175	0.044	196635	keystroke	g	n/a
98.4825	0.0595	196965	keystroke	y	n/a
99.037	0.0745	198074	keystroke	Key.space	n/a
99.2765	0.09	198553	keystroke	e	n/a
99.427	0.0745	198854	keystroke	n	n/a
99.607	0.075	199214	keystroke	d	n/a
99.787	0.075	199574	keystroke	s	n/a
100.012	0.06	200024	keystroke	Key.enter	n/a
100.0785	5.83	200157	prompt	n/a	update unity iran showed\n
100.9725	0.0595	201945	keystroke	u	n/a
101.212	0.061	202424	keystroke	p	n/a
101.347	0.135	202694	keystroke	d	n/a
101.467	0.12	202934	keystroke	a	n/a
101.662	0.12	203324	keystroke	t	n/a
101.767	0.09	203534	keystroke	e	n/a
102.142	0.09	204284	keystroke	Key.space	n/a
102.637	0.105	205274	keystroke	u	n/a
102.7565	0.12	205513	keystroke	n	n/a
102.9515	0.09	205903	keystroke	i	n/a
103.102	0.0895	206204	keystroke	t	n/a
103.2965	0.06	206593	keystroke	y	n/a
103.477	0.075	206954	keystroke	Key.space	n/a
104.0615	0.0755	208123	keystroke	i	n/a
104.2125	0.149	208425	keystroke	r	n/a
104.392	0.105	208784	keystroke	a	n/a
104.5265	0.0905	209053	keystroke	n	n/a
104.752	0.089	209504	keystroke	Key.space	n/a
104.962	0.105	209924	keystroke	s	n/a
105.0965	0.0755	210193	keystroke	h	n/a
105.277	0.075	210554	keystroke	o	n/a
105.367	0.09	210734	keystroke	w	n/a
105.472	0.09	210944	keystroke	e	n/a
105.697	0.06	211394	keystroke	d	n/a
105.847	0.06	211694	keystroke	Key.enter	n/a
105.913	8.4105	211826	prompt	n/a	helpful chances signed full\n
107.587	0.075	215174	keystroke	h	n/a
107.707	0.075	215414	keystroke	e	n/a
107.842	0.0895	215684	keystroke	l	n/a
108.2765	0.0605	216553	keystroke	p	n/a
109.1625	0.0895	218325	keystroke	f	n/a
109.266	0.0755	218532	keystroke	u	n/a
109.5675	0.0885	219135	keystroke	l	n/a
110.077	0.075	220154	keystroke	Key.space	n/a
110.422	0.09	220844	keystroke	c	n/a
110.5575	0.0745	221115	keystroke	h	n/a
110.617	0.09	221234	keystroke	a	n/a
110.752	0.105	221504	keystroke	n	n/a
110.962	0.105	221924	keystroke	c	n/a
111.142	0.0905	222284	keystroke	e	n/a
111.3815	0.0605	222763	keystroke	s	n/a
111.5765	0.075	223153	keystroke	Key.space	n/a
111.937	0.09	223874	keystroke	s	n/a
112.177	0.09	224354	keystroke	i	n/a
112.372	0.045	224744	keystroke	g	n/a
112.477	0.09	224954	keystroke	n	n/a
112.612	0.15	225224	keystroke	e	n/a
112.747	0.12	225494	keystroke	d	n/a
112.912	0.09	225824	keystroke	Key.space	n/a
113.437	0.045	226874	keystroke	f	n/a
113.6015	0.06	227203	keystroke	u	n/a
113.8415	0.0605	227683	keystroke	l	n/a
113.9765	0.09	227953	keystroke	l	n/a
114.262	0.06	228524	keystroke	Key.enter	n/a
114.328	9.52	228656	prompt	n/a	flights tuesday muslims syria\n
116.5135	0.013	233027	keystroke	g	n/a
117.232	0.03	234464	keystroke	=	n/a
117.4865	0.045	234973	keystroke	Key.backspace	n/a
117.6365	0.045	235273	keystroke	Key.backspace	n/a
117.7565	0.075	235513	keystroke	Key.backspace	n/a
118.0115	0.0745	236023	keystroke	f	n/a
118.191	0.061	236382	keystroke	l	n/a
118.3865	0.09	236773	keystroke	i	n/a
118.5215	0.0755	237043	keystroke	g	n/a
118.627	0.0895	237254	keystroke	h	n/a
118.732	0.0895	237464	keystroke	t	n/a
118.9415	0.09	237883	keystroke	Key.space	n/a
119.4215	0.075	238843	keystroke	t	n/a
119.6325	0.0745	239265	keystroke	u	n/a
119.7215	0.09	239443	keystroke	e	n/a
119.9165	0.105	239833	keystroke	s	n/a
120.1115	0.1205	240223	keystroke	d	n/a
120.247	0.089	240494	keystroke	a	n/a
120.367	0.074	240734	keystroke	y	n/a
120.907	0.06	241814	keystroke	Key.space	n/a
121.237	0.0745	242474	keystroke	m	n/a
121.4315	0.06	242863	keystroke	u	n/a
121.522	0.0745	243044	keystroke	s	n/a
121.7015	0.075	243403	keystroke	l	n/a
121.897	0.1495	243794	keystroke	i	n/a
122.0315	0.12	244063	keystroke	m	n/a
122.407	0.0745	244814	keystroke	s	n/a
122.587	0.0745	245174	keystroke	Key.space	n/a
122.9175	0.074	245835	keystroke	s	n/a
123.127	0.06	246254	keystroke	y	n/a
123.3365	0.06	246673	keystroke	r	n/a
123.516	0.06	247032	keystroke	i	n/a
123.5915	0.0755	247183	keystroke	a	n/a
123.801	0.045	247602	keystroke	Key.enter	n/a
123.8525	8.7405	247705	prompt	n/a	almost served mobile occupation\n
124.747	0.089	249494	keystroke	l	n/a
125.181	0.136	250362	keystroke	Key.backspace	n/a
125.782	0.09	251564	keystroke	a	n/a
125.9025	0.0895	251805	keystroke	l	n/a
126.0965	0.0755	252193	keystroke	m	n/a
126.247	0.089	252494	keystroke	o	n/a
126.307	0.09	252614	keystroke	s	n/a
126.562	0.075	253124	keystroke	t	n/a
126.907	0.09	253814	keystroke	Key.space	n/a
127.2065	0.1055	254413	keystroke	s	n/a
127.462	0.12	254924	keystroke	e	n/a
127.597	0.09	255194	keystroke	r	n/a
127.897	0.075	255794	keystroke	v	n/a
128.047	0.18	256094	keystroke	e	n/a
128.212	0.105	256424	keystroke	d	n/a
128.6915	0.075	257383	keystroke	Key.space	n/a
128.9465	0.1055	257893	keystroke	m	n/a
129.157	0.09	258314	keystroke	o	n/a
129.3965	0.0755	258793	keystroke	b	n/a
129.5625	0.0745	259125	keystroke	i	n/a
129.787	0.0745	259574	keystroke	l	n/a
129.8765	0.0755	259753	keystroke	e	n/a
130.027	0.075	260054	keystroke	Key.space	n/a
130.747	0.0745	261494	keystroke	o	n/a
130.912	0.0745	261824	keystroke	c	n/a
131.077	0.09	262154	keystroke	c	n/a
131.181	0.09	262362	keystroke	u	n/a
131.497	0.09	262994	keystroke	p	n/a
131.5715	0.0605	263143	keystroke	a	n/a
131.7665	0.075	263533	keystroke	t	n/a
131.8715	0.225	263743	keystroke	i	n/a
131.977	0.09	263954	keystroke	o	n/a
132.007	0.1495	264014	keystroke	n	n/a
132.487	0.104	264974	keystroke	Key.enter	n/a
132.597	9.132	265194	prompt	n/a	decision anaheim notebook distinguished\n
133.357	0.105	266714	keystroke	d	n/a
133.5065	0.105	267013	keystroke	e	n/a
133.7315	0.0745	267463	keystroke	c	n/a
133.8515	0.09	267703	keystroke	i	n/a
133.972	0.074	267944	keystroke	s	n/a
134.076	0.211	268152	keystroke	i	n/a
134.181	0.0905	268362	keystroke	o	n/a
134.226	0.121	268452	keystroke	n	n/a
134.5865	0.0905	269173	keystroke	Key.space	n/a
134.7965	0.075	269593	keystroke	a	n/a
135.082	0.0895	270164	keystroke	n	n/a
135.217	0.075	270434	keystroke	a	n/a
135.922	0.0895	271844	keystroke	h	n/a
136.117	0.0745	272234	keystroke	e	n/a
136.236	0.1215	272472	keystroke	i	n/a
136.582	0.09	273164	keystroke	m	n/a
137.0165	0.075	274033	keystroke	Key.space	n/a
137.407	0.075	274814	keystroke	n	n/a
137.572	0.09	275144	keystroke	o	n/a
137.7215	0.0905	275443	keystroke	t	n/a
137.8725	0.1045	275745	keystroke	e	n/a
138.0965	0.075	276193	keystroke	b	n/a
138.3215	0.075	276643	keystroke	o	n/a
138.4715	0.12	276943	keystroke	o	n/a
138.577	0.105	277154	keystroke	k	n/a
138.892	0.0745	277784	keystroke	Key.space	n/a
139.252	0.09	278504	keystroke	d	n/a
139.4465	0.06	278893	keystroke	i	n/a
139.522	0.0895	279044	keystroke	s	n/a
139.777	0.045	279554	keystroke	t	n/a
139.8525	0.0895	279705	keystroke	i	n/a
140.0915	0.0755	280183	keystroke	n	n/a
140.272	0.074	280544	keystroke	g	n/a
140.392	0.09	280784	keystroke	u	n/a
140.631	0.09	281262	keystroke	i	n/a
140.8865	0.0605	281773	keystroke	s	n/a
141.216	0.06	282432	keystroke	h	n/a
141.3225	0.12	282645	keystroke	e	n/a
141.457	0.104	282914	keystroke	d	n/a
141.6665	0.0605	283333	keystroke	Key.enter	n/a
141.7335	5.7395	283467	prompt	n/a	setting feelings spas potter\n
142.3575	0.0735	284715	keystroke	s	n/a
142.581	0.0755	285162	keystroke	e	n/a
142.7925	0.0895	285585	keystroke	t	n/a
142.9415	0.09	285883	keystroke	t	n/a
143.0165	0.135	286033	keystroke	i	n/a
143.0765	0.1505	286153	keystroke	n	n/a
143.2115	0.045	286423	keystroke	g	n/a
143.3615	0.075	286723	keystroke	Key.space	n/a
143.9765	0.075	287953	keystroke	f	n/a
144.127	0.09	288254	keystroke	e	n/a
144.397	0.015	288794	keystroke	e	n/a
144.427	0.045	288854	keystroke	l	n/a
144.592	0.1195	289184	keystroke	i	n/a
144.6665	0.1055	289333	keystroke	n	n/a
144.7565	0.075	289513	keystroke	g	n/a
144.9215	0.076	289843	keystroke	s	n/a
145.1015	0.06	290203	keystroke	Key.space	n/a
145.327	0.1045	290654	keystroke	s	n/a
145.4915	0.1055	290983	keystroke	p	n/a
145.5515	0.12	291103	keystroke	a	n/a
145.867	0.06	291734	keystroke	s	n/a
146.107	0.0745	292214	keystroke	Key.space	n/a
146.4215	0.105	292843	keystroke	p	n/a
146.6615	0.0605	293323	keystroke	o	n/a
146.782	0.075	293564	keystroke	t	n/a
146.9765	0.0455	293953	keystroke	t	n/a
147.097	0.15	294194	keystroke	e	n/a
147.2015	0.075	294403	keystroke	r	n/a
147.382	0.09	294764	keystroke	Key.enter	n/a
147.477	7.9465	294954	prompt	n/a	boot peripheral i'll flex\n
148.252	0.0595	296504	keystroke	b	n/a
148.462	0.06	296924	keystroke	o	n/a
148.597	0.0895	297194	keystroke	o	n/a
148.7165	0.0755	297433	keystroke	t	n/a
148.867	0.0895	297734	keystroke	Key.space	n/a
149.527	0.059	299054	keystroke	p	n/a
149.6615	0.1055	299323	keystroke	e	n/a
149.7515	0.1055	299503	keystroke	r	n/a
149.946	0.09	299892	keystroke	i	n/a
150.292	0.12	300584	keystroke	p	n/a
150.982	0.105	301964	keystroke	h	n/a
151.7915	0.135	303583	keystroke	e	n/a
151.941	0.0755	303882	keystroke	r	n/a
152.107	0.0595	304214	keystroke	a	n/a
152.227	0.0895	304454	keystroke	l	n/a
152.5415	0.0905	305083	keystroke	Key.space	n/a
153.0215	0.09	306043	keystroke	i	n/a
153.277	0.0595	306554	keystroke	'	n/a
153.8165	0.0905	307633	keystroke	l	n/a
153.9815	0.105	307963	keystroke	l	n/a
154.326	0.075	308652	keystroke	Key.space	n/a
154.702	0.075	309404	keystroke	f	n/a
154.8515	0.1055	309703	keystroke	l	n/a
154.9865	0.151	309973	keystroke	e	n/a
155.227	0.105	310454	keystroke	x	n/a
155.3465	0.0755	310693	keystroke	Key.enter	n/a
155.4275	8.471	310855	prompt	n/a	percentage declare latvia maintaining\n
156.562	0.075	313124	keystroke	p	n/a
156.622	0.135	313244	keystroke	e	n/a
156.7265	0.105	313453	keystroke	r	n/a
157.162	0.075	314324	keystroke	c	n/a
157.297	0.12	314594	keystroke	e	n/a
157.402	0.075	314804	keystroke	n	n/a
157.537	0.09	315074	keystroke	t	n/a
157.687	0.12	315374	keystroke	a	n/a
157.9575	0.1195	315915	keystroke	g	n/a
158.0615	0.1045	316123	keystroke	e	n/a
158.3765	0.0755	316753	keystroke	Key.space	n/a
158.887	0.03	317774	keystroke	d	n/a
158.962	0.12	317924	keystroke	e	n/a
159.142	0.12	318284	keystroke	c	n/a
159.321	0.076	318642	keystroke	l	n/a
159.412	0.1045	318824	keystroke	a	n/a
159.5915	0.1205	319183	keystroke	r	n/a
159.667	0.105	319334	keystroke	e	n/a
160.1015	0.135	320203	keystroke	Key.space	n/a
160.4465	0.09	320893	keystroke	l	n/a
160.5365	0.0605	321073	keystroke	a	n/a
160.7765	0.0755	321553	keystroke	t	n/a
161.092	0.1045	322184	keystroke	v	n/a
161.2715	0.0755	322543	keystroke	i	n/a
161.362	0.075	322724	keystroke	a	n/a
161.527	0.075	323054	keystroke	Key.space	n/a
162.1265	0.09	324253	keystroke	m	n/a
162.2165	0.09	324433	keystroke	a	n/a
162.3215	0.1205	324643	keystroke	i	n/a
162.383	0.1185	324766	keystroke	n	n/a
162.607	0.0895	325214	keystroke	t	n/a
162.742	0.09	325484	keystroke	a	n/a
162.8765	0.135	325753	keystroke	i	n/a
162.952	0.1805	325904	keystroke	n	n/a
163.327	0.12	326654	keystroke	i	n/a
163.372	0.165	326744	keystroke	n	n/a
163.477	0.09	326954	keystroke	g	n/a
163.807	0.09	327614	keystroke	Key.enter	n/a
163.906	8.9625	327812	prompt	n/a	beneficial ryan respectively kyle\n
164.722	0.074	329444	keystroke	b	n/a
164.812	0.075	329624	keystroke	e	n/a
165.0815	0.0905	330163	keystroke	n	n/a
165.202	0.105	330404	keystroke	e	n/a
165.547	0.045	331094	keystroke	f	n/a
165.742	0.06	331484	keystroke	i	n/a
165.952	0.06	331904	keystroke	c	n/a
166.027	0.09	332054	keystroke	i	n/a
166.1615	0.1205	332323	keystroke	a	n/a
166.297	0.105	332594	keystroke	l	n/a
166.627	0.0745	333254	keystroke	Key.space	n/a
167.3615	0.0755	334723	keystroke	r	n/a
167.662	0.1045	335324	keystroke	y	n/a
167.7965	0.0905	335593	keystroke	a	n/a
167.9165	0.09	335833	keystroke	n	n/a
168.1265	0.075	336253	keystroke	Key.space	n/a
168.517	0.105	337034	keystroke	r	n/a
168.577	0.135	337154	keystroke	e	n/a
169.0425	0.074	338085	keystroke	s	n/a
169.2215	0.0755	338443	keystroke	p	n/a
169.3415	0.105	338683	keystroke	e	n/a
169.5965	0.06	339193	keystroke	c	n/a
169.7915	0.09	339583	keystroke	t	n/a
170.7215	0.0605	341443	keystroke	i	n/a
170.8415	0.0745	341683	keystroke	v	n/a
170.992	0.1045	341984	keystroke	e	n/a
171.2015	0.075	342403	keystroke	l	n/a
171.4265	0.06	342853	keystroke	y	n/a
171.6365	0.075	343273	keystroke	Key.space	n/a
172.0875	0.0745	344175	keystroke	k	n/a
172.3115	0.075	344623	keystroke	y	n/a
172.5515	0.1055	345103	keystroke	l	n/a
172.7315	0.016	345463	keystroke	e	n/a
172.822	0.0445	345644	keystroke	Key.enter	n/a
172.8725	9.146	345745	prompt	n/a	bucks graduate refresh vocabulary\n
173.7665	0.06	347533	keystroke	b	n/a
173.9165	0.075	347833	keystroke	u	n/a
174.337	0.0445	348674	keystroke	c	n/a
174.442	0.0745	348884	keystroke	k	n/a
174.5315	0.0755	349063	keystroke	s	n/a
174.682	0.075	349364	keystroke	Key.space	n/a
175.327	0.105	350654	keystroke	g	n/a
175.4465	0.0905	350893	keystroke	r	n/a
175.6115	0.0905	351223	keystroke	a	n/a
175.7165	0.105	351433	keystroke	d	n/a
175.927	0.075	351854	keystroke	u	n/a
176.017	0.09	352034	keystroke	a	n/a
176.151	0.165	352302	keystroke	t	n/a
176.271	0.106	352542	keystroke	e	n/a
176.541	0.09	353082	keystroke	Key.space	n/a
177.006	0.091	354012	keystroke	r	n/a
177.082	0.1355	354164	keystroke	e	n/a
177.427	0.12	354854	keystroke	f	n/a
177.697	0.06	355394	keystroke	r	n/a
177.877	0.089	355754	keystroke	e	n/a
178.102	0.09	356204	keystroke	s	n/a
178.252	0.089	356504	keystroke	h	n/a
178.537	0.0745	357074	keystroke	Key.space	n/a
179.017	0.0755	358034	keystroke	c	n/a
179.4965	0.09	358993	keystroke	Key.backspace	n/a
179.6165	0.09	359233	keystroke	v	n/a
179.9165	0.075	359833	keystroke	o	n/a
180.097	0.075	360194	keystroke	c	n/a
180.217	0.09	360434	keystroke	a	n/a
180.817	0.09	361634	keystroke	b	n/a
180.997	0.075	361994	keystroke	u	n/a
181.237	0.09	362474	keystroke	l	n/a
181.327	0.104	362654	keystroke	a	n/a
181.507	0.12	363014	keystroke	r	n/a
181.777	0.06	363554	keystroke	y	n/a
181.971	0.0455	363942	keystroke	Key.enter	n/a
182.023	11.14	364046	prompt	n/a	eclipse weapons corporation injury\n
183.0365	0.0905	366073	keystroke	e	n/a
183.2615	0.105	366523	keystroke	c	n/a
183.382	0.0755	366764	keystroke	l	n/a
183.5765	0.0755	367153	keystroke	i	n/a
183.7715	0.076	367543	keystroke	p	n/a
183.8615	0.045	367723	keystroke	e	n/a
184.267	0.119	368534	keystroke	Key.backspace	n/a
184.357	0.09	368714	keystroke	s	n/a
184.566	0.061	369132	keystroke	e	n/a
184.687	0.074	369374	keystroke	Key.space	n/a
185.752	0.089	371504	keystroke	w	n/a
185.871	0.075	371742	keystroke	e	n/a
186.697	0.09	373394	keystroke	a	n/a
187.102	0.045	374204	keystroke	p	n/a
187.281	0.12	374562	keystroke	o	n/a
187.671	0.046	375342	keystroke	n	n/a
188.272	0.09	376544	keystroke	s	n/a
189.0515	0.09	378103	keystroke	Key.space	n/a
189.352	0.09	378704	keystroke	c	n/a
189.547	0.105	379094	keystroke	o	n/a
189.696	0.0765	379392	keystroke	r	n/a
189.801	0.106	379602	keystroke	p	n/a
190.102	0.09	380204	keystroke	o	n/a
190.3115	0.09	380623	keystroke	r	n/a
190.507	0.1045	381014	keystroke	a	n/a
190.6565	0.09	381313	keystroke	t	n/a
190.7765	0.1955	381553	keystroke	i	n/a
190.837	0.1495	381674	keystroke	o	n/a
190.9265	0.12	381853	keystroke	n	n/a
191.077	0.0895	382154	keystroke	s	n/a
191.5115	0.075	383023	keystroke	Key.space	n/a
191.7665	0.105	383533	keystroke	i	n/a
191.842	0.12	383684	keystroke	n	n/a
192.1265	0.075	384253	keystroke	j	n/a
192.2915	0.0905	384583	keystroke	u	n/a
192.516	0.09	385032	keystroke	r	n/a
192.891	0.0755	385782	keystroke	y	n/a
193.086	0.075	386172	keystroke	Key.enter	n/a
193.1665	10.197	386333	prompt	n/a	divorce confirm wrapped microwave\n
193.942	0.09	387884	keystroke	d	n/a
194.1665	0.075	388333	keystroke	i	n/a
194.3315	0.0905	388663	keystroke	v	n/a
194.5565	0.09	389113	keystroke	o	n/a
194.6475	0.104	389295	keystroke	r	n/a
194.9615	0.135	389923	keystroke	c	n/a
195.171	0.0755	390342	keystroke	e	n/a
195.606	0.0605	391212	keystroke	Key.space	n/a
196.0115	0.075	392023	keystroke	c	n/a
196.101	0.121	392202	keystroke	o	n/a
196.207	0.1055	392414	keystroke	n	n/a
196.401	0.0905	392802	keystroke	f	n/a
196.5065	0.09	393013	keystroke	i	n/a
196.7465	0.09	393493	keystroke	r	n/a
196.8965	0.09	393793	keystroke	m	n/a
197.137	0.0595	394274	keystroke	Key.space	n/a
197.4815	0.105	394963	keystroke	w	n/a
198.2015	0.12	396403	keystroke	Key.backspace	n/a
198.2765	0.12	396553	keystroke	r	n/a
198.4115	0.09	396823	keystroke	a	n/a
198.9065	0.06	397813	keystroke	Key.backspace	n/a
199.0265	0.12	398053	keystroke	Key.backspace	n/a
199.282	0.09	398564	keystroke	w	n/a
199.492	0.105	398984	keystroke	r	n/a
199.657	0.0895	399314	keystroke	a	n/a
199.837	0.0595	399674	keystroke	p	n/a
199.9865	0.0755	399973	keystroke	p	n/a
200.0625	0.1795	400125	keystroke	e	n/a
200.227	0.105	400454	keystroke	d	n/a
200.376	0.0755	400752	keystroke	Key.space	n/a
200.931	0.195	401862	keystroke	m	n/a
201.247	0.105	402494	keystroke	i	n/a
201.517	0.105	403034	keystroke	c	n/a
201.8765	0.075	403753	keystroke	r	n/a
202.1465	0.12	404293	keystroke	o	n/a
202.4315	0.1505	404863	keystroke	w	n/a
202.702	0.045	405404	keystroke	a	n/a
202.972	0.12	405944	keystroke	v	n/a
203.122	0.09	406244	keystroke	e	n/a
203.286	0.075	406572	keystroke	Key.enter	n/a
203.368	7.6455	406736	prompt	n/a	louis ongoing collective morris\n
204.982	0.12	409964	keystroke	l	n/a
205.162	0.0895	410324	keystroke	o	n/a
205.4025	0.0745	410805	keystroke	u	n/a
205.701	0.09	411402	keystroke	i	n/a
205.806	0.0905	411612	keystroke	s	n/a
205.927	0.0895	411854	keystroke	Key.space	n/a
206.557	0.1195	413114	keystroke	o	n/a
206.827	0.06	413654	keystroke	n	n/a
207.022	0.075	414044	keystroke	g	n/a
207.157	0.03	414314	keystroke	o	n/a
207.397	0.12	414794	keystroke	i	n/a
207.502	0.104	415004	keystroke	n	n/a
207.576	0.1055	415152	keystroke	g	n/a
207.741	0.09	415482	keystroke	Key.space	n/a
208.282	0.0445	416564	keystroke	c	n/a
208.3715	0.0895	416743	keystroke	o	n/a
208.5815	0.045	417163	keystroke	l	n/a
208.7015	0.09	417403	keystroke	l	n/a
208.807	0.0895	417614	keystroke	e	n/a
209.017	0.09	418034	keystroke	c	n/a
209.2715	0.0455	418543	keystroke	t	n/a
209.3465	0.0605	418693	keystroke	i	n/a
209.5715	0.0305	419143	keystroke	v	n/a
209.6615	0.105	419323	keystroke	e	n/a
209.8265	0.075	419653	keystroke	Key.space	n/a
210.157	0.074	420314	keystroke	m	n/a
210.321	0.1055	420642	keystroke	o	n/a
210.4565	0.06	420913	keystroke	r	n/a
210.606	0.076	421212	keystroke	r	n/a
210.711	0.076	421422	keystroke	i	n/a
210.802	0.119	421604	keystroke	s	n/a
210.951	0.0605	421902	keystroke	Key.enter	n/a
211.018	6.3255	422036	prompt	n/a	albums global logan quoted\n
211.657	0.0745	423314	keystroke	a	n/a
211.8215	0.0605	423643	keystroke	l	n/a
212.0615	0.0605	424123	keystroke	b	n/a
212.197	0.105	424394	keystroke	u	n/a
212.437	0.075	424874	keystroke	m	n/a
212.527	0.075	425054	keystroke	s	n/a
212.677	0.044	425354	keystroke	Key.space	n/a
213.0065	0.0895	426013	keystroke	g	n/a
213.217	0.059	426434	keystroke	l	n/a
213.381	0.075	426762	keystroke	o	n/a
213.562	0.074	427124	keystroke	b	n/a
213.6815	0.075	427363	keystroke	a	n/a
213.831	0.09	427662	keystroke	l	n/a
214.116	0.0755	428232	keystroke	Key.space	n/a
214.417	0.059	428834	keystroke	l	n/a
214.581	0.0755	429162	keystroke	o	n/a
214.761	0.105	429522	keystroke	g	n/a
214.941	0.076	429882	keystroke	a	n/a
215.331	0.075	430662	keystroke	n	n/a
215.5565	0.06	431113	keystroke	Key.space	n/a
216.2165	0.0605	432433	keystroke	q	n/a
216.382	0.0595	432764	keystroke	u	n/a
216.5925	0.059	433185	keystroke	o	n/a
216.7565	0.075	433513	keystroke	t	n/a
216.891	0.2555	433782	keystroke	e	n/a
217.1165	0.1355	434233	keystroke	d	n/a
217.2665	0.075	434533	keystroke	Key.enter	n/a
217.3475	8.651	434695	prompt	n/a	contractor keyboards judicial indian\n
218.2415	0.09	436483	keystroke	c	n/a
218.3915	0.12	436783	keystroke	o	n/a
218.4665	0.12	436933	keystroke	n	n/a
218.6915	0.105	437383	keystroke	t	n/a
218.9315	0.0755	437863	keystroke	r	n/a
219.1115	0.1055	438223	keystroke	a	n/a
219.2765	0.105	438553	keystroke	c	n/a
219.5165	0.075	439033	keystroke	t	n/a
219.6365	0.075	439273	keystroke	o	n/a
219.8315	0.09	439663	keystroke	r	n/a
219.982	0.0745	439964	keystroke	Key.space	n/a
220.867	0.0895	441734	keystroke	k	n/a
221.272	0.0595	442544	keystroke	e	n/a
221.452	0.075	442904	keystroke	y	n/a
221.6765	0.0755	443353	keystroke	b	n/a
221.887	0.09	443774	keystroke	o	n/a
221.992	0.0895	443984	keystroke	a	n/a
222.1865	0.0895	444373	keystroke	r	n/a
222.412	0.1345	444824	keystroke	d	n/a
222.5615	0.0755	445123	keystroke	s	n/a
222.6665	0.0755	445333	keystroke	Key.space	n/a
222.937	0.075	445874	keystroke	j	n/a
223.1165	0.075	446233	keystroke	u	n/a
223.2965	0.075	446593	keystroke	d	n/a
223.5515	0.0755	447103	keystroke	i	n/a
223.702	0.09	447404	keystroke	c	n/a
223.807	0.075	447614	keystroke	i	n/a
223.897	0.075	447794	keystroke	a	n/a
224.047	0.0895	448094	keystroke	l	n/a
224.4065	0.06	448813	keystroke	Key.space	n/a
224.812	0.09	449624	keystroke	i	n/a
224.872	0.135	449744	keystroke	n	n/a
225.2465	0.09	450493	keystroke	d	n/a
225.3215	0.0905	450643	keystroke	i	n/a
225.426	0.09	450852	keystroke	a	n/a
225.667	0.075	451334	keystroke	n	n/a
225.937	0.06	451874	keystroke	Key.enter	n/a
226.0025	9.971	452005	prompt	n/a	indexed continues stephen supported\n
226.7315	0.0755	453463	keystroke	i	n/a
226.8365	0.09	453673	keystroke	n	n/a
227.1665	0.09	454333	keystroke	d	n/a
227.4065	0.165	454813	keystroke	e	n/a
228.5465	0.12	457093	keystroke	x	n/a
229.2815	0.1805	458563	keystroke	e	n/a
229.387	0.15	458774	keystroke	d	n/a
229.9265	0.0745	459853	keystroke	Key.space	n/a
231.0365	0.075	462073	keystroke	c	n/a
231.1715	0.105	462343	keystroke	o	n/a
231.2465	0.1205	462493	keystroke	n	n/a
231.4865	0.0605	462973	keystroke	t	n/a
231.562	0.09	463124	keystroke	i	n/a
231.622	0.105	463244	keystroke	n	n/a
231.786	0.091	463572	keystroke	u	n/a
231.952	0.0895	463904	keystroke	e	n/a
232.131	0.091	464262	keystroke	s	n/a
232.282	0.0745	464564	keystroke	Key.space	n/a
232.7015	0.09	465403	keystroke	s	n/a
233.002	0.09	466004	keystroke	t	n/a
233.137	0.075	466274	keystroke	e	n/a
233.3165	0.075	466633	keystroke	p	n/a
233.497	0.09	466994	keystroke	h	n/a
233.602	0.0895	467204	keystroke	e	n/a
233.7065	0.09	467413	keystroke	n	n/a
233.9165	0.075	467833	keystroke	Key.space	n/a
234.261	0.0605	468522	keystroke	s	n/a
234.442	0.0895	468884	keystroke	u	n/a
234.7115	0.06	469423	keystroke	p	n/a
234.8315	0.045	469663	keystroke	p	n/a
235.072	0.0895	470144	keystroke	o	n/a
235.1765	0.0905	470353	keystroke	r	n/a
235.387	0.0745	470774	keystroke	t	n/a
235.5215	0.195	471043	keystroke	e	n/a
235.687	0.134	471374	keystroke	d	n/a
235.9265	0.045	471853	keystroke	Key.enter	n/a
235.9795	8.274	471959	prompt	n/a	cheapest incidents fever look\n
236.7065	0.09	473413	keystroke	c	n/a
236.8265	0.105	473653	keystroke	h	n/a
236.947	0.1495	473894	keystroke	e	n/a
237.037	0.12	474074	keystroke	a	n/a
237.202	0.1045	474404	keystroke	p	n/a
237.3365	0.135	474673	keystroke	e	n/a
237.592	0.12	475184	keystroke	s	n/a
237.8615	0.075	475723	keystroke	t	n/a
238.0415	0.0755	476083	keystroke	Key.space	n/a
238.342	0.12	476684	keystroke	i	n/a
238.432	0.105	476864	keystroke	n	n/a
238.762	0.0745	477524	keystroke	c	n/a
238.8665	0.1045	477733	keystroke	i	n/a
239.7665	0.0895	479533	keystroke	d	n/a
239.901	0.136	479802	keystroke	e	n/a
240.037	0.09	480074	keystroke	n	n/a
240.337	0.0895	480674	keystroke	t	n/a
240.6215	0.105	481243	keystroke	s	n/a
241.1465	0.06	482293	keystroke	Key.space	n/a
241.6715	0.1805	483343	keystroke	d	n/a
242.0915	0.15	484183	keystroke	Key.backspace	n/a
242.227	0.119	484454	keystroke	f	n/a
242.317	0.1795	484634	keystroke	e	n/a
242.5865	0.0905	485173	keystroke	v	n/a
242.7365	0.21	485473	keystroke	e	n/a
242.9165	0.12	485833	keystroke	r	n/a
243.4265	0.045	486853	keystroke	Key.space	n/a
243.7115	0.015	487423	keystroke	l	n/a
243.8465	0.06	487693	keystroke	o	n/a
243.9665	0.12	487933	keystroke	o	n/a
244.0265	0.1655	488053	keystroke	k	n/a
244.161	0.0905	488322	keystroke	Key.enter	n/a
244.2585	9.835	488517	prompt	n/a	contributors july trader chronic\n
244.9565	0.075	489913	keystroke	c	n/a
245.0765	0.105	490153	keystroke	o	n/a
245.1515	0.1055	490303	keystroke	n	n/a
245.3465	0.0605	490693	keystroke	t	n/a
245.616	0.076	491232	keystroke	r	n/a
245.782	0.075	491564	keystroke	i	n/a
246.397	0.0445	492794	keystroke	u	n/a
246.9215	0.105	493843	keystroke	Key.backspace	n/a
247.537	0.0595	495074	keystroke	b	n/a
247.6565	0.0895	495313	keystroke	u	n/a
247.852	0.104	495704	keystroke	t	n/a
248.0315	0.0755	496063	keystroke	o	n/a
248.226	0.0905	496452	keystroke	r	n/a
248.8715	0.105	497743	keystroke	s	n/a
248.9915	0.075	497983	keystroke	Key.space	n/a
249.261	0.075	498522	keystroke	j	n/a
249.397	0.09	498794	keystroke	u	n/a
249.6215	0.105	499243	keystroke	l	n/a
249.8615	0.075	499723	keystroke	t	n/a
250.2515	0.12	500503	keystroke	Key.backspace	n/a
250.4015	0.09	500803	keystroke	y	n/a
250.6265	0.06	501253	keystroke	Key.space	n/a
251.377	0.134	502754	keystroke	t	n/a
251.496	0.151	502992	keystroke	r	n/a
251.647	0.1345	503294	keystroke	a	n/a
251.8265	0.15	503653	keystroke	d	n/a
251.9615	0.195	503923	keystroke	e	n/a
252.1265	0.1045	504253	keystroke	r	n/a
252.4115	0.09	504823	keystroke	Key.space	n/a
252.8475	0.089	505695	keystroke	c	n/a
253.132	0.1045	506264	keystroke	h	n/a
253.2815	0.09	506563	keystroke	r	n/a
253.4165	0.12	506833	keystroke	o	n/a
253.5215	0.12	507043	keystroke	n	n/a
253.702	0.12	507404	keystroke	i	n/a
253.882	0.105	507764	keystroke	c	n/a
254.0015	0.09	508003	keystroke	Key.enter	n/a
254.101	9.0675	508202	prompt	n/a	valium efficiency newport jesse\n
255.037	0.09	510074	keystroke	v	n/a
255.3075	0.0745	510615	keystroke	a	n/a
255.5015	0.075	511003	keystroke	l	n/a
255.7415	0.09	511483	keystroke	i	n/a
256.102	0.12	512204	keystroke	u	n/a
256.8665	0.045	513733	keystroke	m	n/a
257.0165	0.0745	514033	keystroke	Key.space	n/a
257.317	0.105	514634	keystroke	e	n/a
257.512	0.074	515024	keystroke	f	n/a
257.6615	0.0905	515323	keystroke	f	n/a
257.842	0.09	515684	keystroke	i	n/a
258.322	0.105	516644	keystroke	c	n/a
258.532	0.12	517064	keystroke	i	n/a
259.222	0.1045	518444	keystroke	e	n/a
259.477	0.074	518954	keystroke	n	n/a
259.657	0.0895	519314	keystroke	c	n/a
259.8065	0.105	519613	keystroke	y	n/a
260.196	0.076	520392	keystroke	Key.space	n/a
260.4215	0.075	520843	keystroke	n	n/a
260.5565	0.2095	521113	keystroke	e	n/a
260.737	0.149	521474	keystroke	w	n/a
261.261	0.06	522522	keystroke	p	n/a
261.4265	0.1055	522853	keystroke	o	n/a
261.516	0.09	523032	keystroke	r	n/a
261.711	0.091	523422	keystroke	t	n/a
261.891	0.075	523782	keystroke	Key.space	n/a
262.2965	0.06	524593	keystroke	j	n/a
262.417	0.0895	524834	keystroke	e	n/a
262.657	0.045	525314	keystroke	s	n/a
262.7765	0.075	525553	keystroke	s	n/a
262.9565	0.075	525913	keystroke	e	n/a
263.077	0.0895	526154	keystroke	Key.enter	n/a
263.172	9.297	526344	prompt	n/a	educational scientists assists recordings\n
264.052	0.074	528104	keystroke	e	n/a
264.217	0.075	528434	keystroke	d	n/a
264.457	0.075	528914	keystroke	u	n/a
264.637	0.09	529274	keystroke	c	n/a
264.7715	0.12	529543	keystroke	a	n/a
265.012	0.03	530024	keystroke	t	n/a
265.087	0.135	530174	keystroke	i	n/a
265.132	0.0745	530264	keystroke	o	n/a
265.1765	0.135	530353	keystroke	n	n/a
265.3715	0.075	530743	keystroke	s	n/a
265.8065	0.12	531613	keystroke	Key.backspace	n/a
265.957	0.09	531914	keystroke	a	n/a
266.0615	0.1205	532123	keystroke	l	n/a
266.706	0.0605	533412	keystroke	Key.space	n/a
266.902	0.09	533804	keystroke	s	n/a
267.142	0.06	534284	keystroke	c	n/a
267.247	0.105	534494	keystroke	i	n/a
267.337	0.09	534674	keystroke	e	n/a
267.442	0.089	534884	keystroke	n	n/a
267.667	0.075	535334	keystroke	t	n/a
267.771	0.12	535542	keystroke	i	n/a
267.9965	0.1045	535993	keystroke	s	n/a
268.2665	0.0905	536533	keystroke	t	n/a
268.5065	0.09	537013	keystroke	s	n/a
268.746	0.045	537492	keystroke	Key.space	n/a
268.986	0.0755	537972	keystroke	a	n/a
269.1225	0.075	538245	keystroke	s	n/a
269.2865	0.0745	538573	keystroke	s	n/a
269.467	0.074	538934	keystroke	i	n/a
269.571	0.12	539142	keystroke	s	n/a
269.902	0.074	539804	keystroke	t	n/a
270.1715	0.0445	540343	keystroke	s	n/a
270.426	0.06	540852	keystroke	Key.space	n/a
270.892	0.09	541784	keystroke	r	n/a
270.967	0.135	541934	keystroke	e	n/a
271.222	0.06	542444	keystroke	c	n/a
271.387	0.09	542774	keystroke	o	n/a
271.5365	0.045	543073	keystroke	r	n/a
271.746	0.09	543492	keystroke	d	n/a
271.851	0.1505	543702	keystroke	i	n/a
271.926	0.12	543852	keystroke	n	n/a
272.016	0.06	544032	keystroke	g	n/a
272.2265	0.09	544453	keystroke	s	n/a
272.3915	0.075	544783	keystroke	Key.enter	n/a
272.473	9.1445	544946	prompt	n/a	was how'd describes unfortunately\n
273.471	0.1205	546942	keystroke	w	n/a
273.6065	0.18	547213	keystroke	a	n/a
273.756	0.0915	547512	keystroke	s	n/a
274.1015	0.105	548203	keystroke	Key.space	n/a
274.386	0.075	548772	keystroke	h	n/a
274.7315	0.0895	549463	keystroke	o	n/a
275.0465	0.0905	550093	keystroke	w	n/a
275.602	0.0595	551204	keystroke	'	n/a
275.7815	0.0605	551563	keystroke	d	n/a
275.916	0.09	551832	keystroke	Key.space	n/a
276.412	0.075	552824	keystroke	d	n/a
276.502	0.1205	553004	keystroke	e	n/a
276.757	0.06	553514	keystroke	s	n/a
276.937	0.075	553874	keystroke	c	n/a
277.1165	0.06	554233	keystroke	r	n/a
277.2215	0.0895	554443	keystroke	i	n/a
277.4315	0.0595	554863	keystroke	b	n/a
277.506	0.091	555012	keystroke	e	n/a
277.7465	0.06	555493	keystroke	s	n/a
277.8365	0.0895	555673	keystroke	Key.space	n/a
278.1815	0.1195	556363	keystroke	u	n/a
278.2565	0.1205	556513	keystroke	n	n/a
278.542	0.09	557084	keystroke	f	n/a
278.737	0.1345	557474	keystroke	o	n/a
279.487	0.09	558974	keystroke	r	n/a
279.7415	0.0455	559483	keystroke	t	n/a
279.8315	0.1055	559663	keystroke	u	n/a
279.9815	0.105	559963	keystroke	n	n/a
280.101	0.106	560202	keystroke	a	n/a
280.386	0.0755	560772	keystroke	t	n/a
280.5215	0.12	561043	keystroke	e	n/a
280.6565	0.12	561313	keystroke	l	n/a
281.3165	0.06	562633	keystroke	y	n/a
281.5715	0.045	563143	keystroke	Key.enter	n/a
281.6225	5.876	563245	prompt	n/a	baskets bonus clusters docs\n
282.4415	0.075	564883	keystroke	b	n/a
282.5615	0.1055	565123	keystroke	a	n/a
282.682	0.1195	565364	keystroke	s	n/a
282.9215	0.075	565843	keystroke	k	n/a
283.0115	0.1045	566023	keystroke	e	n/a
283.237	0.06	566474	keystroke	t	n/a
283.4915	0.06	566983	keystroke	s	n/a
283.6865	0.045	567373	keystroke	Key.space	n/a
283.896	0.075	567792	keystroke	b	n/a
284.092	0.1045	568184	keystroke	o	n/a
284.2565	0.1355	568513	keystroke	n	n/a
284.482	0.09	568964	keystroke	u	n/a
284.6315	0.075	569263	keystroke	s	n/a
284.7815	0.06	569563	keystroke	Key.space	n/a
285.1115	0.045	570223	keystroke	c	n/a
285.2155	0.091	570431	keystroke	l	n/a
285.4715	0.0745	570943	keystroke	u	n/a
285.5315	0.119	571063	keystroke	s	n/a
285.832	0.09	571664	keystroke	t	n/a
285.937	0.1345	571874	keystroke	e	n/a
286.1765	0.1045	572353	keystroke	r	n/a
286.402	0.06	572804	keystroke	s	n/a
286.597	0.074	573194	keystroke	Key.space	n/a
286.822	0.075	573644	keystroke	d	n/a
286.972	0.09	573944	keystroke	o	n/a
287.107	0.09	574214	keystroke	c	n/a
287.272	0.075	574544	keystroke	s	n/a
287.452	0.045	574904	keystroke	Key.enter	n/a
287.5035	7.675	575007	prompt	n/a	columbia victor naked selecting\n
288.277	0.075	576554	keystroke	c	n/a
288.412	0.09	576824	keystroke	o	n/a
288.5765	0.09	577153	keystroke	l	n/a
288.8615	0.0905	577723	keystroke	u	n/a
289.101	0.0455	578202	keystroke	m	n/a
289.2965	0.0605	578593	keystroke	b	n/a
289.447	0.0895	578894	keystroke	i	n/a
289.551	0.09	579102	keystroke	a	n/a
289.791	0.0605	579582	keystroke	Key.space	n/a
290.647	0.09	581294	keystroke	v	n/a
290.841	0.0905	581682	keystroke	i	n/a
291.096	0.09	582192	keystroke	c	n/a
291.336	0.09	582672	keystroke	t	n/a
291.5015	0.09	583003	keystroke	o	n/a
291.6215	0.075	583243	keystroke	r	n/a
291.8165	0.075	583633	keystroke	Key.space	n/a
292.5815	0.09	585163	keystroke	n	n/a
292.7015	0.09	585403	keystroke	a	n/a
292.8215	0.09	585643	keystroke	k	n/a
292.9265	0.12	585853	keystroke	e	n/a
293.0615	0.12	586123	keystroke	d	n/a
293.1965	0.09	586393	keystroke	Key.space	n/a
293.5415	0.09	587083	keystroke	s	n/a
293.9465	0.0755	587893	keystroke	e	n/a
294.1415	0.09	588283	keystroke	l	n/a
294.2165	0.12	588433	keystroke	e	n/a
294.472	0.0745	588944	keystroke	c	n/a
294.6815	0.075	589363	keystroke	t	n/a
294.772	0.12	589544	keystroke	i	n/a
294.832	0.105	589664	keystroke	n	n/a
294.9815	0.09	589963	keystroke	g	n/a
295.1165	0.06	590233	keystroke	Key.enter	n/a
295.1845	7.6885	590369	prompt	n/a	fell under recipient watched\n
296.002	0.075	592004	keystroke	f	n/a
296.122	0.074	592244	keystroke	e	n/a
296.2715	0.075	592543	keystroke	l	n/a
296.4065	0.105	592813	keystroke	l	n/a
296.6315	0.075	593263	keystroke	Key.space	n/a
296.8565	0.105	593713	keystroke	u	n/a
296.9315	0.105	593863	keystroke	n	n/a
297.0815	0.105	594163	keystroke	d	n/a
297.2015	0.12	594403	keystroke	e	n/a
297.3365	0.09	594673	keystroke	r	n/a
297.4715	0.09	594943	keystroke	Key.space	n/a
297.8615	0.09	595723	keystroke	r	n/a
297.9365	0.165	595873	keystroke	e	n/a
298.252	0.075	596504	keystroke	c	n/a
299.3615	0.06	598723	keystroke	i	n/a
299.6165	0.1055	599233	keystroke	p	n/a
299.917	0.059	599834	keystroke	i	n/a
300.1715	0.0155	600343	keystroke	e	n/a
300.291	0.0905	600582	keystroke	n	n/a
300.486	0.0905	600972	keystroke	t	n/a
300.6965	0.075	601393	keystroke	Key.space	n/a
301.312	0.104	602624	keystroke	w	n/a
301.431	0.105	602862	keystroke	a	n/a
301.701	0.046	603402	keystroke	t	n/a
302.0015	0.105	604003	keystroke	c	n/a
302.0165	0.1355	604033	keystroke	h	n/a
302.2415	0.18	604483	keystroke	e	n/a
302.377	0.12	604754	keystroke	d	n/a
302.826	0.045	605652	keystroke	Key.enter	n/a
302.8775	9.071	605755	prompt	n/a	spec baltimore oughtn't midwest\n
304.101	0.1055	608202	keystroke	s	n/a
304.2815	0.0755	608563	keystroke	p	n/a
304.357	0.1055	608714	keystroke	e	n/a
304.5515	0.1055	609103	keystroke	c	n/a
304.731	0.0605	609462	keystroke	Key.space	n/a
305.0765	0.06	610153	keystroke	b	n/a
305.1965	0.075	610393	keystroke	a	n/a
305.347	0.09	610694	keystroke	l	n/a
305.737	0.0895	611474	keystroke	t	n/a
305.8715	0.105	611743	keystroke	i	n/a
305.9615	0.12	611923	keystroke	m	n/a
306.2165	0.0905	612433	keystroke	o	n/a
306.3665	0.12	612733	keystroke	r	n/a
306.4265	0.09	612853	keystroke	e	n/a
306.6065	0.075	613213	keystroke	Key.space	n/a
307.1165	0.105	614233	keystroke	o	n/a
307.3865	0.1205	614773	keystroke	u	n/a
307.6115	0.1055	615223	keystroke	g	n/a
307.7315	0.1055	615463	keystroke	h	n/a
308.781	0.045	617562	keystroke	t	n/a
309.217	0.06	618434	keystroke	n	n/a
309.697	0.0745	619394	keystroke	'	n/a
309.8015	0.105	619603	keystroke	t	n/a
309.996	0.075	619992	keystroke	Key.space	n/a
310.4765	0.0905	620953	keystroke	m	n/a
310.6565	0.075	621313	keystroke	i	n/a
310.8065	0.09	621613	keystroke	d	n/a
311.032	0.1045	622064	keystroke	w	n/a
311.1815	0.106	622363	keystroke	e	n/a
311.4515	0.075	622903	keystroke	s	n/a
311.7215	0.075	623443	keystroke	t	n/a
311.8715	0.075	623743	keystroke	Key.enter	n/a
311.9525	9.4755	623905	prompt	n/a	students indicates tall mechanics\n
312.742	0.045	625484	keystroke	s	n/a
313.042	0.06	626084	keystroke	t	n/a
313.537	0.09	627074	keystroke	u	n/a
313.687	0.134	627374	keystroke	d	n/a
313.927	0.1195	627854	keystroke	e	n/a
314.107	0.12	628214	keystroke	n	n/a
314.271	0.0755	628542	keystroke	t	n/a
314.511	0.076	629022	keystroke	s	n/a
314.661	0.09	629322	keystroke	Key.space	n/a
315.1565	0.225	630313	keystroke	i	n/a
315.3515	0.1205	630703	keystroke	n	n/a
315.6065	0.0745	631213	keystroke	d	n/a
315.8015	0.075	631603	keystroke	i	n/a
315.996	0.0905	631992	keystroke	c	n/a
316.1465	0.1055	632293	keystroke	a	n/a
316.357	0.074	632714	keystroke	t	n/a
316.672	0.074	633344	keystroke	e	n/a
316.897	0.075	633794	keystroke	s	n/a
317.0765	0.0895	634153	keystroke	Key.space	n/a
317.571	0.09	635142	keystroke	t	n/a
317.767	0.09	635534	keystroke	a	n/a
317.902	0.09	635804	keystroke	l	n/a
318.052	0.09	636104	keystroke	l	n/a
318.291	0.09	636582	keystroke	Key.space	n/a
318.532	0.089	637064	keystroke	m	n/a
318.712	0.0895	637424	keystroke	e	n/a
318.982	0.0895	637964	keystroke	c	n/a
319.1315	0.09	638263	keystroke	h	n/a
319.3715	0.0755	638743	keystroke	a	n/a
319.5515	0.105	639103	keystroke	n	n/a
320.9165	0.075	641833	keystroke	i	n/a
321.112	0.0745	642224	keystroke	c	n/a
321.2465	0.09	642493	keystroke	s	n/a
321.3375	0.089	642675	keystroke	Key.enter	n/a
321.4325	10.7505	642865	prompt	n/a	dakota lopez exercise generally\n
322.1765	0.12	644353	keystroke	d	n/a
322.342	0.074	644684	keystroke	a	n/a
322.5665	0.0295	645133	keystroke	k	n/a
322.7615	0.1055	645523	keystroke	o	n/a
322.8815	0.12	645763	keystroke	t	n/a
323.0465	0.09	646093	keystroke	a	n/a
323.257	0.074	646514	keystroke	Key.space	n/a
323.5265	0.09	647053	keystroke	l	n/a
323.7215	0.09	647443	keystroke	o	n/a
323.9165	0.075	647833	keystroke	p	n/a
324.022	0.0745	648044	keystroke	e	n/a
324.5015	0.135	649003	keystroke	z	n/a
324.7565	0.06	649513	keystroke	Key.space	n/a
324.9515	0.075	649903	keystroke	e	n/a
325.2065	0.09	650413	keystroke	x	n/a
325.4465	0.0755	650893	keystroke	c	n/a
325.6115	0.1495	651223	keystroke	e	n/a
325.7465	0.0745	651493	keystroke	r	n/a
326.3165	0.135	652633	keystroke	x	n/a
326.5115	0.105	653023	keystroke	i	n/a
326.9915	0.09	653983	keystroke	Key.backspace	n/a
327.1415	0.075	654283	keystroke	Key.backspace	n/a
327.3205	0.091	654641	keystroke	c	n/a
327.472	0.09	654944	keystroke	i	n/a
327.831	0.0605	655662	keystroke	s	n/a
327.9065	0.1205	655813	keystroke	i	n/a
327.9965	0.12	655993	keystroke	n	n/a
328.3565	0.075	656713	keystroke	g	n/a
328.4915	0.075	656983	keystroke	Key.space	n/a
329.286	0.046	658572	keystroke	g	n/a
329.347	0.1045	658694	keystroke	e	n/a
329.511	0.076	659022	keystroke	n	n/a
329.617	0.1495	659234	keystroke	r	n/a
330.1565	0.15	660313	keystroke	e	n/a
330.4105	0.106	660821	keystroke	Key.backspace	n/a
330.5765	0.104	661153	keystroke	Key.backspace	n/a
330.667	0.1495	661334	keystroke	e	n/a
330.742	0.1335	661484	keystroke	r	n/a
331.521	0.061	663042	keystroke	a	n/a
331.716	0.045	663432	keystroke	l	n/a
331.8515	0.0895	663703	keystroke	l	n/a
332.001	0.0755	664002	keystroke	y	n/a
332.0915	0.089	664183	keystroke	Key.enter	n/a
332.1875	12.4755	664375	prompt	n/a	terrorists supply businesses messages\n
333.576	0.105	667152	keystroke	Key.backspace	n/a
333.696	0.1505	667392	keystroke	t	n/a
333.8315	0.195	667663	keystroke	e	n/a
333.981	0.105	667962	keystroke	r	n/a
334.567	0.0745	669134	keystroke	r	n/a
334.8815	0.09	669763	keystroke	o	n/a
335.0165	0.105	670033	keystroke	r	n/a
335.241	0.076	670482	keystroke	i	n/a
335.376	0.1205	670752	keystroke	s	n/a
335.6315	0.105	671263	keystroke	t	n/a
335.7815	0.09	671563	keystroke	s	n/a
336.0215	0.0745	672043	keystroke	Key.space	n/a
336.306	0.075	672612	keystroke	s	n/a
336.501	0.045	673002	keystroke	u	n/a
336.7565	0.015	673513	keystroke	p	n/a
336.846	0.1345	673692	keystroke	p	n/a
336.9665	0.089	673933	keystroke	l	n/a
337.146	0.061	674292	keystroke	y	n/a
337.311	0.091	674622	keystroke	Key.space	n/a
337.8365	0.075	675673	keystroke	b	n/a
338.0155	0.105	676031	keystroke	u	n/a
338.346	0.151	676692	keystroke	i	n/a
338.6915	0.09	677383	keystroke	s	n/a
339.217	0.1195	678434	keystroke	n	n/a
339.5915	0.135	679183	keystroke	e	n/a
339.9665	0.06	679933	keystroke	s	n/a
340.1305	0.075	680261	keystroke	s	n/a
340.4615	0.0905	680923	keystroke	e	n/a
340.7315	0.09	681463	keystroke	s	n/a
341.3165	0.075	682633	keystroke	Key.space	n/a
341.602	0.074	683204	keystroke	m	n/a
341.7215	0.09	683443	keystroke	e	n/a
342.0215	0.0595	684043	keystroke	s	n/a
342.157	0.089	684314	keystroke	s	n/a
342.3215	0.1055	684643	keystroke	a	n/a
342.456	0.076	684912	keystroke	g	n/a
343.1915	0.0895	686383	keystroke	e	n/a
344.1665	0.0745	688333	keystroke	s	n/a
344.616	0.045	689232	keystroke	Key.enter	n/a
344.668	8.725	689336	prompt	n/a	basic lots attachment compliance\n
345.4865	0.075	690973	keystroke	b	n/a
345.5465	0.1045	691093	keystroke	a	n/a
345.681	0.1345	691362	keystroke	s	n/a
345.8465	0.105	691693	keystroke	i	n/a
346.0565	0.0745	692113	keystroke	c	n/a
346.1915	0.0745	692383	keystroke	Key.space	n/a
346.701	0.1205	693402	keystroke	l	n/a
346.8965	0.105	693793	keystroke	o	n/a
347.0455	0.09	694091	keystroke	t	n/a
347.2565	0.074	694513	keystroke	s	n/a
347.3465	0.09	694693	keystroke	Key.space	n/a
347.4815	0.09	694963	keystroke	a	n/a
347.8855	0.0615	695771	keystroke	t	n/a
348.037	0.0745	696074	keystroke	t	n/a
348.2165	0.0895	696433	keystroke	a	n/a
348.321	0.0905	696642	keystroke	t	n/a
348.847	0.015	697694	keystroke	c	n/a
348.9665	0.09	697933	keystroke	h	n/a
349.536	0.09	699072	keystroke	m	n/a
349.641	0.12	699282	keystroke	e	n/a
349.746	0.0905	699492	keystroke	n	n/a
349.852	0.089	699704	keystroke	t	n/a
350.031	0.0605	700062	keystroke	Key.space	n/a
351.096	0.091	702192	keystroke	c	n/a
351.261	0.1055	702522	keystroke	o	n/a
351.307	0.149	702614	keystroke	m	n/a
351.577	0.1795	703154	keystroke	p	n/a
351.682	0.1335	703364	keystroke	l	n/a
351.952	0.1045	703904	keystroke	i	n/a
352.161	0.06	704322	keystroke	a	n/a
352.2665	0.09	704533	keystroke	n	n/a
352.461	0.09	704922	keystroke	c	n/a
352.6265	0.09	705253	keystroke	e	n/a
353.2865	0.105	706573	keystroke	Key.enter	n/a
353.4005	6.5475	706801	prompt	n/a	soonest metal duty responding\n
354.1865	0.0745	708373	keystroke	s	n/a
354.381	0.06	708762	keystroke	o	n/a
354.5015	0.1045	709003	keystroke	o	n/a
354.636	0.0905	709272	keystroke	n	n/a
354.741	0.06	709482	keystroke	e	n/a
354.966	0.061	709932	keystroke	s	n/a
355.2065	0.0745	710413	keystroke	t	n/a
355.371	0.06	710742	keystroke	Key.space	n/a
355.5665	0.09	711133	keystroke	m	n/a
355.6415	0.105	711283	keystroke	e	n/a
355.836	0.1055	711672	keystroke	t	n/a
356.031	0.0755	712062	keystroke	a	n/a
356.137	0.0895	712274	keystroke	l	n/a
356.4215	0.075	712843	keystroke	Key.space	n/a
356.9165	0.09	713833	keystroke	d	n/a
357.1865	0.135	714373	keystroke	u	n/a
357.3515	0.075	714703	keystroke	t	n/a
357.4565	0.09	714913	keystroke	y	n/a
357.7865	0.06	715573	keystroke	Key.space	n/a
358.2215	0.149	716443	keystroke	r	n/a
358.3555	0.121	716711	keystroke	e	n/a
358.6115	0.075	717223	keystroke	s	n/a
358.6715	0.09	717343	keystroke	p	n/a
358.8515	0.1355	717703	keystroke	o	n/a
358.9415	0.12	717883	keystroke	n	n/a
359.2865	0.075	718573	keystroke	d	n/a
359.4365	0.09	718873	keystroke	i	n/a
359.5715	0.12	719143	keystroke	n	n/a
359.6915	0.075	719383	keystroke	g	n/a
359.8415	0.104	719683	keystroke	Key.enter	n/a
359.9515	7.8565	719903	prompt	n/a	microphone tribes society pierce\n
360.966	0.105	721932	keystroke	m	n/a
361.1465	0.1045	722293	keystroke	i	n/a
361.521	0.12	723042	keystroke	c	n/a
361.747	0.059	723494	keystroke	r	n/a
361.807	0.0745	723614	keystroke	o	n/a
361.9715	0.1055	723943	keystroke	p	n/a
362.196	0.0755	724392	keystroke	h	n/a
362.286	0.1505	724572	keystroke	o	n/a
362.421	0.15	724842	keystroke	n	n/a
362.586	0.0905	725172	keystroke	e	n/a
362.7365	0.1045	725473	keystroke	Key.space	n/a
363.531	0.0155	727062	keystroke	t	n/a
363.5905	0.0765	727181	keystroke	r	n/a
363.697	0.09	727394	keystroke	i	n/a
363.891	0.075	727782	keystroke	b	n/a
364.026	0.0605	728052	keystroke	e	n/a
364.2355	0.061	728471	keystroke	s	n/a
364.3265	0.0895	728653	keystroke	Key.space	n/a
364.461	0.075	728922	keystroke	s	n/a
364.6415	0.1195	729283	keystroke	o	n/a
365.061	0.075	730122	keystroke	c	n/a
365.211	0.0905	730422	keystroke	i	n/a
365.2865	0.1045	730573	keystroke	e	n/a
365.556	0.0755	731112	keystroke	t	n/a
365.751	0.06	731502	keystroke	y	n/a
365.9015	0.0745	731803	keystroke	Key.space	n/a
366.771	0.0755	733542	keystroke	p	n/a
366.9965	0.075	733993	keystroke	i	n/a
367.1165	0.18	734233	keystroke	e	n/a
367.2365	0.105	734473	keystroke	r	n/a
367.507	0.0745	735014	keystroke	c	n/a
367.6115	0.09	735223	keystroke	e	n/a
367.7165	0.09	735433	keystroke	Key.enter	n/a
367.813	9.61	735626	prompt	n/a	magazines kijiji apparently grammar\n
368.571	0.075	737142	keystroke	m	n/a
368.6615	0.0745	737323	keystroke	a	n/a
368.8415	0.0895	737683	keystroke	g	n/a
368.9915	0.09	737983	keystroke	a	n/a
370.416	0.09	740832	keystroke	z	n/a
370.522	0.1195	741044	keystroke	i	n/a
370.6115	0.1055	741223	keystroke	n	n/a
370.7765	0.105	741553	keystroke	e	n/a
370.9865	0.0745	741973	keystroke	s	n/a
371.076	0.09	742152	keystroke	Key.space	n/a
371.946	0.0905	743892	keystroke	k	n/a
372.2305	0.1055	744461	keystroke	i	n/a
372.5315	0.12	745063	keystroke	j	n/a
373.1615	0.12	746323	keystroke	i	n/a
373.566	0.1655	747132	keystroke	j	n/a
373.671	0.105	747342	keystroke	i	n/a
374.2715	0.09	748543	keystroke	Key.space	n/a
374.5265	0.0755	749053	keystroke	a	n/a
374.7815	0.09	749563	keystroke	p	n/a
374.9315	0.105	749863	keystroke	p	n/a
375.0065	0.09	750013	keystroke	a	n/a
375.186	0.1055	750372	keystroke	r	n/a
375.2465	0.1195	750493	keystroke	e	n/a
375.396	0.075	750792	keystroke	n	n/a
375.486	0.105	750972	keystroke	t	n/a
375.696	0.12	751392	keystroke	l	n/a
375.801	0.091	751602	keystroke	y	n/a
375.996	0.0905	751992	keystroke	Key.space	n/a
376.582	0.1195	753164	keystroke	g	n/a
376.686	0.135	753372	keystroke	r	n/a
376.881	0.0605	753762	keystroke	a	n/a
376.956	0.09	753912	keystroke	m	n/a
377.107	0.104	754214	keystroke	m	n/a
377.137	0.1345	754274	keystroke	e	n/a
377.2565	0.0745	754513	keystroke	r	n/a
377.332	0.089	754664	keystroke	Key.enter	n/a
377.4275	4.9455	754855	prompt	n/a	ship bottom idaho cole\n
378.201	0.06	756402	keystroke	s	n/a
378.306	0.091	756612	keystroke	h	n/a
378.441	0.091	756882	keystroke	i	n/a
378.666	0.06	757332	keystroke	p	n/a
378.861	0.0745	757722	keystroke	Key.space	n/a
379.0415	0.075	758083	keystroke	b	n/a
379.1915	0.105	758383	keystroke	o	n/a
379.3415	0.06	758683	keystroke	t	n/a
379.4765	0.106	758953	keystroke	t	n/a
379.5665	0.12	759133	keystroke	o	n/a
379.6865	0.135	759373	keystroke	m	n/a
380.0165	0.0895	760033	keystroke	Key.space	n/a
380.271	0.0755	760542	keystroke	i	n/a
380.421	0.1505	760842	keystroke	d	n/a
380.5875	0.104	761175	keystroke	a	n/a
380.8565	0.06	761713	keystroke	h	n/a
381.037	0.0895	762074	keystroke	o	n/a
381.3065	0.074	762613	keystroke	Key.space	n/a
381.771	0.076	763542	keystroke	c	n/a
381.861	0.091	763722	keystroke	o	n/a
382.041	0.0905	764082	keystroke	l	n/a
382.1615	0.0895	764323	keystroke	e	n/a
382.281	0.09	764562	keystroke	Key.enter	n/a
382.3775	7.7355	764755	prompt	n/a	intend agency robertson rule\n
383.136	0.106	766272	keystroke	i	n/a
383.227	0.104	766454	keystroke	n	n/a
383.392	0.089	766784	keystroke	t	n/a
383.5265	0.105	767053	keystroke	e	n/a
383.6615	0.0895	767323	keystroke	n	n/a
383.7665	0.0755	767533	keystroke	d	n/a
383.9165	0.1045	767833	keystroke	Key.space	n/a
384.3965	0.045	768793	keystroke	a	n/a
384.5765	0.075	769153	keystroke	g	n/a
384.6815	0.1045	769363	keystroke	e	n/a
384.816	0.09	769632	keystroke	n	n/a
385.191	0.0755	770382	keystroke	c	n/a
385.281	0.0755	770562	keystroke	y	n/a
385.536	0.075	771072	keystroke	Key.space	n/a
386.031	0.1055	772062	keystroke	r	n/a
386.527	0.1045	773054	keystroke	o	n/a
386.8265	0.075	773653	keystroke	b	n/a
386.9165	0.09	773833	keystroke	e	n/a
387.0215	0.105	774043	keystroke	r	n/a
387.276	0.06	774552	keystroke	t	n/a
387.501	0.0605	775002	keystroke	s	n/a
388.9565	0.105	777913	keystroke	o	n/a
389.0315	0.09	778063	keystroke	n	n/a
389.2565	0.06	778513	keystroke	Key.space	n/a
389.3465	0.09	778693	keystroke	r	n/a
389.4665	0.091	778933	keystroke	u	n/a
389.8115	0.075	779623	keystroke	l	n/a
389.9465	0.075	779893	keystroke	e	n/a
390.0365	0.0745	780073	keystroke	Key.enter	n/a
390.117	7.061	780234	prompt	n/a	channels ministry peter editorials\n
390.786	0.091	781572	keystroke	c	n/a
390.9065	0.0895	781813	keystroke	h	n/a
390.981	0.075	781962	keystroke	a	n/a
391.116	0.075	782232	keystroke	n	n/a
391.2515	0.0745	782503	keystroke	n	n/a
391.3415	0.075	782683	keystroke	e	n/a
391.461	0.12	782922	keystroke	l	n/a
391.596	0.0605	783192	keystroke	s	n/a
391.7615	0.0455	783523	keystroke	Key.space	n/a
392.046	0.1055	784092	keystroke	m	n/a
392.2565	0.075	784513	keystroke	i	n/a
392.317	0.0895	784634	keystroke	n	n/a
392.4365	0.09	784873	keystroke	i	n/a
392.5865	0.105	785173	keystroke	s	n/a
392.857	0.06	785714	keystroke	t	n/a
393.036	0.075	786072	keystroke	y	n/a
393.891	0.1055	787782	keystroke	Key.backspace	n/a
394.416	0.09	788832	keystroke	r	n/a
394.6115	0.0745	789223	keystroke	y	n/a
394.821	0.0755	789642	keystroke	Key.space	n/a
395.4215	0.1045	790843	keystroke	e	n/a
395.601	0.09	791202	keystroke	d	n/a
395.8565	0.046	791713	keystroke	i	n/a
396.0665	0.09	792133	keystroke	t	n/a
396.1865	0.105	792373	keystroke	o	n/a
396.3065	0.06	792613	keystroke	r	n/a
396.4565	0.075	792913	keystroke	i	n/a
396.5905	0.106	793181	keystroke	a	n/a
396.7265	0.09	793453	keystroke	l	n/a
396.8465	0.104	793693	keystroke	s	n/a
397.1005	0.075	794201	keystroke	Key.enter	n/a
397.182	6.8955	794364	prompt	n/a	programmer maps paso hundred\n
397.971	0.075	795942	keystroke	p	n/a
398.121	0.075	796242	keystroke	r	n/a
398.241	0.1055	796482	keystroke	o	n/a
398.466	0.1055	796932	keystroke	g	n/a
398.6165	0.0895	797233	keystroke	r	n/a
398.826	0.075	797652	keystroke	a	n/a
398.976	0.06	797952	keystroke	m	n/a
399.111	0.105	798222	keystroke	m	n/a
399.171	0.135	798342	keystroke	e	n/a
399.321	0.076	798642	keystroke	r	n/a
399.456	0.075	798912	keystroke	Key.space	n/a
399.681	0.0755	799362	keystroke	m	n/a
399.8015	0.0745	799603	keystroke	a	n/a
399.921	0.0905	799842	keystroke	p	n/a
400.146	0.0755	800292	keystroke	s	n/a
400.297	0.059	800594	keystroke	Key.space	n/a
400.5365	0.045	801073	keystroke	s	n/a
400.9115	0.119	801823	keystroke	Key.backspace	n/a
401.1365	0.074	802273	keystroke	p	n/a
401.2265	0.09	802453	keystroke	a	n/a
401.3305	0.091	802661	keystroke	s	n/a
401.5555	0.091	803111	keystroke	o	n/a
401.8255	0.06	803651	keystroke	Key.space	n/a
402.321	0.0905	804642	keystroke	h	n/a
402.486	0.1655	804972	keystroke	u	n/a
402.6365	0.15	805273	keystroke	n	n/a
402.8315	0.105	805663	keystroke	d	n/a
403.0865	0.1645	806173	keystroke	r	n/a
403.311	0.1805	806622	keystroke	e	n/a
403.5365	0.135	807073	keystroke	d	n/a
403.9865	0.089	807973	keystroke	Key.enter	n/a
404.0805	6.957	808161	prompt	n/a	bookstore williams modules pocket\n
404.7955	0.0455	809591	keystroke	b	n/a
404.991	0.06	809982	keystroke	o	n/a
405.126	0.12	810252	keystroke	o	n/a
405.216	0.105	810432	keystroke	k	n/a
405.366	0.105	810732	keystroke	s	n/a
405.621	0.0755	811242	keystroke	t	n/a
405.7115	0.09	811423	keystroke	o	n/a
405.846	0.1355	811692	keystroke	r	n/a
405.936	0.09	811872	keystroke	e	n/a
406.086	0.075	812172	keystroke	Key.space	n/a
406.506	0.06	813012	keystroke	w	n/a
406.626	0.06	813252	keystroke	i	n/a
406.836	0.06	813672	keystroke	l	n/a
406.9865	0.045	813973	keystroke	l	n/a
407.1655	0.0755	814331	keystroke	i	n/a
407.2715	0.075	814543	keystroke	a	n/a
407.3905	0.076	814781	keystroke	m	n/a
407.4955	0.09	814991	keystroke	s	n/a
407.6455	0.0605	815291	keystroke	Key.space	n/a
408.051	0.075	816102	keystroke	m	n/a
408.201	0.0895	816402	keystroke	o	n/a
408.3805	0.091	816761	keystroke	d	n/a
408.5165	0.089	817033	keystroke	u	n/a
408.771	0.0745	817542	keystroke	l	n/a
409.1165	0.06	818233	keystroke	e	n/a
409.3415	0.09	818683	keystroke	s	n/a
409.4765	0.075	818953	keystroke	Key.space	n/a
410.1065	0.104	820213	keystroke	p	n/a
410.2565	0.074	820513	keystroke	o	n/a
410.3755	0.0755	820751	keystroke	c	n/a
410.4955	0.09	820991	keystroke	k	n/a
410.661	0.1205	821322	keystroke	e	n/a
410.856	0.09	821712	keystroke	t	n/a
410.961	0.075	821922	keystroke	Key.enter	n/a
411.0415	9.479	822083	prompt	n/a	disability ordering hormone lexus\n
411.741	0.09	823482	keystroke	d	n/a
411.936	0.09	823872	keystroke	i	n/a
412.041	0.12	824082	keystroke	s	n/a
412.146	0.12	824292	keystroke	a	n/a
412.401	0.135	824802	keystroke	b	n/a
413.0315	0.0595	826063	keystroke	i	n/a
413.271	0.045	826542	keystroke	l	n/a
413.391	0.0895	826782	keystroke	l	n/a
413.646	0.09	827292	keystroke	i	n/a
414.4265	0.0445	828853	keystroke	t	n/a
414.5315	0.075	829063	keystroke	y	n/a
414.711	0.075	829422	keystroke	Key.space	n/a
415.731	0.075	831462	keystroke	o	n/a
415.851	0.105	831702	keystroke	r	n/a
416.061	0.09	832122	keystroke	d	n/a
416.1805	0.135	832361	keystroke	e	n/a
416.2855	0.091	832571	keystroke	r	n/a
416.4365	0.164	832873	keystroke	i	n/a
416.556	0.12	833112	keystroke	n	n/a
416.6615	0.0745	833323	keystroke	g	n/a
416.7965	0.06	833593	keystroke	Key.space	n/a
417.4865	0.12	834973	keystroke	h	n/a
417.6505	0.121	835301	keystroke	o	n/a
417.8315	0.075	835663	keystroke	r	n/a
417.9355	0.0905	835871	keystroke	m	n/a
418.116	0.165	836232	keystroke	o	n/a
418.281	0.121	836562	keystroke	n	n/a
418.416	0.075	836832	keystroke	e	n/a
419.346	0.0595	838692	keystroke	Key.space	n/a
419.5565	0.09	839113	keystroke	l	n/a
419.8115	0.059	839623	keystroke	e	n/a
420.096	0.0605	840192	keystroke	x	n/a
420.186	0.1055	840372	keystroke	u	n/a
420.306	0.075	840612	keystroke	s	n/a
420.441	0.075	840882	keystroke	Key.enter	n/a
420.5245	9.923	841049	prompt	n/a	nearby spent julian remember\n
421.5505	0.09	843101	keystroke	n	n/a
421.6705	0.255	843341	keystroke	e	n/a
421.791	0.1355	843582	keystroke	a	n/a
421.9265	0.089	843853	keystroke	r	n/a
422.1205	0.121	844241	keystroke	b	n/a
422.376	0.0745	844752	keystroke	y	n/a
422.5855	0.09	845171	keystroke	Key.space	n/a
423.1865	0.0895	846373	keystroke	s	n/a
423.381	0.1345	846762	keystroke	p	n/a
423.5465	0.134	847093	keystroke	e	n/a
423.7265	0.1045	847453	keystroke	n	n/a
423.8905	0.09	847781	keystroke	d	n/a
424.0405	0.0755	848081	keystroke	Key.space	n/a
424.596	0.105	849192	keystroke	Key.backspace	n/a
424.791	0.075	849582	keystroke	Key.backspace	n/a
424.8665	0.1045	849733	keystroke	t	n/a
425.121	0.0895	850242	keystroke	Key.space	n/a
425.9905	0.0755	851981	keystroke	j	n/a
426.1255	0.076	852251	keystroke	u	n/a
426.4115	0.029	852823	keystroke	l	n/a
426.5465	0.09	853093	keystroke	i	n/a
426.6805	0.076	853361	keystroke	a	n/a
426.771	0.105	853542	keystroke	n	n/a
427.041	0.075	854082	keystroke	Key.space	n/a
427.446	0.135	854892	keystroke	r	n/a
427.881	0.075	855762	keystroke	e	n/a
428.001	0.105	856002	keystroke	m	n/a
428.226	0.06	856452	keystroke	e	n/a
428.346	0.0745	856692	keystroke	m	n/a
428.7065	0.104	857413	keystroke	b	n/a
428.7505	0.181	857501	keystroke	e	n/a
428.9005	0.136	857801	keystroke	r	n/a
430.385	0.06	860770	keystroke	Key.enter	n/a
430.453	13.8095	860906	prompt	n/a	nutritional models rolled determination\n
431.301	0.09	862602	keystroke	n	n/a
431.451	0.09	862902	keystroke	u	n/a
431.7505	0.09	863501	keystroke	t	n/a
431.9755	0.06	863951	keystroke	r	n/a
432.0655	0.106	864131	keystroke	i	n/a
432.576	0.105	865152	keystroke	t	n/a
432.7415	0.0745	865483	keystroke	i	n/a
432.9365	0.075	865873	keystroke	o	n/a
433.131	0.09	866262	keystroke	n	n/a
433.236	0.105	866472	keystroke	a	n/a
433.416	0.09	866832	keystroke	l	n/a
433.7305	0.075	867461	keystroke	Key.space	n/a
434.4365	0.06	868873	keystroke	m	n/a
434.692	0.134	869384	keystroke	d	n/a
435.246	0.105	870492	keystroke	Key.backspace	n/a
435.816	0.09	871632	keystroke	o	n/a
435.951	0.1795	871902	keystroke	d	n/a
436.1165	0.09	872233	keystroke	e	n/a
436.596	0.09	873192	keystroke	l	n/a
436.806	0.074	873612	keystroke	s	n/a
436.911	0.105	873822	keystroke	Key.space	n/a
437.451	0.1345	874902	keystroke	r	n/a
437.6755	0.0905	875351	keystroke	o	n/a
437.9015	0.06	875803	keystroke	l	n/a
438.021	0.105	876042	keystroke	l	n/a
438.1105	0.196	876221	keystroke	e	n/a
438.2905	0.18	876581	keystroke	d	n/a
438.9055	0.03	877811	keystroke	Key.space	n/a
439.4155	0.015	878831	keystroke	d	n/a
439.4755	0.12	878951	keystroke	e	n/a
439.7755	0.165	879551	keystroke	t	n/a
439.9265	0.104	879853	keystroke	r	n/a
441.036	0.0595	882072	keystroke	Key.backspace	n/a
441.216	0.0745	882432	keystroke	Key.backspace	n/a
441.396	0.105	882792	keystroke	Key.backspace	n/a
442.1765	0.074	884353	keystroke	t	n/a
442.2805	0.1505	884561	keystroke	e	n/a
442.4165	0.0745	884833	keystroke	r	n/a
442.536	0.075	885072	keystroke	m	n/a
442.686	0.12	885372	keystroke	i	n/a
442.7615	0.1045	885523	keystroke	n	n/a
442.881	0.06	885762	keystroke	e	n/a
443.2405	0.135	886481	keystroke	Key.backspace	n/a
443.3765	0.1195	886753	keystroke	a	n/a
443.4965	0.089	886993	keystroke	t	n/a
443.631	0.225	887262	keystroke	i	n/a
443.721	0.1495	887442	keystroke	o	n/a
443.766	0.1345	887532	keystroke	n	n/a
444.201	0.0595	888402	keystroke	Key.enter	n/a
444.266	13.7815	888532	prompt	n/a	inspiration instruments demanding reflection\n
445.0565	0.1345	890113	keystroke	i	n/a
445.131	0.105	890262	keystroke	n	n/a
445.282	0.104	890564	keystroke	s	n/a
445.776	0.1045	891552	keystroke	p	n/a
446.046	0.0745	892092	keystroke	i	n/a
446.1805	0.105	892361	keystroke	r	n/a
446.361	0.1045	892722	keystroke	a	n/a
446.5255	0.0905	893051	keystroke	t	n/a
446.6455	0.196	893291	keystroke	i	n/a
446.781	0.0455	893562	keystroke	o	n/a
446.7955	0.105	893591	keystroke	n	n/a
447.2005	0.0755	894401	keystroke	Key.space	n/a
447.471	0.15	894942	keystroke	i	n/a
447.531	0.12	895062	keystroke	n	n/a
447.652	0.119	895304	keystroke	s	n/a
447.906	0.09	895812	keystroke	t	n/a
448.236	0.075	896472	keystroke	r	n/a
448.446	0.09	896892	keystroke	u	n/a
448.7605	0.045	897521	keystroke	m	n/a
448.8065	0.105	897613	keystroke	a	n/a
448.9555	0.075	897911	keystroke	n	n/a
449.0455	0.105	898091	keystroke	e	n/a
449.331	0.06	898662	keystroke	Key.backspace	n/a
449.4815	0.0895	898963	keystroke	Key.backspace	n/a
449.616	0.0745	899232	keystroke	e	n/a
449.7665	0.119	899533	keystroke	t	n/a
450.126	0.06	900252	keystroke	=	n/a
450.276	0.075	900552	keystroke	=	n/a
450.5755	0.1205	901151	keystroke	Key.backspace	n/a
450.756	0.075	901512	keystroke	Key.backspace	n/a
450.9205	0.06	901841	keystroke	Key.backspace	n/a
451.116	0.0895	902232	keystroke	Key.backspace	n/a
451.4455	0.1055	902891	keystroke	Key.backspace	n/a
451.716	0.1045	903432	keystroke	e	n/a
451.866	0.09	903732	keystroke	n	n/a
452.016	0.105	904032	keystroke	t	n/a
452.301	0.12	904602	keystroke	s	n/a
452.8105	0.09	905621	keystroke	Key.space	n/a
453.186	0.0905	906372	keystroke	d	n/a
453.3215	0.089	906643	keystroke	e	n/a
453.4565	0.0595	906913	keystroke	m	n/a
453.5465	0.1045	907093	keystroke	a	n/a
453.71	0.0905	907420	keystroke	n	n/a
453.8905	0.09	907781	keystroke	d	n/a
454.0115	0.119	908023	keystroke	i	n/a
454.0705	0.151	908141	keystroke	n	n/a
454.2065	0.075	908413	keystroke	g	n/a
454.446	0.0755	908892	keystroke	Key.space	n/a
455.556	0.105	911112	keystroke	r	n/a
455.646	0.12	911292	keystroke	e	n/a
455.811	0.0905	911622	keystroke	f	n/a
455.9605	0.1055	911921	keystroke	l	n/a
456.0965	0.12	912193	keystroke	e	n/a
456.3965	0.075	912793	keystroke	c	n/a
456.6365	0.0895	913273	keystroke	t	n/a
456.7415	0.2095	913483	keystroke	i	n/a
456.831	0.105	913662	keystroke	o	n/a
456.861	0.135	913722	keystroke	n	n/a
457.1165	0.0895	914233	keystroke	'	n/a
457.686	0.105	915372	keystroke	Key.backspace	n/a
457.971	0.075	915942	keystroke	Key.enter	n/a
458.051	6.2665	916102	prompt	n/a	requires yoga goto cliff\n
458.976	0.09	917952	keystroke	r	n/a
459.036	0.105	918072	keystroke	e	n/a
459.546	0.075	919092	keystroke	q	n/a
459.681	0.0905	919362	keystroke	u	n/a
459.8755	0.09	919751	keystroke	i	n/a
460.0255	0.105	920051	keystroke	r	n/a
460.1155	0.135	920231	keystroke	e	n/a
460.4455	0.0155	920891	keystroke	s	n/a
460.5055	0.075	921011	keystroke	Key.space	n/a
461.0905	0.0605	922181	keystroke	y	n/a
461.271	0.0745	922542	keystroke	o	n/a
461.6605	0.12	923321	keystroke	g	n/a
461.7955	0.1055	923591	keystroke	a	n/a
462.051	0.06	924102	keystroke	Key.space	n/a
462.5465	0.0895	925093	keystroke	g	n/a
462.696	0.105	925392	keystroke	o	n/a
462.831	0.09	925662	keystroke	t	n/a
463.026	0.09	926052	keystroke	Key.space	n/a
463.5065	0.0445	927013	keystroke	c	n/a
463.596	0.0755	927192	keystroke	l	n/a
463.7915	0.075	927583	keystroke	i	n/a
463.9705	0.06	927941	keystroke	f	n/a
464.1065	0.074	928213	keystroke	f	n/a
464.2405	0.075	928481	keystroke	Key.enter	n/a
464.322	8.1855	928644	prompt	n/a	pursue stakeholders viewed carried\n
465.171	0.075	930342	keystroke	p	n/a
465.411	0.1055	930822	keystroke	u	n/a
465.636	0.045	931272	keystroke	r	n/a
465.876	0.09	931752	keystroke	s	n/a
465.951	0.1205	931902	keystroke	u	n/a
466.131	0.075	932262	keystroke	e	n/a
466.326	0.075	932652	keystroke	Key.space	n/a
466.776	0.12	933552	keystroke	s	n/a
467.0465	0.09	934093	keystroke	t	n/a
467.1655	0.1205	934331	keystroke	a	n/a
467.5265	0.089	935053	keystroke	k	n/a
467.5865	0.0895	935173	keystroke	e	n/a
468.1865	0.0745	936373	keystroke	h	n/a
468.366	0.09	936732	keystroke	o	n/a
468.576	0.045	937152	keystroke	l	n/a
468.651	0.09	937302	keystroke	d	n/a
468.786	0.12	937572	keystroke	e	n/a
468.951	0.06	937902	keystroke	r	n/a
469.1165	0.09	938233	keystroke	s	n/a
469.3865	0.074	938773	keystroke	Key.space	n/a
469.776	0.0755	939552	keystroke	v	n/a
469.9115	0.0895	939823	keystroke	i	n/a
470.0465	0.1945	940093	keystroke	e	n/a
470.226	0.1045	940452	keystroke	w	n/a
470.511	0.165	941022	keystroke	e	n/a
470.8255	0.09	941651	keystroke	d	n/a
471.246	0.075	942492	keystroke	Key.space	n/a
471.501	0.1205	943002	keystroke	c	n/a
471.636	0.075	943272	keystroke	a	n/a
471.8155	0.061	943631	keystroke	r	n/a
471.9505	0.0755	943901	keystroke	r	n/a
472.0715	0.0895	944143	keystroke	i	n/a
472.1455	0.151	944291	keystroke	e	n/a
472.2815	0.104	944563	keystroke	d	n/a
472.4155	0.09	944831	keystroke	Key.enter	n/a
472.512	11.6955	945024	prompt	n/a	peeing cuisine dosage contained\n
473.376	0.1045	946752	keystroke	p	n/a
473.466	0.0745	946932	keystroke	e	n/a
473.6305	0.0755	947261	keystroke	e	n/a
473.7205	0.1205	947441	keystroke	i	n/a
473.7815	0.119	947563	keystroke	n	n/a
473.9305	0.0755	947861	keystroke	g	n/a
474.081	0.075	948162	keystroke	Key.space	n/a
474.7105	0.135	949421	keystroke	c	n/a
474.8605	0.0455	949721	keystroke	u	n/a
475.011	0.0905	950022	keystroke	i	n/a
475.146	0.09	950292	keystroke	s	n/a
475.2815	0.1045	950563	keystroke	n	n/a
475.536	0.1045	951072	keystroke	i	n/a
475.6105	0.1205	951221	keystroke	n	n/a
475.731	0.075	951462	keystroke	e	n/a
476.196	0.0595	952392	keystroke	Key.backspace	n/a
476.361	0.0595	952722	keystroke	Key.backspace	n/a
476.4955	0.09	952991	keystroke	Key.backspace	n/a
478.4905	0.1055	956981	keystroke	Key.backspace	n/a
479.106	0.165	958212	keystroke	i	n/a
479.256	0.045	958512	keystroke	n	n/a
479.286	0.045	958572	keystroke	e	n/a
479.3765	0.0895	958753	keystroke	Key.space	n/a
480.351	0.075	960702	keystroke	d	n/a
480.516	0.09	961032	keystroke	o	n/a
480.771	0.105	961542	keystroke	g	n/a
481.1155	0.1055	962231	keystroke	Key.backspace	n/a
481.1905	0.195	962381	keystroke	s	n/a
481.356	0.135	962712	keystroke	a	n/a
481.5365	0.1045	963073	keystroke	g	n/a
481.626	0.1045	963252	keystroke	e	n/a
481.821	0.0905	963642	keystroke	Key.space	n/a
482.7065	0.075	965413	keystroke	c	n/a
482.8115	0.135	965623	keystroke	o	n/a
482.9315	0.105	965863	keystroke	n	n/a
483.1265	0.074	966253	keystroke	t	n/a
483.3365	0.075	966673	keystroke	a	n/a
483.3815	0.12	966763	keystroke	i	n/a
483.4265	0.135	966853	keystroke	n	n/a
483.6215	0.15	967243	keystroke	e	n/a
483.8015	0.12	967603	keystroke	d	n/a
484.161	0.045	968322	keystroke	Key.enter	n/a
484.2115	10.196	968423	prompt	n/a	novel remembered scripting lifestyle\n
484.941	0.075	969882	keystroke	n	n/a
485.1065	0.105	970213	keystroke	o	n/a
485.286	0.075	970572	keystroke	v	n/a
485.421	0.09	970842	keystroke	e	n/a
485.541	0.09	971082	keystroke	l	n/a
485.841	0.075	971682	keystroke	Key.space	n/a
486.186	0.15	972372	keystroke	r	n/a
486.291	0.135	972582	keystroke	e	n/a
486.516	0.09	973032	keystroke	m	n/a
486.666	0.075	973332	keystroke	e	n/a
486.771	0.105	973542	keystroke	m	n/a
487.011	0.09	974022	keystroke	b	n/a
487.116	0.1355	974232	keystroke	e	n/a
487.236	0.15	974472	keystroke	r	n/a
487.371	0.15	974742	keystroke	e	n/a
487.5365	0.1045	975073	keystroke	d	n/a
488.076	0.0755	976152	keystroke	Key.space	n/a
488.301	0.0755	976602	keystroke	s	n/a
488.511	0.075	977022	keystroke	c	n/a
488.7065	0.0595	977413	keystroke	r	n/a
488.796	0.09	977592	keystroke	i	n/a
489.006	0.0905	978012	keystroke	p	n/a
489.246	0.045	978492	keystroke	o	n/a
489.4265	0.089	978853	keystroke	t	n/a
489.7555	0.075	979511	keystroke	Key.backspace	n/a
489.9055	0.1055	979811	keystroke	Key.backspace	n/a
490.716	0.06	981432	keystroke	t	n/a
490.791	0.12	981582	keystroke	i	n/a
490.851	0.15	981702	keystroke	n	n/a
491.076	0.12	982152	keystroke	g	n/a
491.256	0.09	982512	keystroke	Key.space	n/a
491.9315	0.075	983863	keystroke	l	n/a
492.1265	0.06	984253	keystroke	i	n/a
492.246	0.105	984492	keystroke	f	n/a
492.366	0.0905	984732	keystroke	e	n/a
492.591	0.06	985182	keystroke	s	n/a
492.831	0.105	985662	keystroke	t	n/a
493.056	0.045	986112	keystroke	y	n/a
493.1765	0.1045	986353	keystroke	l	n/a
493.356	0.075	986712	keystroke	e	n/a
493.5505	0.0605	987101	keystroke	Key.space	n/a
494.1055	0.0755	988211	keystroke	Key.backspace	n/a
494.3165	0.089	988633	keystroke	Key.enter	n/a
494.4115	9.1385	988823	prompt	n/a	thumbnails lifestyle desktop finances\n
495.2015	0.09	990403	keystroke	t	n/a
495.321	0.12	990642	keystroke	h	n/a
495.456	0.15	990912	keystroke	u	n/a
495.591	0.0755	991182	keystroke	b	n/a
495.981	0.09	991962	keystroke	Key.backspace	n/a
496.2505	0.0755	992501	keystroke	m	n/a
496.4455	0.075	992891	keystroke	b	n/a
496.8955	0.0605	993791	keystroke	n	n/a
496.9865	0.1045	993973	keystroke	a	n/a
497.2265	0.075	994453	keystroke	i	n/a
497.48	0.06	994960	keystroke	l	n/a
497.571	0.075	995142	keystroke	s	n/a
497.8395	0.076	995679	keystroke	Key.space	n/a
498.2295	0.0745	996459	keystroke	l	n/a
498.424	0.075	996848	keystroke	i	n/a
498.5885	0.09	997177	keystroke	f	n/a
498.7085	0.1045	997417	keystroke	e	n/a
498.918	0.075	997836	keystroke	s	n/a
499.1425	0.075	998285	keystroke	t	n/a
499.367	0.045	998734	keystroke	y	n/a
499.472	0.105	998944	keystroke	l	n/a
499.6215	0.09	999243	keystroke	e	n/a
499.8165	0.0595	999633	keystroke	Key.space	n/a
500.1905	0.075	1000381	keystroke	d	n/a
500.311	0.0745	1000622	keystroke	e	n/a
500.506	0.0595	1001012	keystroke	s	n/a
500.655	0.09	1001310	keystroke	k	n/a
500.8795	0.03	1001759	keystroke	t	n/a
500.9245	0.1955	1001849	keystroke	o	n/a
501.029	0.121	1002058	keystroke	p	n/a
501.3735	0.075	1002747	keystroke	Key.space	n/a
501.734	0.119	1003468	keystroke	f	n/a
501.8835	0.1195	1003767	keystroke	i	n/a
501.959	0.1195	1003918	keystroke	n	n/a
502.1245	0.06	1004249	keystroke	a	n/a
502.244	0.12	1004488	keystroke	n	n/a
502.499	0.0745	1004998	keystroke	c	n/a
502.6645	0.089	1005329	keystroke	e	n/a
502.904	0.075	1005808	keystroke	s	n/a
503.5035	0.0445	1007007	keystroke	Key.enter	n/a
503.5545	7.121	1007109	prompt	n/a	selecting neural polls minor\n
504.1935	0.075	1008387	keystroke	s	n/a
504.3735	0.1055	1008747	keystroke	e	n/a
504.5835	0.075	1009167	keystroke	l	n/a
504.673	0.0905	1009346	keystroke	e	n/a
504.8395	0.1045	1009679	keystroke	c	n/a
505.094	0.0905	1010188	keystroke	t	n/a
505.1695	0.12	1010339	keystroke	i	n/a
505.2445	0.1045	1010489	keystroke	n	n/a
505.3635	0.076	1010727	keystroke	g	n/a
505.4835	0.0755	1010967	keystroke	Key.space	n/a
506.114	0.075	1012228	keystroke	n	n/a
506.2335	0.106	1012467	keystroke	e	n/a
506.549	0.075	1013098	keystroke	u	n/a
506.6835	0.1055	1013367	keystroke	r	n/a
506.894	0.09	1013788	keystroke	l	n/a
506.9695	0.0895	1013939	keystroke	a	n/a
507.239	0.0595	1014478	keystroke	=	n/a
507.479	0.105	1014958	keystroke	Key.backspace	n/a
507.6735	0.075	1015347	keystroke	Key.backspace	n/a
507.8085	0.0755	1015617	keystroke	Key.backspace	n/a
507.9595	0.1045	1015919	keystroke	a	n/a
508.019	0.1505	1016038	keystroke	l	n/a
508.5435	0.0445	1017087	keystroke	Key.space	n/a
508.844	0.091	1017688	keystroke	p	n/a
509.039	0.0745	1018078	keystroke	o	n/a
509.2195	0.0595	1018439	keystroke	l	n/a
509.354	0.09	1018708	keystroke	l	n/a
509.4745	0.089	1018949	keystroke	s	n/a
509.6235	0.09	1019247	keystroke	Key.space	n/a
509.924	0.045	1019848	keystroke	m	n/a
510.119	0.09	1020238	keystroke	i	n/a
510.1485	0.0905	1020297	keystroke	n	n/a
510.314	0.105	1020628	keystroke	o	n/a
510.464	0.075	1020928	keystroke	r	n/a
510.584	0.0895	1021168	keystroke	Key.enter	n/a
510.679	7.5415	1021358	prompt	n/a	fails appointed officially reduction\n
511.4545	0.09	1022909	keystroke	f	n/a
511.634	0.1055	1023268	keystroke	a	n/a
511.724	0.089	1023448	keystroke	i	n/a
511.934	0.0755	1023868	keystroke	l	n/a
512.0545	0.075	1024109	keystroke	s	n/a
512.2335	0.045	1024467	keystroke	Key.space	n/a
512.3535	0.0595	1024707	keystroke	a	n/a
512.5345	0.09	1025069	keystroke	p	n/a
512.6685	0.091	1025337	keystroke	p	n/a
512.849	0.075	1025698	keystroke	o	n/a
513.043	0.091	1026086	keystroke	i	n/a
513.104	0.105	1026208	keystroke	n	n/a
513.239	0.0895	1026478	keystroke	t	n/a
513.3735	0.165	1026747	keystroke	e	n/a
513.5235	0.1205	1027047	keystroke	d	n/a
513.6735	0.074	1027347	keystroke	Key.space	n/a
514.1685	0.045	1028337	keystroke	o	n/a
514.289	0.0595	1028578	keystroke	f	n/a
514.424	0.09	1028848	keystroke	f	n/a
514.5885	0.1205	1029177	keystroke	i	n/a
514.739	0.1045	1029478	keystroke	c	n/a
514.8285	0.09	1029657	keystroke	i	n/a
514.9485	0.0895	1029897	keystroke	a	n/a
515.098	0.105	1030196	keystroke	l	n/a
515.9085	0.09	1031817	keystroke	l	n/a
516.509	0.1045	1033018	keystroke	y	n/a
516.734	0.0895	1033468	keystroke	Key.space	n/a
516.8995	0.12	1033799	keystroke	r	n/a
517.0195	0.135	1034039	keystroke	e	n/a
517.169	0.105	1034338	keystroke	d	n/a
517.319	0.0755	1034638	keystroke	u	n/a
517.4395	0.09	1034879	keystroke	c	n/a
517.679	0.075	1035358	keystroke	t	n/a
517.798	0.1965	1035596	keystroke	i	n/a
517.844	0.1355	1035688	keystroke	o	n/a
517.9195	0.12	1035839	keystroke	n	n/a
518.159	0.06	1036318	keystroke	Key.enter	n/a
518.2245	5.412	1036449	prompt	n/a	block system without race\n
519.0445	0.045	1038089	keystroke	b	n/a
519.2245	0.029	1038449	keystroke	l	n/a
519.3895	0.06	1038779	keystroke	o	n/a
519.4795	0.06	1038959	keystroke	c	n/a
519.5845	0.0745	1039169	keystroke	k	n/a
519.808	0.061	1039616	keystroke	Key.space	n/a
519.854	0.0905	1039708	keystroke	s	n/a
520.064	0.0905	1040128	keystroke	y	n/a
520.1835	0.09	1040367	keystroke	s	n/a
520.3185	0.0755	1040637	keystroke	t	n/a
520.499	0.0895	1040998	keystroke	e	n/a
520.7835	0.1205	1041567	keystroke	m	n/a
521.0695	0.0595	1042139	keystroke	Key.space	n/a
521.309	0.0745	1042618	keystroke	w	n/a
521.429	0.165	1042858	keystroke	i	n/a
521.669	0.076	1043338	keystroke	t	n/a
521.7295	0.075	1043459	keystroke	h	n/a
521.909	0.076	1043818	keystroke	o	n/a
522.1045	0.0745	1044209	keystroke	u	n/a
522.359	0.0755	1044718	keystroke	t	n/a
522.509	0.075	1045018	keystroke	Key.space	n/a
522.944	0.0595	1045888	keystroke	r	n/a
523.124	0.134	1046248	keystroke	a	n/a
523.304	0.134	1046608	keystroke	c	n/a
523.4535	0.091	1046907	keystroke	e	n/a
523.559	0.075	1047118	keystroke	Key.enter	n/a
523.6435	9.3075	1047287	prompt	n/a	referral origin professor adapter\n
524.4895	0.0895	1048979	keystroke	r	n/a
524.5945	0.105	1049189	keystroke	e	n/a
524.7445	0.105	1049489	keystroke	f	n/a
524.8945	0.134	1049789	keystroke	e	n/a
525.0895	0.0905	1050179	keystroke	r	n/a
526.184	0.0905	1052368	keystroke	r	n/a
526.3345	0.0755	1052669	keystroke	a	n/a
526.4245	0.105	1052849	keystroke	l	n/a
526.7545	0.075	1053509	keystroke	Key.space	n/a
527.1145	0.135	1054229	keystroke	o	n/a
527.2955	0.0895	1054591	keystroke	r	n/a
527.46	0.1045	1054920	keystroke	i	n/a
527.7445	0.075	1055489	keystroke	g	n/a
527.8195	0.121	1055639	keystroke	i	n/a
527.895	0.12	1055790	keystroke	n	n/a
528.254	0.075	1056508	keystroke	Key.space	n/a
529.005	0.09	1058010	keystroke	p	n/a
529.154	0.0895	1058308	keystroke	r	n/a
529.2595	0.089	1058519	keystroke	o	n/a
529.44	0.074	1058880	keystroke	f	n/a
529.6945	0.0145	1059389	keystroke	e	n/a
529.844	0.03	1059688	keystroke	s	n/a
529.965	0.09	1059930	keystroke	s	n/a
530.1145	0.12	1060229	keystroke	o	n/a
530.2945	0.06	1060589	keystroke	t	n/a
530.474	0.061	1060948	keystroke	Key.space	n/a
530.879	0.06	1061758	keystroke	Key.backspace	n/a
530.999	0.0905	1061998	keystroke	Key.backspace	n/a
531.1345	0.06	1062269	keystroke	r	n/a
531.2685	0.0905	1062537	keystroke	Key.space	n/a
531.449	0.03	1062898	keystroke	a	n/a
531.615	0.0895	1063230	keystroke	d	n/a
531.7345	0.105	1063469	keystroke	a	n/a
532.1095	0.075	1064219	keystroke	p	n/a
532.3495	0.06	1064699	keystroke	t	n/a
532.4695	0.135	1064939	keystroke	e	n/a
532.545	0.09	1065090	keystroke	r	n/a
532.8595	0.09	1065719	keystroke	Key.enter	n/a
532.9555	8.381	1065911	prompt	n/a	sixth wiley puzzles amendments\n
533.7745	0.1195	1067549	keystroke	s	n/a
534.2845	0.045	1068569	keystroke	i	n/a
534.344	0.075	1068688	keystroke	x	n/a
534.5685	0.1055	1069137	keystroke	t	n/a
534.7045	0.09	1069409	keystroke	h	n/a
534.929	0.09	1069858	keystroke	Key.space	n/a
535.604	0.075	1071208	keystroke	w	n/a
535.7545	0.0605	1071509	keystroke	i	n/a
535.979	0.0895	1071958	keystroke	l	n/a
536.099	0.09	1072198	keystroke	e	n/a
536.415	0.059	1072830	keystroke	y	n/a
536.5795	0.0595	1073159	keystroke	Key.space	n/a
537.03	0.09	1074060	keystroke	p	n/a
537.2695	0.1655	1074539	keystroke	u	n/a
537.615	0.0295	1075230	keystroke	z	n/a
537.75	0.075	1075500	keystroke	z	n/a
537.915	0.089	1075830	keystroke	l	n/a
538.034	0.135	1076068	keystroke	e	n/a
538.289	0.06	1076578	keystroke	s	n/a
538.4395	0.09	1076879	keystroke	Key.space	n/a
539.415	0.075	1078830	keystroke	a	n/a
539.6545	0.075	1079309	keystroke	m	n/a
539.9095	0.105	1079819	keystroke	e	n/a
540.074	0.061	1080148	keystroke	n	n/a
540.3145	0.06	1080629	keystroke	d	n/a
540.555	0.089	1081110	keystroke	m	n/a
540.66	0.135	1081320	keystroke	e	n/a
540.78	0.06	1081560	keystroke	n	n/a
540.8845	0.1055	1081769	keystroke	t	n/a
541.1095	0.075	1082219	keystroke	s	n/a
541.2595	0.075	1082519	keystroke	Key.enter	n/a
541.3405	9.896	1082681	prompt	n/a	instructor individual stadium penalty\n
542.084	0.075	1084168	keystroke	i	n/a
542.204	0.045	1084408	keystroke	s	n/a
542.564	0.09	1085128	keystroke	Key.backspace	n/a
542.8195	0.09	1085639	keystroke	n	n/a
542.9545	0.06	1085909	keystroke	s	n/a
543.419	0.0755	1086838	keystroke	t	n/a
543.524	0.105	1087048	keystroke	r	n/a
543.69	0.089	1087380	keystroke	u	n/a
543.899	0.0755	1087798	keystroke	c	n/a
544.1395	0.075	1088279	keystroke	t	n/a
544.26	0.0745	1088520	keystroke	o	n/a
544.4545	0.105	1088909	keystroke	r	n/a
544.65	0.0735	1089300	keystroke	Key.space	n/a
544.9945	0.1355	1089989	keystroke	i	n/a
545.2495	0.0755	1090499	keystroke	n	n/a
545.504	0.0605	1091008	keystroke	d	n/a
545.6245	0.1055	1091249	keystroke	i	n/a
545.925	0.0445	1091850	keystroke	v	n/a
546.0595	0.0755	1092119	keystroke	i	n/a
546.39	0.1045	1092780	keystroke	d	n/a
546.554	0.09	1093108	keystroke	u	n/a
546.69	0.09	1093380	keystroke	a	n/a
546.824	0.09	1093648	keystroke	l	n/a
547.109	0.075	1094218	keystroke	Key.space	n/a
547.83	0.119	1095660	keystroke	s	n/a
548.1295	0.09	1096259	keystroke	t	n/a
548.3095	0.105	1096619	keystroke	a	n/a
548.5645	0.075	1097129	keystroke	d	n/a
548.835	0.074	1097670	keystroke	i	n/a
549.015	0.075	1098030	keystroke	u	n/a
549.2695	0.075	1098539	keystroke	m	n/a
549.494	0.0605	1098988	keystroke	Key.space	n/a
549.855	0.105	1099710	keystroke	p	n/a
550.004	0.1045	1100008	keystroke	e	n/a
550.2595	0.06	1100519	keystroke	n	n/a
550.409	0.106	1100818	keystroke	a	n/a
550.6195	0.06	1101239	keystroke	l	n/a
550.739	0.09	1101478	keystroke	t	n/a
550.95	0.0595	1101900	keystroke	y	n/a
551.145	0.0895	1102290	keystroke	Key.enter	n/a
551.2415	8.4845	1102483	prompt	n/a	pediatric rights telecharger thehun\n
552.2105	0.0745	1104421	keystroke	p	n/a
552.3155	0.1045	1104631	keystroke	e	n/a
552.54	0.09	1105080	keystroke	d	n/a
552.6605	0.0745	1105321	keystroke	i	n/a
552.75	0.105	1105500	keystroke	a	n/a
553.035	0.075	1106070	keystroke	t	n/a
553.155	0.09	1106310	keystroke	r	n/a
553.29	0.0895	1106580	keystroke	i	n/a
553.4995	0.075	1106999	keystroke	c	n/a
553.6345	0.0755	1107269	keystroke	Key.space	n/a
554.384	0.0765	1108768	keystroke	r	n/a
554.52	0.091	1109040	keystroke	i	n/a
554.6695	0.09	1109339	keystroke	g	n/a
554.7745	0.1055	1109549	keystroke	h	n/a
554.895	0.09	1109790	keystroke	t	n/a
555.195	0.09	1110390	keystroke	s	n/a
555.3145	0.0905	1110629	keystroke	Key.space	n/a
555.6295	0.0905	1111259	keystroke	t	n/a
555.7795	0.105	1111559	keystroke	e	n/a
556.0345	0.09	1112069	keystroke	l	n/a
556.1545	0.0745	1112309	keystroke	e	n/a
556.3495	0.075	1112699	keystroke	Key.space	n/a
556.814	0.1055	1113628	keystroke	Key.backspace	n/a
557.0695	0.075	1114139	keystroke	c	n/a
557.159	0.09	1114318	keystroke	h	n/a
557.264	0.0905	1114528	keystroke	a	n/a
557.4445	0.09	1114889	keystroke	r	n/a
557.6545	0.105	1115309	keystroke	g	n/a
557.7445	0.1805	1115489	keystroke	e	n/a
557.91	0.09	1115820	keystroke	r	n/a
558.299	0.091	1116598	keystroke	Key.space	n/a
558.495	0.075	1116990	keystroke	t	n/a
558.615	0.1045	1117230	keystroke	h	n/a
558.795	0.06	1117590	keystroke	e	n/a
558.96	0.1045	1117920	keystroke	h	n/a
559.0795	0.1955	1118159	keystroke	u	n/a
559.2595	0.1205	1118519	keystroke	n	n/a
559.6495	0.075	1119299	keystroke	Key.enter	n/a
559.729	7.557	1119458	prompt	n/a	serial advantage creative extent\n
560.445	0.075	1120890	keystroke	s	n/a
560.64	0.09	1121280	keystroke	e	n/a
560.745	0.075	1121490	keystroke	r	n/a
560.88	0.0895	1121760	keystroke	i	n/a
561.015	0.09	1122030	keystroke	a	n/a
561.1795	0.09	1122359	keystroke	l	n/a
561.4495	0.045	1122899	keystroke	Key.space	n/a
561.57	0.075	1123140	keystroke	a	n/a
561.779	0.09	1123558	keystroke	d	n/a
562.05	0.09	1124100	keystroke	v	n/a
562.17	0.09	1124340	keystroke	a	n/a
562.2745	0.09	1124549	keystroke	n	n/a
562.4545	0.0755	1124909	keystroke	t	n/a
562.619	0.09	1125238	keystroke	a	n/a
562.754	0.15	1125508	keystroke	g	n/a
562.8895	0.09	1125779	keystroke	e	n/a
563.16	0.09	1126320	keystroke	Key.space	n/a
563.535	0.0905	1127070	keystroke	c	n/a
563.8495	0.1055	1127699	keystroke	r	n/a
563.9395	0.1505	1127879	keystroke	e	n/a
564.39	0.0745	1128780	keystroke	t	n/a
564.5845	0.09	1129169	keystroke	i	n/a
564.7645	0.076	1129529	keystroke	v	n/a
564.9155	0.0745	1129831	keystroke	e	n/a
565.035	0.0895	1130070	keystroke	Key.space	n/a
565.5895	0.09	1131179	keystroke	e	n/a
565.8455	0.089	1131691	keystroke	x	n/a
566.115	0.0895	1132230	keystroke	t	n/a
566.2795	0.09	1132559	keystroke	e	n/a
566.3855	0.089	1132771	keystroke	n	n/a
566.5195	0.075	1133039	keystroke	t	n/a
567.2245	0.06	1134449	keystroke	Key.enter	n/a
567.291	12.5505	1134582	prompt	n/a	condos techniques controversial presentation\n
568.32	0.0755	1136640	keystroke	c	n/a
568.47	0.09	1136940	keystroke	o	n/a
568.665	0.09	1137330	keystroke	n	n/a
568.785	0.09	1137570	keystroke	d	n/a
568.92	0.09	1137840	keystroke	o	n/a
569.085	0.09	1138170	keystroke	d	n/a
569.5955	0.075	1139191	keystroke	Key.backspace	n/a
569.73	0.09	1139460	keystroke	s	n/a
569.9245	0.075	1139849	keystroke	Key.space	n/a
570.2555	0.075	1140511	keystroke	t	n/a
570.4055	0.1045	1140811	keystroke	e	n/a
570.645	0.09	1141290	keystroke	c	n/a
570.795	0.1055	1141590	keystroke	h	n/a
571.0345	0.0755	1142069	keystroke	n	n/a
571.1855	0.0895	1142371	keystroke	i	n/a
571.7545	0.09	1143509	keystroke	q	n/a
571.86	0.09	1143720	keystroke	u	n/a
572.0095	0.075	1144019	keystroke	e	n/a
572.2045	0.0755	1144409	keystroke	s	n/a
572.594	0.0605	1145188	keystroke	Key.space	n/a
573.0895	0.045	1146179	keystroke	c	n/a
573.6295	0.1195	1147259	keystroke	o	n/a
573.9145	0.06	1147829	keystroke	n	n/a
574.784	0.106	1149568	keystroke	t	n/a
575.085	0.015	1150170	keystroke	r	n/a
575.325	0.12	1150650	keystroke	o	n/a
575.55	0.074	1151100	keystroke	v	n/a
575.79	0.135	1151580	keystroke	e	n/a
576.42	0.075	1152840	keystroke	r	n/a
576.824	0.061	1153648	keystroke	s	n/a
576.931	0.104	1153862	keystroke	i	n/a
577.08	0.105	1154160	keystroke	a	n/a
577.215	0.089	1154430	keystroke	l	n/a
577.515	0.074	1155030	keystroke	Key.space	n/a
577.769	0.105	1155538	keystroke	p	n/a
577.935	0.12	1155870	keystroke	r	n/a
578.01	0.1345	1156020	keystroke	e	n/a
578.4905	0.0595	1156981	keystroke	s	n/a
578.7	0.075	1157400	keystroke	e	n/a
578.79	0.075	1157580	keystroke	n	n/a
578.97	0.06	1157940	keystroke	t	n/a
579.15	0.045	1158300	keystroke	a	n/a
579.24	0.1195	1158480	keystroke	t	n/a
579.375	0.15	1158750	keystroke	i	n/a
579.4045	0.1055	1158809	keystroke	o	n/a
579.435	0.12	1158870	keystroke	n	n/a
579.75	0.09	1159500	keystroke	Key.enter	n/a
579.8465	12.07	1159693	prompt	n/a	surge popular manufacturers composition\n
580.5455	0.059	1161091	keystroke	s	n/a
580.74	0.09	1161480	keystroke	u	n/a
580.95	0.0895	1161900	keystroke	r	n/a
581.2195	0.0905	1162439	keystroke	g	n/a
581.34	0.09	1162680	keystroke	e	n/a
581.5645	0.09	1163129	keystroke	Key.space	n/a
582.0295	0.105	1164059	keystroke	p	n/a
582.2695	0.09	1164539	keystroke	o	n/a
582.5255	0.1045	1165051	keystroke	p	n/a
582.99	0.0455	1165980	keystroke	u	n/a
583.185	0.12	1166370	keystroke	l	n/a
583.29	0.105	1166580	keystroke	a	n/a
583.47	0.09	1166940	keystroke	r	n/a
583.62	0.075	1167240	keystroke	Key.space	n/a
584.4305	0.0895	1168861	keystroke	m	n/a
584.535	0.0905	1169070	keystroke	a	n/a
584.7295	0.0755	1169459	keystroke	n	n/a
584.91	0.09	1169820	keystroke	u	n/a
585.24	0.09	1170480	keystroke	f	n/a
585.36	0.1355	1170720	keystroke	a	n/a
585.705	0.06	1171410	keystroke	c	n/a
585.915	0.06	1171830	keystroke	t	n/a
586.32	0.09	1172640	keystroke	u	n/a
586.485	0.135	1172970	keystroke	r	n/a
586.574	0.121	1173148	keystroke	e	n/a
586.995	0.0595	1173990	keystroke	r	n/a
587.895	0.1205	1175790	keystroke	s	n/a
589.275	0.0605	1178550	keystroke	Key.space	n/a
589.515	0.0605	1179030	keystroke	c	n/a
589.6055	0.135	1179211	keystroke	o	n/a
589.7255	0.0895	1179451	keystroke	m	n/a
589.8905	0.105	1179781	keystroke	p	n/a
590.1305	0.0895	1180261	keystroke	o	n/a
590.3705	0.09	1180741	keystroke	s	n/a
590.61	0.105	1181220	keystroke	i	n/a
590.7745	0.09	1181549	keystroke	t	n/a
590.894	0.255	1181788	keystroke	i	n/a
590.9695	0.1495	1181939	keystroke	o	n/a
591.059	0.1505	1182118	keystroke	n	n/a
591.8245	0.0905	1183649	keystroke	Key.enter	n/a
591.92	20.817	1183840	prompt	n/a	statutory range filters contracts\n
592.77	0.09	1185540	keystroke	s	n/a
592.9945	0.0755	1185989	keystroke	t	n/a
593.115	0.09	1186230	keystroke	a	n/a
593.3105	0.0895	1186621	keystroke	t	n/a
593.8055	0.1195	1187611	keystroke	u	n/a
594.24	0.045	1188480	keystroke	Key.left	n/a
594.81	0.0895	1189620	keystroke	t	n/a
595.2005	0.03	1190401	keystroke	o	n/a
597.6165	0.1035	1195233	keystroke	Key.right	n/a
598.6495	0.091	1197299	keystroke	Key.backspace	n/a
598.8155	0.074	1197631	keystroke	Key.backspace	n/a
598.9655	0.089	1197931	keystroke	Key.backspace	n/a
599.8805	0.075	1199761	keystroke	a	n/a
600.0145	0.076	1200029	keystroke	t	n/a
600.2555	0.09	1200511	keystroke	u	n/a
603.5715	0.0735	1207143	keystroke	Key.backspace	n/a
604.05	0.1195	1208100	keystroke	Key.backspace	n/a
604.5595	0.135	1209119	keystroke	Key.backspace	n/a
605.7595	0.076	1211519	keystroke	u	n/a
605.8945	0.076	1211789	keystroke	t	n/a
606.0895	0.076	1212179	keystroke	o	n/a
606.2405	0.1045	1212481	keystroke	r	n/a
606.45	0.075	1212900	keystroke	y	n/a
606.675	0.0895	1213350	keystroke	Key.space	n/a
607.215	0.105	1214430	keystroke	r	n/a
607.38	0.105	1214760	keystroke	a	n/a
607.5	0.09	1215000	keystroke	n	n/a
607.635	0.15	1215270	keystroke	g	n/a
607.8145	0.0755	1215629	keystroke	e	n/a
607.8595	0.0905	1215719	keystroke	Key.space	n/a
608.5955	0.074	1217191	keystroke	f	n/a
608.6995	0.076	1217399	keystroke	i	n/a
608.9105	0.089	1217821	keystroke	l	n/a
609.0305	0.105	1218061	keystroke	t	n/a
609.1655	0.15	1218331	keystroke	e	n/a
609.2855	0.12	1218571	keystroke	r	n/a
609.555	0.12	1219110	keystroke	s	n/a
610.005	0.0905	1220010	keystroke	Key.space	n/a
610.155	0.12	1220310	keystroke	c	n/a
610.26	0.1055	1220520	keystroke	o	n/a
610.321	0.1045	1220642	keystroke	n	n/a
610.4555	0.09	1220911	keystroke	t	n/a
610.6795	0.061	1221359	keystroke	r	n/a
610.906	0.0745	1221812	keystroke	a	n/a
611.13	0.105	1222260	keystroke	c	n/a
611.61	0.0755	1223220	keystroke	t	n/a
612.226	0.06	1224452	keystroke	s	n/a
612.6755	0.0595	1225351	keystroke	Key.enter	n/a
612.741	16.451	1225482	prompt	n/a	substantial flip centers fees\n
613.7405	0.1045	1227481	keystroke	s	n/a
613.95	0.1655	1227900	keystroke	u	n/a
614.1	0.09	1228200	keystroke	b	n/a
614.206	0.119	1228412	keystroke	s	n/a
614.49	0.0755	1228980	keystroke	t	n/a
614.6255	0.1045	1229251	keystroke	a	n/a
614.76	0.075	1229520	keystroke	t	n/a
615.0005	0.09	1230001	keystroke	n	n/a
615.2545	0.091	1230509	keystroke	t	n/a
615.3605	0.075	1230721	keystroke	i	n/a
615.5105	0.105	1231021	keystroke	a	n/a
615.601	0.09	1231202	keystroke	l	n/a
615.8095	0.0905	1231619	keystroke	Key.space	n/a
617.2055	0.12	1234411	keystroke	Key.backspace	n/a
617.4	0.09	1234800	keystroke	Key.backspace	n/a
618.15	0.076	1236300	keystroke	b	n/a
618.256	0.0895	1236512	keystroke	t	n/a
618.3605	0.1055	1236721	keystroke	i	n/a
618.435	0.1055	1236870	keystroke	a	n/a
618.5855	0.105	1237171	keystroke	l	n/a
619.335	0.06	1238670	keystroke	Key.backspace	n/a
619.56	0.045	1239120	keystroke	Key.backspace	n/a
619.65	0.06	1239300	keystroke	Key.backspace	n/a
619.7855	0.06	1239571	keystroke	Key.backspace	n/a
619.935	0.075	1239870	keystroke	Key.backspace	n/a
620.505	0.0755	1241010	keystroke	n	n/a
620.6845	0.1055	1241369	keystroke	t	n/a
621.0455	0.104	1242091	keystroke	i	n/a
621.1655	0.105	1242331	keystroke	t	n/a
621.2555	0.105	1242511	keystroke	a	n/a
621.3305	0.12	1242661	keystroke	i	n/a
621.4195	0.09	1242839	keystroke	n	n/a
621.7955	0.105	1243591	keystroke	Key.backspace	n/a
621.9755	0.09	1243951	keystroke	Key.backspace	n/a
622.8895	0.106	1245779	keystroke	Key.backspace	n/a
623.3255	0.135	1246651	keystroke	Key.backspace	n/a
624.481	0.089	1248962	keystroke	a	n/a
624.5855	0.03	1249171	keystroke	l	n/a
625.2	0.075	1250400	keystroke	Key.space	n/a
625.935	0.075	1251870	keystroke	f	n/a
626.0255	0.0745	1252051	keystroke	l	n/a
626.22	0.0755	1252440	keystroke	i	n/a
626.415	0.0755	1252830	keystroke	p	n/a
626.67	0.075	1253340	keystroke	Key.space	n/a
627.1955	0.09	1254391	keystroke	c	n/a
627.3605	0.105	1254721	keystroke	e	n/a
627.4805	0.09	1254961	keystroke	n	n/a
627.5855	0.105	1255171	keystroke	t	n/a
627.706	0.135	1255412	keystroke	e	n/a
627.8105	0.09	1255621	keystroke	r	n/a
627.9905	0.089	1255981	keystroke	s	n/a
628.17	0.075	1256340	keystroke	Key.space	n/a
628.4405	0.0595	1256881	keystroke	f	n/a
628.5905	0.09	1257181	keystroke	e	n/a
628.74	0.06	1257480	keystroke	e	n/a
628.921	0.074	1257842	keystroke	s	n/a
629.1155	0.0745	1258231	keystroke	Key.enter	n/a
629.1965	9.416	1258393	prompt	n/a	democrat meditation disclose upgrade\n
630.015	0.105	1260030	keystroke	d	n/a
630.15	0.1055	1260300	keystroke	e	n/a
630.3905	0.06	1260781	keystroke	m	n/a
630.5555	0.09	1261111	keystroke	o	n/a
630.87	0.1055	1261740	keystroke	c	n/a
631.081	0.104	1262162	keystroke	r	n/a
631.2455	0.1205	1262491	keystroke	a	n/a
631.4105	0.075	1262821	keystroke	t	n/a
631.6355	0.06	1263271	keystroke	Key.space	n/a
632.041	0.074	1264082	keystroke	m	n/a
632.16	0.0905	1264320	keystroke	e	n/a
632.3255	0.09	1264651	keystroke	d	n/a
632.4905	0.075	1264981	keystroke	i	n/a
632.7305	0.0755	1265461	keystroke	t	n/a
632.866	0.1345	1265732	keystroke	a	n/a
633.015	0.1205	1266030	keystroke	t	n/a
633.2255	0.2255	1266451	keystroke	i	n/a
633.2855	0.135	1266571	keystroke	o	n/a
633.4055	0.1045	1266811	keystroke	n	n/a
633.5555	0.075	1267111	keystroke	s	n/a
