onset	duration	sample	value	key	prompt_text
6.7265	8.7745	13453	prompt	n/a	the quick brown fox jumps over a lazy dog\n
8.7815	0.001	17563	keystroke_t	t	n/a
8.8075	0.136	17615	keystroke_h	h	n/a
8.8985	0.104	17797	keystroke_e	e	n/a
9.1075	0.135	18215	keystroke_Key.space	Key.space	n/a
9.2125	0.165	18425	keystroke_q	q	n/a
9.3625	0.15	18725	keystroke_u	u	n/a
9.4525	0.09	18905	keystroke_i	i	n/a
9.6025	0.105	19205	keystroke_c	c	n/a
9.6775	0.15	19355	keystroke_k	k	n/a
9.7675	0.151	19535	keystroke_Key.space	Key.space	n/a
9.9625	0.09	19925	keystroke_b	b	n/a
10.203	0.09	20406	keystroke_r	r	n/a
10.278	0.105	20556	keystroke_o	o	n/a
10.458	0.09	20916	keystroke_w	w	n/a
10.563	0.165	21126	keystroke_n	n	n/a
10.683	0.12	21366	keystroke_Key.space	Key.space	n/a
10.969	0.089	21938	keystroke_f	f	n/a
11.163	0.075	22326	keystroke_o	o	n/a
11.328	0.09	22656	keystroke_x	x	n/a
11.448	0.15	22896	keystroke_Key.space	Key.space	n/a
11.628	0.105	23256	keystroke_j	j	n/a
11.838	0.075	23676	keystroke_u	u	n/a
12.048	0.165	24096	keystroke_m	m	n/a
12.153	0.15	24306	keystroke_p	p	n/a
12.288	0.09	24576	keystroke_s	s	n/a
12.393	0.135	24786	keystroke_Key.space	Key.space	n/a
12.588	0.09	25176	keystroke_o	o	n/a
12.738	0.09	25476	keystroke_v	v	n/a
12.948	0.135	25896	keystroke_e	e	n/a
12.993	0.12	25986	keystroke_r	r	n/a
13.128	0.15	26256	keystroke_Key.space	Key.space	n/a
13.369	0.104	26738	keystroke_a	a	n/a
13.458	0.165	26916	keystroke_Key.space	Key.space	n/a
13.608	0.105	27216	keystroke_l	l	n/a
13.788	0.12	27576	keystroke_a	a	n/a
14.058	0.105	28116	keystroke_z	z	n/a
14.268	0.15	28536	keystroke_y	y	n/a
14.358	0.135	28716	keystroke_Key.space	Key.space	n/a
14.463	0.106	28926	keystroke_d	d	n/a
14.598	0.09	29196	keystroke_o	o	n/a
14.853	0.045	29706	keystroke_g	g	n/a
15.378	0.12	30756	keystroke_Key.enter	Key.enter	n/a
15.5075	5.438	31015	prompt	n/a	semi boost dodge cheap\n
16.428	0.075	32856	keystroke_s	s	n/a
16.653	0.045	33306	keystroke_e	e	n/a
16.744	0.194	33488	keystroke_m	m	n/a
16.893	0.105	33786	keystroke_i	i	n/a
17.058	0.1495	34116	keystroke_Key.space	Key.space	n/a
17.2685	0.119	34537	keystroke_b	b	n/a
17.5075	0.061	35015	keystroke_o	o	n/a
17.6435	0.075	35287	keystroke_o	o	n/a
17.8235	0.195	35647	keystroke_s	s	n/a
17.9735	0.105	35947	keystroke_t	t	n/a
18.0935	0.105	36187	keystroke_Key.space	Key.space	n/a
18.2285	0.104	36457	keystroke_d	d	n/a
18.6185	0.089	37237	keystroke_o	o	n/a
18.9185	0.09	37837	keystroke_d	d	n/a
19.1435	0.075	38287	keystroke_g	g	n/a
19.3375	0.061	38675	keystroke_e	e	n/a
19.4875	0.12	38975	keystroke_Key.space	Key.space	n/a
19.6825	0.091	39365	keystroke_c	c	n/a
19.7875	0.12	39575	keystroke_h	h	n/a
19.9225	0.151	39845	keystroke_e	e	n/a
20.0125	0.136	40025	keystroke_a	a	n/a
20.1185	0.119	40237	keystroke_p	p	n/a
20.8375	0.106	41675	keystroke_Key.enter	Key.enter	n/a
20.9505	7.1045	41901	prompt	n/a	attempt ventures leads descending\n
21.7385	0.119	43477	keystroke_a	a	n/a
22.0075	0.075	44015	keystroke_t	t	n/a
22.1735	0.09	44347	keystroke_t	t	n/a
22.2785	0.06	44557	keystroke_e	e	n/a
22.3835	0.165	44767	keystroke_m	m	n/a
22.4735	0.15	44947	keystroke_p	p	n/a
22.6385	0.075	45277	keystroke_t	t	n/a
22.7735	0.134	45547	keystroke_Key.space	Key.space	n/a
23.1935	0.075	46387	keystroke_v	v	n/a
23.3285	0.105	46657	keystroke_e	e	n/a
23.4485	0.135	46897	keystroke_n	n	n/a
23.5685	0.06	47137	keystroke_t	t	n/a
23.6885	0.135	47377	keystroke_u	u	n/a
23.7785	0.18	47557	keystroke_r	r	n/a
23.8835	0.12	47767	keystroke_e	e	n/a
23.9435	0.12	47887	keystroke_s	s	n/a
24.0775	0.12	48155	keystroke_Key.space	Key.space	n/a
24.6635	0.09	49327	keystroke_l	l	n/a
24.7685	0.12	49537	keystroke_e	e	n/a
24.8885	0.09	49777	keystroke_a	a	n/a
25.0385	0.15	50077	keystroke_d	d	n/a
25.1285	0.135	50257	keystroke_s	s	n/a
25.2485	0.15	50497	keystroke_Key.space	Key.space	n/a
25.5785	0.06	51157	keystroke_d	d	n/a
25.7585	0.075	51517	keystroke_e	e	n/a
25.9535	0.06	51907	keystroke_s	s	n/a
26.1635	0.06	52327	keystroke_c	c	n/a
26.4185	0.09	52837	keystroke_e	e	n/a
26.6135	0.15	53227	keystroke_n	n	n/a
26.7485	0.105	53497	keystroke_d	d	n/a
26.9285	0.18	53857	keystroke_i	i	n/a
27.0335	0.18	54067	keystroke_n	n	n/a
27.2135	0.075	54427	keystroke_g	g	n/a
27.9185	0.135	55837	keystroke_Key.enter	Key.enter	n/a
28.06	6.3405	56120	prompt	n/a	phil exhibitions shown product\n
28.8785	0.12	57757	keystroke_p	p	n/a
29.0585	0.165	58117	keystroke_h	h	n/a
29.1785	0.195	58357	keystroke_i	i	n/a
29.3135	0.165	58627	keystroke_l	l	n/a
29.4935	0.105	58987	keystroke_Key.space	Key.space	n/a
29.7335	0.075	59467	keystroke_e	e	n/a
30.0185	0.09	60037	keystroke_x	x	n/a
30.2885	0.15	60577	keystroke_h	h	n/a
30.4535	0.105	60907	keystroke_i	i	n/a
30.7085	0.12	61417	keystroke_b	b	n/a
30.8435	0.09	61687	keystroke_i	i	n/a
31.0685	0.075	62137	keystroke_t	t	n/a
31.1585	0.15	62317	keystroke_i	i	n/a
31.2635	0.195	62527	keystroke_o	o	n/a
31.3985	0.135	62797	keystroke_n	n	n/a
31.4885	0.105	62977	keystroke_s	s	n/a
32.0735	0.12	64147	keystroke_Key.space	Key.space	n/a
32.2835	0.105	64567	keystroke_s	s	n/a
32.3735	0.15	64747	keystroke_h	h	n/a
32.4935	0.105	64987	keystroke_o	o	n/a
32.5835	0.075	65167	keystroke_w	w	n/a
32.7485	0.255	65497	keystroke_n	n	n/a
32.8535	0.165	65707	keystroke_Key.space	Key.space	n/a
32.9585	0.09	65917	keystroke_p	p	n/a
33.0785	0.075	66157	keystroke_r	r	n/a
33.1685	0.075	66337	keystroke_o	o	n/a
33.2585	0.075	66517	keystroke_d	d	n/a
33.3935	0.12	66787	keystroke_u	u	n/a
33.4835	0.105	66967	keystroke_c	c	n/a
33.7535	0.075	67507	keystroke_t	t	n/a
34.2785	0.12	68557	keystroke_Key.enter	Key.enter	n/a
34.4075	6.299	68815	prompt	n/a	downloads perth winners pictures\n
35.1185	0.075	70237	keystroke_d	d	n/a
35.2385	0.09	70477	keystroke_o	o	n/a
35.3135	0.09	70627	keystroke_w	w	n/a
35.4635	0.12	70927	keystroke_n	n	n/a
35.6435	0.105	71287	keystroke_l	l	n/a
35.8535	0.09	71707	keystroke_o	o	n/a
35.9735	0.075	71947	keystroke_a	a	n/a
36.1385	0.18	72277	keystroke_d	d	n/a
36.2435	0.135	72487	keystroke_s	s	n/a
36.6785	0.135	73357	keystroke_Key.space	Key.space	n/a
37.0385	0.12	74077	keystroke_p	p	n/a
37.1135	0.135	74227	keystroke_e	e	n/a
37.2035	0.075	74407	keystroke_r	r	n/a
37.3985	0.09	74797	keystroke_t	t	n/a
37.4735	0.15	74947	keystroke_h	h	n/a
37.5635	0.12	75127	keystroke_Key.space	Key.space	n/a
37.6685	0.105	75337	keystroke_w	w	n/a
37.7585	0.09	75517	keystroke_i	i	n/a
37.9835	0.06	75967	keystroke_n	n	n/a
38.1185	0.135	76237	keystroke_n	n	n/a
38.2235	0.165	76447	keystroke_e	e	n/a
38.3135	0.18	76627	keystroke_r	r	n/a
38.4635	0.09	76927	keystroke_s	s	n/a
38.5685	0.135	77137	keystroke_Key.space	Key.space	n/a
39.3035	0.105	78607	keystroke_p	p	n/a
39.4385	0.12	78877	keystroke_i	i	n/a
39.5735	0.06	79147	keystroke_c	c	n/a
39.7535	0.075	79507	keystroke_t	t	n/a
39.8585	0.12	79717	keystroke_u	u	n/a
39.9635	0.165	79927	keystroke_r	r	n/a
40.0385	0.15	80077	keystroke_e	e	n/a
40.1435	0.105	80287	keystroke_s	s	n/a
40.5935	0.105	81187	keystroke_Key.enter	Key.enter	n/a
40.7065	6.055	81413	prompt	n/a	ongoing womens variety rwanda\n
41.6135	0.09	83227	keystroke_o	o	n/a
41.8385	0.12	83677	keystroke_n	n	n/a
41.9435	0.09	83887	keystroke_g	g	n/a
42.0935	0.165	84187	keystroke_o	o	n/a
42.2135	0.15	84427	keystroke_i	i	n/a
42.2885	0.21	84577	keystroke_n	n	n/a
42.3935	0.075	84787	keystroke_g	g	n/a
42.4535	0.165	84907	keystroke_Key.space	Key.space	n/a
42.6035	0.12	85207	keystroke_w	w	n/a
42.7085	0.105	85417	keystroke_o	o	n/a
42.7835	0.135	85567	keystroke_m	m	n/a
42.9935	0.09	85987	keystroke_e	e	n/a
43.4135	0.135	86827	keystroke_n	n	n/a
43.5335	0.105	87067	keystroke_s	s	n/a
43.6985	0.12	87397	keystroke_Key.space	Key.space	n/a
44.1185	0.105	88237	keystroke_v	v	n/a
44.2835	0.165	88567	keystroke_a	a	n/a
44.3885	0.12	88777	keystroke_r	r	n/a
44.5535	0.12	89107	keystroke_i	i	n/a
44.6885	0.12	89377	keystroke_e	e	n/a
44.7635	0.105	89527	keystroke_t	t	n/a
44.8835	0.135	89767	keystroke_y	y	n/a
45.0035	0.12	90007	keystroke_Key.space	Key.space	n/a
45.4535	0.105	90907	keystroke_r	r	n/a
45.6635	0.09	91327	keystroke_w	w	n/a
45.8585	0.105	91717	keystroke_a	a	n/a
45.9785	0.135	91957	keystroke_n	n	n/a
46.0985	0.09	92197	keystroke_d	d	n/a
46.3085	0.09	92617	keystroke_a	a	n/a
46.6385	0.12	93277	keystroke_Key.enter	Key.enter	n/a
46.7685	6.533	93537	prompt	n/a	bookmark mild vacation genius\n
47.6885	0.09	95377	keystroke_b	b	n/a
47.8235	0.06	95647	keystroke_o	o	n/a
47.9885	0.181	95977	keystroke_o	o	n/a
48.1535	0.09	96307	keystroke_k	k	n/a
48.4835	0.12	96967	keystroke_m	m	n/a
48.6335	0.18	97267	keystroke_a	a	n/a
48.7985	0.12	97597	keystroke_r	r	n/a
48.9035	0.12	97807	keystroke_k	k	n/a
49.4885	0.12	98977	keystroke_Key.space	Key.space	n/a
49.7435	0.195	99487	keystroke_m	m	n/a
49.9235	0.165	99847	keystroke_i	i	n/a
50.0735	0.105	100147	keystroke_l	l	n/a
50.2235	0.105	100447	keystroke_d	d	n/a
50.3885	0.15	100777	keystroke_Key.space	Key.space	n/a
50.6435	0.105	101287	keystroke_v	v	n/a
50.8535	0.12	101707	keystroke_a	a	n/a
51.0335	0.105	102067	keystroke_c	c	n/a
51.2735	0.105	102547	keystroke_a	a	n/a
51.3635	0.105	102727	keystroke_t	t	n/a
51.4835	0.15	102967	keystroke_i	i	n/a
51.6035	0.195	103207	keystroke_o	o	n/a
51.7385	0.195	103477	keystroke_n	n	n/a
51.8585	0.15	103717	keystroke_Key.space	Key.space	n/a
51.9935	0.06	103987	keystroke_g	g	n/a
52.1585	0.09	104317	keystroke_e	e	n/a
52.2335	0.105	104467	keystroke_n	n	n/a
52.4435	0.09	104887	keystroke_i	i	n/a
52.6535	0.12	105307	keystroke_u	u	n/a
52.7585	0.09	105517	keystroke_s	s	n/a
53.2085	0.09	106417	keystroke_Key.enter	Key.enter	n/a
53.3105	7.67	106621	prompt	n/a	cement classroom foto tomato\n
54.0635	0.09	108127	keystroke_c	c	n/a
54.3785	0.075	108757	keystroke_e	e	n/a
54.5435	0.105	109087	keystroke_m	m	n/a
54.6335	0.075	109267	keystroke_e	e	n/a
54.7835	0.12	109567	keystroke_n	n	n/a
54.9185	0.075	109837	keystroke_t	t	n/a
55.0535	0.135	110107	keystroke_Key.space	Key.space	n/a
55.2785	0.105	110557	keystroke_c	c	n/a
55.4135	0.105	110827	keystroke_l	l	n/a
55.5335	0.135	111067	keystroke_a	a	n/a
55.6835	0.09	111367	keystroke_r	r	n/a
56.2835	0.075	112567	keystroke_Key.backspace	Key.backspace	n/a
56.7335	0.12	113467	keystroke_s	s	n/a
57.2285	0.12	114457	keystroke_s	s	n/a
57.5145	0.074	115029	keystroke_r	r	n/a
57.6935	0.06	115387	keystroke_o	o	n/a
57.8585	0.165	115717	keystroke_o	o	n/a
57.9785	0.165	115957	keystroke_m	m	n/a
58.0835	0.135	116167	keystroke_Key.space	Key.space	n/a
58.1735	0.105	116347	keystroke_f	f	n/a
58.3235	0.12	116647	keystroke_o	o	n/a
58.5035	0.09	117007	keystroke_t	t	n/a
58.6085	0.09	117217	keystroke_o	o	n/a
59.0585	0.12	118117	keystroke_Key.space	Key.space	n/a
59.4935	0.075	118987	keystroke_t	t	n/a
59.6135	0.15	119227	keystroke_o	o	n/a
59.6885	0.165	119377	keystroke_m	m	n/a
59.8385	0.12	119677	keystroke_a	a	n/a
59.8985	0.09	119797	keystroke_t	t	n/a
60.0485	0.09	120097	keystroke_o	o	n/a
60.8735	0.105	121747	keystroke_Key.enter	Key.enter	n/a
60.985	7.5865	121970	prompt	n/a	workplace retail colleges exception\n
61.9085	0.09	123817	keystroke_w	w	n/a
62.0585	0.105	124117	keystroke_o	o	n/a
62.1935	0.075	124387	keystroke_r	r	n/a
62.3735	0.12	124747	keystroke_k	k	n/a
62.6285	0.09	125257	keystroke_p	p	n/a
62.6895	0.134	125379	keystroke_l	l	n/a
62.8085	0.09	125617	keystroke_a	a	n/a
62.9735	0.105	125947	keystroke_c	c	n/a
63.2285	0.075	126457	keystroke_e	e	n/a
63.3185	0.135	126637	keystroke_Key.space	Key.space	n/a
63.5435	0.135	127087	keystroke_r	r	n/a
63.6935	0.15	127387	keystroke_e	e	n/a
64.3235	0.06	128647	keystroke_t	t	n/a
64.5035	0.136	129007	keystroke_a	a	n/a
64.5785	0.195	129157	keystroke_i	i	n/a
64.6985	0.135	129397	keystroke_l	l	n/a
64.9685	0.15	129937	keystroke_Key.space	Key.space	n/a
65.1485	0.12	130297	keystroke_c	c	n/a
65.2535	0.075	130507	keystroke_o	o	n/a
65.4485	0.075	130897	keystroke_l	l	n/a
65.6135	0.075	131227	keystroke_l	l	n/a
65.6735	0.091	131347	keystroke_e	e	n/a
65.8685	0.195	131737	keystroke_g	g	n/a
65.9885	0.165	131977	keystroke_e	e	n/a
66.1085	0.105	132217	keystroke_s	s	n/a
66.2285	0.12	132457	keystroke_Key.space	Key.space	n/a
66.4385	0.09	132877	keystroke_e	e	n/a
66.6935	0.09	133387	keystroke_x	x	n/a
66.8885	0.075	133777	keystroke_c	c	n/a
67.0985	0.075	134197	keystroke_e	e	n/a
67.2185	0.105	134437	keystroke_p	p	n/a
67.3695	0.089	134739	keystroke_t	t	n/a
67.4735	0.135	134947	keystroke_i	i	n/a
67.5635	0.21	135127	keystroke_o	o	n/a
67.7435	0.135	135487	keystroke_n	n	n/a
68.4485	0.121	136897	keystroke_Key.enter	Key.enter	n/a
68.578	5.3025	137156	prompt	n/a	tent danny asking scripts\n
69.3785	0.06	138757	keystroke_t	t	n/a
69.5145	0.089	139029	keystroke_e	e	n/a
69.6635	0.15	139327	keystroke_n	n	n/a
69.7835	0.09	139567	keystroke_t	t	n/a
69.9035	0.15	139807	keystroke_Key.space	Key.space	n/a
70.0235	0.121	140047	keystroke_d	d	n/a
70.1735	0.105	140347	keystroke_a	a	n/a
70.2635	0.075	140527	keystroke_n	n	n/a
70.4135	0.12	140827	keystroke_n	n	n/a
70.7285	0.15	141457	keystroke_y	y	n/a
70.8335	0.15	141667	keystroke_Key.space	Key.space	n/a
70.9985	0.12	141997	keystroke_a	a	n/a
71.1335	0.12	142267	keystroke_s	s	n/a
71.2235	0.075	142447	keystroke_k	k	n/a
71.4035	0.1495	142807	keystroke_i	i	n/a
71.493	0.165	142986	keystroke_n	n	n/a
71.659	0.089	143318	keystroke_g	g	n/a
71.883	0.15	143766	keystroke_Key.space	Key.space	n/a
72.348	0.075	144696	keystroke_s	s	n/a
72.558	0.06	145116	keystroke_c	c	n/a
72.723	0.105	145446	keystroke_r	r	n/a
72.783	0.18	145566	keystroke_i	i	n/a
72.948	0.135	145896	keystroke_p	p	n/a
73.098	0.135	146196	keystroke_t	t	n/a
73.189	0.135	146378	keystroke_s	s	n/a
73.758	0.12	147516	keystroke_Key.enter	Key.enter	n/a
73.886	4.4635	147772	prompt	n/a	adobe discount out kitty\n
74.553	0.045	149106	keystroke_a	a	n/a
74.793	0.015	149586	keystroke_d	d	n/a
74.823	0.075	149646	keystroke_o	o	n/a
74.928	0.075	149856	keystroke_b	b	n/a
75.123	0.06	150246	keystroke_e	e	n/a
75.213	0.1045	150426	keystroke_Key.space	Key.space	n/a
75.3185	0.089	150637	keystroke_d	d	n/a
75.3775	0.136	150755	keystroke_i	i	n/a
75.4975	0.06	150995	keystroke_s	s	n/a
75.6475	0.105	151295	keystroke_c	c	n/a
75.7085	0.18	151417	keystroke_o	o	n/a
75.8425	0.105	151685	keystroke_u	u	n/a
76.0685	0.104	152137	keystroke_n	n	n/a
76.1885	0.075	152377	keystroke_t	t	n/a
76.2775	0.15	152555	keystroke_Key.space	Key.space	n/a
76.6825	0.12	153365	keystroke_o	o	n/a
76.7575	0.136	153515	keystroke_u	u	n/a
76.8775	0.075	153755	keystroke_t	t	n/a
76.9825	0.105	153965	keystroke_Key.space	Key.space	n/a
77.1175	0.075	154235	keystroke_k	k	n/a
77.2825	0.106	154565	keystroke_i	i	n/a
77.4325	0.061	154865	keystroke_t	t	n/a
77.5675	0.09	155135	keystroke_t	t	n/a
77.6885	0.119	155377	keystroke_y	y	n/a
78.2425	0.105	156485	keystroke_Key.enter	Key.enter	n/a
78.3545	8.0945	156709	prompt	n/a	hispanic dying epson handbook\n
79.2185	0.075	158437	keystroke_h	h	n/a
79.3225	0.105	158645	keystroke_i	i	n/a
79.4575	0.106	158915	keystroke_s	s	n/a
79.5635	0.104	159127	keystroke_p	p	n/a
79.6975	0.105	159395	keystroke_a	a	n/a
79.7885	0.15	159577	keystroke_n	n	n/a
79.9075	0.106	159815	keystroke_i	i	n/a
79.9985	0.104	159997	keystroke_c	c	n/a
80.1475	0.15	160295	keystroke_Key.space	Key.space	n/a
80.5085	0.075	161017	keystroke_d	d	n/a
80.6135	0.134	161227	keystroke_y	y	n/a
80.7935	0.195	161587	keystroke_i	i	n/a
80.9275	0.241	161855	keystroke_n	n	n/a
81.0635	0.089	162127	keystroke_g	g	n/a
81.2125	0.165	162425	keystroke_Key.space	Key.space	n/a
81.6635	0.075	163327	keystroke_s	s	n/a
81.9925	0.166	163985	keystroke_p	p	n/a
82.5475	0.06	165095	keystroke_Key.backspace	Key.backspace	n/a
82.6825	0.09	165365	keystroke_Key.backspace	Key.backspace	n/a
82.8775	0.075	165755	keystroke_e	e	n/a
83.0585	0.135	166117	keystroke_p	p	n/a
83.2685	0.104	166537	keystroke_s	s	n/a
83.4335	0.135	166867	keystroke_o	o	n/a
83.5225	0.181	167045	keystroke_n	n	n/a
83.6725	0.12	167345	keystroke_Key.space	Key.space	n/a
83.9585	0.075	167917	keystroke_h	h	n/a
84.1975	0.105	168395	keystroke_n	n	n/a
84.5885	0.074	169177	keystroke_Key.backspace	Key.backspace	n/a
84.6785	0.105	169357	keystroke_a	a	n/a
84.8435	0.12	169687	keystroke_n	n	n/a
84.9775	0.105	169955	keystroke_d	d	n/a
85.2935	0.104	170587	keystroke_b	b	n/a
85.4275	0.061	170855	keystroke_o	o	n/a
85.5935	0.165	171187	keystroke_o	o	n/a
85.6975	0.121	171395	keystroke_k	k	n/a
86.3425	0.105	172685	keystroke_Key.enter	Key.enter	n/a
86.4595	7.4005	172919	prompt	n/a	performing decide fraser motion\n
87.3185	0.104	174637	keystroke_p	p	n/a
87.4535	0.089	174907	keystroke_e	e	n/a
87.4985	0.09	174997	keystroke_r	r	n/a
87.7235	0.09	175447	keystroke_f	f	n/a
87.7975	0.091	175595	keystroke_o	o	n/a
87.9335	0.089	175867	keystroke_r	r	n/a
88.0385	0.15	176077	keystroke_m	m	n/a
88.2325	0.165	176465	keystroke_i	i	n/a
88.3385	0.225	176677	keystroke_n	n	n/a
88.4275	0.091	176855	keystroke_g	g	n/a
88.5335	0.135	177067	keystroke_Key.space	Key.space	n/a
88.9085	0.075	177817	keystroke_d	d	n/a
89.1335	0.045	178267	keystroke_e	e	n/a
89.3275	0.091	178655	keystroke_c	c	n/a
89.5675	0.076	179135	keystroke_i	i	n/a
89.6585	0.06	179317	keystroke_d	d	n/a
89.8525	0.076	179705	keystroke_e	e	n/a
90.0635	0.134	180127	keystroke_Key.space	Key.space	n/a
90.3335	0.09	180667	keystroke_f	f	n/a
90.9935	0.12	181987	keystroke_r	r	n/a
91.5035	0.12	183007	keystroke_a	a	n/a
91.6685	0.12	183337	keystroke_s	s	n/a
91.9385	0.15	183877	keystroke_e	e	n/a
92.0585	0.09	184117	keystroke_r	r	n/a
92.2375	0.135	184475	keystroke_Key.space	Key.space	n/a
92.5535	0.165	185107	keystroke_m	m	n/a
92.7635	0.075	185527	keystroke_o	o	n/a
92.9885	0.075	185977	keystroke_t	t	n/a
93.0785	0.18	186157	keystroke_i	i	n/a
93.1985	0.21	186397	keystroke_o	o	n/a
93.3635	0.135	186727	keystroke_n	n	n/a
93.7525	0.105	187505	keystroke_Key.enter	Key.enter	n/a
93.865	5.0655	187730	prompt	n/a	plain herein edit when\n
94.7285	0.09	189457	keystroke_p	p	n/a
94.9235	0.12	189847	keystroke_l	l	n/a
95.1335	0.105	190267	keystroke_a	a	n/a
95.2385	0.15	190477	keystroke_i	i	n/a
95.3435	0.195	190687	keystroke_n	n	n/a
95.4925	0.121	190985	keystroke_Key.space	Key.space	n/a
95.7035	0.15	191407	keystroke_h	h	n/a
95.8685	0.12	191737	keystroke_e	e	n/a
95.9735	0.165	191947	keystroke_r	r	n/a
96.4385	0.075	192877	keystroke_e	e	n/a
96.7085	0.105	193417	keystroke_i	i	n/a
96.9635	0.12	193927	keystroke_n	n	n/a
97.3685	0.15	194737	keystroke_Key.space	Key.space	n/a
97.5635	0.075	195127	keystroke_e	e	n/a
97.7585	0.09	195517	keystroke_d	d	n/a
97.8635	0.06	195727	keystroke_i	i	n/a
97.9685	0.09	195937	keystroke_t	t	n/a
98.0585	0.089	196117	keystroke_Key.space	Key.space	n/a
98.1635	0.075	196327	keystroke_w	w	n/a
98.2535	0.09	196507	keystroke_h	h	n/a
98.3585	0.075	196717	keystroke_e	e	n/a
98.4635	0.105	196927	keystroke_n	n	n/a
98.8235	0.104	197647	keystroke_Key.enter	Key.enter	n/a
98.9355	5.3345	197871	prompt	n/a	movement live taxation inbox\n
99.5885	0.135	199177	keystroke_m	m	n/a
99.8135	0.105	199627	keystroke_o	o	n/a
100.0085	0.105	200017	keystroke_v	v	n/a
100.2185	0.09	200437	keystroke_e	e	n/a
100.4135	0.105	200827	keystroke_m	m	n/a
100.4585	0.105	200917	keystroke_e	e	n/a
100.6385	0.135	201277	keystroke_n	n	n/a
100.7585	0.09	201517	keystroke_t	t	n/a
100.8935	0.135	201787	keystroke_Key.space	Key.space	n/a
101.1635	0.12	202327	keystroke_l	l	n/a
101.4035	0.105	202807	keystroke_i	i	n/a
101.5535	0.105	203107	keystroke_v	v	n/a
101.6135	0.12	203227	keystroke_e	e	n/a
101.7485	0.135	203497	keystroke_Key.space	Key.space	n/a
101.8985	0.105	203797	keystroke_t	t	n/a
102.0935	0.15	204187	keystroke_a	a	n/a
102.3785	0.105	204757	keystroke_x	x	n/a
102.6335	0.12	205267	keystroke_a	a	n/a
102.7085	0.105	205417	keystroke_t	t	n/a
102.8435	0.135	205687	keystroke_i	i	n/a
102.9635	0.165	205927	keystroke_o	o	n/a
103.0685	0.18	206137	keystroke_n	n	n/a
103.1885	0.12	206377	keystroke_Key.space	Key.space	n/a
103.3385	0.15	206677	keystroke_i	i	n/a
103.4585	0.12	206917	keystroke_n	n	n/a
103.5935	0.09	207187	keystroke_b	b	n/a
103.7285	0.12	207457	keystroke_o	o	n/a
103.8635	0.105	207727	keystroke_x	x	n/a
104.1785	0.09	208357	keystroke_Key.enter	Key.enter	n/a
104.2765	7.4635	208553	prompt	n/a	agrees employer likewise cocktail\n
105.0785	0.12	210157	keystroke_a	a	n/a
105.2735	0.075	210547	keystroke_g	g	n/a
105.4685	0.075	210937	keystroke_r	r	n/a
105.6485	0.06	211297	keystroke_e	e	n/a
105.7985	0.075	211597	keystroke_e	e	n/a
105.9785	0.105	211957	keystroke_s	s	n/a
106.0985	0.105	212197	keystroke_Key.space	Key.space	n/a
106.2335	0.09	212467	keystroke_e	e	n/a
106.3535	0.195	212707	keystroke_m	m	n/a
106.4885	0.135	212977	keystroke_p	p	n/a
106.5635	0.105	213127	keystroke_l	l	n/a
106.8185	0.105	213637	keystroke_o	o	n/a
107.0735	0.105	214147	keystroke_y	y	n/a
107.1785	0.15	214357	keystroke_e	e	n/a
107.2535	0.12	214507	keystroke_r	r	n/a
107.6285	0.12	215257	keystroke_Key.space	Key.space	n/a
108.1385	0.135	216277	keystroke_l	l	n/a
108.3335	0.09	216667	keystroke_i	i	n/a
108.5585	0.105	217117	keystroke_k	k	n/a
108.6785	0.105	217357	keystroke_e	e	n/a
109.0685	0.09	218137	keystroke_w	w	n/a
109.2035	0.12	218407	keystroke_i	i	n/a
109.3395	0.104	218679	keystroke_s	s	n/a
109.5785	0.075	219157	keystroke_e	e	n/a
109.9385	0.135	219877	keystroke_Key.space	Key.space	n/a
110.1035	0.09	220207	keystroke_c	c	n/a
110.1935	0.09	220387	keystroke_o	o	n/a
110.3145	0.104	220629	keystroke_c	c	n/a
110.4635	0.06	220927	keystroke_k	k	n/a
110.6135	0.12	221227	keystroke_t	t	n/a
110.7185	0.12	221437	keystroke_a	a	n/a
110.8085	0.21	221617	keystroke_i	i	n/a
110.9285	0.12	221857	keystroke_l	l	n/a
111.6185	0.12	223237	keystroke_Key.enter	Key.enter	n/a
111.745	9.52	223490	prompt	n/a	netherlands charlotte continuous opinion\n
112.6535	0.135	225307	keystroke_n	n	n/a
112.7585	0.06	225517	keystroke_e	e	n/a
112.8935	0.09	225787	keystroke_t	t	n/a
112.9985	0.105	225997	keystroke_h	h	n/a
113.0585	0.135	226117	keystroke_e	e	n/a
113.5235	0.09	227047	keystroke_r	r	n/a
113.8835	0.105	227767	keystroke_l	l	n/a
113.9735	0.105	227947	keystroke_a	a	n/a
114.1235	0.12	228247	keystroke_n	n	n/a
114.1835	0.15	228367	keystroke_d	d	n/a
114.2735	0.105	228547	keystroke_s	s	n/a
114.6635	0.135	229327	keystroke_Key.space	Key.space	n/a
115.0685	0.105	230137	keystroke_c	c	n/a
115.1885	0.09	230377	keystroke_h	h	n/a
115.3235	0.18	230647	keystroke_a	a	n/a
115.4435	0.12	230887	keystroke_r	r	n/a
115.5935	0.09	231187	keystroke_l	l	n/a
115.8035	0.105	231607	keystroke_o	o	n/a
115.8935	0.045	231787	keystroke_t	t	n/a
116.0435	0.09	232087	keystroke_t	t	n/a
116.3435	0.09	232687	keystroke_e	e	n/a
116.5385	0.15	233077	keystroke_Key.space	Key.space	n/a
117.2735	0.09	234547	keystroke_c	c	n/a
117.378	0.1355	234756	keystroke_o	o	n/a
117.4535	0.1645	234907	keystroke_n	n	n/a
117.633	0.0905	235266	keystroke_t	t	n/a
117.7535	0.135	235507	keystroke_i	i	n/a
117.8585	0.12	235717	keystroke_n	n	n/a
118.128	0.1055	236256	keystroke_u	u	n/a
118.3685	0.15	236737	keystroke_o	o	n/a
118.458	0.135	236916	keystroke_u	u	n/a
118.533	0.12	237066	keystroke_s	s	n/a
118.8335	0.135	237667	keystroke_Key.space	Key.space	n/a
119.388	0.09	238776	keystroke_o	o	n/a
119.643	0.105	239286	keystroke_p	p	n/a
119.8235	0.0745	239647	keystroke_i	i	n/a
120.048	0.09	240096	keystroke_n	n	n/a
120.258	0.135	240516	keystroke_i	i	n/a
120.363	0.195	240726	keystroke_o	o	n/a
120.498	0.15	240996	keystroke_n	n	n/a
121.128	0.135	242256	keystroke_Key.enter	Key.enter	n/a
121.27	6.731	242540	prompt	n/a	elected hair rider downloaded\n
122.028	0.09	244056	keystroke_e	e	n/a
122.178	0.105	244356	keystroke_l	l	n/a
122.223	0.105	244446	keystroke_e	e	n/a
122.478	0.09	244956	keystroke_c	c	n/a
122.658	0.135	245316	keystroke_t	t	n/a
122.748	0.105	245496	keystroke_e	e	n/a
122.958	0.09	245916	keystroke_d	d	n/a
123.033	0.09	246066	keystroke_Key.space	Key.space	n/a
123.273	0.0905	246546	keystroke_a	a	n/a
123.7835	0.075	247567	keystroke_Key.backspace	Key.backspace	n/a
124.0235	0.09	248047	keystroke_h	h	n/a
124.0985	0.105	248197	keystroke_a	a	n/a
124.2485	0.075	248497	keystroke_i	i	n/a
124.3985	0.075	248797	keystroke_r	r	n/a
124.5185	0.135	249037	keystroke_Key.space	Key.space	n/a
125.1185	0.09	250237	keystroke_r	r	n/a
125.2535	0.105	250507	keystroke_i	i	n/a
125.3135	0.09	250627	keystroke_d	d	n/a
125.5235	0.12	251047	keystroke_e	e	n/a
125.5835	0.135	251167	keystroke_r	r	n/a
125.7035	0.12	251407	keystroke_Key.space	Key.space	n/a
125.8985	0.105	251797	keystroke_d	d	n/a
126.0485	0.075	252097	keystroke_o	o	n/a
126.1685	0.09	252337	keystroke_w	w	n/a
126.3035	0.135	252607	keystroke_n	n	n/a
126.4685	0.091	252937	keystroke_l	l	n/a
126.6935	0.075	253387	keystroke_o	o	n/a
126.7835	0.075	253567	keystroke_a	a	n/a
126.9335	0.075	253867	keystroke_d	d	n/a
127.1135	0.075	254227	keystroke_e	e	n/a
127.2935	0.075	254587	keystroke_d	d	n/a
127.8785	0.12	255757	keystroke_Key.enter	Key.enter	n/a
128.0145	8.0865	256029	prompt	n/a	sporting bolivia celebs zoloft\n
128.8985	0.09	257797	keystroke_s	s	n/a
128.9895	0.074	257979	keystroke_p	p	n/a
129.1835	0.105	258367	keystroke_o	o	n/a
129.2735	0.075	258547	keystroke_r	r	n/a
129.4835	0.06	258967	keystroke_t	t	n/a
129.5435	0.165	259087	keystroke_i	i	n/a
129.6335	0.21	259267	keystroke_n	n	n/a
129.7535	0.105	259507	keystroke_g	g	n/a
129.8285	0.135	259657	keystroke_Key.space	Key.space	n/a
130.3235	0.075	260647	keystroke_b	b	n/a
130.5785	0.06	261157	keystroke_o	o	n/a
131.4185	0.105	262837	keystroke_l	l	n/a
131.6585	0.09	263317	keystroke_i	i	n/a
131.823	0.09	263646	keystroke_v	v	n/a
132.0185	0.1045	264037	keystroke_i	i	n/a
132.1985	0.0895	264397	keystroke_a	a	n/a
132.453	0.135	264906	keystroke_Key.space	Key.space	n/a
132.678	0.09	265356	keystroke_c	c	n/a
132.918	0.09	265836	keystroke_e	e	n/a
133.053	0.12	266106	keystroke_l	l	n/a
133.203	0.09	266406	keystroke_e	e	n/a
133.518	0.075	267036	keystroke_b	b	n/a
133.848	0.075	267696	keystroke_s	s	n/a
133.953	0.135	267906	keystroke_Key.space	Key.space	n/a
134.268	0.12	268536	keystroke_z	z	n/a
134.433	0.09	268866	keystroke_o	o	n/a
134.613	0.09	269226	keystroke_l	l	n/a
134.838	0.09	269676	keystroke_o	o	n/a
135.003	0.09	270006	keystroke_f	f	n/a
135.303	0.075	270606	keystroke_t	t	n/a
135.993	0.105	271986	keystroke_Key.enter	Key.enter	n/a
136.1195	8.38	272239	prompt	n/a	tasks metropolitan xbox dozens\n
136.878	0.075	273756	keystroke_t	t	n/a
137.058	0.12	274116	keystroke_a	a	n/a
137.148	0.135	274296	keystroke_s	s	n/a
137.328	0.105	274656	keystroke_k	k	n/a
137.418	0.09	274836	keystroke_s	s	n/a
137.523	0.135	275046	keystroke_Key.space	Key.space	n/a
137.808	0.135	275616	keystroke_m	m	n/a
137.958	0.09	275916	keystroke_e	e	n/a
138.139	0.059	276278	keystroke_t	t	n/a
138.318	0.105	276636	keystroke_r	r	n/a
138.408	0.1045	276816	keystroke_o	o	n/a
138.7825	0.105	277565	keystroke_p	p	n/a
138.9925	0.09	277985	keystroke_o	o	n/a
139.3225	0.135	278645	keystroke_l	l	n/a
139.5775	0.09	279155	keystroke_i	i	n/a
139.7275	0.075	279455	keystroke_t	t	n/a
139.9225	0.105	279845	keystroke_a	a	n/a
140.0575	0.105	280115	keystroke_n	n	n/a
140.2975	0.12	280595	keystroke_Key.space	Key.space	n/a
140.6875	0.12	281375	keystroke_x	x	n/a
141.1225	0.075	282245	keystroke_o	o	n/a
141.4975	0.075	282995	keystroke_Key.backspace	Key.backspace	n/a
142.2475	0.105	284495	keystroke_b	b	n/a
142.4425	0.09	284885	keystroke_o	o	n/a
142.5625	0.105	285125	keystroke_x	x	n/a
142.8025	0.12	285605	keystroke_Key.space	Key.space	n/a
142.9975	0.075	285995	keystroke_d	d	n/a
143.1025	0.105	286205	keystroke_o	o	n/a
143.2825	0.12	286565	keystroke_z	z	n/a
143.5675	0.075	287135	keystroke_e	e	n/a
143.7475	0.136	287495	keystroke_n	n	n/a
143.8675	0.09	287735	keystroke_s	s	n/a
144.3775	0.12	288755	keystroke_Key.enter	Key.enter	n/a
144.505	7.465	289010	prompt	n/a	wheat design density joseph\n
145.3375	0.075	290675	keystroke_s	s	n/a
145.5775	0.09	291155	keystroke_w	w	n/a
145.9825	0.075	291965	keystroke_Key.backspace	Key.backspace	n/a
146.1325	0.09	292265	keystroke_Key.backspace	Key.backspace	n/a
146.2825	0.105	292565	keystroke_w	w	n/a
146.4475	0.075	292895	keystroke_h	h	n/a
146.5825	0.105	293165	keystroke_e	e	n/a
146.8525	0.09	293705	keystroke_a	a	n/a
147.0475	0.09	294095	keystroke_t	t	n/a
147.1525	0.15	294305	keystroke_Key.space	Key.space	n/a
147.3775	0.06	294755	keystroke_d	d	n/a
147.5725	0.075	295145	keystroke_e	e	n/a
147.6625	0.12	295325	keystroke_s	s	n/a
147.9025	0.075	295805	keystroke_i	i	n/a
148.0075	0.105	296015	keystroke_g	g	n/a
148.1875	0.18	296375	keystroke_n	n	n/a
148.2925	0.15	296585	keystroke_Key.space	Key.space	n/a
149.2375	0.075	298475	keystroke_d	d	n/a
149.4325	0.09	298865	keystroke_e	e	n/a
149.5375	0.105	299075	keystroke_n	n	n/a
149.6725	0.09	299345	keystroke_s	s	n/a
149.7925	0.09	299585	keystroke_i	i	n/a
149.9575	0.075	299915	keystroke_t	t	n/a
150.0925	0.15	300185	keystroke_y	y	n/a
150.2125	0.105	300425	keystroke_Key.space	Key.space	n/a
150.4525	0.12	300905	keystroke_j	j	n/a
150.7825	0.06	301565	keystroke_o	o	n/a
150.9775	0.06	301955	keystroke_s	s	n/a
151.1725	0.06	302345	keystroke_e	e	n/a
151.3375	0.075	302675	keystroke_p	p	n/a
151.5775	0.105	303155	keystroke_h	h	n/a
151.8625	0.105	303725	keystroke_Key.enter	Key.enter	n/a
151.9755	4.869	303951	prompt	n/a	read carmen styles micro\n
152.8225	0.105	305645	keystroke_r	r	n/a
152.9425	0.135	305885	keystroke_e	e	n/a
153.0785	0.119	306157	keystroke_a	a	n/a
153.2725	0.105	306545	keystroke_d	d	n/a
153.3625	0.135	306725	keystroke_Key.space	Key.space	n/a
153.5275	0.105	307055	keystroke_c	c	n/a
153.7525	0.15	307505	keystroke_a	a	n/a
153.8575	0.105	307715	keystroke_r	r	n/a
154.0675	0.135	308135	keystroke_m	m	n/a
154.1875	0.09	308375	keystroke_e	e	n/a
154.4425	0.18	308885	keystroke_n	n	n/a
154.5625	0.165	309125	keystroke_Key.space	Key.space	n/a
155.0425	0.075	310085	keystroke_s	s	n/a
155.2225	0.105	310445	keystroke_t	t	n/a
155.3125	0.135	310625	keystroke_y	y	n/a
155.4335	0.134	310867	keystroke_l	l	n/a
155.5375	0.12	311075	keystroke_e	e	n/a
155.5835	0.104	311167	keystroke_s	s	n/a
155.7025	0.12	311405	keystroke_Key.space	Key.space	n/a
155.8825	0.135	311765	keystroke_m	m	n/a
155.9725	0.12	311945	keystroke_i	i	n/a
156.0775	0.075	312155	keystroke_c	c	n/a
156.2725	0.09	312545	keystroke_r	r	n/a
156.3775	0.106	312755	keystroke_o	o	n/a
156.7225	0.12	313445	keystroke_Key.enter	Key.enter	n/a
156.8525	8.557	313705	prompt	n/a	inspection aggregate paths humidity\n
157.728	0.164	315456	keystroke_i	i	n/a
158.117	0.15	316234	keystroke_n	n	n/a
158.417	0.105	316834	keystroke_s	s	n/a
158.567	0.105	317134	keystroke_p	p	n/a
158.658	0.089	317316	keystroke_e	e	n/a
158.883	0.089	317766	keystroke_c	c	n/a
159.092	0.075	318184	keystroke_t	t	n/a
159.183	0.134	318366	keystroke_i	i	n/a
159.288	0.164	318576	keystroke_o	o	n/a
159.377	0.195	318754	keystroke_n	n	n/a
159.527	0.12	319054	keystroke_Key.space	Key.space	n/a
159.692	0.075	319384	keystroke_a	a	n/a
159.947	0.06	319894	keystroke_g	g	n/a
160.097	0.075	320194	keystroke_g	g	n/a
160.338	0.089	320676	keystroke_r	r	n/a
160.562	0.09	321124	keystroke_e	e	n/a
160.802	0.09	321604	keystroke_g	g	n/a
160.997	0.136	321994	keystroke_a	a	n/a
161.087	0.135	322174	keystroke_t	t	n/a
161.178	0.119	322356	keystroke_e	e	n/a
161.312	0.15	322624	keystroke_Key.space	Key.space	n/a
161.508	0.12	323016	keystroke_p	p	n/a
161.702	0.106	323404	keystroke_t	t	n/a
162.257	0.105	324514	keystroke_Key.backspace	Key.backspace	n/a
162.378	0.119	324756	keystroke_a	a	n/a
162.483	0.104	324966	keystroke_t	t	n/a
162.633	0.089	325266	keystroke_h	h	n/a
162.827	0.09	325654	keystroke_s	s	n/a
162.977	0.12	325954	keystroke_Key.space	Key.space	n/a
163.292	0.121	326584	keystroke_h	h	n/a
163.592	0.105	327184	keystroke_u	u	n/a
163.983	0.225	327966	keystroke_m	m	n/a
164.192	0.075	328384	keystroke_i	i	n/a
164.313	0.12	328626	keystroke_d	d	n/a
164.462	0.105	328924	keystroke_i	i	n/a
164.718	0.074	329436	keystroke_t	t	n/a
164.822	0.136	329644	keystroke_y	y	n/a
165.302	0.105	330604	keystroke_Key.enter	Key.enter	n/a
165.4145	5.7405	330829	prompt	n/a	cure frozen korea aging\n
166.187	0.121	332374	keystroke_c	c	n/a
166.608	0.134	333216	keystroke_u	u	n/a
166.803	0.089	333606	keystroke_r	r	n/a
167.028	0.075	334056	keystroke_e	e	n/a
167.162	0.165	334324	keystroke_Key.space	Key.space	n/a
167.388	0.059	334776	keystroke_f	f	n/a
167.583	0.06	335166	keystroke_r	r	n/a
167.658	0.119	335316	keystroke_o	o	n/a
167.808	0.12	335616	keystroke_z	z	n/a
168.078	0.045	336156	keystroke_e	e	n/a
168.138	0.149	336276	keystroke_n	n	n/a
168.272	0.12	336544	keystroke_Key.space	Key.space	n/a
168.588	0.09	337176	keystroke_k	k	n/a
168.812	0.091	337624	keystroke_o	o	n/a
169.022	0.12	338044	keystroke_r	r	n/a
169.203	0.12	338406	keystroke_e	e	n/a
169.503	0.075	339006	keystroke_a	a	n/a
169.697	0.135	339394	keystroke_Key.space	Key.space	n/a
170.072	0.061	340144	keystroke_a	a	n/a
170.253	0.074	340506	keystroke_g	g	n/a
170.403	0.164	340806	keystroke_i	i	n/a
170.492	0.211	340984	keystroke_n	n	n/a
170.672	0.075	341344	keystroke_g	g	n/a
171.017	0.136	342034	keystroke_Key.enter	Key.enter	n/a
171.1605	11.124	342321	prompt	n/a	jewelry responsible compression broadway\n
171.962	0.151	343924	keystroke_j	j	n/a
172.187	0.105	344374	keystroke_e	e	n/a
172.517	0.06	345034	keystroke_w	w	n/a
172.968	0.09	345936	keystroke_l	l	n/a
173.327	0.09	346654	keystroke_Key.backspace	Key.backspace	n/a
173.418	0.104	346836	keystroke_e	e	n/a
173.613	0.105	347226	keystroke_l	l	n/a
173.823	0.074	347646	keystroke_r	r	n/a
174.078	0.15	348156	keystroke_y	y	n/a
174.182	0.135	348364	keystroke_Key.space	Key.space	n/a
174.678	0.165	349356	keystroke_r	r	n/a
174.843	0.165	349686	keystroke_e	e	n/a
175.143	0.105	350286	keystroke_s	s	n/a
175.263	0.12	350526	keystroke_p	p	n/a
175.488	0.195	350976	keystroke_o	o	n/a
175.623	0.135	351246	keystroke_n	n	n/a
175.742	0.106	351484	keystroke_s	s	n/a
175.878	0.105	351756	keystroke_i	i	n/a
176.013	0.075	352026	keystroke_b	b	n/a
176.148	0.105	352296	keystroke_l	l	n/a
176.283	0.075	352566	keystroke_e	e	n/a
176.417	0.151	352834	keystroke_Key.space	Key.space	n/a
177.168	0.105	354336	keystroke_c	c	n/a
177.288	0.12	354576	keystroke_o	o	n/a
177.378	0.165	354756	keystroke_m	m	n/a
177.513	0.09	355026	keystroke_p	p	n/a
177.618	0.12	355236	keystroke_r	r	n/a
177.723	0.089	355446	keystroke_e	e	n/a
177.933	0.075	355866	keystroke_s	s	n/a
178.098	0.105	356196	keystroke_s	s	n/a
178.188	0.135	356376	keystroke_i	i	n/a
178.308	0.18	356616	keystroke_o	o	n/a
178.428	0.195	356856	keystroke_n	n	n/a
178.562	0.151	357124	keystroke_Key.space	Key.space	n/a
179.313	0.09	358626	keystroke_b	b	n/a
179.568	0.105	359136	keystroke_r	r	n/a
179.703	0.09	359406	keystroke_o	o	n/a
179.838	0.09	359676	keystroke_a	a	n/a
180.003	0.09	360006	keystroke_d	d	n/a
180.288	0.09	360576	keystroke_w	w	n/a
180.513	0.105	361026	keystroke_a	a	n/a
180.633	0.135	361266	keystroke_y	y	n/a
182.147	0.136	364294	keystroke_Key.enter	Key.enter	n/a
182.29	7	364580	prompt	n/a	calvin hero beings acceptable\n
183.288	0.06	366576	keystroke_c	c	n/a
183.483	0.09	366966	keystroke_a	a	n/a
183.558	0.12	367116	keystroke_l	l	n/a
183.738	0.09	367476	keystroke_v	v	n/a
183.843	0.135	367686	keystroke_i	i	n/a
183.933	0.21	367866	keystroke_n	n	n/a
184.067	0.12	368134	keystroke_Key.space	Key.space	n/a
184.248	0.165	368496	keystroke_h	h	n/a
184.383	0.135	368766	keystroke_e	e	n/a
184.503	0.09	369006	keystroke_r	r	n/a
184.668	0.135	369336	keystroke_o	o	n/a
184.787	0.121	369574	keystroke_Key.space	Key.space	n/a
185.463	0.105	370926	keystroke_b	b	n/a
185.688	0.105	371376	keystroke_e	e	n/a
185.823	0.165	371646	keystroke_i	i	n/a
185.898	0.18	371796	keystroke_n	n	n/a
186.033	0.135	372066	keystroke_g	g	n/a
186.138	0.12	372276	keystroke_s	s	n/a
186.273	0.119	372546	keystroke_Key.space	Key.space	n/a
186.438	0.105	372876	keystroke_a	a	n/a
186.663	0.09	373326	keystroke_c	c	n/a
186.843	0.075	373686	keystroke_c	c	n/a
187.158	0.105	374316	keystroke_e	e	n/a
187.443	0.12	374886	keystroke_p	p	n/a
187.593	0.105	375186	keystroke_t	t	n/a
187.803	0.105	375606	keystroke_a	a	n/a
188.043	0.105	376086	keystroke_b	b	n/a
188.133	0.105	376266	keystroke_l	l	n/a
188.328	0.09	376656	keystroke_e	e	n/a
189.168	0.12	378336	keystroke_Key.enter	Key.enter	n/a
189.298	9.6365	378596	prompt	n/a	editorials simulations sentences flashing\n
190.173	0.075	380346	keystroke_e	e	n/a
190.368	0.105	380736	keystroke_d	d	n/a
190.458	0.09	380916	keystroke_i	i	n/a
190.608	0.075	381216	keystroke_t	t	n/a
190.698	0.075	381396	keystroke_o	o	n/a
190.803	0.09	381606	keystroke_r	r	n/a
190.908	0.075	381816	keystroke_i	i	n/a
190.998	0.12	381996	keystroke_a	a	n/a
191.148	0.105	382296	keystroke_l	l	n/a
191.328	0.09	382656	keystroke_s	s	n/a
191.433	0.135	382866	keystroke_Key.space	Key.space	n/a
191.9425	0.075	383885	keystroke_s	s	n/a
192.1075	0.075	384215	keystroke_i	i	n/a
192.4225	0.075	384845	keystroke_m	m	n/a
192.7825	0.165	385565	keystroke_l	l	n/a
193.3375	0.06	386675	keystroke_Key.backspace	Key.backspace	n/a
193.7875	0.105	387575	keystroke_u	u	n/a
193.9825	0.12	387965	keystroke_l	l	n/a
194.1625	0.135	388325	keystroke_a	a	n/a
194.2525	0.12	388505	keystroke_t	t	n/a
194.3575	0.15	388715	keystroke_i	i	n/a
194.4625	0.21	388925	keystroke_o	o	n/a
194.6125	0.135	389225	keystroke_n	n	n/a
194.7625	0.105	389525	keystroke_s	s	n/a
195.7075	0.18	391415	keystroke_Key.space	Key.space	n/a
195.9025	0.09	391805	keystroke_s	s	n/a
196.1275	0.075	392255	keystroke_e	e	n/a
196.2625	0.135	392525	keystroke_n	n	n/a
196.3825	0.09	392765	keystroke_t	t	n/a
196.5175	0.075	393035	keystroke_e	e	n/a
196.6225	0.12	393245	keystroke_n	n	n/a
196.7275	0.105	393455	keystroke_c	c	n/a
196.9675	0.15	393935	keystroke_e	e	n/a
197.0575	0.12	394115	keystroke_s	s	n/a
197.1925	0.12	394385	keystroke_Key.space	Key.space	n/a
197.5075	0.105	395015	keystroke_f	f	n/a
197.6275	0.075	395255	keystroke_l	l	n/a
197.7325	0.12	395465	keystroke_a	a	n/a
197.8225	0.135	395645	keystroke_s	s	n/a
197.9725	0.135	395945	keystroke_h	h	n/a
198.0925	0.21	396185	keystroke_i	i	n/a
198.2425	0.165	396485	keystroke_n	n	n/a
198.3925	0.06	396785	keystroke_g	g	n/a
198.7975	0.135	397595	keystroke_Key.enter	Key.enter	n/a
198.939	9.5215	397878	prompt	n/a	individuals routine trying hazardous\n
201.2455	0.027	402491	keystroke_i	i	n/a
201.4075	0.12	402815	keystroke_n	n	n/a
201.6775	0.045	403355	keystroke_d	d	n/a
201.7825	0.045	403565	keystroke_i	i	n/a
202.0825	0.135	404165	keystroke_v	v	n/a
202.2025	0.105	404405	keystroke_i	i	n/a
202.3675	0.105	404735	keystroke_d	d	n/a
202.4575	0.105	404915	keystroke_u	u	n/a
202.5925	0.09	405185	keystroke_a	a	n/a
202.7125	0.105	405425	keystroke_l	l	n/a
202.8475	0.09	405695	keystroke_s	s	n/a
203.0125	0.135	406025	keystroke_Key.space	Key.space	n/a
203.4175	0.09	406835	keystroke_r	r	n/a
203.5525	0.135	407105	keystroke_o	o	n/a
203.6575	0.105	407315	keystroke_u	u	n/a
203.8075	0.09	407615	keystroke_t	t	n/a
203.9125	0.15	407825	keystroke_i	i	n/a
203.9875	0.21	407975	keystroke_n	n	n/a
204.0925	0.09	408185	keystroke_e	e	n/a
204.2575	0.15	408515	keystroke_Key.space	Key.space	n/a
204.6175	0.075	409235	keystroke_t	t	n/a
204.7975	0.105	409595	keystroke_r	r	n/a
204.8875	0.135	409775	keystroke_y	y	n/a
205.0375	0.225	410075	keystroke_i	i	n/a
205.1725	0.165	410345	keystroke_n	n	n/a
205.2325	0.09	410465	keystroke_g	g	n/a
205.2925	0.12	410585	keystroke_Key.space	Key.space	n/a
205.4575	0.15	410915	keystroke_h	h	n/a
205.6525	0.09	411305	keystroke_a	a	n/a
205.9225	0.075	411845	keystroke_z	z	n/a
206.1775	0.09	412355	keystroke_a	a	n/a
206.4925	0.075	412985	keystroke_r	r	n/a
206.6725	0.09	413345	keystroke_d	d	n/a
206.8375	0.165	413675	keystroke_o	o	n/a
206.9425	0.135	413885	keystroke_u	u	n/a
207.0625	0.09	414125	keystroke_s	s	n/a
208.3225	0.135	416645	keystroke_Key.enter	Key.enter	n/a
208.468	8.1815	416936	prompt	n/a	pending edge bibliographic dressing\n
209.4025	0.075	418805	keystroke_p	p	n/a
209.4925	0.075	418985	keystroke_e	e	n/a
209.5975	0.135	419195	keystroke_n	n	n/a
209.7175	0.09	419435	keystroke_d	d	n/a
209.8375	0.135	419675	keystroke_i	i	n/a
209.9125	0.255	419825	keystroke_n	n	n/a
210.0475	0.135	420095	keystroke_g	g	n/a
210.1225	0.15	420245	keystroke_Key.space	Key.space	n/a
210.3625	0.045	420725	keystroke_e	e	n/a
210.5425	0.075	421085	keystroke_d	d	n/a
210.6775	0.15	421355	keystroke_g	g	n/a
210.7825	0.105	421565	keystroke_e	e	n/a
210.9165	0.151	421833	keystroke_Key.space	Key.space	n/a
211.2175	0.105	422435	keystroke_b	b	n/a
211.3675	0.06	422735	keystroke_i	i	n/a
211.9225	0.075	423845	keystroke_b	b	n/a
212.0875	0.12	424175	keystroke_l	l	n/a
212.3275	0.105	424655	keystroke_i	i	n/a
212.5975	0.09	425195	keystroke_o	o	n/a
212.9725	0.06	425945	keystroke_g	g	n/a
213.1675	0.15	426335	keystroke_r	r	n/a
213.2875	0.12	426575	keystroke_a	a	n/a
213.3625	0.12	426725	keystroke_p	p	n/a
213.5275	0.15	427055	keystroke_h	h	n/a
213.6475	0.105	427295	keystroke_i	i	n/a
213.7675	0.09	427535	keystroke_c	c	n/a
214.2475	0.15	428495	keystroke_Key.space	Key.space	n/a
214.3975	0.105	428795	keystroke_d	d	n/a
214.5775	0.15	429155	keystroke_r	r	n/a
214.7425	0.12	429485	keystroke_e	e	n/a
215.0425	0.06	430085	keystroke_s	s	n/a
215.1925	0.105	430385	keystroke_s	s	n/a
215.3275	0.21	430655	keystroke_i	i	n/a
215.4625	0.18	430925	keystroke_n	n	n/a
215.6125	0.075	431225	keystroke_g	g	n/a
216.5125	0.135	433025	keystroke_Key.enter	Key.enter	n/a
216.655	8.065	433310	prompt	n/a	designers technique newspaper brave\n
217.3825	0.075	434765	keystroke_d	d	n/a
217.5775	0.06	435155	keystroke_e	e	n/a
217.7275	0.09	435455	keystroke_s	s	n/a
217.8475	0.075	435695	keystroke_i	i	n/a
217.9375	0.075	435875	keystroke_g	g	n/a
218.0425	0.135	436085	keystroke_n	n	n/a
218.1325	0.21	436265	keystroke_e	e	n/a
218.2075	0.165	436415	keystroke_r	r	n/a
218.2975	0.12	436595	keystroke_s	s	n/a
218.4325	0.165	436865	keystroke_Key.space	Key.space	n/a
218.7175	0.105	437435	keystroke_t	t	n/a
218.8825	0.075	437765	keystroke_e	e	n/a
219.0775	0.105	438155	keystroke_c	c	n/a
219.2125	0.045	438425	keystroke_h	h	n/a
219.6475	0.105	439295	keystroke_n	n	n/a
219.8875	0.105	439775	keystroke_i	i	n/a
220.0825	0.105	440165	keystroke_q	q	n/a
220.2025	0.135	440405	keystroke_u	u	n/a
220.3525	0.09	440705	keystroke_e	e	n/a
220.9675	0.15	441935	keystroke_Key.space	Key.space	n/a
221.2375	0.15	442475	keystroke_n	n	n/a
221.3425	0.15	442685	keystroke_e	e	n/a
221.5375	0.12	443075	keystroke_w	w	n/a
221.8675	0.105	443735	keystroke_s	s	n/a
222.2275	0.12	444455	keystroke_p	p	n/a
222.3775	0.105	444755	keystroke_a	a	n/a
222.4675	0.135	444935	keystroke_p	p	n/a
222.6325	0.165	445265	keystroke_e	e	n/a
222.7525	0.12	445505	keystroke_r	r	n/a
222.8875	0.135	445775	keystroke_Key.space	Key.space	n/a
223.6375	0.06	447275	keystroke_b	b	n/a
223.8625	0.135	447725	keystroke_r	r	n/a
223.9825	0.12	447965	keystroke_a	a	n/a
224.1325	0.15	448265	keystroke_v	v	n/a
224.2375	0.105	448475	keystroke_e	e	n/a
224.5825	0.135	449165	keystroke_Key.enter	Key.enter	n/a
224.729	8.075	449458	prompt	n/a	roller democrat campaign carol\n
225.5425	0.075	451085	keystroke_r	r	n/a
225.6475	0.075	451295	keystroke_o	o	n/a
225.8425	0.0595	451685	keystroke_l	l	n/a
225.992	0.09	451984	keystroke_l	l	n/a
226.097	0.135	452194	keystroke_e	e	n/a
226.187	0.09	452374	keystroke_r	r	n/a
226.292	0.136	452584	keystroke_Key.space	Key.space	n/a
226.412	0.091	452824	keystroke_d	d	n/a
227.012	0.105	454024	keystroke_e	e	n/a
227.358	0.074	454716	keystroke_o	o	n/a
227.897	0.075	455794	keystroke_Key.backspace	Key.backspace	n/a
228.167	0.12	456334	keystroke_m	m	n/a
228.362	0.091	456724	keystroke_o	o	n/a
228.542	0.12	457084	keystroke_c	c	n/a
228.782	0.105	457564	keystroke_r	r	n/a
228.917	0.165	457834	keystroke_a	a	n/a
229.037	0.12	458074	keystroke_t	t	n/a
229.187	0.18	458374	keystroke_Key.space	Key.space	n/a
229.832	0.09	459664	keystroke_c	c	n/a
230.208	0.075	460416	keystroke_a	a	n/a
230.328	0.179	460656	keystroke_m	m	n/a
230.477	0.12	460954	keystroke_p	p	n/a
230.687	0.09	461374	keystroke_a	a	n/a
230.792	0.09	461584	keystroke_i	i	n/a
230.942	0.061	461884	keystroke_g	g	n/a
231.092	0.15	462184	keystroke_n	n	n/a
231.212	0.15	462424	keystroke_Key.space	Key.space	n/a
231.752	0.105	463504	keystroke_c	c	n/a
231.917	0.165	463834	keystroke_a	a	n/a
232.022	0.106	464044	keystroke_r	r	n/a
232.187	0.075	464374	keystroke_o	o	n/a
232.382	0.135	464764	keystroke_l	l	n/a
232.682	0.12	465364	keystroke_Key.enter	Key.enter	n/a
232.81	9.7895	465620	prompt	n/a	involving calendar mechanisms chargers\n
233.733	0.09	467466	keystroke_i	i	n/a
233.882	0.121	467764	keystroke_n	n	n/a
234.017	0.105	468034	keystroke_v	v	n/a
234.407	0.105	468814	keystroke_o	o	n/a
234.662	0.105	469324	keystroke_l	l	n/a
234.782	0.105	469564	keystroke_v	v	n/a
234.932	0.135	469864	keystroke_i	i	n/a
235.023	0.179	470046	keystroke_n	n	n/a
235.127	0.105	470254	keystroke_g	g	n/a
235.277	0.15	470554	keystroke_Key.space	Key.space	n/a
235.548	0.089	471096	keystroke_c	c	n/a
235.773	0.089	471546	keystroke_a	a	n/a
235.923	0.105	471846	keystroke_l	l	n/a
236.042	0.075	472084	keystroke_e	e	n/a
236.207	0.121	472414	keystroke_n	n	n/a
236.297	0.09	472594	keystroke_d	d	n/a
236.507	0.15	473014	keystroke_a	a	n/a
236.582	0.121	473164	keystroke_r	r	n/a
236.747	0.135	473494	keystroke_Key.space	Key.space	n/a
237.273	0.119	474546	keystroke_m	m	n/a
237.482	0.046	474964	keystroke_e	e	n/a
237.678	0.059	475356	keystroke_c	c	n/a
237.767	0.06	475534	keystroke_h	h	n/a
237.857	0.09	475714	keystroke_a	a	n/a
237.962	0.136	475924	keystroke_n	n	n/a
238.473	0.089	476946	keystroke_i	i	n/a
238.638	0.09	477276	keystroke_c	c	n/a
239.072	0.09	478144	keystroke_Key.backspace	Key.backspace	n/a
239.387	0.075	478774	keystroke_s	s	n/a
239.507	0.105	479014	keystroke_m	m	n/a
240.032	0.09	480064	keystroke_s	s	n/a
240.737	0.15	481474	keystroke_Key.space	Key.space	n/a
241.023	0.105	482046	keystroke_c	c	n/a
241.142	0.12	482284	keystroke_h	h	n/a
241.278	0.164	482556	keystroke_a	a	n/a
241.428	0.075	482856	keystroke_r	r	n/a
241.653	0.089	483306	keystroke_g	g	n/a
241.817	0.181	483634	keystroke_e	e	n/a
241.907	0.196	483814	keystroke_r	r	n/a
242.057	0.121	484114	keystroke_s	s	n/a
242.462	0.135	484924	keystroke_Key.enter	Key.enter	n/a
242.6045	6.8655	485209	prompt	n/a	inquiries hacker purchased want\n
243.483	0.074	486966	keystroke_i	i	n/a
243.617	0.136	487234	keystroke_n	n	n/a
243.767	0.106	487534	keystroke_q	q	n/a
243.948	0.135	487896	keystroke_u	u	n/a
244.053	0.12	488106	keystroke_i	i	n/a
244.158	0.09	488316	keystroke_r	r	n/a
244.292	0.12	488584	keystroke_i	i	n/a
244.473	0.089	488946	keystroke_e	e	n/a
244.6825	0.104	489365	keystroke_s	s	n/a
244.8015	0.151	489603	keystroke_Key.space	Key.space	n/a
245.2815	0.151	490563	keystroke_h	h	n/a
245.3865	0.075	490773	keystroke_a	a	n/a
245.5375	0.104	491075	keystroke_c	c	n/a
245.658	0.1035	491316	keystroke_k	k	n/a
245.7775	0.15	491555	keystroke_e	e	n/a
245.8665	0.136	491733	keystroke_r	r	n/a
245.9865	0.12	491973	keystroke_Key.space	Key.space	n/a
246.3025	0.09	492605	keystroke_p	p	n/a
246.5125	0.135	493025	keystroke_u	u	n/a
246.6775	0.09	493355	keystroke_r	r	n/a
246.9025	0.104	493805	keystroke_c	c	n/a
247.0225	0.12	494045	keystroke_h	h	n/a
247.1575	0.12	494315	keystroke_a	a	n/a
247.2025	0.164	494405	keystroke_s	s	n/a
247.3375	0.119	494675	keystroke_e	e	n/a
247.5775	0.105	495155	keystroke_d	d	n/a
247.6665	0.135	495333	keystroke_Key.space	Key.space	n/a
247.8775	0.089	495755	keystroke_w	w	n/a
248.2825	0.09	496565	keystroke_a	a	n/a
248.4775	0.15	496955	keystroke_n	n	n/a
248.6425	0.074	497285	keystroke_t	t	n/a
249.3315	0.135	498663	keystroke_Key.enter	Key.enter	n/a
249.475	10.239	498950	prompt	n/a	quarters certificates competitive synopsis\n
250.3375	0.104	500675	keystroke_q	q	n/a
250.4725	0.15	500945	keystroke_u	u	n/a
250.8025	0.104	501605	keystroke_a	a	n/a
251.0125	0.09	502025	keystroke_r	r	n/a
251.2675	0.075	502535	keystroke_t	t	n/a
251.4475	0.12	502895	keystroke_e	e	n/a
251.5075	0.12	503015	keystroke_r	r	n/a
251.7475	0.075	503495	keystroke_s	s	n/a
251.8965	0.135	503793	keystroke_Key.space	Key.space	n/a
252.3175	0.045	504635	keystroke_c	c	n/a
252.4975	0.12	504995	keystroke_e	e	n/a
252.5865	0.075	505173	keystroke_r	r	n/a
252.7675	0.09	505535	keystroke_t	t	n/a
252.9625	0.06	505925	keystroke_i	i	n/a
253.1565	0.091	506313	keystroke_i	i	n/a
253.5025	0.104	507005	keystroke_Key.backspace	Key.backspace	n/a
253.6675	0.09	507335	keystroke_f	f	n/a
253.8475	0.12	507695	keystroke_i	i	n/a
253.9965	0.076	507993	keystroke_c	c	n/a
254.1615	0.166	508323	keystroke_a	a	n/a
254.2815	0.106	508563	keystroke_t	t	n/a
254.4925	0.12	508985	keystroke_e	e	n/a
254.6275	0.105	509255	keystroke_s	s	n/a
254.7475	0.15	509495	keystroke_Key.space	Key.space	n/a
255.3475	0.12	510695	keystroke_c	c	n/a
255.5275	0.135	511055	keystroke_o	o	n/a
255.6175	0.195	511235	keystroke_m	m	n/a
255.7675	0.12	511535	keystroke_p	p	n/a
255.9025	0.105	511805	keystroke_e	e	n/a
256.1125	0.074	512225	keystroke_t	t	n/a
256.2325	0.09	512465	keystroke_i	i	n/a
256.3375	0.06	512675	keystroke_t	t	n/a
256.4575	0.104	512915	keystroke_i	i	n/a
256.5475	0.135	513095	keystroke_v	v	n/a
256.6375	0.135	513275	keystroke_e	e	n/a
256.8025	0.15	513605	keystroke_Key.space	Key.space	n/a
257.3725	0.105	514745	keystroke_s	s	n/a
257.6125	0.06	515225	keystroke_y	y	n/a
257.8525	0.12	515705	keystroke_n	n	n/a
258.0325	0.105	516065	keystroke_o	o	n/a
258.2575	0.09	516515	keystroke_p	p	n/a
258.4075	0.09	516815	keystroke_s	s	n/a
258.5125	0.105	517025	keystroke_i	i	n/a
258.6325	0.09	517265	keystroke_s	s	n/a
259.5775	0.134	519155	keystroke_Key.enter	Key.enter	n/a
259.7195	7.164	519439	prompt	n/a	replace stress detailed extends\n
260.8975	0.075	521795	keystroke_r	r	n/a
261.0475	0.089	522095	keystroke_e	e	n/a
261.1975	0.105	522395	keystroke_p	p	n/a
261.2575	0.135	522515	keystroke_l	l	n/a
261.6325	0.105	523265	keystroke_a	a	n/a
261.8425	0.09	523685	keystroke_c	c	n/a
262.0825	0.075	524165	keystroke_e	e	n/a
262.1865	0.15	524373	keystroke_Key.space	Key.space	n/a
262.3675	0.15	524735	keystroke_s	s	n/a
262.4875	0.09	524975	keystroke_t	t	n/a
262.6975	0.105	525395	keystroke_r	r	n/a
262.8025	0.105	525605	keystroke_e	e	n/a
263.0125	0.06	526025	keystroke_s	s	n/a
263.1775	0.12	526355	keystroke_s	s	n/a
263.3125	0.12	526625	keystroke_Key.space	Key.space	n/a
263.4475	0.075	526895	keystroke_d	d	n/a
263.6575	0.12	527315	keystroke_e	e	n/a
263.8375	0.105	527675	keystroke_t	t	n/a
263.9725	0.15	527945	keystroke_a	a	n/a
264.1075	0.18	528215	keystroke_i	i	n/a
264.2125	0.15	528425	keystroke_l	l	n/a
264.3475	0.09	528695	keystroke_e	e	n/a
264.5425	0.09	529085	keystroke_d	d	n/a
264.6475	0.12	529295	keystroke_Key.space	Key.space	n/a
265.2175	0.075	530435	keystroke_e	e	n/a
265.4275	0.105	530855	keystroke_x	x	n/a
265.6975	0.06	531395	keystroke_t	t	n/a
265.8325	0.09	531665	keystroke_e	e	n/a
266.0125	0.135	532025	keystroke_n	n	n/a
266.1175	0.15	532235	keystroke_d	d	n/a
266.2375	0.12	532475	keystroke_s	s	n/a
266.7475	0.134	533495	keystroke_Key.enter	Key.enter	n/a
266.8885	6.1015	533777	prompt	n/a	party geology attitudes avoiding\n
267.7975	0.105	535595	keystroke_p	p	n/a
267.9325	0.1345	535865	keystroke_a	a	n/a
267.977	0.105	535954	keystroke_r	r	n/a
268.202	0.075	536404	keystroke_t	t	n/a
268.3075	0.1645	536615	keystroke_y	y	n/a
268.412	0.12	536824	keystroke_Key.space	Key.space	n/a
268.547	0.075	537094	keystroke_g	g	n/a
268.7275	0.0745	537455	keystroke_e	e	n/a
268.937	0.075	537874	keystroke_o	o	n/a
269.132	0.075	538264	keystroke_l	l	n/a
269.327	0.075	538654	keystroke_o	o	n/a
269.402	0.075	538804	keystroke_g	g	n/a
269.582	0.15	539164	keystroke_y	y	n/a
269.672	0.135	539344	keystroke_Key.space	Key.space	n/a
270.332	0.105	540664	keystroke_a	a	n/a
270.497	0.09	540994	keystroke_t	t	n/a
270.662	0.075	541324	keystroke_t	t	n/a
270.752	0.105	541504	keystroke_i	i	n/a
270.872	0.09	541744	keystroke_t	t	n/a
270.977	0.15	541954	keystroke_u	u	n/a
271.097	0.075	542194	keystroke_d	d	n/a
271.232	0.18	542464	keystroke_e	e	n/a
271.307	0.15	542614	keystroke_s	s	n/a
271.442	0.135	542884	keystroke_Key.space	Key.space	n/a
271.592	0.105	543184	keystroke_a	a	n/a
271.817	0.075	543634	keystroke_v	v	n/a
271.907	0.18	543814	keystroke_o	o	n/a
272.042	0.105	544084	keystroke_i	i	n/a
272.162	0.075	544324	keystroke_d	d	n/a
272.252	0.165	544504	keystroke_i	i	n/a
272.357	0.165	544714	keystroke_n	n	n/a
272.462	0.075	544924	keystroke_g	g	n/a
272.867	0.12	545734	keystroke_Key.enter	Key.enter	n/a
272.9955	8.783	545991	prompt	n/a	recommendations locks sitemap packets\n
273.857	0.105	547714	keystroke_r	r	n/a
273.977	0.075	547954	keystroke_e	e	n/a
274.172	0.09	548344	keystroke_c	c	n/a
274.217	0.075	548434	keystroke_o	o	n/a
274.442	0.06	548884	keystroke_m	m	n/a
274.607	0.075	549214	keystroke_m	m	n/a
274.697	0.075	549394	keystroke_e	e	n/a
274.832	0.12	549664	keystroke_n	n	n/a
274.907	0.12	549814	keystroke_d	d	n/a
275.087	0.135	550174	keystroke_a	a	n/a
275.147	0.12	550294	keystroke_t	t	n/a
275.237	0.15	550474	keystroke_i	i	n/a
275.327	0.21	550654	keystroke_o	o	n/a
275.447	0.195	550894	keystroke_n	n	n/a
275.552	0.105	551104	keystroke_s	s	n/a
275.627	0.165	551254	keystroke_Key.space	Key.space	n/a
275.807	0.09	551614	keystroke_l	l	n/a
276.062	0.105	552124	keystroke_o	o	n/a
276.272	0.09	552544	keystroke_c	c	n/a
276.377	0.105	552754	keystroke_k	k	n/a
276.527	0.075	553054	keystroke_s	s	n/a
276.662	0.12	553324	keystroke_Key.space	Key.space	n/a
277.097	0.105	554194	keystroke_s	s	n/a
277.382	0.12	554764	keystroke_i	i	n/a
277.802	0.06	555604	keystroke_t	t	n/a
278.117	0.09	556234	keystroke_e	e	n/a
278.417	0.15	556834	keystroke_m	m	n/a
278.792	0.105	557584	keystroke_a	a	n/a
279.002	0.09	558004	keystroke_p	p	n/a
279.257	0.105	558514	keystroke_Key.space	Key.space	n/a
279.452	0.075	558904	keystroke_p	p	n/a
279.647	0.12	559294	keystroke_o	o	n/a
280.097	0.09	560194	keystroke_Key.backspace	Key.backspace	n/a
280.382	0.09	560764	keystroke_a	a	n/a
280.592	0.105	561184	keystroke_c	c	n/a
280.682	0.105	561364	keystroke_k	k	n/a
280.847	0.18	561694	keystroke_e	e	n/a
280.982	0.135	561964	keystroke_t	t	n/a
281.132	0.12	562264	keystroke_s	s	n/a
281.672	0.105	563344	keystroke_Key.enter	Key.enter	n/a
281.785	8.649	563570	prompt	n/a	fair lemon completion tripadvisor\n
282.797	0.09	565594	keystroke_f	f	n/a
282.962	0.105	565924	keystroke_a	a	n/a
283.068	0.074	566136	keystroke_i	i	n/a
283.187	0.105	566374	keystroke_r	r	n/a
283.277	0.135	566554	keystroke_Key.space	Key.space	n/a
283.352	0.105	566704	keystroke_l	l	n/a
283.472	0.09	566944	keystroke_e	e	n/a
283.547	0.12	567094	keystroke_m	m	n/a
283.832	0.135	567664	keystroke_n	n	n/a
284.282	0.075	568564	keystroke_Key.backspace	Key.backspace	n/a
284.537	0.15	569074	keystroke_o	o	n/a
284.627	0.195	569254	keystroke_n	n	n/a
284.762	0.165	569524	keystroke_Key.space	Key.space	n/a
285.182	0.12	570364	keystroke_c	c	n/a
285.332	0.165	570664	keystroke_o	o	n/a
285.482	0.195	570964	keystroke_m	m	n/a
285.602	0.12	571204	keystroke_p	p	n/a
285.662	0.135	571324	keystroke_l	l	n/a
285.782	0.12	571564	keystroke_e	e	n/a
285.917	0.105	571834	keystroke_t	t	n/a
286.007	0.135	572014	keystroke_i	i	n/a
286.112	0.21	572224	keystroke_o	o	n/a
286.247	0.195	572494	keystroke_n	n	n/a
286.382	0.135	572764	keystroke_Key.space	Key.space	n/a
286.877	0.075	573754	keystroke_t	t	n/a
287.102	0.075	574204	keystroke_r	r	n/a
287.192	0.09	574384	keystroke_i	i	n/a
288.152	0.105	576304	keystroke_p	p	n/a
288.572	0.105	577144	keystroke_a	a	n/a
288.782	0.075	577564	keystroke_d	d	n/a
289.262	0.105	578524	keystroke_v	v	n/a
289.382	0.12	578764	keystroke_i	i	n/a
289.547	0.12	579094	keystroke_s	s	n/a
289.757	0.09	579514	keystroke_o	o	n/a
289.862	0.09	579724	keystroke_r	r	n/a
290.312	0.12	580624	keystroke_Key.enter	Key.enter	n/a
290.439	7.48	580878	prompt	n/a	sweet notice heavily individually\n
291.107	0.09	582214	keystroke_s	s	n/a
291.317	0.09	582634	keystroke_w	w	n/a
291.512	0.075	583024	keystroke_e	e	n/a
291.692	0.165	583384	keystroke_e	e	n/a
291.812	0.09	583624	keystroke_t	t	n/a
291.917	0.135	583834	keystroke_Key.space	Key.space	n/a
291.992	0.15	583984	keystroke_n	n	n/a
292.082	0.105	584164	keystroke_o	o	n/a
292.157	0.075	584314	keystroke_t	t	n/a
292.292	0.105	584584	keystroke_i	i	n/a
292.352	0.105	584704	keystroke_c	c	n/a
292.592	0.075	585184	keystroke_e	e	n/a
292.697	0.135	585394	keystroke_Key.space	Key.space	n/a
292.982	0.135	585964	keystroke_h	h	n/a
293.162	0.09	586324	keystroke_e	e	n/a
293.537	0.12	587074	keystroke_a	a	n/a
293.717	0.12	587434	keystroke_v	v	n/a
293.822	0.225	587644	keystroke_i	i	n/a
293.957	0.15	587914	keystroke_l	l	n/a
294.362	0.105	588724	keystroke_y	y	n/a
294.707	0.09	589414	keystroke_Key.space	Key.space	n/a
295.022	0.09	590044	keystroke_i	i	n/a
295.217	0.12	590434	keystroke_n	n	n/a
295.547	0.09	591094	keystroke_d	d	n/a
295.652	0.105	591304	keystroke_i	i	n/a
295.817	0.105	591634	keystroke_v	v	n/a
295.952	0.09	591904	keystroke_i	i	n/a
296.102	0.075	592204	keystroke_d	d	n/a
296.222	0.09	592444	keystroke_u	u	n/a
296.387	0.105	592774	keystroke_a	a	n/a
296.522	0.075	593044	keystroke_l	l	n/a
296.702	0.24	593404	keystroke_l	l	n/a
296.837	0.15	593674	keystroke_y	y	n/a
297.797	0.12	595594	keystroke_Key.enter	Key.enter	n/a
297.9235	8.125	595847	prompt	n/a	participating causing rest arabic\n
298.907	0.12	597814	keystroke_p	p	n/a
299.267	0.09	598534	keystroke_a	a	n/a
299.567	0.105	599134	keystroke_r	r	n/a
299.777	0.075	599554	keystroke_t	t	n/a
299.972	0.045	599944	keystroke_i	i	n/a
300.048	0.104	600096	keystroke_c	c	n/a
300.197	0.105	600394	keystroke_i	i	n/a
300.7665	0.106	601533	keystroke_p	p	n/a
300.9915	0.165	601983	keystroke_a	a	n/a
301.127	0.1195	602254	keystroke_t	t	n/a
301.2615	0.21	602523	keystroke_i	i	n/a
301.3815	0.225	602763	keystroke_n	n	n/a
301.5465	0.09	603093	keystroke_g	g	n/a
301.6815	0.15	603363	keystroke_Key.space	Key.space	n/a
302.2965	0.09	604593	keystroke_c	c	n/a
302.5215	0.09	605043	keystroke_a	a	n/a
302.7315	0.12	605463	keystroke_u	u	n/a
302.8965	0.105	605793	keystroke_s	s	n/a
303.0315	0.166	606063	keystroke_i	i	n/a
303.1365	0.2555	606273	keystroke_n	n	n/a
303.2575	0.0745	606515	keystroke_g	g	n/a
303.347	0.165	606694	keystroke_Key.space	Key.space	n/a
303.902	0.15	607804	keystroke_r	r	n/a
304.052	0.195	608104	keystroke_e	e	n/a
304.127	0.15	608254	keystroke_s	s	n/a
304.232	0.105	608464	keystroke_t	t	n/a
304.352	0.135	608704	keystroke_Key.space	Key.space	n/a
304.517	0.135	609034	keystroke_a	a	n/a
304.712	0.12	609424	keystroke_r	r	n/a
304.862	0.06	609724	keystroke_a	a	n/a
305.072	0.09	610144	keystroke_b	b	n/a
305.192	0.105	610384	keystroke_i	i	n/a
305.327	0.105	610654	keystroke_c	c	n/a
305.897	0.15	611794	keystroke_Key.enter	Key.enter	n/a
306.057	7.1015	612114	prompt	n/a	urls metres prayers soap\n
307.112	0.105	614224	keystroke_u	u	n/a
307.622	0.09	615244	keystroke_r	r	n/a
307.787	0.12	615574	keystroke_l	l	n/a
308.162	0.075	616324	keystroke_s	s	n/a
308.372	0.12	616744	keystroke_Key.space	Key.space	n/a
308.642	0.15	617284	keystroke_m	m	n/a
308.882	0.105	617764	keystroke_e	e	n/a
309.227	0.075	618454	keystroke_t	t	n/a
309.437	0.12	618874	keystroke_r	r	n/a
309.587	0.09	619174	keystroke_e	e	n/a
309.8265	0.075	619653	keystroke_s	s	n/a
309.9465	0.135	619893	keystroke_Key.space	Key.space	n/a
310.6365	0.12	621273	keystroke_p	p	n/a
310.8015	0.12	621603	keystroke_r	r	n/a
310.9665	0.12	621933	keystroke_a	a	n/a
311.1315	0.135	622263	keystroke_y	y	n/a
311.2065	0.15	622413	keystroke_e	e	n/a
311.2815	0.195	622563	keystroke_r	r	n/a
311.4165	0.151	622833	keystroke_s	s	n/a
312.032	0.135	624064	keystroke_Key.space	Key.space	n/a
312.242	0.12	624484	keystroke_s	s	n/a
312.347	0.09	624694	keystroke_o	o	n/a
312.482	0.105	624964	keystroke_a	a	n/a
312.602	0.12	625204	keystroke_p	p	n/a
313.022	0.135	626044	keystroke_Key.enter	Key.enter	n/a
313.1645	5.8145	626329	prompt	n/a	between writers complement fold\n
313.952	0.09	627904	keystroke_b	b	n/a
314.1315	0.1505	628263	keystroke_e	e	n/a
314.2515	0.12	628503	keystroke_t	t	n/a
314.3565	0.075	628713	keystroke_w	w	n/a
314.5215	0.075	629043	keystroke_e	e	n/a
314.7015	0.09	629403	keystroke_e	e	n/a
314.7615	0.165	629523	keystroke_n	n	n/a
314.8815	0.135	629763	keystroke_Key.space	Key.space	n/a
315.0015	0.09	630003	keystroke_w	w	n/a
315.1515	0.105	630303	keystroke_r	r	n/a
315.3015	0.15	630603	keystroke_i	i	n/a
315.3915	0.09	630783	keystroke_t	t	n/a
315.4965	0.21	630993	keystroke_e	e	n/a
315.6015	0.165	631203	keystroke_r	r	n/a
315.6765	0.135	631353	keystroke_s	s	n/a
315.8265	0.15	631653	keystroke_Key.space	Key.space	n/a
316.2165	0.105	632433	keystroke_c	c	n/a
316.4265	0.15	632853	keystroke_o	o	n/a
316.5465	0.225	633093	keystroke_m	m	n/a
316.6965	0.105	633393	keystroke_p	p	n/a
316.7565	0.165	633513	keystroke_l	l	n/a
316.9665	0.105	633933	keystroke_e	e	n/a
317.1315	0.15	634263	keystroke_m	m	n/a
317.2215	0.12	634443	keystroke_e	e	n/a
317.3715	0.18	634743	keystroke_n	n	n/a
317.4765	0.09	634953	keystroke_t	t	n/a
317.5965	0.135	635193	keystroke_Key.space	Key.space	n/a
318.1965	0.09	636393	keystroke_f	f	n/a
318.3015	0.075	636603	keystroke_o	o	n/a
318.4815	0.105	636963	keystroke_l	l	n/a
318.5565	0.09	637113	keystroke_d	d	n/a
318.8415	0.135	637683	keystroke_Key.enter	Key.enter	n/a
318.9845	5.6795	637969	prompt	n/a	bacon africa moreover thinkpad\n
319.8315	0.09	639663	keystroke_b	b	n/a
319.9815	0.105	639963	keystroke_a	a	n/a
320.1165	0.12	640233	keystroke_c	c	n/a
320.2375	0.134	640475	keystroke_o	o	n/a
320.3115	0.18	640623	keystroke_n	n	n/a
320.4165	0.15	640833	keystroke_Key.space	Key.space	n/a
320.5065	0.105	641013	keystroke_a	a	n/a
320.5965	0.09	641193	keystroke_f	f	n/a
320.7915	0.076	641583	keystroke_r	r	n/a
320.8815	0.09	641763	keystroke_i	i	n/a
321.0165	0.075	642033	keystroke_c	c	n/a
321.1065	0.105	642213	keystroke_a	a	n/a
321.2715	0.135	642543	keystroke_Key.space	Key.space	n/a
321.4815	0.15	642963	keystroke_m	m	n/a
321.6165	0.105	643233	keystroke_o	o	n/a
321.7365	0.075	643473	keystroke_r	r	n/a
322.0365	0.09	644073	keystroke_e	e	n/a
322.2015	0.105	644403	keystroke_o	o	n/a
322.3215	0.105	644643	keystroke_v	v	n/a
322.5165	0.12	645033	keystroke_e	e	n/a
322.5765	0.105	645153	keystroke_r	r	n/a
322.8615	0.105	645723	keystroke_Key.space	Key.space	n/a
323.1915	0.076	646383	keystroke_t	t	n/a
323.2815	0.12	646563	keystroke_h	h	n/a
323.3865	0.105	646773	keystroke_i	i	n/a
323.5065	0.135	647013	keystroke_n	n	n/a
323.5665	0.15	647133	keystroke_k	k	n/a
323.8665	0.09	647733	keystroke_p	p	n/a
323.9265	0.075	647853	keystroke_a	a	n/a
324.1515	0.075	648303	keystroke_d	d	n/a
324.5265	0.135	649053	keystroke_Key.enter	Key.enter	n/a
324.6685	7.0455	649337	prompt	n/a	rolls enzyme longest mounting\n
325.6215	0.09	651243	keystroke_r	r	n/a
325.7415	0.075	651483	keystroke_o	o	n/a
325.9215	0.075	651843	keystroke_l	l	n/a
326.0865	0.135	652173	keystroke_l	l	n/a
326.1465	0.12	652293	keystroke_s	s	n/a
326.2515	0.12	652503	keystroke_Key.space	Key.space	n/a
326.3865	0.105	652773	keystroke_e	e	n/a
326.5065	0.075	653013	keystroke_n	n	n/a
326.7465	0.105	653493	keystroke_z	z	n/a
326.9265	0.12	653853	keystroke_y	y	n/a
327.1515	0.075	654303	keystroke_l	l	n/a
327.6165	0.075	655233	keystroke_Key.backspace	Key.backspace	n/a
327.8865	0.105	655773	keystroke_m	m	n/a
327.9765	0.075	655953	keystroke_e	e	n/a
328.4565	0.135	656913	keystroke_Key.space	Key.space	n/a
328.6215	0.075	657243	keystroke_l	l	n/a
328.8315	0.105	657663	keystroke_o	o	n/a
328.9065	0.165	657813	keystroke_n	n	n/a
329.0115	0.075	658023	keystroke_g	g	n/a
329.1615	0.18	658323	keystroke_e	e	n/a
329.2965	0.135	658593	keystroke_s	s	n/a
329.3715	0.105	658743	keystroke_t	t	n/a
329.4615	0.135	658923	keystroke_Key.space	Key.space	n/a
329.6565	0.18	659313	keystroke_m	m	n/a
329.8065	0.135	659613	keystroke_o	o	n/a
329.9865	0.105	659973	keystroke_u	u	n/a
330.2865	0.12	660573	keystroke_n	n	n/a
330.8715	0.075	661743	keystroke_t	t	n/a
330.9765	0.15	661953	keystroke_i	i	n/a
331.0665	0.18	662133	keystroke_n	n	n/a
331.2315	0.06	662463	keystroke_g	g	n/a
331.5765	0.135	663153	keystroke_Key.enter	Key.enter	n/a
331.7195	9.34	663439	prompt	n/a	grill regulations concentrations rogers\n
332.5065	0.06	665013	keystroke_g	g	n/a
332.6865	0.106	665373	keystroke_r	r	n/a
332.7615	0.075	665523	keystroke_i	i	n/a
332.9265	0.06	665853	keystroke_l	l	n/a
333.0765	0.105	666153	keystroke_l	l	n/a
333.1665	0.15	666333	keystroke_Key.space	Key.space	n/a
333.3015	0.09	666603	keystroke_r	r	n/a
333.3615	0.09	666723	keystroke_e	e	n/a
333.5265	0.105	667053	keystroke_g	g	n/a
333.6465	0.165	667293	keystroke_u	u	n/a
333.7365	0.15	667473	keystroke_l	l	n/a
333.8415	0.135	667683	keystroke_a	a	n/a
333.9015	0.105	667803	keystroke_t	t	n/a
333.9915	0.12	667983	keystroke_i	i	n/a
334.0515	0.165	668103	keystroke_o	o	n/a
334.1565	0.165	668313	keystroke_n	n	n/a
334.2925	0.089	668585	keystroke_s	s	n/a
334.9065	0.15	669813	keystroke_Key.space	Key.space	n/a
335.0415	0.09	670083	keystroke_c	c	n/a
335.1615	0.105	670323	keystroke_o	o	n/a
335.2365	0.135	670473	keystroke_n	n	n/a
335.5965	0.075	671193	keystroke_c	c	n/a
335.8365	0.075	671673	keystroke_e	e	n/a
335.9565	0.15	671913	keystroke_n	n	n/a
336.0465	0.075	672093	keystroke_t	t	n/a
336.2565	0.12	672513	keystroke_r	r	n/a
336.3615	0.18	672723	keystroke_a	a	n/a
336.5115	0.09	673023	keystroke_t	t	n/a
336.6315	0.12	673263	keystroke_i	i	n/a
336.7215	0.18	673443	keystroke_o	o	n/a
336.8415	0.15	673683	keystroke_n	n	n/a
337.0065	0.075	674013	keystroke_s	s	n/a
338.2515	0.15	676503	keystroke_Key.space	Key.space	n/a
338.4315	0.075	676863	keystroke_r	r	n/a
338.5965	0.105	677193	keystroke_o	o	n/a
338.7315	0.105	677463	keystroke_g	g	n/a
338.9265	0.18	677853	keystroke_e	e	n/a
339.0015	0.15	678003	keystroke_r	r	n/a
339.5865	0.09	679173	keystroke_s	s	n/a
340.9365	0.12	681873	keystroke_Key.enter	Key.enter	n/a
341.065	6.399	682130	prompt	n/a	advise donations letting negotiation\n
341.8815	0.09	683763	keystroke_a	a	n/a
342.0615	0.06	684123	keystroke_d	d	n/a
342.2265	0.091	684453	keystroke_v	v	n/a
342.3465	0.121	684693	keystroke_i	i	n/a
342.4365	0.105	684873	keystroke_s	s	n/a
342.5875	0.104	685175	keystroke_e	e	n/a
342.7365	0.15	685473	keystroke_Key.space	Key.space	n/a
343.1415	0.12	686283	keystroke_d	d	n/a
343.2765	0.075	686553	keystroke_o	o	n/a
343.4565	0.135	686913	keystroke_n	n	n/a
343.6215	0.15	687243	keystroke_a	a	n/a
343.7265	0.09	687453	keystroke_t	t	n/a
343.8015	0.135	687603	keystroke_i	i	n/a
343.8765	0.195	687753	keystroke_o	o	n/a
343.9965	0.195	687993	keystroke_n	n	n/a
344.1765	0.091	688353	keystroke_s	s	n/a
344.4465	0.15	688893	keystroke_Key.space	Key.space	n/a
344.5815	0.12	689163	keystroke_l	l	n/a
344.7175	0.089	689435	keystroke_e	e	n/a
344.8815	0.075	689763	keystroke_t	t	n/a
345.0615	0.06	690123	keystroke_t	t	n/a
345.1225	0.149	690245	keystroke_i	i	n/a
345.2115	0.18	690423	keystroke_n	n	n/a
345.3175	0.104	690635	keystroke_g	g	n/a
345.3765	0.15	690753	keystroke_Key.space	Key.space	n/a
345.4965	0.165	690993	keystroke_n	n	n/a
345.6465	0.075	691293	keystroke_e	e	n/a
345.8265	0.09	691653	keystroke_g	g	n/a
345.9765	0.105	691953	keystroke_o	o	n/a
346.1265	0.105	692253	keystroke_t	t	n/a
346.2765	0.075	692553	keystroke_i	i	n/a
346.4115	0.135	692823	keystroke_a	a	n/a
346.4875	0.119	692975	keystroke_t	t	n/a
346.5625	0.149	693125	keystroke_i	i	n/a
346.6515	0.195	693303	keystroke_o	o	n/a
346.7715	0.15	693543	keystroke_n	n	n/a
347.3415	0.12	694683	keystroke_Key.enter	Key.enter	n/a
347.469	6.2495	694938	prompt	n/a	trustees eagles mary enemy\n
348.376	0.075	696752	keystroke_t	t	n/a
348.556	0.09	697112	keystroke_r	r	n/a
348.661	0.12	697322	keystroke_u	u	n/a
348.7665	0.1645	697533	keystroke_s	s	n/a
348.887	0.089	697774	keystroke_t	t	n/a
349.097	0.074	698194	keystroke_e	e	n/a
349.261	0.076	698522	keystroke_e	e	n/a
349.531	0.09	699062	keystroke_s	s	n/a
349.681	0.12	699362	keystroke_Key.space	Key.space	n/a
350.206	0.106	700412	keystroke_e	e	n/a
350.401	0.09	700802	keystroke_a	a	n/a
350.537	0.089	701074	keystroke_g	g	n/a
350.656	0.12	701312	keystroke_l	l	n/a
350.761	0.135	701522	keystroke_e	e	n/a
350.821	0.135	701642	keystroke_s	s	n/a
350.971	0.09	701942	keystroke_Key.space	Key.space	n/a
351.212	0.119	702424	keystroke_m	m	n/a
351.361	0.09	702722	keystroke_a	a	n/a
351.692	0.089	703384	keystroke_r	r	n/a
351.782	0.135	703564	keystroke_y	y	n/a
351.886	0.09	703772	keystroke_Key.space	Key.space	n/a
352.006	0.061	704012	keystroke_e	e	n/a
352.126	0.105	704252	keystroke_n	n	n/a
352.246	0.06	704492	keystroke_e	e	n/a
352.396	0.121	704792	keystroke_m	m	n/a
352.817	0.104	705634	keystroke_y	y	n/a
353.596	0.12	707192	keystroke_Key.enter	Key.enter	n/a
353.7235	9.6405	707447	prompt	n/a	dirty bargain supporting discussions\n
354.586	0.09	709172	keystroke_d	d	n/a
354.811	0.106	709622	keystroke_r	r	n/a
354.842	0.134	709684	keystroke_i	i	n/a
355.037	0.075	710074	keystroke_t	t	n/a
355.141	0.135	710282	keystroke_y	y	n/a
355.231	0.135	710462	keystroke_Key.space	Key.space	n/a
355.831	0.09	711662	keystroke_Key.backspace	Key.backspace	n/a
356.011	0.076	712022	keystroke_Key.backspace	Key.backspace	n/a
356.161	0.09	712322	keystroke_Key.backspace	Key.backspace	n/a
356.356	0.105	712712	keystroke_Key.backspace	Key.backspace	n/a
356.746	0.075	713492	keystroke_Key.backspace	Key.backspace	n/a
357.242	0.104	714484	keystroke_i	i	n/a
357.316	0.09	714632	keystroke_r	r	n/a
357.526	0.061	715052	keystroke_t	t	n/a
357.571	0.166	715142	keystroke_y	y	n/a
357.676	0.135	715352	keystroke_Key.space	Key.space	n/a
358.006	0.121	716012	keystroke_b	b	n/a
358.276	0.15	716552	keystroke_a	a	n/a
358.367	0.089	716734	keystroke_r	r	n/a
358.592	0.089	717184	keystroke_g	g	n/a
358.756	0.09	717512	keystroke_a	a	n/a
358.862	0.18	717724	keystroke_i	i	n/a
358.967	0.164	717934	keystroke_n	n	n/a
359.431	0.135	718862	keystroke_Key.space	Key.space	n/a
359.596	0.105	719192	keystroke_s	s	n/a
359.746	0.105	719492	keystroke_u	u	n/a
359.956	0.09	719912	keystroke_p	p	n/a
360.121	0.135	720242	keystroke_p	p	n/a
360.301	0.12	720602	keystroke_o	o	n/a
360.437	0.075	720874	keystroke_r	r	n/a
360.646	0.06	721292	keystroke_t	t	n/a
360.692	0.164	721384	keystroke_i	i	n/a
360.781	0.225	721562	keystroke_n	n	n/a
360.917	0.09	721834	keystroke_g	g	n/a
361.007	0.134	722014	keystroke_Key.space	Key.space	n/a
361.426	0.105	722852	keystroke_d	d	n/a
361.532	0.105	723064	keystroke_i	i	n/a
361.621	0.075	723242	keystroke_s	s	n/a
361.787	0.105	723574	keystroke_c	c	n/a
361.876	0.12	723752	keystroke_u	u	n/a
362.026	0.075	724052	keystroke_s	s	n/a
362.162	0.119	724324	keystroke_s	s	n/a
362.221	0.135	724442	keystroke_i	i	n/a
362.326	0.18	724652	keystroke_o	o	n/a
362.446	0.166	724892	keystroke_n	n	n/a
362.537	0.105	725074	keystroke_s	s	n/a
363.227	0.135	726454	keystroke_Key.enter	Key.enter	n/a
363.3705	10.0275	726741	prompt	n/a	destination nest implement beverly\n
364.067	0.09	728134	keystroke_d	d	n/a
364.292	0.075	728584	keystroke_e	e	n/a
364.502	0.075	729004	keystroke_s	s	n/a
364.742	0.075	729484	keystroke_t	t	n/a
364.922	0.03	729844	keystroke_i	i	n/a
365.087	0.12	730174	keystroke_n	n	n/a
365.2365	0.15	730473	keystroke_a	a	n/a
365.312	0.1345	730624	keystroke_t	t	n/a
365.402	0.1495	730804	keystroke_i	i	n/a
365.492	0.1945	730984	keystroke_o	o	n/a
365.6115	0.195	731223	keystroke_n	n	n/a
365.7465	0.15	731493	keystroke_Key.space	Key.space	n/a
366.467	0.165	732934	keystroke_n	n	n/a
366.6015	0.0755	733203	keystroke_e	e	n/a
367.0965	0.075	734193	keystroke_s	s	n/a
367.3515	0.0605	734703	keystroke_t	t	n/a
367.4865	0.15	734973	keystroke_Key.space	Key.space	n/a
367.9965	0.15	735993	keystroke_i	i	n/a
368.2515	0.21	736503	keystroke_m	m	n/a
368.4315	0.09	736863	keystroke_p	p	n/a
368.5065	0.15	737013	keystroke_l	l	n/a
369.0915	0.06	738183	keystroke_e	e	n/a
369.2715	0.135	738543	keystroke_m	m	n/a
369.3765	0.105	738753	keystroke_e	e	n/a
369.5265	0.15	739053	keystroke_n	n	n/a
369.6465	0.075	739293	keystroke_t	t	n/a
369.8265	0.135	739653	keystroke_Key.space	Key.space	n/a
370.2915	0.06	740583	keystroke_b	b	n/a
370.6815	0.09	741363	keystroke_e	e	n/a
370.8915	0.105	741783	keystroke_v	v	n/a
371.0865	0.135	742173	keystroke_e	e	n/a
371.1915	0.105	742383	keystroke_r	r	n/a
372.1065	0.105	744213	keystroke_l	l	n/a
372.4215	0.105	744843	keystroke_y	y	n/a
373.2765	0.12	746553	keystroke_Key.enter	Key.enter	n/a
373.403	6.2205	746806	prompt	n/a	gardens further delay images\n
374.2965	0.06	748593	keystroke_g	g	n/a
374.4765	0.21	748953	keystroke_a	a	n/a
374.6265	0.195	749253	keystroke_r	r	n/a
374.7915	0.105	749583	keystroke_d	d	n/a
375.0465	0.105	750093	keystroke_e	e	n/a
375.1665	0.12	750333	keystroke_n	n	n/a
375.5715	0.09	751143	keystroke_s	s	n/a
375.7965	0.15	751593	keystroke_Key.space	Key.space	n/a
375.9915	0.105	751983	keystroke_f	f	n/a
376.2165	0.135	752433	keystroke_u	u	n/a
376.3215	0.06	752643	keystroke_r	r	n/a
376.4865	0.09	752973	keystroke_t	t	n/a
376.5465	0.12	753093	keystroke_h	h	n/a
376.6815	0.15	753363	keystroke_e	e	n/a
376.7715	0.12	753543	keystroke_r	r	n/a
376.8765	0.135	753753	keystroke_Key.space	Key.space	n/a
377.0265	0.06	754053	keystroke_d	d	n/a
377.2065	0.09	754413	keystroke_e	e	n/a
377.2515	0.135	754503	keystroke_l	l	n/a
377.4015	0.12	754803	keystroke_a	a	n/a
377.5665	0.12	755133	keystroke_y	y	n/a
377.7015	0.09	755403	keystroke_s	s	n/a
377.8965	0.12	755793	keystroke_Key.space	Key.space	n/a
378.1215	0.135	756243	keystroke_i	i	n/a
378.3015	0.12	756603	keystroke_m	m	n/a
378.3765	0.135	756753	keystroke_a	a	n/a
378.5265	0.105	757053	keystroke_g	g	n/a
378.6615	0.15	757323	keystroke_e	e	n/a
378.7665	0.12	757533	keystroke_s	s	n/a
379.4715	0.15	758943	keystroke_Key.enter	Key.enter	n/a
379.628	6.8955	759256	prompt	n/a	describes headline goat haven\n
380.2965	0.075	760593	keystroke_d	d	n/a
380.4915	0.09	760983	keystroke_e	e	n/a
380.6115	0.12	761223	keystroke_s	s	n/a
380.8365	0.09	761673	keystroke_c	c	n/a
381.0315	0.075	762063	keystroke_r	r	n/a
381.1665	0.135	762333	keystroke_i	i	n/a
381.4515	0.09	762903	keystroke_e	e	n/a
381.8415	0.12	763683	keystroke_Key.backspace	Key.backspace	n/a
381.9015	0.09	763803	keystroke_b	b	n/a
382.1415	0.12	764283	keystroke_e	e	n/a
382.2315	0.15	764463	keystroke_s	s	n/a
382.3665	0.15	764733	keystroke_Key.space	Key.space	n/a
383.0265	0.135	766053	keystroke_h	h	n/a
383.0565	0.135	766113	keystroke_e	e	n/a
383.1765	0.09	766353	keystroke_a	a	n/a
383.3115	0.105	766623	keystroke_d	d	n/a
383.4315	0.21	766863	keystroke_l	l	n/a
383.5365	0.165	767073	keystroke_i	i	n/a
383.6265	0.225	767253	keystroke_n	n	n/a
383.7315	0.09	767463	keystroke_e	e	n/a
383.8815	0.165	767763	keystroke_Key.space	Key.space	n/a
384.1965	0.09	768393	keystroke_g	g	n/a
384.2715	0.105	768543	keystroke_o	o	n/a
384.3915	0.165	768783	keystroke_a	a	n/a
384.4965	0.105	768993	keystroke_t	t	n/a
384.6615	0.105	769323	keystroke_Key.space	Key.space	n/a
384.8565	0.15	769713	keystroke_h	h	n/a
384.9615	0.12	769923	keystroke_a	a	n/a
385.0965	0.12	770193	keystroke_v	v	n/a
385.1415	0.12	770283	keystroke_e	e	n/a
385.2465	0.15	770493	keystroke_n	n	n/a
386.3715	0.15	772743	keystroke_Key.enter	Key.enter	n/a
386.531	6.623	773062	prompt	n/a	concepts exact newton gotten\n
387.4815	0.09	774963	keystroke_c	c	n/a
387.5565	0.135	775113	keystroke_o	o	n/a
387.6465	0.165	775293	keystroke_n	n	n/a
387.7515	0.075	775503	keystroke_c	c	n/a
387.9465	0.09	775893	keystroke_e	e	n/a
388.0665	0.105	776133	keystroke_p	p	n/a
388.1865	0.12	776373	keystroke_t	t	n/a
388.4265	0.135	776853	keystroke_Key.space	Key.space	n/a
388.8015	0.075	777603	keystroke_Key.backspace	Key.backspace	n/a
388.8915	0.075	777783	keystroke_s	s	n/a
389.0415	0.15	778083	keystroke_Key.space	Key.space	n/a
389.3265	0.09	778653	keystroke_e	e	n/a
389.5665	0.09	779133	keystroke_x	x	n/a
389.7615	0.105	779523	keystroke_a	a	n/a
389.9265	0.075	779853	keystroke_c	c	n/a
390.1515	0.06	780303	keystroke_t	t	n/a
390.2415	0.135	780483	keystroke_Key.space	Key.space	n/a
390.4065	0.105	780813	keystroke_n	n	n/a
390.7515	0.09	781503	keystroke_e	e	n/a
390.9915	0.105	781983	keystroke_w	w	n/a
391.3215	0.075	782643	keystroke_t	t	n/a
391.4565	0.165	782913	keystroke_o	o	n/a
391.5765	0.195	783153	keystroke_n	n	n/a
391.7265	0.15	783453	keystroke_Key.space	Key.space	n/a
391.8915	0.075	783783	keystroke_g	g	n/a
391.9965	0.091	783993	keystroke_o	o	n/a
392.1165	0.06	784233	keystroke_t	t	n/a
392.2515	0.105	784503	keystroke_t	t	n/a
392.4165	0.09	784833	keystroke_e	e	n/a
392.5215	0.15	785043	keystroke_n	n	n/a
393.0165	0.135	786033	keystroke_Key.enter	Key.enter	n/a
393.1595	6.804	786319	prompt	n/a	seats olympics helen statement\n
394.0065	0.075	788013	keystroke_s	s	n/a
394.2015	0.105	788403	keystroke_e	e	n/a
394.3665	0.165	788733	keystroke_a	a	n/a
394.5015	0.15	789003	keystroke_t	t	n/a
394.6215	0.105	789243	keystroke_s	s	n/a
394.7115	0.135	789423	keystroke_Key.space	Key.space	n/a
395.2215	0.075	790443	keystroke_o	o	n/a
395.4315	0.135	790863	keystroke_l	l	n/a
395.6115	0.075	791223	keystroke_y	y	n/a
395.8665	0.18	791733	keystroke_m	m	n/a
396.0015	0.12	792003	keystroke_p	p	n/a
396.1515	0.105	792303	keystroke_i	i	n/a
396.2415	0.09	792483	keystroke_c	c	n/a
396.4815	0.075	792963	keystroke_s	s	n/a
396.5865	0.15	793173	keystroke_Key.space	Key.space	n/a
397.1415	0.075	794283	keystroke_h	h	n/a
397.2165	0.075	794433	keystroke_e	e	n/a
397.3365	0.12	794673	keystroke_l	l	n/a
397.4715	0.075	794943	keystroke_e	e	n/a
397.6365	0.18	795273	keystroke_n	n	n/a
397.7415	0.165	795483	keystroke_Key.space	Key.space	n/a
398.0565	0.09	796113	keystroke_s	s	n/a
398.2815	0.09	796563	keystroke_t	t	n/a
398.4315	0.135	796863	keystroke_a	a	n/a
398.5215	0.091	797043	keystroke_t	t	n/a
398.7165	0.09	797433	keystroke_e	e	n/a
398.8515	0.105	797703	keystroke_m	m	n/a
398.9265	0.075	797853	keystroke_e	e	n/a
399.0615	0.15	798123	keystroke_n	n	n/a
399.1515	0.075	798303	keystroke_t	t	n/a
399.826	0.1355	799652	keystroke_Key.enter	Key.enter	n/a
399.969	5.485	799938	prompt	n/a	advance represent tray tier\n
400.787	0.089	801574	keystroke_a	a	n/a
400.951	0.12	801902	keystroke_d	d	n/a
401.146	0.12	802292	keystroke_v	v	n/a
401.356	0.09	802712	keystroke_a	a	n/a
401.461	0.15	802922	keystroke_n	n	n/a
401.551	0.09	803102	keystroke_c	c	n/a
401.791	0.075	803582	keystroke_e	e	n/a
401.881	0.135	803762	keystroke_Key.space	Key.space	n/a
402.061	0.09	804122	keystroke_r	r	n/a
402.271	0.12	804542	keystroke_e	e	n/a
402.526	0.12	805052	keystroke_p	p	n/a
402.616	0.12	805232	keystroke_r	r	n/a
402.706	0.075	805412	keystroke_e	e	n/a
402.856	0.09	805712	keystroke_s	s	n/a
403.051	0.075	806102	keystroke_e	e	n/a
403.156	0.135	806312	keystroke_n	n	n/a
403.292	0.074	806584	keystroke_t	t	n/a
403.396	0.15	806792	keystroke_Key.space	Key.space	n/a
403.681	0.06	807362	keystroke_t	t	n/a
403.861	0.15	807722	keystroke_r	r	n/a
403.966	0.15	807932	keystroke_a	a	n/a
404.071	0.166	808142	keystroke_y	y	n/a
404.176	0.12	808352	keystroke_Key.space	Key.space	n/a
404.311	0.09	808622	keystroke_t	t	n/a
404.461	0.12	808922	keystroke_i	i	n/a
404.596	0.18	809192	keystroke_e	e	n/a
404.731	0.12	809462	keystroke_r	r	n/a
405.316	0.135	810632	keystroke_Key.enter	Key.enter	n/a
405.4595	9.489	810919	prompt	n/a	replace cardiovascular surgeons allergy\n
406.396	0.105	812792	keystroke_r	r	n/a
406.516	0.105	813032	keystroke_e	e	n/a
406.636	0.165	813272	keystroke_p	p	n/a
406.726	0.15	813452	keystroke_l	l	n/a
406.816	0.105	813632	keystroke_a	a	n/a
406.966	0.09	813932	keystroke_c	c	n/a
407.176	0.09	814352	keystroke_e	e	n/a
407.251	0.135	814502	keystroke_Key.space	Key.space	n/a
407.896	0.091	815792	keystroke_c	c	n/a
408.091	0.15	816182	keystroke_a	a	n/a
408.226	0.09	816452	keystroke_r	r	n/a
408.436	0.105	816872	keystroke_d	d	n/a
408.526	0.165	817052	keystroke_i	i	n/a
408.707	0.105	817414	keystroke_o	o	n/a
409.051	0.09	818102	keystroke_v	v	n/a
409.216	0.15	818432	keystroke_a	a	n/a
409.412	0.104	818824	keystroke_s	s	n/a
409.906	0.105	819812	keystroke_c	c	n/a
410.071	0.165	820142	keystroke_u	u	n/a
410.207	0.134	820414	keystroke_l	l	n/a
410.357	0.15	820714	keystroke_a	a	n/a
410.491	0.105	820982	keystroke_r	r	n/a
410.656	0.165	821312	keystroke_Key.space	Key.space	n/a
411.496	0.105	822992	keystroke_s	s	n/a
411.662	0.149	823324	keystroke_u	u	n/a
412.187	0.089	824374	keystroke_r	r	n/a
412.441	0.06	824882	keystroke_g	g	n/a
412.621	0.091	825242	keystroke_e	e	n/a
412.741	0.091	825482	keystroke_o	o	n/a
412.951	0.135	825902	keystroke_n	n	n/a
413.071	0.09	826142	keystroke_s	s	n/a
413.206	0.135	826412	keystroke_Key.space	Key.space	n/a
413.476	0.09	826952	keystroke_a	a	n/a
413.582	0.059	827164	keystroke_l	l	n/a
413.731	0.106	827462	keystroke_l	l	n/a
413.821	0.15	827642	keystroke_e	e	n/a
413.926	0.12	827852	keystroke_r	r	n/a
414.211	0.105	828422	keystroke_g	g	n/a
414.271	0.105	828542	keystroke_y	y	n/a
414.826	0.12	829652	keystroke_Key.enter	Key.enter	n/a
414.953	7.24	829906	prompt	n/a	authorized cricket infants suspension\n
417.379	0.042	834758	keystroke_a	a	n/a
417.391	0.12	834782	keystroke_u	u	n/a
417.571	0.12	835142	keystroke_t	t	n/a
417.676	0.136	835352	keystroke_h	h	n/a
417.782	0.089	835564	keystroke_o	o	n/a
417.857	0.075	835714	keystroke_r	r	n/a
417.962	0.12	835924	keystroke_i	i	n/a
418.082	0.105	836164	keystroke_z	z	n/a
418.232	0.075	836464	keystroke_e	e	n/a
418.426	0.09	836852	keystroke_d	d	n/a
418.486	0.18	836972	keystroke_Key.space	Key.space	n/a
418.651	0.061	837302	keystroke_c	c	n/a
418.801	0.09	837602	keystroke_r	r	n/a
418.907	0.059	837814	keystroke_i	i	n/a
419.012	0.09	838024	keystroke_c	c	n/a
419.116	0.075	838232	keystroke_k	k	n/a
419.237	0.134	838474	keystroke_e	e	n/a
419.326	0.12	838652	keystroke_t	t	n/a
419.461	0.12	838922	keystroke_Key.space	Key.space	n/a
419.612	0.134	839224	keystroke_i	i	n/a
419.701	0.135	839402	keystroke_n	n	n/a
419.762	0.15	839524	keystroke_f	f	n/a
419.896	0.12	839792	keystroke_a	a	n/a
419.971	0.136	839942	keystroke_n	n	n/a
420.076	0.136	840152	keystroke_t	t	n/a
420.151	0.12	840302	keystroke_s	s	n/a
420.287	0.149	840574	keystroke_Key.space	Key.space	n/a
420.632	0.059	841264	keystroke_s	s	n/a
420.707	0.119	841414	keystroke_u	u	n/a
420.841	0.105	841682	keystroke_s	s	n/a
420.947	0.104	841894	keystroke_p	p	n/a
421.052	0.089	842104	keystroke_e	e	n/a
421.186	0.105	842372	keystroke_n	n	n/a
421.262	0.134	842524	keystroke_s	s	n/a
421.412	0.12	842824	keystroke_i	i	n/a
421.501	0.181	843002	keystroke_o	o	n/a
421.621	0.15	843242	keystroke_n	n	n/a
422.071	0.12	844142	keystroke_Key.enter	Key.enter	n/a
422.1995	6.384	844399	prompt	n/a	radar rendering contributor slides\n
422.971	0.165	845942	keystroke_r	r	n/a
423.107	0.105	846214	keystroke_a	a	n/a
423.257	0.105	846514	keystroke_d	d	n/a
423.437	0.15	846874	keystroke_a	a	n/a
423.557	0.119	847114	keystroke_r	r	n/a
423.736	0.165	847472	keystroke_Key.space	Key.space	n/a
424.142	0.135	848284	keystroke_r	r	n/a
424.292	0.0895	848584	keystroke_e	e	n/a
424.412	0.1645	848824	keystroke_n	n	n/a
424.532	0.0595	849064	keystroke_d	d	n/a
424.6965	0.135	849393	keystroke_e	e	n/a
424.7715	0.1055	849543	keystroke_r	r	n/a
424.8615	0.135	849723	keystroke_i	i	n/a
424.9365	0.24	849873	keystroke_n	n	n/a
425.0405	0.1065	850081	keystroke_g	g	n/a
425.147	0.1645	850294	keystroke_Key.space	Key.space	n/a
425.3715	0.12	850743	keystroke_c	c	n/a
425.507	0.1635	851014	keystroke_o	o	n/a
425.6265	0.135	851253	keystroke_n	n	n/a
425.7015	0.075	851403	keystroke_t	t	n/a
425.882	0.0885	851764	keystroke_r	r	n/a
425.9565	0.105	851913	keystroke_i	i	n/a
426.1515	0.09	852303	keystroke_b	b	n/a
426.2265	0.135	852453	keystroke_u	u	n/a
426.407	0.0895	852814	keystroke_t	t	n/a
426.5115	0.09	853023	keystroke_o	o	n/a
426.6615	0.105	853323	keystroke_r	r	n/a
426.7815	0.164	853563	keystroke_Key.space	Key.space	n/a
427.0965	0.105	854193	keystroke_s	s	n/a
427.4565	0.075	854913	keystroke_l	l	n/a
427.5915	0.135	855183	keystroke_i	i	n/a
427.7115	0.09	855423	keystroke_d	d	n/a
427.9365	0.15	855873	keystroke_e	e	n/a
428.0265	0.12	856053	keystroke_s	s	n/a
428.4455	0.136	856891	keystroke_Key.enter	Key.enter	n/a
428.5885	8.604	857177	prompt	n/a	yemen gift photographic suitable\n
429.4965	0.15	858993	keystroke_y	y	n/a
429.8565	0.09	859713	keystroke_e	e	n/a
430.1265	0.165	860253	keystroke_m	m	n/a
430.3515	0.075	860703	keystroke_e	e	n/a
430.5015	0.18	861003	keystroke_n	n	n/a
430.6365	0.18	861273	keystroke_Key.space	Key.space	n/a
430.9365	0.06	861873	keystroke_g	g	n/a
431.0565	0.105	862113	keystroke_i	i	n/a
431.1465	0.105	862293	keystroke_f	f	n/a
431.3715	0.06	862743	keystroke_t	t	n/a
431.4465	0.135	862893	keystroke_Key.space	Key.space	n/a
431.5815	0.15	863163	keystroke_p	p	n/a
431.7615	0.165	863523	keystroke_h	h	n/a
431.8815	0.12	863763	keystroke_o	o	n/a
432.0915	0.105	864183	keystroke_o	o	n/a
432.7065	0.09	865413	keystroke_Key.backspace	Key.backspace	n/a
432.8565	0.06	865713	keystroke_t	t	n/a
433.0065	0.09	866013	keystroke_o	o	n/a
433.5315	0.06	867063	keystroke_g	g	n/a
433.7415	0.15	867483	keystroke_r	r	n/a
433.8465	0.135	867693	keystroke_a	a	n/a
434.0715	0.18	868143	keystroke_p	p	n/a
434.5515	0.135	869103	keystroke_h	h	n/a
434.7015	0.12	869403	keystroke_i	i	n/a
434.8365	0.09	869673	keystroke_c	c	n/a
435.3915	0.15	870783	keystroke_Key.space	Key.space	n/a
435.5715	0.09	871143	keystroke_s	s	n/a
435.7065	0.12	871413	keystroke_u	u	n/a
435.9015	0.12	871803	keystroke_i	i	n/a
436.0365	0.09	872073	keystroke_t	t	n/a
436.2015	0.09	872403	keystroke_a	a	n/a
436.3515	0.105	872703	keystroke_b	b	n/a
436.4715	0.105	872943	keystroke_l	l	n/a
436.5915	0.075	873183	keystroke_e	e	n/a
437.0565	0.134	874113	keystroke_Key.enter	Key.enter	n/a
437.1975	5.606	874395	prompt	n/a	woman account hungry females\n
437.8815	0.09	875763	keystroke_w	w	n/a
437.9865	0.135	875973	keystroke_o	o	n/a
438.0615	0.105	876123	keystroke_m	m	n/a
438.1815	0.105	876363	keystroke_a	a	n/a
438.2715	0.18	876543	keystroke_n	n	n/a
438.3915	0.165	876783	keystroke_Key.space	Key.space	n/a
438.4815	0.075	876963	keystroke_a	a	n/a
438.6315	0.09	877263	keystroke_c	c	n/a
438.7815	0.12	877563	keystroke_c	c	n/a
438.8715	0.165	877743	keystroke_o	o	n/a
438.9765	0.105	877953	keystroke_u	u	n/a
439.2015	0.12	878403	keystroke_n	n	n/a
439.3065	0.075	878613	keystroke_t	t	n/a
439.8765	0.15	879753	keystroke_Key.space	Key.space	n/a
440.2065	0.09	880413	keystroke_h	h	n/a
440.5515	0.09	881103	keystroke_u	u	n/a
440.7615	0.135	881523	keystroke_n	n	n/a
440.8515	0.09	881703	keystroke_g	g	n/a
441.0915	0.105	882183	keystroke_r	r	n/a
441.1515	0.165	882303	keystroke_y	y	n/a
441.2715	0.135	882543	keystroke_Key.space	Key.space	n/a
441.5415	0.075	883083	keystroke_f	f	n/a
441.7065	0.12	883413	keystroke_e	e	n/a
441.7815	0.09	883563	keystroke_m	m	n/a
441.8865	0.105	883773	keystroke_a	a	n/a
442.0065	0.105	884013	keystroke_l	l	n/a
442.0965	0.12	884193	keystroke_e	e	n/a
442.1565	0.12	884313	keystroke_s	s	n/a
442.6815	0.12	885363	keystroke_Key.enter	Key.enter	n/a
442.8085	6.895	885617	prompt	n/a	workstation posters survival combined\n
443.5665	0.09	887133	keystroke_w	w	n/a
443.7015	0.075	887403	keystroke_o	o	n/a
443.8515	0.105	887703	keystroke_r	r	n/a
443.9865	0.075	887973	keystroke_k	k	n/a
444.0915	0.135	888183	keystroke_s	s	n/a
444.2415	0.105	888483	keystroke_t	t	n/a
444.3765	0.165	888753	keystroke_a	a	n/a
444.4665	0.135	888933	keystroke_t	t	n/a
444.5265	0.135	889053	keystroke_i	i	n/a
444.6165	0.21	889233	keystroke_o	o	n/a
444.7515	0.18	889503	keystroke_n	n	n/a
444.8715	0.135	889743	keystroke_Key.space	Key.space	n/a
445.1415	0.075	890283	keystroke_p	p	n/a
445.3365	0.09	890673	keystroke_o	o	n/a
445.4715	0.12	890943	keystroke_s	s	n/a
445.6965	0.105	891393	keystroke_t	t	n/a
445.9065	0.135	891813	keystroke_e	e	n/a
445.9965	0.105	891993	keystroke_r	r	n/a
446.2065	0.075	892413	keystroke_s	s	n/a
446.3715	0.135	892743	keystroke_Key.space	Key.space	n/a
446.5665	0.105	893133	keystroke_s	s	n/a
446.7165	0.105	893433	keystroke_u	u	n/a
446.8965	0.09	893793	keystroke_r	r	n/a
447.1665	0.06	894333	keystroke_v	v	n/a
447.2565	0.12	894513	keystroke_i	i	n/a
447.3615	0.075	894723	keystroke_v	v	n/a
447.5865	0.09	895173	keystroke_a	a	n/a
447.7365	0.15	895473	keystroke_l	l	n/a
447.8715	0.15	895743	keystroke_Key.space	Key.space	n/a
448.2765	0.09	896553	keystroke_c	c	n/a
448.3515	0.135	896703	keystroke_o	o	n/a
448.4415	0.12	896883	keystroke_m	m	n/a
448.7265	0.09	897453	keystroke_b	b	n/a
448.8615	0.15	897723	keystroke_i	i	n/a
448.9515	0.165	897903	keystroke_n	n	n/a
449.0715	0.075	898143	keystroke_e	e	n/a
449.2815	0.075	898563	keystroke_d	d	n/a
449.5665	0.135	899133	keystroke_Key.enter	Key.enter	n/a
449.709	8.4695	899418	prompt	n/a	commander expectations begun guards\n
451.0065	0.09	902013	keystroke_c	c	n/a
451.1415	0.09	902283	keystroke_o	o	n/a
451.3665	0.075	902733	keystroke_m	m	n/a
451.5165	0.105	903033	keystroke_m	m	n/a
451.6515	0.075	903303	keystroke_a	a	n/a
451.7415	0.15	903483	keystroke_n	n	n/a
451.8315	0.075	903663	keystroke_d	d	n/a
452.0265	0.135	904053	keystroke_e	e	n/a
452.1165	0.105	904233	keystroke_r	r	n/a
452.4315	0.135	904863	keystroke_Key.space	Key.space	n/a
452.6265	0.075	905253	keystroke_e	e	n/a
452.8365	0.135	905673	keystroke_x	x	n/a
453.0315	0.135	906063	keystroke_p	p	n/a
453.1965	0.075	906393	keystroke_e	e	n/a
453.4365	0.06	906873	keystroke_c	c	n/a
453.6165	0.075	907233	keystroke_t	t	n/a
453.7365	0.15	907473	keystroke_a	a	n/a
453.8265	0.12	907653	keystroke_t	t	n/a
453.9165	0.12	907833	keystroke_i	i	n/a
453.9915	0.21	907983	keystroke_o	o	n/a
454.1265	0.225	908253	keystroke_n	n	n/a
454.2315	0.105	908463	keystroke_s	s	n/a
454.3215	0.135	908643	keystroke_Key.space	Key.space	n/a
455.0415	0.09	910083	keystroke_b	b	n/a
455.3715	0.105	910743	keystroke_e	e	n/a
455.7765	0.075	911553	keystroke_g	g	n/a
455.9265	0.09	911853	keystroke_u	u	n/a
456.1815	0.165	912363	keystroke_n	n	n/a
456.2865	0.165	912573	keystroke_Key.space	Key.space	n/a
456.6015	0.09	913203	keystroke_g	g	n/a
456.7065	0.135	913413	keystroke_u	u	n/a
456.8265	0.12	913653	keystroke_a	a	n/a
456.8715	0.3	913743	keystroke_r	r	n/a
457.0515	0.15	914103	keystroke_d	d	n/a
457.1415	0.12	914283	keystroke_s	s	n/a
458.041	0.135	916082	keystroke_Key.enter	Key.enter	n/a
458.1835	7.09	916367	prompt	n/a	puzzles stand palm asks\n
459.046	0.12	918092	keystroke_p	p	n/a
459.211	0.105	918422	keystroke_u	u	n/a
459.301	0.105	918602	keystroke_z	z	n/a
459.466	0.135	918932	keystroke_z	z	n/a
459.586	0.135	919172	keystroke_l	l	n/a
459.766	0.15	919532	keystroke_e	e	n/a
459.886	0.105	919772	keystroke_s	s	n/a
460.006	0.135	920012	keystroke_Key.space	Key.space	n/a
460.261	0.09	920522	keystroke_s	s	n/a
460.411	0.12	920822	keystroke_t	t	n/a
460.501	0.075	921002	keystroke_a	a	n/a
460.5915	0.1195	921183	keystroke_n	n	n/a
460.726	0.0895	921452	keystroke_d	d	n/a
462.934	0.087	925868	keystroke_Key.space	Key.space	n/a
463.1865	0.12	926373	keystroke_p	p	n/a
463.2905	0.091	926581	keystroke_a	a	n/a
463.441	0.15	926882	keystroke_l	l	n/a
463.636	0.15	927272	keystroke_m	m	n/a
464.011	0.1505	928022	keystroke_Key.space	Key.space	n/a
464.1615	0.15	928323	keystroke_a	a	n/a
464.2665	0.135	928533	keystroke_s	s	n/a
464.3415	0.1355	928683	keystroke_k	k	n/a
464.4915	0.09	928983	keystroke_s	s	n/a
465.1365	0.135	930273	keystroke_Key.enter	Key.enter	n/a
465.2785	7.42	930557	prompt	n/a	principle attach sterling farm\n
466.4265	0.12	932853	keystroke_p	p	n/a
466.5765	0.09	933153	keystroke_r	r	n/a
466.6965	0.15	933393	keystroke_i	i	n/a
466.7715	0.15	933543	keystroke_n	n	n/a
466.9065	0.105	933813	keystroke_c	c	n/a
467.0115	0.12	934023	keystroke_i	i	n/a
467.2215	0.15	934443	keystroke_p	p	n/a
467.3565	0.135	934713	keystroke_l	l	n/a
467.4765	0.075	934953	keystroke_e	e	n/a
467.6115	0.134	935223	keystroke_Key.space	Key.space	n/a
467.8815	0.075	935763	keystroke_a	a	n/a
468.0615	0.075	936123	keystroke_t	t	n/a
468.2415	0.105	936483	keystroke_t	t	n/a
468.3915	0.06	936783	keystroke_a	a	n/a
468.5865	0.075	937173	keystroke_c	c	n/a
468.6615	0.15	937323	keystroke_h	h	n/a
468.7815	0.134	937563	keystroke_Key.space	Key.space	n/a
469.0365	0.12	938073	keystroke_s	s	n/a
469.3815	0.075	938763	keystroke_t	t	n/a
469.5615	0.135	939123	keystroke_e	e	n/a
469.6815	0.105	939363	keystroke_r	r	n/a
470.1465	0.105	940293	keystroke_l	l	n/a
470.3415	0.165	940683	keystroke_i	i	n/a
470.4465	0.18	940893	keystroke_n	n	n/a
470.5815	0.06	941163	keystroke_g	g	n/a
471.0315	0.15	942063	keystroke_Key.space	Key.space	n/a
471.2115	0.075	942423	keystroke_f	f	n/a
471.4065	0.24	942813	keystroke_a	a	n/a
471.5865	0.15	943173	keystroke_r	r	n/a
471.7065	0.135	943413	keystroke_m	m	n/a
472.5765	0.119	945153	keystroke_Key.enter	Key.enter	n/a
472.706	5.8115	945412	prompt	n/a	foster sight prior webmaster\n
473.3715	0.09	946743	keystroke_f	f	n/a
473.5215	0.105	947043	keystroke_o	o	n/a
473.6115	0.12	947223	keystroke_s	s	n/a
473.7765	0.105	947553	keystroke_t	t	n/a
473.9415	0.135	947883	keystroke_e	e	n/a
474.0465	0.105	948093	keystroke_r	r	n/a
474.1065	0.12	948213	keystroke_Key.space	Key.space	n/a
474.2415	0.105	948483	keystroke_s	s	n/a
474.3615	0.06	948723	keystroke_i	i	n/a
474.4365	0.09	948873	keystroke_g	g	n/a
474.5565	0.105	949113	keystroke_h	h	n/a
474.7065	0.075	949413	keystroke_t	t	n/a
474.9155	0.136	949831	keystroke_Key.space	Key.space	n/a
475.2315	0.12	950463	keystroke_p	p	n/a
475.3665	0.075	950733	keystroke_r	r	n/a
475.4865	0.15	950973	keystroke_i	i	n/a
475.6215	0.135	951243	keystroke_o	o	n/a
475.8165	0.09	951633	keystroke_r	r	n/a
475.9365	0.15	951873	keystroke_Key.space	Key.space	n/a
476.4315	0.105	952863	keystroke_w	w	n/a
476.6265	0.105	953253	keystroke_e	e	n/a
476.8815	0.075	953763	keystroke_b	b	n/a
477.1365	0.12	954273	keystroke_m	m	n/a
477.4065	0.06	954813	keystroke_a	a	n/a
477.4215	0.165	954843	keystroke_s	s	n/a
477.7065	0.09	955413	keystroke_t	t	n/a
477.8865	0.12	955773	keystroke_e	e	n/a
477.9765	0.09	955953	keystroke_r	r	n/a
478.3815	0.135	956763	keystroke_Key.enter	Key.enter	n/a
478.523	9.8645	957046	prompt	n/a	automobiles equations shipments date\n
479.5215	0.09	959043	keystroke_q	q	n/a
479.6265	0.12	959253	keystroke_u	u	n/a
479.7915	0.075	959583	keystroke_t	t	n/a
479.9265	0.105	959853	keystroke_o	o	n/a
480.3015	0.045	960603	keystroke_Key.backspace	Key.backspace	n/a
480.4515	0.075	960903	keystroke_Key.backspace	Key.backspace	n/a
480.6165	0.075	961233	keystroke_Key.backspace	Key.backspace	n/a
480.7815	0.105	961563	keystroke_Key.backspace	Key.backspace	n/a
480.9315	0.12	961863	keystroke_a	a	n/a
481.0665	0.12	962133	keystroke_u	u	n/a
481.2765	0.075	962553	keystroke_t	t	n/a
481.3965	0.105	962793	keystroke_o	o	n/a
481.6365	0.12	963273	keystroke_m	m	n/a
481.8615	0.075	963723	keystroke_o	o	n/a
481.9665	0.12	963933	keystroke_b	b	n/a
482.0715	0.105	964143	keystroke_i	i	n/a
482.2815	0.105	964563	keystroke_l	l	n/a
482.3715	0.165	964743	keystroke_e	e	n/a
482.4915	0.12	964983	keystroke_s	s	n/a
482.6715	0.165	965343	keystroke_Key.space	Key.space	n/a
483.5865	0.09	967173	keystroke_e	e	n/a
483.8265	0.09	967653	keystroke_q	q	n/a
483.9315	0.15	967863	keystroke_u	u	n/a
484.3815	0.12	968763	keystroke_a	a	n/a
484.5465	0.12	969093	keystroke_t	t	n/a
484.6815	0.135	969363	keystroke_i	i	n/a
484.7865	0.21	969573	keystroke_o	o	n/a
484.9065	0.18	969813	keystroke_n	n	n/a
485.0565	0.09	970113	keystroke_s	s	n/a
485.6565	0.12	971313	keystroke_Key.space	Key.space	n/a
485.9715	0.09	971943	keystroke_s	s	n/a
486.0465	0.135	972093	keystroke_h	h	n/a
486.1665	0.12	972333	keystroke_i	i	n/a
486.3015	0.135	972603	keystroke_p	p	n/a
486.4965	0.12	972993	keystroke_m	m	n/a
486.6015	0.09	973203	keystroke_e	e	n/a
486.7065	0.135	973413	keystroke_n	n	n/a
486.8115	0.135	973623	keystroke_t	t	n/a
486.9015	0.135	973803	keystroke_s	s	n/a
487.0665	0.15	974133	keystroke_Key.space	Key.space	n/a
487.3215	0.09	974643	keystroke_d	d	n/a
487.4865	0.195	974973	keystroke_a	a	n/a
487.6665	0.105	975333	keystroke_t	t	n/a
487.8765	0.075	975753	keystroke_e	e	n/a
488.236	0.15	976472	keystroke_Key.enter	Key.enter	n/a
488.3925	6.281	976785	prompt	n/a	indicator specified series almost\n
489.271	0.165	978542	keystroke_i	i	n/a
489.376	0.135	978752	keystroke_n	n	n/a
489.481	0.075	978962	keystroke_d	d	n/a
489.571	0.15	979142	keystroke_i	i	n/a
489.706	0.09	979412	keystroke_c	c	n/a
489.886	0.15	979772	keystroke_a	a	n/a
489.991	0.0905	979982	keystroke_t	t	n/a
490.1415	0.105	980283	keystroke_o	o	n/a
490.3365	0.045	980673	keystroke_r	r	n/a
490.9815	0.135	981963	keystroke_Key.space	Key.space	n/a
491.2365	0.105	982473	keystroke_s	s	n/a
491.3565	0.135	982713	keystroke_p	p	n/a
491.4765	0.075	982953	keystroke_e	e	n/a
491.6865	0.09	983373	keystroke_c	c	n/a
491.8065	0.075	983613	keystroke_i	i	n/a
491.9115	0.09	983823	keystroke_f	f	n/a
492.0465	0.119	984093	keystroke_i	i	n/a
492.1815	0.075	984363	keystroke_e	e	n/a
492.3905	0.075	984781	keystroke_d	d	n/a
492.4515	0.15	984903	keystroke_Key.space	Key.space	n/a
492.8265	0.09	985653	keystroke_s	s	n/a
492.9905	0.12	985981	keystroke_e	e	n/a
493.0515	0.12	986103	keystroke_r	r	n/a
493.1565	0.12	986313	keystroke_i	i	n/a
493.2465	0.15	986493	keystroke_e	e	n/a
493.3655	0.136	986731	keystroke_s	s	n/a
493.5015	0.089	987003	keystroke_Key.space	Key.space	n/a
493.6515	0.105	987303	keystroke_a	a	n/a
493.7415	0.12	987483	keystroke_l	l	n/a
493.8465	0.195	987693	keystroke_m	m	n/a
493.9965	0.12	987993	keystroke_o	o	n/a
494.0715	0.135	988143	keystroke_s	s	n/a
494.1465	0.089	988293	keystroke_t	t	n/a
494.5515	0.119	989103	keystroke_Key.enter	Key.enter	n/a
494.679	5.9645	989358	prompt	n/a	shouldn't camping pounds extent\n
495.4515	0.089	990903	keystroke_s	s	n/a
495.5565	0.075	991113	keystroke_h	h	n/a
495.6615	0.09	991323	keystroke_o	o	n/a
495.7665	0.12	991533	keystroke_u	u	n/a
495.8265	0.15	991653	keystroke_l	l	n/a
495.9015	0.104	991803	keystroke_d	d	n/a
496.0215	0.195	992043	keystroke_n	n	n/a
496.1105	0.166	992221	keystroke_'	'	n/a
496.1865	0.09	992373	keystroke_t	t	n/a
496.2905	0.15	992581	keystroke_Key.space	Key.space	n/a
496.5015	0.075	993003	keystroke_c	c	n/a
496.6665	0.12	993333	keystroke_a	a	n/a
496.7265	0.18	993453	keystroke_m	m	n/a
496.8615	0.105	993723	keystroke_p	p	n/a
496.9965	0.18	993993	keystroke_i	i	n/a
497.1015	0.27	994203	keystroke_n	n	n/a
497.2065	0.075	994413	keystroke_g	g	n/a
497.3105	0.166	994621	keystroke_Key.space	Key.space	n/a
497.7765	0.105	995553	keystroke_p	p	n/a
497.9865	0.12	995973	keystroke_o	o	n/a
498.0615	0.105	996123	keystroke_u	u	n/a
498.2865	0.12	996573	keystroke_n	n	n/a
498.4215	0.15	996843	keystroke_d	d	n/a
498.5265	0.12	997053	keystroke_s	s	n/a
498.7355	0.135	997471	keystroke_Key.space	Key.space	n/a
499.2465	0.09	998493	keystroke_e	e	n/a
499.4715	0.075	998943	keystroke_x	x	n/a
499.6515	0.075	999303	keystroke_t	t	n/a
499.7865	0.09	999573	keystroke_e	e	n/a
499.8915	0.1495	999783	keystroke_n	n	n/a
500.071	0.075	1000142	keystroke_t	t	n/a
500.521	0.1205	1001042	keystroke_Key.enter	Key.enter	n/a
500.649	5.32	1001298	prompt	n/a	striking vocals mali storm\n
501.376	0.135	1002752	keystroke_s	s	n/a
501.481	0.06	1002962	keystroke_t	t	n/a
501.661	0.105	1003322	keystroke_r	r	n/a
501.736	0.09	1003472	keystroke_i	i	n/a
501.931	0.06	1003862	keystroke_k	k	n/a
502.066	0.18	1004132	keystroke_i	i	n/a
502.171	0.21	1004342	keystroke_n	n	n/a
502.231	0.105	1004462	keystroke_g	g	n/a
502.366	0.165	1004732	keystroke_Key.space	Key.space	n/a
502.606	0.105	1005212	keystroke_v	v	n/a
502.756	0.09	1005512	keystroke_o	o	n/a
502.861	0.06	1005722	keystroke_c	c	n/a
503.011	0.09	1006022	keystroke_a	a	n/a
503.086	0.105	1006172	keystroke_l	l	n/a
503.221	0.105	1006442	keystroke_s	s	n/a
503.386	0.135	1006772	keystroke_Key.space	Key.space	n/a
503.851	0.105	1007702	keystroke_m	m	n/a
503.986	0.075	1007972	keystroke_a	a	n/a
504.466	0.105	1008932	keystroke_l	l	n/a
504.691	0.09	1009382	keystroke_i	i	n/a
504.886	0.15	1009772	keystroke_Key.space	Key.space	n/a
505.066	0.09	1010132	keystroke_s	s	n/a
505.201	0.09	1010402	keystroke_t	t	n/a
505.306	0.09	1010612	keystroke_o	o	n/a
505.411	0.09	1010822	keystroke_r	r	n/a
505.516	0.12	1011032	keystroke_m	m	n/a
505.846	0.12	1011692	keystroke_Key.enter	Key.enter	n/a
505.9735	7.45	1011947	prompt	n/a	championships bathroom we'll government\n
506.716	0.12	1013432	keystroke_c	c	n/a
506.896	0.09	1013792	keystroke_h	h	n/a
506.971	0.105	1013942	keystroke_a	a	n/a
507.196	0.135	1014392	keystroke_m	m	n/a
507.271	0.12	1014542	keystroke_p	p	n/a
507.436	0.165	1014872	keystroke_i	i	n/a
507.556	0.15	1015112	keystroke_o	o	n/a
507.646	0.135	1015292	keystroke_n	n	n/a
507.796	0.09	1015592	keystroke_s	s	n/a
507.901	0.21	1015802	keystroke_h	h	n/a
507.961	0.165	1015922	keystroke_i	i	n/a
508.096	0.12	1016192	keystroke_p	p	n/a
508.171	0.09	1016342	keystroke_s	s	n/a
508.321	0.15	1016642	keystroke_Key.space	Key.space	n/a
508.786	0.105	1017572	keystroke_b	b	n/a
508.996	0.135	1017992	keystroke_a	a	n/a
509.071	0.105	1018142	keystroke_t	t	n/a
509.221	0.06	1018442	keystroke_h	h	n/a
509.296	0.105	1018592	keystroke_r	r	n/a
509.386	0.06	1018772	keystroke_o	o	n/a
509.536	0.18	1019072	keystroke_o	o	n/a
509.656	0.165	1019312	keystroke_m	m	n/a
509.761	0.15	1019522	keystroke_Key.space	Key.space	n/a
510.406	0.075	1020812	keystroke_w	w	n/a
510.586	0.09	1021172	keystroke_e	e	n/a
510.736	0.165	1021472	keystroke_'	'	n/a
510.916	0.075	1021832	keystroke_l	l	n/a
511.081	0.135	1022162	keystroke_l	l	n/a
511.201	0.135	1022402	keystroke_Key.space	Key.space	n/a
511.351	0.03	1022702	keystroke_g	g	n/a
511.486	0.075	1022972	keystroke_o	o	n/a
511.532	0.089	1023064	keystroke_v	v	n/a
511.681	0.12	1023362	keystroke_e	e	n/a
511.772	0.134	1023544	keystroke_r	r	n/a
511.921	0.105	1023842	keystroke_n	n	n/a
512.176	0.12	1024352	keystroke_m	m	n/a
512.281	0.105	1024562	keystroke_e	e	n/a
512.416	0.135	1024832	keystroke_n	n	n/a
512.491	0.09	1024982	keystroke_t	t	n/a
513.286	0.135	1026572	keystroke_Key.enter	Key.enter	n/a
513.429	5.994	1026858	prompt	n/a	banner prints enhanced poor\n
