onset	duration	sample	value	key	prompt_text
1.946	10.6645	3892	prompt	n/a	the quick brown fox jumps over a lazy dog\n
3.022	0.012	6044	keystroke_t	t	n/a
3.023	0.071	6046	keystroke_h	h	n/a
3.214	0.075	6428	keystroke_e	e	n/a
3.304	0.089	6608	keystroke_Key.space	Key.space	n/a
3.468	0.091	6936	keystroke_q	q	n/a
3.573	0.09	7146	keystroke_u	u	n/a
3.784	0.029	7568	keystroke_k	k	n/a
3.859	0.06	7718	keystroke_c	c	n/a
4.383	0.06	8766	keystroke_Key.backspace	Key.backspace	n/a
4.503	0.075	9006	keystroke_Key.backspace	Key.backspace	n/a
4.924	0.09	9848	keystroke_i	i	n/a
5.029	0.075	10058	keystroke_c	c	n/a
5.119	0.105	10238	keystroke_k	k	n/a
5.254	0.09	10508	keystroke_Key.space	Key.space	n/a
5.434	0.075	10868	keystroke_b	b	n/a
5.569	0.09	11138	keystroke_r	r	n/a
5.644	0.1195	11288	keystroke_o	o	n/a
5.824	0.045	11648	keystroke_w	w	n/a
5.854	0.0745	11708	keystroke_n	n	n/a
6.0635	0.09	12127	keystroke_Key.space	Key.space	n/a
6.2285	0.06	12457	keystroke_f	f	n/a
6.2735	0.12	12547	keystroke_o	o	n/a
6.486	0.09	12972	keystroke_x	x	n/a
6.561	0.075	13122	keystroke_Key.space	Key.space	n/a
6.666	0.09	13332	keystroke_j	j	n/a
6.816	0.105	13632	keystroke_u	u	n/a
7.026	0.09	14052	keystroke_m	m	n/a
7.281	0.045	14562	keystroke_s	s	n/a
7.791	0.06	15582	keystroke_Key.backspace	Key.backspace	n/a
8.331	0.09	16662	keystroke_p	p	n/a
8.436	0.09	16872	keystroke_s	s	n/a
8.571	0.09	17142	keystroke_Key.space	Key.space	n/a
8.676	0.075	17352	keystroke_v	v	n/a
8.841	0.075	17682	keystroke_e	e	n/a
9.006	0.06	18012	keystroke_r	r	n/a
9.171	0.09	18342	keystroke_Key.space	Key.space	n/a
9.441	0.075	18882	keystroke_Key.backspace	Key.backspace	n/a
9.5915	0.06	19183	keystroke_Key.backspace	Key.backspace	n/a
9.7265	0.075	19453	keystroke_Key.backspace	Key.backspace	n/a
9.8765	0.06	19753	keystroke_Key.backspace	Key.backspace	n/a
10.3865	0.075	20773	keystroke_o	o	n/a
10.4915	0.09	20983	keystroke_v	v	n/a
10.6715	0.06	21343	keystroke_e	e	n/a
10.8365	0.075	21673	keystroke_r	r	n/a
10.9415	0.09	21883	keystroke_Key.space	Key.space	n/a
11.1515	0.075	22303	keystroke_a	a	n/a
11.2565	0.06	22513	keystroke_Key.space	Key.space	n/a
11.3915	0.075	22783	keystroke_l	l	n/a
11.4515	0.075	22903	keystroke_a	a	n/a
11.6465	0.1195	23293	keystroke_z	z	n/a
11.796	0.105	23592	keystroke_y	y	n/a
12.0215	0.075	24043	keystroke_Key.space	Key.space	n/a
12.1415	0.0905	24283	keystroke_d	d	n/a
12.233	0.074	24466	keystroke_o	o	n/a
12.352	0.075	24704	keystroke_g	g	n/a
12.532	0.0745	25064	keystroke_Key.enter	Key.enter	n/a
12.6165	4.942	25233	prompt	n/a	genres blind meter musicians\n
13.627	0.075	27254	keystroke_g	g	n/a
13.777	0.135	27554	keystroke_e	e	n/a
13.867	0.0895	27734	keystroke_n	n	n/a
14.0615	0.1355	28123	keystroke_r	r	n/a
14.1515	0.06	28303	keystroke_e	e	n/a
14.3165	0.0755	28633	keystroke_s	s	n/a
14.407	0.06	28814	keystroke_Key.space	Key.space	n/a
14.557	0.09	29114	keystroke_b	b	n/a
14.812	0.0895	29624	keystroke_l	l	n/a
15.0065	0.135	30013	keystroke_i	i	n/a
15.0965	0.121	30193	keystroke_n	n	n/a
15.2325	0.1185	30465	keystroke_d	d	n/a
15.336	0.09	30672	keystroke_Key.space	Key.space	n/a
15.502	0.104	31004	keystroke_m	m	n/a
15.546	0.12	31092	keystroke_e	e	n/a
15.726	0.106	31452	keystroke_t	t	n/a
15.846	0.091	31692	keystroke_e	e	n/a
15.982	0.09	31964	keystroke_r	r	n/a
16.101	0.06	32202	keystroke_Key.space	Key.space	n/a
16.266	0.105	32532	keystroke_m	m	n/a
16.477	0.074	32954	keystroke_u	u	n/a
16.596	0.091	33192	keystroke_s	s	n/a
16.851	0.075	33702	keystroke_i	i	n/a
16.941	0.061	33882	keystroke_c	c	n/a
17.017	0.105	34034	keystroke_i	i	n/a
17.136	0.06	34272	keystroke_a	a	n/a
17.182	0.074	34364	keystroke_n	n	n/a
17.331	0.0905	34662	keystroke_s	s	n/a
17.4665	0.09	34933	keystroke_Key.enter	Key.enter	n/a
17.563	5.726	35126	prompt	n/a	drawings voice announce cruise\n
18.2015	0.075	36403	keystroke_f	f	n/a
18.6365	0.075	37273	keystroke_Key.backspace	Key.backspace	n/a
18.7565	0.075	37513	keystroke_d	d	n/a
18.9365	0.03	37873	keystroke_r	r	n/a
19.1165	0.06	38233	keystroke_a	a	n/a
19.281	0.09	38562	keystroke_w	w	n/a
19.386	0.121	38772	keystroke_i	i	n/a
19.477	0.119	38954	keystroke_n	n	n/a
19.551	0.0755	39102	keystroke_g	g	n/a
19.7165	0.06	39433	keystroke_s	s	n/a
19.8215	0.105	39643	keystroke_Key.space	Key.space	n/a
20.0915	0.075	40183	keystroke_v	v	n/a
20.1815	0.06	40363	keystroke_o	o	n/a
20.3165	0.09	40633	keystroke_i	i	n/a
20.3915	0.1055	40783	keystroke_c	c	n/a
20.602	0.105	41204	keystroke_e	e	n/a
20.781	0.106	41562	keystroke_Key.space	Key.space	n/a
20.947	0.09	41894	keystroke_a	a	n/a
21.127	0.06	42254	keystroke_n	n	n/a
21.292	0.045	42584	keystroke_n	n	n/a
21.532	0.0895	43064	keystroke_o	o	n/a
21.727	0.1045	43454	keystroke_u	u	n/a
21.892	0.09	43784	keystroke_n	n	n/a
21.997	0.075	43994	keystroke_c	c	n/a
22.147	0.09	44294	keystroke_e	e	n/a
22.252	0.09	44504	keystroke_Key.space	Key.space	n/a
22.387	0.06	44774	keystroke_c	c	n/a
22.552	0.09	45104	keystroke_r	r	n/a
22.657	0.06	45314	keystroke_u	u	n/a
22.807	0.06	45614	keystroke_i	i	n/a
22.912	0.06	45824	keystroke_s	s	n/a
23.047	0.12	46094	keystroke_e	e	n/a
23.182	0.105	46364	keystroke_Key.enter	Key.enter	n/a
23.2945	6.205	46589	prompt	n/a	luther white gnome drew\n
23.902	0.06	47804	keystroke_l	l	n/a
24.217	0.075	48434	keystroke_u	u	n/a
24.307	0.075	48614	keystroke_t	t	n/a
24.396	0.106	48792	keystroke_h	h	n/a
24.517	0.0895	49034	keystroke_e	e	n/a
24.6815	0.075	49363	keystroke_r	r	n/a
24.8165	0.09	49633	keystroke_Key.space	Key.space	n/a
24.9375	0.105	49875	keystroke_w	w	n/a
25.0265	0.076	50053	keystroke_h	h	n/a
25.1915	0.105	50383	keystroke_i	i	n/a
25.2815	0.105	50563	keystroke_t	t	n/a
25.4165	0.12	50833	keystroke_e	e	n/a
25.5815	0.105	51163	keystroke_Key.space	Key.space	n/a
26.0315	0.075	52063	keystroke_g	g	n/a
26.6615	0.045	53323	keystroke_n	n	n/a
27.7265	0.135	55453	keystroke_o	o	n/a
27.8765	0.0905	55753	keystroke_m	m	n/a
28.012	0.105	56024	keystroke_e	e	n/a
28.162	0.105	56324	keystroke_Key.space	Key.space	n/a
28.657	0.09	57314	keystroke_d	d	n/a
28.777	0.09	57554	keystroke_i	i	n/a
28.897	0.09	57794	keystroke_r	r	n/a
29.137	0.135	58274	keystroke_e	e	n/a
29.227	0.0895	58454	keystroke_w	w	n/a
29.4065	0.09	58813	keystroke_Key.enter	Key.enter	n/a
29.5045	5.364	59009	prompt	n/a	infection venues height possibility\n
30.1565	0.15	60313	keystroke_i	i	n/a
30.2615	0.12	60523	keystroke_n	n	n/a
30.3215	0.075	60643	keystroke_f	f	n/a
30.3975	0.089	60795	keystroke_e	e	n/a
30.5465	0.09	61093	keystroke_c	c	n/a
30.7865	0.06	61573	keystroke_t	t	n/a
30.8315	0.09	61663	keystroke_i	i	n/a
30.9965	0.135	61993	keystroke_o	o	n/a
31.1015	0.09	62203	keystroke_n	n	n/a
31.2965	0.09	62593	keystroke_Key.space	Key.space	n/a
31.3715	0.09	62743	keystroke_v	v	n/a
31.5515	0.06	63103	keystroke_e	e	n/a
31.5965	0.105	63193	keystroke_n	n	n/a
31.7615	0.105	63523	keystroke_u	u	n/a
31.8365	0.09	63673	keystroke_e	e	n/a
32.0015	0.075	64003	keystroke_s	s	n/a
32.1365	0.075	64273	keystroke_Key.space	Key.space	n/a
32.2715	0.09	64543	keystroke_h	h	n/a
32.3765	0.09	64753	keystroke_e	e	n/a
32.4975	0.059	64995	keystroke_i	i	n/a
32.6015	0.075	65203	keystroke_g	g	n/a
32.6765	0.121	65353	keystroke_h	h	n/a
32.8115	0.06	65623	keystroke_t	t	n/a
32.9315	0.09	65863	keystroke_Key.space	Key.space	n/a
33.2165	0.09	66433	keystroke_p	p	n/a
33.4115	0.105	66823	keystroke_o	o	n/a
33.5465	0.06	67093	keystroke_s	s	n/a
33.6965	0.06	67393	keystroke_s	s	n/a
33.8015	0.075	67603	keystroke_i	i	n/a
33.8915	0.075	67783	keystroke_b	b	n/a
33.9815	0.09	67963	keystroke_i	i	n/a
34.1915	0.09	68383	keystroke_l	l	n/a
34.3715	0.075	68743	keystroke_i	i	n/a
34.4615	0.09	68923	keystroke_t	t	n/a
34.5965	0.09	69193	keystroke_y	y	n/a
34.7765	0.09	69553	keystroke_Key.enter	Key.enter	n/a
34.874	4.7345	69748	prompt	n/a	bands context kansas visitor\n
35.5115	0.09	71023	keystroke_b	b	n/a
35.6315	0.06	71263	keystroke_a	a	n/a
35.7215	0.09	71443	keystroke_n	n	n/a
35.8415	0.15	71683	keystroke_d	d	n/a
35.9465	0.105	71893	keystroke_s	s	n/a
36.1265	0.09	72253	keystroke_Key.space	Key.space	n/a
36.3665	0.09	72733	keystroke_c	c	n/a
36.4415	0.12	72883	keystroke_o	o	n/a
36.5015	0.135	73003	keystroke_n	n	n/a
36.6815	0.105	73363	keystroke_t	t	n/a
36.7565	0.105	73513	keystroke_e	e	n/a
37.1015	0.09	74203	keystroke_x	x	n/a
37.2065	0.09	74413	keystroke_t	t	n/a
37.4315	0.105	74863	keystroke_Key.space	Key.space	n/a
37.6565	0.075	75313	keystroke_k	k	n/a
37.7615	0.09	75523	keystroke_a	a	n/a
37.8815	0.09	75763	keystroke_n	n	n/a
37.9865	0.12	75973	keystroke_s	s	n/a
38.0765	0.135	76153	keystroke_a	a	n/a
38.2565	0.075	76513	keystroke_Key.space	Key.space	n/a
38.4665	0.06	76933	keystroke_v	v	n/a
38.6165	0.09	77233	keystroke_i	i	n/a
38.7215	0.075	77443	keystroke_s	s	n/a
38.8115	0.075	77623	keystroke_i	i	n/a
38.9615	0.075	77923	keystroke_t	t	n/a
39.2465	0.075	78493	keystroke_o	o	n/a
39.3365	0.09	78673	keystroke_r	r	n/a
39.5315	0.075	79063	keystroke_Key.enter	Key.enter	n/a
39.6135	7.4505	79227	prompt	n/a	florists statistics transcript heather\n
40.4015	0.075	80803	keystroke_f	f	n/a
40.5665	0.105	81133	keystroke_l	l	n/a
40.7615	0.075	81523	keystroke_o	o	n/a
40.8515	0.075	81703	keystroke_r	r	n/a
40.9415	0.075	81883	keystroke_i	i	n/a
41.0465	0.09	82093	keystroke_s	s	n/a
41.2415	0.075	82483	keystroke_t	t	n/a
41.4215	0.075	82843	keystroke_s	s	n/a
41.5715	0.09	83143	keystroke_Key.space	Key.space	n/a
41.6625	0.104	83325	keystroke_s	s	n/a
41.8565	0.045	83713	keystroke_t	t	n/a
42.0215	0.105	84043	keystroke_a	a	n/a
42.2465	0.075	84493	keystroke_t	t	n/a
42.4115	0.09	84823	keystroke_i	i	n/a
42.5315	0.075	85063	keystroke_s	s	n/a
42.6665	0.06	85333	keystroke_t	t	n/a
42.7415	0.06	85483	keystroke_i	i	n/a
43.1765	0.12	86353	keystroke_c	c	n/a
43.2815	0.12	86563	keystroke_s	s	n/a
43.4165	0.09	86833	keystroke_Key.space	Key.space	n/a
43.5665	0.105	87133	keystroke_t	t	n/a
43.6865	0.075	87373	keystroke_r	r	n/a
43.9115	0.045	87823	keystroke_a	a	n/a
44.0765	0.06	88153	keystroke_s	s	n/a
44.6915	0.03	89383	keystroke_Key.backspace	Key.backspace	n/a
44.8865	0.105	89773	keystroke_n	n	n/a
44.9465	0.09	89893	keystroke_s	s	n/a
45.1415	0.09	90283	keystroke_c	c	n/a
45.3375	0.074	90675	keystroke_r	r	n/a
45.4265	0.075	90853	keystroke_i	i	n/a
45.6815	0.015	91363	keystroke_p	p	n/a
45.7115	0.045	91423	keystroke_t	t	n/a
45.8315	0.12	91663	keystroke_Key.space	Key.space	n/a
46.0265	0.09	92053	keystroke_h	h	n/a
46.1315	0.075	92263	keystroke_e	e	n/a
46.3115	0.09	92623	keystroke_a	a	n/a
46.5215	0.075	93043	keystroke_t	t	n/a
46.6115	0.06	93223	keystroke_h	h	n/a
46.6865	0.09	93373	keystroke_e	e	n/a
46.8215	0.0895	93643	keystroke_r	r	n/a
46.9565	0.1045	93913	keystroke_Key.enter	Key.enter	n/a
47.0725	4.5985	94145	prompt	n/a	walks timber privacy corps\n
47.616	0.09	95232	keystroke_w	w	n/a
47.7965	0.0595	95593	keystroke_a	a	n/a
47.886	0.06	95772	keystroke_l	l	n/a
48.036	0.0755	96072	keystroke_k	k	n/a
48.1415	0.1045	96283	keystroke_s	s	n/a
48.261	0.1205	96522	keystroke_Key.space	Key.space	n/a
48.441	0.0605	96882	keystroke_t	t	n/a
48.741	0.075	97482	keystroke_i	i	n/a
48.876	0.1205	97752	keystroke_m	m	n/a
48.981	0.0455	97962	keystroke_b	b	n/a
49.1615	0.045	98323	keystroke_e	e	n/a
49.3265	0.045	98653	keystroke_r	r	n/a
49.3865	0.09	98773	keystroke_Key.space	Key.space	n/a
49.5815	0.09	99163	keystroke_p	p	n/a
49.6865	0.09	99373	keystroke_r	r	n/a
49.7915	0.09	99583	keystroke_i	i	n/a
49.9115	0.075	99823	keystroke_v	v	n/a
50.1065	0.09	100213	keystroke_a	a	n/a
50.3015	0.075	100603	keystroke_c	c	n/a
50.4215	0.12	100843	keystroke_y	y	n/a
50.6765	0.075	101353	keystroke_Key.space	Key.space	n/a
50.8565	0.075	101713	keystroke_c	c	n/a
50.9465	0.09	101893	keystroke_o	o	n/a
51.0965	0.075	102193	keystroke_r	r	n/a
51.2165	0.06	102433	keystroke_p	p	n/a
51.3665	0.06	102733	keystroke_s	s	n/a
51.5615	0.105	103123	keystroke_Key.enter	Key.enter	n/a
51.6755	5.0175	103351	prompt	n/a	resume shooting choice inspector\n
52.3565	0.105	104713	keystroke_r	r	n/a
52.431	0.06	104862	keystroke_e	e	n/a
52.5965	0.075	105193	keystroke_s	s	n/a
52.6865	0.105	105373	keystroke_u	u	n/a
52.8965	0.09	105793	keystroke_m	m	n/a
53.0015	0.06	106003	keystroke_e	e	n/a
53.0915	0.105	106183	keystroke_Key.space	Key.space	n/a
53.2115	0.06	106423	keystroke_s	s	n/a
53.2865	0.105	106573	keystroke_h	h	n/a
53.5415	0.06	107083	keystroke_o	o	n/a
53.6615	0.075	107323	keystroke_o	o	n/a
53.7515	0.09	107503	keystroke_t	t	n/a
53.8565	0.105	107713	keystroke_i	i	n/a
53.9315	0.105	107863	keystroke_n	n	n/a
54.0065	0.06	108013	keystroke_g	g	n/a
54.1565	0.1045	108313	keystroke_Key.space	Key.space	n/a
54.3215	0.075	108643	keystroke_c	c	n/a
54.411	0.0605	108822	keystroke_h	h	n/a
54.651	0.0605	109302	keystroke_o	o	n/a
54.7865	0.105	109573	keystroke_i	i	n/a
54.8765	0.0595	109753	keystroke_c	c	n/a
55.0415	0.075	110083	keystroke_e	e	n/a
55.1765	0.09	110353	keystroke_Key.space	Key.space	n/a
55.3865	0.135	110773	keystroke_i	i	n/a
55.4615	0.12	110923	keystroke_n	n	n/a
55.5815	0.075	111163	keystroke_s	s	n/a
55.6865	0.105	111373	keystroke_p	p	n/a
55.7765	0.09	111553	keystroke_e	e	n/a
56.0165	0.1345	112033	keystroke_c	c	n/a
56.2715	0.075	112543	keystroke_t	t	n/a
56.3615	0.075	112723	keystroke_o	o	n/a
56.4665	0.075	112933	keystroke_r	r	n/a
56.6015	0.09	113203	keystroke_Key.enter	Key.enter	n/a
56.6985	8.801	113397	prompt	n/a	stating stockings dealers evaluate\n
57.2915	0.075	114583	keystroke_s	s	n/a
57.4865	0.06	114973	keystroke_t	t	n/a
57.652	0.0745	115304	keystroke_a	a	n/a
57.8315	0.09	115663	keystroke_t	t	n/a
57.9065	0.15	115813	keystroke_i	i	n/a
58.0115	0.105	116023	keystroke_n	n	n/a
58.0865	0.09	116173	keystroke_g	g	n/a
58.2515	0.09	116503	keystroke_Key.space	Key.space	n/a
58.326	0.0905	116652	keystroke_s	s	n/a
58.5515	0.09	117103	keystroke_t	t	n/a
58.671	0.1055	117342	keystroke_o	o	n/a
58.866	0.075	117732	keystroke_c	c	n/a
59.031	0.0455	118062	keystroke_k	k	n/a
59.1515	0.15	118303	keystroke_i	i	n/a
59.2565	0.1195	118513	keystroke_n	n	n/a
59.406	0.075	118812	keystroke_g	g	n/a
59.6015	0.0595	119203	keystroke_s	s	n/a
59.691	0.12	119382	keystroke_Key.space	Key.space	n/a
59.826	0.06	119652	keystroke_d	d	n/a
59.962	0.074	119924	keystroke_e	e	n/a
60.141	0.135	120282	keystroke_l	l	n/a
60.156	0.06	120312	keystroke_a	a	n/a
60.397	0.089	120794	keystroke_e	e	n/a
60.516	0.09	121032	keystroke_r	r	n/a
60.681	0.06	121362	keystroke_s	s	n/a
62.271	0.06	124542	keystroke_Key.backspace	Key.backspace	n/a
62.406	0.045	124812	keystroke_Key.backspace	Key.backspace	n/a
62.541	0.06	125082	keystroke_Key.backspace	Key.backspace	n/a
62.676	0.045	125352	keystroke_Key.backspace	Key.backspace	n/a
62.826	0.045	125652	keystroke_Key.backspace	Key.backspace	n/a
63.216	0.09	126432	keystroke_a	a	n/a
63.336	0.075	126672	keystroke_l	l	n/a
63.471	0.09	126942	keystroke_e	e	n/a
63.591	0.075	127182	keystroke_r	r	n/a
63.711	0.09	127422	keystroke_s	s	n/a
63.846	0.105	127692	keystroke_Key.space	Key.space	n/a
63.996	0.075	127992	keystroke_e	e	n/a
64.281	0.06	128562	keystroke_v	v	n/a
64.476	0.045	128952	keystroke_a	a	n/a
64.536	0.09	129072	keystroke_l	l	n/a
64.776	0.075	129552	keystroke_u	u	n/a
64.866	0.09	129732	keystroke_a	a	n/a
65.121	0.105	130242	keystroke_t	t	n/a
65.196	0.15	130392	keystroke_e	e	n/a
65.421	0.075	130842	keystroke_Key.enter	Key.enter	n/a
65.504	6.399	131008	prompt	n/a	dealer assured advertisement career\n
66.141	0.075	132282	keystroke_d	d	n/a
66.261	0.075	132522	keystroke_e	e	n/a
66.456	0.06	132912	keystroke_a	a	n/a
66.561	0.075	133122	keystroke_l	l	n/a
66.681	0.09	133362	keystroke_e	e	n/a
66.831	0.075	133662	keystroke_r	r	n/a
66.966	0.09	133932	keystroke_Key.space	Key.space	n/a
67.086	0.075	134172	keystroke_a	a	n/a
67.296	0.06	134592	keystroke_s	s	n/a
67.446	0.06	134892	keystroke_s	s	n/a
67.566	0.09	135132	keystroke_u	u	n/a
67.686	0.09	135372	keystroke_r	r	n/a
67.761	0.06	135522	keystroke_e	e	n/a
67.956	0.075	135912	keystroke_d	d	n/a
68.091	0.09	136182	keystroke_Key.space	Key.space	n/a
68.211	0.06	136422	keystroke_a	a	n/a
68.346	0.075	136692	keystroke_d	d	n/a
68.571	0.06	137142	keystroke_v	v	n/a
68.736	0.105	137472	keystroke_e	e	n/a
69.051	0.105	138102	keystroke_r	r	n/a
69.501	0.03	139002	keystroke_t	t	n/a
69.576	0.105	139152	keystroke_i	i	n/a
69.741	0.075	139482	keystroke_s	s	n/a
69.936	0.06	139872	keystroke_e	e	n/a
70.041	0.075	140082	keystroke_m	m	n/a
70.101	0.06	140202	keystroke_e	e	n/a
70.191	0.09	140382	keystroke_n	n	n/a
70.296	0.09	140592	keystroke_t	t	n/a
70.476	0.09	140952	keystroke_Key.space	Key.space	n/a
70.657	0.059	141314	keystroke_c	c	n/a
70.791	0.075	141582	keystroke_a	a	n/a
71.046	0.075	142092	keystroke_r	r	n/a
71.256	0.06	142512	keystroke_e	e	n/a
71.391	0.06	142782	keystroke_e	e	n/a
71.541	0.06	143082	keystroke_r	r	n/a
71.826	0.075	143652	keystroke_Key.enter	Key.enter	n/a
71.9085	4.42	143817	prompt	n/a	charged acute eugene a\n
72.577	0.075	145154	keystroke_c	c	n/a
72.681	0.09	145362	keystroke_h	h	n/a
72.756	0.06	145512	keystroke_a	a	n/a
72.891	0.075	145782	keystroke_r	r	n/a
73.101	0.06	146202	keystroke_g	g	n/a
73.191	0.06	146382	keystroke_e	e	n/a
73.401	0.075	146802	keystroke_d	d	n/a
73.551	0.105	147102	keystroke_Key.space	Key.space	n/a
73.941	0.06	147882	keystroke_a	a	n/a
74.106	0.06	148212	keystroke_c	c	n/a
74.331	0.09	148662	keystroke_u	u	n/a
74.451	0.12	148902	keystroke_t	t	n/a
74.572	0.089	149144	keystroke_e	e	n/a
74.766	0.09	149532	keystroke_Key.space	Key.space	n/a
75.111	0.075	150222	keystroke_e	e	n/a
75.201	0.09	150402	keystroke_u	u	n/a
75.351	0.075	150702	keystroke_g	g	n/a
75.531	0.09	151062	keystroke_e	e	n/a
75.606	0.09	151212	keystroke_n	n	n/a
75.681	0.075	151362	keystroke_e	e	n/a
75.906	0.105	151812	keystroke_Key.space	Key.space	n/a
76.056	0.075	152112	keystroke_a	a	n/a
76.251	0.075	152502	keystroke_Key.enter	Key.enter	n/a
76.3335	5.6345	152667	prompt	n/a	tobacco browsing honda upload\n
77.016	0.075	154032	keystroke_t	t	n/a
77.121	0.091	154242	keystroke_o	o	n/a
77.346	0.045	154692	keystroke_b	b	n/a
77.556	0.091	155112	keystroke_a	a	n/a
77.811	0.045	155622	keystroke_c	c	n/a
77.932	0.059	155864	keystroke_c	c	n/a
78.036	0.09	156072	keystroke_o	o	n/a
78.246	0.105	156492	keystroke_Key.space	Key.space	n/a
78.381	0.075	156762	keystroke_b	b	n/a
78.502	0.075	157004	keystroke_r	r	n/a
78.577	0.09	157154	keystroke_o	o	n/a
78.726	0.061	157452	keystroke_w	w	n/a
78.951	0.105	157902	keystroke_s	s	n/a
79.011	0.18	158022	keystroke_i	i	n/a
79.161	0.09	158322	keystroke_n	n	n/a
79.311	0.06	158622	keystroke_g	g	n/a
79.491	0.09	158982	keystroke_Key.space	Key.space	n/a
79.987	0.089	159974	keystroke_h	h	n/a
80.181	0.135	160362	keystroke_o	o	n/a
80.286	0.135	160572	keystroke_n	n	n/a
80.391	0.09	160782	keystroke_d	d	n/a
80.511	0.09	161022	keystroke_a	a	n/a
80.646	0.105	161292	keystroke_Key.space	Key.space	n/a
80.886	0.075	161772	keystroke_u	u	n/a
81.111	0.105	162222	keystroke_p	p	n/a
81.351	0.06	162702	keystroke_l	l	n/a
81.471	0.12	162942	keystroke_o	o	n/a
81.576	0.075	163152	keystroke_a	a	n/a
81.696	0.09	163392	keystroke_d	d	n/a
81.891	0.075	163782	keystroke_Key.enter	Key.enter	n/a
81.9735	3.9395	163947	prompt	n/a	plots chick senior live\n
82.566	0.09	165132	keystroke_p	p	n/a
82.806	0.12	165612	keystroke_l	l	n/a
82.986	0.105	165972	keystroke_o	o	n/a
83.106	0.075	166212	keystroke_t	t	n/a
83.347	0.059	166694	keystroke_s	s	n/a
83.466	0.09	166932	keystroke_Key.space	Key.space	n/a
83.616	0.075	167232	keystroke_c	c	n/a
83.721	0.09	167442	keystroke_h	h	n/a
83.916	0.075	167832	keystroke_i	i	n/a
84.006	0.045	168012	keystroke_c	c	n/a
84.096	0.091	168192	keystroke_k	k	n/a
84.306	0.075	168612	keystroke_Key.space	Key.space	n/a
84.397	0.074	168794	keystroke_s	s	n/a
84.591	0.046	169182	keystroke_e	e	n/a
84.651	0.075	169302	keystroke_n	n	n/a
84.772	0.104	169544	keystroke_i	i	n/a
84.966	0.06	169932	keystroke_o	o	n/a
85.027	0.059	170054	keystroke_r	r	n/a
85.146	0.091	170292	keystroke_Key.space	Key.space	n/a
85.312	0.074	170624	keystroke_l	l	n/a
85.491	0.075	170982	keystroke_i	i	n/a
85.581	0.12	171162	keystroke_v	v	n/a
85.716	0.15	171432	keystroke_e	e	n/a
85.836	0.075	171672	keystroke_Key.enter	Key.enter	n/a
85.918	8.08	171836	prompt	n/a	possibly results emissions grace\n
86.617	0.044	173234	keystroke_p	p	n/a
86.781	0.09	173562	keystroke_o	o	n/a
86.901	0.076	173802	keystroke_s	s	n/a
87.051	0.06	174102	keystroke_s	s	n/a
87.156	0.091	174312	keystroke_i	i	n/a
87.261	0.06	174522	keystroke_b	b	n/a
87.396	0.076	174792	keystroke_l	l	n/a
87.576	0.076	175152	keystroke_y	y	n/a
87.711	0.105	175422	keystroke_Key.space	Key.space	n/a
87.921	0.121	175842	keystroke_r	r	n/a
87.982	0.089	175964	keystroke_e	e	n/a
88.161	0.075	176322	keystroke_s	s	n/a
88.596	0.09	177192	keystroke_u	u	n/a
88.821	0.075	177642	keystroke_l	l	n/a
88.911	0.045	177822	keystroke_t	t	n/a
89.106	0.075	178212	keystroke_s	s	n/a
89.211	0.09	178422	keystroke_Key.space	Key.space	n/a
89.646	0.06	179292	keystroke_e	e	n/a
89.736	0.09	179472	keystroke_m	m	n/a
89.901	0.09	179802	keystroke_i	i	n/a
90.021	0.06	180042	keystroke_s	s	n/a
90.156	0.06	180312	keystroke_s	s	n/a
90.426	0.061	180852	keystroke_i	i	n/a
90.516	0.06	181032	keystroke_i	i	n/a
90.681	0.121	181362	keystroke_o	o	n/a
90.816	0.12	181632	keystroke_n	n	n/a
91.251	0.06	182502	keystroke_Key.backspace	Key.backspace	n/a
91.371	0.075	182742	keystroke_Key.backspace	Key.backspace	n/a
92.076	0.075	184152	keystroke_Key.backspace	Key.backspace	n/a
92.331	0.181	184662	keystroke_o	o	n/a
92.481	0.105	184962	keystroke_n	n	n/a
92.601	0.09	185202	keystroke_s	s	n/a
92.706	0.09	185412	keystroke_Key.space	Key.space	n/a
92.871	0.031	185742	keystroke_g	g	n/a
93.171	0.09	186342	keystroke_r	r	n/a
93.396	0.075	186792	keystroke_a	a	n/a
93.561	0.105	187122	keystroke_c	c	n/a
93.696	0.105	187392	keystroke_e	e	n/a
93.921	0.075	187842	keystroke_Key.enter	Key.enter	n/a
94.0025	8.576	188005	prompt	n/a	colleague salad characterized witnesses\n
94.701	0.075	189402	keystroke_c	c	n/a
94.836	0.105	189672	keystroke_o	o	n/a
95.151	0.045	190302	keystroke_l	l	n/a
95.286	0.045	190572	keystroke_l	l	n/a
95.451	0.06	190902	keystroke_e	e	n/a
95.661	0.091	191322	keystroke_a	a	n/a
96.231	0.091	192462	keystroke_g	g	n/a
96.306	0.15	192612	keystroke_u	u	n/a
96.517	0.074	193034	keystroke_e	e	n/a
96.651	0.09	193302	keystroke_Key.space	Key.space	n/a
96.831	0.09	193662	keystroke_s	s	n/a
97.132	0.09	194264	keystroke_a	a	n/a
97.401	0.075	194802	keystroke_l	l	n/a
97.522	0.09	195044	keystroke_a	a	n/a
97.671	0.105	195342	keystroke_Key.space	Key.space	n/a
97.821	0.06	195642	keystroke_c	c	n/a
97.926	0.09	195852	keystroke_h	h	n/a
97.956	0.09	195912	keystroke_a	a	n/a
98.121	0.09	196242	keystroke_r	r	n/a
98.256	0.09	196512	keystroke_a	a	n/a
98.422	0.074	196844	keystroke_c	c	n/a
98.736	0.075	197472	keystroke_t	t	n/a
98.856	0.105	197712	keystroke_e	e	n/a
98.976	0.075	197952	keystroke_r	r	n/a
99.082	0.09	198164	keystroke_i	i	n/a
99.306	0.12	198612	keystroke_z	z	n/a
99.637	0.075	199274	keystroke_e	e	n/a
99.816	0.06	199632	keystroke_d	d	n/a
99.951	0.075	199902	keystroke_Key.space	Key.space	n/a
100.056	0.09	200112	keystroke_w	w	n/a
100.132	0.105	200264	keystroke_i	i	n/a
100.282	0.074	200564	keystroke_t	t	n/a
100.417	0.089	200834	keystroke_n	n	n/a
100.521	0.09	201042	keystroke_e	e	n/a
100.747	0.059	201494	keystroke_s	s	n/a
100.896	0.06	201792	keystroke_s	s	n/a
101.241	0.075	202482	keystroke_e	e	n/a
102.351	0.075	204702	keystroke_s	s	n/a
102.486	0.09	204972	keystroke_Key.enter	Key.enter	n/a
102.5855	4.7025	205171	prompt	n/a	chapters scenes invited pays\n
103.237	0.059	206474	keystroke_c	c	n/a
103.327	0.089	206654	keystroke_h	h	n/a
103.386	0.12	206772	keystroke_a	a	n/a
103.537	0.09	207074	keystroke_p	p	n/a
103.656	0.09	207312	keystroke_t	t	n/a
103.792	0.089	207584	keystroke_e	e	n/a
103.942	0.074	207884	keystroke_r	r	n/a
104.122	0.075	208244	keystroke_s	s	n/a
104.211	0.09	208422	keystroke_Key.space	Key.space	n/a
104.286	0.046	208572	keystroke_s	s	n/a
104.437	0.059	208874	keystroke_c	c	n/a
104.631	0.06	209262	keystroke_e	e	n/a
104.706	0.105	209412	keystroke_n	n	n/a
104.796	0.031	209592	keystroke_e	e	n/a
105.112	0.059	210224	keystroke_s	s	n/a
105.291	0.09	210582	keystroke_Key.space	Key.space	n/a
105.501	0.12	211002	keystroke_i	i	n/a
105.607	0.089	211214	keystroke_n	n	n/a
105.682	0.059	211364	keystroke_v	v	n/a
105.756	0.09	211512	keystroke_i	i	n/a
105.907	0.119	211814	keystroke_t	t	n/a
106.041	0.076	212082	keystroke_e	e	n/a
106.221	0.075	212442	keystroke_d	d	n/a
106.326	0.09	212652	keystroke_Key.space	Key.space	n/a
106.536	0.091	213072	keystroke_p	p	n/a
106.627	0.089	213254	keystroke_a	a	n/a
106.896	0.075	213792	keystroke_y	y	n/a
107.091	0.09	214182	keystroke_s	s	n/a
107.226	0.06	214452	keystroke_Key.enter	Key.enter	n/a
107.294	6.7295	214588	prompt	n/a	acceptable hadn't transfer you'll\n
107.856	0.09	215712	keystroke_a	a	n/a
108.142	0.059	216284	keystroke_c	c	n/a
108.276	0.075	216552	keystroke_c	c	n/a
108.397	0.105	216794	keystroke_e	e	n/a
108.516	0.075	217032	keystroke_p	p	n/a
108.607	0.074	217214	keystroke_t	t	n/a
108.771	0.075	217542	keystroke_a	a	n/a
108.861	0.09	217722	keystroke_b	b	n/a
109.071	0.075	218142	keystroke_l	l	n/a
109.162	0.09	218324	keystroke_e	e	n/a
109.281	0.105	218562	keystroke_Key.space	Key.space	n/a
109.446	0.09	218892	keystroke_h	h	n/a
109.552	0.074	219104	keystroke_a	a	n/a
109.686	0.076	219372	keystroke_d	d	n/a
109.746	0.106	219492	keystroke_n	n	n/a
110.076	0.075	220152	keystroke_'	'	n/a
110.272	0.059	220544	keystroke_t	t	n/a
110.541	0.075	221082	keystroke_Key.space	Key.space	n/a
110.826	0.045	221652	keystroke_t	t	n/a
110.991	0.06	221982	keystroke_r	r	n/a
111.216	0.06	222432	keystroke_a	a	n/a
111.396	0.045	222792	keystroke_s	s	n/a
111.487	0.104	222974	keystroke_n	n	n/a
111.621	0.091	223242	keystroke_f	f	n/a
111.756	0.105	223512	keystroke_e	e	n/a
111.922	0.074	223844	keystroke_r	r	n/a
112.056	0.075	224112	keystroke_Key.space	Key.space	n/a
112.266	0.09	224532	keystroke_y	y	n/a
112.387	0.134	224774	keystroke_o	o	n/a
112.656	0.06	225312	keystroke_u	u	n/a
113.257	0.06	226514	keystroke_'	'	n/a
113.481	0.045	226962	keystroke_l	l	n/a
113.601	0.076	227202	keystroke_l	l	n/a
113.931	0.09	227862	keystroke_Key.enter	Key.enter	n/a
114.028	5.59	228056	prompt	n/a	edges patrick who're attitudes\n
114.652	0.059	229304	keystroke_e	e	n/a
114.817	0.06	229634	keystroke_d	d	n/a
114.966	0.076	229932	keystroke_g	g	n/a
115.057	0.089	230114	keystroke_e	e	n/a
115.267	0.074	230534	keystroke_s	s	n/a
115.416	0.061	230832	keystroke_Key.space	Key.space	n/a
115.641	0.075	231282	keystroke_p	p	n/a
115.732	0.059	231464	keystroke_a	a	n/a
115.927	0.105	231854	keystroke_t	t	n/a
116.016	0.09	232032	keystroke_r	r	n/a
116.152	0.105	232304	keystroke_i	i	n/a
116.332	0.075	232664	keystroke_c	c	n/a
116.451	0.06	232902	keystroke_k	k	n/a
116.616	0.091	233232	keystroke_Key.space	Key.space	n/a
116.766	0.075	233532	keystroke_w	w	n/a
116.901	0.06	233802	keystroke_h	h	n/a
117.112	0.089	234224	keystroke_o	o	n/a
117.457	0.074	234914	keystroke_'	'	n/a
117.546	0.135	235092	keystroke_r	r	n/a
117.652	0.105	235304	keystroke_e	e	n/a
117.816	0.09	235632	keystroke_Key.space	Key.space	n/a
117.981	0.105	235962	keystroke_a	a	n/a
118.236	0.061	236472	keystroke_t	t	n/a
118.356	0.061	236712	keystroke_t	t	n/a
118.461	0.09	236922	keystroke_i	i	n/a
118.732	0.105	237464	keystroke_t	t	n/a
118.896	0.091	237792	keystroke_u	u	n/a
119.106	0.106	238212	keystroke_d	d	n/a
119.257	0.075	238514	keystroke_e	e	n/a
119.421	0.09	238842	keystroke_s	s	n/a
119.526	0.09	239052	keystroke_Key.enter	Key.enter	n/a
119.625	7.779	239250	prompt	n/a	lesbians norfolk pichunter corrections\n
120.231	0.076	240462	keystroke_l	l	n/a
120.322	0.075	240644	keystroke_e	e	n/a
120.487	0.09	240974	keystroke_s	s	n/a
120.591	0.061	241182	keystroke_b	b	n/a
120.681	0.105	241362	keystroke_i	i	n/a
120.741	0.076	241482	keystroke_a	a	n/a
120.877	0.089	241754	keystroke_n	n	n/a
121.027	0.089	242054	keystroke_s	s	n/a
121.131	0.12	242262	keystroke_Key.space	Key.space	n/a
121.357	0.12	242714	keystroke_n	n	n/a
121.507	0.105	243014	keystroke_o	o	n/a
121.627	0.09	243254	keystroke_r	r	n/a
122.017	0.06	244034	keystroke_f	f	n/a
122.347	0.09	244694	keystroke_o	o	n/a
122.556	0.121	245112	keystroke_l	l	n/a
122.842	0.089	245684	keystroke_k	k	n/a
123.036	0.075	246072	keystroke_Key.space	Key.space	n/a
123.262	0.075	246524	keystroke_p	p	n/a
123.486	0.091	246972	keystroke_i	i	n/a
123.862	0.075	247724	keystroke_c	c	n/a
124.087	0.089	248174	keystroke_h	h	n/a
124.461	0.06	248922	keystroke_h	h	n/a
124.627	0.104	249254	keystroke_u	u	n/a
124.777	0.105	249554	keystroke_n	n	n/a
124.957	0.105	249914	keystroke_t	t	n/a
125.122	0.12	250244	keystroke_e	e	n/a
125.287	0.09	250574	keystroke_r	r	n/a
125.437	0.089	250874	keystroke_Key.space	Key.space	n/a
125.737	0.075	251474	keystroke_c	c	n/a
125.872	0.09	251744	keystroke_o	o	n/a
126.022	0.075	252044	keystroke_r	r	n/a
126.172	0.089	252344	keystroke_r	r	n/a
126.322	0.09	252644	keystroke_e	e	n/a
126.502	0.12	253004	keystroke_c	c	n/a
126.741	0.091	253482	keystroke_t	t	n/a
126.832	0.075	253664	keystroke_i	i	n/a
126.997	0.089	253994	keystroke_o	o	n/a
127.042	0.105	254084	keystroke_n	n	n/a
127.161	0.091	254322	keystroke_s	s	n/a
127.312	0.09	254624	keystroke_Key.enter	Key.enter	n/a
127.4095	7.239	254819	prompt	n/a	william suzuki starter substitute\n
128.017	0.105	256034	keystroke_w	w	n/a
128.152	0.104	256304	keystroke_i	i	n/a
128.407	0.045	256814	keystroke_l	l	n/a
128.527	0.06	257054	keystroke_l	l	n/a
128.692	0.09	257384	keystroke_i	i	n/a
128.797	0.075	257594	keystroke_a	a	n/a
128.947	0.089	257894	keystroke_m	m	n/a
129.127	0.104	258254	keystroke_Key.space	Key.space	n/a
129.277	0.075	258554	keystroke_s	s	n/a
129.382	0.09	258764	keystroke_u	u	n/a
129.577	0.059	259154	keystroke_z	z	n/a
129.666	0.075	259332	keystroke_u	u	n/a
129.966	0.031	259932	keystroke_k	k	n/a
130.116	0.091	260232	keystroke_i	i	n/a
130.312	0.134	260624	keystroke_Key.space	Key.space	n/a
130.431	0.091	260862	keystroke_s	s	n/a
130.642	0.06	261284	keystroke_t	t	n/a
130.822	0.089	261644	keystroke_a	a	n/a
130.987	0.075	261974	keystroke_r	r	n/a
131.167	0.06	262334	keystroke_t	t	n/a
131.272	0.105	262544	keystroke_e	e	n/a
131.482	0.075	262964	keystroke_r	r	n/a
132.126	0.076	264252	keystroke_Key.backspace	Key.backspace	n/a
132.247	0.075	264494	keystroke_e	e	n/a
132.771	0.06	265542	keystroke_Key.backspace	Key.backspace	n/a
132.8905	0.075	265781	keystroke_r	r	n/a
133.0855	0.09	266171	keystroke_Key.space	Key.space	n/a
133.266	0.09	266532	keystroke_s	s	n/a
133.387	0.135	266774	keystroke_u	u	n/a
133.492	0.105	266984	keystroke_b	b	n/a
133.581	0.1055	267162	keystroke_s	s	n/a
133.792	0.074	267584	keystroke_t	t	n/a
133.867	0.0435	267734	keystroke_i	i	n/a
133.9265	0.0895	267853	keystroke_t	t	n/a
134.0015	0.0895	268003	keystroke_u	u	n/a
134.1065	0.09	268213	keystroke_t	t	n/a
134.212	0.1045	268424	keystroke_e	e	n/a
134.5865	0.0595	269173	keystroke_Key.enter	Key.enter	n/a
134.654	6.0695	269308	prompt	n/a	subjective petroleum purchase aside\n
135.2615	0.075	270523	keystroke_s	s	n/a
135.441	0.1055	270882	keystroke_u	u	n/a
135.5615	0.09	271123	keystroke_b	b	n/a
135.7265	0.075	271453	keystroke_j	j	n/a
135.8165	0.074	271633	keystroke_e	e	n/a
136.011	0.0755	272022	keystroke_c	c	n/a
136.2365	0.0745	272473	keystroke_t	t	n/a
136.3255	0.076	272651	keystroke_i	i	n/a
136.4465	0.075	272893	keystroke_v	v	n/a
136.5805	0.045	273161	keystroke_e	e	n/a
136.6865	0.074	273373	keystroke_Key.space	Key.space	n/a
136.8805	0.076	273761	keystroke_p	p	n/a
136.9715	0.074	273943	keystroke_e	e	n/a
137.1815	0.104	274363	keystroke_t	t	n/a
137.2715	0.09	274543	keystroke_r	r	n/a
137.3465	0.089	274693	keystroke_o	o	n/a
137.5415	0.09	275083	keystroke_l	l	n/a
137.6765	0.0595	275353	keystroke_e	e	n/a
137.9015	0.09	275803	keystroke_u	u	n/a
138.2615	0.075	276523	keystroke_m	m	n/a
138.4565	0.059	276913	keystroke_Key.space	Key.space	n/a
138.6665	0.105	277333	keystroke_p	p	n/a
138.8765	0.03	277753	keystroke_i	i	n/a
138.8915	0.06	277783	keystroke_u	u	n/a
138.9515	0.075	277903	keystroke_r	r	n/a
139.2355	0.046	278471	keystroke_c	c	n/a
139.312	0.1035	278624	keystroke_h	h	n/a
139.3855	0.091	278771	keystroke_a	a	n/a
139.5515	0.075	279103	keystroke_s	s	n/a
139.7465	0.075	279493	keystroke_e	e	n/a
139.8365	0.12	279673	keystroke_Key.space	Key.space	n/a
140.0015	0.06	280003	keystroke_a	a	n/a
140.1365	0.06	280273	keystroke_s	s	n/a
140.287	0.09	280574	keystroke_i	i	n/a
140.392	0.0745	280784	keystroke_d	d	n/a
140.4815	0.15	280963	keystroke_e	e	n/a
140.6765	0.044	281353	keystroke_Key.enter	Key.enter	n/a
140.729	8.245	281458	prompt	n/a	node drawing spin earning\n
141.5165	0.075	283033	keystroke_n	n	n/a
141.6365	0.09	283273	keystroke_o	o	n/a
141.7415	0.075	283483	keystroke_d	d	n/a
141.8605	0.091	283721	keystroke_e	e	n/a
142.0865	0.06	284173	keystroke_Key.space	Key.space	n/a
142.2965	0.075	284593	keystroke_d	d	n/a
142.477	0.0445	284954	keystroke_r	r	n/a
142.6865	0.0305	285373	keystroke_s	s	n/a
143.272	0.059	286544	keystroke_Key.backspace	Key.backspace	n/a
143.377	0.075	286754	keystroke_a	a	n/a
143.602	0.075	287204	keystroke_w	w	n/a
143.9465	0.075	287893	keystroke_g	g	n/a
144.0355	0.181	288071	keystroke_i	i	n/a
144.1865	0.1055	288373	keystroke_n	n	n/a
144.3965	0.09	288793	keystroke_Key.space	Key.space	n/a
144.5765	0.075	289153	keystroke_s	s	n/a
144.7265	0.06	289453	keystroke_p	p	n/a
144.996	0.061	289992	keystroke_Key.backspace	Key.backspace	n/a
145.146	0.0455	290292	keystroke_Key.backspace	Key.backspace	n/a
145.2965	0.045	290593	keystroke_Key.backspace	Key.backspace	n/a
145.4305	0.045	290861	keystroke_Key.backspace	Key.backspace	n/a
145.5515	0.075	291103	keystroke_Key.backspace	Key.backspace	n/a
145.896	0.0755	291792	keystroke_Key.backspace	Key.backspace	n/a
146.2265	0.12	292453	keystroke_i	i	n/a
146.3615	0.1055	292723	keystroke_n	n	n/a
146.4815	0.0455	292963	keystroke_g	g	n/a
146.572	0.0885	293144	keystroke_Key.space	Key.space	n/a
146.722	0.045	293444	keystroke_s	s	n/a
146.842	0.089	293684	keystroke_p	p	n/a
147.052	0.165	294104	keystroke_i	i	n/a
147.187	0.09	294374	keystroke_n	n	n/a
147.367	0.09	294734	keystroke_Key.space	Key.space	n/a
147.472	0.075	294944	keystroke_e	e	n/a
147.652	0.105	295304	keystroke_a	a	n/a
147.952	0.075	295904	keystroke_r	r	n/a
148.297	0.12	296594	keystroke_n	n	n/a
148.462	0.165	296924	keystroke_i	i	n/a
148.5665	0.135	297133	keystroke_n	n	n/a
148.7315	0.09	297463	keystroke_g	g	n/a
148.9415	0.0305	297883	keystroke_Key.enter	Key.enter	n/a
148.9785	0.1005	297957	prompt	n/a	securely jamie stores indians\n
149.0015	0.075	298003	keystroke_Key.enter	Key.enter	n/a
149.084	6.0995	298168	prompt	n/a	connecticut peer twisted just\n
150.0215	0.06	300043	keystroke_c	c	n/a
150.1565	0.075	300313	keystroke_o	o	n/a
150.352	0.0445	300704	keystroke_n	n	n/a
150.472	0.0745	300944	keystroke_n	n	n/a
150.562	0.0745	301124	keystroke_e	e	n/a
150.7115	0.075	301423	keystroke_t	t	n/a
150.9365	0.075	301873	keystroke_i	i	n/a
151.1165	0.0455	302233	keystroke_c	c	n/a
151.1765	0.075	302353	keystroke_u	u	n/a
151.4615	0.06	302923	keystroke_t	t	n/a
151.5815	0.105	303163	keystroke_Key.space	Key.space	n/a
152.2265	0.075	304453	keystroke_p	p	n/a
152.3915	0.075	304783	keystroke_e	e	n/a
152.6015	0.045	305203	keystroke_e	e	n/a
152.8265	0.075	305653	keystroke_r	r	n/a
153.0365	0.09	306073	keystroke_Key.space	Key.space	n/a
153.3515	0.0605	306703	keystroke_t	t	n/a
153.5315	0.045	307063	keystroke_w	w	n/a
153.5915	0.075	307183	keystroke_i	i	n/a
153.7115	0.105	307423	keystroke_s	s	n/a
153.9365	0.09	307873	keystroke_t	t	n/a
154.0415	0.105	308083	keystroke_e	e	n/a
154.3115	0.075	308623	keystroke_d	d	n/a
154.4465	0.06	308893	keystroke_Key.space	Key.space	n/a
154.5515	0.075	309103	keystroke_j	j	n/a
154.7165	0.075	309433	keystroke_u	u	n/a
154.8065	0.075	309613	keystroke_s	s	n/a
154.9715	0.09	309943	keystroke_t	t	n/a
155.0915	0.09	310183	keystroke_Key.enter	Key.enter	n/a
155.189	5.4995	310378	prompt	n/a	programs apply descriptions insights\n
155.8265	0.075	311653	keystroke_p	p	n/a
155.9915	0.045	311983	keystroke_r	r	n/a
156.0215	0.09	312043	keystroke_o	o	n/a
156.0815	0.135	312163	keystroke_g	g	n/a
156.2015	0.09	312403	keystroke_r	r	n/a
156.4115	0.06	312823	keystroke_a	a	n/a
156.4865	0.06	312973	keystroke_m	m	n/a
156.5615	0.075	313123	keystroke_s	s	n/a
156.6665	0.09	313333	keystroke_Key.space	Key.space	n/a
156.7865	0.075	313573	keystroke_a	a	n/a
156.9965	0.045	313993	keystroke_p	p	n/a
157.1015	0.135	314203	keystroke_p	p	n/a
157.2065	0.12	314413	keystroke_l	l	n/a
157.3715	0.075	314743	keystroke_y	y	n/a
157.5515	0.09	315103	keystroke_Key.space	Key.space	n/a
157.7015	0.105	315403	keystroke_d	d	n/a
157.8515	0.06	315703	keystroke_e	e	n/a
158.0315	0.0605	316063	keystroke_s	s	n/a
158.1665	0.105	316333	keystroke_c	c	n/a
158.3765	0.075	316753	keystroke_r	r	n/a
158.4815	0.09	316963	keystroke_i	i	n/a
158.6915	0.075	317383	keystroke_p	p	n/a
158.8115	0.06	317623	keystroke_t	t	n/a
158.9315	0.09	317863	keystroke_i	i	n/a
159.1115	0.15	318223	keystroke_o	o	n/a
159.2015	0.105	318403	keystroke_n	n	n/a
159.3215	0.0605	318643	keystroke_s	s	n/a
159.4265	0.105	318853	keystroke_Key.space	Key.space	n/a
159.6515	0.1355	319303	keystroke_i	i	n/a
159.742	0.1045	319484	keystroke_n	n	n/a
159.8615	0.075	319723	keystroke_s	s	n/a
159.9215	0.075	319843	keystroke_i	i	n/a
160.0265	0.06	320053	keystroke_g	g	n/a
160.1165	0.075	320233	keystroke_h	h	n/a
160.2515	0.075	320503	keystroke_t	t	n/a
160.4915	0.06	320983	keystroke_s	s	n/a
160.5965	0.0905	321193	keystroke_Key.enter	Key.enter	n/a
160.694	6.894	321388	prompt	n/a	blocked fiscal competitive christopher\n
161.5715	0.09	323143	keystroke_b	b	n/a
161.8715	0.045	323743	keystroke_l	l	n/a
162.1865	0.075	324373	keystroke_o	o	n/a
162.2915	0.09	324583	keystroke_c	c	n/a
162.4115	0.09	324823	keystroke_k	k	n/a
162.5915	0.06	325183	keystroke_e	e	n/a
162.7715	0.06	325543	keystroke_d	d	n/a
162.8615	0.09	325723	keystroke_Key.space	Key.space	n/a
163.0115	0.06	326023	keystroke_f	f	n/a
163.0865	0.135	326173	keystroke_i	i	n/a
163.2065	0.09	326413	keystroke_s	s	n/a
163.4315	0.06	326863	keystroke_c	c	n/a
163.5665	0.09	327133	keystroke_a	a	n/a
163.6715	0.06	327343	keystroke_l	l	n/a
163.8365	0.105	327673	keystroke_Key.space	Key.space	n/a
164.0615	0.075	328123	keystroke_c	c	n/a
164.1375	0.179	328275	keystroke_o	o	n/a
164.2565	0.105	328513	keystroke_m	m	n/a
164.4365	0.09	328873	keystroke_p	p	n/a
164.5865	0.09	329173	keystroke_e	e	n/a
164.8265	0.075	329653	keystroke_t	t	n/a
164.9915	0.06	329983	keystroke_i	i	n/a
165.0525	0.059	330105	keystroke_t	t	n/a
165.1265	0.075	330253	keystroke_i	i	n/a
165.3365	0.09	330673	keystroke_v	v	n/a
165.4865	0.12	330973	keystroke_e	e	n/a
165.6515	0.105	331303	keystroke_Key.space	Key.space	n/a
165.9365	0.105	331873	keystroke_c	c	n/a
165.9965	0.075	331993	keystroke_h	h	n/a
166.2065	0.075	332413	keystroke_r	r	n/a
166.2965	0.09	332593	keystroke_i	i	n/a
166.4465	0.105	332893	keystroke_s	s	n/a
166.6415	0.06	333283	keystroke_t	t	n/a
166.7165	0.075	333433	keystroke_o	o	n/a
166.8965	0.06	333793	keystroke_p	p	n/a
166.9265	0.105	333853	keystroke_h	h	n/a
167.1215	0.09	334243	keystroke_e	e	n/a
167.2715	0.105	334543	keystroke_r	r	n/a
167.4965	0.09	334993	keystroke_Key.enter	Key.enter	n/a
167.592	5.2335	335184	prompt	n/a	homeland directories verizon adopted\n
168.3365	0.105	336673	keystroke_h	h	n/a
168.4665	0.004	336933	keystroke_Key.cmd	Key.cmd	n/a
168.4675	0.001	336935	keystroke_Key.shift	Key.shift	n/a
168.4675	0.002	336935	keystroke_Key.ctrl_l	Key.ctrl_l	n/a
168.5165	0.105	337033	keystroke_o	o	n/a
168.6365	0.105	337273	keystroke_m	m	n/a
168.7265	0.075	337453	keystroke_e	e	n/a
168.8315	0.09	337663	keystroke_l	l	n/a
168.9515	0.06	337903	keystroke_a	a	n/a
169.0265	0.09	338053	keystroke_n	n	n/a
169.1315	0.06	338263	keystroke_d	d	n/a
169.2215	0.09	338443	keystroke_Key.space	Key.space	n/a
169.2965	0.06	338593	keystroke_d	d	n/a
169.3715	0.105	338743	keystroke_i	i	n/a
169.4915	0.09	338983	keystroke_r	r	n/a
169.5665	0.105	339133	keystroke_e	e	n/a
169.8065	0.09	339613	keystroke_c	c	n/a
170.0165	0.09	340033	keystroke_t	t	n/a
170.1215	0.045	340243	keystroke_i	i	n/a
170.3165	0.12	340633	keystroke_o	o	n/a
170.3765	0.12	340753	keystroke_n	n	n/a
170.4965	0.09	340993	keystroke_s	s	n/a
170.6165	0.105	341233	keystroke_Key.space	Key.space	n/a
170.7365	0.09	341473	keystroke_v	v	n/a
170.9015	0.06	341803	keystroke_e	e	n/a
171.0515	0.075	342103	keystroke_r	r	n/a
171.1415	0.075	342283	keystroke_i	i	n/a
171.3515	0.09	342703	keystroke_z	z	n/a
171.4565	0.135	342913	keystroke_o	o	n/a
171.5465	0.075	343093	keystroke_n	n	n/a
171.7265	0.075	343453	keystroke_Key.space	Key.space	n/a
171.8465	0.075	343693	keystroke_a	a	n/a
171.9965	0.06	343993	keystroke_d	d	n/a
172.0565	0.09	344113	keystroke_o	o	n/a
172.2365	0.045	344473	keystroke_p	p	n/a
172.2965	0.135	344593	keystroke_t	t	n/a
172.4165	0.09	344833	keystroke_e	e	n/a
172.5665	0.105	345133	keystroke_d	d	n/a
172.7615	0.06	345523	keystroke_Key.enter	Key.enter	n/a
172.83	6.234	345660	prompt	n/a	translations equity panic tariff\n
173.5715	0.135	347143	keystroke_t	t	n/a
173.6915	0.06	347383	keystroke_r	r	n/a
173.8865	0.075	347773	keystroke_a	a	n/a
174.5465	0.09	349093	keystroke_n	n	n/a
174.7115	0.075	349423	keystroke_s	s	n/a
174.8465	0.09	349693	keystroke_l	l	n/a
174.9515	0.06	349903	keystroke_a	a	n/a
175.1165	0.06	350233	keystroke_t	t	n/a
175.2065	0.075	350413	keystroke_i	i	n/a
175.3565	0.135	350713	keystroke_o	o	n/a
175.4465	0.105	350893	keystroke_n	n	n/a
175.5665	0.09	351133	keystroke_s	s	n/a
175.6715	0.105	351343	keystroke_Key.space	Key.space	n/a
175.8215	0.075	351643	keystroke_e	e	n/a
176.0315	0.045	352063	keystroke_q	q	n/a
176.0915	0.075	352183	keystroke_u	u	n/a
176.2415	0.075	352483	keystroke_i	i	n/a
176.3465	0.09	352693	keystroke_t	t	n/a
176.5565	0.03	353113	keystroke_y	y	n/a
176.7065	0.06	353413	keystroke_Key.space	Key.space	n/a
176.9015	0.105	353803	keystroke_p	p	n/a
177.0215	0.075	354043	keystroke_a	a	n/a
177.0965	0.12	354193	keystroke_n	n	n/a
177.2315	0.105	354463	keystroke_i	i	n/a
177.3965	0.06	354793	keystroke_c	c	n/a
177.5465	0.09	355093	keystroke_Key.space	Key.space	n/a
177.8615	0.075	355723	keystroke_t	t	n/a
178.0865	0.105	356173	keystroke_a	a	n/a
178.2665	0.09	356533	keystroke_r	r	n/a
178.4015	0.09	356803	keystroke_i	i	n/a
178.5515	0.075	357103	keystroke_f	f	n/a
178.7015	0.075	357403	keystroke_f	f	n/a
178.9865	0.075	357973	keystroke_Key.enter	Key.enter	n/a
179.069	5.5445	358138	prompt	n/a	makes industrial magnet entertaining\n
179.6465	0.105	359293	keystroke_m	m	n/a
179.7815	0.06	359563	keystroke_a	a	n/a
179.8565	0.09	359713	keystroke_k	k	n/a
180.0515	0.06	360103	keystroke_e	e	n/a
180.2465	0.06	360493	keystroke_s	s	n/a
180.3515	0.105	360703	keystroke_Key.space	Key.space	n/a
180.5765	0.12	361153	keystroke_i	i	n/a
180.6815	0.09	361363	keystroke_n	n	n/a
180.8915	0.06	361783	keystroke_d	d	n/a
180.9665	0.09	361933	keystroke_u	u	n/a
181.0415	0.075	362083	keystroke_s	s	n/a
181.2815	0.105	362563	keystroke_t	t	n/a
181.3565	0.105	362713	keystroke_r	r	n/a
181.4465	0.105	362893	keystroke_i	i	n/a
181.6265	0.09	363253	keystroke_a	a	n/a
181.7465	0.075	363493	keystroke_l	l	n/a
181.8965	0.09	363793	keystroke_Key.space	Key.space	n/a
182.0615	0.105	364123	keystroke_m	m	n/a
182.1365	0.075	364273	keystroke_a	a	n/a
182.3165	0.06	364633	keystroke_g	g	n/a
182.4065	0.105	364813	keystroke_n	n	n/a
182.4965	0.09	364993	keystroke_e	e	n/a
182.6465	0.075	365293	keystroke_t	t	n/a
182.7965	0.135	365593	keystroke_Key.space	Key.space	n/a
183.0365	0.075	366073	keystroke_e	e	n/a
183.0965	0.09	366193	keystroke_n	n	n/a
183.2165	0.09	366433	keystroke_t	t	n/a
183.3365	0.105	366673	keystroke_e	e	n/a
183.4865	0.075	366973	keystroke_r	r	n/a
183.6965	0.045	367393	keystroke_t	t	n/a
183.8765	0.06	367753	keystroke_a	a	n/a
183.9515	0.105	367903	keystroke_i	i	n/a
184.0865	0.075	368173	keystroke_n	n	n/a
184.2065	0.12	368413	keystroke_i	i	n/a
184.2815	0.105	368563	keystroke_n	n	n/a
184.4015	0.075	368803	keystroke_g	g	n/a
184.5365	0.075	369073	keystroke_Key.enter	Key.enter	n/a
184.6185	4.72	369237	prompt	n/a	bringing examining angel spending\n
185.2415	0.105	370483	keystroke_b	b	n/a
185.3765	0.105	370753	keystroke_r	r	n/a
185.4515	0.12	370903	keystroke_i	i	n/a
185.5265	0.105	371053	keystroke_n	n	n/a
185.6165	0.06	371233	keystroke_g	g	n/a
185.7065	0.12	371413	keystroke_i	i	n/a
185.7665	0.105	371533	keystroke_n	n	n/a
185.8415	0.06	371683	keystroke_g	g	n/a
185.9915	0.075	371983	keystroke_Key.space	Key.space	n/a
186.0815	0.06	372163	keystroke_e	e	n/a
186.3365	0.09	372673	keystroke_x	x	n/a
186.5315	0.075	373063	keystroke_a	a	n/a
186.6365	0.105	373273	keystroke_m	m	n/a
186.8465	0.09	373693	keystroke_i	i	n/a
187.0415	0.075	374083	keystroke_n	n	n/a
187.1615	0.135	374323	keystroke_i	i	n/a
187.2365	0.12	374473	keystroke_n	n	n/a
187.3715	0.045	374743	keystroke_g	g	n/a
187.5965	0.015	375193	keystroke_Key.space	Key.space	n/a
187.6265	0.045	375253	keystroke_a	a	n/a
187.6565	0.09	375313	keystroke_n	n	n/a
187.7765	0.09	375553	keystroke_g	g	n/a
187.8965	0.075	375793	keystroke_e	e	n/a
187.9865	0.075	375973	keystroke_l	l	n/a
188.1665	0.09	376333	keystroke_Key.space	Key.space	n/a
188.3015	0.075	376603	keystroke_s	s	n/a
188.3615	0.105	376723	keystroke_p	p	n/a
188.4965	0.09	376993	keystroke_e	e	n/a
188.5715	0.105	377143	keystroke_n	n	n/a
188.7065	0.09	377413	keystroke_d	d	n/a
188.7975	0.134	377595	keystroke_i	i	n/a
188.8865	0.12	377773	keystroke_n	n	n/a
189.0215	0.09	378043	keystroke_g	g	n/a
189.2615	0.075	378523	keystroke_Key.enter	Key.enter	n/a
189.347	6.861	378694	prompt	n/a	devil factory vegetation savings\n
190.0415	0.075	380083	keystroke_d	d	n/a
190.1765	0.075	380353	keystroke_e	e	n/a
190.3415	0.075	380683	keystroke_v	v	n/a
190.4315	0.09	380863	keystroke_i	i	n/a
190.6415	0.075	381283	keystroke_l	l	n/a
190.8065	0.09	381613	keystroke_Key.space	Key.space	n/a
190.8665	0.06	381733	keystroke_f	f	n/a
191.6465	0.075	383293	keystroke_a	a	n/a
191.9915	0.075	383983	keystroke_c	c	n/a
192.2615	0.075	384523	keystroke_t	t	n/a
192.3215	0.09	384643	keystroke_o	o	n/a
192.4565	0.09	384913	keystroke_r	r	n/a
192.6665	0.075	385333	keystroke_y	y	n/a
192.8315	0.075	385663	keystroke_Key.space	Key.space	n/a
193.0415	0.045	386083	keystroke_v	v	n/a
193.1915	0.075	386383	keystroke_e	e	n/a
193.4015	0.105	386803	keystroke_e	e	n/a
193.9115	0.09	387823	keystroke_Key.backspace	Key.backspace	n/a
194.0765	0.06	388153	keystroke_g	g	n/a
194.1665	0.135	388333	keystroke_e	e	n/a
194.3915	0.075	388783	keystroke_t	t	n/a
194.5865	0.075	389173	keystroke_a	a	n/a
194.7665	0.075	389533	keystroke_t	t	n/a
194.8565	0.075	389713	keystroke_i	i	n/a
194.9915	0.1345	389983	keystroke_o	o	n/a
195.081	0.105	390162	keystroke_n	n	n/a
195.261	0.105	390522	keystroke_Key.space	Key.space	n/a
195.336	0.12	390672	keystroke_s	s	n/a
195.441	0.075	390882	keystroke_a	a	n/a
195.606	0.075	391212	keystroke_v	v	n/a
195.666	0.15	391332	keystroke_i	i	n/a
195.756	0.15	391512	keystroke_n	n	n/a
195.846	0.075	391692	keystroke_g	g	n/a
195.981	0.12	391962	keystroke_s	s	n/a
196.116	0.09	392232	keystroke_Key.enter	Key.enter	n/a
196.2125	6.5355	392425	prompt	n/a	benjamin strip movement moral\n
196.926	0.075	393852	keystroke_b	b	n/a
197.076	0.075	394152	keystroke_e	e	n/a
197.211	0.09	394422	keystroke_n	n	n/a
197.451	0.075	394902	keystroke_j	j	n/a
197.541	0.06	395082	keystroke_a	a	n/a
197.631	0.09	395262	keystroke_m	m	n/a
197.781	0.15	395562	keystroke_i	i	n/a
197.856	0.135	395712	keystroke_n	n	n/a
198.126	0.09	396252	keystroke_Key.space	Key.space	n/a
198.231	0.075	396462	keystroke_s	s	n/a
198.441	0.105	396882	keystroke_t	t	n/a
198.531	0.06	397062	keystroke_r	r	n/a
198.621	0.09	397242	keystroke_u	u	n/a
198.921	0.075	397842	keystroke_p	p	n/a
199.146	0.06	398292	keystroke_Key.space	Key.space	n/a
199.461	0.06	398922	keystroke_Key.backspace	Key.backspace	n/a
199.596	0.06	399192	keystroke_Key.backspace	Key.backspace	n/a
199.746	0.075	399492	keystroke_Key.backspace	Key.backspace	n/a
200.316	0.075	400632	keystroke_i	i	n/a
200.511	0.075	401022	keystroke_p	p	n/a
200.736	0.075	401472	keystroke_Key.space	Key.space	n/a
201.066	0.075	402132	keystroke_m	m	n/a
201.171	0.09	402342	keystroke_o	o	n/a
201.246	0.075	402492	keystroke_v	v	n/a
201.381	0.075	402762	keystroke_e	e	n/a
201.471	0.06	402942	keystroke_m	m	n/a
201.516	0.075	403032	keystroke_e	e	n/a
201.636	0.06	403272	keystroke_n	n	n/a
201.756	0.075	403512	keystroke_t	t	n/a
201.861	0.06	403722	keystroke_Key.space	Key.space	n/a
202.026	0.06	404052	keystroke_m	m	n/a
202.116	0.105	404232	keystroke_o	o	n/a
202.221	0.075	404442	keystroke_r	r	n/a
202.416	0.075	404832	keystroke_a	a	n/a
202.492	0.059	404984	keystroke_l	l	n/a
202.686	0.06	405372	keystroke_Key.enter	Key.enter	n/a
202.753	5.2155	405506	prompt	n/a	arrive poland who'd maria\n
203.286	0.075	406572	keystroke_a	a	n/a
203.511	0.045	407022	keystroke_r	r	n/a
203.646	0.045	407292	keystroke_r	r	n/a
203.736	0.09	407472	keystroke_i	i	n/a
203.856	0.075	407712	keystroke_v	v	n/a
203.976	0.075	407952	keystroke_e	e	n/a
204.066	0.06	408132	keystroke_Key.space	Key.space	n/a
204.276	0.06	408552	keystroke_p	p	n/a
204.456	0.09	408912	keystroke_o	o	n/a
204.636	0.075	409272	keystroke_l	l	n/a
204.726	0.105	409452	keystroke_a	a	n/a
204.846	0.09	409692	keystroke_n	n	n/a
204.951	0.06	409902	keystroke_d	d	n/a
205.056	0.09	410112	keystroke_Key.space	Key.space	n/a
205.161	0.075	410322	keystroke_w	w	n/a
205.266	0.075	410532	keystroke_h	h	n/a
205.521	0.09	411042	keystroke_o	o	n/a
205.881	0.075	411762	keystroke_'	'	n/a
206.031	0.105	412062	keystroke_d	d	n/a
206.181	0.09	412362	keystroke_Key.space	Key.space	n/a
206.406	0.105	412812	keystroke_m	m	n/a
206.496	0.075	412992	keystroke_a	a	n/a
206.691	0.075	413382	keystroke_r	r	n/a
206.796	0.09	413592	keystroke_i	i	n/a
206.901	0.09	413802	keystroke_a	a	n/a
207.126	0.045	414252	keystroke_'	'	n/a
207.696	0.075	415392	keystroke_Key.backspace	Key.backspace	n/a
207.891	0.075	415782	keystroke_Key.enter	Key.enter	n/a
207.973	7.6155	415946	prompt	n/a	closed verzeichnis collecting polished\n
208.821	0.075	417642	keystroke_c	c	n/a
208.926	0.075	417852	keystroke_l	l	n/a
209.091	0.09	418182	keystroke_o	o	n/a
209.166	0.06	418332	keystroke_s	s	n/a
209.346	0.075	418692	keystroke_e	e	n/a
209.511	0.075	419022	keystroke_d	d	n/a
209.661	0.09	419322	keystroke_Key.space	Key.space	n/a
209.961	0.06	419922	keystroke_v	v	n/a
210.201	0.09	420402	keystroke_e	e	n/a
210.396	0.06	420792	keystroke_r	r	n/a
210.741	0.09	421482	keystroke_z	z	n/a
211.101	0.075	422202	keystroke_e	e	n/a
211.281	0.075	422562	keystroke_i	i	n/a
211.521	0.105	423042	keystroke_c	c	n/a
211.806	0.09	423612	keystroke_h	h	n/a
212.076	0.075	424152	keystroke_n	n	n/a
212.226	0.09	424452	keystroke_i	i	n/a
212.361	0.09	424722	keystroke_s	s	n/a
212.496	0.075	424992	keystroke_Key.space	Key.space	n/a
212.616	0.075	425232	keystroke_c	c	n/a
212.706	0.105	425412	keystroke_o	o	n/a
212.901	0.06	425802	keystroke_l	l	n/a
213.021	0.075	426042	keystroke_l	l	n/a
213.126	0.09	426252	keystroke_e	e	n/a
213.456	0.075	426912	keystroke_c	c	n/a
213.651	0.12	427302	keystroke_t	t	n/a
213.741	0.135	427482	keystroke_i	i	n/a
213.831	0.12	427662	keystroke_n	n	n/a
213.936	0.075	427872	keystroke_g	g	n/a
214.056	0.09	428112	keystroke_Key.space	Key.space	n/a
214.281	0.075	428562	keystroke_p	p	n/a
214.446	0.075	428892	keystroke_o	o	n/a
214.656	0.06	429312	keystroke_l	l	n/a
214.896	0.09	429792	keystroke_i	i	n/a
215.001	0.09	430002	keystroke_s	s	n/a
215.106	0.09	430212	keystroke_h	h	n/a
215.226	0.075	430452	keystroke_e	e	n/a
215.391	0.075	430782	keystroke_d	d	n/a
215.511	0.075	431022	keystroke_Key.enter	Key.enter	n/a
215.593	4.9145	431186	prompt	n/a	rivers twiki known strictly\n
216.261	0.075	432522	keystroke_r	r	n/a
216.351	0.09	432702	keystroke_i	i	n/a
216.471	0.075	432942	keystroke_v	v	n/a
216.606	0.105	433212	keystroke_e	e	n/a
216.786	0.075	433572	keystroke_r	r	n/a
216.966	0.09	433932	keystroke_s	s	n/a
217.086	0.105	434172	keystroke_Key.space	Key.space	n/a
217.236	0.075	434472	keystroke_t	t	n/a
217.401	0.09	434802	keystroke_w	w	n/a
217.476	0.09	434952	keystroke_i	i	n/a
217.671	0.075	435342	keystroke_k	k	n/a
217.821	0.105	435642	keystroke_i	i	n/a
218.031	0.105	436062	keystroke_Key.space	Key.space	n/a
218.301	0.075	436602	keystroke_k	k	n/a
218.511	0.075	437022	keystroke_n	n	n/a
218.676	0.105	437352	keystroke_o	o	n/a
218.871	0.075	437742	keystroke_w	w	n/a
218.991	0.09	437982	keystroke_n	n	n/a
219.186	0.075	438372	keystroke_Key.space	Key.space	n/a
219.246	0.09	438492	keystroke_s	s	n/a
219.471	0.105	438942	keystroke_t	t	n/a
219.561	0.105	439122	keystroke_r	r	n/a
219.651	0.09	439302	keystroke_i	i	n/a
219.861	0.06	439722	keystroke_c	c	n/a
220.086	0.06	440172	keystroke_t	t	n/a
220.161	0.075	440322	keystroke_l	l	n/a
220.221	0.075	440442	keystroke_y	y	n/a
220.431	0.075	440862	keystroke_Key.enter	Key.enter	n/a
220.5125	5.62	441025	prompt	n/a	glad sculpture citizens turkish\n
221.211	0.06	442422	keystroke_g	g	n/a
221.406	0.09	442812	keystroke_l	l	n/a
221.571	0.06	443142	keystroke_a	a	n/a
221.751	0.075	443502	keystroke_d	d	n/a
221.901	0.075	443802	keystroke_Key.space	Key.space	n/a
222.021	0.075	444042	keystroke_s	s	n/a
222.201	0.06	444402	keystroke_c	c	n/a
222.306	0.09	444612	keystroke_u	u	n/a
222.561	0.09	445122	keystroke_l	l	n/a
222.876	0.09	445752	keystroke_p	p	n/a
223.116	0.06	446232	keystroke_t	t	n/a
223.251	0.09	446502	keystroke_u	u	n/a
223.401	0.09	446802	keystroke_r	r	n/a
223.476	0.105	446952	keystroke_e	e	n/a
223.656	0.075	447312	keystroke_Key.space	Key.space	n/a
223.851	0.06	447702	keystroke_c	c	n/a
223.941	0.06	447882	keystroke_i	i	n/a
224.061	0.06	448122	keystroke_t	t	n/a
224.091	0.09	448182	keystroke_i	i	n/a
224.361	0.09	448722	keystroke_z	z	n/a
224.586	0.06	449172	keystroke_e	e	n/a
224.676	0.075	449352	keystroke_n	n	n/a
224.766	0.09	449532	keystroke_s	s	n/a
224.856	0.105	449712	keystroke_Key.space	Key.space	n/a
225.036	0.075	450072	keystroke_t	t	n/a
225.126	0.06	450252	keystroke_u	u	n/a
225.171	0.075	450342	keystroke_r	r	n/a
225.336	0.075	450672	keystroke_k	k	n/a
225.516	0.03	451032	keystroke_i	i	n/a
225.576	0.075	451152	keystroke_s	s	n/a
225.681	0.105	451362	keystroke_h	h	n/a
226.056	0.075	452112	keystroke_Key.enter	Key.enter	n/a
226.15	6.0585	452300	prompt	n/a	privacy tobago institution blend\n
226.881	0.105	453762	keystroke_p	p	n/a
226.987	0.074	453974	keystroke_r	r	n/a
227.092	0.089	454184	keystroke_i	i	n/a
227.196	0.075	454392	keystroke_v	v	n/a
227.376	0.09	454752	keystroke_a	a	n/a
227.601	0.09	455202	keystroke_c	c	n/a
227.811	0.12	455622	keystroke_y	y	n/a
228.186	0.075	456372	keystroke_Key.space	Key.space	n/a
228.426	0.0745	456852	keystroke_t	t	n/a
228.516	0.075	457032	keystroke_o	o	n/a
228.681	0.06	457362	keystroke_b	b	n/a
228.876	0.075	457752	keystroke_a	a	n/a
229.041	0.075	458082	keystroke_g	g	n/a
229.146	0.09	458292	keystroke_o	o	n/a
229.371	0.105	458742	keystroke_Key.space	Key.space	n/a
229.581	0.105	459162	keystroke_i	i	n/a
229.656	0.12	459312	keystroke_n	n	n/a
229.791	0.075	459582	keystroke_s	s	n/a
229.9705	0.06	459941	keystroke_t	t	n/a
230.0005	0.09	460001	keystroke_i	i	n/a
230.1055	0.075	460211	keystroke_t	t	n/a
230.1955	0.0755	460391	keystroke_u	u	n/a
230.286	0.045	460572	keystroke_t	t	n/a
230.511	0.015	461022	keystroke_i	i	n/a
230.586	0.1645	461172	keystroke_o	o	n/a
230.706	0.105	461412	keystroke_n	n	n/a
230.916	0.09	461832	keystroke_Key.space	Key.space	n/a
231.141	0.105	462282	keystroke_b	b	n/a
231.561	0.075	463122	keystroke_l	l	n/a
231.696	0.09	463392	keystroke_e	e	n/a
231.816	0.075	463632	keystroke_n	n	n/a
231.951	0.06	463902	keystroke_d	d	n/a
232.116	0.09	464232	keystroke_Key.enter	Key.enter	n/a
232.213	7.69	464426	prompt	n/a	papua aims amendments poker\n
232.7905	0.0755	465581	keystroke_p	p	n/a
232.986	0.045	465972	keystroke_a	a	n/a
233.046	0.06	466092	keystroke_p	p	n/a
233.271	0.09	466542	keystroke_u	u	n/a
233.421	0.06	466842	keystroke_a	a	n/a
233.541	0.075	467082	keystroke_Key.space	Key.space	n/a
233.736	0.075	467472	keystroke_i	i	n/a
234.066	0.075	468132	keystroke_Key.backspace	Key.backspace	n/a
234.246	0.075	468492	keystroke_a	a	n/a
234.336	0.165	468672	keystroke_i	i	n/a
234.576	0.075	469152	keystroke_m	m	n/a
234.816	0.06	469632	keystroke_Key.space	Key.space	n/a
235.146	0.075	470292	keystroke_Key.backspace	Key.backspace	n/a
235.266	0.075	470532	keystroke_a	a	n/a
235.461	0.09	470922	keystroke_Key.space	Key.space	n/a
235.986	0.075	471972	keystroke_Key.backspace	Key.backspace	n/a
236.106	0.075	472212	keystroke_Key.backspace	Key.backspace	n/a
236.286	0.075	472572	keystroke_s	s	n/a
236.451	0.075	472902	keystroke_Key.space	Key.space	n/a
236.691	0.075	473382	keystroke_a	a	n/a
236.811	0.09	473622	keystroke_m	m	n/a
236.961	0.075	473922	keystroke_e	e	n/a
237.4105	0.09	474821	keystroke_n	n	n/a
237.5605	0.0905	475121	keystroke_d	d	n/a
237.666	0.105	475332	keystroke_m	m	n/a
237.801	0.105	475602	keystroke_e	e	n/a
237.966	0.09	475932	keystroke_n	n	n/a
238.086	0.09	476172	keystroke_d	d	n/a
238.461	0.09	476922	keystroke_Key.backspace	Key.backspace	n/a
238.5655	0.075	477131	keystroke_t	t	n/a
238.776	0.06	477552	keystroke_s	s	n/a
238.851	0.09	477702	keystroke_Key.space	Key.space	n/a
239.076	0.09	478152	keystroke_p	p	n/a
239.3005	0.075	478601	keystroke_o	o	n/a
239.4955	0.075	478991	keystroke_k	k	n/a
239.586	0.0595	479172	keystroke_e	e	n/a
239.736	0.0595	479472	keystroke_r	r	n/a
239.826	0.0745	479652	keystroke_Key.enter	Key.enter	n/a
239.907	5.591	479814	prompt	n/a	judy departmental spaces huge\n
240.6955	0.09	481391	keystroke_j	j	n/a
240.8755	0.0755	481751	keystroke_u	u	n/a
240.9805	0.105	481961	keystroke_d	d	n/a
241.1305	0.1055	482261	keystroke_y	y	n/a
241.386	0.0895	482772	keystroke_Key.space	Key.space	n/a
241.581	0.0745	483162	keystroke_d	d	n/a
241.7305	0.075	483461	keystroke_e	e	n/a
241.9405	0.075	483881	keystroke_p	p	n/a
242.1055	0.0605	484211	keystroke_a	a	n/a
242.2705	0.06	484541	keystroke_r	r	n/a
242.4355	0.045	484871	keystroke_t	t	n/a
242.556	0.0595	485112	keystroke_m	m	n/a
242.631	0.0895	485262	keystroke_e	e	n/a
242.706	0.0895	485412	keystroke_n	n	n/a
243.231	0.0895	486462	keystroke_t	t	n/a
243.5755	0.0755	487151	keystroke_a	a	n/a
243.7105	0.06	487421	keystroke_l	l	n/a
243.861	0.0595	487722	keystroke_Key.space	Key.space	n/a
243.9655	0.075	487931	keystroke_s	s	n/a
244.056	0.0895	488112	keystroke_p	p	n/a
244.1605	0.06	488321	keystroke_a	a	n/a
244.3405	0.075	488681	keystroke_c	c	n/a
244.5205	0.045	489041	keystroke_e	e	n/a
244.611	0.075	489222	keystroke_Key.space	Key.space	n/a
244.7755	0.0605	489551	keystroke_h	h	n/a
244.9255	0.0905	489851	keystroke_u	u	n/a
245.0005	0.12	490001	keystroke_g	g	n/a
245.1505	0.075	490301	keystroke_e	e	n/a
245.4055	0.09	490811	keystroke_Key.enter	Key.enter	n/a
245.5015	4.106	491003	prompt	n/a	watching nest because newly\n
246.1105	0.06	492221	keystroke_w	w	n/a
246.2755	0.06	492551	keystroke_a	a	n/a
246.4405	0.075	492881	keystroke_t	t	n/a
246.6655	0.076	493331	keystroke_c	c	n/a
246.7105	0.09	493421	keystroke_h	h	n/a
246.8605	0.165	493721	keystroke_i	i	n/a
246.9955	0.105	493991	keystroke_n	n	n/a
247.1155	0.06	494231	keystroke_g	g	n/a
247.2505	0.075	494501	keystroke_Key.space	Key.space	n/a
247.4005	0.09	494801	keystroke_n	n	n/a
247.4755	0.06	494951	keystroke_e	e	n/a
247.6255	0.09	495251	keystroke_s	s	n/a
247.7905	0.075	495581	keystroke_t	t	n/a
247.8805	0.09	495761	keystroke_Key.space	Key.space	n/a
248.0455	0.09	496091	keystroke_b	b	n/a
248.0755	0.075	496151	keystroke_e	e	n/a
248.2555	0.06	496511	keystroke_c	c	n/a
248.3905	0.06	496781	keystroke_a	a	n/a
248.4355	0.09	496871	keystroke_u	u	n/a
248.5405	0.075	497081	keystroke_s	s	n/a
248.7205	0.075	497441	keystroke_e	e	n/a
248.8405	0.03	497681	keystroke_Key.space	Key.space	n/a
248.9605	0.105	497921	keystroke_n	n	n/a
249.0205	0.06	498041	keystroke_e	e	n/a
249.1855	0.06	498371	keystroke_w	w	n/a
249.2305	0.105	498461	keystroke_l	l	n/a
249.3805	0.075	498761	keystroke_y	y	n/a
249.5305	0.075	499061	keystroke_Key.enter	Key.enter	n/a
249.6125	6.6405	499225	prompt	n/a	feeding peeing observed everywhere\n
250.3705	0.076	500741	keystroke_f	f	n/a
250.5515	0.074	501103	keystroke_e	e	n/a
250.7905	0.075	501581	keystroke_e	e	n/a
251.0155	0.091	502031	keystroke_d	d	n/a
251.1205	0.135	502241	keystroke_i	i	n/a
251.2255	0.09	502451	keystroke_n	n	n/a
251.3165	0.059	502633	keystroke_g	g	n/a
251.4205	0.09	502841	keystroke_Key.space	Key.space	n/a
251.6155	0.09	503231	keystroke_p	p	n/a
251.7505	0.03	503501	keystroke_e	e	n/a
251.8555	0.045	503711	keystroke_e	e	n/a
251.9455	0.12	503891	keystroke_i	i	n/a
252.0205	0.12	504041	keystroke_n	n	n/a
252.1555	0.075	504311	keystroke_g	g	n/a
252.3055	0.075	504611	keystroke_Key.space	Key.space	n/a
252.4705	0.09	504941	keystroke_o	o	n/a
252.6655	0.06	505331	keystroke_b	b	n/a
252.8155	0.09	505631	keystroke_s	s	n/a
253.0255	0.075	506051	keystroke_e	e	n/a
253.1605	0.075	506321	keystroke_r	r	n/a
253.5055	0.075	507011	keystroke_v	v	n/a
253.6255	0.09	507251	keystroke_e	e	n/a
253.8355	0.091	507671	keystroke_d	d	n/a
254.0155	0.105	508031	keystroke_Key.space	Key.space	n/a
254.1055	0.105	508211	keystroke_e	e	n/a
254.3155	0.06	508631	keystroke_v	v	n/a
254.4805	0.045	508961	keystroke_e	e	n/a
255.3055	0.09	510611	keystroke_r	r	n/a
255.4255	0.09	510851	keystroke_y	y	n/a
255.6355	0.075	511271	keystroke_w	w	n/a
255.7255	0.075	511451	keystroke_h	h	n/a
255.8305	0.091	511661	keystroke_e	e	n/a
255.9055	0.15	511811	keystroke_r	r	n/a
256.0105	0.09	512021	keystroke_e	e	n/a
256.1155	0.135	512231	keystroke_Key.enter	Key.enter	n/a
256.2615	5.481	512523	prompt	n/a	bodies urge romance genetic\n
256.9705	0.075	513941	keystroke_b	b	n/a
257.1805	0.09	514361	keystroke_o	o	n/a
257.3005	0.09	514601	keystroke_d	d	n/a
257.4065	0.089	514813	keystroke_i	i	n/a
257.5405	0.075	515081	keystroke_e	e	n/a
257.7205	0.075	515441	keystroke_s	s	n/a
257.8105	0.075	515621	keystroke_Key.space	Key.space	n/a
257.9905	0.075	515981	keystroke_u	u	n/a
258.0805	0.09	516161	keystroke_r	r	n/a
258.2305	0.105	516461	keystroke_g	g	n/a
258.3805	0.075	516761	keystroke_e	e	n/a
258.5905	0.09	517181	keystroke_Key.space	Key.space	n/a
258.8915	0.059	517783	keystroke_r	r	n/a
258.9655	0.105	517931	keystroke_o	o	n/a
259.1155	0.091	518231	keystroke_m	m	n/a
259.2215	0.074	518443	keystroke_a	a	n/a
259.4455	0.105	518891	keystroke_n	n	n/a
259.5805	0.09	519161	keystroke_c	c	n/a
259.7315	0.089	519463	keystroke_e	e	n/a
259.8355	0.105	519671	keystroke_Key.space	Key.space	n/a
260.1055	0.06	520211	keystroke_g	g	n/a
260.3155	0.045	520631	keystroke_e	e	n/a
260.4065	0.074	520813	keystroke_n	n	n/a
260.9305	0.091	521861	keystroke_e	e	n/a
261.2455	0.06	522491	keystroke_t	t	n/a
261.3515	0.09	522703	keystroke_i	i	n/a
261.5305	0.09	523061	keystroke_c	c	n/a
261.6505	0.09	523301	keystroke_Key.enter	Key.enter	n/a
261.7475	5.1255	523495	prompt	n/a	pdas cricket waiting upgrading\n
262.3855	0.045	524771	keystroke_p	p	n/a
262.6855	0.061	525371	keystroke_d	d	n/a
262.9105	0.09	525821	keystroke_a	a	n/a
263.0605	0.09	526121	keystroke_s	s	n/a
263.2555	0.09	526511	keystroke_Key.space	Key.space	n/a
263.3905	0.076	526781	keystroke_c	c	n/a
263.5865	0.059	527173	keystroke_r	r	n/a
263.6605	0.09	527321	keystroke_i	i	n/a
263.7955	0.06	527591	keystroke_c	c	n/a
263.8855	0.105	527771	keystroke_k	k	n/a
263.9765	0.074	527953	keystroke_e	e	n/a
264.1415	0.075	528283	keystroke_t	t	n/a
264.2755	0.09	528551	keystroke_Key.space	Key.space	n/a
264.3955	0.06	528791	keystroke_w	w	n/a
264.5755	0.075	529151	keystroke_a	a	n/a
264.6055	0.105	529211	keystroke_i	i	n/a
264.7715	0.074	529543	keystroke_t	t	n/a
264.8305	0.1805	529661	keystroke_i	i	n/a
264.9355	0.1205	529871	keystroke_n	n	n/a
265.071	0.075	530142	keystroke_g	g	n/a
265.191	0.09	530382	keystroke_Key.space	Key.space	n/a
265.401	0.09	530802	keystroke_u	u	n/a
265.641	0.09	531282	keystroke_p	p	n/a
265.761	0.105	531522	keystroke_g	g	n/a
265.926	0.09	531852	keystroke_r	r	n/a
266.181	0.06	532362	keystroke_a	a	n/a
266.331	0.075	532662	keystroke_d	d	n/a
266.421	0.12	532842	keystroke_i	i	n/a
266.511	0.12	533022	keystroke_n	n	n/a
266.601	0.075	533202	keystroke_g	g	n/a
266.781	0.09	533562	keystroke_Key.enter	Key.enter	n/a
266.8785	4.539	533757	prompt	n/a	thin maximum kodak southern\n
267.606	0.075	535212	keystroke_t	t	n/a
267.696	0.075	535392	keystroke_h	h	n/a
267.816	0.135	535632	keystroke_i	i	n/a
267.891	0.135	535782	keystroke_n	n	n/a
268.101	0.075	536202	keystroke_Key.space	Key.space	n/a
268.281	0.075	536562	keystroke_m	m	n/a
268.371	0.06	536742	keystroke_a	a	n/a
268.551	0.09	537102	keystroke_x	x	n/a
268.626	0.09	537252	keystroke_i	i	n/a
268.791	0.09	537582	keystroke_m	m	n/a
268.986	0.075	537972	keystroke_u	u	n/a
269.181	0.075	538362	keystroke_m	m	n/a
269.346	0.09	538692	keystroke_Key.space	Key.space	n/a
269.511	0.075	539022	keystroke_k	k	n/a
269.661	0.09	539322	keystroke_o	o	n/a
269.781	0.06	539562	keystroke_d	d	n/a
269.886	0.09	539772	keystroke_a	a	n/a
269.991	0.075	539982	keystroke_k	k	n/a
270.171	0.105	540342	keystroke_Key.space	Key.space	n/a
270.411	0.12	540822	keystroke_s	s	n/a
270.486	0.075	540972	keystroke_o	o	n/a
270.666	0.045	541332	keystroke_u	u	n/a
270.741	0.075	541482	keystroke_t	t	n/a
270.831	0.075	541662	keystroke_h	h	n/a
270.921	0.075	541842	keystroke_e	e	n/a
271.041	0.09	542082	keystroke_r	r	n/a
271.116	0.09	542232	keystroke_n	n	n/a
271.341	0.075	542682	keystroke_Key.enter	Key.enter	n/a
271.421	5.5175	542842	prompt	n/a	insertion syndrome breathing thumb\n
272.271	0.09	544542	keystroke_i	i	n/a
272.451	0.06	544902	keystroke_n	n	n/a
272.496	0.06	544992	keystroke_s	s	n/a
272.676	0.09	545352	keystroke_e	e	n/a
272.871	0.06	545742	keystroke_r	r	n/a
273.021	0.06	546042	keystroke_t	t	n/a
273.096	0.075	546192	keystroke_i	i	n/a
273.276	0.135	546552	keystroke_o	o	n/a
273.336	0.12	546672	keystroke_n	n	n/a
273.561	0.09	547122	keystroke_Key.space	Key.space	n/a
273.741	0.06	547482	keystroke_s	s	n/a
273.816	0.105	547632	keystroke_y	y	n/a
274.011	0.09	548022	keystroke_n	n	n/a
274.086	0.075	548172	keystroke_d	d	n/a
274.251	0.09	548502	keystroke_r	r	n/a
274.311	0.15	548622	keystroke_o	o	n/a
274.431	0.12	548862	keystroke_m	m	n/a
274.566	0.075	549132	keystroke_e	e	n/a
274.656	0.075	549312	keystroke_Key.space	Key.space	n/a
274.821	0.09	549642	keystroke_b	b	n/a
274.941	0.105	549882	keystroke_r	r	n/a
275.031	0.06	550062	keystroke_e	e	n/a
275.211	0.075	550422	keystroke_a	a	n/a
275.406	0.06	550812	keystroke_t	t	n/a
275.467	0.089	550934	keystroke_h	h	n/a
275.661	0.12	551322	keystroke_i	i	n/a
275.751	0.105	551502	keystroke_n	n	n/a
275.871	0.075	551742	keystroke_g	g	n/a
275.991	0.105	551982	keystroke_Key.space	Key.space	n/a
276.111	0.075	552222	keystroke_t	t	n/a
276.201	0.075	552402	keystroke_h	h	n/a
276.396	0.075	552792	keystroke_u	u	n/a
276.546	0.135	553092	keystroke_m	m	n/a
276.696	0.09	553392	keystroke_b	b	n/a
276.846	0.09	553692	keystroke_Key.enter	Key.enter	n/a
276.9435	7.2845	553887	prompt	n/a	refine priorities securely rolling\n
277.821	0.075	555642	keystroke_r	r	n/a
277.897	0.089	555794	keystroke_e	e	n/a
278.076	0.075	556152	keystroke_f	f	n/a
278.136	0.15	556272	keystroke_i	i	n/a
278.241	0.105	556482	keystroke_n	n	n/a
278.347	0.074	556694	keystroke_e	e	n/a
278.466	0.09	556932	keystroke_Key.space	Key.space	n/a
278.706	0.105	557412	keystroke_p	p	n/a
278.841	0.06	557682	keystroke_r	r	n/a
278.976	0.105	557952	keystroke_i	i	n/a
279.171	0.09	558342	keystroke_o	o	n/a
279.516	0.075	559032	keystroke_r	r	n/a
279.726	0.075	559452	keystroke_i	i	n/a
279.816	0.075	559632	keystroke_t	t	n/a
279.906	0.105	559812	keystroke_i	i	n/a
280.041	0.075	560082	keystroke_e	e	n/a
280.236	0.06	560472	keystroke_s	s	n/a
280.341	0.075	560682	keystroke_Key.space	Key.space	n/a
280.401	0.06	560802	keystroke_s	s	n/a
280.551	0.09	561102	keystroke_e	e	n/a
280.746	0.06	561492	keystroke_c	c	n/a
280.836	0.075	561672	keystroke_u	u	n/a
281.047	0.104	562094	keystroke_r	r	n/a
281.136	0.075	562272	keystroke_e	e	n/a
281.196	0.075	562392	keystroke_l	l	n/a
281.436	0.075	562872	keystroke_Key.space	Key.space	n/a
281.901	0.075	563802	keystroke_Key.backspace	Key.backspace	n/a
282.426	0.075	564852	keystroke_y	y	n/a
282.606	0.075	565212	keystroke_Key.space	Key.space	n/a
282.921	0.015	565842	keystroke_r	r	n/a
283.356	0.075	566712	keystroke_o	o	n/a
283.566	0.045	567132	keystroke_l	l	n/a
283.671	0.09	567342	keystroke_l	l	n/a
283.851	0.0895	567702	keystroke_i	i	n/a
283.911	0.135	567822	keystroke_n	n	n/a
284.031	0.09	568062	keystroke_g	g	n/a
284.166	0.06	568332	keystroke_Key.enter	Key.enter	n/a
284.233	3.6995	568466	prompt	n/a	lists agent west raises\n
284.811	0.045	569622	keystroke_l	l	n/a
284.976	0.09	569952	keystroke_i	i	n/a
285.081	0.09	570162	keystroke_s	s	n/a
285.276	0.075	570552	keystroke_t	t	n/a
285.441	0.075	570882	keystroke_s	s	n/a
285.546	0.09	571092	keystroke_Key.space	Key.space	n/a
285.651	0.06	571302	keystroke_a	a	n/a
285.831	0.075	571662	keystroke_g	g	n/a
285.921	0.105	571842	keystroke_e	e	n/a
285.996	0.09	571992	keystroke_n	n	n/a
286.146	0.06	572292	keystroke_t	t	n/a
286.221	0.09	572442	keystroke_Key.space	Key.space	n/a
286.356	0.075	572712	keystroke_w	w	n/a
286.536	0.06	573072	keystroke_e	e	n/a
286.686	0.09	573372	keystroke_s	s	n/a
286.881	0.075	573762	keystroke_t	t	n/a
287.0005	0.135	574001	keystroke_Key.space	Key.space	n/a
287.0905	0.06	574181	keystroke_r	r	n/a
287.2555	0.06	574511	keystroke_a	a	n/a
287.3305	0.075	574661	keystroke_i	i	n/a
287.4205	0.075	574841	keystroke_s	s	n/a
287.601	0.075	575202	keystroke_e	e	n/a
287.7505	0.075	575501	keystroke_s	s	n/a
287.8405	0.0905	575681	keystroke_Key.enter	Key.enter	n/a
287.937	4.7055	575874	prompt	n/a	dairy glad sealed knights\n
288.531	0.0745	577062	keystroke_d	d	n/a
288.651	0.12	577302	keystroke_a	a	n/a
288.756	0.075	577512	keystroke_i	i	n/a
288.8905	0.0755	577781	keystroke_r	r	n/a
289.0555	0.09	578111	keystroke_y	y	n/a
289.2805	0.0755	578561	keystroke_Key.space	Key.space	n/a
289.551	0.03	579102	keystroke_g	g	n/a
289.6405	0.075	579281	keystroke_l	l	n/a
289.7605	0.06	579521	keystroke_a	a	n/a
289.9105	0.06	579821	keystroke_d	d	n/a
290.061	0.09	580122	keystroke_Key.space	Key.space	n/a
290.166	0.06	580332	keystroke_s	s	n/a
290.346	0.06	580692	keystroke_e	e	n/a
290.511	0.075	581022	keystroke_a	a	n/a
290.601	0.075	581202	keystroke_l	l	n/a
290.751	0.075	581502	keystroke_e	e	n/a
290.901	0.075	581802	keystroke_d	d	n/a
291.006	0.075	582012	keystroke_Key.space	Key.space	n/a
291.186	0.135	582372	keystroke_k	k	n/a
291.306	0.12	582612	keystroke_n	n	n/a
291.576	0.09	583152	keystroke_i	i	n/a
291.846	0.06	583692	keystroke_g	g	n/a
291.921	0.105	583842	keystroke_h	h	n/a
292.041	0.06	584082	keystroke_t	t	n/a
292.251	0.09	584502	keystroke_s	s	n/a
292.581	0.06	585162	keystroke_Key.enter	Key.enter	n/a
292.647	5.131	585294	prompt	n/a	msgid populations donald is\n
293.301	0.105	586602	keystroke_m	m	n/a
293.511	0.075	587022	keystroke_s	s	n/a
293.766	0.075	587532	keystroke_g	g	n/a
293.946	0.09	587892	keystroke_i	i	n/a
294.111	0.09	588222	keystroke_d	d	n/a
294.246	0.075	588492	keystroke_Key.space	Key.space	n/a
294.471	0.09	588942	keystroke_p	p	n/a
294.666	0.075	589332	keystroke_o	o	n/a
294.816	0.06	589632	keystroke_p	p	n/a
295.026	0.06	590052	keystroke_u	u	n/a
295.251	0.06	590502	keystroke_l	l	n/a
295.326	0.075	590652	keystroke_a	a	n/a
295.536	0.075	591072	keystroke_t	t	n/a
295.596	0.075	591192	keystroke_i	i	n/a
295.776	0.12	591552	keystroke_o	o	n/a
295.881	0.06	591762	keystroke_n	n	n/a
296.001	0.12	592002	keystroke_s	s	n/a
296.181	0.09	592362	keystroke_Key.space	Key.space	n/a
296.301	0.075	592602	keystroke_d	d	n/a
296.421	0.135	592842	keystroke_o	o	n/a
296.601	0.06	593202	keystroke_n	n	n/a
296.901	0.075	593802	keystroke_a	a	n/a
296.991	0.075	593982	keystroke_l	l	n/a
297.126	0.09	594252	keystroke_d	d	n/a
297.201	0.06	594402	keystroke_Key.space	Key.space	n/a
297.351	0.075	594702	keystroke_i	i	n/a
297.471	0.09	594942	keystroke_s	s	n/a
297.681	0.09	595362	keystroke_Key.enter	Key.enter	n/a
297.778	3.4895	595556	prompt	n/a	checks lake runs shall\n
298.491	0.06	596982	keystroke_c	c	n/a
298.566	0.075	597132	keystroke_h	h	n/a
298.641	0.075	597282	keystroke_e	e	n/a
298.836	0.09	597672	keystroke_c	c	n/a
298.956	0.075	597912	keystroke_k	k	n/a
299.121	0.06	598242	keystroke_s	s	n/a
299.211	0.09	598422	keystroke_Key.space	Key.space	n/a
299.421	0.06	598842	keystroke_l	l	n/a
299.496	0.06	598992	keystroke_a	a	n/a
299.601	0.09	599202	keystroke_k	k	n/a
299.706	0.09	599412	keystroke_e	e	n/a
299.797	0.119	599594	keystroke_Key.space	Key.space	n/a
299.961	0.06	599922	keystroke_r	r	n/a
300.066	0.105	600132	keystroke_u	u	n/a
300.216	0.12	600432	keystroke_n	n	n/a
300.351	0.06	600702	keystroke_s	s	n/a
300.441	0.09	600882	keystroke_Key.space	Key.space	n/a
300.516	0.075	601032	keystroke_s	s	n/a
300.576	0.09	601152	keystroke_h	h	n/a
300.696	0.045	601392	keystroke_a	a	n/a
300.891	0.045	601782	keystroke_l	l	n/a
301.026	0.045	602052	keystroke_l	l	n/a
301.191	0.075	602382	keystroke_Key.enter	Key.enter	n/a
301.272	4.451	602544	prompt	n/a	butler swiss suites estate\n
302.016	0.09	604032	keystroke_b	b	n/a
302.166	0.09	604332	keystroke_u	u	n/a
302.316	0.075	604632	keystroke_t	t	n/a
302.466	0.09	604932	keystroke_l	l	n/a
302.586	0.075	605172	keystroke_e	e	n/a
302.736	0.045	605472	keystroke_r	r	n/a
302.841	0.075	605682	keystroke_Key.space	Key.space	n/a
303.006	0.06	606012	keystroke_s	s	n/a
303.171	0.06	606342	keystroke_w	w	n/a
303.246	0.06	606492	keystroke_i	i	n/a
303.366	0.06	606732	keystroke_s	s	n/a
303.501	0.06	607002	keystroke_s	s	n/a
303.591	0.075	607182	keystroke_Key.space	Key.space	n/a
303.681	0.075	607362	keystroke_s	s	n/a
303.786	0.075	607572	keystroke_u	u	n/a
303.951	0.06	607902	keystroke_i	i	n/a
304.056	0.09	608112	keystroke_t	t	n/a
304.161	0.06	608322	keystroke_e	e	n/a
304.341	0.075	608682	keystroke_s	s	n/a
304.461	0.09	608922	keystroke_Key.space	Key.space	n/a
304.611	0.075	609222	keystroke_e	e	n/a
304.806	0.075	609612	keystroke_s	s	n/a
304.986	0.045	609972	keystroke_t	t	n/a
305.136	0.09	610272	keystroke_a	a	n/a
305.346	0.12	610692	keystroke_t	t	n/a
305.436	0.12	610872	keystroke_e	e	n/a
305.631	0.09	611262	keystroke_Key.enter	Key.enter	n/a
305.7275	8.995	611455	prompt	n/a	saved call pmid louisville\n
306.351	0.105	612702	keystroke_s	s	n/a
306.486	0.075	612972	keystroke_a	a	n/a
306.696	0.09	613392	keystroke_v	v	n/a
306.831	0.075	613662	keystroke_e	e	n/a
306.996	0.09	613992	keystroke_d	d	n/a
307.131	0.075	614262	keystroke_Key.space	Key.space	n/a
307.251	0.045	614502	keystroke_c	c	n/a
307.386	0.045	614772	keystroke_a	a	n/a
307.461	0.045	614922	keystroke_l	l	n/a
307.611	0.06	615222	keystroke_l	l	n/a
307.791	0.09	615582	keystroke_Key.space	Key.space	n/a
308.286	0.075	616572	keystroke_p	p	n/a
308.526	0.09	617052	keystroke_m	m	n/a
308.706	0.09	617412	keystroke_i	i	n/a
308.886	0.09	617772	keystroke_d	d	n/a
308.991	0.06	617982	keystroke_Key.space	Key.space	n/a
309.231	0.06	618462	keystroke_l	l	n/a
309.486	0.06	618972	keystroke_u	u	n/a
309.636	0.09	619272	keystroke_i	i	n/a
309.741	0.06	619482	keystroke_s	s	n/a
309.906	0.075	619812	keystroke_v	v	n/a
309.996	0.105	619992	keystroke_i	i	n/a
310.251	0.045	620502	keystroke_l	l	n/a
310.371	0.075	620742	keystroke_l	l	n/a
310.4915	0.0895	620983	keystroke_e	e	n/a
311.2105	0.045	622421	keystroke_Key.backspace	Key.backspace	n/a
311.3605	0.06	622721	keystroke_Key.backspace	Key.backspace	n/a
311.7355	0.045	623471	keystroke_Key.backspace	Key.backspace	n/a
311.8855	0.045	623771	keystroke_Key.backspace	Key.backspace	n/a
312.0205	0.06	624041	keystroke_Key.backspace	Key.backspace	n/a
312.1705	0.06	624341	keystroke_Key.backspace	Key.backspace	n/a
312.3205	0.06	624641	keystroke_Key.backspace	Key.backspace	n/a
312.6205	0.06	625241	keystroke_Key.backspace	Key.backspace	n/a
312.9805	0.075	625961	keystroke_o	o	n/a
313.2205	0.075	626441	keystroke_u	u	n/a
313.3705	0.09	626741	keystroke_i	i	n/a
313.5055	0.075	627011	keystroke_s	s	n/a
313.7005	0.09	627401	keystroke_v	v	n/a
313.7755	0.075	627551	keystroke_i	i	n/a
314.1205	0.06	628241	keystroke_l	l	n/a
314.2855	0.045	628571	keystroke_l	l	n/a
314.4065	0.089	628813	keystroke_e	e	n/a
314.6615	0.059	629323	keystroke_Key.enter	Key.enter	n/a
314.7275	7.165	629455	prompt	n/a	matrix troubleshooting trainers cincinnati\n
315.3955	0.06	630791	keystroke_m	m	n/a
315.7705	0.091	631541	keystroke_a	a	n/a
316.0105	0.09	632021	keystroke_t	t	n/a
316.0705	0.105	632141	keystroke_r	r	n/a
316.2655	0.06	632531	keystroke_i	i	n/a
316.4605	0.075	632921	keystroke_x	x	n/a
316.5955	0.105	633191	keystroke_Key.space	Key.space	n/a
316.7905	0.06	633581	keystroke_t	t	n/a
316.8655	0.075	633731	keystroke_r	r	n/a
316.9105	0.105	633821	keystroke_o	o	n/a
317.1205	0.075	634241	keystroke_u	u	n/a
317.2105	0.105	634421	keystroke_b	b	n/a
317.3455	0.105	634691	keystroke_l	l	n/a
317.4515	0.059	634903	keystroke_e	e	n/a
317.6305	0.06	635261	keystroke_s	s	n/a
317.6915	0.104	635383	keystroke_h	h	n/a
317.9755	0.045	635951	keystroke_o	o	n/a
318.0805	0.075	636161	keystroke_o	o	n/a
318.1855	0.09	636371	keystroke_t	t	n/a
318.2905	0.135	636581	keystroke_i	i	n/a
318.3805	0.12	636761	keystroke_n	n	n/a
318.5455	0.09	637091	keystroke_g	g	n/a
318.6955	0.075	637391	keystroke_Key.space	Key.space	n/a
318.8155	0.135	637631	keystroke_t	t	n/a
318.9355	0.06	637871	keystroke_r	r	n/a
319.1305	0.09	638261	keystroke_a	a	n/a
319.1905	0.12	638381	keystroke_i	i	n/a
319.2805	0.12	638561	keystroke_n	n	n/a
319.3855	0.105	638771	keystroke_e	e	n/a
319.5505	0.075	639101	keystroke_r	r	n/a
319.7005	0.075	639401	keystroke_s	s	n/a
319.8055	0.09	639611	keystroke_Key.space	Key.space	n/a
320.0005	0.09	640001	keystroke_c	c	n/a
320.2105	0.09	640421	keystroke_i	i	n/a
320.4955	0.09	640991	keystroke_n	n	n/a
320.6905	0.06	641381	keystroke_c	c	n/a
320.7955	0.09	641591	keystroke_i	i	n/a
321.0505	0.015	642101	keystroke_n	n	n/a
321.1255	0.075	642251	keystroke_n	n	n/a
321.3205	0.06	642641	keystroke_a	a	n/a
321.5005	0.075	643001	keystroke_t	t	n/a
321.5905	0.06	643181	keystroke_i	i	n/a
321.8305	0.06	643661	keystroke_Key.enter	Key.enter	n/a
321.8995	5.768	643799	prompt	n/a	hopkins hourly retention artists\n
322.6405	0.075	645281	keystroke_h	h	n/a
322.7755	0.075	645551	keystroke_o	o	n/a
322.9555	0.06	645911	keystroke_p	p	n/a
323.1355	0.075	646271	keystroke_k	k	n/a
323.3305	0.12	646661	keystroke_i	i	n/a
323.4355	0.09	646871	keystroke_n	n	n/a
323.5705	0.075	647141	keystroke_s	s	n/a
323.6905	0.075	647381	keystroke_Key.space	Key.space	n/a
323.8705	0.06	647741	keystroke_h	h	n/a
324.0805	0.075	648161	keystroke_o	o	n/a
324.2755	0.075	648551	keystroke_u	u	n/a
324.3955	0.09	648791	keystroke_r	r	n/a
324.5305	0.075	649061	keystroke_l	l	n/a
324.7105	0.075	649421	keystroke_y	y	n/a
324.8605	0.075	649721	keystroke_Key.space	Key.space	n/a
325.0855	0.105	650171	keystroke_r	r	n/a
325.1755	0.12	650351	keystroke_e	e	n/a
325.3865	0.074	650773	keystroke_t	t	n/a
325.4755	0.12	650951	keystroke_e	e	n/a
325.6705	0.075	651341	keystroke_n	n	n/a
325.7755	0.075	651551	keystroke_t	t	n/a
325.9105	0.09	651821	keystroke_i	i	n/a
326.0755	0.135	652151	keystroke_o	o	n/a
326.1805	0.09	652361	keystroke_n	n	n/a
326.3605	0.12	652721	keystroke_Key.space	Key.space	n/a
326.4655	0.105	652931	keystroke_a	a	n/a
326.6905	0.075	653381	keystroke_r	r	n/a
326.8555	0.075	653711	keystroke_t	t	n/a
326.9455	0.09	653891	keystroke_i	i	n/a
327.1105	0.09	654221	keystroke_s	s	n/a
327.3205	0.06	654641	keystroke_t	t	n/a
327.4705	0.075	654941	keystroke_s	s	n/a
327.5905	0.075	655181	keystroke_Key.enter	Key.enter	n/a
327.671	6.7165	655342	prompt	n/a	broker strategy hoping troops\n
328.3405	0.09	656681	keystroke_b	b	n/a
328.5205	0.06	657041	keystroke_r	r	n/a
328.6105	0.15	657221	keystroke_o	o	n/a
328.7455	0.09	657491	keystroke_k	k	n/a
328.8505	0.075	657701	keystroke_e	e	n/a
329.1355	0.06	658271	keystroke_Key.space	Key.space	n/a
329.4655	0.0745	658931	keystroke_Key.backspace	Key.backspace	n/a
329.615	0.075	659230	keystroke_r	r	n/a
329.84	0.0605	659680	keystroke_Key.space	Key.space	n/a
329.9455	0.06	659891	keystroke_s	s	n/a
330.1855	0.105	660371	keystroke_t	t	n/a
330.3055	0.06	660611	keystroke_r	r	n/a
330.6505	0.09	661301	keystroke_a	a	n/a
330.9205	0.105	661841	keystroke_t	t	n/a
331.0405	0.09	662081	keystroke_e	e	n/a
331.2355	0.09	662471	keystroke_g	g	n/a
331.3705	0.09	662741	keystroke_y	y	n/a
332.1355	0.075	664271	keystroke_Key.space	Key.space	n/a
332.3905	0.09	664781	keystroke_h	h	n/a
332.6455	0.09	665291	keystroke_o	o	n/a
332.8405	0.09	665681	keystroke_p	p	n/a
333.0505	0.15	666101	keystroke_i	i	n/a
333.1565	0.104	666313	keystroke_n	n	n/a
333.2755	0.075	666551	keystroke_g	g	n/a
333.3805	0.075	666761	keystroke_Key.space	Key.space	n/a
333.485	0.075	666970	keystroke_t	t	n/a
333.6655	0.06	667331	keystroke_r	r	n/a
333.7555	0.06	667511	keystroke_o	o	n/a
333.8755	0.06	667751	keystroke_o	o	n/a
334.0105	0.09	668021	keystroke_p	p	n/a
334.1165	0.089	668233	keystroke_s	s	n/a
334.2655	0.12	668531	keystroke_Key.enter	Key.enter	n/a
334.3935	6.009	668787	prompt	n/a	recognition princeton adequate outside\n
335.1215	0.104	670243	keystroke_r	r	n/a
335.2105	0.105	670421	keystroke_e	e	n/a
335.4955	0.075	670991	keystroke_c	c	n/a
335.5855	0.09	671171	keystroke_o	o	n/a
335.7205	0.045	671441	keystroke_g	g	n/a
335.7805	0.09	671561	keystroke_n	n	n/a
335.9155	0.075	671831	keystroke_i	i	n/a
336.0055	0.0595	672011	keystroke_t	t	n/a
336.0805	0.0595	672161	keystroke_i	i	n/a
336.215	0.1505	672430	keystroke_o	o	n/a
336.3055	0.09	672611	keystroke_n	n	n/a
336.4855	0.075	672971	keystroke_Key.space	Key.space	n/a
336.6805	0.0595	673361	keystroke_p	p	n/a
336.7855	0.075	673571	keystroke_r	r	n/a
336.9055	0.1195	673811	keystroke_i	i	n/a
337.01	0.1055	674020	keystroke_n	n	n/a
337.1305	0.075	674261	keystroke_c	c	n/a
337.265	0.0905	674530	keystroke_e	e	n/a
337.4305	0.09	674861	keystroke_t	t	n/a
337.5215	0.119	675043	keystroke_o	o	n/a
337.6105	0.06	675221	keystroke_n	n	n/a
337.7755	0.075	675551	keystroke_Key.space	Key.space	n/a
337.88	0.09	675760	keystroke_a	a	n/a
338.075	0.06	676150	keystroke_d	d	n/a
338.195	0.06	676390	keystroke_e	e	n/a
338.3905	0.06	676781	keystroke_q	q	n/a
338.4805	0.09	676961	keystroke_u	u	n/a
338.6455	0.075	677291	keystroke_a	a	n/a
338.8855	0.1045	677771	keystroke_t	t	n/a
338.975	0.105	677950	keystroke_e	e	n/a
339.23	0.045	678460	keystroke_Key.space	Key.space	n/a
339.4255	0.0895	678851	keystroke_o	o	n/a
339.62	0.075	679240	keystroke_u	u	n/a
339.7255	0.045	679451	keystroke_t	t	n/a
339.9055	0.0595	679811	keystroke_s	s	n/a
339.9805	0.075	679961	keystroke_i	i	n/a
340.07	0.0905	680140	keystroke_d	d	n/a
340.19	0.091	680380	keystroke_e	e	n/a
340.325	0.075	680650	keystroke_Key.enter	Key.enter	n/a
340.407	8.0655	680814	prompt	n/a	stewart negotiation conversation module\n
341.076	0.089	682152	keystroke_s	s	n/a
341.301	0.0745	682602	keystroke_t	t	n/a
341.5105	0.075	683021	keystroke_e	e	n/a
341.765	0.0605	683530	keystroke_w	w	n/a
341.945	0.105	683890	keystroke_a	a	n/a
342.155	0.075	684310	keystroke_r	r	n/a
342.35	0.06	684700	keystroke_t	t	n/a
342.545	0.0605	685090	keystroke_Key.space	Key.space	n/a
342.9055	0.0745	685811	keystroke_n	n	n/a
343.04	0.075	686080	keystroke_e	e	n/a
343.58	0.105	687160	keystroke_g	g	n/a
343.775	0.06	687550	keystroke_o	o	n/a
343.955	0.075	687910	keystroke_t	t	n/a
344.135	0.075	688270	keystroke_i	i	n/a
344.345	0.0905	688690	keystroke_a	a	n/a
344.54	0.075	689080	keystroke_t	t	n/a
344.6	0.09	689200	keystroke_i	i	n/a
344.766	0.1645	689532	keystroke_o	o	n/a
344.885	0.075	689770	keystroke_n	n	n/a
345.08	0.09	690160	keystroke_Key.space	Key.space	n/a
345.2305	0.0595	690461	keystroke_c	c	n/a
345.275	0.15	690550	keystroke_o	o	n/a
345.335	0.15	690670	keystroke_n	n	n/a
345.41	0.06	690820	keystroke_v	v	n/a
345.56	0.075	691120	keystroke_e	e	n/a
346.07	0.075	692140	keystroke_r	r	n/a
346.31	0.0755	692620	keystroke_s	s	n/a
346.49	0.075	692980	keystroke_a	a	n/a
346.685	0.075	693370	keystroke_t	t	n/a
346.805	0.09	693610	keystroke_i	i	n/a
346.9705	0.135	693941	keystroke_o	o	n/a
347.06	0.06	694120	keystroke_n	n	n/a
347.225	0.075	694450	keystroke_Key.space	Key.space	n/a
347.435	0.09	694870	keystroke_m	m	n/a
347.57	0.12	695140	keystroke_o	o	n/a
347.75	0.09	695500	keystroke_d	d	n/a
347.8855	0.0895	695771	keystroke_u	u	n/a
348.095	0.06	696190	keystroke_l	l	n/a
348.185	0.12	696370	keystroke_e	e	n/a
348.3955	0.0745	696791	keystroke_Key.enter	Key.enter	n/a
348.478	6.0995	696956	prompt	n/a	retrieval varying soil chairman\n
349.221	0.104	698442	keystroke_r	r	n/a
349.31	0.09	698620	keystroke_e	e	n/a
349.505	0.105	699010	keystroke_t	t	n/a
350.06	0.075	700120	keystroke_r	r	n/a
350.225	0.09	700450	keystroke_i	i	n/a
350.345	0.09	700690	keystroke_e	e	n/a
350.721	0.045	701442	keystroke_v	v	n/a
350.885	0.06	701770	keystroke_a	a	n/a
350.96	0.045	701920	keystroke_l	l	n/a
351.14	0.09	702280	keystroke_Key.space	Key.space	n/a
351.29	0.06	702580	keystroke_v	v	n/a
351.4705	0.0745	702941	keystroke_a	a	n/a
351.6355	0.075	703271	keystroke_r	r	n/a
351.815	0.09	703630	keystroke_y	y	n/a
351.92	0.12	703840	keystroke_i	i	n/a
351.995	0.12	703990	keystroke_n	n	n/a
352.1305	0.0895	704261	keystroke_g	g	n/a
352.265	0.105	704530	keystroke_Key.space	Key.space	n/a
352.4	0.091	704800	keystroke_s	s	n/a
352.5355	0.1045	705071	keystroke_o	o	n/a
352.7	0.105	705400	keystroke_i	i	n/a
352.91	0.076	705820	keystroke_l	l	n/a
353.09	0.0905	706180	keystroke_Key.space	Key.space	n/a
353.21	0.06	706420	keystroke_c	c	n/a
353.2855	0.075	706571	keystroke_h	h	n/a
353.375	0.09	706750	keystroke_a	a	n/a
353.466	0.059	706932	keystroke_i	i	n/a
353.586	0.074	707172	keystroke_r	r	n/a
354.035	0.105	708070	keystroke_m	m	n/a
354.186	0.074	708372	keystroke_a	a	n/a
354.261	0.059	708522	keystroke_n	n	n/a
354.5	0.075	709000	keystroke_Key.enter	Key.enter	n/a
354.583	4.4645	709166	prompt	n/a	glance gross laura humor\n
355.31	0.075	710620	keystroke_g	g	n/a
355.43	0.09	710860	keystroke_l	l	n/a
355.58	0.076	711160	keystroke_a	a	n/a
355.641	0.119	711282	keystroke_n	n	n/a
356.09	0.091	712180	keystroke_c	c	n/a
356.24	0.09	712480	keystroke_e	e	n/a
356.375	0.105	712750	keystroke_Key.space	Key.space	n/a
356.54	0.075	713080	keystroke_g	g	n/a
356.66	0.075	713320	keystroke_r	r	n/a
356.751	0.105	713502	keystroke_o	o	n/a
356.931	0.0445	713862	keystroke_s	s	n/a
357.05	0.06	714100	keystroke_s	s	n/a
357.155	0.075	714310	keystroke_Key.space	Key.space	n/a
357.335	0.075	714670	keystroke_l	l	n/a
357.44	0.105	714880	keystroke_a	a	n/a
357.576	0.089	715152	keystroke_u	u	n/a
357.726	0.0595	715452	keystroke_r	r	n/a
357.89	0.0605	715780	keystroke_a	a	n/a
357.995	0.0905	715990	keystroke_Key.space	Key.space	n/a
358.16	0.075	716320	keystroke_h	h	n/a
358.3555	0.0895	716711	keystroke_u	u	n/a
358.61	0.06	717220	keystroke_m	m	n/a
358.7	0.091	717400	keystroke_o	o	n/a
358.805	0.121	717610	keystroke_r	r	n/a
358.97	0.075	717940	keystroke_Key.enter	Key.enter	n/a
359.051	5.562	718102	prompt	n/a	children forbidden combo afternoon\n
359.705	0.075	719410	keystroke_c	c	n/a
359.885	0.03	719770	keystroke_h	h	n/a
360.006	0.089	720012	keystroke_i	i	n/a
360.2	0.075	720400	keystroke_l	l	n/a
360.29	0.06	720580	keystroke_d	d	n/a
360.5	0.1055	721000	keystroke_r	r	n/a
360.591	0.104	721182	keystroke_e	e	n/a
360.711	0.0745	721422	keystroke_n	n	n/a
360.905	0.09	721810	keystroke_Key.space	Key.space	n/a
361.025	0.0755	722050	keystroke_f	f	n/a
361.101	0.105	722202	keystroke_o	o	n/a
361.161	0.089	722322	keystroke_r	r	n/a
361.355	0.075	722710	keystroke_b	b	n/a
361.446	0.104	722892	keystroke_i	i	n/a
361.671	0.045	723342	keystroke_d	d	n/a
361.791	0.074	723582	keystroke_d	d	n/a
361.97	0.076	723940	keystroke_e	e	n/a
362.091	0.074	724182	keystroke_n	n	n/a
362.27	0.075	724540	keystroke_Key.space	Key.space	n/a
362.42	0.09	724840	keystroke_c	c	n/a
362.496	0.134	724992	keystroke_o	o	n/a
362.6	0.09	725200	keystroke_m	m	n/a
362.675	0.06	725350	keystroke_b	b	n/a
362.75	0.105	725500	keystroke_o	o	n/a
362.96	0.09	725920	keystroke_Key.space	Key.space	n/a
363.035	0.0755	726070	keystroke_a	a	n/a
363.185	0.061	726370	keystroke_f	f	n/a
363.531	0.074	727062	keystroke_t	t	n/a
363.695	0.06	727390	keystroke_e	e	n/a
363.8	0.105	727600	keystroke_r	r	n/a
363.92	0.076	727840	keystroke_n	n	n/a
364.175	0.031	728350	keystroke_o	o	n/a
364.295	0.106	728590	keystroke_o	o	n/a
364.37	0.075	728740	keystroke_n	n	n/a
364.535	0.075	729070	keystroke_Key.enter	Key.enter	n/a
364.619	4.4035	729238	prompt	n/a	asin mainly heights carriers\n
365.181	0.09	730362	keystroke_a	a	n/a
365.375	0.09	730750	keystroke_s	s	n/a
365.495	0.12	730990	keystroke_i	i	n/a
365.6	0.09	731200	keystroke_n	n	n/a
365.765	0.076	731530	keystroke_Key.space	Key.space	n/a
365.945	0.0765	731890	keystroke_m	m	n/a
366.0355	0.0895	732071	keystroke_a	a	n/a
366.141	0.12	732282	keystroke_i	i	n/a
366.186	0.1345	732372	keystroke_n	n	n/a
366.41	0.091	732820	keystroke_l	l	n/a
366.59	0.076	733180	keystroke_y	y	n/a
366.68	0.09	733360	keystroke_Key.space	Key.space	n/a
366.86	0.075	733720	keystroke_h	h	n/a
366.966	0.089	733932	keystroke_e	e	n/a
367.071	0.075	734142	keystroke_i	i	n/a
367.175	0.075	734350	keystroke_g	g	n/a
367.236	0.105	734472	keystroke_h	h	n/a
367.355	0.075	734710	keystroke_t	t	n/a
367.536	0.104	735072	keystroke_s	s	n/a
367.655	0.0755	735310	keystroke_Key.space	Key.space	n/a
367.745	0.0305	735490	keystroke_c	c	n/a
367.836	0.089	735672	keystroke_a	a	n/a
368.12	0.046	736240	keystroke_r	r	n/a
368.255	0.061	736510	keystroke_r	r	n/a
368.346	0.09	736692	keystroke_i	i	n/a
368.466	0.104	736932	keystroke_e	e	n/a
368.66	0.06	737320	keystroke_r	r	n/a
368.825	0.076	737650	keystroke_s	s	n/a
368.93	0.09	737860	keystroke_Key.enter	Key.enter	n/a
369.026	5.426	738052	prompt	n/a	valuation banners ohio renewable\n
369.92	0.046	739840	keystroke_v	v	n/a
370.07	0.06	740140	keystroke_a	a	n/a
370.1	0.09	740200	keystroke_l	l	n/a
370.311	0.075	740622	keystroke_u	u	n/a
370.37	0.09	740740	keystroke_a	a	n/a
370.566	0.075	741132	keystroke_t	t	n/a
370.611	0.09	741222	keystroke_i	i	n/a
370.775	0.165	741550	keystroke_o	o	n/a
370.895	0.105	741790	keystroke_n	n	n/a
371.075	0.09	742150	keystroke_Key.space	Key.space	n/a
371.241	0.105	742482	keystroke_b	b	n/a
371.33	0.09	742660	keystroke_a	a	n/a
371.48	0.06	742960	keystroke_n	n	n/a
371.6	0.075	743200	keystroke_n	n	n/a
371.661	0.075	743322	keystroke_e	e	n/a
371.84	0.075	743680	keystroke_r	r	n/a
372.035	0.076	744070	keystroke_s	s	n/a
372.095	0.075	744190	keystroke_Key.space	Key.space	n/a
372.245	0.106	744490	keystroke_o	o	n/a
372.366	0.074	744732	keystroke_h	h	n/a
372.456	0.09	744912	keystroke_i	i	n/a
372.635	0.076	745270	keystroke_o	o	n/a
372.8	0.105	745600	keystroke_Key.space	Key.space	n/a
372.951	0.119	745902	keystroke_r	r	n/a
373.056	0.104	746112	keystroke_e	e	n/a
373.221	0.075	746442	keystroke_n	n	n/a
373.281	0.074	746562	keystroke_e	e	n/a
373.46	0.061	746920	keystroke_w	w	n/a
373.731	0.059	747462	keystroke_a	a	n/a
373.82	0.076	747640	keystroke_b	b	n/a
373.985	0.09	747970	keystroke_l	l	n/a
374.09	0.106	748180	keystroke_e	e	n/a
374.345	0.105	748690	keystroke_Key.enter	Key.enter	n/a
374.457	4.001	748914	prompt	n/a	cook markers you'd risk\n
375.021	0.09	750042	keystroke_c	c	n/a
375.156	0.059	750312	keystroke_o	o	n/a
375.29	0.181	750580	keystroke_o	o	n/a
375.425	0.106	750850	keystroke_k	k	n/a
375.681	0.044	751362	keystroke_Key.space	Key.space	n/a
375.831	0.09	751662	keystroke_m	m	n/a
375.891	0.059	751782	keystroke_a	a	n/a
376.071	0.06	752142	keystroke_r	r	n/a
376.175	0.045	752350	keystroke_k	k	n/a
376.206	0.089	752412	keystroke_e	e	n/a
376.355	0.075	752710	keystroke_r	r	n/a
376.52	0.091	753040	keystroke_s	s	n/a
376.625	0.09	753250	keystroke_Key.space	Key.space	n/a
376.82	0.046	753640	keystroke_y	y	n/a
376.881	0.06	753762	keystroke_o	o	n/a
377.061	0.09	754122	keystroke_u	u	n/a
377.3	0.075	754600	keystroke_'	'	n/a
377.541	0.105	755082	keystroke_d	d	n/a
377.69	0.075	755380	keystroke_Key.space	Key.space	n/a
377.81	0.076	755620	keystroke_r	r	n/a
377.915	0.091	755830	keystroke_i	i	n/a
378.035	0.076	756070	keystroke_s	s	n/a
378.125	0.075	756250	keystroke_k	k	n/a
378.365	0.09	756730	keystroke_Key.enter	Key.enter	n/a
378.463	6.8195	756926	prompt	n/a	federation suffering floating sbjct\n
379.115	0.076	758230	keystroke_f	f	n/a
379.235	0.121	758470	keystroke_e	e	n/a
379.431	0.06	758862	keystroke_r	r	n/a
380.015	0.075	760030	keystroke_Key.backspace	Key.backspace	n/a
380.241	0.059	760482	keystroke_d	d	n/a
380.391	0.075	760782	keystroke_e	e	n/a
380.526	0.044	761052	keystroke_r	r	n/a
380.646	0.104	761292	keystroke_a	a	n/a
380.841	0.075	761682	keystroke_t	t	n/a
380.93	0.106	761860	keystroke_i	i	n/a
381.111	0.165	762222	keystroke_o	o	n/a
381.245	0.1055	762490	keystroke_n	n	n/a
381.4395	0.1215	762879	keystroke_Key.space	Key.space	n/a
381.6205	0.0745	763241	keystroke_s	s	n/a
381.6795	0.0905	763359	keystroke_u	u	n/a
381.8	0.06	763600	keystroke_f	f	n/a
381.921	0.09	763842	keystroke_f	f	n/a
382.1	0.0755	764200	keystroke_e	e	n/a
382.2655	0.0605	764531	keystroke_r	r	n/a
382.3395	0.121	764679	keystroke_i	i	n/a
382.43	0.0895	764860	keystroke_n	n	n/a
382.5045	0.061	765009	keystroke_g	g	n/a
382.655	0.06	765310	keystroke_Key.space	Key.space	n/a
382.761	0.06	765522	keystroke_f	f	n/a
382.836	0.075	765672	keystroke_l	l	n/a
383.015	0.09	766030	keystroke_o	o	n/a
383.061	0.075	766122	keystroke_a	a	n/a
383.255	0.091	766510	keystroke_t	t	n/a
383.316	0.15	766632	keystroke_i	i	n/a
383.421	0.089	766842	keystroke_n	n	n/a
383.526	0.074	767052	keystroke_g	g	n/a
383.72	0.12	767440	keystroke_Key.space	Key.space	n/a
384.066	0.075	768132	keystroke_s	s	n/a
384.5	0.075	769000	keystroke_b	b	n/a
384.7105	0.105	769421	keystroke_j	j	n/a
384.8455	0.075	769691	keystroke_c	c	n/a
385.0695	0.091	770139	keystroke_t	t	n/a
385.1745	0.105	770349	keystroke_Key.enter	Key.enter	n/a
385.2875	5.1845	770575	prompt	n/a	cleaner like interfaces geek\n
385.8945	0.06	771789	keystroke_c	c	n/a
385.9555	0.119	771911	keystroke_l	l	n/a
386.0895	0.076	772179	keystroke_e	e	n/a
386.2705	0.104	772541	keystroke_a	a	n/a
386.8855	0.075	773771	keystroke_n	n	n/a
387.1395	0.076	774279	keystroke_e	e	n/a
387.305	0.045	774610	keystroke_r	r	n/a
387.38	0.0605	774760	keystroke_Key.space	Key.space	n/a
387.53	0.076	775060	keystroke_l	l	n/a
387.7405	0.0445	775481	keystroke_i	i	n/a
387.8745	0.106	775749	keystroke_k	k	n/a
387.9495	0.091	775899	keystroke_e	e	n/a
388.0545	0.09	776109	keystroke_Key.space	Key.space	n/a
388.22	0.1355	776440	keystroke_i	i	n/a
388.3105	0.119	776621	keystroke_n	n	n/a
388.3695	0.0765	776739	keystroke_t	t	n/a
388.5055	0.104	777011	keystroke_e	e	n/a
388.6245	0.091	777249	keystroke_r	r	n/a
388.7755	0.074	777551	keystroke_f	f	n/a
388.9545	0.091	777909	keystroke_a	a	n/a
389.1505	0.074	778301	keystroke_c	c	n/a
389.3455	0.06	778691	keystroke_e	e	n/a
389.4945	0.091	778989	keystroke_s	s	n/a
389.5995	0.09	779199	keystroke_Key.space	Key.space	n/a
389.7505	0.06	779501	keystroke_g	g	n/a
389.9755	0.06	779951	keystroke_e	e	n/a
390.0955	0.059	780191	keystroke_e	e	n/a
390.1855	0.075	780371	keystroke_k	k	n/a
390.3805	0.089	780761	keystroke_Key.enter	Key.enter	n/a
390.479	4.9285	780958	prompt	n/a	garbage departmental buys laser\n
391.2655	0.06	782531	keystroke_g	g	n/a
391.4155	0.09	782831	keystroke_a	a	n/a
391.5735	0.052	783147	keystroke_r	r	n/a
391.6405	0.075	783281	keystroke_b	b	n/a
391.7005	0.09	783401	keystroke_a	a	n/a
391.8795	0.075	783759	keystroke_g	g	n/a
391.9695	0.105	783939	keystroke_e	e	n/a
392.1055	0.105	784211	keystroke_Key.space	Key.space	n/a
392.2705	0.104	784541	keystroke_d	d	n/a
392.4055	0.089	784811	keystroke_e	e	n/a
392.5105	0.089	785021	keystroke_p	p	n/a
392.6305	0.075	785261	keystroke_a	a	n/a
392.8255	0.09	785651	keystroke_r	r	n/a
393.0045	0.061	786009	keystroke_t	t	n/a
393.1105	0.075	786221	keystroke_m	m	n/a
393.1995	0.076	786399	keystroke_e	e	n/a
393.3055	0.09	786611	keystroke_n	n	n/a
393.4095	0.061	786819	keystroke_t	t	n/a
393.5905	0.075	787181	keystroke_a	a	n/a
393.6945	0.061	787389	keystroke_l	l	n/a
393.8445	0.076	787689	keystroke_Key.space	Key.space	n/a
393.9955	0.06	787991	keystroke_b	b	n/a
394.0855	0.059	788171	keystroke_u	u	n/a
394.2505	0.06	788501	keystroke_y	y	n/a
394.3555	0.06	788711	keystroke_s	s	n/a
394.4605	0.089	788921	keystroke_Key.space	Key.space	n/a
394.6245	0.106	789249	keystroke_l	l	n/a
394.701	0.0745	789402	keystroke_a	a	n/a
394.8655	0.03	789731	keystroke_s	s	n/a
395.0005	0.09	790001	keystroke_e	e	n/a
395.1505	0.09	790301	keystroke_r	r	n/a
395.3455	0.059	790691	keystroke_Key.enter	Key.enter	n/a
395.412	9.2955	790824	prompt	n/a	screen catch analyze figure\n
395.9905	0.0895	791981	keystroke_s	s	n/a
396.2005	0.09	792401	keystroke_c	c	n/a
396.4255	0.075	792851	keystroke_r	r	n/a
396.6205	0.06	793241	keystroke_e	e	n/a
396.7555	0.045	793511	keystroke_e	e	n/a
396.8305	0.06	793661	keystroke_n	n	n/a
396.9805	0.119	793961	keystroke_Key.space	Key.space	n/a
397.1155	0.029	794231	keystroke_c	c	n/a
397.2055	0.075	794411	keystroke_a	a	n/a
397.3705	0.075	794741	keystroke_t	t	n/a
397.596	0.0895	795192	keystroke_c	c	n/a
397.7005	0.075	795401	keystroke_h	h	n/a
397.8805	0.075	795761	keystroke_Key.space	Key.space	n/a
398.0305	0.075	796061	keystroke_a	a	n/a
398.0905	0.09	796181	keystroke_n	n	n/a
398.3305	0.075	796661	keystroke_l	l	n/a
398.4205	0.045	796841	keystroke_y	y	n/a
398.7805	0.075	797561	keystroke_z	z	n/a
399.1555	0.06	798311	keystroke_e	e	n/a
399.2905	0.075	798581	keystroke_Key.space	Key.space	n/a
399.6655	0.06	799331	keystroke_f	f	n/a
399.7405	0.075	799481	keystroke_i	i	n/a
399.8005	0.06	799601	keystroke_g	g	n/a
399.9205	0.09	799841	keystroke_u	u	n/a
400.0705	0.135	800141	keystroke_r	r	n/a
400.1605	0.09	800321	keystroke_e	e	n/a
400.8205	0.045	801641	keystroke_Key.backspace	Key.backspace	n/a
400.9555	0.06	801911	keystroke_Key.backspace	Key.backspace	n/a
401.1055	0.045	802211	keystroke_Key.backspace	Key.backspace	n/a
401.2555	0.03	802511	keystroke_Key.backspace	Key.backspace	n/a
401.3905	0.06	802781	keystroke_Key.backspace	Key.backspace	n/a
401.5555	0.015	803111	keystroke_Key.backspace	Key.backspace	n/a
401.6605	0.059	803321	keystroke_Key.backspace	Key.backspace	n/a
401.8255	0.045	803651	keystroke_Key.backspace	Key.backspace	n/a
401.9745	0.031	803949	keystroke_Key.backspace	Key.backspace	n/a
402.0945	0.06	804189	keystroke_Key.backspace	Key.backspace	n/a
402.3355	0.045	804671	keystroke_Key.backspace	Key.backspace	n/a
402.6355	0.075	805271	keystroke_a	a	n/a
402.7855	0.075	805571	keystroke_l	l	n/a
403.0255	0.09	806051	keystroke_y	y	n/a
403.5055	0.12	807011	keystroke_z	z	n/a
403.7455	0.09	807491	keystroke_e	e	n/a
403.8805	0.06	807761	keystroke_Key.space	Key.space	n/a
403.9705	0.06	807941	keystroke_f	f	n/a
404.0455	0.09	808091	keystroke_i	i	n/a
404.1505	0.075	808301	keystroke_g	g	n/a
404.2405	0.075	808481	keystroke_u	u	n/a
404.3755	0.135	808751	keystroke_r	r	n/a
404.4805	0.09	808961	keystroke_e	e	n/a
404.6155	0.09	809231	keystroke_Key.enter	Key.enter	n/a
404.711	4.586	809422	prompt	n/a	buy packaging wrapping copper\n
405.3055	0.09	810611	keystroke_b	b	n/a
405.4405	0.105	810881	keystroke_u	u	n/a
405.6205	0.075	811241	keystroke_y	y	n/a
405.7855	0.059	811571	keystroke_Key.space	Key.space	n/a
405.9505	0.09	811901	keystroke_p	p	n/a
406.0555	0.075	812111	keystroke_a	a	n/a
406.2655	0.09	812531	keystroke_c	c	n/a
406.4005	0.09	812801	keystroke_k	k	n/a
406.5055	0.06	813011	keystroke_a	a	n/a
406.6405	0.105	813281	keystroke_g	g	n/a
406.7155	0.15	813431	keystroke_i	i	n/a
406.8205	0.12	813641	keystroke_n	n	n/a
406.9255	0.075	813851	keystroke_g	g	n/a
407.0455	0.09	814091	keystroke_Key.space	Key.space	n/a
407.1955	0.09	814391	keystroke_w	w	n/a
407.3755	0.045	814751	keystroke_r	r	n/a
407.5105	0.075	815021	keystroke_a	a	n/a
407.6445	0.046	815289	keystroke_p	p	n/a
407.7505	0.075	815501	keystroke_p	p	n/a
407.9455	0.12	815891	keystroke_i	i	n/a
408.0355	0.075	816071	keystroke_n	n	n/a
408.0955	0.075	816191	keystroke_g	g	n/a
408.2305	0.075	816461	keystroke_Key.space	Key.space	n/a
408.3955	0.045	816791	keystroke_c	c	n/a
408.4705	0.075	816941	keystroke_o	o	n/a
408.7255	0.045	817451	keystroke_p	p	n/a
408.8455	0.09	817691	keystroke_p	p	n/a
408.9205	0.09	817841	keystroke_e	e	n/a
409.0405	0.09	818081	keystroke_r	r	n/a
409.2055	0.09	818411	keystroke_Key.enter	Key.enter	n/a
409.301	4.541	818602	prompt	n/a	lanes doctrine how's birth\n
409.8655	0.09	819731	keystroke_l	l	n/a
409.9705	0.075	819941	keystroke_a	a	n/a
410.0605	0.105	820121	keystroke_n	n	n/a
410.1665	0.089	820333	keystroke_e	e	n/a
410.3605	0.075	820721	keystroke_s	s	n/a
410.5255	0.06	821051	keystroke_Key.space	Key.space	n/a
410.7805	0.06	821561	keystroke_d	d	n/a
410.8555	0.09	821711	keystroke_o	o	n/a
410.9605	0.105	821921	keystroke_c	c	n/a
411.2305	0.075	822461	keystroke_t	t	n/a
411.3955	0.075	822791	keystroke_r	r	n/a
411.4405	0.15	822881	keystroke_i	i	n/a
411.5305	0.105	823061	keystroke_n	n	n/a
411.6505	0.06	823301	keystroke_e	e	n/a
411.7705	0.105	823541	keystroke_Key.space	Key.space	n/a
412.0255	0.075	824051	keystroke_h	h	n/a
412.2205	0.09	824441	keystroke_o	o	n/a
412.3255	0.045	824651	keystroke_w	w	n/a
412.6105	0.03	825221	keystroke_'	'	n/a
412.7155	0.06	825431	keystroke_s	s	n/a
412.7905	0.074	825581	keystroke_Key.space	Key.space	n/a
412.9855	0.06	825971	keystroke_b	b	n/a
413.1205	0.075	826241	keystroke_i	i	n/a
413.2555	0.06	826511	keystroke_r	r	n/a
413.4055	0.075	826811	keystroke_t	t	n/a
413.4955	0.075	826991	keystroke_h	h	n/a
413.7505	0.09	827501	keystroke_Key.enter	Key.enter	n/a
413.847	5.3055	827694	prompt	n/a	indices tokyo crown penalty\n
