onset	duration	sample	value	key	prompt_text
12.336	0.1045	24672	keystroke_n	n	n/a
12.4555	0.105	24911	keystroke_a	a	n/a
12.6505	0.0755	25301	keystroke_l	l	n/a
12.7255	0.105	25451	keystroke_a	a	n/a
12.876	0.0895	25752	keystroke_p	p	n/a
12.9355	0.075	25871	keystroke_a	a	n/a
13.1605	0.105	26321	keystroke_t	t	n/a
13.2805	0.075	26561	keystroke_i	i	n/a
16.8805	0.3005	33761	keystroke_Key.cmd	Key.cmd	n/a
17.0755	0.09	34151	keystroke_v	v	n/a
20.8745	10.843	41749	prompt	n/a	the quick brown fox jumps over a lazy dog\n
23.7205	0.105	47441	keystroke_t	t	n/a
23.8405	0.12	47681	keystroke_h	h	n/a
23.9455	0.12	47891	keystroke_e	e	n/a
24.0805	0.12	48161	keystroke_Key.space	Key.space	n/a
24.261	0.1345	48522	keystroke_q	q	n/a
24.4255	0.135	48851	keystroke_u	u	n/a
24.5155	0.105	49031	keystroke_i	i	n/a
24.9655	0.091	49931	keystroke_c	c	n/a
25.1005	0.135	50201	keystroke_k	k	n/a
25.3105	0.12	50621	keystroke_Key.space	Key.space	n/a
25.808	0.1025	51616	keystroke_b	b	n/a
26.241	0.105	52482	keystroke_r	r	n/a
26.391	0.0745	52782	keystroke_o	o	n/a
26.4805	0.105	52961	keystroke_w	w	n/a
26.6455	0.18	53291	keystroke_n	n	n/a
26.7655	0.135	53531	keystroke_Key.space	Key.space	n/a
26.9605	0.12	53921	keystroke_f	f	n/a
27.0955	0.09	54191	keystroke_o	o	n/a
27.3955	0.09	54791	keystroke_x	x	n/a
27.636	0.1045	55272	keystroke_Key.space	Key.space	n/a
27.9355	0.105	55871	keystroke_j	j	n/a
28.1755	0.06	56351	keystroke_u	u	n/a
28.4305	0.12	56861	keystroke_m	m	n/a
28.5965	0.104	57193	keystroke_p	p	n/a
28.7155	0.0915	57431	keystroke_s	s	n/a
28.8205	0.12	57641	keystroke_Key.space	Key.space	n/a
28.986	0.1205	57972	keystroke_o	o	n/a
29.091	0.1195	58182	keystroke_v	v	n/a
29.3455	0.12	58691	keystroke_e	e	n/a
29.436	0.0895	58872	keystroke_r	r	n/a
29.5405	0.12	59081	keystroke_Key.space	Key.space	n/a
29.6155	0.105	59231	keystroke_a	a	n/a
29.7355	0.105	59471	keystroke_Key.space	Key.space	n/a
29.8705	0.12	59741	keystroke_l	l	n/a
30.0065	0.074	60013	keystroke_a	a	n/a
30.2155	0.135	60431	keystroke_z	z	n/a
30.5605	0.105	61121	keystroke_y	y	n/a
30.861	0.1195	61722	keystroke_Key.space	Key.space	n/a
31.0255	0.0905	62051	keystroke_d	d	n/a
31.1305	0.09	62261	keystroke_o	o	n/a
31.2955	0.105	62591	keystroke_g	g	n/a
31.626	0.0895	63252	keystroke_Key.enter	Key.enter	n/a
31.7205	7.691	63441	prompt	n/a	recipe draft enrollment bean\n
32.7205	0.09	65441	keystroke_r	r	n/a
32.766	0.1195	65532	keystroke_e	e	n/a
33.2605	0.075	66521	keystroke_c	c	n/a
33.471	0.1195	66942	keystroke_i	i	n/a
33.7405	0.105	67481	keystroke_p	p	n/a
33.9065	0.089	67813	keystroke_e	e	n/a
34.0855	0.121	68171	keystroke_Key.space	Key.space	n/a
34.3105	0.075	68621	keystroke_d	d	n/a
34.5805	0.135	69161	keystroke_r	r	n/a
34.701	0.1195	69402	keystroke_a	a	n/a
35.0755	0.105	70151	keystroke_g	g	n/a
35.2565	0.089	70513	keystroke_e	e	n/a
35.4805	0.12	70961	keystroke_Key.space	Key.space	n/a
35.9155	0.091	71831	keystroke_e	e	n/a
36.051	0.1345	72102	keystroke_n	n	n/a
36.3075	0.058	72615	keystroke_r	r	n/a
36.4255	0.075	72851	keystroke_o	o	n/a
36.6805	0.06	73361	keystroke_l	l	n/a
36.8605	0.06	73721	keystroke_l	l	n/a
37.4305	0.12	74861	keystroke_m	m	n/a
37.536	0.0745	75072	keystroke_e	e	n/a
37.671	0.0745	75342	keystroke_n	n	n/a
37.7605	0.075	75521	keystroke_t	t	n/a
37.8955	0.105	75791	keystroke_Key.space	Key.space	n/a
38.2705	0.09	76541	keystroke_b	b	n/a
38.691	0.1345	77382	keystroke_e	e	n/a
38.7505	0.1205	77501	keystroke_a	a	n/a
38.9905	0.105	77981	keystroke_n	n	n/a
39.3205	0.09	78641	keystroke_Key.enter	Key.enter	n/a
39.415	8.1435	78830	prompt	n/a	clicking christine limited builder\n
40.641	0.1345	81282	keystroke_c	c	n/a
40.7915	0.134	81583	keystroke_l	l	n/a
40.8655	0.135	81731	keystroke_i	i	n/a
41.0155	0.075	82031	keystroke_c	c	n/a
41.5105	0.105	83021	keystroke_k	k	n/a
41.7505	0.18	83501	keystroke_i	i	n/a
41.8705	0.12	83741	keystroke_n	n	n/a
41.9755	0.06	83951	keystroke_g	g	n/a
42.0955	0.105	84191	keystroke_Key.space	Key.space	n/a
42.3205	0.12	84641	keystroke_c	c	n/a
42.4565	0.074	84913	keystroke_h	h	n/a
42.7565	0.089	85513	keystroke_r	r	n/a
42.9205	0.09	85841	keystroke_i	i	n/a
43.0255	0.105	86051	keystroke_s	s	n/a
43.3105	0.075	86621	keystroke_t	t	n/a
43.4005	0.18	86801	keystroke_i	i	n/a
43.5355	0.105	87071	keystroke_n	n	n/a
43.6105	0.075	87221	keystroke_e	e	n/a
43.7905	0.135	87581	keystroke_Key.space	Key.space	n/a
44.1505	0.165	88301	keystroke_l	l	n/a
44.2705	0.105	88541	keystroke_i	i	n/a
44.4955	0.12	88991	keystroke_m	m	n/a
44.7505	0.075	89501	keystroke_i	i	n/a
45.3955	0.12	90791	keystroke_t	t	n/a
45.4705	0.12	90941	keystroke_e	e	n/a
45.9065	0.104	91813	keystroke_d	d	n/a
46.1305	0.12	92261	keystroke_Key.space	Key.space	n/a
46.4605	0.12	92921	keystroke_b	b	n/a
46.6255	0.12	93251	keystroke_u	u	n/a
46.7155	0.12	93431	keystroke_i	i	n/a
46.7605	0.105	93521	keystroke_l	l	n/a
46.8505	0.09	93701	keystroke_d	d	n/a
47.1065	0.15	94213	keystroke_e	e	n/a
47.2255	0.12	94451	keystroke_r	r	n/a
47.4655	0.0915	94931	keystroke_Key.enter	Key.enter	n/a
47.562	5.9195	95124	prompt	n/a	adware deer reed falls\n
48.5305	0.09	97061	keystroke_a	a	n/a
48.7255	0.1205	97451	keystroke_d	d	n/a
49.2505	0.15	98501	keystroke_w	w	n/a
49.5355	0.105	99071	keystroke_a	a	n/a
49.791	0.1045	99582	keystroke_r	r	n/a
49.8505	0.12	99701	keystroke_e	e	n/a
50.1355	0.15	100271	keystroke_Key.space	Key.space	n/a
50.3005	0.075	100601	keystroke_d	d	n/a
50.5565	0.0895	101113	keystroke_e	e	n/a
50.7355	0.1055	101471	keystroke_e	e	n/a
50.8105	0.105	101621	keystroke_r	r	n/a
51.0805	0.0755	102161	keystroke_Key.space	Key.space	n/a
51.1855	0.03	102371	keystroke_Key.space	Key.space	n/a
51.5455	0.105	103091	keystroke_r	r	n/a
51.6205	0.105	103241	keystroke_e	e	n/a
51.8305	0.076	103661	keystroke_e	e	n/a
52.1005	0.09	104201	keystroke_d	d	n/a
52.3405	0.12	104681	keystroke_Key.space	Key.space	n/a
52.5955	0.135	105191	keystroke_f	f	n/a
52.7455	0.105	105491	keystroke_a	a	n/a
52.9255	0.031	105851	keystroke_l	l	n/a
53.0755	0.06	106151	keystroke_l	l	n/a
53.1065	0.1195	106213	keystroke_s	s	n/a
53.3755	0.105	106751	keystroke_Key.enter	Key.enter	n/a
53.4845	8.7585	106969	prompt	n/a	remember flying analyst joan\n
54.366	0.0905	108732	keystroke_r	r	n/a
54.426	0.1195	108852	keystroke_e	e	n/a
54.6805	0.12	109361	keystroke_m	m	n/a
54.861	0.0745	109722	keystroke_e	e	n/a
55.0855	0.09	110171	keystroke_m	m	n/a
55.521	0.105	111042	keystroke_b	b	n/a
55.791	0.15	111582	keystroke_e	e	n/a
55.8955	0.1055	111791	keystroke_r	r	n/a
56.031	0.1345	112062	keystroke_Key.space	Key.space	n/a
56.241	0.0895	112482	keystroke_f	f	n/a
56.346	0.075	112692	keystroke_l	l	n/a
56.601	0.1195	113202	keystroke_y	y	n/a
57.2455	0.12	114491	keystroke_i	i	n/a
57.3205	0.12	114641	keystroke_n	n	n/a
57.486	0.075	114972	keystroke_g	g	n/a
57.6215	0.119	115243	keystroke_Key.space	Key.space	n/a
57.846	0.0745	115692	keystroke_a	a	n/a
57.936	0.0895	115872	keystroke_n	n	n/a
58.0565	0.074	116113	keystroke_a	a	n/a
58.2355	0.06	116471	keystroke_l	l	n/a
58.821	0.12	117642	keystroke_u	u	n/a
59.466	0.0905	118932	keystroke_Key.backspace	Key.backspace	n/a
59.781	0.0895	119562	keystroke_y	y	n/a
59.9155	0.0915	119831	keystroke_s	s	n/a
60.2305	0.09	120461	keystroke_t	t	n/a
60.426	0.1045	120852	keystroke_Key.space	Key.space	n/a
61.1305	0.135	122261	keystroke_j	j	n/a
61.4455	0.09	122891	keystroke_o	o	n/a
61.701	0.09	123402	keystroke_a	a	n/a
61.9105	0.09	123821	keystroke_n	n	n/a
62.151	0.09	124302	keystroke_Key.enter	Key.enter	n/a
62.2455	8.4565	124491	prompt	n/a	corrected trek appearance walker\n
63.036	0.0895	126072	keystroke_c	c	n/a
63.171	0.0745	126342	keystroke_o	o	n/a
63.3955	0.061	126791	keystroke_r	r	n/a
63.5305	0.105	127061	keystroke_r	r	n/a
63.607	0.1035	127214	keystroke_e	e	n/a
63.8155	0.12	127631	keystroke_c	c	n/a
64.101	0.1345	128202	keystroke_t	t	n/a
64.2205	0.0755	128441	keystroke_e	e	n/a
64.431	0.1195	128862	keystroke_d	d	n/a
64.641	0.12	129282	keystroke_Key.space	Key.space	n/a
65.1065	0.089	130213	keystroke_t	t	n/a
65.3455	0.1055	130691	keystroke_r	r	n/a
65.4065	0.119	130813	keystroke_e	e	n/a
65.8565	0.119	131713	keystroke_k	k	n/a
66.126	0.1045	132252	keystroke_Key.space	Key.space	n/a
66.3505	0.0905	132701	keystroke_a	a	n/a
66.4855	0.075	132971	keystroke_p	p	n/a
66.6655	0.0455	133331	keystroke_p	p	n/a
66.801	0.1345	133602	keystroke_r	r	n/a
66.891	0.2095	133782	keystroke_e	e	n/a
67.041	0.1495	134082	keystroke_a	a	n/a
67.461	0.0145	134922	keystroke_Key.backspace	Key.backspace	n/a
67.7755	0.075	135551	keystroke_Key.backspace	Key.backspace	n/a
67.957	0.074	135914	keystroke_Key.backspace	Key.backspace	n/a
68.2105	0.15	136421	keystroke_e	e	n/a
68.2705	0.15	136541	keystroke_a	a	n/a
68.586	0.0745	137172	keystroke_r	r	n/a
68.721	0.1355	137442	keystroke_a	a	n/a
68.9005	0.135	137801	keystroke_n	n	n/a
69.066	0.1045	138132	keystroke_c	c	n/a
69.141	0.1045	138282	keystroke_e	e	n/a
69.2605	0.1355	138521	keystroke_Key.space	Key.space	n/a
69.4705	0.15	138941	keystroke_w	w	n/a
69.6655	0.091	139331	keystroke_a	a	n/a
69.7565	0.104	139513	keystroke_l	l	n/a
69.831	0.1045	139662	keystroke_k	k	n/a
70.176	0.1345	140352	keystroke_e	e	n/a
70.2655	0.105	140531	keystroke_r	r	n/a
70.5505	0.1505	141101	keystroke_Key.enter	Key.enter	n/a
70.707	7.885	141414	prompt	n/a	ventures sonic export fruit\n
71.7805	0.135	143561	keystroke_v	v	n/a
72.2455	0.09	144491	keystroke_e	e	n/a
72.501	0.1055	145002	keystroke_n	n	n/a
72.651	0.1055	145302	keystroke_t	t	n/a
72.891	0.0895	145782	keystroke_u	u	n/a
72.9965	0.089	145993	keystroke_r	r	n/a
73.0565	0.119	146113	keystroke_e	e	n/a
73.266	0.1195	146532	keystroke_s	s	n/a
73.461	0.1345	146922	keystroke_Key.space	Key.space	n/a
73.701	0.106	147402	keystroke_s	s	n/a
73.807	0.074	147614	keystroke_o	o	n/a
74.0305	0.105	148061	keystroke_n	n	n/a
74.271	0.0445	148542	keystroke_i	i	n/a
74.421	0.0745	148842	keystroke_c	c	n/a
74.751	0.1345	149502	keystroke_Key.space	Key.space	n/a
75.291	0.0895	150582	keystroke_e	e	n/a
75.5605	0.105	151121	keystroke_x	x	n/a
75.681	0.1495	151362	keystroke_p	p	n/a
75.801	0.12	151602	keystroke_o	o	n/a
75.951	0.135	151902	keystroke_e	e	n/a
76.0405	0.1355	152081	keystroke_r	r	n/a
76.5065	0.044	153013	keystroke_Key.backspace	Key.backspace	n/a
76.6565	0.0745	153313	keystroke_Key.backspace	Key.backspace	n/a
76.701	0.09	153402	keystroke_r	r	n/a
76.9115	0.074	153823	keystroke_t	t	n/a
77.0305	0.1355	154061	keystroke_Key.space	Key.space	n/a
77.241	0.09	154482	keystroke_f	f	n/a
77.451	0.09	154902	keystroke_r	r	n/a
77.6915	0.1795	155383	keystroke_u	u	n/a
77.8565	0.1345	155713	keystroke_i	i	n/a
78.096	0.075	156192	keystroke_t	t	n/a
78.486	0.105	156972	keystroke_Key.enter	Key.enter	n/a
78.595	8.922	157190	prompt	n/a	beginner adventure deferred mesh\n
79.596	0.09	159192	keystroke_b	b	n/a
80.016	0.0905	160032	keystroke_e	e	n/a
80.331	0.0755	160662	keystroke_g	g	n/a
80.496	0.061	160992	keystroke_i	i	n/a
80.676	0.075	161352	keystroke_n	n	n/a
80.826	0.09	161652	keystroke_n	n	n/a
80.886	0.15	161772	keystroke_e	e	n/a
81.0065	0.074	162013	keystroke_r	r	n/a
81.186	0.09	162372	keystroke_Key.space	Key.space	n/a
81.276	0.105	162552	keystroke_a	a	n/a
81.471	0.09	162942	keystroke_d	d	n/a
82.161	0.12	164322	keystroke_v	v	n/a
82.551	0.09	165102	keystroke_e	e	n/a
82.731	0.076	165462	keystroke_n	n	n/a
82.896	0.075	165792	keystroke_t	t	n/a
83.046	0.105	166092	keystroke_u	u	n/a
83.136	0.135	166272	keystroke_r	r	n/a
83.241	0.105	166482	keystroke_e	e	n/a
83.361	0.135	166722	keystroke_Key.space	Key.space	n/a
83.571	0.075	167142	keystroke_d	d	n/a
83.796	0.09	167592	keystroke_e	e	n/a
84.141	0.075	168282	keystroke_f	f	n/a
84.786	0.09	169572	keystroke_e	e	n/a
85.011	0.09	170022	keystroke_r	r	n/a
85.176	0.09	170352	keystroke_r	r	n/a
85.371	0.09	170742	keystroke_e	e	n/a
85.581	0.105	171162	keystroke_d	d	n/a
85.746	0.12	171492	keystroke_Key.space	Key.space	n/a
86.136	0.135	172272	keystroke_m	m	n/a
86.331	0.105	172662	keystroke_e	e	n/a
86.796	0.105	173592	keystroke_s	s	n/a
87.066	0.0905	174132	keystroke_h	h	n/a
87.426	0.09	174852	keystroke_Key.enter	Key.enter	n/a
87.52	8.772	175040	prompt	n/a	questionnaire lightweight dose throws\n
88.386	0.1055	176772	keystroke_q	q	n/a
88.701	0.107	177402	keystroke_u	u	n/a
88.821	0.09	177642	keystroke_e	e	n/a
89.046	0.0895	178092	keystroke_s	s	n/a
89.211	0.09	178422	keystroke_t	t	n/a
89.316	0.105	178632	keystroke_i	i	n/a
89.616	0.015	179232	keystroke_o	o	n/a
89.766	0.0755	179532	keystroke_n	n	n/a
89.916	0.0905	179832	keystroke_n	n	n/a
90.021	0.105	180042	keystroke_a	a	n/a
90.936	0.075	181872	keystroke_i	i	n/a
91.0565	0.1045	182113	keystroke_r	r	n/a
91.221	0.1355	182442	keystroke_e	e	n/a
91.416	0.12	182832	keystroke_Key.space	Key.space	n/a
91.701	0.135	183402	keystroke_l	l	n/a
91.791	0.12	183582	keystroke_i	i	n/a
91.957	0.104	183914	keystroke_g	g	n/a
92.1665	0.0745	184333	keystroke_h	h	n/a
92.376	0.09	184752	keystroke_t	t	n/a
92.751	0.135	185502	keystroke_w	w	n/a
92.8565	0.0895	185713	keystroke_e	e	n/a
93.021	0.09	186042	keystroke_i	i	n/a
93.141	0.105	186282	keystroke_g	g	n/a
93.276	0.06	186552	keystroke_h	h	n/a
93.396	0.09	186792	keystroke_t	t	n/a
93.501	0.1055	187002	keystroke_Key.space	Key.space	n/a
93.786	0.105	187572	keystroke_d	d	n/a
93.9065	0.1045	187813	keystroke_o	o	n/a
94.101	0.09	188202	keystroke_s	s	n/a
94.341	0.105	188682	keystroke_e	e	n/a
94.536	0.1205	189072	keystroke_Key.space	Key.space	n/a
94.761	0.075	189522	keystroke_t	t	n/a
94.866	0.075	189732	keystroke_h	h	n/a
95.076	0.105	190152	keystroke_r	r	n/a
95.226	0.075	190452	keystroke_o	o	n/a
95.331	0.09	190662	keystroke_w	w	n/a
95.571	0.105	191142	keystroke_s	s	n/a
96.1565	0.1345	192313	keystroke_Key.enter	Key.enter	n/a
96.295	8.682	192590	prompt	n/a	notre substance album attraction\n
97.266	0.12	194532	keystroke_n	n	n/a
97.566	0.075	195132	keystroke_o	o	n/a
97.851	0.0905	195702	keystroke_t	t	n/a
98.1065	0.1345	196213	keystroke_r	r	n/a
98.196	0.135	196392	keystroke_e	e	n/a
98.886	0.135	197772	keystroke_Key.space	Key.space	n/a
99.066	0.091	198132	keystroke_s	s	n/a
99.426	0.105	198852	keystroke_u	u	n/a
99.636	0.075	199272	keystroke_b	b	n/a
99.936	0.105	199872	keystroke_s	s	n/a
100.176	0.09	200352	keystroke_t	t	n/a
100.3565	0.1045	200713	keystroke_a	a	n/a
100.521	0.105	201042	keystroke_n	n	n/a
100.641	0.12	201282	keystroke_c	c	n/a
100.731	0.12	201462	keystroke_e	e	n/a
100.941	0.135	201882	keystroke_Key.space	Key.space	n/a
101.136	0.1205	202272	keystroke_a	a	n/a
101.301	0.06	202602	keystroke_l	l	n/a
101.586	0.075	203172	keystroke_b	b	n/a
101.841	0.075	203682	keystroke_i	i	n/a
102.291	0.06	204582	keystroke_Key.backspace	Key.backspace	n/a
102.5465	0.0745	205093	keystroke_u	u	n/a
102.846	0.135	205692	keystroke_m	m	n/a
102.996	0.12	205992	keystroke_Key.space	Key.space	n/a
103.371	0.105	206742	keystroke_a	a	n/a
103.6415	0.0295	207283	keystroke_t	t	n/a
103.746	0.135	207492	keystroke_t	t	n/a
103.866	0.0905	207732	keystroke_r	r	n/a
103.926	0.15	207852	keystroke_a	a	n/a
104.121	0.105	208242	keystroke_c	c	n/a
104.346	0.09	208692	keystroke_t	t	n/a
104.466	0.105	208932	keystroke_i	i	n/a
104.481	0.165	208962	keystroke_o	o	n/a
104.601	0.135	209202	keystroke_n	n	n/a
104.871	0.105	209742	keystroke_Key.enter	Key.enter	n/a
104.98	10.002	209960	prompt	n/a	magnetic directive psychology pools\n
106.116	0.12	212232	keystroke_m	m	n/a
106.266	0.12	212532	keystroke_a	a	n/a
106.671	0.075	213342	keystroke_g	g	n/a
106.866	0.0905	213732	keystroke_n	n	n/a
106.941	0.09	213882	keystroke_e	e	n/a
107.151	0.075	214302	keystroke_t	t	n/a
107.2575	0.0735	214515	keystroke_i	i	n/a
107.4065	0.1045	214813	keystroke_c	c	n/a
107.586	0.121	215172	keystroke_Key.space	Key.space	n/a
107.796	0.105	215592	keystroke_d	d	n/a
107.946	0.0605	215892	keystroke_i	i	n/a
108.126	0.12	216252	keystroke_r	r	n/a
108.201	0.12	216402	keystroke_e	e	n/a
108.426	0.105	216852	keystroke_c	c	n/a
108.651	0.075	217302	keystroke_t	t	n/a
108.757	0.074	217514	keystroke_i	i	n/a
108.966	0.12	217932	keystroke_v	v	n/a
109.041	0.105	218082	keystroke_e	e	n/a
109.191	0.12	218382	keystroke_Key.space	Key.space	n/a
109.461	0.075	218922	keystroke_p	p	n/a
109.521	0.105	219042	keystroke_s	s	n/a
111.441	0.12	222882	keystroke_y	y	n/a
111.936	0.09	223872	keystroke_c	c	n/a
112.146	0.105	224292	keystroke_h	h	n/a
112.3565	0.0895	224713	keystroke_o	o	n/a
112.581	0.075	225162	keystroke_l	l	n/a
112.821	0.075	225642	keystroke_o	o	n/a
113.016	0.075	226032	keystroke_g	g	n/a
113.211	0.075	226422	keystroke_y	y	n/a
113.436	0.09	226872	keystroke_Key.space	Key.space	n/a
113.961	0.105	227922	keystroke_p	p	n/a
114.1565	0.0895	228313	keystroke_o	o	n/a
114.351	0.06	228702	keystroke_o	o	n/a
114.591	0.105	229182	keystroke_l	l	n/a
114.711	0.105	229422	keystroke_s	s	n/a
114.9065	0.0745	229813	keystroke_Key.enter	Key.enter	n/a
114.985	7.437	229970	prompt	n/a	processing reef modeling ford\n
115.9565	0.1345	231913	keystroke_p	p	n/a
116.511	0.09	233022	keystroke_r	r	n/a
116.796	0.075	233592	keystroke_o	o	n/a
117.141	0.135	234282	keystroke_c	c	n/a
117.246	0.105	234492	keystroke_e	e	n/a
117.516	0.06	235032	keystroke_s	s	n/a
117.696	0.075	235392	keystroke_s	s	n/a
117.861	0.105	235722	keystroke_i	i	n/a
117.936	0.1205	235872	keystroke_n	n	n/a
118.086	0.06	236172	keystroke_g	g	n/a
118.1915	0.1195	236383	keystroke_Key.space	Key.space	n/a
118.461	0.105	236922	keystroke_r	r	n/a
118.536	0.1205	237072	keystroke_e	e	n/a
118.716	0.135	237432	keystroke_e	e	n/a
119.016	0.105	238032	keystroke_f	f	n/a
119.211	0.12	238422	keystroke_Key.space	Key.space	n/a
119.496	0.105	238992	keystroke_m	m	n/a
119.796	0.015	239592	keystroke_o	o	n/a
119.811	0.06	239622	keystroke_d	d	n/a
120.201	0.075	240402	keystroke_e	e	n/a
120.441	0.15	240882	keystroke_l	l	n/a
120.561	0.18	241122	keystroke_i	i	n/a
120.711	0.15	241422	keystroke_n	n	n/a
120.876	0.09	241752	keystroke_g	g	n/a
121.026	0.105	242052	keystroke_Key.space	Key.space	n/a
121.311	0.105	242622	keystroke_f	f	n/a
121.446	0.09	242892	keystroke_o	o	n/a
121.791	0.075	243582	keystroke_r	r	n/a
122.091	0.105	244182	keystroke_d	d	n/a
122.316	0.105	244632	keystroke_Key.enter	Key.enter	n/a
122.425	6.747	244850	prompt	n/a	strict graduation words aspects\n
123.216	0.0905	246432	keystroke_s	s	n/a
123.486	0.105	246972	keystroke_t	t	n/a
123.561	0.12	247122	keystroke_r	r	n/a
123.726	0.105	247452	keystroke_i	i	n/a
123.951	0.1055	247902	keystroke_c	c	n/a
124.2065	0.0895	248413	keystroke_t	t	n/a
124.356	0.12	248712	keystroke_Key.space	Key.space	n/a
124.701	0.135	249402	keystroke_g	g	n/a
124.8065	0.1345	249613	keystroke_r	r	n/a
124.8965	0.0895	249793	keystroke_a	a	n/a
125.166	0.09	250332	keystroke_d	d	n/a
125.301	0.06	250602	keystroke_u	u	n/a
125.407	0.104	250814	keystroke_a	a	n/a
126.186	0.09	252372	keystroke_t	t	n/a
126.411	0.12	252822	keystroke_i	i	n/a
126.486	0.15	252972	keystroke_o	o	n/a
126.606	0.135	253212	keystroke_n	n	n/a
126.7565	0.0595	253513	keystroke_Key.space	Key.space	n/a
126.846	0.09	253692	keystroke_w	w	n/a
126.966	0.075	253932	keystroke_o	o	n/a
127.0565	0.0895	254113	keystroke_r	r	n/a
127.3565	0.1495	254713	keystroke_d	d	n/a
127.491	0.09	254982	keystroke_s	s	n/a
127.596	0.135	255192	keystroke_Key.space	Key.space	n/a
127.881	0.105	255762	keystroke_a	a	n/a
128.0465	0.1345	256093	keystroke_s	s	n/a
128.301	0.0905	256602	keystroke_p	p	n/a
128.391	0.075	256782	keystroke_e	e	n/a
128.661	0.09	257322	keystroke_c	c	n/a
128.841	0.12	257682	keystroke_t	t	n/a
128.9465	0.1045	257893	keystroke_s	s	n/a
129.066	0.105	258132	keystroke_Key.enter	Key.enter	n/a
129.175	12.087	258350	prompt	n/a	offering ripe consequence bestsellers\n
130.0565	0.0895	260113	keystroke_o	o	n/a
130.4915	0.0895	260983	keystroke_f	f	n/a
131.0315	0.0895	262063	keystroke_f	f	n/a
131.301	0.135	262602	keystroke_e	e	n/a
131.3765	0.1195	262753	keystroke_r	r	n/a
131.616	0.0905	263232	keystroke_r	r	n/a
132.741	0.075	265482	keystroke_Key.backspace	Key.backspace	n/a
133.026	0.15	266052	keystroke_i	i	n/a
133.131	0.12	266262	keystroke_n	n	n/a
133.266	0.045	266532	keystroke_g	g	n/a
133.357	0.134	266714	keystroke_Key.space	Key.space	n/a
133.551	0.106	267102	keystroke_r	r	n/a
133.7765	0.1045	267553	keystroke_i	i	n/a
134.031	0.0755	268062	keystroke_p	p	n/a
134.0915	0.0895	268183	keystroke_e	e	n/a
134.2865	0.1205	268573	keystroke_Key.space	Key.space	n/a
134.7965	0.1045	269593	keystroke_c	c	n/a
134.9015	0.1195	269803	keystroke_o	o	n/a
135.186	0.09	270372	keystroke_s	s	n/a
135.6365	0.0595	271273	keystroke_Key.backspace	Key.backspace	n/a
135.876	0.105	271752	keystroke_n	n	n/a
135.996	0.105	271992	keystroke_s	s	n/a
136.596	0.09	273192	keystroke_e	e	n/a
137.166	0.105	274332	keystroke_q	q	n/a
137.316	0.075	274632	keystroke_u	u	n/a
137.436	0.09	274872	keystroke_e	e	n/a
137.616	0.105	275232	keystroke_n	n	n/a
137.706	0.135	275412	keystroke_c	c	n/a
137.796	0.105	275592	keystroke_e	e	n/a
137.991	0.105	275982	keystroke_Key.space	Key.space	n/a
138.441	0.09	276882	keystroke_b	b	n/a
138.651	0.105	277302	keystroke_e	e	n/a
138.846	0.09	277692	keystroke_s	s	n/a
139.041	0.075	278082	keystroke_t	t	n/a
140.091	0.09	280182	keystroke_s	s	n/a
140.346	0.075	280692	keystroke_e	e	n/a
140.541	0.03	281082	keystroke_l	l	n/a
140.676	0.0605	281352	keystroke_l	l	n/a
140.736	0.135	281472	keystroke_e	e	n/a
140.8415	0.0895	281683	keystroke_r	r	n/a
141.036	0.105	282072	keystroke_s	s	n/a
141.171	0.09	282342	keystroke_Key.enter	Key.enter	n/a
141.265	11.337	282530	prompt	n/a	venice ballot immigrants fewer\n
142.161	0.09	284322	keystroke_b	b	n/a
142.476	0.075	284952	keystroke_e	e	n/a
142.9565	0.0595	285913	keystroke_Key.backspace	Key.backspace	n/a
143.121	0.09	286242	keystroke_Key.backspace	Key.backspace	n/a
143.407	0.119	286814	keystroke_v	v	n/a
143.541	0.09	287082	keystroke_e	e	n/a
144.021	0.105	288042	keystroke_n	n	n/a
144.246	0.062	288492	keystroke_i	i	n/a
144.351	0.12	288702	keystroke_c	c	n/a
144.426	0.105	288852	keystroke_e	e	n/a
144.711	0.12	289422	keystroke_Key.space	Key.space	n/a
145.356	0.105	290712	keystroke_b	b	n/a
145.716	0.0905	291432	keystroke_a	a	n/a
145.896	0.045	291792	keystroke_l	l	n/a
146.061	0.0455	292122	keystroke_l	l	n/a
146.256	0.09	292512	keystroke_o	o	n/a
146.361	0.09	292722	keystroke_t	t	n/a
146.706	0.12	293412	keystroke_Key.space	Key.space	n/a
146.991	0.12	293982	keystroke_i	i	n/a
147.276	0.105	294552	keystroke_m	m	n/a
147.441	0.12	294882	keystroke_m	m	n/a
147.666	0.105	295332	keystroke_i	i	n/a
147.891	0.15	295782	keystroke_g	g	n/a
148.011	0.12	296022	keystroke_r	r	n/a
148.101	0.12	296202	keystroke_a	a	n/a
148.2215	0.1045	296443	keystroke_n	n	n/a
148.401	0.12	296802	keystroke_t	t	n/a
148.536	0.09	297072	keystroke_s	s	n/a
148.656	0.135	297312	keystroke_Key.space	Key.space	n/a
149.016	0.12	298032	keystroke_g	g	n/a
149.886	0.09	299772	keystroke_Key.backspace	Key.backspace	n/a
150.141	0.09	300282	keystroke_f	f	n/a
151.101	0.135	302202	keystroke_e	e	n/a
151.221	0.105	302442	keystroke_w	w	n/a
151.656	0.151	303312	keystroke_e	e	n/a
151.746	0.12	303492	keystroke_r	r	n/a
152.496	0.105	304992	keystroke_Key.enter	Key.enter	n/a
152.605	17.052	305210	prompt	n/a	divx sexuality dividend indicator\n
153.606	0.105	307212	keystroke_d	d	n/a
154.071	0.105	308142	keystroke_i	i	n/a
154.476	0.105	308952	keystroke_v	v	n/a
155.046	0.09	310092	keystroke_z	z	n/a
155.901	0.1055	311802	keystroke_Key.backspace	Key.backspace	n/a
156.231	0.195	312462	keystroke_x	x	n/a
156.846	0.12	313692	keystroke_Key.space	Key.space	n/a
157.056	0.06	314112	keystroke_s	s	n/a
157.266	0.09	314532	keystroke_e	e	n/a
157.626	0.12	315252	keystroke_x	x	n/a
158.061	0.12	316122	keystroke_u	u	n/a
158.706	0.09	317412	keystroke_a	a	n/a
159.036	0.165	318072	keystroke_l	l	n/a
159.156	0.105	318312	keystroke_i	i	n/a
159.321	0.09	318642	keystroke_t	t	n/a
159.486	0.06	318972	keystroke_y	y	n/a
159.681	0.06	319362	keystroke_Key.space	Key.space	n/a
159.921	0.075	319842	keystroke_d	d	n/a
160.131	0.105	320262	keystroke_e	e	n/a
160.326	0.105	320652	keystroke_i	i	n/a
160.491	0.135	320982	keystroke_v	v	n/a
160.611	0.105	321222	keystroke_i	i	n/a
161.331	0.045	322662	keystroke_Key.backspace	Key.backspace	n/a
161.496	0.06	322992	keystroke_Key.backspace	Key.backspace	n/a
161.661	0.045	323322	keystroke_Key.backspace	Key.backspace	n/a
161.811	0.09	323622	keystroke_Key.backspace	Key.backspace	n/a
162.021	0.075	324042	keystroke_Key.backspace	Key.backspace	n/a
162.351	0.12	324702	keystroke_i	i	n/a
162.861	0.075	325722	keystroke_Key.backspace	Key.backspace	n/a
163.011	0.09	326022	keystroke_d	d	n/a
163.206	0.105	326412	keystroke_i	i	n/a
163.461	0.0605	326922	keystroke_b	b	n/a
163.956	0.105	327912	keystroke_Key.backspace	Key.backspace	n/a
164.121	0.12	328242	keystroke_v	v	n/a
164.286	0.09	328572	keystroke_i	i	n/a
164.751	0.045	329502	keystroke_i	i	n/a
164.886	0.12	329772	keystroke_d	d	n/a
165.186	0.045	330372	keystroke_Key.backspace	Key.backspace	n/a
165.336	0.09	330672	keystroke_Key.backspace	Key.backspace	n/a
165.5765	0.0745	331153	keystroke_d	d	n/a
165.741	0.075	331482	keystroke_i	i	n/a
166.266	0.075	332532	keystroke_e	e	n/a
166.416	0.105	332832	keystroke_n	n	n/a
166.581	0.09	333162	keystroke_d	d	n/a
166.791	0.12	333582	keystroke_Key.space	Key.space	n/a
167.286	0.15	334572	keystroke_i	i	n/a
167.406	0.1055	334812	keystroke_n	n	n/a
167.511	0.105	335022	keystroke_d	d	n/a
167.661	0.075	335322	keystroke_i	i	n/a
168.531	0.12	337062	keystroke_c	c	n/a
168.591	0.165	337182	keystroke_a	a	n/a
168.9965	0.1195	337993	keystroke_t	t	n/a
169.251	0.075	338502	keystroke_o	o	n/a
169.326	0.105	338652	keystroke_r	r	n/a
169.581	0.075	339162	keystroke_Key.enter	Key.enter	n/a
169.66	7.347	339320	prompt	n/a	condo examined tribute quarters\n
170.541	0.105	341082	keystroke_c	c	n/a
170.616	0.165	341232	keystroke_o	o	n/a
170.751	0.105	341502	keystroke_n	n	n/a
170.871	0.105	341742	keystroke_d	d	n/a
171.021	0.045	342042	keystroke_o	o	n/a
171.426	0.12	342852	keystroke_Key.space	Key.space	n/a
171.771	0.09	343542	keystroke_e	e	n/a
172.026	0.181	344052	keystroke_x	x	n/a
172.191	0.12	344382	keystroke_a	a	n/a
172.401	0.1205	344802	keystroke_m	m	n/a
172.731	0.135	345462	keystroke_i	i	n/a
172.836	0.15	345672	keystroke_n	n	n/a
173.046	0.09	346092	keystroke_e	e	n/a
173.256	0.105	346512	keystroke_d	d	n/a
173.4065	0.1045	346813	keystroke_Key.space	Key.space	n/a
173.631	0.12	347262	keystroke_t	t	n/a
173.721	0.105	347442	keystroke_r	r	n/a
173.841	0.075	347682	keystroke_i	i	n/a
174.171	0.06	348342	keystroke_b	b	n/a
174.4115	0.0445	348823	keystroke_u	u	n/a
174.501	0.09	349002	keystroke_t	t	n/a
174.576	0.09	349152	keystroke_e	e	n/a
174.711	0.1055	349422	keystroke_Key.space	Key.space	n/a
175.2065	0.1195	350413	keystroke_q	q	n/a
175.386	0.09	350772	keystroke_u	u	n/a
175.776	0.105	351552	keystroke_a	a	n/a
176.121	0.075	352242	keystroke_r	r	n/a
176.331	0.12	352662	keystroke_t	t	n/a
176.436	0.195	352872	keystroke_e	e	n/a
176.571	0.105	353142	keystroke_r	r	n/a
176.751	0.12	353502	keystroke_s	s	n/a
176.901	0.105	353802	keystroke_Key.enter	Key.enter	n/a
177.01	9.477	354020	prompt	n/a	dropped submit direction philosophy\n
177.891	0.105	355782	keystroke_d	d	n/a
178.356	0.09	356712	keystroke_r	r	n/a
178.491	0.105	356982	keystroke_o	o	n/a
178.791	0.06	357582	keystroke_p	p	n/a
178.956	0.06	357912	keystroke_p	p	n/a
179.031	0.0755	358062	keystroke_e	e	n/a
179.2565	0.1045	358513	keystroke_d	d	n/a
179.4065	0.1495	358813	keystroke_Key.space	Key.space	n/a
179.631	0.105	359262	keystroke_s	s	n/a
179.781	0.09	359562	keystroke_u	u	n/a
180.096	0.09	360192	keystroke_b	b	n/a
180.336	0.1205	360672	keystroke_m	m	n/a
180.576	0.075	361152	keystroke_i	i	n/a
180.681	0.105	361362	keystroke_t	t	n/a
180.831	0.135	361662	keystroke_Key.space	Key.space	n/a
181.0115	0.1045	362023	keystroke_d	d	n/a
181.1915	0.0595	362383	keystroke_i	i	n/a
181.3565	0.1045	362713	keystroke_r	r	n/a
181.431	0.09	362862	keystroke_e	e	n/a
181.6565	0.0895	363313	keystroke_c	c	n/a
181.881	0.076	363762	keystroke_t	t	n/a
181.9565	0.15	363913	keystroke_i	i	n/a
182.031	0.135	364062	keystroke_o	o	n/a
182.151	0.1205	364302	keystroke_n	n	n/a
182.211	0.165	364422	keystroke_Key.space	Key.space	n/a
182.586	0.09	365172	keystroke_p	p	n/a
182.8565	0.0745	365713	keystroke_h	h	n/a
183.096	0.12	366192	keystroke_i	i	n/a
183.381	0.075	366762	keystroke_l	l	n/a
183.606	0.075	367212	keystroke_o	o	n/a
183.831	0.105	367662	keystroke_s	s	n/a
183.921	0.075	367842	keystroke_o	o	n/a
184.356	0.075	368712	keystroke_f	f	n/a
184.986	0.06	369972	keystroke_Key.backspace	Key.backspace	n/a
185.271	0.09	370542	keystroke_p	p	n/a
185.556	0.075	371112	keystroke_h	h	n/a
185.946	0.105	371892	keystroke_y	y	n/a
186.411	0.075	372822	keystroke_Key.enter	Key.enter	n/a
186.4925	11.5595	372985	prompt	n/a	function principle overhead musicians\n
187.371	0.105	374742	keystroke_f	f	n/a
187.566	0.045	375132	keystroke_u	u	n/a
187.776	0.12	375552	keystroke_n	n	n/a
187.8515	0.1045	375703	keystroke_c	c	n/a
188.091	0.09	376182	keystroke_t	t	n/a
188.196	0.135	376392	keystroke_i	i	n/a
188.256	0.135	376512	keystroke_o	o	n/a
188.361	0.135	376722	keystroke_n	n	n/a
188.466	0.12	376932	keystroke_Key.space	Key.space	n/a
188.661	0.105	377322	keystroke_p	p	n/a
188.7665	0.0745	377533	keystroke_r	r	n/a
188.901	0.1055	377802	keystroke_i	i	n/a
189.111	0.105	378222	keystroke_n	n	n/a
189.231	0.12	378462	keystroke_c	c	n/a
189.441	0.075	378882	keystroke_i	i	n/a
189.741	0.12	379482	keystroke_p	p	n/a
189.816	0.135	379632	keystroke_l	l	n/a
189.981	0.09	379962	keystroke_e	e	n/a
190.566	0.09	381132	keystroke_Key.space	Key.space	n/a
190.866	0.0755	381732	keystroke_o	o	n/a
191.046	0.12	382092	keystroke_v	v	n/a
191.346	0.135	382692	keystroke_e	e	n/a
191.436	0.105	382872	keystroke_r	r	n/a
191.751	0.075	383502	keystroke_h	h	n/a
191.841	0.18	383682	keystroke_e	e	n/a
191.946	0.12	383892	keystroke_a	a	n/a
192.171	0.12	384342	keystroke_d	d	n/a
192.3075	0.134	384615	keystroke_Key.space	Key.space	n/a
192.726	0.105	385452	keystroke_m	m	n/a
192.981	0.06	385962	keystroke_u	u	n/a
193.026	0.12	386052	keystroke_s	s	n/a
193.476	0.09	386952	keystroke_c	c	n/a
193.6565	0.06	387313	keystroke_i	i	n/a
194.481	0.06	388962	keystroke_s	s	n/a
194.856	0.06	389712	keystroke_Key.backspace	Key.backspace	n/a
195.036	0.045	390072	keystroke_Key.backspace	Key.backspace	n/a
195.186	0.045	390372	keystroke_Key.backspace	Key.backspace	n/a
195.576	0.105	391152	keystroke_i	i	n/a
195.891	0.09	391782	keystroke_c	c	n/a
196.026	0.09	392052	keystroke_i	i	n/a
197.421	0.105	394842	keystroke_a	a	n/a
197.5265	0.1345	395053	keystroke_n	n	n/a
197.6915	0.1195	395383	keystroke_s	s	n/a
197.946	0.105	395892	keystroke_Key.enter	Key.enter	n/a
198.055	8.8325	396110	prompt	n/a	undertake receptors website plenty\n
199.026	0.09	398052	keystroke_u	u	n/a
199.251	0.12	398502	keystroke_n	n	n/a
199.3415	0.1045	398683	keystroke_d	d	n/a
199.566	0.12	399132	keystroke_e	e	n/a
199.641	0.09	399282	keystroke_r	r	n/a
199.881	0.12	399762	keystroke_t	t	n/a
199.971	0.135	399942	keystroke_a	a	n/a
200.121	0.135	400242	keystroke_k	k	n/a
200.241	0.105	400482	keystroke_e	e	n/a
200.376	0.105	400752	keystroke_Key.space	Key.space	n/a
200.661	0.09	401322	keystroke_r	r	n/a
200.7065	0.1195	401413	keystroke_e	e	n/a
200.961	0.135	401922	keystroke_c	c	n/a
201.036	0.12	402072	keystroke_e	e	n/a
201.1865	0.0745	402373	keystroke_p	p	n/a
201.336	0.12	402672	keystroke_t	t	n/a
201.471	0.075	402942	keystroke_o	o	n/a
202.101	0.12	404202	keystroke_s	s	n/a
202.506	0.0605	405012	keystroke_Key.backspace	Key.backspace	n/a
202.566	0.075	405132	keystroke_r	r	n/a
202.7015	0.1195	405403	keystroke_s	s	n/a
202.851	0.1355	405702	keystroke_Key.space	Key.space	n/a
203.136	0.15	406272	keystroke_w	w	n/a
203.256	0.075	406512	keystroke_e	e	n/a
203.706	0.0455	407412	keystroke_b	b	n/a
204.3215	0.1045	408643	keystroke_s	s	n/a
204.4565	0.0745	408913	keystroke_i	i	n/a
204.696	0.105	409392	keystroke_t	t	n/a
204.771	0.105	409542	keystroke_e	e	n/a
204.936	0.12	409872	keystroke_Key.space	Key.space	n/a
205.2365	0.1045	410473	keystroke_p	p	n/a
205.2815	0.1195	410563	keystroke_l	l	n/a
205.731	0.105	411462	keystroke_e	e	n/a
205.956	0.12	411912	keystroke_n	n	n/a
206.196	0.09	412392	keystroke_t	t	n/a
206.4365	0.0745	412873	keystroke_y	y	n/a
206.7965	0.0895	413593	keystroke_Key.enter	Key.enter	n/a
206.8905	10.2865	413781	prompt	n/a	styles stupid nicaragua restructuring\n
207.7115	0.0895	415423	keystroke_s	s	n/a
207.906	0.105	415812	keystroke_t	t	n/a
208.296	0.12	416592	keystroke_y	y	n/a
208.656	0.045	417312	keystroke_l	l	n/a
208.7765	0.0895	417553	keystroke_e	e	n/a
209.001	0.105	418002	keystroke_s	s	n/a
209.1515	0.1195	418303	keystroke_Key.space	Key.space	n/a
209.346	0.105	418692	keystroke_s	s	n/a
209.482	0.104	418964	keystroke_t	t	n/a
209.8115	0.0295	419623	keystroke_u	u	n/a
210.471	0.135	420942	keystroke_p	p	n/a
210.741	0.135	421482	keystroke_i	i	n/a
210.9515	0.105	421903	keystroke_d	d	n/a
211.1165	0.1045	422233	keystroke_Key.space	Key.space	n/a
211.4765	0.0895	422953	keystroke_n	n	n/a
211.716	0.06	423432	keystroke_i	i	n/a
212.151	0.1355	424302	keystroke_c	c	n/a
212.2565	0.1195	424513	keystroke_a	a	n/a
213.0965	0.1045	426193	keystroke_r	r	n/a
213.1715	0.1195	426343	keystroke_a	a	n/a
213.531	0.105	427062	keystroke_g	g	n/a
213.726	0.105	427452	keystroke_u	u	n/a
213.846	0.105	427692	keystroke_a	a	n/a
214.1765	0.1045	428353	keystroke_Key.space	Key.space	n/a
214.8065	0.1195	429613	keystroke_r	r	n/a
214.8815	0.1195	429763	keystroke_e	e	n/a
215.1215	0.1195	430243	keystroke_s	s	n/a
215.346	0.135	430692	keystroke_t	t	n/a
215.436	0.105	430872	keystroke_r	r	n/a
215.5715	0.0895	431143	keystroke_u	u	n/a
215.691	0.12	431382	keystroke_c	c	n/a
215.9615	0.0895	431923	keystroke_t	t	n/a
216.111	0.09	432222	keystroke_u	u	n/a
216.471	0.075	432942	keystroke_r	r	n/a
216.666	0.15	433332	keystroke_i	i	n/a
216.7865	0.1045	433573	keystroke_n	n	n/a
216.831	0.105	433662	keystroke_g	g	n/a
217.101	0.075	434202	keystroke_Key.enter	Key.enter	n/a
217.1795	8.4285	434359	prompt	n/a	singing search nasdaq scuba\n
217.9715	0.1345	435943	keystroke_s	s	n/a
218.0915	0.1495	436183	keystroke_i	i	n/a
218.211	0.09	436422	keystroke_n	n	n/a
218.3165	0.1045	436633	keystroke_g	g	n/a
218.662	0.134	437324	keystroke_i	i	n/a
218.766	0.1055	437532	keystroke_n	n	n/a
218.857	0.074	437714	keystroke_g	g	n/a
219.0515	0.1045	438103	keystroke_Key.space	Key.space	n/a
219.291	0.09	438582	keystroke_s	s	n/a
219.5315	0.1945	439063	keystroke_e	e	n/a
219.6215	0.1645	439243	keystroke_a	a	n/a
219.801	0.0905	439602	keystroke_r	r	n/a
220.041	0.12	440082	keystroke_c	c	n/a
220.146	0.12	440292	keystroke_h	h	n/a
220.251	0.105	440502	keystroke_Key.space	Key.space	n/a
220.807	0.089	441614	keystroke_n	n	n/a
220.9865	0.1495	441973	keystroke_a	a	n/a
221.0915	0.1195	442183	keystroke_s	s	n/a
221.676	0.15	443352	keystroke_d	d	n/a
221.766	0.1355	443532	keystroke_a	a	n/a
222.1115	0.1045	444223	keystroke_y	y	n/a
222.681	0.075	445362	keystroke_Key.backspace	Key.backspace	n/a
222.7715	0.1195	445543	keystroke_q	q	n/a
223.131	0.105	446262	keystroke_Key.space	Key.space	n/a
223.6865	0.1045	447373	keystroke_s	s	n/a
223.866	0.12	447732	keystroke_c	c	n/a
224.2865	0.0895	448573	keystroke_u	u	n/a
224.481	0.09	448962	keystroke_b	b	n/a
224.901	0.105	449802	keystroke_a	a	n/a
225.516	0.0905	451032	keystroke_Key.enter	Key.enter	n/a
225.611	8.3215	451222	prompt	n/a	existing pichunter viewer productive\n
226.4315	0.0895	452863	keystroke_e	e	n/a
226.686	0.105	453372	keystroke_x	x	n/a
226.8065	0.0745	453613	keystroke_i	i	n/a
226.941	0.15	453882	keystroke_s	s	n/a
227.076	0.1205	454152	keystroke_t	t	n/a
227.2115	0.1195	454423	keystroke_i	i	n/a
227.301	0.1055	454602	keystroke_n	n	n/a
227.4215	0.0745	454843	keystroke_g	g	n/a
227.5415	0.1345	455083	keystroke_Key.space	Key.space	n/a
227.9165	0.1495	455833	keystroke_p	p	n/a
227.9765	0.1345	455953	keystroke_i	i	n/a
228.2165	0.0745	456433	keystroke_c	c	n/a
228.3815	0.1045	456763	keystroke_h	h	n/a
228.8765	0.075	457753	keystroke_u	u	n/a
229.476	0.105	458952	keystroke_n	n	n/a
229.8365	0.12	459673	keystroke_t	t	n/a
229.912	0.1945	459824	keystroke_e	e	n/a
230.061	0.105	460122	keystroke_r	r	n/a
230.5565	0.1195	461113	keystroke_Key.space	Key.space	n/a
230.9015	0.1195	461803	keystroke_v	v	n/a
231.1565	0.0745	462313	keystroke_i	i	n/a
231.3065	0.1195	462613	keystroke_e	e	n/a
231.3815	0.1045	462763	keystroke_w	w	n/a
231.636	0.135	463272	keystroke_e	e	n/a
231.6965	0.135	463393	keystroke_r	r	n/a
231.9515	0.1345	463903	keystroke_Key.space	Key.space	n/a
232.2965	0.0745	464593	keystroke_p	p	n/a
232.3865	0.1045	464773	keystroke_r	r	n/a
232.536	0.09	465072	keystroke_o	o	n/a
232.7315	0.0895	465463	keystroke_d	d	n/a
232.8815	0.075	465763	keystroke_u	u	n/a
233.0015	0.1195	466003	keystroke_c	c	n/a
233.286	0.09	466572	keystroke_t	t	n/a
233.421	0.075	466842	keystroke_i	i	n/a
233.5715	0.1195	467143	keystroke_v	v	n/a
233.646	0.1055	467292	keystroke_e	e	n/a
233.8565	0.075	467713	keystroke_Key.enter	Key.enter	n/a
233.9365	8.022	467873	prompt	n/a	thriller affecting entities complete\n
234.7725	0.089	469545	keystroke_t	t	n/a
234.9065	0.0745	469813	keystroke_h	h	n/a
235.0715	0.09	470143	keystroke_r	r	n/a
235.1765	0.0895	470353	keystroke_i	i	n/a
235.4165	0.0745	470833	keystroke_l	l	n/a
235.6565	0.0595	471313	keystroke_l	l	n/a
236.136	0.135	472272	keystroke_e	e	n/a
236.2115	0.1195	472423	keystroke_r	r	n/a
236.4515	0.12	472903	keystroke_Key.space	Key.space	n/a
236.8415	0.0895	473683	keystroke_a	a	n/a
237.1115	0.09	474223	keystroke_f	f	n/a
237.2765	0.1345	474553	keystroke_f	f	n/a
237.4265	0.1195	474853	keystroke_e	e	n/a
237.6215	0.0895	475243	keystroke_c	c	n/a
237.8615	0.0895	475723	keystroke_t	t	n/a
237.9965	0.135	475993	keystroke_i	i	n/a
238.0865	0.1205	476173	keystroke_n	n	n/a
238.1915	0.0595	476383	keystroke_g	g	n/a
238.4465	0.015	476893	keystroke_Key.space	Key.space	n/a
238.4765	0.0745	476953	keystroke_e	e	n/a
238.5665	0.1045	477133	keystroke_n	n	n/a
238.6865	0.0895	477373	keystroke_t	t	n/a
238.8515	0.075	477703	keystroke_i	i	n/a
238.9115	0.0895	477823	keystroke_t	t	n/a
239.0615	0.0745	478123	keystroke_i	i	n/a
239.4515	0.0895	478903	keystroke_e	e	n/a
239.601	0.12	479202	keystroke_s	s	n/a
239.7665	0.1345	479533	keystroke_Key.space	Key.space	n/a
240.066	0.12	480132	keystroke_c	c	n/a
240.141	0.135	480282	keystroke_o	o	n/a
240.532	0.164	481064	keystroke_m	m	n/a
240.9365	0.1495	481873	keystroke_p	p	n/a
241.0415	0.1495	482083	keystroke_l	l	n/a
241.266	0.0905	482532	keystroke_e	e	n/a
241.4765	0.1345	482953	keystroke_t	t	n/a
241.5665	0.105	483133	keystroke_e	e	n/a
241.851	0.1055	483702	keystroke_Key.enter	Key.enter	n/a
241.9615	8.1115	483923	prompt	n/a	syndicate hierarchy relative cindy\n
242.7365	0.12	485473	keystroke_s	s	n/a
242.991	0.0305	485982	keystroke_y	y	n/a
243.3215	0.1195	486643	keystroke_n	n	n/a
243.726	0.09	487452	keystroke_d	d	n/a
243.9515	0.0745	487903	keystroke_i	i	n/a
244.0715	0.15	488143	keystroke_c	c	n/a
244.2065	0.1045	488413	keystroke_a	a	n/a
244.4315	0.1045	488863	keystroke_t	t	n/a
244.5065	0.1045	489013	keystroke_e	e	n/a
244.6565	0.0895	489313	keystroke_Key.space	Key.space	n/a
244.896	0.0755	489792	keystroke_h	h	n/a
245.0165	0.105	490033	keystroke_i	i	n/a
245.376	0.15	490752	keystroke_e	e	n/a
245.4815	0.1045	490963	keystroke_r	r	n/a
245.706	0.09	491412	keystroke_a	a	n/a
245.9165	0.09	491833	keystroke_r	r	n/a
246.231	0.135	492462	keystroke_c	c	n/a
246.591	0.09	493182	keystroke_h	h	n/a
246.8615	0.0895	493723	keystroke_y	y	n/a
247.131	0.105	494262	keystroke_Key.space	Key.space	n/a
247.4315	0.1195	494863	keystroke_r	r	n/a
247.5065	0.1195	495013	keystroke_e	e	n/a
247.7015	0.105	495403	keystroke_l	l	n/a
247.8065	0.075	495613	keystroke_a	a	n/a
247.986	0.1355	495972	keystroke_t	t	n/a
248.226	0.075	496452	keystroke_i	i	n/a
248.316	0.12	496632	keystroke_v	v	n/a
248.3915	0.1045	496783	keystroke_e	e	n/a
248.5265	0.12	497053	keystroke_Key.space	Key.space	n/a
248.781	0.135	497562	keystroke_c	c	n/a
248.886	0.15	497772	keystroke_i	i	n/a
249.0215	0.0595	498043	keystroke_n	n	n/a
249.2165	0.09	498433	keystroke_d	d	n/a
249.4725	0.134	498945	keystroke_y	y	n/a
249.9665	0.105	499933	keystroke_Key.enter	Key.enter	n/a
250.076	6.732	500152	prompt	n/a	variables dance mode operates\n
251.0015	0.1495	502003	keystroke_v	v	n/a
251.1365	0.1045	502273	keystroke_a	a	n/a
251.4515	0.105	502903	keystroke_r	r	n/a
251.6615	0.0445	503323	keystroke_i	i	n/a
251.6765	0.1645	503353	keystroke_a	a	n/a
251.9615	0.0295	503923	keystroke_b	b	n/a
252.1565	0.0595	504313	keystroke_l	l	n/a
252.2465	0.1045	504493	keystroke_e	e	n/a
252.4725	0.1485	504945	keystroke_s	s	n/a
252.7115	0.1045	505423	keystroke_Key.space	Key.space	n/a
252.9965	0.1195	505993	keystroke_d	d	n/a
253.1015	0.0895	506203	keystroke_a	a	n/a
253.236	0.105	506472	keystroke_n	n	n/a
253.4915	0.1195	506983	keystroke_e	e	n/a
253.941	0.075	507882	keystroke_Key.backspace	Key.backspace	n/a
254.031	0.105	508062	keystroke_c	c	n/a
254.0765	0.1045	508153	keystroke_e	e	n/a
254.2265	0.1195	508453	keystroke_Key.space	Key.space	n/a
254.5415	0.1195	509083	keystroke_m	m	n/a
254.7365	0.1195	509473	keystroke_o	o	n/a
254.841	0.075	509682	keystroke_d	d	n/a
255.0515	0.0745	510103	keystroke_e	e	n/a
255.3815	0.0895	510763	keystroke_Key.space	Key.space	n/a
255.7415	0.1345	511483	keystroke_o	o	n/a
255.8315	0.1045	511663	keystroke_p	p	n/a
255.8915	0.1345	511783	keystroke_e	e	n/a
255.9965	0.1195	511993	keystroke_r	r	n/a
256.1315	0.0895	512263	keystroke_a	a	n/a
256.297	0.1345	512594	keystroke_t	t	n/a
256.4015	0.105	512803	keystroke_e	e	n/a
256.5515	0.1045	513103	keystroke_s	s	n/a
256.686	0.1205	513372	keystroke_Key.enter	Key.enter	n/a
256.811	9.1315	513622	prompt	n/a	breach boards broader coordinator\n
257.6915	0.1195	515383	keystroke_b	b	n/a
258.2465	0.1345	516493	keystroke_r	r	n/a
258.3065	0.1795	516613	keystroke_e	e	n/a
258.411	0.105	516822	keystroke_a	a	n/a
258.681	0.105	517362	keystroke_c	c	n/a
258.831	0.12	517662	keystroke_h	h	n/a
258.936	0.09	517872	keystroke_Key.space	Key.space	n/a
259.4015	0.105	518803	keystroke_v	v	n/a
260.4225	0.0885	520845	keystroke_o	o	n/a
260.826	0.0605	521652	keystroke_Key.backspace	Key.backspace	n/a
260.976	0.0605	521952	keystroke_Key.backspace	Key.backspace	n/a
261.066	0.12	522132	keystroke_b	b	n/a
261.2765	0.0895	522553	keystroke_o	o	n/a
261.486	0.15	522972	keystroke_a	a	n/a
261.5765	0.12	523153	keystroke_r	r	n/a
261.8165	0.1195	523633	keystroke_d	d	n/a
262.0265	0.09	524053	keystroke_s	s	n/a
262.236	0.09	524472	keystroke_Key.space	Key.space	n/a
262.5225	0.119	525045	keystroke_b	b	n/a
262.8815	0.105	525763	keystroke_r	r	n/a
263.0765	0.06	526153	keystroke_o	o	n/a
263.1065	0.105	526213	keystroke_a	a	n/a
263.3315	0.12	526663	keystroke_d	d	n/a
263.6165	0.1195	527233	keystroke_e	e	n/a
263.6765	0.1045	527353	keystroke_r	r	n/a
263.873	0.103	527746	keystroke_Key.space	Key.space	n/a
264.051	0.1055	528102	keystroke_c	c	n/a
264.1415	0.0745	528283	keystroke_o	o	n/a
264.322	0.0895	528644	keystroke_o	o	n/a
264.472	0.119	528944	keystroke_r	r	n/a
264.8465	0.075	529693	keystroke_d	d	n/a
264.9665	0.075	529933	keystroke_i	i	n/a
265.1765	0.075	530353	keystroke_n	n	n/a
265.2665	0.075	530533	keystroke_a	a	n/a
265.4465	0.09	530893	keystroke_t	t	n/a
265.5515	0.0745	531103	keystroke_o	o	n/a
265.686	0.0755	531372	keystroke_r	r	n/a
265.8515	0.09	531703	keystroke_Key.enter	Key.enter	n/a
265.9455	5.878	531891	prompt	n/a	looks access mill relief\n
266.7965	0.09	533593	keystroke_l	l	n/a
267.0815	0.0595	534163	keystroke_o	o	n/a
267.2465	0.075	534493	keystroke_o	o	n/a
267.4415	0.0895	534883	keystroke_k	k	n/a
267.5165	0.12	535033	keystroke_s	s	n/a
267.712	0.119	535424	keystroke_Key.space	Key.space	n/a
267.8615	0.12	535723	keystroke_a	a	n/a
268.1165	0.0595	536233	keystroke_c	c	n/a
268.2665	0.12	536533	keystroke_c	c	n/a
268.3415	0.105	536683	keystroke_e	e	n/a
268.551	0.0605	537102	keystroke_s	s	n/a
268.7165	0.0905	537433	keystroke_s	s	n/a
268.8225	0.1185	537645	keystroke_Key.space	Key.space	n/a
269.0015	0.135	538003	keystroke_m	m	n/a
269.2415	0.075	538483	keystroke_i	i	n/a
269.4065	0.075	538813	keystroke_l	l	n/a
269.5865	0.06	539173	keystroke_l	l	n/a
269.6765	0.135	539353	keystroke_Key.space	Key.space	n/a
269.7965	0.12	539593	keystroke_r	r	n/a
269.8715	0.151	539743	keystroke_e	e	n/a
270.0665	0.1645	540133	keystroke_l	l	n/a
270.1565	0.135	540313	keystroke_i	i	n/a
271.0115	0.09	542023	keystroke_e	e	n/a
271.2515	0.105	542503	keystroke_f	f	n/a
271.7165	0.106	543433	keystroke_Key.enter	Key.enter	n/a
271.8275	11.215	543655	prompt	n/a	polished specifics born jefferson\n
272.5865	0.15	545173	keystroke_p	p	n/a
272.6915	0.1055	545383	keystroke_o	o	n/a
272.811	0.0905	545622	keystroke_s	s	n/a
272.9765	0.18	545953	keystroke_l	l	n/a
273.0815	0.12	546163	keystroke_i	i	n/a
273.3225	0.0735	546645	keystroke_s	s	n/a
273.4115	0.105	546823	keystroke_h	h	n/a
273.5615	0.09	547123	keystroke_e	e	n/a
273.786	0.1055	547572	keystroke_d	d	n/a
273.936	0.1205	547872	keystroke_Key.space	Key.space	n/a
274.072	0.1045	548144	keystroke_s	s	n/a
274.2365	0.1645	548473	keystroke_p	p	n/a
274.7165	0.106	549433	keystroke_e	e	n/a
275.7965	0.12	551593	keystroke_c	c	n/a
276.1265	0.075	552253	keystroke_i	i	n/a
276.4725	0.104	552945	keystroke_f	f	n/a
276.6515	0.075	553303	keystroke_i	i	n/a
277.0415	0.1345	554083	keystroke_c	c	n/a
277.2515	0.1205	554503	keystroke_s	s	n/a
277.3865	0.12	554773	keystroke_Key.space	Key.space	n/a
277.6865	0.0895	555373	keystroke_b	b	n/a
277.8665	0.0745	555733	keystroke_o	o	n/a
278.0315	0.075	556063	keystroke_r	r	n/a
278.2415	0.135	556483	keystroke_n	n	n/a
278.4065	0.1045	556813	keystroke_Key.space	Key.space	n/a
278.7365	0.075	557473	keystroke_h	h	n/a
278.857	0.1195	557714	keystroke_e	e	n/a
279.5465	0.0765	559093	keystroke_Key.backspace	Key.backspace	n/a
279.7265	0.075	559453	keystroke_Key.backspace	Key.backspace	n/a
280.2965	0.105	560593	keystroke_j	j	n/a
280.7315	0.12	561463	keystroke_e	e	n/a
281.2565	0.09	562513	keystroke_f	f	n/a
281.4225	0.104	562845	keystroke_f	f	n/a
281.7815	0.15	563563	keystroke_e	e	n/a
281.8565	0.12	563713	keystroke_r	r	n/a
282.2015	0.135	564403	keystroke_s	s	n/a
282.4415	0.15	564883	keystroke_o	o	n/a
282.5465	0.105	565093	keystroke_n	n	n/a
282.9225	0.119	565845	keystroke_Key.enter	Key.enter	n/a
283.046	9.9125	566092	prompt	n/a	cole fiji parker occasionally\n
284.1965	0.076	568393	keystroke_s	s	n/a
284.6015	0.075	569203	keystroke_Key.backspace	Key.backspace	n/a
284.722	0.1345	569444	keystroke_c	c	n/a
285.2465	0.0765	570493	keystroke_o	o	n/a
285.472	0.0595	570944	keystroke_l	l	n/a
285.5615	0.09	571123	keystroke_e	e	n/a
285.7565	0.12	571513	keystroke_Key.space	Key.space	n/a
285.923	0.1035	571846	keystroke_f	f	n/a
286.0865	0.075	572173	keystroke_i	i	n/a
287.1965	0.076	574393	keystroke_j	j	n/a
287.5415	0.12	575083	keystroke_i	i	n/a
288.0365	0.12	576073	keystroke_Key.space	Key.space	n/a
288.3225	0.074	576645	keystroke_p	p	n/a
288.3815	0.195	576763	keystroke_a	a	n/a
288.5315	0.105	577063	keystroke_r	r	n/a
288.9965	0.12	577993	keystroke_k	k	n/a
289.162	0.1195	578324	keystroke_e	e	n/a
289.5815	0.105	579163	keystroke_r	r	n/a
289.8815	0.12	579763	keystroke_Key.space	Key.space	n/a
290.1225	0.074	580245	keystroke_o	o	n/a
290.2115	0.105	580423	keystroke_c	c	n/a
290.4065	0.135	580813	keystroke_c	c	n/a
290.4965	0.12	580993	keystroke_a	a	n/a
290.9915	0.105	581983	keystroke_s	s	n/a
291.2015	0.105	582403	keystroke_i	i	n/a
291.3965	0.09	582793	keystroke_o	o	n/a
291.5915	0.075	583183	keystroke_n	n	n/a
291.7115	0.105	583423	keystroke_a	a	n/a
291.9665	0.09	583933	keystroke_l	l	n/a
292.2075	0.104	584415	keystroke_l	l	n/a
292.5065	0.12	585013	keystroke_y	y	n/a
292.8815	0.0755	585763	keystroke_Key.enter	Key.enter	n/a
292.9615	11.126	585923	prompt	n/a	mortgages historical simpson precipitation\n
293.8115	0.105	587623	keystroke_m	m	n/a
294.0365	0.09	588073	keystroke_a	a	n/a
294.487	0.0445	588974	keystroke_Key.backspace	Key.backspace	n/a
294.7565	0.09	589513	keystroke_o	o	n/a
294.9665	0.09	589933	keystroke_r	r	n/a
295.5515	0.075	591103	keystroke_t	t	n/a
295.8815	0.135	591763	keystroke_g	g	n/a
295.9865	0.105	591973	keystroke_a	a	n/a
296.1965	0.12	592393	keystroke_g	g	n/a
296.3015	0.135	592603	keystroke_e	e	n/a
296.5115	0.105	593023	keystroke_s	s	n/a
297.2615	0.12	594523	keystroke_Key.space	Key.space	n/a
297.907	0.1795	595814	keystroke_h	h	n/a
298.0415	0.12	596083	keystroke_i	i	n/a
298.3265	0.075	596653	keystroke_s	s	n/a
298.6115	0.09	597223	keystroke_t	t	n/a
298.7165	0.09	597433	keystroke_o	o	n/a
298.8515	0.105	597703	keystroke_r	r	n/a
299.0315	0.0905	598063	keystroke_i	i	n/a
299.2265	0.12	598453	keystroke_c	c	n/a
299.2865	0.1355	598573	keystroke_a	a	n/a
299.4365	0.06	598873	keystroke_l	l	n/a
299.572	0.1195	599144	keystroke_Key.space	Key.space	n/a
299.7815	0.105	599563	keystroke_s	s	n/a
299.872	0.1195	599744	keystroke_i	i	n/a
300.0815	0.135	600163	keystroke_m	m	n/a
300.5315	0.105	601063	keystroke_p	p	n/a
300.8165	0.1205	601633	keystroke_s	s	n/a
301.0415	0.15	602083	keystroke_o	o	n/a
301.1615	0.12	602323	keystroke_n	n	n/a
301.3415	0.135	602683	keystroke_Key.space	Key.space	n/a
301.6265	0.075	603253	keystroke_p	p	n/a
301.7315	0.135	603463	keystroke_r	r	n/a
301.8365	0.12	603673	keystroke_e	e	n/a
302.0915	0.105	604183	keystroke_c	c	n/a
302.2565	0.045	604513	keystroke_i	i	n/a
302.5565	0.0895	605113	keystroke_p	p	n/a
302.767	0.0745	605534	keystroke_i	i	n/a
303.0815	0.105	606163	keystroke_t	t	n/a
303.172	0.1195	606344	keystroke_a	a	n/a
303.2765	0.12	606553	keystroke_t	t	n/a
303.4115	0.15	606823	keystroke_i	i	n/a
303.4865	0.165	606973	keystroke_o	o	n/a
303.622	0.1195	607244	keystroke_n	n	n/a
303.9665	0.12	607933	keystroke_Key.enter	Key.enter	n/a
304.092	6.8055	608184	prompt	n/a	singh dare camp cubic\n
304.8365	0.105	609673	keystroke_s	s	n/a
304.9115	0.075	609823	keystroke_i	i	n/a
305.0915	0.09	610183	keystroke_n	n	n/a
305.2265	0.09	610453	keystroke_g	g	n/a
305.7665	0.075	611533	keystroke_h	h	n/a
306.2315	0.092	612463	keystroke_Key.space	Key.space	n/a
306.5915	0.195	613183	keystroke_d	d	n/a
306.772	0.105	613544	keystroke_a	a	n/a
307.0115	0.165	614023	keystroke_t	t	n/a
307.5365	0.06	615073	keystroke_Key.backspace	Key.backspace	n/a
307.5815	0.135	615163	keystroke_r	r	n/a
307.672	0.1195	615344	keystroke_e	e	n/a
307.8515	0.105	615703	keystroke_Key.space	Key.space	n/a
308.0765	0.15	616153	keystroke_c	c	n/a
308.1665	0.15	616333	keystroke_a	a	n/a
308.272	0.1345	616544	keystroke_m	m	n/a
308.4665	0.1055	616933	keystroke_p	p	n/a
308.722	0.1045	617444	keystroke_Key.space	Key.space	n/a
308.8415	0.135	617683	keystroke_c	c	n/a
309.0365	0.075	618073	keystroke_u	u	n/a
309.322	0.0745	618644	keystroke_b	b	n/a
309.9515	0.075	619903	keystroke_i	i	n/a
310.4015	0.105	620803	keystroke_c	c	n/a
310.7915	0.105	621583	keystroke_Key.enter	Key.enter	n/a
310.9	8.3825	621800	prompt	n/a	microphone reliability platform quote\n
311.6765	0.18	623353	keystroke_m	m	n/a
311.872	0.1195	623744	keystroke_i	i	n/a
312.2015	0.121	624403	keystroke_c	c	n/a
312.5615	0.105	625123	keystroke_r	r	n/a
312.6965	0.0905	625393	keystroke_o	o	n/a
313.1315	0.075	626263	keystroke_p	p	n/a
313.372	0.0895	626744	keystroke_h	h	n/a
313.5815	0.135	627163	keystroke_o	o	n/a
313.6415	0.165	627283	keystroke_n	n	n/a
313.7915	0.075	627583	keystroke_e	e	n/a
313.9265	0.12	627853	keystroke_Key.space	Key.space	n/a
314.0465	0.15	628093	keystroke_r	r	n/a
314.1515	0.121	628303	keystroke_e	e	n/a
314.2865	0.15	628573	keystroke_l	l	n/a
314.3915	0.12	628783	keystroke_i	i	n/a
314.6315	0.12	629263	keystroke_a	a	n/a
314.9615	0.09	629923	keystroke_b	b	n/a
315.1265	0.075	630253	keystroke_i	i	n/a
315.3065	0.12	630613	keystroke_l	l	n/a
315.382	0.1195	630764	keystroke_i	i	n/a
315.5165	0.09	631033	keystroke_t	t	n/a
315.7115	0.0615	631423	keystroke_y	y	n/a
315.9365	0.09	631873	keystroke_Key.space	Key.space	n/a
316.2665	0.135	632533	keystroke_p	p	n/a
316.2965	0.135	632593	keystroke_l	l	n/a
316.462	0.0895	632924	keystroke_a	a	n/a
316.7015	0.045	633403	keystroke_t	t	n/a
317.0015	0.105	634003	keystroke_f	f	n/a
317.0915	0.075	634183	keystroke_o	o	n/a
317.2115	0.09	634423	keystroke_r	r	n/a
317.3315	0.105	634663	keystroke_m	m	n/a
317.5415	0.09	635083	keystroke_Key.space	Key.space	n/a
317.7065	0.12	635413	keystroke_q	q	n/a
318.0815	0.0905	636163	keystroke_u	u	n/a
318.4865	0.1355	636973	keystroke_o	o	n/a
318.8765	0.12	637753	keystroke_t	t	n/a
318.9515	0.1055	637903	keystroke_e	e	n/a
319.1765	0.105	638353	keystroke_Key.enter	Key.enter	n/a
319.286	4.287	638572	prompt	n/a	incl tablets and sign\n
320.0165	0.135	640033	keystroke_i	i	n/a
320.122	0.1045	640244	keystroke_n	n	n/a
320.2415	0.105	640483	keystroke_c	c	n/a
320.3765	0.075	640753	keystroke_l	l	n/a
320.662	0.0895	641324	keystroke_Key.space	Key.space	n/a
320.9015	0.09	641803	keystroke_t	t	n/a
320.9615	0.135	641923	keystroke_a	a	n/a
321.2165	0.0905	642433	keystroke_b	b	n/a
321.4415	0.045	642883	keystroke_l	l	n/a
321.5465	0.135	643093	keystroke_e	e	n/a
321.8015	0.105	643603	keystroke_t	t	n/a
322.072	0.1045	644144	keystroke_s	s	n/a
322.2065	0.12	644413	keystroke_Key.space	Key.space	n/a
322.3415	0.105	644683	keystroke_a	a	n/a
322.4615	0.09	644923	keystroke_n	n	n/a
322.5665	0.09	645133	keystroke_d	d	n/a
322.672	0.1045	645344	keystroke_Key.space	Key.space	n/a
322.807	0.1195	645614	keystroke_s	s	n/a
322.9415	0.06	645883	keystroke_i	i	n/a
323.0765	0.09	646153	keystroke_g	g	n/a
323.1965	0.105	646393	keystroke_n	n	n/a
323.4815	0.0905	646963	keystroke_Key.enter	Key.enter	n/a
323.576	6.3415	647152	prompt	n/a	protocol trails innovations exam\n
324.3065	0.075	648613	keystroke_p	p	n/a
324.3965	0.105	648793	keystroke_r	r	n/a
324.5315	0.0905	649063	keystroke_o	o	n/a
324.7265	0.075	649453	keystroke_t	t	n/a
324.8165	0.06	649633	keystroke_o	o	n/a
324.9965	0.105	649993	keystroke_c	c	n/a
325.0865	0.075	650173	keystroke_o	o	n/a
325.3115	0.0605	650623	keystroke_l	l	n/a
325.5065	0.105	651013	keystroke_Key.space	Key.space	n/a
325.7315	0.165	651463	keystroke_t	t	n/a
325.8365	0.1355	651673	keystroke_r	r	n/a
325.9115	0.15	651823	keystroke_a	a	n/a
326.047	0.1045	652094	keystroke_i	i	n/a
326.4515	0.09	652903	keystroke_l	l	n/a
326.572	0.0895	653144	keystroke_s	s	n/a
326.7225	0.104	653445	keystroke_Key.space	Key.space	n/a
327.022	0.0745	654044	keystroke_i	i	n/a
327.2015	0.075	654403	keystroke_n	n	n/a
327.3665	0.09	654733	keystroke_n	n	n/a
327.5765	0.03	655153	keystroke_o	o	n/a
327.7265	0.12	655453	keystroke_v	v	n/a
328.0265	0.075	656053	keystroke_a	a	n/a
328.2665	0.075	656533	keystroke_t	t	n/a
328.3565	0.166	656713	keystroke_i	i	n/a
328.4165	0.15	656833	keystroke_o	o	n/a
328.5365	0.105	657073	keystroke_n	n	n/a
328.6565	0.105	657313	keystroke_s	s	n/a
328.7765	0.12	657553	keystroke_Key.space	Key.space	n/a
328.9415	0.09	657883	keystroke_e	e	n/a
329.2115	0.165	658423	keystroke_x	x	n/a
329.3015	0.15	658603	keystroke_a	a	n/a
329.4665	0.135	658933	keystroke_m	m	n/a
329.8415	0.075	659683	keystroke_Key.enter	Key.enter	n/a
329.921	8.0215	659842	prompt	n/a	friend tournament fastest settled\n
330.7115	0.105	661423	keystroke_f	f	n/a
330.9515	0.075	661903	keystroke_r	r	n/a
331.1165	0.06	662233	keystroke_i	i	n/a
331.2065	0.075	662413	keystroke_e	e	n/a
331.3415	0.105	662683	keystroke_n	n	n/a
331.4615	0.09	662923	keystroke_d	d	n/a
331.6115	0.105	663223	keystroke_Key.space	Key.space	n/a
331.8365	0.09	663673	keystroke_t	t	n/a
331.9565	0.15	663913	keystroke_o	o	n/a
332.0465	0.1055	664093	keystroke_u	u	n/a
332.1665	0.1055	664333	keystroke_r	r	n/a
332.3615	0.09	664723	keystroke_n	n	n/a
332.4665	0.135	664933	keystroke_a	a	n/a
332.857	0.0895	665714	keystroke_m	m	n/a
332.9765	0.09	665953	keystroke_e	e	n/a
333.0965	0.0755	666193	keystroke_n	n	n/a
333.2015	0.09	666403	keystroke_t	t	n/a
333.3965	0.09	666793	keystroke_Key.space	Key.space	n/a
334.1765	0.12	668353	keystroke_g	g	n/a
334.5515	0.075	669103	keystroke_a	a	n/a
334.8665	0.045	669733	keystroke_Key.backspace	Key.backspace	n/a
335.0015	0.105	670003	keystroke_Key.backspace	Key.backspace	n/a
335.122	0.1195	670244	keystroke_f	f	n/a
335.2115	0.15	670423	keystroke_a	a	n/a
335.4065	0.105	670813	keystroke_s	s	n/a
335.6165	0.135	671233	keystroke_t	t	n/a
335.7665	0.15	671533	keystroke_e	e	n/a
336.0815	0.105	672163	keystroke_s	s	n/a
336.2765	0.09	672553	keystroke_t	t	n/a
336.4565	0.12	672913	keystroke_Key.space	Key.space	n/a
336.6515	0.09	673303	keystroke_s	s	n/a
336.8765	0.075	673753	keystroke_e	e	n/a
337.0415	0.075	674083	keystroke_t	t	n/a
337.1765	0.12	674353	keystroke_t	t	n/a
337.3415	0.075	674683	keystroke_l	l	n/a
337.4165	0.12	674833	keystroke_e	e	n/a
337.672	0.1045	675344	keystroke_d	d	n/a
337.8365	0.105	675673	keystroke_Key.enter	Key.enter	n/a
337.945	5.6675	675890	prompt	n/a	acute soul asian voters\n
338.6765	0.12	677353	keystroke_a	a	n/a
338.857	0.1195	677714	keystroke_c	c	n/a
339.1115	0.0615	678223	keystroke_u	u	n/a
339.2765	0.12	678553	keystroke_t	t	n/a
339.3815	0.0905	678763	keystroke_e	e	n/a
339.5015	0.1205	679003	keystroke_Key.space	Key.space	n/a
339.8615	0.105	679723	keystroke_s	s	n/a
339.9515	0.1205	679903	keystroke_o	o	n/a
340.0565	0.105	680113	keystroke_u	u	n/a
340.3115	0.075	680623	keystroke_l	l	n/a
340.4915	0.12	680983	keystroke_Key.space	Key.space	n/a
340.6725	0.119	681345	keystroke_a	a	n/a
340.8365	0.12	681673	keystroke_s	s	n/a
341.0165	0.0455	682033	keystroke_i	i	n/a
341.1225	0.104	682245	keystroke_a	a	n/a
341.3165	0.15	682633	keystroke_n	n	n/a
341.4815	0.0905	682963	keystroke_Key.space	Key.space	n/a
342.0225	0.119	684045	keystroke_v	v	n/a
342.3815	0.075	684763	keystroke_o	o	n/a
342.6665	0.15	685333	keystroke_t	t	n/a
342.8015	0.105	685603	keystroke_e	e	n/a
343.1315	0.075	686263	keystroke_r	r	n/a
343.2965	0.12	686593	keystroke_s	s	n/a
343.522	0.0895	687044	keystroke_Key.enter	Key.enter	n/a
343.615	7.5275	687230	prompt	n/a	appliance carolina shelf champion\n
344.2865	0.105	688573	keystroke_a	a	n/a
344.422	0.0745	688844	keystroke_p	p	n/a
344.5865	0.0755	689173	keystroke_p	p	n/a
344.8115	0.165	689623	keystroke_l	l	n/a
344.9465	0.12	689893	keystroke_i	i	n/a
345.1415	0.09	690283	keystroke_a	a	n/a
345.247	0.1045	690494	keystroke_n	n	n/a
345.3965	0.15	690793	keystroke_c	c	n/a
345.5015	0.105	691003	keystroke_e	e	n/a
345.622	0.1345	691244	keystroke_Key.space	Key.space	n/a
345.8615	0.12	691723	keystroke_c	c	n/a
346.072	0.0895	692144	keystroke_a	a	n/a
346.3115	0.09	692623	keystroke_r	r	n/a
346.4465	0.06	692893	keystroke_o	o	n/a
346.672	0.0445	693344	keystroke_l	l	n/a
346.8815	0.045	693763	keystroke_i	i	n/a
347.0615	0.09	694123	keystroke_n	n	n/a
347.1665	0.09	694333	keystroke_a	a	n/a
347.4065	0.105	694813	keystroke_Key.space	Key.space	n/a
347.6465	0.09	695293	keystroke_s	s	n/a
347.7815	0.06	695563	keystroke_h	h	n/a
348.1565	0.075	696313	keystroke_e	e	n/a
348.3815	0.075	696763	keystroke_l	l	n/a
348.6065	0.105	697213	keystroke_f	f	n/a
348.8315	0.105	697663	keystroke_Key.space	Key.space	n/a
349.0865	0.18	698173	keystroke_c	c	n/a
349.582	0.0445	699164	keystroke_h	h	n/a
349.6865	0.12	699373	keystroke_a	a	n/a
349.8815	0.091	699763	keystroke_m	m	n/a
350.122	0.1945	700244	keystroke_p	p	n/a
350.272	0.1345	700544	keystroke_i	i	n/a
350.5415	0.195	701083	keystroke_o	o	n/a
350.6615	0.165	701323	keystroke_n	n	n/a
351.0365	0.105	702073	keystroke_Key.enter	Key.enter	n/a
351.146	8.1415	702292	prompt	n/a	candy principle exercises recipient\n
352.1915	0.15	704383	keystroke_c	c	n/a
352.2965	0.12	704593	keystroke_a	a	n/a
352.4315	0.105	704863	keystroke_n	n	n/a
352.5665	0.12	705133	keystroke_d	d	n/a
352.8225	0.074	705645	keystroke_y	y	n/a
353.0465	0.105	706093	keystroke_Key.space	Key.space	n/a
353.2565	0.105	706513	keystroke_p	p	n/a
353.6015	0.105	707203	keystroke_r	r	n/a
353.7365	0.12	707473	keystroke_i	i	n/a
353.962	0.1045	707924	keystroke_n	n	n/a
354.0815	0.105	708163	keystroke_c	c	n/a
354.217	0.0745	708434	keystroke_i	i	n/a
354.5165	0.135	709033	keystroke_p	p	n/a
354.5915	0.15	709183	keystroke_l	l	n/a
354.7865	0.09	709573	keystroke_e	e	n/a
354.997	0.0895	709994	keystroke_Key.space	Key.space	n/a
355.2365	0.075	710473	keystroke_e	e	n/a
355.5225	0.104	711045	keystroke_x	x	n/a
355.8515	0.105	711703	keystroke_e	e	n/a
356.1515	0.015	712303	keystroke_r	r	n/a
356.3615	0.09	712723	keystroke_c	c	n/a
356.4965	0.045	712993	keystroke_i	i	n/a
356.572	0.1045	713144	keystroke_s	s	n/a
356.8115	0.105	713623	keystroke_e	e	n/a
357.0225	0.104	714045	keystroke_s	s	n/a
357.1865	0.09	714373	keystroke_Key.space	Key.space	n/a
357.472	0.1345	714944	keystroke_r	r	n/a
357.5615	0.105	715123	keystroke_e	e	n/a
357.8165	0.135	715633	keystroke_c	c	n/a
358.1915	0.06	716383	keystroke_i	i	n/a
358.4615	0.195	716923	keystroke_p	p	n/a
358.5965	0.105	717193	keystroke_i	i	n/a
358.8365	0.09	717673	keystroke_e	e	n/a
358.9565	0.105	717913	keystroke_n	n	n/a
359.0915	0.105	718183	keystroke_t	t	n/a
359.2115	0.075	718423	keystroke_Key.enter	Key.enter	n/a
359.2905	9.1335	718581	prompt	n/a	either nevertheless widespread heater\n
360.0815	0.075	720163	keystroke_e	e	n/a
360.2615	0.0605	720523	keystroke_i	i	n/a
360.3515	0.09	720703	keystroke_t	t	n/a
360.5015	0.075	721003	keystroke_h	h	n/a
360.5465	0.18	721093	keystroke_e	e	n/a
360.6665	0.12	721333	keystroke_r	r	n/a
360.787	0.1195	721574	keystroke_Key.space	Key.space	n/a
361.0865	0.09	722173	keystroke_n	n	n/a
361.1615	0.105	722323	keystroke_e	e	n/a
361.4465	0.135	722893	keystroke_v	v	n/a
361.6115	0.12	723223	keystroke_e	e	n/a
361.7925	0.119	723585	keystroke_r	r	n/a
363.2165	0.075	726433	keystroke_t	t	n/a
363.4115	0.12	726823	keystroke_h	h	n/a
363.7415	0.075	727483	keystroke_e	e	n/a
364.1465	0.09	728293	keystroke_l	l	n/a
364.2665	0.0905	728533	keystroke_e	e	n/a
364.4765	0.0455	728953	keystroke_s	s	n/a
364.6265	0.09	729253	keystroke_s	s	n/a
364.7765	0.105	729553	keystroke_Key.space	Key.space	n/a
364.9415	0.09	729883	keystroke_w	w	n/a
365.1065	0.06	730213	keystroke_i	i	n/a
365.1815	0.105	730363	keystroke_d	d	n/a
365.422	0.1345	730844	keystroke_e	e	n/a
365.9315	0.0905	731863	keystroke_s	s	n/a
366.1115	0.075	732223	keystroke_p	p	n/a
366.2765	0.165	732553	keystroke_r	r	n/a
366.352	0.1945	732704	keystroke_e	e	n/a
366.472	0.1945	732944	keystroke_a	a	n/a
366.7565	0.105	733513	keystroke_d	d	n/a
366.9365	0.12	733873	keystroke_Key.space	Key.space	n/a
367.3415	0.0755	734683	keystroke_h	h	n/a
367.4165	0.15	734833	keystroke_e	e	n/a
367.5065	0.105	735013	keystroke_a	a	n/a
367.9415	0.1055	735883	keystroke_t	t	n/a
368.047	0.1795	736094	keystroke_e	e	n/a
368.1665	0.09	736333	keystroke_r	r	n/a
368.3015	0.121	736603	keystroke_Key.enter	Key.enter	n/a
368.428	9.2645	736856	prompt	n/a	rewards return drinks sending\n
369.7265	0.12	739453	keystroke_e	e	n/a
369.8015	0.1205	739603	keystroke_w	w	n/a
370.5365	0.06	741073	keystroke_Key.backspace	Key.backspace	n/a
370.702	0.06	741404	keystroke_Key.backspace	Key.backspace	n/a
370.8665	0.135	741733	keystroke_e	e	n/a
371.272	0.0595	742544	keystroke_Key.backspace	Key.backspace	n/a
371.407	0.1495	742814	keystroke_r	r	n/a
371.5115	0.105	743023	keystroke_e	e	n/a
371.9015	0.15	743803	keystroke_w	w	n/a
372.0365	0.105	744073	keystroke_a	a	n/a
372.2615	0.105	744523	keystroke_r	r	n/a
372.4565	0.1655	744913	keystroke_d	d	n/a
372.5615	0.12	745123	keystroke_s	s	n/a
372.7115	0.12	745423	keystroke_Key.space	Key.space	n/a
372.892	0.1345	745784	keystroke_r	r	n/a
372.9815	0.105	745963	keystroke_e	e	n/a
373.1915	0.09	746383	keystroke_t	t	n/a
373.4315	0.105	746863	keystroke_r	r	n/a
373.8815	0.075	747763	keystroke_Key.backspace	Key.backspace	n/a
374.1515	0.075	748303	keystroke_u	u	n/a
374.3615	0.09	748723	keystroke_r	r	n/a
374.5565	0.075	749113	keystroke_n	n	n/a
374.6765	0.09	749353	keystroke_Key.space	Key.space	n/a
375.3065	0.0155	750613	keystroke_d	d	n/a
375.6965	0.0755	751393	keystroke_r	r	n/a
375.8615	0.0605	751723	keystroke_i	i	n/a
376.0865	0.075	752173	keystroke_n	n	n/a
376.3115	0.045	752623	keystroke_k	k	n/a
376.3725	0.089	752745	keystroke_s	s	n/a
376.5515	0.06	753103	keystroke_Key.space	Key.space	n/a
376.7015	0.0605	753403	keystroke_s	s	n/a
376.8965	0.0605	753793	keystroke_e	e	n/a
376.972	0.0745	753944	keystroke_n	n	n/a
377.122	0.1045	754244	keystroke_d	d	n/a
377.2415	0.135	754483	keystroke_i	i	n/a
377.3315	0.12	754663	keystroke_n	n	n/a
377.467	0.075	754934	keystroke_g	g	n/a
377.6015	0.09	755203	keystroke_Key.enter	Key.enter	n/a
377.6955	8.442	755391	prompt	n/a	respective profit python slovak\n
378.4115	0.12	756823	keystroke_r	r	n/a
378.5015	0.105	757003	keystroke_e	e	n/a
378.9365	0.105	757873	keystroke_s	s	n/a
379.072	0.0745	758144	keystroke_p	p	n/a
379.4015	0.09	758803	keystroke_e	e	n/a
379.672	0.1045	759344	keystroke_c	c	n/a
379.9725	0.089	759945	keystroke_t	t	n/a
380.1065	0.06	760213	keystroke_i	i	n/a
380.2265	0.12	760453	keystroke_v	v	n/a
380.302	0.0895	760604	keystroke_e	e	n/a
380.422	0.1045	760844	keystroke_Key.space	Key.space	n/a
380.6615	0.075	761323	keystroke_p	p	n/a
380.722	0.0895	761444	keystroke_r	r	n/a
380.872	0.0745	761744	keystroke_o	o	n/a
381.0665	0.12	762133	keystroke_f	f	n/a
381.2315	0.075	762463	keystroke_i	i	n/a
381.4265	0.105	762853	keystroke_t	t	n/a
381.5615	0.105	763123	keystroke_Key.space	Key.space	n/a
381.9515	0.06	763903	keystroke_p	p	n/a
382.237	0.0295	764474	keystroke_y	y	n/a
382.4015	0.09	764803	keystroke_t	t	n/a
383.0165	0.1055	766033	keystroke_o	o	n/a
383.4815	0.045	766963	keystroke_Key.backspace	Key.backspace	n/a
384.1565	0.09	768313	keystroke_h	h	n/a
384.2615	0.075	768523	keystroke_o	o	n/a
384.4725	0.134	768945	keystroke_n	n	n/a
384.622	0.0745	769244	keystroke_Key.space	Key.space	n/a
384.862	0.0895	769724	keystroke_s	s	n/a
384.9665	0.075	769933	keystroke_l	l	n/a
385.1765	0.06	770353	keystroke_o	o	n/a
385.2815	0.135	770563	keystroke_v	v	n/a
385.372	0.1045	770744	keystroke_a	a	n/a
385.7315	0.105	771463	keystroke_k	k	n/a
386.0615	0.075	772123	keystroke_Key.enter	Key.enter	n/a
386.1405	8.757	772281	prompt	n/a	literary accepts training expect\n
387.0665	0.15	774133	keystroke_l	l	n/a
387.2765	0.105	774553	keystroke_i	i	n/a
387.5315	0.106	775063	keystroke_t	t	n/a
387.637	0.135	775274	keystroke_e	e	n/a
387.772	0.1195	775544	keystroke_r	r	n/a
387.9065	0.045	775813	keystroke_e	e	n/a
388.4315	0.06	776863	keystroke_Key.backspace	Key.backspace	n/a
388.522	0.1045	777044	keystroke_a	a	n/a
388.7165	0.12	777433	keystroke_r	r	n/a
388.942	0.0895	777884	keystroke_y	y	n/a
389.1815	0.0755	778363	keystroke_Key.space	Key.space	n/a
389.377	0.1195	778754	keystroke_a	a	n/a
389.572	0.0595	779144	keystroke_c	c	n/a
389.7065	0.15	779413	keystroke_c	c	n/a
389.812	0.1345	779624	keystroke_e	e	n/a
389.9615	0.075	779923	keystroke_p	p	n/a
390.112	0.1345	780224	keystroke_t	t	n/a
390.2765	0.105	780553	keystroke_s	s	n/a
390.427	0.1195	780854	keystroke_Key.space	Key.space	n/a
390.787	0.1495	781574	keystroke_t	t	n/a
390.877	0.1195	781754	keystroke_r	r	n/a
391.0565	0.12	782113	keystroke_i	i	n/a
391.0875	0.1345	782175	keystroke_a	a	n/a
391.8065	0.045	783613	keystroke_Key.backspace	Key.backspace	n/a
391.9415	0.075	783883	keystroke_Key.backspace	Key.backspace	n/a
392.0465	0.105	784093	keystroke_a	a	n/a
392.227	0.1345	784454	keystroke_i	i	n/a
392.347	0.0755	784694	keystroke_n	n	n/a
392.4965	0.12	784993	keystroke_i	i	n/a
392.5865	0.1355	785173	keystroke_n	n	n/a
392.7075	0.074	785415	keystroke_g	g	n/a
392.827	0.1195	785654	keystroke_Key.space	Key.space	n/a
392.9915	0.105	785983	keystroke_a	a	n/a
393.3815	0.06	786763	keystroke_Key.backspace	Key.backspace	n/a
393.4565	0.075	786913	keystroke_e	e	n/a
393.7415	0.09	787483	keystroke_x	x	n/a
394.1015	0.075	788203	keystroke_p	p	n/a
394.192	0.0895	788384	keystroke_e	e	n/a
394.387	0.1045	788774	keystroke_c	c	n/a
394.6415	0.075	789283	keystroke_t	t	n/a
394.792	0.1045	789584	keystroke_Key.enter	Key.enter	n/a
394.9015	7.7365	789803	prompt	n/a	where'd maybe invite rubber\n
395.7365	0.105	791473	keystroke_w	w	n/a
395.9315	0.075	791863	keystroke_h	h	n/a
395.9915	0.12	791983	keystroke_e	e	n/a
396.0965	0.12	792193	keystroke_r	r	n/a
396.2015	0.105	792403	keystroke_e	e	n/a
396.4415	0.09	792883	keystroke_'	'	n/a
396.622	0.1345	793244	keystroke_d	d	n/a
396.9075	0.089	793815	keystroke_Key.space	Key.space	n/a
397.4765	0.09	794953	keystroke_m	m	n/a
397.522	0.1045	795044	keystroke_a	a	n/a
397.9865	0.09	795973	keystroke_y	y	n/a
398.6465	0.09	797293	keystroke_b	b	n/a
398.8865	0.075	797773	keystroke_e	e	n/a
399.0665	0.075	798133	keystroke_Key.space	Key.space	n/a
399.322	0.1505	798644	keystroke_i	i	n/a
399.4415	0.105	798883	keystroke_n	n	n/a
399.9365	0.105	799873	keystroke_v	v	n/a
400.282	0.0595	800564	keystroke_i	i	n/a
400.4015	0.135	800803	keystroke_t	t	n/a
400.552	0.0895	801104	keystroke_e	e	n/a
400.8965	0.0755	801793	keystroke_Key.space	Key.space	n/a
400.9865	0.03	801973	keystroke_r	r	n/a
401.377	0.0745	802754	keystroke_u	u	n/a
401.6615	0.0755	803323	keystroke_b	b	n/a
401.8565	0.06	803713	keystroke_b	b	n/a
402.0665	0.12	804133	keystroke_e	e	n/a
402.157	0.0745	804314	keystroke_r	r	n/a
402.5765	0.06	805153	keystroke_Key.enter	Key.enter	n/a
402.641	7.707	805282	prompt	n/a	ensemble beats rocky horror\n
403.3265	0.075	806653	keystroke_e	e	n/a
403.4465	0.12	806893	keystroke_n	n	n/a
403.777	0.06	807554	keystroke_s	s	n/a
404.047	0.075	808094	keystroke_e	e	n/a
404.212	0.1195	808424	keystroke_m	m	n/a
404.527	0.0895	809054	keystroke_b	b	n/a
404.737	0.0595	809474	keystroke_l	l	n/a
404.8415	0.075	809683	keystroke_e	e	n/a
405.082	0.1045	810164	keystroke_Key.space	Key.space	n/a
405.9365	0.09	811873	keystroke_b	b	n/a
406.297	0.1795	812594	keystroke_e	e	n/a
406.447	0.1345	812894	keystroke_a	a	n/a
406.642	0.0595	813284	keystroke_t	t	n/a
407.032	0.1195	814064	keystroke_s	s	n/a
407.3315	0.1505	814663	keystroke_Key.space	Key.space	n/a
407.647	0.075	815294	keystroke_r	r	n/a
407.782	0.09	815564	keystroke_o	o	n/a
407.9615	0.09	815923	keystroke_c	c	n/a
408.097	0.075	816194	keystroke_k	k	n/a
408.412	0.0605	816824	keystroke_y	y	n/a
408.637	0.1195	817274	keystroke_Key.space	Key.space	n/a
408.8915	0.075	817783	keystroke_h	h	n/a
409.042	0.1045	818084	keystroke_o	o	n/a
409.162	0.0895	818324	keystroke_r	r	n/a
409.3415	0.1055	818683	keystroke_r	r	n/a
409.837	0.0745	819674	keystroke_o	o	n/a
409.987	0.105	819974	keystroke_r	r	n/a
410.227	0.1195	820454	keystroke_Key.enter	Key.enter	n/a
410.3505	8.0675	820701	prompt	n/a	internationally weed treaty courts\n
411.127	0.1345	822254	keystroke_i	i	n/a
411.217	0.1195	822434	keystroke_n	n	n/a
411.307	0.1045	822614	keystroke_t	t	n/a
411.397	0.1345	822794	keystroke_e	e	n/a
411.5015	0.1205	823003	keystroke_r	r	n/a
411.667	0.1195	823334	keystroke_n	n	n/a
411.772	0.0745	823544	keystroke_a	a	n/a
411.9665	0.1055	823933	keystroke_t	t	n/a
412.042	0.165	824084	keystroke_i	i	n/a
412.132	0.1045	824264	keystroke_o	o	n/a
412.1915	0.12	824383	keystroke_n	n	n/a
412.402	0.075	824804	keystroke_a	a	n/a
412.4915	0.06	824983	keystroke_l	l	n/a
412.657	0.075	825314	keystroke_l	l	n/a
412.912	0.09	825824	keystroke_y	y	n/a
413.0615	0.1055	826123	keystroke_Key.space	Key.space	n/a
413.572	0.105	827144	keystroke_w	w	n/a
413.7815	0.105	827563	keystroke_e	e	n/a
413.9775	0.074	827955	keystroke_e	e	n/a
414.217	0.105	828434	keystroke_d	d	n/a
414.427	0.1195	828854	keystroke_Key.space	Key.space	n/a
414.907	0.165	829814	keystroke_t	t	n/a
414.982	0.1795	829964	keystroke_r	r	n/a
415.102	0.12	830204	keystroke_a	a	n/a
415.4165	0.1505	830833	keystroke_t	t	n/a
415.837	0.0445	831674	keystroke_Key.backspace	Key.backspace	n/a
415.987	0.0745	831974	keystroke_Key.backspace	Key.backspace	n/a
416.017	0.1795	832034	keystroke_e	e	n/a
416.152	0.0895	832304	keystroke_a	a	n/a
416.317	0.12	832634	keystroke_t	t	n/a
416.722	0.075	833444	keystroke_y	y	n/a
416.9615	0.1055	833923	keystroke_Key.space	Key.space	n/a
417.337	0.1045	834674	keystroke_c	c	n/a
417.412	0.12	834824	keystroke_o	o	n/a
417.4865	0.105	834973	keystroke_u	u	n/a
417.772	0.1045	835544	keystroke_r	r	n/a
417.997	0.1045	835994	keystroke_t	t	n/a
418.192	0.12	836384	keystroke_s	s	n/a
418.327	0.09	836654	keystroke_Key.enter	Key.enter	n/a
418.421	9.9415	836842	prompt	n/a	alternatives sample cloudy faith\n
419.167	0.0895	838334	keystroke_a	a	n/a
419.3615	0.0755	838723	keystroke_l	l	n/a
419.557	0.12	839114	keystroke_t	t	n/a
419.737	0.1495	839474	keystroke_e	e	n/a
419.857	0.09	839714	keystroke_r	r	n/a
420.067	0.105	840134	keystroke_n	n	n/a
420.142	0.1045	840284	keystroke_a	a	n/a
420.382	0.06	840764	keystroke_t	t	n/a
420.442	0.06	840884	keystroke_i	i	n/a
420.6515	0.1355	841303	keystroke_v	v	n/a
420.742	0.0895	841484	keystroke_e	e	n/a
420.9065	0.09	841813	keystroke_s	s	n/a
421.012	0.1345	842024	keystroke_Key.space	Key.space	n/a
421.177	0.1195	842354	keystroke_a	a	n/a
421.567	0.06	843134	keystroke_Key.backspace	Key.backspace	n/a
421.612	0.135	843224	keystroke_s	s	n/a
421.732	0.135	843464	keystroke_a	a	n/a
421.852	0.12	843704	keystroke_m	m	n/a
422.032	0.1645	844064	keystroke_p	p	n/a
422.137	0.12	844274	keystroke_l	l	n/a
422.242	0.09	844484	keystroke_e	e	n/a
422.422	0.105	844844	keystroke_Key.space	Key.space	n/a
422.617	0.1195	845234	keystroke_c	c	n/a
422.7975	0.134	845595	keystroke_o	o	n/a
422.887	0.15	845774	keystroke_u	u	n/a
423.502	0.1045	847004	keystroke_d	d	n/a
424.042	0.06	848084	keystroke_Key.backspace	Key.backspace	n/a
424.192	0.0745	848384	keystroke_Key.backspace	Key.backspace	n/a
424.402	0.06	848804	keystroke_Key.backspace	Key.backspace	n/a
424.702	0.075	849404	keystroke_l	l	n/a
424.942	0.12	849884	keystroke_o	o	n/a
425.032	0.0905	850064	keystroke_u	u	n/a
425.1225	0.0895	850245	keystroke_d	d	n/a
425.407	0.0745	850814	keystroke_y	y	n/a
425.767	0.12	851534	keystroke_Key.space	Key.space	n/a
426.457	0.1195	852914	keystroke_g	g	n/a
426.607	0.105	853214	keystroke_a	a	n/a
427.207	0.045	854414	keystroke_Key.backspace	Key.backspace	n/a
427.357	0.0745	854714	keystroke_Key.backspace	Key.backspace	n/a
427.417	0.12	854834	keystroke_f	f	n/a
427.492	0.1195	854984	keystroke_a	a	n/a
427.807	0.045	855614	keystroke_i	i	n/a
427.912	0.09	855824	keystroke_t	t	n/a
428.032	0.075	856064	keystroke_h	h	n/a
428.257	0.105	856514	keystroke_Key.enter	Key.enter	n/a
428.3655	8.592	856731	prompt	n/a	contractors mono psychiatry connect\n
429.142	0.1195	858284	keystroke_c	c	n/a
429.247	0.1495	858494	keystroke_o	o	n/a
429.352	0.09	858704	keystroke_n	n	n/a
429.457	0.18	858914	keystroke_t	t	n/a
429.5915	0.12	859183	keystroke_r	r	n/a
429.667	0.1345	859334	keystroke_a	a	n/a
429.892	0.09	859784	keystroke_c	c	n/a
430.1315	0.0905	860263	keystroke_t	t	n/a
430.267	0.0745	860534	keystroke_o	o	n/a
430.432	0.09	860864	keystroke_r	r	n/a
430.627	0.0455	861254	keystroke_s	s	n/a
430.702	0.12	861404	keystroke_Key.space	Key.space	n/a
430.9415	0.1205	861883	keystroke_m	m	n/a
431.047	0.105	862094	keystroke_o	o	n/a
431.2115	0.1655	862423	keystroke_n	n	n/a
431.407	0.0895	862814	keystroke_o	o	n/a
431.737	0.0895	863474	keystroke_Key.space	Key.space	n/a
432.0665	0.0755	864133	keystroke_p	p	n/a
432.397	0.1045	864794	keystroke_h	h	n/a
432.9515	0.045	865903	keystroke_Key.backspace	Key.backspace	n/a
433.0265	0.1055	866053	keystroke_s	s	n/a
433.2975	0.0895	866595	keystroke_y	y	n/a
433.687	0.1195	867374	keystroke_c	c	n/a
433.852	0.06	867704	keystroke_h	h	n/a
434.0915	0.045	868183	keystroke_i	i	n/a
434.272	0.0895	868544	keystroke_a	a	n/a
434.5565	0.1205	869113	keystroke_t	t	n/a
434.647	0.105	869294	keystroke_r	r	n/a
434.9015	0.075	869803	keystroke_y	y	n/a
435.172	0.0895	870344	keystroke_Key.space	Key.space	n/a
435.697	0.1195	871394	keystroke_c	c	n/a
435.832	0.0595	871664	keystroke_o	o	n/a
436.057	0.045	872114	keystroke_n	n	n/a
436.1765	0.0905	872353	keystroke_n	n	n/a
436.252	0.0895	872504	keystroke_e	e	n/a
436.507	0.09	873014	keystroke_c	c	n/a
436.747	0.0895	873494	keystroke_t	t	n/a
436.8515	0.105	873703	keystroke_Key.enter	Key.enter	n/a
436.9605	7.9625	873921	prompt	n/a	virtue again opportunity detail\n
437.812	0.12	875624	keystroke_c	c	n/a
438.2315	0.0455	876463	keystroke_Key.backspace	Key.backspace	n/a
438.2765	0.135	876553	keystroke_v	v	n/a
438.652	0.0295	877304	keystroke_i	i	n/a
438.727	0.0895	877454	keystroke_r	r	n/a
438.967	0.0895	877934	keystroke_t	t	n/a
439.147	0.0295	878294	keystroke_u	u	n/a
439.3265	0.09	878653	keystroke_e	e	n/a
439.4915	0.09	878983	keystroke_Key.space	Key.space	n/a
439.852	0.075	879704	keystroke_a	a	n/a
440.047	0.135	880094	keystroke_g	g	n/a
440.137	0.1195	880274	keystroke_a	a	n/a
440.272	0.1345	880544	keystroke_i	i	n/a
440.3615	0.105	880723	keystroke_n	n	n/a
440.722	0.0895	881444	keystroke_Key.space	Key.space	n/a
441.0665	0.06	882133	keystroke_o	o	n/a
441.277	0.0595	882554	keystroke_p	p	n/a
441.427	0.09	882854	keystroke_p	p	n/a
441.6065	0.075	883213	keystroke_o	o	n/a
441.6965	0.09	883393	keystroke_r	r	n/a
441.922	0.0895	883844	keystroke_t	t	n/a
442.252	0.075	884504	keystroke_u	u	n/a
442.5515	0.09	885103	keystroke_n	n	n/a
442.777	0.0595	885554	keystroke_i	i	n/a
442.852	0.0895	885704	keystroke_t	t	n/a
443.017	0.0745	886034	keystroke_y	y	n/a
443.227	0.0895	886454	keystroke_Key.space	Key.space	n/a
443.722	0.1045	887444	keystroke_d	d	n/a
443.947	0.0745	887894	keystroke_e	e	n/a
444.202	0.0745	888404	keystroke_t	t	n/a
444.337	0.09	888674	keystroke_a	a	n/a
444.442	0.105	888884	keystroke_i	i	n/a
444.4865	0.135	888973	keystroke_l	l	n/a
444.8315	0.0905	889663	keystroke_Key.enter	Key.enter	n/a
444.926	6.9565	889852	prompt	n/a	buyer medical items savings\n
445.762	0.1045	891524	keystroke_b	b	n/a
446.122	0.0895	892244	keystroke_u	u	n/a
447.022	0.0895	894044	keystroke_y	y	n/a
447.412	0.1345	894824	keystroke_e	e	n/a
447.5015	0.105	895003	keystroke_r	r	n/a
447.7415	0.09	895483	keystroke_Key.space	Key.space	n/a
447.9965	0.1205	895993	keystroke_m	m	n/a
448.087	0.0895	896174	keystroke_e	e	n/a
448.327	0.09	896654	keystroke_d	d	n/a
448.4615	0.0605	896923	keystroke_i	i	n/a
448.6115	0.1505	897223	keystroke_c	c	n/a
448.717	0.1495	897434	keystroke_a	a	n/a
448.822	0.09	897644	keystroke_l	l	n/a
449.002	0.105	898004	keystroke_Key.space	Key.space	n/a
449.362	0.0295	898724	keystroke_i	i	n/a
449.5275	0.104	899055	keystroke_t	t	n/a
449.647	0.1195	899294	keystroke_e	e	n/a
449.782	0.0895	899564	keystroke_m	m	n/a
449.947	0.0895	899894	keystroke_s	s	n/a
450.1265	0.09	900253	keystroke_Key.space	Key.space	n/a
450.607	0.165	901214	keystroke_s	s	n/a
450.742	0.1195	901484	keystroke_a	a	n/a
451.042	0.1195	902084	keystroke_v	v	n/a
451.222	0.1345	902444	keystroke_i	i	n/a
451.327	0.1045	902654	keystroke_n	n	n/a
451.417	0.0895	902834	keystroke_g	g	n/a
451.612	0.0895	903224	keystroke_s	s	n/a
451.7615	0.12	903523	keystroke_Key.enter	Key.enter	n/a
451.8875	12.07	903775	prompt	n/a	current soldiers evanescence authors\n
452.5725	0.1495	905145	keystroke_v	v	n/a
452.857	0.06	905714	keystroke_u	u	n/a
452.9765	0.075	905953	keystroke_r	r	n/a
453.3065	0.0455	906613	keystroke_Key.backspace	Key.backspace	n/a
453.4725	0.044	906945	keystroke_Key.backspace	Key.backspace	n/a
453.622	0.06	907244	keystroke_Key.backspace	Key.backspace	n/a
453.697	0.1345	907394	keystroke_c	c	n/a
453.9665	0.0455	907933	keystroke_u	u	n/a
454.102	0.0595	908204	keystroke_r	r	n/a
454.252	0.1195	908504	keystroke_r	r	n/a
454.327	0.1345	908654	keystroke_e	e	n/a
454.447	0.0745	908894	keystroke_n	n	n/a
454.5665	0.0755	909133	keystroke_t	t	n/a
454.6715	0.1055	909343	keystroke_Key.space	Key.space	n/a
455.032	0.1045	910064	keystroke_s	s	n/a
455.152	0.0595	910304	keystroke_o	o	n/a
455.362	0.06	910724	keystroke_l	l	n/a
455.572	0.0595	911144	keystroke_d	d	n/a
455.8565	0.12	911713	keystroke_e	e	n/a
456.172	0.0595	912344	keystroke_i	i	n/a
456.607	0.045	913214	keystroke_Key.backspace	Key.backspace	n/a
456.7565	0.06	913513	keystroke_Key.backspace	Key.backspace	n/a
456.997	0.0445	913994	keystroke_i	i	n/a
457.0265	0.1505	914053	keystroke_e	e	n/a
457.1165	0.105	914233	keystroke_r	r	n/a
457.312	0.1045	914624	keystroke_s	s	n/a
457.4615	0.135	914923	keystroke_Key.space	Key.space	n/a
457.972	0.1045	915944	keystroke_e	e	n/a
458.287	0.12	916574	keystroke_v	v	n/a
458.422	0.1045	916844	keystroke_a	a	n/a
458.752	0.0895	917504	keystroke_n	n	n/a
459.772	0.075	919544	keystroke_e	e	n/a
460.042	0.1495	920084	keystroke_s	s	n/a
460.162	0.0895	920324	keystroke_c	c	n/a
460.417	0.1045	920834	keystroke_e	e	n/a
460.5965	0.1205	921193	keystroke_n	n	n/a
460.7915	0.135	921583	keystroke_c	c	n/a
460.837	0.1645	921674	keystroke_e	e	n/a
462.232	0.1345	924464	keystroke_Key.space	Key.space	n/a
462.532	0.1195	925064	keystroke_a	a	n/a
462.697	0.0595	925394	keystroke_u	u	n/a
462.922	0.105	925844	keystroke_t	t	n/a
463.072	0.0595	926144	keystroke_h	h	n/a
463.2515	0.0755	926503	keystroke_o	o	n/a
463.5665	0.0755	927133	keystroke_r	r	n/a
463.732	0.1045	927464	keystroke_s	s	n/a
463.852	0.1045	927704	keystroke_Key.enter	Key.enter	n/a
463.961	6.177	927922	prompt	n/a	weed locally imagine guidelines\n
464.647	0.1195	929294	keystroke_w	w	n/a
464.737	0.0895	929474	keystroke_e	e	n/a
464.902	0.1045	929804	keystroke_e	e	n/a
465.187	0.1045	930374	keystroke_d	d	n/a
465.397	0.105	930794	keystroke_Key.space	Key.space	n/a
465.622	0.06	931244	keystroke_l	l	n/a
465.817	0.075	931634	keystroke_o	o	n/a
465.9065	0.1205	931813	keystroke_c	c	n/a
465.967	0.1345	931934	keystroke_a	a	n/a
466.087	0.0445	932174	keystroke_l	l	n/a
466.237	0.075	932474	keystroke_l	l	n/a
466.477	0.0895	932954	keystroke_y	y	n/a
466.5515	0.1055	933103	keystroke_Key.space	Key.space	n/a
466.807	0.1495	933614	keystroke_i	i	n/a
466.8665	0.1355	933733	keystroke_m	m	n/a
466.987	0.1205	933974	keystroke_a	a	n/a
467.362	0.0895	934724	keystroke_g	g	n/a
467.557	0.1345	935114	keystroke_i	i	n/a
467.662	0.0745	935324	keystroke_n	n	n/a
467.752	0.1045	935504	keystroke_e	e	n/a
467.992	0.1045	935984	keystroke_Key.space	Key.space	n/a
468.547	0.1045	937094	keystroke_g	g	n/a
468.742	0.1345	937484	keystroke_u	u	n/a
468.847	0.075	937694	keystroke_i	i	n/a
469.132	0.0895	938264	keystroke_d	d	n/a
469.357	0.075	938714	keystroke_e	e	n/a
469.4465	0.165	938893	keystroke_l	l	n/a
469.537	0.1795	939074	keystroke_i	i	n/a
469.687	0.105	939374	keystroke_n	n	n/a
469.732	0.105	939464	keystroke_e	e	n/a
469.897	0.12	939794	keystroke_s	s	n/a
470.0315	0.105	940063	keystroke_Key.enter	Key.enter	n/a
470.1405	7.1075	940281	prompt	n/a	educators isaac cargo attitudes\n
470.857	0.09	941714	keystroke_e	e	n/a
471.082	0.12	942164	keystroke_d	d	n/a
471.322	0.045	942644	keystroke_u	u	n/a
471.4275	0.119	942855	keystroke_c	c	n/a
471.487	0.135	942974	keystroke_a	a	n/a
471.727	0.075	943454	keystroke_t	t	n/a
471.8165	0.0605	943633	keystroke_o	o	n/a
471.937	0.1045	943874	keystroke_r	r	n/a
472.087	0.1045	944174	keystroke_s	s	n/a
472.208	0.119	944416	keystroke_Key.space	Key.space	n/a
472.417	0.0745	944834	keystroke_i	i	n/a
472.642	0.135	945284	keystroke_s	s	n/a
472.792	0.1045	945584	keystroke_a	a	n/a
473.062	0.105	946124	keystroke_a	a	n/a
473.317	0.1345	946634	keystroke_c	c	n/a
473.587	0.1195	947174	keystroke_Key.space	Key.space	n/a
474.097	0.1345	948194	keystroke_c	c	n/a
474.187	0.1495	948374	keystroke_a	a	n/a
474.457	0.1045	948914	keystroke_r	r	n/a
474.952	0.075	949904	keystroke_g	g	n/a
475.057	0.0895	950114	keystroke_o	o	n/a
475.267	0.1195	950534	keystroke_Key.space	Key.space	n/a
475.477	0.1045	950954	keystroke_a	a	n/a
475.7015	0.06	951403	keystroke_t	t	n/a
475.837	0.1045	951674	keystroke_t	t	n/a
476.047	0.045	952094	keystroke_i	i	n/a
476.167	0.105	952334	keystroke_t	t	n/a
476.482	0.06	952964	keystroke_u	u	n/a
476.692	0.075	953384	keystroke_d	d	n/a
476.887	0.09	953774	keystroke_e	e	n/a
477.037	0.105	954074	keystroke_s	s	n/a
477.157	0.0895	954314	keystroke_Key.enter	Key.enter	n/a
477.2505	8.052	954501	prompt	n/a	occupational texts meanwhile shipping\n
478.042	0.075	956084	keystroke_o	o	n/a
478.162	0.105	956324	keystroke_c	c	n/a
478.372	0.09	956744	keystroke_c	c	n/a
478.492	0.075	956984	keystroke_u	u	n/a
478.837	0.0595	957674	keystroke_p	p	n/a
478.972	0.0895	957944	keystroke_a	a	n/a
479.167	0.0895	958334	keystroke_t	t	n/a
479.272	0.15	958544	keystroke_i	i	n/a
479.362	0.1195	958724	keystroke_o	o	n/a
479.467	0.09	958934	keystroke_n	n	n/a
479.587	0.09	959174	keystroke_a	a	n/a
479.692	0.075	959384	keystroke_l	l	n/a
479.782	0.12	959564	keystroke_Key.space	Key.space	n/a
480.142	0.1495	960284	keystroke_t	t	n/a
480.247	0.1045	960494	keystroke_e	e	n/a
480.817	0.1345	961634	keystroke_x	x	n/a
481.192	0.075	962384	keystroke_t	t	n/a
481.3575	0.1195	962715	keystroke_s	s	n/a
481.717	0.105	963434	keystroke_Key.space	Key.space	n/a
481.957	0.12	963914	keystroke_m	m	n/a
482.017	0.1495	964034	keystroke_e	e	n/a
482.137	0.105	964274	keystroke_a	a	n/a
482.257	0.09	964514	keystroke_n	n	n/a
482.632	0.09	965264	keystroke_w	w	n/a
482.692	0.165	965384	keystroke_h	h	n/a
482.782	0.165	965564	keystroke_i	i	n/a
482.962	0.075	965924	keystroke_l	l	n/a
483.292	0.09	966584	keystroke_e	e	n/a
483.472	0.135	966944	keystroke_Key.space	Key.space	n/a
483.6225	0.1195	967245	keystroke_s	s	n/a
483.757	0.195	967514	keystroke_h	h	n/a
483.907	0.06	967814	keystroke_i	i	n/a
483.9675	0.0745	967935	keystroke_p	p	n/a
484.612	0.075	969224	keystroke_p	p	n/a
484.822	0.165	969644	keystroke_i	i	n/a
484.942	0.105	969884	keystroke_n	n	n/a
485.002	0.12	970004	keystroke_g	g	n/a
485.182	0.1195	970364	keystroke_Key.enter	Key.enter	n/a
485.307	8.996	970614	prompt	n/a	malaysia kiss celebrate applicant\n
486.037	0.12	972074	keystroke_m	m	n/a
486.112	0.09	972224	keystroke_a	a	n/a
486.337	0.06	972674	keystroke_l	l	n/a
486.427	0.075	972854	keystroke_a	a	n/a
486.847	0.075	973694	keystroke_y	y	n/a
487.102	0.09	974204	keystroke_s	s	n/a
487.207	0.075	974414	keystroke_i	i	n/a
487.357	0.105	974714	keystroke_a	a	n/a
487.507	0.105	975014	keystroke_Key.space	Key.space	n/a
487.777	0.06	975554	keystroke_k	k	n/a
487.972	0.06	975944	keystroke_i	i	n/a
488.182	0.075	976364	keystroke_s	s	n/a
488.347	0.075	976694	keystroke_s	s	n/a
488.452	0.09	976904	keystroke_Key.space	Key.space	n/a
488.647	0.165	977294	keystroke_c	c	n/a
488.767	0.12	977534	keystroke_e	e	n/a
488.947	0.075	977894	keystroke_l	l	n/a
489.037	0.105	978074	keystroke_e	e	n/a
489.382	0.105	978764	keystroke_v	v	n/a
490.057	0.06	980114	keystroke_Key.backspace	Key.backspace	n/a
490.132	0.105	980264	keystroke_b	b	n/a
490.462	0.105	980924	keystroke_r	r	n/a
490.522	0.12	981044	keystroke_a	a	n/a
490.732	0.105	981464	keystroke_t	t	n/a
490.807	0.105	981614	keystroke_e	e	n/a
491.017	0.105	982034	keystroke_Key.space	Key.space	n/a
491.197	0.105	982394	keystroke_a	a	n/a
491.332	0.045	982664	keystroke_l	l	n/a
491.467	0.075	982934	keystroke_l	l	n/a
492.247	0.045	984494	keystroke_Key.backspace	Key.backspace	n/a
492.397	0.075	984794	keystroke_Key.backspace	Key.backspace	n/a
492.697	0.0755	985394	keystroke_p	p	n/a
492.862	0.075	985724	keystroke_p	p	n/a
493.087	0.135	986174	keystroke_l	l	n/a
493.177	0.12	986354	keystroke_i	i	n/a
493.387	0.12	986774	keystroke_c	c	n/a
493.447	0.15	986894	keystroke_a	a	n/a
493.792	0.105	987584	keystroke_n	n	n/a
493.912	0.105	987824	keystroke_t	t	n/a
494.197	0.105	988394	keystroke_Key.enter	Key.enter	n/a
494.3065	7.4065	988613	prompt	n/a	text constraints describe iowa\n
495.037	0.135	990074	keystroke_t	t	n/a
495.142	0.105	990284	keystroke_e	e	n/a
495.352	0.105	990704	keystroke_s	s	n/a
495.802	0.06	991604	keystroke_Key.backspace	Key.backspace	n/a
495.847	0.12	991694	keystroke_x	x	n/a
496.087	0.105	992174	keystroke_t	t	n/a
496.222	0.12	992444	keystroke_Key.space	Key.space	n/a
496.417	0.12	992834	keystroke_c	c	n/a
496.522	0.135	993044	keystroke_o	o	n/a
496.627	0.12	993254	keystroke_n	n	n/a
496.927	0.09	993854	keystroke_s	s	n/a
497.257	0.15	994514	keystroke_t	t	n/a
497.332	0.165	994664	keystroke_r	r	n/a
497.482	0.09	994964	keystroke_a	a	n/a
497.632	0.135	995264	keystroke_i	i	n/a
497.752	0.075	995504	keystroke_n	n	n/a
497.947	0.105	995894	keystroke_t	t	n/a
498.112	0.105	996224	keystroke_s	s	n/a
498.2775	0.0745	996555	keystroke_Key.space	Key.space	n/a
498.487	0.09	996974	keystroke_d	d	n/a
498.697	0.06	997394	keystroke_e	e	n/a
498.907	0.15	997814	keystroke_s	s	n/a
499.357	0.12	998714	keystroke_c	c	n/a
499.732	0.075	999464	keystroke_r	r	n/a
499.957	0.06	999914	keystroke_i	i	n/a
500.302	0.105	1000604	keystroke_b	b	n/a
500.512	0.09	1001024	keystroke_e	e	n/a
500.632	0.105	1001264	keystroke_Key.space	Key.space	n/a
500.827	0.09	1001654	keystroke_i	i	n/a
501.037	0.09	1002074	keystroke_o	o	n/a
501.337	0.09	1002674	keystroke_w	w	n/a
501.502	0.135	1003004	keystroke_a	a	n/a
501.622	0.09	1003244	keystroke_Key.enter	Key.enter	n/a
501.716	13.6475	1003432	prompt	n/a	periodically investments bookings unsubscribe\n
502.567	0.09	1005134	keystroke_p	p	n/a
502.777	0.12	1005554	keystroke_e	e	n/a
502.882	0.075	1005764	keystroke_r	r	n/a
503.362	0.06	1006724	keystroke_i	i	n/a
503.572	0.075	1007144	keystroke_o	o	n/a
503.692	0.09	1007384	keystroke_d	d	n/a
503.887	0.06	1007774	keystroke_i	i	n/a
504.037	0.135	1008074	keystroke_c	c	n/a
504.127	0.1205	1008254	keystroke_a	a	n/a
504.217	0.075	1008434	keystroke_l	l	n/a
504.382	0.09	1008764	keystroke_l	l	n/a
504.712	0.075	1009424	keystroke_y	y	n/a
504.922	0.105	1009844	keystroke_Key.space	Key.space	n/a
505.192	0.12	1010384	keystroke_i	i	n/a
505.267	0.12	1010534	keystroke_n	n	n/a
505.612	0.015	1011224	keystroke_v	v	n/a
505.657	0.105	1011314	keystroke_e	e	n/a
505.867	0.135	1011734	keystroke_s	s	n/a
506.017	0.1055	1012034	keystroke_t	t	n/a
506.182	0.105	1012364	keystroke_m	m	n/a
506.4225	0.0595	1012845	keystroke_n	n	n/a
506.467	0.105	1012934	keystroke_e	e	n/a
506.677	0.105	1013354	keystroke_t	t	n/a
506.857	0.105	1013714	keystroke_s	s	n/a
507.292	0.045	1014584	keystroke_Key.backspace	Key.backspace	n/a
507.442	0.045	1014884	keystroke_Key.backspace	Key.backspace	n/a
507.607	0.045	1015214	keystroke_Key.backspace	Key.backspace	n/a
507.997	0.09	1015994	keystroke_e	e	n/a
508.432	0.045	1016864	keystroke_Key.backspace	Key.backspace	n/a
508.567	0.06	1017134	keystroke_Key.backspace	Key.backspace	n/a
508.672	0.105	1017344	keystroke_e	e	n/a
508.822	0.075	1017644	keystroke_n	n	n/a
508.957	0.105	1017914	keystroke_t	t	n/a
509.077	0.12	1018154	keystroke_s	s	n/a
509.242	0.12	1018484	keystroke_Key.space	Key.space	n/a
509.722	0.09	1019444	keystroke_b	b	n/a
509.917	0.06	1019834	keystroke_o	o	n/a
510.097	0.06	1020194	keystroke_o	o	n/a
510.262	0.09	1020524	keystroke_k	k	n/a
510.457	0.135	1020914	keystroke_i	i	n/a
510.577	0.09	1021154	keystroke_n	n	n/a
510.682	0.105	1021364	keystroke_g	g	n/a
510.757	0.105	1021514	keystroke_s	s	n/a
510.922	0.12	1021844	keystroke_Key.space	Key.space	n/a
511.237	0.075	1022474	keystroke_u	u	n/a
511.462	0.06	1022924	keystroke_n	n	n/a
511.582	0.12	1023164	keystroke_s	s	n/a
511.762	0.12	1023524	keystroke_c	c	n/a
512.092	0.06	1024184	keystroke_u	u	n/a
512.317	0.06	1024634	keystroke_b	b	n/a
512.782	0.045	1025564	keystroke_Key.backspace	Key.backspace	n/a
512.917	0.06	1025834	keystroke_Key.backspace	Key.backspace	n/a
513.082	0.0905	1026164	keystroke_Key.backspace	Key.backspace	n/a
513.457	0.075	1026914	keystroke_u	u	n/a
513.712	0.075	1027424	keystroke_b	b	n/a
513.982	0.135	1027964	keystroke_s	s	n/a
514.132	0.105	1028264	keystroke_c	c	n/a
514.4625	0.1195	1028925	keystroke_r	r	n/a
514.702	0.06	1029404	keystroke_i	i	n/a
514.8385	0.134	1029677	keystroke_v	v	n/a
514.957	0.09	1029914	keystroke_e	e	n/a
515.257	0.105	1030514	keystroke_Key.enter	Key.enter	n/a
515.3665	7.4225	1030733	prompt	n/a	portable statistical reference sucking\n
516.517	0.06	1033034	keystroke_p	p	n/a
516.847	0.09	1033694	keystroke_o	o	n/a
517.028	0.119	1034056	keystroke_r	r	n/a
517.267	0.15	1034534	keystroke_t	t	n/a
517.402	0.105	1034804	keystroke_a	a	n/a
517.672	0.09	1035344	keystroke_b	b	n/a
517.852	0.06	1035704	keystroke_l	l	n/a
517.942	0.09	1035884	keystroke_e	e	n/a
518.062	0.105	1036124	keystroke_Key.space	Key.space	n/a
518.227	0.105	1036454	keystroke_s	s	n/a
518.407	0.09	1036814	keystroke_t	t	n/a
518.512	0.12	1037024	keystroke_a	a	n/a
518.602	0.1055	1037204	keystroke_t	t	n/a
518.872	0.045	1037744	keystroke_i	i	n/a
518.9175	0.0895	1037835	keystroke_s	s	n/a
519.112	0.075	1038224	keystroke_t	t	n/a
519.247	0.06	1038494	keystroke_i	i	n/a
519.382	0.135	1038764	keystroke_c	c	n/a
519.487	0.12	1038974	keystroke_a	a	n/a
519.622	0.06	1039244	keystroke_l	l	n/a
519.772	0.1055	1039544	keystroke_Key.space	Key.space	n/a
520.147	0.1355	1040294	keystroke_r	r	n/a
520.237	0.12	1040474	keystroke_e	e	n/a
520.492	0.12	1040984	keystroke_f	f	n/a
520.582	0.09	1041164	keystroke_e	e	n/a
520.762	0.135	1041524	keystroke_r	r	n/a
520.838	0.119	1041676	keystroke_e	e	n/a
520.972	0.09	1041944	keystroke_n	n	n/a
521.077	0.15	1042154	keystroke_c	c	n/a
521.182	0.105	1042364	keystroke_e	e	n/a
521.332	0.12	1042664	keystroke_Key.space	Key.space	n/a
521.632	0.09	1043264	keystroke_s	s	n/a
521.752	0.06	1043504	keystroke_u	u	n/a
521.977	0.06	1043954	keystroke_c	c	n/a
522.067	0.06	1044134	keystroke_k	k	n/a
522.322	0.15	1044644	keystroke_i	i	n/a
522.442	0.105	1044884	keystroke_n	n	n/a
522.562	0.06	1045124	keystroke_g	g	n/a
522.697	0.09	1045394	keystroke_Key.enter	Key.enter	n/a
522.792	9.281	1045584	prompt	n/a	broadcasting prague kind mining\n
523.642	0.12	1047284	keystroke_b	b	n/a
523.957	0.09	1047914	keystroke_r	r	n/a
524.122	0.075	1048244	keystroke_o	o	n/a
524.497	0.12	1048994	keystroke_a	a	n/a
524.738	0.104	1049476	keystroke_d	d	n/a
525.052	0.165	1050104	keystroke_c	c	n/a
525.157	0.12	1050314	keystroke_a	a	n/a
525.352	0.105	1050704	keystroke_s	s	n/a
525.592	0.105	1051184	keystroke_t	t	n/a
525.7725	0.1345	1051545	keystroke_i	i	n/a
525.847	0.12	1051694	keystroke_n	n	n/a
526.072	0.135	1052144	keystroke_Key.space	Key.space	n/a
526.492	0.06	1052984	keystroke_Key.backspace	Key.backspace	n/a
526.582	0.0905	1053164	keystroke_g	g	n/a
526.687	0.105	1053374	keystroke_Key.space	Key.space	n/a
526.927	0.09	1053854	keystroke_p	p	n/a
527.032	0.09	1054064	keystroke_r	r	n/a
527.107	0.12	1054214	keystroke_a	a	n/a
527.347	0.105	1054694	keystroke_g	g	n/a
527.677	0.075	1055354	keystroke_u	u	n/a
527.842	0.09	1055684	keystroke_e	e	n/a
528.067	0.121	1056134	keystroke_Key.space	Key.space	n/a
528.592	0.06	1057184	keystroke_k	k	n/a
528.817	0.06	1057634	keystroke_i	i	n/a
529.0575	0.0895	1058115	keystroke_n	n	n/a
529.747	0.06	1059494	keystroke_d	d	n/a
530.152	0.105	1060304	keystroke_Key.space	Key.space	n/a
530.392	0.1355	1060784	keystroke_m	m	n/a
530.647	0.03	1061294	keystroke_i	i	n/a
530.6625	0.1195	1061325	keystroke_n	n	n/a
531.517	0.09	1063034	keystroke_i	i	n/a
531.712	0.12	1063424	keystroke_n	n	n/a
531.817	0.09	1063634	keystroke_g	g	n/a
531.967	0.105	1063934	keystroke_Key.enter	Key.enter	n/a
532.076	7.663	1064152	prompt	n/a	weapon overcome notebook birds\n
533.482	0.15	1066964	keystroke_w	w	n/a
533.572	0.105	1067144	keystroke_e	e	n/a
533.797	0.12	1067594	keystroke_a	a	n/a
534.127	0.15	1068254	keystroke_p	p	n/a
534.232	0.09	1068464	keystroke_o	o	n/a
534.457	0.135	1068914	keystroke_n	n	n/a
534.697	0.105	1069394	keystroke_Key.space	Key.space	n/a
534.9385	0.074	1069877	keystroke_o	o	n/a
535.417	0.121	1070834	keystroke_v	v	n/a
535.702	0.15	1071404	keystroke_e	e	n/a
535.807	0.09	1071614	keystroke_r	r	n/a
536.0925	0.1195	1072185	keystroke_c	c	n/a
536.167	0.15	1072334	keystroke_o	o	n/a
536.2885	0.0885	1072577	keystroke_m	m	n/a
536.407	0.09	1072814	keystroke_e	e	n/a
536.557	0.09	1073114	keystroke_Key.space	Key.space	n/a
536.782	0.075	1073564	keystroke_n	n	n/a
536.977	0.075	1073954	keystroke_o	o	n/a
537.082	0.12	1074164	keystroke_t	t	n/a
537.172	0.12	1074344	keystroke_e	e	n/a
537.367	0.015	1074734	keystroke_b	b	n/a
537.532	0.06	1075064	keystroke_o	o	n/a
537.712	0.105	1075424	keystroke_o	o	n/a
537.757	0.165	1075514	keystroke_k	k	n/a
537.907	0.105	1075814	keystroke_Key.space	Key.space	n/a
538.417	0.09	1076834	keystroke_b	b	n/a
538.747	0.015	1077494	keystroke_i	i	n/a
538.912	0.0605	1077824	keystroke_r	r	n/a
539.347	0.15	1078694	keystroke_d	d	n/a
539.482	0.09	1078964	keystroke_s	s	n/a
539.647	0.091	1079294	keystroke_Key.enter	Key.enter	n/a
539.7425	7.4805	1079485	prompt	n/a	flying christ pending netscape\n
540.532	0.09	1081064	keystroke_f	f	n/a
540.682	0.105	1081364	keystroke_l	l	n/a
542.002	0.09	1084004	keystroke_y	y	n/a
542.362	0.165	1084724	keystroke_i	i	n/a
542.482	0.106	1084964	keystroke_n	n	n/a
542.617	0.06	1085234	keystroke_g	g	n/a
542.752	0.135	1085504	keystroke_Key.space	Key.space	n/a
543.038	0.089	1086076	keystroke_c	c	n/a
543.172	0.06	1086344	keystroke_h	h	n/a
543.712	0.045	1087424	keystroke_r	r	n/a
543.832	0.06	1087664	keystroke_i	i	n/a
544.147	0.0915	1088294	keystroke_s	s	n/a
544.388	0.074	1088776	keystroke_t	t	n/a
544.612	0.105	1089224	keystroke_Key.space	Key.space	n/a
544.838	0.074	1089676	keystroke_p	p	n/a
544.897	0.105	1089794	keystroke_e	e	n/a
545.062	0.076	1090124	keystroke_n	n	n/a
545.2125	0.1045	1090425	keystroke_d	d	n/a
545.332	0.135	1090664	keystroke_i	i	n/a
545.422	0.135	1090844	keystroke_n	n	n/a
545.542	0.09	1091084	keystroke_g	g	n/a
545.692	0.09	1091384	keystroke_Key.space	Key.space	n/a
545.812	0.105	1091624	keystroke_n	n	n/a
545.902	0.09	1091804	keystroke_e	e	n/a
546.022	0.075	1092044	keystroke_t	t	n/a
546.322	0.1505	1092644	keystroke_s	s	n/a
546.472	0.12	1092944	keystroke_c	c	n/a
546.607	0.12	1093214	keystroke_a	a	n/a
546.802	0.09	1093604	keystroke_p	p	n/a
546.907	0.09	1093814	keystroke_e	e	n/a
547.132	0.09	1094264	keystroke_Key.enter	Key.enter	n/a
547.2265	7.8265	1094453	prompt	n/a	columns remix advertise accounting\n
547.972	0.12	1095944	keystroke_c	c	n/a
548.122	0.06	1096244	keystroke_o	o	n/a
548.332	0.075	1096664	keystroke_l	l	n/a
548.5425	0.0595	1097085	keystroke_u	u	n/a
548.797	0.0755	1097594	keystroke_m	m	n/a
549.007	0.075	1098014	keystroke_n	n	n/a
549.097	0.105	1098194	keystroke_s	s	n/a
549.247	0.12	1098494	keystroke_Key.space	Key.space	n/a
549.847	0.135	1099694	keystroke_r	r	n/a
549.938	0.119	1099876	keystroke_e	e	n/a
550.207	0.105	1100414	keystroke_m	m	n/a
550.4775	0.061	1100955	keystroke_i	i	n/a
550.582	0.106	1101164	keystroke_x	x	n/a
550.807	0.12	1101614	keystroke_Key.space	Key.space	n/a
551.392	0.12	1102784	keystroke_a	a	n/a
551.617	0.105	1103234	keystroke_d	d	n/a
551.992	0.15	1103984	keystroke_v	v	n/a
552.367	0.135	1104734	keystroke_e	e	n/a
552.442	0.12	1104884	keystroke_r	r	n/a
552.727	0.09	1105454	keystroke_t	t	n/a
552.9225	0.0445	1105845	keystroke_i	i	n/a
553.042	0.21	1106084	keystroke_s	s	n/a
553.222	0.09	1106444	keystroke_e	e	n/a
553.327	0.105	1106654	keystroke_Key.space	Key.space	n/a
553.492	0.12	1106984	keystroke_a	a	n/a
553.807	0.06	1107614	keystroke_c	c	n/a
553.972	0.09	1107944	keystroke_c	c	n/a
554.077	0.105	1108154	keystroke_o	o	n/a
554.138	0.104	1108276	keystroke_u	u	n/a
554.347	0.076	1108694	keystroke_n	n	n/a
554.423	0.104	1108846	keystroke_t	t	n/a
554.588	0.15	1109176	keystroke_i	i	n/a
554.677	0.135	1109354	keystroke_n	n	n/a
554.782	0.09	1109564	keystroke_g	g	n/a
554.962	0.09	1109924	keystroke_Key.enter	Key.enter	n/a
555.058	6.132	1110116	prompt	n/a	meta making fantasy alot\n
555.787	0.075	1111574	keystroke_m	m	n/a
555.847	0.075	1111694	keystroke_e	e	n/a
556.057	0.1355	1112114	keystroke_t	t	n/a
556.192	0.105	1112384	keystroke_a	a	n/a
556.342	0.09	1112684	keystroke_Key.space	Key.space	n/a
556.538	0.119	1113076	keystroke_m	m	n/a
556.612	0.09	1113224	keystroke_a	a	n/a
556.762	0.09	1113524	keystroke_k	k	n/a
556.972	0.12	1113944	keystroke_i	i	n/a
557.032	0.1355	1114064	keystroke_n	n	n/a
557.167	0.06	1114334	keystroke_g	g	n/a
557.272	0.105	1114544	keystroke_Key.space	Key.space	n/a
557.588	0.104	1115176	keystroke_g	g	n/a
557.917	0.121	1115834	keystroke_a	a	n/a
558.292	0.046	1116584	keystroke_Key.backspace	Key.backspace	n/a
558.442	0.075	1116884	keystroke_Key.backspace	Key.backspace	n/a
558.472	0.12	1116944	keystroke_f	f	n/a
558.547	0.12	1117094	keystroke_a	a	n/a
558.862	0.06	1117724	keystroke_n	n	n/a
559.072	0.105	1118144	keystroke_t	t	n/a
559.207	0.105	1118414	keystroke_a	a	n/a
559.522	0.09	1119044	keystroke_s	s	n/a
560.122	0.09	1120244	keystroke_y	y	n/a
560.3775	0.1045	1120755	keystroke_Key.space	Key.space	n/a
560.512	0.09	1121024	keystroke_a	a	n/a
560.617	0.0755	1121234	keystroke_l	l	n/a
560.8275	0.0745	1121655	keystroke_o	o	n/a
560.962	0.09	1121924	keystroke_t	t	n/a
561.112	0.0765	1122224	keystroke_Key.enter	Key.enter	n/a
561.1935	6.4145	1122387	prompt	n/a	rebate images essay newer\n
562.117	0.105	1124234	keystroke_r	r	n/a
562.1775	0.1045	1124355	keystroke_e	e	n/a
562.432	0.106	1124864	keystroke_b	b	n/a
563.047	0.091	1126094	keystroke_a	a	n/a
563.288	0.1195	1126576	keystroke_t	t	n/a
563.3475	0.1195	1126695	keystroke_e	e	n/a
563.512	0.135	1127024	keystroke_Key.space	Key.space	n/a
563.6925	0.1345	1127385	keystroke_i	i	n/a
563.752	0.136	1127504	keystroke_m	m	n/a
563.842	0.105	1127684	keystroke_a	a	n/a
564.022	0.105	1128044	keystroke_g	g	n/a
564.082	0.1065	1128164	keystroke_e	e	n/a
564.247	0.105	1128494	keystroke_s	s	n/a
564.517	0.09	1129034	keystroke_Key.space	Key.space	n/a
564.938	0.089	1129876	keystroke_e	e	n/a
565.147	0.06	1130294	keystroke_s	s	n/a
565.2975	0.1045	1130595	keystroke_s	s	n/a
565.552	0.15	1131104	keystroke_a	a	n/a
566.0925	0.0895	1132185	keystroke_y	y	n/a
566.3625	0.0895	1132725	keystroke_Key.space	Key.space	n/a
566.632	0.06	1133264	keystroke_n	n	n/a
566.738	0.089	1133476	keystroke_e	e	n/a
566.947	0.091	1133894	keystroke_w	w	n/a
567.1725	0.0745	1134345	keystroke_e	e	n/a
567.352	0.09	1134704	keystroke_r	r	n/a
567.517	0.09	1135034	keystroke_Key.enter	Key.enter	n/a
567.611	6.252	1135222	prompt	n/a	wired she's brain arrival\n
568.388	0.0745	1136776	keystroke_w	w	n/a
568.807	0.045	1137614	keystroke_i	i	n/a
568.942	0.09	1137884	keystroke_r	r	n/a
569.002	0.105	1138004	keystroke_e	e	n/a
569.242	0.075	1138484	keystroke_d	d	n/a
