onset	duration	sample	value	key	prompt_text
0.6405	0.1935	1281	keystroke_Key.cmd	Key.cmd	n/a
0.744	0.165	1488	keystroke_Key.tab	Key.tab	n/a
3.249	0.1205	6498	keystroke_Key.cmd	Key.cmd	n/a
3.2795	0.105	6559	keystroke_Key.tab	Key.tab	n/a
294.533	0.1195	589066	keystroke_v	v	n/a
294.6375	0.1205	589275	keystroke_i	i	n/a
294.773	0.105	589546	keystroke_s	s	n/a
294.818	0.0745	589636	keystroke_h	h	n/a
297.0975	0.225	594195	keystroke_Key.cmd	Key.cmd	n/a
297.3075	0.03	594615	keystroke_v	v	n/a
302.229	0.135	604458	keystroke_Key.space	Key.space	n/a
302.3715	6.011	604743	prompt	n/a	the quick brown fox jumps over a lazy dog\n
302.874	0.105	605748	keystroke_t	t	n/a
302.9635	0.1055	605927	keystroke_h	h	n/a
303.054	0.135	606108	keystroke_e	e	n/a
303.174	0.1345	606348	keystroke_q	q	n/a
303.339	0.1495	606678	keystroke_Key.space	Key.space	n/a
303.6985	0.0605	607397	keystroke_Key.backspace	Key.backspace	n/a
303.849	0.1055	607698	keystroke_Key.backspace	Key.backspace	n/a
303.939	0.105	607878	keystroke_Key.space	Key.space	n/a
304.029	0.105	608058	keystroke_q	q	n/a
304.119	0.1045	608238	keystroke_u	u	n/a
304.2535	0.1505	608507	keystroke_c	c	n/a
304.5985	0.0755	609197	keystroke_Key.backspace	Key.backspace	n/a
304.884	0.0745	609768	keystroke_i	i	n/a
304.9735	0.15	609947	keystroke_c	c	n/a
305.064	0.105	610128	keystroke_k	k	n/a
305.1385	0.091	610277	keystroke_Key.space	Key.space	n/a
305.214	0.075	610428	keystroke_b	b	n/a
305.3935	0.1055	610787	keystroke_r	r	n/a
305.4835	0.0605	610967	keystroke_o	o	n/a
305.544	0.1495	611088	keystroke_w	w	n/a
305.679	0.0445	611358	keystroke_n	n	n/a
305.7085	0.0755	611417	keystroke_Key.space	Key.space	n/a
305.769	0.105	611538	keystroke_f	f	n/a
305.859	0.1055	611718	keystroke_o	o	n/a
305.9495	0.149	611899	keystroke_x	x	n/a
305.979	0.1345	611958	keystroke_Key.space	Key.space	n/a
306.1295	0.0445	612259	keystroke_j	j	n/a
306.28	0.0745	612560	keystroke_u	u	n/a
306.459	0.12	612918	keystroke_m	m	n/a
306.534	0.196	613068	keystroke_p	p	n/a
306.684	0.135	613368	keystroke_s	s	n/a
306.7435	0.136	613487	keystroke_Key.space	Key.space	n/a
306.8635	0.12	613727	keystroke_o	o	n/a
306.954	0.075	613908	keystroke_v	v	n/a
307.0595	0.12	614119	keystroke_e	e	n/a
307.134	0.0895	614268	keystroke_r	r	n/a
307.1935	0.0455	614387	keystroke_Key.space	Key.space	n/a
307.284	0.1045	614568	keystroke_a	a	n/a
307.359	0.09	614718	keystroke_Key.space	Key.space	n/a
307.464	0.12	614928	keystroke_l	l	n/a
307.569	0.075	615138	keystroke_a	a	n/a
307.749	0.12	615498	keystroke_z	z	n/a
307.854	0.075	615708	keystroke_y	y	n/a
307.914	0.045	615828	keystroke_Key.space	Key.space	n/a
307.989	0.1045	615978	keystroke_d	d	n/a
308.0635	0.1205	616127	keystroke_o	o	n/a
308.214	0.12	616428	keystroke_g	g	n/a
308.289	0.0905	616578	keystroke_Key.enter	Key.enter	n/a
308.3855	5.59	616771	prompt	n/a	reservoir welfare sync nevada\n
308.604	0.0595	617208	keystroke_t	t	n/a
308.9935	0.076	617987	keystroke_Key.backspace	Key.backspace	n/a
309.13	0.119	618260	keystroke_r	r	n/a
309.2045	0.119	618409	keystroke_e	e	n/a
309.684	0.12	619368	keystroke_s	s	n/a
309.744	0.1355	619488	keystroke_e	e	n/a
309.819	0.0895	619638	keystroke_r	r	n/a
310.0295	0.1795	620059	keystroke_v	v	n/a
310.2395	0.2095	620479	keystroke_o	o	n/a
310.3745	0.1495	620749	keystroke_i	i	n/a
310.539	0.1505	621078	keystroke_r	r	n/a
310.659	0.09	621318	keystroke_Key.space	Key.space	n/a
311.0795	0.1645	622159	keystroke_w	w	n/a
311.2295	0.15	622459	keystroke_e	e	n/a
311.364	0.09	622728	keystroke_l	l	n/a
311.6795	0.135	623359	keystroke_f	f	n/a
311.7845	0.15	623569	keystroke_a	a	n/a
311.919	0.1355	623838	keystroke_r	r	n/a
311.949	0.1205	623898	keystroke_e	e	n/a
312.0545	0.0595	624109	keystroke_Key.space	Key.space	n/a
312.189	0.1195	624378	keystroke_s	s	n/a
312.2795	0.0445	624559	keystroke_y	y	n/a
312.444	0.09	624888	keystroke_n	n	n/a
312.5485	0.1055	625097	keystroke_c	c	n/a
312.5795	0.135	625159	keystroke_Key.space	Key.space	n/a
312.939	0.0905	625878	keystroke_n	n	n/a
313.014	0.1045	626028	keystroke_e	e	n/a
313.209	0.1205	626418	keystroke_v	v	n/a
313.284	0.15	626568	keystroke_a	a	n/a
313.689	0.12	627378	keystroke_d	d	n/a
313.7635	0.121	627527	keystroke_a	a	n/a
313.899	0.075	627798	keystroke_Key.enter	Key.enter	n/a
313.9785	5.1865	627957	prompt	n/a	ranges japan your viruses\n
314.679	0.12	629358	keystroke_r	r	n/a
314.8435	0.1505	629687	keystroke_a	a	n/a
314.98	0.0735	629960	keystroke_n	n	n/a
315.0385	0.1505	630077	keystroke_g	g	n/a
315.129	0.15	630258	keystroke_e	e	n/a
315.2485	0.1055	630497	keystroke_s	s	n/a
315.324	0.1055	630648	keystroke_Key.space	Key.space	n/a
315.444	0.0895	630888	keystroke_j	j	n/a
315.5195	0.0895	631039	keystroke_a	a	n/a
315.654	0.12	631308	keystroke_p	p	n/a
315.7585	0.1655	631517	keystroke_a	a	n/a
315.879	0.0905	631758	keystroke_n	n	n/a
315.9695	0.1045	631939	keystroke_Key.space	Key.space	n/a
316.224	0.0745	632448	keystroke_y	y	n/a
316.389	0.135	632778	keystroke_o	o	n/a
316.4335	0.1055	632867	keystroke_u	u	n/a
316.509	0.1205	633018	keystroke_r	r	n/a
316.6145	0.0745	633229	keystroke_Key.space	Key.space	n/a
316.824	0.15	633648	keystroke_r	r	n/a
316.989	0.0745	633978	keystroke_i	i	n/a
318.084	0.0155	636168	keystroke_Key.backspace	Key.backspace	n/a
318.189	0.09	636378	keystroke_Key.backspace	Key.backspace	n/a
318.264	0.12	636528	keystroke_v	v	n/a
318.3695	0.0895	636739	keystroke_i	i	n/a
318.474	0.15	636948	keystroke_r	r	n/a
318.609	0.03	637218	keystroke_u	u	n/a
318.684	0.1795	637368	keystroke_s	s	n/a
318.8485	0.1355	637697	keystroke_e	e	n/a
318.969	0.1495	637938	keystroke_s	s	n/a
319.104	0.0595	638208	keystroke_Key.enter	Key.enter	n/a
319.1685	4.994	638337	prompt	n/a	radius built glance establish\n
319.944	0.075	639888	keystroke_r	r	n/a
319.9745	0.1195	639949	keystroke_a	a	n/a
320.139	0.135	640278	keystroke_d	d	n/a
320.199	0.12	640398	keystroke_i	i	n/a
320.394	0.09	640788	keystroke_u	u	n/a
320.5445	0.1345	641089	keystroke_s	s	n/a
320.7245	0.075	641449	keystroke_Key.space	Key.space	n/a
321.024	0.1205	642048	keystroke_b	b	n/a
321.0695	0.15	642139	keystroke_u	u	n/a
321.1295	0.18	642259	keystroke_i	i	n/a
321.2045	0.135	642409	keystroke_l	l	n/a
321.264	0.18	642528	keystroke_d	d	n/a
321.6545	0.12	643309	keystroke_Key.backspace	Key.backspace	n/a
321.789	0.12	643578	keystroke_t	t	n/a
321.894	0.09	643788	keystroke_Key.space	Key.space	n/a
322.135	0.1195	644270	keystroke_g	g	n/a
322.209	0.0905	644418	keystroke_l	l	n/a
322.2995	0.105	644599	keystroke_a	a	n/a
322.4195	0.0895	644839	keystroke_n	n	n/a
322.4795	0.075	644959	keystroke_c	c	n/a
322.6445	0.09	645289	keystroke_e	e	n/a
322.7195	0.135	645439	keystroke_Key.space	Key.space	n/a
323.0045	0.1055	646009	keystroke_e	e	n/a
323.185	0.089	646370	keystroke_s	s	n/a
323.259	0.1205	646518	keystroke_t	t	n/a
323.364	0.0605	646728	keystroke_a	a	n/a
323.4995	0.12	646999	keystroke_b	b	n/a
323.62	0.1645	647240	keystroke_l	l	n/a
323.7095	0.09	647419	keystroke_i	i	n/a
323.785	0.135	647570	keystroke_s	s	n/a
323.875	0.1045	647750	keystroke_h	h	n/a
324.1445	0.0155	648289	keystroke_Key.enter	Key.enter	n/a
324.1665	5.0815	648333	prompt	n/a	compete nation vermont inquiries\n
324.94	0.135	649880	keystroke_c	c	n/a
324.9555	0.1495	649911	keystroke_o	o	n/a
325.03	0.1345	650060	keystroke_m	m	n/a
325.0895	0.15	650179	keystroke_p	p	n/a
325.585	0.1645	651170	keystroke_e	e	n/a
325.7055	0.164	651411	keystroke_t	t	n/a
325.8095	0.1505	651619	keystroke_e	e	n/a
325.945	0.0895	651890	keystroke_Key.space	Key.space	n/a
326.2	0.12	652400	keystroke_n	n	n/a
326.305	0.0895	652610	keystroke_a	a	n/a
326.3795	0.12	652759	keystroke_t	t	n/a
326.47	0.15	652940	keystroke_i	i	n/a
326.53	0.1495	653060	keystroke_o	o	n/a
326.605	0.105	653210	keystroke_n	n	n/a
326.695	0.1195	653390	keystroke_Key.space	Key.space	n/a
326.83	0.1045	653660	keystroke_v	v	n/a
326.95	0.12	653900	keystroke_e	e	n/a
327.04	0.0895	654080	keystroke_r	r	n/a
327.0995	0.0755	654199	keystroke_m	m	n/a
327.19	0.1495	654380	keystroke_o	o	n/a
327.2645	0.136	654529	keystroke_n	n	n/a
327.3555	0.1195	654711	keystroke_t	t	n/a
327.49	0.0745	654980	keystroke_Key.space	Key.space	n/a
327.73	0.15	655460	keystroke_i	i	n/a
327.8345	0.0905	655669	keystroke_n	n	n/a
328	0.105	656000	keystroke_q	q	n/a
328.105	0.105	656210	keystroke_u	u	n/a
328.1495	0.1355	656299	keystroke_i	i	n/a
328.4645	0.0905	656929	keystroke_r	r	n/a
328.54	0.105	657080	keystroke_i	i	n/a
328.63	0.1345	657260	keystroke_e	e	n/a
328.7495	0.1505	657499	keystroke_s	s	n/a
329.17	0.075	658340	keystroke_Key.enter	Key.enter	n/a
329.252	4.4955	658504	prompt	n/a	mark blend businesses entirely\n
329.9495	0.0905	659899	keystroke_m	m	n/a
330.01	0.15	660020	keystroke_a	a	n/a
330.13	0.15	660260	keystroke_r	r	n/a
330.2645	0.1055	660529	keystroke_k	k	n/a
330.3245	0.1205	660649	keystroke_Key.space	Key.space	n/a
330.46	0.21	660920	keystroke_b	b	n/a
330.5645	0.1355	661129	keystroke_l	l	n/a
330.685	0.06	661370	keystroke_e	e	n/a
330.7595	0.1355	661519	keystroke_n	n	n/a
330.8495	0.12	661699	keystroke_d	d	n/a
330.9545	0.09	661909	keystroke_Key.space	Key.space	n/a
331.1195	0.0905	662239	keystroke_b	b	n/a
331.195	0.06	662390	keystroke_u	u	n/a
331.2995	0.135	662599	keystroke_s	s	n/a
331.4045	0.075	662809	keystroke_i	i	n/a
331.5995	0.0905	663199	keystroke_n	n	n/a
331.6745	0.0905	663349	keystroke_e	e	n/a
331.84	0.0595	663680	keystroke_s	s	n/a
331.9895	0.1205	663979	keystroke_s	s	n/a
332.095	0.135	664190	keystroke_e	e	n/a
332.215	0.135	664430	keystroke_s	s	n/a
332.365	0.075	664730	keystroke_Key.space	Key.space	n/a
332.485	0.1195	664970	keystroke_e	e	n/a
332.5895	0.0905	665179	keystroke_n	n	n/a
332.68	0.1345	665360	keystroke_t	t	n/a
332.83	0.1045	665660	keystroke_i	i	n/a
333.1	0.1495	666200	keystroke_r	r	n/a
333.175	0.1355	666350	keystroke_e	e	n/a
333.295	0.165	666590	keystroke_l	l	n/a
333.43	0.1345	666860	keystroke_y	y	n/a
333.67	0.075	667340	keystroke_Key.enter	Key.enter	n/a
333.7525	6.429	667505	prompt	n/a	exception expressions legs occasion\n
334.4045	0.0905	668809	keystroke_e	e	n/a
334.5705	0.1045	669141	keystroke_x	x	n/a
334.72	0.0895	669440	keystroke_c	c	n/a
334.885	0.1795	669770	keystroke_e	e	n/a
334.93	0.1495	669860	keystroke_p	p	n/a
335.095	0.1355	670190	keystroke_t	t	n/a
335.14	0.1495	670280	keystroke_i	i	n/a
335.215	0.1045	670430	keystroke_o	o	n/a
335.26	0.12	670520	keystroke_n	n	n/a
335.365	0.1345	670730	keystroke_Key.space	Key.space	n/a
335.575	0.105	671150	keystroke_e	e	n/a
335.7545	0.1205	671509	keystroke_x	x	n/a
335.86	0.1045	671720	keystroke_p	p	n/a
335.9195	0.1355	671839	keystroke_r	r	n/a
335.98	0.09	671960	keystroke_e	e	n/a
336.146	0.0735	672292	keystroke_s	s	n/a
336.296	0.089	672592	keystroke_s	s	n/a
336.37	0.1495	672740	keystroke_i	i	n/a
336.415	0.15	672830	keystroke_o	o	n/a
336.475	0.121	672950	keystroke_n	n	n/a
336.5355	0.134	673071	keystroke_s	s	n/a
336.655	0.1195	673310	keystroke_Key.space	Key.space	n/a
336.73	0.12	673460	keystroke_l	l	n/a
336.8045	0.1205	673609	keystroke_e	e	n/a
336.97	0.1345	673940	keystroke_g	g	n/a
337.12	0.15	674240	keystroke_s	s	n/a
337.3305	0.104	674661	keystroke_Key.space	Key.space	n/a
337.6305	0.089	675261	keystroke_c	c	n/a
337.7045	0.0605	675409	keystroke_o	o	n/a
337.96	0.0445	675920	keystroke_Key.backspace	Key.backspace	n/a
338.11	0.075	676220	keystroke_Key.backspace	Key.backspace	n/a
338.275	0.09	676550	keystroke_o	o	n/a
338.35	0.1195	676700	keystroke_c	c	n/a
338.4855	0.149	676971	keystroke_a	a	n/a
338.8895	0.1065	677779	keystroke_Key.backspace	Key.backspace	n/a
338.965	0.15	677930	keystroke_c	c	n/a
339.04	0.12	678080	keystroke_a	a	n/a
339.4455	0.15	678891	keystroke_s	s	n/a
339.76	0.1645	679520	keystroke_i	i	n/a
339.8045	0.136	679609	keystroke_o	o	n/a
339.88	0.105	679760	keystroke_n	n	n/a
340.1045	0.0755	680209	keystroke_Key.enter	Key.enter	n/a
340.1845	8.263	680369	prompt	n/a	sewing doug criticism actively\n
341.32	0.045	682640	keystroke_w	w	n/a
341.6345	0.1505	683269	keystroke_Key.backspace	Key.backspace	n/a
341.71	0.1195	683420	keystroke_s	s	n/a
341.9345	0.1355	683869	keystroke_w	w	n/a
342.01	0.225	684020	keystroke_e	e	n/a
342.13	0.1655	684260	keystroke_r	r	n/a
342.2805	0.165	684561	keystroke_i	i	n/a
342.37	0.0895	684740	keystroke_n	n	n/a
342.625	0.0895	685250	keystroke_Key.backspace	Key.backspace	n/a
342.94	0.09	685880	keystroke_Key.backspace	Key.backspace	n/a
343.1045	0.1055	686209	keystroke_Key.backspace	Key.backspace	n/a
343.525	0.06	687050	keystroke_Key.backspace	Key.backspace	n/a
343.6745	0.1055	687349	keystroke_Key.backspace	Key.backspace	n/a
344.0355	0.105	688071	keystroke_e	e	n/a
344.2	0.1195	688400	keystroke_w	w	n/a
344.305	0.1955	688610	keystroke_i	i	n/a
344.3795	0.1355	688759	keystroke_n	n	n/a
344.485	0.0895	688970	keystroke_g	g	n/a
344.56	0.105	689120	keystroke_Key.space	Key.space	n/a
344.681	0.1345	689362	keystroke_d	d	n/a
344.7705	0.149	689541	keystroke_o	o	n/a
344.8595	0.1055	689719	keystroke_u	u	n/a
344.98	0.12	689960	keystroke_g	g	n/a
345.0855	0.089	690171	keystroke_Key.space	Key.space	n/a
345.296	0.119	690592	keystroke_c	c	n/a
345.46	0.15	690920	keystroke_r	r	n/a
345.6255	0.0895	691251	keystroke_i	i	n/a
346.1355	0.1045	692271	keystroke_t	t	n/a
346.2255	0.119	692451	keystroke_i	i	n/a
346.7205	0.119	693441	keystroke_c	c	n/a
346.8255	0.104	693651	keystroke_i	i	n/a
346.915	0.1045	693830	keystroke_s	s	n/a
347.035	0.12	694070	keystroke_m	m	n/a
347.14	0.135	694280	keystroke_Key.space	Key.space	n/a
347.365	0.045	694730	keystroke_a	a	n/a
347.485	0.0895	694970	keystroke_c	c	n/a
347.62	0.091	695240	keystroke_t	t	n/a
347.696	0.089	695392	keystroke_i	i	n/a
347.8	0.135	695600	keystroke_v	v	n/a
347.875	0.1495	695750	keystroke_e	e	n/a
347.9955	0.15	695991	keystroke_l	l	n/a
348.13	0.09	696260	keystroke_y	y	n/a
348.34	0.1055	696680	keystroke_Key.enter	Key.enter	n/a
348.4505	5.9215	696901	prompt	n/a	responsible animation only depth\n
349.1655	0.1495	698331	keystroke_r	r	n/a
349.24	0.15	698480	keystroke_e	e	n/a
349.4355	0.165	698871	keystroke_s	s	n/a
349.855	0.2105	699710	keystroke_p	p	n/a
349.946	0.134	699892	keystroke_o	o	n/a
350.02	0.135	700040	keystroke_n	n	n/a
350.1695	0.136	700339	keystroke_s	s	n/a
350.2905	0.255	700581	keystroke_i	i	n/a
350.6505	0.1495	701301	keystroke_b	b	n/a
350.7845	0.1055	701569	keystroke_l	l	n/a
350.8595	0.136	701719	keystroke_e	e	n/a
350.98	0.09	701960	keystroke_Key.space	Key.space	n/a
351.265	0.1495	702530	keystroke_a	a	n/a
351.371	0.1185	702742	keystroke_n	n	n/a
351.505	0.15	703010	keystroke_i	i	n/a
351.61	0.1355	703220	keystroke_m	m	n/a
351.73	0.12	703460	keystroke_a	a	n/a
351.865	0.135	703730	keystroke_t	t	n/a
351.91	0.18	703820	keystroke_i	i	n/a
351.985	0.1195	703970	keystroke_o	o	n/a
352.0455	0.1045	704091	keystroke_n	n	n/a
352.165	0.09	704330	keystroke_Key.space	Key.space	n/a
352.481	0.104	704962	keystroke_o	o	n/a
352.57	0.1345	705140	keystroke_n	n	n/a
352.72	0.18	705440	keystroke_l	l	n/a
352.9455	0.1345	705891	keystroke_Key.space	Key.space	n/a
353.29	0.15	706580	keystroke_Key.backspace	Key.backspace	n/a
353.4855	0.15	706971	keystroke_y	y	n/a
353.575	0.09	707150	keystroke_Key.space	Key.space	n/a
353.65	0.06	707300	keystroke_d	d	n/a
353.8155	0.1195	707631	keystroke_e	e	n/a
353.86	0.1205	707720	keystroke_p	p	n/a
353.9955	0.12	707991	keystroke_t	t	n/a
354.1005	0.0745	708201	keystroke_h	h	n/a
354.2955	0.075	708591	keystroke_Key.enter	Key.enter	n/a
354.375	5.862	708750	prompt	n/a	guilty choice dispatched latina\n
355.09	0.165	710180	keystroke_g	g	n/a
355.196	0.1045	710392	keystroke_u	u	n/a
355.2405	0.1645	710481	keystroke_i	i	n/a
355.3	0.1505	710600	keystroke_l	l	n/a
355.51	0.18	711020	keystroke_t	t	n/a
355.646	0.074	711292	keystroke_y	y	n/a
355.705	0.12	711410	keystroke_Key.space	Key.space	n/a
356.0505	0.0895	712101	keystroke_c	c	n/a
356.1105	0.1045	712221	keystroke_h	h	n/a
356.1705	0.1795	712341	keystroke_o	o	n/a
356.26	0.1505	712520	keystroke_i	i	n/a
356.3055	0.12	712611	keystroke_c	c	n/a
356.53	0.09	713060	keystroke_e	e	n/a
356.636	0.1195	713272	keystroke_Key.space	Key.space	n/a
356.7705	0.1345	713541	keystroke_d	d	n/a
356.9505	0.1495	713901	keystroke_i	i	n/a
357.385	0.1055	714770	keystroke_s	s	n/a
357.5505	0.15	715101	keystroke_p	p	n/a
357.715	0.1055	715430	keystroke_a	a	n/a
357.8805	0.09	715761	keystroke_t	t	n/a
358.1055	0.105	716211	keystroke_c	c	n/a
358.196	0.1185	716392	keystroke_h	h	n/a
358.2855	0.1045	716571	keystroke_e	e	n/a
358.6	0.1355	717200	keystroke_d	d	n/a
358.7205	0.1045	717441	keystroke_Key.space	Key.space	n/a
358.8405	0.0895	717681	keystroke_l	l	n/a
358.9455	0.135	717891	keystroke_a	a	n/a
359.05	0.1045	718100	keystroke_t	t	n/a
359.1255	0.15	718251	keystroke_i	i	n/a
359.1855	0.135	718371	keystroke_n	n	n/a
359.32	0.1205	718640	keystroke_a	a	n/a
360.1755	0.06	720351	keystroke_Key.enter	Key.enter	n/a
360.24	4.526	720480	prompt	n/a	entire careful solid curtis\n
360.925	0.105	721850	keystroke_e	e	n/a
361.015	0.09	722030	keystroke_n	n	n/a
361.0905	0.0745	722181	keystroke_t	t	n/a
361.1805	0.105	722361	keystroke_i	i	n/a
361.27	0.135	722540	keystroke_r	r	n/a
361.315	0.135	722630	keystroke_e	e	n/a
361.435	0.1205	722870	keystroke_Key.space	Key.space	n/a
361.675	0.075	723350	keystroke_c	c	n/a
361.7355	0.1645	723471	keystroke_a	a	n/a
361.87	0.1355	723740	keystroke_r	r	n/a
361.96	0.09	723920	keystroke_e	e	n/a
362.14	0.1195	724280	keystroke_f	f	n/a
362.2005	0.1195	724401	keystroke_u	u	n/a
362.305	0.105	724610	keystroke_l	l	n/a
362.35	0.1215	724700	keystroke_Key.space	Key.space	n/a
362.471	0.1495	724942	keystroke_s	s	n/a
362.575	0.09	725150	keystroke_o	o	n/a
362.8005	0.1495	725601	keystroke_l	l	n/a
362.8745	0.15	725749	keystroke_i	i	n/a
362.9955	0.1495	725991	keystroke_d	d	n/a
363.13	0.09	726260	keystroke_Key.space	Key.space	n/a
363.265	0.1495	726530	keystroke_c	c	n/a
363.4295	0.105	726859	keystroke_u	u	n/a
363.5195	0.1355	727039	keystroke_r	r	n/a
363.82	0.09	727640	keystroke_t	t	n/a
363.8955	0.09	727791	keystroke_i	i	n/a
364	0.12	728000	keystroke_c	c	n/a
364.45	0.09	728900	keystroke_Key.backspace	Key.backspace	n/a
364.525	0.165	729050	keystroke_s	s	n/a
364.705	0.06	729410	keystroke_Key.enter	Key.enter	n/a
364.7705	4.931	729541	prompt	n/a	corner scenario user objective\n
365.56	0.12	731120	keystroke_c	c	n/a
365.6355	0.0895	731271	keystroke_o	o	n/a
365.74	0.1355	731480	keystroke_r	r	n/a
365.9205	0.0895	731841	keystroke_n	n	n/a
365.965	0.15	731930	keystroke_e	e	n/a
366.055	0.135	732110	keystroke_r	r	n/a
366.16	0.105	732320	keystroke_Key.space	Key.space	n/a
366.2805	0.134	732561	keystroke_s	s	n/a
366.46	0.0755	732920	keystroke_c	c	n/a
366.5955	0.1045	733191	keystroke_e	e	n/a
366.6705	0.1045	733341	keystroke_n	n	n/a
366.79	0.0895	733580	keystroke_a	a	n/a
366.8505	0.1345	733701	keystroke_r	r	n/a
366.9405	0.15	733881	keystroke_i	i	n/a
367.03	0.1505	734060	keystroke_o	o	n/a
367.3	0.1505	734600	keystroke_s	s	n/a
367.7055	0.135	735411	keystroke_Key.backspace	Key.backspace	n/a
367.795	0.12	735590	keystroke_Key.space	Key.space	n/a
367.93	0.1055	735860	keystroke_u	u	n/a
368.005	0.1655	736010	keystroke_s	s	n/a
368.1405	0.135	736281	keystroke_e	e	n/a
368.185	0.135	736370	keystroke_r	r	n/a
368.305	0.06	736610	keystroke_Key.space	Key.space	n/a
368.485	0.12	736970	keystroke_o	o	n/a
368.5755	0.15	737151	keystroke_b	b	n/a
368.696	0.119	737392	keystroke_j	j	n/a
368.8	0.0755	737600	keystroke_e	e	n/a
368.9955	0.0895	737991	keystroke_c	c	n/a
369.1455	0.1045	738291	keystroke_t	t	n/a
369.265	0.12	738530	keystroke_i	i	n/a
369.37	0.105	738740	keystroke_v	v	n/a
369.4605	0.1045	738921	keystroke_e	e	n/a
369.5955	0.1045	739191	keystroke_Key.enter	Key.enter	n/a
369.7045	8.022	739409	prompt	n/a	limits tactics vulnerable springer\n
370.3905	0.1055	740781	keystroke_l	l	n/a
370.7505	0.1345	741501	keystroke_i	i	n/a
370.8705	0.135	741741	keystroke_m	m	n/a
370.96	0.135	741920	keystroke_i	i	n/a
371.02	0.15	742040	keystroke_t	t	n/a
371.1105	0.1345	742221	keystroke_s	s	n/a
371.2155	0.12	742431	keystroke_Key.space	Key.space	n/a
371.4555	0.135	742911	keystroke_t	t	n/a
371.575	0.1055	743150	keystroke_a	a	n/a
371.7555	0.1045	743511	keystroke_c	c	n/a
371.9055	0.12	743811	keystroke_t	t	n/a
372.0105	0.1195	744021	keystroke_i	i	n/a
372.175	0.15	744350	keystroke_d	d	n/a
372.745	0.1505	745490	keystroke_Key.backspace	Key.backspace	n/a
373.045	0.1505	746090	keystroke_s	s	n/a
373.2105	0.0745	746421	keystroke_Key.space	Key.space	n/a
373.9905	0.06	747981	keystroke_Key.backspace	Key.backspace	n/a
374.155	0.075	748310	keystroke_Key.backspace	Key.backspace	n/a
374.77	0.15	749540	keystroke_c	c	n/a
374.89	0.135	749780	keystroke_s	s	n/a
375.0105	0.0895	750021	keystroke_Key.space	Key.space	n/a
375.2495	0.15	750499	keystroke_v	v	n/a
375.55	0.09	751100	keystroke_u	u	n/a
375.7145	0.1055	751429	keystroke_l	l	n/a
375.955	0.1055	751910	keystroke_n	n	n/a
376.0445	0.105	752089	keystroke_e	e	n/a
376.1205	0.1045	752241	keystroke_r	r	n/a
376.21	0.0895	752420	keystroke_a	a	n/a
376.315	0.135	752630	keystroke_b	b	n/a
376.405	0.12	752810	keystroke_l	l	n/a
376.5105	0.1045	753021	keystroke_e	e	n/a
376.5995	0.1505	753199	keystroke_Key.space	Key.space	n/a
376.7955	0.119	753591	keystroke_s	s	n/a
376.8995	0.105	753799	keystroke_p	p	n/a
377.05	0.12	754100	keystroke_r	r	n/a
377.1555	0.1195	754311	keystroke_i	i	n/a
377.2305	0.1045	754461	keystroke_n	n	n/a
377.29	0.09	754580	keystroke_g	g	n/a
377.4255	0.1795	754851	keystroke_e	e	n/a
377.5295	0.1355	755059	keystroke_r	r	n/a
377.6495	0.0755	755299	keystroke_Key.enter	Key.enter	n/a
377.7295	4.5115	755459	prompt	n/a	hill hose extensions revised\n
378.5055	0.0895	757011	keystroke_h	h	n/a
378.565	0.1045	757130	keystroke_i	i	n/a
378.7905	0.0445	757581	keystroke_l	l	n/a
378.94	0.0745	757880	keystroke_l	l	n/a
378.985	0.135	757970	keystroke_Key.space	Key.space	n/a
379.18	0.0745	758360	keystroke_h	h	n/a
379.2695	0.1805	758539	keystroke_o	o	n/a
379.675	0.1645	759350	keystroke_s	s	n/a
379.765	0.1045	759530	keystroke_e	e	n/a
379.8545	0.0915	759709	keystroke_Key.space	Key.space	n/a
380.0195	0.0905	760039	keystroke_e	e	n/a
380.23	0.075	760460	keystroke_x	x	n/a
380.335	0.135	760670	keystroke_t	t	n/a
380.425	0.1205	760850	keystroke_e	e	n/a
380.5	0.09	761000	keystroke_n	n	n/a
380.635	0.135	761270	keystroke_s	s	n/a
380.7545	0.1805	761509	keystroke_i	i	n/a
380.8145	0.1655	761629	keystroke_o	o	n/a
380.9205	0.119	761841	keystroke_n	n	n/a
380.9945	0.136	761989	keystroke_s	s	n/a
381.115	0.12	762230	keystroke_Key.space	Key.space	n/a
381.2795	0.1355	762559	keystroke_r	r	n/a
381.3545	0.135	762709	keystroke_e	e	n/a
381.5655	0.135	763131	keystroke_v	v	n/a
381.6545	0.121	763309	keystroke_i	i	n/a
381.745	0.135	763490	keystroke_s	s	n/a
381.82	0.1045	763640	keystroke_e	e	n/a
382.0145	0.1355	764029	keystroke_d	d	n/a
382.135	0.1045	764270	keystroke_Key.enter	Key.enter	n/a
382.2445	6.642	764489	prompt	n/a	remedies southeast campbell nasty\n
382.9895	0.15	765979	keystroke_r	r	n/a
383.035	0.1345	766070	keystroke_e	e	n/a
383.1545	0.135	766309	keystroke_m	m	n/a
383.245	0.09	766490	keystroke_e	e	n/a
383.4545	0.107	766909	keystroke_d	d	n/a
383.545	0.12	767090	keystroke_i	i	n/a
383.68	0.135	767360	keystroke_e	e	n/a
383.8	0.15	767600	keystroke_s	s	n/a
383.9345	0.105	767869	keystroke_Key.space	Key.space	n/a
384.145	0.12	768290	keystroke_s	s	n/a
384.22	0.135	768440	keystroke_o	o	n/a
384.295	0.09	768590	keystroke_u	u	n/a
384.445	0.12	768890	keystroke_t	t	n/a
384.5345	0.105	769069	keystroke_h	h	n/a
384.655	0.15	769310	keystroke_e	e	n/a
385.03	0.1795	770060	keystroke_a	a	n/a
385.1645	0.15	770329	keystroke_s	s	n/a
385.5395	0.1205	771079	keystroke_t	t	n/a
385.6455	0.089	771291	keystroke_Key.space	Key.space	n/a
385.7795	0.151	771559	keystroke_c	c	n/a
385.93	0.135	771860	keystroke_a	a	n/a
386.0795	0.1355	772159	keystroke_m	m	n/a
386.755	0.12	773510	keystroke_p	p	n/a
387.4455	0.0895	774891	keystroke_b	b	n/a
387.58	0.135	775160	keystroke_e	e	n/a
387.7295	0.046	775459	keystroke_l	l	n/a
387.8505	0.105	775701	keystroke_l	l	n/a
387.9245	0.1055	775849	keystroke_Key.space	Key.space	n/a
388.09	0.105	776180	keystroke_n	n	n/a
388.18	0.15	776360	keystroke_a	a	n/a
388.315	0.1205	776630	keystroke_s	s	n/a
388.42	0.165	776840	keystroke_t	t	n/a
388.51	0.09	777020	keystroke_y	y	n/a
388.7945	0.0905	777589	keystroke_Key.enter	Key.enter	n/a
388.8905	5.036	777781	prompt	n/a	salvador reality resorts particles\n
389.6655	0.0445	779331	keystroke_s	s	n/a
389.92	0.0295	779840	keystroke_a	a	n/a
389.9355	0.1345	779871	keystroke_l	l	n/a
390.085	0.1205	780170	keystroke_v	v	n/a
390.161	0.1185	780322	keystroke_a	a	n/a
390.4155	0.1495	780831	keystroke_d	d	n/a
390.55	0.075	781100	keystroke_o	o	n/a
390.61	0.135	781220	keystroke_r	r	n/a
390.715	0.105	781430	keystroke_Key.space	Key.space	n/a
390.8795	0.166	781759	keystroke_r	r	n/a
390.9545	0.1355	781909	keystroke_e	e	n/a
391.03	0.1495	782060	keystroke_a	a	n/a
391.165	0.165	782330	keystroke_l	l	n/a
391.255	0.106	782510	keystroke_i	i	n/a
391.3455	0.1495	782691	keystroke_t	t	n/a
391.465	0.0745	782930	keystroke_y	y	n/a
391.5095	0.105	783019	keystroke_Key.space	Key.space	n/a
391.661	0.149	783322	keystroke_r	r	n/a
391.735	0.1205	783470	keystroke_e	e	n/a
391.84	0.1645	783680	keystroke_s	s	n/a
391.9905	0.119	783981	keystroke_o	o	n/a
392.1245	0.0905	784249	keystroke_r	r	n/a
392.335	0.135	784670	keystroke_t	t	n/a
392.44	0.1355	784880	keystroke_s	s	n/a
392.561	0.104	785122	keystroke_Key.space	Key.space	n/a
392.77	0.15	785540	keystroke_p	p	n/a
392.875	0.12	785750	keystroke_a	a	n/a
392.965	0.09	785930	keystroke_r	r	n/a
393.1305	0.119	786261	keystroke_t	t	n/a
393.2055	0.104	786411	keystroke_i	i	n/a
393.3545	0.0905	786709	keystroke_c	c	n/a
393.4595	0.105	786919	keystroke_l	l	n/a
393.52	0.15	787040	keystroke_e	e	n/a
393.595	0.157	787190	keystroke_s	s	n/a
393.82	0.105	787640	keystroke_Key.enter	Key.enter	n/a
393.9295	3.8075	787859	prompt	n/a	about ebony unable seeing\n
394.6	0.105	789200	keystroke_a	a	n/a
394.7195	0.1205	789439	keystroke_b	b	n/a
394.7795	0.1355	789559	keystroke_o	o	n/a
394.855	0.1065	789710	keystroke_u	u	n/a
394.93	0.1195	789860	keystroke_t	t	n/a
395.035	0.09	790070	keystroke_Key.space	Key.space	n/a
395.095	0.15	790190	keystroke_e	e	n/a
395.395	0.1505	790790	keystroke_b	b	n/a
395.53	0.0905	791060	keystroke_o	o	n/a
395.74	0.0745	791480	keystroke_n	n	n/a
395.89	0.1195	791780	keystroke_y	y	n/a
395.995	0.09	791990	keystroke_Key.space	Key.space	n/a
396.19	0.105	792380	keystroke_u	u	n/a
396.3855	0.1345	792771	keystroke_n	n	n/a
396.505	0.0895	793010	keystroke_a	a	n/a
396.595	0.1655	793190	keystroke_b	b	n/a
396.7	0.105	793400	keystroke_l	l	n/a
396.7755	0.104	793551	keystroke_e	e	n/a
396.85	0.1355	793700	keystroke_Key.space	Key.space	n/a
396.985	0.135	793970	keystroke_s	s	n/a
397.075	0.1045	794150	keystroke_e	e	n/a
397.255	0.1045	794510	keystroke_e	e	n/a
397.3755	0.1495	794751	keystroke_i	i	n/a
397.42	0.12	794840	keystroke_n	n	n/a
397.5115	0.149	795023	keystroke_g	g	n/a
397.645	0.09	795290	keystroke_Key.enter	Key.enter	n/a
397.74	6.956	795480	prompt	n/a	inch mozambique affiliation template\n
398.6645	0.1205	797329	keystroke_i	i	n/a
398.7095	0.1055	797419	keystroke_n	n	n/a
398.83	0.1495	797660	keystroke_c	c	n/a
398.935	0.105	797870	keystroke_h	h	n/a
399.025	0.105	798050	keystroke_Key.space	Key.space	n/a
399.2345	0.0905	798469	keystroke_m	m	n/a
399.311	0.119	798622	keystroke_o	o	n/a
399.715	0.1045	799430	keystroke_a	a	n/a
400.12	0.12	800240	keystroke_Key.backspace	Key.backspace	n/a
400.1795	0.0755	800359	keystroke_z	z	n/a
400.375	0.1195	800750	keystroke_a	a	n/a
400.4345	0.105	800869	keystroke_m	m	n/a
401.111	0.1185	802222	keystroke_b	b	n/a
401.1855	0.1195	802371	keystroke_i	i	n/a
401.425	0.105	802850	keystroke_q	q	n/a
401.5005	0.0895	803001	keystroke_u	u	n/a
401.5895	0.1355	803179	keystroke_e	e	n/a
401.695	0.12	803390	keystroke_Key.space	Key.space	n/a
401.845	0.1195	803690	keystroke_a	a	n/a
401.9495	0.0755	803899	keystroke_f	f	n/a
402.115	0.12	804230	keystroke_f	f	n/a
402.311	0.1495	804622	keystroke_i	i	n/a
402.611	0.194	805222	keystroke_l	l	n/a
402.6845	0.136	805369	keystroke_i	i	n/a
402.8205	0.1195	805641	keystroke_a	a	n/a
403.0295	0.1205	806059	keystroke_t	t	n/a
403.105	0.1345	806210	keystroke_i	i	n/a
403.15	0.15	806300	keystroke_o	o	n/a
403.255	0.0905	806510	keystroke_n	n	n/a
403.33	0.1195	806660	keystroke_Key.space	Key.space	n/a
403.555	0.165	807110	keystroke_t	t	n/a
403.645	0.1345	807290	keystroke_e	e	n/a
403.705	0.15	807410	keystroke_m	m	n/a
403.7645	0.1805	807529	keystroke_p	p	n/a
403.87	0.15	807740	keystroke_l	l	n/a
403.9745	0.1505	807949	keystroke_a	a	n/a
404.1105	0.194	808221	keystroke_t	t	n/a
404.32	0.18	808640	keystroke_e	e	n/a
404.59	0.1045	809180	keystroke_Key.enter	Key.enter	n/a
404.7015	5.0645	809403	prompt	n/a	shall beauty assign asbestos\n
405.4	0.0895	810800	keystroke_s	s	n/a
405.4745	0.075	810949	keystroke_h	h	n/a
405.5645	0.1355	811129	keystroke_a	a	n/a
405.655	0.06	811310	keystroke_l	l	n/a
405.79	0.1205	811580	keystroke_l	l	n/a
405.8645	0.1355	811729	keystroke_Key.space	Key.space	n/a
405.955	0.12	811910	keystroke_b	b	n/a
406.135	0.1195	812270	keystroke_e	e	n/a
406.24	0.135	812480	keystroke_a	a	n/a
406.39	0.09	812780	keystroke_u	u	n/a
406.585	0.135	813170	keystroke_t	t	n/a
406.69	0.0745	813380	keystroke_y	y	n/a
406.825	0.105	813650	keystroke_Key.space	Key.space	n/a
407.0645	0.1205	814129	keystroke_a	a	n/a
407.245	0.0745	814490	keystroke_s	s	n/a
407.425	0.0895	814850	keystroke_s	s	n/a
407.47	0.0905	814940	keystroke_i	i	n/a
407.59	0.135	815180	keystroke_g	g	n/a
407.6795	0.1055	815359	keystroke_n	n	n/a
407.74	0.1345	815480	keystroke_Key.space	Key.space	n/a
408.115	0.165	816230	keystroke_a	a	n/a
408.28	0.12	816560	keystroke_s	s	n/a
408.49	0.1045	816980	keystroke_b	b	n/a
408.82	0.105	817640	keystroke_e	e	n/a
409	0.1345	818000	keystroke_s	s	n/a
409.1795	0.105	818359	keystroke_t	t	n/a
409.3	0.1045	818600	keystroke_o	o	n/a
409.57	0.1495	819140	keystroke_s	s	n/a
409.7045	0.06	819409	keystroke_Key.enter	Key.enter	n/a
409.769	5.233	819538	prompt	n/a	graphs customize newsletters cricket\n
410.5145	0.0755	821029	keystroke_g	g	n/a
410.6795	0.12	821359	keystroke_r	r	n/a
410.755	0.135	821510	keystroke_a	a	n/a
410.845	0.1345	821690	keystroke_p	p	n/a
410.9345	0.1205	821869	keystroke_h	h	n/a
411.0245	0.1055	822049	keystroke_s	s	n/a
411.1455	0.104	822291	keystroke_Key.space	Key.space	n/a
411.3245	0.136	822649	keystroke_c	c	n/a
411.415	0.09	822830	keystroke_u	u	n/a
411.5195	0.121	823039	keystroke_s	s	n/a
411.625	0.12	823250	keystroke_t	t	n/a
411.7905	0.1795	823581	keystroke_o	o	n/a
411.94	0.121	823880	keystroke_m	m	n/a
412.03	0.15	824060	keystroke_i	i	n/a
412.09	0.105	824180	keystroke_z	z	n/a
412.1645	0.1205	824329	keystroke_e	e	n/a
412.3	0.09	824600	keystroke_Key.space	Key.space	n/a
412.5105	0.1045	825021	keystroke_n	n	n/a
412.555	0.1505	825110	keystroke_e	e	n/a
412.63	0.1195	825260	keystroke_w	w	n/a
412.855	0.1055	825710	keystroke_s	s	n/a
412.9605	0.1195	825921	keystroke_l	l	n/a
413.0345	0.1205	826069	keystroke_e	e	n/a
413.2	0.1045	826400	keystroke_t	t	n/a
413.3945	0.1355	826789	keystroke_t	t	n/a
413.5745	0.136	827149	keystroke_e	e	n/a
413.6945	0.1355	827389	keystroke_r	r	n/a
413.785	0.1345	827570	keystroke_s	s	n/a
413.9045	0.121	827809	keystroke_Key.space	Key.space	n/a
414.04	0.1205	828080	keystroke_c	c	n/a
414.19	0.121	828380	keystroke_r	r	n/a
414.2945	0.1055	828589	keystroke_i	i	n/a
414.445	0.105	828890	keystroke_c	c	n/a
414.535	0.15	829070	keystroke_k	k	n/a
414.64	0.135	829280	keystroke_e	e	n/a
414.73	0.1495	829460	keystroke_t	t	n/a
414.925	0.075	829850	keystroke_Key.enter	Key.enter	n/a
415.005	4.482	830010	prompt	n/a	trainers volume stretch roses\n
415.81	0.09	831620	keystroke_t	t	n/a
415.975	0.135	831950	keystroke_r	r	n/a
416.02	0.12	832040	keystroke_a	a	n/a
416.0645	0.1355	832129	keystroke_i	i	n/a
416.125	0.15	832250	keystroke_n	n	n/a
416.3495	0.1355	832699	keystroke_e	e	n/a
416.47	0.1795	832940	keystroke_r	r	n/a
416.5895	0.1505	833179	keystroke_s	s	n/a
416.6795	0.1055	833359	keystroke_Key.space	Key.space	n/a
416.8445	0.1505	833689	keystroke_v	v	n/a
416.9045	0.0755	833809	keystroke_o	o	n/a
417.085	0.1645	834170	keystroke_l	l	n/a
417.175	0.09	834350	keystroke_u	u	n/a
417.34	0.135	834680	keystroke_m	m	n/a
417.4605	0.119	834921	keystroke_e	e	n/a
417.55	0.12	835100	keystroke_Key.space	Key.space	n/a
417.6845	0.135	835369	keystroke_s	s	n/a
417.76	0.105	835520	keystroke_t	t	n/a
417.9395	0.1205	835879	keystroke_r	r	n/a
418.015	0.1195	836030	keystroke_e	e	n/a
418.225	0.1045	836450	keystroke_t	t	n/a
418.4045	0.1505	836809	keystroke_c	c	n/a
418.48	0.105	836960	keystroke_h	h	n/a
418.57	0.1345	837140	keystroke_Key.space	Key.space	n/a
418.7195	0.1205	837439	keystroke_r	r	n/a
418.8245	0.165	837649	keystroke_o	o	n/a
418.975	0.105	837950	keystroke_s	s	n/a
419.0195	0.1505	838039	keystroke_e	e	n/a
419.2	0.1045	838400	keystroke_s	s	n/a
419.41	0.075	838820	keystroke_Key.enter	Key.enter	n/a
419.49	6.341	838980	prompt	n/a	describe infections initiatives clearance\n
420.1895	0.06	840379	keystroke_d	d	n/a
420.3245	0.0905	840649	keystroke_e	e	n/a
420.4	0.1345	840800	keystroke_s	s	n/a
420.595	0.12	841190	keystroke_c	c	n/a
420.7605	0.09	841521	keystroke_r	r	n/a
420.835	0.1345	841670	keystroke_i	i	n/a
420.9545	0.09	841909	keystroke_b	b	n/a
421.0895	0.1055	842179	keystroke_e	e	n/a
421.24	0.1495	842480	keystroke_Key.space	Key.space	n/a
421.4045	0.1055	842809	keystroke_i	i	n/a
421.465	0.135	842930	keystroke_n	n	n/a
421.525	0.195	843050	keystroke_f	f	n/a
421.6295	0.1355	843259	keystroke_e	e	n/a
421.885	0.1045	843770	keystroke_c	c	n/a
422.065	0.12	844130	keystroke_t	t	n/a
422.1545	0.1805	844309	keystroke_i	i	n/a
422.2445	0.1505	844489	keystroke_o	o	n/a
422.305	0.12	844610	keystroke_n	n	n/a
422.4105	0.164	844821	keystroke_s	s	n/a
422.53	0.06	845060	keystroke_Key.space	Key.space	n/a
422.605	0.105	845210	keystroke_i	i	n/a
422.68	0.1345	845360	keystroke_n	n	n/a
422.8295	0.1055	845659	keystroke_i	i	n/a
422.95	0.105	845900	keystroke_t	t	n/a
423.025	0.135	846050	keystroke_i	i	n/a
423.1445	0.106	846289	keystroke_a	a	n/a
423.2505	0.1045	846501	keystroke_t	t	n/a
423.34	0.1345	846680	keystroke_i	i	n/a
423.6405	0.1345	847281	keystroke_v	v	n/a
423.7295	0.181	847459	keystroke_e	e	n/a
423.865	0.105	847730	keystroke_s	s	n/a
423.9545	0.0905	847909	keystroke_Key.space	Key.space	n/a
424.24	0.1045	848480	keystroke_d	d	n/a
424.525	0.075	849050	keystroke_Key.backspace	Key.backspace	n/a
424.6145	0.105	849229	keystroke_c	c	n/a
424.7345	0.0905	849469	keystroke_l	l	n/a
424.795	0.1345	849590	keystroke_e	e	n/a
424.8855	0.1195	849771	keystroke_a	a	n/a
425.065	0.135	850130	keystroke_r	r	n/a
425.2145	0.1205	850429	keystroke_a	a	n/a
425.35	0.09	850700	keystroke_n	n	n/a
425.4545	0.1055	850909	keystroke_c	c	n/a
425.62	0.1645	851240	keystroke_e	e	n/a
425.74	0.0895	851480	keystroke_Key.enter	Key.enter	n/a
425.835	6.0715	851670	prompt	n/a	control uganda waters crest\n
426.61	0.1045	853220	keystroke_c	c	n/a
426.64	0.12	853280	keystroke_o	o	n/a
426.7445	0.1055	853489	keystroke_n	n	n/a
426.805	0.09	853610	keystroke_t	t	n/a
426.94	0.135	853880	keystroke_r	r	n/a
426.985	0.0595	853970	keystroke_o	o	n/a
427.15	0.12	854300	keystroke_l	l	n/a
427.2545	0.0905	854509	keystroke_Key.space	Key.space	n/a
427.555	0.0745	855110	keystroke_u	u	n/a
427.6755	0.119	855351	keystroke_g	g	n/a
427.81	0.1505	855620	keystroke_a	a	n/a
427.945	0.06	855890	keystroke_n	n	n/a
428.11	0.1195	856220	keystroke_d	d	n/a
428.2145	0.0905	856429	keystroke_a	a	n/a
428.275	0.105	856550	keystroke_Key.space	Key.space	n/a
428.5145	0.03	857029	keystroke_e	e	n/a
428.6495	0.15	857299	keystroke_w	w	n/a
428.965	0.06	857930	keystroke_Key.backspace	Key.backspace	n/a
429.01	0.1195	858020	keystroke_a	a	n/a
429.235	0.075	858470	keystroke_Key.backspace	Key.backspace	n/a
429.3995	0.0755	858799	keystroke_Key.backspace	Key.backspace	n/a
429.505	0.1205	859010	keystroke_w	w	n/a
429.6105	0.119	859221	keystroke_a	a	n/a
429.745	0.09	859490	keystroke_s	s	n/a
429.8205	0.1345	859641	keystroke_t	t	n/a
429.97	0.135	859940	keystroke_e	e	n/a
430.09	0.105	860180	keystroke_r	r	n/a
430.1795	0.105	860359	keystroke_s	s	n/a
430.2705	0.1195	860541	keystroke_Key.space	Key.space	n/a
430.48	0.1495	860960	keystroke_c	c	n/a
430.795	0.1195	861590	keystroke_r	r	n/a
430.855	0.1045	861710	keystroke_e	e	n/a
431.2295	0.1505	862459	keystroke_s	s	n/a
431.4545	0.046	862909	keystroke_t	t	n/a
431.8295	0.0755	863659	keystroke_Key.enter	Key.enter	n/a
431.9095	6.2515	863819	prompt	n/a	campaign portions cover animated\n
432.595	0.09	865190	keystroke_c	c	n/a
432.7295	0.181	865459	keystroke_a	a	n/a
432.925	0.0445	865850	keystroke_m	m	n/a
433.3295	0.1055	866659	keystroke_p	p	n/a
433.6595	0.1355	867319	keystroke_a	a	n/a
433.81	0.105	867620	keystroke_i	i	n/a
433.9145	0.135	867829	keystroke_g	g	n/a
434.065	0.075	868130	keystroke_h	h	n/a
434.5	0.075	869000	keystroke_Key.backspace	Key.backspace	n/a
434.68	0.105	869360	keystroke_n	n	n/a
434.7695	0.12	869539	keystroke_Key.space	Key.space	n/a
434.995	0.1345	869990	keystroke_p	p	n/a
435.0995	0.121	870199	keystroke_o	o	n/a
435.205	0.0895	870410	keystroke_r	r	n/a
435.3855	0.1195	870771	keystroke_t	t	n/a
435.445	0.135	870890	keystroke_i	i	n/a
435.5195	0.1655	871039	keystroke_o	o	n/a
435.595	0.1495	871190	keystroke_n	n	n/a
435.6995	0.1355	871399	keystroke_s	s	n/a
435.79	0.09	871580	keystroke_Key.space	Key.space	n/a
435.8955	0.134	871791	keystroke_o	o	n/a
436.0445	0.015	872089	keystroke_v	v	n/a
436.255	0.0445	872510	keystroke_Key.backspace	Key.backspace	n/a
436.39	0.09	872780	keystroke_Key.backspace	Key.backspace	n/a
436.4955	0.134	872991	keystroke_c	c	n/a
436.5995	0.1055	873199	keystroke_o	o	n/a
436.6755	0.104	873351	keystroke_v	v	n/a
436.795	0.1345	873590	keystroke_e	e	n/a
436.8705	0.1195	873741	keystroke_r	r	n/a
436.93	0.105	873860	keystroke_Key.space	Key.space	n/a
437.0655	0.164	874131	keystroke_a	a	n/a
437.2145	0.0755	874429	keystroke_n	n	n/a
437.35	0.1495	874700	keystroke_i	i	n/a
437.455	0.18	874910	keystroke_m	m	n/a
437.62	0.105	875240	keystroke_a	a	n/a
437.71	0.1195	875420	keystroke_t	t	n/a
437.7995	0.1055	875599	keystroke_e	e	n/a
438.01	0.1195	876020	keystroke_d	d	n/a
438.055	0.1045	876110	keystroke_Key.enter	Key.enter	n/a
438.164	4.663	876328	prompt	n/a	highway accent bowl here\n
438.82	0.09	877640	keystroke_h	h	n/a
438.88	0.1195	877760	keystroke_i	i	n/a
438.955	0.15	877910	keystroke_g	g	n/a
439.0595	0.1055	878119	keystroke_h	h	n/a
439.15	0.12	878300	keystroke_w	w	n/a
439.255	0.1495	878510	keystroke_a	a	n/a
439.3745	0.1055	878749	keystroke_y	y	n/a
439.4805	0.0745	878961	keystroke_Key.space	Key.space	n/a
439.675	0.12	879350	keystroke_a	a	n/a
439.8105	0.104	879621	keystroke_c	c	n/a
439.96	0.09	879920	keystroke_c	c	n/a
440.1245	0.105	880249	keystroke_e	e	n/a
440.1995	0.0905	880399	keystroke_n	n	n/a
440.305	0.105	880610	keystroke_t	t	n/a
440.4245	0.075	880849	keystroke_Key.space	Key.space	n/a
440.785	0.0445	881570	keystroke_l	l	n/a
441.0845	0.0755	882169	keystroke_Key.backspace	Key.backspace	n/a
441.176	0.134	882352	keystroke_b	b	n/a
441.295	0.1045	882590	keystroke_o	o	n/a
441.3845	0.15	882769	keystroke_w	w	n/a
441.61	0.1045	883220	keystroke_l	l	n/a
441.7295	0.075	883459	keystroke_Key.space	Key.space	n/a
441.85	0.0745	883700	keystroke_i	i	n/a
442.18	0.104	884360	keystroke_Key.backspace	Key.backspace	n/a
442.36	0.1045	884720	keystroke_h	h	n/a
442.435	0.12	884870	keystroke_e	e	n/a
442.5395	0.1805	885079	keystroke_r	r	n/a
442.6445	0.1205	885289	keystroke_e	e	n/a
442.735	0.09	885470	keystroke_Key.enter	Key.enter	n/a
442.83	5.531	885660	prompt	n/a	eugene latinas harley score\n
443.6045	0.1055	887209	keystroke_e	e	n/a
443.8145	0.12	887629	keystroke_q	q	n/a
443.9345	0.0915	887869	keystroke_u	u	n/a
444.22	0.06	888440	keystroke_Key.backspace	Key.backspace	n/a
444.3845	0.075	888769	keystroke_Key.backspace	Key.backspace	n/a
444.595	0.0745	889190	keystroke_u	u	n/a
444.82	0.225	889640	keystroke_g	g	n/a
445.0295	0.031	890059	keystroke_e	e	n/a
445.0745	0.0905	890149	keystroke_n	n	n/a
445.12	0.12	890240	keystroke_e	e	n/a
445.2845	0.0755	890569	keystroke_Key.space	Key.space	n/a
445.405	0.1345	890810	keystroke_l	l	n/a
445.555	0.09	891110	keystroke_a	a	n/a
445.7945	0.105	891589	keystroke_t	t	n/a
446.035	0.1795	892070	keystroke_i	i	n/a
446.14	0.1355	892280	keystroke_n	n	n/a
446.26	0.1195	892520	keystroke_a	a	n/a
446.455	0.1345	892910	keystroke_s	s	n/a
446.56	0.09	893120	keystroke_Key.space	Key.space	n/a
447.01	0.12	894020	keystroke_h	h	n/a
447.055	0.1345	894110	keystroke_a	a	n/a
447.145	0.1345	894290	keystroke_r	r	n/a
447.295	0.1045	894590	keystroke_l	l	n/a
447.4145	0.15	894829	keystroke_e	e	n/a
447.4745	0.105	894949	keystroke_y	y	n/a
447.5795	0.075	895159	keystroke_Key.space	Key.space	n/a
447.6695	0.106	895339	keystroke_s	s	n/a
447.85	0.1045	895700	keystroke_c	c	n/a
447.94	0.1045	895880	keystroke_o	o	n/a
448.06	0.15	896120	keystroke_r	r	n/a
448.15	0.1345	896300	keystroke_e	e	n/a
448.2995	0.0605	896599	keystroke_Key.enter	Key.enter	n/a
448.3645	4.8725	896729	prompt	n/a	hygiene forums negotiations paper\n
449.1845	0.06	898369	keystroke_h	h	n/a
449.38	0.0895	898760	keystroke_y	y	n/a
449.5445	0.1505	899089	keystroke_g	g	n/a
449.6505	0.104	899301	keystroke_i	i	n/a
449.7545	0.121	899509	keystroke_e	e	n/a
449.92	0.1055	899840	keystroke_n	n	n/a
450.0255	0.149	900051	keystroke_e	e	n/a
450.1595	0.1055	900319	keystroke_Key.space	Key.space	n/a
450.25	0.09	900500	keystroke_f	f	n/a
450.3545	0.09	900709	keystroke_o	o	n/a
450.6695	0.1955	901339	keystroke_r	r	n/a
450.85	0.0295	901700	keystroke_u	u	n/a
450.9845	0.1205	901969	keystroke_m	m	n/a
451.09	0.1345	902180	keystroke_s	s	n/a
451.18	0.0595	902360	keystroke_Key.space	Key.space	n/a
451.315	0.105	902630	keystroke_n	n	n/a
451.39	0.1045	902780	keystroke_e	e	n/a
451.5395	0.1505	903079	keystroke_g	g	n/a
451.69	0.1645	903380	keystroke_o	o	n/a
451.9	0.1045	903800	keystroke_t	t	n/a
451.99	0.1045	903980	keystroke_i	i	n/a
452.08	0.1195	904160	keystroke_a	a	n/a
452.1695	0.1355	904339	keystroke_t	t	n/a
452.2455	0.1495	904491	keystroke_i	i	n/a
452.32	0.1195	904640	keystroke_o	o	n/a
452.38	0.1045	904760	keystroke_n	n	n/a
452.4545	0.1055	904909	keystroke_s	s	n/a
452.56	0.075	905120	keystroke_Key.space	Key.space	n/a
452.62	0.1345	905240	keystroke_p	p	n/a
452.7395	0.121	905479	keystroke_a	a	n/a
452.845	0.12	905690	keystroke_p	p	n/a
452.935	0.18	905870	keystroke_e	e	n/a
453.026	0.1495	906052	keystroke_r	r	n/a
453.13	0.105	906260	keystroke_Key.enter	Key.enter	n/a
453.2395	7.5565	906479	prompt	n/a	server consider instant reprints\n
453.9245	0.1355	907849	keystroke_s	s	n/a
454.0145	0.0905	908029	keystroke_e	e	n/a
454.12	0.1195	908240	keystroke_v	v	n/a
454.2545	0.1505	908509	keystroke_e	e	n/a
454.33	0.1355	908660	keystroke_r	r	n/a
454.466	0.0885	908932	keystroke_Key.space	Key.space	n/a
454.5995	0.1205	909199	keystroke_c	c	n/a
454.6595	0.1205	909319	keystroke_o	o	n/a
454.735	0.1045	909470	keystroke_n	n	n/a
454.8245	0.1205	909649	keystroke_s	s	n/a
454.96	0.09	909920	keystroke_i	i	n/a
454.9765	0.1035	909953	keystroke_d	d	n/a
455.1545	0.18	910309	keystroke_e	e	n/a
455.38	0.0445	910760	keystroke_r	r	n/a
455.41	0.0745	910820	keystroke_Key.backspace	Key.backspace	n/a
455.56	0.0745	911120	keystroke_Key.backspace	Key.backspace	n/a
455.7395	0.0455	911479	keystroke_Key.backspace	Key.backspace	n/a
455.89	0.0445	911780	keystroke_Key.backspace	Key.backspace	n/a
456.0395	0.0455	912079	keystroke_Key.backspace	Key.backspace	n/a
456.19	0.045	912380	keystroke_Key.backspace	Key.backspace	n/a
456.3395	0.0605	912679	keystroke_Key.backspace	Key.backspace	n/a
456.49	0.0745	912980	keystroke_Key.backspace	Key.backspace	n/a
456.6395	0.0755	913279	keystroke_Key.backspace	Key.backspace	n/a
456.82	0.06	913640	keystroke_Key.backspace	Key.backspace	n/a
456.9695	0.0905	913939	keystroke_Key.backspace	Key.backspace	n/a
457.15	0.0895	914300	keystroke_Key.backspace	Key.backspace	n/a
457.3755	0.134	914751	keystroke_r	r	n/a
457.585	0.135	915170	keystroke_v	v	n/a
457.735	0.1195	915470	keystroke_e	e	n/a
457.8095	0.1355	915619	keystroke_r	r	n/a
457.96	0.06	915920	keystroke_Key.space	Key.space	n/a
458.1095	0.09	916219	keystroke_c	c	n/a
458.17	0.1055	916340	keystroke_o	o	n/a
458.23	0.12	916460	keystroke_n	n	n/a
458.32	0.1345	916640	keystroke_s	s	n/a
458.4545	0.0905	916909	keystroke_i	i	n/a
458.515	0.09	917030	keystroke_d	d	n/a
458.68	0.15	917360	keystroke_e	e	n/a
458.7545	0.1505	917509	keystroke_r	r	n/a
458.8305	0.1345	917661	keystroke_Key.space	Key.space	n/a
458.95	0.135	917900	keystroke_i	i	n/a
459.0395	0.105	918079	keystroke_n	n	n/a
459.0995	0.0765	918199	keystroke_s	s	n/a
459.1605	0.1195	918321	keystroke_t	t	n/a
459.25	0.15	918500	keystroke_a	a	n/a
459.3255	0.1195	918651	keystroke_n	n	n/a
459.43	0.1495	918860	keystroke_t	t	n/a
459.5645	0.075	919129	keystroke_Key.space	Key.space	n/a
459.805	0.165	919610	keystroke_r	r	n/a
459.9095	0.1355	919819	keystroke_e	e	n/a
460	0.12	920000	keystroke_p	p	n/a
460.135	0.1345	920270	keystroke_r	r	n/a
460.2395	0.135	920479	keystroke_i	i	n/a
460.3	0.165	920600	keystroke_n	n	n/a
460.3895	0.15	920779	keystroke_t	t	n/a
460.585	0.12	921170	keystroke_s	s	n/a
460.72	0.0745	921440	keystroke_Key.enter	Key.enter	n/a
460.7995	6.747	921599	prompt	n/a	attractive baking consultation resumes\n
461.4845	0.1055	922969	keystroke_a	a	n/a
461.5755	0.074	923151	keystroke_t	t	n/a
461.7545	0.0455	923509	keystroke_t	t	n/a
461.9045	0.105	923809	keystroke_r	r	n/a
461.9645	0.09	923929	keystroke_a	a	n/a
462.115	0.105	924230	keystroke_c	c	n/a
462.265	0.105	924530	keystroke_t	t	n/a
462.385	0.12	924770	keystroke_i	i	n/a
462.4595	0.135	924919	keystroke_v	v	n/a
462.55	0.15	925100	keystroke_e	e	n/a
462.715	0.0895	925430	keystroke_Key.space	Key.space	n/a
462.82	0.165	925640	keystroke_b	b	n/a
462.9695	0.1205	925939	keystroke_a	a	n/a
463.33	0.06	926660	keystroke_k	k	n/a
463.5095	0.135	927019	keystroke_i	i	n/a
463.5395	0.1205	927079	keystroke_n	n	n/a
463.615	0.135	927230	keystroke_g	g	n/a
463.7345	0.06	927469	keystroke_Key.space	Key.space	n/a
463.87	0.12	927740	keystroke_c	c	n/a
463.9145	0.1355	927829	keystroke_o	o	n/a
463.9905	0.119	927981	keystroke_n	n	n/a
464.2445	0.165	928489	keystroke_s	s	n/a
464.3945	0.075	928789	keystroke_u	u	n/a
464.515	0.1195	929030	keystroke_l	l	n/a
464.9795	0.105	929959	keystroke_t	t	n/a
465.1	0.1195	930200	keystroke_a	a	n/a
465.205	0.1345	930410	keystroke_t	t	n/a
465.25	0.135	930500	keystroke_i	i	n/a
465.2945	0.1205	930589	keystroke_o	o	n/a
465.3545	0.121	930709	keystroke_n	n	n/a
465.43	0.1195	930860	keystroke_Key.space	Key.space	n/a
465.52	0.165	931040	keystroke_r	r	n/a
465.6095	0.0905	931219	keystroke_e	e	n/a
465.67	0.165	931340	keystroke_s	s	n/a
465.82	0.0595	931640	keystroke_u	u	n/a
465.985	0.1195	931970	keystroke_m	m	n/a
466.06	0.1495	932120	keystroke_e	e	n/a
466.165	0.105	932330	keystroke_s	s	n/a
466.87	0.0745	933740	keystroke_\	\	n/a
467.4545	0.0905	934909	keystroke_Key.enter	Key.enter	n/a
467.55	5.831	935100	prompt	n/a	bibliography test attempted myself\n
468.25	0.15	936500	keystroke_b	b	n/a
468.3395	0.0755	936679	keystroke_i	i	n/a
468.49	0.1495	936980	keystroke_b	b	n/a
468.835	0.12	937670	keystroke_l	l	n/a
468.9095	0.1205	937819	keystroke_i	i	n/a
469.3145	0.0905	938629	keystroke_o	o	n/a
469.5395	0.1355	939079	keystroke_g	g	n/a
469.7795	0.1205	939559	keystroke_r	r	n/a
469.855	0.12	939710	keystroke_a	a	n/a
470.0945	0.1655	940189	keystroke_p	p	n/a
470.185	0.09	940370	keystroke_h	h	n/a
470.3795	0.0605	940759	keystroke_y	y	n/a
470.425	0.12	940850	keystroke_Key.space	Key.space	n/a
470.5	0.12	941000	keystroke_t	t	n/a
470.56	0.21	941120	keystroke_e	e	n/a
470.665	0.12	941330	keystroke_s	s	n/a
470.755	0.15	941510	keystroke_t	t	n/a
470.875	0.1195	941750	keystroke_Key.space	Key.space	n/a
471.0995	0.12	942199	keystroke_a	a	n/a
471.2345	0.045	942469	keystroke_t	t	n/a
471.37	0.15	942740	keystroke_t	t	n/a
471.505	0.0745	943010	keystroke_e	e	n/a
471.5645	0.1055	943129	keystroke_m	m	n/a
471.625	0.18	943250	keystroke_p	p	n/a
471.82	0.18	943640	keystroke_t	t	n/a
471.8945	0.1205	943789	keystroke_e	e	n/a
472.12	0.105	944240	keystroke_d	d	n/a
472.24	0.105	944480	keystroke_Key.space	Key.space	n/a
472.6305	0.0895	945261	keystroke_m	m	n/a
472.825	0.09	945650	keystroke_y	y	n/a
472.9005	0.134	945801	keystroke_s	s	n/a
472.96	0.1345	945920	keystroke_e	e	n/a
473.0795	0.0905	946159	keystroke_l	l	n/a
473.17	0.135	946340	keystroke_f	f	n/a
473.29	0.0895	946580	keystroke_Key.enter	Key.enter	n/a
473.386	5.2755	946772	prompt	n/a	marie recorded aruba contract\n
474.07	0.12	948140	keystroke_m	m	n/a
474.1595	0.105	948319	keystroke_a	a	n/a
474.25	0.12	948500	keystroke_r	r	n/a
474.385	0.105	948770	keystroke_i	i	n/a
474.46	0.1195	948920	keystroke_e	e	n/a
474.64	0.105	949280	keystroke_Key.space	Key.space	n/a
475.0445	0.0905	950089	keystroke_d	d	n/a
475.33	0.09	950660	keystroke_Key.backspace	Key.backspace	n/a
475.4645	0.165	950929	keystroke_r	r	n/a
475.585	0.1645	951170	keystroke_e	e	n/a
475.7945	0.1205	951589	keystroke_c	c	n/a
475.87	0.105	951740	keystroke_o	o	n/a
475.96	0.1195	951920	keystroke_r	r	n/a
476.126	0.089	952252	keystroke_d	d	n/a
476.29	0.0745	952580	keystroke_e	e	n/a
476.47	0.12	952940	keystroke_d	d	n/a
476.605	0.1045	953210	keystroke_Key.space	Key.space	n/a
476.725	0.135	953450	keystroke_a	a	n/a
476.845	0.09	953690	keystroke_r	r	n/a
476.9795	0.0605	953959	keystroke_u	u	n/a
477.115	0.1355	954230	keystroke_b	b	n/a
477.25	0.1205	954500	keystroke_a	a	n/a
477.3705	0.0745	954741	keystroke_Key.space	Key.space	n/a
477.6395	0.15	955279	keystroke_c	c	n/a
477.7	0.105	955400	keystroke_o	o	n/a
477.775	0.1045	955550	keystroke_n	n	n/a
477.8645	0.0605	955729	keystroke_t	t	n/a
478.03	0.09	956060	keystroke_r	r	n/a
478.105	0.09	956210	keystroke_a	a	n/a
478.2395	0.1355	956479	keystroke_c	c	n/a
478.4495	0.1205	956899	keystroke_t	t	n/a
478.585	0.075	957170	keystroke_Key.enter	Key.enter	n/a
478.6645	6.7015	957329	prompt	n/a	delete kinda michelle filtering\n
479.3645	0.1055	958729	keystroke_d	d	n/a
479.53	0.18	959060	keystroke_e	e	n/a
479.575	0.1645	959150	keystroke_l	l	n/a
479.725	0.165	959450	keystroke_t	t	n/a
479.785	0.1645	959570	keystroke_e	e	n/a
479.9345	0.1205	959869	keystroke_Key.space	Key.space	n/a
480.01	0.105	960020	keystroke_k	k	n/a
480.205	0.105	960410	keystroke_i	i	n/a
480.49	0.0595	960980	keystroke_Key.backspace	Key.backspace	n/a
480.6255	0.0745	961251	keystroke_Key.backspace	Key.backspace	n/a
480.7895	0.06	961579	keystroke_Key.backspace	Key.backspace	n/a
480.9545	0.06	961909	keystroke_Key.backspace	Key.backspace	n/a
481.225	0.105	962450	keystroke_Key.backspace	Key.backspace	n/a
481.4345	0.15	962869	keystroke_e	e	n/a
481.99	0.15	963980	keystroke_t	t	n/a
482.0795	0.1355	964159	keystroke_e	e	n/a
482.23	0.1795	964460	keystroke_Key.space	Key.space	n/a
482.425	0.015	964850	keystroke_k	k	n/a
482.545	0.1345	965090	keystroke_i	i	n/a
482.5895	0.12	965179	keystroke_n	n	n/a
482.635	0.15	965270	keystroke_d	d	n/a
482.77	0.135	965540	keystroke_a	a	n/a
482.815	0.1195	965630	keystroke_Key.space	Key.space	n/a
483.0995	0.0905	966199	keystroke_m	m	n/a
483.175	0.105	966350	keystroke_i	i	n/a
483.2945	0.1205	966589	keystroke_c	c	n/a
483.4	0.09	966800	keystroke_h	h	n/a
483.505	0.12	967010	keystroke_e	e	n/a
483.61	0.03	967220	keystroke_l	l	n/a
483.805	0.0445	967610	keystroke_l	l	n/a
483.8345	0.1055	967669	keystroke_e	e	n/a
483.8945	0.12	967789	keystroke_Key.space	Key.space	n/a
484.21	0.12	968420	keystroke_f	f	n/a
484.315	0.1195	968630	keystroke_i	i	n/a
484.4645	0.1055	968929	keystroke_l	l	n/a
484.525	0.12	969050	keystroke_t	t	n/a
484.69	0.12	969380	keystroke_e	e	n/a
484.7345	0.1505	969469	keystroke_r	r	n/a
484.9	0.1345	969800	keystroke_i	i	n/a
484.945	0.135	969890	keystroke_n	n	n/a
485.0345	0.12	970069	keystroke_g	g	n/a
485.26	0.1045	970520	keystroke_Key.enter	Key.enter	n/a
485.3695	5.5615	970739	prompt	n/a	imagination efficiency pepper proxy\n
486.1895	0.1055	972379	keystroke_i	i	n/a
486.2495	0.135	972499	keystroke_m	m	n/a
486.37	0.105	972740	keystroke_a	a	n/a
486.46	0.165	972920	keystroke_g	g	n/a
486.5645	0.0755	973129	keystroke_i	i	n/a
486.6095	0.105	973219	keystroke_n	n	n/a
486.73	0.1045	973460	keystroke_a	a	n/a
486.8195	0.135	973639	keystroke_t	t	n/a
486.91	0.15	973820	keystroke_i	i	n/a
486.97	0.1345	973940	keystroke_o	o	n/a
487.0155	0.119	974031	keystroke_n	n	n/a
487.1195	0.1055	974239	keystroke_Key.space	Key.space	n/a
487.24	0.1045	974480	keystroke_e	e	n/a
487.375	0.0745	974750	keystroke_f	f	n/a
487.5545	0.075	975109	keystroke_f	f	n/a
487.645	0.0745	975290	keystroke_i	i	n/a
487.7345	0.1205	975469	keystroke_c	c	n/a
487.8395	0.0605	975679	keystroke_i	i	n/a
487.975	0.089	975950	keystroke_e	e	n/a
488.0495	0.0905	976099	keystroke_n	n	n/a
488.2445	0.1355	976489	keystroke_c	c	n/a
488.3345	0.09	976669	keystroke_y	y	n/a
488.41	0.0595	976820	keystroke_Key.space	Key.space	n/a
488.5595	0.075	977119	keystroke_p	p	n/a
488.6645	0.1655	977329	keystroke_a	a	n/a
488.7695	0.075	977539	keystroke_p	p	n/a
489.04	0.0445	978080	keystroke_Key.backspace	Key.backspace	n/a
489.175	0.075	978350	keystroke_Key.backspace	Key.backspace	n/a
489.295	0.12	978590	keystroke_e	e	n/a
489.4445	0.0595	978889	keystroke_p	p	n/a
489.595	0.0895	979190	keystroke_p	p	n/a
489.6415	0.208	979283	keystroke_e	e	n/a
489.7295	0.135	979459	keystroke_r	r	n/a
489.8345	0.075	979669	keystroke_Key.space	Key.space	n/a
489.955	0.12	979910	keystroke_p	p	n/a
490.06	0.135	980120	keystroke_r	r	n/a
490.165	0.1045	980330	keystroke_o	o	n/a
490.585	0.1195	981170	keystroke_x	x	n/a
490.645	0.1045	981290	keystroke_y	y	n/a
490.855	0.0745	981710	keystroke_Key.enter	Key.enter	n/a
490.935	6.8215	981870	prompt	n/a	precipitation parties sofa focused\n
491.7545	0.0905	983509	keystroke_p	p	n/a
491.77	0.1345	983540	keystroke_r	r	n/a
491.83	0.1045	983660	keystroke_e	e	n/a
491.98	0.15	983960	keystroke_s	s	n/a
492.1895	0.1205	984379	keystroke_c	c	n/a
492.88	0.075	985760	keystroke_Key.backspace	Key.backspace	n/a
493.045	0.0895	986090	keystroke_Key.backspace	Key.backspace	n/a
493.1645	0.1655	986329	keystroke_c	c	n/a
493.315	0.06	986630	keystroke_i	i	n/a
493.5395	0.1055	987079	keystroke_p	p	n/a
493.7495	0.1205	987499	keystroke_i	i	n/a
493.8995	0.135	987799	keystroke_t	t	n/a
494.0195	0.1355	988039	keystroke_a	a	n/a
494.1395	0.1205	988279	keystroke_t	t	n/a
494.2	0.1195	988400	keystroke_i	i	n/a
494.2445	0.1205	988489	keystroke_o	o	n/a
494.3045	0.121	988609	keystroke_n	n	n/a
494.41	0.105	988820	keystroke_Key.space	Key.space	n/a
494.53	0.1195	989060	keystroke_p	p	n/a
494.755	0.1495	989510	keystroke_a	a	n/a
494.8595	0.09	989719	keystroke_r	r	n/a
495.025	0.12	990050	keystroke_t	t	n/a
495.0995	0.105	990199	keystroke_i	i	n/a
495.175	0.135	990350	keystroke_e	e	n/a
495.28	0.15	990560	keystroke_s	s	n/a
495.37	0.0895	990740	keystroke_Key.space	Key.space	n/a
495.595	0.165	991190	keystroke_s	s	n/a
495.7	0.1195	991400	keystroke_o	o	n/a
495.8045	0.1355	991609	keystroke_f	f	n/a
495.8945	0.1505	991789	keystroke_a	a	n/a
496.1495	0.1205	992299	keystroke_Key.space	Key.space	n/a
496.8095	0.165	993619	keystroke_f	f	n/a
496.96	0.0895	993920	keystroke_o	o	n/a
497.0645	0.12	994129	keystroke_c	c	n/a
497.1845	0.0755	994369	keystroke_u	u	n/a
497.275	0.15	994550	keystroke_s	s	n/a
497.35	0.105	994700	keystroke_e	e	n/a
497.5595	0.1355	995119	keystroke_d	d	n/a
497.665	0.09	995330	keystroke_Key.enter	Key.enter	n/a
497.7595	5.967	995519	prompt	n/a	macedonia tattoo dramatically knew\n
498.476	0.0735	996952	keystroke_m	m	n/a
498.5345	0.12	997069	keystroke_a	a	n/a
498.7	0.1045	997400	keystroke_c	c	n/a
498.88	0.075	997760	keystroke_e	e	n/a
499.135	0.135	998270	keystroke_d	d	n/a
499.225	0.09	998450	keystroke_o	o	n/a
499.36	0.12	998720	keystroke_n	n	n/a
499.465	0.12	998930	keystroke_i	i	n/a
499.54	0.1645	999080	keystroke_a	a	n/a
499.7195	0.1055	999439	keystroke_Key.space	Key.space	n/a
499.87	0.1045	999740	keystroke_t	t	n/a
499.9895	0.1355	999979	keystroke_a	a	n/a
500.141	0.074	1000282	keystroke_t	t	n/a
500.2895	0.1055	1000579	keystroke_t	t	n/a
500.455	0.075	1000910	keystroke_o	o	n/a
500.62	0.09	1001240	keystroke_o	o	n/a
500.9045	0.015	1001809	keystroke_Key.space	Key.space	n/a
500.9945	0.1355	1001989	keystroke_d	d	n/a
501.1745	0.1205	1002349	keystroke_r	r	n/a
501.28	0.0895	1002560	keystroke_a	a	n/a
501.355	0.1045	1002710	keystroke_m	m	n/a
501.5045	0.1055	1003009	keystroke_a	a	n/a
501.655	0.1045	1003310	keystroke_t	t	n/a
501.715	0.0895	1003430	keystroke_i	i	n/a
501.8495	0.1205	1003699	keystroke_c	c	n/a
501.9255	0.1195	1003851	keystroke_a	a	n/a
502	0.045	1004000	keystroke_l	l	n/a
502.15	0.15	1004300	keystroke_l	l	n/a
502.255	0.0895	1004510	keystroke_y	y	n/a
502.495	0.2095	1004990	keystroke_k	k	n/a
502.8695	0.12	1005739	keystroke_Key.backspace	Key.backspace	n/a
502.9895	0.0905	1005979	keystroke_Key.space	Key.space	n/a
503.1405	0.0895	1006281	keystroke_k	k	n/a
503.2	0.135	1006400	keystroke_n	n	n/a
503.3195	0.1955	1006639	keystroke_e	e	n/a
503.425	0.1645	1006850	keystroke_w	w	n/a
503.635	0.09	1007270	keystroke_Key.enter	Key.enter	n/a
503.7295	4.182	1007459	prompt	n/a	cards loud spotlight stating\n
504.4445	0.1655	1008889	keystroke_c	c	n/a
504.595	0.075	1009190	keystroke_a	a	n/a
504.655	0.1195	1009310	keystroke_r	r	n/a
504.805	0.165	1009610	keystroke_d	d	n/a
504.8945	0.135	1009789	keystroke_s	s	n/a
505.015	0.0595	1010030	keystroke_Key.space	Key.space	n/a
505.1345	0.0905	1010269	keystroke_l	l	n/a
505.3595	0.1205	1010719	keystroke_o	o	n/a
505.465	0.12	1010930	keystroke_u	u	n/a
505.6	0.1045	1011200	keystroke_d	d	n/a
505.6895	0.0605	1011379	keystroke_Key.space	Key.space	n/a
505.885	0.18	1011770	keystroke_s	s	n/a
505.9895	0.165	1011979	keystroke_p	p	n/a
506.08	0.12	1012160	keystroke_o	o	n/a
506.2445	0.105	1012489	keystroke_t	t	n/a
506.47	0.165	1012940	keystroke_l	l	n/a
506.5595	0.1055	1013119	keystroke_i	i	n/a
506.65	0.1345	1013300	keystroke_g	g	n/a
506.77	0.1045	1013540	keystroke_h	h	n/a
506.8595	0.1205	1013719	keystroke_t	t	n/a
506.934	0.091	1013868	keystroke_Key.space	Key.space	n/a
507.0995	0.1205	1014199	keystroke_s	s	n/a
507.1905	0.104	1014381	keystroke_t	t	n/a
507.3105	0.0895	1014621	keystroke_a	a	n/a
507.385	0.1195	1014770	keystroke_t	t	n/a
507.52	0.105	1015040	keystroke_i	i	n/a
507.55	0.135	1015100	keystroke_n	n	n/a
507.641	0.1335	1015282	keystroke_g	g	n/a
507.8345	0.0755	1015669	keystroke_Key.enter	Key.enter	n/a
507.9145	6.882	1015829	prompt	n/a	outlined extremely negotiation adjustment\n
508.6895	0.1355	1017379	keystroke_o	o	n/a
508.78	0.0895	1017560	keystroke_u	u	n/a
508.8545	0.12	1017709	keystroke_t	t	n/a
508.9895	0.151	1017979	keystroke_l	l	n/a
509.05	0.1795	1018100	keystroke_i	i	n/a
509.1245	0.1195	1018249	keystroke_n	n	n/a
509.185	0.1195	1018370	keystroke_e	e	n/a
509.2895	0.151	1018579	keystroke_s	s	n/a
509.4245	0.105	1018849	keystroke_Key.space	Key.space	n/a
509.5595	0.105	1019119	keystroke_e	e	n/a
509.9495	0.075	1019899	keystroke_Key.backspace	Key.backspace	n/a
510.1295	0.03	1020259	keystroke_Key.backspace	Key.backspace	n/a
510.265	0.0895	1020530	keystroke_Key.backspace	Key.backspace	n/a
510.3405	0.104	1020681	keystroke_d	d	n/a
510.4295	0.09	1020859	keystroke_Key.space	Key.space	n/a
510.565	0.105	1021130	keystroke_e	e	n/a
510.7895	0.0755	1021579	keystroke_x	x	n/a
510.925	0.1045	1021850	keystroke_t	t	n/a
511.1195	0.1215	1022239	keystroke_r	r	n/a
511.195	0.09	1022390	keystroke_e	e	n/a
511.2995	0.1355	1022599	keystroke_m	m	n/a
511.375	0.1195	1022750	keystroke_e	e	n/a
511.57	0.165	1023140	keystroke_l	l	n/a
511.72	0.15	1023440	keystroke_y	y	n/a
511.8095	0.105	1023619	keystroke_Key.space	Key.space	n/a
512.02	0.105	1024040	keystroke_n	n	n/a
512.08	0.12	1024160	keystroke_e	e	n/a
512.2445	0.1205	1024489	keystroke_g	g	n/a
512.32	0.0895	1024640	keystroke_o	o	n/a
512.4845	0.136	1024969	keystroke_t	t	n/a
512.5745	0.105	1025149	keystroke_i	i	n/a
512.695	0.0745	1025390	keystroke_a	a	n/a
512.7405	0.1345	1025481	keystroke_t	t	n/a
512.8145	0.1355	1025629	keystroke_i	i	n/a
512.8595	0.1355	1025719	keystroke_o	o	n/a
512.965	0.09	1025930	keystroke_n	n	n/a
513.01	0.1195	1026020	keystroke_Key.space	Key.space	n/a
513.205	0.0745	1026410	keystroke_a	a	n/a
513.3395	0.1205	1026679	keystroke_d	d	n/a
513.4445	0.047	1026889	keystroke_j	j	n/a
513.5945	0.0755	1027189	keystroke_u	u	n/a
513.6405	0.1345	1027281	keystroke_s	s	n/a
513.7145	0.1505	1027429	keystroke_t	t	n/a
513.88	0.0745	1027760	keystroke_m	m	n/a
513.9995	0.1205	1027999	keystroke_e	e	n/a
514.0445	0.1055	1028089	keystroke_n	n	n/a
514.2545	0.1505	1028509	keystroke_t	t	n/a
514.72	0.075	1029440	keystroke_Key.enter	Key.enter	n/a
514.8	9.0415	1029600	prompt	n/a	jews factory manufacturing riverside\n
515.425	0.1195	1030850	keystroke_j	j	n/a
515.4995	0.1655	1030999	keystroke_e	e	n/a
515.65	0.135	1031300	keystroke_w	w	n/a
515.891	0.104	1031782	keystroke_s	s	n/a
516.0405	0.104	1032081	keystroke_Key.space	Key.space	n/a
516.1905	0.119	1032381	keystroke_f	f	n/a
516.295	0.06	1032590	keystroke_a	a	n/a
516.4295	0.06	1032859	keystroke_c	c	n/a
516.625	0.0155	1033250	keystroke_t	t	n/a
516.6405	0.089	1033281	keystroke_o	o	n/a
516.7145	0.1355	1033429	keystroke_r	r	n/a
516.835	0.075	1033670	keystroke_y	y	n/a
516.865	0.09	1033730	keystroke_Key.space	Key.space	n/a
517.0445	0.0605	1034089	keystroke_m	m	n/a
517.18	0.1645	1034360	keystroke_a	a	n/a
517.3295	0.0305	1034659	keystroke_n	n	n/a
517.465	0.105	1034930	keystroke_u	u	n/a
517.5995	0.1505	1035199	keystroke_f	f	n/a
517.735	0.15	1035470	keystroke_a	a	n/a
518.005	0.165	1036010	keystroke_c	c	n/a
518.1995	0.1055	1036399	keystroke_t	t	n/a
518.291	0.089	1036582	keystroke_o	o	n/a
518.395	0.1345	1036790	keystroke_r	r	n/a
518.7405	0.089	1037481	keystroke_Key.backspace	Key.backspace	n/a
519.235	0.09	1038470	keystroke_Key.backspace	Key.backspace	n/a
519.4295	0.0755	1038859	keystroke_u	u	n/a
519.655	0.165	1039310	keystroke_i	i	n/a
519.7145	0.1355	1039429	keystroke_n	n	n/a
519.805	0.1205	1039610	keystroke_g	g	n/a
519.9095	0.105	1039819	keystroke_Key.space	Key.space	n/a
520.105	0.105	1040210	keystroke_r	r	n/a
520.255	0.1355	1040510	keystroke_i	i	n/a
520.57	0.0595	1041140	keystroke_Key.backspace	Key.backspace	n/a
520.72	0.06	1041440	keystroke_Key.backspace	Key.backspace	n/a
520.9145	0.015	1041829	keystroke_Key.backspace	Key.backspace	n/a
521.0345	0.0605	1042069	keystroke_Key.backspace	Key.backspace	n/a
521.1995	0.0755	1042399	keystroke_Key.backspace	Key.backspace	n/a
522.0245	0.0455	1044049	keystroke_Key.backspace	Key.backspace	n/a
522.0845	0.15	1044169	keystroke_r	r	n/a
522.19	0.15	1044380	keystroke_i	i	n/a
522.28	0.1195	1044560	keystroke_n	n	n/a
522.355	0.105	1044710	keystroke_g	g	n/a
522.445	0.105	1044890	keystroke_Key.space	Key.space	n/a
522.6405	0.1345	1045281	keystroke_r	r	n/a
522.7295	0.1205	1045459	keystroke_i	i	n/a
522.8645	0.0905	1045729	keystroke_v	v	n/a
522.955	0.15	1045910	keystroke_e	e	n/a
523.06	0.135	1046120	keystroke_r	r	n/a
523.3455	0.1045	1046691	keystroke_s	s	n/a
523.42	0.1355	1046840	keystroke_i	i	n/a
523.5405	0.074	1047081	keystroke_d	d	n/a
523.69	0.105	1047380	keystroke_e	e	n/a
523.765	0.075	1047530	keystroke_Key.enter	Key.enter	n/a
523.8445	4.5415	1047689	prompt	n/a	brief craps images finder\n
524.8905	0.0445	1049781	keystroke_b	b	n/a
525.1145	0.0305	1050229	keystroke_r	r	n/a
525.13	0.0895	1050260	keystroke_i	i	n/a
525.205	0.105	1050410	keystroke_e	e	n/a
525.325	0.1195	1050650	keystroke_f	f	n/a
525.4595	0.1055	1050919	keystroke_Key.space	Key.space	n/a
525.745	0.105	1051490	keystroke_c	c	n/a
525.865	0.1645	1051730	keystroke_a	a	n/a
526.2695	0.0605	1052539	keystroke_Key.backspace	Key.backspace	n/a
526.2845	0.1505	1052569	keystroke_r	r	n/a
526.375	0.1195	1052750	keystroke_a	a	n/a
526.48	0.1195	1052960	keystroke_p	p	n/a
526.5695	0.135	1053139	keystroke_s	s	n/a
526.705	0.075	1053410	keystroke_Key.space	Key.space	n/a
526.945	0.12	1053890	keystroke_i	i	n/a
527.02	0.135	1054040	keystroke_m	m	n/a
527.095	0.1045	1054190	keystroke_a	a	n/a
527.1695	0.1955	1054339	keystroke_g	g	n/a
527.275	0.1505	1054550	keystroke_e	e	n/a
527.3655	0.119	1054731	keystroke_s	s	n/a
527.4695	0.0605	1054939	keystroke_Key.space	Key.space	n/a
527.635	0.1345	1055270	keystroke_f	f	n/a
527.755	0.105	1055510	keystroke_i	i	n/a
527.8145	0.1055	1055629	keystroke_n	n	n/a
527.875	0.1045	1055750	keystroke_d	d	n/a
528.0995	0.1205	1056199	keystroke_e	e	n/a
528.145	0.12	1056290	keystroke_r	r	n/a
528.265	0.1195	1056530	keystroke_Key.enter	Key.enter	n/a
528.389	7.3625	1056778	prompt	n/a	supported memorabilia playing pantyhose\n
529.2095	0.075	1058419	keystroke_s	s	n/a
529.2545	0.075	1058509	keystroke_u	u	n/a
529.435	0.06	1058870	keystroke_p	p	n/a
529.5545	0.1955	1059109	keystroke_p	p	n/a
529.66	0.165	1059320	keystroke_o	o	n/a
529.705	0.1045	1059410	keystroke_r	r	n/a
529.8695	0.1355	1059739	keystroke_t	t	n/a
529.9445	0.1055	1059889	keystroke_e	e	n/a
530.1545	0.1055	1060309	keystroke_d	d	n/a
530.23	0.15	1060460	keystroke_Key.space	Key.space	n/a
530.4845	0.0755	1060969	keystroke_m	m	n/a
530.5595	0.1355	1061119	keystroke_e	e	n/a
530.6805	0.074	1061361	keystroke_m	m	n/a
530.7245	0.1205	1061449	keystroke_o	o	n/a
530.83	0.12	1061660	keystroke_r	r	n/a
530.9645	0.135	1061929	keystroke_i	i	n/a
531.115	0.12	1062230	keystroke_a	a	n/a
532.015	0.06	1064030	keystroke_Key.backspace	Key.backspace	n/a
532.15	0.12	1064300	keystroke_Key.backspace	Key.backspace	n/a
532.2545	0.1505	1064509	keystroke_a	a	n/a
532.4495	0.135	1064899	keystroke_b	b	n/a
532.5695	0.0605	1065139	keystroke_i	i	n/a
532.735	0.21	1065470	keystroke_l	l	n/a
532.8845	0.0755	1065769	keystroke_i	i	n/a
532.975	0.135	1065950	keystroke_a	a	n/a
533.0945	0.06	1066189	keystroke_Key.space	Key.space	n/a
533.23	0.18	1066460	keystroke_p	p	n/a
533.35	0.1345	1066700	keystroke_l	l	n/a
533.4995	0.1655	1066999	keystroke_a	a	n/a
533.62	0.06	1067240	keystroke_y	y	n/a
533.725	0.165	1067450	keystroke_i	i	n/a
533.8	0.105	1067600	keystroke_n	n	n/a
533.8455	0.149	1067691	keystroke_g	g	n/a
533.95	0.1045	1067900	keystroke_Key.space	Key.space	n/a
534.0695	0.135	1068139	keystroke_p	p	n/a
534.22	0.1495	1068440	keystroke_a	a	n/a
534.325	0.0595	1068650	keystroke_n	n	n/a
534.85	0.1795	1069700	keystroke_t	t	n/a
534.9545	0.0905	1069909	keystroke_y	y	n/a
535.225	0.12	1070450	keystroke_h	h	n/a
535.33	0.12	1070660	keystroke_o	o	n/a
535.42	0.18	1070840	keystroke_s	s	n/a
535.495	0.1345	1070990	keystroke_e	e	n/a
535.6595	0.0905	1071319	keystroke_Key.enter	Key.enter	n/a
535.755	3.342	1071510	prompt	n/a	oasis rice ball fake\n
536.515	0.12	1073030	keystroke_o	o	n/a
536.875	0.135	1073750	keystroke_a	a	n/a
536.995	0.1045	1073990	keystroke_s	s	n/a
537.1145	0.1205	1074229	keystroke_i	i	n/a
537.19	0.0895	1074380	keystroke_s	s	n/a
537.31	0.105	1074620	keystroke_Key.space	Key.space	n/a
537.445	0.135	1074890	keystroke_r	r	n/a
537.565	0.1495	1075130	keystroke_i	i	n/a
537.745	0.09	1075490	keystroke_c	c	n/a
537.91	0.09	1075820	keystroke_e	e	n/a
537.9545	0.0905	1075909	keystroke_Key.space	Key.space	n/a
538.09	0.1345	1076180	keystroke_b	b	n/a
538.1795	0.1505	1076359	keystroke_a	a	n/a
538.27	0.045	1076540	keystroke_l	l	n/a
538.375	0.12	1076750	keystroke_l	l	n/a
538.45	0.1045	1076900	keystroke_Key.space	Key.space	n/a
538.57	0.18	1077140	keystroke_f	f	n/a
538.66	0.12	1077320	keystroke_a	a	n/a
538.765	0.1195	1077530	keystroke_k	k	n/a
538.9	0.105	1077800	keystroke_e	e	n/a
539.02	0.075	1078040	keystroke_Key.enter	Key.enter	n/a
539.102	5.3195	1078204	prompt	n/a	checked origin machine genealogy\n
539.86	0.1495	1079720	keystroke_c	c	n/a
539.935	0.1045	1079870	keystroke_h	h	n/a
540.0545	0.06	1080109	keystroke_e	e	n/a
540.235	0.0745	1080470	keystroke_c	c	n/a
540.325	0.105	1080650	keystroke_k	k	n/a
540.3845	0.0605	1080769	keystroke_e	e	n/a
540.55	0.12	1081100	keystroke_d	d	n/a
540.6245	0.1205	1081249	keystroke_Key.space	Key.space	n/a
540.7	0.12	1081400	keystroke_o	o	n/a
540.805	0.105	1081610	keystroke_r	r	n/a
540.9095	0.075	1081819	keystroke_i	i	n/a
540.9995	0.12	1081999	keystroke_g	g	n/a
541.075	0.1495	1082150	keystroke_i	i	n/a
541.15	0.12	1082300	keystroke_n	n	n/a
541.27	0.105	1082540	keystroke_Key.space	Key.space	n/a
541.5545	0.0305	1083109	keystroke_m	m	n/a
541.5695	0.0755	1083139	keystroke_a	a	n/a
541.705	0.1645	1083410	keystroke_c	c	n/a
541.825	0.0895	1083650	keystroke_h	h	n/a
541.885	0.195	1083770	keystroke_i	i	n/a
542.0045	0.12	1084009	keystroke_n	n	n/a
542.065	0.135	1084130	keystroke_e	e	n/a
542.185	0.12	1084370	keystroke_Key.space	Key.space	n/a
542.515	0.0595	1085030	keystroke_g	g	n/a
542.6045	0.105	1085209	keystroke_e	e	n/a
542.74	0.105	1085480	keystroke_n	n	n/a
542.8005	0.1195	1085601	keystroke_e	e	n/a
542.9355	0.104	1085871	keystroke_a	a	n/a
543.79	0.075	1087580	keystroke_l	l	n/a
543.9395	0.1205	1087879	keystroke_o	o	n/a
544.045	0.135	1088090	keystroke_g	g	n/a
544.165	0.06	1088330	keystroke_y	y	n/a
544.375	0.045	1088750	keystroke_Key.enter	Key.enter	n/a
544.425	5.876	1088850	prompt	n/a	adobe xerox analysis abortion\n
545.11	0.0895	1090220	keystroke_a	a	n/a
545.2145	0.1205	1090429	keystroke_d	d	n/a
545.3195	0.121	1090639	keystroke_o	o	n/a
545.4095	0.1055	1090819	keystroke_b	b	n/a
545.545	0.1495	1091090	keystroke_e	e	n/a
545.7095	0.0755	1091419	keystroke_Key.space	Key.space	n/a
545.92	0.1045	1091840	keystroke_x	x	n/a
546.0395	0.1205	1092079	keystroke_e	e	n/a
546.3845	0.1355	1092769	keystroke_r	r	n/a
546.535	0.0745	1093070	keystroke_o	o	n/a
546.6245	0.0905	1093249	keystroke_s	s	n/a
547.03	0.105	1094060	keystroke_Key.backspace	Key.backspace	n/a
547.1045	0.1505	1094209	keystroke_x	x	n/a
547.24	0.06	1094480	keystroke_Key.space	Key.space	n/a
547.3445	0.1055	1094689	keystroke_a	a	n/a
547.435	0.0895	1094870	keystroke_n	n	n/a
547.54	0.105	1095080	keystroke_a	a	n/a
547.8995	0.1655	1095799	keystroke_l	l	n/a
548.005	0.1195	1096010	keystroke_y	y	n/a
548.0945	0.0605	1096189	keystroke_s	s	n/a
548.275	0.0895	1096550	keystroke_s	s	n/a
548.65	0.105	1097300	keystroke_Key.backspace	Key.backspace	n/a
548.89	0.0895	1097780	keystroke_i	i	n/a
548.935	0.1045	1097870	keystroke_s	s	n/a
549.0545	0.0905	1098109	keystroke_Key.space	Key.space	n/a
549.16	0.09	1098320	keystroke_a	a	n/a
549.265	0.12	1098530	keystroke_b	b	n/a
549.37	0.105	1098740	keystroke_o	o	n/a
549.49	0.0895	1098980	keystroke_r	r	n/a
549.745	0.09	1099490	keystroke_t	t	n/a
549.82	0.1045	1099640	keystroke_i	i	n/a
549.8795	0.1655	1099759	keystroke_o	o	n/a
550	0.12	1100000	keystroke_n	n	n/a
550.2245	0.075	1100449	keystroke_Key.enter	Key.enter	n/a
550.304	4.4535	1100608	prompt	n/a	dental neural impression hotel\n
550.9745	0.09	1101949	keystroke_d	d	n/a
551.1405	0.1345	1102281	keystroke_e	e	n/a
551.185	0.105	1102370	keystroke_n	n	n/a
551.305	0.1045	1102610	keystroke_t	t	n/a
551.3795	0.1355	1102759	keystroke_a	a	n/a
551.4705	0.1345	1102941	keystroke_l	l	n/a
551.545	0.1345	1103090	keystroke_Key.space	Key.space	n/a
551.8	0.0755	1103600	keystroke_n	n	n/a
551.875	0.12	1103750	keystroke_e	e	n/a
551.9795	0.0755	1103959	keystroke_u	u	n/a
552.25	0.15	1104500	keystroke_r	r	n/a
552.385	0.12	1104770	keystroke_a	a	n/a
552.4745	0.105	1104949	keystroke_l	l	n/a
552.55	0.075	1105100	keystroke_Key.space	Key.space	n/a
553.0745	0.15	1106149	keystroke_i	i	n/a
553.135	0.1805	1106270	keystroke_m	m	n/a
553.2545	0.1505	1106509	keystroke_p	p	n/a
553.345	0.1495	1106690	keystroke_r	r	n/a
553.4355	0.104	1106871	keystroke_e	e	n/a
553.57	0.105	1107140	keystroke_s	s	n/a
553.7945	0.0905	1107589	keystroke_s	s	n/a
553.8405	0.1045	1107681	keystroke_i	i	n/a
553.8845	0.1205	1107769	keystroke_o	o	n/a
553.93	0.09	1107860	keystroke_n	n	n/a
553.99	0.1795	1107980	keystroke_Key.space	Key.space	n/a
554.1545	0.0905	1108309	keystroke_h	h	n/a
554.2155	0.1045	1108431	keystroke_o	o	n/a
554.275	0.15	1108550	keystroke_t	t	n/a
554.335	0.165	1108670	keystroke_e	e	n/a
554.455	0.09	1108910	keystroke_l	l	n/a
554.6495	0.1055	1109299	keystroke_Key.enter	Key.enter	n/a
554.7605	5.351	1109521	prompt	n/a	added auckland active sony\n
555.4155	0.0895	1110831	keystroke_a	a	n/a
555.52	0.0895	1111040	keystroke_d	d	n/a
555.685	0.0745	1111370	keystroke_d	d	n/a
555.835	0.075	1111670	keystroke_e	e	n/a
555.985	0.12	1111970	keystroke_d	d	n/a
556.09	0.105	1112180	keystroke_Key.space	Key.space	n/a
556.1795	0.136	1112359	keystroke_a	a	n/a
556.33	0.165	1112660	keystroke_c	c	n/a
556.51	0.09	1113020	keystroke_u	u	n/a
556.7495	0.1205	1113499	keystroke_k	k	n/a
557.095	0.075	1114190	keystroke_Key.backspace	Key.backspace	n/a
557.245	0.075	1114490	keystroke_Key.backspace	Key.backspace	n/a
557.4255	0.0745	1114851	keystroke_Key.backspace	Key.backspace	n/a
557.575	0.075	1115150	keystroke_u	u	n/a
557.665	0.1655	1115330	keystroke_c	c	n/a
557.7695	0.0755	1115539	keystroke_k	k	n/a
557.95	0.106	1115900	keystroke_l	l	n/a
558.07	0.12	1116140	keystroke_a	a	n/a
558.1455	0.1045	1116291	keystroke_n	n	n/a
558.2205	0.12	1116441	keystroke_d	d	n/a
558.356	0.104	1116712	keystroke_Key.space	Key.space	n/a
558.4755	0.0445	1116951	keystroke_a	a	n/a
558.565	0.135	1117130	keystroke_c	c	n/a
558.76	0.12	1117520	keystroke_t	t	n/a
558.865	0.12	1117730	keystroke_i	i	n/a
559	0.1495	1118000	keystroke_v	v	n/a
559.106	0.119	1118212	keystroke_e	e	n/a
559.195	0.12	1118390	keystroke_Key.space	Key.space	n/a
559.42	0.136	1118840	keystroke_s	s	n/a
559.495	0.09	1118990	keystroke_o	o	n/a
559.66	0.0895	1119320	keystroke_n	n	n/a
559.8545	0.091	1119709	keystroke_y	y	n/a
560.0645	0.0455	1120129	keystroke_Key.enter	Key.enter	n/a
560.115	3.972	1120230	prompt	n/a	belief media fear myself\n
560.89	0.0895	1121780	keystroke_b	b	n/a
561.0095	0.1055	1122019	keystroke_e	e	n/a
561.085	0.1805	1122170	keystroke_l	l	n/a
561.175	0.135	1122350	keystroke_i	i	n/a
561.2045	0.1205	1122409	keystroke_e	e	n/a
561.37	0.18	1122740	keystroke_f	f	n/a
561.5505	0.1055	1123101	keystroke_Key.space	Key.space	n/a
561.76	0.0745	1123520	keystroke_m	m	n/a
562.06	0.09	1124120	keystroke_e	e	n/a
562.256	0.1045	1124512	keystroke_d	d	n/a
562.3445	0.09	1124689	keystroke_i	i	n/a
562.4795	0.1055	1124959	keystroke_a	a	n/a
562.54	0.105	1125080	keystroke_Key.space	Key.space	n/a
562.81	0.135	1125620	keystroke_f	f	n/a
562.9	0.12	1125800	keystroke_e	e	n/a
563.005	0.12	1126010	keystroke_a	a	n/a
563.095	0.12	1126190	keystroke_r	r	n/a
563.185	0.1045	1126370	keystroke_Key.space	Key.space	n/a
563.2755	0.0745	1126551	keystroke_m	m	n/a
563.47	0.075	1126940	keystroke_y	y	n/a
563.56	0.1195	1127120	keystroke_s	s	n/a
563.65	0.135	1127300	keystroke_e	e	n/a
563.7405	0.1195	1127481	keystroke_l	l	n/a
563.8895	0.1355	1127779	keystroke_f	f	n/a
563.98	0.1055	1127960	keystroke_Key.enter	Key.enter	n/a
564.0895	4.7675	1128179	prompt	n/a	grove benefit chester errors\n
564.7745	0.1055	1129549	keystroke_g	g	n/a
564.955	0.0905	1129910	keystroke_r	r	n/a
565	0.1195	1130000	keystroke_o	o	n/a
565.1345	0.1505	1130269	keystroke_v	v	n/a
565.21	0.12	1130420	keystroke_e	e	n/a
565.345	0.09	1130690	keystroke_Key.space	Key.space	n/a
565.4495	0.0755	1130899	keystroke_b	b	n/a
565.5705	0.1045	1131141	keystroke_e	e	n/a
565.6605	0.1195	1131321	keystroke_n	n	n/a
565.75	0.106	1131500	keystroke_e	e	n/a
565.8405	0.12	1131681	keystroke_f	f	n/a
565.9745	0.1205	1131949	keystroke_i	i	n/a
566.0805	0.12	1132161	keystroke_t	t	n/a
566.215	0.0745	1132430	keystroke_Key.space	Key.space	n/a
566.365	0.105	1132730	keystroke_c	c	n/a
566.605	0.12	1133210	keystroke_e	e	n/a
566.9805	0.0895	1133961	keystroke_Key.backspace	Key.backspace	n/a
567.13	0.12	1134260	keystroke_h	h	n/a
567.175	0.1345	1134350	keystroke_e	e	n/a
567.3255	0.149	1134651	keystroke_s	s	n/a
567.4605	0.104	1134921	keystroke_t	t	n/a
567.58	0.1355	1135160	keystroke_e	e	n/a
567.6705	0.1195	1135341	keystroke_r	r	n/a
567.7605	0.0895	1135521	keystroke_Key.space	Key.space	n/a
567.865	0.1205	1135730	keystroke_e	e	n/a
568.015	0.105	1136030	keystroke_r	r	n/a
568.195	0.09	1136390	keystroke_r	r	n/a
568.315	0.1355	1136630	keystroke_o	o	n/a
568.42	0.1955	1136840	keystroke_r	r	n/a
568.5705	0.1495	1137141	keystroke_s	s	n/a
568.735	0.1205	1137470	keystroke_Key.enter	Key.enter	n/a
568.86	8.9365	1137720	prompt	n/a	institutes consequences logged albuquerque\n
569.59	0.1655	1139180	keystroke_i	i	n/a
569.7705	0.1045	1139541	keystroke_n	n	n/a
569.9065	0.1495	1139813	keystroke_s	s	n/a
570.1	0.15	1140200	keystroke_t	t	n/a
570.2355	0.06	1140471	keystroke_i	i	n/a
570.3105	0.12	1140621	keystroke_t	t	n/a
570.4155	0.0745	1140831	keystroke_u	u	n/a
570.5655	0.1795	1141131	keystroke_t	t	n/a
570.76	0.135	1141520	keystroke_e	e	n/a
570.8805	0.1345	1141761	keystroke_s	s	n/a
571	0.135	1142000	keystroke_Key.space	Key.space	n/a
571.1655	0.1495	1142331	keystroke_c	c	n/a
571.2405	0.119	1142481	keystroke_o	o	n/a
571.3	0.135	1142600	keystroke_n	n	n/a
571.84	0.15	1143680	keystroke_s	s	n/a
571.945	0.0895	1143890	keystroke_e	e	n/a
572.1405	0.045	1144281	keystroke_u	u	n/a
572.5455	0.0895	1145091	keystroke_Key.backspace	Key.backspace	n/a
572.62	0.105	1145240	keystroke_q	q	n/a
572.7405	0.075	1145481	keystroke_u	u	n/a
572.83	0.1205	1145660	keystroke_e	e	n/a
572.9355	0.105	1145871	keystroke_n	n	n/a
573.0565	0.074	1146113	keystroke_c	c	n/a
573.2055	0.105	1146411	keystroke_e	e	n/a
573.2805	0.12	1146561	keystroke_s	s	n/a
573.3555	0.0905	1146711	keystroke_Key.space	Key.space	n/a
573.565	0.0455	1147130	keystroke_l	l	n/a
573.715	0.1055	1147430	keystroke_o	o	n/a
573.79	0.12	1147580	keystroke_g	g	n/a
573.9555	0.1195	1147911	keystroke_g	g	n/a
574.06	0.09	1148120	keystroke_e	e	n/a
574.2255	0.105	1148451	keystroke_d	d	n/a
574.3305	0.12	1148661	keystroke_Key.space	Key.space	n/a
574.556	0.134	1149112	keystroke_a	a	n/a
574.9155	0.1195	1149831	keystroke_l	l	n/a
575.0805	0.15	1150161	keystroke_b	b	n/a
575.395	0.0755	1150790	keystroke_u	u	n/a
576.175	0.075	1152350	keystroke_q	q	n/a
576.2655	0.1345	1152531	keystroke_u	u	n/a
576.3705	0.135	1152741	keystroke_e	e	n/a
577.075	0.0905	1154150	keystroke_r	r	n/a
577.36	0.1205	1154720	keystroke_q	q	n/a
577.4655	0.105	1154931	keystroke_u	u	n/a
577.525	0.1205	1155050	keystroke_e	e	n/a
577.69	0.105	1155380	keystroke_Key.enter	Key.enter	n/a
577.7995	4.9025	1155599	prompt	n/a	kissing result initially knives\n
578.4555	0.06	1156911	keystroke_k	k	n/a
578.6055	0.09	1157211	keystroke_i	i	n/a
578.6655	0.075	1157331	keystroke_s	s	n/a
578.8155	0.135	1157631	keystroke_s	s	n/a
578.875	0.12	1157750	keystroke_i	i	n/a
578.9355	0.12	1157871	keystroke_n	n	n/a
579.0105	0.105	1158021	keystroke_g	g	n/a
579.1005	0.1055	1158201	keystroke_Key.space	Key.space	n/a
579.19	0.1505	1158380	keystroke_r	r	n/a
579.2355	0.1495	1158471	keystroke_e	e	n/a
579.3255	0.1645	1158651	keystroke_s	s	n/a
579.4005	0.1345	1158801	keystroke_u	u	n/a
579.475	0.1205	1158950	keystroke_l	l	n/a
579.5805	0.135	1159161	keystroke_t	t	n/a
579.656	0.089	1159312	keystroke_Key.space	Key.space	n/a
579.8055	0.075	1159611	keystroke_i	i	n/a
579.8955	0.135	1159791	keystroke_n	n	n/a
580.0005	0.105	1160001	keystroke_i	i	n/a
580.09	0.1055	1160180	keystroke_t	t	n/a
580.181	0.089	1160362	keystroke_i	i	n/a
580.27	0.1355	1160540	keystroke_a	a	n/a
580.375	0.0455	1160750	keystroke_l	l	n/a
580.5255	0.1495	1161051	keystroke_l	l	n/a
580.66	0.1055	1161320	keystroke_y	y	n/a
580.72	0.105	1161440	keystroke_Key.space	Key.space	n/a
581.3055	0.165	1162611	keystroke_k	k	n/a
581.4555	0.1505	1162911	keystroke_n	n	n/a
581.59	0.2105	1163180	keystroke_o	o	n/a
582.0105	0.0745	1164021	keystroke_Key.backspace	Key.backspace	n/a
582.19	0.0905	1164380	keystroke_i	i	n/a
582.235	0.1655	1164470	keystroke_v	v	n/a
582.3405	0.1795	1164681	keystroke_e	e	n/a
582.4455	0.195	1164891	keystroke_s	s	n/a
582.6255	0.075	1165251	keystroke_Key.enter	Key.enter	n/a
582.7045	11.427	1165409	prompt	n/a	popular comply poll suggesting\n
583.42	0.1355	1166840	keystroke_p	p	n/a
583.5405	0.09	1167081	keystroke_o	o	n/a
583.645	0.135	1167290	keystroke_p	p	n/a
583.8105	0.105	1167621	keystroke_u	u	n/a
583.9305	0.15	1167861	keystroke_l	l	n/a
584.0355	0.135	1168071	keystroke_a	a	n/a
584.1255	0.135	1168251	keystroke_r	r	n/a
584.1855	0.12	1168371	keystroke_Key.space	Key.space	n/a
584.38	0.18	1168760	keystroke_c	c	n/a
584.4405	0.1495	1168881	keystroke_o	o	n/a
584.531	0.2695	1169062	keystroke_p	p	n/a
584.575	0.1355	1169150	keystroke_m	m	n/a
584.77	0.1655	1169540	keystroke_l	l	n/a
584.9505	0.1345	1169901	keystroke_y	y	n/a
585.1005	0.0745	1170201	keystroke_Key.space	Key.space	n/a
585.2055	0.105	1170411	keystroke_p	p	n/a
585.506	0.0295	1171012	keystroke_Key.backspace	Key.backspace	n/a
585.6555	0.045	1171311	keystroke_Key.backspace	Key.backspace	n/a
585.8055	0.045	1171611	keystroke_Key.backspace	Key.backspace	n/a
585.9555	0.0745	1171911	keystroke_Key.backspace	Key.backspace	n/a
586.1055	0.075	1172211	keystroke_Key.backspace	Key.backspace	n/a
586.2555	0.1045	1172511	keystroke_Key.backspace	Key.backspace	n/a
586.4655	0.15	1172931	keystroke_m	m	n/a
586.556	0.1495	1173112	keystroke_p	p	n/a
586.7805	0.135	1173561	keystroke_l	l	n/a
586.96	0.1355	1173920	keystroke_y	y	n/a
587.1105	0.09	1174221	keystroke_Key.space	Key.space	n/a
587.245	0.1655	1174490	keystroke_p	p	n/a
587.3355	0.12	1174671	keystroke_o	o	n/a
587.8305	0.0445	1175661	keystroke_l	l	n/a
587.9655	0.165	1175931	keystroke_l	l	n/a
588.085	0.1655	1176170	keystroke_i	i	n/a
588.16	0.1205	1176320	keystroke_n	n	n/a
588.2655	0.12	1176531	keystroke_g	g	n/a
588.3255	0.105	1176651	keystroke_Key.space	Key.space	n/a
588.475	0.1055	1176950	keystroke_s	s	n/a
588.5205	0.0745	1177041	keystroke_u	u	n/a
588.6855	0.1045	1177371	keystroke_g	g	n/a
588.9105	0.105	1177821	keystroke_g	g	n/a
589.0305	0.2395	1178061	keystroke_e	e	n/a
589.1655	0.165	1178331	keystroke_s	s	n/a
589.2855	0.105	1178571	keystroke_t	t	n/a
589.3755	0.15	1178751	keystroke_i	i	n/a
589.4355	0.12	1178871	keystroke_n	n	n/a
589.5105	0.1345	1179021	keystroke_g	g	n/a
589.9155	0.0745	1179831	keystroke_Key.backspace	Key.backspace	n/a
590.0955	0.045	1180191	keystroke_Key.backspace	Key.backspace	n/a
590.245	0.0455	1180490	keystroke_Key.backspace	Key.backspace	n/a
590.3955	0.045	1180791	keystroke_Key.backspace	Key.backspace	n/a
590.545	0.0605	1181090	keystroke_Key.backspace	Key.backspace	n/a
590.71	0.0455	1181420	keystroke_Key.backspace	Key.backspace	n/a
590.9055	0.0145	1181811	keystroke_Key.backspace	Key.backspace	n/a
591.025	0.0455	1182050	keystroke_Key.backspace	Key.backspace	n/a
591.175	0.0455	1182350	keystroke_Key.backspace	Key.backspace	n/a
591.3255	0.06	1182651	keystroke_Key.backspace	Key.backspace	n/a
591.5065	0.044	1183013	keystroke_Key.backspace	Key.backspace	n/a
591.6555	0.0745	1183311	keystroke_Key.backspace	Key.backspace	n/a
591.835	0.0755	1183670	keystroke_Key.backspace	Key.backspace	n/a
592.0005	0.0595	1184001	keystroke_Key.backspace	Key.backspace	n/a
592.3005	0.0895	1184601	keystroke_Key.space	Key.space	n/a
592.5405	0.1195	1185081	keystroke_s	s	n/a
592.645	0.0605	1185290	keystroke_u	u	n/a
592.7205	0.0905	1185441	keystroke_g	g	n/a
592.8855	0.1495	1185771	keystroke_g	g	n/a
593.0505	0.24	1186101	keystroke_e	e	n/a
593.0655	0.1505	1186131	keystroke_s	s	n/a
593.2005	0.15	1186401	keystroke_t	t	n/a
593.336	0.1195	1186672	keystroke_i	i	n/a
593.7855	0.12	1187571	keystroke_n	n	n/a
593.8905	0.15	1187781	keystroke_g	g	n/a
594.0555	0.0745	1188111	keystroke_Key.enter	Key.enter	n/a
594.1345	6.7775	1188269	prompt	n/a	technologies advocate bringing request\n
594.9105	0.1045	1189821	keystroke_t	t	n/a
594.97	0.09	1189940	keystroke_e	e	n/a
595.1955	0.09	1190391	keystroke_c	c	n/a
595.2405	0.0745	1190481	keystroke_h	h	n/a
595.406	0.1195	1190812	keystroke_n	n	n/a
595.6005	0.0745	1191201	keystroke_o	o	n/a
595.8105	0.06	1191621	keystroke_l	l	n/a
595.9755	0.09	1191951	keystroke_o	o	n/a
596.0805	0.1195	1192161	keystroke_g	g	n/a
596.1855	0.105	1192371	keystroke_i	i	n/a
596.275	0.1505	1192550	keystroke_e	e	n/a
596.3505	0.135	1192701	keystroke_s	s	n/a
596.4705	0.0595	1192941	keystroke_Key.space	Key.space	n/a
596.636	0.1045	1193272	keystroke_a	a	n/a
596.7555	0.18	1193511	keystroke_d	d	n/a
596.9655	0.075	1193931	keystroke_v	v	n/a
597.775	0.09	1195550	keystroke_o	o	n/a
597.9405	0.1795	1195881	keystroke_c	c	n/a
598.135	0.225	1196270	keystroke_a	a	n/a
598.345	0.1505	1196690	keystroke_t	t	n/a
598.4205	0.135	1196841	keystroke_e	e	n/a
598.5405	0.1655	1197081	keystroke_Key.space	Key.space	n/a
598.8555	0.135	1197711	keystroke_b	b	n/a
599.0655	0.135	1198131	keystroke_r	r	n/a
599.1855	0.1055	1198371	keystroke_i	i	n/a
599.245	0.0905	1198490	keystroke_n	n	n/a
599.3805	0.0755	1198761	keystroke_g	g	n/a
599.4405	0.135	1198881	keystroke_i	i	n/a
599.5	0.1055	1199000	keystroke_n	n	n/a
599.5905	0.075	1199181	keystroke_g	g	n/a
599.6955	0.09	1199391	keystroke_Key.space	Key.space	n/a
599.9355	0.1345	1199871	keystroke_r	r	n/a
599.9955	0.1495	1199991	keystroke_e	e	n/a
600.085	0.121	1200170	keystroke_q	q	n/a
600.281	0.1045	1200562	keystroke_u	u	n/a
600.3555	0.24	1200711	keystroke_e	e	n/a
600.46	0.21	1200920	keystroke_s	s	n/a
600.5805	0.1345	1201161	keystroke_t	t	n/a
600.8055	0.105	1201611	keystroke_Key.enter	Key.enter	n/a
600.915	8.398	1201830	prompt	n/a	somalia tanzania demands split\n
601.8105	0.0895	1203621	keystroke_s	s	n/a
601.8405	0.1345	1203681	keystroke_o	o	n/a
601.945	0.1055	1203890	keystroke_m	m	n/a
602.0355	0.12	1204071	keystroke_a	a	n/a
602.1705	0.1495	1204341	keystroke_l	l	n/a
602.245	0.121	1204490	keystroke_i	i	n/a
602.336	0.149	1204672	keystroke_a	a	n/a
602.4705	0.09	1204941	keystroke_Key.space	Key.space	n/a
602.635	0.1505	1205270	keystroke_t	t	n/a
602.7405	0.1195	1205481	keystroke_a	a	n/a
602.845	0.0755	1205690	keystroke_n	n	n/a
603.1905	0.0445	1206381	keystroke_z	z	n/a
603.3555	0.0745	1206711	keystroke_a	a	n/a
603.8205	0.105	1207641	keystroke_n	n	n/a
603.9105	0.1195	1207821	keystroke_i	i	n/a
604.015	0.091	1208030	keystroke_a	a	n/a
604.1065	0.104	1208213	keystroke_Key.space	Key.space	n/a
604.2255	0.1045	1208451	keystroke_d	d	n/a
604.3905	0.15	1208781	keystroke_e	e	n/a
604.556	0.1045	1209112	keystroke_m	m	n/a
604.691	0.165	1209382	keystroke_a	a	n/a
604.8405	0.0595	1209681	keystroke_n	n	n/a
604.915	0.1355	1209830	keystroke_s	s	n/a
607.9005	0.09	1215801	keystroke_Key.backspace	Key.backspace	n/a
608.0505	0.1795	1216101	keystroke_d	d	n/a
608.1715	0.1485	1216343	keystroke_s	s	n/a
608.335	0.0905	1216670	keystroke_Key.space	Key.space	n/a
608.6215	0.089	1217243	keystroke_s	s	n/a
608.6955	0.06	1217391	keystroke_p	p	n/a
608.891	0.1495	1217782	keystroke_l	l	n/a
608.965	0.1205	1217930	keystroke_i	i	n/a
609.0855	0.15	1218171	keystroke_t	t	n/a
609.2655	0.045	1218531	keystroke_Key.enter	Key.enter	n/a
609.316	5.2925	1218632	prompt	n/a	among gang texas sublime\n
610.0905	0.12	1220181	keystroke_a	a	n/a
610.1805	0.1045	1220361	keystroke_m	m	n/a
610.27	0.1205	1220540	keystroke_o	o	n/a
610.3455	0.135	1220691	keystroke_n	n	n/a
610.4355	0.135	1220871	keystroke_g	g	n/a
610.5555	0.105	1221111	keystroke_Key.space	Key.space	n/a
610.7655	0.1045	1221531	keystroke_g	g	n/a
610.841	0.149	1221682	keystroke_a	a	n/a
610.915	0.1355	1221830	keystroke_n	n	n/a
611.036	0.119	1222072	keystroke_g	g	n/a
611.125	0.106	1222250	keystroke_Key.space	Key.space	n/a
611.3805	0.1345	1222761	keystroke_t	t	n/a
611.5005	0.075	1223001	keystroke_a	a	n/a
612.1005	0.09	1224201	keystroke_Key.backspace	Key.backspace	n/a
612.2055	0.105	1224411	keystroke_e	e	n/a
612.446	0.0895	1224892	keystroke_x	x	n/a
612.5205	0.165	1225041	keystroke_a	a	n/a
612.7305	0.12	1225461	keystroke_s	s	n/a
612.8655	0.15	1225731	keystroke_Key.space	Key.space	n/a
613.3305	0.1045	1226661	keystroke_s	s	n/a
613.406	0.1045	1226812	keystroke_u	u	n/a
613.5255	0.105	1227051	keystroke_b	b	n/a
613.6455	0.18	1227291	keystroke_l	l	n/a
613.7215	0.1185	1227443	keystroke_i	i	n/a
614.1555	0.12	1228311	keystroke_m	m	n/a
614.246	0.119	1228492	keystroke_e	e	n/a
614.5155	0.0905	1229031	keystroke_Key.enter	Key.enter	n/a
614.6135	5.934	1229227	prompt	n/a	webmaster powell repair singles\n
615.4755	0.15	1230951	keystroke_w	w	n/a
615.7305	0.135	1231461	keystroke_e	e	n/a
615.9405	0.15	1231881	keystroke_b	b	n/a
616.1215	0.119	1232243	keystroke_m	m	n/a
616.2255	0.1345	1232451	keystroke_a	a	n/a
616.3005	0.181	1232601	keystroke_s	s	n/a
616.4655	0.1205	1232931	keystroke_t	t	n/a
616.6005	0.15	1233201	keystroke_e	e	n/a
616.6905	0.12	1233381	keystroke_r	r	n/a
616.766	0.0895	1233532	keystroke_Key.space	Key.space	n/a
616.8855	0.2105	1233771	keystroke_p	p	n/a
616.976	0.1795	1233952	keystroke_o	o	n/a
617.231	0.15	1234462	keystroke_w	w	n/a
617.322	0.1485	1234644	keystroke_e	e	n/a
617.5155	0.06	1235031	keystroke_l	l	n/a
617.6655	0.1355	1235331	keystroke_l	l	n/a
617.7405	0.1355	1235481	keystroke_Key.space	Key.space	n/a
618.0555	0.1505	1236111	keystroke_r	r	n/a
618.116	0.135	1236232	keystroke_e	e	n/a
618.266	0.1055	1236532	keystroke_p	p	n/a
618.4155	0.0905	1236831	keystroke_a	a	n/a
618.491	0.1045	1236982	keystroke_i	i	n/a
618.581	0.135	1237162	keystroke_r	r	n/a
618.686	0.09	1237372	keystroke_Key.space	Key.space	n/a
618.8215	0.164	1237643	keystroke_s	s	n/a
618.9105	0.1355	1237821	keystroke_i	i	n/a
619.001	0.1055	1238002	keystroke_n	n	n/a
619.091	0.1345	1238182	keystroke_g	g	n/a
619.2105	0.1205	1238421	keystroke_l	l	n/a
619.3005	0.1505	1238601	keystroke_e	e	n/a
619.376	0.1795	1238752	keystroke_s	s	n/a
620.4555	0.0905	1240911	keystroke_Key.enter	Key.enter	n/a
620.55	5.3825	1241100	prompt	n/a	lighting onion motors appointed\n
621.281	0.0905	1242562	keystroke_l	l	n/a
621.296	0.135	1242592	keystroke_i	i	n/a
621.401	0.121	1242802	keystroke_g	g	n/a
621.522	0.119	1243044	keystroke_h	h	n/a
621.6565	0.1045	1243313	keystroke_t	t	n/a
621.7305	0.1205	1243461	keystroke_i	i	n/a
621.806	0.1195	1243612	keystroke_n	n	n/a
621.8955	0.1205	1243791	keystroke_g	g	n/a
622.016	0.06	1244032	keystroke_Key.space	Key.space	n/a
622.181	0.1945	1244362	keystroke_o	o	n/a
622.451	0.0745	1244902	keystroke_i	i	n/a
622.5405	0.181	1245081	keystroke_n	n	n/a
622.916	0.015	1245832	keystroke_Key.backspace	Key.backspace	n/a
623.036	0.0445	1246072	keystroke_Key.backspace	Key.backspace	n/a
623.1715	0.0895	1246343	keystroke_n	n	n/a
623.276	0.09	1246552	keystroke_i	i	n/a
623.3505	0.1505	1246701	keystroke_o	o	n/a
623.4405	0.1355	1246881	keystroke_n	n	n/a
623.5765	0.149	1247153	keystroke_Key.space	Key.space	n/a
623.831	0.12	1247662	keystroke_m	m	n/a
623.9055	0.12	1247811	keystroke_o	o	n/a
624.191	0.1345	1248382	keystroke_t	t	n/a
624.2955	0.1055	1248591	keystroke_o	o	n/a
624.416	0.15	1248832	keystroke_r	r	n/a
624.491	0.135	1248982	keystroke_s	s	n/a
624.5955	0.1055	1249191	keystroke_Key.space	Key.space	n/a
624.8805	0.1205	1249761	keystroke_a	a	n/a
625.016	0.045	1250032	keystroke_p	p	n/a
625.1505	0.121	1250301	keystroke_p	p	n/a
625.2255	0.15	1250451	keystroke_o	o	n/a
625.2715	0.1645	1250543	keystroke_i	i	n/a
625.361	0.1345	1250722	keystroke_n	n	n/a
625.4215	0.1645	1250843	keystroke_t	t	n/a
625.5405	0.1055	1251081	keystroke_e	e	n/a
625.7655	0.12	1251531	keystroke_d	d	n/a
625.841	0.09	1251682	keystroke_Key.enter	Key.enter	n/a
625.9355	6.4315	1251871	prompt	n/a	vocational tomorrow sodium decisions\n
626.711	0.165	1253422	keystroke_v	v	n/a
626.8305	0.1055	1253661	keystroke_o	o	n/a
627.356	0.12	1254712	keystroke_c	c	n/a
627.4605	0.12	1254921	keystroke_a	a	n/a
627.5955	0.1655	1255191	keystroke_t	t	n/a
627.7465	0.0895	1255493	keystroke_i	i	n/a
627.7765	0.164	1255553	keystroke_o	o	n/a
627.8955	0.1355	1255791	keystroke_n	n	n/a
628.016	0.1055	1256032	keystroke_a	a	n/a
628.076	0.1045	1256152	keystroke_l	l	n/a
628.1655	0.1205	1256331	keystroke_Key.space	Key.space	n/a
628.3465	0.104	1256693	keystroke_t	t	n/a
628.4655	0.1355	1256931	keystroke_o	o	n/a
628.616	0.1195	1257232	keystroke_m	m	n/a
628.691	0.1195	1257382	keystroke_o	o	n/a
628.826	0.06	1257652	keystroke_r	r	n/a
629.0215	0.0895	1258043	keystroke_r	r	n/a
629.0655	0.1355	1258131	keystroke_o	o	n/a
629.186	0.105	1258372	keystroke_w	w	n/a
629.276	0.1195	1258552	keystroke_Key.space	Key.space	n/a
629.6505	0.1655	1259301	keystroke_s	s	n/a
629.801	0.075	1259602	keystroke_o	o	n/a
630.1155	0.165	1260231	keystroke_d	d	n/a
630.2215	0.135	1260443	keystroke_i	i	n/a
630.341	0.09	1260682	keystroke_u	u	n/a
630.536	0.1195	1261072	keystroke_m	m	n/a
630.611	0.12	1261222	keystroke_Key.space	Key.space	n/a
630.8955	0.105	1261791	keystroke_d	d	n/a
631.1505	0.0455	1262301	keystroke_e	e	n/a
631.5265	0.1045	1263053	keystroke_c	c	n/a
631.646	0.06	1263292	keystroke_i	i	n/a
631.7215	0.105	1263443	keystroke_s	s	n/a
631.811	0.1195	1263622	keystroke_i	i	n/a
631.886	0.135	1263772	keystroke_o	o	n/a
631.961	0.165	1263922	keystroke_n	n	n/a
632.141	0.105	1264282	keystroke_s	s	n/a
632.261	0.1045	1264522	keystroke_Key.enter	Key.enter	n/a
632.371	7.752	1264742	prompt	n/a	seminar laptop kings readings\n
633.1455	0.15	1266291	keystroke_s	s	n/a
633.341	0.18	1266682	keystroke_e	e	n/a
633.6565	0.1045	1267313	keystroke_m	m	n/a
634.1055	0.1805	1268211	keystroke_i	i	n/a
634.3015	0.0745	1268603	keystroke_n	n	n/a
634.4655	0.1505	1268931	keystroke_a	a	n/a
634.8855	0.1055	1269771	keystroke_t	t	n/a
634.976	0.1195	1269952	keystroke_Key.space	Key.space	n/a
635.201	0.12	1270402	keystroke_l	l	n/a
635.3355	0.1055	1270671	keystroke_a	a	n/a
635.591	0.0745	1271182	keystroke_Key.backspace	Key.backspace	n/a
635.756	0.075	1271512	keystroke_Key.backspace	Key.backspace	n/a
635.906	0.0745	1271812	keystroke_Key.backspace	Key.backspace	n/a
636.056	0.12	1272112	keystroke_Key.backspace	Key.backspace	n/a
636.161	0.1195	1272322	keystroke_r	r	n/a
636.2355	0.1055	1272471	keystroke_Key.space	Key.space	n/a
636.4005	0.106	1272801	keystroke_l	l	n/a
636.5505	0.1205	1273101	keystroke_a	a	n/a
636.5655	0.1505	1273131	keystroke_p	p	n/a
636.8505	0.165	1273701	keystroke_t	t	n/a
636.941	0.135	1273882	keystroke_o	o	n/a
637.0005	0.1355	1274001	keystroke_p	p	n/a
637.121	0.12	1274242	keystroke_Key.space	Key.space	n/a
637.511	0.015	1275022	keystroke_k	k	n/a
637.631	0.1345	1275262	keystroke_i	i	n/a
637.6755	0.1055	1275351	keystroke_n	n	n/a
637.721	0.1945	1275442	keystroke_g	g	n/a
637.856	0.135	1275712	keystroke_s	s	n/a
637.9005	0.0755	1275801	keystroke_Key.space	Key.space	n/a
638.186	0.1355	1276372	keystroke_r	r	n/a
638.2765	0.089	1276553	keystroke_e	e	n/a
638.321	0.12	1276642	keystroke_a	a	n/a
638.486	0.1495	1276972	keystroke_d	d	n/a
638.6505	0.1355	1277301	keystroke_i	i	n/a
638.696	0.18	1277392	keystroke_n	n	n/a
638.801	0.1645	1277602	keystroke_d	d	n/a
638.891	0.165	1277782	keystroke_s	s	n/a
639.5655	0.0755	1279131	keystroke_Key.backspace	Key.backspace	n/a
639.731	0.075	1279462	keystroke_Key.backspace	Key.backspace	n/a
639.836	0.165	1279672	keystroke_g	g	n/a
639.941	0.12	1279882	keystroke_s	s	n/a
640.0305	0.0905	1280061	keystroke_Key.enter	Key.enter	n/a
640.126	4.7515	1280252	prompt	n/a	current nike dishes podcast\n
640.871	0.1195	1281742	keystroke_c	c	n/a
640.9455	0.0755	1281891	keystroke_u	u	n/a
641.0505	0.0755	1282101	keystroke_r	r	n/a
641.216	0.105	1282432	keystroke_r	r	n/a
641.246	0.1345	1282492	keystroke_e	e	n/a
641.3955	0.076	1282791	keystroke_n	n	n/a
641.441	0.135	1282882	keystroke_t	t	n/a
641.561	0.1045	1283122	keystroke_Key.space	Key.space	n/a
641.741	0.105	1283482	keystroke_n	n	n/a
641.831	0.075	1283662	keystroke_i	i	n/a
642.0405	0.12	1284081	keystroke_k	k	n/a
642.116	0.1195	1284232	keystroke_e	e	n/a
642.221	0.09	1284442	keystroke_Key.space	Key.space	n/a
642.4615	0.119	1284923	keystroke_d	d	n/a
642.596	0.1495	1285192	keystroke_i	i	n/a
642.731	0.15	1285462	keystroke_s	s	n/a
642.896	0.075	1285792	keystroke_h	h	n/a
642.986	0.12	1285972	keystroke_e	e	n/a
643.091	0.165	1286182	keystroke_s	s	n/a
643.241	0.06	1286482	keystroke_Key.space	Key.space	n/a
643.586	0.135	1287172	keystroke_p	p	n/a
643.646	0.135	1287292	keystroke_o	o	n/a
643.826	0.165	1287652	keystroke_d	d	n/a
644.261	0.1205	1288522	keystroke_c	c	n/a
644.381	0.135	1288762	keystroke_a	a	n/a
644.486	0.18	1288972	keystroke_s	s	n/a
644.6505	0.1205	1289301	keystroke_t	t	n/a
644.7855	0.0905	1289571	keystroke_Key.enter	Key.enter	n/a
644.8805	8.367	1289761	prompt	n/a	obligations analysts radio lenders\n
645.7755	0.0155	1291551	keystroke_o	o	n/a
645.806	0.15	1291612	keystroke_b	b	n/a
645.9115	0.164	1291823	keystroke_l	l	n/a
646.001	0.12	1292002	keystroke_i	i	n/a
646.361	0.165	1292722	keystroke_c	c	n/a
646.541	0.075	1293082	keystroke_a	a	n/a
646.8105	0.0905	1293621	keystroke_Key.backspace	Key.backspace	n/a
646.961	0.09	1293922	keystroke_Key.backspace	Key.backspace	n/a
647.021	0.12	1294042	keystroke_g	g	n/a
647.111	0.135	1294222	keystroke_a	a	n/a
647.2465	0.104	1294493	keystroke_t	t	n/a
647.2905	0.181	1294581	keystroke_i	i	n/a
647.3355	0.1505	1294671	keystroke_o	o	n/a
647.426	0.135	1294852	keystroke_n	n	n/a
647.546	0.1045	1295092	keystroke_s	s	n/a
647.636	0.09	1295272	keystroke_Key.space	Key.space	n/a
647.831	0.075	1295662	keystroke_a	a	n/a
647.921	0.075	1295842	keystroke_n	n	n/a
648.041	0.09	1296082	keystroke_a	a	n/a
648.461	0.1045	1296922	keystroke_Key.backspace	Key.backspace	n/a
648.746	0.075	1297492	keystroke_l	l	n/a
649.091	0.195	1298182	keystroke_a	a	n/a
649.256	0.09	1298512	keystroke_Key.backspace	Key.backspace	n/a
649.646	0.045	1299292	keystroke_Key.backspace	Key.backspace	n/a
649.7655	0.1355	1299531	keystroke_a	a	n/a
649.946	0.15	1299892	keystroke_l	l	n/a
650.066	0.1055	1300132	keystroke_y	y	n/a
650.1565	0.0895	1300313	keystroke_s	s	n/a
651.1455	0.1205	1302291	keystroke_t	t	n/a
651.221	0.12	1302442	keystroke_s	s	n/a
651.341	0.105	1302682	keystroke_Key.space	Key.space	n/a
651.656	0.0895	1303312	keystroke_r	r	n/a
651.7005	0.09	1303401	keystroke_a	a	n/a
651.836	0.12	1303672	keystroke_d	d	n/a
651.941	0.09	1303882	keystroke_i	i	n/a
652.001	0.135	1304002	keystroke_o	o	n/a
652.121	0.105	1304242	keystroke_Key.space	Key.space	n/a
652.3905	0.091	1304781	keystroke_l	l	n/a
652.466	0.12	1304932	keystroke_e	e	n/a
652.601	0.075	1305202	keystroke_n	n	n/a
652.6905	0.091	1305381	keystroke_d	d	n/a
652.8265	0.119	1305653	keystroke_e	e	n/a
652.901	0.1345	1305802	keystroke_r	r	n/a
653.006	0.15	1306012	keystroke_s	s	n/a
653.141	0.105	1306282	keystroke_Key.enter	Key.enter	n/a
653.2505	5.5015	1306501	prompt	n/a	switches popularity biggest thinking\n
653.966	0.12	1307932	keystroke_s	s	n/a
654.281	0.1055	1308562	keystroke_w	w	n/a
654.371	0.105	1308742	keystroke_i	i	n/a
654.4765	0.1195	1308953	keystroke_t	t	n/a
654.701	0.105	1309402	keystroke_c	c	n/a
654.8215	0.0895	1309643	keystroke_h	h	n/a
654.881	0.135	1309762	keystroke_e	e	n/a
654.956	0.15	1309912	keystroke_s	s	n/a
655.0905	0.0905	1310181	keystroke_Key.space	Key.space	n/a
655.436	0.105	1310872	keystroke_p	p	n/a
655.526	0.165	1311052	keystroke_o	o	n/a
655.706	0.09	1311412	keystroke_p	p	n/a
655.841	0.1045	1311682	keystroke_u	u	n/a
656.036	0.1195	1312072	keystroke_l	l	n/a
656.1405	0.135	1312281	keystroke_a	a	n/a
656.2605	0.1655	1312521	keystroke_r	r	n/a
656.486	0.105	1312972	keystroke_i	i	n/a
656.5455	0.1355	1313091	keystroke_t	t	n/a
656.666	0.075	1313332	keystroke_y	y	n/a
656.726	0.09	1313452	keystroke_Key.space	Key.space	n/a
656.936	0.09	1313872	keystroke_b	b	n/a
656.951	0.09	1313902	keystroke_i	i	n/a
657.116	0.09	1314232	keystroke_g	g	n/a
657.311	0.1345	1314622	keystroke_g	g	n/a
657.3715	0.1945	1314743	keystroke_e	e	n/a
657.4605	0.165	1314921	keystroke_s	s	n/a
657.536	0.12	1315072	keystroke_t	t	n/a
657.641	0.0895	1315282	keystroke_Key.space	Key.space	n/a
657.836	0.1355	1315672	keystroke_t	t	n/a
657.8815	0.105	1315763	keystroke_h	h	n/a
657.956	0.1045	1315912	keystroke_i	i	n/a
658.1055	0.1055	1316211	keystroke_n	n	n/a
658.196	0.045	1316392	keystroke_k	k	n/a
658.346	0.15	1316692	keystroke_i	i	n/a
658.421	0.12	1316842	keystroke_n	n	n/a
658.526	0.1195	1317052	keystroke_g	g	n/a
658.6605	0.09	1317321	keystroke_Key.enter	Key.enter	n/a
658.7555	13.183	1317511	prompt	n/a	designing accompanying hostels raleigh\n
659.471	0.0895	1318942	keystroke_d	d	n/a
659.606	0.1945	1319212	keystroke_e	e	n/a
659.816	0.0595	1319632	keystroke_s	s	n/a
659.831	0.075	1319662	keystroke_i	i	n/a
660.056	0.15	1320112	keystroke_g	g	n/a
660.236	0.105	1320472	keystroke_n	n	n/a
660.386	0.1355	1320772	keystroke_i	i	n/a
660.4455	0.135	1320891	keystroke_n	n	n/a
660.521	0.1505	1321042	keystroke_g	g	n/a
660.672	0.1035	1321344	keystroke_Key.space	Key.space	n/a
661.0755	0.1055	1322151	keystroke_a	a	n/a
661.2255	0.0755	1322451	keystroke_c	c	n/a
661.391	0.15	1322782	keystroke_c	c	n/a
661.556	0.165	1323112	keystroke_o	o	n/a
661.616	0.12	1323232	keystroke_m	m	n/a
661.706	0.165	1323412	keystroke_p	p	n/a
661.856	0.105	1323712	keystroke_n	n	n/a
662.006	0.12	1324012	keystroke_a	a	n/a
662.681	0.09	1325362	keystroke_Key.backspace	Key.backspace	n/a
662.906	0.03	1325812	keystroke_y	y	n/a
663.386	0.0595	1326772	keystroke_Key.backspace	Key.backspace	n/a
663.551	0.0755	1327102	keystroke_Key.backspace	Key.backspace	n/a
663.6415	0.149	1327283	keystroke_a	a	n/a
663.791	0.06	1327582	keystroke_n	n	n/a
663.971	0.045	1327942	keystroke_y	y	n/a
664.0605	0.1655	1328121	keystroke_t	t	n/a
664.151	0.105	1328302	keystroke_h	h	n/a
664.241	0.165	1328482	keystroke_i	i	n/a
664.3305	0.1205	1328661	keystroke_n	n	n/a
664.4215	0.1645	1328843	keystroke_g	g	n/a
664.616	0.0755	1329232	keystroke_Key.space	Key.space	n/a
664.9755	0.0155	1329951	keystroke_Key.backspace	Key.backspace	n/a
665.0805	0.0605	1330161	keystroke_Key.backspace	Key.backspace	n/a
665.2455	0.045	1330491	keystroke_Key.backspace	Key.backspace	n/a
665.396	0.06	1330792	keystroke_Key.backspace	Key.backspace	n/a
665.531	0.075	1331062	keystroke_Key.backspace	Key.backspace	n/a
665.6955	0.1055	1331391	keystroke_Key.backspace	Key.backspace	n/a
