onset	duration	sample	value	key	prompt_text
33.9285	17.4565	67857	prompt	n/a	the quick brown fox jumps over a lazy dog\n
38.477	0.058	76954	keystroke_t	t	n/a
38.595	0.09	77190	keystroke_h	h	n/a
38.805	0.075	77610	keystroke_e	e	n/a
39.8545	0.1205	79709	keystroke_Key.space	Key.space	n/a
40.3805	0.074	80761	keystroke_q	q	n/a
40.5745	0.06	81149	keystroke_u	u	n/a
40.7855	0.06	81571	keystroke_i	i	n/a
40.9655	0.089	81931	keystroke_c	c	n/a
41.0845	0.1955	82169	keystroke_k	k	n/a
41.265	0.12	82530	keystroke_Key.space	Key.space	n/a
41.535	0.06	83070	keystroke_b	b	n/a
41.655	0.075	83310	keystroke_r	r	n/a
41.79	0.09	83580	keystroke_o	o	n/a
42.03	0.1045	84060	keystroke_w	w	n/a
42.1795	0.165	84359	keystroke_n	n	n/a
42.3145	0.12	84629	keystroke_Key.space	Key.space	n/a
42.5095	0.09	85019	keystroke_f	f	n/a
42.6145	0.09	85229	keystroke_o	o	n/a
42.9595	0.09	85919	keystroke_x	x	n/a
43.1545	0.09	86309	keystroke_Key.space	Key.space	n/a
44.205	0.075	88410	keystroke_j	j	n/a
44.4	0.06	88800	keystroke_u	u	n/a
44.925	0.105	89850	keystroke_m	m	n/a
45.135	0.09	90270	keystroke_p	p	n/a
45.3	0.105	90600	keystroke_s	s	n/a
45.495	0.105	90990	keystroke_Key.space	Key.space	n/a
45.795	0.105	91590	keystroke_o	o	n/a
46.02	0.075	92040	keystroke_v	v	n/a
46.23	0.105	92460	keystroke_e	e	n/a
46.29	0.135	92580	keystroke_r	r	n/a
46.455	0.09	92910	keystroke_Key.space	Key.space	n/a
46.575	0.105	93150	keystroke_a	a	n/a
46.74	0.09	93480	keystroke_Key.space	Key.space	n/a
46.9645	0.105	93929	keystroke_l	l	n/a
47.0845	0.105	94169	keystroke_a	a	n/a
47.9245	0.075	95849	keystroke_z	z	n/a
48.2395	0.135	96479	keystroke_y	y	n/a
48.3895	0.1205	96779	keystroke_Key.space	Key.space	n/a
48.66	0.045	97320	keystroke_d	d	n/a
48.735	0.105	97470	keystroke_o	o	n/a
49.02	0.105	98040	keystroke_g	g	n/a
51.3625	0.012	102725	keystroke_Key.enter	Key.enter	n/a
51.3925	24.3225	102785	prompt	n/a	canadian plastic edge messenger\n
52.515	0.075	105030	keystroke_c	c	n/a
52.71	0.09	105420	keystroke_a	a	n/a
52.905	0.06	105810	keystroke_n	n	n/a
52.9795	0.0905	105959	keystroke_a	a	n/a
53.16	0.105	106320	keystroke_d	d	n/a
53.31	0.075	106620	keystroke_i	i	n/a
53.415	0.105	106830	keystroke_a	a	n/a
53.58	0.1645	107160	keystroke_n	n	n/a
53.7595	0.12	107519	keystroke_Key.space	Key.space	n/a
54.195	0.06	108390	keystroke_p	p	n/a
54.39	0.075	108780	keystroke_l	l	n/a
54.525	0.075	109050	keystroke_a	a	n/a
54.96	0.075	109920	keystroke_s	s	n/a
55.1845	0.075	110369	keystroke_t	t	n/a
55.3045	0.09	110609	keystroke_i	i	n/a
55.4995	0.105	110999	keystroke_c	c	n/a
55.6645	0.105	111329	keystroke_Key.space	Key.space	n/a
55.8005	0.09	111601	keystroke_e	e	n/a
56.0095	0.09	112019	keystroke_d	d	n/a
56.2645	0.06	112529	keystroke_g	g	n/a
56.4445	0.075	112889	keystroke_e	e	n/a
56.6245	0.09	113249	keystroke_Key.space	Key.space	n/a
57.5855	0.09	115171	keystroke_m	m	n/a
57.7205	0.0745	115441	keystroke_e	e	n/a
57.945	0.015	115890	keystroke_e	e	n/a
59.3845	0.06	118769	keystroke_Key.backspace	Key.backspace	n/a
59.67	0.075	119340	keystroke_s	s	n/a
59.85	0.0745	119700	keystroke_s	s	n/a
60.1355	0.074	120271	keystroke_e	e	n/a
60.885	0.045	121770	keystroke_n	n	n/a
61.29	0.075	122580	keystroke_g	g	n/a
61.485	0.12	122970	keystroke_e	e	n/a
61.575	0.165	123150	keystroke_r	r	n/a
66.137	0.001	132274	keystroke_Key.backspace	Key.backspace	n/a
66.375	0.075	132750	keystroke_Key.backspace	Key.backspace	n/a
66.63	0.075	133260	keystroke_Key.backspace	Key.backspace	n/a
66.855	0.045	133710	keystroke_Key.backspace	Key.backspace	n/a
67.065	0.06	134130	keystroke_Key.backspace	Key.backspace	n/a
67.335	0.075	134670	keystroke_Key.backspace	Key.backspace	n/a
67.605	0.075	135210	keystroke_Key.backspace	Key.backspace	n/a
72.557	0.028	145114	keystroke_s	s	n/a
72.69	0.075	145380	keystroke_s	s	n/a
73.53	0.06	147060	keystroke_e	e	n/a
74.235	0.075	148470	keystroke_n	n	n/a
74.445	0.075	148890	keystroke_g	g	n/a
74.655	0.105	149310	keystroke_e	e	n/a
74.79	0.09	149580	keystroke_r	r	n/a
75.6445	0.0605	151289	keystroke_Key.enter	Key.enter	n/a
75.7195	9.857	151439	prompt	n/a	katie peer longer comedy\n
76.875	0.09	153750	keystroke_k	k	n/a
77.01	0.075	154020	keystroke_a	a	n/a
77.25	0.105	154500	keystroke_t	t	n/a
77.385	0.075	154770	keystroke_i	i	n/a
77.505	0.09	155010	keystroke_e	e	n/a
78.3905	0.045	156781	keystroke_Key.space	Key.space	n/a
78.6455	0.09	157291	keystroke_p	p	n/a
78.8255	0.03	157651	keystroke_e	e	n/a
78.9605	0.075	157921	keystroke_e	e	n/a
79.1255	0.09	158251	keystroke_r	r	n/a
79.3055	0.104	158611	keystroke_Key.space	Key.space	n/a
79.5295	0.0905	159059	keystroke_l	l	n/a
79.74	0.075	159480	keystroke_o	o	n/a
80.1145	0.09	160229	keystroke_n	n	n/a
80.3245	0.075	160649	keystroke_g	g	n/a
80.5345	0.12	161069	keystroke_e	e	n/a
80.7295	0.105	161459	keystroke_r	r	n/a
81	0.09	162000	keystroke_Key.space	Key.space	n/a
81.18	0.135	162360	keystroke_c	c	n/a
81.315	0.15	162630	keystroke_o	o	n/a
81.435	0.12	162870	keystroke_m	m	n/a
81.63	0.075	163260	keystroke_p	p	n/a
81.795	0.075	163590	keystroke_e	e	n/a
82.59	0.075	165180	keystroke_Key.backspace	Key.backspace	n/a
82.785	0.075	165570	keystroke_Key.backspace	Key.backspace	n/a
83.19	0.075	166380	keystroke_e	e	n/a
83.4	0.105	166800	keystroke_d	d	n/a
83.73	0.075	167460	keystroke_y	y	n/a
85.4845	0.09	170969	keystroke_Key.enter	Key.enter	n/a
85.5795	9.312	171159	prompt	n/a	aids then actions minority\n
86.6845	0.1055	173369	keystroke_a	a	n/a
87.0305	0.059	174061	keystroke_i	i	n/a
87.2105	0.09	174421	keystroke_d	d	n/a
87.6295	0.091	175259	keystroke_s	s	n/a
87.8245	0.105	175649	keystroke_Key.space	Key.space	n/a
88.1245	0.09	176249	keystroke_t	t	n/a
88.2595	0.105	176519	keystroke_h	h	n/a
88.3495	0.105	176699	keystroke_e	e	n/a
88.5155	0.179	177031	keystroke_n	n	n/a
88.6495	0.135	177299	keystroke_Key.space	Key.space	n/a
88.9045	0.06	177809	keystroke_a	a	n/a
89.235	0.105	178470	keystroke_c	c	n/a
89.505	0.06	179010	keystroke_t	t	n/a
89.625	0.06	179250	keystroke_i	i	n/a
89.805	0.045	179610	keystroke_o	o	n/a
89.97	0.0895	179940	keystroke_n	n	n/a
90.0745	0.09	180149	keystroke_s	s	n/a
90.2095	0.09	180419	keystroke_Key.space	Key.space	n/a
90.3895	0.0905	180779	keystroke_m	m	n/a
90.585	0.075	181170	keystroke_i	i	n/a
90.735	0.09	181470	keystroke_n	n	n/a
90.93	0.06	181860	keystroke_i	i	n/a
92.37	0.075	184740	keystroke_Key.backspace	Key.backspace	n/a
92.82	0.06	185640	keystroke_o	o	n/a
93.075	0.09	186150	keystroke_r	r	n/a
93.315	0.06	186630	keystroke_i	i	n/a
93.42	0.09	186840	keystroke_t	t	n/a
93.72	0.06	187440	keystroke_y	y	n/a
94.7995	0.09	189599	keystroke_Key.enter	Key.enter	n/a
94.894	14.9305	189788	prompt	n/a	mali settlement lightweight elsewhere\n
96.885	0.0755	193770	keystroke_m	m	n/a
97.0045	0.091	194009	keystroke_a	a	n/a
97.1405	0.089	194281	keystroke_l	l	n/a
97.335	0.075	194670	keystroke_i	i	n/a
97.65	0.12	195300	keystroke_Key.space	Key.space	n/a
98.16	0.075	196320	keystroke_s	s	n/a
98.355	0.06	196710	keystroke_e	e	n/a
98.58	0.0745	197160	keystroke_t	t	n/a
98.7595	0.06	197519	keystroke_t	t	n/a
98.9245	0.075	197849	keystroke_l	l	n/a
99.0295	0.09	198059	keystroke_e	e	n/a
99.2245	0.105	198449	keystroke_m	m	n/a
99.3745	0.075	198749	keystroke_t	t	n/a
99.5245	0.09	199049	keystroke_n	n	n/a
100.6055	0.06	201211	keystroke_Key.backspace	Key.backspace	n/a
100.7855	0.045	201571	keystroke_Key.backspace	Key.backspace	n/a
101.865	0.09	203730	keystroke_e	e	n/a
102.705	0.06	205410	keystroke_n	n	n/a
102.87	0.09	205740	keystroke_t	t	n/a
103.005	0.12	206010	keystroke_Key.space	Key.space	n/a
103.26	0.075	206520	keystroke_l	l	n/a
103.5	0.075	207000	keystroke_i	i	n/a
103.65	0.09	207300	keystroke_g	g	n/a
103.77	0.075	207540	keystroke_h	h	n/a
103.875	0.075	207750	keystroke_t	t	n/a
104.1145	0.061	208229	keystroke_w	w	n/a
104.5055	0.074	209011	keystroke_e	e	n/a
104.6395	0.075	209279	keystroke_i	i	n/a
104.7755	0.089	209551	keystroke_g	g	n/a
104.8945	0.061	209789	keystroke_h	h	n/a
104.9845	0.076	209969	keystroke_t	t	n/a
105.0895	0.121	210179	keystroke_Key.space	Key.space	n/a
106.02	0.0895	212040	keystroke_e	e	n/a
106.1845	0.09	212369	keystroke_l	l	n/a
106.3345	0.06	212669	keystroke_s	s	n/a
106.4995	0.075	212999	keystroke_e	e	n/a
106.7545	0.0905	213509	keystroke_w	w	n/a
107.34	0.075	214680	keystroke_h	h	n/a
107.445	0.105	214890	keystroke_e	e	n/a
107.595	0.135	215190	keystroke_r	r	n/a
107.715	0.09	215430	keystroke_e	e	n/a
109.725	0.09	219450	keystroke_Key.enter	Key.enter	n/a
109.829	10.435	219658	prompt	n/a	residential italian strong lobby\n
111.2845	0.09	222569	keystroke_r	r	n/a
111.4045	0.105	222809	keystroke_e	e	n/a
111.6595	0.06	223319	keystroke_s	s	n/a
111.8845	0.045	223769	keystroke_i	i	n/a
111.9595	0.12	223919	keystroke_d	d	n/a
112.1395	0.0755	224279	keystroke_e	e	n/a
112.2895	0.09	224579	keystroke_n	n	n/a
112.4095	0.075	224819	keystroke_t	t	n/a
112.5445	0.09	225089	keystroke_i	i	n/a
112.6355	0.074	225271	keystroke_a	a	n/a
112.8145	0.105	225629	keystroke_l	l	n/a
113.4145	0.045	226829	keystroke_Key.space	Key.space	n/a
113.6245	0.075	227249	keystroke_i	i	n/a
113.8345	0.06	227669	keystroke_t	t	n/a
114.045	0.06	228090	keystroke_a	a	n/a
114.165	0.09	228330	keystroke_l	l	n/a
114.39	0.075	228780	keystroke_i	i	n/a
114.525	0.09	229050	keystroke_a	a	n/a
114.645	0.1795	229290	keystroke_n	n	n/a
114.8095	0.12	229619	keystroke_Key.space	Key.space	n/a
115.215	0.09	230430	keystroke_s	s	n/a
115.515	0.06	231030	keystroke_t	t	n/a
115.71	0.06	231420	keystroke_r	r	n/a
115.875	0.06	231750	keystroke_o	o	n/a
116.1145	0.09	232229	keystroke_n	n	n/a
116.2955	0.045	232591	keystroke_g	g	n/a
116.3845	0.075	232769	keystroke_Key.space	Key.space	n/a
116.5945	0.09	233189	keystroke_l	l	n/a
116.8045	0.075	233609	keystroke_o	o	n/a
117.21	0.045	234420	keystroke_b	b	n/a
117.375	0.045	234750	keystroke_b	b	n/a
117.555	0.105	235110	keystroke_y	y	n/a
120.2425	0.012	240485	keystroke_Key.enter	Key.enter	n/a
120.269	13.9325	240538	prompt	n/a	pittsburgh love wherever honduras\n
121.4405	0.074	242881	keystroke_p	p	n/a
121.8005	0.045	243601	keystroke_i	i	n/a
122.2045	0.06	244409	keystroke_t	t	n/a
122.3845	0.045	244769	keystroke_t	t	n/a
122.5505	0.104	245101	keystroke_s	s	n/a
122.9845	0.061	245969	keystroke_b	b	n/a
123.15	0.0905	246300	keystroke_u	u	n/a
123.2855	0.09	246571	keystroke_r	r	n/a
123.5255	0.105	247051	keystroke_g	g	n/a
123.7355	0.06	247471	keystroke_h	h	n/a
124.5455	0.0895	249091	keystroke_Key.space	Key.space	n/a
128.057	0.001	256114	keystroke_l	l	n/a
128.1745	0.075	256349	keystroke_o	o	n/a
128.2645	0.09	256529	keystroke_v	v	n/a
128.4745	0.09	256949	keystroke_e	e	n/a
128.6695	0.075	257339	keystroke_Key.space	Key.space	n/a
128.8795	0.075	257759	keystroke_w	w	n/a
129.0295	0.075	258059	keystroke_h	h	n/a
129.1195	0.09	258239	keystroke_e	e	n/a
129.945	0.075	259890	keystroke_r	r	n/a
130.245	0.075	260490	keystroke_e	e	n/a
130.62	0.06	261240	keystroke_v	v	n/a
130.77	0.105	261540	keystroke_e	e	n/a
130.92	0.12	261840	keystroke_r	r	n/a
131.16	0.075	262320	keystroke_Key.space	Key.space	n/a
132.0305	0.06	264061	keystroke_h	h	n/a
132.195	0.09	264390	keystroke_o	o	n/a
132.3905	0.105	264781	keystroke_n	n	n/a
132.5255	0.12	265051	keystroke_d	d	n/a
132.6905	0.0745	265381	keystroke_u	u	n/a
132.825	0.06	265650	keystroke_r	r	n/a
132.99	0.12	265980	keystroke_a	a	n/a
133.155	0.105	266310	keystroke_s	s	n/a
134.115	0.075	268230	keystroke_Key.enter	Key.enter	n/a
134.2085	27.2315	268417	prompt	n/a	strategy fisheries shoppers mozambique\n
141.032	0.001	282064	keystroke_1	1	n/a
141.12	0.075	282240	keystroke_1	1	n/a
143.8375	0.148	287675	keystroke_Key.shift_r	Key.shift_r	n/a
143.8955	0.105	287791	keystroke_:	:	n/a
144.7955	0.09	289591	keystroke_4	4	n/a
145.035	0.075	290070	keystroke_0	0	n/a
148.428	0.012	296856	keystroke_s	s	n/a
148.591	0.074	297182	keystroke_t	t	n/a
148.816	0.059	297632	keystroke_r	r	n/a
149.0105	0.0895	298021	keystroke_a	a	n/a
149.31	0.06	298620	keystroke_t	t	n/a
149.43	0.09	298860	keystroke_e	e	n/a
149.655	0.06	299310	keystroke_g	g	n/a
149.835	0.09	299670	keystroke_y	y	n/a
150.09	0.12	300180	keystroke_Key.space	Key.space	n/a
151.2305	0.06	302461	keystroke_f	f	n/a
151.425	0.075	302850	keystroke_i	i	n/a
151.545	0.09	303090	keystroke_s	s	n/a
151.74	0.06	303480	keystroke_h	h	n/a
151.8905	0.105	303781	keystroke_e	e	n/a
152.0405	0.0895	304081	keystroke_r	r	n/a
152.25	0.075	304500	keystroke_i	i	n/a
152.34	0.09	304680	keystroke_e	e	n/a
152.625	0.06	305250	keystroke_s	s	n/a
152.82	0.105	305640	keystroke_Key.space	Key.space	n/a
153.1055	0.06	306211	keystroke_s	s	n/a
153.4955	0.06	306991	keystroke_h	h	n/a
153.7205	0.06	307441	keystroke_o	o	n/a
153.9455	0.06	307891	keystroke_p	p	n/a
154.0805	0.0745	308161	keystroke_p	p	n/a
154.23	0.135	308460	keystroke_e	e	n/a
154.335	0.12	308670	keystroke_r	r	n/a
154.62	0.075	309240	keystroke_s	s	n/a
154.8	0.105	309600	keystroke_Key.space	Key.space	n/a
155.355	0.105	310710	keystroke_m	m	n/a
156.0755	0.0895	312151	keystroke_o	o	n/a
156.4355	0.075	312871	keystroke_z	z	n/a
157.53	0.0755	315060	keystroke_a	a	n/a
158.7005	0.015	317401	keystroke_m	m	n/a
158.8955	0.075	317791	keystroke_b	b	n/a
159.1205	0.09	318241	keystroke_i	i	n/a
159.5705	0.0595	319141	keystroke_q	q	n/a
159.765	0.09	319530	keystroke_u	u	n/a
159.93	0.1045	319860	keystroke_e	e	n/a
161.3705	0.06	322741	keystroke_Key.enter	Key.enter	n/a
161.445	9.4745	322890	prompt	n/a	young fort next counties\n
163.005	0.075	326010	keystroke_y	y	n/a
163.155	0.075	326310	keystroke_o	o	n/a
163.365	0.06	326730	keystroke_u	u	n/a
163.56	0.075	327120	keystroke_n	n	n/a
163.755	0.09	327510	keystroke_f	f	n/a
164.985	0.03	329970	keystroke_Key.backspace	Key.backspace	n/a
165.24	0.105	330480	keystroke_g	g	n/a
165.93	0.09	331860	keystroke_Key.space	Key.space	n/a
166.5595	0.09	333119	keystroke_f	f	n/a
166.7395	0.076	333479	keystroke_o	o	n/a
166.86	0.075	333720	keystroke_r	r	n/a
167.055	0.0605	334110	keystroke_t	t	n/a
167.2055	0.09	334411	keystroke_Key.space	Key.space	n/a
167.3855	0.12	334771	keystroke_n	n	n/a
167.5205	0.0895	335041	keystroke_e	e	n/a
167.97	0.06	335940	keystroke_x	x	n/a
168.2555	0.075	336511	keystroke_t	t	n/a
168.4355	0.105	336871	keystroke_Key.space	Key.space	n/a
169.0355	0.12	338071	keystroke_c	c	n/a
169.2005	0.12	338401	keystroke_o	o	n/a
169.3055	0.09	338611	keystroke_u	u	n/a
169.5155	0.09	339031	keystroke_n	n	n/a
169.6205	0.075	339241	keystroke_t	t	n/a
169.7555	0.09	339511	keystroke_i	i	n/a
169.9055	0.06	339811	keystroke_e	e	n/a
170.1	0.09	340200	keystroke_s	s	n/a
170.85	0.06	341700	keystroke_Key.enter	Key.enter	n/a
170.9245	12.865	341849	prompt	n/a	teens regarded until allah\n
172.0805	0.074	344161	keystroke_t	t	n/a
172.2295	0.09	344459	keystroke_e	e	n/a
172.4245	0.075	344849	keystroke_e	e	n/a
172.6495	0.09	345299	keystroke_n	n	n/a
172.7845	0.09	345569	keystroke_s	s	n/a
172.9495	0.1055	345899	keystroke_Key.space	Key.space	n/a
173.28	0.09	346560	keystroke_r	r	n/a
173.34	0.105	346680	keystroke_e	e	n/a
173.58	0.105	347160	keystroke_a	a	n/a
173.835	0.03	347670	keystroke_g	g	n/a
174.885	0.03	349770	keystroke_Key.backspace	Key.backspace	n/a
175.065	0.075	350130	keystroke_Key.backspace	Key.backspace	n/a
175.665	0.06	351330	keystroke_h	h	n/a
175.8	0.045	351600	keystroke_a	a	n/a
176.9695	0.061	353939	keystroke_Key.backspace	Key.backspace	n/a
177.1505	0.075	354301	keystroke_Key.backspace	Key.backspace	n/a
177.99	0.075	355980	keystroke_g	g	n/a
178.1255	0.074	356251	keystroke_a	a	n/a
178.3355	0.06	356671	keystroke_r	r	n/a
178.5305	0.12	357061	keystroke_d	d	n/a
178.6355	0.15	357271	keystroke_e	e	n/a
178.7705	0.135	357541	keystroke_d	d	n/a
179.025	0.0905	358050	keystroke_Key.space	Key.space	n/a
180.135	0.045	360270	keystroke_u	u	n/a
180.21	0.105	360420	keystroke_n	n	n/a
180.375	0.09	360750	keystroke_t	t	n/a
180.48	0.06	360960	keystroke_i	i	n/a
180.69	0.15	361380	keystroke_l	l	n/a
180.825	0.135	361650	keystroke_Key.space	Key.space	n/a
181.065	0.105	362130	keystroke_a	a	n/a
181.215	0.06	362430	keystroke_l	l	n/a
181.35	0.1045	362700	keystroke_l	l	n/a
181.4845	0.15	362969	keystroke_a	a	n/a
181.6645	0.06	363329	keystroke_s	s	n/a
182.4745	0.075	364949	keystroke_Key.backspace	Key.backspace	n/a
183.0595	0.076	366119	keystroke_h	h	n/a
183.69	0.09	367380	keystroke_Key.enter	Key.enter	n/a
183.794	13.4805	367588	prompt	n/a	platinum residential extends effects\n
185.025	0.075	370050	keystroke_p	p	n/a
185.175	0.12	370350	keystroke_l	l	n/a
185.4	0.045	370800	keystroke_a	a	n/a
185.64	0.06	371280	keystroke_t	t	n/a
185.91	0.075	371820	keystroke_i	i	n/a
186.135	0.06	372270	keystroke_u	u	n/a
187.395	0.075	374790	keystroke_Key.backspace	Key.backspace	n/a
187.995	0.045	375990	keystroke_n	n	n/a
188.19	0.06	376380	keystroke_u	u	n/a
188.385	0.09	376770	keystroke_m	m	n/a
188.715	0.09	377430	keystroke_Key.space	Key.space	n/a
189.15	0.105	378300	keystroke_r	r	n/a
189.225	0.105	378450	keystroke_e	e	n/a
189.45	0.09	378900	keystroke_s	s	n/a
189.735	0.075	379470	keystroke_i	i	n/a
189.855	0.09	379710	keystroke_d	d	n/a
190.05	0.06	380100	keystroke_e	e	n/a
190.185	0.075	380370	keystroke_n	n	n/a
190.305	0.075	380610	keystroke_t	t	n/a
190.44	0.075	380880	keystroke_i	i	n/a
190.5	0.09	381000	keystroke_a	a	n/a
190.695	0.075	381390	keystroke_l	l	n/a
191.04	0.09	382080	keystroke_Key.space	Key.space	n/a
191.73	0.09	383460	keystroke_e	e	n/a
192.06	0.105	384120	keystroke_x	x	n/a
192.36	0.075	384720	keystroke_t	t	n/a
192.465	0.09	384930	keystroke_e	e	n/a
192.645	0.105	385290	keystroke_n	n	n/a
192.765	0.12	385530	keystroke_d	d	n/a
192.96	0.075	385920	keystroke_s	s	n/a
193.155	0.105	386310	keystroke_Key.space	Key.space	n/a
194.13	0.075	388260	keystroke_e	e	n/a
194.415	0.09	388830	keystroke_f	f	n/a
194.61	0.075	389220	keystroke_f	f	n/a
194.7	0.09	389400	keystroke_e	e	n/a
194.91	0.06	389820	keystroke_c	c	n/a
195.255	0.06	390510	keystroke_s	s	n/a
196.17	0.06	392340	keystroke_Key.backspace	Key.backspace	n/a
196.275	0.12	392550	keystroke_t	t	n/a
196.365	0.1045	392730	keystroke_s	s	n/a
197.19	0.075	394380	keystroke_Key.enter	Key.enter	n/a
197.279	12.7005	394558	prompt	n/a	soviet nested absorption briefly\n
198.5245	0.045	397049	keystroke_s	s	n/a
198.8095	0.06	397619	keystroke_o	o	n/a
199.0645	0.075	398129	keystroke_v	v	n/a
199.2145	0.075	398429	keystroke_i	i	n/a
199.3195	0.075	398639	keystroke_e	e	n/a
199.5145	0.0905	399029	keystroke_t	t	n/a
199.6795	0.0905	399359	keystroke_Key.space	Key.space	n/a
200.4155	0.075	400831	keystroke_n	n	n/a
200.5205	0.06	401041	keystroke_e	e	n/a
200.7455	0.075	401491	keystroke_s	s	n/a
200.9995	0.061	401999	keystroke_t	t	n/a
201.1045	0.091	402209	keystroke_e	e	n/a
201.615	0.09	403230	keystroke_d	d	n/a
201.84	0.105	403680	keystroke_Key.space	Key.space	n/a
202.545	0.09	405090	keystroke_a	a	n/a
204.3455	0.075	408691	keystroke_b	b	n/a
204.8255	0.045	409651	keystroke_s	s	n/a
205.0655	0.075	410131	keystroke_o	o	n/a
205.26	0.0755	410520	keystroke_r	r	n/a
205.4555	0.0745	410911	keystroke_p	p	n/a
205.74	0.0605	411480	keystroke_t	t	n/a
205.8755	0.0595	411751	keystroke_i	i	n/a
206.0405	0.0595	412081	keystroke_o	o	n/a
206.22	0.12	412440	keystroke_n	n	n/a
206.3705	0.1495	412741	keystroke_Key.space	Key.space	n/a
207.4795	0.075	414959	keystroke_b	b	n/a
207.6305	0.09	415261	keystroke_r	r	n/a
207.7955	0.0895	415591	keystroke_i	i	n/a
208.095	0.09	416190	keystroke_e	e	n/a
208.335	0.105	416670	keystroke_f	f	n/a
208.635	0.075	417270	keystroke_l	l	n/a
208.905	0.09	417810	keystroke_y	y	n/a
209.115	0.12	418230	keystroke_Key.space	Key.space	n/a
209.91	0.06	419820	keystroke_Key.enter	Key.enter	n/a
209.9845	10.5395	419969	prompt	n/a	named chem toner unwrap\n
211.3795	0.06	422759	keystroke_n	n	n/a
211.4545	0.061	422909	keystroke_a	a	n/a
211.575	0.0755	423150	keystroke_m	m	n/a
211.6655	0.1045	423331	keystroke_e	e	n/a
211.815	0.135	423630	keystroke_d	d	n/a
212.01	0.0905	424020	keystroke_Key.space	Key.space	n/a
212.595	0.06	425190	keystroke_c	c	n/a
212.76	0.06	425520	keystroke_h	h	n/a
212.925	0.06	425850	keystroke_e	e	n/a
213.105	0.0745	426210	keystroke_m	m	n/a
213.4345	0.105	426869	keystroke_Key.space	Key.space	n/a
214.2595	0.03	428519	keystroke_o	o	n/a
214.3645	0.09	428729	keystroke_t	t	n/a
215.31	0.03	430620	keystroke_Key.backspace	Key.backspace	n/a
215.475	0.045	430950	keystroke_Key.backspace	Key.backspace	n/a
215.625	0.06	431250	keystroke_t	t	n/a
216.69	0.075	433380	keystroke_o	o	n/a
216.915	0.075	433830	keystroke_n	n	n/a
217.065	0.12	434130	keystroke_e	e	n/a
217.2	0.1355	434400	keystroke_r	r	n/a
217.5455	0.09	435091	keystroke_Key.space	Key.space	n/a
218.715	0.075	437430	keystroke_u	u	n/a
218.91	0.075	437820	keystroke_n	n	n/a
219.03	0.09	438060	keystroke_w	w	n/a
219.27	0.075	438540	keystroke_r	r	n/a
219.42	0.12	438840	keystroke_a	a	n/a
219.585	0.09	439170	keystroke_p	p	n/a
219.825	0.12	439650	keystroke_Key.space	Key.space	n/a
220.4095	0.105	440819	keystroke_Key.enter	Key.enter	n/a
220.5285	19.664	441057	prompt	n/a	contractors pattern occupied workshops\n
221.685	0.075	443370	keystroke_c	c	n/a
221.835	0.075	443670	keystroke_o	o	n/a
222.09	0.105	444180	keystroke_n	n	n/a
222.225	0.075	444450	keystroke_t	t	n/a
222.7205	0.075	445441	keystroke_a	a	n/a
224.22	0.075	448440	keystroke_Key.backspace	Key.backspace	n/a
224.37	0.12	448740	keystroke_r	r	n/a
224.475	0.12	448950	keystroke_a	a	n/a
224.76	0.075	449520	keystroke_c	c	n/a
224.9845	0.076	449969	keystroke_t	t	n/a
225.1055	0.09	450211	keystroke_e	e	n/a
227.0845	0.06	454169	keystroke_Key.backspace	Key.backspace	n/a
227.6695	0.0905	455339	keystroke_o	o	n/a
227.79	0.09	455580	keystroke_r	r	n/a
228	0.09	456000	keystroke_s	s	n/a
228.165	0.105	456330	keystroke_Key.space	Key.space	n/a
228.81	0.075	457620	keystroke_p	p	n/a
228.945	0.075	457890	keystroke_a	a	n/a
229.275	0.045	458550	keystroke_t	t	n/a
229.395	0.09	458790	keystroke_t	t	n/a
229.5595	0.12	459119	keystroke_e	e	n/a
229.6495	0.12	459299	keystroke_r	r	n/a
229.7705	0.1795	459541	keystroke_n	n	n/a
229.965	0.1345	459930	keystroke_Key.space	Key.space	n/a
235.442	0.013	470884	keystroke_o	o	n/a
235.56	0.075	471120	keystroke_c	c	n/a
235.725	0.09	471450	keystroke_c	c	n/a
235.935	0.09	471870	keystroke_u	u	n/a
236.1745	0.075	472349	keystroke_p	p	n/a
236.3545	0.105	472709	keystroke_i	i	n/a
236.5645	0.09	473129	keystroke_e	e	n/a
236.7445	0.136	473489	keystroke_d	d	n/a
236.9695	0.0905	473939	keystroke_Key.space	Key.space	n/a
237.5705	0.105	475141	keystroke_w	w	n/a
237.8105	0.09	475621	keystroke_o	o	n/a
238.0355	0.075	476071	keystroke_r	r	n/a
238.2755	0.09	476551	keystroke_k	k	n/a
238.5455	0.105	477091	keystroke_s	s	n/a
238.7255	0.075	477451	keystroke_h	h	n/a
238.9655	0.0745	477931	keystroke_o	o	n/a
239.175	0.075	478350	keystroke_p	p	n/a
239.34	0.12	478680	keystroke_s	s	n/a
240.0895	0.09	480179	keystroke_Key.enter	Key.enter	n/a
240.2015	11.4175	480403	prompt	n/a	obtained atmospheric professional observed\n
241.44	0.06	482880	keystroke_o	o	n/a
241.695	0.075	483390	keystroke_b	b	n/a
241.83	0.075	483660	keystroke_t	t	n/a
242.025	0.075	484050	keystroke_a	a	n/a
242.115	0.0745	484230	keystroke_i	i	n/a
242.3095	0.06	484619	keystroke_n	n	n/a
242.4145	0.15	484829	keystroke_e	e	n/a
242.5345	0.136	485069	keystroke_d	d	n/a
242.6845	0.105	485369	keystroke_Key.space	Key.space	n/a
243.105	0.03	486210	keystroke_a	a	n/a
243.36	0.09	486720	keystroke_t	t	n/a
243.525	0.09	487050	keystroke_m	m	n/a
243.72	0.075	487440	keystroke_o	o	n/a
243.9	0.09	487800	keystroke_s	s	n/a
244.14	0.075	488280	keystroke_p	p	n/a
244.38	0.075	488760	keystroke_h	h	n/a
244.5145	0.105	489029	keystroke_e	e	n/a
244.7545	0.09	489509	keystroke_r	r	n/a
245.145	0.075	490290	keystroke_i	i	n/a
245.385	0.12	490770	keystroke_c	c	n/a
245.61	0.09	491220	keystroke_Key.space	Key.space	n/a
246.81	0.075	493620	keystroke_p	p	n/a
246.99	0.075	493980	keystroke_r	r	n/a
247.17	0.045	494340	keystroke_o	o	n/a
247.4105	0.0745	494821	keystroke_f	f	n/a
247.5755	0.0745	495151	keystroke_e	e	n/a
247.8	0.0605	495600	keystroke_s	s	n/a
247.9655	0.0745	495931	keystroke_s	s	n/a
248.1305	0.0595	496261	keystroke_i	i	n/a
248.2955	0.045	496591	keystroke_o	o	n/a
248.4605	0.0745	496921	keystroke_n	n	n/a
248.5955	0.075	497191	keystroke_a	a	n/a
248.6855	0.1945	497371	keystroke_l	l	n/a
248.82	0.165	497640	keystroke_Key.space	Key.space	n/a
249.465	0.075	498930	keystroke_o	o	n/a
249.855	0.075	499710	keystroke_b	b	n/a
250.0345	0.09	500069	keystroke_s	s	n/a
250.2295	0.09	500459	keystroke_e	e	n/a
250.3645	0.12	500729	keystroke_r	r	n/a
250.6945	0.046	501389	keystroke_v	v	n/a
250.8455	0.075	501691	keystroke_e	e	n/a
251.0555	0.074	502111	keystroke_d	d	n/a
251.2045	0.076	502409	keystroke_Key.space	Key.space	n/a
251.5345	0.075	503069	keystroke_Key.enter	Key.enter	n/a
251.624	11.5005	503248	prompt	n/a	decor market bishop museums\n
253.095	0.09	506190	keystroke_d	d	n/a
253.245	0.09	506490	keystroke_e	e	n/a
253.695	0.105	507390	keystroke_c	c	n/a
253.995	0.075	507990	keystroke_o	o	n/a
254.16	0.09	508320	keystroke_r	r	n/a
254.355	0.09	508710	keystroke_Key.space	Key.space	n/a
254.61	0.09	509220	keystroke_m	m	n/a
254.73	0.105	509460	keystroke_a	a	n/a
255.015	0.075	510030	keystroke_r	r	n/a
255.24	0.075	510480	keystroke_k	k	n/a
255.375	0.0895	510750	keystroke_e	e	n/a
255.5995	0.09	511199	keystroke_t	t	n/a
255.7795	0.06	511559	keystroke_Key.space	Key.space	n/a
256.0955	0.0745	512191	keystroke_b	b	n/a
256.35	0.015	512700	keystroke_i	i	n/a
256.395	0.075	512790	keystroke_s	s	n/a
256.53	0.075	513060	keystroke_h	h	n/a
256.74	0.075	513480	keystroke_o	o	n/a
256.935	0.075	513870	keystroke_p	p	n/a
257.145	0.09	514290	keystroke_Key.space	Key.space	n/a
257.775	0.105	515550	keystroke_m	m	n/a
258.075	0.06	516150	keystroke_u	u	n/a
258.225	0.09	516450	keystroke_s	s	n/a
258.435	0.09	516870	keystroke_e	e	n/a
258.765	0.075	517530	keystroke_u	u	n/a
259.155	0.105	518310	keystroke_m	m	n/a
259.485	0.0905	518970	keystroke_Key.space	Key.space	n/a
260.9095	0.091	521819	keystroke_Key.backspace	Key.backspace	n/a
261.2105	0.075	522421	keystroke_s	s	n/a
262.9955	0.1195	525991	keystroke_Key.enter	Key.enter	n/a
263.129	13.7235	526258	prompt	n/a	garage cradle captain arkansas\n
264.555	0.06	529110	keystroke_g	g	n/a
264.915	0.12	529830	keystroke_a	a	n/a
265.2	0.09	530400	keystroke_r	r	n/a
265.41	0.12	530820	keystroke_a	a	n/a
265.59	0.09	531180	keystroke_g	g	n/a
265.755	0.075	531510	keystroke_e	e	n/a
265.905	0.12	531810	keystroke_Key.space	Key.space	n/a
267.1795	0.1055	534359	keystroke_c	c	n/a
267.435	0.045	534870	keystroke_r	r	n/a
268.62	0.12	537240	keystroke_a	a	n/a
268.8	0.15	537600	keystroke_d	d	n/a
269.3555	0.09	538711	keystroke_l	l	n/a
269.4905	0.105	538981	keystroke_e	e	n/a
269.6705	0.105	539341	keystroke_Key.space	Key.space	n/a
270.4645	0.075	540929	keystroke_c	c	n/a
270.6445	0.0905	541289	keystroke_a	a	n/a
271.02	0.0895	542040	keystroke_p	p	n/a
271.5745	0.105	543149	keystroke_t	t	n/a
271.785	0.09	543570	keystroke_a	a	n/a
271.905	0.075	543810	keystroke_i	i	n/a
272.13	0.18	544260	keystroke_n	n	n/a
272.295	0.12	544590	keystroke_Key.space	Key.space	n/a
272.9245	0.0905	545849	keystroke_a	a	n/a
273.4205	0.06	546841	keystroke_r	r	n/a
273.6905	0.075	547381	keystroke_k	k	n/a
273.8545	0.106	547709	keystroke_a	a	n/a
274.0345	0.0755	548069	keystroke_n	n	n/a
274.14	0.105	548280	keystroke_s	s	n/a
274.365	0.03	548730	keystroke_e	e	n/a
275.5945	0.0905	551189	keystroke_Key.backspace	Key.backspace	n/a
275.73	0.15	551460	keystroke_a	a	n/a
275.925	0.105	551850	keystroke_s	s	n/a
276.795	0.045	553590	keystroke_Key.enter	Key.enter	n/a
276.862	9.5005	553724	prompt	n/a	cadillac hoping assets floating\n
278.2055	0.09	556411	keystroke_c	c	n/a
278.4155	0.075	556831	keystroke_a	a	n/a
278.595	0.09	557190	keystroke_d	d	n/a
278.805	0.075	557610	keystroke_i	i	n/a
279.03	0.06	558060	keystroke_l	l	n/a
279.165	0.09	558330	keystroke_l	l	n/a
279.33	0.105	558660	keystroke_a	a	n/a
279.885	0.105	559770	keystroke_c	c	n/a
280.35	0.0895	560700	keystroke_Key.space	Key.space	n/a
280.8005	0.06	561601	keystroke_h	h	n/a
280.965	0.075	561930	keystroke_o	o	n/a
281.16	0.06	562320	keystroke_p	p	n/a
281.3405	0.06	562681	keystroke_i	i	n/a
281.5205	0.09	563041	keystroke_n	n	n/a
281.7305	0.12	563461	keystroke_g	g	n/a
282.1055	0.075	564211	keystroke_Key.space	Key.space	n/a
282.3005	0.105	564601	keystroke_a	a	n/a
282.4955	0.075	564991	keystroke_s	s	n/a
282.6605	0.075	565321	keystroke_s	s	n/a
282.8405	0.06	565681	keystroke_e	e	n/a
283.1555	0.09	566311	keystroke_t	t	n/a
283.3505	0.105	566701	keystroke_s	s	n/a
283.5605	0.105	567121	keystroke_Key.space	Key.space	n/a
284.1755	0.09	568351	keystroke_f	f	n/a
284.3255	0.075	568651	keystroke_l	l	n/a
284.5055	0.075	569011	keystroke_o	o	n/a
284.6255	0.105	569251	keystroke_a	a	n/a
284.9105	0.09	569821	keystroke_t	t	n/a
285.0305	0.06	570061	keystroke_i	i	n/a
285.2255	0.06	570451	keystroke_n	n	n/a
285.3155	0.105	570631	keystroke_g	g	n/a
285.4355	0.105	570871	keystroke_Key.space	Key.space	n/a
286.2605	0.09	572521	keystroke_Key.enter	Key.enter	n/a
286.373	8.3935	572746	prompt	n/a	airlines are hawaiian reef\n
288.0755	0.09	576151	keystroke_a	a	n/a
288.3755	0.075	576751	keystroke_i	i	n/a
288.4805	0.09	576961	keystroke_r	r	n/a
288.6305	0.09	577261	keystroke_l	l	n/a
288.8555	0.06	577711	keystroke_i	i	n/a
289.0355	0.09	578071	keystroke_n	n	n/a
289.1405	0.045	578281	keystroke_e	e	n/a
289.3505	0.075	578701	keystroke_s	s	n/a
289.5455	0.09	579091	keystroke_Key.space	Key.space	n/a
289.8905	0.075	579781	keystroke_a	a	n/a
290.085	0.135	580170	keystroke_r	r	n/a
290.16	0.12	580320	keystroke_e	e	n/a
290.34	0.075	580680	keystroke_Key.space	Key.space	n/a
290.565	0.09	581130	keystroke_h	h	n/a
290.745	0.06	581490	keystroke_a	a	n/a
291.045	0.1055	582090	keystroke_w	w	n/a
291.285	0.12	582570	keystroke_a	a	n/a
291.54	0.075	583080	keystroke_i	i	n/a
292.455	0.09	584910	keystroke_i	i	n/a
292.635	0.105	585270	keystroke_a	a	n/a
292.8	0.165	585600	keystroke_n	n	n/a
292.98	0.1355	585960	keystroke_Key.space	Key.space	n/a
293.4305	0.105	586861	keystroke_r	r	n/a
293.61	0.09	587220	keystroke_e	e	n/a
293.82	0.075	587640	keystroke_e	e	n/a
293.985	0.135	587970	keystroke_f	f	n/a
294.645	0.12	589290	keystroke_Key.enter	Key.enter	n/a
294.77	8.482	589540	prompt	n/a	dealt budget branches brought\n
295.995	0.135	591990	keystroke_d	d	n/a
296.085	0.1345	592170	keystroke_e	e	n/a
296.295	0.105	592590	keystroke_a	a	n/a
296.4745	0.076	592949	keystroke_l	l	n/a
296.6705	0.09	593341	keystroke_t	t	n/a
296.8655	0.089	593731	keystroke_Key.space	Key.space	n/a
297.8705	0.09	595741	keystroke_b	b	n/a
298.0355	0.089	596071	keystroke_u	u	n/a
298.1695	0.12	596339	keystroke_d	d	n/a
298.3495	0.075	596699	keystroke_g	g	n/a
298.4845	0.091	596969	keystroke_e	e	n/a
298.6495	0.15	597299	keystroke_t	t	n/a
298.7695	0.15	597539	keystroke_Key.space	Key.space	n/a
299.49	0.06	598980	keystroke_b	b	n/a
299.565	0.15	599130	keystroke_r	r	n/a
299.7	0.12	599400	keystroke_a	a	n/a
299.88	0.105	599760	keystroke_n	n	n/a
300.0305	0.1195	600061	keystroke_c	c	n/a
300.18	0.075	600360	keystroke_h	h	n/a
300.3	0.09	600600	keystroke_e	e	n/a
300.57	0.075	601140	keystroke_s	s	n/a
300.75	0.09	601500	keystroke_Key.space	Key.space	n/a
301.755	0.06	603510	keystroke_b	b	n/a
301.845	0.09	603690	keystroke_r	r	n/a
302.07	0.135	604140	keystroke_o	o	n/a
302.19	0.105	604380	keystroke_u	u	n/a
302.34	0.105	604680	keystroke_g	g	n/a
302.43	0.09	604860	keystroke_h	h	n/a
302.565	0.09	605130	keystroke_t	t	n/a
303.165	0.075	606330	keystroke_Key.enter	Key.enter	n/a
303.2565	8.8735	606513	prompt	n/a	diploma taste wildlife gray\n
304.29	0.105	608580	keystroke_d	d	n/a
304.5	0.06	609000	keystroke_i	i	n/a
304.875	0.06	609750	keystroke_p	p	n/a
305.1	0.09	610200	keystroke_l	l	n/a
305.625	0.06	611250	keystroke_o	o	n/a
305.9395	0.09	611879	keystroke_m	m	n/a
306.0895	0.076	612179	keystroke_a	a	n/a
306.2855	0.09	612571	keystroke_Key.space	Key.space	n/a
307.2755	0.149	614551	keystroke_t	t	n/a
307.5305	0.089	615061	keystroke_a	a	n/a
307.7095	0.091	615419	keystroke_s	s	n/a
308.01	0.09	616020	keystroke_t	t	n/a
308.1455	0.0745	616291	keystroke_e	e	n/a
308.415	0.075	616830	keystroke_Key.space	Key.space	n/a
308.595	0.105	617190	keystroke_w	w	n/a
309.27	0.0895	618540	keystroke_i	i	n/a
309.4645	0.075	618929	keystroke_l	l	n/a
309.6295	0.1355	619259	keystroke_d	d	n/a
309.915	0.075	619830	keystroke_l	l	n/a
310.125	0.06	620250	keystroke_i	i	n/a
310.245	0.135	620490	keystroke_f	f	n/a
310.335	0.135	620670	keystroke_e	e	n/a
310.56	0.075	621120	keystroke_Key.space	Key.space	n/a
311.07	0.09	622140	keystroke_g	g	n/a
311.115	0.105	622230	keystroke_r	r	n/a
311.37	0.105	622740	keystroke_a	a	n/a
311.535	0.09	623070	keystroke_y	y	n/a
312	0.12	624000	keystroke_Key.enter	Key.enter	n/a
312.135	8.952	624270	prompt	n/a	universe locale highs museums\n
313.245	0.06	626490	keystroke_u	u	n/a
313.4395	0.06	626879	keystroke_n	n	n/a
313.575	0.0895	627150	keystroke_i	i	n/a
313.8745	0.06	627749	keystroke_v	v	n/a
314.0405	0.165	628081	keystroke_e	e	n/a
314.1905	0.075	628381	keystroke_r	r	n/a
314.355	0.135	628710	keystroke_s	s	n/a
314.505	0.105	629010	keystroke_e	e	n/a
314.715	0.105	629430	keystroke_Key.space	Key.space	n/a
315.735	0.09	631470	keystroke_l	l	n/a
315.945	0.075	631890	keystroke_o	o	n/a
316.1995	0.12	632399	keystroke_c	c	n/a
316.4545	0.075	632909	keystroke_a	a	n/a
316.5745	0.09	633149	keystroke_l	l	n/a
316.7095	0.09	633419	keystroke_e	e	n/a
316.9645	0.075	633929	keystroke_Key.space	Key.space	n/a
317.6845	0.075	635369	keystroke_h	h	n/a
317.8195	0.076	635639	keystroke_i	i	n/a
318.0155	0.075	636031	keystroke_g	g	n/a
318.1945	0.075	636389	keystroke_h	h	n/a
318.3455	0.075	636691	keystroke_s	s	n/a
318.495	0.09	636990	keystroke_Key.space	Key.space	n/a
318.84	0.09	637680	keystroke_m	m	n/a
319.125	0.06	638250	keystroke_u	u	n/a
319.245	0.105	638490	keystroke_s	s	n/a
319.395	0.135	638790	keystroke_e	e	n/a
319.635	0.075	639270	keystroke_u	u	n/a
319.935	0.09	639870	keystroke_m	m	n/a
320.145	0.09	640290	keystroke_s	s	n/a
321.0005	0.075	642001	keystroke_Key.enter	Key.enter	n/a
321.095	8.855	642190	prompt	n/a	wound national continue serves\n
321.9755	0.06	643951	keystroke_w	w	n/a
322.1255	0.12	644251	keystroke_o	o	n/a
322.2155	0.105	644431	keystroke_u	u	n/a
322.4555	0.09	644911	keystroke_n	n	n/a
322.6805	0.045	645361	keystroke_g	g	n/a
323.13	0.075	646260	keystroke_Key.backspace	Key.backspace	n/a
323.295	0.12	646590	keystroke_d	d	n/a
323.55	0.075	647100	keystroke_Key.space	Key.space	n/a
324.1945	0.075	648389	keystroke_n	n	n/a
324.2995	0.075	648599	keystroke_a	a	n/a
324.5555	0.059	649111	keystroke_t	t	n/a
324.5995	0.075	649199	keystroke_i	i	n/a
324.7795	0.045	649559	keystroke_o	o	n/a
324.8995	0.106	649799	keystroke_n	n	n/a
325.0355	0.105	650071	keystroke_a	a	n/a
325.1855	0.18	650371	keystroke_l	l	n/a
325.3205	0.12	650641	keystroke_Key.space	Key.space	n/a
325.8455	0.105	651691	keystroke_c	c	n/a
325.9355	0.06	651871	keystroke_o	o	n/a
326.3395	0.106	652679	keystroke_n	n	n/a
326.775	0.105	653550	keystroke_t	t	n/a
326.9845	0.0605	653969	keystroke_i	i	n/a
327.165	0.09	654330	keystroke_n	n	n/a
327.375	0.09	654750	keystroke_u	u	n/a
327.525	0.105	655050	keystroke_e	e	n/a
327.765	0.09	655530	keystroke_Key.space	Key.space	n/a
328.59	0.0745	657180	keystroke_s	s	n/a
328.7855	0.089	657571	keystroke_e	e	n/a
328.8605	0.12	657721	keystroke_r	r	n/a
329.1745	0.06	658349	keystroke_v	v	n/a
329.3555	0.06	658711	keystroke_e	e	n/a
329.5645	0.0605	659129	keystroke_s	s	n/a
329.8795	0.06	659759	keystroke_Key.enter	Key.enter	n/a
329.9555	11.7095	659911	prompt	n/a	liberia fetish bargain flex\n
331.35	0.06	662700	keystroke_l	l	n/a
331.545	0.075	663090	keystroke_i	i	n/a
331.815	0.06	663630	keystroke_b	b	n/a
331.935	0.135	663870	keystroke_e	e	n/a
332.025	0.15	664050	keystroke_r	r	n/a
332.265	0.06	664530	keystroke_i	i	n/a
332.37	0.1355	664740	keystroke_a	a	n/a
332.5805	0.105	665161	keystroke_Key.space	Key.space	n/a
333.405	0.09	666810	keystroke_f	f	n/a
333.57	0.09	667140	keystroke_e	e	n/a
333.7805	0.074	667561	keystroke_t	t	n/a
333.9305	0.09	667861	keystroke_i	i	n/a
334.1705	0.105	668341	keystroke_s	s	n/a
334.3655	0.135	668731	keystroke_h	h	n/a
334.5005	0.104	669001	keystroke_Key.space	Key.space	n/a
335.235	0.09	670470	keystroke_b	b	n/a
335.355	0.09	670710	keystroke_a	a	n/a
335.565	0.09	671130	keystroke_r	r	n/a
335.82	0.06	671640	keystroke_g	g	n/a
335.91	0.075	671820	keystroke_a	a	n/a
336.03	0.09	672060	keystroke_i	i	n/a
336.21	0.195	672420	keystroke_n	n	n/a
336.42	0.075	672840	keystroke_Key.space	Key.space	n/a
337.095	0.06	674190	keystroke_f	f	n/a
337.32	0.09	674640	keystroke_l	l	n/a
337.83	0.105	675660	keystroke_e	e	n/a
338.295	0.09	676590	keystroke_x	x	n/a
341.642	0.013	683284	keystroke_Key.enter	Key.enter	n/a
341.6695	9.16	683339	prompt	n/a	staffing rising walt users\n
342.4955	0.09	684991	keystroke_s	s	n/a
342.7645	0.06	685529	keystroke_t	t	n/a
342.9145	0.075	685829	keystroke_a	a	n/a
343.1095	0.075	686219	keystroke_f	f	n/a
343.2745	0.075	686549	keystroke_f	f	n/a
343.3795	0.075	686759	keystroke_i	i	n/a
343.5295	0.09	687059	keystroke_n	n	n/a
343.6205	0.089	687241	keystroke_g	g	n/a
343.7695	0.09	687539	keystroke_Key.space	Key.space	n/a
344.475	0.075	688950	keystroke_r	r	n/a
344.61	0.09	689220	keystroke_i	i	n/a
344.9245	0.09	689849	keystroke_s	s	n/a
345.1045	0.06	690209	keystroke_i	i	n/a
345.2695	0.0905	690539	keystroke_n	n	n/a
345.42	0.09	690840	keystroke_g	g	n/a
345.525	0.105	691050	keystroke_Key.space	Key.space	n/a
346.665	0.105	693330	keystroke_w	w	n/a
346.725	0.135	693450	keystroke_a	a	n/a
346.89	0.105	693780	keystroke_l	l	n/a
347.1	0.105	694200	keystroke_t	t	n/a
347.22	0.105	694440	keystroke_Key.space	Key.space	n/a
347.46	0.075	694920	keystroke_u	u	n/a
347.595	0.12	695190	keystroke_s	s	n/a
347.73	0.18	695460	keystroke_e	e	n/a
347.895	0.105	695790	keystroke_r	r	n/a
348.09	0.105	696180	keystroke_s	s	n/a
348.33	0.075	696660	keystroke_Key.space	Key.space	n/a
350.747	0.073	701494	keystroke_Key.enter	Key.enter	n/a
350.8345	7.802	701669	prompt	n/a	neural tech generator told\n
352.17	0.075	704340	keystroke_n	n	n/a
352.41	0.0745	704820	keystroke_e	e	n/a
352.5895	0.075	705179	keystroke_u	u	n/a
352.74	0.075	705480	keystroke_r	r	n/a
352.92	0.1045	705840	keystroke_a	a	n/a
353.0545	0.18	706109	keystroke_l	l	n/a
353.2045	0.15	706409	keystroke_Key.space	Key.space	n/a
353.9995	0.06	707999	keystroke_t	t	n/a
354.0745	0.0155	708149	keystroke_e	e	n/a
354.2545	0.075	708509	keystroke_c	c	n/a
354.3895	0.105	708779	keystroke_h	h	n/a
354.4795	0.105	708959	keystroke_Key.space	Key.space	n/a
354.7645	0.09	709529	keystroke_g	g	n/a
354.8695	0.076	709739	keystroke_e	e	n/a
354.9905	0.089	709981	keystroke_n	n	n/a
355.0955	0.074	710191	keystroke_e	e	n/a
355.2155	0.104	710431	keystroke_r	r	n/a
355.44	0.075	710880	keystroke_a	a	n/a
355.905	0.09	711810	keystroke_t	t	n/a
356.025	0.09	712050	keystroke_o	o	n/a
356.235	0.06	712470	keystroke_r	r	n/a
356.415	0.09	712830	keystroke_Key.space	Key.space	n/a
357.1055	0.09	714211	keystroke_t	t	n/a
357.2395	0.075	714479	keystroke_o	o	n/a
357.4345	0.075	714869	keystroke_l	l	n/a
357.5395	0.1205	715079	keystroke_d	d	n/a
357.765	0.075	715530	keystroke_Key.space	Key.space	n/a
358.575	0.06	717150	keystroke_Key.enter	Key.enter	n/a
358.6395	12.5445	717279	prompt	n/a	limitations membership bride steal\n
359.895	0.075	719790	keystroke_l	l	n/a
360.1345	0.045	720269	keystroke_i	i	n/a
360.2995	0.09	720599	keystroke_m	m	n/a
360.4645	0.075	720929	keystroke_i	i	n/a
360.6595	0.06	721319	keystroke_t	t	n/a
360.8395	0.075	721679	keystroke_a	a	n/a
360.9895	0.1055	721979	keystroke_t	t	n/a
361.11	0.075	722220	keystroke_i	i	n/a
361.26	0.06	722520	keystroke_o	o	n/a
361.41	0.09	722820	keystroke_n	n	n/a
361.53	0.105	723060	keystroke_s	s	n/a
361.68	0.075	723360	keystroke_Key.space	Key.space	n/a
361.875	0.09	723750	keystroke_m	m	n/a
361.995	0.09	723990	keystroke_e	e	n/a
362.1295	0.09	724259	keystroke_m	m	n/a
362.5195	0.075	725039	keystroke_b	b	n/a
362.6545	0.12	725309	keystroke_e	e	n/a
362.7445	0.105	725489	keystroke_r	r	n/a
363.0595	0.1055	726119	keystroke_s	s	n/a
363.21	0.075	726420	keystroke_h	h	n/a
363.39	0.0595	726780	keystroke_i	i	n/a
363.6745	0.15	727349	keystroke_o	o	n/a
363.8095	0.12	727619	keystroke_Key.space	Key.space	n/a
364.8145	0.06	729629	keystroke_Key.backspace	Key.backspace	n/a
365.8495	0.076	731699	keystroke_Key.backspace	Key.backspace	n/a
366.8105	0.075	733621	keystroke_p	p	n/a
367.1105	0.059	734221	keystroke_Key.space	Key.space	n/a
367.44	0.075	734880	keystroke_b	b	n/a
367.5745	0.09	735149	keystroke_r	r	n/a
367.6795	0.075	735359	keystroke_i	i	n/a
367.9645	0.075	735929	keystroke_d	d	n/a
368.3395	0.015	736679	keystroke_e	e	n/a
368.6545	0.06	737309	keystroke_Key.space	Key.space	n/a
369.9155	0.075	739831	keystroke_s	s	n/a
370.185	0.09	740370	keystroke_t	t	n/a
370.2895	0.0755	740579	keystroke_e	e	n/a
370.4845	0.09	740969	keystroke_a	a	n/a
370.65	0.0595	741300	keystroke_l	l	n/a
371.0845	0.0905	742169	keystroke_Key.enter	Key.enter	n/a
371.1885	9.5525	742377	prompt	n/a	accountability hold months mistress\n
372.1795	0.105	744359	keystroke_a	a	n/a
372.5095	0.076	745019	keystroke_c	c	n/a
372.7045	0.075	745409	keystroke_c	c	n/a
372.8695	0.0905	745739	keystroke_o	o	n/a
372.9745	0.045	745949	keystroke_u	u	n/a
373.1395	0.09	746279	keystroke_n	n	n/a
373.2145	0.075	746429	keystroke_t	t	n/a
373.3945	0.075	746789	keystroke_a	a	n/a
373.5445	0.075	747089	keystroke_b	b	n/a
373.7545	0.06	747509	keystroke_i	i	n/a
373.9345	0.075	747869	keystroke_l	l	n/a
374.1145	0.075	748229	keystroke_i	i	n/a
374.2645	0.09	748529	keystroke_t	t	n/a
374.4295	0.135	748859	keystroke_y	y	n/a
374.5495	0.105	749099	keystroke_Key.space	Key.space	n/a
375.3	0.06	750600	keystroke_h	h	n/a
375.495	0.075	750990	keystroke_o	o	n/a
375.6745	0.09	751349	keystroke_l	l	n/a
375.7945	0.135	751589	keystroke_d	d	n/a
375.9145	0.09	751829	keystroke_Key.space	Key.space	n/a
376.1255	0.105	752251	keystroke_m	m	n/a
376.2905	0.075	752581	keystroke_o	o	n/a
376.4705	0.075	752941	keystroke_n	n	n/a
376.5745	0.091	753149	keystroke_t	t	n/a
376.7095	0.076	753419	keystroke_h	h	n/a
376.9055	0.105	753811	keystroke_s	s	n/a
377.0695	0.09	754139	keystroke_Key.space	Key.space	n/a
377.37	0.045	754740	keystroke_m	m	n/a
377.535	0.09	755070	keystroke_i	i	n/a
377.67	0.075	755340	keystroke_s	s	n/a
377.88	0.06	755760	keystroke_t	t	n/a
378.075	0.09	756150	keystroke_r	r	n/a
378.15	0.135	756300	keystroke_e	e	n/a
378.405	0.06	756810	keystroke_s	s	n/a
378.57	0.075	757140	keystroke_s	s	n/a
378.84	0.03	757680	keystroke_'	'	n/a
380.1445	0.06	760289	keystroke_Key.backspace	Key.backspace	n/a
380.7145	0.015	761429	keystroke_Key.enter	Key.enter	n/a
380.75	19.508	761500	prompt	n/a	medication collectibles statistical machinery\n
382.17	0.09	764340	keystroke_m	m	n/a
382.275	0.15	764550	keystroke_e	e	n/a
382.41	0.15	764820	keystroke_d	d	n/a
382.545	0.075	765090	keystroke_i	i	n/a
382.68	0.09	765360	keystroke_c	c	n/a
382.8	0.1045	765600	keystroke_a	a	n/a
383.0245	0.076	766049	keystroke_t	t	n/a
383.0845	0.06	766169	keystroke_i	i	n/a
383.2505	0.0595	766501	keystroke_o	o	n/a
383.415	0.165	766830	keystroke_n	n	n/a
383.55	0.135	767100	keystroke_Key.space	Key.space	n/a
384.105	0.105	768210	keystroke_c	c	n/a
384.5545	0.06	769109	keystroke_o	o	n/a
384.7495	0.06	769499	keystroke_l	l	n/a
384.8845	0.09	769769	keystroke_l	l	n/a
385.1845	0.09	770369	keystroke_e	e	n/a
385.3945	0.105	770789	keystroke_c	c	n/a
385.6495	0.045	771299	keystroke_t	t	n/a
385.7395	0.0755	771479	keystroke_i	i	n/a
385.92	0.09	771840	keystroke_b	b	n/a
386.1445	0.075	772289	keystroke_l	l	n/a
389.0565	0.043	778113	keystroke_e	e	n/a
389.2795	0.06	778559	keystroke_d	d	n/a
390.0445	0.09	780089	keystroke_Key.backspace	Key.backspace	n/a
390.2845	0.075	780569	keystroke_s	s	n/a
390.93	0.1195	781860	keystroke_Key.space	Key.space	n/a
392.28	0.09	784560	keystroke_s	s	n/a
392.58	0.06	785160	keystroke_t	t	n/a
392.655	0.09	785310	keystroke_a	a	n/a
392.805	0.075	785610	keystroke_t	t	n/a
393.045	0.0895	786090	keystroke_i	i	n/a
393.1645	0.105	786329	keystroke_s	s	n/a
393.6	0.06	787200	keystroke_t	t	n/a
393.765	0.0755	787530	keystroke_i	i	n/a
393.8995	0.105	787799	keystroke_c	c	n/a
394.0645	0.106	788129	keystroke_a	a	n/a
394.1995	0.106	788399	keystroke_l	l	n/a
394.4095	0.09	788819	keystroke_Key.space	Key.space	n/a
395.4145	0.075	790829	keystroke_m	m	n/a
395.5055	0.074	791011	keystroke_a	a	n/a
395.7	0.135	791400	keystroke_c	c	n/a
395.82	0.06	791640	keystroke_h	h	n/a
395.955	0.075	791910	keystroke_i	i	n/a
396.09	0.12	792180	keystroke_n	n	n/a
396.24	0.1345	792480	keystroke_e	e	n/a
396.3295	0.135	792659	keystroke_r	r	n/a
396.66	0.09	793320	keystroke_y	y	n/a
396.855	0.15	793710	keystroke_Key.space	Key.space	n/a
399.257	0.013	798514	keystroke_Key.backspace	Key.backspace	n/a
400.155	0.09	800310	keystroke_Key.enter	Key.enter	n/a
400.264	10.925	800528	prompt	n/a	give restrict schemes highlights\n
402.075	0.075	804150	keystroke_g	g	n/a
402.195	0.09	804390	keystroke_i	i	n/a
402.345	0.075	804690	keystroke_v	v	n/a
402.525	0.09	805050	keystroke_e	e	n/a
402.66	0.09	805320	keystroke_Key.space	Key.space	n/a
402.87	0.09	805740	keystroke_r	r	n/a
402.93	0.105	805860	keystroke_e	e	n/a
403.185	0.075	806370	keystroke_s	s	n/a
403.47	0.09	806940	keystroke_t	t	n/a
403.74	0.09	807480	keystroke_i	i	n/a
404.6395	0.06	809279	keystroke_Key.backspace	Key.backspace	n/a
405.0895	0.06	810179	keystroke_r	r	n/a
405.2245	0.09	810449	keystroke_i	i	n/a
405.4645	0.075	810929	keystroke_c	c	n/a
405.705	0.075	811410	keystroke_t	t	n/a
405.87	0.075	811740	keystroke_Key.space	Key.space	n/a
406.71	0.075	813420	keystroke_s	s	n/a
406.92	0.105	813840	keystroke_c	c	n/a
407.07	0.075	814140	keystroke_h	h	n/a
407.19	0.06	814380	keystroke_e	e	n/a
407.37	0.075	814740	keystroke_m	m	n/a
407.46	0.075	814920	keystroke_e	e	n/a
407.685	0.075	815370	keystroke_s	s	n/a
407.895	0.06	815790	keystroke_Key.space	Key.space	n/a
408.405	0.06	816810	keystroke_h	h	n/a
408.57	0.06	817140	keystroke_i	i	n/a
408.765	0.075	817530	keystroke_g	g	n/a
408.915	0.09	817830	keystroke_h	h	n/a
409.155	0.0745	818310	keystroke_l	l	n/a
409.3345	0.075	818669	keystroke_i	i	n/a
409.47	0.075	818940	keystroke_g	g	n/a
409.575	0.09	819150	keystroke_h	h	n/a
409.68	0.06	819360	keystroke_t	t	n/a
409.875	0.09	819750	keystroke_s	s	n/a
410.025	0.075	820050	keystroke_Key.space	Key.space	n/a
410.805	0.045	821610	keystroke_Key.backspace	Key.backspace	n/a
411.12	0.06	822240	keystroke_Key.enter	Key.enter	n/a
411.194	14.291	822388	prompt	n/a	there'd packaging needn't scenes\n
412.3945	0.075	824789	keystroke_t	t	n/a
412.5295	0.075	825059	keystroke_h	h	n/a
412.5895	0.105	825179	keystroke_e	e	n/a
412.6645	0.18	825329	keystroke_r	r	n/a
412.7995	0.12	825599	keystroke_e	e	n/a
413.6095	0.075	827219	keystroke_'	'	n/a
413.7295	0.105	827459	keystroke_d	d	n/a
414.3	0.09	828600	keystroke_Key.space	Key.space	n/a
415.065	0.045	830130	keystroke_a	a	n/a
416.1445	0.075	832289	keystroke_Key.backspace	Key.backspace	n/a
416.5645	0.045	833129	keystroke_p	p	n/a
416.6995	0.0905	833399	keystroke_a	a	n/a
416.94	0.1195	833880	keystroke_c	c	n/a
417.195	0.0895	834390	keystroke_k	k	n/a
417.3595	0.0905	834719	keystroke_a	a	n/a
417.735	0.06	835470	keystroke_g	g	n/a
417.915	0.09	835830	keystroke_i	i	n/a
418.095	0.105	836190	keystroke_n	n	n/a
418.215	0.12	836430	keystroke_g	g	n/a
418.575	0.09	837150	keystroke_Key.space	Key.space	n/a
419.22	0.075	838440	keystroke_n	n	n/a
419.34	0.06	838680	keystroke_e	e	n/a
419.505	0.135	839010	keystroke_e	e	n/a
419.655	0.12	839310	keystroke_d	d	n/a
420.255	0.06	840510	keystroke_n	n	n/a
420.855	0.075	841710	keystroke_'	'	n/a
421.35	0.135	842700	keystroke_t	t	n/a
421.47	0.135	842940	keystroke_Key.space	Key.space	n/a
422.385	0.09	844770	keystroke_s	s	n/a
422.85	0.03	845700	keystroke_c	c	n/a
422.955	0.09	845910	keystroke_e	e	n/a
423.135	0.075	846270	keystroke_n	n	n/a
423.225	0.06	846450	keystroke_e	e	n/a
423.435	0.075	846870	keystroke_s	s	n/a
425.3995	0.075	850799	keystroke_Key.enter	Key.enter	n/a
425.4905	24.1435	850981	prompt	n/a	platinum requested encourages spare\n
426.585	0.1345	853170	keystroke_p	p	n/a
426.6895	0.135	853379	keystroke_l	l	n/a
426.84	0.075	853680	keystroke_a	a	n/a
427.08	0.0905	854160	keystroke_t	t	n/a
427.26	0.09	854520	keystroke_i	i	n/a
427.485	0.06	854970	keystroke_u	u	n/a
428.715	0.045	857430	keystroke_Key.backspace	Key.backspace	n/a
429.345	0.06	858690	keystroke_n	n	n/a
429.54	0.075	859080	keystroke_u	u	n/a
429.75	0.075	859500	keystroke_m	m	n/a
430.0195	0.075	860039	keystroke_Key.space	Key.space	n/a
430.845	0.135	861690	keystroke_r	r	n/a
430.965	0.105	861930	keystroke_e	e	n/a
431.565	0.075	863130	keystroke_q	q	n/a
431.715	0.075	863430	keystroke_u	u	n/a
431.8345	0.105	863669	keystroke_e	e	n/a
432.0745	0.0755	864149	keystroke_s	s	n/a
432.2995	0.076	864599	keystroke_t	t	n/a
432.4345	0.105	864869	keystroke_e	e	n/a
432.6445	0.09	865289	keystroke_d	d	n/a
432.8545	0.06	865709	keystroke_Key.space	Key.space	n/a
433.3795	0.075	866759	keystroke_e	e	n/a
433.6795	0.09	867359	keystroke_c	c	n/a
434.0695	0.12	868139	keystroke_o	o	n/a
434.1445	0.135	868289	keystroke_u	u	n/a
434.4145	0.09	868829	keystroke_r	r	n/a
434.6095	0.09	869219	keystroke_a	a	n/a
434.9545	0.06	869909	keystroke_g	g	n/a
435.0745	0.045	870149	keystroke_e	e	n/a
435.2995	0.12	870599	keystroke_s	s	n/a
435.9895	0.0905	871979	keystroke_Key.space	Key.space	n/a
436.485	0.105	872970	keystroke_s	s	n/a
436.6645	0.09	873329	keystroke_p	p	n/a
436.7995	0.075	873599	keystroke_a	a	n/a
436.9795	0.12	873959	keystroke_r	r	n/a
437.0395	0.135	874079	keystroke_e	e	n/a
440.192	0.001	880384	keystroke_Key.backspace	Key.backspace	n/a
440.4	0.06	880800	keystroke_Key.backspace	Key.backspace	n/a
440.64	0.06	881280	keystroke_Key.backspace	Key.backspace	n/a
440.8195	0.06	881639	keystroke_Key.backspace	Key.backspace	n/a
440.9995	0.045	881999	keystroke_Key.backspace	Key.backspace	n/a
441.1645	0.045	882329	keystroke_Key.backspace	Key.backspace	n/a
441.3595	0.075	882719	keystroke_Key.backspace	Key.backspace	n/a
441.5695	0.0755	883139	keystroke_Key.backspace	Key.backspace	n/a
441.765	0.06	883530	keystroke_Key.backspace	Key.backspace	n/a
442.109	0.076	884218	keystroke_Key.backspace	Key.backspace	n/a
442.305	0.075	884610	keystroke_Key.backspace	Key.backspace	n/a
442.485	0.075	884970	keystroke_Key.backspace	Key.backspace	n/a
442.68	0.075	885360	keystroke_Key.backspace	Key.backspace	n/a
443.129	0.06	886258	keystroke_Key.backspace	Key.backspace	n/a
443.8795	0.06	887759	keystroke_n	n	n/a
444.18	0.09	888360	keystroke_c	c	n/a
444.33	0.119	888660	keystroke_o	o	n/a
444.42	0.1205	888840	keystroke_u	u	n/a
444.5695	0.105	889139	keystroke_r	r	n/a
444.7345	0.105	889469	keystroke_a	a	n/a
444.9445	0.075	889889	keystroke_g	g	n/a
445.0345	0.12	890069	keystroke_e	e	n/a
445.2445	0.09	890489	keystroke_Key.space	Key.space	n/a
446.385	0.075	892770	keystroke_Key.backspace	Key.backspace	n/a
446.865	0.09	893730	keystroke_s	s	n/a
447.525	0.105	895050	keystroke_Key.space	Key.space	n/a
447.825	0.09	895650	keystroke_s	s	n/a
448.05	0.09	896100	keystroke_p	p	n/a
448.32	0.075	896640	keystroke_a	a	n/a
448.635	0.09	897270	keystroke_r	r	n/a
448.695	0.105	897390	keystroke_e	e	n/a
449.55	0.075	899100	keystroke_Key.enter	Key.enter	n/a
449.6395	16.3745	899279	prompt	n/a	thesaurus flows reproduce joined\n
450.825	0.06	901650	keystroke_t	t	n/a
450.975	0.06	901950	keystroke_h	h	n/a
451.05	0.09	902100	keystroke_e	e	n/a
452.475	0.105	904950	keystroke_s	s	n/a
452.955	0.09	905910	keystroke_a	a	n/a
453.465	0.075	906930	keystroke_u	u	n/a
453.884	0.076	907768	keystroke_r	r	n/a
454.11	0.12	908220	keystroke_a	a	n/a
456.225	0.045	912450	keystroke_Key.backspace	Key.backspace	n/a
456.7195	0.0755	913439	keystroke_u	u	n/a
456.9295	0.09	913859	keystroke_s	s	n/a
457.4845	0.12	914969	keystroke_Key.space	Key.space	n/a
458.61	0.09	917220	keystroke_f	f	n/a
458.775	0.09	917550	keystroke_l	l	n/a
458.985	0.075	917970	keystroke_o	o	n/a
459.135	0.09	918270	keystroke_w	w	n/a
459.645	0.09	919290	keystroke_s	s	n/a
459.87	0.0895	919740	keystroke_Key.space	Key.space	n/a
460.6945	0.12	921389	keystroke_r	r	n/a
460.7995	0.105	921599	keystroke_e	e	n/a
461.265	0.09	922530	keystroke_p	p	n/a
461.475	0.09	922950	keystroke_r	r	n/a
461.67	0.06	923340	keystroke_o	o	n/a
461.865	0.105	923730	keystroke_d	d	n/a
462.045	0.075	924090	keystroke_u	u	n/a
462.33	0.12	924660	keystroke_c	c	n/a
462.495	0.1195	924990	keystroke_e	e	n/a
462.7345	0.09	925469	keystroke_Key.space	Key.space	n/a
463.995	0.09	927990	keystroke_j	j	n/a
464.19	0.105	928380	keystroke_o	o	n/a
464.235	0.12	928470	keystroke_i	i	n/a
464.475	0.09	928950	keystroke_n	n	n/a
464.58	0.15	929160	keystroke_e	e	n/a
464.7	0.18	929400	keystroke_d	d	n/a
465.9145	0.09	931829	keystroke_Key.enter	Key.enter	n/a
466.0195	17.0195	932039	prompt	n/a	wyoming evolution adolescent gorgeous\n
467.1445	0.075	934289	keystroke_w	w	n/a
467.4595	0.06	934919	keystroke_y	y	n/a
467.9095	0.105	935819	keystroke_o	o	n/a
468.285	0.09	936570	keystroke_m	m	n/a
468.465	0.0745	936930	keystroke_i	i	n/a
468.6745	0.0905	937349	keystroke_n	n	n/a
468.8245	0.105	937649	keystroke_g	g	n/a
468.9445	0.0905	937889	keystroke_Key.space	Key.space	n/a
470.0995	0.075	940199	keystroke_e	e	n/a
470.7295	0.09	941459	keystroke_v	v	n/a
471.0145	0.045	942029	keystroke_o	o	n/a
471.2245	0.09	942449	keystroke_l	l	n/a
471.7045	0.045	943409	keystroke_u	u	n/a
472.049	0.0605	944098	keystroke_t	t	n/a
472.1845	0.06	944369	keystroke_i	i	n/a
472.3495	0.06	944699	keystroke_o	o	n/a
472.5145	0.165	945029	keystroke_n	n	n/a
472.6495	0.135	945299	keystroke_Key.space	Key.space	n/a
472.9795	0.0905	945959	keystroke_a	a	n/a
473.4145	0.075	946829	keystroke_d	d	n/a
473.5495	0.075	947099	keystroke_o	o	n/a
473.7745	0.09	947549	keystroke_l	l	n/a
474.0145	0.09	948029	keystroke_e	e	n/a
474.3895	0.075	948779	keystroke_s	s	n/a
474.6595	0.105	949319	keystroke_c	c	n/a
474.8695	0.09	949739	keystroke_e	e	n/a
475.065	0.0745	950130	keystroke_n	n	n/a
475.2	0.0895	950400	keystroke_t	t	n/a
475.35	0.075	950700	keystroke_Key.space	Key.space	n/a
479.2365	0.001	958473	keystroke_g	g	n/a
479.3245	0.09	958649	keystroke_o	o	n/a
479.5045	0.075	959009	keystroke_r	r	n/a
479.8195	0.06	959639	keystroke_g	g	n/a
480.6295	0.09	961259	keystroke_e	e	n/a
482.055	0.0745	964110	keystroke_o	o	n/a
482.2345	0.09	964469	keystroke_u	u	n/a
482.4295	0.105	964859	keystroke_s	s	n/a
482.985	0.045	965970	keystroke_Key.enter	Key.enter	n/a
483.0435	15.6705	966087	prompt	n/a	flooring bacterial apnic relate\n
484.3045	0.09	968609	keystroke_f	f	n/a
484.5145	0.075	969029	keystroke_l	l	n/a
484.7245	0.06	969449	keystroke_o	o	n/a
484.8745	0.075	969749	keystroke_o	o	n/a
485.0845	0.075	970169	keystroke_r	r	n/a
485.1895	0.075	970379	keystroke_i	i	n/a
485.3845	0.075	970769	keystroke_n	n	n/a
485.5495	0.075	971099	keystroke_g	g	n/a
485.6845	0.09	971369	keystroke_Key.space	Key.space	n/a
486.4945	0.075	972989	keystroke_b	b	n/a
486.6295	0.09	973259	keystroke_a	a	n/a
486.8095	0.105	973619	keystroke_c	c	n/a
487.0645	0.075	974129	keystroke_t	t	n/a
487.2895	0.105	974579	keystroke_e	e	n/a
487.5	0.075	975000	keystroke_r	r	n/a
487.695	0.075	975390	keystroke_u	u	n/a
487.86	0.09	975720	keystroke_a	a	n/a
487.995	0.165	975990	keystroke_l	l	n/a
488.174	0.12	976348	keystroke_Key.space	Key.space	n/a
489.2095	0.0455	978419	keystroke_Key.backspace	Key.backspace	n/a
489.4195	0.075	978839	keystroke_Key.backspace	Key.backspace	n/a
489.6295	0.06	979259	keystroke_Key.backspace	Key.backspace	n/a
489.7945	0.0605	979589	keystroke_Key.backspace	Key.backspace	n/a
490.4845	0.06	980969	keystroke_i	i	n/a
490.6345	0.075	981269	keystroke_a	a	n/a
490.7245	0.15	981449	keystroke_l	l	n/a
490.9195	0.135	981839	keystroke_Key.space	Key.space	n/a
492.1195	0.12	984239	keystroke_a	a	n/a
493.005	0.09	986010	keystroke_p	p	n/a
493.845	0.12	987690	keystroke_n	n	n/a
494.0995	0.075	988199	keystroke_i	i	n/a
494.82	0.06	989640	keystroke_c	c	n/a
494.955	0.12	989910	keystroke_Key.space	Key.space	n/a
495.135	0.135	990270	keystroke_r	r	n/a
495.24	0.12	990480	keystroke_e	e	n/a
495.42	0.105	990840	keystroke_l	l	n/a
495.54	0.06	991080	keystroke_a	a	n/a
495.72	0.135	991440	keystroke_t	t	n/a
495.81	0.105	991620	keystroke_e	e	n/a
496.035	0.0745	992070	keystroke_Key.space	Key.space	n/a
498.692	0.012	997384	keystroke_Key.enter	Key.enter	n/a
498.7185	10.915	997437	prompt	n/a	graphics watts antique memory\n
500.1445	0.06	1000289	keystroke_g	g	n/a
500.3095	0.075	1000619	keystroke_r	r	n/a
500.5045	0.09	1001009	keystroke_a	a	n/a
500.6395	0.09	1001279	keystroke_p	p	n/a
500.9095	0.06	1001819	keystroke_h	h	n/a
501.0595	0.075	1002119	keystroke_i	i	n/a
501.2545	0.09	1002509	keystroke_c	c	n/a
501.4945	0.075	1002989	keystroke_s	s	n/a
501.7045	0.045	1003409	keystroke_Key.space	Key.space	n/a
502.3795	0.045	1004759	keystroke_a	a	n/a
503.414	0.061	1006828	keystroke_Key.backspace	Key.backspace	n/a
503.8195	0.12	1007639	keystroke_w	w	n/a
503.9845	0.105	1007969	keystroke_a	a	n/a
504.33	0.045	1008660	keystroke_t	t	n/a
504.51	0.06	1009020	keystroke_t	t	n/a
504.69	0.09	1009380	keystroke_s	s	n/a
504.93	0.1195	1009860	keystroke_Key.space	Key.space	n/a
505.4545	0.075	1010909	keystroke_a	a	n/a
505.6945	0.09	1011389	keystroke_n	n	n/a
505.8445	0.075	1011689	keystroke_t	t	n/a
505.9495	0.09	1011899	keystroke_i	i	n/a
506.565	0.09	1013130	keystroke_q	q	n/a
506.714	0.076	1013428	keystroke_u	u	n/a
506.835	0.1045	1013670	keystroke_e	e	n/a
507.0145	0.09	1014029	keystroke_Key.space	Key.space	n/a
507.24	0.075	1014480	keystroke_m	m	n/a
507.33	0.105	1014660	keystroke_e	e	n/a
507.45	0.09	1014900	keystroke_m	m	n/a
507.6745	0.075	1015349	keystroke_o	o	n/a
507.9895	0.12	1015979	keystroke_r	r	n/a
508.7245	0.06	1017449	keystroke_y	y	n/a
509.52	0.105	1019040	keystroke_Key.enter	Key.enter	n/a
509.638	8.8155	1019276	prompt	n/a	leasing counsel sierra reproduced\n
510.645	0.075	1021290	keystroke_l	l	n/a
510.735	0.09	1021470	keystroke_e	e	n/a
510.87	0.165	1021740	keystroke_a	a	n/a
510.99	0.12	1021980	keystroke_s	s	n/a
511.125	0.075	1022250	keystroke_i	i	n/a
511.29	0.075	1022580	keystroke_n	n	n/a
511.395	0.09	1022790	keystroke_g	g	n/a
511.515	0.105	1023030	keystroke_Key.space	Key.space	n/a
511.7245	0.09	1023449	keystroke_c	c	n/a
511.8295	0.12	1023659	keystroke_o	o	n/a
511.9195	0.105	1023839	keystroke_u	u	n/a
512.144	0.09	1024288	keystroke_n	n	n/a
513.0445	0.06	1026089	keystroke_s	s	n/a
513.2095	0.075	1026419	keystroke_e	e	n/a
513.3445	0.135	1026689	keystroke_l	l	n/a
513.5245	0.135	1027049	keystroke_Key.space	Key.space	n/a
513.7195	0.105	1027439	keystroke_s	s	n/a
513.9295	0.09	1027859	keystroke_i	i	n/a
514.1995	0.06	1028399	keystroke_e	e	n/a
514.395	0.06	1028790	keystroke_r	r	n/a
514.545	0.09	1029090	keystroke_r	r	n/a
514.68	0.105	1029360	keystroke_a	a	n/a
514.875	0.09	1029750	keystroke_Key.space	Key.space	n/a
515.235	0.12	1030470	keystroke_r	r	n/a
515.34	0.105	1030680	keystroke_e	e	n/a
515.685	0.075	1031370	keystroke_p	p	n/a
515.9995	0.03	1031999	keystroke_r	r	n/a
516.18	0.075	1032360	keystroke_o	o	n/a
516.33	0.12	1032660	keystroke_d	d	n/a
516.6	0.06	1033200	keystroke_u	u	n/a
516.75	0.075	1033500	keystroke_c	c	n/a
516.885	0.09	1033770	keystroke_e	e	n/a
517.05	0.12	1034100	keystroke_d	d	n/a
517.23	0.075	1034460	keystroke_Key.space	Key.space	n/a
517.8595	0.0905	1035719	keystroke_Key.backspace	Key.backspace	n/a
518.3695	0.075	1036739	keystroke_Key.enter	Key.enter	n/a
518.458	9.536	1036916	prompt	n/a	logos contest ribbon weapons\n
519.6	0.06	1039200	keystroke_l	l	n/a
519.765	0.09	1039530	keystroke_o	o	n/a
519.96	0.075	1039920	keystroke_g	g	n/a
520.05	0.075	1040100	keystroke_o	o	n/a
520.32	0.09	1040640	keystroke_s	s	n/a
520.545	0.075	1041090	keystroke_Key.space	Key.space	n/a
520.905	0.09	1041810	keystroke_c	c	n/a
521.025	0.045	1042050	keystroke_o	o	n/a
521.175	0.105	1042350	keystroke_n	n	n/a
521.355	0.105	1042710	keystroke_t	t	n/a
521.475	0.09	1042950	keystroke_e	e	n/a
521.685	0.06	1043370	keystroke_s	s	n/a
521.895	0.075	1043790	keystroke_t	t	n/a
522.045	0.0895	1044090	keystroke_Key.space	Key.space	n/a
522.3445	0.075	1044689	keystroke_r	r	n/a
522.4945	0.075	1044989	keystroke_i	i	n/a
522.735	0.06	1045470	keystroke_b	b	n/a
522.87	0.075	1045740	keystroke_b	b	n/a
523.065	0.06	1046130	keystroke_o	o	n/a
523.245	0.165	1046490	keystroke_n	n	n/a
523.395	0.12	1046790	keystroke_Key.space	Key.space	n/a
523.62	0.09	1047240	keystroke_w	w	n/a
524.069	0.0455	1048138	keystroke_e	e	n/a
524.1745	0.09	1048349	keystroke_a	a	n/a
524.4445	0.075	1048889	keystroke_p	p	n/a
524.7745	0.06	1049549	keystroke_i	i	n/a
525.705	0.075	1051410	keystroke_Key.backspace	Key.backspace	n/a
526.02	0.075	1052040	keystroke_o	o	n/a
526.259	0.09	1052518	keystroke_n	n	n/a
526.439	0.105	1052878	keystroke_s	s	n/a
526.619	0.076	1053238	keystroke_Key.space	Key.space	n/a
527.4	0.075	1054800	keystroke_Key.backspace	Key.backspace	n/a
527.9095	0.075	1055819	keystroke_Key.enter	Key.enter	n/a
528.0005	12.099	1056001	prompt	n/a	info surprise makers handmade\n
529.1395	0.18	1058279	keystroke_i	i	n/a
529.3345	0.03	1058669	keystroke_n	n	n/a
529.5145	0.09	1059029	keystroke_f	f	n/a
529.6495	0.24	1059299	keystroke_o	o	n/a
529.7995	0.15	1059599	keystroke_Key.space	Key.space	n/a
530.415	0.075	1060830	keystroke_s	s	n/a
530.625	0.06	1061250	keystroke_u	u	n/a
530.789	0.061	1061578	keystroke_r	r	n/a
530.924	0.091	1061848	keystroke_p	p	n/a
533.3115	0.001	1066623	keystroke_r	r	n/a
533.4595	0.075	1066919	keystroke_i	i	n/a
533.6245	0.09	1067249	keystroke_s	s	n/a
533.82	0.09	1067640	keystroke_e	e	n/a
534.045	0.06	1068090	keystroke_Key.space	Key.space	n/a
534.3	0.075	1068600	keystroke_m	m	n/a
534.54	0.105	1069080	keystroke_a	a	n/a
534.675	0.09	1069350	keystroke_k	k	n/a
534.825	0.06	1069650	keystroke_e	e	n/a
535.0345	0.06	1070069	keystroke_s	s	n/a
535.4845	0.045	1070969	keystroke_Key.backspace	Key.backspace	n/a
535.6195	0.105	1071239	keystroke_r	r	n/a
535.8145	0.105	1071629	keystroke_s	s	n/a
536.0845	0.0895	1072169	keystroke_Key.space	Key.space	n/a
536.715	0.06	1073430	keystroke_h	h	n/a
536.8345	0.075	1073669	keystroke_a	a	n/a
536.939	0.091	1073878	keystroke_n	n	n/a
537.1045	0.075	1074209	keystroke_d	d	n/a
537.3295	0.06	1074659	keystroke_m	m	n/a
537.4495	0.09	1074899	keystroke_a	a	n/a
537.6745	0.195	1075349	keystroke_d	d	n/a
537.8845	0.06	1075769	keystroke_e	e	n/a
538.485	0.105	1076970	keystroke_'	'	n/a
539.595	0.045	1079190	keystroke_Key.backspace	Key.backspace	n/a
540.0145	0.0755	1080029	keystroke_Key.enter	Key.enter	n/a
540.104	9.912	1080208	prompt	n/a	eddie travel prevent specialist\n
541.3495	0.075	1082699	keystroke_e	e	n/a
541.5445	0.09	1083089	keystroke_d	d	n/a
541.7395	0.06	1083479	keystroke_d	d	n/a
541.8445	0.075	1083689	keystroke_i	i	n/a
541.9495	0.105	1083899	keystroke_r	r	n/a
542.3845	0.075	1084769	keystroke_Key.backspace	Key.backspace	n/a
542.5345	0.075	1085069	keystroke_e	e	n/a
542.7295	0.105	1085459	keystroke_Key.space	Key.space	n/a
543.405	0.06	1086810	keystroke_t	t	n/a
543.57	0.045	1087140	keystroke_r	r	n/a
543.69	0.09	1087380	keystroke_a	a	n/a
543.959	0.076	1087918	keystroke_v	v	n/a
544.11	0.09	1088220	keystroke_e	e	n/a
544.275	0.21	1088550	keystroke_l	l	n/a
544.455	0.105	1088910	keystroke_Key.space	Key.space	n/a
544.665	0.075	1089330	keystroke_p	p	n/a
544.785	0.1345	1089570	keystroke_r	r	n/a
544.8895	0.135	1089779	keystroke_e	e	n/a
545.7595	0.075	1091519	keystroke_v	v	n/a
545.97	0.075	1091940	keystroke_e	e	n/a
546.18	0.075	1092360	keystroke_n	n	n/a
546.33	0.075	1092660	keystroke_t	t	n/a
546.45	0.105	1092900	keystroke_Key.space	Key.space	n/a
546.765	0.09	1093530	keystroke_s	s	n/a
547.245	0.075	1094490	keystroke_p	p	n/a
547.5	0.015	1095000	keystroke_e	e	n/a
547.875	0.09	1095750	keystroke_c	c	n/a
548.07	0.0895	1096140	keystroke_i	i	n/a
548.1895	0.105	1096379	keystroke_a	a	n/a
548.3545	0.075	1096709	keystroke_l	l	n/a
548.549	0.075	1097098	keystroke_i	i	n/a
548.774	0.06	1097548	keystroke_s	s	n/a
548.969	0.075	1097938	keystroke_t	t	n/a
549.929	0.0755	1099858	keystroke_Key.enter	Key.enter	n/a
550.021	12.2325	1100042	prompt	n/a	comparable memo construct abroad\n
550.9945	0.09	1101989	keystroke_c	c	n/a
551.1145	0.18	1102229	keystroke_o	o	n/a
551.2645	0.12	1102529	keystroke_m	m	n/a
551.489	0.0755	1102978	keystroke_p	p	n/a
551.969	0.09	1103938	keystroke_r	r	n/a
552.4495	0.0455	1104899	keystroke_Key.backspace	Key.backspace	n/a
552.57	0.105	1105140	keystroke_a	a	n/a
552.749	0.091	1105498	keystroke_r	r	n/a
553.02	0.09	1106040	keystroke_a	a	n/a
553.53	0.06	1107060	keystroke_b	b	n/a
553.74	0.074	1107480	keystroke_l	l	n/a
553.845	0.09	1107690	keystroke_e	e	n/a
554.054	0.0905	1108108	keystroke_Key.space	Key.space	n/a
554.3995	0.06	1108799	keystroke_m	m	n/a
554.5195	0.09	1109039	keystroke_e	e	n/a
554.5645	0.09	1109129	keystroke_m	m	n/a
554.8195	0.225	1109639	keystroke_o	o	n/a
554.9845	0.135	1109969	keystroke_Key.space	Key.space	n/a
555.3895	0.12	1110779	keystroke_c	c	n/a
555.4945	0.06	1110989	keystroke_o	o	n/a
555.855	0.09	1111710	keystroke_n	n	n/a
556.02	0.075	1112040	keystroke_s	s	n/a
556.695	0.105	1113390	keystroke_t	t	n/a
556.905	0.09	1113810	keystroke_r	r	n/a
557.505	0.075	1115010	keystroke_u	u	n/a
557.64	0.09	1115280	keystroke_c	c	n/a
557.895	0.06	1115790	keystroke_t	t	n/a
558.09	0.105	1116180	keystroke_Key.space	Key.space	n/a
559.05	0.06	1118100	keystroke_a	a	n/a
559.35	0.075	1118700	keystroke_b	b	n/a
559.56	0.075	1119120	keystroke_r	r	n/a
559.725	0.0295	1119450	keystroke_a	a	n/a
560.5045	0.075	1121009	keystroke_Key.backspace	Key.backspace	n/a
561.1195	0.075	1122239	keystroke_o	o	n/a
561.2545	0.075	1122509	keystroke_a	a	n/a
561.4195	0.12	1122839	keystroke_d	d	n/a
562.154	0.09	1124308	keystroke_Key.enter	Key.enter	n/a
562.258	9.8665	1124516	prompt	n/a	jesus gimme transit reserves\n
563.4	0.06	1126800	keystroke_j	j	n/a
563.475	0.0745	1126950	keystroke_e	e	n/a
563.6845	0.075	1127369	keystroke_s	s	n/a
563.7895	0.075	1127579	keystroke_u	u	n/a
563.8795	0.075	1127759	keystroke_s	s	n/a
564.2995	0.045	1128599	keystroke_Key.space	Key.space	n/a
564.7945	0.0755	1129589	keystroke_g	g	n/a
564.915	0.06	1129830	keystroke_i	i	n/a
565.0795	0.075	1130159	keystroke_m	m	n/a
565.2295	0.105	1130459	keystroke_m	m	n/a
565.5745	0.075	1131149	keystroke_e	e	n/a
565.8145	0.09	1131629	keystroke_Key.space	Key.space	n/a
566.354	0.06	1132708	keystroke_t	t	n/a
566.549	0.045	1133098	keystroke_r	r	n/a
566.7295	0.09	1133459	keystroke_a	a	n/a
566.8795	0.0745	1133759	keystroke_n	n	n/a
566.984	0.106	1133968	keystroke_s	s	n/a
567.15	0.075	1134300	keystroke_i	i	n/a
567.375	0.06	1134750	keystroke_t	t	n/a
567.54	0.09	1135080	keystroke_Key.space	Key.space	n/a
568.3945	0.105	1136789	keystroke_r	r	n/a
568.4695	0.12	1136939	keystroke_e	e	n/a
568.8445	0.075	1137689	keystroke_s	s	n/a
569.3095	0.075	1138619	keystroke_e	e	n/a
569.5195	0.075	1139039	keystroke_r	r	n/a
570.5995	0.0755	1141199	keystroke_v	v	n/a
570.78	0.09	1141560	keystroke_e	e	n/a
571.1545	0.075	1142309	keystroke_s	s	n/a
572.0095	0.105	1144019	keystroke_Key.enter	Key.enter	n/a
572.129	13.645	1144258	prompt	n/a	arizona download existing introduced\n
573.2695	0.075	1146539	keystroke_a	a	n/a
573.5095	0.075	1147019	keystroke_r	r	n/a
573.6745	0.075	1147349	keystroke_i	i	n/a
574.1845	0.03	1148369	keystroke_z	z	n/a
574.2745	0.075	1148549	keystroke_o	o	n/a
574.5595	0.075	1149119	keystroke_n	n	n/a
574.7545	0.075	1149509	keystroke_a	a	n/a
575.8795	0.105	1151759	keystroke_Key.space	Key.space	n/a
576.2545	0.075	1152509	keystroke_d	d	n/a
576.3595	0.105	1152719	keystroke_o	o	n/a
576.4945	0.105	1152989	keystroke_w	w	n/a
576.7045	0.075	1153409	keystroke_n	n	n/a
576.9295	0.06	1153859	keystroke_l	l	n/a
577.0945	0.075	1154189	keystroke_o	o	n/a
577.2295	0.105	1154459	keystroke_a	a	n/a
577.3945	0.135	1154789	keystroke_d	d	n/a
577.6195	0.0755	1155239	keystroke_Key.space	Key.space	n/a
577.86	0.075	1155720	keystroke_e	e	n/a
578.2495	0.09	1156499	keystroke_x	x	n/a
578.4295	0.075	1156859	keystroke_i	i	n/a
578.6095	0.075	1157219	keystroke_s	s	n/a
578.9695	0.045	1157939	keystroke_i	i	n/a
579.5095	0.06	1159019	keystroke_Key.backspace	Key.backspace	n/a
579.6445	0.075	1159289	keystroke_t	t	n/a
579.8245	0.09	1159649	keystroke_i	i	n/a
580.0345	0.0905	1160069	keystroke_n	n	n/a
580.2	0.09	1160400	keystroke_g	g	n/a
580.44	0.075	1160880	keystroke_Key.space	Key.space	n/a
580.9195	0.09	1161839	keystroke_i	i	n/a
581.1595	0.1055	1162319	keystroke_n	n	n/a
581.37	0.059	1162740	keystroke_t	t	n/a
582.0595	0.075	1164119	keystroke_e	e	n/a
582.5245	0.06	1165049	keystroke_Key.backspace	Key.backspace	n/a
582.6895	0.06	1165379	keystroke_r	r	n/a
582.8095	0.075	1165619	keystroke_o	o	n/a
583.275	0.09	1166550	keystroke_d	d	n/a
583.425	0.09	1166850	keystroke_u	u	n/a
583.62	0.06	1167240	keystroke_c	c	n/a
583.83	0.075	1167660	keystroke_e	e	n/a
584.0545	0.09	1168109	keystroke_d	d	n/a
585.674	0.091	1171348	keystroke_Key.enter	Key.enter	n/a
585.7785	9.3705	1171557	prompt	n/a	bowl spanish breast officially\n
586.8145	0.075	1173629	keystroke_c	c	n/a
587.2495	0.09	1174499	keystroke_Key.backspace	Key.backspace	n/a
587.5495	0.075	1175099	keystroke_b	b	n/a
587.7595	0.06	1175519	keystroke_o	o	n/a
587.8345	0.09	1175669	keystroke_w	w	n/a
587.9995	0.18	1175999	keystroke_l	l	n/a
588.1345	0.135	1176269	keystroke_Key.space	Key.space	n/a
588.5695	0.075	1177139	keystroke_s	s	n/a
588.6595	0.075	1177319	keystroke_p	p	n/a
588.8095	0.06	1177619	keystroke_a	a	n/a
588.8995	0.075	1177799	keystroke_n	n	n/a
589.0495	0.075	1178099	keystroke_i	i	n/a
589.1845	0.09	1178369	keystroke_s	s	n/a
589.3045	0.165	1178609	keystroke_h	h	n/a
589.4995	0.1795	1178999	keystroke_Key.space	Key.space	n/a
590.16	0.075	1180320	keystroke_b	b	n/a
590.25	0.105	1180500	keystroke_r	r	n/a
590.34	0.09	1180680	keystroke_e	e	n/a
590.55	0.09	1181100	keystroke_a	a	n/a
590.9545	0.075	1181909	keystroke_s	s	n/a
591.1945	0.075	1182389	keystroke_t	t	n/a
591.3445	0.09	1182689	keystroke_Key.space	Key.space	n/a
591.5395	0.075	1183079	keystroke_o	o	n/a
591.6895	0.075	1183379	keystroke_f	f	n/a
591.8545	0.09	1183709	keystroke_f	f	n/a
592.0345	0.03	1184069	keystroke_i	i	n/a
592.1095	0.09	1184219	keystroke_c	c	n/a
592.3495	0.09	1184699	keystroke_i	i	n/a
592.5145	0.075	1185029	keystroke_a	a	n/a
592.6345	0.075	1185269	keystroke_l	l	n/a
592.7845	0.09	1185569	keystroke_l	l	n/a
593.0545	0.09	1186109	keystroke_y	y	n/a
595.065	0.074	1190130	keystroke_Key.enter	Key.enter	n/a
595.154	4.862	1190308	prompt	n/a	coast snap pays swim\n
596.295	0.015	1192590	keystroke_c	c	n/a
596.325	0.06	1192650	keystroke_o	o	n/a
596.4	0.105	1192800	keystroke_a	a	n/a
596.52	0.105	1193040	keystroke_s	s	n/a
596.82	0.075	1193640	keystroke_t	t	n/a
596.925	0.09	1193850	keystroke_Key.space	Key.space	n/a
597.1345	0.0905	1194269	keystroke_s	s	n/a
597.24	0.09	1194480	keystroke_n	n	n/a
597.345	0.09	1194690	keystroke_a	a	n/a
597.5545	0.135	1195109	keystroke_p	p	n/a
597.7045	0.12	1195409	keystroke_Key.space	Key.space	n/a
598.0045	0.075	1196009	keystroke_p	p	n/a
598.0945	0.0755	1196189	keystroke_a	a	n/a
598.38	0.06	1196760	keystroke_y	y	n/a
598.545	0.105	1197090	keystroke_s	s	n/a
598.68	0.105	1197360	keystroke_Key.space	Key.space	n/a
598.815	0.12	1197630	keystroke_s	s	n/a
599.054	0.075	1198108	keystroke_w	w	n/a
599.175	0.06	1198350	keystroke_i	i	n/a
599.385	0.089	1198770	keystroke_m	m	n/a
599.909	0.105	1199818	keystroke_Key.enter	Key.enter	n/a
600.019	10.6755	1200038	prompt	n/a	balance discuss would've providers\n
601.0495	0.075	1202099	keystroke_b	b	n/a
601.1545	0.105	1202309	keystroke_a	a	n/a
601.2895	0.075	1202579	keystroke_l	l	n/a
601.3945	0.075	1202789	keystroke_a	a	n/a
601.5295	0.09	1203059	keystroke_b	b	n/a
602.0395	0.0605	1204079	keystroke_Key.backspace	Key.backspace	n/a
602.2795	0.075	1204559	keystroke_n	n	n/a
602.4145	0.165	1204829	keystroke_c	c	n/a
602.5645	0.12	1205129	keystroke_e	e	n/a
602.7895	0.1055	1205579	keystroke_Key.space	Key.space	n/a
603.255	0.089	1206510	keystroke_d	d	n/a
603.419	0.06	1206838	keystroke_i	i	n/a
603.554	0.06	1207108	keystroke_s	s	n/a
604.034	0.1055	1208068	keystroke_c	c	n/a
604.2295	0.0595	1208459	keystroke_u	u	n/a
604.3495	0.0905	1208699	keystroke_s	s	n/a
604.545	0.06	1209090	keystroke_s	s	n/a
604.71	0.075	1209420	keystroke_Key.space	Key.space	n/a
604.875	0.075	1209750	keystroke_w	w	n/a
605.025	0.165	1210050	keystroke_o	o	n/a
605.175	0.09	1210350	keystroke_u	u	n/a
605.355	0.12	1210710	keystroke_l	l	n/a
605.49	0.075	1210980	keystroke_d	d	n/a
606.2695	0.06	1212539	keystroke_'	'	n/a
606.3895	0.045	1212779	keystroke_v	v	n/a
606.5545	0.09	1213109	keystroke_e	e	n/a
606.7945	0.09	1213589	keystroke_Key.space	Key.space	n/a
607.62	0.09	1215240	keystroke_p	p	n/a
607.86	0.06	1215720	keystroke_r	r	n/a
608.2495	0.09	1216499	keystroke_o	o	n/a
608.4895	0.09	1216979	keystroke_v	v	n/a
608.64	0.0895	1217280	keystroke_i	i	n/a
608.85	0.1045	1217700	keystroke_d	d	n/a
608.91	0.1495	1217820	keystroke_e	e	n/a
609.18	0.12	1218360	keystroke_r	r	n/a
609.6	0.075	1219200	keystroke_s	s	n/a
610.59	0.09	1221180	keystroke_Key.enter	Key.enter	n/a
610.703	13.4705	1221406	prompt	n/a	contributors occasion inkjet polar\n
614.447	0.001	1228894	keystroke_c	c	n/a
614.475	0.075	1228950	keystroke_o	o	n/a
614.655	0.09	1229310	keystroke_n	n	n/a
614.79	0.075	1229580	keystroke_t	t	n/a
614.97	0.075	1229940	keystroke_r	r	n/a
615.09	0.09	1230180	keystroke_i	i	n/a
615.39	0.075	1230780	keystroke_b	b	n/a
615.555	0.09	1231110	keystroke_u	u	n/a
615.75	0.075	1231500	keystroke_t	t	n/a
616.005	0.06	1232010	keystroke_o	o	n/a
616.26	0.03	1232520	keystroke_e	e	n/a
616.575	0.075	1233150	keystroke_Key.backspace	Key.backspace	n/a
616.695	0.075	1233390	keystroke_r	r	n/a
616.92	0.09	1233840	keystroke_s	s	n/a
617.13	0.09	1234260	keystroke_Key.space	Key.space	n/a
617.835	0.105	1235670	keystroke_o	o	n/a
618.4495	0.075	1236899	keystroke_c	c	n/a
618.6145	0.105	1237229	keystroke_c	c	n/a
618.7945	0.12	1237589	keystroke_a	a	n/a
618.9445	0.12	1237889	keystroke_s	s	n/a
619.1845	0.06	1238369	keystroke_i	i	n/a
619.3645	0.0455	1238729	keystroke_o	o	n/a
619.53	0.165	1239060	keystroke_n	n	n/a
619.68	0.105	1239360	keystroke_Key.space	Key.space	n/a
619.815	0.09	1239630	keystroke_i	i	n/a
620.0095	0.075	1240019	keystroke_n	n	n/a
620.2345	0.075	1240469	keystroke_k	k	n/a
620.91	0.06	1241820	keystroke_j	j	n/a
621.075	0.075	1242150	keystroke_e	e	n/a
621.3	0.075	1242600	keystroke_t	t	n/a
621.495	0.075	1242990	keystroke_Key.space	Key.space	n/a
621.825	0.06	1243650	keystroke_p	p	n/a
622.02	0.09	1244040	keystroke_o	o	n/a
622.245	0.075	1244490	keystroke_l	l	n/a
622.335	0.1045	1244670	keystroke_a	a	n/a
622.9345	0.105	1245869	keystroke_r	r	n/a
624.074	0.09	1248148	keystroke_Key.enter	Key.enter	n/a
624.1785	9.9105	1248357	prompt	n/a	spending articles fear outstanding\n
625.32	0.09	1250640	keystroke_s	s	n/a
625.529	0.0455	1251058	keystroke_p	p	n/a
625.6795	0.075	1251359	keystroke_e	e	n/a
625.9045	0.09	1251809	keystroke_n	n	n/a
626.219	0.076	1252438	keystroke_d	d	n/a
626.369	0.076	1252738	keystroke_i	i	n/a
626.549	0.105	1253098	keystroke_n	n	n/a
626.714	0.105	1253428	keystroke_g	g	n/a
626.879	0.09	1253758	keystroke_Key.space	Key.space	n/a
628.4695	0.075	1256939	keystroke_a	a	n/a
629.0395	0.09	1258079	keystroke_r	r	n/a
629.2495	0.075	1258499	keystroke_t	t	n/a
629.5045	0.075	1259009	keystroke_i	i	n/a
629.6095	0.105	1259219	keystroke_c	c	n/a
629.7595	0.09	1259519	keystroke_l	l	n/a
629.8645	0.075	1259729	keystroke_e	e	n/a
630.1045	0.09	1260209	keystroke_s	s	n/a
630.2695	0.09	1260539	keystroke_Key.space	Key.space	n/a
630.825	0.0895	1261650	keystroke_f	f	n/a
630.9895	0.1205	1261979	keystroke_e	e	n/a
631.2	0.135	1262400	keystroke_a	a	n/a
631.32	0.135	1262640	keystroke_r	r	n/a
631.5	0.075	1263000	keystroke_Key.space	Key.space	n/a
631.6945	0.12	1263389	keystroke_o	o	n/a
631.7995	0.105	1263599	keystroke_u	u	n/a
631.9345	0.09	1263869	keystroke_t	t	n/a
632.22	0.045	1264440	keystroke_s	s	n/a
632.49	0.074	1264980	keystroke_t	t	n/a
632.655	0.09	1265310	keystroke_a	a	n/a
632.835	0.075	1265670	keystroke_n	n	n/a
632.97	0.1195	1265940	keystroke_d	d	n/a
633.0895	0.06	1266179	keystroke_i	i	n/a
633.2545	0.06	1266509	keystroke_n	n	n/a
633.3745	0.105	1266749	keystroke_g	g	n/a
633.5695	0.06	1267139	keystroke_Key.space	Key.space	n/a
633.9895	0.09	1267979	keystroke_Key.enter	Key.enter	n/a
634.096	10.658	1268192	prompt	n/a	marathon order relevance secretary\n
635.235	0.09	1270470	keystroke_m	m	n/a
635.34	0.09	1270680	keystroke_a	a	n/a
635.564	0.121	1271128	keystroke_r	r	n/a
635.669	0.0905	1271338	keystroke_a	a	n/a
635.8795	0.09	1271759	keystroke_t	t	n/a
635.9845	0.075	1271969	keystroke_h	h	n/a
636.1795	0.075	1272359	keystroke_o	o	n/a
636.3445	0.18	1272689	keystroke_n	n	n/a
636.4945	0.12	1272989	keystroke_Key.space	Key.space	n/a
637.679	0.09	1275358	keystroke_o	o	n/a
637.844	0.06	1275688	keystroke_t	t	n/a
638.2495	0.045	1276499	keystroke_Key.backspace	Key.backspace	n/a
638.3395	0.09	1276679	keystroke_r	r	n/a
638.609	0.091	1277218	keystroke_d	d	n/a
638.714	0.1355	1277428	keystroke_e	e	n/a
638.8645	0.12	1277729	keystroke_r	r	n/a
639.0595	0.105	1278119	keystroke_Key.space	Key.space	n/a
639.4195	0.135	1278839	keystroke_r	r	n/a
639.5395	0.1045	1279079	keystroke_e	e	n/a
639.8845	0.06	1279769	keystroke_l	l	n/a
640.0045	0.09	1280009	keystroke_e	e	n/a
640.2895	0.06	1280579	keystroke_v	v	n/a
640.4695	0.075	1280939	keystroke_a	a	n/a
640.5895	0.09	1281179	keystroke_n	n	n/a
640.9795	0.165	1281959	keystroke_c	c	n/a
641.1145	0.09	1282229	keystroke_e	e	n/a
641.2645	0.12	1282529	keystroke_Key.space	Key.space	n/a
642.1645	0.0895	1284329	keystroke_s	s	n/a
642.374	0.075	1284748	keystroke_e	e	n/a
642.749	0.09	1285498	keystroke_c	c	n/a
643.004	0.105	1286008	keystroke_r	r	n/a
643.079	0.135	1286158	keystroke_e	e	n/a
643.364	0.075	1286728	keystroke_t	t	n/a
643.559	0.075	1287118	keystroke_a	a	n/a
643.679	0.12	1287358	keystroke_r	r	n/a
643.859	0.1055	1287718	keystroke_y	y	n/a
644.654	0.09	1289308	keystroke_Key.enter	Key.enter	n/a
644.7585	13.525	1289517	prompt	n/a	controversial mailman float enclosed\n
647.8965	0.028	1295793	keystroke_c	c	n/a
647.9095	0.075	1295819	keystroke_o	o	n/a
648.224	0.09	1296448	keystroke_t	t	n/a
648.629	0.075	1297258	keystroke_Key.backspace	Key.backspace	n/a
649.019	0.075	1298038	keystroke_t	t	n/a
649.3945	0.075	1298789	keystroke_Key.backspace	Key.backspace	n/a
649.7695	0.075	1299539	keystroke_n	n	n/a
649.9795	0.06	1299959	keystroke_t	t	n/a
650.429	0.075	1300858	keystroke_r	r	n/a
650.669	0.0755	1301338	keystroke_o	o	n/a
651.1645	0.06	1302329	keystroke_v	v	n/a
651.2545	0.15	1302509	keystroke_e	e	n/a
651.3745	0.09	1302749	keystroke_r	r	n/a
651.7045	0.075	1303409	keystroke_s	s	n/a
651.8245	0.06	1303649	keystroke_i	i	n/a
651.9295	0.09	1303859	keystroke_a	a	n/a
652.0495	0.0745	1304099	keystroke_l	l	n/a
652.454	0.075	1304908	keystroke_Key.space	Key.space	n/a
652.739	0.09	1305478	keystroke_m	m	n/a
652.844	0.075	1305688	keystroke_a	a	n/a
652.9645	0.09	1305929	keystroke_i	i	n/a
653.1745	0.06	1306349	keystroke_l	l	n/a
653.3845	0.105	1306769	keystroke_m	m	n/a
653.5195	0.105	1307039	keystroke_a	a	n/a
653.6545	0.135	1307309	keystroke_n	n	n/a
653.8195	0.12	1307639	keystroke_Key.space	Key.space	n/a
654.5845	0.045	1309169	keystroke_f	f	n/a
654.6745	0.075	1309349	keystroke_l	l	n/a
654.8395	0.075	1309679	keystroke_o	o	n/a
654.9595	0.1045	1309919	keystroke_a	a	n/a
655.2145	0.09	1310429	keystroke_t	t	n/a
655.349	0.09	1310698	keystroke_Key.space	Key.space	n/a
655.68	0.074	1311360	keystroke_n	n	n/a
656.144	0.06	1312288	keystroke_Key.backspace	Key.backspace	n/a
656.295	0.074	1312590	keystroke_e	e	n/a
656.475	0.075	1312950	keystroke_n	n	n/a
656.64	0.104	1313280	keystroke_d	d	n/a
656.79	0.09	1313580	keystroke_o	o	n/a
657.0745	0.06	1314149	keystroke_r	r	n/a
657.449	0.09	1314898	keystroke_s	s	n/a
657.614	0.105	1315228	keystroke_e	e	n/a
657.779	0.135	1315558	keystroke_d	d	n/a
658.1845	0.09	1316369	keystroke_Key.enter	Key.enter	n/a
658.2875	11.326	1316575	prompt	n/a	aware horn gambling pacific\n
659.9545	0.015	1319909	keystroke_a	a	n/a
659.9845	0.09	1319969	keystroke_w	w	n/a
660.0595	0.1205	1320119	keystroke_a	a	n/a
660.7945	0.135	1321589	keystroke_r	r	n/a
660.9145	0.1345	1321829	keystroke_e	e	n/a
661.214	0.09	1322428	keystroke_Key.space	Key.space	n/a
661.5295	0.0745	1323059	keystroke_h	h	n/a
661.7095	0.09	1323419	keystroke_o	o	n/a
661.7845	0.105	1323569	keystroke_r	r	n/a
661.9495	0.135	1323899	keystroke_n	n	n/a
662.0695	0.09	1324139	keystroke_Key.space	Key.space	n/a
662.3095	0.075	1324619	keystroke_g	g	n/a
662.4445	0.12	1324889	keystroke_a	a	n/a
662.5795	0.09	1325159	keystroke_m	m	n/a
662.8045	0.06	1325609	keystroke_b	b	n/a
663.014	0.061	1326028	keystroke_l	l	n/a
663.1645	0.09	1326329	keystroke_i	i	n/a
663.3295	0.09	1326659	keystroke_n	n	n/a
663.4645	0.0895	1326929	keystroke_g	g	n/a
663.614	0.075	1327228	keystroke_Key.space	Key.space	n/a
664.334	0.015	1328668	keystroke_o	o	n/a
664.3945	0.075	1328789	keystroke_a	a	n/a
665.6245	0.09	1331249	keystroke_c	c	n/a
666.1045	0.045	1332209	keystroke_Key.backspace	Key.backspace	n/a
666.2695	0.06	1332539	keystroke_Key.backspace	Key.backspace	n/a
666.6145	0.06	1333229	keystroke_Key.backspace	Key.backspace	n/a
667.124	0.075	1334248	keystroke_p	p	n/a
667.229	0.09	1334458	keystroke_a	a	n/a
667.484	0.105	1334968	keystroke_c	c	n/a
668.264	0.076	1336528	keystroke_i	i	n/a
668.4445	0.075	1336889	keystroke_f	f	n/a
668.6095	0.075	1337219	keystroke_i	i	n/a
668.8345	0.075	1337669	keystroke_c	c	n/a
669.404	0.195	1338808	keystroke_Key.enter	Key.enter	n/a
669.6215	8.7925	1339243	prompt	n/a	specific third patio conflicts\n
670.9045	0.09	1341809	keystroke_s	s	n/a
671.1145	0.075	1342229	keystroke_p	p	n/a
671.2495	0.075	1342499	keystroke_e	e	n/a
671.4595	0.1195	1342919	keystroke_c	c	n/a
671.654	0.075	1343308	keystroke_i	i	n/a
671.774	0.09	1343548	keystroke_f	f	n/a
671.909	0.075	1343818	keystroke_i	i	n/a
672.014	0.09	1344028	keystroke_c	c	n/a
672.239	0.09	1344478	keystroke_Key.space	Key.space	n/a
672.854	0.075	1345708	keystroke_t	t	n/a
673.049	0.06	1346098	keystroke_h	h	n/a
673.199	0.09	1346398	keystroke_i	i	n/a
673.319	0.075	1346638	keystroke_r	r	n/a
673.604	0.075	1347208	keystroke_d	d	n/a
673.784	0.09	1347568	keystroke_Key.space	Key.space	n/a
674.039	0.075	1348078	keystroke_p	p	n/a
674.159	0.075	1348318	keystroke_a	a	n/a
674.459	0.09	1348918	keystroke_t	t	n/a
674.609	0.06	1349218	keystroke_i	i	n/a
674.819	0.18	1349638	keystroke_o	o	n/a
674.939	0.135	1349878	keystroke_Key.space	Key.space	n/a
675.3295	0.09	1350659	keystroke_c	c	n/a
675.6895	0.075	1351379	keystroke_o	o	n/a
675.8695	0.09	1351739	keystroke_n	n	n/a
676.455	0.104	1352910	keystroke_f	f	n/a
676.634	0.06	1353268	keystroke_l	l	n/a
676.994	0.06	1353988	keystroke_i	i	n/a
677.1445	0.09	1354289	keystroke_c	c	n/a
677.4445	0.0595	1354889	keystroke_t	t	n/a
677.6995	0.105	1355399	keystroke_s	s	n/a
678.3145	0.09	1356629	keystroke_Key.enter	Key.enter	n/a
678.418	8.412	1356836	prompt	n/a	diane explanation beat vessel\n
679.604	0.09	1359208	keystroke_d	d	n/a
679.709	0.09	1359418	keystroke_i	i	n/a
679.814	0.09	1359628	keystroke_a	a	n/a
679.949	0.09	1359898	keystroke_n	n	n/a
680.189	0.075	1360378	keystroke_e	e	n/a
680.369	0.0755	1360738	keystroke_Key.space	Key.space	n/a
680.715	0.06	1361430	keystroke_e	e	n/a
681.3895	0.075	1362779	keystroke_x	x	n/a
681.5395	0.06	1363079	keystroke_p	p	n/a
681.6895	0.105	1363379	keystroke_l	l	n/a
681.8395	0.09	1363679	keystroke_a	a	n/a
682.0045	0.0755	1364009	keystroke_n	n	n/a
682.095	0.075	1364190	keystroke_a	a	n/a
682.38	0.075	1364760	keystroke_t	t	n/a
682.47	0.075	1364940	keystroke_i	i	n/a
682.665	0.03	1365330	keystroke_o	o	n/a
682.83	0.149	1365660	keystroke_n	n	n/a
682.964	0.12	1365928	keystroke_Key.space	Key.space	n/a
683.4895	0.09	1366979	keystroke_b	b	n/a
683.5945	0.075	1367189	keystroke_e	e	n/a
683.7745	0.075	1367549	keystroke_a	a	n/a
683.9845	0.105	1367969	keystroke_t	t	n/a
684.105	0.105	1368210	keystroke_Key.space	Key.space	n/a
684.525	0.015	1369050	keystroke_v	v	n/a
684.585	0.075	1369170	keystroke_e	e	n/a
684.8095	0.06	1369619	keystroke_s	s	n/a
684.9745	0.075	1369949	keystroke_s	s	n/a
685.154	0.091	1370308	keystroke_e	e	n/a
685.229	0.075	1370458	keystroke_l	l	n/a
686.714	0.105	1373428	keystroke_Key.enter	Key.enter	n/a
686.836	18.263	1373672	prompt	n/a	anatomy hunting advances restore\n
688.4395	0.075	1376879	keystroke_a	a	n/a
688.5895	0.09	1377179	keystroke_n	n	n/a
688.6945	0.075	1377389	keystroke_a	a	n/a
688.9645	0.075	1377929	keystroke_t	t	n/a
689.0695	0.075	1378139	keystroke_o	o	n/a
689.2195	0.12	1378439	keystroke_m	m	n/a
689.7295	0.0605	1379459	keystroke_Key.space	Key.space	n/a
690.0895	0.09	1380179	keystroke_Key.backspace	Key.backspace	n/a
690.36	0.18	1380720	keystroke_y	y	n/a
690.629	0.136	1381258	keystroke_Key.space	Key.space	n/a
691.17	0.075	1382340	keystroke_h	h	n/a
691.365	0.06	1382730	keystroke_u	u	n/a
691.545	0.06	1383090	keystroke_n	n	n/a
691.6195	0.0905	1383239	keystroke_t	t	n/a
691.755	0.075	1383510	keystroke_i	i	n/a
691.95	0.0595	1383900	keystroke_n	n	n/a
692.0695	0.0905	1384139	keystroke_g	g	n/a
692.37	0.12	1384740	keystroke_Key.space	Key.space	n/a
692.595	0.075	1385190	keystroke_a	a	n/a
692.88	0.06	1385760	keystroke_f	f	n/a
693.2845	0.09	1386569	keystroke_Key.backspace	Key.backspace	n/a
693.4645	0.06	1386929	keystroke_d	d	n/a
693.6895	0.075	1387379	keystroke_v	v	n/a
693.8995	0.09	1387799	keystroke_a	a	n/a
694.0345	0.09	1388069	keystroke_n	n	n/a
694.2895	0.09	1388579	keystroke_e	e	n/a
694.5295	0.09	1389059	keystroke_s	s	n/a
694.7245	0.105	1389449	keystroke_Key.space	Key.space	n/a
695.429	0.06	1390858	keystroke_Key.backspace	Key.backspace	n/a
695.609	0.045	1391218	keystroke_Key.backspace	Key.backspace	n/a
695.775	0.03	1391550	keystroke_Key.backspace	Key.backspace	n/a
696.405	0.075	1392810	keystroke_Key.backspace	Key.backspace	n/a
698.5965	0	1397193	keystroke_n	n	n/a
698.8495	0.135	1397699	keystroke_e	e	n/a
700.2145	0.075	1400429	keystroke_Key.backspace	Key.backspace	n/a
700.6645	0.09	1401329	keystroke_c	c	n/a
700.8595	0.09	1401719	keystroke_e	e	n/a
701.0845	0.09	1402169	keystroke_s	s	n/a
701.9695	0.09	1403939	keystroke_Key.space	Key.space	n/a
702.5395	0.09	1405079	keystroke_r	r	n/a
702.7495	0.105	1405499	keystroke_e	e	n/a
703.0195	0.075	1406039	keystroke_s	s	n/a
703.26	0.075	1406520	keystroke_t	t	n/a
703.424	0.076	1406848	keystroke_o	o	n/a
703.59	0.104	1407180	keystroke_r	r	n/a
703.665	0.12	1407330	keystroke_e	e	n/a
703.844	0.0605	1407688	keystroke_Key.space	Key.space	n/a
704.654	0.015	1409308	keystroke_Key.backspace	Key.backspace	n/a
705.044	0.045	1410088	keystroke_Key.enter	Key.enter	n/a
705.104	9.1765	1410208	prompt	n/a	manufacturing targeted mothers fake\n
706.6045	0.06	1413209	keystroke_m	m	n/a
706.7245	0.075	1413449	keystroke_a	a	n/a
706.8295	0.09	1413659	keystroke_n	n	n/a
706.9945	0.105	1413989	keystroke_u	u	n/a
707.2195	0.0745	1414439	keystroke_f	f	n/a
707.369	0.09	1414738	keystroke_a	a	n/a
707.579	0.105	1415158	keystroke_c	c	n/a
707.789	0.075	1415578	keystroke_t	t	n/a
707.924	0.09	1415848	keystroke_u	u	n/a
708.044	0.1055	1416088	keystroke_r	r	n/a
708.2095	0.105	1416419	keystroke_i	i	n/a
708.3895	0.09	1416779	keystroke_n	n	n/a
708.4945	0.09	1416989	keystroke_g	g	n/a
708.6295	0.09	1417259	keystroke_Key.space	Key.space	n/a
709.5295	0.045	1419059	keystroke_t	t	n/a
709.6495	0.15	1419299	keystroke_a	a	n/a
709.7845	0.105	1419569	keystroke_r	r	n/a
710.0095	0.075	1420019	keystroke_g	g	n/a
710.174	0.105	1420348	keystroke_e	e	n/a
710.294	0.135	1420588	keystroke_t	t	n/a
710.444	0.075	1420888	keystroke_e	e	n/a
710.639	0.105	1421278	keystroke_d	d	n/a
710.834	0.105	1421668	keystroke_Key.space	Key.space	n/a
711.509	0.0905	1423018	keystroke_m	m	n/a
711.719	0.075	1423438	keystroke_o	o	n/a
711.8845	0.0745	1423769	keystroke_t	t	n/a
711.974	0.0905	1423948	keystroke_h	h	n/a
712.08	0.135	1424160	keystroke_e	e	n/a
712.155	0.1495	1424310	keystroke_r	r	n/a
712.4395	0.195	1424879	keystroke_s	s	n/a
712.7395	0.09	1425479	keystroke_Key.space	Key.space	n/a
712.9345	0.06	1425869	keystroke_f	f	n/a
713.0395	0.1055	1426079	keystroke_a	a	n/a
713.175	0.0895	1426350	keystroke_k	k	n/a
713.2795	0.09	1426559	keystroke_e	e	n/a
714.15	0.12	1428300	keystroke_Key.enter	Key.enter	n/a
714.2855	6.7055	1428571	prompt	n/a	polls stops drama produce\n
715.3945	0.09	1430789	keystroke_p	p	n/a
715.5445	0.075	1431089	keystroke_o	o	n/a
715.7245	0.06	1431449	keystroke_l	l	n/a
715.844	0.075	1431688	keystroke_l	l	n/a
715.934	0.076	1431868	keystroke_s	s	n/a
716.1295	0.09	1432259	keystroke_Key.space	Key.space	n/a
716.3095	0.075	1432619	keystroke_s	s	n/a
716.519	0.075	1433038	keystroke_t	t	n/a
716.669	0.061	1433338	keystroke_o	o	n/a
717.464	0.075	1434928	keystroke_p	p	n/a
717.794	0.09	1435588	keystroke_s	s	n/a
718.004	0.075	1436008	keystroke_Key.space	Key.space	n/a
718.2145	0.0895	1436429	keystroke_d	d	n/a
718.394	0.09	1436788	keystroke_r	r	n/a
718.62	0.074	1437240	keystroke_a	a	n/a
718.754	0.075	1437508	keystroke_m	m	n/a
718.859	0.0755	1437718	keystroke_a	a	n/a
719.0095	0.0905	1438019	keystroke_Key.space	Key.space	n/a
719.235	0.075	1438470	keystroke_p	p	n/a
719.385	0.075	1438770	keystroke_r	r	n/a
719.505	0.09	1439010	keystroke_o	o	n/a
719.97	0.105	1439940	keystroke_d	d	n/a
720.195	0.09	1440390	keystroke_u	u	n/a
720.375	0.134	1440750	keystroke_c	c	n/a
720.525	0.075	1441050	keystroke_e	e	n/a
720.885	0.105	1441770	keystroke_Key.enter	Key.enter	n/a
720.994	11.0755	1441988	prompt	n/a	relative merger editor supplier\n
721.949	0.135	1443898	keystroke_r	r	n/a
722.054	0.1205	1444108	keystroke_e	e	n/a
722.8795	0.09	1445759	keystroke_l	l	n/a
723.0295	0.1045	1446059	keystroke_a	a	n/a
723.284	0.09	1446568	keystroke_t	t	n/a
723.434	0.09	1446868	keystroke_i	i	n/a
723.629	0.09	1447258	keystroke_n	n	n/a
724.094	0.0755	1448188	keystroke_Key.backspace	Key.backspace	n/a
724.2295	0.09	1448459	keystroke_v	v	n/a
724.4395	0.09	1448879	keystroke_e	e	n/a
724.7095	0.09	1449419	keystroke_Key.space	Key.space	n/a
724.9495	0.075	1449899	keystroke_m	m	n/a
725.0845	0.09	1450169	keystroke_e	e	n/a
725.2345	0.135	1450469	keystroke_r	r	n/a
725.3845	0.075	1450769	keystroke_e	e	n/a
725.79	0.075	1451580	keystroke_Key.backspace	Key.backspace	n/a
726.0895	0.0455	1452179	keystroke_g	g	n/a
726.315	0.15	1452630	keystroke_e	e	n/a
726.435	0.15	1452870	keystroke_r	r	n/a
726.705	0.0595	1453410	keystroke_Key.space	Key.space	n/a
727.7995	0.03	1455599	keystroke_e	e	n/a
728.1595	0.105	1456319	keystroke_d	d	n/a
728.3245	0.075	1456649	keystroke_i	i	n/a
728.5945	0.075	1457189	keystroke_t	t	n/a
728.8045	0.075	1457609	keystroke_o	o	n/a
728.9095	0.12	1457819	keystroke_r	r	n/a
729.0745	0.1055	1458149	keystroke_Key.space	Key.space	n/a
729.674	0.1955	1459348	keystroke_s	s	n/a
730.139	0.045	1460278	keystroke_u	u	n/a
730.334	0.09	1460668	keystroke_p	p	n/a
730.499	0.075	1460998	keystroke_p	p	n/a
730.694	0.075	1461388	keystroke_l	l	n/a
730.934	0.075	1461868	keystroke_i	i	n/a
731.2045	0.1345	1462409	keystroke_e	e	n/a
731.354	0.1055	1462708	keystroke_r	r	n/a
731.9545	0.105	1463909	keystroke_Key.enter	Key.enter	n/a
732.074	10.7045	1464148	prompt	n/a	venues final phantom trackbacks\n
733.245	0.045	1466490	keystroke_v	v	n/a
733.395	0.075	1466790	keystroke_e	e	n/a
733.545	0.09	1467090	keystroke_n	n	n/a
733.785	0.06	1467570	keystroke_u	u	n/a
733.9195	0.09	1467839	keystroke_e	e	n/a
734.1445	0.075	1468289	keystroke_s	s	n/a
734.3095	0.075	1468619	keystroke_Key.space	Key.space	n/a
735.345	0.09	1470690	keystroke_f	f	n/a
735.465	0.075	1470930	keystroke_i	i	n/a
735.63	0.09	1471260	keystroke_n	n	n/a
735.78	0.09	1471560	keystroke_a	a	n/a
735.885	0.165	1471770	keystroke_l	l	n/a
736.035	0.1195	1472070	keystroke_Key.space	Key.space	n/a
736.4095	0.075	1472819	keystroke_p	p	n/a
736.724	0.075	1473448	keystroke_h	h	n/a
736.919	0.06	1473838	keystroke_a	a	n/a
737.084	0.06	1474168	keystroke_n	n	n/a
737.249	0.09	1474498	keystroke_t	t	n/a
737.415	0.074	1474830	keystroke_o	o	n/a
737.669	0.075	1475338	keystroke_m	m	n/a
738.5245	0.12	1477049	keystroke_Key.space	Key.space	n/a
739.4245	0.075	1478849	keystroke_t	t	n/a
739.6195	0.045	1479239	keystroke_r	r	n/a
739.8145	0.09	1479629	keystroke_a	a	n/a
740.0545	0.105	1480109	keystroke_c	c	n/a
740.2495	0.0905	1480499	keystroke_k	k	n/a
740.61	0.075	1481220	keystroke_b	b	n/a
740.744	0.075	1481488	keystroke_a	a	n/a
740.9245	0.12	1481849	keystroke_c	c	n/a
741.0595	0.09	1482119	keystroke_k	k	n/a
741.1945	0.12	1482389	keystroke_s	s	n/a
742.679	0.09	1485358	keystroke_Key.enter	Key.enter	n/a
742.784	10.884	1485568	prompt	n/a	treasurer wales terry dead\n
743.955	0.09	1487910	keystroke_t	t	n/a
744.15	0.06	1488300	keystroke_r	r	n/a
744.39	0.09	1488780	keystroke_e	e	n/a
744.585	0.1045	1489170	keystroke_a	a	n/a
744.839	0.12	1489678	keystroke_s	s	n/a
745.4845	0.075	1490969	keystroke_u	u	n/a
745.619	0.136	1491238	keystroke_r	r	n/a
745.74	0.104	1491480	keystroke_e	e	n/a
746.4895	0.075	1492979	keystroke_e	e	n/a
746.9245	0.06	1493849	keystroke_Key.backspace	Key.backspace	n/a
747.104	0.075	1494208	keystroke_r	r	n/a
747.314	0.121	1494628	keystroke_Key.space	Key.space	n/a
748.0495	0.1345	1496099	keystroke_w	w	n/a
748.169	0.15	1496338	keystroke_a	a	n/a
748.409	0.075	1496818	keystroke_l	l	n/a
748.559	0.075	1497118	keystroke_e	e	n/a
748.829	0.09	1497658	keystroke_s	s	n/a
749.024	0.0905	1498048	keystroke_Key.space	Key.space	n/a
749.6095	0.105	1499219	keystroke_t	t	n/a
749.9995	0.045	1499999	keystroke_Key.backspace	Key.backspace	n/a
750.5095	0.105	1501019	keystroke_t	t	n/a
750.6745	0.18	1501349	keystroke_e	e	n/a
750.7945	0.165	1501589	keystroke_r	r	n/a
751.079	0.075	1502158	keystroke_r	r	n/a
751.349	0.15	1502698	keystroke_y	y	n/a
751.529	0.1505	1503058	keystroke_Key.space	Key.space	n/a
751.8295	0.165	1503659	keystroke_d	d	n/a
751.9345	0.12	1503869	keystroke_e	e	n/a
752.159	0.105	1504318	keystroke_a	a	n/a
752.369	0.03	1504738	keystroke_l	l	n/a
752.819	0.03	1505638	keystroke_Key.backspace	Key.backspace	n/a
752.969	0.075	1505938	keystroke_d	d	n/a
753.5695	0.09	1507139	keystroke_Key.enter	Key.enter	n/a
753.6725	10.901	1507345	prompt	n/a	paraguay result pontiac sold\n
754.9195	0.075	1509839	keystroke_p	p	n/a
755.0095	0.09	1510019	keystroke_a	a	n/a
755.2945	0.09	1510589	keystroke_r	r	n/a
755.3995	0.105	1510799	keystroke_a	a	n/a
755.774	0.045	1511548	keystroke_g	g	n/a
755.894	0.105	1511788	keystroke_u	u	n/a
756	0.104	1512000	keystroke_a	a	n/a
756.314	0.135	1512628	keystroke_y	y	n/a
756.494	0.135	1512988	keystroke_Key.space	Key.space	n/a
759.001	0.043	1518002	keystroke_r	r	n/a
759.029	0.1055	1518058	keystroke_e	e	n/a
759.2545	0.09	1518509	keystroke_s	s	n/a
759.4035	0.061	1518807	keystroke_u	u	n/a
759.6135	0.075	1519227	keystroke_l	l	n/a
759.7645	0.075	1519529	keystroke_t	t	n/a
759.9145	0.075	1519829	keystroke_Key.space	Key.space	n/a
760.3645	0.15	1520729	keystroke_p	p	n/a
760.5745	0.105	1521149	keystroke_o	o	n/a
761.0695	0.09	1522139	keystroke_n	n	n/a
761.2495	0.075	1522499	keystroke_t	t	n/a
761.4145	0.075	1522829	keystroke_i	i	n/a
761.7885	0.076	1523577	keystroke_a	a	n/a
761.9995	0.119	1523999	keystroke_c	c	n/a
762.1945	0.12	1524389	keystroke_Key.space	Key.space	n/a
762.4185	0.1205	1524837	keystroke_s	s	n/a
762.854	0.06	1525708	keystroke_o	o	n/a
763.049	0.06	1526098	keystroke_l	l	n/a
764.054	0.0755	1528108	keystroke_d	d	n/a
764.489	0.075	1528978	keystroke_Key.enter	Key.enter	n/a
764.5785	11.919	1529157	prompt	n/a	taxation sitemap tactics alexander\n
765.6295	0.075	1531259	keystroke_t	t	n/a
765.8095	0.09	1531619	keystroke_a	a	n/a
766.214	0.075	1532428	keystroke_x	x	n/a
766.439	0.06	1532878	keystroke_a	a	n/a
766.739	0.105	1533478	keystroke_t	t	n/a
766.859	0.075	1533718	keystroke_i	i	n/a
767.054	0.045	1534108	keystroke_o	o	n/a
767.249	0.135	1534498	keystroke_n	n	n/a
767.429	0.0905	1534858	keystroke_Key.space	Key.space	n/a
770.2515	0.001	1540503	keystroke_s	s	n/a
770.3835	0.061	1540767	keystroke_i	i	n/a
770.5485	0.075	1541097	keystroke_t	t	n/a
770.729	0.09	1541458	keystroke_e	e	n/a
770.909	0.09	1541818	keystroke_m	m	n/a
771.059	0.075	1542118	keystroke_a	a	n/a
771.269	0.06	1542538	keystroke_p	p	n/a
771.539	0.1045	1543078	keystroke_Key.space	Key.space	n/a
772.1985	0.075	1544397	keystroke_t	t	n/a
772.3935	0.0745	1544787	keystroke_a	a	n/a
772.633	0.105	1545266	keystroke_c	c	n/a
772.873	0.06	1545746	keystroke_t	t	n/a
773.008	0.09	1546016	keystroke_i	i	n/a
773.188	0.105	1546376	keystroke_c	c	n/a
773.428	0.105	1546856	keystroke_s	s	n/a
773.653	0.075	1547306	keystroke_Key.space	Key.space	n/a
773.923	0.09	1547846	keystroke_a	a	n/a
774.178	0.061	1548356	keystroke_l	l	n/a
774.268	0.09	1548536	keystroke_e	e	n/a
774.598	0.105	1549196	keystroke_x	x	n/a
774.7775	0.12	1549555	keystroke_a	a	n/a
774.9575	0.0905	1549915	keystroke_n	n	n/a
775.183	0.12	1550366	keystroke_d	d	n/a
775.288	0.195	1550576	keystroke_e	e	n/a
775.453	0.105	1550906	keystroke_r	r	n/a
776.3675	0.12	1552735	keystroke_Key.enter	Key.enter	n/a
776.5025	9.0235	1553005	prompt	n/a	courier method visitor they\n
777.4175	0.09	1554835	keystroke_c	c	n/a
777.6275	0.105	1555255	keystroke_o	o	n/a
777.7775	0.045	1555555	keystroke_u	u	n/a
778.1825	0.045	1556365	keystroke_r	r	n/a
778.3775	0.075	1556755	keystroke_i	i	n/a
778.828	0.1945	1557656	keystroke_e	e	n/a
778.978	0.1495	1557956	keystroke_r	r	n/a
779.2175	0.09	1558435	keystroke_Key.space	Key.space	n/a
779.5625	0.06	1559125	keystroke_m	m	n/a
779.6375	0.0895	1559275	keystroke_e	e	n/a
779.862	0.075	1559724	keystroke_t	t	n/a
779.892	0.075	1559784	keystroke_h	h	n/a
780.072	0.105	1560144	keystroke_o	o	n/a
780.3575	0.06	1560715	keystroke_d	d	n/a
781.257	0.105	1562514	keystroke_Key.space	Key.space	n/a
781.9165	0.06	1563833	keystroke_v	v	n/a
782.0215	0.0755	1564043	keystroke_i	i	n/a
782.1715	0.045	1564343	keystroke_s	s	n/a
782.2765	0.06	1564553	keystroke_i	i	n/a
782.5615	0.06	1565123	keystroke_t	t	n/a
782.6965	0.09	1565393	keystroke_o	o	n/a
782.8165	0.12	1565633	keystroke_r	r	n/a
783.027	0.075	1566054	keystroke_Key.space	Key.space	n/a
783.7015	0.075	1567403	keystroke_t	t	n/a
783.8365	0.075	1567673	keystroke_h	h	n/a
783.8965	0.105	1567793	keystroke_e	e	n/a
784.1825	0.134	1568365	keystroke_y	y	n/a
784.3015	0.15	1568603	keystroke_Key.space	Key.space	n/a
785.4265	0.09	1570853	keystroke_Key.enter	Key.enter	n/a
785.5305	9.4295	1571061	prompt	n/a	like designers mirrors site\n
786.6415	0.075	1573283	keystroke_l	l	n/a
786.8365	0.075	1573673	keystroke_i	i	n/a
786.9865	0.0905	1573973	keystroke_k	k	n/a
787.092	0.09	1574184	keystroke_e	e	n/a
787.212	0.105	1574424	keystroke_Key.space	Key.space	n/a
787.377	0.1345	1574754	keystroke_d	d	n/a
787.4665	0.12	1574933	keystroke_e	e	n/a
787.9465	0.09	1575893	keystroke_i	i	n/a
788.501	0.06	1577002	keystroke_Key.backspace	Key.backspace	n/a
788.636	0.105	1577272	keystroke_s	s	n/a
788.771	0.105	1577542	keystroke_i	i	n/a
789.3415	0.06	1578683	keystroke_g	g	n/a
789.5665	0.074	1579133	keystroke_n	n	n/a
789.7765	0.135	1579553	keystroke_e	e	n/a
789.8815	0.119	1579763	keystroke_r	r	n/a
790.1055	0.105	1580211	keystroke_s	s	n/a
790.3005	0.075	1580601	keystroke_Key.space	Key.space	n/a
790.5105	0.105	1581021	keystroke_m	m	n/a
790.7055	0.075	1581411	keystroke_i	i	n/a
790.9605	0.045	1581921	keystroke_r	r	n/a
791.1255	0.075	1582251	keystroke_r	r	n/a
791.2455	0.06	1582491	keystroke_o	o	n/a
791.4255	0.0905	1582851	keystroke_e	e	n/a
791.951	0.015	1583902	keystroke_Key.backspace	Key.backspace	n/a
792.131	0.15	1584262	keystroke_r	r	n/a
792.251	0.1355	1584502	keystroke_s	s	n/a
792.4315	0.105	1584863	keystroke_Key.space	Key.space	n/a
792.7615	0.1045	1585523	keystroke_s	s	n/a
792.896	0.09	1585792	keystroke_i	i	n/a
793.106	0.18	1586212	keystroke_r	r	n/a
793.376	0.09	1586752	keystroke_e	e	n/a
793.706	0.06	1587412	keystroke_Key.backspace	Key.backspace	n/a
793.8865	0.045	1587773	keystroke_Key.backspace	Key.backspace	n/a
794.0365	0.15	1588073	keystroke_t	t	n/a
794.1715	0.105	1588343	keystroke_e	e	n/a
794.8915	0.06	1589783	keystroke_Key.enter	Key.enter	n/a
794.965	7.8105	1589930	prompt	n/a	shipping dress aims forth\n
796.2865	0.06	1592573	keystroke_s	s	n/a
796.4665	0.06	1592933	keystroke_h	h	n/a
796.6465	0.09	1593293	keystroke_i	i	n/a
796.8865	0.06	1593773	keystroke_p	p	n/a
797.0215	0.075	1594043	keystroke_p	p	n/a
797.1715	0.075	1594343	keystroke_i	i	n/a
797.3665	0.075	1594733	keystroke_n	n	n/a
797.4865	0.075	1594973	keystroke_g	g	n/a
797.5765	0.09	1595153	keystroke_Key.space	Key.space	n/a
797.7565	0.135	1595513	keystroke_d	d	n/a
798.0265	0.0895	1596053	keystroke_r	r	n/a
798.131	0.105	1596262	keystroke_e	e	n/a
798.371	0.06	1596742	keystroke_s	s	n/a
798.536	0.075	1597072	keystroke_s	s	n/a
798.686	0.09	1597372	keystroke_Key.space	Key.space	n/a
798.956	0.075	1597912	keystroke_a	a	n/a
799.106	0.075	1598212	keystroke_i	i	n/a
799.286	0.0905	1598572	keystroke_m	m	n/a
799.4055	0.166	1598811	keystroke_s	s	n/a
799.6455	0.075	1599291	keystroke_Key.space	Key.space	n/a
800.306	0.09	1600612	keystroke_f	f	n/a
800.441	0.136	1600882	keystroke_o	o	n/a
801.2515	0.105	1602503	keystroke_r	r	n/a
801.6115	0.105	1603223	keystroke_t	t	n/a
801.9115	0.06	1603823	keystroke_h	h	n/a
802.6915	0.075	1605383	keystroke_Key.enter	Key.enter	n/a
802.7815	8.934	1605563	prompt	n/a	commissioner chose argument cart\n
803.8615	0.075	1607723	keystroke_c	c	n/a
803.9665	0.0895	1607933	keystroke_o	o	n/a
804.1765	0.075	1608353	keystroke_m	m	n/a
804.3265	0.075	1608653	keystroke_m	m	n/a
804.4915	0.09	1608983	keystroke_i	i	n/a
804.7315	0.015	1609463	keystroke_s	s	n/a
804.851	0.075	1609702	keystroke_s	s	n/a
805.0015	0.06	1610003	keystroke_i	i	n/a
805.1965	0.045	1610393	keystroke_o	o	n/a
