onset	duration	sample	value	key	prompt_text
3.4485	17.356	6897	prompt	n/a	the quick brown fox jumps over a lazy dog\n
4.95	0.0715	9900	keystroke	t	n/a
5.1115	0.149	10223	keystroke	h	n/a
5.2155	0.211	10431	keystroke	e	n/a
5.3805	0.135	10761	keystroke	Key.space	n/a
5.6515	0.119	11303	keystroke	q	n/a
5.9365	0.06	11873	keystroke	y	n/a
6.9245	0.076	13849	keystroke	Key.backspace	n/a
7.3155	0.076	14631	keystroke	u	n/a
7.4965	0.061	14993	keystroke	i	n/a
7.692	0.09	15384	keystroke	c	n/a
7.9165	0.075	15833	keystroke	k	n/a
8.1265	0.12	16253	keystroke	Key.space	n/a
9.027	0.0595	18054	keystroke	b	n/a
9.1765	0.105	18353	keystroke	r	n/a
9.791	0.076	19582	keystroke	o	n/a
10.047	0.135	20094	keystroke	w	n/a
10.452	0.105	20904	keystroke	n	n/a
10.692	0.12	21384	keystroke	Key.space	n/a
11.232	0.0905	22464	keystroke	f	n/a
11.5025	0.06	23005	keystroke	o	n/a
11.8325	0.135	23665	keystroke	x	n/a
12.0875	0.09	24175	keystroke	Key.space	n/a
13.5275	0.105	27055	keystroke	j	n/a
13.7075	0.06	27415	keystroke	u	n/a
13.947	0.075	27894	keystroke	m	n/a
14.2925	0.075	28585	keystroke	p	n/a
14.4425	0.165	28885	keystroke	s	n/a
14.5625	0.135	29125	keystroke	Key.space	n/a
14.7425	0.06	29485	keystroke	i	n/a
14.8475	0.149	29695	keystroke	v	n/a
14.9815	0.196	29963	keystroke	e	n/a
15.1025	0.165	30205	keystroke	r	n/a
15.8225	0.045	31645	keystroke	Key.backspace	n/a
15.9725	0.09	31945	keystroke	Key.backspace	n/a
16.1525	0.075	32305	keystroke	Key.backspace	n/a
16.4675	0.06	32935	keystroke	Key.backspace	n/a
17.0075	0.075	34015	keystroke	o	n/a
17.2025	0.15	34405	keystroke	v	n/a
17.3225	0.21	34645	keystroke	e	n/a
17.4575	0.15	34915	keystroke	r	n/a
17.7275	0.12	35455	keystroke	Key.space	n/a
18.2665	0.15	36533	keystroke	a	n/a
18.4315	0.12	36863	keystroke	Key.space	n/a
18.8665	0.09	37733	keystroke	l	n/a
18.9865	0.091	37973	keystroke	a	n/a
19.2125	0.18	38425	keystroke	z	n/a
19.4225	0.09	38845	keystroke	y	n/a
19.5575	0.12	39115	keystroke	Key.space	n/a
19.962	0.135	39924	keystroke	d	n/a
20.127	0.105	40254	keystroke	o	n/a
20.337	0.12	40674	keystroke	g	n/a
20.727	0.075	41454	keystroke	Key.enter	n/a
20.8085	14.636	41617	prompt	n/a	perceived closure published sunshine\n
21.8675	0.1195	43735	keystroke	p	n/a
22.077	0.18	44154	keystroke	e	n/a
22.362	0.12	44724	keystroke	r	n/a
23.1715	0.1355	46343	keystroke	c	n/a
23.4125	0.105	46825	keystroke	e	n/a
23.6825	0.105	47365	keystroke	i	n/a
24.0725	0.1345	48145	keystroke	v	n/a
24.282	0.09	48564	keystroke	e	n/a
24.477	0.15	48954	keystroke	d	n/a
24.612	0.135	49224	keystroke	Key.space	n/a
25.3025	0.135	50605	keystroke	c	n/a
25.4225	0.075	50845	keystroke	l	n/a
25.6175	0.074	51235	keystroke	o	n/a
25.7975	0.135	51595	keystroke	s	n/a
25.9775	0.074	51955	keystroke	e	n/a
26.622	0.105	53244	keystroke	Key.backspace	n/a
27.2225	0.0745	54445	keystroke	u	n/a
27.5515	0.12	55103	keystroke	r	n/a
27.6875	0.164	55375	keystroke	e	n/a
27.8815	0.151	55763	keystroke	Key.space	n/a
28.452	0.045	56904	keystroke	p	n/a
29.067	0.09	58134	keystroke	u	n/a
29.382	0.075	58764	keystroke	b	n/a
29.502	0.12	59004	keystroke	l	n/a
29.697	0.105	59394	keystroke	i	n/a
31.287	0.1205	62574	keystroke	s	n/a
31.3925	0.09	62785	keystroke	h	n/a
31.5125	0.075	63025	keystroke	e	n/a
31.707	0.15	63414	keystroke	d	n/a
31.842	0.135	63684	keystroke	Key.space	n/a
32.112	0.135	64224	keystroke	s	n/a
32.262	0.03	64524	keystroke	u	n/a
33.1925	0.09	66385	keystroke	n	n/a
33.7175	0.1195	67435	keystroke	s	n/a
33.792	0.12	67584	keystroke	h	n/a
33.882	0.18	67764	keystroke	i	n/a
34.032	0.135	68064	keystroke	n	n/a
34.152	0.105	68304	keystroke	e	n/a
35.3675	0.075	70735	keystroke	Key.enter	n/a
35.4505	9.9985	70901	prompt	n/a	encoding she attribute east\n
36.2375	0.15	72475	keystroke	e	n/a
36.5825	0.105	73165	keystroke	c	n/a
38.082	0.075	76164	keystroke	Key.backspace	n/a
38.622	0.045	77244	keystroke	n	n/a
38.847	0.09	77694	keystroke	c	n/a
39.042	0.075	78084	keystroke	o	n/a
39.327	0.105	78654	keystroke	d	n/a
39.492	0.21	78984	keystroke	i	n/a
39.583	0.149	79166	keystroke	n	n/a
39.717	0.165	79434	keystroke	g	n/a
39.867	0.15	79734	keystroke	Key.space	n/a
40.257	0.136	80514	keystroke	s	n/a
40.362	0.135	80724	keystroke	h	n/a
40.542	0.135	81084	keystroke	e	n/a
40.662	0.135	81324	keystroke	Key.space	n/a
40.872	0.1205	81744	keystroke	a	n/a
41.1425	0.06	82285	keystroke	t	n/a
41.2775	0.09	82555	keystroke	t	n/a
41.4575	0.105	82915	keystroke	r	n/a
42.1775	0.075	84355	keystroke	i	n/a
42.4625	0.0895	84925	keystroke	b	n/a
42.612	0.09	85224	keystroke	u	n/a
43.2275	0.075	86455	keystroke	t	n/a
43.4225	0.12	86845	keystroke	e	n/a
43.6625	0.12	87325	keystroke	Key.space	n/a
44.1575	0.12	88315	keystroke	e	n/a
44.3825	0.075	88765	keystroke	a	n/a
44.5175	0.105	89035	keystroke	s	n/a
45.0125	0.105	90025	keystroke	t	n/a
45.327	0.12	90654	keystroke	Key.enter	n/a
45.4515	6.5225	90903	prompt	n/a	scenic blow salary legend\n
46.2725	0.105	92545	keystroke	s	n/a
46.6175	0.165	93235	keystroke	c	n/a
46.8125	0.09	93625	keystroke	e	n/a
47.0225	0.135	94045	keystroke	n	n/a
47.1875	0.105	94375	keystroke	i	n/a
47.3825	0.165	94765	keystroke	c	n/a
47.5775	0.12	95155	keystroke	Key.space	n/a
47.8625	0.1045	95725	keystroke	b	n/a
47.982	0.06	95964	keystroke	l	n/a
48.237	0.015	96474	keystroke	o	n/a
48.282	0.165	96564	keystroke	w	n/a
48.447	0.105	96894	keystroke	Key.space	n/a
48.702	0.106	97404	keystroke	s	n/a
48.867	0.105	97734	keystroke	a	n/a
49.302	0.106	98604	keystroke	l	n/a
49.452	0.12	98904	keystroke	a	n/a
49.692	0.12	99384	keystroke	r	n/a
49.977	0.09	99954	keystroke	y	n/a
50.202	0.105	100404	keystroke	Key.space	n/a
50.412	0.105	100824	keystroke	l	n/a
50.547	0.135	101094	keystroke	e	n/a
50.847	0.105	101694	keystroke	g	n/a
51.072	0.09	102144	keystroke	e	n/a
51.207	0.1055	102414	keystroke	n	n/a
51.4475	0.12	102895	keystroke	d	n/a
51.8825	0.09	103765	keystroke	Key.enter	n/a
51.9785	12.4155	103957	prompt	n/a	plastics shareholders ferrari prozac\n
53.113	0.045	106226	keystroke	p	n/a
53.308	0.105	106616	keystroke	l	n/a
53.517	0.106	107034	keystroke	a	n/a
54.6575	0.09	109315	keystroke	s	n/a
54.9125	0.075	109825	keystroke	t	n/a
55.0325	0.105	110065	keystroke	i	n/a
55.3025	0.1195	110605	keystroke	c	n/a
55.438	0.164	110876	keystroke	s	n/a
55.632	0.135	111264	keystroke	Key.space	n/a
56.098	0.1045	112196	keystroke	s	n/a
56.2175	0.135	112435	keystroke	h	n/a
56.3825	0.18	112765	keystroke	a	n/a
56.5775	0.12	113155	keystroke	r	n/a
56.6525	0.12	113305	keystroke	e	n/a
56.907	0.105	113814	keystroke	h	n/a
56.997	0.105	113994	keystroke	o	n/a
57.207	0.105	114414	keystroke	l	n/a
57.327	0.12	114654	keystroke	d	n/a
57.5825	0.09	115165	keystroke	e	n/a
57.6275	0.12	115255	keystroke	r	n/a
58.0475	0.12	116095	keystroke	s	n/a
58.3475	0.15	116695	keystroke	Key.space	n/a
58.7375	0.12	117475	keystroke	f	n/a
59.0075	0.15	118015	keystroke	e	n/a
59.1275	0.135	118255	keystroke	r	n/a
59.397	0.105	118794	keystroke	r	n/a
59.787	0.105	119574	keystroke	a	n/a
60.027	0.105	120054	keystroke	r	n/a
60.958	0.09	121916	keystroke	i	n/a
61.273	0.15	122546	keystroke	Key.space	n/a
61.768	0.06	123536	keystroke	p	n/a
61.933	0.135	123866	keystroke	r	n/a
62.083	0.135	124166	keystroke	o	n/a
62.4425	0.165	124885	keystroke	z	n/a
62.7425	0.075	125485	keystroke	a	n/a
63.1325	0.0905	126265	keystroke	x	n/a
63.778	0.105	127556	keystroke	Key.backspace	n/a
63.9725	0.105	127945	keystroke	c	n/a
64.317	0.075	128634	keystroke	Key.enter	n/a
64.3975	13.767	128795	prompt	n/a	prev stayed enjoyed peru\n
65.577	0.09	131154	keystroke	p	n/a
65.8325	0.135	131665	keystroke	r	n/a
65.9225	0.15	131845	keystroke	e	n/a
66.2825	0.15	132565	keystroke	v	n/a
67.0175	0.135	134035	keystroke	Key.space	n/a
67.302	0.09	134604	keystroke	s	n/a
67.512	0.12	135024	keystroke	t	n/a
67.677	0.135	135354	keystroke	a	n/a
68.127	0.105	136254	keystroke	y	n/a
68.682	0.09	137364	keystroke	e	n/a
68.877	0.15	137754	keystroke	d	n/a
69.042	0.135	138084	keystroke	Key.space	n/a
69.252	0.1055	138504	keystroke	e	n/a
69.3725	0.12	138745	keystroke	n	n/a
69.6125	0.15	139225	keystroke	j	n/a
69.7025	0.15	139405	keystroke	o	n/a
70.5575	0.09	141115	keystroke	y	n/a
70.6925	0.09	141385	keystroke	e	n/a
70.9025	0.135	141805	keystroke	d	n/a
71.0525	0.135	142105	keystroke	Key.space	n/a
72.087	0.105	144174	keystroke	o	n/a
72.552	0.09	145104	keystroke	e	n/a
72.792	0.075	145584	keystroke	r	n/a
73.032	0.045	146064	keystroke	u	n/a
73.287	0.06	146574	keystroke	'	n/a
74.382	0.045	148764	keystroke	Key.backspace	n/a
74.487	0.0905	148974	keystroke	Key.backspace	n/a
74.6525	0.075	149305	keystroke	Key.backspace	n/a
74.8625	0.06	149725	keystroke	Key.backspace	n/a
75.2225	0.06	150445	keystroke	Key.backspace	n/a
76.152	0.075	152304	keystroke	p	n/a
76.408	0.104	152816	keystroke	e	n/a
76.6325	0.09	153265	keystroke	r	n/a
76.8875	0.0755	153775	keystroke	u	n/a
78.0875	0.075	156175	keystroke	Key.enter	n/a
78.169	8.95	156338	prompt	n/a	programmes bigger washer coding\n
79.617	0.09	159234	keystroke	p	n/a
79.753	0.1495	159506	keystroke	r	n/a
79.9175	0.09	159835	keystroke	o	n/a
80.1725	0.1045	160345	keystroke	g	n/a
80.3675	0.105	160735	keystroke	r	n/a
80.5925	0.12	161185	keystroke	a	n/a
80.9225	0.075	161845	keystroke	m	n/a
81.0725	0.105	162145	keystroke	m	n/a
81.4775	0.09	162955	keystroke	e	n/a
81.6875	0.1495	163375	keystroke	s	n/a
81.912	0.12	163824	keystroke	Key.space	n/a
82.737	0.09	165474	keystroke	b	n/a
82.9475	0.075	165895	keystroke	i	n/a
83.667	0.075	167334	keystroke	g	n/a
83.832	0.075	167664	keystroke	g	n/a
84.042	0.1655	168084	keystroke	e	n/a
84.2225	0.135	168445	keystroke	r	n/a
84.3875	0.1345	168775	keystroke	Key.space	n/a
84.598	0.15	169196	keystroke	w	n/a
84.853	0.105	169706	keystroke	a	n/a
85.152	0.151	170304	keystroke	s	n/a
85.258	0.105	170516	keystroke	h	n/a
85.498	0.195	170996	keystroke	e	n/a
85.648	0.135	171296	keystroke	r	n/a
85.797	0.135	171594	keystroke	Key.space	n/a
86.068	0.149	172136	keystroke	c	n/a
86.202	0.12	172404	keystroke	o	n/a
86.412	0.1205	172824	keystroke	d	n/a
86.6225	0.165	173245	keystroke	i	n/a
86.6825	0.165	173365	keystroke	n	n/a
86.8025	0.135	173605	keystroke	g	n/a
87.0275	0.09	174055	keystroke	Key.enter	n/a
87.1245	15.144	174249	prompt	n/a	retailers rwanda liverpool thehun\n
88.3625	0.165	176725	keystroke	r	n/a
88.6025	0.135	177205	keystroke	e	n/a
88.8725	0.12	177745	keystroke	t	n/a
89.0825	0.135	178165	keystroke	a	n/a
90.132	0.075	180264	keystroke	i	n/a
90.373	0.09	180746	keystroke	l	n/a
90.613	0.165	181226	keystroke	e	n/a
90.763	0.105	181526	keystroke	r	n/a
90.958	0.1645	181916	keystroke	s	n/a
91.0925	0.134	182185	keystroke	Key.space	n/a
93.1025	0.12	186205	keystroke	r	n/a
93.792	0.12	187584	keystroke	w	n/a
94.002	0.135	188004	keystroke	a	n/a
94.872	0.121	189744	keystroke	n	n/a
95.007	0.135	190014	keystroke	d	n/a
95.098	0.149	190196	keystroke	a	n/a
95.277	0.15	190554	keystroke	Key.space	n/a
95.8325	0.09	191665	keystroke	l	n/a
96.387	0.09	192774	keystroke	i	n/a
96.597	0.165	193194	keystroke	v	n/a
96.777	0.165	193554	keystroke	e	n/a
96.867	0.09	193734	keystroke	r	n/a
98.5775	0.09	197155	keystroke	p	n/a
98.8175	0.09	197635	keystroke	o	n/a
98.9675	0.06	197935	keystroke	o	n/a
99.1625	0.09	198325	keystroke	l	n/a
99.327	0.135	198654	keystroke	Key.space	n/a
99.702	0.105	199404	keystroke	t	n/a
99.792	0.12	199584	keystroke	h	n/a
99.972	0.105	199944	keystroke	e	n/a
100.7375	0.09	201475	keystroke	h	n/a
100.8875	0.12	201775	keystroke	u	n/a
101.6975	0.075	203395	keystroke	n	n/a
102.207	0.06	204414	keystroke	Key.enter	n/a
102.2715	12.237	204543	prompt	n/a	reported contributor enters viewers\n
103.1215	0.09	206243	keystroke	r	n/a
103.1665	0.121	206333	keystroke	e	n/a
103.3175	0.134	206635	keystroke	p	n/a
103.5575	0.105	207115	keystroke	o	n/a
103.8275	0.135	207655	keystroke	r	n/a
104.0675	0.0595	208135	keystroke	t	n/a
104.2615	0.076	208523	keystroke	t	n/a
104.3675	0.135	208735	keystroke	e	n/a
104.5925	0.12	209185	keystroke	d	n/a
105.4925	0.0745	210985	keystroke	Key.backspace	n/a
105.6425	0.09	211285	keystroke	Key.backspace	n/a
105.7925	0.105	211585	keystroke	Key.backspace	n/a
106.0775	0.075	212155	keystroke	e	n/a
106.272	0.1205	212544	keystroke	d	n/a
106.707	0.12	213414	keystroke	Key.space	n/a
107.2025	0.12	214405	keystroke	c	n/a
107.3075	0.1945	214615	keystroke	o	n/a
107.472	0.15	214944	keystroke	n	n/a
107.787	0.075	215574	keystroke	t	n/a
107.967	0.12	215934	keystroke	r	n/a
108.192	0.045	216384	keystroke	u	n/a
109.3325	0.09	218665	keystroke	Key.backspace	n/a
109.6475	0.09	219295	keystroke	i	n/a
109.8725	0.09	219745	keystroke	b	n/a
110.0225	0.09	220045	keystroke	u	n/a
110.2325	0.105	220465	keystroke	t	n/a
110.4275	0.12	220855	keystroke	o	n/a
110.6525	0.105	221305	keystroke	r	n/a
110.9075	0.12	221815	keystroke	Key.space	n/a
111.1625	0.135	222325	keystroke	e	n/a
111.3425	0.12	222685	keystroke	n	n/a
111.5375	0.12	223075	keystroke	t	n/a
111.6725	0.21	223345	keystroke	e	n/a
111.7925	0.15	223585	keystroke	r	n/a
112.0025	0.1945	224005	keystroke	s	n/a
112.227	0.135	224454	keystroke	Key.space	n/a
112.482	0.105	224964	keystroke	v	n/a
112.647	0.12	225294	keystroke	i	n/a
112.812	0.15	225624	keystroke	e	n/a
113.007	0.12	226014	keystroke	w	n/a
113.6825	0.12	227365	keystroke	e	n/a
113.8475	0.09	227695	keystroke	r	n/a
114.1325	0.105	228265	keystroke	s	n/a
114.4025	0.105	228805	keystroke	Key.enter	n/a
114.512	10.5725	229024	prompt	n/a	disciplinary resorts affair puts\n
115.2425	0.105	230485	keystroke	d	n/a
115.3775	0.105	230755	keystroke	i	n/a
115.4975	0.1195	230995	keystroke	s	n/a
117.3575	0.135	234715	keystroke	c	n/a
117.4775	0.105	234955	keystroke	i	n/a
117.807	0.09	235614	keystroke	p	n/a
118.032	0.105	236064	keystroke	l	n/a
118.8725	0.09	237745	keystroke	i	n/a
119.1425	0.105	238285	keystroke	n	n/a
119.2325	0.135	238465	keystroke	a	n/a
119.4725	0.0895	238945	keystroke	r	n/a
119.667	0.12	239334	keystroke	y	n/a
119.952	0.15	239904	keystroke	Key.space	n/a
120.477	0.135	240954	keystroke	r	n/a
120.552	0.165	241104	keystroke	e	n/a
120.867	0.15	241734	keystroke	s	n/a
121.062	0.12	242124	keystroke	o	n/a
121.363	0.074	242726	keystroke	r	n/a
121.542	0.105	243084	keystroke	t	n/a
121.7975	0.135	243595	keystroke	s	n/a
121.9925	0.165	243985	keystroke	Key.space	n/a
122.367	0.121	244734	keystroke	a	n/a
122.577	0.136	245154	keystroke	f	n/a
122.773	0.12	245546	keystroke	f	n/a
122.952	0.136	245904	keystroke	a	n/a
123.163	0.1195	246326	keystroke	i	n/a
123.3275	0.18	246655	keystroke	r	n/a
123.5375	0.12	247075	keystroke	Key.space	n/a
124.0775	0.09	248155	keystroke	p	n/a
124.2875	0.09	248575	keystroke	u	n/a
124.4825	0.12	248965	keystroke	t	n/a
124.6625	0.165	249325	keystroke	s	n/a
124.9775	0.105	249955	keystroke	Key.enter	n/a
125.0885	20.6355	250177	prompt	n/a	bite botswana load minolta\n
126.297	0.105	252594	keystroke	b	n/a
126.492	0.075	252984	keystroke	i	n/a
126.702	0.135	253404	keystroke	t	n/a
126.807	0.195	253614	keystroke	e	n/a
127.017	0.15	254034	keystroke	Key.space	n/a
127.542	0.135	255084	keystroke	b	n/a
127.797	0.075	255594	keystroke	o	n/a
129.0875	0.12	258175	keystroke	t	n/a
129.4025	0.135	258805	keystroke	s	n/a
129.7775	0.105	259555	keystroke	w	n/a
129.9575	0.12	259915	keystroke	a	n/a
130.2575	0.135	260515	keystroke	n	n/a
130.4525	0.135	260905	keystroke	a	n/a
130.9025	0.12	261805	keystroke	Key.space	n/a
131.5025	0.09	263005	keystroke	l	n/a
131.697	0.105	263394	keystroke	o	n/a
131.847	0.135	263694	keystroke	a	n/a
132.042	0.135	264084	keystroke	d	n/a
132.342	0.12	264684	keystroke	Key.space	n/a
132.672	0.09	265344	keystroke	m	n/a
133.6175	0.105	267235	keystroke	i	n/a
133.9325	0.1495	267865	keystroke	n	n/a
134.067	0.12	268134	keystroke	i	n/a
134.397	0.135	268794	keystroke	l	n/a
134.592	0.03	269184	keystroke	l	n/a
134.652	0.015	269304	keystroke	l	n/a
135.312	0.12	270624	keystroke	Key.backspace	n/a
135.8825	0.06	271765	keystroke	Key.backspace	n/a
138.5395	0.028	277079	keystroke	Key.backspace	n/a
139.332	0.09	278664	keystroke	Key.backspace	n/a
139.842	0.075	279684	keystroke	o	n/a
140.037	0.09	280074	keystroke	l	n/a
145.125	0.102	290250	keystroke	t	n/a
145.242	0.1955	290484	keystroke	a	n/a
145.617	0.105	291234	keystroke	Key.enter	n/a
145.7275	13.4365	291455	prompt	n/a	likelihood combination brunei enhance\n
146.562	0.105	293124	keystroke	l	n/a
146.772	0.075	293544	keystroke	i	n/a
146.967	0.105	293934	keystroke	k	n/a
147.4625	0.1205	294925	keystroke	e	n/a
148.1525	0.0755	296305	keystroke	i	n/a
149.668	0.075	299336	keystroke	h	n/a
149.953	0.06	299906	keystroke	o	n/a
150.118	0.0745	300236	keystroke	o	n/a
150.2975	0.15	300595	keystroke	d	n/a
150.4625	0.1645	300925	keystroke	Key.space	n/a
150.792	0.135	301584	keystroke	c	n/a
150.957	0.24	301914	keystroke	o	n/a
151.078	0.149	302156	keystroke	m	n/a
151.4375	0.075	302875	keystroke	b	n/a
151.5275	0.0895	303055	keystroke	i	n/a
151.812	0.0905	303624	keystroke	n	n/a
152.0225	0.105	304045	keystroke	a	n/a
152.2475	0.0895	304495	keystroke	t	n/a
152.412	0.225	304824	keystroke	i	n/a
152.472	0.15	304944	keystroke	o	n/a
152.547	0.15	305094	keystroke	n	n/a
152.727	0.15	305454	keystroke	Key.space	n/a
153.9725	0.105	307945	keystroke	b	n/a
154.2275	0.1205	308455	keystroke	r	n/a
155.0825	0.105	310165	keystroke	u	n/a
155.443	0.089	310886	keystroke	n	n/a
155.622	0.1055	311244	keystroke	e	n/a
155.7725	0.135	311545	keystroke	i	n/a
156.0575	0.1195	312115	keystroke	Key.space	n/a
156.252	0.135	312504	keystroke	e	n/a
156.402	0.12	312804	keystroke	n	n/a
156.687	0.09	313374	keystroke	h	n/a
156.867	0.09	313734	keystroke	a	n/a
156.972	0.12	313944	keystroke	n	n/a
157.167	0.105	314334	keystroke	c	n/a
157.242	0.1355	314484	keystroke	e	n/a
157.5125	0.105	315025	keystroke	'	n/a
158.7425	0.045	317485	keystroke	Key.backspace	n/a
159.0725	0.09	318145	keystroke	Key.enter	n/a
159.167	14.997	318334	prompt	n/a	atmospheric failure millennium hotel\n
159.9575	0.135	319915	keystroke	a	n/a
160.1675	0.135	320335	keystroke	t	n/a
160.917	0.105	321834	keystroke	m	n/a
161.3975	0.09	322795	keystroke	o	n/a
161.8025	0.12	323605	keystroke	s	n/a
163.677	0.1205	327354	keystroke	p	n/a
163.9925	0.135	327985	keystroke	h	n/a
164.6225	0.18	329245	keystroke	e	n/a
164.8475	0.135	329695	keystroke	r	n/a
165.1325	0.135	330265	keystroke	i	n/a
165.3275	0.18	330655	keystroke	c	n/a
165.5375	0.135	331075	keystroke	Key.space	n/a
165.8525	0.15	331705	keystroke	f	n/a
166.0625	0.135	332125	keystroke	a	n/a
166.2125	0.09	332425	keystroke	i	n/a
166.4225	0.1055	332845	keystroke	l	n/a
166.753	0.105	333506	keystroke	u	n/a
167.008	0.15	334016	keystroke	r	n/a
167.083	0.2095	334166	keystroke	e	n/a
167.3375	0.15	334675	keystroke	Key.space	n/a
167.6375	0.12	335275	keystroke	m	n/a
167.8625	0.075	335725	keystroke	i	n/a
168.1175	0.075	336235	keystroke	l	n/a
168.2675	0.075	336535	keystroke	l	n/a
168.5225	0.105	337045	keystroke	e	n/a
168.7925	0.105	337585	keystroke	n	n/a
169.5125	0.09	339025	keystroke	n	n/a
170.0525	0.075	340105	keystroke	u	n/a
171.2825	0.075	342565	keystroke	Key.backspace	n/a
171.6275	0.09	343255	keystroke	i	n/a
171.8675	0.06	343735	keystroke	u	n/a
172.1525	0.075	344305	keystroke	m	n/a
172.6025	0.15	345205	keystroke	Key.space	n/a
173.1725	0.12	346345	keystroke	h	n/a
173.2475	0.12	346495	keystroke	o	n/a
173.4725	0.075	346945	keystroke	t	n/a
173.6525	0.12	347305	keystroke	e	n/a
173.7875	0.075	347575	keystroke	l	n/a
174.1025	0.06	348205	keystroke	Key.enter	n/a
174.167	12.327	348334	prompt	n/a	begun miscellaneous sacred trek\n
175.0025	0.105	350005	keystroke	b	n/a
175.0925	0.12	350185	keystroke	e	n/a
175.3475	0.09	350695	keystroke	g	n/a
175.4975	0.09	350995	keystroke	u	n/a
175.7075	0.105	351415	keystroke	n	n/a
175.9025	0.135	351805	keystroke	Key.space	n/a
176.0975	0.09	352195	keystroke	m	n/a
176.3075	0.075	352615	keystroke	i	n/a
176.4575	0.12	352915	keystroke	s	n/a
176.7425	0.15	353485	keystroke	c	n/a
176.9225	0.105	353845	keystroke	e	n/a
177.1625	0.075	354325	keystroke	l	n/a
177.3125	0.075	354625	keystroke	l	n/a
177.702	0.121	355404	keystroke	a	n/a
177.853	0.105	355706	keystroke	n	n/a
178.963	0.105	357926	keystroke	e	n/a
179.832	0.225	359664	keystroke	o	n/a
179.937	0.135	359874	keystroke	u	n/a
180.102	0.1505	360204	keystroke	s	n/a
180.2525	0.135	360505	keystroke	Key.space	n/a
181.1975	0.105	362395	keystroke	s	n/a
181.7975	0.1045	363595	keystroke	a	n/a
182.082	0.135	364164	keystroke	c	n/a
183.328	0.045	366656	keystroke	t	n/a
184.107	0.076	368214	keystroke	Key.backspace	n/a
184.2725	0.075	368545	keystroke	r	n/a
184.4825	0.075	368965	keystroke	e	n/a
184.6625	0.135	369325	keystroke	d	n/a
184.8575	0.15	369715	keystroke	Key.space	n/a
185.4425	0.075	370885	keystroke	t	n/a
185.592	0.15	371184	keystroke	r	n/a
185.8325	0.1195	371665	keystroke	e	n/a
186.117	0.0605	372234	keystroke	k	n/a
186.417	0.075	372834	keystroke	Key.enter	n/a
186.4975	6.5965	372995	prompt	n/a	kong view carroll he've\n
187.782	0.075	375564	keystroke	k	n/a
187.992	0.06	375984	keystroke	o	n/a
188.187	0.1055	376374	keystroke	n	n/a
188.3525	0.15	376705	keystroke	g	n/a
188.5175	0.15	377035	keystroke	Key.space	n/a
188.9825	0.12	377965	keystroke	v	n/a
189.1475	0.09	378295	keystroke	i	n/a
189.2525	0.21	378505	keystroke	e	n/a
189.3725	0.165	378745	keystroke	w	n/a
189.4925	0.15	378985	keystroke	Key.space	n/a
189.762	0.135	379524	keystroke	c	n/a
189.867	0.135	379734	keystroke	a	n/a
190.032	0.075	380064	keystroke	r	n/a
190.182	0.105	380364	keystroke	r	n/a
190.497	0.09	380994	keystroke	o	n/a
190.738	0.0595	381476	keystroke	l	n/a
190.873	0.09	381746	keystroke	l	n/a
191.083	0.15	382166	keystroke	Key.space	n/a
191.7725	0.075	383545	keystroke	h	n/a
191.8925	0.105	383785	keystroke	e	n/a
192.4175	0.09	384835	keystroke	'	n/a
192.6575	0.15	385315	keystroke	v	n/a
192.7625	0.15	385525	keystroke	e	n/a
193.0775	0.015	386155	keystroke	Key.enter	n/a
193.0965	11.6975	386193	prompt	n/a	miniature roger fighting chess\n
193.8125	0.12	387625	keystroke	m	n/a
194.0375	0.045	388075	keystroke	u	n/a
194.2175	0.105	388435	keystroke	n	n/a
194.4875	0.03	388975	keystroke	u	n/a
194.982	0.09	389964	keystroke	Key.backspace	n/a
195.282	0.0755	390564	keystroke	Key.backspace	n/a
195.4325	0.075	390865	keystroke	Key.backspace	n/a
196.018	0.075	392036	keystroke	i	n/a
196.273	0.105	392546	keystroke	n	n/a
196.528	0.09	393056	keystroke	i	n/a
196.918	0.134	393836	keystroke	a	n/a
198.237	0.105	396474	keystroke	t	n/a
198.537	0.09	397074	keystroke	u	n/a
198.732	0.165	397464	keystroke	r	n/a
198.807	0.226	397614	keystroke	e	n/a
198.987	0.18	397974	keystroke	Key.space	n/a
199.8425	0.12	399685	keystroke	r	n/a
200.0075	0.09	400015	keystroke	o	n/a
200.1425	0.15	400285	keystroke	g	n/a
200.3075	0.165	400615	keystroke	e	n/a
200.5325	0.165	401065	keystroke	r	n/a
200.742	0.15	401484	keystroke	Key.space	n/a
201.4175	0.135	402835	keystroke	f	n/a
201.5225	0.09	403045	keystroke	i	n/a
201.7175	0.105	403435	keystroke	g	n/a
201.9275	0.0445	403855	keystroke	h	n/a
202.302	0.12	404604	keystroke	t	n/a
202.467	0.225	404934	keystroke	i	n/a
202.557	0.195	405114	keystroke	n	n/a
202.737	0.135	405474	keystroke	g	n/a
203.052	0.12	406104	keystroke	Key.space	n/a
203.4125	0.1345	406825	keystroke	c	n/a
203.517	0.105	407034	keystroke	h	n/a
203.847	0.105	407694	keystroke	e	n/a
204.087	0.105	408174	keystroke	s	n/a
204.2525	0.1195	408505	keystroke	s	n/a
204.657	0.136	409314	keystroke	Key.enter	n/a
204.798	14.576	409596	prompt	n/a	violation ballot distributions precious\n
205.7525	0.165	411505	keystroke	v	n/a
205.9475	0.09	411895	keystroke	i	n/a
206.187	0.12	412374	keystroke	l	n/a
207.627	0.075	415254	keystroke	Key.backspace	n/a
207.972	0.09	415944	keystroke	o	n/a
208.6625	0.105	417325	keystroke	l	n/a
208.858	0.104	417716	keystroke	a	n/a
209.083	0.075	418166	keystroke	t	n/a
209.203	0.2845	418406	keystroke	i	n/a
209.262	0.196	418524	keystroke	o	n/a
209.367	0.1655	418734	keystroke	n	n/a
209.5025	0.15	419005	keystroke	Key.space	n/a
210.0125	0.15	420025	keystroke	b	n/a
210.1775	0.1345	420355	keystroke	a	n/a
210.462	0.075	420924	keystroke	l	n/a
210.612	0.09	421224	keystroke	l	n/a
210.8375	0.09	421675	keystroke	o	n/a
211.0925	0.165	422185	keystroke	t	n/a
211.3025	0.15	422605	keystroke	Key.space	n/a
211.6625	0.135	423325	keystroke	d	n/a
211.6775	0.135	423355	keystroke	i	n/a
212.383	0.1195	424766	keystroke	s	n/a
213.958	0.12	427916	keystroke	t	n/a
214.137	0.1655	428274	keystroke	r	n/a
214.7225	0.075	429445	keystroke	i	n/a
215.1875	0.12	430375	keystroke	b	n/a
215.3525	0.075	430705	keystroke	u	n/a
215.5325	0.15	431065	keystroke	t	n/a
215.6975	0.2395	431395	keystroke	i	n/a
215.802	0.136	431604	keystroke	o	n/a
215.877	0.135	431754	keystroke	n	n/a
216.2225	0.1205	432445	keystroke	s	n/a
216.402	0.15	432804	keystroke	Key.space	n/a
216.868	0.134	433736	keystroke	p	n/a
217.197	0.15	434394	keystroke	r	n/a
217.272	0.195	434544	keystroke	e	n/a
217.977	0.135	435954	keystroke	c	n/a
218.203	0.105	436406	keystroke	i	n/a
218.353	0.24	436706	keystroke	o	n/a
218.488	0.135	436976	keystroke	u	n/a
218.683	0.1345	437366	keystroke	s	n/a
219.282	0.0905	438564	keystroke	Key.enter	n/a
219.377	8.382	438754	prompt	n/a	checkout simulations celebration addiction\n
220.363	0.12	440726	keystroke	c	n/a
220.453	0.119	440906	keystroke	h	n/a
220.618	0.074	441236	keystroke	e	n/a
220.813	0.209	441626	keystroke	c	n/a
220.978	0.12	441956	keystroke	k	n/a
221.262	0.2855	442524	keystroke	o	n/a
221.3525	0.195	442705	keystroke	u	n/a
221.5625	0.195	443125	keystroke	t	n/a
222.492	0.135	444984	keystroke	Key.space	n/a
222.717	0.135	445434	keystroke	s	n/a
222.912	0.105	445824	keystroke	i	n/a
223.212	0.09	446424	keystroke	m	n/a
223.467	0.09	446934	keystroke	u	n/a
223.812	0.09	447624	keystroke	l	n/a
223.932	0.135	447864	keystroke	a	n/a
224.157	0.075	448314	keystroke	t	n/a
224.277	0.27	448554	keystroke	i	n/a
224.352	0.18	448704	keystroke	o	n/a
224.442	0.165	448884	keystroke	n	n/a
224.592	0.15	449184	keystroke	s	n/a
224.712	0.15	449424	keystroke	Key.space	n/a
224.967	0.135	449934	keystroke	c	n/a
225.103	0.119	450206	keystroke	e	n/a
225.447	0.105	450894	keystroke	l	n/a
225.582	0.12	451164	keystroke	e	n/a
225.837	0.09	451674	keystroke	b	n/a
226.152	0.1355	452304	keystroke	r	n/a
226.392	0.1355	452784	keystroke	a	n/a
226.5875	0.12	453175	keystroke	t	n/a
226.7675	0.24	453535	keystroke	i	n/a
226.8275	0.135	453655	keystroke	o	n/a
226.8875	0.165	453775	keystroke	n	n/a
227.6525	0.105	455305	keystroke	Key.enter	n/a
227.763	16.886	455526	prompt	n/a	consequences efficiently ruled chicago\n
229.5875	0.15	459175	keystroke	c	n/a
229.6925	0.195	459385	keystroke	o	n/a
229.7975	0.15	459595	keystroke	n	n/a
231.057	0.12	462114	keystroke	s	n/a
232.1075	0.105	464215	keystroke	e	n/a
232.3475	0.105	464695	keystroke	q	n/a
232.5425	0.09	465085	keystroke	u	n/a
232.8425	0.12	465685	keystroke	e	n/a
233.0675	0.105	466135	keystroke	n	n/a
235.65	0.132	471300	keystroke	c	n/a
235.767	0.1355	471534	keystroke	e	n/a
235.9325	0.18	471865	keystroke	s	n/a
236.1275	0.165	472255	keystroke	Key.space	n/a
236.6525	0.105	473305	keystroke	f	n/a
236.8625	0.06	473725	keystroke	i	n/a
236.9975	0.105	473995	keystroke	i	n/a
237.537	0.12	475074	keystroke	Key.backspace	n/a
237.702	0.105	475404	keystroke	Key.backspace	n/a
237.927	0.075	475854	keystroke	Key.backspace	n/a
238.213	0.104	476426	keystroke	e	n/a
238.422	0.091	476844	keystroke	f	n/a
238.588	0.119	477176	keystroke	f	n/a
238.678	0.1495	477356	keystroke	i	n/a
239.2475	0.1495	478495	keystroke	c	n/a
239.3675	0.1045	478735	keystroke	i	n/a
239.862	0.136	479724	keystroke	e	n/a
240.043	0.149	480086	keystroke	n	n/a
240.2225	0.1345	480445	keystroke	t	n/a
240.492	0.105	480984	keystroke	l	n/a
240.642	0.12	481284	keystroke	y	n/a
240.897	0.1805	481794	keystroke	Key.space	n/a
241.7975	0.135	483595	keystroke	r	n/a
241.9475	0.09	483895	keystroke	u	n/a
242.1425	0.12	484285	keystroke	l	n/a
242.2775	0.12	484555	keystroke	e	n/a
242.5175	0.165	485035	keystroke	d	n/a
242.7125	0.135	485425	keystroke	Key.space	n/a
242.982	0.135	485964	keystroke	c	n/a
243.102	0.105	486204	keystroke	h	n/a
243.253	0.134	486506	keystroke	i	n/a
243.567	0.105	487134	keystroke	c	n/a
243.642	0.15	487284	keystroke	a	n/a
243.927	0.165	487854	keystroke	g	n/a
244.123	0.1195	488246	keystroke	o	n/a
244.5575	0.09	489115	keystroke	Key.enter	n/a
244.6525	12.3565	489305	prompt	n/a	telecharger assisted management periodically\n
245.533	0.104	491066	keystroke	t	n/a
246.027	0.12	492054	keystroke	e	n/a
246.2075	0.105	492415	keystroke	l	n/a
246.3275	0.12	492655	keystroke	e	n/a
246.7475	0.165	493495	keystroke	c	n/a
246.8825	0.105	493765	keystroke	h	n/a
247.0175	0.135	494035	keystroke	a	n/a
247.1975	0.12	494395	keystroke	r	n/a
247.3925	0.165	494785	keystroke	g	n/a
247.572	0.12	495144	keystroke	e	n/a
247.753	0.149	495506	keystroke	r	n/a
248.082	0.136	496164	keystroke	Key.space	n/a
248.382	0.135	496764	keystroke	a	n/a
248.637	0.105	497274	keystroke	d	n/a
248.802	0.105	497604	keystroke	d	n/a
248.967	0.105	497934	keystroke	i	n/a
249.133	0.104	498266	keystroke	s	n/a
249.3275	0.1345	498655	keystroke	t	n/a
249.507	0.09	499014	keystroke	e	n/a
249.688	0.165	499376	keystroke	d	n/a
249.838	0.135	499676	keystroke	Key.space	n/a
250.1675	0.105	500335	keystroke	m	n/a
250.2875	0.105	500575	keystroke	a	n/a
250.4225	0.09	500845	keystroke	n	n/a
250.5425	0.12	501085	keystroke	a	n/a
250.7825	0.12	501565	keystroke	g	n/a
250.9625	0.12	501925	keystroke	e	n/a
251.1575	0.09	502315	keystroke	m	n/a
251.323	0.15	502646	keystroke	e	n/a
251.368	0.075	502736	keystroke	n	n/a
251.563	0.1645	503126	keystroke	t	n/a
251.7875	0.135	503575	keystroke	Key.space	n/a
252.8975	0.105	505795	keystroke	p	n/a
253.0775	0.165	506155	keystroke	e	n/a
253.1975	0.165	506395	keystroke	r	n/a
253.4525	0.12	506905	keystroke	i	n/a
253.7225	0.105	507445	keystroke	o	n/a
254.2925	0.15	508585	keystroke	d	n/a
255.6425	0.105	511285	keystroke	i	n/a
256.032	0.136	512064	keystroke	c	n/a
256.182	0.12	512364	keystroke	a	n/a
256.317	0.091	512634	keystroke	l	n/a
256.467	0.106	512934	keystroke	l	n/a
256.618	0.165	513236	keystroke	y	n/a
256.9175	0.09	513835	keystroke	Key.enter	n/a
257.013	8.936	514026	prompt	n/a	resulting polo motion divided\n
257.953	0.089	515906	keystroke	r	n/a
257.967	0.105	515934	keystroke	e	n/a
258.177	0.165	516354	keystroke	s	n/a
258.312	0.091	516624	keystroke	u	n/a
258.522	0.12	517044	keystroke	l	n/a
258.687	0.12	517374	keystroke	t	n/a
258.867	0.24	517734	keystroke	i	n/a
258.957	0.195	517914	keystroke	n	n/a
259.092	0.15	518184	keystroke	g	n/a
259.227	0.135	518454	keystroke	Key.space	n/a
260.0675	0.075	520135	keystroke	p	n/a
260.2625	0.075	520525	keystroke	o	n/a
260.4575	0.075	520915	keystroke	l	n/a
260.667	0.075	521334	keystroke	o	n/a
260.983	0.135	521966	keystroke	Key.space	n/a
261.178	0.18	522356	keystroke	m	n/a
261.343	0.12	522686	keystroke	o	n/a
261.583	0.105	523166	keystroke	t	n/a
261.793	0.2245	523586	keystroke	i	n/a
261.868	0.1645	523736	keystroke	o	n/a
261.9425	0.15	523885	keystroke	n	n/a
262.3475	0.105	524695	keystroke	Key.space	n/a
262.5575	0.075	525115	keystroke	d	n/a
263.0525	0.015	526105	keystroke	Key.backspace	n/a
263.3975	0.135	526795	keystroke	d	n/a
263.5775	0.12	527155	keystroke	i	n/a
263.9975	0.12	527995	keystroke	v	n/a
264.1475	0.135	528295	keystroke	i	n/a
265.2275	0.1055	530455	keystroke	d	n/a
265.438	0.075	530876	keystroke	e	n/a
265.603	0.12	531206	keystroke	d	n/a
265.858	0.09	531716	keystroke	Key.enter	n/a
265.952	8.547	531904	prompt	n/a	position assurance pages person\n
267.072	0.076	534144	keystroke	p	n/a
267.283	0.09	534566	keystroke	o	n/a
267.5225	0.12	535045	keystroke	s	n/a
267.7025	0.09	535405	keystroke	i	n/a
267.9425	0.105	535885	keystroke	t	n/a
268.0775	0.2405	536155	keystroke	i	n/a
268.1525	0.1505	536305	keystroke	o	n/a
268.228	0.149	536456	keystroke	n	n/a
268.482	0.135	536964	keystroke	Key.space	n/a
268.768	0.12	537536	keystroke	a	n/a
269.097	0.09	538194	keystroke	s	n/a
269.263	0.149	538526	keystroke	s	n/a
269.383	0.135	538766	keystroke	u	n/a
269.757	0.136	539514	keystroke	r	n/a
269.953	0.149	539906	keystroke	a	n/a
270.133	0.1495	540266	keystroke	n	n/a
270.2975	0.165	540595	keystroke	c	n/a
270.4475	0.15	540895	keystroke	e	n/a
270.5675	0.135	541135	keystroke	Key.space	n/a
271.347	0.105	542694	keystroke	p	n/a
271.498	0.15	542996	keystroke	a	n/a
271.9775	0.1045	543955	keystroke	g	n/a
272.157	0.09	544314	keystroke	e	n/a
272.727	0.12	545454	keystroke	s	n/a
272.967	0.135	545934	keystroke	Key.space	n/a
273.297	0.09	546594	keystroke	p	n/a
273.492	0.121	546984	keystroke	e	n/a
273.567	0.136	547134	keystroke	r	n/a
273.793	0.12	547586	keystroke	s	n/a
273.958	0.18	547916	keystroke	o	n/a
274.078	0.135	548156	keystroke	n	n/a
274.423	0.0745	548846	keystroke	Key.enter	n/a
274.5015	9.2225	549003	prompt	n/a	conventional banned doubt watching\n
276.81	0.073	553620	keystroke	c	n/a
276.823	0.1645	553646	keystroke	o	n/a
276.898	0.1495	553796	keystroke	n	n/a
277.1525	0.135	554305	keystroke	v	n/a
277.378	0.12	554756	keystroke	e	n/a
277.483	0.1195	554966	keystroke	n	n/a
277.6775	0.12	555355	keystroke	t	n/a
277.8725	0.24	555745	keystroke	i	n/a
277.9625	0.165	555925	keystroke	o	n/a
278.0375	0.18	556075	keystroke	n	n/a
278.2025	0.15	556405	keystroke	a	n/a
278.3675	0.12	556735	keystroke	l	n/a
278.7425	0.12	557485	keystroke	Key.space	n/a
278.9975	0.105	557995	keystroke	b	n/a
279.1625	0.12	558325	keystroke	a	n/a
279.298	0.0445	558596	keystroke	n	n/a
279.4325	0.0755	558865	keystroke	n	n/a
279.5375	0.1055	559075	keystroke	e	n/a
279.7625	0.135	559525	keystroke	d	n/a
279.9125	0.105	559825	keystroke	Key.space	n/a
280.2725	0.135	560545	keystroke	d	n/a
280.873	0.2095	561746	keystroke	o	n/a
280.978	0.1195	561956	keystroke	u	n/a
281.1725	0.105	562345	keystroke	b	n/a
281.458	0.105	562916	keystroke	t	n/a
281.683	0.15	563366	keystroke	Key.space	n/a
282.253	0.1795	564506	keystroke	w	n/a
282.4475	0.105	564895	keystroke	a	n/a
282.6275	0.09	565255	keystroke	t	n/a
282.8975	0.18	565795	keystroke	c	n/a
283.0475	0.12	566095	keystroke	h	n/a
283.1525	0.1805	566305	keystroke	i	n/a
283.2575	0.1505	566515	keystroke	n	n/a
283.393	0.12	566786	keystroke	g	n/a
283.648	0.075	567296	keystroke	Key.enter	n/a
283.727	10.8875	567454	prompt	n/a	who've nepal samba analyzes\n
284.458	0.135	568916	keystroke	w	n/a
284.6075	0.1505	569215	keystroke	h	n/a
284.728	0.1495	569456	keystroke	o	n/a
286.033	0.0745	572066	keystroke	'	n/a
287.3075	0.165	574615	keystroke	v	n/a
287.4575	0.12	574915	keystroke	e	n/a
287.832	0.1355	575664	keystroke	Key.space	n/a
288.5825	0.1045	577165	keystroke	n	n/a
288.7325	0.1205	577465	keystroke	e	n/a
288.913	0.0895	577826	keystroke	p	n/a
289.0625	0.15	578125	keystroke	a	n/a
289.1975	0.105	578395	keystroke	l	n/a
289.3775	0.135	578755	keystroke	Key.space	n/a
289.7075	0.12	579415	keystroke	s	n/a
289.9475	0.15	579895	keystroke	a	n/a
290.1125	0.105	580225	keystroke	m	n/a
290.3975	0.135	580795	keystroke	b	n/a
290.622	0.12	581244	keystroke	a	n/a
291.282	0.1355	582564	keystroke	Key.space	n/a
291.7925	0.12	583585	keystroke	a	n/a
291.927	0.12	583854	keystroke	n	n/a
292.077	0.12	584154	keystroke	a	n/a
292.392	0.09	584784	keystroke	l	n/a
293.262	0.09	586524	keystroke	y	n/a
293.772	0.165	587544	keystroke	z	n/a
294.042	0.09	588084	keystroke	e	n/a
294.237	0.12	588474	keystroke	s	n/a
294.522	0.09	589044	keystroke	Key.enter	n/a
294.617	10.557	589234	prompt	n/a	expenditures hints insert defining\n
295.3025	0.105	590605	keystroke	e	n/a
295.5425	0.15	591085	keystroke	x	n/a
296.5025	0.105	593005	keystroke	p	n/a
296.6825	0.105	593365	keystroke	e	n/a
296.9225	0.12	593845	keystroke	d	n/a
297.1775	0.105	594355	keystroke	i	n/a
299.1725	0.075	598345	keystroke	t	n/a
299.367	0.09	598734	keystroke	u	n/a
299.487	0.181	598974	keystroke	r	n/a
299.623	0.149	599246	keystroke	e	n/a
299.788	0.179	599576	keystroke	s	n/a
299.982	0.15	599964	keystroke	Key.space	n/a
300.283	0.135	600566	keystroke	h	n/a
300.387	0.181	600774	keystroke	i	n/a
300.538	0.149	601076	keystroke	n	n/a
300.717	0.135	601434	keystroke	g	n/a
301.332	0.12	602664	keystroke	Key.backspace	n/a
301.467	0.136	602934	keystroke	t	n/a
301.768	0.179	603536	keystroke	s	n/a
301.977	0.15	603954	keystroke	Key.space	n/a
302.308	0.165	604616	keystroke	i	n/a
302.383	0.15	604766	keystroke	n	n/a
302.593	0.15	605186	keystroke	s	n/a
302.788	0.15	605576	keystroke	e	n/a
302.953	0.105	605906	keystroke	r	n/a
303.148	0.149	606296	keystroke	t	n/a
303.342	0.135	606684	keystroke	Key.space	n/a
303.538	0.105	607076	keystroke	d	n/a
303.748	0.09	607496	keystroke	e	n/a
303.988	0.12	607976	keystroke	f	n/a
304.123	0.104	608246	keystroke	i	n/a
304.287	0.105	608574	keystroke	n	n/a
304.498	0.165	608996	keystroke	i	n/a
304.588	0.165	609176	keystroke	n	n/a
304.768	0.165	609536	keystroke	g	n/a
305.083	0.09	610166	keystroke	Key.enter	n/a
305.177	22.077	610354	prompt	n/a	location wide longitude bristol\n
305.8475	0.09	611695	keystroke	l	n/a
306.0725	0.015	612145	keystroke	i	n/a
306.2225	0.1045	612445	keystroke	c	n/a
306.5975	0.0595	613195	keystroke	Key.backspace	n/a
306.747	0.06	613494	keystroke	Key.backspace	n/a
307.4525	0.075	614905	keystroke	o	n/a
307.6325	0.135	615265	keystroke	c	n/a
307.7075	0.105	615415	keystroke	a	n/a
307.9325	0.105	615865	keystroke	t	n/a
308.0675	0.18	616135	keystroke	i	n/a
308.0975	0.165	616195	keystroke	o	n/a
308.2175	0.165	616435	keystroke	n	n/a
308.4425	0.12	616885	keystroke	s	n/a
308.938	0.09	617876	keystroke	Key.backspace	n/a
309.148	0.135	618296	keystroke	Key.space	n/a
309.598	0.105	619196	keystroke	w	n/a
309.778	0.1195	619556	keystroke	i	n/a
309.9425	0.105	619885	keystroke	d	n/a
310.1525	0.12	620305	keystroke	e	n/a
310.2875	0.12	620575	keystroke	Key.space	n/a
310.7825	0.075	621565	keystroke	l	n/a
310.9775	0.12	621955	keystroke	o	n/a
311.1125	0.12	622225	keystroke	n	n/a
311.2925	0.105	622585	keystroke	g	n/a
312.4775	0.12	624955	keystroke	t	n/a
312.6275	0.12	625255	keystroke	i	n/a
313.1225	0.075	626245	keystroke	t	n/a
313.2425	0.1205	626485	keystroke	u	n/a
313.542	0.091	627084	keystroke	d	n/a
313.7375	0.105	627475	keystroke	e	n/a
313.9775	0.15	627955	keystroke	Key.space	n/a
318.8555	0.057	637711	keystroke	Key.backspace	n/a
318.9875	0.075	637975	keystroke	Key.backspace	n/a
319.1375	0.075	638275	keystroke	Key.backspace	n/a
319.333	0.06	638666	keystroke	Key.backspace	n/a
319.528	0.06	639056	keystroke	Key.backspace	n/a
319.797	0.09	639594	keystroke	Key.backspace	n/a
320.307	0.09	640614	keystroke	Key.backspace	n/a
321.853	0.0895	643706	keystroke	i	n/a
322.1525	0.105	644305	keystroke	t	n/a
322.3475	0.09	644695	keystroke	u	n/a
322.4525	0.135	644905	keystroke	d	n/a
322.6775	0.15	645355	keystroke	e	n/a
322.8425	0.15	645685	keystroke	Key.space	n/a
323.803	0.074	647606	keystroke	b	n/a
324.0425	0.12	648085	keystroke	r	n/a
324.4475	0.09	648895	keystroke	i	n/a
325.077	0.105	650154	keystroke	s	n/a
325.3475	0.15	650695	keystroke	t	n/a
326.623	0.09	653246	keystroke	o	n/a
326.848	0.075	653696	keystroke	l	n/a
327.178	0.075	654356	keystroke	Key.enter	n/a
327.2565	12.988	654513	prompt	n/a	deficit newspapers causes columbus\n
328.0475	0.165	656095	keystroke	d	n/a
328.1975	0.09	656395	keystroke	i	n/a
328.6175	0.105	657235	keystroke	Key.backspace	n/a
328.7825	0.0905	657565	keystroke	e	n/a
328.978	0.12	657956	keystroke	f	n/a
329.443	0.1195	658886	keystroke	i	n/a
329.9075	0.135	659815	keystroke	c	n/a
330.0725	0.105	660145	keystroke	i	n/a
330.5675	0.135	661135	keystroke	t	n/a
330.7625	0.135	661525	keystroke	Key.space	n/a
331.153	0.09	662306	keystroke	n	n/a
331.243	0.18	662486	keystroke	e	n/a
331.378	0.1345	662756	keystroke	w	n/a
331.6175	0.1505	663235	keystroke	s	n/a
331.858	0.075	663716	keystroke	p	n/a
332.023	0.12	664046	keystroke	a	n/a
332.248	0.09	664496	keystroke	p	n/a
332.382	0.106	664764	keystroke	a	n/a
333.028	0.179	666056	keystroke	e	n/a
333.493	0.075	666986	keystroke	Key.backspace	n/a
333.688	0.045	667376	keystroke	Key.backspace	n/a
334.452	0.15	668904	keystroke	e	n/a
334.617	0.105	669234	keystroke	r	n/a
334.797	0.18	669594	keystroke	s	n/a
334.962	0.15	669924	keystroke	Key.space	n/a
335.728	0.15	671456	keystroke	c	n/a
335.998	0.105	671996	keystroke	a	n/a
336.238	0.135	672476	keystroke	u	n/a
336.763	0.18	673526	keystroke	s	n/a
337.108	0.12	674216	keystroke	e	n/a
337.303	0.1495	674606	keystroke	s	n/a
337.4825	0.135	674965	keystroke	Key.space	n/a
337.7675	0.165	675535	keystroke	c	n/a
337.9925	0.09	675985	keystroke	o	n/a
338.2325	0.12	676465	keystroke	l	n/a
339.0275	0.015	678055	keystroke	u	n/a
339.3125	0.0745	678625	keystroke	m	n/a
339.568	0.075	679136	keystroke	b	n/a
339.7925	0.075	679585	keystroke	u	n/a
339.9425	0.105	679885	keystroke	s	n/a
340.1525	0.09	680305	keystroke	Key.enter	n/a
340.2475	10.407	680495	prompt	n/a	equation ukraine batch dressed\n
341.0975	0.15	682195	keystroke	e	n/a
341.937	0.015	683874	keystroke	q	n/a
342.027	0.06	684054	keystroke	u	n/a
342.207	0.105	684414	keystroke	a	n/a
342.478	0.075	684956	keystroke	t	n/a
342.6275	0.225	685255	keystroke	i	n/a
342.6875	0.135	685375	keystroke	o	n/a
342.7625	0.165	685525	keystroke	n	n/a
343.2125	0.06	686425	keystroke	Key.space	n/a
344.218	0.075	688436	keystroke	u	n/a
344.503	0.105	689006	keystroke	k	n/a
345.343	0.134	690686	keystroke	r	n/a
345.552	0.12	691104	keystroke	a	n/a
345.957	0.1955	691914	keystroke	i	n/a
346.0625	0.15	692125	keystroke	n	n/a
346.2125	0.15	692425	keystroke	e	n/a
346.5275	0.135	693055	keystroke	Key.space	n/a
346.8575	0.075	693715	keystroke	b	n/a
347.0375	0.09	694075	keystroke	a	n/a
347.2025	0.105	694405	keystroke	t	n/a
348.417	0.18	696834	keystroke	c	n/a
348.4925	0.12	696985	keystroke	h	n/a
348.7325	0.1645	697465	keystroke	Key.space	n/a
349.152	0.105	698304	keystroke	d	n/a
349.392	0.105	698784	keystroke	r	n/a
349.542	0.135	699084	keystroke	e	n/a
349.782	0.1205	699564	keystroke	s	n/a
349.9925	0.105	699985	keystroke	s	n/a
350.1875	0.06	700375	keystroke	e	n/a
350.3525	0.121	700705	keystroke	d	n/a
350.5775	0.075	701155	keystroke	Key.enter	n/a
350.659	8.1105	701318	prompt	n/a	jungle idaho fifth belts\n
351.4025	0.1355	702805	keystroke	j	n/a
351.583	0.1055	703166	keystroke	u	n/a
351.793	0.12	703586	keystroke	n	n/a
352.7075	0.135	705415	keystroke	g	n/a
352.9175	0.105	705835	keystroke	l	n/a
353.0525	0.165	706105	keystroke	e	n/a
353.1875	0.15	706375	keystroke	Key.space	n/a
353.4725	0.135	706945	keystroke	i	n/a
353.9375	0.105	707875	keystroke	d	n/a
354.1475	0.12	708295	keystroke	a	n/a
354.4625	0.12	708925	keystroke	h	n/a
354.6425	0.12	709285	keystroke	o	n/a
355.0775	0.135	710155	keystroke	Key.space	n/a
355.6025	0.12	711205	keystroke	f	n/a
355.7375	0.12	711475	keystroke	i	n/a
356.4725	0.12	712945	keystroke	f	n/a
356.7725	0.06	713545	keystroke	t	n/a
356.8775	0.12	713755	keystroke	h	n/a
357.1325	0.135	714265	keystroke	Key.space	n/a
357.673	0.09	715346	keystroke	b	n/a
357.822	0.121	715644	keystroke	e	n/a
358.018	0.089	716036	keystroke	l	n/a
358.213	0.105	716426	keystroke	t	n/a
358.483	0.135	716966	keystroke	s	n/a
358.693	0.075	717386	keystroke	Key.enter	n/a
358.773	7.8715	717546	prompt	n/a	hair reviewer suggests database\n
359.6525	0.105	719305	keystroke	h	n/a
359.8625	0.12	719725	keystroke	a	n/a
360.0275	0.136	720055	keystroke	i	n/a
360.1925	0.1505	720385	keystroke	r	n/a
360.373	0.135	720746	keystroke	Key.space	n/a
360.718	0.12	721436	keystroke	r	n/a
360.778	0.165	721556	keystroke	e	n/a
361.138	0.12	722276	keystroke	v	n/a
361.303	0.105	722606	keystroke	i	n/a
361.528	0.165	723056	keystroke	e	n/a
361.768	0.15	723536	keystroke	w	n/a
361.978	0.165	723956	keystroke	e	n/a
362.158	0.1495	724316	keystroke	r	n/a
362.728	0.135	725456	keystroke	Key.space	n/a
362.998	0.105	725996	keystroke	s	n/a
363.148	0.09	726296	keystroke	u	n/a
363.343	0.09	726686	keystroke	g	n/a
363.508	0.135	727016	keystroke	g	n/a
363.688	0.21	727376	keystroke	e	n/a
363.838	0.12	727676	keystroke	s	n/a
363.928	0.135	727856	keystroke	t	n/a
364.093	0.1495	728186	keystroke	s	n/a
364.2725	0.15	728545	keystroke	Key.space	n/a
364.9325	0.09	729865	keystroke	d	n/a
365.1875	0.12	730375	keystroke	a	n/a
365.4275	0.15	730855	keystroke	t	n/a
365.5625	0.1205	731125	keystroke	a	n/a
365.878	0.09	731756	keystroke	b	n/a
366.0425	0.105	732085	keystroke	a	n/a
366.1175	0.2405	732235	keystroke	s	n/a
366.313	0.165	732626	keystroke	e	n/a
366.552	0.091	733104	keystroke	Key.enter	n/a
366.647	16.137	733294	prompt	n/a	charts medicare equivalent technological\n
367.8735	0.134	735747	keystroke	c	n/a
367.9925	0.105	735985	keystroke	h	n/a
368.2185	0.1195	736437	keystroke	a	n/a
368.413	0.15	736826	keystroke	r	n/a
368.788	0.09	737576	keystroke	t	n/a
369.2525	0.1205	738505	keystroke	s	n/a
369.478	0.165	738956	keystroke	Key.space	n/a
369.823	0.105	739646	keystroke	m	n/a
370.003	0.0895	740006	keystroke	e	n/a
370.1975	0.135	740395	keystroke	d	n/a
371.1275	0.09	742255	keystroke	i	n/a
371.293	0.135	742586	keystroke	c	n/a
371.443	0.18	742886	keystroke	a	n/a
371.728	0.15	743456	keystroke	r	n/a
371.818	0.18	743636	keystroke	e	n/a
371.983	0.195	743966	keystroke	Key.space	n/a
374.1125	0.15	748225	keystroke	e	n/a
376.77	0.073	753540	keystroke	q	n/a
377.518	0.075	755036	keystroke	u	n/a
377.848	0.12	755696	keystroke	i	n/a
378.268	0.105	756536	keystroke	v	n/a
378.538	0.105	757076	keystroke	a	n/a
378.793	0.12	757586	keystroke	l	n/a
379.048	0.105	758096	keystroke	e	n/a
379.198	0.12	758396	keystroke	n	n/a
379.333	0.12	758666	keystroke	t	n/a
379.888	0.12	759776	keystroke	Key.space	n/a
380.233	0.105	760466	keystroke	t	n/a
380.353	0.12	760706	keystroke	e	n/a
380.6075	0.18	761215	keystroke	c	n/a
380.7725	0.105	761545	keystroke	h	n/a
381.0425	0.1955	762085	keystroke	n	n/a
381.192	0.1055	762384	keystroke	o	n/a
381.4175	0.0755	762835	keystroke	l	n/a
381.583	0.09	763166	keystroke	o	n/a
381.763	0.105	763526	keystroke	g	n/a
381.853	0.105	763706	keystroke	i	n/a
382.123	0.15	764246	keystroke	c	n/a
382.258	0.15	764516	keystroke	a	n/a
382.423	0.09	764846	keystroke	l	n/a
382.7225	0.06	765445	keystroke	Key.enter	n/a
382.787	9.2525	765574	prompt	n/a	barriers suffered ribbon backgrounds\n
383.9975	0.075	767995	keystroke	b	n/a
384.2225	0.1355	768445	keystroke	a	n/a
384.463	0.075	768926	keystroke	r	n/a
384.598	0.1195	769196	keystroke	r	n/a
384.8375	0.105	769675	keystroke	i	n/a
384.9875	0.24	769975	keystroke	e	n/a
385.1385	0.149	770277	keystroke	r	n/a
385.3025	0.165	770605	keystroke	s	n/a
385.4825	0.135	770965	keystroke	Key.space	n/a
385.9325	0.105	771865	keystroke	s	n/a
386.128	0.105	772256	keystroke	u	n/a
386.368	0.06	772736	keystroke	f	n/a
386.5325	0.075	773065	keystroke	f	n/a
386.7575	0.21	773515	keystroke	e	n/a
386.9975	0.09	773995	keystroke	r	n/a
387.1625	0.105	774325	keystroke	e	n/a
387.3875	0.18	774775	keystroke	d	n/a
387.5825	0.12	775165	keystroke	Key.space	n/a
388.0775	0.135	776155	keystroke	r	n/a
388.2725	0.105	776545	keystroke	i	n/a
388.6175	0.075	777235	keystroke	b	n/a
388.768	0.09	777536	keystroke	b	n/a
389.083	0.105	778166	keystroke	o	n/a
389.2935	0.1035	778587	keystroke	n	n/a
389.488	0.1345	778976	keystroke	Key.space	n/a
389.713	0.0745	779426	keystroke	b	n/a
389.8635	0.089	779727	keystroke	a	n/a
390.0725	0.1655	780145	keystroke	c	n/a
390.2225	0.0905	780445	keystroke	k	n/a
390.598	0.15	781196	keystroke	g	n/a
390.823	0.135	781646	keystroke	r	n/a
391.108	0.255	782216	keystroke	o	n/a
391.213	0.21	782426	keystroke	u	n/a
391.318	0.1495	782636	keystroke	n	n/a
391.4975	0.12	782995	keystroke	d	n/a
391.6625	0.135	783325	keystroke	s	n/a
391.9475	0.09	783895	keystroke	Key.enter	n/a
392.043	8.6965	784086	prompt	n/a	affected taxi contracting cdna\n
392.698	0.135	785396	keystroke	a	n/a
392.8925	0.09	785785	keystroke	f	n/a
393.0425	0.1205	786085	keystroke	f	n/a
393.3425	0.09	786685	keystroke	t	n/a
393.8075	0.09	787615	keystroke	Key.backspace	n/a
393.9135	0.104	787827	keystroke	e	n/a
394.273	0.1045	788546	keystroke	c	n/a
394.5425	0.075	789085	keystroke	t	n/a
394.6925	0.12	789385	keystroke	e	n/a
394.9175	0.18	789835	keystroke	d	n/a
395.0825	0.135	790165	keystroke	Key.space	n/a
395.3375	0.12	790675	keystroke	t	n/a
395.4725	0.1205	790945	keystroke	a	n/a
395.743	0.165	791486	keystroke	x	n/a
395.923	0.0895	791846	keystroke	i	n/a
396.178	0.135	792356	keystroke	Key.space	n/a
396.5075	0.12	793015	keystroke	c	n/a
396.6585	0.224	793317	keystroke	o	n/a
396.7625	0.1655	793525	keystroke	u	n/a
396.8225	0.1655	793645	keystroke	n	n/a
397.108	0.135	794216	keystroke	t	n/a
397.363	0.15	794726	keystroke	a	n/a
397.678	0.09	795356	keystroke	c	n/a
397.933	0.09	795866	keystroke	t	n/a
398.158	0.18	796316	keystroke	i	n/a
398.218	0.165	796436	keystroke	n	n/a
398.353	0.165	796706	keystroke	g	n/a
398.518	0.15	797036	keystroke	Key.space	n/a
399.1325	0.105	798265	keystroke	c	n/a
400.123	0.12	800246	keystroke	d	n/a
400.333	0.09	800666	keystroke	n	n/a
400.483	0.09	800966	keystroke	a	n/a
400.663	0.075	801326	keystroke	Key.enter	n/a
400.7425	12.732	801485	prompt	n/a	politicians technical want generators\n
401.4875	0.09	802975	keystroke	p	n/a
401.7425	0.045	803485	keystroke	o	n/a
401.983	0.09	803966	keystroke	l	n/a
402.943	0.105	805886	keystroke	i	n/a
403.288	0.09	806576	keystroke	t	n/a
403.543	0.18	807086	keystroke	i	n/a
404.863	0.12	809726	keystroke	c	n/a
404.9975	0.1055	809995	keystroke	i	n/a
405.193	0.105	810386	keystroke	a	n/a
405.343	0.075	810686	keystroke	n	n/a
405.598	0.1645	811196	keystroke	s	n/a
405.8225	0.1505	811645	keystroke	Key.space	n/a
406.3175	0.135	812635	keystroke	t	n/a
406.4975	0.121	812995	keystroke	e	n/a
407.0675	0.18	814135	keystroke	c	n/a
407.2025	0.09	814405	keystroke	h	n/a
407.4725	0.18	814945	keystroke	n	n/a
407.6225	0.105	815245	keystroke	i	n/a
407.8625	0.075	815725	keystroke	a	n/a
408.433	0.06	816866	keystroke	Key.backspace	n/a
408.478	0.06	816956	keystroke	c	n/a
408.508	0.135	817016	keystroke	a	n/a
408.658	0.12	817316	keystroke	l	n/a
408.898	0.135	817796	keystroke	Key.space	n/a
409.528	0.165	819056	keystroke	w	n/a
409.708	0.135	819416	keystroke	a	n/a
410.2475	0.105	820495	keystroke	n	n/a
410.3825	0.15	820765	keystroke	t	n/a
410.593	0.15	821186	keystroke	Key.space	n/a
411.148	0.09	822296	keystroke	g	n/a
411.313	0.135	822626	keystroke	e	n/a
411.508	0.105	823016	keystroke	n	n/a
411.628	0.1945	823256	keystroke	e	n/a
412.1075	0.135	824215	keystroke	r	n/a
412.3175	0.12	824635	keystroke	a	n/a
412.4975	0.105	824995	keystroke	t	n/a
412.7975	0.12	825595	keystroke	o	n/a
412.9325	0.105	825865	keystroke	r	n/a
413.1575	0.12	826315	keystroke	s	n/a
413.3825	0.09	826765	keystroke	Key.enter	n/a
413.478	9.7015	826956	prompt	n/a	despite yourself positions atomic\n
414.163	0.09	828326	keystroke	d	n/a
414.358	0.075	828716	keystroke	e	n/a
414.538	0.1495	829076	keystroke	s	n/a
414.7635	0.089	829527	keystroke	p	n/a
415.0025	0.09	830005	keystroke	i	n/a
415.2585	0.0595	830517	keystroke	t	n/a
415.2735	0.1945	830547	keystroke	e	n/a
415.453	0.165	830906	keystroke	Key.space	n/a
415.828	0.12	831656	keystroke	y	n/a
415.933	0.225	831866	keystroke	o	n/a
416.023	0.15	832046	keystroke	u	n/a
416.143	0.165	832286	keystroke	r	n/a
416.458	0.1195	832916	keystroke	s	n/a
416.6375	0.135	833275	keystroke	e	n/a
416.9825	0.105	833965	keystroke	l	n/a
417.1325	0.18	834265	keystroke	f	n/a
417.3275	0.1505	834655	keystroke	Key.space	n/a
417.628	0.09	835256	keystroke	p	n/a
417.853	0.075	835706	keystroke	o	n/a
418.4975	0.09	836995	keystroke	s	n/a
418.6625	0.0605	837325	keystroke	i	n/a
418.873	0.09	837746	keystroke	t	n/a
419.083	0.195	838166	keystroke	i	n/a
419.143	0.15	838286	keystroke	o	n/a
419.203	0.165	838406	keystroke	n	n/a
419.398	0.135	838796	keystroke	s	n/a
419.623	0.135	839246	keystroke	Key.space	n/a
419.968	0.135	839936	keystroke	a	n/a
420.388	0.09	840776	keystroke	t	n/a
420.868	0.09	841736	keystroke	o	n/a
421.123	0.09	842246	keystroke	m	n/a
421.8875	0.09	843775	keystroke	i	n/a
422.3375	0.105	844675	keystroke	c	n/a
423.058	0.12	846116	keystroke	Key.enter	n/a
423.1825	8.532	846365	prompt	n/a	sale simple combined cluster\n
423.973	0.09	847946	keystroke	a	n/a
424.4535	0.074	848907	keystroke	Key.backspace	n/a
424.6185	0.09	849237	keystroke	s	n/a
424.7235	0.15	849447	keystroke	a	n/a
424.8885	0.105	849777	keystroke	l	n/a
425.0375	0.136	850075	keystroke	e	n/a
425.1575	0.15	850315	keystroke	Key.space	n/a
425.4435	0.1495	850887	keystroke	s	n/a
425.608	0.075	851216	keystroke	i	n/a
425.818	0.105	851636	keystroke	m	n/a
426.058	0.1045	852116	keystroke	p	n/a
426.2685	0.104	852537	keystroke	l	n/a
426.3875	0.121	852775	keystroke	e	n/a
426.4925	0.15	852985	keystroke	Key.space	n/a
426.8975	0.135	853795	keystroke	c	n/a
426.9875	0.271	853975	keystroke	o	n/a
427.1385	0.135	854277	keystroke	m	n/a
427.798	0.135	855596	keystroke	b	n/a
427.978	0.165	855956	keystroke	i	n/a
428.113	0.135	856226	keystroke	n	n/a
428.263	0.105	856526	keystroke	e	n/a
428.443	0.12	856886	keystroke	s	n/a
428.908	0.09	857816	keystroke	Key.backspace	n/a
429.013	0.165	858026	keystroke	d	n/a
429.193	0.12	858386	keystroke	Key.space	n/a
429.583	0.135	859166	keystroke	c	n/a
429.838	0.09	859676	keystroke	l	n/a
430.6475	0.105	861295	keystroke	u	n/a
430.7375	0.12	861475	keystroke	s	n/a
430.9625	0.105	861925	keystroke	t	n/a
431.0825	0.18	862165	keystroke	e	n/a
431.1875	0.135	862375	keystroke	r	n/a
431.6375	0.0755	863275	keystroke	Key.enter	n/a
431.7175	9.4615	863435	prompt	n/a	recipients mine nasty invalid\n
432.5235	0.165	865047	keystroke	r	n/a
432.6285	0.105	865257	keystroke	e	n/a
432.9135	0.135	865827	keystroke	c	n/a
433.6485	0.1045	867297	keystroke	i	n/a
434.563	0.09	869126	keystroke	p	n/a
434.8035	0.105	869607	keystroke	i	n/a
435.0725	0.165	870145	keystroke	e	n/a
435.2835	0.059	870567	keystroke	n	n/a
435.3725	0.135	870745	keystroke	t	n/a
435.6435	0.1645	871287	keystroke	s	n/a
435.793	0.135	871586	keystroke	Key.space	n/a
436.078	0.1045	872156	keystroke	m	n/a
436.2735	0.12	872547	keystroke	i	n/a
436.4075	0.1205	872815	keystroke	n	n/a
436.603	0.15	873206	keystroke	e	n/a
436.768	0.12	873536	keystroke	Key.space	n/a
437.443	0.105	874886	keystroke	n	n/a
437.563	0.12	875126	keystroke	a	n/a
437.713	0.12	875426	keystroke	s	n/a
437.938	0.105	875876	keystroke	t	n/a
438.178	0.105	876356	keystroke	y	n/a
438.403	0.135	876806	keystroke	Key.space	n/a
439.033	0.12	878066	keystroke	i	n/a
439.273	0.0895	878546	keystroke	n	n/a
439.5875	0.135	879175	keystroke	v	n/a
439.753	0.1345	879506	keystroke	a	n/a
440.368	0.09	880736	keystroke	l	n/a
440.6225	0.075	881245	keystroke	i	n/a
440.8325	0.106	881665	keystroke	d	n/a
441.1035	0.0735	882207	keystroke	Key.enter	n/a
441.1815	9.823	882363	prompt	n/a	guatemala eden formal fate\n
441.9125	0.1205	883825	keystroke	g	n/a
442.738	0.075	885476	keystroke	u	n/a
443.7875	0.1205	887575	keystroke	a	n/a
444.088	0.03	888176	keystroke	t	n/a
445.2125	0.18	890425	keystroke	e	n/a
445.6625	0.1355	891325	keystroke	m	n/a
446.083	0.12	892166	keystroke	a	n/a
446.458	0.12	892916	keystroke	l	n/a
446.608	0.15	893216	keystroke	a	n/a
446.803	0.135	893606	keystroke	Key.space	n/a
447.073	0.135	894146	keystroke	e	n/a
447.388	0.12	894776	keystroke	d	n/a
447.718	0.09	895436	keystroke	e	n/a
447.823	0.135	895646	keystroke	n	n/a
448.183	0.015	896366	keystroke	Key.space	n/a
448.303	0.12	896606	keystroke	f	n/a
448.438	0.105	896876	keystroke	o	n/a
448.558	0.135	897116	keystroke	r	n/a
448.753	0.105	897506	keystroke	m	n/a
448.903	0.1195	897806	keystroke	a	n/a
449.0675	0.105	898135	keystroke	l	n/a
449.1875	0.135	898375	keystroke	Key.space	n/a
449.4275	0.09	898855	keystroke	g	n/a
449.5775	0.12	899155	keystroke	a	n/a
450.0425	0.09	900085	keystroke	Key.backspace	n/a
450.2075	0.075	900415	keystroke	Key.backspace	n/a
450.2975	0.12	900595	keystroke	f	n/a
450.3575	0.12	900715	keystroke	a	n/a
450.5825	0.135	901165	keystroke	t	n/a
450.6575	0.15	901315	keystroke	e	n/a
450.9275	0.075	901855	keystroke	Key.enter	n/a
451.0095	7.3455	902019	prompt	n/a	hand travels stainless presently\n
451.708	0.09	903416	keystroke	h	n/a
451.828	0.12	903656	keystroke	a	n/a
451.963	0.135	903926	keystroke	n	n/a
452.113	0.15	904226	keystroke	d	n/a
452.233	0.1495	904466	keystroke	Key.space	n/a
452.6225	0.105	905245	keystroke	t	n/a
452.788	0.15	905576	keystroke	r	n/a
452.983	0.15	905966	keystroke	a	n/a
453.193	0.225	906386	keystroke	v	n/a
454.003	0.135	908006	keystroke	e	n/a
454.213	0.105	908426	keystroke	l	n/a
454.348	0.1495	908696	keystroke	s	n/a
454.5425	0.135	909085	keystroke	Key.space	n/a
454.8875	0.09	909775	keystroke	s	n/a
455.1425	0.136	910285	keystroke	t	n/a
455.3375	0.12	910675	keystroke	a	n/a
455.5325	0.165	911065	keystroke	i	n/a
455.6225	0.135	911245	keystroke	n	n/a
455.8925	0.105	911785	keystroke	l	n/a
456.0125	0.105	912025	keystroke	e	n/a
456.1775	0.075	912355	keystroke	s	n/a
456.3575	0.12	912715	keystroke	s	n/a
456.4925	0.165	912985	keystroke	Key.space	n/a
456.703	0.12	913406	keystroke	p	n/a
456.898	0.135	913796	keystroke	r	n/a
456.988	0.105	913976	keystroke	e	n/a
457.213	0.1945	914426	keystroke	s	n/a
457.3925	0.15	914785	keystroke	e	n/a
457.5575	0.105	915115	keystroke	n	n/a
457.6475	0.12	915295	keystroke	t	n/a
457.8575	0.09	915715	keystroke	l	n/a
457.9925	0.15	915985	keystroke	y	n/a
458.308	0.045	916616	keystroke	Key.enter	n/a
458.359	13.7505	916718	prompt	n/a	surf bleeding excitement passenger\n
459.223	0.105	918446	keystroke	s	n/a
459.358	0.105	918716	keystroke	u	n/a
459.523	0.1195	919046	keystroke	f	n/a
459.778	0.12	919556	keystroke	t	n/a
460.123	0.15	920246	keystroke	Key.space	n/a
460.723	0.075	921446	keystroke	b	n/a
460.993	0.0895	921986	keystroke	l	n/a
461.4275	0.075	922855	keystroke	e	n/a
461.5625	0.075	923125	keystroke	e	n/a
461.7575	0.12	923515	keystroke	d	n/a
461.9375	0.21	923875	keystroke	i	n/a
462.0275	0.195	924055	keystroke	n	n/a
462.1625	0.165	924325	keystroke	g	n/a
462.2825	0.1655	924565	keystroke	Key.space	n/a
462.493	0.105	924986	keystroke	e	n/a
462.823	0.09	925646	keystroke	c	n/a
463.468	0.0895	926936	keystroke	Key.backspace	n/a
463.6175	0.121	927235	keystroke	x	n/a
463.888	0.15	927776	keystroke	c	n/a
464.053	0.0905	928106	keystroke	i	n/a
464.488	0.12	928976	keystroke	t	n/a
464.848	0.1355	929696	keystroke	e	n/a
465.148	0.06	930296	keystroke	m	n/a
465.343	0.09	930686	keystroke	n	n/a
465.388	0.15	930776	keystroke	e	n/a
465.5985	0.1495	931197	keystroke	t	n/a
465.763	0.15	931526	keystroke	Key.space	n/a
466.153	0.075	932306	keystroke	Key.backspace	n/a
466.3025	0.0605	932605	keystroke	Key.backspace	n/a
466.453	0.075	932906	keystroke	Key.backspace	n/a
466.768	0.0895	933536	keystroke	e	n/a
467.0825	0.061	934165	keystroke	Key.backspace	n/a
467.2175	0.075	934435	keystroke	Key.backspace	n/a
467.3975	0.09	934795	keystroke	e	n/a
467.6225	0.105	935245	keystroke	n	n/a
467.968	0.135	935936	keystroke	t	n/a
468.238	0.15	936476	keystroke	Key.space	n/a
468.823	0.1195	937646	keystroke	p	n/a
468.9725	0.12	937945	keystroke	a	n/a
469.1975	0.0905	938395	keystroke	s	n/a
469.363	0.105	938726	keystroke	s	n/a
469.603	0.15	939206	keystroke	e	n/a
469.768	0.1045	939536	keystroke	n	n/a
470.0075	0.12	940015	keystroke	d	n/a
470.5625	0.09	941125	keystroke	Key.backspace	n/a
471.433	0.09	942866	keystroke	g	n/a
471.658	0.15	943316	keystroke	e	n/a
471.793	0.12	943586	keystroke	r	n/a
472.018	0.09	944036	keystroke	Key.enter	n/a
472.112	12.8375	944224	prompt	n/a	weren't distributors cult instrument\n
472.8425	0.135	945685	keystroke	w	n/a
473.1125	0.15	946225	keystroke	e	n/a
473.2775	0.1505	946555	keystroke	r	n/a
473.368	0.195	946736	keystroke	e	n/a
473.638	0.105	947276	keystroke	n	n/a
473.878	0.105	947756	keystroke	'	n/a
474.043	0.1505	948086	keystroke	y	n/a
474.4485	0.074	948897	keystroke	Key.space	n/a
474.823	0.06	949646	keystroke	Key.backspace	n/a
474.943	0.09	949886	keystroke	Key.backspace	n/a
475.183	0.165	950366	keystroke	t	n/a
475.528	0.12	951056	keystroke	Key.space	n/a
476.0675	0.12	952135	keystroke	d	n/a
476.1575	0.105	952315	keystroke	i	n/a
476.2775	0.1355	952555	keystroke	s	n/a
476.743	0.075	953486	keystroke	t	n/a
476.938	0.12	953876	keystroke	r	n/a
477.4025	0.0905	954805	keystroke	u	n/a
477.853	0.09	955706	keystroke	Key.backspace	n/a
478.123	0.09	956246	keystroke	i	n/a
478.633	0.09	957266	keystroke	b	n/a
478.738	0.09	957476	keystroke	u	n/a
478.933	0.135	957866	keystroke	t	n/a
479.083	0.135	958166	keystroke	o	n/a
479.248	0.15	958496	keystroke	r	n/a
479.683	0.15	959366	keystroke	s	n/a
479.878	0.135	959756	keystroke	Key.space	n/a
480.583	0.165	961166	keystroke	c	n/a
480.748	0.09	961496	keystroke	u	n/a
480.9725	0.12	961945	keystroke	l	n/a
481.2125	0.12	962425	keystroke	t	n/a
481.438	0.15	962876	keystroke	Key.space	n/a
481.798	0.135	963596	keystroke	i	n/a
482.2775	0.1355	964555	keystroke	n	n/a
482.533	0.105	965066	keystroke	s	n/a
482.863	0.12	965726	keystroke	t	n/a
483.268	0.12	966536	keystroke	r	n/a
483.733	0.135	967466	keystroke	u	n/a
484.138	0.0755	968276	keystroke	m	n/a
484.3025	0.106	968605	keystroke	e	n/a
484.4385	0.075	968877	keystroke	n	n/a
484.5885	0.105	969177	keystroke	t	n/a
484.8585	0.089	969717	keystroke	Key.enter	n/a
484.9525	7.482	969905	prompt	n/a	connected difference benz slim\n
485.743	0.135	971486	keystroke	c	n/a
485.893	0.09	971786	keystroke	o	n/a
486.118	0.06	972236	keystroke	n	n/a
486.253	0.075	972506	keystroke	n	n/a
486.388	0.09	972776	keystroke	e	n/a
486.613	0.12	973226	keystroke	c	n/a
486.868	0.135	973736	keystroke	t	n/a
487.048	0.105	974096	keystroke	e	n/a
487.258	0.15	974516	keystroke	d	n/a
487.393	0.1495	974786	keystroke	Key.space	n/a
487.7375	0.135	975475	keystroke	d	n/a
487.8585	0.09	975717	keystroke	i	n/a
488.0675	0.09	976135	keystroke	f	n/a
488.2325	0.105	976465	keystroke	f	n/a
488.5025	0.1655	977005	keystroke	e	n/a
488.683	0.12	977366	keystroke	r	n/a
488.788	0.195	977576	keystroke	e	n/a
489.028	0.09	978056	keystroke	n	n/a
489.178	0.135	978356	keystroke	c	n/a
489.253	0.18	978506	keystroke	e	n/a
489.403	0.12	978806	keystroke	Key.space	n/a
489.718	0.075	979436	keystroke	b	n/a
489.838	0.135	979676	keystroke	e	n/a
490.033	0.09	980066	keystroke	n	n/a
490.303	0.15	980606	keystroke	z	n/a
490.498	0.15	980996	keystroke	Key.space	n/a
490.8435	0.1645	981687	keystroke	s	n/a
491.053	0.06	982106	keystroke	l	n/a
491.548	0.06	983096	keystroke	i	n/a
491.968	0.09	983936	keystroke	m	n/a
492.3885	0.045	984777	keystroke	Key.enter	n/a
492.4385	8.786	984877	prompt	n/a	brandon truck bare frames\n
493.3485	0.104	986697	keystroke	b	n/a
493.768	0.12	987536	keystroke	r	n/a
494.038	0.1345	988076	keystroke	a	n/a
494.7425	0.09	989485	keystroke	n	n/a
494.9685	0.105	989937	keystroke	d	n/a
495.1325	0.12	990265	keystroke	o	n/a
495.328	0.09	990656	keystroke	n	n/a
495.763	0.12	991526	keystroke	Key.space	n/a
496.168	0.075	992336	keystroke	t	n/a
496.4375	0.105	992875	keystroke	r	n/a
496.6625	0.09	993325	keystroke	u	n/a
496.8275	0.135	993655	keystroke	c	n/a
497.0825	0.105	994165	keystroke	k	n/a
497.383	0.12	994766	keystroke	Key.space	n/a
497.713	0.09	995426	keystroke	b	n/a
497.848	0.12	995696	keystroke	a	n/a
498.148	0.135	996296	keystroke	r	n/a
498.268	0.1805	996536	keystroke	e	n/a
498.4335	0.1345	996867	keystroke	Key.space	n/a
499.528	0.09	999056	keystroke	f	n/a
499.783	0.165	999566	keystroke	r	n/a
500.338	0.1355	1000676	keystroke	a	n/a
500.5635	0.12	1001127	keystroke	m	n/a
500.698	0.12	1001396	keystroke	e	n/a
500.878	0.12	1001756	keystroke	s	n/a
501.148	0.0755	1002296	keystroke	Key.enter	n/a
501.227	4.7375	1002454	prompt	n/a	home one charges when\n
501.943	0.12	1003886	keystroke	h	n/a
502.0935	0.1195	1004187	keystroke	o	n/a
502.2885	0.12	1004577	keystroke	m	n/a
502.438	0.135	1004876	keystroke	e	n/a
502.5285	0.165	1005057	keystroke	Key.space	n/a
502.768	0.15	1005536	keystroke	o	n/a
502.8285	0.1795	1005657	keystroke	n	n/a
502.993	0.15	1005986	keystroke	e	n/a
503.098	0.15	1006196	keystroke	Key.space	n/a
503.4135	0.15	1006827	keystroke	c	n/a
503.5035	0.09	1007007	keystroke	h	n/a
504.0135	0.135	1008027	keystroke	a	n/a
504.2085	0.12	1008417	keystroke	r	n/a
504.4185	0.21	1008837	keystroke	g	n/a
504.5685	0.135	1009137	keystroke	e	n/a
504.7935	0.165	1009587	keystroke	s	n/a
504.973	0.135	1009946	keystroke	Key.space	n/a
505.2285	0.1195	1010457	keystroke	w	n/a
505.363	0.09	1010726	keystroke	h	n/a
505.513	0.165	1011026	keystroke	e	n/a
505.633	0.09	1011266	keystroke	n	n/a
505.903	0.06	1011806	keystroke	Key.enter	n/a
505.967	9.7175	1011934	prompt	n/a	prostate alerts excitement carefully\n
506.773	0.105	1013546	keystroke	p	n/a
506.9825	0.12	1013965	keystroke	r	n/a
507.1475	0.1055	1014295	keystroke	o	n/a
507.4625	0.1055	1014925	keystroke	s	n/a
507.7325	0.12	1015465	keystroke	t	n/a
507.958	0.12	1015916	keystroke	a	n/a
508.153	0.1195	1016306	keystroke	t	n/a
508.5285	0.1045	1017057	keystroke	e	n/a
508.7835	0.135	1017567	keystroke	Key.space	n/a
509.0835	0.119	1018167	keystroke	a	n/a
509.2325	0.09	1018465	keystroke	l	n/a
509.5025	0.151	1019005	keystroke	e	n/a
509.7125	0.105	1019425	keystroke	r	n/a
509.9525	0.075	1019905	keystroke	t	n/a
510.1485	0.1345	1020297	keystroke	s	n/a
510.493	0.105	1020986	keystroke	Key.space	n/a
510.718	0.0745	1021436	keystroke	e	n/a
510.9725	0.075	1021945	keystroke	x	n/a
511.1825	0.1355	1022365	keystroke	c	n/a
511.8125	0.09	1023625	keystroke	i	n/a
512.2325	0.076	1024465	keystroke	t	n/a
512.4585	0.09	1024917	keystroke	e	n/a
512.6535	0.075	1025307	keystroke	m	n/a
512.7885	0.12	1025577	keystroke	e	n/a
512.9235	0.075	1025847	keystroke	n	n/a
513.0885	0.12	1026177	keystroke	t	n/a
513.3585	0.1195	1026717	keystroke	Key.space	n/a
513.808	0.1195	1027616	keystroke	c	n/a
513.9725	0.135	1027945	keystroke	a	n/a
514.1525	0.181	1028305	keystroke	r	n/a
514.2735	0.149	1028547	keystroke	e	n/a
514.6035	0.15	1029207	keystroke	f	n/a
514.7835	0.09	1029567	keystroke	u	n/a
515.0535	0.09	1030107	keystroke	l	n/a
515.2035	0.0745	1030407	keystroke	l	n/a
515.323	0.165	1030646	keystroke	y	n/a
515.6075	0.075	1031215	keystroke	Key.enter	n/a
515.687	7.137	1031374	prompt	n/a	copies affair nickname roughly\n
516.4485	0.12	1032897	keystroke	c	n/a
516.5835	0.09	1033167	keystroke	o	n/a
516.8085	0.075	1033617	keystroke	p	n/a
517.0185	0.0895	1034037	keystroke	i	n/a
517.213	0.1205	1034426	keystroke	e	n/a
517.288	0.1955	1034576	keystroke	s	n/a
517.4235	0.1645	1034847	keystroke	Key.space	n/a
517.6335	0.1495	1035267	keystroke	a	n/a
517.828	0.105	1035656	keystroke	f	n/a
518.0085	0.12	1036017	keystroke	f	n/a
518.2035	0.1495	1036407	keystroke	a	n/a
518.398	0.105	1036796	keystroke	i	n/a
518.593	0.1205	1037186	keystroke	r	n/a
518.6975	0.165	1037395	keystroke	Key.space	n/a
519.1185	0.089	1038237	keystroke	n	n/a
519.3125	0.09	1038625	keystroke	i	n/a
519.4775	0.21	1038955	keystroke	c	n/a
519.6425	0.075	1039285	keystroke	k	n/a
519.9125	0.105	1039825	keystroke	n	n/a
520.0775	0.09	1040155	keystroke	a	n/a
520.1975	0.12	1040395	keystroke	m	n/a
520.3925	0.12	1040785	keystroke	e	n/a
520.5275	0.151	1041055	keystroke	Key.space	n/a
521.2475	0.136	1042495	keystroke	r	n/a
521.4275	0.165	1042855	keystroke	o	n/a
521.5035	0.119	1043007	keystroke	u	n/a
521.6675	0.135	1043335	keystroke	g	n/a
521.7875	0.105	1043575	keystroke	h	n/a
522.298	0.0895	1044596	keystroke	l	n/a
522.4625	0.135	1044925	keystroke	y	n/a
522.7475	0.075	1045495	keystroke	Key.enter	n/a
522.8275	7.242	1045655	prompt	n/a	submissions developer pose finding\n
523.5425	0.135	1047085	keystroke	s	n/a
523.7375	0.09	1047475	keystroke	u	n/a
523.9775	0.135	1047955	keystroke	b	n/a
524.4425	0.09	1048885	keystroke	m	n/a
524.6375	0.075	1049275	keystroke	i	n/a
524.8325	0.075	1049665	keystroke	s	n/a
524.9975	0.0905	1049995	keystroke	s	n/a
525.178	0.21	1050356	keystroke	i	n/a
525.253	0.15	1050506	keystroke	o	n/a
525.313	0.15	1050626	keystroke	n	n/a
525.478	0.135	1050956	keystroke	s	n/a
525.598	0.135	1051196	keystroke	Key.space	n/a
525.853	0.075	1051706	keystroke	d	n/a
526.033	0.075	1052066	keystroke	e	n/a
526.273	0.15	1052546	keystroke	v	n/a
526.438	0.105	1052876	keystroke	e	n/a
526.618	0.09	1053236	keystroke	l	n/a
526.843	0.06	1053686	keystroke	o	n/a
527.053	0.045	1054106	keystroke	p	n/a
527.233	0.18	1054466	keystroke	e	n/a
527.368	0.165	1054736	keystroke	r	n/a
527.608	0.18	1055216	keystroke	Key.space	n/a
528.088	0.1195	1056176	keystroke	p	n/a
528.328	0.075	1056656	keystroke	o	n/a
528.493	0.1645	1056986	keystroke	s	n/a
528.628	0.135	1057256	keystroke	e	n/a
528.718	0.165	1057436	keystroke	Key.space	n/a
529.003	0.12	1058006	keystroke	f	n/a
529.108	0.15	1058216	keystroke	i	n/a
529.228	0.1055	1058456	keystroke	n	n/a
529.3485	0.12	1058697	keystroke	d	n/a
529.5735	0.135	1059147	keystroke	i	n/a
529.6335	0.165	1059267	keystroke	n	n/a
529.7835	0.135	1059567	keystroke	g	n/a
529.9785	0.09	1059957	keystroke	Key.enter	n/a
530.0725	9.147	1060145	prompt	n/a	barcelona males station ring\n
530.848	0.12	1061696	keystroke	b	n/a
530.998	0.18	1061996	keystroke	a	n/a
531.298	0.15	1062596	keystroke	r	n/a
532.0175	0.12	1064035	keystroke	c	n/a
532.2425	0.091	1064485	keystroke	e	n/a
532.4675	0.076	1064935	keystroke	l	n/a
532.6635	0.075	1065327	keystroke	o	n/a
532.7985	0.105	1065597	keystroke	n	n/a
532.9775	0.121	1065955	keystroke	a	n/a
533.1425	0.151	1066285	keystroke	Key.space	n/a
533.3985	0.105	1066797	keystroke	m	n/a
533.5635	0.12	1067127	keystroke	a	n/a
533.7135	0.0895	1067427	keystroke	k	n/a
533.863	0.12	1067726	keystroke	e	n/a
534.2535	0.12	1068507	keystroke	s	n/a
534.6885	0.06	1069377	keystroke	Key.backspace	n/a
534.8235	0.06	1069647	keystroke	Key.backspace	n/a
534.9885	0.045	1069977	keystroke	Key.backspace	n/a
535.723	0.075	1071446	keystroke	l	n/a
535.813	0.18	1071626	keystroke	e	n/a
535.963	0.165	1071926	keystroke	s	n/a
536.098	0.15	1072196	keystroke	Key.space	n/a
536.818	0.105	1073636	keystroke	s	n/a
537.043	0.105	1074086	keystroke	t	n/a
537.163	0.12	1074326	keystroke	a	n/a
537.268	0.135	1074536	keystroke	t	n/a
537.463	0.2395	1074926	keystroke	i	n/a
537.553	0.1345	1075106	keystroke	o	n/a
537.5975	0.18	1075195	keystroke	n	n/a
537.7475	0.12	1075495	keystroke	Key.space	n/a
537.9725	0.1505	1075945	keystroke	r	n/a
538.0475	0.0905	1076095	keystroke	i	n/a
538.183	0.1495	1076366	keystroke	g	n/a
538.3175	0.09	1076635	keystroke	h	n/a
538.4375	0.09	1076875	keystroke	t	n/a
538.8575	0.075	1077715	keystroke	Key.backspace	n/a
539.1425	0.075	1078285	keystroke	Key.enter	n/a
539.2235	11.786	1078447	prompt	n/a	revenue ambassador appliance chair\n
540.058	0.135	1080116	keystroke	r	n/a
540.148	0.1205	1080296	keystroke	e	n/a
540.4785	0.0895	1080957	keystroke	v	n/a
540.688	0.09	1081376	keystroke	e	n/a
540.808	0.15	1081616	keystroke	n	n/a
541.108	0.09	1082216	keystroke	u	n/a
541.333	0.15	1082666	keystroke	e	n/a
541.543	0.135	1083086	keystroke	Key.space	n/a
541.813	0.135	1083626	keystroke	a	n/a
542.0075	0.09	1084015	keystroke	m	n/a
542.3535	0.044	1084707	keystroke	b	n/a
542.5325	0.12	1085065	keystroke	a	n/a
542.758	0.06	1085516	keystroke	s	n/a
542.923	0.09	1085846	keystroke	s	n/a
544.5725	0.12	1089145	keystroke	a	n/a
545.2625	0.12	1090525	keystroke	d	n/a
545.4275	0.075	1090855	keystroke	o	n/a
545.5625	0.135	1091125	keystroke	r	n/a
545.8925	0.165	1091785	keystroke	Key.space	n/a
546.313	0.12	1092626	keystroke	a	n/a
546.538	0.075	1093076	keystroke	p	n/a
546.673	0.06	1093346	keystroke	p	n/a
546.823	0.105	1093646	keystroke	l	n/a
547.018	0.09	1094036	keystroke	i	n/a
547.168	0.135	1094336	keystroke	c	n/a
547.258	0.135	1094516	keystroke	a	n/a
547.438	0.135	1094876	keystroke	n	n/a
547.813	0.075	1095626	keystroke	Key.backspace	n/a
547.963	0.075	1095926	keystroke	Key.backspace	n/a
548.098	0.09	1096196	keystroke	Key.backspace	n/a
548.923	0.18	1097846	keystroke	a	n/a
549.118	0.12	1098236	keystroke	n	n/a
549.283	0.165	1098566	keystroke	c	n/a
549.433	0.15	1098866	keystroke	e	n/a
549.538	0.15	1099076	keystroke	Key.space	n/a
550.0475	0.135	1100095	keystroke	c	n/a
550.1375	0.105	1100275	keystroke	h	n/a
550.2725	0.12	1100545	keystroke	a	n/a
550.438	0.105	1100876	keystroke	i	n/a
550.618	0.135	1101236	keystroke	r	n/a
550.903	0.1045	1101806	keystroke	Key.enter	n/a
551.012	8.3525	1102024	prompt	n/a	offers seemed lectures knit\n
551.6975	0.105	1103395	keystroke	o	n/a
551.8625	0.075	1103725	keystroke	f	n/a
552.0125	0.1205	1104025	keystroke	f	n/a
552.208	0.255	1104416	keystroke	e	n/a
552.373	0.135	1104746	keystroke	r	n/a
552.493	0.165	1104986	keystroke	s	n/a
552.628	0.18	1105256	keystroke	Key.space	n/a
552.913	0.1195	1105826	keystroke	s	n/a
553.0925	0.09	1106185	keystroke	e	n/a
553.2725	0.105	1106545	keystroke	e	n/a
553.4075	0.105	1106815	keystroke	m	n/a
553.978	0.09	1107956	keystroke	e	n/a
554.158	0.135	1108316	keystroke	d	n/a
554.323	0.1645	1108646	keystroke	Key.space	n/a
554.6375	0.09	1109275	keystroke	l	n/a
554.8025	0.105	1109605	keystroke	e	n/a
555.0725	0.12	1110145	keystroke	c	n/a
555.3575	0.1205	1110715	keystroke	t	n/a
555.598	0.105	1111196	keystroke	u	n/a
555.733	0.18	1111466	keystroke	r	n/a
555.823	0.165	1111646	keystroke	e	n/a
556.003	0.18	1112006	keystroke	s	n/a
556.888	0.165	1113776	keystroke	Key.space	n/a
557.818	0.09	1115636	keystroke	k	n/a
558.088	0.09	1116176	keystroke	n	n/a
558.7035	0.0745	1117407	keystroke	i	n/a
558.9885	0.075	1117977	keystroke	t	n/a
559.2725	0.09	1118545	keystroke	Key.enter	n/a
559.367	10.7975	1118734	prompt	n/a	queries guns msgid introductory\n
560.2485	0.134	1120497	keystroke	q	n/a
560.3975	0.106	1120795	keystroke	u	n/a
560.6225	0.165	1121245	keystroke	e	n/a
560.8185	0.119	1121637	keystroke	r	n/a
561.1025	0.09	1122205	keystroke	i	n/a
561.418	0.135	1122836	keystroke	e	n/a
561.538	0.15	1123076	keystroke	s	n/a
561.733	0.1645	1123466	keystroke	Key.space	n/a
562.5575	0.15	1125115	keystroke	g	n/a
562.7225	0.12	1125445	keystroke	u	n/a
562.9175	0.09	1125835	keystroke	n	n/a
563.548	0.195	1127096	keystroke	s	n/a
563.758	0.105	1127516	keystroke	Key.space	n/a
564.223	0.09	1128446	keystroke	m	n/a
564.463	0.135	1128926	keystroke	s	n/a
565.063	0.105	1130126	keystroke	g	n/a
565.198	0.0895	1130396	keystroke	i	n/a
565.3625	0.12	1130725	keystroke	d	n/a
565.7225	0.12	1131445	keystroke	Key.space	n/a
566.1875	0.135	1132375	keystroke	i	n/a
566.2775	0.165	1132555	keystroke	n	n/a
566.5775	0.105	1133155	keystroke	t	n/a
566.7725	0.135	1133545	keystroke	r	n/a
567.613	0.075	1135226	keystroke	o	n/a
568.048	0.075	1136096	keystroke	d	n/a
568.3175	0.075	1136635	keystroke	u	n/a
568.5125	0.135	1137025	keystroke	c	n/a
569.0375	0.09	1138075	keystroke	t	n/a
569.2925	0.12	1138585	keystroke	o	n/a
569.4725	0.135	1138945	keystroke	r	n/a
569.7125	0.09	1139425	keystroke	y	n/a
570.088	0.075	1140176	keystroke	Key.enter	n/a
570.168	8.9665	1140336	prompt	n/a	regulation theorem routing practices\n
570.9285	0.149	1141857	keystroke	r	n/a
571.0035	0.195	1142007	keystroke	e	n/a
571.4685	0.149	1142937	keystroke	g	n/a
571.6325	0.075	1143265	keystroke	u	n/a
571.8285	0.104	1143657	keystroke	l	n/a
571.9625	0.121	1143925	keystroke	a	n/a
572.0685	0.104	1144137	keystroke	t	n/a
572.233	0.255	1144466	keystroke	i	n/a
572.308	0.15	1144616	keystroke	o	n/a
572.413	0.15	1144826	keystroke	n	n/a
572.593	0.15	1145186	keystroke	Key.space	n/a
573.013	0.165	1146026	keystroke	t	n/a
573.193	0.105	1146386	keystroke	h	n/a
573.448	0.165	1146896	keystroke	e	n/a
573.823	0.12	1147646	keystroke	o	n/a
574.063	0.105	1148126	keystroke	r	n/a
574.3025	0.1205	1148605	keystroke	e	n/a
574.573	0.0895	1149146	keystroke	m	n/a
574.7975	0.135	1149595	keystroke	Key.space	n/a
575.053	0.165	1150106	keystroke	r	n/a
575.263	0.195	1150526	keystroke	o	n/a
575.338	0.195	1150676	keystroke	u	n/a
576.133	0.09	1152266	keystroke	t	n/a
576.3735	0.21	1152747	keystroke	i	n/a
576.4635	0.209	1152927	keystroke	n	n/a
576.5835	0.165	1153167	keystroke	g	n/a
576.7175	0.135	1153435	keystroke	Key.space	n/a
576.9885	0.105	1153977	keystroke	p	n/a
577.1525	0.1505	1154305	keystroke	r	n/a
577.5735	0.1045	1155147	keystroke	a	n/a
577.798	0.105	1155596	keystroke	c	n/a
578.053	0.12	1156106	keystroke	t	n/a
578.203	0.105	1156406	keystroke	i	n/a
578.473	0.135	1156946	keystroke	c	n/a
578.668	0.105	1157336	keystroke	e	n/a
578.818	0.12	1157636	keystroke	s	n/a
579.073	0.06	1158146	keystroke	Key.enter	n/a
579.1375	12.837	1158275	prompt	n/a	fitting firewall bali should've\n
579.8385	0.15	1159677	keystroke	f	n/a
580.0485	0.09	1160097	keystroke	i	n/a
580.3335	0.06	1160667	keystroke	t	n/a
580.483	0.09	1160966	keystroke	t	n/a
580.678	0.195	1161356	keystroke	i	n/a
580.753	0.2105	1161506	keystroke	n	n/a
580.888	0.1655	1161776	keystroke	g	n/a
581.023	0.15	1162046	keystroke	Key.space	n/a
581.6385	0.12	1163277	keystroke	f	n/a
581.7285	0.12	1163457	keystroke	i	n/a
581.9835	0.105	1163967	keystroke	r	n/a
582.0585	0.165	1164117	keystroke	e	n/a
582.508	0.24	1165016	keystroke	w	n/a
582.868	0.12	1165736	keystroke	a	n/a
583.033	0.09	1166066	keystroke	l	n/a
583.198	0.075	1166396	keystroke	l	n/a
583.3925	0.12	1166785	keystroke	Key.space	n/a
583.7375	0.106	1167475	keystroke	b	n/a
584.1885	0.134	1168377	keystroke	a	n/a
584.5025	0.106	1169005	keystroke	l	n/a
584.7275	0.091	1169455	keystroke	i	n/a
584.9825	0.135	1169965	keystroke	Key.space	n/a
585.2085	0.1495	1170417	keystroke	s	n/a
585.343	0.165	1170686	keystroke	h	n/a
585.478	0.18	1170956	keystroke	o	n/a
588.255	0.0735	1176510	keystroke	Key.backspace	n/a
589.153	0.225	1178306	keystroke	o	n/a
589.258	0.135	1178516	keystroke	u	n/a
589.5285	0.149	1179057	keystroke	l	n/a
589.8575	0.226	1179715	keystroke	d	n/a
591.178	0.09	1182356	keystroke	'	n/a
591.448	0.165	1182896	keystroke	v	n/a
591.598	0.165	1183196	keystroke	e	n/a
591.8825	0.09	1183765	keystroke	Key.enter	n/a
591.977	6.6275	1183954	prompt	n/a	when's helpful away media\n
592.708	0.195	1185416	keystroke	w	n/a
593.0835	0.12	1186167	keystroke	h	n/a
593.2325	0.166	1186465	keystroke	e	n/a
593.3535	0.135	1186707	keystroke	n	n/a
593.6975	0.1355	1187395	keystroke	'	n/a
593.848	0.135	1187696	keystroke	s	n/a
593.938	0.135	1187876	keystroke	Key.space	n/a
594.268	0.09	1188536	keystroke	h	n/a
594.388	0.135	1188776	keystroke	e	n/a
594.553	0.12	1189106	keystroke	l	n/a
595.0025	0.12	1190005	keystroke	p	n/a
595.528	0.09	1191056	keystroke	f	n/a
595.663	0.075	1191326	keystroke	u	n/a
596.038	0.105	1192076	keystroke	l	n/a
596.203	0.15	1192406	keystroke	Key.space	n/a
596.548	0.15	1193096	keystroke	a	n/a
596.863	0.09	1193726	keystroke	w	n/a
597.0275	0.135	1194055	keystroke	a	n/a
597.2225	0.105	1194445	keystroke	y	n/a
597.4325	0.105	1194865	keystroke	Key.space	n/a
597.6585	0.119	1195317	keystroke	m	n/a
597.7925	0.09	1195585	keystroke	e	n/a
597.9725	0.135	1195945	keystroke	d	n/a
598.1085	0.1045	1196217	keystroke	i	n/a
598.273	0.105	1196546	keystroke	a	n/a
598.543	0.06	1197086	keystroke	Key.enter	n/a
598.607	7.9775	1197214	prompt	n/a	musical shield baltimore sciences\n
599.3085	0.105	1198617	keystroke	m	n/a
599.5185	0.09	1199037	keystroke	u	n/a
599.7285	0.12	1199457	keystroke	s	n/a
599.9085	0.105	1199817	keystroke	i	n/a
600.1185	0.134	1200237	keystroke	c	n/a
600.3575	0.135	1200715	keystroke	a	n/a
600.5535	0.104	1201107	keystroke	l	n/a
600.7175	0.105	1201435	keystroke	Key.space	n/a
600.9275	0.135	1201855	keystroke	s	n/a
601.0775	0.09	1202155	keystroke	h	n/a
601.3175	0.105	1202635	keystroke	i	n/a
601.498	0.105	1202996	keystroke	e	n/a
601.828	0.09	1203656	keystroke	l	n/a
601.963	0.15	1203926	keystroke	d	n/a
602.128	0.1355	1204256	keystroke	Key.space	n/a
602.4435	0.105	1204887	keystroke	n	n/a
602.6085	0.135	1205217	keystroke	a	n/a
602.878	0.075	1205756	keystroke	l	n/a
603.1935	0.1045	1206387	keystroke	t	n/a
603.328	0.105	1206656	keystroke	i	n/a
603.598	0.1205	1207196	keystroke	m	n/a
603.7485	0.105	1207497	keystroke	o	n/a
603.8835	0.18	1207767	keystroke	r	n/a
603.9885	0.18	1207977	keystroke	e	n/a
604.1225	0.165	1208245	keystroke	Key.space	n/a
604.828	0.12	1209656	keystroke	s	n/a
605.173	0.15	1210346	keystroke	c	n/a
605.368	0.105	1210736	keystroke	i	n/a
605.623	0.09	1211246	keystroke	e	n/a
605.728	0.1345	1211456	keystroke	n	n/a
605.9675	0.15	1211935	keystroke	c	n/a
606.1335	0.149	1212267	keystroke	e	n/a
606.2675	0.135	1212535	keystroke	s	n/a
606.4925	0.09	1212985	keystroke	Key.enter	n/a
606.5875	10.137	1213175	prompt	n/a	haiti license peripherals bizarre\n
607.438	0.12	1214876	keystroke	h	n/a
607.543	0.135	1215086	keystroke	a	n/a
607.723	0.15	1215446	keystroke	i	n/a
608.083	0.12	1216166	keystroke	t	n/a
608.2935	0.075	1216587	keystroke	i	n/a
608.4125	0.15	1216825	keystroke	Key.space	n/a
608.6085	0.0895	1217217	keystroke	l	n/a
608.848	0.105	1217696	keystroke	i	n/a
609.103	0.165	1218206	keystroke	c	n/a
609.268	0.15	1218536	keystroke	e	n/a
609.688	0.15	1219376	keystroke	n	n/a
610.318	0.12	1220636	keystroke	s	n/a
610.498	0.135	1220996	keystroke	e	n/a
610.708	0.15	1221416	keystroke	Key.space	n/a
611.0685	0.105	1222137	keystroke	p	n/a
611.2485	0.225	1222497	keystroke	e	n/a
611.3985	0.12	1222797	keystroke	r	n/a
612.0735	0.15	1224147	keystroke	i	n/a
612.6275	0.09	1225255	keystroke	p	n/a
612.8225	0.105	1225645	keystroke	h	n/a
613.2135	0.134	1226427	keystroke	e	n/a
613.3635	0.149	1226727	keystroke	r	n/a
613.6785	0.15	1227357	keystroke	a	n/a
613.8585	0.09	1227717	keystroke	l	n/a
614.0835	0.12	1228167	keystroke	s	n/a
614.3985	0.135	1228797	keystroke	Key.space	n/a
614.7135	0.06	1229427	keystroke	b	n/a
614.9235	0.089	1229847	keystroke	i	n/a
615.1175	0.09	1230235	keystroke	z	n/a
615.7335	0.12	1231467	keystroke	a	n/a
616.0335	0.12	1232067	keystroke	r	n/a
616.2285	0.105	1232457	keystroke	r	n/a
616.393	0.15	1232786	keystroke	e	n/a
616.633	0.09	1233266	keystroke	Key.enter	n/a
616.7275	19.242	1233455	prompt	n/a	knowledgestorm ma'am eddie attractions\n
617.563	0.135	1235126	keystroke	k	n/a
617.848	0.12	1235696	keystroke	o	n/a
618.178	0.15	1236356	keystroke	n	n/a
618.868	0.105	1237736	keystroke	w	n/a
619.168	0.09	1238336	keystroke	l	n/a
619.378	0.0745	1238756	keystroke	e	n/a
620.6975	0.075	1241395	keystroke	Key.backspace	n/a
620.8625	0.075	1241725	keystroke	Key.backspace	n/a
621.0425	0.06	1242085	keystroke	Key.backspace	n/a
621.2225	0.075	1242445	keystroke	Key.backspace	n/a
621.4925	0.075	1242985	keystroke	Key.backspace	n/a
622.243	0.09	1244486	keystroke	k	n/a
622.903	0.075	1245806	keystroke	Key.backspace	n/a
623.233	0.105	1246466	keystroke	n	n/a
623.5635	0.09	1247127	keystroke	o	n/a
623.8485	0.105	1247697	keystroke	w	n/a
624.1335	0.09	1248267	keystroke	l	n/a
624.4485	0.105	1248897	keystroke	e	n/a
624.7785	0.105	1249557	keystroke	d	n/a
625.153	0.09	1250306	keystroke	g	n/a
625.498	0.135	1250996	keystroke	e	n/a
626.578	0.09	1253156	keystroke	s	n/a
626.923	0.09	1253846	keystroke	o	n/a
627.388	0.09	1254776	keystroke	Key.backspace	n/a
627.568	0.12	1255136	keystroke	t	n/a
627.703	0.1055	1255406	keystroke	o	n/a
627.8685	0.15	1255737	keystroke	r	n/a
628.1085	0.105	1256217	keystroke	m	n/a
628.378	0.15	1256756	keystroke	Key.space	n/a
628.678	0.12	1257356	keystroke	m	n/a
629.278	0.12	1258556	keystroke	a	n/a
630.1925	0.0755	1260385	keystroke	'	n/a
630.478	0.12	1260956	keystroke	a	n/a
630.853	0.09	1261706	keystroke	m	n/a
631.2125	0.135	1262425	keystroke	Key.space	n/a
631.7375	0.09	1263475	keystroke	e	n/a
631.9485	0.119	1263897	keystroke	d	n/a
632.1125	0.15	1264225	keystroke	d	n/a
632.1725	0.0455	1264345	keystroke	i	n/a
632.953	0.135	1265906	keystroke	e	n/a
633.208	0.135	1266416	keystroke	Key.space	n/a
633.508	0.135	1267016	keystroke	a	n/a
633.748	0.09	1267496	keystroke	t	n/a
633.913	0.09	1267826	keystroke	t	n/a
634.138	0.1205	1268276	keystroke	r	n/a
634.3935	0.105	1268787	keystroke	a	n/a
634.618	0.12	1269236	keystroke	c	n/a
634.888	0.105	1269776	keystroke	t	n/a
635.083	0.195	1270166	keystroke	i	n/a
635.113	0.18	1270226	keystroke	o	n/a
635.188	0.165	1270376	keystroke	n	n/a
635.593	0.105	1271186	keystroke	s	n/a
635.878	0.09	1271756	keystroke	Key.enter	n/a
635.9725	9.387	1271945	prompt	n/a	expiration handles pediatric answers\n
636.658	0.09	1273316	keystroke	e	n/a
636.8985	0.165	1273797	keystroke	x	n/a
637.0935	0.075	1274187	keystroke	p	n/a
637.3035	0.09	1274607	keystroke	i	n/a
637.6185	0.15	1275237	keystroke	r	n/a
637.8135	0.12	1275627	keystroke	a	n/a
637.9485	0.135	1275897	keystroke	t	n/a
638.1285	0.2545	1276257	keystroke	i	n/a
638.188	0.165	1276376	keystroke	o	n/a
638.248	0.1955	1276496	keystroke	n	n/a
638.4585	0.12	1276917	keystroke	Key.space	n/a
638.638	0.0755	1277276	keystroke	h	n/a
638.7435	0.1195	1277487	keystroke	a	n/a
638.893	0.105	1277786	keystroke	n	n/a
639.103	0.135	1278206	keystroke	d	n/a
639.4785	0.1045	1278957	keystroke	l	n/a
639.688	0.09	1279376	keystroke	e	n/a
639.8685	0.164	1279737	keystroke	s	n/a
640.0475	0.1505	1280095	keystroke	Key.space	n/a
640.303	0.105	1280606	keystroke	p	n/a
640.528	0.12	1281056	keystroke	e	n/a
640.843	0.135	1281686	keystroke	d	n/a
641.6825	0.09	1283365	keystroke	i	n/a
641.9225	0.135	1283845	keystroke	a	n/a
642.2675	0.105	1284535	keystroke	t	n/a
642.5225	0.12	1285045	keystroke	r	n/a
642.6725	0.12	1285345	keystroke	i	n/a
643.5135	0.12	1287027	keystroke	c	n/a
643.7235	0.135	1287447	keystroke	Key.space	n/a
643.963	0.1355	1287926	keystroke	a	n/a
644.083	0.1055	1288166	keystroke	n	n/a
644.263	0.15	1288526	keystroke	s	n/a
644.578	0.165	1289156	keystroke	w	n/a
644.698	0.21	1289396	keystroke	e	n/a
644.833	0.135	1289666	keystroke	r	n/a
644.983	0.15	1289966	keystroke	s	n/a
645.283	0.075	1290566	keystroke	Key.enter	n/a
645.364	8.5155	1290728	prompt	n/a	validation pack accountability engines\n
646.1685	0.15	1292337	keystroke	v	n/a
646.3335	0.1195	1292667	keystroke	a	n/a
646.513	0.105	1293026	keystroke	l	n/a
646.738	0.075	1293476	keystroke	i	n/a
647.278	0.105	1294556	keystroke	d	n/a
647.428	0.105	1294856	keystroke	a	n/a
647.698	0.09	1295396	keystroke	t	n/a
647.938	0.1955	1295876	keystroke	i	n/a
647.9685	0.15	1295937	keystroke	o	n/a
648.0285	0.195	1296057	keystroke	n	n/a
648.1935	0.135	1296387	keystroke	Key.space	n/a
648.3585	0.09	1296717	keystroke	p	n/a
648.4785	0.12	1296957	keystroke	a	n/a
648.7335	0.165	1297467	keystroke	c	n/a
648.8835	0.105	1297767	keystroke	k	n/a
649.0185	0.135	1298037	keystroke	Key.space	n/a
649.1685	0.075	1298337	keystroke	a	n/a
649.3935	0.075	1298787	keystroke	c	n/a
649.5735	0.12	1299147	keystroke	c	n/a
649.7085	0.255	1299417	keystroke	o	n/a
649.8435	0.15	1299687	keystroke	u	n/a
649.9335	0.165	1299867	keystroke	n	n/a
650.1435	0.12	1300287	keystroke	t	n/a
650.4135	0.1195	1300827	keystroke	a	n/a
650.713	0.1355	1301426	keystroke	b	n/a
650.9085	0.09	1301817	keystroke	i	n/a
651.1335	0.09	1302267	keystroke	l	n/a
651.3285	0.09	1302657	keystroke	i	n/a
651.5235	0.105	1303047	keystroke	t	n/a
651.7335	0.075	1303467	keystroke	y	n/a
652.078	0.12	1304156	keystroke	Key.space	n/a
652.303	0.1205	1304606	keystroke	e	n/a
652.5285	0.0895	1305057	keystroke	n	n/a
652.738	0.09	1305476	keystroke	g	n/a
652.903	0.105	1305806	keystroke	i	n/a
653.0835	0.0745	1306167	keystroke	n	n/a
653.233	0.09	1306466	keystroke	e	n/a
653.488	0.105	1306976	keystroke	s	n/a
653.818	0.06	1307636	keystroke	Key.enter	n/a
653.8835	9.672	1307767	prompt	n/a	amazing little listprice deutsch\n
654.508	0.135	1309016	keystroke	a	n/a
654.703	0.09	1309406	keystroke	m	n/a
655.048	0.015	1310096	keystroke	a	n/a
655.198	0.135	1310396	keystroke	z	n/a
655.378	0.21	1310756	keystroke	i	n/a
655.468	0.18	1310936	keystroke	n	n/a
655.619	0.1635	1311238	keystroke	g	n/a
655.7375	0.135	1311475	keystroke	Key.space	n/a
655.948	0.09	1311896	keystroke	l	n/a
656.113	0.09	1312226	keystroke	i	n/a
656.3835	0.075	1312767	keystroke	t	n/a
656.548	0.1055	1313096	keystroke	t	n/a
656.743	0.12	1313486	keystroke	l	n/a
656.878	0.12	1313756	keystroke	e	n/a
656.968	0.135	1313936	keystroke	Key.space	n/a
657.5235	0.09	1315047	keystroke	l	n/a
657.7185	0.09	1315437	keystroke	i	n/a
657.9135	0.12	1315827	keystroke	s	n/a
658.993	0.105	1317986	keystroke	t	n/a
659.563	0.12	1319126	keystroke	p	n/a
659.698	0.12	1319396	keystroke	r	n/a
659.833	0.105	1319666	keystroke	i	n/a
660.043	0.15	1320086	keystroke	c	n/a
660.148	0.195	1320296	keystroke	e	n/a
660.298	0.15	1320596	keystroke	Key.space	n/a
660.688	0.09	1321376	keystroke	d	n/a
660.883	0.105	1321766	keystroke	e	n/a
661.483	0.12	1322966	keystroke	u	n/a
661.843	0.12	1323686	keystroke	t	n/a
662.818	0.075	1325636	keystroke	s	n/a
663.058	0.135	1326116	keystroke	c	n/a
663.178	0.075	1326356	keystroke	h	n/a
663.478	0.0745	1326956	keystroke	Key.enter	n/a
663.5605	6.849	1327121	prompt	n/a	austin airplane resorts proof\n
664.183	0.136	1328366	keystroke	a	n/a
664.483	0.105	1328966	keystroke	u	n/a
664.648	0.12	1329296	keystroke	s	n/a
664.903	0.1045	1329806	keystroke	t	n/a
665.0525	0.195	1330105	keystroke	i	n/a
665.1725	0.15	1330345	keystroke	n	n/a
665.3825	0.135	1330765	keystroke	Key.space	n/a
665.6075	0.165	1331215	keystroke	a	n/a
665.7275	0.091	1331455	keystroke	i	n/a
665.8935	0.1345	1331787	keystroke	r	n/a
666.1625	0.075	1332325	keystroke	p	n/a
666.343	0.1195	1332686	keystroke	l	n/a
666.7485	0.119	1333497	keystroke	a	n/a
666.9285	0.104	1333857	keystroke	n	n/a
667.1085	0.149	1334217	keystroke	e	n/a
667.2725	0.135	1334545	keystroke	Key.space	n/a
667.5435	0.135	1335087	keystroke	r	n/a
667.6625	0.181	1335325	keystroke	e	n/a
668.0225	0.136	1336045	keystroke	s	n/a
668.353	0.12	1336706	keystroke	o	n/a
668.563	0.105	1337126	keystroke	r	n/a
668.758	0.105	1337516	keystroke	t	n/a
668.938	0.195	1337876	keystroke	s	n/a
669.118	0.135	1338236	keystroke	Key.space	n/a
669.343	0.106	1338686	keystroke	p	n/a
669.493	0.1345	1338986	keystroke	r	n/a
669.733	0.075	1339466	keystroke	o	n/a
669.8675	0.1055	1339735	keystroke	o	n/a
670.0325	0.1355	1340065	keystroke	f	n/a
670.318	0.09	1340636	keystroke	Key.enter	n/a
670.4135	8.441	1340827	prompt	n/a	competent personal booty drivers\n
671.188	0.105	1342376	keystroke	c	n/a
671.278	0.12	1342556	keystroke	o	n/a
671.503	0.105	1343006	keystroke	m	n/a
672.4485	0.105	1344897	keystroke	p	n/a
672.7185	0.09	1345437	keystroke	e	n/a
673.0635	0.075	1346127	keystroke	t	n/a
673.2735	0.105	1346547	keystroke	e	n/a
673.4085	0.105	1346817	keystroke	n	n/a
673.6035	0.18	1347207	keystroke	t	n/a
673.8125	0.151	1347625	keystroke	Key.space	n/a
674.1585	0.015	1348317	keystroke	p	n/a
674.2175	0.211	1348435	keystroke	e	n/a
674.3535	0.12	1348707	keystroke	r	n/a
674.6085	0.135	1349217	keystroke	s	n/a
674.7585	0.135	1349517	keystroke	o	n/a
674.8335	0.135	1349667	keystroke	n	n/a
674.9835	0.1345	1349967	keystroke	a	n/a
675.148	0.12	1350296	keystroke	l	n/a
675.3125	0.105	1350625	keystroke	Key.space	n/a
675.5075	0.09	1351015	keystroke	b	n/a
675.7325	0.09	1351465	keystroke	o	n/a
675.8985	0.074	1351797	keystroke	o	n/a
676.453	0.15	1352906	keystroke	t	n/a
676.678	0.09	1353356	keystroke	y	n/a
677.143	0.135	1354286	keystroke	Key.space	n/a
677.548	0.09	1355096	keystroke	d	n/a
677.7725	0.09	1355545	keystroke	r	n/a
677.9675	0.12	1355935	keystroke	i	n/a
678.1775	0.15	1356355	keystroke	v	n/a
678.2825	0.166	1356565	keystroke	e	n/a
678.3735	0.12	1356747	keystroke	r	n/a
678.5835	0.135	1357167	keystroke	s	n/a
678.7785	0.075	1357557	keystroke	Key.enter	n/a
678.8575	7.197	1357715	prompt	n/a	scratch tennis whole scale\n
679.663	0.195	1359326	keystroke	s	n/a
680.248	0.105	1360496	keystroke	c	n/a
680.503	0.09	1361006	keystroke	r	n/a
680.818	0.105	1361636	keystroke	a	n/a
681.058	0.06	1362116	keystroke	t	n/a
681.313	0.18	1362626	keystroke	c	n/a
681.478	0.09	1362956	keystroke	h	n/a
681.583	0.12	1363166	keystroke	Key.space	n/a
681.838	0.105	1363676	keystroke	t	n/a
682.018	0.12	1364036	keystroke	e	n/a
682.258	0.06	1364516	keystroke	n	n/a
682.393	0.075	1364786	keystroke	n	n/a
682.588	0.105	1365176	keystroke	i	n/a
682.753	0.135	1365506	keystroke	s	n/a
682.873	0.12	1365746	keystroke	Key.space	n/a
683.083	0.135	1366166	keystroke	w	n/a
683.233	0.105	1366466	keystroke	h	n/a
684.0285	0.045	1368057	keystroke	o	n/a
684.2675	0.076	1368535	keystroke	l	n/a
684.4625	0.12	1368925	keystroke	e	n/a
684.5975	0.1505	1369195	keystroke	Key.space	n/a
685.063	0.075	1370126	keystroke	s	n/a
685.2885	0.12	1370577	keystroke	c	n/a
685.4535	0.12	1370907	keystroke	a	n/a
685.6185	0.09	1371237	keystroke	l	n/a
685.7235	0.12	1371447	keystroke	e	n/a
685.993	0.06	1371986	keystroke	Key.enter	n/a
686.0575	7.242	1372115	prompt	n/a	helmet voices civic temperatures\n
686.8185	0.105	1373637	keystroke	h	n/a
686.9385	0.119	1373877	keystroke	e	n/a
687.1185	0.105	1374237	keystroke	l	n/a
687.3735	0.09	1374747	keystroke	m	n/a
687.5075	0.106	1375015	keystroke	e	n/a
687.6885	0.135	1375377	keystroke	t	n/a
687.8685	0.1495	1375737	keystroke	Key.space	n/a
688.138	0.12	1376276	keystroke	v	n/a
688.259	0.119	1376518	keystroke	o	n/a
688.438	0.105	1376876	keystroke	i	n/a
688.663	0.135	1377326	keystroke	c	n/a
688.828	0.1645	1377656	keystroke	e	n/a
689.0075	0.151	1378015	keystroke	s	n/a
689.1425	0.165	1378285	keystroke	Key.space	n/a
689.5025	0.195	1379005	keystroke	c	n/a
689.6375	0.091	1379275	keystroke	i	n/a
689.8035	0.12	1379607	keystroke	v	n/a
689.9375	0.091	1379875	keystroke	i	n/a
690.1035	0.164	1380207	keystroke	c	n/a
690.2975	0.12	1380595	keystroke	Key.space	n/a
690.7775	0.105	1381555	keystroke	t	n/a
690.8535	0.18	1381707	keystroke	e	n/a
691.1075	0.09	1382215	keystroke	m	n/a
691.3475	0.09	1382695	keystroke	p	n/a
691.678	0.15	1383356	keystroke	e	n/a
691.933	0.105	1383866	keystroke	r	n/a
692.113	0.1495	1384226	keystroke	a	n/a
692.2775	0.105	1384555	keystroke	t	n/a
692.4425	0.105	1384885	keystroke	u	n/a
692.6975	0.09	1385395	keystroke	r	n/a
692.7425	0.165	1385485	keystroke	e	n/a
692.9675	0.15	1385935	keystroke	s	n/a
693.2225	0.075	1386445	keystroke	Key.enter	n/a
693.3025	11.667	1386605	prompt	n/a	organisms investing trigger madagascar\n
694.1085	0.135	1388217	keystroke	o	n/a
694.2285	0.15	1388457	keystroke	r	n/a
694.558	0.15	1389116	keystroke	g	n/a
694.768	0.105	1389536	keystroke	a	n/a
695.278	0.105	1390556	keystroke	n	n/a
695.6535	0.105	1391307	keystroke	i	n/a
695.908	0.12	1391816	keystroke	s	n/a
696.448	0.09	1392896	keystroke	m	n/a
696.763	0.12	1393526	keystroke	s	n/a
696.928	0.15	1393856	keystroke	Key.space	n/a
697.3035	0.12	1394607	keystroke	i	n/a
697.5435	0.105	1395087	keystroke	n	n/a
697.7535	0.0895	1395507	keystroke	v	n/a
697.963	0.1795	1395926	keystroke	e	n/a
698.1575	0.105	1396315	keystroke	s	n/a
698.3385	0.104	1396677	keystroke	t	n/a
698.4725	0.195	1396945	keystroke	i	n/a
698.5475	0.181	1397095	keystroke	n	n/a
698.6525	0.151	1397305	keystroke	g	n/a
698.7725	0.135	1397545	keystroke	Key.space	n/a
699.0435	0.09	1398087	keystroke	t	n/a
699.1935	0.1495	1398387	keystroke	r	n/a
699.388	0.09	1398776	keystroke	i	n/a
699.5835	0.09	1399167	keystroke	g	n/a
699.7635	0.09	1399527	keystroke	g	n/a
699.943	0.195	1399886	keystroke	e	n/a
700.048	0.195	1400096	keystroke	r	n/a
700.228	0.135	1400456	keystroke	Key.space	n/a
700.633	0.075	1401266	keystroke	m	n/a
700.753	0.135	1401506	keystroke	a	n/a
700.933	0.1205	1401866	keystroke	d	n/a
701.2775	0.1355	1402555	keystroke	a	n/a
702.238	0.15	1404476	keystroke	g	n/a
702.463	0.15	1404926	keystroke	a	n/a
702.973	0.165	1405946	keystroke	s	n/a
703.3475	0.12	1406695	keystroke	c	n/a
704.3675	0.135	1408735	keystroke	a	n/a
704.608	0.09	1409216	keystroke	r	n/a
704.8785	0.09	1409757	keystroke	Key.enter	n/a
704.9725	9.477	1409945	prompt	n/a	providers petition aerial institutions\n
705.8835	0.09	1411767	keystroke	p	n/a
705.9735	0.135	1411947	keystroke	r	n/a
706.1235	0.12	1412247	keystroke	o	n/a
706.3185	0.12	1412637	keystroke	d	n/a
706.5585	0.075	1413117	keystroke	i	n/a
706.9335	0.06	1413867	keystroke	Key.backspace	n/a
707.068	0.09	1414136	keystroke	Key.backspace	n/a
707.203	0.1505	1414406	keystroke	v	n/a
707.3835	0.105	1414767	keystroke	i	n/a
707.5635	0.09	1415127	keystroke	d	n/a
707.773	0.225	1415546	keystroke	e	n/a
707.878	0.18	1415756	keystroke	r	n/a
708.073	0.165	1416146	keystroke	s	n/a
708.208	0.165	1416416	keystroke	Key.space	n/a
708.583	0.09	1417166	keystroke	p	n/a
708.733	0.12	1417466	keystroke	e	n/a
709.0625	0.075	1418125	keystroke	t	n/a
709.1835	0.1045	1418367	keystroke	i	n/a
709.363	0.105	1418726	keystroke	t	n/a
709.513	0.225	1419026	keystroke	i	n/a
709.603	0.12	1419206	keystroke	o	n/a
709.663	0.18	1419326	keystroke	n	n/a
709.828	0.1205	1419656	keystroke	Key.space	n/a
710.0085	0.165	1420017	keystroke	a	n/a
710.2935	0.135	1420587	keystroke	e	n/a
710.5185	0.09	1421037	keystroke	r	n/a
710.6385	0.12	1421277	keystroke	i	n/a
710.8335	0.165	1421667	keystroke	a	n/a
711.0435	0.105	1422087	keystroke	l	n/a
711.2085	0.1645	1422417	keystroke	Key.space	n/a
711.433	0.195	1422866	keystroke	i	n/a
711.538	0.165	1423076	keystroke	n	n/a
711.718	0.105	1423436	keystroke	s	n/a
712.018	0.1205	1424036	keystroke	t	n/a
712.2585	0.1045	1424517	keystroke	i	n/a
712.708	0.09	1425416	keystroke	t	n/a
712.873	0.09	1425746	keystroke	u	n/a
713.593	0.105	1427186	keystroke	t	n/a
713.788	0.24	1427576	keystroke	i	n/a
713.878	0.135	1427756	keystroke	o	n/a
713.938	0.165	1427876	keystroke	n	n/a
714.118	0.12	1428236	keystroke	s	n/a
714.3875	0.06	1428775	keystroke	Key.enter	n/a
714.4525	7.3325	1428905	prompt	n/a	catalogs assembly bell latin\n
715.5285	0.135	1431057	keystroke	c	n/a
715.6485	0.105	1431297	keystroke	a	n/a
716.293	0.09	1432586	keystroke	t	n/a
716.398	0.135	1432796	keystroke	a	n/a
716.593	0.09	1433186	keystroke	l	n/a
716.788	0.075	1433576	keystroke	o	n/a
716.938	0.12	1433876	keystroke	g	n/a
717.268	0.105	1434536	keystroke	Key.space	n/a
717.508	0.0755	1435016	keystroke	s	n/a
717.9135	0.075	1435827	keystroke	Key.backspace	n/a
718.0335	0.135	1436067	keystroke	a	n/a
718.2585	0.075	1436517	keystroke	s	n/a
718.4085	0.09	1436817	keystroke	s	n/a
718.5735	0.12	1437147	keystroke	e	n/a
718.7385	0.105	1437477	keystroke	m	n/a
719.038	0.075	1438076	keystroke	b	n/a
719.293	0.105	1438586	keystroke	l	n/a
719.533	0.12	1439066	keystroke	y	n/a
719.7435	0.12	1439487	keystroke	Key.space	n/a
720.088	0.09	1440176	keystroke	b	n/a
720.268	0.135	1440536	keystroke	e	n/a
720.448	0.045	1440896	keystroke	l	n/a
720.568	0.09	1441136	keystroke	l	n/a
720.733	0.12	1441466	keystroke	Key.space	n/a
720.883	0.09	1441766	keystroke	l	n/a
721.0185	0.12	1442037	keystroke	a	n/a
721.2285	0.0895	1442457	keystroke	t	n/a
721.348	0.18	1442696	keystroke	i	n/a
721.438	0.1355	1442876	keystroke	n	n/a
721.6935	0.09	1443387	keystroke	Key.enter	n/a
721.788	10.5565	1443576	prompt	n/a	median coleman antenna notebook\n
722.578	0.06	1445156	keystroke	m	n/a
722.698	0.09	1445396	keystroke	e	n/a
722.893	0.12	1445786	keystroke	d	n/a
722.998	0.105	1445996	keystroke	i	n/a
723.163	0.09	1446326	keystroke	a	n/a
723.4185	0.075	1446837	keystroke	n	n/a
723.6125	0.121	1447225	keystroke	Key.space	n/a
723.9285	0.1195	1447857	keystroke	c	n/a
724.0335	0.09	1448067	keystroke	o	n/a
724.2585	0.09	1448517	keystroke	l	n/a
724.3935	0.135	1448787	keystroke	e	n/a
724.5135	0.135	1449027	keystroke	Key.space	n/a
724.9785	0.06	1449957	keystroke	Key.backspace	n/a
725.2485	0.09	1450497	keystroke	m	n/a
725.413	0.135	1450826	keystroke	a	n/a
725.593	0.09	1451186	keystroke	n	n/a
725.833	0.135	1451666	keystroke	Key.space	n/a
726.238	0.135	1452476	keystroke	a	n/a
726.448	0.105	1452896	keystroke	n	n/a
726.778	0.105	1453556	keystroke	t	n/a
726.943	0.09	1453886	keystroke	e	n/a
727.153	0.075	1454306	keystroke	n	n/a
727.303	0.075	1454606	keystroke	n	n/a
727.483	0.135	1454966	keystroke	a	n/a
727.993	0.105	1455986	keystroke	Key.space	n/a
728.3085	0.15	1456617	keystroke	n	n/a
728.6085	0.075	1457217	keystroke	e	n/a
729.0575	0.091	1458115	keystroke	t	n/a
729.493	0.075	1458986	keystroke	Key.backspace	n/a
729.6275	0.0755	1459255	keystroke	Key.backspace	n/a
729.8685	0.1045	1459737	keystroke	o	n/a
730.048	0.12	1460096	keystroke	t	n/a
730.123	0.165	1460246	keystroke	e	n/a
730.708	0.121	1461416	keystroke	b	n/a
730.738	0.06	1461476	keystroke	v	n/a
731.323	0.045	1462646	keystroke	Key.backspace	n/a
731.6375	0.076	1463275	keystroke	o	n/a
731.788	0.075	1463576	keystroke	o	n/a
731.998	0.075	1463996	keystroke	k	n/a
732.268	0.0755	1464536	keystroke	Key.enter	n/a
732.3475	7.9625	1464695	prompt	n/a	magazines hotels outlets slots\n
733.078	0.075	1466156	keystroke	m	n/a
733.183	0.1205	1466366	keystroke	a	n/a
733.4225	0.06	1466845	keystroke	a	n/a
733.8875	0.06	1467775	keystroke	Key.backspace	n/a
734.0085	0.135	1468017	keystroke	g	n/a
734.1575	0.12	1468315	keystroke	a	n/a
734.7575	0.12	1469515	keystroke	z	n/a
734.9225	0.255	1469845	keystroke	i	n/a
735.0735	0.134	1470147	keystroke	n	n/a
735.1625	0.181	1470325	keystroke	e	n/a
735.3585	0.24	1470717	keystroke	s	n/a
735.7775	0.12	1471555	keystroke	Key.space	n/a
736.2135	0.164	1472427	keystroke	h	n/a
736.3485	0.1195	1472697	keystroke	o	n/a
736.513	0.151	1473026	keystroke	t	n/a
736.648	0.15	1473296	keystroke	e	n/a
736.8285	0.12	1473657	keystroke	l	n/a
736.9635	0.165	1473927	keystroke	s	n/a
737.1135	0.135	1474227	keystroke	Key.space	n/a
737.6235	0.255	1475247	keystroke	o	n/a
737.7585	0.135	1475517	keystroke	u	n/a
737.9085	0.105	1475817	keystroke	t	n/a
738.0885	0.12	1476177	keystroke	l	n/a
738.2685	0.12	1476537	keystroke	e	n/a
738.5685	0.105	1477137	keystroke	t	n/a
738.8085	0.12	1477617	keystroke	s	n/a
738.9735	0.135	1477947	keystroke	Key.space	n/a
739.3185	0.105	1478637	keystroke	s	n/a
739.4385	0.075	1478877	keystroke	l	n/a
739.6335	0.09	1479267	keystroke	o	n/a
739.8285	0.09	1479657	keystroke	t	n/a
739.9935	0.12	1479987	keystroke	s	n/a
740.2485	0.06	1480497	keystroke	Key.enter	n/a
740.314	7.3005	1480628	prompt	n/a	element teens aware person\n
741.0285	0.105	1482057	keystroke	e	n/a
741.1935	0.105	1482387	keystroke	l	n/a
741.3435	0.12	1482687	keystroke	e	n/a
741.5985	0.06	1483197	keystroke	m	n/a
741.7485	0.135	1483497	keystroke	e	n/a
742.0335	0.135	1484067	keystroke	t	n/a
742.5275	0.075	1485055	keystroke	Key.backspace	n/a
742.8285	0.09	1485657	keystroke	n	n/a
743.6385	0.135	1487277	keystroke	t	n/a
743.8635	0.09	1487727	keystroke	Key.space	n/a
744.0885	0.089	1488177	keystroke	t	n/a
744.2985	0.089	1488597	keystroke	e	n/a
744.4485	0.119	1488897	keystroke	e	n/a
