onset	duration	sample	value	key	prompt_text
13.2615	10.1825	26523	prompt	n/a	the quick brown fox jumps over a lazy dog\n
14.864	0.057	29728	keystroke_t	t	n/a
14.876	0.075	29752	keystroke_h	h	n/a
15.176	0.09	30352	keystroke_e	e	n/a
15.311	0.0755	30622	keystroke_Key.space	Key.space	n/a
15.5215	0.135	31043	keystroke_q	q	n/a
16.0915	0.105	32183	keystroke_u	u	n/a
16.1515	0.105	32303	keystroke_i	i	n/a
16.2865	0.0895	32573	keystroke_c	c	n/a
16.391	0.09	32782	keystroke_k	k	n/a
16.496	0.075	32992	keystroke_Key.space	Key.space	n/a
16.886	0.105	33772	keystroke_b	b	n/a
17.006	0.045	34012	keystroke_r	r	n/a
17.096	0.105	34192	keystroke_o	o	n/a
17.186	0.09	34372	keystroke_w	w	n/a
17.306	0.09	34612	keystroke_n	n	n/a
17.471	0.09	34942	keystroke_Key.space	Key.space	n/a
18.1315	0.06	36263	keystroke_f	f	n/a
18.1915	0.105	36383	keystroke_o	o	n/a
18.5965	0.075	37193	keystroke_x	x	n/a
18.6565	0.075	37313	keystroke_Key.space	Key.space	n/a
19.2865	0.06	38573	keystroke_j	j	n/a
19.4515	0.06	38903	keystroke_u	u	n/a
19.6915	0.09	39383	keystroke_m	m	n/a
19.7815	0.075	39563	keystroke_p	p	n/a
19.9165	0.12	39833	keystroke_s	s	n/a
20.0215	0.105	40043	keystroke_Key.space	Key.space	n/a
20.696	0.105	41392	keystroke_o	o	n/a
20.816	0.075	41632	keystroke_v	v	n/a
21.026	0.105	42052	keystroke_e	e	n/a
21.071	0.09	42142	keystroke_r	r	n/a
21.146	0.075	42292	keystroke_Key.space	Key.space	n/a
21.266	0.075	42532	keystroke_a	a	n/a
21.326	0.075	42652	keystroke_Key.space	Key.space	n/a
21.461	0.105	42922	keystroke_l	l	n/a
21.567	0.134	43134	keystroke_a	a	n/a
21.806	0.03	43612	keystroke_z	z	n/a
22.076	0.075	44152	keystroke_y	y	n/a
22.196	0.09	44392	keystroke_Key.space	Key.space	n/a
22.931	0.06	45862	keystroke_d	d	n/a
23.006	0.105	46012	keystroke_o	o	n/a
23.156	0.06	46312	keystroke_g	g	n/a
23.306	0.135	46612	keystroke_Key.enter	Key.enter	n/a
23.448	6.745	46896	prompt	n/a	there's tagged maintenance norm\n
24.1765	0.0895	48353	keystroke_t	t	n/a
24.2355	0.0755	48471	keystroke_h	h	n/a
24.431	0.09	48862	keystroke_e	e	n/a
24.506	0.1355	49012	keystroke_r	r	n/a
24.6265	0.06	49253	keystroke_e	e	n/a
25.0315	0.09	50063	keystroke_'	'	n/a
25.1815	0.09	50363	keystroke_s	s	n/a
25.3015	0.075	50603	keystroke_Key.space	Key.space	n/a
26.4265	0.09	52853	keystroke_t	t	n/a
26.5315	0.09	53063	keystroke_a	a	n/a
26.6965	0.075	53393	keystroke_g	g	n/a
26.8165	0.12	53633	keystroke_g	g	n/a
26.8615	0.1345	53723	keystroke_e	e	n/a
27.071	0.0895	54142	keystroke_d	d	n/a
27.1455	0.075	54291	keystroke_Key.space	Key.space	n/a
27.3265	0.0595	54653	keystroke_m	m	n/a
27.4015	0.0895	54803	keystroke_a	a	n/a
27.5365	0.12	55073	keystroke_i	i	n/a
27.581	0.0905	55162	keystroke_n	n	n/a
27.6865	0.0755	55373	keystroke_t	t	n/a
27.8505	0.076	55701	keystroke_e	e	n/a
27.9565	0.09	55913	keystroke_n	n	n/a
28.9915	0.09	57983	keystroke_a	a	n/a
29.0965	0.06	58193	keystroke_n	n	n/a
29.1715	0.12	58343	keystroke_c	c	n/a
29.2165	0.12	58433	keystroke_e	e	n/a
29.3815	0.09	58763	keystroke_Key.space	Key.space	n/a
29.6365	0.09	59273	keystroke_n	n	n/a
29.7115	0.105	59423	keystroke_o	o	n/a
29.7865	0.075	59573	keystroke_r	r	n/a
29.9215	0.075	59843	keystroke_m	m	n/a
30.0865	0.105	60173	keystroke_Key.enter	Key.enter	n/a
30.1965	12.6565	60393	prompt	n/a	core hazard microsoft taxation\n
30.9115	0.075	61823	keystroke_c	c	n/a
31.0015	0.0745	62003	keystroke_o	o	n/a
31.136	0.09	62272	keystroke_r	r	n/a
31.196	0.105	62392	keystroke_e	e	n/a
31.256	0.075	62512	keystroke_Key.space	Key.space	n/a
31.451	0.045	62902	keystroke_h	h	n/a
31.481	0.135	62962	keystroke_a	a	n/a
31.661	0.105	63322	keystroke_z	z	n/a
31.811	0.12	63622	keystroke_a	a	n/a
32.021	0.06	64042	keystroke_r	r	n/a
32.171	0.09	64342	keystroke_d	d	n/a
32.291	0.09	64582	keystroke_Key.space	Key.space	n/a
32.8315	0.09	65663	keystroke_m	m	n/a
33.0115	0.075	66023	keystroke_i	i	n/a
33.1315	0.075	66263	keystroke_s	s	n/a
33.2965	0.075	66593	keystroke_c	c	n/a
33.4465	0.075	66893	keystroke_r	r	n/a
33.5665	0.105	67133	keystroke_o	o	n/a
33.6865	0.075	67373	keystroke_s	s	n/a
33.7915	0.09	67583	keystroke_o	o	n/a
33.8815	0.06	67763	keystroke_f	f	n/a
34.0615	0.045	68123	keystroke_t	t	n/a
34.1215	0.09	68243	keystroke_Key.space	Key.space	n/a
34.466	0.075	68932	keystroke_t	t	n/a
34.646	0.12	69292	keystroke_a	a	n/a
35.036	0.075	70072	keystroke_x	x	n/a
35.171	0.12	70342	keystroke_a	a	n/a
35.531	0.045	71062	keystroke_c	c	n/a
38.4585	0.028	76917	keystroke_=	=	n/a
39.011	0.06	78022	keystroke_t	t	n/a
39.161	0.061	78322	keystroke_i	i	n/a
39.176	0.1055	78352	keystroke_o	o	n/a
39.4465	0.105	78893	keystroke_n	n	n/a
39.8365	0.06	79673	keystroke_Key.backspace	Key.backspace	n/a
39.9715	0.09	79943	keystroke_Key.backspace	Key.backspace	n/a
40.1215	0.06	80243	keystroke_Key.backspace	Key.backspace	n/a
40.256	0.06	80512	keystroke_Key.backspace	Key.backspace	n/a
40.436	0.06	80872	keystroke_Key.backspace	Key.backspace	n/a
40.6915	0.09	81383	keystroke_Key.backspace	Key.backspace	n/a
40.8565	0.09	81713	keystroke_Key.backspace	Key.backspace	n/a
41.6065	0.105	83213	keystroke_a	a	n/a
41.8015	0.075	83603	keystroke_t	t	n/a
42.0115	0.105	84023	keystroke_i	i	n/a
42.0415	0.105	84083	keystroke_o	o	n/a
42.2365	0.105	84473	keystroke_n	n	n/a
42.7615	0.09	85523	keystroke_Key.enter	Key.enter	n/a
42.856	9.447	85712	prompt	n/a	formats highest passion need\n
43.7665	0.075	87533	keystroke_f	f	n/a
43.8865	0.045	87773	keystroke_o	o	n/a
43.9015	0.015	87803	keystroke_i	i	n/a
43.9465	0.045	87893	keystroke_r	r	n/a
44.4265	0.06	88853	keystroke_Key.backspace	Key.backspace	n/a
45.0715	0.06	90143	keystroke_Key.backspace	Key.backspace	n/a
45.2965	0.06	90593	keystroke_r	r	n/a
45.4615	0.06	90923	keystroke_m	m	n/a
45.5365	0.075	91073	keystroke_a	a	n/a
45.671	0.075	91342	keystroke_t	t	n/a
45.911	0.09	91822	keystroke_s	s	n/a
46.1065	0.075	92213	keystroke_Key.space	Key.space	n/a
46.6315	0.075	93263	keystroke_h	h	n/a
46.7365	0.105	93473	keystroke_i	i	n/a
47.0215	0.045	94043	keystroke_g	g	n/a
47.1715	0.075	94343	keystroke_h	h	n/a
47.2615	0.12	94523	keystroke_e	e	n/a
47.3665	0.045	94733	keystroke_r	r	n/a
47.5015	0.135	95003	keystroke_s	s	n/a
47.6215	0.075	95243	keystroke_t	t	n/a
48.0265	0.03	96053	keystroke_Key.backspace	Key.backspace	n/a
48.1765	0.045	96353	keystroke_Key.backspace	Key.backspace	n/a
48.3415	0.015	96683	keystroke_Key.backspace	Key.backspace	n/a
48.776	0.015	97552	keystroke_s	s	n/a
49.3015	0.075	98603	keystroke_Key.backspace	Key.backspace	n/a
49.9015	0.12	99803	keystroke_s	s	n/a
50.0065	0.075	100013	keystroke_t	t	n/a
50.186	0.09	100372	keystroke_Key.space	Key.space	n/a
50.561	0.1055	101122	keystroke_p	p	n/a
50.6365	0.1345	101273	keystroke_a	a	n/a
50.6965	0.1195	101393	keystroke_s	s	n/a
50.831	0.12	101662	keystroke_s	s	n/a
50.967	0.089	101934	keystroke_i	i	n/a
51.041	0.09	102082	keystroke_o	o	n/a
51.206	0.09	102412	keystroke_n	n	n/a
51.326	0.105	102652	keystroke_Key.space	Key.space	n/a
51.776	0.06	103552	keystroke_n	n	n/a
51.821	0.075	103642	keystroke_e	e	n/a
51.941	0.09	103882	keystroke_e	e	n/a
52.106	0.075	104212	keystroke_d	d	n/a
52.226	0.075	104452	keystroke_Key.enter	Key.enter	n/a
52.3145	8.8085	104629	prompt	n/a	physiology competitors retired flavor\n
53.4415	0.075	106883	keystroke_p	p	n/a
53.6515	0.06	107303	keystroke_h	h	n/a
53.8315	0.045	107663	keystroke_y	y	n/a
53.922	0.104	107844	keystroke_s	s	n/a
54.131	0.09	108262	keystroke_i	i	n/a
54.192	0.149	108384	keystroke_o	o	n/a
54.596	0.105	109192	keystroke_l	l	n/a
55.181	0.06	110362	keystroke_o	o	n/a
55.931	0.06	111862	keystroke_g	g	n/a
56.111	0.045	112222	keystroke_y	y	n/a
56.186	0.105	112372	keystroke_Key.space	Key.space	n/a
56.7715	0.075	113543	keystroke_c	c	n/a
56.8165	0.12	113633	keystroke_o	o	n/a
56.9215	0.0745	113843	keystroke_m	m	n/a
57.056	0.075	114112	keystroke_p	p	n/a
57.206	0.105	114412	keystroke_e	e	n/a
57.792	0.074	115584	keystroke_t	t	n/a
57.896	0.1055	115792	keystroke_i	i	n/a
58.0015	0.075	116003	keystroke_t	t	n/a
58.2265	0.09	116453	keystroke_o	o	n/a
58.3615	0.075	116723	keystroke_r	r	n/a
58.5565	0.09	117113	keystroke_s	s	n/a
58.6765	0.09	117353	keystroke_Key.space	Key.space	n/a
59.051	0.135	118102	keystroke_r	r	n/a
59.126	0.09	118252	keystroke_e	e	n/a
59.276	0.105	118552	keystroke_t	t	n/a
59.382	0.059	118764	keystroke_i	i	n/a
59.471	0.12	118942	keystroke_r	r	n/a
59.531	0.105	119062	keystroke_e	e	n/a
59.7115	0.105	119423	keystroke_d	d	n/a
59.8315	0.075	119663	keystroke_Key.space	Key.space	n/a
60.2665	0.075	120533	keystroke_f	f	n/a
60.3565	0.09	120713	keystroke_l	l	n/a
60.4765	0.09	120953	keystroke_a	a	n/a
60.6565	0.06	121313	keystroke_v	v	n/a
60.7315	0.09	121463	keystroke_o	o	n/a
60.8515	0.06	121703	keystroke_r	r	n/a
61.0165	0.105	122033	keystroke_Key.enter	Key.enter	n/a
61.127	7.796	122254	prompt	n/a	disturbed prove personality investors\n
62.186	0.075	124372	keystroke_d	d	n/a
62.246	0.075	124492	keystroke_i	i	n/a
62.336	0.075	124672	keystroke_s	s	n/a
62.531	0.1055	125062	keystroke_t	t	n/a
63.0415	0.075	126083	keystroke_u	u	n/a
63.1315	0.075	126263	keystroke_r	r	n/a
63.2515	0.0745	126503	keystroke_b	b	n/a
63.386	0.09	126772	keystroke_e	e	n/a
63.567	0.074	127134	keystroke_d	d	n/a
63.671	0.09	127342	keystroke_Key.space	Key.space	n/a
63.9565	0.075	127913	keystroke_p	p	n/a
64.0165	0.075	128033	keystroke_r	r	n/a
64.1815	0.075	128363	keystroke_o	o	n/a
64.2415	0.105	128483	keystroke_v	v	n/a
64.3315	0.105	128663	keystroke_e	e	n/a
64.4215	0.075	128843	keystroke_Key.space	Key.space	n/a
65.021	0.09	130042	keystroke_p	p	n/a
65.096	0.09	130192	keystroke_e	e	n/a
65.141	0.105	130282	keystroke_r	r	n/a
65.276	0.105	130552	keystroke_s	s	n/a
65.336	0.121	130672	keystroke_o	o	n/a
65.411	0.12	130822	keystroke_n	n	n/a
65.501	0.075	131002	keystroke_a	a	n/a
65.621	0.075	131242	keystroke_l	l	n/a
66.1465	0.105	132293	keystroke_i	i	n/a
66.2815	0.165	132563	keystroke_t	t	n/a
66.3865	0.105	132773	keystroke_y	y	n/a
66.5215	0.0895	133043	keystroke_Key.space	Key.space	n/a
67.241	0.165	134482	keystroke_i	i	n/a
67.3315	0.1045	134663	keystroke_n	n	n/a
67.421	0.105	134842	keystroke_v	v	n/a
67.511	0.075	135022	keystroke_e	e	n/a
67.706	0.105	135412	keystroke_s	s	n/a
67.9315	0.075	135863	keystroke_t	t	n/a
68.0965	0.104	136193	keystroke_o	o	n/a
68.1855	0.09	136371	keystroke_r	r	n/a
68.3205	0.136	136641	keystroke_s	s	n/a
68.4715	0.06	136943	keystroke_Key.space	Key.space	n/a
68.801	0.1195	137602	keystroke_Key.enter	Key.enter	n/a
68.928	4.3145	137856	prompt	n/a	india contests arcade i\n
69.761	0.075	139522	keystroke_i	i	n/a
69.7905	0.105	139581	keystroke_n	n	n/a
69.8655	0.09	139731	keystroke_d	d	n/a
69.9565	0.089	139913	keystroke_i	i	n/a
70.0755	0.1055	140151	keystroke_a	a	n/a
70.2105	0.1055	140421	keystroke_Key.space	Key.space	n/a
70.6165	0.075	141233	keystroke_c	c	n/a
70.6615	0.135	141323	keystroke_o	o	n/a
70.7215	0.119	141443	keystroke_n	n	n/a
70.8565	0.105	141713	keystroke_t	t	n/a
70.9465	0.0745	141893	keystroke_e	e	n/a
71.201	0.03	142402	keystroke_s	s	n/a
71.216	0.075	142432	keystroke_t	t	n/a
71.351	0.15	142702	keystroke_s	s	n/a
71.546	0.105	143092	keystroke_Key.space	Key.space	n/a
71.951	0.045	143902	keystroke_a	a	n/a
72.026	0.0755	144052	keystroke_r	r	n/a
72.2515	0.09	144503	keystroke_c	c	n/a
72.3565	0.075	144713	keystroke_a	a	n/a
72.7315	0.075	145463	keystroke_d	d	n/a
72.9555	0.015	145911	keystroke_e	e	n/a
73.1665	0.074	146333	keystroke_Key.enter	Key.enter	n/a
73.2505	12.6375	146501	prompt	n/a	mathematical registrar wrong holland\n
73.901	0.09	147802	keystroke_m	m	n/a
74.066	0.075	148132	keystroke_a	a	n/a
74.336	0.09	148672	keystroke_t	t	n/a
74.3815	0.0895	148763	keystroke_h	h	n/a
74.5605	0.06	149121	keystroke_e	e	n/a
74.6355	0.1655	149271	keystroke_m	m	n/a
74.816	0.03	149632	keystroke_a	a	n/a
74.891	0.075	149782	keystroke_t	t	n/a
75.041	0.09	150082	keystroke_i	i	n/a
75.176	0.105	150352	keystroke_c	c	n/a
75.251	0.12	150502	keystroke_a	a	n/a
75.356	0.075	150712	keystroke_l	l	n/a
75.446	0.06	150892	keystroke_Key.space	Key.space	n/a
75.701	0.075	151402	keystroke_r	r	n/a
75.746	0.09	151492	keystroke_e	e	n/a
76.091	0.06	152182	keystroke_g	g	n/a
76.226	0.09	152452	keystroke_i	i	n/a
76.331	0.075	152662	keystroke_s	s	n/a
76.496	0.09	152992	keystroke_t	t	n/a
76.736	0.09	153472	keystroke_a	a	n/a
77.651	0.075	155302	keystroke_Key.backspace	Key.backspace	n/a
77.816	0.06	155632	keystroke_Key.backspace	Key.backspace	n/a
77.876	0.105	155752	keystroke_r	r	n/a
77.951	0.09	155902	keystroke_a	a	n/a
78.491	0.09	156982	keystroke_r	r	n/a
78.641	0.09	157282	keystroke_Key.space	Key.space	n/a
80.6955	0.09	161391	keystroke_Key.backspace	Key.backspace	n/a
80.891	0.06	161782	keystroke_Key.backspace	Key.backspace	n/a
81.041	0.06	162082	keystroke_Key.backspace	Key.backspace	n/a
81.386	0.06	162772	keystroke_Key.backspace	Key.backspace	n/a
82.196	0.075	164392	keystroke_t	t	n/a
82.421	0.075	164842	keystroke_r	r	n/a
82.631	0.165	165262	keystroke_a	a	n/a
82.781	0.03	165562	keystroke_r	r	n/a
82.931	0.09	165862	keystroke_Key.space	Key.space	n/a
83.516	0.09	167032	keystroke_w	w	n/a
83.561	0.075	167122	keystroke_r	r	n/a
83.711	0.135	167422	keystroke_o	o	n/a
83.786	0.075	167572	keystroke_n	n	n/a
83.831	0.045	167662	keystroke_g	g	n/a
84.281	0.09	168562	keystroke_Key.space	Key.space	n/a
84.9265	0.06	169853	keystroke_h	h	n/a
85.0465	0.06	170093	keystroke_o	o	n/a
85.2115	0.045	170423	keystroke_l	l	n/a
85.3315	0.075	170663	keystroke_l	l	n/a
85.4365	0.075	170873	keystroke_a	a	n/a
85.5415	0.105	171083	keystroke_n	n	n/a
85.6315	0.0595	171263	keystroke_d	d	n/a
85.781	0.105	171562	keystroke_Key.enter	Key.enter	n/a
85.891	7.9465	171782	prompt	n/a	drain hawaiian premier keeping\n
86.7415	0.0595	173483	keystroke_f	f	n/a
87.116	0.0745	174232	keystroke_Key.backspace	Key.backspace	n/a
87.2055	0.075	174411	keystroke_d	d	n/a
87.3705	0.105	174741	keystroke_r	r	n/a
87.4605	0.06	174921	keystroke_a	a	n/a
87.5655	0.135	175131	keystroke_i	i	n/a
87.6555	0.09	175311	keystroke_n	n	n/a
87.7605	0.075	175521	keystroke_Key.space	Key.space	n/a
88.436	0.06	176872	keystroke_h	h	n/a
88.541	0.105	177082	keystroke_a	a	n/a
88.736	0.075	177472	keystroke_w	w	n/a
88.916	0.075	177832	keystroke_a	a	n/a
90.311	0.06	180622	keystroke_i	i	n/a
90.4315	0.075	180863	keystroke_i	i	n/a
90.6565	0.105	181313	keystroke_a	a	n/a
90.9715	0.0895	181943	keystroke_n	n	n/a
91.106	0.075	182212	keystroke_Key.space	Key.space	n/a
91.3615	0.09	182723	keystroke_p	p	n/a
91.6165	0.09	183233	keystroke_r	r	n/a
91.7665	0.105	183533	keystroke_e	e	n/a
91.8865	0.09	183773	keystroke_m	m	n/a
92.2165	0.09	184433	keystroke_i	i	n/a
92.5015	0.105	185003	keystroke_e	e	n/a
92.5615	0.075	185123	keystroke_r	r	n/a
92.6215	0.089	185243	keystroke_Key.space	Key.space	n/a
92.8755	0.076	185751	keystroke_k	k	n/a
93.0105	0.061	186021	keystroke_e	e	n/a
93.1165	0.12	186233	keystroke_e	e	n/a
93.2215	0.09	186443	keystroke_p	p	n/a
93.4465	0.09	186893	keystroke_i	i	n/a
93.4755	0.1055	186951	keystroke_n	n	n/a
93.5505	0.075	187101	keystroke_g	g	n/a
93.7455	0.0905	187491	keystroke_Key.enter	Key.enter	n/a
93.841	10.9465	187682	prompt	n/a	wines extremely surprising imaging\n
94.781	0.09	189562	keystroke_w	w	n/a
94.856	0.12	189712	keystroke_i	i	n/a
94.931	0.09	189862	keystroke_n	n	n/a
95.036	0.12	190072	keystroke_e	e	n/a
95.081	0.135	190162	keystroke_s	s	n/a
95.231	0.09	190462	keystroke_Key.space	Key.space	n/a
95.546	0.075	191092	keystroke_e	e	n/a
96.041	0.075	192082	keystroke_x	x	n/a
96.416	0.1195	192832	keystroke_t	t	n/a
96.446	0.1645	192892	keystroke_r	r	n/a
96.5505	0.1055	193101	keystroke_e	e	n/a
96.6255	0.0905	193251	keystroke_m	m	n/a
96.761	0.075	193522	keystroke_e	e	n/a
96.896	0.105	193792	keystroke_l	l	n/a
97.016	0.09	194032	keystroke_y	y	n/a
97.166	0.1045	194332	keystroke_Key.space	Key.space	n/a
97.8105	0.105	195621	keystroke_s	s	n/a
97.9455	0.045	195891	keystroke_u	u	n/a
98.456	0.09	196912	keystroke_r	r	n/a
99.611	0.075	199222	keystroke_i	i	n/a
99.716	0.0905	199432	keystroke_s	s	n/a
99.8665	0.15	199733	keystroke_i	i	n/a
99.9715	0.075	199943	keystroke_n	n	n/a
100.0765	0.075	200153	keystroke_g	g	n/a
100.2415	0.105	200483	keystroke_Key.space	Key.space	n/a
100.826	0.075	201652	keystroke_Key.backspace	Key.backspace	n/a
100.961	0.09	201922	keystroke_Key.backspace	Key.backspace	n/a
101.111	0.075	202222	keystroke_Key.backspace	Key.backspace	n/a
101.261	0.06	202522	keystroke_Key.backspace	Key.backspace	n/a
101.396	0.0905	202792	keystroke_Key.backspace	Key.backspace	n/a
101.6065	0.105	203213	keystroke_Key.backspace	Key.backspace	n/a
102.311	0.075	204622	keystroke_p	p	n/a
102.446	0.09	204892	keystroke_r	r	n/a
102.581	0.09	205162	keystroke_i	i	n/a
102.746	0.09	205492	keystroke_s	s	n/a
102.821	0.15	205642	keystroke_i	i	n/a
102.911	0.09	205822	keystroke_n	n	n/a
102.986	0.06	205972	keystroke_g	g	n/a
103.076	0.1045	206152	keystroke_Key.space	Key.space	n/a
103.376	0.12	206752	keystroke_i	i	n/a
103.4665	0.1045	206933	keystroke_m	m	n/a
103.631	0.12	207262	keystroke_a	a	n/a
104.3055	0.06	208611	keystroke_g	g	n/a
104.3805	0.121	208761	keystroke_i	i	n/a
104.4405	0.091	208881	keystroke_n	n	n/a
104.4865	0.06	208973	keystroke_g	g	n/a
104.666	0.1205	209332	keystroke_Key.enter	Key.enter	n/a
104.7925	12.28	209585	prompt	n/a	park sessions development sensor\n
105.416	0.105	210832	keystroke_p	p	n/a
105.506	0.105	211012	keystroke_a	a	n/a
105.656	0.0905	211312	keystroke_k	k	n/a
105.7615	0.06	211523	keystroke_r	r	n/a
105.8965	0.09	211793	keystroke_Key.space	Key.space	n/a
106.0465	0.075	212093	keystroke_s	s	n/a
106.2415	0.045	212483	keystroke_e	e	n/a
106.3915	0.075	212783	keystroke_s	s	n/a
106.4965	0.075	212993	keystroke_s	s	n/a
106.5565	0.12	213113	keystroke_i	i	n/a
106.6315	0.12	213263	keystroke_o	o	n/a
106.7665	0.09	213533	keystroke_n	n	n/a
106.9165	0.09	213833	keystroke_s	s	n/a
106.9915	0.075	213983	keystroke_Key.space	Key.space	n/a
107.9215	0.06	215843	keystroke_Key.backspace	Key.backspace	n/a
108.1015	0.06	216203	keystroke_Key.backspace	Key.backspace	n/a
108.2365	0.06	216473	keystroke_Key.backspace	Key.backspace	n/a
108.3715	0.06	216743	keystroke_Key.backspace	Key.backspace	n/a
108.5365	0.0595	217073	keystroke_Key.backspace	Key.backspace	n/a
108.686	0.075	217372	keystroke_Key.backspace	Key.backspace	n/a
108.821	0.09	217642	keystroke_Key.backspace	Key.backspace	n/a
108.986	0.075	217972	keystroke_Key.backspace	Key.backspace	n/a
109.136	0.075	218272	keystroke_Key.backspace	Key.backspace	n/a
109.2855	0.075	218571	keystroke_Key.backspace	Key.backspace	n/a
109.4205	0.075	218841	keystroke_Key.backspace	Key.backspace	n/a
109.5705	0.09	219141	keystroke_Key.backspace	Key.backspace	n/a
110.1855	0.075	220371	keystroke_r	r	n/a
110.2455	0.06	220491	keystroke_k	k	n/a
110.4255	0.075	220851	keystroke_Key.space	Key.space	n/a
110.5305	0.0755	221061	keystroke_s	s	n/a
110.726	0.06	221452	keystroke_e	e	n/a
110.876	0.06	221752	keystroke_s	s	n/a
110.996	0.075	221992	keystroke_s	s	n/a
111.071	0.105	222142	keystroke_i	i	n/a
111.161	0.15	222322	keystroke_o	o	n/a
111.266	0.09	222532	keystroke_n	n	n/a
111.326	0.09	222652	keystroke_s	s	n/a
111.431	0.0895	222862	keystroke_Key.space	Key.space	n/a
111.926	0.1205	223852	keystroke_d	d	n/a
112.0765	0.105	224153	keystroke_e	e	n/a
112.2715	0.075	224543	keystroke_e	e	n/a
112.3465	0.09	224693	keystroke_l	l	n/a
112.7365	0.075	225473	keystroke_Key.backspace	Key.backspace	n/a
112.871	0.075	225742	keystroke_Key.backspace	Key.backspace	n/a
113.006	0.105	226012	keystroke_v	v	n/a
113.081	0.12	226162	keystroke_e	e	n/a
113.396	0.09	226792	keystroke_l	l	n/a
113.546	0.09	227092	keystroke_e	e	n/a
114.1165	0.075	228233	keystroke_Key.backspace	Key.backspace	n/a
114.8815	0.075	229763	keystroke_o	o	n/a
114.8965	0.09	229793	keystroke_p	p	n/a
115.1065	0.09	230213	keystroke_m	m	n/a
115.1815	0.09	230363	keystroke_e	e	n/a
115.3015	0.075	230603	keystroke_n	n	n/a
115.3765	0.075	230753	keystroke_t	t	n/a
115.4965	0.0745	230993	keystroke_Key.space	Key.space	n/a
115.9765	0.075	231953	keystroke_s	s	n/a
116.1715	0.075	232343	keystroke_e	e	n/a
116.2615	0.09	232523	keystroke_n	n	n/a
116.5615	0.09	233123	keystroke_s	s	n/a
116.6665	0.09	233333	keystroke_o	o	n/a
116.7865	0.075	233573	keystroke_r	r	n/a
116.9665	0.1045	233933	keystroke_Key.enter	Key.enter	n/a
117.075	6.4775	234150	prompt	n/a	daughter persons males albert\n
118.0315	0.12	236063	keystroke_d	d	n/a
118.1065	0.135	236213	keystroke_a	a	n/a
118.2715	0.06	236543	keystroke_u	u	n/a
118.5715	0.06	237143	keystroke_g	g	n/a
118.6765	0.075	237353	keystroke_h	h	n/a
118.7815	0.0895	237563	keystroke_t	t	n/a
118.991	0.105	237982	keystroke_e	e	n/a
119.051	0.105	238102	keystroke_r	r	n/a
119.186	0.06	238372	keystroke_Key.space	Key.space	n/a
119.396	0.09	238792	keystroke_p	p	n/a
119.591	0.075	239182	keystroke_e	e	n/a
119.636	0.09	239272	keystroke_r	r	n/a
119.756	0.105	239512	keystroke_s	s	n/a
119.846	0.135	239692	keystroke_o	o	n/a
119.921	0.09	239842	keystroke_n	n	n/a
119.996	0.045	239992	keystroke_s	s	n/a
120.116	0.09	240232	keystroke_Key.space	Key.space	n/a
120.431	0.06	240862	keystroke_m	m	n/a
120.671	0.105	241342	keystroke_a	a	n/a
121.406	0.075	242812	keystroke_l	l	n/a
121.4965	0.075	242993	keystroke_e	e	n/a
121.6765	0.075	243353	keystroke_s	s	n/a
121.7355	0.091	243471	keystroke_Key.space	Key.space	n/a
121.8865	0.09	243773	keystroke_a	a	n/a
121.9915	0.075	243983	keystroke_l	l	n/a
122.1715	0.075	244343	keystroke_v	v	n/a
122.6355	0.0755	245271	keystroke_Key.backspace	Key.backspace	n/a
122.696	0.075	245392	keystroke_b	b	n/a
122.951	0.12	245902	keystroke_e	e	n/a
123.026	0.09	246052	keystroke_r	r	n/a
123.236	0.06	246472	keystroke_t	t	n/a
123.446	0.105	246892	keystroke_Key.enter	Key.enter	n/a
123.5555	6.012	247111	prompt	n/a	impossible tide shared icon\n
124.4065	0.105	248813	keystroke_i	i	n/a
124.4515	0.105	248903	keystroke_m	m	n/a
124.6315	0.105	249263	keystroke_p	p	n/a
124.7215	0.12	249443	keystroke_o	o	n/a
124.8565	0.105	249713	keystroke_s	s	n/a
125.0215	0.12	250043	keystroke_s	s	n/a
125.2015	0.105	250403	keystroke_i	i	n/a
125.2915	0.0745	250583	keystroke_b	b	n/a
125.501	0.09	251002	keystroke_l	l	n/a
125.606	0.09	251212	keystroke_e	e	n/a
125.711	0.09	251422	keystroke_Key.space	Key.space	n/a
126.1305	0.09	252261	keystroke_t	t	n/a
126.266	0.105	252532	keystroke_i	i	n/a
126.3865	0.1345	252773	keystroke_d	d	n/a
126.5815	0.105	253163	keystroke_e	e	n/a
126.701	0.09	253402	keystroke_Key.space	Key.space	n/a
127.6765	0.09	255353	keystroke_s	s	n/a
127.7815	0.075	255563	keystroke_h	h	n/a
127.8705	0.09	255741	keystroke_a	a	n/a
128.0515	0.119	256103	keystroke_r	r	n/a
128.1265	0.089	256253	keystroke_e	e	n/a
128.2915	0.105	256583	keystroke_d	d	n/a
128.3665	0.105	256733	keystroke_Key.space	Key.space	n/a
128.726	0.105	257452	keystroke_i	i	n/a
128.846	0.09	257692	keystroke_c	c	n/a
129.131	0.18	258262	keystroke_o	o	n/a
129.266	0.12	258532	keystroke_n	n	n/a
129.476	0.09	258952	keystroke_Key.enter	Key.enter	n/a
129.5705	9.297	259141	prompt	n/a	implemented disciplines bedrooms treo\n
130.4215	0.105	260843	keystroke_i	i	n/a
130.4815	0.09	260963	keystroke_m	m	n/a
130.6455	0.121	261291	keystroke_p	p	n/a
130.8255	0.076	261651	keystroke_e	e	n/a
131.1105	0.09	262221	keystroke_Key.backspace	Key.backspace	n/a
132.086	0.06	264172	keystroke_l	l	n/a
132.191	0.09	264382	keystroke_e	e	n/a
132.326	0.0755	264652	keystroke_m	m	n/a
132.3855	0.091	264771	keystroke_e	e	n/a
132.5215	0.105	265043	keystroke_n	n	n/a
132.6115	0.089	265223	keystroke_t	t	n/a
132.7015	0.074	265403	keystroke_e	e	n/a
132.8365	0.09	265673	keystroke_d	d	n/a
132.9405	0.09	265881	keystroke_Key.space	Key.space	n/a
133.346	0.075	266692	keystroke_d	d	n/a
133.451	0.09	266902	keystroke_i	i	n/a
133.556	0.075	267112	keystroke_s	s	n/a
133.751	0.075	267502	keystroke_c	c	n/a
133.946	0.105	267892	keystroke_i	i	n/a
134.351	0.1495	268702	keystroke_p	p	n/a
134.4705	0.105	268941	keystroke_l	l	n/a
134.741	0.105	269482	keystroke_i	i	n/a
134.801	0.09	269602	keystroke_n	n	n/a
134.861	0.09	269722	keystroke_e	e	n/a
135.011	0.105	270022	keystroke_s	s	n/a
135.086	0.09	270172	keystroke_Key.space	Key.space	n/a
135.281	0.105	270562	keystroke_d	d	n/a
135.641	0.06	271282	keystroke_Key.backspace	Key.backspace	n/a
135.926	0.075	271852	keystroke_b	b	n/a
136.016	0.06	272032	keystroke_e	e	n/a
136.181	0.075	272362	keystroke_d	d	n/a
136.571	0.075	273142	keystroke_r	r	n/a
136.7355	0.0755	273471	keystroke_o	o	n/a
136.916	0.03	273832	keystroke_o	o	n/a
137.187	0.074	274374	keystroke_m	m	n/a
137.276	0.09	274552	keystroke_s	s	n/a
137.381	0.09	274762	keystroke_Key.space	Key.space	n/a
138.0565	0.135	276113	keystroke_t	t	n/a
138.1015	0.18	276203	keystroke_r	r	n/a
138.2365	0.134	276473	keystroke_e	e	n/a
138.4165	0.09	276833	keystroke_o	o	n/a
138.761	0.105	277522	keystroke_Key.enter	Key.enter	n/a
138.871	7.0315	277742	prompt	n/a	arthur language tiles stainless\n
139.6905	0.09	279381	keystroke_a	a	n/a
139.8855	0.075	279771	keystroke_r	r	n/a
140.201	0.105	280402	keystroke_t	t	n/a
140.276	0.075	280552	keystroke_h	h	n/a
140.456	0.09	280912	keystroke_u	u	n/a
140.606	0.1055	281212	keystroke_r	r	n/a
140.7265	0.12	281453	keystroke_Key.space	Key.space	n/a
141.1015	0.09	282203	keystroke_l	l	n/a
141.1615	0.105	282323	keystroke_a	a	n/a
141.2965	0.09	282593	keystroke_n	n	n/a
141.596	0.06	283192	keystroke_g	g	n/a
141.686	0.09	283372	keystroke_u	u	n/a
141.791	0.09	283582	keystroke_a	a	n/a
142.091	0.075	284182	keystroke_g	g	n/a
142.196	0.105	284392	keystroke_e	e	n/a
142.361	0.075	284722	keystroke_Key.space	Key.space	n/a
143.3805	0.075	286761	keystroke_t	t	n/a
143.4705	0.075	286941	keystroke_i	i	n/a
143.7255	0.075	287451	keystroke_l	l	n/a
143.8305	0.135	287661	keystroke_e	e	n/a
143.9055	0.135	287811	keystroke_s	s	n/a
144.0555	0.12	288111	keystroke_Key.space	Key.space	n/a
144.611	0.09	289222	keystroke_s	s	n/a
144.761	0.09	289522	keystroke_t	t	n/a
144.866	0.09	289732	keystroke_a	a	n/a
144.986	0.105	289972	keystroke_i	i	n/a
145.046	0.09	290092	keystroke_n	n	n/a
145.271	0.075	290542	keystroke_l	l	n/a
145.391	0.06	290782	keystroke_e	e	n/a
145.601	0.0145	291202	keystroke_s	s	n/a
145.6755	0.09	291351	keystroke_s	s	n/a
145.7805	0.1205	291561	keystroke_Key.enter	Key.enter	n/a
145.906	8.2165	291812	prompt	n/a	photographer struggle maryland voice\n
146.7265	0.105	293453	keystroke_p	p	n/a
146.8465	0.075	293693	keystroke_h	h	n/a
147.026	0.105	294052	keystroke_o	o	n/a
147.146	0.075	294292	keystroke_t	t	n/a
147.251	0.09	294502	keystroke_o	o	n/a
147.446	0.105	294892	keystroke_g	g	n/a
147.6555	0.075	295311	keystroke_r	r	n/a
147.8655	0.06	295731	keystroke_a	a	n/a
147.9105	0.09	295821	keystroke_p	p	n/a
148.1655	0.075	296331	keystroke_h	h	n/a
148.301	0.105	296602	keystroke_e	e	n/a
148.346	0.105	296692	keystroke_r	r	n/a
148.511	0.12	297022	keystroke_Key.space	Key.space	n/a
148.751	0.0745	297502	keystroke_s	s	n/a
148.9905	0.09	297981	keystroke_t	t	n/a
149.036	0.1045	298072	keystroke_r	r	n/a
149.291	0.0745	298582	keystroke_g	g	n/a
149.6955	0.046	299391	keystroke_Key.backspace	Key.backspace	n/a
149.9815	0.104	299963	keystroke_u	u	n/a
150.0715	0.075	300143	keystroke_g	g	n/a
150.2205	0.091	300441	keystroke_g	g	n/a
150.3865	0.104	300773	keystroke_l	l	n/a
150.5055	0.09	301011	keystroke_e	e	n/a
150.6255	0.075	301251	keystroke_Key.space	Key.space	n/a
150.8955	0.09	301791	keystroke_m	m	n/a
151.0005	0.1355	302001	keystroke_a	a	n/a
151.121	0.15	302242	keystroke_r	r	n/a
151.4805	0.075	302961	keystroke_y	y	n/a
151.6455	0.075	303291	keystroke_l	l	n/a
151.7955	0.12	303591	keystroke_a	a	n/a
151.9305	0.075	303861	keystroke_n	n	n/a
152.0215	0.089	304043	keystroke_d	d	n/a
152.1255	0.075	304251	keystroke_Key.space	Key.space	n/a
152.696	0.075	305392	keystroke_v	v	n/a
152.786	0.12	305572	keystroke_o	o	n/a
152.846	0.075	305692	keystroke_i	i	n/a
152.891	0.12	305782	keystroke_c	c	n/a
152.966	0.09	305932	keystroke_e	e	n/a
154.031	0.09	308062	keystroke_Key.enter	Key.enter	n/a
154.125	7.6625	308250	prompt	n/a	rated partnerships assets april\n
154.8105	0.12	309621	keystroke_r	r	n/a
154.8855	0.135	309771	keystroke_a	a	n/a
155.0505	0.0895	310101	keystroke_t	t	n/a
155.1555	0.0755	310311	keystroke_e	e	n/a
155.3215	0.0585	310643	keystroke_d	d	n/a
155.41	0.0915	310820	keystroke_Key.space	Key.space	n/a
155.6815	0.0895	311363	keystroke_p	p	n/a
155.756	0.09	311512	keystroke_a	a	n/a
156.25	0.046	312500	keystroke_t	t	n/a
156.5805	0.105	313161	keystroke_Key.backspace	Key.backspace	n/a
156.6705	0.105	313341	keystroke_r	r	n/a
156.8965	0.074	313793	keystroke_t	t	n/a
157.3615	0.059	314723	keystroke_n	n	n/a
157.4365	0.089	314873	keystroke_e	e	n/a
157.5715	0.089	315143	keystroke_r	r	n/a
158.065	0.09	316130	keystroke_s	s	n/a
158.156	0.119	316312	keystroke_h	h	n/a
158.23	0.061	316460	keystroke_i	i	n/a
158.4405	0.075	316881	keystroke_p	p	n/a
158.5755	0.105	317151	keystroke_s	s	n/a
158.7115	0.059	317423	keystroke_Key.space	Key.space	n/a
159.0855	0.1205	318171	keystroke_a	a	n/a
159.1605	0.0605	318321	keystroke_s	s	n/a
159.296	0.0745	318592	keystroke_s	s	n/a
159.4905	0.075	318981	keystroke_e	e	n/a
159.7015	0.044	319403	keystroke_t	t	n/a
159.8355	0.105	319671	keystroke_s	s	n/a
159.9855	0.105	319971	keystroke_Key.space	Key.space	n/a
160.4205	0.09	320841	keystroke_a	a	n/a
160.691	0.09	321382	keystroke_p	p	n/a
160.811	0.075	321622	keystroke_r	r	n/a
160.961	0.06	321922	keystroke_i	i	n/a
161.201	0.06	322402	keystroke_l	l	n/a
161.696	0.09	323392	keystroke_Key.enter	Key.enter	n/a
161.7915	8.5605	323583	prompt	n/a	greensboro let's parallel market\n
162.6555	0.15	325311	keystroke_g	g	n/a
162.7155	0.135	325431	keystroke_r	r	n/a
162.9255	0.09	325851	keystroke_e	e	n/a
163.0755	0.105	326151	keystroke_e	e	n/a
163.1955	0.0905	326391	keystroke_n	n	n/a
163.316	0.105	326632	keystroke_s	s	n/a
163.631	0.06	327262	keystroke_b	b	n/a
163.796	0.105	327592	keystroke_o	o	n/a
163.886	0.075	327772	keystroke_r	r	n/a
163.991	0.105	327982	keystroke_o	o	n/a
164.216	0.09	328432	keystroke_Key.space	Key.space	n/a
164.396	0.105	328792	keystroke_l	l	n/a
164.486	0.0895	328972	keystroke_e	e	n/a
164.5905	0.0605	329181	keystroke_t	t	n/a
165.3855	0.075	330771	keystroke_'	'	n/a
165.4905	0.105	330981	keystroke_s	s	n/a
165.6855	0.06	331371	keystroke_Key.space	Key.space	n/a
166.8555	0.06	333711	keystroke_a	a	n/a
167.1705	0.12	334341	keystroke_Key.backspace	Key.backspace	n/a
167.4405	0.075	334881	keystroke_p	p	n/a
167.5755	0.105	335151	keystroke_a	a	n/a
167.6655	0.09	335331	keystroke_r	r	n/a
167.8005	0.075	335601	keystroke_a	a	n/a
167.8905	0.0755	335781	keystroke_l	l	n/a
168.416	0.075	336832	keystroke_l	l	n/a
168.521	0.09	337042	keystroke_e	e	n/a
168.656	0.09	337312	keystroke_l	l	n/a
169.121	0.09	338242	keystroke_Key.space	Key.space	n/a
169.5255	0.09	339051	keystroke_m	m	n/a
169.6165	0.089	339233	keystroke_a	a	n/a
169.7355	0.09	339471	keystroke_r	r	n/a
169.8705	0.12	339741	keystroke_k	k	n/a
170.0355	0.105	340071	keystroke_e	e	n/a
170.0955	0.09	340191	keystroke_t	t	n/a
170.2455	0.105	340491	keystroke_Key.enter	Key.enter	n/a
170.357	8.7555	340714	prompt	n/a	realtor serbia fashion utils\n
171.056	0.075	342112	keystroke_r	r	n/a
171.086	0.105	342172	keystroke_e	e	n/a
171.221	0.09	342442	keystroke_a	a	n/a
171.326	0.105	342652	keystroke_l	l	n/a
171.491	0.075	342982	keystroke_t	t	n/a
171.626	0.105	343252	keystroke_o	o	n/a
171.761	0.09	343522	keystroke_r	r	n/a
171.881	0.105	343762	keystroke_Key.space	Key.space	n/a
172.466	0.09	344932	keystroke_s	s	n/a
172.691	0.105	345382	keystroke_e	e	n/a
172.766	0.0745	345532	keystroke_r	r	n/a
173.0205	0.12	346041	keystroke_b	b	n/a
173.1255	0.09	346251	keystroke_i	i	n/a
173.2605	0.105	346521	keystroke_a	a	n/a
173.3505	0.105	346701	keystroke_Key.space	Key.space	n/a
174.0405	0.045	348081	keystroke_g	g	n/a
174.3405	0.0905	348681	keystroke_Key.backspace	Key.backspace	n/a
174.461	0.12	348922	keystroke_f	f	n/a
174.6255	0.15	349251	keystroke_a	a	n/a
174.7155	0.105	349431	keystroke_s	s	n/a
175.211	0.06	350422	keystroke_h	h	n/a
175.436	0.105	350872	keystroke_i	i	n/a
175.526	0.075	351052	keystroke_o	o	n/a
175.6605	0.09	351321	keystroke_n	n	n/a
175.8405	0.09	351681	keystroke_Key.space	Key.space	n/a
176.771	0.09	353542	keystroke_u	u	n/a
177.7155	0.09	355431	keystroke_t	t	n/a
178.421	0.074	356842	keystroke_i	i	n/a
178.661	0.075	357322	keystroke_l	l	n/a
178.7805	0.105	357561	keystroke_s	s	n/a
178.9905	0.1205	357981	keystroke_Key.enter	Key.enter	n/a
179.115	7.4375	358230	prompt	n/a	deserve redeem tragedy studying\n
180.0255	0.09	360051	keystroke_d	d	n/a
180.551	0.0295	361102	keystroke_e	e	n/a
180.7005	0.075	361401	keystroke_s	s	n/a
180.9115	0.089	361823	keystroke_e	e	n/a
180.9705	0.0755	361941	keystroke_r	r	n/a
181.271	0.12	362542	keystroke_v	v	n/a
181.451	0.09	362902	keystroke_e	e	n/a
181.601	0.09	363202	keystroke_Key.space	Key.space	n/a
182.111	0.12	364222	keystroke_r	r	n/a
182.201	0.105	364402	keystroke_e	e	n/a
182.3805	0.09	364761	keystroke_d	d	n/a
182.5305	0.0755	365061	keystroke_e	e	n/a
182.681	0.09	365362	keystroke_e	e	n/a
182.801	0.09	365602	keystroke_m	m	n/a
182.936	0.105	365872	keystroke_Key.space	Key.space	n/a
183.461	0.105	366922	keystroke_t	t	n/a
183.506	0.135	367012	keystroke_r	r	n/a
183.716	0.105	367432	keystroke_a	a	n/a
183.836	0.12	367672	keystroke_g	g	n/a
183.986	0.075	367972	keystroke_e	e	n/a
184.181	0.075	368362	keystroke_d	d	n/a
184.361	0.0895	368722	keystroke_y	y	n/a
184.4955	0.09	368991	keystroke_Key.space	Key.space	n/a
185.1405	0.105	370281	keystroke_s	s	n/a
185.3655	0.06	370731	keystroke_t	t	n/a
185.5755	0.075	371151	keystroke_u	u	n/a
185.6655	0.075	371331	keystroke_d	d	n/a
185.8305	0.045	371661	keystroke_y	y	n/a
186.0705	0.09	372141	keystroke_i	i	n/a
186.1455	0.045	372291	keystroke_n	n	n/a
186.1755	0.075	372351	keystroke_g	g	n/a
186.4455	0.105	372891	keystroke_Key.enter	Key.enter	n/a
186.5545	6.9425	373109	prompt	n/a	laws gallery florida colin\n
187.4205	0.105	374841	keystroke_l	l	n/a
187.5265	0.104	375053	keystroke_a	a	n/a
187.6605	0.09	375321	keystroke_w	w	n/a
187.8705	0.12	375741	keystroke_s	s	n/a
188.0205	0.09	376041	keystroke_Key.space	Key.space	n/a
188.3055	0.075	376611	keystroke_g	g	n/a
188.4405	0.075	376881	keystroke_a	a	n/a
188.5305	0.0605	377061	keystroke_l	l	n/a
188.681	0.06	377362	keystroke_l	l	n/a
188.726	0.105	377452	keystroke_e	e	n/a
188.786	0.09	377572	keystroke_r	r	n/a
188.981	0.075	377962	keystroke_y	y	n/a
189.116	0.075	378232	keystroke_Key.space	Key.space	n/a
189.836	0.09	379672	keystroke_f	f	n/a
189.911	0.06	379822	keystroke_l	l	n/a
190.076	0.075	380152	keystroke_o	o	n/a
190.121	0.075	380242	keystroke_r	r	n/a
190.286	0.06	380572	keystroke_i	i	n/a
190.316	0.09	380632	keystroke_d	d	n/a
190.481	0.0745	380962	keystroke_a	a	n/a
190.5705	0.09	381141	keystroke_Key.space	Key.space	n/a
192.763	0.013	385526	keystroke_c	c	n/a
192.764	0.072	385528	keystroke_o	o	n/a
192.941	0.06	385882	keystroke_l	l	n/a
193.136	0.105	386272	keystroke_i	i	n/a
193.196	0.105	386392	keystroke_n	n	n/a
193.391	0.105	386782	keystroke_Key.enter	Key.enter	n/a
193.501	6.626	387002	prompt	n/a	realistic workout rogers ciao\n
194.201	0.09	388402	keystroke_r	r	n/a
194.246	0.105	388492	keystroke_e	e	n/a
194.4105	0.09	388821	keystroke_l	l	n/a
194.4255	0.06	388851	keystroke_a	a	n/a
194.6205	0.0895	389241	keystroke_i	i	n/a
194.68	0.075	389360	keystroke_s	s	n/a
194.846	0.059	389692	keystroke_t	t	n/a
194.98	0.091	389960	keystroke_i	i	n/a
195.131	0.12	390262	keystroke_c	c	n/a
195.235	0.075	390470	keystroke_Key.space	Key.space	n/a
195.431	0.09	390862	keystroke_r	r	n/a
195.551	0.03	391102	keystroke_o	o	n/a
195.806	0.06	391612	keystroke_Key.backspace	Key.backspace	n/a
195.941	0.18	391882	keystroke_Key.backspace	Key.backspace	n/a
196.301	0.09	392602	keystroke_w	w	n/a
196.736	0.09	393472	keystroke_o	o	n/a
196.901	0.105	393802	keystroke_r	r	n/a
197.05	0.105	394100	keystroke_k	k	n/a
197.4255	0.135	394851	keystroke_o	o	n/a
197.5155	0.105	395031	keystroke_u	u	n/a
197.6205	0.06	395241	keystroke_t	t	n/a
197.7705	0.075	395541	keystroke_Key.space	Key.space	n/a
197.9055	0.12	395811	keystroke_r	r	n/a
198.0405	0.09	396081	keystroke_o	o	n/a
198.1455	0.105	396291	keystroke_g	g	n/a
198.3705	0.105	396741	keystroke_e	e	n/a
198.4305	0.09	396861	keystroke_r	r	n/a
198.581	0.09	397162	keystroke_s	s	n/a
198.701	0.1045	397402	keystroke_Key.space	Key.space	n/a
199.4655	0.075	398931	keystroke_c	c	n/a
199.5705	0.06	399141	keystroke_i	i	n/a
199.6755	0.09	399351	keystroke_a	a	n/a
199.7955	0.09	399591	keystroke_o	o	n/a
200.0205	0.1055	400041	keystroke_Key.enter	Key.enter	n/a
200.13	6.9575	400260	prompt	n/a	layout dealer studied nutten\n
200.8455	0.075	401691	keystroke_l	l	n/a
200.9355	0.075	401871	keystroke_a	a	n/a
201.2055	0.045	402411	keystroke_y	y	n/a
201.2955	0.15	402591	keystroke_o	o	n/a
201.3855	0.0755	402771	keystroke_u	u	n/a
201.476	0.075	402952	keystroke_t	t	n/a
201.611	0.105	403222	keystroke_Key.space	Key.space	n/a
202.331	0.09	404662	keystroke_d	d	n/a
202.481	0.1045	404962	keystroke_e	e	n/a
202.6305	0.105	405261	keystroke_a	a	n/a
202.7505	0.0895	405501	keystroke_l	l	n/a
202.9	0.105	405800	keystroke_e	e	n/a
202.96	0.105	405920	keystroke_r	r	n/a
203.05	0.09	406100	keystroke_Key.space	Key.space	n/a
203.605	0.09	407210	keystroke_s	s	n/a
203.875	0.015	407750	keystroke_t	t	n/a
203.905	0.09	407810	keystroke_u	u	n/a
204.025	0.09	408050	keystroke_d	d	n/a
204.175	0.0605	408350	keystroke_i	i	n/a
204.2655	0.06	408531	keystroke_e	e	n/a
204.4605	0.075	408921	keystroke_d	d	n/a
204.5505	0.0895	409101	keystroke_Key.space	Key.space	n/a
205.12	0.106	410240	keystroke_n	n	n/a
205.255	0.105	410510	keystroke_u	u	n/a
205.375	0.06	410750	keystroke_t	t	n/a
205.511	0.029	411022	keystroke_n	n	n/a
205.9305	0.0605	411861	keystroke_Key.backspace	Key.backspace	n/a
206.066	0.06	412132	keystroke_t	t	n/a
206.186	0.1045	412372	keystroke_t	t	n/a
206.3505	0.09	412701	keystroke_e	e	n/a
206.4555	0.105	412911	keystroke_n	n	n/a
206.981	0.105	413962	keystroke_Key.enter	Key.enter	n/a
207.092	7.915	414184	prompt	n/a	designation investing dave enormous\n
208.181	0.09	416362	keystroke_d	d	n/a
208.6455	0.06	417291	keystroke_e	e	n/a
208.795	0.105	417590	keystroke_s	s	n/a
208.901	0.104	417802	keystroke_i	i	n/a
209.021	0.074	418042	keystroke_g	g	n/a
209.11	0.09	418220	keystroke_n	n	n/a
209.26	0.09	418520	keystroke_a	a	n/a
209.395	0.061	418790	keystroke_t	t	n/a
209.5	0.09	419000	keystroke_i	i	n/a
209.531	0.1045	419062	keystroke_o	o	n/a
209.6955	0.105	419391	keystroke_n	n	n/a
209.7705	0.075	419541	keystroke_Key.space	Key.space	n/a
210.0705	0.12	420141	keystroke_i	i	n/a
210.1755	0.12	420351	keystroke_n	n	n/a
210.4155	0.105	420831	keystroke_v	v	n/a
210.5055	0.03	421011	keystroke_e	e	n/a
210.625	0.105	421250	keystroke_s	s	n/a
210.85	0.06	421700	keystroke_t	t	n/a
210.94	0.12	421880	keystroke_i	i	n/a
211	0.09	422000	keystroke_n	n	n/a
211.045	0.075	422090	keystroke_g	g	n/a
211.18	0.09	422360	keystroke_Key.space	Key.space	n/a
211.675	0.12	423350	keystroke_d	d	n/a
211.78	0.0905	423560	keystroke_a	a	n/a
212.0355	0.105	424071	keystroke_v	v	n/a
212.1105	0.09	424221	keystroke_e	e	n/a
212.2305	0.105	424461	keystroke_Key.space	Key.space	n/a
212.6205	0.075	425241	keystroke_e	e	n/a
212.6805	0.075	425361	keystroke_n	n	n/a
212.8305	0.105	425661	keystroke_o	o	n/a
212.9205	0.075	425841	keystroke_r	r	n/a
214.271	0.09	428542	keystroke_m	m	n/a
214.5555	0.12	429111	keystroke_o	o	n/a
214.6155	0.105	429231	keystroke_u	u	n/a
214.7355	0.105	429471	keystroke_s	s	n/a
214.9155	0.09	429831	keystroke_Key.enter	Key.enter	n/a
215.0115	5.9955	430023	prompt	n/a	merchants distinct janet dosage\n
215.7705	0.075	431541	keystroke_m	m	n/a
215.8465	0.119	431693	keystroke_e	e	n/a
215.9205	0.075	431841	keystroke_r	r	n/a
216.1155	0.09	432231	keystroke_c	c	n/a
216.2205	0.075	432441	keystroke_h	h	n/a
216.2655	0.09	432531	keystroke_a	a	n/a
216.4005	0.105	432801	keystroke_n	n	n/a
216.5205	0.0755	433041	keystroke_t	t	n/a
216.671	0.105	433342	keystroke_s	s	n/a
216.761	0.105	433522	keystroke_Key.space	Key.space	n/a
216.911	0.09	433822	keystroke_d	d	n/a
217.016	0.09	434032	keystroke_i	i	n/a
217.121	0.075	434242	keystroke_s	s	n/a
217.301	0.045	434602	keystroke_t	t	n/a
217.406	0.135	434812	keystroke_i	i	n/a
217.496	0.09	434992	keystroke_n	n	n/a
217.631	0.135	435262	keystroke_c	c	n/a
217.886	0.0595	435772	keystroke_t	t	n/a
218.0505	0.09	436101	keystroke_Key.space	Key.space	n/a
218.3205	0.06	436641	keystroke_j	j	n/a
218.3955	0.12	436791	keystroke_a	a	n/a
218.5905	0.09	437181	keystroke_n	n	n/a
218.6955	0.105	437391	keystroke_e	e	n/a
218.9205	0.075	437841	keystroke_t	t	n/a
219.0705	0.105	438141	keystroke_Key.space	Key.space	n/a
220.1205	0.045	440241	keystroke_d	d	n/a
220.1805	0.105	440361	keystroke_o	o	n/a
220.2705	0.09	440541	keystroke_s	s	n/a
220.5105	0.075	441021	keystroke_a	a	n/a
220.6005	0.18	441201	keystroke_g	g	n/a
220.7655	0.075	441531	keystroke_e	e	n/a
220.9005	0.105	441801	keystroke_Key.enter	Key.enter	n/a
221.014	8.393	442028	prompt	n/a	copyright neutral statute jets\n
221.8605	0.09	443721	keystroke_c	c	n/a
222.2655	0.135	444531	keystroke_o	o	n/a
222.3555	0.105	444711	keystroke_p	p	n/a
222.5505	0.045	445101	keystroke_y	y	n/a
222.8055	0.09	445611	keystroke_r	r	n/a
222.9105	0.06	445821	keystroke_i	i	n/a
223.0455	0.09	446091	keystroke_g	g	n/a
223.1505	0.06	446301	keystroke_h	h	n/a
223.2255	0.0755	446451	keystroke_t	t	n/a
223.345	0.105	446690	keystroke_Key.space	Key.space	n/a
223.841	0.09	447682	keystroke_n	n	n/a
223.9	0.121	447800	keystroke_e	e	n/a
224.246	0.06	448492	keystroke_u	u	n/a
224.321	0.075	448642	keystroke_t	t	n/a
224.516	0.1795	449032	keystroke_r	r	n/a
224.6205	0.105	449241	keystroke_e	e	n/a
225.1155	0.06	450231	keystroke_Key.backspace	Key.backspace	n/a
225.7005	0.09	451401	keystroke_a	a	n/a
225.8655	0.09	451731	keystroke_l	l	n/a
226.0305	0.105	452061	keystroke_Key.space	Key.space	n/a
226.4505	0.105	452901	keystroke_s	s	n/a
226.6605	0.09	453321	keystroke_t	t	n/a
226.7805	0.09	453561	keystroke_a	a	n/a
226.8405	0.105	453681	keystroke_t	t	n/a
227.0355	0.09	454071	keystroke_u	u	n/a
227.1105	0.105	454221	keystroke_t	t	n/a
227.1855	0.105	454371	keystroke_e	e	n/a
227.3355	0.105	454671	keystroke_Key.space	Key.space	n/a
228.2655	0.075	456531	keystroke_h	h	n/a
228.7	0.076	457400	keystroke_Key.backspace	Key.backspace	n/a
228.9705	0.0305	457941	keystroke_j	j	n/a
229.016	0.09	458032	keystroke_e	e	n/a
229.061	0.09	458122	keystroke_t	t	n/a
229.211	0.06	458422	keystroke_s	s	n/a
229.316	0.089	458632	keystroke_Key.enter	Key.enter	n/a
229.4095	14.233	458819	prompt	n/a	antenna guatemala hate practices\n
230.2155	0.105	460431	keystroke_a	a	n/a
230.3655	0.075	460731	keystroke_t	t	n/a
230.5155	0.1045	461031	keystroke_e	e	n/a
230.635	0.075	461270	keystroke_n	n	n/a
230.77	0.09	461540	keystroke_n	n	n/a
230.92	0.105	461840	keystroke_a	a	n/a
231.026	0.089	462052	keystroke_Key.space	Key.space	n/a
231.82	0.06	463640	keystroke_h	h	n/a
232.255	0.075	464510	keystroke_Key.backspace	Key.backspace	n/a
232.405	0.09	464810	keystroke_g	g	n/a
232.525	0.06	465050	keystroke_u	u	n/a
232.63	0.105	465260	keystroke_a	a	n/a
232.8105	0.105	465621	keystroke_t	t	n/a
232.9005	0.09	465801	keystroke_e	e	n/a
233.0805	0.075	466161	keystroke_l	l	n/a
234.4005	0.06	468801	keystroke_Key.backspace	Key.backspace	n/a
235.586	0.074	471172	keystroke_m	m	n/a
235.675	0.075	471350	keystroke_a	a	n/a
235.78	0.105	471560	keystroke_l	l	n/a
235.886	0.104	471772	keystroke_a	a	n/a
236.02	0.075	472040	keystroke_Key.space	Key.space	n/a
236.6355	0.06	473271	keystroke_h	h	n/a
236.6655	0.0905	473331	keystroke_a	a	n/a
236.816	0.0895	473632	keystroke_t	t	n/a
236.8905	0.105	473781	keystroke_e	e	n/a
236.9655	0.09	473931	keystroke_Key.space	Key.space	n/a
237.7305	0.075	475461	keystroke_p	p	n/a
240.958	0.028	481916	keystroke_r	r	n/a
241.061	0.12	482122	keystroke_a	a	n/a
241.135	0.091	482270	keystroke_c	c	n/a
241.346	0.044	482692	keystroke_t	t	n/a
241.451	0.105	482902	keystroke_i	i	n/a
241.571	0.105	483142	keystroke_c	c	n/a
241.616	0.09	483232	keystroke_e	e	n/a
241.796	0.105	483592	keystroke_s	s	n/a
243.5805	0.06	487161	keystroke_Key.enter	Key.enter	n/a
243.645	11.547	487290	prompt	n/a	knives deals tomorrow shakira\n
245.3505	0.135	490701	keystroke_k	k	n/a
245.4555	0.105	490911	keystroke_n	n	n/a
245.6655	0.06	491331	keystroke_i	i	n/a
245.7555	0.165	491511	keystroke_c	c	n/a
245.8455	0.09	491691	keystroke_e	e	n/a
246.0255	0.105	492051	keystroke_s	s	n/a
246.1155	0.105	492231	keystroke_Key.space	Key.space	n/a
246.371	0.105	492742	keystroke_d	d	n/a
246.5955	0.09	493191	keystroke_e	e	n/a
246.6705	0.105	493341	keystroke_a	a	n/a
246.8955	0.105	493791	keystroke_l	l	n/a
246.9255	0.06	493851	keystroke_a	a	n/a
247.5105	0.075	495021	keystroke_Key.backspace	Key.backspace	n/a
247.6305	0.12	495261	keystroke_s	s	n/a
247.7955	0.1205	495591	keystroke_Key.space	Key.space	n/a
248.53	0.105	497060	keystroke_Key.backspace	Key.backspace	n/a
248.695	0.105	497390	keystroke_Key.backspace	Key.backspace	n/a
248.875	0.075	497750	keystroke_Key.backspace	Key.backspace	n/a
249.026	0.06	498052	keystroke_Key.backspace	Key.backspace	n/a
249.146	0.0595	498292	keystroke_Key.backspace	Key.backspace	n/a
249.2955	0.135	498591	keystroke_Key.backspace	Key.backspace	n/a
249.4755	0.0605	498951	keystroke_Key.backspace	Key.backspace	n/a
249.596	0.044	499192	keystroke_Key.backspace	Key.backspace	n/a
249.716	0.06	499432	keystroke_Key.backspace	Key.backspace	n/a
250.27	0.09	500540	keystroke_Key.backspace	Key.backspace	n/a
250.616	0.12	501232	keystroke_v	v	n/a
250.69	0.105	501380	keystroke_e	e	n/a
250.901	0.09	501802	keystroke_s	s	n/a
251.035	0.076	502070	keystroke_Key.space	Key.space	n/a
251.276	0.105	502552	keystroke_d	d	n/a
251.486	0.075	502972	keystroke_e	e	n/a
251.681	0.105	503362	keystroke_a	a	n/a
251.831	0.1045	503662	keystroke_l	l	n/a
251.9955	0.075	503991	keystroke_s	s	n/a
252.1155	0.09	504231	keystroke_Key.space	Key.space	n/a
252.3255	0.105	504651	keystroke_t	t	n/a
252.4155	0.105	504831	keystroke_o	o	n/a
252.4755	0.105	504951	keystroke_m	m	n/a
252.6105	0.09	505221	keystroke_o	o	n/a
252.7155	0.075	505431	keystroke_r	r	n/a
252.8055	0.135	505611	keystroke_r	r	n/a
253.705	0.09	507410	keystroke_o	o	n/a
253.84	0.105	507680	keystroke_w	w	n/a
253.96	0.075	507920	keystroke_Key.space	Key.space	n/a
254.185	0.09	508370	keystroke_s	s	n/a
254.35	0.105	508700	keystroke_h	h	n/a
254.47	0.09	508940	keystroke_a	a	n/a
254.59	0.075	509180	keystroke_k	k	n/a
254.77	0.091	509540	keystroke_i	i	n/a
254.845	0.105	509690	keystroke_r	r	n/a
254.965	0.09	509930	keystroke_a	a	n/a
255.07	0.12	510140	keystroke_Key.enter	Key.enter	n/a
255.1965	10.7805	510393	prompt	n/a	nasdaq trailers flashing closed\n
256.24	0.105	512480	keystroke_d	d	n/a
256.54	0.12	513080	keystroke_a	a	n/a
256.84	0.076	513680	keystroke_Key.backspace	Key.backspace	n/a
256.99	0.075	513980	keystroke_Key.backspace	Key.backspace	n/a
257.201	0.074	514402	keystroke_n	n	n/a
257.32	0.1505	514640	keystroke_a	a	n/a
257.3805	0.105	514761	keystroke_s	s	n/a
257.7855	0.15	515571	keystroke_d	d	n/a
259.18	0.09	518360	keystroke_a	a	n/a
259.391	0.104	518782	keystroke_q	q	n/a
259.645	0.06	519290	keystroke_Key.space	Key.space	n/a
260.126	0.104	520252	keystroke_t	t	n/a
260.14	0.135	520280	keystroke_r	r	n/a
260.35	0.105	520700	keystroke_a	a	n/a
260.441	0.089	520882	keystroke_i	i	n/a
260.6355	0.06	521271	keystroke_l	l	n/a
260.6805	0.075	521361	keystroke_e	e	n/a
260.7405	0.075	521481	keystroke_r	r	n/a
260.8605	0.105	521721	keystroke_s	s	n/a
260.9505	0.09	521901	keystroke_Key.space	Key.space	n/a
261.6105	0.06	523221	keystroke_f	f	n/a
261.6855	0.09	523371	keystroke_l	l	n/a
261.7605	0.12	523521	keystroke_a	a	n/a
261.8655	0.045	523731	keystroke_s	s	n/a
262.0005	0.045	524001	keystroke_s	s	n/a
262.0905	0.09	524181	keystroke_h	h	n/a
262.1655	0.1645	524331	keystroke_i	i	n/a
262.27	0.12	524540	keystroke_n	n	n/a
262.36	0.105	524720	keystroke_g	g	n/a
262.48	0.09	524960	keystroke_Key.space	Key.space	n/a
262.751	0.075	525502	keystroke_Key.backspace	Key.backspace	n/a
262.916	0.06	525832	keystroke_Key.backspace	Key.backspace	n/a
263.051	0.06	526102	keystroke_Key.backspace	Key.backspace	n/a
263.156	0.075	526312	keystroke_Key.backspace	Key.backspace	n/a
263.276	0.045	526552	keystroke_Key.backspace	Key.backspace	n/a
263.381	0.06	526762	keystroke_Key.backspace	Key.backspace	n/a
264.071	0.0895	528142	keystroke_h	h	n/a
264.2055	0.15	528411	keystroke_i	i	n/a
264.2955	0.075	528591	keystroke_n	n	n/a
264.3405	0.09	528681	keystroke_g	g	n/a
264.4455	0.09	528891	keystroke_Key.space	Key.space	n/a
265.06	0.0905	530120	keystroke_c	c	n/a
265.1655	0.06	530331	keystroke_l	l	n/a
265.3305	0.06	530661	keystroke_o	o	n/a
265.4205	0.09	530841	keystroke_s	s	n/a
265.6305	0.06	531261	keystroke_e	e	n/a
265.7655	0.09	531531	keystroke_d	d	n/a
265.8705	0.105	531741	keystroke_Key.enter	Key.enter	n/a
265.98	5.4865	531960	prompt	n/a	strip anthony gale blackberry\n
266.785	0.06	533570	keystroke_s	s	n/a
267.086	0.12	534172	keystroke_t	t	n/a
267.116	0.12	534232	keystroke_r	r	n/a
267.265	0.091	534530	keystroke_o	o	n/a
267.281	0.105	534562	keystroke_p	p	n/a
267.476	0.074	534952	keystroke_Key.space	Key.space	n/a
267.716	0.045	535432	keystroke_a	a	n/a
267.775	0.106	535550	keystroke_n	n	n/a
267.94	0.121	535880	keystroke_t	t	n/a
268.016	0.09	536032	keystroke_h	h	n/a
268.046	0.135	536092	keystroke_o	o	n/a
268.121	0.075	536242	keystroke_n	n	n/a
268.225	0.09	536450	keystroke_y	y	n/a
268.33	0.091	536660	keystroke_Key.space	Key.space	n/a
269.1705	0.09	538341	keystroke_g	g	n/a
269.2605	0.105	538521	keystroke_a	a	n/a
269.3955	0.09	538791	keystroke_l	l	n/a
269.5005	0.09	539001	keystroke_e	e	n/a
269.5915	0.0885	539183	keystroke_Key.space	Key.space	n/a
269.965	0.09	539930	keystroke_b	b	n/a
270.19	0.09	540380	keystroke_l	l	n/a
270.265	0.105	540530	keystroke_a	a	n/a
270.325	0.12	540650	keystroke_c	c	n/a
270.43	0.075	540860	keystroke_k	k	n/a
270.6555	0.075	541311	keystroke_b	b	n/a
270.7605	0.12	541521	keystroke_e	e	n/a
270.8505	0.105	541701	keystroke_r	r	n/a
271.0005	0.105	542001	keystroke_r	r	n/a
271.2555	0.06	542511	keystroke_y	y	n/a
271.3605	0.105	542721	keystroke_Key.enter	Key.enter	n/a
271.47	6.657	542940	prompt	n/a	namely refurbished mutual petite\n
272.35	0.09	544700	keystroke_n	n	n/a
272.47	0.0905	544940	keystroke_a	a	n/a
272.6505	0.045	545301	keystroke_m	m	n/a
272.8905	0.09	545781	keystroke_e	e	n/a
273.0405	0.09	546081	keystroke_l	l	n/a
273.1905	0.105	546381	keystroke_y	y	n/a
273.3705	0.105	546741	keystroke_Key.space	Key.space	n/a
273.7905	0.1195	547581	keystroke_r	r	n/a
273.835	0.12	547670	keystroke_e	e	n/a
273.985	0.105	547970	keystroke_f	f	n/a
274.165	0.105	548330	keystroke_u	u	n/a
274.301	0.074	548602	keystroke_r	r	n/a
274.435	0.09	548870	keystroke_b	b	n/a
274.63	0.075	549260	keystroke_i	i	n/a
274.72	0.12	549440	keystroke_s	s	n/a
274.855	0.075	549710	keystroke_h	h	n/a
274.945	0.06	549890	keystroke_e	e	n/a
275.08	0.09	550160	keystroke_d	d	n/a
275.14	0.09	550280	keystroke_Key.space	Key.space	n/a
275.44	0.075	550880	keystroke_m	m	n/a
275.755	0.076	551510	keystroke_u	u	n/a
275.831	0.089	551662	keystroke_t	t	n/a
275.935	0.075	551870	keystroke_u	u	n/a
276.04	0.12	552080	keystroke_a	a	n/a
276.175	0.09	552350	keystroke_l	l	n/a
276.325	0.075	552650	keystroke_Key.space	Key.space	n/a
276.535	0.1055	553070	keystroke_p	p	n/a
276.6855	0.15	553371	keystroke_e	e	n/a
276.8505	0.075	553701	keystroke_t	t	n/a
276.9855	0.105	553971	keystroke_i	i	n/a
277.0455	0.075	554091	keystroke_t	t	n/a
277.5405	0.03	555081	keystroke_e	e	n/a
278.0205	0.105	556041	keystroke_Key.enter	Key.enter	n/a
278.1295	8.382	556259	prompt	n/a	annotated sociology measures detection\n
278.9355	0.09	557871	keystroke_a	a	n/a
279.0105	0.075	558021	keystroke_n	n	n/a
279.1605	0.075	558321	keystroke_n	n	n/a
279.3555	0.09	558711	keystroke_o	o	n/a
280.181	0.134	560362	keystroke_t	t	n/a
280.285	0.105	560570	keystroke_a	a	n/a
280.375	0.15	560750	keystroke_t	t	n/a
280.496	0.09	560992	keystroke_e	e	n/a
280.69	0.075	561380	keystroke_d	d	n/a
280.78	0.105	561560	keystroke_Key.space	Key.space	n/a
281.065	0.105	562130	keystroke_s	s	n/a
281.2	0.1055	562400	keystroke_o	o	n/a
281.3205	0.09	562641	keystroke_c	c	n/a
281.4255	0.09	562851	keystroke_i	i	n/a
281.8155	0.075	563631	keystroke_o	o	n/a
281.9955	0.075	563991	keystroke_l	l	n/a
282.1755	0.075	564351	keystroke_o	o	n/a
282.6705	0.075	565341	keystroke_g	g	n/a
282.8955	0.075	565791	keystroke_y	y	n/a
283.0755	0.12	566151	keystroke_Key.space	Key.space	n/a
283.615	0.105	567230	keystroke_m	m	n/a
283.721	0.104	567442	keystroke_e	e	n/a
283.81	0.135	567620	keystroke_a	a	n/a
284.095	0.09	568190	keystroke_s	s	n/a
284.2	0.06	568400	keystroke_u	u	n/a
284.32	0.105	568640	keystroke_r	r	n/a
284.365	0.09	568730	keystroke_e	e	n/a
284.53	0.12	569060	keystroke_s	s	n/a
284.665	0.09	569330	keystroke_Key.space	Key.space	n/a
285.1	0.105	570200	keystroke_d	d	n/a
285.325	0.075	570650	keystroke_e	e	n/a
285.445	0.105	570890	keystroke_t	t	n/a
285.551	0.059	571102	keystroke_e	e	n/a
285.715	0.06	571430	keystroke_c	c	n/a
285.91	0.045	571820	keystroke_t	t	n/a
285.97	0.105	571940	keystroke_i	i	n/a
286.045	0.09	572090	keystroke_o	o	n/a
286.195	0.09	572390	keystroke_n	n	n/a
286.42	0.09	572840	keystroke_Key.enter	Key.enter	n/a
286.5145	6.6575	573029	prompt	n/a	hamilton mary isle shipment\n
287.635	0.045	575270	keystroke_h	h	n/a
287.695	0.015	575390	keystroke_a	a	n/a
287.725	0.015	575450	keystroke_m	m	n/a
287.815	0.06	575630	keystroke_i	i	n/a
287.98	0.075	575960	keystroke_l	l	n/a
288.07	0.06	576140	keystroke_t	t	n/a
288.19	0.105	576380	keystroke_o	o	n/a
288.25	0.09	576500	keystroke_n	n	n/a
288.385	0.105	576770	keystroke_Key.space	Key.space	n/a
288.7155	0.075	577431	keystroke_m	m	n/a
288.8055	0.105	577611	keystroke_a	a	n/a
289.0605	0.09	578121	keystroke_r	r	n/a
289.3755	0.105	578751	keystroke_y	y	n/a
289.5105	0.09	579021	keystroke_Key.space	Key.space	n/a
289.6605	0.09	579321	keystroke_i	i	n/a
289.8105	0.075	579621	keystroke_s	s	n/a
290.5155	0.0745	581031	keystroke_l	l	n/a
290.62	0.075	581240	keystroke_e	e	n/a
290.74	0.105	581480	keystroke_Key.space	Key.space	n/a
291.0555	0.09	582111	keystroke_s	s	n/a
291.1745	0.1205	582349	keystroke_h	h	n/a
291.2355	0.1045	582471	keystroke_i	i	n/a
291.5205	0.105	583041	keystroke_p	p	n/a
292.66	0.09	585320	keystroke_m	m	n/a
292.765	0.075	585530	keystroke_e	e	n/a
292.855	0.09	585710	keystroke_n	n	n/a
292.9605	0.06	585921	keystroke_t	t	n/a
293.0955	0.075	586191	keystroke_Key.enter	Key.enter	n/a
293.175	7.542	586350	prompt	n/a	downloading hardcover rocky matter\n
294.235	0.09	588470	keystroke_d	d	n/a
294.31	0.09	588620	keystroke_o	o	n/a
294.415	0.09	588830	keystroke_w	w	n/a
294.49	0.075	588980	keystroke_n	n	n/a
294.625	0.075	589250	keystroke_l	l	n/a
294.79	0.09	589580	keystroke_o	o	n/a
294.82	0.135	589640	keystroke_a	a	n/a
294.91	0.075	589820	keystroke_d	d	n/a
295.015	0.105	590030	keystroke_i	i	n/a
295.075	0.075	590150	keystroke_n	n	n/a
295.151	0.074	590302	keystroke_g	g	n/a
295.24	0.09	590480	keystroke_Key.space	Key.space	n/a
296.23	0.075	592460	keystroke_h	h	n/a
296.306	0.104	592612	keystroke_a	a	n/a
296.47	0.045	592940	keystroke_r	r	n/a
296.6205	0.075	593241	keystroke_d	d	n/a
296.8455	0.0895	593691	keystroke_v	v	n/a
297.61	0.105	595220	keystroke_Key.backspace	Key.backspace	n/a
297.775	0.09	595550	keystroke_c	c	n/a
297.91	0.09	595820	keystroke_o	o	n/a
298.001	0.0745	596002	keystroke_v	v	n/a
298.195	0.105	596390	keystroke_e	e	n/a
298.256	0.105	596512	keystroke_r	r	n/a
298.39	0.105	596780	keystroke_Key.space	Key.space	n/a
298.6305	0.075	597261	keystroke_r	r	n/a
298.6905	0.105	597381	keystroke_o	o	n/a
298.8405	0.105	597681	keystroke_c	c	n/a
298.9465	0.074	597893	keystroke_k	k	n/a
299.1705	0.075	598341	keystroke_y	y	n/a
299.2755	0.09	598551	keystroke_Key.space	Key.space	n/a
299.4705	0.075	598941	keystroke_m	m	n/a
299.5455	0.1195	599091	keystroke_a	a	n/a
299.725	0.045	599450	keystroke_t	t	n/a
299.83	0.15	599660	keystroke_t	t	n/a
300.085	0.1355	600170	keystroke_e	e	n/a
300.145	0.0905	600290	keystroke_r	r	n/a
300.6105	0.105	601221	keystroke_Key.enter	Key.enter	n/a
300.7195	9.0875	601439	prompt	n/a	button participating weren't schedules\n
301.6905	0.12	603381	keystroke_b	b	n/a
301.7655	0.105	603531	keystroke_u	u	n/a
301.9305	0.06	603861	keystroke_t	t	n/a
302.0505	0.09	604101	keystroke_t	t	n/a
302.2005	0.1195	604401	keystroke_o	o	n/a
302.2755	0.1045	604551	keystroke_n	n	n/a
302.335	0.09	604670	keystroke_Key.space	Key.space	n/a
302.515	0.09	605030	keystroke_p	p	n/a
302.62	0.09	605240	keystroke_a	a	n/a
302.92	0.09	605840	keystroke_r	r	n/a
302.965	0.09	605930	keystroke_t	t	n/a
303.07	0.105	606140	keystroke_i	i	n/a
303.22	0.09	606440	keystroke_c	c	n/a
303.295	0.105	606590	keystroke_i	i	n/a
303.49	0.09	606980	keystroke_p	p	n/a
303.565	0.076	607130	keystroke_a	a	n/a
303.715	0.075	607430	keystroke_t	t	n/a
303.76	0.15	607520	keystroke_i	i	n/a
303.85	0.12	607700	keystroke_n	n	n/a
304.03	0.105	608060	keystroke_g	g	n/a
304.15	0.105	608300	keystroke_Key.space	Key.space	n/a
304.675	0.135	609350	keystroke_w	w	n/a
304.825	0.09	609650	keystroke_e	e	n/a
305.5605	0.105	611121	keystroke_r	r	n/a
305.6205	0.09	611241	keystroke_e	e	n/a
305.9655	0.09	611931	keystroke_n	n	n/a
306.6105	0.09	613221	keystroke_'	'	n/a
306.7155	0.06	613431	keystroke_t	t	n/a
306.8945	0.075	613789	keystroke_Key.space	Key.space	n/a
307.6905	0.135	615381	keystroke_s	s	n/a
307.8095	0.106	615619	keystroke_c	c	n/a
307.9005	0.105	615801	keystroke_h	h	n/a
308.0355	0.075	616071	keystroke_e	e	n/a
308.2005	0.09	616401	keystroke_d	d	n/a
309.01	0.09	618020	keystroke_u	u	n/a
309.265	0.076	618530	keystroke_l	l	n/a
309.355	0.105	618710	keystroke_e	e	n/a
309.416	0.119	618832	keystroke_s	s	n/a
309.7	0.105	619400	keystroke_Key.enter	Key.enter	n/a
309.81	9.417	619620	prompt	n/a	boys gulf scenario wisconsin\n
310.915	0.046	621830	keystroke_b	b	n/a
311.036	0.149	622072	keystroke_o	o	n/a
311.14	0.075	622280	keystroke_y	y	n/a
311.275	0.105	622550	keystroke_s	s	n/a
311.395	0.075	622790	keystroke_Key.space	Key.space	n/a
311.5	0.075	623000	keystroke_g	g	n/a
311.59	0.105	623180	keystroke_u	u	n/a
311.816	0.089	623632	keystroke_l	l	n/a
312.085	0.06	624170	keystroke_f	f	n/a
312.655	0.075	625310	keystroke_Key.space	Key.space	n/a
312.895	0.136	625790	keystroke_s	s	n/a
312.97	0.105	625940	keystroke_c	c	n/a
313.135	0.0905	626270	keystroke_e	e	n/a
313.2555	0.105	626511	keystroke_n	n	n/a
313.3755	0.105	626751	keystroke_e	e	n/a
313.8705	0.12	627741	keystroke_a	a	n/a
314.0655	0.075	628131	keystroke_r	r	n/a
314.4255	0.09	628851	keystroke_Key.backspace	Key.backspace	n/a
314.725	0.09	629450	keystroke_Key.backspace	Key.backspace	n/a
314.875	0.075	629750	keystroke_Key.backspace	Key.backspace	n/a
315.5945	0.105	631189	keystroke_a	a	n/a
316.015	0.105	632030	keystroke_r	r	n/a
316.105	0.105	632210	keystroke_i	i	n/a
316.165	0.09	632330	keystroke_o	o	n/a
316.375	0.09	632750	keystroke_Key.space	Key.space	n/a
317.08	0.105	634160	keystroke_w	w	n/a
317.245	0.1055	634490	keystroke_i	i	n/a
317.3655	0.075	634731	keystroke_s	s	n/a
317.4855	0.135	634971	keystroke_o	o	n/a
317.5605	0.12	635121	keystroke_n	n	n/a
318.775	0.09	637550	keystroke_s	s	n/a
318.866	0.119	637732	keystroke_i	i	n/a
318.925	0.09	637850	keystroke_n	n	n/a
319.12	0.105	638240	keystroke_Key.enter	Key.enter	n/a
319.2305	9.311	638461	prompt	n/a	disabilities hundreds tall leading\n
319.945	0.09	639890	keystroke_d	d	n/a
320.17	0.0755	640340	keystroke_s	s	n/a
320.4255	0.09	640851	keystroke_i	i	n/a
320.6055	0.045	641211	keystroke_b	b	n/a
321.2355	0.105	642471	keystroke_Key.backspace	Key.backspace	n/a
321.4005	0.12	642801	keystroke_a	a	n/a
321.5945	0.046	643189	keystroke_Key.backspace	Key.backspace	n/a
321.7445	0.061	643489	keystroke_Key.backspace	Key.backspace	n/a
321.8655	0.074	643731	keystroke_Key.backspace	Key.backspace	n/a
322.1955	0.075	644391	keystroke_i	i	n/a
322.3755	0.075	644751	keystroke_s	s	n/a
323.035	0.135	646070	keystroke_a	a	n/a
323.395	0.075	646790	keystroke_b	b	n/a
323.515	0.061	647030	keystroke_i	i	n/a
323.68	0.075	647360	keystroke_l	l	n/a
323.86	0.06	647720	keystroke_i	i	n/a
323.95	0.09	647900	keystroke_t	t	n/a
324.041	0.1045	648082	keystroke_i	i	n/a
324.1755	0.075	648351	keystroke_e	e	n/a
324.3405	0.09	648681	keystroke_s	s	n/a
324.4455	0.105	648891	keystroke_Key.space	Key.space	n/a
324.8805	0.09	649761	keystroke_h	h	n/a
324.9405	0.15	649881	keystroke_u	u	n/a
325.0755	0.105	650151	keystroke_n	n	n/a
325.1355	0.0895	650271	keystroke_f	f	n/a
325.5255	0.075	651051	keystroke_Key.backspace	Key.backspace	n/a
325.6455	0.12	651291	keystroke_d	d	n/a
325.9005	0.1195	651801	keystroke_r	r	n/a
325.9755	0.0895	651951	keystroke_e	e	n/a
326.17	0.105	652340	keystroke_s	s	n/a
326.545	0.0755	653090	keystroke_Key.backspace	Key.backspace	n/a
326.6655	0.135	653331	keystroke_d	d	n/a
326.7405	0.105	653481	keystroke_s	s	n/a
326.875	0.09	653750	keystroke_Key.space	Key.space	n/a
327.145	0.09	654290	keystroke_t	t	n/a
327.31	0.075	654620	keystroke_a	a	n/a
327.386	0.044	654772	keystroke_l	l	n/a
327.505	0.09	655010	keystroke_l	l	n/a
327.58	0.06	655160	keystroke_Key.space	Key.space	n/a
327.775	0.06	655550	keystroke_l	l	n/a
327.82	0.075	655640	keystroke_e	e	n/a
327.97	0.12	655940	keystroke_a	a	n/a
328.045	0.09	656090	keystroke_d	d	n/a
328.15	0.1045	656300	keystroke_i	i	n/a
328.195	0.1055	656390	keystroke_n	n	n/a
328.2845	0.061	656569	keystroke_g	g	n/a
328.4355	0.105	656871	keystroke_Key.enter	Key.enter	n/a
328.544	12.5375	657088	prompt	n/a	block childrens similarly acne\n
329.515	0.075	659030	keystroke_b	b	n/a
329.575	0.075	659150	keystroke_l	l	n/a
329.755	0.075	659510	keystroke_o	o	n/a
329.935	0.09	659870	keystroke_c	c	n/a
330.04	0.09	660080	keystroke_k	k	n/a
330.16	0.105	660320	keystroke_Key.space	Key.space	n/a
331.105	0.09	662210	keystroke_c	c	n/a
331.195	0.105	662390	keystroke_h	h	n/a
331.255	0.105	662510	keystroke_i	i	n/a
331.45	0.105	662900	keystroke_l	l	n/a
331.54	0.09	663080	keystroke_d	d	n/a
331.765	0.105	663530	keystroke_r	r	n/a
331.81	0.09	663620	keystroke_e	e	n/a
331.975	0.105	663950	keystroke_n	n	n/a
332.02	0.03	664040	keystroke_s	s	n/a
332.965	0.105	665930	keystroke_Key.space	Key.space	n/a
333.205	0.09	666410	keystroke_s	s	n/a
333.28	0.135	666560	keystroke_i	i	n/a
333.355	0.12	666710	keystroke_m	m	n/a
333.505	0.075	667010	keystroke_i	i	n/a
334.045	0.075	668090	keystroke_Key.backspace	Key.backspace	n/a
334.405	0.075	668810	keystroke_Key.backspace	Key.backspace	n/a
334.5855	0.09	669171	keystroke_Key.backspace	Key.backspace	n/a
334.7805	0.089	669561	keystroke_Key.backspace	Key.backspace	n/a
334.9745	0.1205	669949	keystroke_Key.backspace	Key.backspace	n/a
336.8055	0.09	673611	keystroke_Key.space	Key.space	n/a
337.4805	0.12	674961	keystroke_s	s	n/a
337.6305	0.105	675261	keystroke_i	i	n/a
337.6755	0.135	675351	keystroke_m	m	n/a
337.8255	0.075	675651	keystroke_i	i	n/a
339.055	0.105	678110	keystroke_l	l	n/a
339.175	0.12	678350	keystroke_a	a	n/a
339.25	0.105	678500	keystroke_r	r	n/a
339.52	0.09	679040	keystroke_l	l	n/a
339.655	0.075	679310	keystroke_y	y	n/a
339.775	0.09	679550	keystroke_Key.space	Key.space	n/a
340.375	0.09	680750	keystroke_a	a	n/a
340.615	0.09	681230	keystroke_c	c	n/a
340.735	0.09	681470	keystroke_n	n	n/a
340.84	0.045	681680	keystroke_e	e	n/a
340.975	0.105	681950	keystroke_Key.enter	Key.enter	n/a
341.0865	6.88	682173	prompt	n/a	adipex small competitors closed\n
342.1	0.135	684200	keystroke_a	a	n/a
342.175	0.105	684350	keystroke_d	d	n/a
342.34	0.105	684680	keystroke_i	i	n/a
342.55	0.09	685100	keystroke_p	p	n/a
342.685	0.075	685370	keystroke_e	e	n/a
342.925	0.105	685850	keystroke_x	x	n/a
343.045	0.12	686090	keystroke_Key.space	Key.space	n/a
343.48	0.105	686960	keystroke_s	s	n/a
343.585	0.09	687170	keystroke_m	m	n/a
343.75	0.105	687500	keystroke_a	a	n/a
343.96	0.0605	687920	keystroke_l	l	n/a
344.1095	0.09	688219	keystroke_l	l	n/a
344.5145	0.1055	689029	keystroke_Key.space	Key.space	n/a
345.145	0.09	690290	keystroke_c	c	n/a
345.205	0.105	690410	keystroke_o	o	n/a
345.28	0.105	690560	keystroke_m	m	n/a
345.415	0.105	690830	keystroke_p	p	n/a
345.505	0.135	691010	keystroke_e	e	n/a
345.595	0.09	691190	keystroke_t	t	n/a
345.73	0.12	691460	keystroke_i	i	n/a
345.79	0.075	691580	keystroke_t	t	n/a
345.97	0.135	691940	keystroke_o	o	n/a
346.225	0.105	692450	keystroke_r	r	n/a
346.405	0.105	692810	keystroke_s	s	n/a
346.525	0.0905	693050	keystroke_Key.space	Key.space	n/a
346.7505	0.075	693501	keystroke_c	c	n/a
346.9305	0.075	693861	keystroke_l	l	n/a
347.1255	0.075	694251	keystroke_o	o	n/a
347.2305	0.165	694461	keystroke_s	s	n/a
347.5605	0.0745	695121	keystroke_e	e	n/a
347.695	0.09	695390	keystroke_d	d	n/a
347.86	0.105	695720	keystroke_Key.enter	Key.enter	n/a
347.9695	5.652	695939	prompt	n/a	honest polish chart matches\n
348.82	0.09	697640	keystroke_h	h	n/a
348.895	0.18	697790	keystroke_o	o	n/a
349.03	0.105	698060	keystroke_n	n	n/a
349.12	0.12	698240	keystroke_e	e	n/a
349.195	0.09	698390	keystroke_s	s	n/a
349.405	0.075	698810	keystroke_t	t	n/a
349.51	0.12	699020	keystroke_Key.space	Key.space	n/a
349.81	0.135	699620	keystroke_p	p	n/a
350.1555	0.09	700311	keystroke_o	o	n/a
350.3805	0.0595	700761	keystroke_l	l	n/a
350.545	0.075	701090	keystroke_i	i	n/a
350.665	0.105	701330	keystroke_s	s	n/a
350.815	0.06	701630	keystroke_h	h	n/a
350.95	0.075	701900	keystroke_Key.space	Key.space	n/a
351.5505	0.105	703101	keystroke_c	c	n/a
351.6855	0.09	703371	keystroke_h	h	n/a
351.7755	0.1195	703551	keystroke_a	a	n/a
351.8505	0.1045	703701	keystroke_r	r	n/a
352.06	0.075	704120	keystroke_t	t	n/a
352.165	0.09	704330	keystroke_Key.space	Key.space	n/a
352.45	0.075	704900	keystroke_m	m	n/a
352.555	0.1045	705110	keystroke_a	a	n/a
352.8255	0.06	705651	keystroke_t	t	n/a
353.0355	0.06	706071	keystroke_c	c	n/a
353.1105	0.075	706221	keystroke_h	h	n/a
353.2905	0.12	706581	keystroke_e	e	n/a
353.3955	0.105	706791	keystroke_s	s	n/a
353.5305	0.09	707061	keystroke_Key.enter	Key.enter	n/a
353.625	7.3765	707250	prompt	n/a	cabinet shooting entrepreneur rising\n
354.6405	0.105	709281	keystroke_c	c	n/a
354.7305	0.105	709461	keystroke_a	a	n/a
354.8655	0.09	709731	keystroke_b	b	n/a
355.0155	0.134	710031	keystroke_i	i	n/a
355.0745	0.12	710149	keystroke_n	n	n/a
355.2095	0.1055	710419	keystroke_e	e	n/a
355.36	0.09	710720	keystroke_t	t	n/a
355.4955	0.12	710991	keystroke_Key.space	Key.space	n/a
355.81	0.075	711620	keystroke_s	s	n/a
355.855	0.076	711710	keystroke_h	h	n/a
355.99	0.09	711980	keystroke_o	o	n/a
356.14	0.105	712280	keystroke_o	o	n/a
356.26	0.09	712520	keystroke_t	t	n/a
356.38	0.075	712760	keystroke_i	i	n/a
356.395	0.09	712790	keystroke_n	n	n/a
356.47	0.075	712940	keystroke_g	g	n/a
356.56	0.105	713120	keystroke_Key.space	Key.space	n/a
356.71	0.105	713420	keystroke_e	e	n/a
356.83	0.09	713660	keystroke_n	n	n/a
356.935	0.165	713870	keystroke_t	t	n/a
357.025	0.18	714050	keystroke_r	r	n/a
357.265	0.075	714530	keystroke_e	e	n/a
357.88	0.09	715760	keystroke_p	p	n/a
358.135	0.105	716270	keystroke_e	e	n/a
358.5555	0.105	717111	keystroke_Key.backspace	Key.backspace	n/a
358.7655	0.045	717531	keystroke_Key.backspace	Key.backspace	n/a
359.41	0.09	718820	keystroke_p	p	n/a
359.515	0.1505	719030	keystroke_r	r	n/a
359.5895	0.121	719179	keystroke_e	e	n/a
359.7845	0.091	719569	keystroke_n	n	n/a
360.5355	0.1045	721071	keystroke_e	e	n/a
360.67	0.105	721340	keystroke_u	u	n/a
360.76	0.09	721520	keystroke_r	r	n/a
360.895	0.105	721790	keystroke_Key.enter	Key.enter	n/a
361.004	6.2675	722008	prompt	n/a	broader protocol pastor literature\n
362.14	0.12	724280	keystroke_b	b	n/a
362.245	0.0905	724490	keystroke_r	r	n/a
362.3505	0.09	724701	keystroke_o	o	n/a
362.4555	0.1345	724911	keystroke_a	a	n/a
362.545	0.12	725090	keystroke_d	d	n/a
362.83	0.105	725660	keystroke_e	e	n/a
362.89	0.09	725780	keystroke_r	r	n/a
363.01	0.09	726020	keystroke_Key.space	Key.space	n/a
363.205	0.075	726410	keystroke_p	p	n/a
363.295	0.105	726590	keystroke_r	r	n/a
363.445	0.045	726890	keystroke_o	o	n/a
363.52	0.09	727040	keystroke_t	t	n/a
363.611	0.0745	727222	keystroke_o	o	n/a
363.8055	0.09	727611	keystroke_c	c	n/a
363.9405	0.09	727881	keystroke_o	o	n/a
364.1655	0.09	728331	keystroke_l	l	n/a
364.3305	0.105	728661	keystroke_Key.space	Key.space	n/a
364.5405	0.1045	729081	keystroke_p	p	n/a
364.66	0.135	729320	keystroke_a	a	n/a
364.735	0.105	729470	keystroke_s	s	n/a
364.96	0.045	729920	keystroke_t	t	n/a
365.125	0.09	730250	keystroke_o	o	n/a
365.26	0.1205	730520	keystroke_r	r	n/a
365.4555	0.105	730911	keystroke_Key.space	Key.space	n/a
365.6805	0.075	731361	keystroke_l	l	n/a
365.89	0.075	731780	keystroke_i	i	n/a
365.995	0.105	731990	keystroke_t	t	n/a
366.205	0.12	732410	keystroke_e	e	n/a
366.265	0.12	732530	keystroke_r	r	n/a
366.43	0.105	732860	keystroke_a	a	n/a
366.52	0.1055	733040	keystroke_t	t	n/a
366.7155	0.09	733431	keystroke_u	u	n/a
366.8655	0.165	733731	keystroke_r	r	n/a
366.9705	0.105	733941	keystroke_e	e	n/a
367.1655	0.105	734331	keystroke_Key.enter	Key.enter	n/a
367.2765	8.035	734553	prompt	n/a	bother total must've booty\n
367.9445	0.09	735889	keystroke_b	b	n/a
368.0945	0.105	736189	keystroke_o	o	n/a
368.2445	0.105	736489	keystroke_t	t	n/a
368.2895	0.09	736579	keystroke_h	h	n/a
368.4845	0.1055	736969	keystroke_e	e	n/a
368.5445	0.09	737089	keystroke_r	r	n/a
368.605	0.09	737210	keystroke_Key.space	Key.space	n/a
368.7395	0.105	737479	keystroke_o	o	n/a
368.7695	0.0605	737539	keystroke_t	t	n/a
368.95	0.0595	737900	keystroke_t	t	n/a
368.965	0.0745	737930	keystroke_o	o	n/a
369.16	0.06	738320	keystroke_l	l	n/a
369.19	0.09	738380	keystroke_a	a	n/a
369.685	0.075	739370	keystroke_Key.backspace	Key.backspace	n/a
369.835	0.06	739670	keystroke_Key.backspace	Key.backspace	n/a
369.955	0.075	739910	keystroke_Key.backspace	Key.backspace	n/a
370.09	0.06	740180	keystroke_Key.backspace	Key.backspace	n/a
370.195	0.12	740390	keystroke_Key.backspace	Key.backspace	n/a
370.45	0.105	740900	keystroke_Key.backspace	Key.backspace	n/a
370.9305	0.075	741861	keystroke_t	t	n/a
371.0205	0.104	742041	keystroke_o	o	n/a
371.1095	0.076	742219	keystroke_t	t	n/a
371.2905	0.105	742581	keystroke_a	a	n/a
371.4255	0.075	742851	keystroke_l	l	n/a
371.5455	0.0745	743091	keystroke_Key.space	Key.space	n/a
371.92	0.075	743840	keystroke_m	m	n/a
372.145	0.09	744290	keystroke_u	u	n/a
372.295	0.075	744590	keystroke_s	s	n/a
372.46	0.06	744920	keystroke_t	t	n/a
373.2245	0.06	746449	keystroke_'	'	n/a
373.5095	0.12	747019	keystroke_v	v	n/a
373.5695	0.105	747139	keystroke_e	e	n/a
373.6755	0.089	747351	keystroke_Key.space	Key.space	n/a
374.4695	0.1055	748939	keystroke_b	b	n/a
374.6205	0.1045	749241	keystroke_o	o	n/a
374.8	0.105	749600	keystroke_o	o	n/a
374.995	0.12	749990	keystroke_t	t	n/a
375.07	0.09	750140	keystroke_y	y	n/a
375.19	0.12	750380	keystroke_Key.enter	Key.enter	n/a
375.314	13.0025	750628	prompt	n/a	plug experiencing anxiety reunion\n
376.1355	0.12	752271	keystroke_p	p	n/a
376.1955	0.075	752391	keystroke_l	l	n/a
376.4655	0.09	752931	keystroke_u	u	n/a
376.57	0.09	753140	keystroke_g	g	n/a
376.825	0.075	753650	keystroke_Key.space	Key.space	n/a
377.305	0.09	754610	keystroke_e	e	n/a
377.545	0.09	755090	keystroke_x	x	n/a
377.68	0.105	755360	keystroke_p	p	n/a
377.86	0.135	755720	keystroke_r	r	n/a
377.875	0.09	755750	keystroke_e	e	n/a
378.715	0.075	757430	keystroke_Key.backspace	Key.backspace	n/a
378.85	0.09	757700	keystroke_Key.backspace	Key.backspace	n/a
379	0.135	758000	keystroke_e	e	n/a
379.09	0.12	758180	keystroke_r	r	n/a
379.345	0.09	758690	keystroke_i	i	n/a
379.54	0.06	759080	keystroke_e	e	n/a
380.23	0.105	760460	keystroke_Key.backspace	Key.backspace	n/a
380.4395	0.075	760879	keystroke_a	a	n/a
380.5295	0.0905	761059	keystroke_n	n	n/a
380.665	0.09	761330	keystroke_c	c	n/a
381.205	0.06	762410	keystroke_Key.backspace	Key.backspace	n/a
381.34	0.0595	762680	keystroke_Key.backspace	Key.backspace	n/a
381.4445	0.09	762889	keystroke_Key.backspace	Key.backspace	n/a
381.5645	0.15	763129	keystroke_e	e	n/a
382.4945	0.105	764989	keystroke_n	n	n/a
382.6145	0.09	765229	keystroke_c	c	n/a
382.765	0.135	765530	keystroke_i	i	n/a
382.825	0.105	765650	keystroke_n	n	n/a
382.915	0.075	765830	keystroke_g	g	n/a
383.05	0.12	766100	keystroke_Key.space	Key.space	n/a
383.3645	0.09	766729	keystroke_a	a	n/a
383.4245	0.105	766849	keystroke_c	c	n/a
383.4555	0.119	766911	keystroke_n	n	n/a
384.2345	0.09	768469	keystroke_Key.backspace	Key.backspace	n/a
384.3695	0.075	768739	keystroke_x	x	n/a
384.955	0.0595	769910	keystroke_Key.backspace	Key.backspace	n/a
385.0895	0.06	770179	keystroke_Key.backspace	Key.backspace	n/a
385.2845	0.09	770569	keystroke_n	n	n/a
385.4045	0.045	770809	keystroke_x	x	n/a
385.9305	0.074	771861	keystroke_i	i	n/a
386.0345	0.121	772069	keystroke_e	e	n/a
386.2595	0.091	772519	keystroke_t	t	n/a
386.4555	0.059	772911	keystroke_y	y	n/a
386.56	0.09	773120	keystroke_Key.space	Key.space	n/a
386.9945	0.12	773989	keystroke_r	r	n/a
387.0545	0.105	774109	keystroke_e	e	n/a
387.2795	0.18	774559	keystroke_u	u	n/a
387.3995	0.105	774799	keystroke_n	n	n/a
387.6845	0.09	775369	keystroke_i	i	n/a
387.7895	0.135	775579	keystroke_o	o	n/a
387.8795	0.105	775759	keystroke_n	n	n/a
388.21	0.105	776420	keystroke_Key.enter	Key.enter	n/a
388.328	6.5135	776656	prompt	n/a	ourselves fever yards usually\n
389.2295	0.105	778459	keystroke_o	o	n/a
389.2745	0.105	778549	keystroke_u	u	n/a
389.3195	0.075	778639	keystroke_r	r	n/a
389.5595	0.0755	779119	keystroke_s	s	n/a
389.755	0.09	779510	keystroke_e	e	n/a
389.875	0.105	779750	keystroke_l	l	n/a
389.995	0.09	779990	keystroke_v	v	n/a
390.07	0.105	780140	keystroke_e	e	n/a
390.28	0.1045	780560	keystroke_s	s	n/a
390.3695	0.105	780739	keystroke_Key.space	Key.space	n/a
390.8355	0.1045	781671	keystroke_f	f	n/a
390.955	0.09	781910	keystroke_e	e	n/a
391.15	0.09	782300	keystroke_v	v	n/a
391.3595	0.105	782719	keystroke_e	e	n/a
391.4045	0.105	782809	keystroke_r	r	n/a
391.4945	0.105	782989	keystroke_Key.space	Key.space	n/a
392.0645	0.06	784129	keystroke_a	a	n/a
392.4545	0.09	784909	keystroke_Key.backspace	Key.backspace	n/a
392.725	0.06	785450	keystroke_y	y	n/a
392.83	0.12	785660	keystroke_a	a	n/a
392.995	0.09	785990	keystroke_r	r	n/a
393.205	0.135	786410	keystroke_d	d	n/a
393.295	0.105	786590	keystroke_s	s	n/a
393.37	0.105	786740	keystroke_Key.space	Key.space	n/a
393.655	0.09	787310	keystroke_u	u	n/a
393.76	0.12	787520	keystroke_s	s	n/a
393.865	0.105	787730	keystroke_u	u	n/a
393.97	0.105	787940	keystroke_a	a	n/a
394.135	0.075	788270	keystroke_l	l	n/a
394.27	0.06	788540	keystroke_l	l	n/a
394.345	0.09	788690	keystroke_y	y	n/a
394.4495	0.09	788899	keystroke_Key.space	Key.space	n/a
394.7495	0.09	789499	keystroke_Key.enter	Key.enter	n/a
394.844	10.1675	789688	prompt	n/a	peru antique cohen flesh\n
395.62	0.105	791240	keystroke_p	p	n/a
395.83	0.135	791660	keystroke_e	e	n/a
395.905	0.105	791810	keystroke_r	r	n/a
396.295	0.09	792590	keystroke_u	u	n/a
396.415	0.12	792830	keystroke_Key.space	Key.space	n/a
396.8495	0.09	793699	keystroke_a	a	n/a
396.9545	0.105	793909	keystroke_n	n	n/a
397.135	0.06	794270	keystroke_t	t	n/a
397.3	0.045	794600	keystroke_i	i	n/a
398.0645	0.105	796129	keystroke_w	w	n/a
398.1395	0.1205	796279	keystroke_u	u	n/a
398.35	0.105	796700	keystroke_Key.space	Key.space	n/a
398.905	0.09	797810	keystroke_Key.backspace	Key.backspace	n/a
399.055	0.0895	798110	keystroke_Key.backspace	Key.backspace	n/a
399.3545	0.12	798709	keystroke_Key.backspace	Key.backspace	n/a
400.4645	0.09	800929	keystroke_q	q	n/a
400.5395	0.0755	801079	keystroke_u	u	n/a
400.72	0.09	801440	keystroke_e	e	n/a
400.87	0.075	801740	keystroke_Key.space	Key.space	n/a
403.0465	0.013	806093	keystroke_c	c	n/a
403.0745	0.1655	806149	keystroke_o	o	n/a
403.1795	0.1055	806359	keystroke_h	h	n/a
403.315	0.105	806630	keystroke_e	e	n/a
403.435	0.09	806870	keystroke_n	n	n/a
403.57	0.105	807140	keystroke_Key.space	Key.space	n/a
404.185	0.06	808370	keystroke_f	f	n/a
404.245	0.09	808490	keystroke_l	l	n/a
404.32	0.105	808640	keystroke_e	e	n/a
404.59	0.12	809180	keystroke_s	s	n/a
404.6945	0.0905	809389	keystroke_h	h	n/a
404.95	0.06	809900	keystroke_Key.enter	Key.enter	n/a
405.0235	8.343	810047	prompt	n/a	hdtv mike deposit packaging\n
406.615	0.1045	813230	keystroke_h	h	n/a
406.7345	0.06	813469	keystroke_d	d	n/a
406.9895	0.06	813979	keystroke_t	t	n/a
407.2445	0.0605	814489	keystroke_v	v	n/a
407.35	0.075	814700	keystroke_Key.space	Key.space	n/a
407.5595	0.06	815119	keystroke_m	m	n/a
407.8145	0.06	815629	keystroke_i	i	n/a
407.9795	0.09	815959	keystroke_k	k	n/a
408.0845	0.09	816169	keystroke_e	e	n/a
408.1595	0.105	816319	keystroke_Key.space	Key.space	n/a
408.3245	0.09	816649	keystroke_d	d	n/a
408.5195	0.09	817039	keystroke_e	e	n/a
408.745	0.165	817490	keystroke_p	p	n/a
408.805	0.15	817610	keystroke_o	o	n/a
409.555	0.075	819110	keystroke_s	s	n/a
409.705	0.09	819410	keystroke_i	i	n/a
409.825	0.105	819650	keystroke_t	t	n/a
410.02	0.06	820040	keystroke_Key.space	Key.space	n/a
410.245	0.075	820490	keystroke_p	p	n/a
410.35	0.1045	820700	keystroke_a	a	n/a
410.4245	0.12	820849	keystroke_c	c	n/a
410.4845	0.09	820969	keystroke_k	k	n/a
410.5895	0.09	821179	keystroke_a	a	n/a
410.7995	0.06	821599	keystroke_g	g	n/a
410.9495	0.135	821899	keystroke_i	i	n/a
411.0395	0.09	822079	keystroke_n	n	n/a
411.2495	0.105	822499	keystroke_f	f	n/a
411.8495	0.075	823699	keystroke_Key.backspace	Key.backspace	n/a
411.9995	0.075	823999	keystroke_Key.backspace	Key.backspace	n/a
412.1495	0.105	824299	keystroke_Key.backspace	Key.backspace	n/a
413.02	0.12	826040	keystroke_i	i	n/a
413.08	0.075	826160	keystroke_n	n	n/a
413.125	0.045	826250	keystroke_g	g	n/a
413.305	0.06	826610	keystroke_Key.enter	Key.enter	n/a
413.373	7.8985	826746	prompt	n/a	assumes colleagues guarantee thailand\n
414.16	0.135	828320	keystroke_a	a	n/a
414.25	0.06	828500	keystroke_s	s	n/a
414.385	0.12	828770	keystroke_s	s	n/a
414.46	0.1045	828920	keystroke_u	u	n/a
414.6695	0.09	829339	keystroke_m	m	n/a
414.7745	0.06	829549	keystroke_e	e	n/a
414.9395	0.075	829879	keystroke_s	s	n/a
415.0145	0.105	830029	keystroke_Key.space	Key.space	n/a
415.4195	0.075	830839	keystroke_c	c	n/a
415.5095	0.0905	831019	keystroke_o	o	n/a
415.6895	0.075	831379	keystroke_l	l	n/a
415.8095	0.06	831619	keystroke_l	l	n/a
415.8705	0.104	831741	keystroke_e	e	n/a
416.0195	0.12	832039	keystroke_a	a	n/a
416.1095	0.09	832219	keystroke_g	g	n/a
416.2445	0.105	832489	keystroke_u	u	n/a
416.3795	0.075	832759	keystroke_e	e	n/a
416.5295	0.105	833059	keystroke_s	s	n/a
416.6355	0.0745	833271	keystroke_Key.space	Key.space	n/a
417.34	0.135	834680	keystroke_h	h	n/a
417.73	0.059	835460	keystroke_Key.backspace	Key.backspace	n/a
417.835	0.09	835670	keystroke_g	g	n/a
417.94	0.09	835880	keystroke_u	u	n/a
418.06	0.105	836120	keystroke_a	a	n/a
418.195	0.135	836390	keystroke_r	r	n/a
418.285	0.105	836570	keystroke_e	e	n/a
418.375	0.12	836750	keystroke_n	n	n/a
418.48	0.12	836960	keystroke_t	t	n/a
418.57	0.105	837140	keystroke_e	e	n/a
418.765	0.105	837530	keystroke_e	e	n/a
419.005	0.09	838010	keystroke_Key.space	Key.space	n/a
419.515	0.135	839030	keystroke_t	t	n/a
419.59	0.09	839180	keystroke_h	h	n/a
419.8	0.09	839600	keystroke_a	a	n/a
419.905	0.06	839810	keystroke_i	i	n/a
420.085	0.06	840170	keystroke_l	l	n/a
420.1895	0.09	840379	keystroke_a	a	n/a
420.2805	0.104	840561	keystroke_n	n	n/a
420.3995	0.0755	840799	keystroke_d	d	n/a
421.195	0.0745	842390	keystroke_Key.enter	Key.enter	n/a
421.2835	14.6425	842567	prompt	n/a	color delhi ratio clocks\n
422.0795	0.0755	844159	keystroke_c	c	n/a
422.155	0.0745	844310	keystroke_o	o	n/a
422.32	0.075	844640	keystroke_l	l	n/a
422.485	0.0595	844970	keystroke_o	o	n/a
422.71	0.075	845420	keystroke_Key.space	Key.space	n/a
423.61	0.075	847220	keystroke_d	d	n/a
423.925	0.075	847850	keystroke_e	e	n/a
424.03	0.105	848060	keystroke_l	l	n/a
424.285	0.105	848570	keystroke_h	h	n/a
424.45	0.09	848900	keystroke_i	i	n/a
424.63	0.075	849260	keystroke_Key.space	Key.space	n/a
425.3945	0.135	850789	keystroke_r	r	n/a
425.4695	0.12	850939	keystroke_a	a	n/a
425.6345	0.075	851269	keystroke_t	t	n/a
425.7695	0.06	851539	keystroke_i	i	n/a
425.7845	0.09	851569	keystroke_o	o	n/a
425.9505	0.104	851901	keystroke_n	n	n/a
426.0695	0.09	852139	keystroke_Key.space	Key.space	n/a
427.0745	0.06	854149	keystroke_Key.backspace	Key.backspace	n/a
427.2245	0.0605	854449	keystroke_Key.backspace	Key.backspace	n/a
427.36	0.075	854720	keystroke_Key.backspace	Key.backspace	n/a
427.495	0.075	854990	keystroke_Key.backspace	Key.backspace	n/a
427.66	0.03	855320	keystroke_Key.backspace	Key.backspace	n/a
427.7495	0.075	855499	keystroke_Key.backspace	Key.backspace	n/a
427.8995	0.015	855799	keystroke_Key.backspace	Key.backspace	n/a
427.9745	0.0605	855949	keystroke_Key.backspace	Key.backspace	n/a
428.095	0.075	856190	keystroke_Key.backspace	Key.backspace	n/a
428.23	0.045	856460	keystroke_Key.backspace	Key.backspace	n/a
428.32	0.075	856640	keystroke_Key.backspace	Key.backspace	n/a
428.44	0.06	856880	keystroke_Key.backspace	Key.backspace	n/a
429.6695	0.06	859339	keystroke_o	o	n/a
429.7445	0.045	859489	keystroke_r	r	n/a
429.9545	0.045	859909	keystroke_Key.space	Key.space	n/a
430.5095	0.0755	861019	keystroke_d	d	n/a
430.69	0.075	861380	keystroke_e	e	n/a
430.795	0.06	861590	keystroke_l	l	n/a
431.29	0.075	862580	keystroke_h	h	n/a
431.32	0.09	862640	keystroke_i	i	n/a
431.425	0.09	862850	keystroke_Key.space	Key.space	n/a
431.92	0.12	863840	keystroke_r	r	n/a
432.01	0.12	864020	keystroke_a	a	n/a
432.175	0.075	864350	keystroke_t	t	n/a
432.265	0.12	864530	keystroke_i	i	n/a
432.34	0.09	864680	keystroke_o	o	n/a
432.55	0.06	865100	keystroke_n	n	n/a
432.58	0.075	865160	keystroke_Key.space	Key.space	n/a
433.4495	0.06	866899	keystroke_Key.backspace	Key.backspace	n/a
433.5995	0.06	867199	keystroke_Key.backspace	Key.backspace	n/a
433.9745	0.105	867949	keystroke_Key.space	Key.space	n/a
434.2595	0.106	868519	keystroke_c	c	n/a
434.3795	0.091	868759	keystroke_l	l	n/a
434.5895	0.061	869179	keystroke_o	o	n/a
434.6955	0.119	869391	keystroke_c	c	n/a
434.7995	0.091	869599	keystroke_k	k	n/a
434.9505	0.104	869901	keystroke_s	s	n/a
435.8495	0.0755	871699	keystroke_Key.enter	Key.enter	n/a
435.937	8.0595	871874	prompt	n/a	nova purple seems geography\n
437.455	0.12	874910	keystroke_n	n	n/a
437.5	0.105	875000	keystroke_o	o	n/a
437.59	0.105	875180	keystroke_v	v	n/a
437.62	0.15	875240	keystroke_a	a	n/a
437.755	0.105	875510	keystroke_Key.space	Key.space	n/a
438.07	0.09	876140	keystroke_p	p	n/a
438.505	0.09	877010	keystroke_u	u	n/a
438.625	0.09	877250	keystroke_r	r	n/a
438.745	0.165	877490	keystroke_p	p	n/a
439.24	0.075	878480	keystroke_l	l	n/a
439.345	0.105	878690	keystroke_e	e	n/a
439.495	0.105	878990	keystroke_Key.space	Key.space	n/a
439.765	0.09	879530	keystroke_s	s	n/a
439.975	0.075	879950	keystroke_e	e	n/a
440.11	0.09	880220	keystroke_e	e	n/a
440.2305	0.0745	880461	keystroke_m	m	n/a
440.32	0.09	880640	keystroke_s	s	n/a
440.41	0.105	880820	keystroke_Key.space	Key.space	n/a
440.8445	0.12	881689	keystroke_g	g	n/a
440.8895	0.12	881779	keystroke_e	e	n/a
440.9795	0.105	881959	keystroke_o	o	n/a
441.1895	0.12	882379	keystroke_r	r	n/a
441.2495	0.105	882499	keystroke_g	g	n/a
442.2245	0.045	884449	keystroke_Key.backspace	Key.backspace	n/a
442.3745	0.0755	884749	keystroke_Key.backspace	Key.backspace	n/a
442.4795	0.151	884959	keystroke_g	g	n/a
442.5395	0.121	885079	keystroke_r	r	n/a
442.96	0.12	885920	keystroke_a	a	n/a
443.11	0.09	886220	keystroke_p	p	n/a
443.6195	0.06	887239	keystroke_h	h	n/a
443.7995	0.03	887599	keystroke_y	y	n/a
443.9345	0.06	887869	keystroke_Key.enter	Key.enter	n/a
444	9.341	888000	prompt	n/a	looksmart dividend robbie audio\n
444.7895	0.09	889579	keystroke_l	l	n/a
445.0145	0.075	890029	keystroke_o	o	n/a
445.1645	0.105	890329	keystroke_o	o	n/a
445.3145	0.12	890629	keystroke_k	k	n/a
445.4645	0.1055	890929	keystroke_s	s	n/a
445.629	0.091	891258	keystroke_m	m	n/a
445.735	0.089	891470	keystroke_a	a	n/a
446.094	0.12	892188	keystroke_r	r	n/a
446.154	0.136	892308	keystroke_t	t	n/a
446.274	0.105	892548	keystroke_Key.space	Key.space	n/a
446.8595	0.075	893719	keystroke_d	d	n/a
446.9645	0.105	893929	keystroke_i	i	n/a
447.2945	0.075	894589	keystroke_v	v	n/a
447.4145	0.105	894829	keystroke_i	i	n/a
447.7745	0.091	895549	keystroke_d	d	n/a
447.9845	0.1055	895969	keystroke_e	e	n/a
448.105	0.075	896210	keystroke_n	n	n/a
448.87	0.12	897740	keystroke_d	d	n/a
449.05	0.1045	898100	keystroke_Key.space	Key.space	n/a
449.4245	0.075	898849	keystroke_r	r	n/a
449.545	0.09	899090	keystroke_o	o	n/a
449.935	0.045	899870	keystroke_b	b	n/a
450.085	0.09	900170	keystroke_b	b	n/a
450.28	0.09	900560	keystroke_i	i	n/a
450.445	0.09	900890	keystroke_e	e	n/a
451.435	0.09	902870	keystroke_Key.space	Key.space	n/a
451.8245	0.15	903649	keystroke_a	a	n/a
452.0045	0.12	904009	keystroke_u	u	n/a
452.1095	0.105	904219	keystroke_d	d	n/a
452.44	0.1345	904880	keystroke_i	i	n/a
452.5	0.1195	905000	keystroke_o	o	n/a
453.2195	0.12	906439	keystroke_Key.enter	Key.enter	n/a
453.345	7.946	906690	prompt	n/a	veterans policy authorized matched\n
454.2395	0.105	908479	keystroke_v	v	n/a
454.3745	0.135	908749	keystroke_e	e	n/a
454.555	0.12	909110	keystroke_t	t	n/a
454.705	0.12	909410	keystroke_e	e	n/a
454.78	0.09	909560	keystroke_r	r	n/a
454.93	0.09	909860	keystroke_a	a	n/a
455.035	0.105	910070	keystroke_n	n	n/a
455.155	0.12	910310	keystroke_s	s	n/a
455.26	0.075	910520	keystroke_Key.space	Key.space	n/a
455.5	0.1495	911000	keystroke_p	p	n/a
455.5595	0.12	911119	keystroke_o	o	n/a
455.7545	0.09	911509	keystroke_l	l	n/a
455.9495	0.06	911899	keystroke_i	i	n/a
456.0545	0.12	912109	keystroke_c	c	n/a
456.475	0.015	912950	keystroke_u	u	n/a
457.015	0.105	914030	keystroke_Key.backspace	Key.backspace	n/a
457.135	0.09	914270	keystroke_y	y	n/a
457.3	0.09	914600	keystroke_Key.space	Key.space	n/a
457.8545	0.1205	915709	keystroke_a	a	n/a
458.019	0.075	916038	keystroke_u	u	n/a
458.155	0.119	916310	keystroke_t	t	n/a
458.23	0.105	916460	keystroke_h	h	n/a
458.395	0.09	916790	keystroke_o	o	n/a
458.515	0.0895	917030	keystroke_r	r	n/a
458.6495	0.105	917299	keystroke_i	i	n/a
459.175	0.105	918350	keystroke_z	z	n/a
459.415	0.075	918830	keystroke_e	e	n/a
459.58	0.09	919160	keystroke_d	d	n/a
459.655	0.105	919310	keystroke_Key.space	Key.space	n/a
460.24	0.075	920480	keystroke_m	m	n/a
460.315	0.09	920630	keystroke_a	a	n/a
460.45	0.06	920900	keystroke_t	t	n/a
460.6445	0.06	921289	keystroke_c	c	n/a
460.7345	0.075	921469	keystroke_h	h	n/a
460.8245	0.09	921649	keystroke_e	e	n/a
461.0045	0.105	922009	keystroke_d	d	n/a
461.1845	0.105	922369	keystroke_Key.enter	Key.enter	n/a
461.2935	7.4825	922587	prompt	n/a	pete fonts glasgow sperm\n
462.0845	0.075	924169	keystroke_p	p	n/a
462.1745	0.09	924349	keystroke_e	e	n/a
462.2795	0.15	924559	keystroke_t	t	n/a
462.3845	0.12	924769	keystroke_e	e	n/a
462.5945	0.09	925189	keystroke_Key.space	Key.space	n/a
463.4645	0.09	926929	keystroke_f	f	n/a
463.5395	0.12	927079	keystroke_o	o	n/a
463.6295	0.09	927259	keystroke_n	n	n/a
463.7045	0.075	927409	keystroke_t	t	n/a
463.8845	0.105	927769	keystroke_s	s	n/a
464.0045	0.105	928009	keystroke_Key.space	Key.space	n/a
464.7245	0.09	929449	keystroke_g	g	n/a
464.8295	0.09	929659	keystroke_l	l	n/a
464.9205	0.149	929841	keystroke_a	a	n/a
465.0245	0.09	930049	keystroke_s	s	n/a
465.3995	0.075	930799	keystroke_g	g	n/a
465.55	0.12	931100	keystroke_o	o	n/a
465.6995	0.09	931399	keystroke_w	w	n/a
465.8645	0.12	931729	keystroke_Key.space	Key.space	n/a
466.615	0.075	933230	keystroke_s	s	n/a
466.72	0.09	933440	keystroke_p	p	n/a
466.855	0.105	933710	keystroke_e	e	n/a
466.915	0.09	933830	keystroke_r	r	n/a
467.02	0.09	934040	keystroke_m	m	n/a
468.6545	0.12	937309	keystroke_Key.enter	Key.enter	n/a
468.7785	10.3325	937557	prompt	n/a	guru seas historical most\n
469.9595	0.1205	939919	keystroke_g	g	n/a
470.155	0.09	940310	keystroke_u	u	n/a
470.32	0.09	940640	keystroke_r	r	n/a
470.395	0.09	940790	keystroke_u	u	n/a
470.62	0.09	941240	keystroke_Key.space	Key.space	n/a
471.1	0.105	942200	keystroke_s	s	n/a
472.1795	0.09	944359	keystroke_e	e	n/a
472.2845	0.18	944569	keystroke_a	a	n/a
472.3745	0.105	944749	keystroke_s	s	n/a
472.4945	0.105	944989	keystroke_Key.space	Key.space	n/a
473.0045	0.12	946009	keystroke_h	h	n/a
473.0945	0.105	946189	keystroke_i	i	n/a
473.1545	0.105	946309	keystroke_s	s	n/a
473.4095	0.135	946819	keystroke_t	t	n/a
473.4845	0.105	946969	keystroke_r	r	n/a
473.5595	0.09	947119	keystroke_o	o	n/a
473.7845	0.075	947569	keystroke_i	i	n/a
473.8445	0.12	947689	keystroke_c	c	n/a
473.9795	0.0905	947959	keystroke_a	a	n/a
474.115	0.09	948230	keystroke_l	l	n/a
474.175	0.12	948350	keystroke_Key.space	Key.space	n/a
474.3845	0.105	948769	keystroke_m	m	n/a
474.5345	0.1055	949069	keystroke_o	o	n/a
474.625	0.12	949250	keystroke_s	s	n/a
474.73	0.09	949460	keystroke_t	t	n/a
475.614	0.09	951228	keystroke_Key.backspace	Key.backspace	n/a
475.794	0.075	951588	keystroke_Key.backspace	Key.backspace	n/a
475.974	0.06	951948	keystroke_Key.backspace	Key.backspace	n/a
476.109	0.06	952218	keystroke_Key.backspace	Key.backspace	n/a
476.274	0.06	952548	keystroke_Key.backspace	Key.backspace	n/a
476.439	0.075	952878	keystroke_Key.backspace	Key.backspace	n/a
476.6195	0.06	953239	keystroke_Key.backspace	Key.backspace	n/a
476.7695	0.06	953539	keystroke_Key.backspace	Key.backspace	n/a
476.919	0.075	953838	keystroke_Key.backspace	Key.backspace	n/a
477.084	0.09	954168	keystroke_Key.backspace	Key.backspace	n/a
477.234	0.105	954468	keystroke_Key.backspace	Key.backspace	n/a
477.819	0.075	955638	keystroke_o	o	n/a
477.909	0.075	955818	keystroke_r	r	n/a
478.014	0.075	956028	keystroke_i	i	n/a
478.119	0.105	956238	keystroke_c	c	n/a
478.194	0.075	956388	keystroke_a	a	n/a
478.284	0.075	956568	keystroke_l	l	n/a
478.404	0.075	956808	keystroke_Key.space	Key.space	n/a
478.539	0.091	957078	keystroke_m	m	n/a
478.69	0.0895	957380	keystroke_o	o	n/a
478.7645	0.12	957529	keystroke_s	s	n/a
478.8545	0.09	957709	keystroke_t	t	n/a
479.0345	0.075	958069	keystroke_Key.enter	Key.enter	n/a
479.1195	5.7665	958239	prompt	n/a	automotive moderate motor clone\n
479.8745	0.09	959749	keystroke_a	a	n/a
480.0995	0.09	960199	keystroke_u	u	n/a
480.2345	0.0905	960469	keystroke_t	t	n/a
480.355	0.105	960710	keystroke_o	o	n/a
480.76	0.09	961520	keystroke_m	m	n/a
480.895	0.105	961790	keystroke_o	o	n/a
481.015	0.075	962030	keystroke_t	t	n/a
481.135	0.105	962270	keystroke_i	i	n/a
481.285	0.135	962570	keystroke_v	v	n/a
481.375	0.105	962750	keystroke_e	e	n/a
481.45	0.09	962900	keystroke_Key.space	Key.space	n/a
481.66	0.075	963320	keystroke_m	m	n/a
481.72	0.09	963440	keystroke_o	o	n/a
481.795	0.12	963590	keystroke_d	d	n/a
481.99	0.12	963980	keystroke_e	e	n/a
482.05	0.12	964100	keystroke_r	r	n/a
482.215	0.105	964430	keystroke_a	a	n/a
482.305	0.12	964610	keystroke_t	t	n/a
482.44	0.09	964880	keystroke_e	e	n/a
482.515	0.1195	965030	keystroke_Key.space	Key.space	n/a
482.8295	0.12	965659	keystroke_m	m	n/a
482.9195	0.135	965839	keystroke_o	o	n/a
483.1445	0.105	966289	keystroke_t	t	n/a
483.2645	0.105	966529	keystroke_o	o	n/a
483.4595	0.06	966919	keystroke_r	r	n/a
483.745	0.12	967490	keystroke_Key.space	Key.space	n/a
484.105	0.105	968210	keystroke_c	c	n/a
484.195	0.075	968390	keystroke_l	l	n/a
484.39	0.12	968780	keystroke_o	o	n/a
484.465	0.12	968930	keystroke_n	n	n/a
484.57	0.105	969140	keystroke_e	e	n/a
484.795	0.09	969590	keystroke_Key.enter	Key.enter	n/a
484.897	6.409	969794	prompt	n/a	emission targeted howto mayor\n
485.6045	0.105	971209	keystroke_e	e	n/a
485.7245	0.06	971449	keystroke_m	m	n/a
485.9345	0.06	971869	keystroke_i	i	n/a
486.1295	0.075	972259	keystroke_s	s	n/a
486.2645	0.09	972529	keystroke_s	s	n/a
486.3395	0.075	972679	keystroke_i	i	n/a
486.3695	0.12	972739	keystroke_o	o	n/a
486.5345	0.105	973069	keystroke_n	n	n/a
486.6245	0.09	973249	keystroke_Key.space	Key.space	n/a
486.984	0.105	973968	keystroke_t	t	n/a
487.149	0.12	974298	keystroke_a	a	n/a
487.224	0.105	974448	keystroke_r	r	n/a
487.434	0.09	974868	keystroke_g	g	n/a
487.539	0.135	975078	keystroke_e	e	n/a
487.659	0.18	975318	keystroke_t	t	n/a
487.794	0.12	975588	keystroke_e	e	n/a
488.004	0.076	976008	keystroke_d	d	n/a
488.154	0.12	976308	keystroke_Key.space	Key.space	n/a
488.7245	0.15	977449	keystroke_h	h	n/a
488.8145	0.105	977629	keystroke_o	o	n/a
488.8895	0.075	977779	keystroke_w	w	n/a
489.0845	0.075	978169	keystroke_t	t	n/a
489.2345	0.09	978469	keystroke_o	o	n/a
489.3695	0.09	978739	keystroke_Key.space	Key.space	n/a
489.7295	0.09	979459	keystroke_m	m	n/a
489.8345	0.09	979669	keystroke_a	a	n/a
490.0745	0.045	980149	keystroke_y	y	n/a
490.2095	0.105	980419	keystroke_o	o	n/a
490.99	0.075	981980	keystroke_r	r	n/a
491.185	0.1195	982370	keystroke_Key.enter	Key.enter	n/a
491.3085	7.0925	982617	prompt	n/a	investments prospects coupled removal\n
492.2195	0.12	984439	keystroke_i	i	n/a
492.2795	0.105	984559	keystroke_n	n	n/a
492.3695	0.165	984739	keystroke_v	v	n/a
492.4445	0.12	984889	keystroke_e	e	n/a
492.6695	0.075	985339	keystroke_s	s	n/a
492.8045	0.075	985609	keystroke_t	t	n/a
492.9095	0.09	985819	keystroke_m	m	n/a
493.0145	0.09	986029	keystroke_e	e	n/a
493.1195	0.1055	986239	keystroke_n	n	n/a
493.21	0.075	986420	keystroke_t	t	n/a
493.345	0.105	986690	keystroke_s	s	n/a
493.435	0.09	986870	keystroke_Key.space	Key.space	n/a
493.63	0.074	987260	keystroke_p	p	n/a
493.72	0.09	987440	keystroke_r	r	n/a
493.825	0.075	987650	keystroke_o	o	n/a
493.975	0.12	987950	keystroke_s	s	n/a
494.08	0.09	988160	keystroke_p	p	n/a
494.455	0.1045	988910	keystroke_e	e	n/a
494.6195	0.105	989239	keystroke_c	c	n/a
494.8595	0.06	989719	keystroke_t	t	n/a
495.0095	0.105	990019	keystroke_s	s	n/a
495.1295	0.09	990259	keystroke_Key.space	Key.space	n/a
495.3095	0.0905	990619	keystroke_c	c	n/a
495.415	0.105	990830	keystroke_o	o	n/a
495.475	0.09	990950	keystroke_u	u	n/a
496.165	0.1195	992330	keystroke_p	p	n/a
496.2245	0.075	992449	keystroke_l	l	n/a
496.3745	0.105	992749	keystroke_e	e	n/a
496.6745	0.09	993349	keystroke_d	d	n/a
496.7795	0.09	993559	keystroke_Key.space	Key.space	n/a
497.214	0.1205	994428	keystroke_r	r	n/a
497.2895	0.09	994579	keystroke_e	e	n/a
497.3795	0.09	994759	keystroke_m	m	n/a
497.6495	0.09	995299	keystroke_o	o	n/a
497.7845	0.12	995569	keystroke_v	v	n/a
497.9195	0.075	995839	keystroke_a	a	n/a
498.0395	0.075	996079	keystroke_l	l	n/a
498.3245	0.075	996649	keystroke_Key.enter	Key.enter	n/a
498.4045	12.0415	996809	prompt	n/a	editors spectacular stop dist\n
499.119	0.09	998238	keystroke_e	e	n/a
499.299	0.075	998598	keystroke_d	d	n/a
499.359	0.09	998718	keystroke_i	i	n/a
499.509	0.06	999018	keystroke_t	t	n/a
499.614	0.09	999228	keystroke_o	o	n/a
499.689	0.105	999378	keystroke_r	r	n/a
499.839	0.12	999678	keystroke_s	s	n/a
499.944	0.105	999888	keystroke_Key.space	Key.space	n/a
500.44	0.075	1000880	keystroke_e	e	n/a
500.7545	0.09	1001509	keystroke_p	p	n/a
501.2045	0.0455	1002409	keystroke_Key.backspace	Key.backspace	n/a
501.3395	0.06	1002679	keystroke_Key.backspace	Key.backspace	n/a
501.4445	0.076	1002889	keystroke_s	s	n/a
501.58	0.074	1003160	keystroke_p	p	n/a
501.79	0.075	1003580	keystroke_e	e	n/a
502.315	0.089	1004630	keystroke_c	c	n/a
502.959	0.135	1005918	keystroke_t	t	n/a
503.199	0.15	1006398	keystroke_a	a	n/a
503.304	0.105	1006608	keystroke_t	t	n/a
503.709	0.06	1007418	keystroke_Key.backspace	Key.backspace	n/a
503.844	0.06	1007688	keystroke_Key.backspace	Key.backspace	n/a
504.4595	0.1205	1008919	keystroke_a	a	n/a
505.7495	0.105	1011499	keystroke_c	c	n/a
505.8395	0.075	1011679	keystroke_u	u	n/a
506.1845	0.075	1012369	keystroke_a	a	n/a
506.919	0.06	1013838	keystroke_l	l	n/a
507.189	0.09	1014378	keystroke_Key.backspace	Key.backspace	n/a
507.369	0.045	1014738	keystroke_Key.backspace	Key.backspace	n/a
507.444	0.105	1014888	keystroke_l	l	n/a
507.639	0.12	1015278	keystroke_a	a	n/a
507.714	0.105	1015428	keystroke_r	r	n/a
507.834	0.075	1015668	keystroke_Key.space	Key.space	n/a
508.314	0.075	1016628	keystroke_s	s	n/a
508.479	0.075	1016958	keystroke_t	t	n/a
508.5695	0.1505	1017139	keystroke_o	o	n/a
508.6445	0.0905	1017289	keystroke_p	p	n/a
508.7645	0.075	1017529	keystroke_Key.space	Key.space	n/a
509.0645	0.09	1018129	keystroke_d	d	n/a
509.9645	0.06	1019929	keystroke_i	i	n/a
510.0845	0.12	1020169	keystroke_s	s	n/a
510.1445	0.075	1020289	keystroke_t	t	n/a
510.3545	0.09	1020709	keystroke_Key.enter	Key.enter	n/a
510.4585	19.0525	1020917	prompt	n/a	hosted desperate overnight strengths\n
511.5095	0.105	1023019	keystroke_h	h	n/a
511.5845	0.105	1023169	keystroke_o	o	n/a
511.6595	0.15	1023319	keystroke_s	s	n/a
511.8105	0.179	1023621	keystroke_t	t	n/a
511.9595	0.075	1023919	keystroke_e	e	n/a
512.1095	0.105	1024219	keystroke_d	d	n/a
512.2295	0.1055	1024459	keystroke_Key.space	Key.space	n/a
512.44	0.09	1024880	keystroke_d	d	n/a
512.6495	0.12	1025299	keystroke_e	e	n/a
512.7545	0.105	1025509	keystroke_s	s	n/a
512.8745	0.105	1025749	keystroke_p	p	n/a
513.0245	0.105	1026049	keystroke_a	a	n/a
513.4295	0.15	1026859	keystroke_r	r	n/a
513.4895	0.1505	1026979	keystroke_e	e	n/a
513.88	0.045	1027760	keystroke_a	a	n/a
514.615	0.09	1029230	keystroke_Key.backspace	Key.backspace	n/a
514.765	0.09	1029530	keystroke_Key.backspace	Key.backspace	n/a
514.93	0.06	1029860	keystroke_Key.backspace	Key.backspace	n/a
515.08	0.075	1030160	keystroke_Key.backspace	Key.backspace	n/a
516.19	0.12	1032380	keystroke_e	e	n/a
516.265	0.059	1032530	keystroke_t	t	n/a
516.28	0.015	1032560	keystroke_r	r	n/a
516.6395	0.06	1033279	keystroke_Key.backspace	Key.backspace	n/a
516.7895	0.075	1033579	keystroke_Key.backspace	Key.backspace	n/a
517.5095	0.1505	1035019	keystroke_r	r	n/a
517.7645	0.12	1035529	keystroke_a	a	n/a
517.8855	0.134	1035771	keystroke_t	t	n/a
517.9895	0.09	1035979	keystroke_e	e	n/a
518.0645	0.105	1036129	keystroke_Key.space	Key.space	n/a
518.3495	0.075	1036699	keystroke_o	o	n/a
518.889	0.075	1037778	keystroke_Key.backspace	Key.backspace	n/a
518.979	0.1055	1037958	keystroke_v	v	n/a
519.2645	0.12	1038529	keystroke_e	e	n/a
519.3245	0.09	1038649	keystroke_r	r	n/a
519.5645	0.045	1039129	keystroke_Key.backspace	Key.backspace	n/a
519.6845	0.09	1039369	keystroke_Key.backspace	Key.backspace	n/a
519.9395	0.12	1039879	keystroke_Key.backspace	Key.backspace	n/a
520.2845	0.105	1040569	keystroke_o	o	n/a
520.4045	0.105	1040809	keystroke_v	v	n/a
520.5995	0.135	1041199	keystroke_e	e	n/a
520.6595	0.105	1041319	keystroke_r	r	n/a
520.8695	0.135	1041739	keystroke_n	n	n/a
521.0195	0.12	1042039	keystroke_i	i	n/a
521.1695	0.1195	1042339	keystroke_g	g	n/a
521.319	0.09	1042638	keystroke_j	j	n/a
521.424	0.09	1042848	keystroke_t	t	n/a
521.9945	0.075	1043989	keystroke_Key.backspace	Key.backspace	n/a
522.1445	0.0745	1044289	keystroke_Key.backspace	Key.backspace	n/a
522.279	0.105	1044558	keystroke_Key.backspace	Key.backspace	n/a
522.444	0.105	1044888	keystroke_Key.backspace	Key.backspace	n/a
523.719	0.075	1047438	keystroke_i	i	n/a
523.809	0.06	1047618	keystroke_g	g	n/a
523.899	0.09	1047798	keystroke_h	h	n/a
524.004	0.06	1048008	keystroke_t	t	n/a
524.109	0.105	1048218	keystroke_Key.space	Key.space	n/a
524.6495	0.105	1049299	keystroke_s	s	n/a
524.9195	0.15	1049839	keystroke_t	t	n/a
524.9795	0.135	1049959	keystroke_r	r	n/a
525.0995	0.105	1050199	keystroke_e	e	n/a
525.2195	0.12	1050439	keystroke_n	n	n/a
525.3545	0.09	1050709	keystroke_g	g	n/a
525.5045	0.09	1051009	keystroke_h	h	n/a
525.6095	0.06	1051219	keystroke_t	t	n/a
525.8645	0.105	1051729	keystroke_h	h	n/a
526.1345	0.045	1052269	keystroke_Key.backspace	Key.backspace	n/a
526.2845	0.075	1052569	keystroke_Key.backspace	Key.backspace	n/a
526.3895	0.12	1052779	keystroke_t	t	n/a
526.4045	0.075	1052809	keystroke_y	y	n/a
526.4795	0.105	1052959	keystroke_h	h	n/a
526.7345	0.06	1053469	keystroke_Key.backspace	Key.backspace	n/a
526.8995	0.015	1053799	keystroke_Key.backspace	Key.backspace	n/a
526.9895	0.075	1053979	keystroke_Key.backspace	Key.backspace	n/a
527.1545	0.1195	1054309	keystroke_t	t	n/a
527.2145	0.1355	1054429	keystroke_h	h	n/a
527.605	0.045	1055210	keystroke_Key.backspace	Key.backspace	n/a
527.755	0.015	1055510	keystroke_Key.backspace	Key.backspace	n/a
527.845	0.075	1055690	keystroke_Key.backspace	Key.backspace	n/a
528.1	0.12	1056200	keystroke_t	t	n/a
528.175	0.12	1056350	keystroke_h	h	n/a
528.655	0.12	1057310	keystroke_s	s	n/a
529.405	0.105	1058810	keystroke_Key.enter	Key.enter	n/a
529.522	5.224	1059044	prompt	n/a	chase drag wagner enable\n
530.4095	0.105	1060819	keystroke_c	c	n/a
530.5295	0.075	1061059	keystroke_h	h	n/a
530.6195	0.135	1061239	keystroke_a	a	n/a
530.6945	0.075	1061389	keystroke_s	s	n/a
530.8745	0.105	1061749	keystroke_e	e	n/a
531.0095	0.075	1062019	keystroke_Key.space	Key.space	n/a
531.5495	0.09	1063099	keystroke_d	d	n/a
531.7445	0.075	1063489	keystroke_r	r	n/a
531.8495	0.105	1063699	keystroke_a	a	n/a
531.984	0.09	1063968	keystroke_g	g	n/a
532.104	0.105	1064208	keystroke_Key.space	Key.space	n/a
532.509	0.1055	1065018	keystroke_w	w	n/a
532.675	0.0895	1065350	keystroke_a	a	n/a
532.7945	0.0895	1065589	keystroke_g	g	n/a
532.929	0.09	1065858	keystroke_n	n	n/a
533.034	0.09	1066068	keystroke_e	e	n/a
533.094	0.091	1066188	keystroke_r	r	n/a
533.154	0.105	1066308	keystroke_Key.space	Key.space	n/a
533.589	0.076	1067178	keystroke_e	e	n/a
533.679	0.09	1067358	keystroke_n	n	n/a
533.799	0.106	1067598	keystroke_a	a	n/a
534.009	0.076	1068018	keystroke_b	b	n/a
534.265	0.12	1068530	keystroke_l	l	n/a
534.385	0.075	1068770	keystroke_e	e	n/a
534.6545	0.09	1069309	keystroke_Key.enter	Key.enter	n/a
534.7485	10.0925	1069497	prompt	n/a	faster bookings discipline mortality\n
535.8845	0.105	1071769	keystroke_f	f	n/a
