onset	duration	sample	value	key	prompt_text
1.4495	11.5145	2899	prompt	n/a	the quick brown fox jumps over a lazy dog\n
2.7445	0.114	5489	keystroke	t	n/a
2.813	0.1135	5626	keystroke	h	n/a
2.948	0.159	5896	keystroke	e	n/a
3.06	0.136	6120	keystroke	Key.space	n/a
3.4145	0.112	6829	keystroke	q	n/a
3.5905	0.0685	7181	keystroke	u	n/a
3.762	0.0935	7524	keystroke	i	n/a
3.9085	0.1365	7817	keystroke	c	n/a
4.046	0.112	8092	keystroke	k	n/a
4.327	0.1355	8654	keystroke	Key.space	n/a
4.6905	0.1145	9381	keystroke	b	n/a
4.8735	0.112	9747	keystroke	r	n/a
4.9865	0.1135	9973	keystroke	o	n/a
5.2015	0.137	10403	keystroke	w	n/a
5.3595	0.0915	10719	keystroke	n	n/a
5.5915	0.1105	11183	keystroke	Key.space	n/a
5.8285	0.109	11657	keystroke	f	n/a
6.784	0.1115	13568	keystroke	o	n/a
7.054	0.118	14108	keystroke	x	n/a
7.2145	0.1395	14429	keystroke	Key.space	n/a
7.5065	0.093	15013	keystroke	j	n/a
7.6995	0.068	15399	keystroke	u	n/a
7.946	0.1335	15892	keystroke	m	n/a
8.2665	0.1555	16533	keystroke	p	n/a
8.4555	0.114	16911	keystroke	s	n/a
8.6275	0.134	17255	keystroke	Key.space	n/a
8.9055	0.137	17811	keystroke	o	n/a
9.077	0.1145	18154	keystroke	v	n/a
9.2625	0.0915	18525	keystroke	e	n/a
9.4425	0.073	18885	keystroke	r	n/a
9.5445	0.093	19089	keystroke	Key.space	n/a
9.6595	0.0925	19319	keystroke	a	n/a
9.7285	0.0915	19457	keystroke	Key.space	n/a
9.9075	0.136	19815	keystroke	l	n/a
10.7695	0.0895	21539	keystroke	a	n/a
10.9885	0.118	21977	keystroke	z	n/a
11.443	0.091	22886	keystroke	y	n/a
11.6175	0.136	23235	keystroke	Key.space	n/a
11.8275	0.1365	23655	keystroke	d	n/a
11.941	0.1365	23882	keystroke	o	n/a
12.1765	0.117	24353	keystroke	g	n/a
12.8705	0.0895	25741	keystroke	Key.enter	n/a
12.971	7.76	25942	prompt	n/a	actor originally dense reviewing\n
13.6415	0.1125	27283	keystroke	a	n/a
13.8085	0.1385	27617	keystroke	c	n/a
14.0465	0.1125	28093	keystroke	t	n/a
14.1825	0.091	28365	keystroke	o	n/a
14.296	0.091	28592	keystroke	r	n/a
14.411	0.135	28822	keystroke	Key.space	n/a
15.394	0.16	30788	keystroke	o	n/a
15.632	0.1365	31264	keystroke	r	n/a
15.8785	0.1345	31757	keystroke	i	n/a
16.049	0.113	32098	keystroke	g	n/a
16.2035	0.0685	32407	keystroke	i	n/a
16.3565	0.093	32713	keystroke	n	n/a
16.484	0.0915	32968	keystroke	a	n/a
16.6055	0.0245	33211	keystroke	l	n/a
16.7145	0.068	33429	keystroke	l	n/a
16.824	0.134	33648	keystroke	y	n/a
17.0335	0.138	34067	keystroke	Key.space	n/a
17.7225	0.09	35445	keystroke	d	n/a
17.9065	0.1125	35813	keystroke	e	n/a
18.0425	0.1125	36085	keystroke	n	n/a
18.156	0.1365	36312	keystroke	s	n/a
18.2235	0.115	36447	keystroke	e	n/a
18.3765	0.139	36753	keystroke	Key.space	n/a
19.0355	0.0695	38071	keystroke	r	n/a
19.21	0.0945	38420	keystroke	e	n/a
19.4105	0.113	38821	keystroke	v	n/a
19.5255	0.134	39051	keystroke	i	n/a
19.636	0.1145	39272	keystroke	e	n/a
19.726	0.18	39452	keystroke	w	n/a
20.043	0.068	40086	keystroke	i	n/a
20.2395	0.07	40479	keystroke	n	n/a
20.4085	0.0925	40817	keystroke	g	n/a
20.613	0.1145	41226	keystroke	Key.enter	n/a
20.7355	14.193	41471	prompt	n/a	fishing amplifier wagon championship\n
21.7045	0.113	43409	keystroke	f	n/a
21.8405	0.136	43681	keystroke	i	n/a
22.0215	0.1165	44043	keystroke	s	n/a
22.139	0.112	44278	keystroke	h	n/a
22.252	0.112	44504	keystroke	i	n/a
22.426	0.093	44852	keystroke	n	n/a
22.52	0.09	45040	keystroke	g	n/a
22.641	0.1355	45282	keystroke	Key.space	n/a
23.7	0.1135	47400	keystroke	a	n/a
23.9525	0.114	47905	keystroke	m	n/a
24.347	0.1125	48694	keystroke	l	n/a
25.158	0.116	50316	keystroke	Key.backspace	n/a
25.7905	0.069	51581	keystroke	p	n/a
25.9495	0.092	51899	keystroke	l	n/a
26.1565	0.091	52313	keystroke	i	n/a
26.2865	0.1155	52573	keystroke	f	n/a
26.379	0.1135	52758	keystroke	i	n/a
26.514	0.09	53028	keystroke	e	n/a
26.69	0.11	53380	keystroke	r	n/a
26.822	0.112	53644	keystroke	Key.space	n/a
27.6285	0.137	55257	keystroke	w	n/a
27.766	0.1775	55532	keystroke	a	n/a
28.1565	0.113	56313	keystroke	g	n/a
28.2705	0.113	56541	keystroke	o	n/a
28.495	0.07	56990	keystroke	n	n/a
28.683	0.135	57366	keystroke	Key.space	n/a
29.0765	0.135	58153	keystroke	c	n/a
29.242	0.1135	58484	keystroke	h	n/a
29.3565	0.112	58713	keystroke	a	n/a
29.53	0.0245	59060	keystroke	n	n/a
30.0625	0.092	60125	keystroke	m	n/a
30.3305	0.1335	60661	keystroke	p	n/a
30.848	0.068	61696	keystroke	Key.backspace	n/a
31.053	0.114	62106	keystroke	Key.backspace	n/a
31.2585	0.1105	62517	keystroke	Key.backspace	n/a
31.965	0.1125	63930	keystroke	m	n/a
32.2515	0.0905	64503	keystroke	p	n/a
32.8135	0.0685	65627	keystroke	i	n/a
32.973	0.0885	65946	keystroke	o	n/a
33.4025	0.1155	66805	keystroke	n	n/a
33.6635	0.113	67327	keystroke	s	n/a
33.7985	0.092	67597	keystroke	h	n/a
33.8915	0.112	67783	keystroke	i	n/a
34.1385	0.1145	68277	keystroke	p	n/a
34.792	0.1335	69584	keystroke	Key.enter	n/a
34.934	10.732	69868	prompt	n/a	sizes addresses sociology kirk\n
35.757	0.093	71514	keystroke	s	n/a
35.901	0.1785	71802	keystroke	i	n/a
36.1015	0.1825	72203	keystroke	z	n/a
36.238	0.136	72476	keystroke	e	n/a
36.478	0.111	72956	keystroke	s	n/a
36.685	0.137	73370	keystroke	Key.space	n/a
37.299	0.091	74598	keystroke	a	n/a
37.497	0.067	74994	keystroke	d	n/a
37.644	0.113	75288	keystroke	d	n/a
37.852	0.0895	75704	keystroke	r	n/a
38.0375	0.0905	76075	keystroke	e	n/a
38.2325	0.113	76465	keystroke	s	n/a
38.3945	0.114	76789	keystroke	s	n/a
38.544	0.136	77088	keystroke	e	n/a
38.7595	0.1375	77519	keystroke	s	n/a
38.941	0.112	77882	keystroke	Key.space	n/a
39.329	0.09	78658	keystroke	s	n/a
39.4905	0.1165	78981	keystroke	o	n/a
39.6075	0.1105	79215	keystroke	c	n/a
39.719	0.0685	79438	keystroke	i	n/a
39.833	0.092	79666	keystroke	a	n/a
39.958	0.0915	79916	keystroke	o	n/a
40.1365	0.0935	80273	keystroke	l	n/a
40.3975	0.136	80795	keystroke	g	n/a
41.47	0.047	82940	keystroke	Key.backspace	n/a
41.8875	0.091	83775	keystroke	Key.backspace	n/a
42.062	0.178	84124	keystroke	Key.backspace	n/a
42.342	0.1335	84684	keystroke	Key.backspace	n/a
43.05	0.0695	86100	keystroke	o	n/a
43.219	0.0695	86438	keystroke	l	n/a
43.3725	0.1145	86745	keystroke	o	n/a
43.51	0.115	87020	keystroke	g	n/a
43.66	0.091	87320	keystroke	y	n/a
43.852	0.136	87704	keystroke	Key.space	n/a
44.8475	0.067	89695	keystroke	k	n/a
45.029	0.092	90058	keystroke	i	n/a
45.184	0.112	90368	keystroke	r	n/a
45.329	0.07	90658	keystroke	k	n/a
45.5975	0.067	91195	keystroke	Key.enter	n/a
45.6705	13.897	91341	prompt	n/a	planned world atomic phillips\n
46.492	0.088	92984	keystroke	p	n/a
46.673	0.133	93346	keystroke	l	n/a
46.828	0.0915	93656	keystroke	a	n/a
46.97	0.068	93940	keystroke	n	n/a
47.1065	0.0905	94213	keystroke	n	n/a
47.219	0.113	94438	keystroke	e	n/a
47.41	0.114	94820	keystroke	d	n/a
47.546	0.112	95092	keystroke	Key.space	n/a
47.774	0.112	95548	keystroke	w	n/a
47.887	0.089	95774	keystroke	o	n/a
48.028	0.0695	96056	keystroke	r	n/a
48.21	0.1115	96420	keystroke	k	n/a
48.2315	0.0675	96463	keystroke	l	n/a
48.419	0.1325	96838	keystroke	d	n/a
48.6135	0.113	97227	keystroke	Key.space	n/a
48.8905	0.068	97781	keystroke	Key.backspace	n/a
49.0395	0.068	98079	keystroke	Key.backspace	n/a
49.1695	0.069	98339	keystroke	Key.backspace	n/a
49.2605	0.113	98521	keystroke	Key.backspace	n/a
50.0095	0.1135	100019	keystroke	l	n/a
50.124	0.112	100248	keystroke	d	n/a
50.258	0.114	100516	keystroke	Key.space	n/a
50.3735	0.2445	100747	keystroke	a	n/a
50.6195	0.158	101239	keystroke	t	n/a
50.7985	0.116	101597	keystroke	m	n/a
50.915	0.1125	101830	keystroke	o	n/a
51.785	0.1135	103570	keystroke	i	n/a
52.0645	0.1395	104129	keystroke	c	n/a
52.2265	0.112	104453	keystroke	Key.space	n/a
52.424	0.1355	104848	keystroke	p	n/a
52.7085	0.1125	105417	keystroke	h	n/a
53.146	0.091	106292	keystroke	Key.backspace	n/a
53.3235	0.068	106647	keystroke	Key.backspace	n/a
53.472	0.0675	106944	keystroke	Key.backspace	n/a
53.622	0.0935	107244	keystroke	Key.backspace	n/a
53.769	0.091	107538	keystroke	Key.backspace	n/a
53.9165	0.089	107833	keystroke	Key.backspace	n/a
54.0495	0.093	108099	keystroke	Key.backspace	n/a
54.926	0.0925	109852	keystroke	o	n/a
55.108	0.0905	110216	keystroke	m	n/a
55.2985	0.114	110597	keystroke	i	n/a
55.3875	0.114	110775	keystroke	c	n/a
55.563	0.134	111126	keystroke	Key.space	n/a
55.806	0.138	111612	keystroke	p	n/a
56.697	0.112	113394	keystroke	h	n/a
56.8305	0.1395	113661	keystroke	i	n/a
57.111	0.181	114222	keystroke	l	n/a
58.306	0.1355	116612	keystroke	l	n/a
58.618	0.047	117236	keystroke	i	n/a
58.927	0.1355	117854	keystroke	p	n/a
59.195	0.132	118390	keystroke	s	n/a
59.428	0.137	118856	keystroke	Key.enter	n/a
59.5725	8.2825	119145	prompt	n/a	trip cleaners business it'd\n
60.414	0.1595	120828	keystroke	t	n/a
61.573	0.1125	123146	keystroke	r	n/a
61.7325	0.09	123465	keystroke	i	n/a
61.9455	0.115	123891	keystroke	p	n/a
62.0915	0.115	124183	keystroke	Key.space	n/a
62.2065	0.111	124413	keystroke	c	n/a
62.3405	0.1585	124681	keystroke	l	n/a
62.475	0.138	124950	keystroke	e	n/a
62.5885	0.137	125177	keystroke	a	n/a
62.7015	0.1155	125403	keystroke	r	n/a
62.9255	0.1365	125851	keystroke	n	n/a
63.3795	0.045	126759	keystroke	Key.backspace	n/a
63.5155	0.112	127031	keystroke	Key.backspace	n/a
63.7835	0.114	127567	keystroke	n	n/a
63.919	0.0915	127838	keystroke	e	n/a
64.0695	0.09	128139	keystroke	r	n/a
64.2745	0.09	128549	keystroke	s	n/a
64.415	0.1135	128830	keystroke	Key.space	n/a
65.2975	0.115	130595	keystroke	b	n/a
65.5125	0.07	131025	keystroke	u	n/a
65.5845	0.109	131169	keystroke	s	n/a
65.7165	0.066	131433	keystroke	i	n/a
65.873	0.1105	131746	keystroke	n	n/a
66.0355	0.092	132071	keystroke	e	n/a
66.2385	0.09	132477	keystroke	s	n/a
66.397	0.136	132794	keystroke	s	n/a
66.533	0.136	133066	keystroke	Key.space	n/a
66.6905	0.135	133381	keystroke	i	n/a
66.9085	0.1165	133817	keystroke	t	n/a
67.233	0.1365	134466	keystroke	'	n/a
67.4665	0.112	134933	keystroke	d	n/a
67.7175	0.1345	135435	keystroke	Key.enter	n/a
67.862	11.4315	135724	prompt	n/a	examined contrary traffic scan\n
68.5435	0.115	137087	keystroke	e	n/a
68.873	0.1145	137746	keystroke	x	n/a
69.009	0.113	138018	keystroke	m	n/a
69.144	0.114	138288	keystroke	a	n/a
69.437	0.114	138874	keystroke	n	n/a
69.5525	0.0675	139105	keystroke	e	n/a
69.729	0.09	139458	keystroke	d	n/a
70.1075	0.0695	140215	keystroke	Key.backspace	n/a
70.3935	0.0905	140787	keystroke	Key.backspace	n/a
70.5665	0.0915	141133	keystroke	Key.backspace	n/a
70.7255	0.069	141451	keystroke	Key.backspace	n/a
70.8595	0.116	141719	keystroke	Key.backspace	n/a
71.0895	0.16	142179	keystroke	a	n/a
71.2255	0.092	142451	keystroke	m	n/a
71.449	0.09	142898	keystroke	o	n/a
71.5945	0.113	143189	keystroke	n	n/a
72.0175	0.0485	144035	keystroke	Key.backspace	n/a
72.1255	0.113	144251	keystroke	Key.backspace	n/a
72.384	0.0685	144768	keystroke	i	n/a
72.539	0.0905	145078	keystroke	n	n/a
72.6515	0.069	145303	keystroke	e	n/a
72.8065	0.114	145613	keystroke	d	n/a
72.95	0.137	145900	keystroke	Key.space	n/a
73.4455	0.159	146891	keystroke	c	n/a
73.5805	0.07	147161	keystroke	o	n/a
73.7145	0.137	147429	keystroke	n	n/a
73.8285	0.0895	147657	keystroke	t	n/a
73.9815	0.135	147963	keystroke	r	n/a
74.574	0.135	149148	keystroke	a	n/a
74.709	0.0905	149418	keystroke	r	n/a
74.964	0.138	149928	keystroke	y	n/a
75.079	0.114	150158	keystroke	Key.space	n/a
75.5785	0.1155	151157	keystroke	t	n/a
75.763	0.1355	151526	keystroke	r	n/a
75.9205	0.158	151841	keystroke	a	n/a
76.1325	0.09	152265	keystroke	f	n/a
76.2655	0.0925	152531	keystroke	f	n/a
76.451	0.115	152902	keystroke	i	n/a
76.5665	0.2005	153133	keystroke	c	n/a
76.6975	0.115	153395	keystroke	e	n/a
76.814	0.132	153628	keystroke	Key.space	n/a
77.149	0.135	154298	keystroke	s	n/a
77.6835	0.0935	155367	keystroke	Key.backspace	n/a
77.8365	0.092	155673	keystroke	Key.backspace	n/a
78.095	0.1555	156190	keystroke	Key.backspace	n/a
78.272	0.113	156544	keystroke	Key.space	n/a
78.4155	0.136	156831	keystroke	s	n/a
78.614	0.18	157228	keystroke	c	n/a
78.7475	0.1135	157495	keystroke	a	n/a
78.883	0.092	157766	keystroke	n	n/a
79.1555	0.136	158311	keystroke	Key.enter	n/a
79.302	10.6975	158604	prompt	n/a	rico switzerland adrian zoom\n
80.2695	0.0895	160539	keystroke	r	n/a
80.3945	0.114	160789	keystroke	i	n/a
80.5755	0.137	161151	keystroke	c	n/a
80.7135	0.112	161427	keystroke	o	n/a
80.8475	0.089	161695	keystroke	Key.space	n/a
81.049	0.047	162098	keystroke	s	n/a
81.223	0.158	162446	keystroke	w	n/a
82.009	0.137	164018	keystroke	i	n/a
82.247	0.1135	164494	keystroke	t	n/a
83.176	0.069	166352	keystroke	z	n/a
83.401	0.09	166802	keystroke	e	n/a
83.5765	0.114	167153	keystroke	r	n/a
83.7135	0.159	167427	keystroke	l	n/a
83.8735	0.0875	167747	keystroke	a	n/a
84.0525	0.0465	168105	keystroke	n	n/a
84.167	0.137	168334	keystroke	d	n/a
84.3545	0.1355	168709	keystroke	Key.space	n/a
85.132	0.115	170264	keystroke	a	n/a
85.334	0.114	170668	keystroke	d	n/a
85.74	0.1135	171480	keystroke	r	n/a
85.876	0.114	171752	keystroke	i	n/a
86.04	0.136	172080	keystroke	a	n/a
86.649	0.09	173298	keystroke	n	n/a
87.12	0.1385	174240	keystroke	Key.space	n/a
87.9095	0.0895	175819	keystroke	z	n/a
88.064	0.0935	176128	keystroke	o	n/a
88.179	0.134	176358	keystroke	o	n/a
88.403	0.092	176806	keystroke	o	n/a
88.633	0.135	177266	keystroke	m	n/a
89.2305	0.0685	178461	keystroke	Key.backspace	n/a
89.344	0.114	178688	keystroke	Key.backspace	n/a
89.654	0.094	179308	keystroke	m	n/a
89.862	0.1355	179724	keystroke	Key.enter	n/a
90.005	10.27	180010	prompt	n/a	britney participate gamecube inner\n
91.155	0.138	182310	keystroke	b	n/a
91.418	0.114	182836	keystroke	r	n/a
91.5535	0.1355	183107	keystroke	i	n/a
91.71	0.113	183420	keystroke	t	n/a
91.889	0.137	183778	keystroke	n	n/a
92.06	0.09	184120	keystroke	e	n/a
92.3535	0.071	184707	keystroke	y	n/a
92.8785	0.113	185757	keystroke	Key.space	n/a
93.228	0.157	186456	keystroke	p	n/a
93.3855	0.1365	186771	keystroke	a	n/a
93.498	0.113	186996	keystroke	r	n/a
93.699	0.114	187398	keystroke	t	n/a
93.837	0.1355	187674	keystroke	i	n/a
94.0765	0.112	188153	keystroke	c	n/a
94.1895	0.067	188379	keystroke	i	n/a
94.3835	0.069	188767	keystroke	a	n/a
94.9045	0.09	189809	keystroke	Key.backspace	n/a
95.1135	0.115	190227	keystroke	p	n/a
95.2295	0.091	190459	keystroke	a	n/a
95.3215	0.112	190643	keystroke	t	n/a
95.5735	0.1345	191147	keystroke	e	n/a
95.6395	0.1585	191279	keystroke	Key.space	n/a
96.862	0.136	193724	keystroke	g	n/a
96.952	0.159	193904	keystroke	a	n/a
97.166	0.1355	194332	keystroke	m	n/a
97.422	0.113	194844	keystroke	e	n/a
97.735	0.116	195470	keystroke	c	n/a
97.939	0.092	195878	keystroke	u	n/a
98.142	0.0915	196284	keystroke	b	n/a
98.2905	0.1135	196581	keystroke	e	n/a
98.7835	0.1575	197567	keystroke	Key.space	n/a
99.303	0.1155	198606	keystroke	i	n/a
99.513	0.07	199026	keystroke	n	n/a
99.6545	0.091	199309	keystroke	n	n/a
99.767	0.091	199534	keystroke	e	n/a
99.954	0.0915	199908	keystroke	r	n/a
100.1375	0.135	200275	keystroke	Key.enter	n/a
100.28	7.4765	200560	prompt	n/a	jersey hungary http diet\n
101.2695	0.115	202539	keystroke	h	n/a
101.7145	0.113	203429	keystroke	Key.backspace	n/a
101.954	0.114	203908	keystroke	j	n/a
102.0885	0.093	204177	keystroke	e	n/a
102.2495	0.091	204499	keystroke	r	n/a
102.4315	0.1145	204863	keystroke	s	n/a
102.4775	0.136	204955	keystroke	e	n/a
102.679	0.089	205358	keystroke	y	n/a
103.252	0.114	206504	keystroke	Key.space	n/a
103.714	0.068	207428	keystroke	h	n/a
103.9005	0.0225	207801	keystroke	u	n/a
104.0725	0.117	208145	keystroke	n	n/a
104.2105	0.094	208421	keystroke	g	n/a
104.3265	0.1365	208653	keystroke	a	n/a
104.4395	0.1335	208879	keystroke	r	n/a
104.7155	0.067	209431	keystroke	y	n/a
105.2915	0.093	210583	keystroke	Key.space	n/a
105.648	0.112	211296	keystroke	h	n/a
105.906	0.0915	211812	keystroke	t	n/a
106.07	0.1155	212140	keystroke	t	n/a
106.2285	0.135	212457	keystroke	p	n/a
106.531	0.137	213062	keystroke	Key.space	n/a
106.793	0.1115	213586	keystroke	d	n/a
106.9055	0.134	213811	keystroke	i	n/a
107.1715	0.1345	214343	keystroke	e	n/a
107.4275	0.114	214855	keystroke	t	n/a
107.635	0.119	215270	keystroke	Key.enter	n/a
107.761	12.5685	215522	prompt	n/a	league girl probability princeton\n
108.683	0.1585	217366	keystroke	l	n/a
108.7945	0.183	217589	keystroke	e	n/a
108.8855	0.204	217771	keystroke	a	n/a
109.2935	0.1145	218587	keystroke	g	n/a
109.671	0.047	219342	keystroke	e	n/a
110.0495	0.0905	220099	keystroke	Key.backspace	n/a
110.3105	0.047	220621	keystroke	i	n/a
110.3325	0.051	220665	keystroke	u	n/a
110.4345	0.113	220869	keystroke	e	n/a
111.039	0.069	222078	keystroke	Key.backspace	n/a
111.207	0.068	222414	keystroke	Key.backspace	n/a
111.341	0.115	222682	keystroke	Key.backspace	n/a
111.7995	0.0695	223599	keystroke	u	n/a
111.892	0.1145	223784	keystroke	e	n/a
111.9825	0.115	223965	keystroke	Key.space	n/a
112.1645	0.069	224329	keystroke	p	n/a
112.2345	0.089	224469	keystroke	r	n/a
112.9765	0.068	225953	keystroke	Key.backspace	n/a
113.1285	0.092	226257	keystroke	Key.backspace	n/a
113.2975	0.0935	226595	keystroke	Key.backspace	n/a
113.916	0.112	227832	keystroke	Key.space	n/a
114.57	0.1165	229140	keystroke	g	n/a
114.727	0.1135	229454	keystroke	i	n/a
114.8755	0.1385	229751	keystroke	r	n/a
115.015	0.11	230030	keystroke	l	n/a
115.244	0.1605	230488	keystroke	Key.space	n/a
115.961	0.1385	231922	keystroke	p	n/a
116.1	0.113	232200	keystroke	r	n/a
116.2355	0.1135	232471	keystroke	o	n/a
116.4375	0.0915	232875	keystroke	b	n/a
116.5715	0.093	233143	keystroke	a	n/a
116.665	0.088	233330	keystroke	b	n/a
116.852	0.089	233704	keystroke	i	n/a
117.083	0.1155	234166	keystroke	l	n/a
117.2495	0.134	234499	keystroke	i	n/a
117.4195	0.138	234839	keystroke	t	n/a
117.5335	0.0915	235067	keystroke	y	n/a
117.764	0.1595	235528	keystroke	Key.space	n/a
118.817	0.1375	237634	keystroke	p	n/a
118.9765	0.115	237953	keystroke	r	n/a
119.0925	0.09	238185	keystroke	i	n/a
119.2745	0.0925	238549	keystroke	n	n/a
119.321	0.1385	238642	keystroke	c	n/a
119.4115	0.139	238823	keystroke	e	n/a
119.6315	0.136	239263	keystroke	t	n/a
119.7885	0.069	239577	keystroke	o	n/a
119.949	0.068	239898	keystroke	n	n/a
120.227	0.091	240454	keystroke	Key.enter	n/a
120.334	5.8695	240668	prompt	n/a	vessel nearest who's efficiency\n
121.2355	0.1125	242471	keystroke	v	n/a
121.455	0.137	242910	keystroke	e	n/a
121.876	0.069	243752	keystroke	s	n/a
122.031	0.202	244062	keystroke	s	n/a
122.599	0.136	245198	keystroke	e	n/a
123.105	0.1105	246210	keystroke	l	n/a
123.369	0.1575	246738	keystroke	Key.space	n/a
123.7495	0.1395	247499	keystroke	n	n/a
123.8175	0.1405	247635	keystroke	e	n/a
123.9115	0.136	247823	keystroke	a	n/a
124.0705	0.137	248141	keystroke	r	n/a
124.365	0.0905	248730	keystroke	e	n/a
124.549	0.089	249098	keystroke	s	n/a
124.7435	0.136	249487	keystroke	t	n/a
124.93	0.1385	249860	keystroke	Key.space	n/a
125.438	0.114	250876	keystroke	w	n/a
125.627	0.0695	251254	keystroke	h	n/a
125.727	0.1365	251454	keystroke	o	n/a
126.1105	0.0905	252221	keystroke	Key.enter	n/a
126.208	10.1755	252416	prompt	n/a	drop laughing keith arts\n
126.344	0.136	252688	keystroke	s	n/a
127.957	0.135	255914	keystroke	Key.backspace	n/a
128.1965	0.1135	256393	keystroke	d	n/a
128.408	0.137	256816	keystroke	r	n/a
128.546	0.09	257092	keystroke	o	n/a
128.733	0.138	257466	keystroke	p	n/a
128.847	0.156	257694	keystroke	Key.space	n/a
129.026	0.111	258052	keystroke	e	n/a
129.5585	0.1385	259117	keystroke	Key.backspace	n/a
129.886	0.09	259772	keystroke	l	n/a
130.0345	0.092	260069	keystroke	a	n/a
130.2185	0.114	260437	keystroke	u	n/a
130.377	0.1145	260754	keystroke	g	n/a
130.4665	0.092	260933	keystroke	h	n/a
130.6225	0.1115	261245	keystroke	i	n/a
130.81	0.09	261620	keystroke	n	n/a
130.922	0.113	261844	keystroke	g	n/a
131.078	0.137	262156	keystroke	Key.space	n/a
132.156	0.067	264312	keystroke	k	n/a
132.331	0.1135	264662	keystroke	i	n/a
132.375	0.138	264750	keystroke	e	n/a
132.634	0.159	265268	keystroke	t	n/a
132.747	0.114	265494	keystroke	h	n/a
133.257	0.068	266514	keystroke	Key.backspace	n/a
133.402	0.09	266804	keystroke	Key.backspace	n/a
133.542	0.0915	267084	keystroke	Key.backspace	n/a
133.9775	0.092	267955	keystroke	Key.backspace	n/a
134.1805	0.117	268361	keystroke	e	n/a
134.2985	0.111	268597	keystroke	i	n/a
134.463	0.1385	268926	keystroke	t	n/a
134.5525	0.094	269105	keystroke	h	n/a
135.001	0.1345	270002	keystroke	Key.space	n/a
135.408	0.181	270816	keystroke	a	n/a
135.566	0.1335	271132	keystroke	r	n/a
135.776	0.113	271552	keystroke	t	n/a
136.012	0.113	272024	keystroke	s	n/a
136.226	0.156	272452	keystroke	Key.enter	n/a
136.3885	11.2705	272777	prompt	n/a	semi browsing transferred can\n
137.1925	0.135	274385	keystroke	s	n/a
137.393	0.1355	274786	keystroke	e	n/a
137.5885	0.135	275177	keystroke	m	n/a
137.8525	0.112	275705	keystroke	i	n/a
138.697	0.114	277394	keystroke	Key.space	n/a
138.89	0.092	277780	keystroke	b	n/a
139.0185	0.0895	278037	keystroke	r	n/a
139.1735	0.1115	278347	keystroke	p	n/a
139.2855	0.1125	278571	keystroke	w	n/a
139.852	0.024	279704	keystroke	Key.backspace	n/a
139.954	0.114	279908	keystroke	Key.backspace	n/a
140.4645	0.136	280929	keystroke	o	n/a
140.6015	0.112	281203	keystroke	w	n/a
140.8015	0.0935	281603	keystroke	s	n/a
140.895	0.068	281790	keystroke	i	n/a
141.0725	0.07	282145	keystroke	n	n/a
141.194	0.1135	282388	keystroke	g	n/a
141.33	0.114	282660	keystroke	Key.space	n/a
142.0665	0.134	284133	keystroke	t	n/a
142.2675	0.137	284535	keystroke	r	n/a
142.6625	0.112	285325	keystroke	a	n/a
143.248	0.113	286496	keystroke	s	n/a
143.414	0.138	286828	keystroke	n	n/a
143.944	0.0695	287888	keystroke	Key.backspace	n/a
144.0595	0.1155	288119	keystroke	Key.backspace	n/a
144.3595	0.112	288719	keystroke	n	n/a
144.4935	0.112	288987	keystroke	s	n/a
144.814	0.16	289628	keystroke	f	n/a
144.974	0.136	289948	keystroke	e	n/a
145.368	0.112	290736	keystroke	r	n/a
145.6005	0.093	291201	keystroke	r	n/a
145.9185	0.134	291837	keystroke	e	n/a
146.2475	0.134	292495	keystroke	d	n/a
146.4125	0.134	292825	keystroke	Key.space	n/a
146.5235	0.1345	293047	keystroke	c	n/a
146.592	0.113	293184	keystroke	a	n/a
146.747	0.089	293494	keystroke	n	n/a
147.496	0.161	294992	keystroke	Key.enter	n/a
147.6635	9.9485	295327	prompt	n/a	patrol technician shares beach\n
148.469	0.206	296938	keystroke	p	n/a
148.604	0.184	297208	keystroke	a	n/a
148.81	0.046	297620	keystroke	r	n/a
149.37	0.114	298740	keystroke	Key.backspace	n/a
149.8255	0.091	299651	keystroke	t	n/a
150.035	0.115	300070	keystroke	r	n/a
150.181	0.069	300362	keystroke	o	n/a
150.359	0.115	300718	keystroke	l	n/a
150.6325	0.181	301265	keystroke	Key.space	n/a
151.0655	0.1165	302131	keystroke	t	n/a
151.5345	0.114	303069	keystroke	e	n/a
151.777	0.1135	303554	keystroke	c	n/a
151.892	0.065	303784	keystroke	h	n/a
152.1045	0.1125	304209	keystroke	n	n/a
152.266	0.088	304532	keystroke	i	n/a
152.399	0.1375	304798	keystroke	c	n/a
152.49	0.091	304980	keystroke	i	n/a
152.6545	0.1115	305309	keystroke	a	n/a
152.787	0.091	305574	keystroke	n	n/a
153.168	0.156	306336	keystroke	Key.space	n/a
153.524	0.135	307048	keystroke	s	n/a
153.681	0.137	307362	keystroke	h	n/a
153.794	0.156	307588	keystroke	a	n/a
153.926	0.159	307852	keystroke	r	n/a
154.1815	0.0905	308363	keystroke	e	n/a
154.372	0.116	308744	keystroke	s	n/a
154.6545	0.1385	309309	keystroke	Key.space	n/a
155.1425	0.133	310285	keystroke	b	n/a
155.2535	0.1355	310507	keystroke	e	n/a
155.3645	0.2465	310729	keystroke	a	n/a
155.565	0.16	311130	keystroke	v	n/a
156.697	0.1355	313394	keystroke	Key.backspace	n/a
157.0245	0.1365	314049	keystroke	c	n/a
157.182	0.113	314364	keystroke	h	n/a
157.4965	0.114	314993	keystroke	Key.enter	n/a
157.6175	11.3615	315235	prompt	n/a	consequently tiffany audit failing\n
158.262	0.137	316524	keystroke	c	n/a
158.659	0.1165	317318	keystroke	n	n/a
159.27	0.1145	318540	keystroke	Key.backspace	n/a
159.647	0.111	319294	keystroke	o	n/a
159.917	0.091	319834	keystroke	n	n/a
160.115	0.1805	320230	keystroke	s	n/a
160.2045	0.136	320409	keystroke	e	n/a
160.4345	0.135	320869	keystroke	r	n/a
161.045	0.1355	322090	keystroke	Key.backspace	n/a
161.34	0.1125	322680	keystroke	q	n/a
161.4745	0.1135	322949	keystroke	u	n/a
161.5885	0.09	323177	keystroke	e	n/a
162.6965	0.1095	325393	keystroke	n	n/a
162.965	0.134	325930	keystroke	t	n/a
163.1225	0.0665	326245	keystroke	l	n/a
163.429	0.116	326858	keystroke	y	n/a
163.609	0.161	327218	keystroke	Key.space	n/a
164.7765	0.112	329553	keystroke	t	n/a
164.9095	0.1585	329819	keystroke	i	n/a
165.0975	0.068	330195	keystroke	f	n/a
165.2495	0.115	330499	keystroke	f	n/a
165.3415	0.136	330683	keystroke	a	n/a
165.4995	0.113	330999	keystroke	n	n/a
165.6975	0.112	331395	keystroke	y	n/a
165.868	0.137	331736	keystroke	Key.space	n/a
166.098	0.0885	332196	keystroke	a	n/a
166.2605	0.137	332521	keystroke	u	n/a
166.4205	0.1135	332841	keystroke	d	n/a
166.84	0.114	333680	keystroke	i	n/a
167.0445	0.114	334089	keystroke	t	n/a
167.232	0.156	334464	keystroke	Key.space	n/a
167.743	0.116	335486	keystroke	f	n/a
167.832	0.1185	335664	keystroke	a	n/a
167.9725	0.0895	335945	keystroke	i	n/a
168.165	0.111	336330	keystroke	l	n/a
168.416	0.07	336832	keystroke	i	n/a
168.555	0.091	337110	keystroke	n	n/a
168.727	0.112	337454	keystroke	g	n/a
168.864	0.113	337728	keystroke	Key.enter	n/a
168.9835	8.121	337967	prompt	n/a	willing important usually shell\n
169.717	0.113	339434	keystroke	w	n/a
169.871	0.113	339742	keystroke	i	n/a
170.103	0.07	340206	keystroke	l	n/a
170.228	0.115	340456	keystroke	l	n/a
170.443	0.114	340886	keystroke	i	n/a
170.6275	0.112	341255	keystroke	n	n/a
170.741	0.1115	341482	keystroke	g	n/a
170.8295	0.1365	341659	keystroke	Key.space	n/a
170.8745	0.1365	341749	keystroke	i	n/a
171.086	0.091	342172	keystroke	m	n/a
171.716	0.132	343432	keystroke	p	n/a
171.942	0.137	343884	keystroke	o	n/a
172.1955	0.069	344391	keystroke	r	n/a
172.6095	0.113	345219	keystroke	t	n/a
172.7715	0.1605	345543	keystroke	a	n/a
172.9545	0.1365	345909	keystroke	n	n/a
173.1915	0.1565	346383	keystroke	t	n/a
173.65	0.157	347300	keystroke	Key.space	n/a
174.2015	0.113	348403	keystroke	u	n/a
174.364	0.114	348728	keystroke	s	n/a
174.4545	0.0895	348909	keystroke	u	n/a
174.586	0.137	349172	keystroke	a	n/a
175.058	0.1125	350116	keystroke	l	n/a
175.1925	0.1135	350385	keystroke	l	n/a
175.719	0.1375	351438	keystroke	y	n/a
175.9315	0.159	351863	keystroke	Key.space	n/a
176.2055	0.1125	352411	keystroke	s	n/a
176.294	0.114	352588	keystroke	h	n/a
176.429	0.091	352858	keystroke	e	n/a
176.5855	0.069	353171	keystroke	l	n/a
176.7285	0.09	353457	keystroke	l	n/a
177.0125	0.09	354025	keystroke	Key.enter	n/a
177.1095	8.7405	354219	prompt	n/a	penn silk bond researchers\n
178.153	0.137	356306	keystroke	p	n/a
178.3485	0.112	356697	keystroke	e	n/a
178.4825	0.0695	356965	keystroke	n	n/a
178.6275	0.067	357255	keystroke	n	n/a
178.7955	0.1355	357591	keystroke	Key.space	n/a
179.0135	0.1135	358027	keystroke	s	n/a
179.1695	0.0675	358339	keystroke	i	n/a
179.9245	0.091	359849	keystroke	l	n/a
180.115	0.137	360230	keystroke	k	n/a
180.43	0.1115	360860	keystroke	b	n/a
180.634	0.112	361268	keystroke	o	n/a
180.8295	0.069	361659	keystroke	n	n/a
180.9545	0.134	361909	keystroke	d	n/a
181.342	0.047	362684	keystroke	Key.backspace	n/a
181.475	0.0695	362950	keystroke	Key.backspace	n/a
181.6205	0.068	363241	keystroke	Key.backspace	n/a
181.7575	0.091	363515	keystroke	Key.backspace	n/a
182.025	0.114	364050	keystroke	Key.space	n/a
182.379	0.0885	364758	keystroke	b	n/a
182.57	0.113	365140	keystroke	o	n/a
182.752	0.0905	365504	keystroke	n	n/a
182.8645	0.1135	365729	keystroke	d	n/a
182.9545	0.135	365909	keystroke	Key.space	n/a
183.586	0.112	367172	keystroke	r	n/a
183.774	0.1155	367548	keystroke	e	n/a
184.101	0.182	368202	keystroke	s	n/a
184.216	0.134	368432	keystroke	e	n/a
184.451	0.159	368902	keystroke	a	n/a
184.564	0.162	369128	keystroke	r	n/a
184.905	0.1135	369810	keystroke	c	n/a
185.0405	0.1375	370081	keystroke	h	n/a
185.2	0.1145	370400	keystroke	e	n/a
185.379	0.111	370758	keystroke	r	n/a
185.579	0.1345	371158	keystroke	s	n/a
185.7145	0.1335	371429	keystroke	Key.enter	n/a
185.855	16.0395	371710	prompt	n/a	gifts sized stephanie entities\n
186.899	0.0905	373798	keystroke	g	n/a
187.0125	0.1565	374025	keystroke	i	n/a
187.17	0.0905	374340	keystroke	f	n/a
187.3435	0.115	374687	keystroke	t	n/a
187.55	0.1145	375100	keystroke	s	n/a
187.665	0.132	375330	keystroke	Key.space	n/a
187.918	0.09	375836	keystroke	s	n/a
188.03	0.137	376060	keystroke	i	n/a
188.211	0.2475	376422	keystroke	z	n/a
188.413	0.135	376826	keystroke	e	n/a
188.8665	0.1165	377733	keystroke	d	n/a
189.1705	0.1135	378341	keystroke	Key.space	n/a
189.4465	0.136	378893	keystroke	s	n/a
189.6485	0.137	379297	keystroke	t	n/a
189.9485	0.1135	379897	keystroke	e	n/a
190.6675	0.089	381335	keystroke	p	n/a
190.8765	0.0895	381753	keystroke	h	n/a
190.967	0.0905	381934	keystroke	a	n/a
191.093	0.1125	382186	keystroke	n	n/a
191.227	0.114	382454	keystroke	i	n/a
191.3625	0.1155	382725	keystroke	e	n/a
191.5955	0.134	383191	keystroke	Key.space	n/a
192.3895	0.1115	384779	keystroke	e	n/a
192.525	0.1155	385050	keystroke	n	n/a
192.6805	0.134	385361	keystroke	t	n/a
193.4025	0.0905	386805	keystroke	i	n/a
193.5455	0.092	387091	keystroke	t	n/a
193.6135	0.135	387227	keystroke	i	n/a
193.7505	0.1105	387501	keystroke	t	n/a
193.943	0.0925	387886	keystroke	e	n/a
194.132	0.1145	388264	keystroke	s	n/a
194.3125	0.1155	388625	keystroke	Key.space	n/a
201.8005	0.092	403601	keystroke	Key.enter	n/a
201.9	0.172	403800	prompt	n/a	ncaa diabetes sherman injury\n
201.9775	0.0915	403955	keystroke	Key.enter	n/a
202.0755	0.17	404151	prompt	n/a	grove accessories dairy career\n
202.107	0.137	404214	keystroke	Key.enter	n/a
202.25	13.4415	404500	prompt	n/a	accuracy scoop exhibit phase\n
203.156	0.1105	406312	keystroke	a	n/a
203.3195	0.1115	406639	keystroke	c	n/a
203.822	0.136	407644	keystroke	u	n/a
204.6985	0.069	409397	keystroke	Key.backspace	n/a
204.823	0.115	409646	keystroke	Key.backspace	n/a
204.9605	0.1365	409921	keystroke	c	n/a
205.237	0.068	410474	keystroke	y	n/a
205.8645	0.1375	411729	keystroke	Key.backspace	n/a
206.1855	0.137	412371	keystroke	u	n/a
206.4735	0.137	412947	keystroke	r	n/a
206.6545	0.138	413309	keystroke	a	n/a
206.7455	0.181	413491	keystroke	c	n/a
208.135	0.0915	416270	keystroke	y	n/a
208.2565	0.137	416513	keystroke	Key.space	n/a
208.4145	0.069	416829	keystroke	s	n/a
208.5875	0.115	417175	keystroke	c	n/a
209.841	0.068	419682	keystroke	o	n/a
209.9505	0.0905	419901	keystroke	o	n/a
210.1535	0.0925	420307	keystroke	p	n/a
210.446	0.1555	420892	keystroke	Key.space	n/a
210.8525	0.114	421705	keystroke	e	n/a
211.223	0.1585	422446	keystroke	x	n/a
211.5975	0.1565	423195	keystroke	x	n/a
211.8065	0.1165	423613	keystroke	h	n/a
212.597	0.0695	425194	keystroke	Key.backspace	n/a
212.706	0.136	425412	keystroke	Key.backspace	n/a
213.031	0.1135	426062	keystroke	h	n/a
213.2835	0.091	426567	keystroke	i	n/a
213.3065	0.158	426613	keystroke	b	n/a
213.4875	0.115	426975	keystroke	i	n/a
213.724	0.1365	427448	keystroke	t	n/a
213.919	0.135	427838	keystroke	Key.space	n/a
214.6555	0.114	429311	keystroke	p	n/a
214.943	0.1365	429886	keystroke	h	n/a
215.1145	0.137	430229	keystroke	a	n/a
215.294	0.1765	430588	keystroke	s	n/a
215.405	0.1565	430810	keystroke	e	n/a
215.6405	0.0485	431281	keystroke	Key.enter	n/a
215.696	9.7995	431392	prompt	n/a	acoustic fitness cisco center\n
216.4535	0.092	432907	keystroke	a	n/a
216.6105	0.114	433221	keystroke	c	n/a
216.8085	0.2275	433617	keystroke	o	n/a
216.945	0.113	433890	keystroke	u	n/a
217.153	0.114	434306	keystroke	t	n/a
217.4365	0.0895	434873	keystroke	s	n/a
217.558	0.1135	435116	keystroke	i	n/a
217.7205	0.113	435441	keystroke	c	n/a
217.869	0.1385	435738	keystroke	Key.space	n/a
218.9855	0.068	437971	keystroke	Key.backspace	n/a
219.1555	0.0915	438311	keystroke	Key.backspace	n/a
219.324	0.0695	438648	keystroke	Key.backspace	n/a
219.4665	0.0675	438933	keystroke	Key.backspace	n/a
219.6125	0.1135	439225	keystroke	Key.backspace	n/a
219.7485	0.095	439497	keystroke	s	n/a
219.932	0.115	439864	keystroke	t	n/a
220.0235	0.111	440047	keystroke	i	n/a
220.2015	0.135	440403	keystroke	c	n/a
220.4125	0.159	440825	keystroke	Key.space	n/a
221.5465	0.0915	443093	keystroke	f	n/a
221.66	0.1135	443320	keystroke	i	n/a
221.8275	0.114	443655	keystroke	t	n/a
221.9635	0.1145	443927	keystroke	n	n/a
222.0795	0.0905	444159	keystroke	e	n/a
222.2475	0.093	444495	keystroke	s	n/a
222.4055	0.091	444811	keystroke	s	n/a
222.5195	0.112	445039	keystroke	Key.space	n/a
222.6625	0.091	445325	keystroke	c	n/a
222.7555	0.09	445511	keystroke	i	n/a
222.8765	0.115	445753	keystroke	s	n/a
223.085	0.113	446170	keystroke	c	n/a
223.347	0.134	446694	keystroke	o	n/a
223.913	0.157	447826	keystroke	Key.space	n/a
224.4995	0.161	448999	keystroke	c	n/a
224.5885	0.141	449177	keystroke	e	n/a
224.7505	0.115	449501	keystroke	n	n/a
224.8665	0.112	449733	keystroke	t	n/a
225.0365	0.1115	450073	keystroke	e	n/a
225.222	0.1165	450444	keystroke	r	n/a
225.36	0.134	450720	keystroke	Key.enter	n/a
225.499	12.3905	450998	prompt	n/a	navigation impressed faculty schema\n
226.4055	0.1585	452811	keystroke	n	n/a
226.541	0.203	453082	keystroke	a	n/a
226.776	0.114	453552	keystroke	g	n/a
226.891	0.137	453782	keystroke	i	n/a
227.8085	0.047	455617	keystroke	Key.backspace	n/a
227.925	0.1155	455850	keystroke	Key.backspace	n/a
228.107	0.0915	456214	keystroke	v	n/a
228.2495	0.0685	456499	keystroke	i	n/a
228.867	0.092	457734	keystroke	g	n/a
228.96	0.131	457920	keystroke	a	n/a
229.067	0.137	458134	keystroke	t	n/a
229.1585	0.0905	458317	keystroke	i	n/a
229.3145	0.136	458629	keystroke	o	n/a
229.5075	0.1125	459015	keystroke	n	n/a
229.6765	0.1825	459353	keystroke	Key.space	n/a
229.835	0.093	459670	keystroke	i	n/a
230.0205	0.093	460041	keystroke	m	n/a
230.212	0.1345	460424	keystroke	p	n/a
230.3675	0.07	460735	keystroke	r	n/a
230.5205	0.0905	461041	keystroke	e	n/a
230.686	0.184	461372	keystroke	s	n/a
230.8005	0.0955	461601	keystroke	e	n/a
231.379	0.073	462758	keystroke	Key.backspace	n/a
231.4865	0.2005	462973	keystroke	s	n/a
231.5975	0.1115	463195	keystroke	e	n/a
231.8025	0.116	463605	keystroke	d	n/a
231.94	0.1135	463880	keystroke	Key.space	n/a
232.8335	0.115	465667	keystroke	f	n/a
232.9245	0.1365	465849	keystroke	a	n/a
233.0825	0.112	466165	keystroke	c	n/a
233.1955	0.111	466391	keystroke	u	n/a
233.4045	0.1135	466809	keystroke	l	n/a
233.54	0.1325	467080	keystroke	t	n/a
233.7395	0.138	467479	keystroke	y	n/a
233.8975	0.1135	467795	keystroke	Key.space	n/a
234.6255	0.093	469251	keystroke	s	n/a
234.832	0.114	469664	keystroke	h	n/a
234.923	0.1145	469846	keystroke	c	n/a
235.17	0.1135	470340	keystroke	e	n/a
235.4155	0.0885	470831	keystroke	m	n/a
235.9675	0.0705	471935	keystroke	Key.backspace	n/a
236.1025	0.0905	472205	keystroke	Key.backspace	n/a
236.216	0.09	472432	keystroke	Key.backspace	n/a
236.381	0.068	472762	keystroke	Key.backspace	n/a
236.7875	0.1355	473575	keystroke	c	n/a
237.023	0.134	474046	keystroke	h	n/a
237.179	0.115	474358	keystroke	e	n/a
237.403	0.0925	474806	keystroke	m	n/a
237.5375	0.1135	475075	keystroke	a	n/a
237.751	0.135	475502	keystroke	Key.enter	n/a
237.899	9.1385	475798	prompt	n/a	desk suggestions forbidden calculators\n
238.733	0.0915	477466	keystroke	d	n/a
239.161	0.1135	478322	keystroke	e	n/a
239.371	0.0905	478742	keystroke	s	n/a
239.524	0.2025	479048	keystroke	k	n/a
239.6145	0.2	479229	keystroke	Key.space	n/a
239.8155	0.092	479631	keystroke	s	n/a
239.9285	0.1355	479857	keystroke	u	n/a
240.575	0.0685	481150	keystroke	g	n/a
240.731	0.089	481462	keystroke	g	n/a
240.867	0.114	481734	keystroke	e	n/a
241.057	0.135	482114	keystroke	s	n/a
241.213	0.093	482426	keystroke	t	n/a
241.307	0.088	482614	keystroke	i	n/a
241.444	0.114	482888	keystroke	o	n/a
241.649	0.115	483298	keystroke	n	n/a
241.717	0.114	483434	keystroke	s	n/a
241.887	0.157	483774	keystroke	Key.space	n/a
242.204	0.114	484408	keystroke	f	n/a
242.319	0.1125	484638	keystroke	o	n/a
242.453	0.113	484906	keystroke	r	n/a
243.2565	0.0905	486513	keystroke	b	n/a
243.3955	0.137	486791	keystroke	i	n/a
243.5335	0.0675	487067	keystroke	d	n/a
243.7755	0.092	487551	keystroke	d	n/a
244.253	0.114	488506	keystroke	e	n/a
244.414	0.0905	488828	keystroke	n	n/a
244.6095	0.1125	489219	keystroke	Key.space	n/a
244.723	0.1135	489446	keystroke	c	n/a
244.8125	0.1145	489625	keystroke	a	n/a
244.949	0.09	489898	keystroke	l	n/a
245.581	0.135	491162	keystroke	c	n/a
245.738	0.1135	491476	keystroke	u	n/a
246.0765	0.0885	492153	keystroke	a	n/a
246.1955	0.1155	492391	keystroke	t	n/a
246.4	0.116	492800	keystroke	o	n/a
246.55	0.113	493100	keystroke	r	n/a
246.7755	0.116	493551	keystroke	s	n/a
246.9445	0.0915	493889	keystroke	Key.enter	n/a
247.0425	20.676	494085	prompt	n/a	portugal demonstrates egyptian destroy\n
248.0145	0.114	496029	keystroke	p	n/a
248.1805	0.113	496361	keystroke	r	n/a
248.2695	0.139	496539	keystroke	o	n/a
248.453	0.115	496906	keystroke	t	n/a
248.692	0.116	497384	keystroke	u	n/a
248.9055	0.1145	497811	keystroke	g	n/a
249.021	0.1345	498042	keystroke	a	n/a
249.132	0.137	498264	keystroke	l	n/a
249.354	0.1585	498708	keystroke	Key.space	n/a
250.412	0.068	500824	keystroke	Key.backspace	n/a
250.57	0.07	501140	keystroke	Key.backspace	n/a
250.742	0.067	501484	keystroke	Key.backspace	n/a
250.894	0.0675	501788	keystroke	Key.backspace	n/a
251.054	0.0675	502108	keystroke	Key.backspace	n/a
251.188	0.0925	502376	keystroke	Key.backspace	n/a
251.3855	0.0915	502771	keystroke	Key.backspace	n/a
251.7685	0.1145	503537	keystroke	Key.backspace	n/a
252.152	0.134	504304	keystroke	o	n/a
252.308	0.091	504616	keystroke	r	n/a
252.489	0.115	504978	keystroke	t	n/a
252.701	0.132	505402	keystroke	u	n/a
252.908	0.1145	505816	keystroke	g	n/a
253.023	0.11	506046	keystroke	a	n/a
253.174	0.09	506348	keystroke	l	n/a
253.3105	0.1595	506621	keystroke	Key.space	n/a
254.5105	0.1355	509021	keystroke	d	n/a
254.8435	0.136	509687	keystroke	e	n/a
255.0465	0.114	510093	keystroke	m	n/a
255.1935	0.1345	510387	keystroke	o	n/a
255.328	0.136	510656	keystroke	s	n/a
255.948	0.0695	511896	keystroke	Key.backspace	n/a
256.2125	0.114	512425	keystroke	n	n/a
256.3605	0.092	512721	keystroke	s	n/a
256.7225	0.138	513445	keystroke	t	n/a
256.9515	0.1365	513903	keystroke	r	n/a
257.1615	0.114	514323	keystroke	a	n/a
257.2075	0.135	514415	keystroke	t	n/a
257.637	0.112	515274	keystroke	e	n/a
257.834	0.1335	515668	keystroke	s	n/a
258.0065	0.137	516013	keystroke	Key.space	n/a
258.5795	0.1395	517159	keystroke	e	n/a
259.0455	0.1145	518091	keystroke	g	n/a
259.496	0.114	518992	keystroke	y	n/a
259.8115	0.1155	519623	keystroke	p	n/a
259.981	0.1125	519962	keystroke	t	n/a
260.094	0.115	520188	keystroke	i	n/a
260.441	0.157	520882	keystroke	a	n/a
260.599	0.0915	521198	keystroke	n	n/a
260.8095	0.113	521619	keystroke	Key.space	n/a
261.4555	0.07	522911	keystroke	Key.backspace	n/a
261.6215	0.07	523243	keystroke	Key.backspace	n/a
261.7965	0.1145	523593	keystroke	Key.backspace	n/a
263.387	0.157	526774	keystroke	a	n/a
263.5685	0.0925	527137	keystroke	n	n/a
263.773	0.132	527546	keystroke	Key.space	n/a
264.572	0.113	529144	keystroke	d	n/a
264.779	0.092	529558	keystroke	e	n/a
264.958	0.139	529916	keystroke	s	n/a
265.098	0.088	530196	keystroke	t	n/a
265.2725	0.1125	530545	keystroke	r	n/a
266.9375	0.112	533875	keystroke	o	n/a
267.2695	0.1125	534539	keystroke	y	n/a
267.624	0.0925	535248	keystroke	Key.enter	n/a
267.723	9.995	535446	prompt	n/a	enhance metallic fall chinese\n
268.6865	0.1345	537373	keystroke	e	n/a
268.822	0.134	537644	keystroke	n	n/a
269.126	0.113	538252	keystroke	h	n/a
269.2625	0.1135	538525	keystroke	a	n/a
269.416	0.1105	538832	keystroke	n	n/a
269.5585	0.182	539117	keystroke	c	n/a
269.648	0.16	539296	keystroke	e	n/a
269.829	0.138	539658	keystroke	Key.space	n/a
270.6445	0.1355	541289	keystroke	e	n/a
271.164	0.116	542328	keystroke	Key.backspace	n/a
271.442	0.113	542884	keystroke	m	n/a
271.556	0.068	543112	keystroke	e	n/a
271.687	0.136	543374	keystroke	t	n/a
271.861	0.1605	543722	keystroke	a	n/a
272.0435	0.135	544087	keystroke	l	n/a
272.2635	0.114	544527	keystroke	l	n/a
272.4845	0.1375	544969	keystroke	i	n/a
272.659	0.047	545318	keystroke	c	n/a
272.7545	0.024	545509	keystroke	c	n/a
273.004	0.134	546008	keystroke	Key.space	n/a
273.4355	0.069	546871	keystroke	Key.backspace	n/a
273.5595	0.112	547119	keystroke	Key.backspace	n/a
274.1715	0.1595	548343	keystroke	Key.space	n/a
274.5355	0.137	549071	keystroke	f	n/a
274.673	0.137	549346	keystroke	a	n/a
274.787	0.113	549574	keystroke	l	n/a
274.946	0.1375	549892	keystroke	l	n/a
275.105	0.136	550210	keystroke	Key.space	n/a
275.355	0.136	550710	keystroke	c	n/a
275.539	0.1345	551078	keystroke	h	n/a
276.0735	0.113	552147	keystroke	m	n/a
276.5845	0.114	553169	keystroke	Key.backspace	n/a
276.8745	0.092	553749	keystroke	i	n/a
277.0365	0.1395	554073	keystroke	n	n/a
277.129	0.093	554258	keystroke	e	n/a
277.337	0.092	554674	keystroke	s	n/a
277.383	0.112	554766	keystroke	e	n/a
277.6035	0.1125	555207	keystroke	Key.enter	n/a
277.723	8.8445	555446	prompt	n/a	menu safer physically sport\n
278.485	0.157	556970	keystroke	m	n/a
278.664	0.091	557328	keystroke	e	n/a
278.7875	0.0895	557575	keystroke	n	n/a
279.06	0.116	558120	keystroke	u	n/a
279.236	0.18	558472	keystroke	Key.space	n/a
279.438	0.111	558876	keystroke	s	n/a
279.585	0.113	559170	keystroke	a	n/a
279.745	0.1165	559490	keystroke	g	n/a
279.9155	0.1155	559831	keystroke	e	n/a
280.121	0.092	560242	keystroke	r	n/a
280.433	0.046	560866	keystroke	Key.backspace	n/a
280.643	0.093	561286	keystroke	Key.backspace	n/a
280.804	0.115	561608	keystroke	Key.backspace	n/a
280.92	0.1135	561840	keystroke	f	n/a
281.0555	0.135	562111	keystroke	e	n/a
281.261	0.117	562522	keystroke	r	n/a
281.4025	0.135	562805	keystroke	Key.space	n/a
281.803	0.139	563606	keystroke	p	n/a
282.0335	0.116	564067	keystroke	h	n/a
282.1935	0.163	564387	keystroke	s	n/a
282.2845	0.116	564569	keystroke	y	n/a
283.3125	0.093	566625	keystroke	Key.backspace	n/a
283.4945	0.092	566989	keystroke	Key.backspace	n/a
283.992	0.1145	567984	keystroke	y	n/a
284.146	0.113	568292	keystroke	s	n/a
284.281	0.0685	568562	keystroke	i	n/a
284.371	0.138	568742	keystroke	c	n/a
284.485	0.0915	568970	keystroke	a	n/a
284.531	0.09	569062	keystroke	l	n/a
284.68	0.0915	569360	keystroke	l	n/a
284.8265	0.0925	569653	keystroke	y	n/a
284.9495	0.136	569899	keystroke	Key.space	n/a
285.6785	0.1155	571357	keystroke	s	n/a
285.7945	0.09	571589	keystroke	p	n/a
285.971	0.112	571942	keystroke	o	n/a
286.1055	0.091	572211	keystroke	r	n/a
286.2875	0.09	572575	keystroke	t	n/a
286.4505	0.115	572901	keystroke	Key.enter	n/a
286.5725	10.698	573145	prompt	n/a	didn't usage comfort sending\n
287.232	0.0895	574464	keystroke	d	n/a
287.349	0.1165	574698	keystroke	i	n/a
287.466	0.135	574932	keystroke	d	n/a
287.577	0.115	575154	keystroke	n	n/a
287.8305	0.1355	575661	keystroke	t	n/a
288.676	0.067	577352	keystroke	Key.backspace	n/a
288.9925	0.0905	577985	keystroke	'	n/a
289.163	0.112	578326	keystroke	t	n/a
289.3585	0.181	578717	keystroke	Key.space	n/a
289.88	0.092	579760	keystroke	i	n/a
289.903	0.094	579806	keystroke	u	n/a
290.019	0.111	580038	keystroke	s	n/a
290.251	0.116	580502	keystroke	a	n/a
290.559	0.069	581118	keystroke	Key.backspace	n/a
290.7165	0.069	581433	keystroke	Key.backspace	n/a
290.871	0.07	581742	keystroke	Key.backspace	n/a
291.035	0.136	582070	keystroke	Key.backspace	n/a
291.577	0.113	583154	keystroke	u	n/a
291.721	0.0915	583442	keystroke	s	n/a
291.834	0.0925	583668	keystroke	a	n/a
291.948	0.0915	583896	keystroke	g	n/a
292.107	0.115	584214	keystroke	e	n/a
292.255	0.115	584510	keystroke	Key.space	n/a
292.842	0.137	585684	keystroke	c	n/a
293.002	0.069	586004	keystroke	o	n/a
293.155	0.115	586310	keystroke	m	n/a
293.247	0.0465	586494	keystroke	f	n/a
293.389	0.1355	586778	keystroke	r	n/a
293.547	0.1355	587094	keystroke	o	n/a
293.775	0.1615	587550	keystroke	t	n/a
294.3015	0.068	588603	keystroke	Key.backspace	n/a
294.4615	0.137	588923	keystroke	Key.backspace	n/a
294.712	0.156	589424	keystroke	Key.backspace	n/a
295.074	0.138	590148	keystroke	o	n/a
295.213	0.086	590426	keystroke	r	n/a
295.393	0.115	590786	keystroke	t	n/a
295.485	0.16	590970	keystroke	Key.space	n/a
296.2365	0.229	592473	keystroke	s	n/a
296.3725	0.116	592745	keystroke	e	n/a
296.5105	0.1135	593021	keystroke	n	n/a
296.6245	0.1115	593249	keystroke	d	n/a
296.757	0.068	593514	keystroke	i	n/a
296.902	0.091	593804	keystroke	n	n/a
297.015	0.1125	594030	keystroke	g	n/a
297.177	0.0915	594354	keystroke	Key.enter	n/a
297.274	11.8185	594548	prompt	n/a	republican surname hosting positions\n
298.05	0.0915	596100	keystroke	r	n/a
298.238	0.115	596476	keystroke	e	n/a
298.4525	0.137	596905	keystroke	p	n/a
298.7665	0.113	597533	keystroke	u	n/a
299.1055	0.091	598211	keystroke	b	n/a
299.31	0.1125	598620	keystroke	l	n/a
299.5075	0.091	599015	keystroke	o	n/a
299.7105	0.068	599421	keystroke	n	n/a
299.7335	0.181	599467	keystroke	c	n/a
299.8895	0.1395	599779	keystroke	a	n/a
300.2885	0.0695	600577	keystroke	Key.backspace	n/a
300.4195	0.0905	600839	keystroke	Key.backspace	n/a
300.561	0.069	601122	keystroke	Key.backspace	n/a
300.686	0.1145	601372	keystroke	Key.backspace	n/a
301.34	0.137	602680	keystroke	i	n/a
301.477	0.113	602954	keystroke	c	n/a
301.543	0.115	603086	keystroke	a	n/a
301.732	0.09	603464	keystroke	n	n/a
301.985	0.1145	603970	keystroke	Key.space	n/a
302.9695	0.1385	605939	keystroke	s	n/a
303.152	0.114	606304	keystroke	u	n/a
303.2665	0.113	606533	keystroke	r	n/a
303.4275	0.0685	606855	keystroke	n	n/a
303.594	0.0885	607188	keystroke	m	n/a
303.7775	0.159	607555	keystroke	e	n/a
304.2125	0.09	608425	keystroke	Key.backspace	n/a
304.849	0.1145	609698	keystroke	Key.backspace	n/a
305.035	0.114	610070	keystroke	a	n/a
305.1785	0.0925	610357	keystroke	m	n/a
305.32	0.111	610640	keystroke	e	n/a
305.535	0.1595	611070	keystroke	Key.space	n/a
306.2895	0.092	612579	keystroke	h	n/a
306.4245	0.1365	612849	keystroke	o	n/a
306.492	0.071	612984	keystroke	s	n/a
306.6335	0.135	613267	keystroke	t	n/a
306.7695	0.07	613539	keystroke	i	n/a
306.9155	0.07	613831	keystroke	n	n/a
307.0185	0.0915	614037	keystroke	g	n/a
307.132	0.1365	614264	keystroke	Key.space	n/a
307.8295	0.113	615659	keystroke	p	n/a
308.0145	0.1135	616029	keystroke	o	n/a
308.1285	0.066	616257	keystroke	s	n/a
308.2175	0.091	616435	keystroke	i	n/a
308.331	0.091	616662	keystroke	t	n/a
308.423	0.0875	616846	keystroke	i	n/a
308.5675	0.113	617135	keystroke	o	n/a
308.7265	0.0895	617453	keystroke	n	n/a
308.8375	0.134	617675	keystroke	s	n/a
309.002	0.089	618004	keystroke	Key.enter	n/a
309.099	14.283	618198	prompt	n/a	fever menus enhancement subjective\n
309.877	0.136	619754	keystroke	f	n/a
309.989	0.162	619978	keystroke	e	n/a
310.23	0.114	620460	keystroke	v	n/a
310.419	0.07	620838	keystroke	e	n/a
310.5735	0.0685	621147	keystroke	r	n/a
310.7595	0.1135	621519	keystroke	Key.space	n/a
311.039	0.157	622078	keystroke	m	n/a
311.2185	0.0885	622437	keystroke	e	n/a
311.367	0.089	622734	keystroke	n	n/a
311.539	0.114	623078	keystroke	u	n/a
311.707	0.136	623414	keystroke	s	n/a
311.894	0.137	623788	keystroke	Key.space	n/a
312.524	0.1125	625048	keystroke	e	n/a
312.6375	0.1345	625275	keystroke	n	n/a
312.8995	0.1145	625799	keystroke	h	n/a
313.044	0.1145	626088	keystroke	a	n/a
313.1595	0.09	626319	keystroke	n	n/a
313.308	0.113	626616	keystroke	c	n/a
313.7985	0.112	627597	keystroke	m	n/a
313.932	0.1385	627864	keystroke	e	n/a
314.0245	0.092	628049	keystroke	n	n/a
314.138	0.1145	628276	keystroke	t	n/a
314.2915	0.1135	628583	keystroke	Key.space	n/a
314.607	0.0685	629214	keystroke	Key.backspace	n/a
314.764	0.089	629528	keystroke	Key.backspace	n/a
314.876	0.115	629752	keystroke	Key.backspace	n/a
315.0705	0.0675	630141	keystroke	Key.backspace	n/a
315.38	0.111	630760	keystroke	Key.backspace	n/a
315.742	0.1155	631484	keystroke	e	n/a
315.967	0.116	631934	keystroke	m	n/a
316.2045	0.117	632409	keystroke	t	n/a
316.274	0.094	632548	keystroke	n	n/a
316.758	0.046	633516	keystroke	Key.backspace	n/a
316.891	0.09	633782	keystroke	Key.backspace	n/a
317.029	0.116	634058	keystroke	e	n/a
317.176	0.047	634352	keystroke	b	n/a
317.29	0.138	634580	keystroke	t	n/a
317.763	0.045	635526	keystroke	Key.backspace	n/a
317.889	0.0915	635778	keystroke	Key.backspace	n/a
318.4025	0.112	636805	keystroke	n	n/a
318.5675	0.1385	637135	keystroke	t	n/a
318.7065	0.1565	637413	keystroke	Key.space	n/a
319.5785	0.136	639157	keystroke	s	n/a
319.7155	0.114	639431	keystroke	u	n/a
319.9145	0.09	639829	keystroke	b	n/a
320.1105	0.093	640221	keystroke	j	n/a
320.2255	0.0925	640451	keystroke	e	n/a
320.4265	0.135	640853	keystroke	c	n/a
320.563	0.1115	641126	keystroke	t	n/a
320.937	0.1115	641874	keystroke	t	n/a
321.0695	0.1155	642139	keystroke	i	n/a
321.2065	0.069	642413	keystroke	v	n/a
321.7	0.069	643400	keystroke	Key.backspace	n/a
321.839	0.0675	643678	keystroke	Key.backspace	n/a
322.653	0.0915	645306	keystroke	Key.backspace	n/a
322.9025	0.1145	645805	keystroke	i	n/a
322.994	0.0895	645988	keystroke	v	n/a
323.1505	0.1365	646301	keystroke	e	n/a
323.309	0.071	646618	keystroke	Key.enter	n/a
323.3865	11.635	646773	prompt	n/a	qatar nine notion related\n
324.5685	0.1135	649137	keystroke	w	n/a
324.756	0.1375	649512	keystroke	a	n/a
324.9465	0.114	649893	keystroke	t	n/a
325.1655	0.221	650331	keystroke	a	n/a
325.6435	0.0895	651287	keystroke	Key.backspace	n/a
325.7915	0.068	651583	keystroke	Key.backspace	n/a
325.944	0.0695	651888	keystroke	Key.backspace	n/a
326.0695	0.1135	652139	keystroke	Key.backspace	n/a
326.314	0.114	652628	keystroke	Key.backspace	n/a
326.655	0.135	653310	keystroke	q	n/a
327.0225	0.1145	654045	keystroke	t	n/a
327.4685	0.113	654937	keystroke	Key.backspace	n/a
327.685	0.1825	655370	keystroke	a	n/a
327.8205	0.1135	655641	keystroke	t	n/a
328.056	0.1565	656112	keystroke	a	n/a
329.1145	0.1365	658229	keystroke	r	n/a
329.252	0.1125	658504	keystroke	Key.space	n/a
329.454	0.115	658908	keystroke	n	n/a
329.59	0.112	659180	keystroke	i	n/a
329.749	0.1145	659498	keystroke	n	n/a
329.865	0.1105	659730	keystroke	e	n/a
330.082	0.113	660164	keystroke	Key.space	n/a
330.853	0.091	661706	keystroke	n	n/a
330.998	0.1155	661996	keystroke	o	n/a
331.1365	0.117	662273	keystroke	t	n/a
331.2035	0.095	662407	keystroke	i	n/a
331.3655	0.1105	662731	keystroke	o	n/a
331.5465	0.0675	663093	keystroke	n	n/a
331.719	0.091	663438	keystroke	Key.space	n/a
332.339	0.112	664678	keystroke	r	n/a
332.532	0.1135	665064	keystroke	e	n/a
332.6745	0.138	665349	keystroke	l	n/a
332.7425	0.115	665485	keystroke	a	n/a
332.7875	0.115	665575	keystroke	t	n/a
332.9845	0.1125	665969	keystroke	e	n/a
333.3255	0.068	666651	keystroke	Key.backspace	n/a
333.4645	0.1135	666929	keystroke	Key.backspace	n/a
334.2925	0.0925	668585	keystroke	t	n/a
334.506	0.0915	669012	keystroke	e	n/a
334.7095	0.137	669419	keystroke	d	n/a
334.884	0.136	669768	keystroke	Key.enter	n/a
335.0265	6.9625	670053	prompt	n/a	years extract forty readings\n
336.0465	0.135	672093	keystroke	y	n/a
336.182	0.113	672364	keystroke	e	n/a
336.271	0.141	672542	keystroke	a	n/a
336.365	0.114	672730	keystroke	r	n/a
336.5945	0.1345	673189	keystroke	s	n/a
336.767	0.135	673534	keystroke	Key.space	n/a
337.069	0.092	674138	keystroke	e	n/a
337.368	0.1585	674736	keystroke	x	n/a
337.635	0.091	675270	keystroke	t	n/a
337.8095	0.1365	675619	keystroke	r	n/a
337.922	0.158	675844	keystroke	a	n/a
338.103	0.135	676206	keystroke	c	n/a
338.3645	0.1585	676729	keystroke	t	n/a
338.6015	0.1365	677203	keystroke	Key.space	n/a
339.3515	0.091	678703	keystroke	f	n/a
339.4195	0.158	678839	keystroke	o	n/a
339.5785	0.0895	679157	keystroke	r	n/a
339.733	0.1135	679466	keystroke	t	n/a
339.8835	0.1375	679767	keystroke	y	n/a
340.117	0.182	680234	keystroke	Key.space	n/a
340.645	0.1125	681290	keystroke	r	n/a
340.8225	0.1365	681645	keystroke	e	n/a
340.913	0.181	681826	keystroke	a	n/a
341.124	0.114	682248	keystroke	d	n/a
341.261	0.069	682522	keystroke	i	n/a
341.416	0.069	682832	keystroke	n	n/a
341.508	0.111	683016	keystroke	g	n/a
341.722	0.111	683444	keystroke	s	n/a
341.8545	0.1325	683709	keystroke	Key.enter	n/a
341.9945	17.1165	683989	prompt	n/a	threshold procurement equal desert\n
342.866	0.1365	685732	keystroke	t	n/a
343.003	0.1345	686006	keystroke	h	n/a
343.138	0.114	686276	keystroke	r	n/a
343.3355	0.0925	686671	keystroke	e	n/a
343.517	0.112	687034	keystroke	s	n/a
343.676	0.069	687352	keystroke	h	n/a
343.8305	0.135	687661	keystroke	o	n/a
344.0815	0.114	688163	keystroke	l	n/a
344.225	0.1365	688450	keystroke	d	n/a
344.4035	0.16	688807	keystroke	Key.space	n/a
347.663	0.159	695326	keystroke	p	n/a
347.823	0.11	695646	keystroke	r	n/a
347.9935	0.115	695987	keystroke	o	n/a
348.7115	0.1365	697423	keystroke	c	n/a
348.883	0.136	697766	keystroke	u	n/a
349.084	0.092	698168	keystroke	r	n/a
350.935	0.134	701870	keystroke	e	n/a
351.1955	0.135	702391	keystroke	m	n/a
351.3855	0.158	702771	keystroke	e	n/a
351.5185	0.115	703037	keystroke	n	n/a
351.7225	0.136	703445	keystroke	t	n/a
352.134	0.1585	704268	keystroke	Key.space	n/a
352.6115	0.11	705223	keystroke	e	n/a
353.6805	0.113	707361	keystroke	q	n/a
353.7955	0.112	707591	keystroke	u	n/a
353.9765	0.1135	707953	keystroke	a	n/a
354.12	0.09	708240	keystroke	;	n/a
354.272	0.092	708544	keystroke	Key.space	n/a
354.398	0.0725	708796	keystroke	d	n/a
354.58	0.113	709160	keystroke	e	n/a
354.7735	0.2315	709547	keystroke	s	n/a
354.9135	0.114	709827	keystroke	e	n/a
355.1165	0.1105	710233	keystroke	r	n/a
356.153	0.0445	712306	keystroke	Key.backspace	n/a
356.445	0.0675	712890	keystroke	Key.backspace	n/a
357.1455	0.0895	714291	keystroke	l	n/a
357.282	0.157	714564	keystroke	Key.space	n/a
357.441	0.066	714882	keystroke	d	n/a
357.624	0.1135	715248	keystroke	e	n/a
357.824	0.184	715648	keystroke	s	n/a
357.939	0.1125	715878	keystroke	e	n/a
358.1225	0.091	716245	keystroke	r	n/a
358.317	0.134	716634	keystroke	t	n/a
358.992	0.1175	717984	keystroke	Key.enter	n/a
359.1155	22.4505	718231	prompt	n/a	inherited tickets twins acknowledged\n
359.9245	0.113	719849	keystroke	i	n/a
360.0935	0.1125	720187	keystroke	n	n/a
360.359	0.137	720718	keystroke	h	n/a
360.4705	0.0925	720941	keystroke	e	n/a
360.762	0.137	721524	keystroke	i	n/a
360.874	0.116	721748	keystroke	t	n/a
361.252	0.068	722504	keystroke	Key.backspace	n/a
361.415	0.115	722830	keystroke	Key.backspace	n/a
361.751	0.1375	723502	keystroke	r	n/a
361.9505	0.139	723901	keystroke	i	n/a
362.0895	0.088	724179	keystroke	t	n/a
362.2595	0.092	724519	keystroke	e	n/a
362.448	0.1155	724896	keystroke	d	n/a
362.5865	0.113	725173	keystroke	Key.space	n/a
363.471	0.1135	726942	keystroke	t	n/a
363.6655	0.115	727331	keystroke	i	n/a
363.8025	0.0905	727605	keystroke	c	n/a
363.9545	0.0935	727909	keystroke	k	n/a
364.168	0.068	728336	keystroke	e	n/a
365.5625	0.111	731125	keystroke	t	n/a
365.7765	0.1345	731553	keystroke	s	n/a
365.9805	0.114	731961	keystroke	Key.space	n/a
375.075	0.1165	750150	keystroke	t	n/a
375.214	0.069	750428	keystroke	i	n/a
375.381	0.068	750762	keystroke	n	n/a
375.48	0.092	750960	keystroke	w	n/a
375.696	0.114	751392	keystroke	s	n/a
375.8415	0.1135	751683	keystroke	Key.space	n/a
376.096	0.07	752192	keystroke	Key.backspace	n/a
376.232	0.07	752464	keystroke	Key.backspace	n/a
376.3615	0.0465	752723	keystroke	Key.backspace	n/a
376.467	0.0705	752934	keystroke	Key.backspace	n/a
376.56	0.112	753120	keystroke	Key.backspace	n/a
377.06	0.115	754120	keystroke	w	n/a
377.2215	0.0675	754443	keystroke	i	n/a
377.387	0.0925	754774	keystroke	n	n/a
377.5775	0.0925	755155	keystroke	s	n/a
377.745	0.1155	755490	keystroke	Key.space	n/a
378.4175	0.138	756835	keystroke	a	n/a
378.5865	0.1125	757173	keystroke	c	n/a
378.7955	0.1115	757591	keystroke	k	n/a
379.16	0.094	758320	keystroke	n	n/a
379.322	0.1125	758644	keystroke	o	n/a
379.536	0.115	759072	keystroke	w	n/a
380.2935	0.1355	760587	keystroke	l	n/a
380.405	0.0915	760810	keystroke	e	n/a
380.575	0.112	761150	keystroke	d	n/a
380.749	0.0915	761498	keystroke	g	n/a
380.902	0.091	761804	keystroke	e	n/a
381.0845	0.0925	762169	keystroke	d	n/a
381.2925	0.112	762585	keystroke	Key.space	n/a
381.4735	0.091	762947	keystroke	Key.enter	n/a
381.57	15.4285	763140	prompt	n/a	knowledge renew kept warehouse\n
382.495	0.1825	764990	keystroke	k	n/a
382.6295	0.051	765259	keystroke	n	n/a
382.7005	0.0705	765401	keystroke	m	n/a
382.7925	0.0895	765585	keystroke	o	n/a
382.8825	0.112	765765	keystroke	w	n/a
383.2395	0.114	766479	keystroke	l	n/a
383.3065	0.07	766613	keystroke	e	n/a
383.4785	0.1345	766957	keystroke	d	n/a
383.71	0.07	767420	keystroke	g	n/a
383.7805	0.022	767561	keystroke	f	n/a
383.891	0.069	767782	keystroke	Key.backspace	n/a
384.0325	0.092	768065	keystroke	Key.backspace	n/a
384.1655	0.0705	768331	keystroke	Key.backspace	n/a
384.312	0.0685	768624	keystroke	Key.backspace	n/a
384.4455	0.0905	768891	keystroke	Key.backspace	n/a
384.5995	0.07	769199	keystroke	Key.backspace	n/a
384.7325	0.069	769465	keystroke	Key.backspace	n/a
384.8235	0.114	769647	keystroke	Key.backspace	n/a
385.5025	0.136	771005	keystroke	o	n/a
385.6395	0.266	771279	keystroke	w	n/a
385.7485	0.2025	771497	keystroke	e	n/a
385.927	0.159	771854	keystroke	l	n/a
386.1245	0.1355	772249	keystroke	d	n/a
386.607	0.068	773214	keystroke	Key.backspace	n/a
386.7595	0.1125	773519	keystroke	Key.backspace	n/a
387.0425	0.0905	774085	keystroke	Key.backspace	n/a
387.483	0.1405	774966	keystroke	l	n/a
387.6245	0.0895	775249	keystroke	e	n/a
387.785	0.1355	775570	keystroke	d	n/a
387.995	0.091	775990	keystroke	g	n/a
388.1525	0.1135	776305	keystroke	e	n/a
388.319	0.1355	776638	keystroke	Key.space	n/a
389.1415	0.0915	778283	keystroke	r	n/a
389.3325	0.1135	778665	keystroke	e	n/a
389.555	0.1135	779110	keystroke	n	n/a
389.7415	0.1135	779483	keystroke	e	n/a
389.907	0.1595	779814	keystroke	w	n/a
390.0965	0.1125	780193	keystroke	Key.space	n/a
390.813	0.115	781626	keystroke	k	n/a
390.9295	0.112	781859	keystroke	e	n/a
391.062	0.114	782124	keystroke	p	n/a
391.198	0.114	782396	keystroke	t	n/a
391.3345	0.157	782669	keystroke	Key.space	n/a
391.977	0.1125	783954	keystroke	w	n/a
392.2245	0.1625	784449	keystroke	a	n/a
392.3625	0.114	784725	keystroke	r	n/a
392.543	0.112	785086	keystroke	e	n/a
393.0935	0.1585	786187	keystroke	o	n/a
393.467	0.0675	786934	keystroke	Key.backspace	n/a
394.1995	0.114	788399	keystroke	h	n/a
394.335	0.1365	788670	keystroke	o	n/a
394.38	0.114	788760	keystroke	u	n/a
394.5565	0.1595	789113	keystroke	s	n/a
394.648	0.159	789296	keystroke	e	n/a
394.839	0.1135	789678	keystroke	'	n/a
396.6295	0.1125	793259	keystroke	Key.backspace	n/a
396.884	0.113	793768	keystroke	Key.enter	n/a
397.0035	10.1455	794007	prompt	n/a	oscar fireplace carl observer\n
397.862	0.09	795724	keystroke	o	n/a
398.375	0.1125	796750	keystroke	s	n/a
398.61	0.116	797220	keystroke	c	n/a
398.749	0.091	797498	keystroke	a	n/a
398.862	0.0475	797724	keystroke	a	n/a
398.949	0.135	797898	keystroke	r	n/a
399.423	0.047	798846	keystroke	Key.backspace	n/a
399.539	0.113	799078	keystroke	Key.backspace	n/a
399.694	0.1115	799388	keystroke	r	n/a
399.8575	0.1355	799715	keystroke	Key.space	n/a
400.1155	0.093	800231	keystroke	f	n/a
400.229	0.1135	800458	keystroke	i	n/a
400.7435	0.071	801487	keystroke	Key.backspace	n/a
400.8915	0.2025	801783	keystroke	Key.backspace	n/a
401.981	0.092	803962	keystroke	f	n/a
402.0945	0.136	804189	keystroke	i	n/a
402.2305	0.089	804461	keystroke	r	n/a
402.427	0.0695	804854	keystroke	e	n/a
402.552	0.138	805104	keystroke	p	n/a
402.784	0.137	805568	keystroke	l	n/a
402.8965	0.1125	805793	keystroke	a	n/a
403.0315	0.091	806063	keystroke	c	n/a
403.0765	0.1585	806153	keystroke	e	n/a
403.2575	0.16	806515	keystroke	Key.space	n/a
404.0595	0.1375	808119	keystroke	c	n/a
404.1495	0.116	808299	keystroke	a	n/a
404.2665	0.134	808533	keystroke	r	n/a
404.4295	0.115	808859	keystroke	l	n/a
404.614	0.1795	809228	keystroke	Key.space	n/a
404.7705	0.091	809541	keystroke	o	n/a
405.1035	0.16	810207	keystroke	s	n/a
405.674	0.116	811348	keystroke	Key.backspace	n/a
405.812	0.0905	811624	keystroke	b	n/a
406.0285	0.162	812057	keystroke	s	n/a
406.0985	0.116	812197	keystroke	e	n/a
406.2845	0.1145	812569	keystroke	r	n/a
406.466	0.068	812932	keystroke	v	n/a
406.6515	0.0695	813303	keystroke	e	n/a
406.848	0.114	813696	keystroke	r	n/a
407.034	0.113	814068	keystroke	Key.enter	n/a
407.1535	20.8395	814307	prompt	n/a	christians johnny alliance hourly\n
414.0135	0.1355	828027	keystroke	c	n/a
414.1705	0.115	828341	keystroke	h	n/a
414.307	0.09	828614	keystroke	r	n/a
414.4315	0.113	828863	keystroke	i	n/a
414.5455	0.0695	829091	keystroke	s	n/a
414.6785	0.09	829357	keystroke	t	n/a
414.791	0.0905	829582	keystroke	i	n/a
414.9495	0.0945	829899	keystroke	n	n/a
415.066	0.1125	830132	keystroke	a	n/a
415.613	0.0695	831226	keystroke	Key.backspace	n/a
415.7425	0.1145	831485	keystroke	Key.backspace	n/a
416.1035	0.1345	832207	keystroke	a	n/a
416.261	0.045	832522	keystroke	n	n/a
416.425	0.112	832850	keystroke	s	n/a
416.567	0.135	833134	keystroke	Key.space	n/a
417.6995	0.068	835399	keystroke	Key.backspace	n/a
417.8675	0.0915	835735	keystroke	Key.backspace	n/a
418.0205	0.092	836041	keystroke	Key.backspace	n/a
418.874	0.09	837748	keystroke	n	n/a
419.022	0.136	838044	keystroke	s	n/a
419.159	0.203	838318	keystroke	Key.space	n/a
419.249	0.115	838498	keystroke	h	n/a
419.365	0.11	838730	keystroke	o	n/a
420.2195	0.093	840439	keystroke	Key.backspace	n/a
420.3545	0.0675	840709	keystroke	Key.backspace	n/a
420.556	0.1155	841112	keystroke	j	n/a
420.6725	0.199	841345	keystroke	o	n/a
421.0005	0.07	842001	keystroke	n	n/a
421.534	0.138	843068	keystroke	Key.backspace	n/a
421.9005	0.068	843801	keystroke	h	n/a
422.0695	0.091	844139	keystroke	n	n/a
422.2055	0.114	844411	keystroke	n	n/a
422.3615	0.112	844723	keystroke	y	n/a
422.5395	0.159	845079	keystroke	Key.space	n/a
423.1135	0.1165	846227	keystroke	a	n/a
423.26	0.2235	846520	keystroke	l	n/a
423.591	0.1335	847182	keystroke	l	n/a
423.832	0.112	847664	keystroke	i	n/a
423.965	0.114	847930	keystroke	c	n/a
424.056	0.093	848112	keystroke	a	n/a
424.1955	0.0665	848391	keystroke	n	n/a
424.352	0.136	848704	keystroke	e	n/a
424.68	0.07	849360	keystroke	Key.backspace	n/a
424.816	0.091	849632	keystroke	Key.backspace	n/a
425.125	0.134	850250	keystroke	Key.backspace	n/a
425.5485	0.0915	851097	keystroke	Key.backspace	n/a
425.7305	0.1365	851461	keystroke	a	n/a
425.868	0.066	851736	keystroke	n	n/a
425.9675	0.092	851935	keystroke	c	n/a
426.012	0.1575	852024	keystroke	e	n/a
426.4555	0.115	852911	keystroke	Key.space	n/a
427.0045	0.1145	854009	keystroke	h	n/a
427.1685	0.159	854337	keystroke	o	n/a
427.2135	0.116	854427	keystroke	u	n/a
427.3505	0.1155	854701	keystroke	r	n/a
427.4885	0.114	854977	keystroke	l	n/a
427.687	0.1145	855374	keystroke	y	n/a
427.8785	0.1125	855757	keystroke	Key.enter	n/a
427.999	7.212	855998	prompt	n/a	showcase kenneth london paypal\n
428.816	0.113	857632	keystroke	s	n/a
428.93	0.067	857860	keystroke	h	n/a
429.055	0.162	858110	keystroke	o	n/a
429.079	0.1605	858158	keystroke	w	n/a
430.129	0.162	860258	keystroke	c	n/a
430.2435	0.1615	860487	keystroke	a	n/a
430.481	0.228	860962	keystroke	s	n/a
430.6175	0.1595	861235	keystroke	e	n/a
430.878	0.113	861756	keystroke	Key.space	n/a
431.2365	0.09	862473	keystroke	k	n/a
431.3475	0.091	862695	keystroke	e	n/a
431.4605	0.069	862921	keystroke	n	n/a
431.5985	0.116	863197	keystroke	n	n/a
431.666	0.1175	863332	keystroke	e	n/a
431.8375	0.136	863675	keystroke	t	n/a
431.974	0.0885	863948	keystroke	h	n/a
432.189	0.113	864378	keystroke	Key.space	n/a
432.471	0.069	864942	keystroke	l	n/a
432.6195	0.09	865239	keystroke	o	n/a
432.7845	0.067	865569	keystroke	n	n/a
432.933	0.1155	865866	keystroke	d	n/a
433.0705	0.047	866141	keystroke	o	n/a
433.1925	0.067	866385	keystroke	n	n/a
433.45	0.1345	866900	keystroke	Key.space	n/a
434.0565	0.161	868113	keystroke	p	n/a
434.1705	0.115	868341	keystroke	a	n/a
434.4045	0.092	868809	keystroke	y	n/a
434.5965	0.114	869193	keystroke	p	n/a
434.7335	0.092	869467	keystroke	a	n/a
434.864	0.092	869728	keystroke	l	n/a
435.1165	0.0925	870233	keystroke	Key.enter	n/a
435.2155	9.84	870431	prompt	n/a	jets crest i'd coaching\n
436.2215	0.137	872443	keystroke	j	n/a
436.3345	0.114	872669	keystroke	e	n/a
436.5175	0.092	873035	keystroke	r	n/a
436.5405	0.093	873081	keystroke	t	n/a
436.7575	0.116	873515	keystroke	s	n/a
437.467	0.112	874934	keystroke	Key.space	n/a
437.683	0.045	875366	keystroke	c	n/a
437.9285	0.0685	875857	keystroke	Key.backspace	n/a
438.076	0.0895	876152	keystroke	Key.backspace	n/a
438.2555	0.0675	876511	keystroke	Key.backspace	n/a
438.399	0.069	876798	keystroke	Key.backspace	n/a
438.527	0.116	877054	keystroke	Key.backspace	n/a
438.644	0.089	877288	keystroke	t	n/a
438.822	0.108	877644	keystroke	s	n/a
438.97	0.112	877940	keystroke	Key.space	n/a
439.243	0.159	878486	keystroke	c	n/a
439.808	0.1135	879616	keystroke	r	n/a
439.9855	0.1155	879971	keystroke	e	n/a
440.195	0.092	880390	keystroke	e	n/a
440.825	0.1145	881650	keystroke	Key.backspace	n/a
441.198	0.182	882396	keystroke	s	n/a
441.381	0.1545	882762	keystroke	t	n/a
442.1005	0.113	884201	keystroke	Key.space	n/a
442.5495	0.092	885099	keystroke	i	n/a
442.8365	0.09	885673	keystroke	'	n/a
442.9875	0.137	885975	keystroke	d	n/a
443.4155	0.1145	886831	keystroke	Key.space	n/a
443.875	0.112	887750	keystroke	c	n/a
444.0095	0.158	888019	keystroke	o	n/a
444.168	0.114	888336	keystroke	a	n/a
444.304	0.114	888608	keystroke	c	n/a
444.419	0.111	888838	keystroke	h	n/a
444.485	0.114	888970	keystroke	i	n/a
444.696	0.0455	889392	keystroke	n	n/a
444.7715	0.112	889543	keystroke	g	n/a
444.983	0.0705	889966	keystroke	Key.enter	n/a
445.0635	9.1075	890127	prompt	n/a	hormone throw expect highlighted\n
446.07	0.115	892140	keystroke	h	n/a
446.2065	0.116	892413	keystroke	o	n/a
446.3525	0.137	892705	keystroke	r	n/a
446.4665	0.067	892933	keystroke	m	n/a
446.6345	0.068	893269	keystroke	o	n/a
446.7785	0.089	893557	keystroke	n	n/a
446.8685	0.112	893737	keystroke	e	n/a
447.0105	0.0875	894021	keystroke	Key.space	n/a
447.159	0.116	894318	keystroke	t	n/a
447.276	0.067	894552	keystroke	h	n/a
447.365	0.2065	894730	keystroke	o	n/a
447.366	0.1375	894732	keystroke	r	n/a
447.48	0.114	894960	keystroke	u	n/a
447.6915	0.1135	895383	keystroke	g	n/a
448.036	0.069	896072	keystroke	Key.backspace	n/a
448.168	0.069	896336	keystroke	Key.backspace	n/a
448.3195	0.0465	896639	keystroke	Key.backspace	n/a
448.4205	0.1145	896841	keystroke	Key.backspace	n/a
448.558	0.1125	897116	keystroke	r	n/a
448.7155	0.137	897431	keystroke	o	n/a
448.882	0.133	897764	keystroke	w	n/a
449.4595	0.111	898919	keystroke	Key.space	n/a
449.8195	0.112	899639	keystroke	e	n/a
450.138	0.1145	900276	keystroke	x	n/a
450.2755	0.1575	900551	keystroke	p	n/a
450.409	0.0905	900818	keystroke	e	n/a
450.594	0.1145	901188	keystroke	c	n/a
450.798	0.1135	901596	keystroke	t	n/a
451.261	0.091	902522	keystroke	Key.space	n/a
451.853	0.1395	903706	keystroke	h	n/a
451.9215	0.1395	903843	keystroke	i	n/a
452.015	0.1365	904030	keystroke	g	n/a
452.1275	0.091	904255	keystroke	h	n/a
452.3905	0.113	904781	keystroke	l	n/a
452.6155	0.1125	905231	keystroke	i	n/a
452.8285	0.136	905657	keystroke	g	n/a
452.9415	0.066	905883	keystroke	h	n/a
453.1475	0.137	906295	keystroke	t	n/a
453.5145	0.136	907029	keystroke	e	n/a
453.8125	0.0915	907625	keystroke	d	n/a
454.077	0.092	908154	keystroke	Key.enter	n/a
454.176	16.735	908352	prompt	n/a	experience beneficial planner ethiopia\n
454.839	0.0925	909678	keystroke	e	n/a
455.1125	0.112	910225	keystroke	x	n/a
455.225	0.1355	910450	keystroke	p	n/a
455.336	0.1145	910672	keystroke	e	n/a
455.5155	0.091	911031	keystroke	r	n/a
455.6625	0.1115	911325	keystroke	i	n/a
455.9415	0.1345	911883	keystroke	e	n/a
456.0985	0.069	912197	keystroke	n	n/a
456.1985	0.116	912397	keystroke	c	n/a
456.2455	0.158	912491	keystroke	e	n/a
456.559	0.133	913118	keystroke	Key.space	n/a
457.5315	0.114	915063	keystroke	b	n/a
457.6665	0.113	915333	keystroke	e	n/a
457.81	0.115	915620	keystroke	n	n/a
457.9005	0.114	915801	keystroke	e	n/a
458.192	0.1115	916384	keystroke	f	n/a
458.3495	0.046	916699	keystroke	o	n/a
458.3715	0.047	916743	keystroke	i	n/a
458.4495	0.1125	916899	keystroke	c	n/a
458.5385	0.068	917077	keystroke	i	n/a
458.6905	0.111	917381	keystroke	a	n/a
458.8235	0.067	917647	keystroke	l	n/a
459.1195	0.068	918239	keystroke	Key.backspace	n/a
459.481	0.091	918962	keystroke	Key.backspace	n/a
459.633	0.0915	919266	keystroke	Key.backspace	n/a
459.7965	0.067	919593	keystroke	Key.backspace	n/a
459.9255	0.1145	919851	keystroke	Key.backspace	n/a
460.3105	0.091	920621	keystroke	Key.backspace	n/a
460.5845	0.089	921169	keystroke	i	n/a
460.6945	0.115	921389	keystroke	c	n/a
460.7635	0.091	921527	keystroke	a	n/a
460.8935	0.09	921787	keystroke	i	n/a
461.125	0.1145	922250	keystroke	l	n/a
461.371	0.1105	922742	keystroke	Key.space	n/a
461.7065	0.047	923413	keystroke	Key.backspace	n/a
461.8265	0.0905	923653	keystroke	Key.backspace	n/a
461.9985	0.1805	923997	keystroke	Key.backspace	n/a
462.359	0.1145	924718	keystroke	Key.backspace	n/a
462.6925	0.0465	925385	keystroke	i	n/a
462.78	0.1155	925560	keystroke	c	n/a
462.848	0.136	925696	keystroke	a	n/a
463.17	0.068	926340	keystroke	Key.backspace	n/a
463.308	0.067	926616	keystroke	Key.backspace	n/a
464.017	0.1575	928034	keystroke	a	n/a
464.1755	0.109	928351	keystroke	l	n/a
464.344	0.1145	928688	keystroke	Key.space	n/a
465.3855	0.0905	930771	keystroke	p	n/a
465.5735	0.112	931147	keystroke	l	n/a
465.6875	0.112	931375	keystroke	a	n/a
465.8215	0.023	931643	keystroke	n	n/a
465.8455	0.021	931691	keystroke	b	n/a
465.9635	0.093	931927	keystroke	n	n/a
466.0315	0.093	932063	keystroke	e	n/a
466.2055	0.114	932411	keystroke	r	n/a
466.4095	0.181	932819	keystroke	Key.space	n/a
466.7995	0.049	933599	keystroke	Key.backspace	n/a
466.9395	0.048	933879	keystroke	Key.backspace	n/a
467.09	0.069	934180	keystroke	Key.backspace	n/a
467.211	0.0915	934422	keystroke	Key.backspace	n/a
467.3985	0.137	934797	keystroke	Key.backspace	n/a
468.084	0.1365	936168	keystroke	n	n/a
468.2425	0.09	936485	keystroke	e	n/a
468.403	0.069	936806	keystroke	r	n/a
468.5255	0.1345	937051	keystroke	Key.space	n/a
468.715	0.092	937430	keystroke	e	n/a
468.8425	0.1125	937685	keystroke	h	n/a
469.5505	0.091	939101	keystroke	Key.backspace	n/a
469.7515	0.137	939503	keystroke	t	n/a
469.865	0.0915	939730	keystroke	h	n/a
470.0615	0.115	940123	keystroke	o	n/a
470.2445	0.069	940489	keystroke	p	n/a
470.3915	0.0925	940783	keystroke	i	n/a
470.5285	0.113	941057	keystroke	a	n/a
470.8175	0.091	941635	keystroke	Key.enter	n/a
470.9155	11.96	941831	prompt	n/a	inexpensive permits cast wooden\n
471.9365	0.112	943873	keystroke	i	n/a
472.1045	0.0925	944209	keystroke	n	n/a
472.2315	0.089	944463	keystroke	e	n/a
472.4485	0.114	944897	keystroke	x	n/a
472.5845	0.1145	945169	keystroke	p	n/a
472.798	0.113	945596	keystroke	e	n/a
473.268	0.1145	946536	keystroke	n	n/a
473.71	0.0905	947420	keystroke	s	n/a
473.8225	0.135	947645	keystroke	i	n/a
474.3725	0.135	948745	keystroke	e	n/a
474.802	0.069	949604	keystroke	Key.backspace	n/a
474.894	0.091	949788	keystroke	c	n/a
474.961	0.159	949922	keystroke	e	n/a
475.2055	0.089	950411	keystroke	Key.space	n/a
475.6395	0.0905	951279	keystroke	Key.backspace	n/a
475.7965	0.136	951593	keystroke	Key.backspace	n/a
475.9915	0.0925	951983	keystroke	v	n/a
476.42	0.07	952840	keystroke	Key.backspace	n/a
476.54	0.094	953080	keystroke	Key.backspace	n/a
476.635	0.066	953270	keystroke	v	n/a
476.793	0.158	953586	keystroke	e	n/a
477.21	0.114	954420	keystroke	Key.space	n/a
477.7335	0.114	955467	keystroke	p	n/a
477.8485	0.091	955697	keystroke	e	n/a
478.009	0.114	956018	keystroke	r	n/a
478.124	0.11	956248	keystroke	m	n/a
478.3025	0.115	956605	keystroke	i	n/a
478.3715	0.115	956743	keystroke	t	n/a
478.6175	0.1135	957235	keystroke	s	n/a
478.78	0.138	957560	keystroke	Key.space	n/a
479.2135	0.1335	958427	keystroke	c	n/a
479.324	0.115	958648	keystroke	a	n/a
479.4905	0.1845	958981	keystroke	s	n/a
479.605	0.181	959210	keystroke	e	n/a
479.883	0.1145	959766	keystroke	t	n/a
480.8325	0.047	961665	keystroke	Key.backspace	n/a
480.9575	0.091	961915	keystroke	Key.backspace	n/a
481.072	0.1145	962144	keystroke	t	n/a
481.2095	0.136	962419	keystroke	Key.space	n/a
481.6005	0.136	963201	keystroke	w	n/a
481.807	0.0685	963614	keystroke	o	n/a
481.9385	0.1145	963877	keystroke	o	n/a
482.0745	0.112	964149	keystroke	d	n/a
482.3005	0.113	964601	keystroke	e	n/a
482.4355	0.1165	964871	keystroke	n	n/a
482.761	0.113	965522	keystroke	Key.enter	n/a
482.8795	6.798	965759	prompt	n/a	the steps stem worst\n
483.6735	0.091	967347	keystroke	t	n/a
483.786	0.092	967572	keystroke	h	n/a
483.855	0.113	967710	keystroke	e	n/a
483.99	0.113	967980	keystroke	Key.space	n/a
484.0795	0.1115	968159	keystroke	s	n/a
484.251	0.0715	968502	keystroke	t	n/a
484.43	0.0895	968860	keystroke	e	n/a
484.5405	0.1145	969081	keystroke	p	n/a
484.7325	0.091	969465	keystroke	s	n/a
484.8595	0.1605	969719	keystroke	Key.space	n/a
485.62	0.137	971240	keystroke	s	n/a
485.828	0.1125	971656	keystroke	t	n/a
485.9995	0.093	971999	keystroke	e	n/a
486.272	0.2045	972544	keystroke	m	n/a
486.4975	0.092	972995	keystroke	Key.space	n/a
486.7695	0.113	973539	keystroke	w	n/a
487.0975	0.113	974195	keystroke	r	n/a
487.7245	0.091	975449	keystroke	Key.backspace	n/a
487.9475	0.112	975895	keystroke	o	n/a
488.0605	0.0875	976121	keystroke	r	n/a
488.257	0.136	976514	keystroke	d	n/a
489.1305	0.0695	978261	keystroke	Key.backspace	n/a
489.2225	0.227	978445	keystroke	s	n/a
489.4035	0.158	978807	keystroke	t	n/a
489.5825	0.093	979165	keystroke	Key.enter	n/a
489.6815	12.6815	979363	prompt	n/a	safe uncertainty stayed fruit\n
490.449	0.1345	980898	keystroke	s	n/a
490.7465	0.203	981493	keystroke	a	n/a
490.9495	0.089	981899	keystroke	f	n/a
491.1275	0.114	982255	keystroke	e	n/a
491.2715	0.136	982543	keystroke	Key.space	n/a
491.4475	0.155	982895	keystroke	u	n/a
491.7315	0.115	983463	keystroke	n	n/a
492.333	0.112	984666	keystroke	c	n/a
492.6535	0.135	985307	keystroke	e	n/a
493.0515	0.09	986103	keystroke	r	n/a
493.4745	0.135	986949	keystroke	t	n/a
494.9605	0.0925	989921	keystroke	i	n/a
495.153	0.0905	990306	keystroke	n	n/a
495.393	0.134	990786	keystroke	t	n/a
495.634	0.094	991268	keystroke	y	n/a
496.133	0.07	992266	keystroke	Key.backspace	n/a
496.292	0.0675	992584	keystroke	Key.backspace	n/a
496.4125	0.116	992825	keystroke	Key.backspace	n/a
496.6655	0.0715	993331	keystroke	Key.backspace	n/a
497.348	0.139	994696	keystroke	a	n/a
497.4885	0.0885	994977	keystroke	i	n/a
497.679	0.07	995358	keystroke	n	n/a
497.912	0.136	995824	keystroke	t	n/a
498.235	0.092	996470	keystroke	y	n/a
498.6215	0.137	997243	keystroke	Key.space	n/a
499.1005	0.115	998201	keystroke	s	n/a
499.2975	0.137	998595	keystroke	t	n/a
499.942	0.1385	999884	keystroke	a	n/a
500.3035	0.114	1000607	keystroke	y	n/a
500.4185	0.09	1000837	keystroke	e	n/a
500.612	0.113	1001224	keystroke	d	n/a
500.747	0.114	1001494	keystroke	Key.space	n/a
501.219	0.112	1002438	keystroke	f	n/a
501.386	0.136	1002772	keystroke	r	n/a
501.632	0.115	1003264	keystroke	u	n/a
501.847	0.092	1003694	keystroke	i	n/a
501.993	0.09	1003986	keystroke	t	n/a
502.2455	0.115	1004491	keystroke	Key.enter	n/a
502.376	19.7295	1004752	prompt	n/a	ranks hosts guaranteed dried\n
503.0135	0.1355	1006027	keystroke	e	n/a
503.4675	0.091	1006935	keystroke	Key.backspace	n/a
503.5805	0.092	1007161	keystroke	r	n/a
503.6735	0.155	1007347	keystroke	a	n/a
503.852	0.0695	1007704	keystroke	n	n/a
504.0445	0.1145	1008089	keystroke	s	n/a
504.135	0.114	1008270	keystroke	l	n/a
504.679	0.0675	1009358	keystroke	Key.backspace	n/a
504.794	0.1135	1009588	keystroke	Key.backspace	n/a
505.0235	0.0685	1010047	keystroke	l	n/a
505.0685	0.069	1010137	keystroke	k	n/a
505.1605	0.111	1010321	keystroke	s	n/a
505.7015	0.069	1011403	keystroke	Key.backspace	n/a
505.8485	0.0895	1011697	keystroke	Key.backspace	n/a
505.994	0.092	1011988	keystroke	Key.backspace	n/a
506.6365	0.09	1013273	keystroke	k	n/a
506.7705	0.114	1013541	keystroke	s	n/a
506.8855	0.2035	1013771	keystroke	Key.space	n/a
506.976	0.136	1013952	keystroke	h	n/a
507.113	0.115	1014226	keystroke	o	n/a
507.5955	0.156	1015191	keystroke	s	n/a
507.7745	0.114	1015549	keystroke	t	n/a
508.0485	0.139	1016097	keystroke	s	n/a
508.3195	0.112	1016639	keystroke	Key.space	n/a
509.384	0.091	1018768	keystroke	g	n/a
509.524	0.137	1019048	keystroke	u	n/a
509.637	0.138	1019274	keystroke	a	n/a
509.728	0.137	1019456	keystroke	r	n/a
509.979	0.16	1019958	keystroke	a	n/a
510.1395	0.07	1020279	keystroke	n	n/a
510.2315	0.112	1020463	keystroke	t	n/a
510.4205	0.115	1020841	keystroke	e	n/a
510.647	0.112	1021294	keystroke	d	n/a
511.1645	0.0905	1022329	keystroke	Key.backspace	n/a
511.3105	0.0475	1022621	keystroke	w	n/a
511.469	0.092	1022938	keystroke	d	n/a
512.0175	0.091	1024035	keystroke	Key.backspace	n/a
512.1655	0.1165	1024331	keystroke	Key.backspace	n/a
512.283	0.1125	1024566	keystroke	e	n/a
512.4825	0.1375	1024965	keystroke	d	n/a
512.6485	0.091	1025297	keystroke	Key.space	n/a
513.3015	0.092	1026603	keystroke	d	n/a
513.4845	0.1125	1026969	keystroke	r	n/a
513.6185	0.136	1027237	keystroke	i	n/a
513.7545	0.092	1027509	keystroke	e	n/a
513.925	0.115	1027850	keystroke	d	n/a
514.09	0.137	1028180	keystroke	Key.space	n/a
522.0345	0.069	1044069	keystroke	Key.enter	n/a
522.057	0.0485	1044114	keystroke	\	n/a
522.11	15.653	1044220	prompt	n/a	francis repository economies northeast\n
523.245	0.112	1046490	keystroke	f	n/a
523.423	0.136	1046846	keystroke	r	n/a
523.56	0.1785	1047120	keystroke	a	n/a
523.739	0.1125	1047478	keystroke	n	n/a
523.9065	0.164	1047813	keystroke	c	n/a
523.931	0.0935	1047862	keystroke	i	n/a
523.9995	0.16	1047999	keystroke	e	n/a
524.548	0.067	1049096	keystroke	Key.backspace	n/a
524.6935	0.113	1049387	keystroke	s	n/a
524.8805	0.138	1049761	keystroke	Key.space	n/a
525.691	0.116	1051382	keystroke	r	n/a
525.875	0.115	1051750	keystroke	e	n/a
526.196	0.092	1052392	keystroke	o	n/a
526.3095	0.11	1052619	keystroke	s	n/a
526.4425	0.1125	1052885	keystroke	i	n/a
526.604	0.092	1053208	keystroke	t	n/a
526.756	0.116	1053512	keystroke	o	n/a
526.934	0.09	1053868	keystroke	r	n/a
527.125	0.0895	1054250	keystroke	y	n/a
527.786	0.066	1055572	keystroke	Key.backspace	n/a
527.926	0.069	1055852	keystroke	Key.backspace	n/a
528.0655	0.0895	1056131	keystroke	Key.backspace	n/a
528.217	0.072	1056434	keystroke	Key.backspace	n/a
528.3535	0.0685	1056707	keystroke	Key.backspace	n/a
528.492	0.113	1056984	keystroke	Key.backspace	n/a
528.6935	0.113	1057387	keystroke	Key.backspace	n/a
529.2775	0.091	1058555	keystroke	p	n/a
529.4365	0.0925	1058873	keystroke	o	n/a
529.5715	0.069	1059143	keystroke	s	n/a
529.7195	0.093	1059439	keystroke	i	n/a
529.895	0.0915	1059790	keystroke	t	n/a
530.1535	0.09	1060307	keystroke	o	n/a
530.295	0.0925	1060590	keystroke	r	n/a
530.4805	0.09	1060961	keystroke	y	n/a
530.708	0.136	1061416	keystroke	Key.space	n/a
531.6445	0.112	1063289	keystroke	e	n/a
531.8465	0.1125	1063693	keystroke	c	n/a
531.9795	0.091	1063959	keystroke	o	n/a
532.1425	0.068	1064285	keystroke	n	n/a
532.278	0.0905	1064556	keystroke	o	n/a
532.4385	0.0925	1064877	keystroke	m	n/a
532.5905	0.091	1065181	keystroke	o	n/a
533.269	0.0695	1066538	keystroke	Key.backspace	n/a
533.4805	0.07	1066961	keystroke	o	n/a
533.5915	0.0925	1067183	keystroke	e	n/a
533.7785	0.09	1067557	keystroke	s	n/a
534.077	0.0695	1068154	keystroke	Key.backspace	n/a
534.2135	0.114	1068427	keystroke	Key.backspace	n/a
534.4325	0.137	1068865	keystroke	Key.backspace	n/a
534.982	0.0695	1069964	keystroke	i	n/a
535.0745	0.092	1070149	keystroke	e	n/a
535.2445	0.113	1070489	keystroke	s	n/a
535.3795	0.133	1070759	keystroke	Key.space	n/a
536.2475	0.0915	1072495	keystroke	n	n/a
536.3795	0.136	1072759	keystroke	o	n/a
536.5175	0.111	1073035	keystroke	r	n/a
536.6975	0.116	1073395	keystroke	t	n/a
536.7895	0.092	1073579	keystroke	h	n/a
536.9215	0.116	1073843	keystroke	e	n/a
537.1015	0.183	1074203	keystroke	a	n/a
537.3065	0.182	1074613	keystroke	s	n/a
537.4895	0.113	1074979	keystroke	t	n/a
537.7155	0.045	1075431	keystroke	Key.enter	n/a
537.7675	11.9315	1075535	prompt	n/a	network zambia diagram hotels\n
538.8115	0.138	1077623	keystroke	n	n/a
538.9705	0.135	1077941	keystroke	e	n/a
539.196	0.112	1078392	keystroke	t	n/a
539.389	0.1355	1078778	keystroke	w	n/a
539.746	0.1145	1079492	keystroke	r	n/a
539.8615	0.089	1079723	keystroke	k	n/a
540.288	0.0685	1080576	keystroke	Key.backspace	n/a
540.425	0.0705	1080850	keystroke	Key.backspace	n/a
541.0055	0.0675	1082011	keystroke	o	n/a
541.0955	0.114	1082191	keystroke	r	n/a
541.21	0.089	1082420	keystroke	k	n/a
541.4345	0.1145	1082869	keystroke	Key.space	n/a
542.449	0.114	1084898	keystroke	z	n/a
542.654	0.089	1085308	keystroke	a	n/a
542.744	0.1115	1085488	keystroke	n	n/a
543.3235	0.0675	1086647	keystroke	Key.backspace	n/a
543.5165	0.0895	1087033	keystroke	m	n/a
543.6395	0.1135	1087279	keystroke	a	n/a
543.7765	0.0915	1087553	keystroke	b	n/a
543.869	0.112	1087738	keystroke	i	n/a
544.306	0.046	1088612	keystroke	Key.backspace	n/a
544.429	0.092	1088858	keystroke	Key.backspace	n/a
544.552	0.1125	1089104	keystroke	Key.backspace	n/a
545.095	0.092	1090190	keystroke	b	n/a
545.209	0.068	1090418	keystroke	i	n/a
545.35	0.1155	1090700	keystroke	a	n/a
545.441	0.114	1090882	keystroke	Key.space	n/a
546.3345	0.1145	1092669	keystroke	d	n/a
546.5455	0.115	1093091	keystroke	i	n/a
546.591	0.1125	1093182	keystroke	a	n/a
546.8105	0.137	1093621	keystroke	g	n/a
547.0145	0.0695	1094029	keystroke	r	n/a
547.417	0.138	1094834	keystroke	a	n/a
547.6	0.114	1095200	keystroke	m	n/a
547.859	0.1355	1095718	keystroke	Key.space	n/a
548.7705	0.091	1097541	keystroke	h	n/a
548.9155	0.1165	1097831	keystroke	o	n/a
548.984	0.094	1097968	keystroke	t	n/a
549.153	0.134	1098306	keystroke	e	n/a
549.31	0.114	1098620	keystroke	l	n/a
549.492	0.1145	1098984	keystroke	s	n/a
549.6285	0.069	1099257	keystroke	Key.enter	n/a
549.7035	15.2065	1099407	prompt	n/a	coordinates medication obligations surname\n
550.6815	0.09	1101363	keystroke	c	n/a
551.0685	0.068	1102137	keystroke	o	n/a
551.312	0.136	1102624	keystroke	d	n/a
551.4235	0.0925	1102847	keystroke	i	n/a
551.761	0.067	1103522	keystroke	Key.backspace	n/a
551.889	0.0915	1103778	keystroke	Key.backspace	n/a
552.4615	0.094	1104923	keystroke	o	n/a
552.5565	0.067	1105113	keystroke	r	n/a
552.7145	0.094	1105429	keystroke	d	n/a
552.83	0.0685	1105660	keystroke	i	n/a
552.966	0.161	1105932	keystroke	a	n/a
552.99	0.091	1105980	keystroke	n	n/a
553.1035	0.093	1106207	keystroke	t	n/a
553.256	0.069	1106512	keystroke	e	n/a
553.427	0.114	1106854	keystroke	s	n/a
553.5815	0.137	1107163	keystroke	Key.space	n/a
554.0475	0.069	1108095	keystroke	Key.backspace	n/a
554.205	0.067	1108410	keystroke	Key.backspace	n/a
554.313	0.07	1108626	keystroke	Key.backspace	n/a
554.442	0.091	1108884	keystroke	Key.backspace	n/a
554.6025	0.092	1109205	keystroke	Key.backspace	n/a
554.7795	0.071	1109559	keystroke	Key.backspace	n/a
555.478	0.114	1110956	keystroke	n	n/a
555.615	0.16	1111230	keystroke	a	n/a
555.6835	0.1145	1111367	keystroke	t	n/a
555.861	0.1115	1111722	keystroke	e	n/a
556.1005	0.0685	1112201	keystroke	s	n/a
556.2275	0.115	1112455	keystroke	Key.space	n/a
556.975	0.1335	1113950	keystroke	m	n/a
557.109	0.0675	1114218	keystroke	e	n/a
557.273	0.1135	1114546	keystroke	d	n/a
557.363	0.1125	1114726	keystroke	i	n/a
557.4985	0.045	1114997	keystroke	c	n/a
557.5435	0.0685	1115087	keystroke	a	n/a
557.6335	0.1145	1115267	keystroke	t	n/a
557.7235	0.046	1115447	keystroke	i	n/a
557.8785	0.1135	1115757	keystroke	o	n/a
558.06	0.0895	1116120	keystroke	n	n/a
558.4445	0.135	1116889	keystroke	Key.space	n/a
559.7015	0.1125	1119403	keystroke	o	n/a
559.931	0.026	1119862	keystroke	b	n/a
561.071	0.1145	1122142	keystroke	l	n/a
561.2955	0.092	1122591	keystroke	i	n/a
561.4275	0.111	1122855	keystroke	g	n/a
561.5605	0.16	1123121	keystroke	a	n/a
561.6275	0.1165	1123255	keystroke	t	n/a
561.721	0.093	1123442	keystroke	i	n/a
561.8745	0.1645	1123749	keystroke	o	n/a
561.9925	0.113	1123985	keystroke	n	n/a
562.1535	0.112	1124307	keystroke	s	n/a
562.3025	0.1355	1124605	keystroke	Key.space	n/a
563.0215	0.113	1126043	keystroke	s	n/a
563.1825	0.114	1126365	keystroke	u	n/a
563.3185	0.091	1126637	keystroke	r	n/a
563.501	0.0685	1127002	keystroke	n	n/a
563.7	0.134	1127400	keystroke	a	n/a
564.48	0.113	1128960	keystroke	m	n/a
564.6315	0.161	1129263	keystroke	e	n/a
564.8145	0.091	1129629	keystroke	Key.enter	n/a
564.918	7.9555	1129836	prompt	n/a	famous eden cigarette booth\n
565.794	0.113	1131588	keystroke	f	n/a
565.908	0.1345	1131816	keystroke	a	n/a
566.1475	0.111	1132295	keystroke	m	n/a
566.3345	0.204	1132669	keystroke	o	n/a
566.4905	0.0915	1132981	keystroke	u	n/a
566.6335	0.0915	1133267	keystroke	s	n/a
566.773	0.1135	1133546	keystroke	Key.space	n/a
567.695	0.112	1135390	keystroke	e	n/a
567.8975	0.072	1135795	keystroke	d	n/a
568.0805	0.112	1136161	keystroke	e	n/a
568.215	0.068	1136430	keystroke	n	n/a
568.3855	0.1145	1136771	keystroke	Key.space	n/a
568.8405	0.0915	1137681	keystroke	c	n/a
568.974	0.1375	1137948	keystroke	i	n/a
569.4145	0.091	1138829	keystroke	g	n/a
569.527	0.203	1139054	keystroke	a	n/a
569.731	0.09	1139462	keystroke	r	n/a
570.512	0.116	1141024	keystroke	e	n/a
570.799	0.094	1141598	keystroke	t	n/a
570.959	0.0945	1141918	keystroke	t	n/a
571.127	0.116	1142254	keystroke	e	n/a
571.298	0.137	1142596	keystroke	Key.space	n/a
571.9065	0.091	1143813	keystroke	b	n/a
572.1165	0.0885	1144233	keystroke	o	n/a
572.262	0.1135	1144524	keystroke	o	n/a
572.4135	0.1385	1144827	keystroke	t	n/a
572.528	0.0685	1145056	keystroke	h	n/a
572.802	0.0695	1145604	keystroke	Key.enter	n/a
572.881	24.23	1145762	prompt	n/a	concentrate launched tribunal assure\n
582.503	0.138	1165006	keystroke	c	n/a
582.699	0.091	1165398	keystroke	o	n/a
582.848	0.1145	1165696	keystroke	m	n/a
582.9165	0.1585	1165833	keystroke	c	n/a
583.006	0.115	1166012	keystroke	e	n/a
583.291	0.093	1166582	keystroke	n	n/a
583.8645	0.0685	1167729	keystroke	Key.backspace	n/a
584.001	0.091	1168002	keystroke	Key.backspace	n/a
584.143	0.07	1168286	keystroke	Key.backspace	n/a
584.276	0.094	1168552	keystroke	Key.backspace	n/a
584.558	0.07	1169116	keystroke	n	n/a
584.629	0.022	1169258	keystroke	m	n/a
585.363	0.0895	1170726	keystroke	Key.backspace	n/a
585.5405	0.114	1171081	keystroke	c	n/a
585.6295	0.1155	1171259	keystroke	e	n/a
585.6315	0.025	1171263	keystroke	d	n/a
585.7975	0.136	1171595	keystroke	n	n/a
586.313	0.0685	1172626	keystroke	Key.backspace	n/a
586.43	0.139	1172860	keystroke	Key.backspace	n/a
587.0345	0.1115	1174069	keystroke	n	n/a
587.232	0.113	1174464	keystroke	t	n/a
587.413	0.138	1174826	keystroke	r	n/a
587.482	0.1365	1174964	keystroke	a	n/a
587.6405	0.135	1175281	keystroke	t	n/a
587.851	0.158	1175702	keystroke	e	n/a
588.203	0.182	1176406	keystroke	Key.space	n/a
588.7995	0.179	1177599	keystroke	l	n/a
588.9335	0.112	1177867	keystroke	a	n/a
589.1245	0.09	1178249	keystroke	u	n/a
589.2695	0.115	1178539	keystroke	c	n/a
589.3615	0.0915	1178723	keystroke	n	n/a
589.5625	0.114	1179125	keystroke	h	n/a
589.6985	0.113	1179397	keystroke	e	n/a
589.918	0.158	1179836	keystroke	d	n/a
590.053	0.1355	1180106	keystroke	Key.space	n/a
590.418	0.068	1180836	keystroke	Key.backspace	n/a
590.555	0.093	1181110	keystroke	Key.backspace	n/a
590.716	0.069	1181432	keystroke	Key.backspace	n/a
590.864	0.069	1181728	keystroke	Key.backspace	n/a
591.006	0.091	1182012	keystroke	Key.backspace	n/a
591.549	0.113	1183098	keystroke	Key.backspace	n/a
591.905	0.092	1183810	keystroke	n	n/a
592.1315	0.114	1184263	keystroke	c	n/a
592.2665	0.114	1184533	keystroke	h	n/a
592.416	0.093	1184832	keystroke	e	n/a
592.601	0.113	1185202	keystroke	d	n/a
592.715	0.1335	1185430	keystroke	Key.space	n/a
592.88	0.091	1185760	keystroke	t	n/a
593.037	0.113	1186074	keystroke	r	n/a
594.297	0.113	1188594	keystroke	i	n/a
594.544	0.069	1189088	keystroke	b	n/a
594.7205	0.091	1189441	keystroke	u	n/a
594.9295	0.092	1189859	keystroke	n	n/a
595.106	0.1325	1190212	keystroke	a	n/a
595.2705	0.155	1190541	keystroke	l	n/a
595.4955	0.135	1190991	keystroke	Key.space	n/a
596.0675	0.0915	1192135	keystroke	a	n/a
596.2585	0.072	1192517	keystroke	s	n/a
596.4255	0.089	1192851	keystroke	s	n/a
596.5505	0.137	1193101	keystroke	u	n/a
596.6635	0.092	1193327	keystroke	r	n/a
596.8475	0.113	1193695	keystroke	e	n/a
596.993	0.116	1193986	keystroke	Key.enter	n/a
597.115	9.0585	1194230	prompt	n/a	emily themes findarticles tramadol\n
597.845	0.112	1195690	keystroke	e	n/a
597.9785	0.137	1195957	keystroke	m	n/a
598.2265	0.0685	1196453	keystroke	i	n/a
598.383	0.1145	1196766	keystroke	l	n/a
598.635	0.0905	1197270	keystroke	y	n/a
598.747	0.092	1197494	keystroke	Key.space	n/a
599.4595	0.111	1198919	keystroke	t	n/a
599.5715	0.113	1199143	keystroke	h	n/a
599.723	0.091	1199446	keystroke	e	n/a
599.9935	0.1605	1199987	keystroke	m	n/a
600.155	0.09	1200310	keystroke	e	n/a
600.459	0.069	1200918	keystroke	s	n/a
600.97	0.136	1201940	keystroke	Key.space	n/a
601.279	0.09	1202558	keystroke	f	n/a
601.3905	0.1135	1202781	keystroke	i	n/a
601.6225	0.114	1203245	keystroke	n	n/a
602.033	0.134	1204066	keystroke	d	n/a
602.232	0.1395	1204464	keystroke	a	n/a
602.3945	0.1135	1204789	keystroke	r	n/a
602.5735	0.0895	1205147	keystroke	t	n/a
602.699	0.112	1205398	keystroke	i	n/a
602.8355	0.0915	1205671	keystroke	c	n/a
602.9995	0.1395	1205999	keystroke	l	n/a
603.1405	0.0665	1206281	keystroke	e	n/a
603.3135	0.139	1206627	keystroke	s	n/a
603.4535	0.1325	1206907	keystroke	Key.space	n/a
604.2565	0.0935	1208513	keystroke	t	n/a
604.439	0.115	1208878	keystroke	r	n/a
604.555	0.18	1209110	keystroke	a	n/a
604.736	0.1565	1209472	keystroke	m	n/a
604.949	0.113	1209898	keystroke	a	n/a
605.141	0.0925	1210282	keystroke	d	n/a
605.314	0.089	1210628	keystroke	o	n/a
605.5295	0.091	1211059	keystroke	l	n/a
606.038	0.134	1212076	keystroke	Key.enter	n/a
606.178	10.5185	1212356	prompt	n/a	butler candles waste telescope\n
607.2035	0.1135	1214407	keystroke	b	n/a
607.318	0.11	1214636	keystroke	u	n/a
607.459	0.113	1214918	keystroke	t	n/a
607.5945	0.1145	1215189	keystroke	l	n/a
607.71	0.113	1215420	keystroke	e	n/a
607.9035	0.1115	1215807	keystroke	r	n/a
608.086	0.159	1216172	keystroke	Key.space	n/a
608.524	0.112	1217048	keystroke	c	n/a
608.614	0.113	1217228	keystroke	a	n/a
608.6815	0.134	1217363	keystroke	n	n/a
608.838	0.091	1217676	keystroke	d	n/a
609.124	0.045	1218248	keystroke	;	n/a
609.233	0.068	1218466	keystroke	e	n/a
609.421	0.0905	1218842	keystroke	s	n/a
609.7215	0.069	1219443	keystroke	Key.backspace	n/a
609.8555	0.0895	1219711	keystroke	Key.backspace	n/a
609.968	0.114	1219936	keystroke	Key.backspace	n/a
610.613	0.1175	1221226	keystroke	l	n/a
610.731	0.089	1221462	keystroke	e	n/a
610.916	0.0935	1221832	keystroke	s	n/a
611.047	0.113	1222094	keystroke	Key.space	n/a
611.575	0.115	1223150	keystroke	w	n/a
611.691	0.091	1223382	keystroke	a	n/a
612.641	0.135	1225282	keystroke	s	n/a
613.02	0.136	1226040	keystroke	t	n/a
613.283	0.093	1226566	keystroke	e	n/a
613.658	0.182	1227316	keystroke	Key.space	n/a
613.969	0.09	1227938	keystroke	t	n/a
614.147	0.137	1228294	keystroke	e	n/a
614.394	0.137	1228788	keystroke	e	n/a
614.8805	0.093	1229761	keystroke	Key.backspace	n/a
615.1745	0.112	1230349	keystroke	l	n/a
615.3175	0.0915	1230635	keystroke	e	n/a
615.5145	0.0895	1231029	keystroke	s	n/a
615.6895	0.092	1231379	keystroke	c	n/a
615.982	0.114	1231964	keystroke	o	n/a
616.1955	0.0895	1232391	keystroke	p	n/a
616.315	0.113	1232630	keystroke	e	n/a
616.5815	0.113	1233163	keystroke	Key.enter	n/a
616.7005	10.948	1233401	prompt	n/a	might caring arranged organize\n
617.413	0.0885	1234826	keystroke	m	n/a
617.5515	0.1125	1235103	keystroke	i	n/a
617.6865	0.069	1235373	keystroke	g	n/a
617.7775	0.0685	1235555	keystroke	h	n/a
618.16	0.1365	1236320	keystroke	t	n/a
618.3915	0.134	1236783	keystroke	Key.space	n/a
618.586	0.1385	1237172	keystroke	c	n/a
618.6535	0.139	1237307	keystroke	a	n/a
618.7685	0.0915	1237537	keystroke	r	n/a
618.941	0.1345	1237882	keystroke	e	n/a
619.098	0.0675	1238196	keystroke	i	n/a
619.252	0.068	1238504	keystroke	n	n/a
619.53	0.046	1239060	keystroke	Key.backspace	n/a
619.6665	0.137	1239333	keystroke	Key.backspace	n/a
619.9025	0.114	1239805	keystroke	Key.backspace	n/a
620.178	0.07	1240356	keystroke	i	n/a
620.3345	0.091	1240669	keystroke	n	n/a
620.402	0.114	1240804	keystroke	g	n/a
620.538	0.0915	1241076	keystroke	Key.space	n/a
621.1455	0.112	1242291	keystroke	a	n/a
621.3175	0.069	1242635	keystroke	r	n/a
621.4325	0.114	1242865	keystroke	r	n/a
621.569	0.1585	1243138	keystroke	a	n/a
621.6575	0.14	1243315	keystroke	g	n/a
621.751	0.1145	1243502	keystroke	n	n/a
621.8875	0.089	1243775	keystroke	e	n/a
622.0745	0.114	1244149	keystroke	d	n/a
622.231	0.1365	1244462	keystroke	Key.space	n/a
622.7165	0.068	1245433	keystroke	Key.backspace	n/a
622.9495	0.047	1245899	keystroke	Key.backspace	n/a
623.0815	0.0915	1246163	keystroke	Key.backspace	n/a
623.2455	0.0475	1246491	keystroke	Key.backspace	n/a
623.3845	0.0695	1246769	keystroke	Key.backspace	n/a
623.708	0.117	1247416	keystroke	n	n/a
623.826	0.1115	1247652	keystroke	g	n/a
623.9745	0.134	1247949	keystroke	e	n/a
624.183	0.1385	1248366	keystroke	d	n/a
624.3215	0.113	1248643	keystroke	Key.space	n/a
625.3475	0.1155	1250695	keystroke	r	n/a
625.961	0.135	1251922	keystroke	Key.backspace	n/a
626.2165	0.1145	1252433	keystroke	o	n/a
626.332	0.091	1252664	keystroke	r	n/a
626.8405	0.137	1253681	keystroke	g	n/a
626.9315	0.115	1253863	keystroke	a	n/a
627.0215	0.092	1254043	keystroke	n	n/a
627.1355	0.112	1254271	keystroke	i	n/a
627.2485	0.155	1254497	keystroke	z	n/a
627.3805	0.112	1254761	keystroke	e	n/a
627.5315	0.1145	1255063	keystroke	Key.enter	n/a
627.654	9.815	1255308	prompt	n/a	great expansion asylum destinations\n
628.5845	0.1335	1257169	keystroke	g	n/a
628.8155	0.133	1257631	keystroke	r	n/a
629.0255	0.1155	1258051	keystroke	e	n/a
629.143	0.1115	1258286	keystroke	a	n/a
629.2305	0.139	1258461	keystroke	t	n/a
629.4085	0.135	1258817	keystroke	Key.space	n/a
629.6355	0.0905	1259271	keystroke	e	n/a
629.9035	0.134	1259807	keystroke	x	n/a
630.5905	0.158	1261181	keystroke	p	n/a
630.81	0.114	1261620	keystroke	a	n/a
630.9	0.0905	1261800	keystroke	n	n/a
631.0715	0.113	1262143	keystroke	s	n/a
631.161	0.09	1262322	keystroke	i	n/a
631.312	0.0925	1262624	keystroke	o	n/a
631.494	0.07	1262988	keystroke	n	n/a
631.703	0.1355	1263406	keystroke	Key.space	n/a
632.4765	0.0705	1264953	keystroke	a	n/a
632.6965	0.111	1265393	keystroke	s	n/a
633.889	0.1155	1267778	keystroke	y	n/a
634.157	0.0895	1268314	keystroke	l	n/a
634.361	0.1395	1268722	keystroke	u	n/a
634.633	0.092	1269266	keystroke	m	n/a
634.8595	0.136	1269719	keystroke	Key.space	n/a
635.7745	0.089	1271549	keystroke	d	n/a
635.9695	0.09	1271939	keystroke	e	n/a
636.149	0.1385	1272298	keystroke	s	n/a
636.2875	0.0925	1272575	keystroke	t	n/a
636.3335	0.1155	1272667	keystroke	i	n/a
636.5025	0.09	1273005	keystroke	n	n/a
636.57	0.1135	1273140	keystroke	a	n/a
636.6375	0.1375	1273275	keystroke	t	n/a
636.7505	0.092	1273501	keystroke	i	n/a
636.9115	0.092	1273823	keystroke	o	n/a
637.077	0.0895	1274154	keystroke	n	n/a
637.239	0.112	1274478	keystroke	s	n/a
637.373	0.092	1274746	keystroke	Key.enter	n/a
637.473	10.5855	1274946	prompt	n/a	collaboration holidays hang links\n
638.345	0.112	1276690	keystroke	c	n/a
638.487	0.092	1276974	keystroke	o	n/a
638.675	0.068	1277350	keystroke	l	n/a
638.804	0.112	1277608	keystroke	l	n/a
638.949	0.09	1277898	keystroke	a	n/a
639.245	0.068	1278490	keystroke	b	n/a
639.4085	0.136	1278817	keystroke	o	n/a
639.958	0.133	1279916	keystroke	r	n/a
641.03	0.1155	1282060	keystroke	a	n/a
641.1225	0.137	1282245	keystroke	t	n/a
641.2335	0.116	1282467	keystroke	i	n/a
641.414	0.1135	1282828	keystroke	o	n/a
641.613	0.0915	1283226	keystroke	n	n/a
641.8405	0.136	1283681	keystroke	Key.space	n/a
642.706	0.134	1285412	keystroke	h	n/a
642.818	0.1355	1285636	keystroke	o	n/a
643.0205	0.1135	1286041	keystroke	l	n/a
643.2095	0.1355	1286419	keystroke	i	n/a
643.3455	0.1095	1286691	keystroke	d	n/a
643.4555	0.1115	1286911	keystroke	a	n/a
643.589	0.0915	1287178	keystroke	y	n/a
643.7675	0.137	1287535	keystroke	s	n/a
644.502	0.1145	1289004	keystroke	Key.space	n/a
644.7265	0.112	1289453	keystroke	h	n/a
644.8605	0.1155	1289721	keystroke	a	n/a
644.9535	0.0895	1289907	keystroke	n	n/a
645.0905	0.1385	1290181	keystroke	d	n/a
645.298	0.137	1290596	keystroke	Key.space	n/a
645.919	0.0445	1291838	keystroke	Key.backspace	n/a
646.0435	0.1135	1292087	keystroke	Key.backspace	n/a
646.223	0.1575	1292446	keystroke	g	n/a
646.7835	0.135	1293567	keystroke	Key.space	n/a
647.1005	0.114	1294201	keystroke	l	n/a
647.323	0.093	1294646	keystroke	i	n/a
647.479	0.068	1294958	keystroke	n	n/a
647.6	0.114	1295200	keystroke	k	n/a
647.7365	0.111	1295473	keystroke	s	n/a
647.9655	0.0915	1295931	keystroke	Key.enter	n/a
648.0695	9.461	1296139	prompt	n/a	chaos argentina drawings gilbert\n
648.8195	0.116	1297639	keystroke	c	n/a
648.9365	0.1345	1297873	keystroke	h	n/a
649.0925	0.0905	1298185	keystroke	a	n/a
649.213	0.1365	1298426	keystroke	o	n/a
649.6545	0.115	1299309	keystroke	s	n/a
649.8115	0.134	1299623	keystroke	Key.space	n/a
650.6985	0.1355	1301397	keystroke	a	n/a
650.8565	0.158	1301713	keystroke	r	n/a
651.046	0.116	1302092	keystroke	g	n/a
651.2345	0.115	1302469	keystroke	e	n/a
651.3245	0.069	1302649	keystroke	n	n/a
651.4635	0.115	1302927	keystroke	t	n/a
651.5535	0.092	1303107	keystroke	i	n/a
651.7175	0.067	1303435	keystroke	n	n/a
651.8075	0.1595	1303615	keystroke	a	n/a
651.921	0.114	1303842	keystroke	Key.space	n/a
653.4815	0.1125	1306963	keystroke	d	n/a
653.88	0.137	1307760	keystroke	r	n/a
654.056	0.157	1308112	keystroke	a	n/a
654.214	0.1575	1308428	keystroke	w	n/a
654.3475	0.1155	1308695	keystroke	i	n/a
654.547	0.091	1309094	keystroke	n	n/a
654.66	0.09	1309320	keystroke	g	n/a
654.902	0.1345	1309804	keystroke	s	n/a
655.1215	0.1575	1310243	keystroke	Key.space	n/a
656.235	0.114	1312470	keystroke	g	n/a
656.3495	0.09	1312699	keystroke	i	n/a
656.5445	0.0895	1313089	keystroke	l	n/a
656.746	0.1135	1313492	keystroke	b	n/a
656.836	0.115	1313672	keystroke	e	n/a
657.025	0.0925	1314050	keystroke	r	n/a
657.2125	0.115	1314425	keystroke	t	n/a
657.3935	0.135	1314787	keystroke	Key.enter	n/a
657.5345	10.611	1315069	prompt	n/a	priest album signup deficit\n
658.8935	0.135	1317787	keystroke	p	n/a
659.0855	0.069	1318171	keystroke	r	n/a
659.1765	0.136	1318353	keystroke	i	n/a
659.3355	0.114	1318671	keystroke	e	n/a
659.7135	0.1145	1319427	keystroke	s	n/a
659.9325	0.1165	1319865	keystroke	t	n/a
660.099	0.1345	1320198	keystroke	Key.space	n/a
660.2555	0.091	1320511	keystroke	a	n/a
660.3475	0.154	1320695	keystroke	l	n/a
661.014	0.093	1322028	keystroke	b	n/a
661.224	0.0905	1322448	keystroke	u	n/a
661.452	0.093	1322904	keystroke	m	n/a
661.692	0.1365	1323384	keystroke	Key.space	n/a
662.5845	0.181	1325169	keystroke	i	n/a
663.63	0.1585	1327260	keystroke	Key.backspace	n/a
663.9375	0.0935	1327875	keystroke	s	n/a
664.032	0.112	1328064	keystroke	i	n/a
664.234	0.1135	1328468	keystroke	g	n/a
664.476	0.068	1328952	keystroke	n	n/a
664.647	0.113	1329294	keystroke	u	n/a
664.9865	0.067	1329973	keystroke	p	n/a
665.2355	0.1575	1330471	keystroke	Key.space	n/a
665.519	0.116	1331038	keystroke	d	n/a
665.7295	0.115	1331459	keystroke	e	n/a
665.9955	0.1375	1331991	keystroke	f	n/a
666.485	0.1115	1332970	keystroke	Key.backspace	n/a
667.0435	0.115	1334087	keystroke	f	n/a
667.1595	0.067	1334319	keystroke	i	n/a
667.2915	0.092	1334583	keystroke	c	n/a
667.3595	0.091	1334719	keystroke	i	n/a
667.7895	0.136	1335579	keystroke	t	n/a
668.0285	0.115	1336057	keystroke	Key.enter	n/a
668.152	8.7955	1336304	prompt	n/a	clinic considering silent lamb\n
669.0965	0.113	1338193	keystroke	c	n/a
669.2105	0.1165	1338421	keystroke	l	n/a
669.4295	0.069	1338859	keystroke	i	n/a
669.5685	0.069	1339137	keystroke	n	n/a
669.674	0.114	1339348	keystroke	i	n/a
669.764	0.093	1339528	keystroke	c	n/a
669.9565	0.1335	1339913	keystroke	Key.space	n/a
670.256	0.113	1340512	keystroke	c	n/a
670.391	0.091	1340782	keystroke	o	n/a
670.565	0.09	1341130	keystroke	n	n/a
670.711	0.092	1341422	keystroke	s	n/a
670.86	0.136	1341720	keystroke	i	n/a
671.366	0.134	1342732	keystroke	e	n/a
672.0795	0.0915	1344159	keystroke	Key.backspace	n/a
672.202	0.09	1344404	keystroke	d	n/a
672.3995	0.0905	1344799	keystroke	e	n/a
672.575	0.1335	1345150	keystroke	r	n/a
672.6855	0.067	1345371	keystroke	i	n/a
672.8595	0.0915	1345719	keystroke	n	n/a
672.9275	0.138	1345855	keystroke	g	n/a
673.0665	0.133	1346133	keystroke	Key.space	n/a
673.918	0.1155	1347836	keystroke	s	n/a
674.055	0.113	1348110	keystroke	i	n/a
674.4125	0.0905	1348825	keystroke	l	n/a
674.532	0.114	1349064	keystroke	e	n/a
674.669	0.067	1349338	keystroke	n	n/a
674.758	0.114	1349516	keystroke	t	n/a
674.893	0.112	1349786	keystroke	Key.space	n/a
675.217	0.137	1350434	keystroke	l	n/a
675.376	0.089	1350752	keystroke	a	n/a
676.075	0.114	1352150	keystroke	m	n/a
676.6145	0.1125	1353229	keystroke	b	n/a
676.831	0.1145	1353662	keystroke	Key.enter	n/a
676.9525	9.652	1353905	prompt	n/a	afford happen awards munich\n
677.564	0.1135	1355128	keystroke	a	n/a
677.781	0.0925	1355562	keystroke	d	n/a
677.964	0.114	1355928	keystroke	d	n/a
678.122	0.1385	1356244	keystroke	o	n/a
678.235	0.0935	1356470	keystroke	r	n/a
678.4245	0.1375	1356849	keystroke	d	n/a
678.515	0.233	1357030	keystroke	Key.space	n/a
678.654	0.093	1357308	keystroke	h	n/a
678.769	0.09	1357538	keystroke	a	n/a
679.131	0.092	1358262	keystroke	p	n/a
679.2885	0.133	1358577	keystroke	e	n/a
679.4625	0.089	1358925	keystroke	n	n/a
680.1305	0.069	1360261	keystroke	Key.backspace	n/a
680.2695	0.068	1360539	keystroke	Key.backspace	n/a
680.463	0.1145	1360926	keystroke	p	n/a
680.5995	0.135	1361199	keystroke	e	n/a
