onset	duration	sample	value	key	prompt_text
9.697	13.2165	19394	prompt	n/a	the quick brown fox jumps over a lazy dog\n
13.5755	0.0755	27151	keystroke	t	n/a
14.3095	0.0895	28619	keystroke	h	n/a
14.5935	0.077	29187	keystroke	e	n/a
14.6855	0.0745	29371	keystroke	Key.space	n/a
14.9095	0.0745	29819	keystroke	q	n/a
15.014	0.0915	30028	keystroke	u	n/a
15.21	0.0895	30420	keystroke	i	n/a
15.3295	0.119	30659	keystroke	c	n/a
15.404	0.1045	30808	keystroke	k	n/a
15.553	0.0765	31106	keystroke	Key.space	n/a
15.6895	0.075	31379	keystroke	b	n/a
15.809	0.0895	31618	keystroke	r	n/a
15.9435	0.1045	31887	keystroke	o	n/a
16.063	0.092	32126	keystroke	w	n/a
16.1995	0.0895	32399	keystroke	n	n/a
16.4085	0.1045	32817	keystroke	Key.space	n/a
16.6195	0.076	33239	keystroke	f	n/a
16.7095	0.0895	33419	keystroke	o	n/a
17.0525	0.092	34105	keystroke	x	n/a
17.1595	0.0895	34319	keystroke	Key.space	n/a
17.3685	0.1045	34737	keystroke	j	n/a
17.5475	0.077	35095	keystroke	u	n/a
18.4775	0.1205	36955	keystroke	m	n/a
18.6295	0.0745	37259	keystroke	p	n/a
18.7635	0.075	37527	keystroke	s	n/a
18.883	0.1195	37766	keystroke	Key.space	n/a
19.1695	0.0895	38339	keystroke	o	n/a
19.289	0.0595	38578	keystroke	v	n/a
19.4085	0.0895	38817	keystroke	e	n/a
19.453	0.0745	38906	keystroke	r	n/a
19.5425	0.076	39085	keystroke	Key.space	n/a
19.664	0.09	39328	keystroke	a	n/a
19.724	0.045	39448	keystroke	Key.space	n/a
20.0245	0.09	40049	keystroke	l	n/a
20.161	0.075	40322	keystroke	a	n/a
20.3265	0.12	40653	keystroke	z	n/a
20.401	0.0905	40802	keystroke	y	n/a
20.5365	0.0755	41073	keystroke	Key.space	n/a
20.627	0.045	41254	keystroke	f	n/a
21.633	0.105	43266	keystroke	Key.backspace	n/a
21.9185	0.076	43837	keystroke	d	n/a
22.0385	0.105	44077	keystroke	o	n/a
22.2785	0.075	44557	keystroke	g	n/a
22.804	0.105	45608	keystroke	Key.enter	n/a
22.9215	8.8725	45843	prompt	n/a	multimedia moreover leisure pick\n
23.5095	0.015	47019	keystroke	m	n/a
23.5395	0.104	47079	keystroke	m	n/a
23.794	0.09	47588	keystroke	u	n/a
23.854	0.09	47708	keystroke	l	n/a
24.0195	0.0745	48039	keystroke	t	n/a
24.109	0.075	48218	keystroke	i	n/a
24.6045	0.075	49209	keystroke	Key.backspace	n/a
24.769	0.06	49538	keystroke	Key.backspace	n/a
25.01	0.0445	50020	keystroke	Key.backspace	n/a
25.25	0.06	50500	keystroke	Key.backspace	n/a
25.4445	0.0605	50889	keystroke	Key.backspace	n/a
25.7595	0.0755	51519	keystroke	u	n/a
25.91	0.091	51820	keystroke	l	n/a
26.0445	0.075	52089	keystroke	t	n/a
26.3755	0.09	52751	keystroke	i	n/a
26.615	0.075	53230	keystroke	m	n/a
26.72	0.105	53440	keystroke	e	n/a
26.795	0.1205	53590	keystroke	d	n/a
26.9305	0.0745	53861	keystroke	i	n/a
27.035	0.09	54070	keystroke	a	n/a
27.1855	0.09	54371	keystroke	Key.space	n/a
27.5005	0.12	55001	keystroke	m	n/a
27.6955	0.0905	55391	keystroke	o	n/a
27.786	0.075	55572	keystroke	r	n/a
27.831	0.09	55662	keystroke	e	n/a
28.0555	0.09	56111	keystroke	o	n/a
28.2055	0.0755	56411	keystroke	v	n/a
28.326	0.12	56652	keystroke	e	n/a
28.431	0.0595	56862	keystroke	r	n/a
28.6255	0.1355	57251	keystroke	Key.space	n/a
29.211	0.075	58422	keystroke	l	n/a
29.4365	0.0445	58873	keystroke	e	n/a
29.526	0.105	59052	keystroke	i	n/a
29.661	0.09	59322	keystroke	s	n/a
29.8115	0.09	59623	keystroke	u	n/a
30.006	0.045	60012	keystroke	r	n/a
30.021	0.09	60042	keystroke	e	n/a
30.156	0.0905	60312	keystroke	Key.space	n/a
30.3965	0.0895	60793	keystroke	o	n/a
30.7715	0.09	61543	keystroke	Key.backspace	n/a
31.041	0.0905	62082	keystroke	p	n/a
31.2215	0.09	62443	keystroke	i	n/a
31.3715	0.0905	62743	keystroke	c	n/a
31.447	0.1045	62894	keystroke	k	n/a
31.7015	0.09	63403	keystroke	Key.enter	n/a
31.8	7.0605	63600	prompt	n/a	johnny know artists hoping\n
32.692	0.0745	65384	keystroke	j	n/a
32.7815	0.09	65563	keystroke	o	n/a
32.9165	0.075	65833	keystroke	h	n/a
33.112	0.075	66224	keystroke	n	n/a
33.262	0.075	66524	keystroke	n	n/a
33.382	0.06	66764	keystroke	y	n/a
33.517	0.09	67034	keystroke	Key.space	n/a
33.9525	0.1045	67905	keystroke	k	n/a
34.132	0.09	68264	keystroke	n	n/a
34.267	0.1055	68534	keystroke	o	n/a
34.4625	0.1045	68925	keystroke	w	n/a
34.597	0.105	69194	keystroke	Key.space	n/a
34.8975	0.09	69795	keystroke	a	n/a
35.0175	0.1045	70035	keystroke	r	n/a
35.197	0.0755	70394	keystroke	t	n/a
35.3325	0.075	70665	keystroke	i	n/a
35.7825	0.09	71565	keystroke	s	n/a
35.8575	0.075	71715	keystroke	t	n/a
35.9775	0.0755	71955	keystroke	s	n/a
36.2325	0.0895	72465	keystroke	Key.space	n/a
36.9235	0.06	73847	keystroke	g	n/a
37.2075	0.09	74415	keystroke	Key.backspace	n/a
37.568	0.0755	75136	keystroke	h	n/a
37.7935	0.1355	75587	keystroke	o	n/a
37.8835	0.1045	75767	keystroke	p	n/a
38.0925	0.076	76185	keystroke	i	n/a
38.3035	0.0755	76607	keystroke	n	n/a
38.5585	0.06	77117	keystroke	g	n/a
38.798	0.06	77596	keystroke	Key.enter	n/a
38.8665	5.741	77733	prompt	n/a	admit acrylic evans nightlife\n
39.534	0.09	79068	keystroke	a	n/a
39.699	0.09	79398	keystroke	d	n/a
39.834	0.1355	79668	keystroke	m	n/a
39.939	0.1055	79878	keystroke	i	n/a
40.0595	0.0895	80119	keystroke	t	n/a
40.209	0.089	80418	keystroke	Key.space	n/a
40.4045	0.075	80809	keystroke	a	n/a
40.7795	0.12	81559	keystroke	c	n/a
41.0195	0.075	82039	keystroke	r	n/a
41.3045	0.075	82609	keystroke	y	n/a
41.53	0.1345	83060	keystroke	l	n/a
41.62	0.1195	83240	keystroke	i	n/a
41.7845	0.075	83569	keystroke	c	n/a
41.964	0.09	83928	keystroke	Key.space	n/a
42.31	0.09	84620	keystroke	e	n/a
42.46	0.075	84920	keystroke	v	n/a
42.655	0.075	85310	keystroke	a	n/a
42.745	0.075	85490	keystroke	n	n/a
42.865	0.09	85730	keystroke	s	n/a
42.969	0.0755	85938	keystroke	Key.space	n/a
43.39	0.0755	86780	keystroke	n	n/a
43.4955	0.09	86991	keystroke	i	n/a
43.6005	0.09	87201	keystroke	g	n/a
43.705	0.075	87410	keystroke	h	n/a
43.8255	0.09	87651	keystroke	t	n/a
44.0355	0.105	88071	keystroke	l	n/a
44.1105	0.1055	88221	keystroke	i	n/a
44.2305	0.09	88461	keystroke	f	n/a
44.2905	0.09	88581	keystroke	e	n/a
44.5155	0.0905	89031	keystroke	Key.enter	n/a
44.6125	6.313	89225	prompt	n/a	meets refine defence brother\n
45.101	0.1045	90202	keystroke	m	n/a
45.161	0.0745	90322	keystroke	e	n/a
45.326	0.12	90652	keystroke	e	n/a
45.476	0.0895	90952	keystroke	t	n/a
45.6405	0.075	91281	keystroke	s	n/a
45.7305	0.09	91461	keystroke	Key.space	n/a
46.046	0.09	92092	keystroke	r	n/a
46.136	0.09	92272	keystroke	e	n/a
46.2855	0.1055	92571	keystroke	f	n/a
46.451	0.09	92902	keystroke	i	n/a
46.496	0.105	92992	keystroke	n	n/a
46.586	0.09	93172	keystroke	e	n/a
46.811	0.12	93622	keystroke	Key.space	n/a
47.261	0.105	94522	keystroke	d	n/a
47.381	0.0605	94762	keystroke	e	n/a
47.4715	0.06	94943	keystroke	f	n/a
47.6665	0.09	95333	keystroke	e	n/a
47.8915	0.075	95783	keystroke	n	n/a
48.0865	0.09	96173	keystroke	c	n/a
48.1615	0.09	96323	keystroke	e	n/a
48.567	0.075	97134	keystroke	Key.space	n/a
48.867	0.06	97734	keystroke	b	n/a
49.107	0.09	98214	keystroke	r	n/a
49.9625	0.105	99925	keystroke	o	n/a
50.1425	0.06	100285	keystroke	t	n/a
50.2175	0.075	100435	keystroke	h	n/a
50.2775	0.105	100555	keystroke	e	n/a
50.3525	0.0605	100705	keystroke	r	n/a
50.833	0.09	101666	keystroke	Key.enter	n/a
50.931	6.8815	101862	prompt	n/a	deep legislative works oclc\n
51.4785	0.09	102957	keystroke	d	n/a
51.5835	0.075	103167	keystroke	e	n/a
51.7335	0.075	103467	keystroke	e	n/a
52.0485	0.1055	104097	keystroke	p	n/a
52.9035	0.075	105807	keystroke	Key.space	n/a
53.0535	0.0905	106107	keystroke	l	n/a
53.3235	0.0755	106647	keystroke	e	n/a
53.459	0.09	106918	keystroke	g	n/a
53.594	0.075	107188	keystroke	i	n/a
54.014	0.105	108028	keystroke	s	n/a
54.404	0.045	108808	keystroke	l	n/a
54.5545	0.075	109109	keystroke	a	n/a
54.6895	0.075	109379	keystroke	t	n/a
54.8095	0.105	109619	keystroke	i	n/a
54.9595	0.09	109919	keystroke	v	n/a
55.0795	0.0905	110159	keystroke	e	n/a
55.245	0.0895	110490	keystroke	Key.space	n/a
55.6045	0.0755	111209	keystroke	w	n/a
55.6645	0.0755	111329	keystroke	o	n/a
55.7845	0.075	111569	keystroke	r	n/a
55.8895	0.0755	111779	keystroke	k	n/a
55.98	0.105	111960	keystroke	s	n/a
56.235	0.06	112470	keystroke	Key.space	n/a
56.761	0.105	113522	keystroke	o	n/a
56.911	0.09	113822	keystroke	c	n/a
57.016	0.074	114032	keystroke	l	n/a
57.406	0.075	114812	keystroke	c	n/a
57.7205	0.0895	115441	keystroke	Key.enter	n/a
57.8195	10.169	115639	prompt	n/a	accounts scanners ma'am accompanied\n
58.4415	0.09	116883	keystroke	a	n/a
58.6215	0.0455	117243	keystroke	c	n/a
58.742	0.045	117484	keystroke	c	n/a
59.387	0.105	118774	keystroke	o	n/a
59.432	0.09	118864	keystroke	u	n/a
59.612	0.0755	119224	keystroke	n	n/a
59.7025	0.0745	119405	keystroke	t	n/a
59.7625	0.0895	119525	keystroke	s	n/a
59.9115	0.09	119823	keystroke	Key.space	n/a
60.4225	0.09	120845	keystroke	s	n/a
60.5875	0.06	121175	keystroke	c	n/a
60.708	0.075	121416	keystroke	a	n/a
60.9015	0.0915	121803	keystroke	n	n/a
61.053	0.09	122106	keystroke	n	n/a
61.158	0.105	122316	keystroke	e	n/a
61.473	0.075	122946	keystroke	r	n/a
61.698	0.0905	123396	keystroke	s	n/a
61.922	0.0915	123844	keystroke	Key.space	n/a
62.2085	0.075	124417	keystroke	m	n/a
62.2985	0.075	124597	keystroke	a	n/a
62.4935	0.075	124987	keystroke	a	n/a
63.319	0.0745	126638	keystroke	Key.backspace	n/a
63.679	0.075	127358	keystroke	'	n/a
63.799	0.09	127598	keystroke	a	n/a
64.174	0.075	128348	keystroke	m	n/a
64.474	0.0905	128948	keystroke	Key.space	n/a
65.5395	0.0905	131079	keystroke	a	n/a
65.75	0.09	131500	keystroke	c	n/a
65.9	0.075	131800	keystroke	c	n/a
66.53	0.0905	133060	keystroke	o	n/a
66.575	0.0905	133150	keystroke	m	n/a
66.7105	0.09	133421	keystroke	p	n/a
66.9355	0.09	133871	keystroke	a	n/a
67.0405	0.09	134081	keystroke	n	n/a
67.1755	0.09	134351	keystroke	i	n/a
67.4905	0.105	134981	keystroke	e	n/a
67.5655	0.0905	135131	keystroke	d	n/a
67.896	0.09	135792	keystroke	Key.enter	n/a
67.993	8.7565	135986	prompt	n/a	jewellery seem switches obtain\n
68.8265	0.09	137653	keystroke	j	n/a
68.9615	0.075	137923	keystroke	e	n/a
69.6065	0.0755	139213	keystroke	w	n/a
69.862	0.03	139724	keystroke	l	n/a
70.252	0.075	140504	keystroke	Key.backspace	n/a
70.417	0.06	140834	keystroke	e	n/a
70.507	0.075	141014	keystroke	l	n/a
70.942	0.0905	141884	keystroke	l	n/a
71.242	0.09	142484	keystroke	e	n/a
71.317	0.09	142634	keystroke	r	n/a
71.767	0.06	143534	keystroke	y	n/a
72.022	0.075	144044	keystroke	Key.space	n/a
72.217	0.06	144434	keystroke	s	n/a
72.367	0.06	144734	keystroke	e	n/a
72.4875	0.0745	144975	keystroke	e	n/a
72.577	0.105	145154	keystroke	m	n/a
72.877	0.09	145754	keystroke	Key.space	n/a
73.252	0.076	146504	keystroke	s	n/a
73.403	0.0895	146806	keystroke	w	n/a
73.598	0.06	147196	keystroke	t	n/a
73.688	0.09	147376	keystroke	i	n/a
74.063	0.059	148126	keystroke	Key.backspace	n/a
74.182	0.09	148364	keystroke	Key.backspace	n/a
74.423	0.09	148846	keystroke	i	n/a
74.528	0.075	149056	keystroke	t	n/a
74.753	0.075	149506	keystroke	c	n/a
74.888	0.105	149776	keystroke	h	n/a
75.008	0.06	150016	keystroke	e	n/a
75.143	0.09	150286	keystroke	s	n/a
75.277	0.106	150554	keystroke	Key.space	n/a
75.623	0.075	151246	keystroke	o	n/a
75.743	0.075	151486	keystroke	b	n/a
76.103	0.075	152206	keystroke	t	n/a
76.238	0.1055	152476	keystroke	a	n/a
76.3275	0.106	152655	keystroke	i	n/a
76.3585	0.105	152717	keystroke	n	n/a
76.6885	0.06	153377	keystroke	Key.enter	n/a
76.754	7.616	153508	prompt	n/a	termination edwards congress testing\n
77.3785	0.089	154757	keystroke	t	n/a
77.4825	0.12	154965	keystroke	e	n/a
77.5725	0.075	155145	keystroke	r	n/a
77.6635	0.104	155327	keystroke	m	n/a
77.9925	0.106	155985	keystroke	i	n/a
78.0375	0.106	156075	keystroke	n	n/a
78.1585	0.0895	156317	keystroke	a	n/a
78.308	0.075	156616	keystroke	t	n/a
78.384	0.1045	156768	keystroke	i	n/a
78.5175	0.12	157035	keystroke	o	n/a
78.5925	0.1065	157185	keystroke	n	n/a
78.758	0.105	157516	keystroke	Key.space	n/a
79.298	0.12	158596	keystroke	e	n/a
79.508	0.12	159016	keystroke	d	n/a
79.763	0.075	159526	keystroke	w	n/a
79.913	0.09	159826	keystroke	a	n/a
79.988	0.075	159976	keystroke	r	n/a
80.123	0.105	160246	keystroke	d	n/a
80.243	0.105	160486	keystroke	s	n/a
80.513	0.09	161026	keystroke	Key.space	n/a
81.009	0.089	162018	keystroke	c	n/a
81.068	0.15	162136	keystroke	o	n/a
81.143	0.105	162286	keystroke	n	n/a
81.998	0.06	163996	keystroke	g	n/a
82.133	0.09	164266	keystroke	r	n/a
82.193	0.12	164386	keystroke	e	n/a
82.658	0.06	165316	keystroke	s	n/a
82.793	0.0755	165586	keystroke	s	n/a
82.973	0.09	165946	keystroke	Key.space	n/a
83.424	0.074	166848	keystroke	t	n/a
83.528	0.075	167056	keystroke	e	n/a
83.694	0.059	167388	keystroke	s	n/a
83.769	0.075	167538	keystroke	t	n/a
83.919	0.104	167838	keystroke	i	n/a
83.979	0.104	167958	keystroke	n	n/a
84.053	0.076	168106	keystroke	g	n/a
84.293	0.075	168586	keystroke	Key.enter	n/a
84.374	6.5515	168748	prompt	n/a	butterfly who've 'tis quest\n
85.118	0.1055	170236	keystroke	b	n/a
85.2385	0.09	170477	keystroke	u	n/a
85.4335	0.045	170867	keystroke	t	n/a
85.5395	0.075	171079	keystroke	t	n/a
85.6735	0.09	171347	keystroke	e	n/a
85.7485	0.045	171497	keystroke	r	n/a
86.0935	0.105	172187	keystroke	f	n/a
86.2285	0.09	172457	keystroke	l	n/a
86.3335	0.075	172667	keystroke	y	n/a
86.4835	0.075	172967	keystroke	Key.space	n/a
86.6485	0.06	173297	keystroke	w	n/a
86.7535	0.105	173507	keystroke	h	n/a
86.8285	0.09	173657	keystroke	o	n/a
87.384	0.0755	174768	keystroke	'	n/a
87.564	0.075	175128	keystroke	v	n/a
87.654	0.105	175308	keystroke	e	n/a
87.924	0.105	175848	keystroke	Key.space	n/a
88.719	0.105	177438	keystroke	'	n/a
88.989	0.09	177978	keystroke	t	n/a
89.139	0.105	178278	keystroke	i	n/a
89.274	0.075	178548	keystroke	s	n/a
89.814	0.09	179628	keystroke	Key.space	n/a
90.054	0.0895	180108	keystroke	q	n/a
90.1735	0.09	180347	keystroke	u	n/a
90.2785	0.06	180557	keystroke	e	n/a
90.429	0.075	180858	keystroke	s	n/a
90.519	0.0595	181038	keystroke	t	n/a
90.8635	0.0605	181727	keystroke	Key.enter	n/a
90.931	6.55	181862	prompt	n/a	mercury join shopper jerry\n
91.539	0.0895	183078	keystroke	m	n/a
91.7185	0.105	183437	keystroke	e	n/a
91.8085	0.09	183617	keystroke	r	n/a
92.0035	0.09	184007	keystroke	c	n/a
92.1085	0.12	184217	keystroke	u	n/a
92.439	0.09	184878	keystroke	t	n/a
92.574	0.09	185148	keystroke	y	n/a
93.2035	0.06	186407	keystroke	Key.backspace	n/a
93.3535	0.06	186707	keystroke	Key.backspace	n/a
93.4585	0.0905	186917	keystroke	r	n/a
93.6535	0.075	187307	keystroke	y	n/a
93.984	0.105	187968	keystroke	Key.space	n/a
94.4935	0.09	188987	keystroke	j	n/a
94.6135	0.15	189227	keystroke	o	n/a
94.7035	0.105	189407	keystroke	i	n/a
94.8985	0.105	189797	keystroke	n	n/a
95.1985	0.105	190397	keystroke	Key.space	n/a
95.5585	0.105	191117	keystroke	s	n/a
95.6335	0.06	191267	keystroke	h	n/a
95.8135	0.105	191627	keystroke	o	n/a
95.9635	0.0605	191927	keystroke	p	n/a
96.069	0.105	192138	keystroke	p	n/a
96.188	0.076	192376	keystroke	e	n/a
96.234	0.075	192468	keystroke	r	n/a
96.3545	0.09	192709	keystroke	Key.space	n/a
96.654	0.09	193308	keystroke	j	n/a
96.759	0.06	193518	keystroke	e	n/a
96.804	0.0755	193608	keystroke	r	n/a
96.9545	0.075	193909	keystroke	r	n/a
97.104	0.105	194208	keystroke	y	n/a
97.404	0.0745	194808	keystroke	Key.enter	n/a
97.4855	7.046	194971	prompt	n/a	paperback accounts celebrate kind\n
98.199	0.075	196398	keystroke	a	n/a
98.5445	0.0745	197089	keystroke	Key.backspace	n/a
98.739	0.09	197478	keystroke	p	n/a
98.844	0.105	197688	keystroke	a	n/a
98.9645	0.045	197929	keystroke	p	n/a
99.0695	0.0895	198139	keystroke	e	n/a
99.129	0.09	198258	keystroke	r	n/a
99.3095	0.089	198619	keystroke	Key.space	n/a
99.8345	0.09	199669	keystroke	Key.backspace	n/a
100.104	0.075	200208	keystroke	b	n/a
100.2095	0.075	200419	keystroke	a	n/a
100.3595	0.075	200719	keystroke	c	n/a
100.4495	0.09	200899	keystroke	k	n/a
100.5535	0.1205	201107	keystroke	Key.space	n/a
100.8095	0.075	201619	keystroke	a	n/a
100.9745	0.075	201949	keystroke	c	n/a
101.109	0.0455	202218	keystroke	c	n/a
101.139	0.0755	202278	keystroke	o	n/a
101.1695	0.075	202339	keystroke	u	n/a
101.3645	0.12	202729	keystroke	n	n/a
101.4995	0.0595	202999	keystroke	t	n/a
101.574	0.0905	203148	keystroke	s	n/a
101.7095	0.09	203419	keystroke	Key.space	n/a
102.099	0.075	204198	keystroke	c	n/a
102.204	0.09	204408	keystroke	e	n/a
102.3395	0.075	204679	keystroke	l	n/a
102.639	0.075	205278	keystroke	e	n/a
102.804	0.0905	205608	keystroke	b	n/a
102.9395	0.0895	205879	keystroke	r	n/a
103.149	0.0755	206298	keystroke	a	n/a
103.3145	0.075	206629	keystroke	t	n/a
103.4045	0.075	206809	keystroke	e	n/a
103.539	0.09	207078	keystroke	Key.space	n/a
103.809	0.1205	207618	keystroke	k	n/a
103.9745	0.1045	207949	keystroke	i	n/a
104.034	0.075	208068	keystroke	n	n/a
104.079	0.075	208158	keystroke	d	n/a
104.454	0.075	208908	keystroke	Key.enter	n/a
104.5375	9.098	209075	prompt	n/a	vacation physical mysql editing\n
105.1595	0.045	210319	keystroke	v	n/a
105.3395	0.06	210679	keystroke	a	n/a
105.474	0.09	210948	keystroke	c	n/a
105.699	0.0755	211398	keystroke	a	n/a
105.8195	0.075	211639	keystroke	t	n/a
105.9095	0.0595	211819	keystroke	i	n/a
105.999	0.12	211998	keystroke	o	n/a
106.074	0.1055	212148	keystroke	n	n/a
106.3595	0.059	212719	keystroke	Key.space	n/a
106.659	0.09	213318	keystroke	p	n/a
106.824	0.09	213648	keystroke	h	n/a
106.989	0.09	213978	keystroke	y	n/a
107.094	0.075	214188	keystroke	s	n/a
107.259	0.015	214518	keystroke	c	n/a
107.589	0.105	215178	keystroke	Key.backspace	n/a
107.829	0.09	215658	keystroke	i	n/a
108.009	0.09	216018	keystroke	c	n/a
108.189	0.105	216378	keystroke	a	n/a
108.279	0.075	216558	keystroke	l	n/a
108.489	0.09	216978	keystroke	Key.space	n/a
108.849	0.09	217698	keystroke	m	n/a
109.464	0.09	218928	keystroke	y	n/a
109.719	0.075	219438	keystroke	s	n/a
109.929	0.075	219858	keystroke	q	n/a
110.049	0.09	220098	keystroke	l	n/a
110.379	0.0605	220758	keystroke	Key.space	n/a
110.8145	0.135	221629	keystroke	e	n/a
110.9345	0.1045	221869	keystroke	d	n/a
111.054	0.09	222108	keystroke	i	n/a
111.2045	0.075	222409	keystroke	t	n/a
111.3095	0.09	222619	keystroke	i	n/a
111.4145	0.1195	222829	keystroke	o	n/a
111.4895	0.0895	222979	keystroke	n	n/a
112.5235	0.06	225047	keystroke	Key.backspace	n/a
112.6585	0.09	225317	keystroke	Key.backspace	n/a
113.0335	0.105	226067	keystroke	n	n/a
113.199	0.075	226398	keystroke	g	n/a
113.5435	0.09	227087	keystroke	Key.enter	n/a
113.64	8.201	227280	prompt	n/a	demo looked short lookup\n
114.3395	0.1195	228679	keystroke	d	n/a
114.4135	0.105	228827	keystroke	e	n/a
114.6235	0.1505	229247	keystroke	m	n/a
114.759	0.105	229518	keystroke	o	n/a
115.2235	0.09	230447	keystroke	Key.space	n/a
115.434	0.1195	230868	keystroke	l	n/a
115.674	0.06	231348	keystroke	o	n/a
115.839	0.1345	231678	keystroke	o	n/a
116.1235	0.105	232247	keystroke	k	n/a
116.364	0.09	232728	keystroke	e	n/a
116.7245	0.104	233449	keystroke	d	n/a
116.9185	0.1045	233837	keystroke	Key.space	n/a
117.2485	0.091	234497	keystroke	s	n/a
117.3545	0.1195	234709	keystroke	h	n/a
117.459	0.075	234918	keystroke	o	n/a
117.504	0.105	235008	keystroke	r	n/a
117.699	0.06	235398	keystroke	t	n/a
117.773	0.12	235546	keystroke	Key.space	n/a
118.314	0.045	236628	keystroke	k	n/a
118.838	0.135	237676	keystroke	Key.backspace	n/a
119.5435	0.075	239087	keystroke	o	n/a
119.6635	0.09	239327	keystroke	o	n/a
120.0685	0.075	240137	keystroke	Key.backspace	n/a
120.2185	0.09	240437	keystroke	Key.backspace	n/a
120.4585	0.09	240917	keystroke	l	n/a
120.6385	0.09	241277	keystroke	o	n/a
120.7735	0.09	241547	keystroke	o	n/a
120.9535	0.09	241907	keystroke	k	n/a
121.1935	0.135	242387	keystroke	u	n/a
121.3135	0.105	242627	keystroke	p	n/a
121.7485	0.09	243497	keystroke	Key.enter	n/a
121.8455	7.735	243691	prompt	n/a	civilization drugs build tion\n
122.5585	0.105	245117	keystroke	c	n/a
122.6785	0.075	245357	keystroke	i	n/a
122.8735	0.09	245747	keystroke	v	n/a
122.9485	0.09	245897	keystroke	i	n/a
123.2335	0.135	246467	keystroke	l	n/a
123.3985	0.09	246797	keystroke	i	n/a
123.8485	0.105	247697	keystroke	z	n/a
124.0585	0.089	248117	keystroke	a	n/a
124.2385	0.045	248477	keystroke	t	n/a
124.3135	0.075	248627	keystroke	i	n/a
124.4335	0.09	248867	keystroke	o	n/a
124.4785	0.075	248957	keystroke	n	n/a
124.6725	0.0915	249345	keystroke	Key.space	n/a
125.109	0.045	250218	keystroke	r	n/a
125.3335	0.075	250667	keystroke	Key.backspace	n/a
125.3935	0.075	250787	keystroke	d	n/a
125.5285	0.0605	251057	keystroke	r	n/a
125.604	0.075	251208	keystroke	u	n/a
125.709	0.075	251418	keystroke	g	n/a
125.8285	0.09	251657	keystroke	s	n/a
125.993	0.061	251986	keystroke	Key.space	n/a
126.5335	0.0755	253067	keystroke	u	n/a
126.804	0.0745	253608	keystroke	Key.backspace	n/a
126.8635	0.09	253727	keystroke	b	n/a
126.9835	0.075	253967	keystroke	u	n/a
127.1185	0.105	254237	keystroke	i	n/a
127.254	0.0895	254508	keystroke	l	n/a
127.388	0.1055	254776	keystroke	d	n/a
127.5535	0.075	255107	keystroke	Key.space	n/a
127.808	0.075	255616	keystroke	i	n/a
128.1385	0.06	256277	keystroke	Key.backspace	n/a
128.2135	0.075	256427	keystroke	t	n/a
128.858	0.105	257716	keystroke	i	n/a
128.979	0.119	257958	keystroke	o	n/a
129.083	0.0905	258166	keystroke	n	n/a
129.488	0.09	258976	keystroke	Key.enter	n/a
129.5865	8.2435	259173	prompt	n/a	brake celebrate write pointed\n
130.238	0.105	260476	keystroke	b	n/a
130.389	0.089	260778	keystroke	r	n/a
130.448	0.075	260896	keystroke	e	n/a
130.778	0.09	261556	keystroke	Key.backspace	n/a
130.838	0.105	261676	keystroke	a	n/a
130.988	0.105	261976	keystroke	k	n/a
131.123	0.045	262246	keystroke	e	n/a
131.288	0.06	262576	keystroke	Key.space	n/a
131.618	0.045	263236	keystroke	e	n/a
131.888	0.06	263776	keystroke	Key.backspace	n/a
131.933	0.105	263866	keystroke	c	n/a
132.009	0.089	264018	keystroke	e	n/a
132.114	0.089	264228	keystroke	l	n/a
132.533	0.06	265066	keystroke	e	n/a
132.638	0.075	265276	keystroke	h	n/a
132.773	0.045	265546	keystroke	r	n/a
133.103	0.06	266206	keystroke	Key.backspace	n/a
133.223	0.075	266446	keystroke	Key.backspace	n/a
133.733	0.075	267466	keystroke	b	n/a
133.823	0.09	267646	keystroke	r	n/a
133.958	0.075	267916	keystroke	a	n/a
134.078	0.105	268156	keystroke	t	n/a
134.168	0.075	268336	keystroke	e	n/a
134.543	0.09	269086	keystroke	Key.space	n/a
135.068	0.105	270136	keystroke	w	n/a
135.338	0.075	270676	keystroke	r	n/a
135.443	0.1055	270886	keystroke	i	n/a
135.5325	0.105	271065	keystroke	t	n/a
135.6225	0.09	271245	keystroke	e	n/a
135.7575	0.09	271515	keystroke	Key.space	n/a
136.3885	0.149	272777	keystroke	p	n/a
136.4485	0.119	272897	keystroke	o	n/a
136.703	0.135	273406	keystroke	i	n/a
136.778	0.09	273556	keystroke	n	n/a
136.853	0.0605	273706	keystroke	t	n/a
136.9585	0.0895	273917	keystroke	e	n/a
137.033	0.06	274066	keystroke	r	n/a
137.468	0.09	274936	keystroke	Key.backspace	n/a
137.588	0.09	275176	keystroke	d	n/a
137.753	0.075	275506	keystroke	Key.enter	n/a
137.837	6.517	275674	prompt	n/a	joel rochester actually division\n
138.6525	0.135	277305	keystroke	j	n/a
138.7425	0.09	277485	keystroke	o	n/a
138.8625	0.075	277725	keystroke	e	n/a
138.9975	0.075	277995	keystroke	l	n/a
139.1025	0.09	278205	keystroke	Key.space	n/a
139.4925	0.06	278985	keystroke	r	n/a
139.5825	0.09	279165	keystroke	o	n/a
139.6875	0.09	279375	keystroke	c	n/a
139.8225	0.075	279645	keystroke	h	n/a
139.9125	0.12	279825	keystroke	e	n/a
140.1525	0.075	280305	keystroke	s	n/a
140.2575	0.075	280515	keystroke	t	n/a
140.3775	0.075	280755	keystroke	e	n/a
140.4375	0.075	280875	keystroke	r	n/a
140.6625	0.09	281325	keystroke	Key.space	n/a
140.9925	0.06	281985	keystroke	a	n/a
141.2325	0.015	282465	keystroke	c	n/a
141.4575	0.075	282915	keystroke	t	n/a
141.5625	0.09	283125	keystroke	u	n/a
141.7425	0.09	283485	keystroke	a	n/a
141.9825	0.06	283965	keystroke	l	n/a
142.1025	0.075	284205	keystroke	l	n/a
142.1925	0.075	284385	keystroke	y	n/a
142.4325	0.0895	284865	keystroke	Key.space	n/a
142.792	0.075	285584	keystroke	d	n/a
142.913	0.104	285826	keystroke	i	n/a
143.003	0.09	286006	keystroke	s	n/a
143.273	0.104	286546	keystroke	Key.backspace	n/a
143.393	0.0745	286786	keystroke	v	n/a
143.498	0.089	286996	keystroke	i	n/a
143.618	0.075	287236	keystroke	s	n/a
143.723	0.09	287446	keystroke	i	n/a
143.843	0.135	287686	keystroke	o	n/a
143.903	0.1195	287806	keystroke	n	n/a
144.2775	0.075	288555	keystroke	Key.enter	n/a
144.3585	5.891	288717	prompt	n/a	quotations call error reflection\n
144.9975	0.06	289995	keystroke	q	n/a
145.133	0.119	290266	keystroke	u	n/a
145.237	0.091	290474	keystroke	o	n/a
145.433	0.0885	290866	keystroke	t	n/a
145.8075	0.104	291615	keystroke	a	n/a
145.9715	0.075	291943	keystroke	t	n/a
146.0615	0.075	292123	keystroke	i	n/a
146.1525	0.164	292305	keystroke	o	n/a
146.2715	0.09	292543	keystroke	n	n/a
146.5115	0.091	293023	keystroke	s	n/a
146.6475	0.12	293295	keystroke	Key.space	n/a
146.8575	0.0895	293715	keystroke	c	n/a
146.992	0.105	293984	keystroke	a	n/a
147.052	0.06	294104	keystroke	l	n/a
147.172	0.1055	294344	keystroke	l	n/a
147.292	0.12	294584	keystroke	Key.space	n/a
147.517	0.075	295034	keystroke	e	n/a
147.637	0.09	295274	keystroke	r	n/a
147.787	0.075	295574	keystroke	r	n/a
147.892	0.09	295784	keystroke	o	n/a
148.057	0.06	296114	keystroke	r	n/a
148.207	0.06	296414	keystroke	Key.space	n/a
148.612	0.12	297224	keystroke	r	n/a
148.702	0.105	297404	keystroke	e	n/a
148.852	0.09	297704	keystroke	f	n/a
149.032	0.075	298064	keystroke	l	n/a
149.197	0.075	298394	keystroke	e	n/a
149.347	0.045	298694	keystroke	c	n/a
149.557	0.075	299114	keystroke	t	n/a
149.707	0.135	299414	keystroke	i	n/a
149.827	0.12	299654	keystroke	o	n/a
149.917	0.105	299834	keystroke	n	n/a
150.172	0.075	300344	keystroke	Key.enter	n/a
150.2545	7.87	300509	prompt	n/a	wider paxil interference incidents\n
150.877	0.105	301754	keystroke	w	n/a
151.072	0.105	302144	keystroke	i	n/a
151.192	0.105	302384	keystroke	d	n/a
151.612	0.09	303224	keystroke	e	n/a
151.672	0.09	303344	keystroke	r	n/a
151.777	0.105	303554	keystroke	Key.space	n/a
152.002	0.105	304004	keystroke	p	n/a
152.167	0.03	304334	keystroke	x	n/a
152.632	0.06	305264	keystroke	Key.backspace	n/a
152.827	0.075	305654	keystroke	a	n/a
153.037	0.075	306074	keystroke	z	n/a
153.292	0.06	306584	keystroke	i	n/a
153.487	0.045	306974	keystroke	Key.backspace	n/a
153.607	0.06	307214	keystroke	Key.backspace	n/a
153.682	0.075	307364	keystroke	x	n/a
153.862	0.09	307724	keystroke	i	n/a
153.982	0.06	307964	keystroke	l	n/a
154.177	0.105	308354	keystroke	Key.space	n/a
154.537	0.135	309074	keystroke	i	n/a
154.627	0.09	309254	keystroke	n	n/a
154.657	0.105	309314	keystroke	t	n/a
154.762	0.09	309524	keystroke	e	n/a
154.837	0.09	309674	keystroke	r	n/a
155.347	0.09	310694	keystroke	f	n/a
155.452	0.075	310904	keystroke	e	n/a
155.617	0.075	311234	keystroke	r	n/a
155.797	0.075	311594	keystroke	e	n/a
155.992	0.075	311984	keystroke	n	n/a
156.097	0.105	312194	keystroke	c	n/a
156.157	0.09	312314	keystroke	e	n/a
156.292	0.105	312584	keystroke	Key.space	n/a
156.742	0.12	313484	keystroke	i	n/a
156.847	0.105	313694	keystroke	n	n/a
156.967	0.09	313934	keystroke	c	n/a
157.207	0.075	314414	keystroke	i	n/a
157.297	0.09	314594	keystroke	d	n/a
157.402	0.075	314804	keystroke	e	n/a
157.492	0.09	314984	keystroke	n	n/a
157.717	0.075	315434	keystroke	t	n/a
157.822	0.09	315644	keystroke	s	n/a
158.017	0.105	316034	keystroke	Key.enter	n/a
158.1285	6.459	316257	prompt	n/a	gateway handheld medical teachers\n
158.9615	0.045	317923	keystroke	g	n/a
159.0815	0.105	318163	keystroke	a	n/a
159.2465	0.0755	318493	keystroke	t	n/a
159.3515	0.06	318703	keystroke	e	n/a
159.6815	0.06	319363	keystroke	w	n/a
159.832	0.09	319664	keystroke	a	n/a
159.952	0.12	319904	keystroke	y	n/a
160.117	0.105	320234	keystroke	Key.space	n/a
160.327	0.09	320654	keystroke	h	n/a
160.447	0.1045	320894	keystroke	a	n/a
160.5365	0.105	321073	keystroke	n	n/a
160.6715	0.075	321343	keystroke	d	n/a
160.9115	0.06	321823	keystroke	l	n/a
161.1665	0.075	322333	keystroke	Key.backspace	n/a
161.3615	0.09	322723	keystroke	h	n/a
161.4825	0.044	322965	keystroke	e	n/a
161.5415	0.105	323083	keystroke	l	n/a
161.6915	0.105	323383	keystroke	d	n/a
161.9465	0.0895	323893	keystroke	Key.space	n/a
162.276	0.105	324552	keystroke	m	n/a
162.366	0.0755	324732	keystroke	e	n/a
162.426	0.0905	324852	keystroke	d	n/a
162.5315	0.075	325063	keystroke	i	n/a
162.6515	0.06	325303	keystroke	c	n/a
162.7715	0.09	325543	keystroke	a	n/a
162.9065	0.045	325813	keystroke	l	n/a
163.011	0.015	326022	keystroke	Key.space	n/a
163.3865	0.09	326773	keystroke	t	n/a
163.4915	0.0745	326983	keystroke	e	n/a
163.671	0.06	327342	keystroke	a	n/a
163.791	0.075	327582	keystroke	c	n/a
163.881	0.135	327762	keystroke	h	n/a
163.971	0.105	327942	keystroke	e	n/a
164.031	0.09	328062	keystroke	r	n/a
164.136	0.06	328272	keystroke	s	n/a
164.526	0.06	329052	keystroke	Key.enter	n/a
164.593	11.214	329186	prompt	n/a	celebration belarus reverse politics\n
165.111	0.09	330222	keystroke	c	n/a
165.202	0.089	330404	keystroke	e	n/a
165.336	0.09	330672	keystroke	l	n/a
165.501	0.045	331002	keystroke	e	n/a
165.726	0.075	331452	keystroke	b	n/a
165.921	0.09	331842	keystroke	r	n/a
166.3715	0.0745	332743	keystroke	a	n/a
166.506	0.075	333012	keystroke	t	n/a
166.596	0.075	333192	keystroke	i	n/a
166.686	0.165	333372	keystroke	o	n/a
167.001	0.12	334002	keystroke	n	n/a
167.406	0.105	334812	keystroke	Key.space	n/a
167.571	0.09	335142	keystroke	b	n/a
167.691	0.09	335382	keystroke	e	n/a
167.826	0.09	335652	keystroke	l	n/a
168.186	0.09	336372	keystroke	a	n/a
168.471	0.09	336942	keystroke	r	n/a
168.576	0.105	337152	keystroke	u	n/a
168.696	0.09	337392	keystroke	s	n/a
168.906	0.09	337812	keystroke	Key.space	n/a
169.776	0.09	339552	keystroke	r	n/a
169.851	0.075	339702	keystroke	e	n/a
170.031	0.045	340062	keystroke	v	n/a
170.091	0.105	340182	keystroke	e	n/a
170.166	0.09	340332	keystroke	r	n/a
170.286	0.06	340572	keystroke	s	n/a
170.421	0.104	340842	keystroke	e	n/a
170.63	0.105	341260	keystroke	Key.space	n/a
171.741	0.09	343482	keystroke	p	n/a
171.816	0.12	343632	keystroke	o	n/a
172.026	0.075	344052	keystroke	l	n/a
172.191	0.075	344382	keystroke	i	n/a
172.326	0.0905	344652	keystroke	t	n/a
172.4455	0.09	344891	keystroke	i	n/a
172.5655	0.09	345131	keystroke	c	n/a
172.7155	0.09	345431	keystroke	e	n/a
173.3005	0.105	346601	keystroke	Key.backspace	n/a
173.4655	0.075	346931	keystroke	s	n/a
175.793	0.012	351586	keystroke	Key.enter	n/a
175.811	10.4505	351622	prompt	n/a	configure abraham experiences carbon\n
176.7955	0.089	353591	keystroke	c	n/a
176.9455	0.119	353891	keystroke	o	n/a
176.976	0.1045	353952	keystroke	n	n/a
177.126	0.12	354252	keystroke	f	n/a
177.306	0.105	354612	keystroke	i	n/a
177.53	0.076	355060	keystroke	g	n/a
177.666	0.105	355332	keystroke	u	n/a
177.786	0.089	355572	keystroke	r	n/a
177.831	0.105	355662	keystroke	e	n/a
178.086	0.074	356172	keystroke	Key.space	n/a
178.341	0.09	356682	keystroke	a	n/a
178.551	0.075	357102	keystroke	b	n/a
178.926	0.105	357852	keystroke	r	n/a
179.286	0.09	358572	keystroke	a	n/a
179.361	0.074	358722	keystroke	h	n/a
179.6	0.1205	359200	keystroke	a	n/a
179.6905	0.105	359381	keystroke	m	n/a
179.9145	0.105	359829	keystroke	Key.space	n/a
180.3955	0.06	360791	keystroke	e	n/a
180.5605	0.09	361121	keystroke	x	n/a
180.6655	0.09	361331	keystroke	p	n/a
180.8005	0.09	361601	keystroke	e	n/a
180.8755	0.09	361751	keystroke	r	n/a
181.0405	0.12	362081	keystroke	i	n/a
181.3855	0.075	362771	keystroke	e	n/a
181.5345	0.091	363069	keystroke	n	n/a
181.6405	0.075	363281	keystroke	c	n/a
181.7005	0.059	363401	keystroke	e	n/a
181.8805	0.075	363761	keystroke	s	n/a
182.0005	0.075	364001	keystroke	Key.space	n/a
182.5705	0.06	365141	keystroke	c	n/a
182.6905	0.09	365381	keystroke	a	n/a
182.7955	0.06	365591	keystroke	r	n/a
182.8405	0.075	365681	keystroke	b	n/a
183.0355	0.15	366071	keystroke	o	n/a
183.3955	0.09	366791	keystroke	n	n/a
186.248	0.012	372496	keystroke	Key.enter	n/a
186.267	8.5745	372534	prompt	n/a	native pencil declined productivity\n
187.085	0.09	374170	keystroke	n	n/a
187.205	0.09	374410	keystroke	a	n/a
187.37	0.06	374740	keystroke	t	n/a
187.49	0.075	374980	keystroke	i	n/a
187.58	0.0895	375160	keystroke	v	n/a
187.655	0.0745	375310	keystroke	e	n/a
187.8645	0.06	375729	keystroke	Key.space	n/a
188.5695	0.075	377139	keystroke	p	n/a
188.6295	0.12	377259	keystroke	e	n/a
188.7795	0.105	377559	keystroke	n	n/a
188.9445	0.06	377889	keystroke	c	n/a
189.0645	0.075	378129	keystroke	i	n/a
189.2595	0.06	378519	keystroke	l	n/a
189.619	0.09	379238	keystroke	Key.space	n/a
189.829	0.1055	379658	keystroke	d	n/a
189.9195	0.09	379839	keystroke	e	n/a
190.0845	0.075	380169	keystroke	c	n/a
190.234	0.12	380468	keystroke	l	n/a
190.294	0.09	380588	keystroke	i	n/a
190.489	0.09	380978	keystroke	n	n/a
190.594	0.105	381188	keystroke	e	n/a
190.684	0.12	381368	keystroke	d	n/a
190.849	0.09	381698	keystroke	Key.space	n/a
191.329	0.12	382658	keystroke	o	n/a
191.509	0.045	383018	keystroke	r	n/a
191.659	0.105	383318	keystroke	Key.backspace	n/a
191.824	0.075	383648	keystroke	Key.backspace	n/a
191.989	0.105	383978	keystroke	p	n/a
192.109	0.075	384218	keystroke	r	n/a
192.214	0.105	384428	keystroke	o	n/a
192.484	0.09	384968	keystroke	d	n/a
192.709	0.075	385418	keystroke	u	n/a
192.814	0.105	385628	keystroke	c	n/a
193.054	0.075	386108	keystroke	t	n/a
193.324	0.09	386648	keystroke	i	n/a
193.459	0.09	386918	keystroke	v	n/a
193.624	0.106	387248	keystroke	i	n/a
193.835	0.074	387670	keystroke	t	n/a
193.924	0.09	387848	keystroke	y	n/a
194.764	0.075	389528	keystroke	Key.enter	n/a
194.846	6.055	389692	prompt	n/a	howard ferry cover nationwide\n
195.515	0.105	391030	keystroke	h	n/a
195.6485	0.0905	391297	keystroke	o	n/a
196.0535	0.06	392107	keystroke	w	n/a
196.204	0.075	392408	keystroke	a	n/a
196.324	0.0755	392648	keystroke	r	n/a
196.5045	0.074	393009	keystroke	d	n/a
196.6385	0.09	393277	keystroke	Key.space	n/a
196.9235	0.075	393847	keystroke	f	n/a
197.0295	0.09	394059	keystroke	e	n/a
197.4485	0.075	394897	keystroke	r	n/a
197.5845	0.074	395169	keystroke	r	n/a
197.6895	0.09	395379	keystroke	y	n/a
198.2585	0.12	396517	keystroke	Key.space	n/a
198.5745	0.09	397149	keystroke	c	n/a
198.6785	0.076	397357	keystroke	o	n/a
198.7695	0.059	397539	keystroke	v	n/a
198.8745	0.105	397749	keystroke	e	n/a
198.9335	0.076	397867	keystroke	r	n/a
199.1135	0.106	398227	keystroke	Key.space	n/a
199.5795	0.09	399159	keystroke	n	n/a
199.6995	0.075	399399	keystroke	a	n/a
199.8495	0.075	399699	keystroke	t	n/a
199.9545	0.09	399909	keystroke	i	n/a
200.0595	0.119	400119	keystroke	o	n/a
200.1195	0.135	400239	keystroke	n	n/a
200.3445	0.075	400689	keystroke	w	n/a
200.4635	0.076	400927	keystroke	i	n/a
200.5545	0.105	401109	keystroke	d	n/a
200.6285	0.075	401257	keystroke	e	n/a
200.8235	0.075	401647	keystroke	Key.enter	n/a
200.9055	8.56	401811	prompt	n/a	it's pleased companies magnificent\n
201.6195	0.105	403239	keystroke	i	n/a
201.7695	0.044	403539	keystroke	t	n/a
202.0545	0.105	404109	keystroke	;	n/a
202.2335	0.091	404467	keystroke	s	n/a
202.3835	0.1055	404767	keystroke	Key.space	n/a
202.819	0.075	405638	keystroke	Key.backspace	n/a
202.969	0.09	405938	keystroke	Key.backspace	n/a
203.3285	0.075	406657	keystroke	Key.backspace	n/a
203.8535	0.09	407707	keystroke	'	n/a
203.9735	0.09	407947	keystroke	s	n/a
204.1085	0.12	408217	keystroke	Key.space	n/a
204.4685	0.105	408937	keystroke	p	n/a
204.514	0.1045	409028	keystroke	l	n/a
204.5885	0.06	409177	keystroke	e	n/a
204.7535	0.075	409507	keystroke	a	n/a
204.7985	0.105	409597	keystroke	s	n/a
204.9935	0.09	409987	keystroke	e	n/a
205.0535	0.09	410107	keystroke	d	n/a
205.2335	0.075	410467	keystroke	Key.space	n/a
205.5635	0.075	411127	keystroke	c	n/a
205.6235	0.105	411247	keystroke	o	n/a
205.6835	0.09	411367	keystroke	m	n/a
205.8335	0.075	411667	keystroke	p	n/a
205.9535	0.09	411907	keystroke	a	n/a
206.0585	0.09	412117	keystroke	n	n/a
206.1335	0.09	412267	keystroke	i	n/a
206.2385	0.06	412477	keystroke	e	n/a
206.4035	0.0745	412807	keystroke	s	n/a
206.493	0.09	412986	keystroke	Key.space	n/a
207.124	0.089	414248	keystroke	m	n/a
207.198	0.09	414396	keystroke	a	n/a
207.394	0.074	414788	keystroke	g	n/a
207.483	0.105	414966	keystroke	n	n/a
207.573	0.075	415146	keystroke	i	n/a
207.708	0.105	415416	keystroke	f	n/a
207.844	0.075	415688	keystroke	i	n/a
208.053	0.075	416106	keystroke	c	n/a
208.774	0.075	417548	keystroke	e	n/a
208.864	0.09	417728	keystroke	n	n/a
208.999	0.074	417998	keystroke	t	n/a
209.3575	0.105	418715	keystroke	Key.enter	n/a
209.4705	12.1445	418941	prompt	n/a	quickly estimates performing watershed\n
210.3185	0.104	420637	keystroke	q	n/a
210.4375	0.075	420875	keystroke	u	n/a
210.5425	0.12	421085	keystroke	i	n/a
210.7075	0.12	421415	keystroke	c	n/a
210.8725	0.135	421745	keystroke	k	n/a
210.9925	0.12	421985	keystroke	l	n/a
211.1575	0.075	422315	keystroke	y	n/a
211.3675	0.09	422735	keystroke	Key.space	n/a
211.8925	0.061	423785	keystroke	e	n/a
212.0575	0.091	424115	keystroke	s	n/a
212.1935	0.059	424387	keystroke	t	n/a
212.3735	0.119	424747	keystroke	i	n/a
212.8075	0.091	425615	keystroke	m	n/a
212.9575	0.09	425915	keystroke	a	n/a
213.1685	0.089	426337	keystroke	t	n/a
213.3625	0.06	426725	keystroke	e	n/a
213.5725	0.076	427145	keystroke	s	n/a
213.857	0.075	427714	keystroke	Key.space	n/a
214.502	0.091	429004	keystroke	p	n/a
214.608	0.0745	429216	keystroke	e	n/a
214.638	0.089	429276	keystroke	r	n/a
214.802	0.091	429604	keystroke	f	n/a
214.952	0.091	429904	keystroke	o	n/a
215.132	0.075	430264	keystroke	r	n/a
215.4025	0.076	430805	keystroke	m	n/a
215.8975	0.12	431795	keystroke	i	n/a
215.9425	0.105	431885	keystroke	n	n/a
216.0775	0.075	432155	keystroke	g	n/a
216.2275	0.105	432455	keystroke	Key.space	n/a
217.2025	0.045	434405	keystroke	q	n/a
217.5325	0.09	435065	keystroke	Key.backspace	n/a
217.6375	0.075	435275	keystroke	w	n/a
217.8175	0.075	435635	keystroke	a	n/a
218.0275	0.075	436055	keystroke	t	n/a
218.1475	0.135	436295	keystroke	e	n/a
218.2225	0.09	436445	keystroke	r	n/a
220.0075	0.075	440015	keystroke	s	n/a
220.0675	0.105	440135	keystroke	h	n/a
220.2175	0.09	440435	keystroke	e	n/a
220.2775	0.09	440555	keystroke	d	n/a
221.5075	0.105	443015	keystroke	Key.enter	n/a
221.6195	9.3845	443239	prompt	n/a	royal held mozambique adults\n
222.6025	0.09	445205	keystroke	r	n/a
222.7075	0.12	445415	keystroke	o	n/a
222.9025	0.075	445805	keystroke	y	n/a
223.0975	0.09	446195	keystroke	a	n/a
223.2025	0.075	446405	keystroke	l	n/a
223.4275	0.105	446855	keystroke	Key.space	n/a
223.832	0.075	447664	keystroke	h	n/a
223.907	0.0755	447814	keystroke	e	n/a
224.042	0.075	448084	keystroke	l	n/a
224.1625	0.0745	448325	keystroke	d	n/a
224.372	0.105	448744	keystroke	Key.space	n/a
226.262	0.105	452524	keystroke	m	n/a
226.352	0.0905	452704	keystroke	o	n/a
226.457	0.0905	452914	keystroke	z	n/a
226.8625	0.075	453725	keystroke	a	n/a
227.1765	0.105	454353	keystroke	m	n/a
227.4625	0.119	454925	keystroke	b	n/a
227.5675	0.105	455135	keystroke	i	n/a
228.0925	0.09	456185	keystroke	q	n/a
228.1675	0.075	456335	keystroke	u	n/a
228.392	0.09	456784	keystroke	e	n/a
228.6015	0.075	457203	keystroke	Key.space	n/a
229.0675	0.119	458135	keystroke	a	n/a
229.2765	0.105	458553	keystroke	d	n/a
229.3965	0.12	458793	keystroke	u	n/a
229.4865	0.09	458973	keystroke	l	n/a
229.6665	0.09	459333	keystroke	t	n/a
229.8925	0.104	459785	keystroke	s	n/a
230.8815	0.12	461763	keystroke	Key.enter	n/a
231.0095	6.954	462019	prompt	n/a	instrumental angle solution clinics\n
231.8865	0.09	463773	keystroke	i	n/a
232.0215	0.105	464043	keystroke	n	n/a
232.3365	0.045	464673	keystroke	s	n/a
232.3825	0.059	464765	keystroke	t	n/a
232.5165	0.09	465033	keystroke	r	n/a
232.5915	0.075	465183	keystroke	u	n/a
232.7865	0.09	465573	keystroke	m	n/a
232.9515	0.09	465903	keystroke	e	n/a
233.0565	0.09	466113	keystroke	n	n/a
233.1915	0.075	466383	keystroke	t	n/a
233.3865	0.105	466773	keystroke	a	n/a
233.4765	0.09	466953	keystroke	l	n/a
233.6415	0.12	467283	keystroke	Key.space	n/a
234.0765	0.075	468153	keystroke	a	n/a
234.1815	0.09	468363	keystroke	n	n/a
234.2865	0.075	468573	keystroke	g	n/a
234.4515	0.075	468903	keystroke	l	n/a
234.5715	0.06	469143	keystroke	e	n/a
234.7065	0.09	469413	keystroke	Key.space	n/a
235.0515	0.09	470103	keystroke	s	n/a
235.1265	0.075	470253	keystroke	o	n/a
235.3815	0.015	470763	keystroke	l	n/a
235.4115	0.105	470823	keystroke	u	n/a
235.5615	0.075	471123	keystroke	t	n/a
235.6815	0.075	471363	keystroke	i	n/a
235.7865	0.15	471573	keystroke	o	n/a
235.8765	0.12	471753	keystroke	n	n/a
236.1915	0.09	472383	keystroke	Key.space	n/a
236.3715	0.0905	472743	keystroke	c	n/a
236.762	0.075	473524	keystroke	l	n/a
236.792	0.12	473584	keystroke	i	n/a
237.002	0.1045	474004	keystroke	n	n/a
237.1515	0.149	474303	keystroke	i	n/a
237.3755	0.076	474751	keystroke	c	n/a
237.5265	0.075	475053	keystroke	s	n/a
237.8715	0.09	475743	keystroke	Key.enter	n/a
237.9675	7.6755	475935	prompt	n/a	ontario rules entities categories\n
238.6215	0.09	477243	keystroke	o	n/a
238.7715	0.105	477543	keystroke	n	n/a
239.0865	0.075	478173	keystroke	t	n/a
239.2365	0.105	478473	keystroke	a	n/a
239.3265	0.09	478653	keystroke	r	n/a
239.4765	0.15	478953	keystroke	i	n/a
239.5965	0.09	479193	keystroke	o	n/a
239.9705	0.105	479941	keystroke	Key.space	n/a
240.1365	0.075	480273	keystroke	r	n/a
240.2255	0.136	480451	keystroke	u	n/a
240.3015	0.105	480603	keystroke	l	n/a
240.4065	0.075	480813	keystroke	e	n/a
240.5715	0.105	481143	keystroke	s	n/a
240.7665	0.089	481533	keystroke	Key.space	n/a
241.2165	0.06	482433	keystroke	e	n/a
241.2765	0.09	482553	keystroke	n	n/a
241.4265	0.06	482853	keystroke	t	n/a
241.5315	0.09	483063	keystroke	i	n/a
241.6365	0.09	483273	keystroke	t	n/a
241.7415	0.075	483483	keystroke	i	n/a
241.8315	0.075	483663	keystroke	e	n/a
242.2515	0.075	484503	keystroke	s	n/a
242.4765	0.09	484953	keystroke	Key.space	n/a
242.7915	0.06	485583	keystroke	c	n/a
242.8965	0.09	485793	keystroke	a	n/a
243.3615	0.09	486723	keystroke	t	n/a
243.4815	0.09	486963	keystroke	e	n/a
244.2165	0.075	488433	keystroke	g	n/a
244.3515	0.09	488703	keystroke	o	n/a
244.5165	0.075	489033	keystroke	r	n/a
244.6965	0.09	489393	keystroke	i	n/a
244.8165	0.09	489633	keystroke	e	n/a
244.9965	0.105	489993	keystroke	s	n/a
245.5665	0.075	491133	keystroke	Key.enter	n/a
245.648	10.855	491296	prompt	n/a	jordan submit gathered possession\n
246.4965	0.12	492993	keystroke	j	n/a
246.5865	0.09	493173	keystroke	o	n/a
246.8265	0.105	493653	keystroke	d	n/a
247.4865	0.09	494973	keystroke	Key.backspace	n/a
247.5915	0.06	495183	keystroke	r	n/a
247.7865	0.09	495573	keystroke	d	n/a
247.9515	0.105	495903	keystroke	a	n/a
248.0415	0.09	496083	keystroke	n	n/a
248.1915	0.12	496383	keystroke	Key.space	n/a
248.6565	0.075	497313	keystroke	s	n/a
248.7315	0.09	497463	keystroke	u	n/a
248.9865	0.075	497973	keystroke	b	n/a
249.0765	0.075	498153	keystroke	m	n/a
249.1665	0.105	498333	keystroke	i	n/a
249.2565	0.075	498513	keystroke	t	n/a
249.3915	0.105	498783	keystroke	Key.space	n/a
250.3515	0.075	500703	keystroke	g	n/a
250.5315	0.06	501063	keystroke	a	n/a
250.6965	0.105	501393	keystroke	t	n/a
250.8765	0.105	501753	keystroke	h	n/a
251.1765	0.105	502353	keystroke	e	n/a
251.2665	0.105	502533	keystroke	r	n/a
251.4765	0.105	502953	keystroke	e	n/a
251.5515	0.12	503103	keystroke	d	n/a
251.7015	0.075	503403	keystroke	Key.space	n/a
252.811	0.045	505622	keystroke	p	n/a
253.7265	0.0895	507453	keystroke	s	n/a
254.146	0.09	508292	keystroke	Key.backspace	n/a
254.356	0.06	508712	keystroke	o	n/a
254.701	0.075	509402	keystroke	s	n/a
254.836	0.075	509672	keystroke	s	n/a
255.121	0.075	510242	keystroke	e	n/a
255.301	0.075	510602	keystroke	s	n/a
255.436	0.075	510872	keystroke	s	n/a
255.841	0.075	511682	keystroke	i	n/a
256.006	0.165	512012	keystroke	o	n/a
256.066	0.135	512132	keystroke	n	n/a
256.4255	0.075	512851	keystroke	Key.enter	n/a
256.5085	11.0935	513017	prompt	n/a	infringement identical reporter visiting\n
257.2365	0.119	514473	keystroke	i	n/a
257.2955	0.105	514591	keystroke	n	n/a
257.4155	0.075	514831	keystroke	f	n/a
257.5505	0.12	515101	keystroke	r	n/a
257.6865	0.089	515373	keystroke	i	n/a
257.7305	0.09	515461	keystroke	n	n/a
257.8055	0.076	515611	keystroke	g	n/a
258.4955	0.06	516991	keystroke	e	n/a
258.6005	0.105	517201	keystroke	m	n/a
258.7505	0.075	517501	keystroke	e	n/a
258.8705	0.105	517741	keystroke	n	n/a
259.0205	0.09	518041	keystroke	t	n/a
259.1555	0.0895	518311	keystroke	Key.space	n/a
259.695	0.105	519390	keystroke	i	n/a
259.74	0.105	519480	keystroke	n	n/a
259.95	0.105	519900	keystroke	d	n/a
260.1	0.075	520200	keystroke	e	n/a
260.5955	0.075	521191	keystroke	Key.backspace	n/a
260.7455	0.09	521491	keystroke	Key.backspace	n/a
260.9405	0.03	521881	keystroke	Key.backspace	n/a
261.1805	0.12	522361	keystroke	d	n/a
261.435	0.09	522870	keystroke	e	n/a
261.57	0.09	523140	keystroke	n	n/a
261.75	0.06	523500	keystroke	t	n/a
262.005	0.075	524010	keystroke	i	n/a
262.095	0.09	524190	keystroke	c	n/a
262.29	0.105	524580	keystroke	a	n/a
262.38	0.0755	524760	keystroke	l	n/a
262.5005	0.12	525001	keystroke	Key.space	n/a
262.8305	0.089	525661	keystroke	r	n/a
262.8745	0.09	525749	keystroke	e	n/a
262.9955	0.09	525991	keystroke	p	n/a
263.0405	0.104	526081	keystroke	o	n/a
263.1295	0.09	526259	keystroke	r	n/a
263.2945	0.061	526589	keystroke	t	n/a
263.4305	0.09	526861	keystroke	e	n/a
263.4905	0.089	526981	keystroke	r	n/a
263.7745	0.09	527549	keystroke	Key.space	n/a
264.2555	0.075	528511	keystroke	v	n/a
264.3605	0.075	528721	keystroke	i	n/a
264.4505	0.06	528901	keystroke	s	n/a
264.5395	0.061	529079	keystroke	i	n/a
264.6155	0.06	529231	keystroke	s	n/a
264.7055	0.0745	529411	keystroke	t	n/a
264.93	0.09	529860	keystroke	i	n/a
264.96	0.105	529920	keystroke	n	n/a
265.035	0.075	530070	keystroke	g	n/a
265.575	0.075	531150	keystroke	Key.backspace	n/a
265.74	0.06	531480	keystroke	Key.backspace	n/a
265.89	0.075	531780	keystroke	Key.backspace	n/a
266.07	0.075	532140	keystroke	Key.backspace	n/a
266.355	0.09	532710	keystroke	t	n/a
266.61	0.045	533220	keystroke	Key.backspace	n/a
266.7295	0.075	533459	keystroke	Key.backspace	n/a
266.7895	0.076	533579	keystroke	t	n/a
266.9995	0.12	533999	keystroke	i	n/a
267.0745	0.091	534149	keystroke	n	n/a
267.1495	0.075	534299	keystroke	g	n/a
267.5245	0.075	535049	keystroke	Key.enter	n/a
267.6065	10.99	535213	prompt	n/a	advocate bibliographic depend ought\n
268.1695	0.091	536339	keystroke	a	n/a
268.3355	0.104	536671	keystroke	d	n/a
268.6055	0.059	537211	keystroke	v	n/a
268.8445	0.075	537689	keystroke	o	n/a
268.9355	0.09	537871	keystroke	c	n/a
269.1445	0.075	538289	keystroke	a	n/a
269.3255	0.089	538651	keystroke	t	n/a
269.3695	0.076	538739	keystroke	e	n/a
269.6545	0.075	539309	keystroke	Key.space	n/a
270.4195	0.06	540839	keystroke	b	n/a
270.4945	0.061	540989	keystroke	i	n/a
270.6155	0.059	541231	keystroke	b	n/a
270.8695	0.09	541739	keystroke	l	n/a
270.9445	0.105	541889	keystroke	i	n/a
271.1845	0.105	542369	keystroke	o	n/a
271.9045	0.09	543809	keystroke	g	n/a
272.0695	0.076	544139	keystroke	t	n/a
272.2355	0.059	544471	keystroke	a	n/a
272.6845	0.06	545369	keystroke	Key.backspace	n/a
272.8195	0.075	545639	keystroke	Key.backspace	n/a
272.8955	0.09	545791	keystroke	r	n/a
272.9995	0.091	545999	keystroke	a	n/a
273.1045	0.106	546209	keystroke	p	n/a
273.3145	0.105	546629	keystroke	h	n/a
273.3895	0.076	546779	keystroke	i	n/a
273.4795	0.105	546959	keystroke	c	n/a
273.7645	0.135	547529	keystroke	Key.space	n/a
274.1095	0.061	548219	keystroke	d	n/a
274.2445	0.091	548489	keystroke	e	n/a
274.3505	0.089	548701	keystroke	p	n/a
274.5455	0.09	549091	keystroke	n	n/a
275.0095	0.06	550019	keystroke	Key.backspace	n/a
275.0555	0.09	550111	keystroke	e	n/a
275.2195	0.091	550439	keystroke	n	n/a
275.3395	0.075	550679	keystroke	d	n/a
275.5495	0.075	551099	keystroke	Key.space	n/a
275.9695	0.121	551939	keystroke	o	n/a
276.0295	0.091	552059	keystroke	u	n/a
276.1055	0.075	552211	keystroke	t	n/a
276.3605	0.059	552721	keystroke	g	n/a
276.4655	0.075	552931	keystroke	h	n/a
276.7495	0.061	553499	keystroke	Key.backspace	n/a
277.0045	0.06	554009	keystroke	Key.backspace	n/a
277.5595	0.091	555119	keystroke	Key.backspace	n/a
277.7705	0.06	555541	keystroke	g	n/a
277.8605	0.09	555721	keystroke	h	n/a
278.025	0.075	556050	keystroke	t	n/a
278.519	0.075	557038	keystroke	Key.enter	n/a
278.6025	7.5235	557205	prompt	n/a	infrared attend escape knew\n
279.27	0.12	558540	keystroke	i	n/a
279.374	0.09	558748	keystroke	n	n/a
279.645	0.09	559290	keystroke	f	n/a
279.825	0.075	559650	keystroke	r	n/a
280.964	0.106	561928	keystroke	a	n/a
281.175	0.09	562350	keystroke	r	n/a
281.294	0.121	562588	keystroke	e	n/a
281.43	0.09	562860	keystroke	d	n/a
281.639	0.09	563278	keystroke	Key.space	n/a
281.999	0.075	563998	keystroke	a	n/a
282.15	0.06	564300	keystroke	t	n/a
282.269	0.076	564538	keystroke	t	n/a
282.39	0.075	564780	keystroke	e	n/a
282.54	0.0595	565080	keystroke	n	n/a
282.6145	0.105	565229	keystroke	d	n/a
282.7335	0.09	565467	keystroke	Key.space	n/a
283.3195	0.075	566639	keystroke	e	n/a
283.4995	0.09	566999	keystroke	s	n/a
283.7095	0.12	567419	keystroke	c	n/a
284.0395	0.075	568079	keystroke	a	n/a
284.5495	0.105	569099	keystroke	p	n/a
284.6085	0.09	569217	keystroke	e	n/a
284.9395	0.059	569879	keystroke	Key.space	n/a
285.3295	0.12	570659	keystroke	k	n/a
285.3895	0.12	570779	keystroke	n	n/a
285.4945	0.075	570989	keystroke	e	n/a
285.6745	0.09	571349	keystroke	w	n/a
286.0345	0.09	572069	keystroke	Key.enter	n/a
286.131	9.13	572262	prompt	n/a	alleged const easy jurisdiction\n
286.679	0.075	573358	keystroke	a	n/a
287.294	0.075	574588	keystroke	l	n/a
287.414	0.075	574828	keystroke	l	n/a
287.459	0.12	574918	keystroke	e	n/a
287.594	0.075	575188	keystroke	g	n/a
288.824	0.09	577648	keystroke	e	n/a
288.884	0.09	577768	keystroke	d	n/a
289.094	0.09	578188	keystroke	Key.space	n/a
289.304	0.09	578608	keystroke	c	n/a
289.379	0.12	578758	keystroke	o	n/a
289.439	0.12	578878	keystroke	n	n/a
289.544	0.09	579088	keystroke	s	n/a
289.619	0.075	579238	keystroke	t	n/a
289.754	0.09	579508	keystroke	Key.space	n/a
289.889	0.075	579778	keystroke	e	n/a
290.129	0.106	580258	keystroke	a	n/a
290.219	0.12	580438	keystroke	s	n/a
290.369	0.105	580738	keystroke	y	n/a
290.579	0.09	581158	keystroke	Key.space	n/a
291.149	0.105	582298	keystroke	j	n/a
291.329	0.09	582658	keystroke	u	n/a
291.599	0.09	583198	keystroke	r	n/a
291.749	0.09	583498	keystroke	i	n/a
292.244	0.075	584488	keystroke	d	n/a
292.874	0.09	585748	keystroke	i	n/a
293.534	0.075	587068	keystroke	Key.backspace	n/a
293.699	0.06	587398	keystroke	Key.backspace	n/a
293.849	0.075	587698	keystroke	s	n/a
294.134	0.105	588268	keystroke	d	n/a
294.254	0.105	588508	keystroke	i	n/a
294.449	0.075	588898	keystroke	c	n/a
294.629	0.075	589258	keystroke	t	n/a
294.689	0.06	589378	keystroke	i	n/a
294.764	0.12	589528	keystroke	o	n/a
294.839	0.105	589678	keystroke	n	n/a
295.184	0.075	590368	keystroke	Key.enter	n/a
295.2655	5.2015	590531	prompt	n/a	exist empty dinner vienna\n
295.829	0.06	591658	keystroke	e	n/a
295.994	0.105	591988	keystroke	x	n/a
296.144	0.09	592288	keystroke	i	n/a
296.249	0.09	592498	keystroke	s	n/a
296.34	0.059	592680	keystroke	t	n/a
296.474	0.09	592948	keystroke	Key.space	n/a
296.744	0.09	593488	keystroke	e	n/a
296.849	0.105	593698	keystroke	m	n/a
296.999	0.105	593998	keystroke	p	n/a
297.119	0.09	594238	keystroke	t	n/a
297.359	0.06	594718	keystroke	y	n/a
297.449	0.1345	594898	keystroke	Key.space	n/a
297.974	0.1045	595948	keystroke	d	n/a
298.0485	0.105	596097	keystroke	i	n/a
298.1085	0.195	596217	keystroke	n	n/a
298.7835	0.09	597567	keystroke	n	n/a
298.9045	0.075	597809	keystroke	e	n/a
298.9635	0.075	597927	keystroke	r	n/a
299.0685	0.105	598137	keystroke	Key.space	n/a
299.4885	0.075	598977	keystroke	v	n/a
299.5935	0.09	599187	keystroke	i	n/a
299.6985	0.09	599397	keystroke	e	n/a
299.9535	0.06	599907	keystroke	n	n/a
300.0585	0.076	600117	keystroke	n	n/a
300.1785	0.106	600357	keystroke	a	n/a
300.3735	0.09	600747	keystroke	Key.enter	n/a
300.4725	4.2535	600945	prompt	n/a	script be clearing december\n
300.9295	0.089	601859	keystroke	s	n/a
301.0785	0.06	602157	keystroke	c	n/a
301.2435	0.075	602487	keystroke	r	n/a
301.2885	0.165	602577	keystroke	i	n/a
301.3935	0.09	602787	keystroke	p	n/a
301.7685	0.06	603537	keystroke	t	n/a
301.8435	0.075	603687	keystroke	Key.space	n/a
301.9945	0.089	603989	keystroke	b	n/a
302.0685	0.075	604137	keystroke	e	n/a
302.1885	0.09	604377	keystroke	Key.space	n/a
302.3685	0.06	604737	keystroke	c	n/a
302.4735	0.09	604947	keystroke	l	n/a
302.5645	0.045	605129	keystroke	e	n/a
302.6985	0.06	605397	keystroke	a	n/a
302.7735	0.09	605547	keystroke	r	n/a
302.8485	0.105	605697	keystroke	i	n/a
302.9085	0.076	605817	keystroke	n	n/a
303.1045	0.074	606209	keystroke	g	n/a
303.2685	0.09	606537	keystroke	Key.space	n/a
303.6285	0.075	607257	keystroke	d	n/a
303.7345	0.075	607469	keystroke	e	n/a
303.8535	0.09	607707	keystroke	c	n/a
303.9885	0.06	607977	keystroke	e	n/a
304.0935	0.075	608187	keystroke	m	n/a
304.2895	0.074	608579	keystroke	b	n/a
304.3935	0.046	608787	keystroke	e	n/a
304.4245	0.074	608849	keystroke	r	n/a
304.6635	0.06	609327	keystroke	Key.enter	n/a
304.7315	7.5985	609463	prompt	n/a	falls anthropology rochester cancer\n
305.264	0.09	610528	keystroke	f	n/a
305.429	0.089	610858	keystroke	a	n/a
305.488	0.075	610976	keystroke	l	n/a
305.608	0.09	611216	keystroke	l	n/a
305.683	0.09	611366	keystroke	s	n/a
305.833	0.075	611666	keystroke	Key.space	n/a
305.984	0.105	611968	keystroke	a	n/a
306.103	0.09	612206	keystroke	n	n/a
306.343	0.045	612686	keystroke	t	n/a
306.569	0.09	613138	keystroke	h	n/a
306.733	0.09	613466	keystroke	r	n/a
306.899	0.074	613798	keystroke	o	n/a
307.858	0.105	615716	keystroke	p	n/a
307.918	0.09	615836	keystroke	o	n/a
308.054	0.089	616108	keystroke	l	n/a
308.234	0.09	616468	keystroke	o	n/a
308.429	0.089	616858	keystroke	g	n/a
308.578	0.106	617156	keystroke	u	n/a
308.998	0.03	617996	keystroke	Key.backspace	n/a
309.1935	0.074	618387	keystroke	y	n/a
309.5975	0.09	619195	keystroke	Key.space	n/a
309.9575	0.106	619915	keystroke	r	n/a
310.0785	0.075	620157	keystroke	o	n/a
310.1835	0.089	620367	keystroke	c	n/a
310.3035	0.089	620607	keystroke	h	n/a
310.4085	0.105	620817	keystroke	e	n/a
310.6335	0.09	621267	keystroke	s	n/a
310.7535	0.089	621507	keystroke	t	n/a
310.8885	0.074	621777	keystroke	e	n/a
310.9485	0.074	621897	keystroke	r	n/a
311.2325	0.09	622465	keystroke	Key.space	n/a
311.3835	0.105	622767	keystroke	c	n/a
311.5925	0.061	623185	keystroke	a	n/a
311.6675	0.075	623335	keystroke	n	n/a
311.7585	0.06	623517	keystroke	c	n/a
311.8185	0.09	623637	keystroke	e	n/a
311.9375	0.075	623875	keystroke	r	n/a
312.2535	0.075	624507	keystroke	Key.enter	n/a
312.3345	5.335	624669	prompt	n/a	realty bother nuts dating\n
312.973	0.1055	625946	keystroke	r	n/a
313.092	0.076	626184	keystroke	e	n/a
313.303	0.1055	626606	keystroke	a	n/a
313.423	0.06	626846	keystroke	l	n/a
313.738	0.075	627476	keystroke	t	n/a
314.038	0.06	628076	keystroke	y	n/a
314.308	0.09	628616	keystroke	Key.space	n/a
314.9375	0.03	629875	keystroke	b	n/a
315.2225	0.09	630445	keystroke	o	n/a
315.3275	0.075	630655	keystroke	t	n/a
315.4475	0.09	630895	keystroke	h	n/a
315.5075	0.09	631015	keystroke	e	n/a
315.5675	0.09	631135	keystroke	r	n/a
315.8225	0.075	631645	keystroke	Key.space	n/a
316.2125	0.105	632425	keystroke	n	n/a
316.4375	0.0755	632875	keystroke	u	n/a
316.528	0.045	633056	keystroke	t	n/a
316.618	0.06	633236	keystroke	s	n/a
316.723	0.09	633446	keystroke	Key.space	n/a
316.873	0.12	633746	keystroke	d	n/a
317.023	0.09	634046	keystroke	a	n/a
317.1425	0.075	634285	keystroke	t	n/a
317.2485	0.09	634497	keystroke	i	n/a
317.2775	0.1205	634555	keystroke	n	n/a
317.383	0.045	634766	keystroke	g	n/a
317.5775	0.09	635155	keystroke	Key.enter	n/a
317.6775	7.027	635355	prompt	n/a	messenger intensity appreciated worse\n
318.2085	0.089	636417	keystroke	m	n/a
318.4175	0.06	636835	keystroke	e	n/a
318.5835	0.059	637167	keystroke	s	n/a
318.6875	0.091	637375	keystroke	s	n/a
318.8825	0.06	637765	keystroke	e	n/a
319.0025	0.09	638005	keystroke	n	n/a
319.1375	0.06	638275	keystroke	g	n/a
319.2275	0.09	638455	keystroke	e	n/a
319.3025	0.09	638605	keystroke	r	n/a
319.4975	0.075	638995	keystroke	Key.space	n/a
319.9325	0.135	639865	keystroke	i	n/a
320.0375	0.09	640075	keystroke	n	n/a
320.0825	0.09	640165	keystroke	t	n/a
320.2625	0.09	640525	keystroke	e	n/a
320.4125	0.075	640825	keystroke	n	n/a
320.5175	0.09	641035	keystroke	s	n/a
320.6675	0.09	641335	keystroke	i	n/a
320.8025	0.045	641605	keystroke	t	n/a
320.8775	0.09	641755	keystroke	y	n/a
321.0425	0.105	642085	keystroke	Key.space	n/a
321.4175	0.09	642835	keystroke	a	n/a
321.6575	0.09	643315	keystroke	p	n/a
321.7925	0.09	643585	keystroke	p	n/a
321.9125	0.091	643825	keystroke	r	n/a
321.9875	0.091	643975	keystroke	e	n/a
322.1375	0.105	644275	keystroke	c	n/a
322.4075	0.0905	644815	keystroke	i	n/a
322.528	0.135	645056	keystroke	a	n/a
323.068	0.09	646136	keystroke	t	n/a
323.203	0.12	646406	keystroke	e	n/a
323.293	0.09	646586	keystroke	d	n/a
323.443	0.09	646886	keystroke	Key.space	n/a
323.713	0.075	647426	keystroke	w	n/a
323.803	0.075	647606	keystroke	o	n/a
323.893	0.105	647786	keystroke	r	n/a
323.983	0.075	647966	keystroke	s	n/a
324.148	0.075	648296	keystroke	e	n/a
324.642	0.061	649284	keystroke	Key.enter	n/a
324.71	8.349	649420	prompt	n/a	lasting conservative produce students\n
325.243	0.164	650486	keystroke	l	n/a
325.528	0.12	651056	keystroke	a	n/a
325.662	0.135	651324	keystroke	s	n/a
325.917	0.061	651834	keystroke	t	n/a
326.023	0.105	652046	keystroke	i	n/a
326.098	0.09	652196	keystroke	n	n/a
326.188	0.045	652376	keystroke	g	n/a
326.262	0.09	652524	keystroke	Key.space	n/a
326.4875	0.105	652975	keystroke	c	n/a
326.6075	0.09	653215	keystroke	o	n/a
326.8625	0.075	653725	keystroke	n	n/a
326.9825	0.06	653965	keystroke	v	n/a
327.4025	0.075	654805	keystroke	Key.backspace	n/a
327.4625	0.06	654925	keystroke	s	n/a
327.6275	0.0755	655255	keystroke	e	n/a
327.6875	0.09	655375	keystroke	r	n/a
328.3025	0.06	656605	keystroke	v	n/a
328.6925	0.09	657385	keystroke	a	n/a
328.8425	0.06	657685	keystroke	t	n/a
328.9025	0.09	657805	keystroke	i	n/a
329.0375	0.075	658075	keystroke	v	n/a
329.0975	0.09	658195	keystroke	e	n/a
329.2325	0.075	658465	keystroke	Key.space	n/a
329.7275	0.09	659455	keystroke	p	n/a
329.7875	0.09	659575	keystroke	r	n/a
329.9375	0.09	659875	keystroke	o	n/a
330.0875	0.09	660175	keystroke	d	n/a
330.2075	0.09	660415	keystroke	u	n/a
330.2825	0.09	660565	keystroke	c	n/a
330.3575	0.105	660715	keystroke	e	n/a
330.5075	0.09	661015	keystroke	Key.space	n/a
330.9425	0.075	661885	keystroke	s	n/a
331.2425	0.06	662485	keystroke	t	n/a
331.3175	0.09	662635	keystroke	u	n/a
331.5875	0.09	663175	keystroke	d	n/a
331.6925	0.075	663385	keystroke	e	n/a
331.8125	0.075	663625	keystroke	n	n/a
331.9325	0.045	663865	keystroke	t	n/a
332.0225	0.075	664045	keystroke	s	n/a
332.9675	0.09	665935	keystroke	Key.enter	n/a
333.0635	6.6255	666127	prompt	n/a	hobbies defined developed audio\n
334.0325	0.09	668065	keystroke	h	n/a
334.1375	0.09	668275	keystroke	o	n/a
334.2725	0.075	668545	keystroke	b	n/a
334.4225	0.06	668845	keystroke	b	n/a
334.4975	0.075	668995	keystroke	i	n/a
334.6475	0.06	669295	keystroke	e	n/a
334.8125	0.09	669625	keystroke	s	n/a
334.9475	0.075	669895	keystroke	Key.space	n/a
335.2775	0.105	670555	keystroke	d	n/a
335.3675	0.09	670735	keystroke	e	n/a
335.5775	0.075	671155	keystroke	f	n/a
335.7875	0.105	671575	keystroke	i	n/a
335.8475	0.09	671695	keystroke	n	n/a
336.0425	0.075	672085	keystroke	e	n/a
336.1475	0.12	672295	keystroke	d	n/a
336.3875	0.09	672775	keystroke	Key.space	n/a
336.7925	0.09	673585	keystroke	d	n/a
336.8975	0.075	673795	keystroke	e	n/a
337.1225	0.105	674245	keystroke	v	n/a
337.3175	0.075	674635	keystroke	e	n/a
337.4225	0.09	674845	keystroke	l	n/a
337.6325	0.12	675265	keystroke	o	n/a
337.7225	0.105	675445	keystroke	p	n/a
337.9625	0.075	675925	keystroke	e	n/a
338.0075	0.09	676015	keystroke	d	n/a
338.1575	0.075	676315	keystroke	Key.space	n/a
338.4275	0.03	676855	keystroke	a	n/a
338.4875	0.09	676975	keystroke	u	n/a
338.6675	0.09	677335	keystroke	d	n/a
338.7875	0.105	677575	keystroke	i	n/a
338.8475	0.09	677695	keystroke	o	n/a
339.582	0.105	679164	keystroke	Key.enter	n/a
339.6925	6.7615	679385	prompt	n/a	outside stand explained poem\n
340.422	0.12	680844	keystroke	o	n/a
340.4825	0.0745	680965	keystroke	u	n/a
340.572	0.06	681144	keystroke	t	n/a
340.737	0.09	681474	keystroke	s	n/a
340.842	0.075	681684	keystroke	i	n/a
340.932	0.09	681864	keystroke	d	n/a
340.977	0.06	681954	keystroke	e	n/a
341.112	0.09	682224	keystroke	Key.space	n/a
341.337	0.075	682674	keystroke	s	n/a
341.442	0.06	682884	keystroke	t	n/a
341.592	0.075	683184	keystroke	a	n/a
341.682	0.09	683364	keystroke	n	n/a
341.787	0.075	683574	keystroke	d	n/a
341.877	0.105	683754	keystroke	Key.space	n/a
342.522	0.075	685044	keystroke	e	n/a
342.732	0.045	685464	keystroke	x	n/a
342.792	0.09	685584	keystroke	p	n/a
342.807	0.105	685614	keystroke	l	n/a
342.942	0.09	685884	keystroke	a	n/a
343.047	0.105	686094	keystroke	i	n/a
343.107	0.09	686214	keystroke	n	n/a
344.007	0.12	688014	keystroke	e	n/a
344.067	0.12	688134	keystroke	d	n/a
344.232	0.06	688464	keystroke	Key.space	n/a
344.787	0.12	689574	keystroke	p	n/a
344.862	0.105	689724	keystroke	o	n/a
345.012	0.075	690024	keystroke	e	n/a
345.252	0.105	690504	keystroke	m	n/a
346.3625	0.0895	692725	keystroke	Key.enter	n/a
346.4595	7.419	692919	prompt	n/a	bradford checked claire posters\n
347.307	0.06	694614	keystroke	b	n/a
347.487	0.09	694974	keystroke	r	n/a
347.712	0.091	695424	keystroke	a	n/a
347.877	0.091	695754	keystroke	d	n/a
348.672	0.06	697344	keystroke	f	n/a
349.047	0.075	698094	keystroke	o	n/a
349.137	0.075	698274	keystroke	r	n/a
349.317	0.09	698634	keystroke	d	n/a
349.452	0.09	698904	keystroke	Key.space	n/a
349.902	0.075	699804	keystroke	c	n/a
350.022	0.09	700044	keystroke	h	n/a
350.127	0.09	700254	keystroke	e	n/a
350.187	0.105	700374	keystroke	c	n/a
350.322	0.105	700644	keystroke	k	n/a
350.772	0.075	701544	keystroke	e	n/a
350.802	0.105	701604	keystroke	d	n/a
350.922	0.09	701844	keystroke	Key.space	n/a
351.192	0.075	702384	keystroke	c	n/a
351.417	0.09	702834	keystroke	l	n/a
351.597	0.105	703194	keystroke	a	n/a
351.792	0.075	703584	keystroke	i	n/a
351.912	0.075	703824	keystroke	r	n/a
352.347	0.06	704694	keystroke	e	n/a
352.452	0.09	704904	keystroke	Key.space	n/a
352.722	0.135	705444	keystroke	p	n/a
352.812	0.105	705624	keystroke	o	n/a
352.902	0.045	705804	keystroke	s	n/a
353.097	0.09	706194	keystroke	t	n/a
353.262	0.135	706524	keystroke	e	n/a
353.352	0.06	706704	keystroke	r	n/a
353.472	0.06	706944	keystroke	s	n/a
353.802	0.075	707604	keystroke	Key.enter	n/a
353.8825	7.632	707765	prompt	n/a	kentucky plug revenue undertaken\n
354.5225	0.09	709045	keystroke	k	n/a
354.6425	0.075	709285	keystroke	e	n/a
354.7325	0.09	709465	keystroke	n	n/a
354.9425	0.06	709885	keystroke	t	n/a
355.0475	0.075	710095	keystroke	u	n/a
355.1375	0.09	710275	keystroke	c	n/a
355.242	0.09	710484	keystroke	k	n/a
355.377	0.0605	710754	keystroke	y	n/a
355.512	0.09	711024	keystroke	Key.space	n/a
355.917	0.12	711834	keystroke	p	n/a
355.962	0.105	711924	keystroke	l	n/a
356.172	0.075	712344	keystroke	u	n/a
356.232	0.075	712464	keystroke	g	n/a
356.4865	0.075	712973	keystroke	Key.space	n/a
356.8775	0.09	713755	keystroke	r	n/a
356.9975	0.0745	713995	keystroke	e	n/a
357.222	0.09	714444	keystroke	v	n/a
357.297	0.09	714594	keystroke	e	n/a
357.447	0.09	714894	keystroke	n	n/a
357.687	0.074	715374	keystroke	u	n/a
357.807	0.06	715614	keystroke	e	n/a
358.001	0.09	716002	keystroke	Key.space	n/a
359.022	0.09	718044	keystroke	u	n/a
359.247	0.075	718494	keystroke	n	n/a
359.292	0.105	718584	keystroke	d	n/a
359.412	0.135	718824	keystroke	e	n/a
359.502	0.09	719004	keystroke	r	n/a
359.982	0.06	719964	keystroke	t	n/a
360.132	0.104	720264	keystroke	a	n/a
360.612	0.105	721224	keystroke	k	n/a
360.702	0.075	721404	keystroke	e	n/a
360.897	0.075	721794	keystroke	n	n/a
361.437	0.075	722874	keystroke	Key.enter	n/a
361.5195	8.0635	723039	prompt	n/a	newark atlanta meanwhile tire\n
362.247	0.09	724494	keystroke	n	n/a
362.352	0.075	724704	keystroke	e	n/a
363.027	0.075	726054	keystroke	w	n/a
363.702	0.075	727404	keystroke	a	n/a
363.957	0.075	727914	keystroke	r	n/a
364.062	0.09	728124	keystroke	k	n/a
364.226	0.105	728452	keystroke	Key.space	n/a
364.662	0.06	729324	keystroke	a	n/a
364.887	0.105	729774	keystroke	l	n/a
365.186	0.106	730372	keystroke	Key.backspace	n/a
365.322	0.075	730644	keystroke	t	n/a
365.457	0.09	730914	keystroke	l	n/a
365.682	0.09	731364	keystroke	a	n/a
365.772	0.09	731544	keystroke	n	n/a
366.012	0.06	732024	keystroke	t	n/a
366.132	0.09	732264	keystroke	a	n/a
366.282	0.104	732564	keystroke	Key.space	n/a
366.732	0.06	733464	keystroke	n	n/a
366.942	0.09	733884	keystroke	Key.backspace	n/a
367.062	0.12	734124	keystroke	m	n/a
367.197	0.045	734394	keystroke	e	n/a
367.347	0.075	734694	keystroke	a	n/a
367.407	0.105	734814	keystroke	n	n/a
367.782	0.09	735564	keystroke	w	n/a
368.007	0.075	736014	keystroke	h	n/a
368.202	0.12	736404	keystroke	i	n/a
368.277	0.1045	736554	keystroke	l	n/a
368.367	0.0895	736734	keystroke	e	n/a
368.5315	0.0755	737063	keystroke	Key.space	n/a
368.9665	0.075	737933	keystroke	t	n/a
369.072	0.075	738144	keystroke	i	n/a
369.147	0.075	738294	keystroke	r	n/a
369.267	0.09	738534	keystroke	e	n/a
369.507	0.075	739014	keystroke	Key.enter	n/a
369.587	8.0965	739174	prompt	n/a	initially hourly purpose entities\n
370.2415	0.105	740483	keystroke	i	n/a
370.3015	0.09	740603	keystroke	n	n/a
370.4065	0.06	740813	keystroke	t	n/a
370.5715	0.09	741143	keystroke	i	n/a
370.9015	0.045	741803	keystroke	Key.backspace	n/a
371.0365	0.0755	742073	keystroke	Key.backspace	n/a
371.097	0.09	742194	keystroke	i	n/a
371.2015	0.0755	742403	keystroke	t	n/a
371.2915	0.06	742583	keystroke	i	n/a
371.5015	0.1055	743003	keystroke	a	n/a
371.622	0.03	743244	keystroke	l	n/a
371.727	0.0745	743454	keystroke	l	n/a
371.9215	0.06	743843	keystroke	y	n/a
372.0715	0.09	744143	keystroke	Key.space	n/a
372.4015	0.09	744803	keystroke	h	n/a
372.5365	0.105	745073	keystroke	o	n/a
372.6115	0.06	745223	keystroke	u	n/a
372.6565	0.075	745313	keystroke	r	n/a
372.7615	0.09	745523	keystroke	l	n/a
372.9565	0.075	745913	keystroke	y	n/a
373.0765	0.075	746153	keystroke	Key.space	n/a
373.3915	0.09	746783	keystroke	p	n/a
373.5265	0.09	747053	keystroke	u	n/a
373.6465	0.09	747293	keystroke	r	n/a
373.7515	0.135	747503	keystroke	p	n/a
373.8415	0.12	747683	keystroke	o	n/a
374.0815	0.06	748163	keystroke	s	n/a
374.2165	0.075	748433	keystroke	e	n/a
374.3365	0.09	748673	keystroke	Key.space	n/a
374.5315	0.075	749063	keystroke	e	n/a
374.5915	0.075	749183	keystroke	n	n/a
374.7415	0.075	749483	keystroke	t	n/a
374.8915	0.075	749783	keystroke	i	n/a
375.0415	0.09	750083	keystroke	t	n/a
375.1465	0.06	750293	keystroke	i	n/a
375.4765	0.09	750953	keystroke	i	n/a
375.6115	0.09	751223	keystroke	e	n/a
375.8065	0.09	751613	keystroke	s	n/a
376.2865	0.06	752573	keystroke	Key.backspace	n/a
376.407	0.074	752814	keystroke	Key.backspace	n/a
376.737	0.075	753474	keystroke	e	n/a
376.947	0.045	753894	keystroke	Key.backspace	n/a
377.067	0.06	754134	keystroke	Key.backspace	n/a
377.172	0.075	754344	keystroke	e	n/a
377.322	0.075	754644	keystroke	s	n/a
377.607	0.074	755214	keystroke	Key.enter	n/a
377.6875	6.956	755375	prompt	n/a	talented configurations vice preventing\n
378.402	0.075	756804	keystroke	t	n/a
378.537	0.105	757074	keystroke	a	n/a
378.657	0.074	757314	keystroke	l	n/a
378.792	0.075	757584	keystroke	e	n/a
378.942	0.09	757884	keystroke	n	n/a
379.032	0.06	758064	keystroke	t	n/a
379.136	0.136	758272	keystroke	e	n/a
379.242	0.089	758484	keystroke	d	n/a
379.346	0.075	758692	keystroke	Key.space	n/a
379.842	0.105	759684	keystroke	c	n/a
379.887	0.119	759774	keystroke	o	n/a
379.962	0.09	759924	keystroke	n	n/a
380.066	0.076	760132	keystroke	f	n/a
380.187	0.089	760374	keystroke	i	n/a
380.6365	0.06	761273	keystroke	g	n/a
380.7715	0.12	761543	keystroke	u	n/a
380.9515	0.09	761903	keystroke	r	n/a
381.2215	0.075	762443	keystroke	a	n/a
381.3715	0.06	762743	keystroke	t	n/a
381.4015	0.09	762803	keystroke	i	n/a
381.5065	0.105	763013	keystroke	o	n/a
381.5665	0.105	763133	keystroke	n	n/a
381.6565	0.075	763313	keystroke	s	n/a
381.7615	0.09	763523	keystroke	Key.space	n/a
382.1515	0.075	764303	keystroke	v	n/a
382.2725	0.104	764545	keystroke	i	n/a
382.3775	0.1335	764755	keystroke	c	n/a
382.467	0.105	764934	keystroke	e	n/a
382.616	0.09	765232	keystroke	Key.space	n/a
383.111	0.09	766222	keystroke	p	n/a
383.352	0.135	766704	keystroke	r	n/a
383.472	0.09	766944	keystroke	e	n/a
383.606	0.091	767212	keystroke	v	n/a
383.712	0.09	767424	keystroke	e	n/a
383.847	0.105	767694	keystroke	n	n/a
384.042	0.075	768084	keystroke	t	n/a
384.131	0.091	768262	keystroke	i	n/a
384.177	0.09	768354	keystroke	n	n/a
384.267	0.06	768534	keystroke	g	n/a
384.5515	0.09	769103	keystroke	Key.enter	n/a
384.6485	5.2905	769297	prompt	n/a	ellis casino arrive prague\n
385.1965	0.075	770393	keystroke	e	n/a
385.2565	0.09	770513	keystroke	l	n/a
385.4065	0.135	770813	keystroke	l	n/a
385.5265	0.105	771053	keystroke	i	n/a
385.6165	0.075	771233	keystroke	s	n/a
385.7815	0.06	771563	keystroke	Key.space	n/a
386.0515	0.06	772103	keystroke	c	n/a
386.2465	0.075	772493	keystroke	a	n/a
386.2765	0.105	772553	keystroke	s	n/a
386.6355	0.09	773271	keystroke	i	n/a
386.7105	0.061	773421	keystroke	n	n/a
386.8165	0.12	773633	keystroke	o	n/a
386.9665	0.104	773933	keystroke	Key.space	n/a
387.1315	0.09	774263	keystroke	a	n/a
387.2665	0.06	774533	keystroke	r	n/a
387.4015	0.06	774803	keystroke	r	n/a
387.5055	0.106	775011	keystroke	i	n/a
387.5815	0.09	775163	keystroke	v	n/a
387.7015	0.075	775403	keystroke	e	n/a
387.8205	0.105	775641	keystroke	Key.space	n/a
388.2265	0.075	776453	keystroke	r	n/a
388.5415	0.015	777083	keystroke	Key.backspace	n/a
388.6605	0.091	777321	keystroke	p	n/a
388.7665	0.075	777533	keystroke	r	n/a
388.8865	0.089	777773	keystroke	a	n/a
389.1115	0.075	778223	keystroke	g	n/a
389.3815	0.09	778763	keystroke	u	n/a
389.5015	0.075	779003	keystroke	e	n/a
389.8465	0.089	779693	keystroke	Key.enter	n/a
389.946	12.2025	779892	prompt	n/a	entitled cathedral bench macintosh\n
390.5815	0.105	781163	keystroke	c	n/a
390.8665	0.09	781733	keystroke	n	n/a
391.0765	0.075	782153	keystroke	t	n/a
391.2115	0.09	782423	keystroke	i	n/a
392.8465	0.075	785693	keystroke	Key.backspace	n/a
392.9815	0.074	785963	keystroke	Key.backspace	n/a
393.1305	0.075	786261	keystroke	Key.backspace	n/a
393.2665	0.075	786533	keystroke	Key.backspace	n/a
393.7165	0.075	787433	keystroke	e	n/a
393.9265	0.09	787853	keystroke	n	n/a
394.0765	0.075	788153	keystroke	t	n/a
394.1965	0.075	788393	keystroke	i	n/a
394.3465	0.075	788693	keystroke	t	n/a
395.2165	0.09	790433	keystroke	l	n/a
395.3365	0.12	790673	keystroke	e	n/a
395.4415	0.12	790883	keystroke	d	n/a
395.5915	0.12	791183	keystroke	Key.space	n/a
396.1915	0.09	792383	keystroke	c	n/a
396.3415	0.075	792683	keystroke	a	n/a
396.4465	0.075	792893	keystroke	t	n/a
396.5365	0.09	793073	keystroke	h	n/a
397.2265	0.09	794453	keystroke	e	n/a
397.2865	0.09	794573	keystroke	d	n/a
397.4665	0.12	794933	keystroke	r	n/a
397.7815	0.09	795563	keystroke	a	n/a
398.0665	0.075	796133	keystroke	l	n/a
398.5765	0.09	797153	keystroke	Key.space	n/a
398.9065	0.075	797813	keystroke	b	n/a
399.0865	0.105	798173	keystroke	e	n/a
399.2065	0.09	798413	keystroke	n	n/a
399.4315	0.105	798863	keystroke	c	n/a
399.5515	0.09	799103	keystroke	h	n/a
399.7765	0.09	799553	keystroke	Key.space	n/a
400.1815	0.105	800363	keystroke	m	n/a
400.2415	0.105	800483	keystroke	a	n/a
400.4065	0.09	800813	keystroke	c	n/a
400.5115	0.09	801023	keystroke	i	n/a
400.5715	0.09	801143	keystroke	n	n/a
401.2915	0.075	802583	keystroke	t	n/a
401.4115	0.075	802823	keystroke	o	n/a
401.4865	0.09	802973	keystroke	s	n/a
401.6065	0.09	803213	keystroke	h	n/a
402.071	0.075	804142	keystroke	Key.enter	n/a
402.153	10.0155	804306	prompt	n/a	brother reproduced innovation innovative\n
402.821	0.075	805642	keystroke	b	n/a
402.956	0.09	805912	keystroke	o	n/a
403.001	0.09	806002	keystroke	r	n/a
403.361	0.06	806722	keystroke	Key.backspace	n/a
403.466	0.075	806932	keystroke	Key.backspace	n/a
403.556	0.075	807112	keystroke	r	n/a
403.661	0.105	807322	keystroke	o	n/a
403.781	0.0605	807562	keystroke	t	n/a
403.886	0.075	807772	keystroke	h	n/a
404.051	0.12	808102	keystroke	e	n/a
404.156	0.06	808312	keystroke	r	n/a
404.306	0.09	808612	keystroke	Key.space	n/a
404.726	0.09	809452	keystroke	p	n/a
404.876	0.09	809752	keystroke	r	n/a
404.936	0.06	809872	keystroke	e	n/a
405.386	0.06	810772	keystroke	Key.backspace	n/a
405.641	0.06	811282	keystroke	Key.backspace	n/a
405.851	0.045	811702	keystroke	Key.backspace	n/a
405.986	0.09	811972	keystroke	r	n/a
406.046	0.09	812092	keystroke	e	n/a
406.301	0.0905	812602	keystroke	p	n/a
406.6465	0.045	813293	keystroke	r	n/a
406.7965	0.104	813593	keystroke	o	n/a
406.9465	0.104	813893	keystroke	d	n/a
407.0655	0.09	814131	keystroke	u	n/a
407.2005	0.091	814401	keystroke	c	n/a
407.3815	0.089	814763	keystroke	e	n/a
407.4415	0.089	814883	keystroke	d	n/a
407.5755	0.09	815151	keystroke	Key.space	n/a
408.1765	0.09	816353	keystroke	i	n/a
408.2215	0.06	816443	keystroke	n	n/a
408.3415	0.075	816683	keystroke	n	n/a
408.596	0.09	817192	keystroke	o	n/a
408.866	0.09	817732	keystroke	v	n/a
409.076	0.06	818152	keystroke	a	n/a
409.181	0.075	818362	keystroke	t	n/a
409.241	0.075	818482	keystroke	i	n/a
409.361	0.105	818722	keystroke	o	n/a
409.391	0.12	818782	keystroke	n	n/a
409.586	0.12	819172	keystroke	Key.space	n/a
410.096	0.105	820192	keystroke	i	n/a
410.231	0.091	820462	keystroke	n	n/a
410.396	0.09	820792	keystroke	n	n/a
410.6215	0.075	821243	keystroke	o	n/a
410.9365	0.075	821873	keystroke	v	n/a
411.1015	0.075	822203	keystroke	a	n/a
411.1915	0.09	822383	keystroke	t	n/a
411.2665	0.089	822533	keystroke	i	n/a
411.3865	0.09	822773	keystroke	v	n/a
411.4615	0.105	822923	keystroke	e	n/a
412.0615	0.105	824123	keystroke	Key.enter	n/a
412.173	7.6745	824346	prompt	n/a	beaver started getting johnny\n
412.886	0.105	825772	keystroke	b	n/a
412.946	0.075	825892	keystroke	e	n/a
413.186	0.09	826372	keystroke	a	n/a
413.411	0.06	826822	keystroke	v	n/a
413.516	0.12	827032	keystroke	e	n/a
413.591	0.09	827182	keystroke	r	n/a
413.741	0.09	827482	keystroke	Key.space	n/a
414.626	0.09	829252	keystroke	s	n/a
414.746	0.075	829492	keystroke	t	n/a
414.926	0.12	829852	keystroke	a	n/a
415.031	0.12	830062	keystroke	r	n/a
415.271	0.075	830542	keystroke	t	n/a
416.156	0.09	832312	keystroke	e	n/a
416.231	0.09	832462	keystroke	d	n/a
416.336	0.105	832672	keystroke	Key.space	n/a
416.8155	0.075	833631	keystroke	g	n/a
416.9205	0.09	833841	keystroke	e	n/a
416.9955	0.076	833991	keystroke	t	n/a
417.1455	0.03	834291	keystroke	t	n/a
417.2205	0.09	834441	keystroke	i	n/a
417.2665	0.074	834533	keystroke	n	n/a
417.3855	0.045	834771	keystroke	g	n/a
417.4455	0.09	834891	keystroke	Key.space	n/a
417.7455	0.105	835491	keystroke	j	n/a
417.8515	0.104	835703	keystroke	o	n/a
418.6755	0.075	837351	keystroke	h	n/a
419.0505	0.06	838101	keystroke	n	n/a
419.1705	0.09	838341	keystroke	n	n/a
419.3055	0.075	838611	keystroke	y	n/a
419.7555	0.09	839511	keystroke	Key.enter	n/a
419.8525	8.4565	839705	prompt	n/a	groove gotta elsewhere headphones\n
420.5965	0.06	841193	keystroke	g	n/a
420.7615	0.074	841523	keystroke	r	n/a
420.8505	0.15	841701	keystroke	o	n/a
421.2705	0.075	842541	keystroke	o	n/a
421.3755	0.09	842751	keystroke	v	n/a
421.5555	0.09	843111	keystroke	e	n/a
421.6605	0.09	843321	keystroke	Key.space	n/a
421.9455	0.06	843891	keystroke	g	n/a
422.0365	0.074	844073	keystroke	o	n/a
422.3665	0.089	844733	keystroke	o	n/a
422.4705	0.075	844941	keystroke	t	n/a
422.6205	0.105	845241	keystroke	a	n/a
423.0705	0.075	846141	keystroke	Key.backspace	n/a
423.2205	0.105	846441	keystroke	Key.backspace	n/a
423.4455	0.075	846891	keystroke	Key.backspace	n/a
423.5805	0.075	847161	keystroke	t	n/a
423.7305	0.061	847461	keystroke	a	n/a
424.0905	0.075	848181	keystroke	Key.backspace	n/a
424.1675	0.058	848335	keystroke	t	n/a
424.4655	0.09	848931	keystroke	a	n/a
424.5855	0.105	849171	keystroke	Key.space	n/a
424.8855	0.09	849771	keystroke	e	n/a
424.9905	0.06	849981	keystroke	l	n/a
425.1855	0.09	850371	keystroke	s	n/a
425.3655	0.075	850731	keystroke	e	n/a
425.6805	0.045	851361	keystroke	w	n/a
425.7705	0.09	851541	keystroke	h	n/a
425.8755	0.075	851751	keystroke	e	n/a
425.9655	0.075	851931	keystroke	r	n/a
426.0415	0.06	852083	keystroke	e	n/a
426.1755	0.105	852351	keystroke	Key.space	n/a
426.6105	0.09	853221	keystroke	h	n/a
426.7155	0.076	853431	keystroke	e	n/a
426.8805	0.06	853761	keystroke	a	n/a
426.9555	0.075	853911	keystroke	d	n/a
427.2255	0.105	854451	keystroke	p	n/a
427.3905	0.105	854781	keystroke	h	n/a
427.5115	0.119	855023	keystroke	o	n/a
427.5855	0.075	855171	keystroke	n	n/a
427.6765	0.06	855353	keystroke	e	n/a
427.8565	0.074	855713	keystroke	s	n/a
428.2155	0.09	856431	keystroke	Key.enter	n/a
428.314	10.5535	856628	prompt	n/a	closest jefferson resistance basename\n
428.9065	0.105	857813	keystroke	c	n/a
429.0265	0.06	858053	keystroke	l	n/a
429.1765	0.09	858353	keystroke	o	n/a
429.3265	0.089	858653	keystroke	s	n/a
429.5815	0.074	859163	keystroke	e	n/a
429.7915	0.074	859583	keystroke	s	n/a
429.8955	0.075	859791	keystroke	t	n/a
430.0755	0.09	860151	keystroke	Key.space	n/a
430.4515	0.074	860903	keystroke	g	n/a
430.8705	0.075	861741	keystroke	Key.backspace	n/a
431.2165	0.12	862433	keystroke	j	n/a
431.3665	0.09	862733	keystroke	e	n/a
431.5165	0.074	863033	keystroke	r	n/a
431.8605	0.105	863721	keystroke	Key.backspace	n/a
431.9505	0.046	863901	keystroke	f	n/a
432.0555	0.076	864111	keystroke	f	n/a
432.1905	0.091	864381	keystroke	e	n/a
432.2515	0.09	864503	keystroke	r	n/a
432.8815	0.09	865763	keystroke	s	n/a
432.9565	0.12	865913	keystroke	o	n/a
433.0315	0.089	866063	keystroke	n	n/a
433.1805	0.12	866361	keystroke	Key.space	n/a
433.5255	0.12	867051	keystroke	r	n/a
433.6305	0.106	867261	keystroke	e	n/a
433.8565	0.075	867713	keystroke	s	n/a
433.9915	0.059	867983	keystroke	i	n/a
434.0805	0.105	868161	keystroke	s	n/a
434.3055	0.091	868611	keystroke	t	n/a
434.6515	0.09	869303	keystroke	a	n/a
434.7865	0.105	869573	keystroke	n	n/a
434.8765	0.074	869753	keystroke	c	n/a
434.9365	0.075	869873	keystroke	e	n/a
435.0705	0.06	870141	keystroke	Key.space	n/a
435.3415	0.074	870683	keystroke	b	n/a
435.4015	0.12	870803	keystroke	a	n/a
435.4615	0.105	870923	keystroke	s	n/a
435.6715	0.06	871343	keystroke	e	n/a
435.8515	0.12	871703	keystroke	m	n/a
436.1505	0.0905	872301	keystroke	a	n/a
436.271	0.09	872542	keystroke	n	n/a
436.631	0.045	873262	keystroke	e	n/a
437.516	0.075	875032	keystroke	Key.backspace	n/a
437.666	0.075	875332	keystroke	Key.backspace	n/a
437.846	0.074	875692	keystroke	Key.backspace	n/a
438.025	0.031	876050	keystroke	Key.backspace	n/a
438.281	0.105	876562	keystroke	n	n/a
438.401	0.09	876802	keystroke	a	n/a
438.506	0.09	877012	keystroke	m	n/a
438.611	0.075	877222	keystroke	e	n/a
438.791	0.075	877582	keystroke	Key.enter	n/a
438.872	6.5365	877744	prompt	n/a	hart hughes evolution inbox\n
439.496	0.09	878992	keystroke	h	n/a
439.631	0.09	879262	keystroke	a	n/a
439.751	0.09	879502	keystroke	r	n/a
439.946	0.045	879892	keystroke	t	n/a
440.081	0.074	880162	keystroke	Key.space	n/a
440.336	0.09	880672	keystroke	h	n/a
440.486	0.09	880972	keystroke	u	n/a
440.936	0.105	881872	keystroke	g	n/a
441.086	0.09	882172	keystroke	h	n/a
441.326	0.105	882652	keystroke	e	n/a
441.551	0.09	883102	keystroke	s	n/a
441.655	0.09	883310	keystroke	Key.space	n/a
441.941	0.06	883882	keystroke	e	n/a
442.211	0.075	884422	keystroke	v	n/a
442.331	0.09	884662	keystroke	o	n/a
442.841	0.0745	885682	keystroke	l	n/a
442.96	0.0755	885920	keystroke	u	n/a
443.08	0.09	886160	keystroke	t	n/a
443.155	0.0905	886310	keystroke	i	n/a
443.26	0.135	886520	keystroke	o	n/a
443.335	0.1065	886670	keystroke	n	n/a
443.6955	0.075	887391	keystroke	Key.space	n/a
443.875	0.1205	887750	keystroke	i	n/a
443.9805	0.105	887961	keystroke	n	n/a
444.2205	0.105	888441	keystroke	v	n/a
444.6105	0.075	889221	keystroke	Key.backspace	n/a
444.7905	0.09	889581	keystroke	b	n/a
444.8955	0.06	889791	keystroke	o	n/a
445.0005	0.075	890001	keystroke	x	n/a
445.3305	0.075	890661	keystroke	Key.enter	n/a
445.413	7.1345	890826	prompt	n/a	pokemon enjoy enhance salem\n
446.066	0.075	892132	keystroke	p	n/a
446.411	0.06	892822	keystroke	o	n/a
446.651	0.105	893302	keystroke	k	n/a
446.786	0.075	893572	keystroke	e	n/a
446.906	0.105	893812	keystroke	m	n/a
447.071	0.105	894142	keystroke	o	n/a
447.116	0.105	894232	keystroke	n	n/a
447.311	0.105	894622	keystroke	Key.space	n/a
447.551	0.09	895102	keystroke	e	n/a
447.626	0.06	895252	keystroke	n	n/a
447.791	0.12	895582	keystroke	j	n/a
447.866	0.09	895732	keystroke	o	n/a
447.986	0.03	895972	keystroke	y	n/a
448.121	0.09	896242	keystroke	Key.space	n/a
448.691	0.075	897382	keystroke	e	n/a
448.781	0.075	897562	keystroke	h	n/a
449.036	0.075	898072	keystroke	Key.backspace	n/a
449.171	0.105	898342	keystroke	n	n/a
449.336	0.075	898672	keystroke	c	n/a
449.666	0.06	899332	keystroke	Key.backspace	n/a
449.786	0.1045	899572	keystroke	h	n/a
449.921	0.1045	899842	keystroke	a	n/a
450.056	0.09	900112	keystroke	n	n/a
450.131	0.09	900262	keystroke	c	n/a
450.191	0.09	900382	keystroke	e	n/a
450.326	0.09	900652	keystroke	Key.space	n/a
450.821	0.06	901642	keystroke	s	n/a
451.0005	0.09	902001	keystroke	a	n/a
451.016	0.09	902032	keystroke	l	n/a
451.7355	0.0455	903471	keystroke	a	n/a
451.9605	0.075	903921	keystroke	Key.backspace	n/a
452.051	0.0745	904102	keystroke	e	n/a
452.1405	0.0905	904281	keystroke	m	n/a
452.4555	0.09	904911	keystroke	Key.enter	n/a
452.552	7.286	905104	prompt	n/a	nato ireland lips vacancies\n
453.341	0.12	906682	keystroke	n	n/a
453.476	0.0895	906952	keystroke	a	n/a
453.626	0.09	907252	keystroke	t	n/a
453.746	0.105	907492	keystroke	o	n/a
453.896	0.1495	907792	keystroke	Key.space	n/a
454.196	0.09	908392	keystroke	i	n/a
454.346	0.12	908692	keystroke	r	n/a
454.511	0.0895	909022	keystroke	e	n/a
454.961	0.09	909922	keystroke	l	n/a
455.066	0.105	910132	keystroke	a	n/a
455.186	0.09	910372	keystroke	n	n/a
455.306	0.105	910612	keystroke	d	n/a
455.501	0.075	911002	keystroke	Key.space	n/a
455.876	0.09	911752	keystroke	l	n/a
455.996	0.135	911992	keystroke	i	n/a
456.116	0.0895	912232	keystroke	p	n/a
456.251	0.1045	912502	keystroke	s	n/a
456.4605	0.0905	912921	keystroke	Key.space	n/a
456.7455	0.105	913491	keystroke	v	n/a
456.9555	0.06	913911	keystroke	q	n/a
457.1205	0.09	914241	keystroke	c	n/a
457.5405	0.06	915081	keystroke	Key.backspace	n/a
457.6755	0.075	915351	keystroke	Key.backspace	n/a
457.7805	0.105	915561	keystroke	a	n/a
457.9605	0.075	915921	keystroke	c	n/a
458.3205	0.09	916641	keystroke	a	n/a
458.4255	0.12	916851	keystroke	n	n/a
458.5305	0.09	917061	keystroke	i	n/a
459.0105	0.075	918021	keystroke	Key.backspace	n/a
459.0865	0.074	918173	keystroke	c	n/a
459.2055	0.09	918411	keystroke	i	n/a
459.2805	0.06	918561	keystroke	e	n/a
459.4305	0.09	918861	keystroke	s	n/a
459.7605	0.075	919521	keystroke	Key.enter	n/a
459.844	8.0935	919688	prompt	n/a	virus licensing proportion objectives\n
460.7055	0.09	921411	keystroke	v	n/a
460.8105	0.09	921621	keystroke	i	n/a
460.9015	0.074	921803	keystroke	r	n/a
461.0055	0.075	922011	keystroke	u	n/a
461.0805	0.105	922161	keystroke	s	n/a
461.2305	0.105	922461	keystroke	Key.space	n/a
461.7105	0.09	923421	keystroke	l	n/a
461.7555	0.105	923511	keystroke	i	n/a
461.9505	0.09	923901	keystroke	n	n/a
462.1155	0.12	924231	keystroke	c	n/a
462.4905	0.045	924981	keystroke	Key.backspace	n/a
462.5955	0.09	925191	keystroke	Key.backspace	n/a
462.6555	0.105	925311	keystroke	c	n/a
462.7455	0.105	925491	keystroke	e	n/a
463.0005	0.075	926001	keystroke	n	n/a
463.4805	0.075	926961	keystroke	s	n/a
463.5705	0.12	927141	keystroke	i	n/a
463.6755	0.09	927351	keystroke	n	n/a
464.2755	0.09	928551	keystroke	g	n/a
464.4405	0.105	928881	keystroke	Key.space	n/a
464.7555	0.09	929511	keystroke	p	n/a
464.8605	0.09	929721	keystroke	r	n/a
464.9655	0.105	929931	keystroke	o	n/a
465.0555	0.105	930111	keystroke	p	n/a
465.3405	0.12	930681	keystroke	o	n/a
465.4755	0.06	930951	keystroke	r	n/a
465.6105	0.06	931221	keystroke	t	n/a
465.6855	0.105	931371	keystroke	i	n/a
465.8205	0.15	931641	keystroke	o	n/a
465.8955	0.12	931791	keystroke	n	n/a
466.1655	0.12	932331	keystroke	Key.space	n/a
466.541	0.12	933082	keystroke	o	n/a
466.706	0.12	933412	keystroke	b	n/a
466.93	0.12	933860	keystroke	j	n/a
467.02	0.09	934040	keystroke	e	n/a
467.095	0.075	934190	keystroke	c	n/a
467.26	0.09	934520	keystroke	t	n/a
467.335	0.105	934670	keystroke	i	n/a
467.455	0.09	934910	keystroke	v	n/a
467.56	0.09	935120	keystroke	e	n/a
467.726	0.075	935452	keystroke	s	n/a
467.845	0.09	935690	keystroke	Key.enter	n/a
467.9415	10.1805	935883	prompt	n/a	planner webcams academics lock\n
468.5955	0.15	937191	keystroke	p	n/a
468.6855	0.105	937371	keystroke	l	n/a
468.8055	0.075	937611	keystroke	a	n/a
468.9105	0.06	937821	keystroke	n	n/a
469.0305	0.09	938061	keystroke	n	n/a
469.1355	0.09	938271	keystroke	e	n/a
469.1955	0.12	938391	keystroke	r	n/a
469.3305	0.09	938661	keystroke	s	n/a
469.4355	0.09	938871	keystroke	Key.space	n/a
470.6205	0.09	941241	keystroke	Key.backspace	n/a
470.8455	0.075	941691	keystroke	Key.backspace	n/a
471.115	0.075	942230	keystroke	Key.space	n/a
471.325	0.09	942650	keystroke	w	n/a
471.445	0.076	942890	keystroke	e	n/a
471.536	0.104	943072	keystroke	b	n/a
471.85	0.091	943700	keystroke	c	n/a
472.001	0.074	944002	keystroke	a	n/a
472.091	0.104	944182	keystroke	m	n/a
472.5105	0.09	945021	keystroke	s	n/a
472.6455	0.09	945291	keystroke	Key.space	n/a
472.9755	0.09	945951	keystroke	a	n/a
473.3805	0.075	946761	keystroke	c	n/a
473.5455	0.12	947091	keystroke	a	n/a
473.9655	0.03	947931	keystroke	d	n/a
474.5805	0.09	949161	keystroke	e	n/a
474.7305	0.18	949461	keystroke	m	n/a
474.8955	0.09	949791	keystroke	i	n/a
474.9705	0.12	949941	keystroke	c	n/a
476.3055	0.09	952611	keystroke	s	n/a
476.4255	0.105	952851	keystroke	Key.space	n/a
476.7105	0.03	953421	keystroke	k	n/a
477.1155	0.075	954231	keystroke	Key.backspace	n/a
477.4155	0.105	954831	keystroke	l	n/a
477.5805	0.09	955161	keystroke	o	n/a
477.7305	0.06	955461	keystroke	c	n/a
477.8055	0.09	955611	keystroke	k	n/a
478.0155	0.105	956031	keystroke	Key.enter	n/a
478.129	7.8685	956258	prompt	n/a	comparison stood norman conditional\n
478.6605	0.105	957321	keystroke	c	n/a
478.8855	0.045	957771	keystroke	o	n/a
478.9005	0.075	957801	keystroke	n	n/a
479.4705	0.105	958941	keystroke	Key.backspace	n/a
479.9655	0.105	959931	keystroke	m	n/a
480.1455	0.09	960291	keystroke	p	n/a
480.3105	0.09	960621	keystroke	a	n/a
480.4305	0.075	960861	keystroke	r	n/a
480.5205	0.09	961041	keystroke	i	n/a
480.7755	0.06	961551	keystroke	s	n/a
481.1205	0.12	962241	keystroke	o	n/a
481.1355	0.135	962271	keystroke	n	n/a
481.6605	0.09	963321	keystroke	Key.space	n/a
481.8705	0.09	963741	keystroke	s	n/a
481.9755	0.06	963951	keystroke	t	n/a
482.0505	0.09	964101	keystroke	o	n/a
482.2005	0.09	964401	keystroke	o	n/a
482.3355	0.09	964671	keystroke	d	n/a
482.4705	0.075	964941	keystroke	Key.space	n/a
482.6505	0.06	965301	keystroke	n	n/a
482.7705	0.105	965541	keystroke	o	n/a
482.8305	0.03	965661	keystroke	r	n/a
483.2355	0.075	966471	keystroke	m	n/a
483.3405	0.12	966681	keystroke	a	n/a
483.4305	0.105	966861	keystroke	n	n/a
483.5805	0.105	967161	keystroke	Key.space	n/a
483.8205	0.105	967641	keystroke	s	n/a
484.1355	0.06	968271	keystroke	Key.backspace	n/a
484.2255	0.09	968451	keystroke	c	n/a
484.3305	0.12	968661	keystroke	o	n/a
484.4055	0.09	968811	keystroke	n	n/a
484.8255	0.09	969651	keystroke	d	n/a
484.9605	0.09	969921	keystroke	i	n/a
485.1255	0.075	970251	keystroke	t	n/a
485.1855	0.09	970371	keystroke	i	n/a
485.2765	0.119	970553	keystroke	o	n/a
485.3655	0.09	970731	keystroke	n	n/a
485.4405	0.09	970881	keystroke	a	n/a
485.5905	0.09	971181	keystroke	l	n/a
485.9205	0.075	971841	keystroke	Key.enter	n/a
486.0025	5.3805	972005	prompt	n/a	panels gloves inside idol\n
486.5205	0.135	973041	keystroke	p	n/a
486.8055	0.06	973611	keystroke	a	n/a
486.9105	0.105	973821	keystroke	n	n/a
487.2255	0.075	974451	keystroke	e	n/a
487.3305	0.09	974661	keystroke	l	n/a
487.4355	0.09	974871	keystroke	s	n/a
487.5555	0.09	975111	keystroke	Key.space	n/a
488.2905	0.09	976581	keystroke	g	n/a
488.3655	0.075	976731	keystroke	l	n/a
488.5005	0.09	977001	keystroke	o	n/a
488.5305	0.09	977061	keystroke	v	n/a
488.7555	0.06	977511	keystroke	e	n/a
488.9505	0.09	977901	keystroke	s	n/a
489.0555	0.075	978111	keystroke	Key.space	n/a
489.3555	0.09	978711	keystroke	i	n/a
489.4155	0.105	978831	keystroke	n	n/a
489.4305	0.075	978861	keystroke	s	n/a
489.6855	0.09	979371	keystroke	i	n/a
489.8805	0.075	979761	keystroke	d	n/a
490.0155	0.0905	980031	keystroke	e	n/a
490.225	0.075	980450	keystroke	Key.space	n/a
490.466	0.075	980932	keystroke	i	n/a
490.571	0.09	981142	keystroke	d	n/a
490.826	0.105	981652	keystroke	o	n/a
491.006	0.09	982012	keystroke	l	n/a
491.306	0.075	982612	keystroke	Key.enter	n/a
491.387	6.9555	982774	prompt	n/a	subject produces asbestos ball\n
492.116	0.09	984232	keystroke	s	n/a
492.251	0.075	984502	keystroke	u	n/a
492.431	0.075	984862	keystroke	b	n/a
492.611	0.075	985222	keystroke	j	n/a
492.656	0.09	985312	keystroke	e	n/a
492.716	0.075	985432	keystroke	c	n/a
492.881	0.075	985762	keystroke	t	n/a
493.031	0.12	986062	keystroke	Key.space	n/a
493.496	0.089	986992	keystroke	p	n/a
493.601	0.06	987202	keystroke	r	n/a
493.691	0.105	987382	keystroke	o	n/a
493.856	0.075	987712	keystroke	d	n/a
493.946	0.09	987892	keystroke	u	n/a
494.051	0.09	988102	keystroke	c	n/a
494.156	0.06	988312	keystroke	e	n/a
494.306	0.09	988612	keystroke	s	n/a
494.426	0.09	988852	keystroke	Key.space	n/a
494.801	0.075	989602	keystroke	a	n/a
494.996	0.075	989992	keystroke	s	n/a
495.131	0.09	990262	keystroke	b	n/a
495.356	0.075	990712	keystroke	e	n/a
495.566	0.09	991132	keystroke	s	n/a
495.686	0.09	991372	keystroke	t	n/a
495.941	0.09	991882	keystroke	o	n/a
496.046	0.09	992092	keystroke	s	n/a
496.226	0.09	992452	keystroke	Key.space	n/a
496.5705	0.075	993141	keystroke	b	n/a
496.7655	0.105	993531	keystroke	a	n/a
496.8555	0.075	993711	keystroke	l	n/a
497.0055	0.06	994011	keystroke	l	n/a
498.2505	0.09	996501	keystroke	Key.enter	n/a
498.347	6.6555	996694	prompt	n/a	andreas fears shares waterproof\n
498.9705	0.075	997941	keystroke	a	n/a
499.0905	0.105	998181	keystroke	n	n/a
499.2705	0.075	998541	keystroke	d	n/a
499.4655	0.09	998931	keystroke	r	n/a
499.5405	0.06	999081	keystroke	e	n/a
499.7055	0.06	999411	keystroke	a	n/a
499.8705	0.06	999741	keystroke	s	n/a
500.0505	0.09	1000101	keystroke	Key.space	n/a
500.2905	0.105	1000581	keystroke	f	n/a
500.3805	0.075	1000761	keystroke	e	n/a
500.546	0.075	1001092	keystroke	a	n/a
500.666	0.045	1001332	keystroke	r	n/a
500.756	0.09	1001512	keystroke	s	n/a
500.921	0.105	1001842	keystroke	Key.space	n/a
501.401	0.075	1002802	keystroke	s	n/a
501.491	0.105	1002982	keystroke	h	n/a
501.581	0.06	1003162	keystroke	a	n/a
501.716	0.105	1003432	keystroke	r	n/a
501.776	0.105	1003552	keystroke	e	n/a
502.106	0.09	1004212	keystroke	s	n/a
502.256	0.075	1004512	keystroke	Key.space	n/a
502.616	0.06	1005232	keystroke	w	n/a
502.796	0.06	1005592	keystroke	a	n/a
502.931	0.06	1005862	keystroke	t	n/a
503.036	0.09	1006072	keystroke	e	n/a
503.141	0.09	1006282	keystroke	r	n/a
503.501	0.09	1007002	keystroke	b	n/a
503.845	0.075	1007690	keystroke	Key.backspace	n/a
504.056	0.075	1008112	keystroke	p	n/a
504.2355	0.075	1008471	keystroke	r	n/a
504.3405	0.09	1008681	keystroke	o	n/a
504.4455	0.0895	1008891	keystroke	o	n/a
504.55	0.105	1009100	keystroke	f	n/a
504.925	0.075	1009850	keystroke	Key.enter	n/a
505.01	7.013	1010020	prompt	n/a	ieee communities mariah blow\n
505.691	0.104	1011382	keystroke	l	n/a
505.811	0.074	1011622	keystroke	e	n/a
505.961	0.075	1011922	keystroke	e	n/a
506.47	0.0755	1012940	keystroke	Key.backspace	n/a
506.6355	0.06	1013271	keystroke	Key.backspace	n/a
506.7855	0.06	1013571	keystroke	Key.backspace	n/a
507.2955	0.06	1014591	keystroke	i	n/a
507.3855	0.075	1014771	keystroke	e	n/a
507.5655	0.06	1015131	keystroke	e	n/a
507.7905	0.06	1015581	keystroke	e	n/a
508.1205	0.09	1016241	keystroke	Key.space	n/a
508.3455	0.09	1016691	keystroke	c	n/a
508.3905	0.12	1016781	keystroke	o	n/a
508.4505	0.09	1016901	keystroke	m	n/a
508.6305	0.075	1017261	keystroke	m	n/a
508.8405	0.105	1017681	keystroke	u	n/a
509.0505	0.105	1018101	keystroke	n	n/a
509.1705	0.075	1018341	keystroke	i	n/a
509.2905	0.075	1018581	keystroke	t	n/a
509.3805	0.09	1018761	keystroke	i	n/a
509.5005	0.075	1019001	keystroke	e	n/a
509.6805	0.075	1019361	keystroke	s	n/a
509.8005	0.09	1019601	keystroke	Key.space	n/a
510.4455	0.075	1020891	keystroke	m	n/a
510.5055	0.075	1021011	keystroke	a	n/a
510.5955	0.075	1021191	keystroke	r	n/a
510.6855	0.075	1021371	keystroke	i	n/a
510.7755	0.09	1021551	keystroke	a	n/a
510.8805	0.09	1021761	keystroke	h	n/a
511.0005	0.09	1022001	keystroke	Key.space	n/a
511.3605	0.075	1022721	keystroke	b	n/a
511.4805	0.075	1022961	keystroke	l	n/a
511.6605	0.075	1023321	keystroke	o	n/a
511.7505	0.06	1023501	keystroke	w	n/a
511.9455	0.075	1023891	keystroke	Key.enter	n/a
512.0275	9.1145	1024055	prompt	n/a	gorgeous enhanced where've tunes\n
512.6955	0.075	1025391	keystroke	g	n/a
512.8905	0.075	1025781	keystroke	o	n/a
513.3255	0.06	1026651	keystroke	r	n/a
514.0905	0.09	1028181	keystroke	g	n/a
514.2105	0.075	1028421	keystroke	e	n/a
514.3755	0.12	1028751	keystroke	o	n/a
514.4205	0.105	1028841	keystroke	u	n/a
514.6005	0.09	1029201	keystroke	s	n/a
514.7655	0.105	1029531	keystroke	Key.space	n/a
515.3205	0.045	1030641	keystroke	c	n/a
515.7255	0.075	1031451	keystroke	Key.backspace	n/a
515.7865	0.089	1031573	keystroke	e	n/a
515.9205	0.09	1031841	keystroke	n	n/a
516.0705	0.09	1032141	keystroke	c	n/a
516.1755	0.075	1032351	keystroke	h	n/a
516.4005	0.06	1032801	keystroke	Key.backspace	n/a
516.5355	0.075	1033071	keystroke	Key.backspace	n/a
516.6705	0.09	1033341	keystroke	h	n/a
516.7905	0.09	1033581	keystroke	a	n/a
516.9255	0.09	1033851	keystroke	n	n/a
517.0305	0.09	1034061	keystroke	c	n/a
517.2405	0.075	1034481	keystroke	e	n/a
517.2855	0.09	1034571	keystroke	d	n/a
517.4805	0.09	1034961	keystroke	Key.space	n/a
517.8555	0.06	1035711	keystroke	w	n/a
517.9165	0.089	1035833	keystroke	h	n/a
518.5455	0.075	1037091	keystroke	e	n/a
518.6055	0.105	1037211	keystroke	r	n/a
518.6955	0.09	1037391	keystroke	e	n/a
519.4605	0.09	1038921	keystroke	'	n/a
519.8055	0.075	1039611	keystroke	v	n/a
519.9105	0.105	1039821	keystroke	e	n/a
520.1055	0.09	1040211	keystroke	Key.space	n/a
520.4055	0.075	1040811	keystroke	t	n/a
520.4955	0.12	1040991	keystroke	u	n/a
520.5405	0.12	1041081	keystroke	n	n/a
520.7055	0.075	1041411	keystroke	e	n/a
520.8855	0.075	1041771	keystroke	s	n/a
521.0355	0.105	1042071	keystroke	Key.enter	n/a
521.147	8.3205	1042294	prompt	n/a	increases hobby traveller troy\n
521.8005	0.105	1043601	keystroke	i	n/a
521.8455	0.12	1043691	keystroke	n	n/a
521.9505	0.105	1043901	keystroke	c	n/a
522.1455	0.105	1044291	keystroke	r	n/a
522.2205	0.105	1044441	keystroke	e	n/a
522.4305	0.075	1044861	keystroke	a	n/a
522.4755	0.09	1044951	keystroke	s	n/a
522.6705	0.045	1045341	keystroke	e	n/a
522.8205	0.09	1045641	keystroke	s	n/a
522.9255	0.075	1045851	keystroke	Key.space	n/a
523.1505	0.105	1046301	keystroke	h	n/a
523.2705	0.075	1046541	keystroke	o	n/a
523.4955	0.06	1046991	keystroke	y	n/a
523.7805	0.06	1047561	keystroke	Key.backspace	n/a
523.9305	0.06	1047861	keystroke	h	n/a
524.0655	0.075	1048131	keystroke	h	n/a
524.3055	0.045	1048611	keystroke	y	n/a
524.5755	0.06	1049151	keystroke	Key.backspace	n/a
524.7105	0.06	1049421	keystroke	Key.backspace	n/a
525.0405	0.09	1050081	keystroke	Key.backspace	n/a
525.4155	0.06	1050831	keystroke	b	n/a
525.5655	0.06	1051131	keystroke	b	n/a
525.7755	0.045	1051551	keystroke	y	n/a
525.9105	0.075	1051821	keystroke	Key.space	n/a
526.6605	0.06	1053321	keystroke	t	n/a
526.811	0.09	1053622	keystroke	r	n/a
526.931	0.0895	1053862	keystroke	a	n/a
527.1255	0.105	1054251	keystroke	v	n/a
527.9205	0.075	1055841	keystroke	e	n/a
528.0105	0.075	1056021	keystroke	l	n/a
528.1455	0.09	1056291	keystroke	l	n/a
528.2355	0.0905	1056471	keystroke	e	n/a
528.2955	0.0895	1056591	keystroke	r	n/a
528.415	0.09	1056830	keystroke	Key.space	n/a
528.656	0.075	1057312	keystroke	t	n/a
528.836	0.105	1057672	keystroke	r	n/a
528.925	0.091	1057850	keystroke	o	n/a
529.091	0.06	1058182	keystroke	y	n/a
529.375	0.09	1058750	keystroke	Key.enter	n/a
529.472	4.286	1058944	prompt	n/a	mere suitable toward her\n
530.306	0.089	1060612	keystroke	m	n/a
530.41	0.075	1060820	keystroke	e	n/a
530.65	0.105	1061300	keystroke	r	n/a
530.725	0.09	1061450	keystroke	e	n/a
530.89	0.105	1061780	keystroke	Key.space	n/a
531.19	0.105	1062380	keystroke	s	n/a
531.28	0.105	1062560	keystroke	u	n/a
531.37	0.09	1062740	keystroke	i	n/a
531.505	0.06	1063010	keystroke	t	n/a
531.76	0.09	1063520	keystroke	a	n/a
531.865	0.09	1063730	keystroke	b	n/a
532	0.12	1064000	keystroke	l	n/a
532.135	0.076	1064270	keystroke	e	n/a
532.255	0.09	1064510	keystroke	Key.space	n/a
532.5405	0.045	1065081	keystroke	t	n/a
532.6155	0.075	1065231	keystroke	o	n/a
532.7055	0.09	1065411	keystroke	w	n/a
532.9005	0.075	1065801	keystroke	a	n/a
532.9905	0.045	1065981	keystroke	r	n/a
533.1255	0.075	1066251	keystroke	d	n/a
533.2305	0.075	1066461	keystroke	Key.space	n/a
533.4105	0.09	1066821	keystroke	h	n/a
533.4555	0.075	1066911	keystroke	e	n/a
533.5155	0.075	1067031	keystroke	r	n/a
533.6805	0.075	1067361	keystroke	Key.enter	n/a
533.762	7.841	1067524	prompt	n/a	handled faces midnight tremendous\n
534.3705	0.0745	1068741	keystroke	h	n/a
534.461	0.105	1068922	keystroke	a	n/a
534.611	0.075	1069222	keystroke	n	n/a
534.821	0.074	1069642	keystroke	d	n/a
535.631	0.075	1071262	keystroke	l	n/a
535.796	0.105	1071592	keystroke	e	n/a
535.915	0.091	1071830	keystroke	d	n/a
536.065	0.075	1072130	keystroke	Key.space	n/a
536.4855	0.06	1072971	keystroke	f	n/a
536.6805	0.06	1073361	keystroke	a	n/a
536.8455	0.105	1073691	keystroke	c	n/a
536.9655	0.075	1073931	keystroke	e	n/a
537.1605	0.075	1074321	keystroke	s	n/a
537.2955	0.06	1074591	keystroke	Key.space	n/a
537.5205	0.075	1075041	keystroke	m	n/a
537.6855	0.09	1075371	keystroke	i	n/a
538.1955	0.09	1076391	keystroke	d	n/a
538.3455	0.09	1076691	keystroke	n	n/a
538.4505	0.075	1076901	keystroke	i	n/a
538.5705	0.075	1077141	keystroke	g	n/a
538.6605	0.09	1077321	keystroke	h	n/a
538.7655	0.075	1077531	keystroke	t	n/a
538.9005	0.09	1077801	keystroke	Key.space	n/a
539.3955	0.075	1078791	keystroke	t	n/a
539.5755	0.105	1079151	keystroke	r	n/a
539.6655	0.09	1079331	keystroke	e	n/a
539.9205	0.09	1079841	keystroke	m	n/a
540.0405	0.075	1080081	keystroke	e	n/a
540.1455	0.09	1080291	keystroke	n	n/a
540.2505	0.09	1080501	keystroke	d	n/a
540.6405	0.09	1081281	keystroke	i	n/a
541.0155	0.075	1082031	keystroke	Key.backspace	n/a
541.2105	0.12	1082421	keystroke	o	n/a
541.2705	0.105	1082541	keystroke	u	n/a
541.3605	0.09	1082721	keystroke	s	n/a
541.4955	0.105	1082991	keystroke	Key.enter	n/a
541.6075	5.9055	1083215	prompt	n/a	excited missing instead infection\n
542.3205	0.075	1084641	keystroke	e	n/a
542.5305	0.105	1085061	keystroke	x	n/a
542.8005	0.12	1085601	keystroke	c	n/a
543.2655	0.09	1086531	keystroke	i	n/a
543.3705	0.06	1086741	keystroke	t	n/a
543.4905	0.135	1086981	keystroke	e	n/a
543.5655	0.105	1087131	keystroke	d	n/a
543.7005	0.105	1087401	keystroke	Key.space	n/a
544.1205	0.09	1088241	keystroke	m	n/a
544.2555	0.075	1088511	keystroke	i	n/a
544.3455	0.06	1088691	keystroke	s	n/a
544.4655	0.075	1088931	keystroke	s	n/a
544.5555	0.105	1089111	keystroke	i	n/a
544.6305	0.075	1089261	keystroke	n	n/a
544.7505	0.045	1089501	keystroke	g	n/a
544.8105	0.09	1089621	keystroke	Key.space	n/a
545.1555	0.09	1090311	keystroke	i	n/a
545.1855	0.09	1090371	keystroke	n	n/a
545.5155	0.09	1091031	keystroke	s	n/a
545.6205	0.09	1091241	keystroke	t	n/a
545.7405	0.105	1091481	keystroke	e	n/a
545.9205	0.105	1091841	keystroke	a	n/a
546.0255	0.09	1092051	keystroke	d	n/a
546.1305	0.09	1092261	keystroke	Key.space	n/a
546.3255	0.09	1092651	keystroke	i	n/a
546.3705	0.09	1092741	keystroke	n	n/a
546.5655	0.09	1093131	keystroke	f	n/a
546.6855	0.09	1093371	keystroke	e	n/a
546.7905	0.06	1093581	keystroke	c	n/a
546.9555	0.06	1093911	keystroke	t	n/a
547.0005	0.075	1094001	keystroke	i	n/a
547.0905	0.105	1094181	keystroke	o	n/a
547.1505	0.105	1094301	keystroke	n	n/a
547.4205	0.09	1094841	keystroke	Key.enter	n/a
547.516	7.376	1095032	prompt	n/a	vice seeks thumbnail hierarchy\n
548.2005	0.075	1096401	keystroke	v	n/a
548.2905	0.09	1096581	keystroke	i	n/a
548.3655	0.09	1096731	keystroke	c	n/a
548.4255	0.09	1096851	keystroke	e	n/a
548.5905	0.045	1097181	keystroke	Key.space	n/a
548.7555	0.075	1097511	keystroke	s	n/a
548.9205	0.06	1097841	keystroke	e	n/a
549.0405	0.06	1098081	keystroke	e	n/a
549.1305	0.105	1098261	keystroke	k	n/a
549.2505	0.09	1098501	keystroke	s	n/a
549.3705	0.09	1098741	keystroke	Key.space	n/a
549.7005	0.075	1099401	keystroke	t	n/a
549.7905	0.105	1099581	keystroke	h	n/a
549.9255	0.075	1099851	keystroke	u	n/a
550.0755	0.105	1100151	keystroke	m	n/a
550.3005	0.075	1100601	keystroke	b	n/a
550.7655	0.075	1101531	keystroke	n	n/a
550.8855	0.075	1101771	keystroke	a	n/a
550.9755	0.105	1101951	keystroke	i	n/a
551.0355	0.09	1102071	keystroke	l	n/a
551.2605	0.075	1102521	keystroke	Key.space	n/a
551.4705	0.105	1102941	keystroke	n	n/a
551.7255	0.045	1103451	keystroke	Key.backspace	n/a
551.8305	0.105	1103661	keystroke	h	n/a
551.9505	0.045	1103901	keystroke	e	n/a
