onset	duration	sample	value	key	prompt_text
0.7785	11.4645	1557	prompt	n/a	the quick brown fox jumps over a lazy dog\n
3.9355	0.0145	7871	keystroke	t	n/a
3.994	0.106	7988	keystroke	h	n/a
4.085	0.075	8170	keystroke	e	n/a
4.1735	0.1165	8347	keystroke	Key.space	n/a
4.3345	0.03	8669	keystroke	w	n/a
4.455	0.075	8910	keystroke	u	n/a
4.964	0.06	9928	keystroke	Key.backspace	n/a
5.1145	0.06	10229	keystroke	Key.backspace	n/a
5.6095	0.105	11219	keystroke	q	n/a
5.7745	0.075	11549	keystroke	u	n/a
5.9545	0.06	11909	keystroke	i	n/a
6.0295	0.06	12059	keystroke	c	n/a
6.1195	0.1205	12239	keystroke	k	n/a
6.2845	0.105	12569	keystroke	Key.space	n/a
6.4495	0.1055	12899	keystroke	b	n/a
6.585	0.075	13170	keystroke	r	n/a
6.675	0.0895	13350	keystroke	o	n/a
6.795	0.09	13590	keystroke	w	n/a
6.9	0.1495	13800	keystroke	n	n/a
6.975	0.134	13950	keystroke	Key.space	n/a
7.125	0.075	14250	keystroke	f	n/a
7.2145	0.0905	14429	keystroke	o	n/a
7.35	0.09	14700	keystroke	x	n/a
7.5145	0.135	15029	keystroke	Key.space	n/a
7.7545	0.0755	15509	keystroke	j	n/a
7.92	0.09	15840	keystroke	u	n/a
8.085	0.105	16170	keystroke	m	n/a
8.265	0.105	16530	keystroke	p	n/a
8.4	0.0745	16800	keystroke	s	n/a
8.4595	0.105	16919	keystroke	Key.space	n/a
9.945	0.075	19890	keystroke	o	n/a
10.2	0.09	20400	keystroke	v	n/a
10.3055	0.06	20611	keystroke	e	n/a
10.44	0.09	20880	keystroke	r	n/a
10.515	0.105	21030	keystroke	Key.space	n/a
10.665	0.075	21330	keystroke	a	n/a
10.7405	0.0745	21481	keystroke	Key.space	n/a
10.905	0.09	21810	keystroke	l	n/a
10.98	0.0755	21960	keystroke	a	n/a
11.175	0.1055	22350	keystroke	z	n/a
11.2655	0.0745	22531	keystroke	y	n/a
11.4155	0.0895	22831	keystroke	Key.space	n/a
11.52	0.105	23040	keystroke	d	n/a
11.6705	0.06	23341	keystroke	o	n/a
11.7755	0.06	23551	keystroke	g	n/a
12.1655	0.074	24331	keystroke	Key.enter	n/a
12.253	5.404	24506	prompt	n/a	postcard televisions blind span\n
13.0205	0.0595	26041	keystroke	p	n/a
13.1705	0.075	26341	keystroke	o	n/a
13.2905	0.0905	26581	keystroke	s	n/a
13.4405	0.075	26881	keystroke	t	n/a
13.666	0.0745	27332	keystroke	c	n/a
13.7555	0.0895	27511	keystroke	a	n/a
13.965	0.075	27930	keystroke	r	n/a
14.1305	0.0905	28261	keystroke	d	n/a
14.1455	0.09	28291	keystroke	Key.space	n/a
14.3555	0.0605	28711	keystroke	t	n/a
14.5205	0.0595	29041	keystroke	e	n/a
14.595	0.0605	29190	keystroke	l	n/a
14.7305	0.0755	29461	keystroke	e	n/a
14.956	0.0745	29912	keystroke	v	n/a
15.091	0.075	30182	keystroke	i	n/a
15.2705	0.06	30541	keystroke	s	n/a
15.4055	0.075	30811	keystroke	i	n/a
15.5705	0.1355	31141	keystroke	o	n/a
15.6605	0.09	31321	keystroke	n	n/a
15.8405	0.0895	31681	keystroke	Key.space	n/a
16.4105	0.075	32821	keystroke	b	n/a
16.4855	0.075	32971	keystroke	l	n/a
16.6805	0.12	33361	keystroke	i	n/a
16.755	0.1055	33510	keystroke	n	n/a
16.816	0.0895	33632	keystroke	d	n/a
16.9505	0.06	33901	keystroke	Key.space	n/a
17.04	0.075	34080	keystroke	s	n/a
17.1305	0.045	34261	keystroke	p	n/a
17.2495	0.091	34499	keystroke	a	n/a
17.3555	0.1045	34711	keystroke	n	n/a
17.595	0.0605	35190	keystroke	Key.enter	n/a
17.662	8.905	35324	prompt	n/a	breeding thesaurus ends stanley\n
18.39	0.0755	36780	keystroke	b	n/a
18.5105	0.0895	37021	keystroke	r	n/a
18.6905	0.0745	37381	keystroke	e	n/a
18.8855	0.075	37771	keystroke	e	n/a
19.0655	0.105	38131	keystroke	d	n/a
19.2005	0.1205	38401	keystroke	i	n/a
19.276	0.089	38552	keystroke	n	n/a
19.321	0.0745	38642	keystroke	g	n/a
19.4405	0.1195	38881	keystroke	Key.space	n/a
19.7255	0.075	39451	keystroke	t	n/a
19.816	0.074	39632	keystroke	h	n/a
19.936	0.075	39872	keystroke	e	n/a
21.1805	0.0895	42361	keystroke	s	n/a
21.3905	0.0595	42781	keystroke	a	n/a
21.4805	0.075	42961	keystroke	u	n/a
22.1705	0.0745	44341	keystroke	r	n/a
22.3205	0.075	44641	keystroke	u	n/a
22.4705	0.1045	44941	keystroke	s	n/a
22.7555	0.0895	45511	keystroke	Key.space	n/a
23.5955	0.0755	47191	keystroke	e	n/a
23.7305	0.06	47461	keystroke	n	n/a
23.8205	0.0595	47641	keystroke	d	n/a
23.985	0.0755	47970	keystroke	s	n/a
24.0905	0.105	48181	keystroke	Key.space	n/a
24.3755	0.03	48751	keystroke	s	n/a
24.765	0.075	49530	keystroke	Key.backspace	n/a
25.1855	0.075	50371	keystroke	s	n/a
25.32	0.076	50640	keystroke	t	n/a
25.44	0.076	50880	keystroke	a	n/a
25.561	0.075	51122	keystroke	n	n/a
25.8	0.045	51600	keystroke	l	n/a
25.9055	0.0745	51811	keystroke	e	n/a
26.07	0.046	52140	keystroke	y	n/a
26.4905	0.075	52981	keystroke	Key.enter	n/a
26.573	8.6675	53146	prompt	n/a	bizrate iran naughty kurt\n
27.4355	0.045	54871	keystroke	b	n/a
27.5855	0.06	55171	keystroke	i	n/a
28.3655	0.09	56731	keystroke	z	n/a
28.695	0.0605	57390	keystroke	r	n/a
28.8905	0.0905	57781	keystroke	a	n/a
29.025	0.075	58050	keystroke	t	n/a
29.115	0.09	58230	keystroke	e	n/a
29.265	0.075	58530	keystroke	Key.space	n/a
29.6555	0.09	59311	keystroke	i	n/a
29.8055	0.06	59611	keystroke	r	n/a
30.0755	0.06	60151	keystroke	a	n/a
30.211	0.135	60422	keystroke	n	n/a
30.2855	0.12	60571	keystroke	Key.space	n/a
30.6455	0.0905	61291	keystroke	n	n/a
30.7505	0.09	61501	keystroke	a	n/a
30.8855	0.075	61771	keystroke	u	n/a
31.0205	0.0755	62041	keystroke	g	n/a
31.1255	0.075	62251	keystroke	h	n/a
31.2155	0.06	62431	keystroke	t	n/a
31.365	0.061	62730	keystroke	y	n/a
31.5155	0.1195	63031	keystroke	Key.space	n/a
31.92	0.076	63840	keystroke	k	n/a
32.115	0.06	64230	keystroke	u	n/a
32.235	0.075	64470	keystroke	r	n/a
32.415	0.0605	64830	keystroke	t	n/a
35.2375	0	70475	keystroke	Key.enter	n/a
35.2455	7.117	70491	prompt	n/a	numerous creation suitable packing\n
36.3915	0.0445	72783	keystroke	n	n/a
36.451	0.0895	72902	keystroke	u	n/a
36.6155	0.1055	73231	keystroke	m	n/a
36.751	0.089	73502	keystroke	e	n/a
36.946	0.089	73892	keystroke	r	n/a
37.05	0.061	74100	keystroke	o	n/a
37.231	0.0745	74462	keystroke	u	n/a
37.3505	0.0905	74701	keystroke	s	n/a
37.4255	0.105	74851	keystroke	Key.space	n/a
37.9055	0.09	75811	keystroke	c	n/a
38.266	0.075	76532	keystroke	r	n/a
38.401	0.09	76802	keystroke	e	n/a
38.581	0.0895	77162	keystroke	a	n/a
38.8355	0.06	77671	keystroke	t	n/a
38.9405	0.075	77881	keystroke	i	n/a
39.09	0.136	78180	keystroke	o	n/a
39.18	0.0905	78360	keystroke	n	n/a
39.39	0.091	78780	keystroke	Key.space	n/a
39.796	0.1045	79592	keystroke	s	n/a
39.9905	0.075	79981	keystroke	u	n/a
40.1405	0.075	80281	keystroke	i	n/a
40.2005	0.075	80401	keystroke	t	n/a
40.426	0.105	80852	keystroke	a	n/a
40.486	0.075	80972	keystroke	b	n/a
40.711	0.06	81422	keystroke	l	n/a
40.786	0.075	81572	keystroke	e	n/a
40.906	0.074	81812	keystroke	Key.space	n/a
41.1	0.0605	82200	keystroke	p	n/a
41.265	0.076	82530	keystroke	a	n/a
41.5365	0.074	83073	keystroke	c	n/a
41.626	0.06	83252	keystroke	k	n/a
41.791	0.15	83582	keystroke	i	n/a
41.881	0.12	83762	keystroke	n	n/a
41.926	0.09	83852	keystroke	g	n/a
42.286	0.075	84572	keystroke	Key.enter	n/a
42.367	7.2405	84734	prompt	n/a	forming section element pays\n
43.201	0.075	86402	keystroke	f	n/a
43.3055	0.09	86611	keystroke	o	n/a
43.4105	0.06	86821	keystroke	r	n/a
43.5305	0.09	87061	keystroke	m	n/a
43.8305	0.105	87661	keystroke	i	n/a
43.9055	0.1055	87811	keystroke	n	n/a
43.9955	0.0755	87991	keystroke	g	n/a
44.116	0.09	88232	keystroke	Key.space	n/a
44.266	0.12	88532	keystroke	s	n/a
44.4905	0.06	88981	keystroke	e	n/a
44.6705	0.091	89341	keystroke	c	n/a
44.8805	0.06	89761	keystroke	t	n/a
44.9555	0.09	89911	keystroke	i	n/a
45.1505	0.12	90301	keystroke	o	n/a
45.2255	0.075	90451	keystroke	n	n/a
45.39	0.0905	90780	keystroke	Key.space	n/a
45.6465	0.059	91293	keystroke	e	n/a
45.7805	0.075	91561	keystroke	l	n/a
45.886	0.0595	91772	keystroke	e	n/a
46.0055	0.0905	92011	keystroke	m	n/a
46.1115	0.0745	92223	keystroke	e	n/a
46.231	0.09	92462	keystroke	n	n/a
46.336	0.06	92672	keystroke	t	n/a
46.606	0.06	93212	keystroke	Key.space	n/a
46.816	0.0305	93632	keystroke	p	n/a
46.8305	0.017	93661	keystroke	o	n/a
46.9365	0.075	93873	keystroke	a	n/a
47.1015	0.074	94203	keystroke	y	n/a
47.1915	0.074	94383	keystroke	s	n/a
47.611	0.0445	95222	keystroke	Key.backspace	n/a
47.7305	0.075	95461	keystroke	Key.backspace	n/a
47.881	0.015	95762	keystroke	Key.backspace	n/a
47.9715	0.03	95943	keystroke	Key.backspace	n/a
48.1055	0.0455	96211	keystroke	Key.backspace	n/a
48.9165	0.074	97833	keystroke	p	n/a
49.0355	0.091	98071	keystroke	a	n/a
49.1865	0.074	98373	keystroke	y	n/a
49.336	0.0745	98672	keystroke	s	n/a
49.546	0.06	99092	keystroke	Key.enter	n/a
49.6195	8.1035	99239	prompt	n/a	prepare vulnerable switching colin\n
50.4305	0.075	100861	keystroke	p	n/a
50.596	0.0905	101192	keystroke	r	n/a
50.746	0.075	101492	keystroke	e	n/a
50.836	0.075	101672	keystroke	p	n/a
50.971	0.06	101942	keystroke	a	n/a
51.196	0.06	102392	keystroke	r	n/a
51.331	0.105	102662	keystroke	e	n/a
51.406	0.09	102812	keystroke	Key.space	n/a
51.616	0.075	103232	keystroke	b	n/a
52.3055	0.075	104611	keystroke	Key.backspace	n/a
52.4855	0.075	104971	keystroke	v	n/a
52.6205	0.075	105241	keystroke	u	n/a
52.816	0.0745	105632	keystroke	l	n/a
53.0415	0.0595	106083	keystroke	n	n/a
53.1305	0.061	106261	keystroke	e	n/a
53.2965	0.075	106593	keystroke	r	n/a
53.4905	0.091	106981	keystroke	a	n/a
53.5665	0.06	107133	keystroke	b	n/a
53.776	0.0605	107552	keystroke	l	n/a
53.882	0.0735	107764	keystroke	e	n/a
53.9855	0.09	107971	keystroke	Key.space	n/a
54.151	0.1055	108302	keystroke	s	n/a
54.331	0.12	108662	keystroke	w	n/a
54.661	0.0445	109322	keystroke	i	n/a
54.6755	0.015	109351	keystroke	u	n/a
54.826	0.0755	109652	keystroke	t	n/a
55.3955	0.06	110791	keystroke	Key.backspace	n/a
55.531	0.0895	111062	keystroke	Key.backspace	n/a
55.711	0.0895	111422	keystroke	t	n/a
55.9655	0.09	111931	keystroke	c	n/a
56.1165	0.06	112233	keystroke	h	n/a
56.2955	0.1215	112591	keystroke	i	n/a
56.3555	0.091	112711	keystroke	n	n/a
56.401	0.075	112802	keystroke	g	n/a
56.5655	0.105	113131	keystroke	Key.space	n/a
56.911	0.0745	113822	keystroke	c	n/a
56.956	0.06	113912	keystroke	o	n/a
57.1205	0.106	114241	keystroke	l	n/a
57.3305	0.166	114661	keystroke	i	n/a
57.4215	0.119	114843	keystroke	n	n/a
57.631	0.0895	115262	keystroke	Key.enter	n/a
57.7315	6.336	115463	prompt	n/a	undertake pain definition routine\n
58.472	0.119	116944	keystroke	u	n/a
58.5465	0.1045	117093	keystroke	n	n/a
58.621	0.105	117242	keystroke	d	n/a
58.816	0.075	117632	keystroke	e	n/a
58.996	0.06	117992	keystroke	r	n/a
59.176	0.075	118352	keystroke	t	n/a
59.4015	0.0895	118803	keystroke	a	n/a
59.521	0.075	119042	keystroke	k	n/a
59.627	0.074	119254	keystroke	e	n/a
59.716	0.09	119432	keystroke	Key.space	n/a
59.896	0.0605	119792	keystroke	p	n/a
60.0305	0.091	120061	keystroke	a	n/a
60.1515	0.1345	120303	keystroke	i	n/a
60.2255	0.09	120451	keystroke	n	n/a
60.3905	0.1205	120781	keystroke	Key.space	n/a
60.466	0.0905	120932	keystroke	d	n/a
60.6615	0.059	121323	keystroke	e	n/a
60.8255	0.0905	121651	keystroke	f	n/a
60.901	0.0905	121802	keystroke	i	n/a
61.051	0.2095	122102	keystroke	n	n/a
61.2015	0.119	122403	keystroke	i	n/a
61.336	0.0745	122672	keystroke	t	n/a
61.5905	0.09	123181	keystroke	a	n/a
61.6965	0.089	123393	keystroke	i	n/a
62.1305	0.06	124261	keystroke	Key.backspace	n/a
62.2805	0.06	124561	keystroke	Key.backspace	n/a
62.5515	0.09	125103	keystroke	i	n/a
62.7455	0.1505	125491	keystroke	o	n/a
62.8205	0.1055	125641	keystroke	n	n/a
63.0005	0.0905	126001	keystroke	Key.space	n/a
63.1065	0.074	126213	keystroke	r	n/a
63.2115	0.0595	126423	keystroke	o	n/a
63.376	0.09	126752	keystroke	u	n/a
63.451	0.0605	126902	keystroke	t	n/a
63.585	0.165	127170	keystroke	i	n/a
63.661	0.149	127322	keystroke	n	n/a
63.766	0.074	127532	keystroke	e	n/a
63.976	0.09	127952	keystroke	Key.enter	n/a
64.072	8.95	128144	prompt	n/a	senator helmet patients holly\n
64.6505	0.09	129301	keystroke	s	n/a
64.8305	0.06	129661	keystroke	e	n/a
64.9065	0.074	129813	keystroke	n	n/a
65.0715	0.104	130143	keystroke	a	n/a
65.416	0.0595	130832	keystroke	t	n/a
65.5215	0.089	131043	keystroke	o	n/a
65.6265	0.059	131253	keystroke	r	n/a
65.716	0.0895	131432	keystroke	Key.space	n/a
66.4655	0.0905	132931	keystroke	h	n/a
66.616	0.076	133232	keystroke	e	n/a
66.7955	0.061	133591	keystroke	r	n/a
67.1255	0.045	134251	keystroke	=	n/a
67.711	0.015	135422	keystroke	Key.backspace	n/a
68.131	0.09	136262	keystroke	Key.backspace	n/a
68.5505	0.0605	137101	keystroke	l	n/a
68.762	0.059	137524	keystroke	m	n/a
68.866	0.09	137732	keystroke	e	n/a
69.0905	0.06	138181	keystroke	t	n/a
69.1805	0.0905	138361	keystroke	Key.space	n/a
69.601	0.0595	139202	keystroke	p	n/a
69.766	0.0605	139532	keystroke	s	n/a
70.291	0.075	140582	keystroke	Key.backspace	n/a
70.651	0.075	141302	keystroke	a	n/a
70.8905	0.0605	141781	keystroke	t	n/a
70.9955	0.0755	141991	keystroke	i	n/a
71.1005	0.09	142201	keystroke	e	n/a
71.236	0.0745	142472	keystroke	n	n/a
71.3255	0.06	142651	keystroke	t	n/a
71.5365	0.0895	143073	keystroke	s	n/a
71.641	0.09	143282	keystroke	Key.space	n/a
72.2705	0.06	144541	keystroke	h	n/a
72.3605	0.06	144721	keystroke	o	n/a
72.526	0.0445	145052	keystroke	l	n/a
72.661	0.044	145322	keystroke	l	n/a
72.7355	0.075	145471	keystroke	y	n/a
72.9605	0.0605	145921	keystroke	Key.enter	n/a
73.0275	14.2295	146055	prompt	n/a	playstation picked difficulties prediction\n
73.831	0.105	147662	keystroke	p	n/a
73.876	0.105	147752	keystroke	l	n/a
74.011	0.09	148022	keystroke	a	n/a
74.1615	0.0895	148323	keystroke	y	n/a
74.266	0.09	148532	keystroke	s	n/a
74.385	0.0605	148770	keystroke	t	n/a
74.4905	0.0755	148981	keystroke	a	n/a
74.761	0.0595	149522	keystroke	t	n/a
74.926	0.075	149852	keystroke	i	n/a
75.076	0.12	150152	keystroke	o	n/a
75.165	0.1055	150330	keystroke	n	n/a
75.2865	0.06	150573	keystroke	s	n/a
75.4055	0.0745	150811	keystroke	Key.space	n/a
75.6165	0.0445	151233	keystroke	p	n/a
75.7955	0.075	151591	keystroke	i	n/a
75.931	0.0895	151862	keystroke	c	n/a
75.9755	0.091	151951	keystroke	k	n/a
76.1255	0.0905	152251	keystroke	e	n/a
76.41	0.046	152820	keystroke	Key.backspace	n/a
76.546	0.0595	153092	keystroke	Key.backspace	n/a
76.8005	0.03	153601	keystroke	Key.backspace	n/a
76.905	0.0305	153810	keystroke	Key.backspace	n/a
76.995	0.03	153990	keystroke	Key.backspace	n/a
77.1005	0.06	154201	keystroke	Key.backspace	n/a
77.281	0.075	154562	keystroke	Key.backspace	n/a
77.6705	0.0745	155341	keystroke	Key.space	n/a
81.828	0.013	163656	keystroke	p	n/a
81.9765	0.074	163953	keystroke	i	n/a
82.0655	0.0755	164131	keystroke	c	n/a
82.1705	0.075	164341	keystroke	k	n/a
82.2605	0.091	164521	keystroke	e	n/a
82.411	0.105	164822	keystroke	d	n/a
82.531	0.09	165062	keystroke	Key.space	n/a
83.131	0.0745	166262	keystroke	d	n/a
83.3105	0.06	166621	keystroke	i	n/a
83.4155	0.06	166831	keystroke	f	n/a
83.581	0.0755	167162	keystroke	f	n/a
84.2865	0.074	168573	keystroke	i	n/a
84.481	0.0745	168962	keystroke	c	n/a
84.571	0.0605	169142	keystroke	u	n/a
84.751	0.0745	169502	keystroke	l	n/a
84.8405	0.0605	169681	keystroke	t	n/a
84.946	0.075	169892	keystroke	i	n/a
85.051	0.0895	170102	keystroke	e	n/a
85.246	0.1045	170492	keystroke	s	n/a
85.336	0.09	170672	keystroke	Key.space	n/a
85.666	0.0745	171332	keystroke	p	n/a
85.816	0.09	171632	keystroke	r	n/a
85.981	0.09	171962	keystroke	e	n/a
86.176	0.075	172352	keystroke	d	n/a
86.296	0.0745	172592	keystroke	i	n/a
86.4005	0.0905	172801	keystroke	c	n/a
86.641	0.0455	173282	keystroke	t	n/a
86.716	0.09	173432	keystroke	i	n/a
86.881	0.15	173762	keystroke	o	n/a
86.956	0.105	173912	keystroke	n	n/a
87.181	0.0745	174362	keystroke	Key.enter	n/a
87.264	8.333	174528	prompt	n/a	yours travesti expensive purposes\n
88.141	0.06	176282	keystroke	y	n/a
88.231	0.075	176462	keystroke	o	n/a
88.411	0.09	176822	keystroke	u	n/a
88.561	0.0755	177122	keystroke	r	n/a
88.8315	0.0595	177663	keystroke	s	n/a
88.966	0.0745	177932	keystroke	Key.space	n/a
90.076	0.075	180152	keystroke	t	n/a
90.241	0.075	180482	keystroke	r	n/a
90.451	0.06	180902	keystroke	a	n/a
90.541	0.075	181082	keystroke	v	n/a
90.661	0.075	181322	keystroke	e	n/a
90.826	0.075	181652	keystroke	s	n/a
91.051	0.045	182102	keystroke	t	n/a
91.156	0.075	182312	keystroke	i	n/a
91.3055	0.1355	182611	keystroke	Key.space	n/a
91.711	0.0755	183422	keystroke	e	n/a
91.936	0.105	183872	keystroke	x	n/a
92.2965	0.074	184593	keystroke	p	n/a
92.4315	0.059	184863	keystroke	e	n/a
92.5505	0.091	185101	keystroke	n	n/a
92.6415	0.0745	185283	keystroke	s	n/a
92.7605	0.06	185521	keystroke	i	n/a
92.9855	0.0745	185971	keystroke	v	n/a
93.105	0.076	186210	keystroke	e	n/a
93.6305	0.09	187261	keystroke	Key.space	n/a
93.856	0.0745	187712	keystroke	o	n/a
94.1105	0.0605	188221	keystroke	u	n/a
94.2165	0.059	188433	keystroke	r	n/a
94.3655	0.0755	188731	keystroke	p	n/a
94.5905	0.0155	189181	keystroke	o	n/a
94.621	0.06	189242	keystroke	s	n/a
94.8	0.061	189600	keystroke	e	n/a
94.965	0.075	189930	keystroke	s	n/a
95.5505	0.0455	191101	keystroke	Key.enter	n/a
95.6015	7.526	191203	prompt	n/a	bands how's mixed i've\n
96.705	0.046	193410	keystroke	b	n/a
97.381	0.075	194762	keystroke	r	n/a
97.591	0.075	195182	keystroke	a	n/a
97.696	0.075	195392	keystroke	n	n/a
97.816	0.075	195632	keystroke	d	n/a
97.981	0.09	195962	keystroke	s	n/a
98.101	0.09	196202	keystroke	Key.space	n/a
98.506	0.0905	197012	keystroke	h	n/a
98.7155	0.0605	197431	keystroke	o	n/a
98.8805	0.045	197761	keystroke	w	n/a
99.2705	0.06	198541	keystroke	'	n/a
99.481	0.0895	198962	keystroke	s	n/a
99.646	0.09	199292	keystroke	Key.space	n/a
100.141	0.105	200282	keystroke	m	n/a
100.336	0.1045	200672	keystroke	i	n/a
100.5605	0.075	201121	keystroke	x	n/a
100.7705	0.06	201541	keystroke	e	n/a
100.936	0.09	201872	keystroke	d	n/a
100.996	0.105	201992	keystroke	Key.space	n/a
101.506	0.03	203012	keystroke	i	n/a
101.9105	0.075	203821	keystroke	'	n/a
102.2415	0.074	204483	keystroke	v	n/a
102.3455	0.0755	204691	keystroke	e	n/a
103.0505	0.075	206101	keystroke	Key.enter	n/a
103.138	6.9195	206276	prompt	n/a	related outlook twenty assists\n
103.921	0.045	207842	keystroke	r	n/a
104.056	0.075	208112	keystroke	e	n/a
104.161	0.075	208322	keystroke	l	n/a
104.296	0.0605	208592	keystroke	a	n/a
104.4605	0.045	208921	keystroke	t	n/a
104.5355	0.075	209071	keystroke	e	n/a
104.686	0.1055	209372	keystroke	d	n/a
104.8355	0.0145	209671	keystroke	Key.space	n/a
104.955	0.075	209910	keystroke	o	n/a
105.15	0.06	210300	keystroke	u	n/a
105.225	0.075	210450	keystroke	t	n/a
105.36	0.076	210720	keystroke	l	n/a
105.526	0.045	211052	keystroke	o	n/a
105.6455	0.105	211291	keystroke	o	n/a
105.8405	0.091	211681	keystroke	k	n/a
106.0355	0.09	212071	keystroke	Key.space	n/a
106.396	0.075	212792	keystroke	t	n/a
106.6205	0.06	213241	keystroke	w	n/a
106.7705	0.09	213541	keystroke	e	n/a
106.9055	0.0755	213811	keystroke	n	n/a
107.0255	0.06	214051	keystroke	t	n/a
107.1755	0.075	214351	keystroke	y	n/a
107.3405	0.075	214681	keystroke	Key.space	n/a
107.611	0.0595	215222	keystroke	a	n/a
107.776	0.0745	215552	keystroke	s	n/a
107.9255	0.09	215851	keystroke	s	n/a
108.0605	0.0755	216121	keystroke	i	n/a
108.196	0.075	216392	keystroke	s	n/a
108.376	0.075	216752	keystroke	r	n/a
108.601	0.09	217202	keystroke	s	n/a
109.1855	0.0595	218371	keystroke	Key.backspace	n/a
109.32	0.0305	218640	keystroke	Key.backspace	n/a
109.426	0.0595	218852	keystroke	t	n/a
109.7405	0.06	219481	keystroke	s	n/a
109.9955	0.06	219991	keystroke	Key.enter	n/a
110.067	7.265	220134	prompt	n/a	sheer pond geological announcements\n
110.8355	0.0755	221671	keystroke	s	n/a
110.926	0.075	221852	keystroke	h	n/a
111.0315	0.0745	222063	keystroke	e	n/a
111.196	0.089	222392	keystroke	e	n/a
111.406	0.06	222812	keystroke	r	n/a
111.526	0.075	223052	keystroke	Key.space	n/a
111.7065	0.0895	223413	keystroke	p	n/a
111.901	0.18	223802	keystroke	o	n/a
112.036	0.135	224072	keystroke	n	n/a
112.155	0.076	224310	keystroke	d	n/a
112.29	0.12	224580	keystroke	Key.space	n/a
112.906	0.06	225812	keystroke	g	n/a
112.995	0.075	225990	keystroke	e	n/a
113.311	0.0745	226622	keystroke	o	n/a
113.476	0.045	226952	keystroke	l	n/a
113.596	0.1045	227192	keystroke	o	n/a
113.731	0.075	227462	keystroke	g	n/a
113.8355	0.075	227671	keystroke	i	n/a
114.0305	0.105	228061	keystroke	c	n/a
114.271	0.06	228542	keystroke	a	n/a
114.3605	0.0905	228721	keystroke	l	n/a
114.5255	0.1055	229051	keystroke	Key.space	n/a
114.901	0.09	229802	keystroke	a	n/a
115.006	0.0445	230012	keystroke	n	n/a
115.1555	0.075	230311	keystroke	n	n/a
115.3205	0.09	230641	keystroke	o	n/a
115.5305	0.135	231061	keystroke	u	n/a
115.6515	0.1185	231303	keystroke	n	n/a
115.831	0.0895	231662	keystroke	c	n/a
116.0405	0.0605	232081	keystroke	e	n/a
116.1155	0.075	232231	keystroke	m	n/a
116.206	0.0895	232412	keystroke	e	n/a
116.2965	0.089	232593	keystroke	n	n/a
116.4305	0.075	232861	keystroke	t	n/a
116.6405	0.075	233281	keystroke	s	n/a
117.2705	0.0605	234541	keystroke	Key.enter	n/a
117.3365	14.4855	234673	prompt	n/a	attend conduct americans pediatric\n
118.051	0.076	236102	keystroke	a	n/a
118.3055	0.045	236611	keystroke	t	n/a
118.531	0.0155	237062	keystroke	t	n/a
118.651	0.075	237302	keystroke	e	n/a
118.831	0.06	237662	keystroke	n	n/a
118.936	0.06	237872	keystroke	d	n/a
119.086	0.045	238172	keystroke	Key.space	n/a
119.386	0.06	238772	keystroke	c	n/a
119.506	0.165	239012	keystroke	o	n/a
119.701	0.12	239402	keystroke	n	n/a
119.836	0.06	239672	keystroke	d	n/a
119.9255	0.075	239851	keystroke	u	n/a
120.0155	0.105	240031	keystroke	c	n/a
120.2565	0.0595	240513	keystroke	t	n/a
120.3605	0.09	240721	keystroke	Key.space	n/a
120.646	0.0895	241292	keystroke	a	n/a
120.7665	0.074	241533	keystroke	m	n/a
120.886	0.09	241772	keystroke	e	n/a
121.066	0.075	242132	keystroke	r	n/a
121.216	0.06	242432	keystroke	i	n/a
121.336	0.059	242672	keystroke	c	n/a
121.5605	0.0605	243121	keystroke	a	n/a
121.6805	0.075	243361	keystroke	n	n/a
121.801	0.06	243602	keystroke	s	n/a
121.921	0.09	243842	keystroke	Key.space	n/a
122.1455	0.045	244291	keystroke	p	n/a
122.401	0.09	244802	keystroke	e	n/a
122.58	0.0905	245160	keystroke	d	n/a
122.7305	0.0745	245461	keystroke	i	n/a
122.836	0.075	245672	keystroke	c	n/a
123.061	0.075	246122	keystroke	a	n/a
124.3505	0.075	248701	keystroke	Key.backspace	n/a
124.5155	0.06	249031	keystroke	Key.backspace	n/a
124.6805	0.045	249361	keystroke	Key.backspace	n/a
124.8155	0.06	249631	keystroke	Key.backspace	n/a
127.098	0.027	254196	keystroke	d	n/a
127.156	0.0595	254312	keystroke	i	n/a
127.29	0.09	254580	keystroke	a	n/a
127.455	0.0755	254910	keystroke	t	n/a
127.605	0.075	255210	keystroke	r	n/a
128.056	0.045	256112	keystroke	i	n/a
128.2055	0.075	256411	keystroke	c	n/a
131.809	0.011	263618	keystroke	Key.enter	n/a
131.8265	6.4455	263653	prompt	n/a	stress iraqi suspended desire\n
132.6005	0.09	265201	keystroke	s	n/a
132.7355	0.06	265471	keystroke	t	n/a
132.826	0.075	265652	keystroke	r	n/a
133.0055	0.075	266011	keystroke	e	n/a
133.186	0.06	266372	keystroke	s	n/a
133.321	0.075	266642	keystroke	s	n/a
133.41	0.0905	266820	keystroke	Key.space	n/a
133.8305	0.075	267661	keystroke	i	n/a
133.8905	0.075	267781	keystroke	r	n/a
134.1305	0.075	268261	keystroke	a	n/a
134.3405	0.045	268681	keystroke	q	n/a
134.5355	0.09	269071	keystroke	i	n/a
134.7005	0.106	269401	keystroke	Key.space	n/a
135.5705	0.045	271141	keystroke	s	n/a
135.6455	0.075	271291	keystroke	u	n/a
135.7655	0.105	271531	keystroke	s	n/a
135.8855	0.06	271771	keystroke	p	n/a
136.0515	0.059	272103	keystroke	e	n/a
136.17	0.0755	272340	keystroke	n	n/a
136.29	0.076	272580	keystroke	d	n/a
136.47	0.0455	272940	keystroke	e	n/a
136.636	0.059	273272	keystroke	d	n/a
136.696	0.09	273392	keystroke	Key.space	n/a
137.0255	0.0605	274051	keystroke	d	n/a
137.19	0.046	274380	keystroke	e	n/a
137.356	0.09	274712	keystroke	s	n/a
137.4905	0.0755	274981	keystroke	i	n/a
137.5815	0.0745	275163	keystroke	r	n/a
137.7455	0.0895	275491	keystroke	e	n/a
138.1955	0.075	276391	keystroke	Key.enter	n/a
138.2755	10.7515	276551	prompt	n/a	assess channels charitable toronto\n
138.9605	0.076	277921	keystroke	a	n/a
139.5905	0.045	279181	keystroke	s	n/a
139.7245	0.106	279449	keystroke	s	n/a
139.996	0.0595	279992	keystroke	e	n/a
140.2055	0.045	280411	keystroke	s	n/a
140.3555	0.0755	280711	keystroke	s	n/a
140.4905	0.09	280981	keystroke	Key.space	n/a
140.6855	0.0755	281371	keystroke	c	n/a
140.8505	0.075	281701	keystroke	h	n/a
141.0155	0.046	282031	keystroke	a	n/a
141.1055	0.0455	282211	keystroke	n	n/a
141.2405	0.03	282481	keystroke	n	n/a
141.4205	0.06	282841	keystroke	e	n/a
141.705	0.046	283410	keystroke	s	n/a
141.885	0.0905	283770	keystroke	Key.space	n/a
142.275	0.0455	284550	keystroke	Key.backspace	n/a
142.395	0.06	284790	keystroke	Key.backspace	n/a
142.995	0.06	285990	keystroke	l	n/a
143.1005	0.075	286201	keystroke	s	n/a
143.1905	0.105	286381	keystroke	Key.space	n/a
143.6405	0.09	287281	keystroke	c	n/a
143.7905	0.075	287581	keystroke	h	n/a
143.9405	0.09	287881	keystroke	a	n/a
144.3455	0.06	288691	keystroke	r	n/a
144.5405	0.075	289081	keystroke	a	n/a
146.1005	0.0445	292201	keystroke	Key.backspace	n/a
146.3255	0.06	292651	keystroke	i	n/a
146.4305	0.075	292861	keystroke	t	n/a
146.7455	0.06	293491	keystroke	a	n/a
146.8355	0.075	293671	keystroke	b	n/a
147.0755	0.075	294151	keystroke	l	n/a
147.2405	0.06	294481	keystroke	e	n/a
147.48	0.09	294960	keystroke	Key.space	n/a
148.0805	0.0445	296161	keystroke	t	n/a
148.1555	0.09	296311	keystroke	o	n/a
148.2755	0.075	296551	keystroke	r	n/a
148.381	0.1495	296762	keystroke	o	n/a
148.456	0.1345	296912	keystroke	n	n/a
148.5755	0.075	297151	keystroke	t	n/a
148.6955	0.1055	297391	keystroke	o	n/a
148.9505	0.075	297901	keystroke	Key.enter	n/a
149.0305	7.497	298061	prompt	n/a	oaks mistake recognize content\n
149.835	0.0755	299670	keystroke	o	n/a
149.9705	0.075	299941	keystroke	a	n/a
150.0755	0.06	300151	keystroke	k	n/a
150.1955	0.06	300391	keystroke	s	n/a
150.2705	0.09	300541	keystroke	Key.space	n/a
150.4805	0.075	300961	keystroke	m	n/a
150.691	0.045	301382	keystroke	i	n/a
150.72	0.1065	301440	keystroke	s	n/a
151.05	0.06	302100	keystroke	t	n/a
151.7265	0.0745	303453	keystroke	a	n/a
151.816	0.06	303632	keystroke	k	n/a
151.9365	0.0745	303873	keystroke	e	n/a
152.056	0.075	304112	keystroke	Key.space	n/a
152.5205	0.0605	305041	keystroke	r	n/a
152.6705	0.075	305341	keystroke	e	n/a
152.941	0.09	305882	keystroke	c	n/a
153.061	0.089	306122	keystroke	o	n/a
153.2105	0.075	306421	keystroke	g	n/a
153.375	0.1655	306750	keystroke	n	n/a
153.4955	0.105	306991	keystroke	i	n/a
153.6605	0.09	307321	keystroke	x	n/a
154.1255	0.0605	308251	keystroke	Key.backspace	n/a
154.2165	0.1045	308433	keystroke	z	n/a
154.441	0.059	308882	keystroke	e	n/a
154.59	0.0755	309180	keystroke	Key.space	n/a
154.891	0.059	309782	keystroke	c	n/a
154.965	0.1655	309930	keystroke	o	n/a
155.055	0.106	310110	keystroke	n	n/a
155.88	0.0605	311760	keystroke	t	n/a
156.075	0.0605	312150	keystroke	e	n/a
156.195	0.0905	312390	keystroke	n	n/a
156.316	0.0455	312632	keystroke	t	n/a
156.4655	0.0605	312931	keystroke	Key.enter	n/a
156.5335	8.304	313067	prompt	n/a	environments into disciplines organic\n
157.516	0.0145	315032	keystroke	e	n/a
157.5605	0.09	315121	keystroke	n	n/a
157.7105	0.09	315421	keystroke	v	n/a
157.8755	0.075	315751	keystroke	i	n/a
158.0105	0.075	316021	keystroke	r	n/a
158.175	0.135	316350	keystroke	o	n/a
158.265	0.106	316530	keystroke	n	n/a
158.5055	0.06	317011	keystroke	m	n/a
159.2105	0.09	318421	keystroke	e	n/a
159.496	0.06	318992	keystroke	n	n/a
159.616	0.0595	319232	keystroke	t	n/a
159.825	0.09	319650	keystroke	s	n/a
159.9	0.0905	319800	keystroke	Key.space	n/a
160.095	0.135	320190	keystroke	i	n/a
160.156	0.104	320312	keystroke	n	n/a
160.275	0.06	320550	keystroke	t	n/a
160.351	0.089	320702	keystroke	o	n/a
160.515	0.1055	321030	keystroke	Key.space	n/a
160.6355	0.09	321271	keystroke	d	n/a
160.7555	0.045	321511	keystroke	i	n/a
160.8455	0.0755	321691	keystroke	s	n/a
161.07	0.091	322140	keystroke	c	n/a
161.176	0.09	322352	keystroke	i	n/a
161.356	0.1345	322712	keystroke	p	n/a
161.4455	0.075	322891	keystroke	l	n/a
161.9855	0.12	323971	keystroke	i	n/a
162.076	0.105	324152	keystroke	n	n/a
162.1205	0.0895	324241	keystroke	e	n/a
162.33	0.0905	324660	keystroke	s	n/a
162.4655	0.09	324931	keystroke	Key.space	n/a
162.886	0.074	325772	keystroke	o	n/a
163.0355	0.075	326071	keystroke	r	n/a
163.186	0.074	326372	keystroke	g	n/a
163.275	0.076	326550	keystroke	a	n/a
163.396	0.1495	326792	keystroke	n	n/a
163.5165	0.09	327033	keystroke	i	n/a
164.6705	0.075	329341	keystroke	c	n/a
164.7605	0.075	329521	keystroke	Key.enter	n/a
164.8415	8.7855	329683	prompt	n/a	christina disc attempt feeling\n
165.721	0.075	331442	keystroke	c	n/a
165.826	0.089	331652	keystroke	h	n/a
165.931	0.0595	331862	keystroke	r	n/a
166.0355	0.075	332071	keystroke	i	n/a
166.1115	0.0895	332223	keystroke	s	n/a
166.35	0.0755	332700	keystroke	t	n/a
166.4405	0.15	332881	keystroke	i	n/a
166.515	0.106	333030	keystroke	n	n/a
166.71	0.106	333420	keystroke	Key.space	n/a
167.1	0.091	334200	keystroke	Key.backspace	n/a
167.2355	0.0745	334471	keystroke	a	n/a
167.3705	0.09	334741	keystroke	Key.space	n/a
167.5505	0.045	335101	keystroke	d	n/a
167.6405	0.0755	335281	keystroke	i	n/a
167.8045	0.075	335609	keystroke	s	n/a
168.0605	0.074	336121	keystroke	x	n/a
168.1945	0.06	336389	keystroke	Key.space	n/a
169.066	0.03	338132	keystroke	Key.backspace	n/a
169.2605	0.015	338521	keystroke	Key.backspace	n/a
169.756	0.075	339512	keystroke	c	n/a
169.86	0.0905	339720	keystroke	Key.space	n/a
170.011	0.075	340022	keystroke	a	n/a
170.295	0.0605	340590	keystroke	t	n/a
170.4305	0.091	340861	keystroke	t	n/a
170.655	0.09	341310	keystroke	e	n/a
170.76	0.1205	341520	keystroke	m	n/a
170.8505	0.12	341701	keystroke	p	n/a
170.9715	0.0445	341943	keystroke	t	n/a
171.0605	0.0895	342121	keystroke	Key.space	n/a
171.331	0.075	342662	keystroke	f	n/a
171.5255	0.0605	343051	keystroke	e	n/a
171.676	0.09	343352	keystroke	e	n/a
171.781	0.089	343562	keystroke	l	n/a
172.0055	0.0745	344011	keystroke	i	n/a
172.23	0.0755	344460	keystroke	g	n/a
172.5755	0.1045	345151	keystroke	Key.backspace	n/a
172.966	0.0905	345932	keystroke	n	n/a
173.1295	0.0755	346259	keystroke	g	n/a
173.55	0.075	347100	keystroke	Key.enter	n/a
173.6305	7.1065	347261	prompt	n/a	distance reveals quit gentleman\n
174.481	0.0445	348962	keystroke	d	n/a
174.6015	0.059	349203	keystroke	i	n/a
174.6915	0.074	349383	keystroke	s	n/a
174.9155	0.06	349831	keystroke	t	n/a
175.1405	0.075	350281	keystroke	a	n/a
175.2605	0.075	350521	keystroke	n	n/a
175.3655	0.06	350731	keystroke	c	n/a
175.5455	0.06	351091	keystroke	e	n/a
175.6355	0.09	351271	keystroke	Key.space	n/a
176.355	0.061	352710	keystroke	r	n/a
176.49	0.091	352980	keystroke	e	n/a
176.626	0.075	353252	keystroke	v	n/a
176.7165	0.0735	353433	keystroke	e	n/a
176.911	0.06	353822	keystroke	a	n/a
176.986	0.074	353972	keystroke	l	n/a
177.12	0.0755	354240	keystroke	s	n/a
177.225	0.105	354450	keystroke	Key.space	n/a
177.45	0.09	354900	keystroke	q	n/a
177.676	0.0745	355352	keystroke	u	n/a
177.825	0.076	355650	keystroke	i	n/a
177.916	0.089	355832	keystroke	t	n/a
178.08	0.1205	356160	keystroke	Key.space	n/a
179.101	0.06	358202	keystroke	g	n/a
179.19	0.091	358380	keystroke	e	n/a
179.3105	0.0905	358621	keystroke	n	n/a
179.4465	0.09	358893	keystroke	t	n/a
179.8505	0.075	359701	keystroke	l	n/a
180.0005	0.0745	360001	keystroke	e	n/a
180.105	0.09	360210	keystroke	m	n/a
180.3155	0.075	360631	keystroke	a	n/a
180.4055	0.075	360811	keystroke	n	n/a
180.6605	0.075	361321	keystroke	Key.enter	n/a
180.7405	9.6115	361481	prompt	n/a	huntington offices emily emirates\n
181.651	0.0595	363302	keystroke	h	n/a
181.8	0.12	363600	keystroke	u	n/a
181.875	0.121	363750	keystroke	n	n/a
181.981	0.0595	363962	keystroke	t	n/a
182.1155	0.1655	364231	keystroke	i	n/a
182.205	0.136	364410	keystroke	n	n/a
182.25	0.076	364500	keystroke	g	n/a
182.521	0.045	365042	keystroke	t	n/a
182.6855	0.0905	365371	keystroke	o	n/a
182.7165	0.044	365433	keystroke	i	n/a
182.7305	0.105	365461	keystroke	n	n/a
183.451	0.06	366902	keystroke	Key.backspace	n/a
183.6315	0.044	367263	keystroke	Key.backspace	n/a
184.096	0.1195	368192	keystroke	n	n/a
184.1705	0.105	368341	keystroke	Key.space	n/a
184.366	0.0895	368732	keystroke	o	n/a
184.5005	0.06	369001	keystroke	f	n/a
184.6505	0.09	369301	keystroke	f	n/a
184.8005	0.076	369601	keystroke	i	n/a
184.8905	0.091	369781	keystroke	c	n/a
185.1305	0.0595	370261	keystroke	e	n/a
185.326	0.09	370652	keystroke	s	n/a
185.445	0.0755	370890	keystroke	Key.space	n/a
187.6975	0.028	375395	keystroke	e	n/a
187.756	0.0745	375512	keystroke	m	n/a
187.875	0.09	375750	keystroke	i	n/a
188.0855	0.0745	376171	keystroke	l	n/a
188.205	0.075	376410	keystroke	y	n/a
188.31	0.0905	376620	keystroke	Key.space	n/a
188.775	0.0605	377550	keystroke	e	n/a
188.88	0.105	377760	keystroke	m	n/a
189.0155	0.0745	378031	keystroke	i	n/a
189.255	0.06	378510	keystroke	g	n/a
189.33	0.076	378660	keystroke	r	n/a
189.541	0.105	379082	keystroke	a	n/a
189.646	0.075	379292	keystroke	t	n/a
189.796	0.074	379592	keystroke	e	n/a
189.991	0.09	379982	keystroke	s	n/a
190.26	0.09	380520	keystroke	Key.enter	n/a
190.358	6.954	380716	prompt	n/a	totals stand reasonable warrior\n
191.116	0.06	382232	keystroke	t	n/a
191.206	0.075	382412	keystroke	o	n/a
191.326	0.0745	382652	keystroke	t	n/a
191.5805	0.0595	383161	keystroke	a	n/a
191.6705	0.06	383341	keystroke	l	n/a
191.7905	0.045	383581	keystroke	s	n/a
191.8655	0.105	383731	keystroke	Key.space	n/a
191.9555	0.075	383911	keystroke	s	n/a
192.1055	0.0755	384211	keystroke	t	n/a
192.226	0.09	384452	keystroke	a	n/a
192.376	0.0745	384752	keystroke	n	n/a
192.5105	0.0755	385021	keystroke	d	n/a
192.6155	0.09	385231	keystroke	Key.space	n/a
193.0055	0.016	386011	keystroke	r	n/a
193.575	0.06	387150	keystroke	e	n/a
193.77	0.09	387540	keystroke	a	n/a
193.9955	0.075	387991	keystroke	s	n/a
194.085	0.135	388170	keystroke	o	n/a
194.1605	0.105	388321	keystroke	n	n/a
194.356	0.0745	388712	keystroke	a	n/a
194.475	0.1055	388950	keystroke	b	n/a
194.7155	0.075	389431	keystroke	l	n/a
194.836	0.0745	389672	keystroke	e	n/a
194.9555	0.105	389911	keystroke	Key.space	n/a
195.2405	0.075	390481	keystroke	w	n/a
195.4355	0.1055	390871	keystroke	a	n/a
195.69	0.06	391380	keystroke	r	n/a
195.825	0.106	391650	keystroke	r	n/a
195.916	0.09	391832	keystroke	i	n/a
196.1705	0.0455	392341	keystroke	r	n/a
196.755	0.075	393510	keystroke	Key.backspace	n/a
196.9965	0.0895	393993	keystroke	o	n/a
197.1005	0.0605	394201	keystroke	r	n/a
197.2505	0.059	394501	keystroke	Key.enter	n/a
197.319	6.053	394638	prompt	n/a	latter actively dental janet\n
198.031	0.074	396062	keystroke	l	n/a
198.211	0.0895	396422	keystroke	a	n/a
198.3605	0.045	396721	keystroke	t	n/a
198.4805	0.075	396961	keystroke	t	n/a
198.601	0.074	397202	keystroke	e	n/a
198.766	0.09	397532	keystroke	r	n/a
198.87	0.0755	397740	keystroke	Key.space	n/a
199.0505	0.1055	398101	keystroke	a	n/a
199.321	0.0595	398642	keystroke	c	n/a
199.516	0.0595	399032	keystroke	t	n/a
199.606	0.0745	399212	keystroke	i	n/a
199.8305	0.09	399661	keystroke	v	n/a
199.9355	0.06	399871	keystroke	e	n/a
200.296	0.075	400592	keystroke	l	n/a
200.4155	0.0895	400831	keystroke	y	n/a
200.55	0.075	401100	keystroke	Key.space	n/a
200.91	0.076	401820	keystroke	d	n/a
201.0755	0.1045	402151	keystroke	e	n/a
201.135	0.09	402270	keystroke	n	n/a
201.27	0.076	402540	keystroke	t	n/a
201.496	0.074	402992	keystroke	a	n/a
201.586	0.0895	403172	keystroke	l	n/a
201.7355	0.09	403471	keystroke	Key.space	n/a
201.9455	0.075	403891	keystroke	j	n/a
202.0805	0.105	404161	keystroke	a	n/a
202.2005	0.15	404401	keystroke	n	n/a
202.3055	0.1345	404611	keystroke	k	n/a
202.8905	0.0595	405781	keystroke	Key.backspace	n/a
203.0255	0.0895	406051	keystroke	e	n/a
203.221	0.0745	406442	keystroke	t	n/a
203.31	0.0605	406620	keystroke	Key.enter	n/a
203.376	7.856	406752	prompt	n/a	katrina register producers networks\n
204.315	0.0605	408630	keystroke	k	n/a
204.391	0.1045	408782	keystroke	a	n/a
204.6305	0.06	409261	keystroke	t	n/a
204.795	0.0605	409590	keystroke	r	n/a
204.8705	0.135	409741	keystroke	i	n/a
204.946	0.119	409892	keystroke	n	n/a
205.0505	0.09	410101	keystroke	a	n/a
205.155	0.1205	410310	keystroke	Key.space	n/a
205.351	0.0895	410702	keystroke	r	n/a
205.516	0.0895	411032	keystroke	e	n/a
205.5755	0.105	411151	keystroke	g	n/a
205.786	0.075	411572	keystroke	i	n/a
205.8905	0.0905	411781	keystroke	s	n/a
206.026	0.0595	412052	keystroke	t	n/a
206.1005	0.075	412201	keystroke	e	n/a
206.446	0.014	412892	keystroke	r	n/a
206.461	0.014	412922	keystroke	Key.space	n/a
207.571	0.09	415142	keystroke	p	n/a
207.7205	0.075	415441	keystroke	r	n/a
207.8105	0.0905	415621	keystroke	o	n/a
207.946	0.06	415892	keystroke	d	n/a
208.065	0.075	416130	keystroke	u	n/a
208.1705	0.0895	416341	keystroke	c	n/a
208.6505	0.0895	417301	keystroke	e	n/a
208.875	0.045	417750	keystroke	r	n/a
209.116	0.059	418232	keystroke	s	n/a
209.2505	0.09	418501	keystroke	Key.space	n/a
209.9705	0.075	419941	keystroke	n	n/a
210.091	0.0745	420182	keystroke	e	n/a
210.2705	0.075	420541	keystroke	t	n/a
210.4955	0.06	420991	keystroke	w	n/a
210.6305	0.075	421261	keystroke	o	n/a
210.7505	0.0755	421501	keystroke	r	n/a
210.8555	0.09	421711	keystroke	k	n/a
211.006	0.0745	422012	keystroke	s	n/a
211.17	0.06	422340	keystroke	Key.enter	n/a
211.2365	6.716	422473	prompt	n/a	experience kids spend whether\n
212.0405	0.075	424081	keystroke	e	n/a
212.2355	0.105	424471	keystroke	x	n/a
212.3255	0.075	424651	keystroke	p	n/a
212.4605	0.09	424921	keystroke	e	n/a
212.6555	0.075	425311	keystroke	r	n/a
212.7605	0.06	425521	keystroke	i	n/a
212.8655	0.06	425731	keystroke	e	n/a
213.0005	0.0755	426001	keystroke	n	n/a
213.076	0.075	426152	keystroke	c	n/a
213.2705	0.075	426541	keystroke	e	n/a
213.3305	0.075	426661	keystroke	Key.space	n/a
213.4805	0.09	426961	keystroke	k	n/a
213.6615	0.0895	427323	keystroke	i	n/a
213.7205	0.075	427441	keystroke	d	n/a
213.901	0.0595	427802	keystroke	s	n/a
213.9755	0.0755	427951	keystroke	Key.space	n/a
214.08	0.0905	428160	keystroke	s	n/a
214.185	0.075	428370	keystroke	p	n/a
214.276	0.0745	428552	keystroke	e	n/a
214.425	0.0905	428850	keystroke	n	n/a
214.5305	0.06	429061	keystroke	d	n/a
214.6945	0.091	429389	keystroke	Key.space	n/a
215.0555	0.06	430111	keystroke	w	n/a
215.3855	0.0745	430771	keystroke	h	n/a
215.7005	0.075	431401	keystroke	a	n/a
216.961	0.0595	433922	keystroke	Key.backspace	n/a
217.1705	0.045	434341	keystroke	e	n/a
217.3655	0.06	434731	keystroke	t	n/a
217.4405	0.06	434881	keystroke	h	n/a
217.5605	0.105	435121	keystroke	e	n/a
217.7555	0.09	435511	keystroke	r	n/a
217.8755	0.075	435751	keystroke	Key.enter	n/a
217.9585	7.27	435917	prompt	n/a	sweden wendy formerly cashiers\n
218.6855	0.0895	437371	keystroke	s	n/a
218.88	0.0755	437760	keystroke	w	n/a
219.076	0.045	438152	keystroke	e	n/a
219.2255	0.075	438451	keystroke	d	n/a
219.405	0.061	438810	keystroke	e	n/a
219.495	0.091	438990	keystroke	n	n/a
219.6005	0.12	439201	keystroke	Key.space	n/a
219.675	0.061	439350	keystroke	w	n/a
219.901	0.045	439802	keystroke	e	n/a
220.006	0.09	440012	keystroke	n	n/a
220.1395	0.0755	440279	keystroke	d	n/a
220.2755	0.0895	440551	keystroke	y	n/a
220.455	0.105	440910	keystroke	Key.space	n/a
222.1505	0.075	444301	keystroke	f	n/a
222.226	0.074	444452	keystroke	o	n/a
222.346	0.059	444692	keystroke	r	n/a
222.4355	0.0755	444871	keystroke	m	n/a
222.915	0.075	445830	keystroke	e	n/a
223.1105	0.0755	446221	keystroke	r	n/a
223.216	0.09	446432	keystroke	l	n/a
223.32	0.076	446640	keystroke	y	n/a
223.44	0.1205	446880	keystroke	Key.space	n/a
223.9955	0.091	447991	keystroke	c	n/a
224.2355	0.075	448471	keystroke	a	n/a
224.4155	0.0755	448831	keystroke	s	n/a
224.491	0.09	448982	keystroke	h	n/a
224.611	0.09	449222	keystroke	e	n/a
224.806	0.0745	449612	keystroke	r	n/a
225.0155	0.075	450031	keystroke	s	n/a
225.1505	0.075	450301	keystroke	Key.enter	n/a
225.239	4.9825	450478	prompt	n/a	mike gotta monte blame\n
226.426	0.0595	452852	keystroke	m	n/a
226.5005	0.015	453001	keystroke	i	n/a
226.5455	0.09	453091	keystroke	k	n/a
226.6205	0.1045	453241	keystroke	e	n/a
226.71	0.09	453420	keystroke	Key.space	n/a
226.876	0.075	453752	keystroke	g	n/a
226.966	0.06	453932	keystroke	o	n/a
227.0705	0.0605	454141	keystroke	t	n/a
227.22	0.076	454440	keystroke	t	n/a
227.491	0.075	454982	keystroke	a	n/a
227.5805	0.045	455161	keystroke	Key.space	n/a
227.805	0.105	455610	keystroke	m	n/a
228.0005	0.1505	456001	keystroke	o	n/a
228.105	0.136	456210	keystroke	n	n/a
228.225	0.0755	456450	keystroke	t	n/a
228.421	0.0895	456842	keystroke	e	n/a
228.4955	0.074	456991	keystroke	Key.space	n/a
229.4105	0.075	458821	keystroke	b	n/a
229.5	0.0755	459000	keystroke	l	n/a
229.6955	0.045	459391	keystroke	a	n/a
229.8155	0.045	459631	keystroke	m	n/a
229.9955	0.06	459991	keystroke	e	n/a
230.145	0.075	460290	keystroke	Key.enter	n/a
230.228	7.059	460456	prompt	n/a	learn peer bleeding equilibrium\n
230.926	0.089	461852	keystroke	l	n/a
231.0755	0.105	462151	keystroke	a	n/a
231.6145	0.091	463229	keystroke	Key.backspace	n/a
231.7805	0.075	463561	keystroke	e	n/a
231.9905	0.06	463981	keystroke	a	n/a
232.2155	0.059	464431	keystroke	r	n/a
232.3055	0.1055	464611	keystroke	n	n/a
232.365	0.0905	464730	keystroke	Key.space	n/a
232.5605	0.06	465121	keystroke	p	n/a
232.6505	0.075	465301	keystroke	e	n/a
232.8155	0.0895	465631	keystroke	e	n/a
233.0105	0.074	466021	keystroke	r	n/a
233.1145	0.1055	466229	keystroke	Key.space	n/a
233.3255	0.0745	466651	keystroke	b	n/a
233.415	0.06	466830	keystroke	l	n/a
233.535	0.075	467070	keystroke	e	n/a
233.88	0.075	467760	keystroke	e	n/a
234.09	0.09	468180	keystroke	d	n/a
234.285	0.136	468570	keystroke	i	n/a
234.361	0.1195	468722	keystroke	n	n/a
234.436	0.059	468872	keystroke	g	n/a
234.5995	0.12	469199	keystroke	Key.space	n/a
235.1405	0.075	470281	keystroke	e	n/a
235.3955	0.06	470791	keystroke	q	n/a
235.5905	0.0905	471181	keystroke	u	n/a
235.7555	0.0905	471511	keystroke	i	n/a
235.9805	0.09	471961	keystroke	l	n/a
236.146	0.0745	472292	keystroke	i	n/a
236.3705	0.09	472741	keystroke	b	n/a
236.5355	0.0595	473071	keystroke	r	n/a
236.641	0.075	473282	keystroke	i	n/a
236.8055	0.06	473611	keystroke	u	n/a
236.9855	0.0895	473971	keystroke	m	n/a
237.24	0.0455	474480	keystroke	Key.enter	n/a
237.2905	6.9115	474581	prompt	n/a	sender famous taiwan continuity\n
237.9455	0.06	475891	keystroke	s	n/a
238.1105	0.06	476221	keystroke	e	n/a
238.216	0.0595	476432	keystroke	n	n/a
238.291	0.104	476582	keystroke	d	n/a
238.47	0.06	476940	keystroke	e	n/a
238.6345	0.0455	477269	keystroke	r	n/a
238.6945	0.106	477389	keystroke	Key.space	n/a
238.9355	0.06	477871	keystroke	f	n/a
239.1455	0.06	478291	keystroke	a	n/a
239.2195	0.091	478439	keystroke	m	n/a
239.3555	0.09	478711	keystroke	o	n/a
239.551	0.0895	479102	keystroke	u	n/a
239.6855	0.075	479371	keystroke	s	n/a
239.7755	0.104	479551	keystroke	Key.space	n/a
240.12	0.0755	480240	keystroke	t	n/a
240.391	0.0735	480782	keystroke	a	n/a
240.5095	0.091	481019	keystroke	i	n/a
240.6455	0.075	481291	keystroke	w	n/a
240.8255	0.09	481651	keystroke	a	n/a
240.9305	0.135	481861	keystroke	n	n/a
241.0205	0.12	482041	keystroke	Key.space	n/a
241.29	0.09	482580	keystroke	c	n/a
241.411	0.134	482822	keystroke	o	n/a
241.86	0.09	483720	keystroke	n	n/a
242.1605	0.0445	484321	keystroke	t	n/a
242.775	0.075	485550	keystroke	i	n/a
242.97	0.09	485940	keystroke	n	n/a
243.1805	0.09	486361	keystroke	u	n/a
243.3605	0.105	486721	keystroke	i	n/a
243.5105	0.09	487021	keystroke	t	n/a
243.7205	0.045	487441	keystroke	y	n/a
244.1255	0.075	488251	keystroke	Key.enter	n/a
244.208	8.8435	488416	prompt	n/a	someone's antonio contribution aspect\n
244.8605	0.105	489721	keystroke	s	n/a
245.0255	0.12	490051	keystroke	o	n/a
245.0855	0.1205	490171	keystroke	m	n/a
245.1905	0.104	490381	keystroke	e	n/a
245.3255	0.15	490651	keystroke	o	n/a
245.4005	0.105	490801	keystroke	n	n/a
245.5205	0.045	491041	keystroke	e	n/a
246.0005	0.06	492001	keystroke	'	n/a
246.1655	0.075	492331	keystroke	s	n/a
246.2555	0.0745	492511	keystroke	Key.space	n/a
246.36	0.1055	492720	keystroke	a	n/a
246.4505	0.075	492901	keystroke	n	n/a
246.721	0.0745	493442	keystroke	t	n/a
246.8405	0.09	493681	keystroke	o	n/a
247.2305	0.1045	494461	keystroke	n	n/a
247.4855	0.075	494971	keystroke	i	n/a
247.6655	0.105	495331	keystroke	o	n/a
247.845	0.1055	495690	keystroke	Key.space	n/a
248.1605	0.075	496321	keystroke	c	n/a
248.25	0.1205	496500	keystroke	o	n/a
248.3255	0.1205	496651	keystroke	n	n/a
248.46	0.0445	496920	keystroke	t	n/a
248.6245	0.06	497249	keystroke	r	n/a
249.2255	0.059	498451	keystroke	i	n/a
249.8695	0.091	499739	keystroke	b	n/a
250.0795	0.0755	500159	keystroke	u	n/a
250.1995	0.075	500399	keystroke	t	n/a
250.3345	0.0605	500669	keystroke	i	n/a
250.5	0.18	501000	keystroke	o	n/a
250.6205	0.1345	501241	keystroke	n	n/a
250.8305	0.134	501661	keystroke	Key.space	n/a
251.1895	0.075	502379	keystroke	a	n/a
251.9705	0.09	503941	keystroke	s	n/a
252.3	0.075	504600	keystroke	p	n/a
252.39	0.075	504780	keystroke	e	n/a
252.57	0.105	505140	keystroke	c	n/a
252.81	0.06	505620	keystroke	t	n/a
252.975	0.075	505950	keystroke	Key.enter	n/a
253.056	11.8755	506112	prompt	n/a	subsidiaries stainless site prepare\n
254.1005	0.0445	508201	keystroke	s	n/a
254.16	0.1205	508320	keystroke	u	n/a
254.2205	0.1195	508441	keystroke	b	n/a
254.4605	0.0595	508921	keystroke	s	n/a
254.55	0.0895	509100	keystroke	i	n/a
256.8175	0.012	513635	keystroke	d	n/a
256.8445	0.016	513689	keystroke	i	n/a
256.9355	0.06	513871	keystroke	a	n/a
257.1605	0.06	514321	keystroke	r	n/a
257.2355	0.105	514471	keystroke	i	n/a
257.3555	0.06	514711	keystroke	e	n/a
257.505	0.0905	515010	keystroke	s	n/a
257.61	0.09	515220	keystroke	Key.space	n/a
257.835	0.09	515670	keystroke	s	n/a
258.105	0.0605	516210	keystroke	t	n/a
258.2405	0.1195	516481	keystroke	i	n/a
258.3	0.135	516600	keystroke	n	n/a
258.42	0.0755	516840	keystroke	a	n/a
258.5555	0.075	517111	keystroke	l	n/a
258.6605	0.075	517321	keystroke	e	n/a
258.8555	0.03	517711	keystroke	s	n/a
258.9905	0.0745	517981	keystroke	s	n/a
259.0955	0.0895	518191	keystroke	Key.space	n/a
259.455	0.046	518910	keystroke	s	n/a
259.83	0.045	519660	keystroke	Key.backspace	n/a
259.98	0.06	519960	keystroke	Key.backspace	n/a
260.205	0.045	520410	keystroke	Key.backspace	n/a
260.3395	0.06	520679	keystroke	Key.backspace	n/a
260.4745	0.045	520949	keystroke	Key.backspace	n/a
260.8645	0.06	521729	keystroke	Key.backspace	n/a
261	0.0595	522000	keystroke	Key.backspace	n/a
261.1345	0.0755	522269	keystroke	Key.backspace	n/a
261.2995	0.075	522599	keystroke	Key.backspace	n/a
261.75	0.0895	523500	keystroke	a	n/a
261.886	0.1185	523772	keystroke	i	n/a
261.945	0.1195	523890	keystroke	n	n/a
262.425	0.075	524850	keystroke	l	n/a
262.5145	0.091	525029	keystroke	e	n/a
262.7105	0.059	525421	keystroke	s	n/a
262.8605	0.075	525721	keystroke	s	n/a
262.9205	0.0895	525841	keystroke	Key.space	n/a
263.0705	0.1045	526141	keystroke	s	n/a
263.205	0.09	526410	keystroke	i	n/a
263.37	0.06	526740	keystroke	t	n/a
263.5655	0.0605	527131	keystroke	e	n/a
263.64	0.075	527280	keystroke	Key.space	n/a
263.835	0.09	527670	keystroke	p	n/a
263.91	0.06	527820	keystroke	r	n/a
264.09	0.075	528180	keystroke	e	n/a
264.18	0.061	528360	keystroke	p	n/a
264.345	0.06	528690	keystroke	a	n/a
264.6005	0.0595	529201	keystroke	r	n/a
264.751	0.0895	529502	keystroke	e	n/a
264.8405	0.0895	529681	keystroke	Key.enter	n/a
264.938	6.2485	529876	prompt	n/a	found suse logical telephone\n
265.726	0.0745	531452	keystroke	f	n/a
265.7855	0.075	531571	keystroke	o	n/a
265.9805	0.105	531961	keystroke	u	n/a
266.0705	0.105	532141	keystroke	n	n/a
266.1145	0.076	532229	keystroke	d	n/a
266.2655	0.1195	532531	keystroke	Key.space	n/a
266.43	0.09	532860	keystroke	s	n/a
266.655	0.0755	533310	keystroke	u	n/a
266.7905	0.1045	533581	keystroke	s	n/a
267.0005	0.06	534001	keystroke	e	n/a
267.0755	0.06	534151	keystroke	Key.space	n/a
267.225	0.0905	534450	keystroke	l	n/a
267.4055	0.075	534811	keystroke	o	n/a
267.4955	0.059	534991	keystroke	g	n/a
267.6155	0.104	535231	keystroke	i	n/a
267.7355	0.059	535471	keystroke	c	n/a
267.9455	0.075	535891	keystroke	a	n/a
268.0655	0.075	536131	keystroke	l	n/a
268.2005	0.119	536401	keystroke	Key.space	n/a
268.3655	0.075	536731	keystroke	t	n/a
268.561	0.119	537122	keystroke	e	n/a
268.6945	0.091	537389	keystroke	l	n/a
268.9645	0.0755	537929	keystroke	e	n/a
269.3095	0.075	538619	keystroke	p	n/a
269.52	0.0595	539040	keystroke	h	n/a
269.6395	0.166	539279	keystroke	o	n/a
269.7595	0.1365	539519	keystroke	n	n/a
269.8655	0.104	539731	keystroke	e	n/a
271.1245	0.06	542249	keystroke	Key.enter	n/a
271.1905	7.2265	542381	prompt	n/a	radical fruit calvin quarter\n
271.9495	0.061	543899	keystroke	r	n/a
272.1605	0.0755	544321	keystroke	a	n/a
272.37	0.0595	544740	keystroke	d	n/a
272.475	0.09	544950	keystroke	i	n/a
272.58	0.0595	545160	keystroke	c	n/a
272.7905	0.0595	545581	keystroke	a	n/a
272.865	0.105	545730	keystroke	l	n/a
273.015	0.12	546030	keystroke	Key.space	n/a
273.195	0.075	546390	keystroke	f	n/a
273.36	0.09	546720	keystroke	r	n/a
273.495	0.076	546990	keystroke	u	n/a
273.645	0.09	547290	keystroke	i	n/a
273.7055	0.09	547411	keystroke	t	n/a
273.8255	0.0895	547651	keystroke	Key.space	n/a
273.9605	0.045	547921	keystroke	v	n/a
274.2755	0.06	548551	keystroke	Key.backspace	n/a
274.4255	0.075	548851	keystroke	c	n/a
274.6495	0.06	549299	keystroke	a	n/a
274.7705	0.0755	549541	keystroke	l	n/a
274.9505	0.075	549901	keystroke	v	n/a
275.0705	0.134	550141	keystroke	i	n/a
275.1305	0.12	550261	keystroke	n	n/a
275.3555	0.1045	550711	keystroke	Key.space	n/a
275.9555	0.0455	551911	keystroke	q	n/a
276.106	0.0745	552212	keystroke	u	n/a
277.5905	0.074	555181	keystroke	a	n/a
277.77	0.0455	555540	keystroke	r	n/a
277.9055	0.075	555811	keystroke	t	n/a
278.0255	0.0895	556051	keystroke	e	n/a
278.22	0.075	556440	keystroke	r	n/a
278.34	0.075	556680	keystroke	Key.enter	n/a
278.421	8.4865	556842	prompt	n/a	detroit president developmental host\n
279.285	0.0595	558570	keystroke	d	n/a
279.4355	0.09	558871	keystroke	e	n/a
279.675	0.09	559350	keystroke	t	n/a
279.855	0.0755	559710	keystroke	r	n/a
280.0055	0.0895	560011	keystroke	o	n/a
280.17	0.0905	560340	keystroke	i	n/a
280.275	0.045	560550	keystroke	t	n/a
280.35	0.12	560700	keystroke	Key.space	n/a
280.71	0.075	561420	keystroke	p	n/a
280.875	0.0755	561750	keystroke	r	n/a
281.0405	0.075	562081	keystroke	e	n/a
281.2205	0.09	562441	keystroke	s	n/a
281.3255	0.075	562651	keystroke	i	n/a
281.4455	0.06	562891	keystroke	d	n/a
281.5805	0.075	563161	keystroke	e	n/a
281.6705	0.09	563341	keystroke	n	n/a
281.8355	0.09	563671	keystroke	t	n/a
281.9555	0.09	563911	keystroke	Key.space	n/a
282.4955	0.045	564991	keystroke	d	n/a
282.6605	0.0755	565321	keystroke	e	n/a
282.9	0.06	565800	keystroke	v	n/a
283.1105	0.0595	566221	keystroke	e	n/a
283.845	0.075	567690	keystroke	l	n/a
284.01	0.075	568020	keystroke	o	n/a
284.161	0.104	568322	keystroke	p	n/a
284.52	0.0305	569040	keystroke	m	n/a
284.896	0.09	569792	keystroke	e	n/a
285.03	0.0905	570060	keystroke	n	n/a
285.195	0.0605	570390	keystroke	t	n/a
285.451	0.075	570902	keystroke	a	n/a
285.57	0.09	571140	keystroke	l	n/a
285.7355	0.0895	571471	keystroke	Key.space	n/a
286.1705	0.075	572341	keystroke	h	n/a
286.3655	0.075	572731	keystroke	o	n/a
286.4555	0.075	572911	keystroke	s	n/a
286.7255	0.044	573451	keystroke	t	n/a
286.8445	0.0605	573689	keystroke	Key.enter	n/a
286.9115	10.945	573823	prompt	n/a	plot meetings disposition rage\n
287.7605	0.12	575521	keystroke	p	n/a
287.7745	0.136	575549	keystroke	l	n/a
287.971	0.0745	575942	keystroke	o	n/a
288.0605	0.074	576121	keystroke	t	n/a
288.1505	0.089	576301	keystroke	Key.space	n/a
288.2555	0.09	576511	keystroke	m	n/a
288.406	0.059	576812	keystroke	e	n/a
288.57	0.075	577140	keystroke	e	n/a
288.78	0.075	577560	keystroke	t	n/a
288.8855	0.12	577771	keystroke	i	n/a
288.93	0.1505	577860	keystroke	n	n/a
289.0355	0.09	578071	keystroke	g	n/a
289.2905	0.075	578581	keystroke	s	n/a
289.4255	0.059	578851	keystroke	Key.space	n/a
290.145	0.0755	580290	keystroke	d	n/a
290.6405	0.075	581281	keystroke	i	n/a
290.8205	0.06	581641	keystroke	s	n/a
290.8805	0.075	581761	keystroke	p	n/a
291.1205	0.015	582241	keystroke	o	n/a
291.1805	0.06	582361	keystroke	t	n/a
291.3155	0.075	582631	keystroke	i	n/a
291.4805	0.1495	582961	keystroke	o	n/a
291.5555	0.1045	583111	keystroke	n	n/a
291.7655	0.105	583531	keystroke	Key.space	n/a
291.9455	0.075	583891	keystroke	r	n/a
292.1855	0.075	584371	keystroke	a	n/a
292.2905	0.1055	584581	keystroke	g	n/a
292.456	0.06	584912	keystroke	e	n/a
293.2045	0.06	586409	keystroke	Key.backspace	n/a
293.3555	0.0445	586711	keystroke	Key.backspace	n/a
293.4755	0.075	586951	keystroke	Key.backspace	n/a
293.6095	0.061	587219	keystroke	Key.backspace	n/a
293.8055	0.045	587611	keystroke	Key.backspace	n/a
293.9105	0.059	587821	keystroke	Key.backspace	n/a
294.0295	0.045	588059	keystroke	Key.backspace	n/a
294.1495	0.045	588299	keystroke	Key.backspace	n/a
294.5855	0.06	589171	keystroke	Key.backspace	n/a
294.8855	0.06	589771	keystroke	s	n/a
294.9905	0.075	589981	keystroke	i	n/a
295.1555	0.06	590311	keystroke	t	n/a
295.2305	0.075	590461	keystroke	i	n/a
295.3805	0.12	590761	keystroke	o	n/a
295.4555	0.06	590911	keystroke	n	n/a
295.6055	0.104	591211	keystroke	Key.space	n/a
295.7105	0.06	591421	keystroke	r	n/a
295.9205	0.089	591841	keystroke	a	n/a
296.0245	0.03	592049	keystroke	f	n/a
296.0255	0.06	592051	keystroke	g	n/a
296.1895	0.076	592379	keystroke	e	n/a
296.6995	0.045	593399	keystroke	Key.backspace	n/a
296.805	0.0745	593610	keystroke	Key.backspace	n/a
296.94	0.09	593880	keystroke	Key.backspace	n/a
297.525	0.09	595050	keystroke	g	n/a
297.63	0.06	595260	keystroke	e	n/a
297.765	0.09	595530	keystroke	Key.enter	n/a
297.8605	5.8305	595721	prompt	n/a	guides rendering orange omissions\n
298.7405	0.075	597481	keystroke	g	n/a
298.9055	0.075	597811	keystroke	u	n/a
299.0405	0.075	598081	keystroke	i	n/a
299.146	0.074	598292	keystroke	d	n/a
299.325	0.075	598650	keystroke	e	n/a
299.4755	0.1045	598951	keystroke	s	n/a
299.55	0.105	599100	keystroke	Key.space	n/a
299.685	0.09	599370	keystroke	r	n/a
299.85	0.0605	599700	keystroke	e	n/a
299.926	0.089	599852	keystroke	n	n/a
300.031	0.089	600062	keystroke	d	n/a
300.21	0.075	600420	keystroke	e	n/a
300.3905	0.075	600781	keystroke	r	n/a
300.54	0.136	601080	keystroke	i	n/a
300.5855	0.134	601171	keystroke	n	n/a
300.6605	0.0895	601321	keystroke	g	n/a
300.8095	0.09	601619	keystroke	Key.space	n/a
300.975	0.09	601950	keystroke	o	n/a
301.0795	0.06	602159	keystroke	r	n/a
301.306	0.059	602612	keystroke	a	n/a
301.38	0.06	602760	keystroke	n	n/a
301.561	0.089	603122	keystroke	g	n/a
301.68	0.075	603360	keystroke	e	n/a
301.77	0.09	603540	keystroke	Key.space	n/a
302.3995	0.09	604799	keystroke	o	n/a
302.5345	0.106	605069	keystroke	m	n/a
302.7155	0.06	605431	keystroke	i	n/a
302.8505	0.045	605701	keystroke	s	n/a
303.0005	0.075	606001	keystroke	s	n/a
303.1045	0.076	606209	keystroke	i	n/a
303.2855	0.134	606571	keystroke	o	n/a
303.3455	0.134	606691	keystroke	n	n/a
303.45	0.0905	606900	keystroke	s	n/a
303.6145	0.075	607229	keystroke	Key.enter	n/a
303.698	5.8585	607396	prompt	n/a	omissions poly filters associate\n
304.41	0.091	608820	keystroke	o	n/a
304.545	0.105	609090	keystroke	m	n/a
304.6955	0.0745	609391	keystroke	i	n/a
304.815	0.075	609630	keystroke	s	n/a
304.9655	0.105	609931	keystroke	s	n/a
305.115	0.075	610230	keystroke	i	n/a
305.295	0.1345	610590	keystroke	o	n/a
305.3555	0.105	610711	keystroke	n	n/a
305.445	0.0745	610890	keystroke	s	n/a
305.5345	0.1055	611069	keystroke	Key.space	n/a
305.7145	0.09	611429	keystroke	p	n/a
305.9395	0.031	611879	keystroke	o	n/a
306.0455	0.119	612091	keystroke	l	n/a
306.2695	0.076	612539	keystroke	y	n/a
306.45	0.09	612900	keystroke	Key.space	n/a
306.525	0.1505	613050	keystroke	f	n/a
306.677	0.058	613354	keystroke	i	n/a
306.8405	0.075	613681	keystroke	l	n/a
306.916	0.0895	613832	keystroke	t	n/a
307.1105	0.075	614221	keystroke	e	n/a
307.2595	0.09	614519	keystroke	r	n/a
307.4845	0.076	614969	keystroke	s	n/a
307.545	0.0895	615090	keystroke	Key.space	n/a
307.7405	0.0595	615481	keystroke	a	n/a
307.9205	0.06	615841	keystroke	s	n/a
308.056	0.0885	616112	keystroke	s	n/a
308.1905	0.075	616381	keystroke	o	n/a
308.2795	0.0605	616559	keystroke	c	n/a
308.385	0.075	616770	keystroke	i	n/a
308.49	0.075	616980	keystroke	a	n/a
308.64	0.09	617280	keystroke	t	n/a
309.36	0.0605	618720	keystroke	e	n/a
309.4805	0.075	618961	keystroke	Key.enter	n/a
309.5625	8.019	619125	prompt	n/a	three rings degree demonstration\n
310.2755	0.089	620551	keystroke	t	n/a
310.3505	0.089	620701	keystroke	h	n/a
310.4695	0.0755	620939	keystroke	r	n/a
310.6495	0.06	621299	keystroke	e	n/a
310.8305	0.0595	621661	keystroke	e	n/a
311.025	0.09	622050	keystroke	Key.space	n/a
311.235	0.075	622470	keystroke	r	n/a
311.385	0.105	622770	keystroke	i	n/a
311.4605	0.1045	622921	keystroke	n	n/a
311.5205	0.0745	623041	keystroke	g	n/a
311.73	0.0755	623460	keystroke	s	n/a
311.85	0.09	623700	keystroke	Key.space	n/a
312.1505	0.075	624301	keystroke	d	n/a
312.33	0.0755	624660	keystroke	e	n/a
312.5555	0.059	625111	keystroke	f	n/a
312.721	0.0595	625442	keystroke	r	n/a
313.005	0.03	626010	keystroke	Key.backspace	n/a
313.11	0.0755	626220	keystroke	Key.backspace	n/a
313.5595	0.061	627119	keystroke	g	n/a
313.6955	0.045	627391	keystroke	r	n/a
314.16	0.03	628320	keystroke	Key.backspace	n/a
314.5495	0.061	629099	keystroke	r	n/a
314.7905	0.06	629581	keystroke	e	n/a
314.9555	0.075	629911	keystroke	e	n/a
315.06	0.09	630120	keystroke	Key.space	n/a
315.195	0.0755	630390	keystroke	d	n/a
315.345	0.0755	630690	keystroke	e	n/a
315.45	0.075	630900	keystroke	m	n/a
315.63	0.135	631260	keystroke	o	n/a
315.72	0.12	631440	keystroke	n	n/a
315.78	0.075	631560	keystroke	s	n/a
315.96	0.0605	631920	keystroke	t	n/a
316.111	0.074	632222	keystroke	r	n/a
316.2305	0.045	632461	keystroke	a	n/a
316.5305	0.0295	633061	keystroke	t	n/a
316.62	0.0755	633240	keystroke	i	n/a
316.786	0.134	633572	keystroke	o	n/a
316.8605	0.1195	633721	keystroke	n	n/a
317.535	0.0445	635070	keystroke	Key.enter	n/a
317.5855	8.1405	635171	prompt	n/a	static metabolism appreciation youth\n
318.3005	0.075	636601	keystroke	s	n/a
318.5105	0.075	637021	keystroke	t	n/a
318.6605	0.09	637321	keystroke	a	n/a
318.945	0.045	637890	keystroke	t	n/a
319.02	0.09	638040	keystroke	i	n/a
319.171	0.074	638342	keystroke	c	n/a
319.29	0.0755	638580	keystroke	Key.space	n/a
319.6045	0.076	639209	keystroke	m	n/a
319.7995	0.076	639599	keystroke	e	n/a
320.026	0.0445	640052	keystroke	t	n/a
320.2515	0.0885	640503	keystroke	a	n/a
320.355	0.075	640710	keystroke	b	n/a
320.58	0.0605	641160	keystroke	o	n/a
320.73	0.075	641460	keystroke	l	n/a
320.91	0.06	641820	keystroke	i	n/a
321.1055	0.0595	642211	keystroke	s	n/a
321.345	0.1055	642690	keystroke	Key.space	n/a
321.87	0.045	643740	keystroke	Key.backspace	n/a
322.0055	0.0745	644011	keystroke	Key.backspace	n/a
322.575	0.06	645150	keystroke	s	n/a
322.65	0.1205	645300	keystroke	m	n/a
322.7105	0.1045	645421	keystroke	Key.space	n/a
322.8455	0.09	645691	keystroke	a	n/a
322.95	0.06	645900	keystroke	p	n/a
323.085	0.0895	646170	keystroke	p	n/a
323.2205	0.075	646441	keystroke	r	n/a
323.3845	0.075	646769	keystroke	e	n/a
323.5795	0.0755	647159	keystroke	c	n/a
323.67	0.0595	647340	keystroke	i	n/a
323.7905	0.09	647581	keystroke	a	n/a
324.0605	0.045	648121	keystroke	t	n/a
324.1345	0.105	648269	keystroke	i	n/a
324.3	0.15	648600	keystroke	o	n/a
324.375	0.12	648750	keystroke	n	n/a
324.57	0.105	649140	keystroke	Key.space	n/a
324.931	0.0445	649862	keystroke	y	n/a
325.005	0.075	650010	keystroke	o	n/a
325.2	0.076	650400	keystroke	u	n/a
325.35	0.075	650700	keystroke	t	n/a
325.395	0.1055	650790	keystroke	h	n/a
325.65	0.075	651300	keystroke	Key.enter	n/a
325.742	9.2695	651484	prompt	n/a	expense institutions routines subdivision\n
326.4745	0.045	652949	keystroke	e	n/a
326.6395	0.0905	653279	keystroke	x	n/a
326.775	0.06	653550	keystroke	p	n/a
326.9095	0.061	653819	keystroke	e	n/a
327.0445	0.0755	654089	keystroke	n	n/a
327.4345	0.0905	654869	keystroke	s	n/a
327.6455	0.045	655291	keystroke	e	n/a
327.7645	0.075	655529	keystroke	Key.space	n/a
328.0195	0.1505	656039	keystroke	i	n/a
328.1095	0.1505	656219	keystroke	n	n/a
328.275	0.075	656550	keystroke	s	n/a
328.5905	0.0595	657181	keystroke	t	n/a
328.6805	0.0885	657361	keystroke	i	n/a
328.83	0.075	657660	keystroke	t	n/a
328.95	0.09	657900	keystroke	u	n/a
329.085	0.0605	658170	keystroke	t	n/a
329.22	0.0605	658440	keystroke	i	n/a
329.4155	0.21	658831	keystroke	o	n/a
329.5205	0.1505	659041	keystroke	n	n/a
329.6995	0.09	659399	keystroke	s	n/a
329.8655	0.119	659731	keystroke	Key.space	n/a
330.93	0.075	661860	keystroke	r	n/a
331.02	0.075	662040	keystroke	o	n/a
331.2155	0.059	662431	keystroke	u	n/a
331.2895	0.0755	662579	keystroke	t	n/a
331.41	0.15	662820	keystroke	i	n/a
331.485	0.12	662970	keystroke	n	n/a
331.545	0.105	663090	keystroke	e	n/a
331.769	0.091	663538	keystroke	s	n/a
331.844	0.091	663688	keystroke	Key.space	n/a
332.026	0.0745	664052	keystroke	s	n/a
332.2055	0.09	664411	keystroke	u	n/a
332.5055	0.059	665011	keystroke	d	n/a
332.984	0.046	665968	keystroke	Key.backspace	n/a
333.24	0.09	666480	keystroke	b	n/a
333.375	0.075	666750	keystroke	d	n/a
333.48	0.0905	666960	keystroke	i	n/a
333.66	0.0605	667320	keystroke	v	n/a
333.75	0.075	667500	keystroke	i	n/a
333.885	0.0755	667770	keystroke	s	n/a
333.9455	0.074	667891	keystroke	i	n/a
334.1255	0.1345	668251	keystroke	o	n/a
334.1995	0.106	668399	keystroke	n	n/a
334.9495	0.06	669899	keystroke	Key.enter	n/a
335.0205	7.296	670041	prompt	n/a	shown veteran times visibility\n
335.6995	0.076	671399	keystroke	s	n/a
335.8055	0.074	671611	keystroke	h	n/a
335.9995	0.06	671999	keystroke	o	n/a
336.09	0.075	672180	keystroke	w	n/a
336.2245	0.1205	672449	keystroke	n	n/a
336.3	0.1195	672600	keystroke	Key.space	n/a
336.705	0.0755	673410	keystroke	v	n/a
336.81	0.09	673620	keystroke	e	n/a
336.96	0.06	673920	keystroke	t	n/a
337.11	0.075	674220	keystroke	e	n/a
337.335	0.06	674670	keystroke	r	n/a
337.485	0.031	674970	keystroke	n	n/a
338.0245	0.06	676049	keystroke	Key.backspace	n/a
338.2055	0.059	676411	keystroke	a	n/a
338.341	0.149	676682	keystroke	n	n/a
338.4445	0.1355	676889	keystroke	Key.space	n/a
338.88	0.0455	677760	keystroke	t	n/a
339	0.105	678000	keystroke	i	n/a
339.09	0.12	678180	keystroke	m	n/a
339.1805	0.0595	678361	keystroke	e	n/a
339.376	0.0885	678752	keystroke	s	n/a
339.45	0.0745	678900	keystroke	Key.space	n/a
340.05	0.0445	680100	keystroke	b	n/a
340.38	0.075	680760	keystroke	Key.backspace	n/a
340.6055	0.075	681211	keystroke	v	n/a
340.7245	0.09	681449	keystroke	i	n/a
340.8755	0.074	681751	keystroke	s	n/a
340.9955	0.074	681991	keystroke	i	n/a
341.205	0.0745	682410	keystroke	b	n/a
341.3245	0.091	682649	keystroke	i	n/a
341.5345	0.0605	683069	keystroke	l	n/a
341.7005	0.06	683401	keystroke	i	n/a
341.8055	0.075	683611	keystroke	t	n/a
341.9255	0.09	683851	keystroke	y	n/a
342.24	0.075	684480	keystroke	Key.enter	n/a
342.32	7.6615	684640	prompt	n/a	chemistry begin biology hotel\n
343.0205	0.09	686041	keystroke	c	n/a
343.1555	0.089	686311	keystroke	h	n/a
343.2745	0.06	686549	keystroke	e	n/a
343.4405	0.0745	686881	keystroke	m	n/a
343.605	0.075	687210	keystroke	i	n/a
343.725	0.061	687450	keystroke	s	n/a
343.815	0.075	687630	keystroke	t	n/a
343.995	0.06	687990	keystroke	r	n/a
344.3255	0.0745	688651	keystroke	y	n/a
344.565	0.0895	689130	keystroke	Key.space	n/a
344.9705	0.0745	689941	keystroke	b	n/a
345.0755	0.09	690151	keystroke	e	n/a
345.315	0.075	690630	keystroke	g	n/a
345.405	0.1205	690810	keystroke	i	n/a
345.466	0.0895	690932	keystroke	n	n/a
345.6755	0.089	691351	keystroke	Key.space	n/a
346.02	0.06	692040	keystroke	b	n/a
346.2155	0.075	692431	keystroke	i	n/a
346.4545	0.015	692909	keystroke	o	n/a
346.5455	0.0895	693091	keystroke	l	n/a
346.68	0.075	693360	keystroke	o	n/a
346.8	0.075	693600	keystroke	g	n/a
346.935	0.12	693870	keystroke	y	n/a
347.13	0.15	694260	keystroke	Key.space	n/a
347.5495	0.061	695099	keystroke	h	n/a
347.7295	0.06	695459	keystroke	i	n/a
347.8055	0.074	695611	keystroke	t	n/a
348.0145	0.076	696029	keystroke	e	n/a
348.3445	0.0605	696689	keystroke	Key.backspace	n/a
348.51	0.045	697020	keystroke	Key.backspace	n/a
348.66	0.06	697320	keystroke	Key.backspace	n/a
349.2005	0.074	698401	keystroke	o	n/a
349.3195	0.0755	698639	keystroke	t	n/a
349.53	0.06	699060	keystroke	e	n/a
349.6505	0.075	699301	keystroke	l	n/a
349.919	0.0605	699838	keystroke	Key.enter	n/a
349.985	10.5265	699970	prompt	n/a	indiana boutique orlando sought\n
350.715	0.134	701430	keystroke	i	n/a
350.805	0.119	701610	keystroke	n	n/a
350.91	0.09	701820	keystroke	d	n/a
351.015	0.075	702030	keystroke	i	n/a
351.1655	0.0745	702331	keystroke	a	n/a
351.255	0.135	702510	keystroke	n	n/a
351.33	0.15	702660	keystroke	Key.space	n/a
351.66	0.09	703320	keystroke	b	n/a
351.7355	0.09	703471	keystroke	o	n/a
351.9305	0.0895	703861	keystroke	u	n/a
352.02	0.075	704040	keystroke	t	n/a
352.29	0.075	704580	keystroke	q	n/a
352.425	0.0745	704850	keystroke	i	n/a
352.545	0.075	705090	keystroke	e	n/a
352.665	0.1195	705330	keystroke	Key.space	n/a
353.955	0.06	707910	keystroke	Key.backspace	n/a
354.0895	0.0755	708179	keystroke	Key.backspace	n/a
354.225	0.0595	708450	keystroke	Key.backspace	n/a
354.3295	0.0305	708659	keystroke	Key.backspace	n/a
354.435	0.06	708870	keystroke	Key.backspace	n/a
354.6445	0.0305	709289	keystroke	Key.backspace	n/a
354.75	0.06	709500	keystroke	Key.backspace	n/a
354.9	0.045	709800	keystroke	Key.backspace	n/a
355.26	0.075	710520	keystroke	Key.backspace	n/a
355.635	0.075	711270	keystroke	a	n/a
355.86	0.09	711720	keystroke	Key.space	n/a
356.01	0.075	712020	keystroke	b	n/a
356.115	0.06	712230	keystroke	o	n/a
356.295	0.075	712590	keystroke	u	n/a
356.415	0.075	712830	keystroke	t	n/a
356.55	0.0755	713100	keystroke	i	n/a
356.7145	0.0755	713429	keystroke	q	n/a
357.5105	0.0745	715021	keystroke	e	n/a
357.66	0.09	715320	keystroke	Key.space	n/a
357.9755	0.0895	715951	keystroke	o	n/a
358.095	0.075	716190	keystroke	r	n/a
358.2155	0.0745	716431	keystroke	l	n/a
358.335	0.09	716670	keystroke	a	n/a
358.4555	0.0895	716911	keystroke	n	n/a
358.575	0.075	717150	keystroke	d	n/a
358.695	0.06	717390	keystroke	o	n/a
358.815	0.105	717630	keystroke	Key.space	n/a
358.875	0.09	717750	keystroke	s	n/a
359.01	0.091	718020	keystroke	o	n/a
359.205	0.075	718410	keystroke	u	n/a
359.295	0.0605	718590	keystroke	g	n/a
359.415	0.075	718830	keystroke	h	n/a
359.4605	0.0745	718921	keystroke	t	n/a
360.48	0.03	720960	keystroke	Key.enter	n/a
360.5155	5.591	721031	prompt	n/a	opinion letting prove menus\n
361.86	0.06	723720	keystroke	o	n/a
361.935	0.016	723870	keystroke	p	n/a
362.07	0.1055	724140	keystroke	i	n/a
362.19	0.12	724380	keystroke	n	n/a
362.355	0.076	724710	keystroke	i	n/a
362.52	0.1505	725040	keystroke	o	n/a
362.6105	0.1055	725221	keystroke	n	n/a
362.805	0.075	725610	keystroke	Key.space	n/a
362.9255	0.105	725851	keystroke	l	n/a
363.045	0.09	726090	keystroke	e	n/a
363.27	0.0605	726540	keystroke	t	n/a
363.525	0.015	727050	keystroke	t	n/a
363.555	0.105	727110	keystroke	i	n/a
363.615	0.12	727230	keystroke	n	n/a
363.675	0.076	727350	keystroke	g	n/a
363.81	0.09	727620	keystroke	Key.space	n/a
364.005	0.09	728010	keystroke	p	n/a
364.11	0.0605	728220	keystroke	r	n/a
364.216	0.0745	728432	keystroke	o	n/a
364.335	0.0895	728670	keystroke	v	n/a
364.5595	0.0455	729119	keystroke	e	n/a
364.665	0.09	729330	keystroke	Key.space	n/a
365.0545	0.076	730109	keystroke	m	n/a
365.2205	0.0745	730441	keystroke	e	n/a
365.3555	0.105	730711	keystroke	n	n/a
365.475	0.105	730950	keystroke	u	n/a
365.61	0.0895	731220	keystroke	s	n/a
366.0155	0.0895	732031	keystroke	Key.enter	n/a
366.111	8.0055	732222	prompt	n/a	award bowl preview vegetables\n
368.2535	0.001	736507	keystroke	a	n/a
368.341	0.089	736682	keystroke	w	n/a
368.5205	0.059	737041	keystroke	a	n/a
368.55	0.15	737100	keystroke	r	n/a
368.6245	0.091	737249	keystroke	d	n/a
368.8495	0.105	737699	keystroke	Key.space	n/a
369.0895	0.0755	738179	keystroke	b	n/a
369.255	0.075	738510	keystroke	o	n/a
369.391	0.045	738782	keystroke	w	n/a
369.48	0.105	738960	keystroke	l	n/a
369.645	0.12	739290	keystroke	Key.space	n/a
369.885	0.076	739770	keystroke	p	n/a
369.99	0.06	739980	keystroke	r	n/a
370.1555	0.0905	740311	keystroke	e	n/a
370.38	0.0755	740760	keystroke	v	n/a
370.575	0.06	741150	keystroke	i	n/a
370.77	0.0905	741540	keystroke	e	n/a
370.9505	0.075	741901	keystroke	w	n/a
371.0395	0.09	742079	keystroke	Key.space	n/a
371.3855	0.0895	742771	keystroke	b	n/a
371.5055	0.074	743011	keystroke	e	n/a
371.8055	0.0595	743611	keystroke	Key.backspace	n/a
371.955	0.06	743910	keystroke	Key.backspace	n/a
372.6445	0.045	745289	keystroke	v	n/a
372.7345	0.06	745469	keystroke	e	n/a
372.8245	0.06	745649	keystroke	g	n/a
372.915	0.0745	745830	keystroke	e	n/a
373.1105	0.03	746221	keystroke	t	n/a
373.29	0.0755	746580	keystroke	a	n/a
373.3355	0.075	746671	keystroke	b	n/a
373.545	0.06	747090	keystroke	l	n/a
373.6505	0.0745	747301	keystroke	e	n/a
373.815	0.09	747630	keystroke	s	n/a
374.04	0.075	748080	keystroke	Key.enter	n/a
374.1205	6.371	748241	prompt	n/a	herbs powell our henderson\n
374.8345	0.075	749669	keystroke	h	n/a
374.9395	0.091	749879	keystroke	a	n/a
375.3745	0.061	750749	keystroke	Key.backspace	n/a
375.5115	0.089	751023	keystroke	e	n/a
375.7055	0.06	751411	keystroke	r	n/a
375.811	0.0745	751622	keystroke	b	n/a
376.1255	0.0895	752251	keystroke	Key.space	n/a
376.4705	0.045	752941	keystroke	Key.backspace	n/a
376.6055	0.0745	753211	keystroke	s	n/a
376.74	0.09	753480	keystroke	Key.space	n/a
376.95	0.06	753900	keystroke	p	n/a
377.1	0.0605	754200	keystroke	o	n/a
377.161	0.1045	754322	keystroke	w	n/a
377.37	0.046	754740	keystroke	e	n/a
377.5805	0.0595	755161	keystroke	l	n/a
377.715	0.1055	755430	keystroke	l	n/a
377.8805	0.1045	755761	keystroke	Key.space	n/a
378.0905	0.075	756181	keystroke	o	n/a
378.285	0.0755	756570	keystroke	u	n/a
378.39	0.075	756780	keystroke	r	n/a
378.48	0.075	756960	keystroke	Key.space	n/a
378.645	0.075	757290	keystroke	h	n/a
378.885	0.075	757770	keystroke	n	n/a
379.215	0.075	758430	keystroke	Key.backspace	n/a
379.3655	0.0745	758731	keystroke	e	n/a
379.501	0.0745	759002	keystroke	n	n/a
379.591	0.0735	759182	keystroke	d	n/a
379.7405	0.075	759481	keystroke	e	n/a
379.89	0.09	759780	keystroke	r	n/a
380.085	0.075	760170	keystroke	s	n/a
380.16	0.1355	760320	keystroke	o	n/a
380.22	0.105	760440	keystroke	n	n/a
380.43	0.06	760860	keystroke	Key.enter	n/a
380.496	4.6455	760992	prompt	n/a	chevy cord ebooks it's\n
381.21	0.09	762420	keystroke	c	n/a
381.315	0.075	762630	keystroke	h	n/a
381.42	0.0755	762840	keystroke	e	n/a
381.525	0.076	763050	keystroke	v	n/a
381.72	0.06	763440	keystroke	y	n/a
381.8405	0.089	763681	keystroke	Key.space	n/a
381.9455	0.09	763891	keystroke	c	n/a
382.0505	0.075	764101	keystroke	o	n/a
382.186	0.0735	764372	keystroke	r	n/a
382.3505	0.0895	764701	keystroke	d	n/a
382.455	0.075	764910	keystroke	Key.space	n/a
382.74	0.09	765480	keystroke	e	n/a
383.13	0.06	766260	keystroke	b	n/a
383.266	0.059	766532	keystroke	o	n/a
383.385	0.09	766770	keystroke	o	n/a
383.5655	0.1045	767131	keystroke	k	n/a
383.6855	0.0895	767371	keystroke	s	n/a
383.73	0.075	767460	keystroke	Key.space	n/a
383.8955	0.0895	767791	keystroke	i	n/a
384.015	0.06	768030	keystroke	t	n/a
384.21	0.106	768420	keystroke	'	n/a
384.435	0.0755	768870	keystroke	s	n/a
385.08	0.06	770160	keystroke	Key.enter	n/a
385.1515	6.305	770303	prompt	n/a	influences goal decade qualities\n
385.9655	0.135	771931	keystroke	i	n/a
386.0095	0.136	772019	keystroke	n	n/a
386.1755	0.105	772351	keystroke	f	n/a
386.2805	0.075	772561	keystroke	l	n/a
386.3995	0.06	772799	keystroke	e	n/a
386.5055	0.075	773011	keystroke	u	n/a
386.6255	0.075	773251	keystroke	c	n/a
386.8205	0.0745	773641	keystroke	e	n/a
386.9995	0.09	773999	keystroke	s	n/a
387.105	0.09	774210	keystroke	Key.space	n/a
387.2705	0.091	774541	keystroke	g	n/a
387.3905	0.075	774781	keystroke	o	n/a
387.5405	0.075	775081	keystroke	a	n/a
387.6165	0.103	775233	keystroke	l	n/a
387.7505	0.089	775501	keystroke	Key.space	n/a
387.8255	0.075	775651	keystroke	d	n/a
387.99	0.0605	775980	keystroke	e	n/a
388.23	0.0605	776460	keystroke	c	n/a
388.455	0.0755	776910	keystroke	a	n/a
388.8905	0.09	777781	keystroke	d	n/a
389.0855	0.0595	778171	keystroke	e	n/a
389.6855	0.074	779371	keystroke	Key.space	n/a
389.94	0.09	779880	keystroke	q	n/a
390.09	0.105	780180	keystroke	u	n/a
390.3305	0.074	780661	keystroke	a	n/a
390.4645	0.0755	780929	keystroke	l	n/a
390.63	0.09	781260	keystroke	i	n/a
390.78	0.06	781560	keystroke	t	n/a
390.855	0.075	781710	keystroke	i	n/a
390.975	0.09	781950	keystroke	e	n/a
391.185	0.0905	782370	keystroke	s	n/a
391.395	0.06	782790	keystroke	Key.enter	n/a
391.4605	11.2005	782921	prompt	n/a	malta complimentary evanescence pills\n
392.2205	0.0895	784441	keystroke	m	n/a
392.445	0.075	784890	keystroke	a	n/a
392.6705	0.12	785341	keystroke	l	n/a
392.9105	0.045	785821	keystroke	i	n/a
393.2845	0.075	786569	keystroke	Key.backspace	n/a
393.4805	0.074	786961	keystroke	t	n/a
393.735	0.06	787470	keystroke	a	n/a
393.855	0.1045	787710	keystroke	Key.space	n/a
394.08	0.09	788160	keystroke	c	n/a
394.155	0.165	788310	keystroke	o	n/a
394.215	0.1355	788430	keystroke	m	n/a
394.4705	0.105	788941	keystroke	p	n/a
394.5155	0.1045	789031	keystroke	l	n/a
395.085	0.06	790170	keystroke	i	n/a
395.3405	0.1045	790681	keystroke	m	n/a
395.5945	0.0455	791189	keystroke	e	n/a
395.67	0.09	791340	keystroke	n	n/a
395.8955	0.06	791791	keystroke	t	n/a
396.0155	0.075	792031	keystroke	a	n/a
396.24	0.075	792480	keystroke	r	n/a
396.3005	0.075	792601	keystroke	y	n/a
396.4495	0.106	792899	keystroke	Key.space	n/a
397.1995	0.0755	794399	keystroke	e	n/a
397.3495	0.09	794699	keystroke	v	n/a
397.5455	0.045	795091	keystroke	e	n/a
398.0105	0.045	796021	keystroke	Key.backspace	n/a
398.145	0.075	796290	keystroke	a	n/a
398.64	0.09	797280	keystroke	Key.backspace	n/a
399.15	0.09	798300	keystroke	a	n/a
399.465	0.09	798930	keystroke	n	n/a
399.9455	0.0745	799891	keystroke	e	n/a
400.1255	0.089	800251	keystroke	s	n/a
400.3955	0.075	800791	keystroke	c	n/a
400.5905	0.059	801181	keystroke	e	n/a
400.6945	0.0905	801389	keystroke	n	n/a
401.3555	0.0895	802711	keystroke	c	n/a
401.5505	0.0595	803101	keystroke	e	n/a
401.611	0.088	803222	keystroke	Key.space	n/a
401.8055	0.0745	803611	keystroke	p	n/a
402	0.074	804000	keystroke	i	n/a
402.195	0.045	804390	keystroke	l	n/a
402.3	0.0755	804600	keystroke	l	n/a
402.4345	0.0755	804869	keystroke	s	n/a
402.555	0.105	805110	keystroke	Key.enter	n/a
402.674	8.6875	805348	prompt	n/a	custom webcams uploaded belt\n
403.6645	0.09	807329	keystroke	c	n/a
403.785	0.0755	807570	keystroke	u	n/a
403.9055	0.075	807811	keystroke	s	n/a
404.16	0.06	808320	keystroke	t	n/a
404.2345	0.136	808469	keystroke	o	n/a
404.3255	0.0895	808651	keystroke	m	n/a
404.505	0.105	809010	keystroke	Key.space	n/a
404.64	0.075	809280	keystroke	w	n/a
404.835	0.045	809670	keystroke	r	n/a
404.925	0.075	809850	keystroke	b	n/a
405.5845	0.0755	811169	keystroke	Key.backspace	n/a
405.7495	0.09	811499	keystroke	Key.backspace	n/a
405.8995	0.091	811799	keystroke	e	n/a
406.185	0.0745	812370	keystroke	b	n/a
406.38	0.0745	812760	keystroke	c	n/a
406.6345	0.075	813269	keystroke	a	n/a
406.7245	0.076	813449	keystroke	m	n/a
406.8595	0.06	813719	keystroke	e	n/a
406.9495	0.1205	813899	keystroke	Key.space	n/a
408.12	0.06	816240	keystroke	Key.backspace	n/a
408.2555	0.0595	816511	keystroke	Key.backspace	n/a
408.5395	0.091	817079	keystroke	s	n/a
408.6605	0.09	817321	keystroke	Key.space	n/a
409.1255	0.074	818251	keystroke	u	n/a
409.47	0.091	818940	keystroke	p	n/a
409.6495	0.06	819299	keystroke	l	n/a
409.7845	0.0605	819569	keystroke	o	n/a
409.8745	0.06	819749	keystroke	a	n/a
410.0545	0.106	820109	keystroke	d	n/a
410.2805	0.045	820561	keystroke	e	n/a
410.4455	0.075	820891	keystroke	d	n/a
410.5355	0.089	821071	keystroke	Key.space	n/a
410.7005	0.105	821401	keystroke	b	n/a
410.8345	0.09	821669	keystroke	e	n/a
410.9855	0.06	821971	keystroke	l	n/a
411.1205	0.045	822241	keystroke	t	n/a
411.2705	0.089	822541	keystroke	Key.enter	n/a
411.3655	17.1555	822731	prompt	n/a	genesis gmbh indicators immunology\n
412.305	0.075	824610	keystroke	g	n/a
412.3805	0.0745	824761	keystroke	e	n/a
412.515	0.09	825030	keystroke	n	n/a
412.62	0.0605	825240	keystroke	e	n/a
412.83	0.075	825660	keystroke	s	n/a
412.95	0.075	825900	keystroke	i	n/a
413.07	0.075	826140	keystroke	s	n/a
413.22	0.06	826440	keystroke	Key.space	n/a
413.9705	0.059	827941	keystroke	g	n/a
414.1345	0.09	828269	keystroke	m	n/a
415.6195	0.061	831239	keystroke	g	n/a
416.205	0.0895	832410	keystroke	Key.backspace	n/a
416.91	0.09	833820	keystroke	b	n/a
416.985	0.09	833970	keystroke	h	n/a
417.12	0.075	834240	keystroke	Key.space	n/a
418.095	0.136	836190	keystroke	i	n/a
418.17	0.12	836340	keystroke	n	n/a
418.26	0.0895	836520	keystroke	d	n/a
418.3795	0.1055	836759	keystroke	i	n/a
418.514	0.076	837028	keystroke	d	n/a
418.6055	0.075	837211	keystroke	i	n/a
418.7545	0.09	837509	keystroke	c	n/a
418.9805	0.059	837961	keystroke	a	n/a
419.2055	0.059	838411	keystroke	t	n/a
419.2805	0.075	838561	keystroke	o	n/a
419.4005	0.074	838801	keystroke	r	n/a
419.5795	0.09	839159	keystroke	s	n/a
419.6845	0.0905	839369	keystroke	Key.space	n/a
420.81	0.0145	841620	keystroke	Key.backspace	n/a
420.9445	0.045	841889	keystroke	Key.backspace	n/a
421.095	0.045	842190	keystroke	Key.backspace	n/a
421.214	0.076	842428	keystroke	Key.backspace	n/a
422.7445	0.06	845489	keystroke	Key.backspace	n/a
422.895	0.06	845790	keystroke	Key.backspace	n/a
423.0295	0.0905	846059	keystroke	Key.backspace	n/a
423.225	0.0445	846450	keystroke	Key.backspace	n/a
423.39	0.0595	846780	keystroke	Key.backspace	n/a
423.975	0.06	847950	keystroke	c	n/a
424.1995	0.0755	848399	keystroke	a	n/a
424.4395	0.0605	848879	keystroke	t	n/a
424.53	0.06	849060	keystroke	o	n/a
424.62	0.09	849240	keystroke	r	n/a
424.815	0.075	849630	keystroke	s	n/a
424.92	0.09	849840	keystroke	Key.space	n/a
425.924	0.061	851848	keystroke	i	n/a
426.12	0.03	852240	keystroke	m	n/a
426.21	0.12	852420	keystroke	m	n/a
426.465	0.1195	852930	keystroke	u	n/a
426.5545	0.1355	853109	keystroke	n	n/a
426.7645	0.0905	853529	keystroke	o	n/a
426.975	0.089	853950	keystroke	l	n/a
427.1545	0.075	854309	keystroke	o	n/a
428.1	0.0595	856200	keystroke	g	n/a
428.1895	0.075	856379	keystroke	y	n/a
428.4445	0.075	856889	keystroke	Key.enter	n/a
428.537	7.395	857074	prompt	n/a	brilliant describe connector installed\n
429.405	0.09	858810	keystroke	b	n/a
429.615	0.075	859230	keystroke	r	n/a
429.765	0.075	859530	keystroke	i	n/a
429.9605	0.0595	859921	keystroke	l	n/a
430.0945	0.0755	860189	keystroke	l	n/a
430.2895	0.06	860579	keystroke	i	n/a
430.3945	0.075	860789	keystroke	a	n/a
430.5	0.075	861000	keystroke	n	n/a
430.605	0.0755	861210	keystroke	t	n/a
430.695	0.0895	861390	keystroke	Key.space	n/a
430.8745	0.075	861749	keystroke	d	n/a
431.0395	0.075	862079	keystroke	e	n/a
431.25	0.0745	862500	keystroke	s	n/a
431.52	0.09	863040	keystroke	c	n/a
431.715	0.06	863430	keystroke	r	n/a
431.8495	0.0605	863699	keystroke	i	n/a
432.0595	0.0895	864119	keystroke	b	n/a
432.194	0.016	864388	keystroke	e	n/a
432.3445	0.09	864689	keystroke	Key.space	n/a
433.08	0.0895	866160	keystroke	c	n/a
433.215	0.0595	866430	keystroke	o	n/a
433.4245	0.0605	866849	keystroke	n	n/a
433.545	0.09	867090	keystroke	n	n/a
433.6495	0.0455	867299	keystroke	e	n/a
433.7995	0.0905	867599	keystroke	c	n/a
433.9945	0.075	867989	keystroke	t	n/a
434.0845	0.076	868169	keystroke	o	n/a
434.189	0.0905	868378	keystroke	r	n/a
434.2945	0.0905	868589	keystroke	Key.space	n/a
434.58	0.1205	869160	keystroke	i	n/a
434.67	0.1045	869340	keystroke	n	n/a
434.805	0.045	869610	keystroke	s	n/a
435.015	0.09	870030	keystroke	t	n/a
435.24	0.0755	870480	keystroke	a	n/a
435.36	0.06	870720	keystroke	l	n/a
435.495	0.0905	870990	keystroke	l	n/a
435.6	0.075	871200	keystroke	e	n/a
435.75	0.105	871500	keystroke	d	n/a
435.87	0.06	871740	keystroke	Key.enter	n/a
435.937	8.019	871874	prompt	n/a	moment afternoon legacy ebony\n
436.605	0.09	873210	keystroke	m	n/a
436.725	0.075	873450	keystroke	o	n/a
436.9345	0.09	873869	keystroke	m	n/a
437.3395	0.06	874679	keystroke	m	n/a
437.52	0.045	875040	keystroke	e	n/a
437.895	0.03	875790	keystroke	Key.backspace	n/a
438.014	0.091	876028	keystroke	Key.backspace	n/a
438.1655	0.0895	876331	keystroke	e	n/a
438.3	0.0755	876600	keystroke	n	n/a
438.4055	0.075	876811	keystroke	t	n/a
438.5395	0.0755	877079	keystroke	Key.space	n/a
438.7805	0.09	877561	keystroke	a	n/a
438.975	0.06	877950	keystroke	f	n/a
439.11	0.0895	878220	keystroke	t	n/a
439.214	0.0765	878428	keystroke	e	n/a
439.3655	0.105	878731	keystroke	r	n/a
439.4395	0.076	878879	keystroke	n	n/a
439.6495	0.0455	879299	keystroke	n	n/a
439.8445	0.03	879689	keystroke	o	n/a
440.145	0.0445	880290	keystroke	Key.backspace	n/a
440.265	0.075	880530	keystroke	Key.backspace	n/a
440.775	0.045	881550	keystroke	o	n/a
440.925	0.15	881850	keystroke	o	n/a
441.015	0.105	882030	keystroke	n	n/a
441.1945	0.105	882389	keystroke	Key.space	n/a
441.555	0.075	883110	keystroke	l	n/a
441.675	0.075	883350	keystroke	e	n/a
441.8555	0.0595	883711	keystroke	g	n/a
441.96	0.12	883920	keystroke	a	n/a
442.245	0.105	884490	keystroke	c	n/a
442.395	0.105	884790	keystroke	y	n/a
442.56	0.105	885120	keystroke	Key.space	n/a
443.1595	0.0155	886319	keystroke	e	n/a
443.34	0.075	886680	keystroke	b	n/a
443.49	0.1195	886980	keystroke	o	n/a
443.5645	0.1205	887129	keystroke	n	n/a
443.67	0.075	887340	keystroke	y	n/a
443.895	0.06	887790	keystroke	Key.enter	n/a
443.9585	9.253	887917	prompt	n/a	didn't phil infrared minneapolis\n
444.6905	0.0745	889381	keystroke	d	n/a
444.81	0.0745	889620	keystroke	i	n/a
444.9295	0.06	889859	keystroke	d	n/a
445.0195	0.075	890039	keystroke	n	n/a
445.5155	0.0445	891031	keystroke	'	n/a
445.6195	0.045	891239	keystroke	t	n/a
445.755	0.075	891510	keystroke	Key.space	n/a
446.79	0.015	893580	keystroke	p	n/a
447.1055	0.075	894211	keystroke	h	n/a
447.24	0.075	894480	keystroke	i	n/a
447.42	0.075	894840	keystroke	l	n/a
447.525	0.105	895050	keystroke	Key.space	n/a
448.2895	0.0905	896579	keystroke	i	n/a
448.3345	0.1355	896669	keystroke	n	n/a
448.53	0.075	897060	keystroke	f	n/a
448.68	0.09	897360	keystroke	r	n/a
448.9355	0.0745	897871	keystroke	a	n/a
449.025	0.09	898050	keystroke	r	n/a
449.16	0.06	898320	keystroke	e	n/a
449.2955	0.1195	898591	keystroke	d	n/a
449.4	0.09	898800	keystroke	Key.space	n/a
449.67	0.105	899340	keystroke	m	n/a
449.9095	0.06	899819	keystroke	i	n/a
450.09	0.09	900180	keystroke	n	n/a
450.255	0.0905	900510	keystroke	n	n/a
450.405	0.09	900810	keystroke	e	n/a
450.675	0.075	901350	keystroke	a	n/a
451.0205	0.105	902041	keystroke	p	n/a
451.215	0.09	902430	keystroke	o	n/a
451.3955	0.0745	902791	keystroke	l	n/a
451.575	0.09	903150	keystroke	i	n/a
451.846	0.074	903692	keystroke	s	n/a
453.134	0.076	906268	keystroke	Key.enter	n/a
453.2265	5.49	906453	prompt	n/a	social donated thai devon\n
453.915	0.075	907830	keystroke	s	n/a
454.035	0.075	908070	keystroke	o	n/a
454.1705	0.0595	908341	keystroke	c	n/a
454.245	0.075	908490	keystroke	i	n/a
454.41	0.06	908820	keystroke	a	n/a
454.486	0.104	908972	keystroke	l	n/a
454.9795	0.09	909959	keystroke	Key.space	n/a
455.415	0.015	910830	keystroke	d	n/a
456.1505	0.0895	912301	keystroke	o	n/a
456.194	0.106	912388	keystroke	n	n/a
456.315	0.075	912630	keystroke	a	n/a
456.51	0.045	913020	keystroke	t	n/a
456.57	0.0745	913140	keystroke	e	n/a
456.7355	0.0895	913471	keystroke	d	n/a
456.8395	0.1055	913679	keystroke	Key.space	n/a
457.0505	0.044	914101	keystroke	t	n/a
457.1095	0.106	914219	keystroke	h	n/a
457.2605	0.09	914521	keystroke	a	n/a
457.3955	0.0895	914791	keystroke	i	n/a
457.56	0.105	915120	keystroke	Key.space	n/a
457.725	0.0745	915450	keystroke	d	n/a
457.889	0.0605	915778	keystroke	e	n/a
458.1155	0.0895	916231	keystroke	v	n/a
458.235	0.1505	916470	keystroke	o	n/a
458.2955	0.1495	916591	keystroke	n	n/a
458.61	0.105	917220	keystroke	Key.enter	n/a
458.7205	6.281	917441	prompt	n/a	lines thehun settlement carry\n
459.4045	0.061	918809	keystroke	l	n/a
459.6145	0.106	919229	keystroke	i	n/a
459.6755	0.15	919351	keystroke	n	n/a
459.7655	0.074	919531	keystroke	e	n/a
459.9595	0.091	919919	keystroke	s	n/a
460.0205	0.119	920041	keystroke	Key.space	n/a
460.2005	0.074	920401	keystroke	t	n/a
460.3205	0.09	920641	keystroke	h	n/a
460.441	0.0745	920882	keystroke	e	n/a
460.62	0.06	921240	keystroke	h	n/a
460.785	0.1205	921570	keystroke	u	n/a
460.8615	0.1035	921723	keystroke	n	n/a
461.04	0.105	922080	keystroke	Key.space	n/a
461.175	0.105	922350	keystroke	s	n/a
461.3845	0.076	922769	keystroke	e	n/a
461.7455	0.015	923491	keystroke	t	n/a
461.8355	0.09	923671	keystroke	t	n/a
461.9555	0.0895	923911	keystroke	l	n/a
462.585	0.06	925170	keystroke	e	n/a
462.72	0.0755	925440	keystroke	m	n/a
462.81	0.0755	925620	keystroke	e	n/a
462.915	0.0755	925830	keystroke	n	n/a
463.035	0.075	926070	keystroke	t	n/a
463.1555	0.0745	926311	keystroke	Key.space	n/a
464.0545	0.075	928109	keystroke	c	n/a
464.1745	0.09	928349	keystroke	a	n/a
464.4295	0.045	928859	keystroke	r	n/a
464.58	0.0905	929160	keystroke	r	n/a
464.6245	0.09	929249	keystroke	y	n/a
464.91	0.09	929820	keystroke	Key.enter	n/a
465.0055	9.251	930011	prompt	n/a	threads christina sole experienced\n
465.7505	0.0735	931501	keystroke	t	n/a
465.8705	0.0895	931741	keystroke	h	n/a
466.05	0.075	932100	keystroke	e	n/a
466.575	0.045	933150	keystroke	Key.backspace	n/a
466.59	0.015	933180	keystroke	=	n/a
466.664	0.076	933328	keystroke	r	n/a
466.844	0.091	933688	keystroke	e	n/a
467.1145	0.0455	934229	keystroke	Key.backspace	n/a
467.25	0.059	934500	keystroke	Key.backspace	n/a
467.384	0.076	934768	keystroke	Key.backspace	n/a
467.73	0.09	935460	keystroke	r	n/a
467.94	0.06	935880	keystroke	e	n/a
468.149	0.0765	936298	keystroke	a	n/a
468.3755	0.059	936751	keystroke	d	n/a
468.5395	0.09	937079	keystroke	s	n/a
468.645	0.1045	937290	keystroke	Key.space	n/a
468.78	0.1055	937560	keystroke	c	n/a
468.93	0.0745	937860	keystroke	h	n/a
469.02	0.06	938040	keystroke	r	n/a
469.17	0.0605	938340	keystroke	i	n/a
469.26	0.06	938520	keystroke	s	n/a
469.5	0.06	939000	keystroke	t	n/a
469.65	0.105	939300	keystroke	i	n/a
469.7105	0.105	939421	keystroke	n	n/a
469.845	0.045	939690	keystroke	a	n/a
469.92	0.105	939840	keystroke	Key.space	n/a
470.115	0.075	940230	keystroke	d	n/a
470.4895	0.061	940979	keystroke	Key.backspace	n/a
470.655	0.0445	941310	keystroke	Key.backspace	n/a
471.1345	0.0755	942269	keystroke	Key.space	n/a
471.3005	0.105	942601	keystroke	s	n/a
471.36	0.075	942720	keystroke	o	n/a
471.525	0.075	943050	keystroke	l	n/a
471.63	0.0605	943260	keystroke	e	n/a
471.7045	0.0905	943409	keystroke	Key.space	n/a
472.11	0.075	944220	keystroke	e	n/a
472.29	0.1205	944580	keystroke	x	n/a
472.6655	0.06	945331	keystroke	p	n/a
472.8455	0.044	945691	keystroke	e	n/a
472.995	0.0755	945990	keystroke	r	n/a
473.1145	0.075	946229	keystroke	i	n/a
473.2045	0.0455	946409	keystroke	e	n/a
473.3255	0.105	946651	keystroke	n	n/a
473.4005	0.074	946801	keystroke	c	n/a
473.5655	0.0895	947131	keystroke	e	n/a
473.715	0.105	947430	keystroke	d	n/a
474.195	0.06	948390	keystroke	Key.enter	n/a
474.262	4.6445	948524	prompt	n/a	array misc operates duties\n
474.9455	0.0895	949891	keystroke	a	n/a
475.185	0.0605	950370	keystroke	r	n/a
475.335	0.105	950670	keystroke	r	n/a
475.575	0.075	951150	keystroke	a	n/a
475.635	0.0755	951270	keystroke	y	n/a
475.7845	0.135	951569	keystroke	Key.space	n/a
475.9045	0.09	951809	keystroke	m	n/a
476.1005	0.0745	952201	keystroke	i	n/a
476.1895	0.061	952379	keystroke	s	n/a
476.3705	0.089	952741	keystroke	c	n/a
476.4895	0.091	952979	keystroke	Key.space	n/a
476.775	0.06	953550	keystroke	o	n/a
476.9255	0.0745	953851	keystroke	p	n/a
477.03	0.045	954060	keystroke	e	n/a
477.165	0.076	954330	keystroke	r	n/a
477.3905	0.0595	954781	keystroke	a	n/a
477.4655	0.0595	954931	keystroke	t	n/a
477.615	0.06	955230	keystroke	e	n/a
477.7655	0.09	955531	keystroke	s	n/a
477.87	0.075	955740	keystroke	Key.space	n/a
478.005	0.1055	956010	keystroke	d	n/a
478.1705	0.1045	956341	keystroke	u	n/a
478.305	0.075	956610	keystroke	t	n/a
478.4095	0.076	956819	keystroke	i	n/a
478.5295	0.0755	957059	keystroke	e	n/a
478.7105	0.089	957421	keystroke	s	n/a
478.8295	0.075	957659	keystroke	Key.enter	n/a
478.91	9.2065	957820	prompt	n/a	jefferson funny protest alphabetical\n
479.8955	0.06	959791	keystroke	j	n/a
480.0305	0.075	960061	keystroke	e	n/a
480.1645	0.0605	960329	keystroke	f	n/a
480.2695	0.06	960539	keystroke	f	n/a
480.4205	0.0745	960841	keystroke	e	n/a
480.585	0.09	961170	keystroke	r	n/a
480.795	0.105	961590	keystroke	s	n/a
480.855	0.15	961710	keystroke	o	n/a
480.915	0.1205	961830	keystroke	n	n/a
481.1395	0.1055	962279	keystroke	Key.space	n/a
481.32	0.09	962640	keystroke	f	n/a
481.47	0.059	962940	keystroke	u	n/a
481.665	0.03	963330	keystroke	n	n/a
481.815	0.0905	963630	keystroke	n	n/a
481.9655	0.0745	963931	keystroke	y	n/a
482.1	0.105	964200	keystroke	Key.space	n/a
482.7305	0.075	965461	keystroke	p	n/a
482.8505	0.075	965701	keystroke	r	n/a
482.9405	0.06	965881	keystroke	o	n/a
483.2255	0.09	966451	keystroke	t	n/a
483.3755	0.075	966751	keystroke	e	n/a
483.5695	0.076	967139	keystroke	s	n/a
483.6455	0.09	967291	keystroke	t	n/a
483.795	0.12	967590	keystroke	Key.space	n/a
485.341	0.059	970682	keystroke	a	n/a
485.5055	0.0595	971011	keystroke	l	n/a
485.67	0.076	971340	keystroke	p	n/a
485.925	0.075	971850	keystroke	h	n/a
486.7655	0.089	973531	keystroke	a	n/a
486.9005	0.075	973801	keystroke	b	n/a
487.02	0.0745	974040	keystroke	e	n/a
487.2305	0.075	974461	keystroke	t	n/a
487.3645	0.076	974729	keystroke	i	n/a
487.5305	0.045	975061	keystroke	c	n/a
487.74	0.0755	975480	keystroke	a	n/a
487.86	0.0745	975720	keystroke	l	n/a
488.0695	0.045	976139	keystroke	Key.enter	n/a
488.1245	6.292	976249	prompt	n/a	mating slave scenes bias\n
488.865	0.0755	977730	keystroke	m	n/a
489.0295	0.061	978059	keystroke	a	n/a
489.2545	0.0615	978509	keystroke	t	n/a
489.345	0.1355	978690	keystroke	i	n/a
489.421	0.0885	978842	keystroke	n	n/a
489.4655	0.089	978931	keystroke	g	n/a
489.6145	0.075	979229	keystroke	Key.space	n/a
489.7345	0.075	979469	keystroke	s	n/a
489.825	0.075	979650	keystroke	l	n/a
489.96	0.0595	979920	keystroke	a	n/a
490.2005	0.075	980401	keystroke	c	n/a
490.4095	0.06	980819	keystroke	e	n/a
490.53	0.09	981060	keystroke	Key.space	n/a
491.085	0.06	982170	keystroke	Key.backspace	n/a
491.295	0.045	982590	keystroke	Key.backspace	n/a
491.3995	0.076	982799	keystroke	Key.backspace	n/a
491.925	0.0745	983850	keystroke	v	n/a
492.0295	0.06	984059	keystroke	e	n/a
492.1195	0.1205	984239	keystroke	Key.space	n/a
492.255	0.0905	984510	keystroke	s	n/a
492.4955	0.0895	984991	keystroke	c	n/a
492.66	0.0755	985320	keystroke	e	n/a
492.7805	0.0595	985561	keystroke	n	n/a
492.9005	0.09	985801	keystroke	e	n/a
493.0805	0.0745	986161	keystroke	s	n/a
493.185	0.0905	986370	keystroke	Key.space	n/a
493.4705	0.105	986941	keystroke	b	n/a
493.905	0.075	987810	keystroke	i	n/a
494.07	0.06	988140	keystroke	a	n/a
494.2495	0.0765	988499	keystroke	s	n/a
494.3395	0.075	988679	keystroke	Key.enter	n/a
494.422	5.875	988844	prompt	n/a	latino bright occupied flying\n
495.1655	0.09	990331	keystroke	l	n/a
495.2695	0.091	990539	keystroke	a	n/a
495.63	0.076	991260	keystroke	t	n/a
495.765	0.135	991530	keystroke	i	n/a
495.8855	0.1945	991771	keystroke	n	n/a
495.991	0.149	991982	keystroke	o	n/a
496.1995	0.0905	992399	keystroke	Key.space	n/a
496.3955	0.1055	992791	keystroke	b	n/a
496.5455	0.0755	993091	keystroke	r	n/a
496.6355	0.0595	993271	keystroke	i	n/a
496.71	0.1055	993420	keystroke	g	n/a
496.8305	0.09	993661	keystroke	h	n/a
496.9215	0.074	993843	keystroke	t	n/a
497.0245	0.105	994049	keystroke	Key.space	n/a
497.55	0.0905	995100	keystroke	o	n/a
497.715	0.0755	995430	keystroke	c	n/a
497.865	0.105	995730	keystroke	c	n/a
497.985	0.09	995970	keystroke	u	n/a
498.21	0.09	996420	keystroke	p	n/a
498.4195	0.0615	996839	keystroke	i	n/a
498.5255	0.075	997051	keystroke	e	n/a
498.6905	0.12	997381	keystroke	d	n/a
498.7955	0.075	997591	keystroke	Key.space	n/a
499.0805	0.0745	998161	keystroke	f	n/a
499.185	0.076	998370	keystroke	l	n/a
499.4255	0.0745	998851	keystroke	y	n/a
499.635	0.0905	999270	keystroke	i	n/a
499.6805	0.1195	999361	keystroke	n	n/a
499.7855	0.0595	999571	keystroke	g	n/a
500.2055	0.09	1000411	keystroke	Key.enter	n/a
500.302	8.4995	1000604	prompt	n/a	harvard responses debate promising\n
501.1505	0.074	1002301	keystroke	h	n/a
501.2555	0.104	1002511	keystroke	a	n/a
501.4645	0.046	1002929	keystroke	r	n/a
501.5695	0.09	1003139	keystroke	v	n/a
501.8855	0.09	1003771	keystroke	a	n/a
502.1405	0.059	1004281	keystroke	r	n/a
502.2895	0.1055	1004579	keystroke	d	n/a
502.365	0.075	1004730	keystroke	Key.space	n/a
502.545	0.0755	1005090	keystroke	r	n/a
502.7105	0.075	1005421	keystroke	e	n/a
502.92	0.0755	1005840	keystroke	s	n/a
503.025	0.06	1006050	keystroke	p	n/a
503.2055	0.119	1006411	keystroke	o	n/a
503.2955	0.119	1006591	keystroke	n	n/a
503.3995	0.076	1006799	keystroke	s	n/a
503.6105	0.044	1007221	keystroke	e	n/a
503.7605	0.0895	1007521	keystroke	s	n/a
503.8795	0.09	1007759	keystroke	Key.space	n/a
504.2105	0.075	1008421	keystroke	d	n/a
504.39	0.075	1008780	keystroke	e	n/a
504.5105	0.0755	1009021	keystroke	b	n/a
504.6305	0.089	1009261	keystroke	a	n/a
504.7355	0.075	1009471	keystroke	t	n/a
504.8845	0.061	1009769	keystroke	e	n/a
505.0195	0.075	1010039	keystroke	Key.space	n/a
505.3505	0.075	1010701	keystroke	p	n/a
505.5005	0.045	1011001	keystroke	r	n/a
505.6355	0.105	1011271	keystroke	o	n/a
505.785	0.1205	1011570	keystroke	m	n/a
505.9795	0.076	1011959	keystroke	o	n/a
506.1155	0.0605	1012231	keystroke	s	n/a
506.61	0.045	1013220	keystroke	Key.backspace	n/a
506.7295	0.0905	1013459	keystroke	Key.backspace	n/a
507.181	0.074	1014362	keystroke	i	n/a
507.315	0.09	1014630	keystroke	s	n/a
507.39	0.0755	1014780	keystroke	i	n/a
507.5555	0.1055	1015111	keystroke	o	n/a
507.615	0.12	1015230	keystroke	n	n/a
508.0205	0.0595	1016041	keystroke	Key.backspace	n/a
508.155	0.0605	1016310	keystroke	Key.backspace	n/a
508.396	0.0595	1016792	keystroke	n	n/a
508.4855	0.0445	1016971	keystroke	g	n/a
508.755	0.045	1017510	keystroke	Key.enter	n/a
508.806	5.4705	1017612	prompt	n/a	technical alien holland intl\n
509.6265	0.059	1019253	keystroke	t	n/a
509.7445	0.0905	1019489	keystroke	e	n/a
509.925	0.0905	1019850	keystroke	c	n/a
510.03	0.06	1020060	keystroke	h	n/a
510.18	0.15	1020360	keystroke	n	n/a
510.27	0.1055	1020540	keystroke	i	n/a
510.3895	0.06	1020779	keystroke	c	n/a
510.6155	0.0595	1021231	keystroke	a	n/a
510.6895	0.076	1021379	keystroke	l	n/a
510.8095	0.12	1021619	keystroke	Key.space	n/a
510.9905	0.089	1021981	keystroke	a	n/a
511.0945	0.075	1022189	keystroke	l	n/a
511.2605	0.0905	1022521	keystroke	i	n/a
511.396	0.089	1022792	keystroke	e	n/a
511.515	0.136	1023030	keystroke	n	n/a
511.605	0.1205	1023210	keystroke	Key.space	n/a
512.28	0.0755	1024560	keystroke	h	n/a
512.3705	0.075	1024741	keystroke	o	n/a
512.5355	0.0745	1025071	keystroke	l	n/a
512.6705	0.0595	1025341	keystroke	l	n/a
512.805	0.0455	1025610	keystroke	a	n/a
512.925	0.075	1025850	keystroke	n	n/a
513.0455	0.105	1026091	keystroke	d	n/a
513.105	0.0755	1026210	keystroke	Key.space	n/a
513.3005	0.135	1026601	keystroke	i	n/a
513.3755	0.12	1026751	keystroke	n	n/a
513.4805	0.075	1026961	keystroke	t	n/a
513.5855	0.12	1027171	keystroke	l	n/a
514.23	0.045	1028460	keystroke	Key.enter	n/a
514.2805	8.291	1028561	prompt	n/a	soldiers samsung finger hughes\n
515.0405	0.0745	1030081	keystroke	s	n/a
515.1455	0.06	1030291	keystroke	o	n/a
515.3105	0.074	1030621	keystroke	l	n/a
515.5195	0.091	1031039	keystroke	d	n/a
515.6395	0.06	1031279	keystroke	i	n/a
515.7445	0.076	1031489	keystroke	e	n/a
515.9105	0.0745	1031821	keystroke	r	n/a
516.12	0.075	1032240	keystroke	s	n/a
516.18	0.09	1032360	keystroke	Key.space	n/a
516.3305	0.0745	1032661	keystroke	s	n/a
516.51	0.075	1033020	keystroke	a	n/a
516.6155	0.0905	1033231	keystroke	m	n/a
516.7355	0.09	1033471	keystroke	s	n/a
516.945	0.1205	1033890	keystroke	u	n/a
517.0055	0.1495	1034011	keystroke	n	n/a
517.1105	0.0895	1034221	keystroke	g	n/a
517.2605	0.12	1034521	keystroke	Key.space	n/a
519.497	0.013	1038994	keystroke	f	n/a
519.525	0.106	1039050	keystroke	i	n/a
519.57	0.106	1039140	keystroke	n	n/a
519.796	0.059	1039592	keystroke	g	n/a
519.886	0.075	1039772	keystroke	e	n/a
520.0505	0.09	1040101	keystroke	r	n/a
520.1555	0.09	1040311	keystroke	Key.space	n/a
520.845	0.06	1041690	keystroke	h	n/a
520.995	0.09	1041990	keystroke	u	n/a
521.115	0.0755	1042230	keystroke	g	n/a
521.2055	0.0895	1042411	keystroke	h	n/a
521.34	0.0905	1042680	keystroke	e	n/a
521.5205	0.09	1043041	keystroke	s	n/a
522.5105	0.06	1045021	keystroke	Key.enter	n/a
522.575	9.1615	1045150	prompt	n/a	marriage barbie myth violin\n
523.3055	0.075	1046611	keystroke	m	n/a
523.3955	0.105	1046791	keystroke	a	n/a
523.635	0.06	1047270	keystroke	r	n/a
523.785	0.09	1047570	keystroke	r	n/a
523.965	0.076	1047930	keystroke	i	n/a
524.1	0.09	1048200	keystroke	a	n/a
524.25	0.06	1048500	keystroke	g	n/a
524.37	0.06	1048740	keystroke	e	n/a
524.475	0.09	1048950	keystroke	Key.space	n/a
524.895	0.09	1049790	keystroke	b	n/a
525.015	0.075	1050030	keystroke	a	n/a
525.2255	0.0595	1050451	keystroke	r	n/a
525.27	0.09	1050540	keystroke	b	n/a
525.465	0.09	1050930	keystroke	i	n/a
525.6005	0.0595	1051201	keystroke	e	n/a
525.69	0.105	1051380	keystroke	Key.space	n/a
526.08	0.075	1052160	keystroke	m	n/a
526.485	0.045	1052970	keystroke	i	n/a
526.86	0.075	1053720	keystroke	Key.backspace	n/a
527.1	0.0755	1054200	keystroke	y	n/a
527.37	0.045	1054740	keystroke	t	n/a
527.4905	0.09	1054981	keystroke	h	n/a
527.5955	0.12	1055191	keystroke	Key.space	n/a
528.8105	0.09	1057621	keystroke	v	n/a
529.0055	0.075	1058011	keystroke	i	n/a
529.1695	0.091	1058339	keystroke	l	n/a
529.4555	0.179	1058911	keystroke	i	n/a
529.5745	0.121	1059149	keystroke	n	n/a
530.2045	0.0605	1060409	keystroke	Key.backspace	n/a
530.355	0.075	1060710	keystroke	Key.backspace	n/a
530.475	0.105	1060950	keystroke	Key.backspace	n/a
531.075	0.06	1062150	keystroke	o	n/a
531.21	0.105	1062420	keystroke	l	n/a
531.4355	0.1045	1062871	keystroke	i	n/a
531.4655	0.105	1062931	keystroke	n	n/a
531.6755	0.0595	1063351	keystroke	Key.enter	n/a
531.7405	6.5065	1063481	prompt	n/a	customs indian sphere literature\n
532.5145	0.076	1065029	keystroke	c	n/a
532.6195	0.0755	1065239	keystroke	u	n/a
532.755	0.06	1065510	keystroke	s	n/a
532.98	0.06	1065960	keystroke	t	n/a
533.0855	0.1345	1066171	keystroke	o	n/a
533.16	0.1205	1066320	keystroke	m	n/a
533.265	0.09	1066530	keystroke	s	n/a
533.415	0.1055	1066830	keystroke	Key.space	n/a
533.7	0.09	1067400	keystroke	i	n/a
533.7605	0.1045	1067521	keystroke	n	n/a
533.85	0.0755	1067700	keystroke	d	n/a
533.955	0.09	1067910	keystroke	i	n/a
534.12	0.06	1068240	keystroke	a	n/a
534.195	0.135	1068390	keystroke	n	n/a
534.255	0.165	1068510	keystroke	Key.space	n/a
534.48	0.09	1068960	keystroke	s	n/a
534.63	0.09	1069260	keystroke	p	n/a
534.9	0.0755	1069800	keystroke	h	n/a
535.02	0.06	1070040	keystroke	e	n/a
535.185	0.075	1070370	keystroke	r	n/a
535.335	0.0905	1070670	keystroke	e	n/a
535.44	0.0895	1070880	keystroke	Key.space	n/a
535.9655	0.089	1071931	keystroke	l	n/a
536.2655	0.06	1072531	keystroke	i	n/a
536.5655	0.0745	1073131	keystroke	t	n/a
536.82	0.09	1073640	keystroke	e	n/a
537.03	0.0745	1074060	keystroke	r	n/a
537.2255	0.09	1074451	keystroke	a	n/a
537.4955	0.0595	1074991	keystroke	t	n/a
537.5855	0.0755	1075171	keystroke	u	n/a
537.675	0.0755	1075350	keystroke	r	n/a
537.855	0.0755	1075710	keystroke	e	n/a
538.186	0.059	1076372	keystroke	Key.enter	n/a
538.26	7.8325	1076520	prompt	n/a	sometimes belle clean binary\n
539.0555	0.075	1078111	keystroke	s	n/a
539.1905	0.15	1078381	keystroke	o	n/a
539.2505	0.15	1078501	keystroke	m	n/a
539.3255	0.0595	1078651	keystroke	e	n/a
539.5505	0.06	1079101	keystroke	t	n/a
539.655	0.12	1079310	keystroke	i	n/a
539.7305	0.1345	1079461	keystroke	m	n/a
539.82	0.0755	1079640	keystroke	e	n/a
540	0.09	1080000	keystroke	s	n/a
540.06	0.075	1080120	keystroke	Key.space	n/a
540.27	0.09	1080540	keystroke	b	n/a
540.391	0.074	1080782	keystroke	e	n/a
540.555	0.0605	1081110	keystroke	l	n/a
540.69	0.0755	1081380	keystroke	l	n/a
540.885	0.0605	1081770	keystroke	e	n/a
541.02	0.09	1082040	keystroke	Key.space	n/a
541.396	0.075	1082792	keystroke	c	n/a
541.4995	0.0765	1082999	keystroke	l	n/a
541.666	0.0595	1083332	keystroke	a	n/a
541.815	0.1655	1083630	keystroke	i	n/a
541.9355	0.134	1083871	keystroke	n	n/a
542.1755	0.1045	1084351	keystroke	Key.space	n/a
542.445	0.075	1084890	keystroke	Key.backspace	n/a
542.595	0.06	1085190	keystroke	Key.backspace	n/a
542.731	0.0595	1085462	keystroke	Key.backspace	n/a
542.865	0.12	1085730	keystroke	Key.backspace	n/a
543.09	0.1055	1086180	keystroke	e	n/a
543.3595	0.061	1086719	keystroke	a	n/a
543.511	0.1345	1087022	keystroke	n	n/a
543.5855	0.135	1087171	keystroke	Key.space	n/a
544.5155	0.0905	1089031	keystroke	b	n/a
544.6505	0.12	1089301	keystroke	i	n/a
544.725	0.09	1089450	keystroke	n	n/a
544.845	0.09	1089690	keystroke	a	n/a
545.085	0.06	1090170	keystroke	r	n/a
545.91	0.0605	1091820	keystroke	y	n/a
546.015	0.0755	1092030	keystroke	Key.enter	n/a
546.098	8.5885	1092196	prompt	n/a	newman budgets thriller welsh\n
546.886	0.0745	1093772	keystroke	n	n/a
547.051	0.0735	1094102	keystroke	e	n/a
547.2	0.091	1094400	keystroke	w	n/a
547.3205	0.09	1094641	keystroke	m	n/a
547.4555	0.074	1094911	keystroke	a	n/a
547.5745	0.136	1095149	keystroke	n	n/a
547.6495	0.136	1095299	keystroke	Key.space	n/a
548.1	0.15	1096200	keystroke	b	n/a
548.2355	0.1045	1096471	keystroke	u	n/a
