onset	duration	sample	value	key	prompt_text
13.4545	11.978	26909	prompt	n/a	the quick brown fox jumps over a lazy dog\n
16.4175	0.071	32835	keystroke_t	t	n/a
16.4735	0.075	32947	keystroke_h	h	n/a
16.5935	0.15	33187	keystroke_e	e	n/a
16.7135	0.09	33427	keystroke_Key.space	Key.space	n/a
16.9985	0.12	33997	keystroke_q	q	n/a
17.1335	0.135	34267	keystroke_u	u	n/a
17.2235	0.15	34447	keystroke_i	i	n/a
17.3885	0.105	34777	keystroke_c	c	n/a
17.5385	0.106	35077	keystroke_k	k	n/a
17.8535	0.12	35707	keystroke_Key.space	Key.space	n/a
18.0945	0.09	36189	keystroke_b	b	n/a
18.2595	0.135	36519	keystroke_r	r	n/a
18.3795	0.104	36759	keystroke_o	o	n/a
18.4995	0.134	36999	keystroke_w	w	n/a
18.6345	0.09	37269	keystroke_n	n	n/a
18.8285	0.135	37657	keystroke_Key.space	Key.space	n/a
19.0545	0.104	38109	keystroke_f	f	n/a
19.1435	0.105	38287	keystroke_o	o	n/a
19.3245	0.12	38649	keystroke_x	x	n/a
19.5635	0.09	39127	keystroke_Key.space	Key.space	n/a
20.165	0.074	40330	keystroke_j	j	n/a
20.359	0.045	40718	keystroke_u	u	n/a
20.599	0.075	41198	keystroke_m	m	n/a
20.794	0.105	41588	keystroke_p	p	n/a
20.989	0.15	41978	keystroke_s	s	n/a
21.229	0.121	42458	keystroke_Key.space	Key.space	n/a
21.41	0.09	42820	keystroke_o	o	n/a
21.634	0.121	43268	keystroke_v	v	n/a
21.77	0.12	43540	keystroke_e	e	n/a
21.829	0.181	43658	keystroke_r	r	n/a
21.934	0.136	43868	keystroke_Key.space	Key.space	n/a
22.3545	0.165	44709	keystroke_a	a	n/a
22.6995	0.135	45399	keystroke_Key.space	Key.space	n/a
22.8795	0.135	45759	keystroke_l	l	n/a
23.0295	0.105	46059	keystroke_a	a	n/a
23.269	0.135	46538	keystroke_z	z	n/a
23.57	0.089	47140	keystroke_y	y	n/a
23.749	0.12	47498	keystroke_Key.space	Key.space	n/a
24.514	0.09	49028	keystroke_d	d	n/a
24.634	0.091	49268	keystroke_o	o	n/a
24.754	0.075	49508	keystroke_g	g	n/a
25.369	0.06	50738	keystroke_Key.enter	Key.enter	n/a
25.44	7.972	50880	prompt	n/a	serial pixels libraries slide\n
26.434	0.18	52868	keystroke_s	s	n/a
26.584	0.135	53168	keystroke_e	e	n/a
26.779	0.151	53558	keystroke_r	r	n/a
26.899	0.12	53798	keystroke_i	i	n/a
27.064	0.09	54128	keystroke_a	a	n/a
27.17	0.089	54340	keystroke_l	l	n/a
27.394	0.12	54788	keystroke_Key.space	Key.space	n/a
27.649	0.105	55298	keystroke_p	p	n/a
27.755	0.104	55510	keystroke_i	i	n/a
28.024	0.06	56048	keystroke_x	x	n/a
28.264	0.135	56528	keystroke_e	e	n/a
28.429	0.12	56858	keystroke_l	l	n/a
28.609	0.075	57218	keystroke_s	s	n/a
29.404	0.12	58808	keystroke_Key.space	Key.space	n/a
29.585	0.164	59170	keystroke_l	l	n/a
29.705	0.104	59410	keystroke_i	i	n/a
29.914	0.106	59828	keystroke_b	b	n/a
30.124	0.121	60248	keystroke_r	r	n/a
30.499	0.151	60998	keystroke_a	a	n/a
30.77	0.104	61540	keystroke_r	r	n/a
30.89	0.135	61780	keystroke_i	i	n/a
30.994	0.151	61988	keystroke_e	e	n/a
31.099	0.196	62198	keystroke_s	s	n/a
31.279	0.12	62558	keystroke_Key.space	Key.space	n/a
31.685	0.149	63370	keystroke_s	s	n/a
31.984	0.166	63968	keystroke_l	l	n/a
32.12	0.15	64240	keystroke_i	i	n/a
32.284	0.061	64568	keystroke_d	d	n/a
32.479	0.076	64958	keystroke_e	e	n/a
33.334	0.075	66668	keystroke_Key.enter	Key.enter	n/a
33.417	9.7895	66834	prompt	n/a	airfare incidents whether clause\n
34.46	0.104	68920	keystroke_a	a	n/a
34.58	0.119	69160	keystroke_i	i	n/a
34.775	0.075	69550	keystroke_r	r	n/a
35.015	0.075	70030	keystroke_f	f	n/a
35.27	0.12	70540	keystroke_a	a	n/a
35.405	0.135	70810	keystroke_r	r	n/a
35.495	0.165	70990	keystroke_e	e	n/a
35.689	0.12	71378	keystroke_Key.space	Key.space	n/a
35.975	0.09	71950	keystroke_i	i	n/a
36.2	0.075	72400	keystroke_n	n	n/a
36.5	0.09	73000	keystroke_c	c	n/a
36.665	0.089	73330	keystroke_i	i	n/a
36.89	0.06	73780	keystroke_d	d	n/a
37.099	0.121	74198	keystroke_e	e	n/a
37.175	0.135	74350	keystroke_n	n	n/a
37.325	0.104	74650	keystroke_t	t	n/a
37.52	0.135	75040	keystroke_s	s	n/a
37.67	0.105	75340	keystroke_Key.space	Key.space	n/a
37.85	0.12	75700	keystroke_w	w	n/a
38.015	0.12	76030	keystroke_h	h	n/a
38.42	0.135	76840	keystroke_e	e	n/a
38.63	0.09	77260	keystroke_t	t	n/a
38.764	0.106	77528	keystroke_h	h	n/a
38.885	0.12	77770	keystroke_e	e	n/a
38.975	0.18	77950	keystroke_r	r	n/a
39.125	0.12	78250	keystroke_Key.space	Key.space	n/a
39.575	0.12	79150	keystroke_c	c	n/a
39.74	0.15	79480	keystroke_l	l	n/a
39.875	0.105	79750	keystroke_a	a	n/a
40.115	0.09	80230	keystroke_s	s	n/a
41.209	0.105	82418	keystroke_Key.backspace	Key.backspace	n/a
41.495	0.075	82990	keystroke_u	u	n/a
41.81	0.165	83620	keystroke_s	s	n/a
41.944	0.2405	83888	keystroke_e	e	n/a
43.1145	0.09	86229	keystroke_Key.enter	Key.enter	n/a
43.2105	6.206	86421	prompt	n/a	sage grid roof drawn\n
44.0745	0.075	88149	keystroke_s	s	n/a
44.2695	0.105	88539	keystroke_a	a	n/a
44.4945	0.12	88989	keystroke_g	g	n/a
44.6745	0.165	89349	keystroke_e	e	n/a
44.8845	0.075	89769	keystroke_Key.space	Key.space	n/a
45.0495	0.075	90099	keystroke_g	g	n/a
45.2745	0.105	90549	keystroke_r	r	n/a
45.4395	0.15	90879	keystroke_i	i	n/a
45.5745	0.105	91149	keystroke_d	d	n/a
45.8145	0.105	91629	keystroke_Key.space	Key.space	n/a
46.0395	0.1055	92079	keystroke_r	r	n/a
46.16	0.09	92320	keystroke_o	o	n/a
46.34	0.09	92680	keystroke_o	o	n/a
46.58	0.105	93160	keystroke_f	f	n/a
46.88	0.015	93760	keystroke_Key.space	Key.space	n/a
46.985	0.12	93970	keystroke_d	d	n/a
47.27	0.105	94540	keystroke_r	r	n/a
47.705	0.105	95410	keystroke_a	a	n/a
47.915	0.15	95830	keystroke_w	w	n/a
48.05	0.12	96100	keystroke_a	a	n/a
48.589	0.09	97178	keystroke_Key.backspace	Key.backspace	n/a
48.875	0.09	97750	keystroke_n	n	n/a
49.324	0.09	98648	keystroke_Key.enter	Key.enter	n/a
49.42	18.418	98840	prompt	n/a	journalist detected sandwich tears\n
50.6455	0.134	101291	keystroke_j	j	n/a
50.7495	0.151	101499	keystroke_o	o	n/a
50.8705	0.134	101741	keystroke_u	u	n/a
51.0655	0.135	102131	keystroke_r	r	n/a
51.2005	0.12	102401	keystroke_n	n	n/a
51.3945	0.12	102789	keystroke_a	a	n/a
51.5295	0.09	103059	keystroke_l	l	n/a
51.7245	0.09	103449	keystroke_s	s	n/a
51.9205	0.119	103841	keystroke_i	i	n/a
52.565	0.06	105130	keystroke_t	t	n/a
53.27	0.135	106540	keystroke_Key.space	Key.space	n/a
53.96	0.075	107920	keystroke_d	d	n/a
54.215	0.105	108430	keystroke_e	e	n/a
56.708	0.001	113416	keystroke_Key.backspace	Key.backspace	n/a
56.84	0.045	113680	keystroke_Key.backspace	Key.backspace	n/a
57.02	0.075	114040	keystroke_Key.backspace	Key.backspace	n/a
57.23	0.075	114460	keystroke_Key.backspace	Key.backspace	n/a
57.44	0.09	114880	keystroke_Key.backspace	Key.backspace	n/a
57.785	0.105	115570	keystroke_Key.backspace	Key.backspace	n/a
58.58	0.075	117160	keystroke_i	i	n/a
58.76	0.165	117520	keystroke_s	s	n/a
58.94	0.075	117880	keystroke_t	t	n/a
59.63	0.12	119260	keystroke_Key.space	Key.space	n/a
59.855	0.06	119710	keystroke_d	d	n/a
60.02	0.09	120040	keystroke_e	e	n/a
60.275	0.12	120550	keystroke_t	t	n/a
60.38	0.09	120760	keystroke_e	e	n/a
60.62	0.105	121240	keystroke_c	c	n/a
60.83	0.135	121660	keystroke_t	t	n/a
60.95	0.09	121900	keystroke_e	e	n/a
61.145	0.15	122290	keystroke_d	d	n/a
61.28	0.195	122560	keystroke_Key.space	Key.space	n/a
61.476	0.104	122952	keystroke_s	s	n/a
61.7	0.12	123400	keystroke_a	a	n/a
61.85	0.12	123700	keystroke_n	n	n/a
62.03	0.135	124060	keystroke_d	d	n/a
62.675	0.09	125350	keystroke_i	i	n/a
62.72	0.165	125440	keystroke_w	w	n/a
63.245	0.105	126490	keystroke_Key.backspace	Key.backspace	n/a
63.605	0.09	127210	keystroke_Key.backspace	Key.backspace	n/a
63.845	0.12	127690	keystroke_w	w	n/a
64.865	0.09	129730	keystroke_i	i	n/a
65.075	0.09	130150	keystroke_c	c	n/a
65.285	0.075	130570	keystroke_h	h	n/a
65.51	0.105	131020	keystroke_Key.space	Key.space	n/a
65.9	0.12	131800	keystroke_t	t	n/a
66.08	0.075	132160	keystroke_e	e	n/a
66.245	0.135	132490	keystroke_a	a	n/a
66.335	0.09	132670	keystroke_r	r	n/a
66.485	0.12	132970	keystroke_s	s	n/a
67.76	0.075	135520	keystroke_Key.enter	Key.enter	n/a
67.8425	9.9995	135685	prompt	n/a	linear inspiration foundations outline\n
68.735	0.12	137470	keystroke_l	l	n/a
68.9	0.09	137800	keystroke_i	i	n/a
69.125	0.075	138250	keystroke_n	n	n/a
69.246	0.089	138492	keystroke_e	e	n/a
69.455	0.15	138910	keystroke_a	a	n/a
69.575	0.105	139150	keystroke_r	r	n/a
69.83	0.105	139660	keystroke_Key.space	Key.space	n/a
70.055	0.061	140110	keystroke_i	i	n/a
70.371	0.119	140742	keystroke_n	n	n/a
70.55	0.135	141100	keystroke_s	s	n/a
71.12	0.09	142240	keystroke_p	p	n/a
71.45	0.105	142900	keystroke_i	i	n/a
71.615	0.12	143230	keystroke_r	r	n/a
71.75	0.165	143500	keystroke_a	a	n/a
72.08	0.09	144160	keystroke_t	t	n/a
72.2	0.135	144400	keystroke_i	i	n/a
72.29	0.18	144580	keystroke_o	o	n/a
72.455	0.09	144910	keystroke_n	n	n/a
73.325	0.12	146650	keystroke_Key.space	Key.space	n/a
73.6405	0.09	147281	keystroke_f	f	n/a
73.7605	0.15	147521	keystroke_o	o	n/a
73.8655	0.12	147731	keystroke_u	u	n/a
74.1205	0.105	148241	keystroke_n	n	n/a
74.3755	0.074	148751	keystroke_d	d	n/a
74.5705	0.15	149141	keystroke_a	a	n/a
74.8705	0.09	149741	keystroke_t	t	n/a
74.9455	0.15	149891	keystroke_i	i	n/a
75.0505	0.135	150101	keystroke_o	o	n/a
75.1405	0.12	150281	keystroke_n	n	n/a
75.2755	0.18	150551	keystroke_s	s	n/a
75.4695	0.121	150939	keystroke_Key.space	Key.space	n/a
76.0855	0.194	152171	keystroke_o	o	n/a
76.2055	0.119	152411	keystroke_u	u	n/a
76.3695	0.106	152739	keystroke_t	t	n/a
76.5205	0.149	153041	keystroke_l	l	n/a
76.6245	0.12	153249	keystroke_i	i	n/a
76.8795	0.06	153759	keystroke_n	n	n/a
77.0295	0.075	154059	keystroke_e	e	n/a
77.7495	0.09	155499	keystroke_Key.enter	Key.enter	n/a
77.85	9.5325	155700	prompt	n/a	displayed mail draw most\n
78.9205	0.1495	157841	keystroke_d	d	n/a
79.145	0.135	158290	keystroke_i	i	n/a
79.775	0.1355	159550	keystroke_s	s	n/a
80.075	0.075	160150	keystroke_p	p	n/a
80.2705	0.12	160541	keystroke_l	l	n/a
80.4355	0.15	160871	keystroke_a	a	n/a
80.7205	0.09	161441	keystroke_y	y	n/a
80.9305	0.09	161861	keystroke_e	e	n/a
81.1405	0.09	162281	keystroke_d	d	n/a
81.3055	0.12	162611	keystroke_Key.space	Key.space	n/a
81.5005	0.09	163001	keystroke_m	m	n/a
81.6055	0.15	163211	keystroke_a	a	n/a
81.7705	0.165	163541	keystroke_i	i	n/a
81.9205	0.075	163841	keystroke_l	l	n/a
82.625	0.12	165250	keystroke_Key.space	Key.space	n/a
82.866	0.104	165732	keystroke_d	d	n/a
83.2105	0.105	166421	keystroke_r	r	n/a
83.4505	0.105	166901	keystroke_w	w	n/a
83.6745	0.106	167349	keystroke_a	a	n/a
84.3805	0.075	168761	keystroke_Key.backspace	Key.backspace	n/a
84.5745	0.09	169149	keystroke_Key.backspace	Key.backspace	n/a
85.0105	0.165	170021	keystroke_a	a	n/a
85.1605	0.105	170321	keystroke_w	w	n/a
86.0755	0.105	172151	keystroke_Key.space	Key.space	n/a
86.4955	0.12	172991	keystroke_m	m	n/a
86.7355	0.12	173471	keystroke_o	o	n/a
86.8705	0.105	173741	keystroke_s	s	n/a
86.9305	0.09	173861	keystroke_t	t	n/a
87.2905	0.089	174581	keystroke_Key.enter	Key.enter	n/a
87.3885	7.3745	174777	prompt	n/a	gods theme motors memorial\n
88.2805	0.09	176561	keystroke_g	g	n/a
88.4005	0.12	176801	keystroke_o	o	n/a
88.5205	0.105	177041	keystroke_d	d	n/a
88.9555	0.09	177911	keystroke_s	s	n/a
89.6005	0.075	179201	keystroke_Key.space	Key.space	n/a
89.7955	0.09	179591	keystroke_t	t	n/a
89.9155	0.09	179831	keystroke_h	h	n/a
90.0355	0.105	180071	keystroke_e	e	n/a
90.2605	0.075	180521	keystroke_m	m	n/a
90.3505	0.075	180701	keystroke_e	e	n/a
90.6205	0.12	181241	keystroke_Key.space	Key.space	n/a
91.1455	0.09	182291	keystroke_m	m	n/a
91.3705	0.12	182741	keystroke_o	o	n/a
91.7905	0.09	183581	keystroke_t	t	n/a
91.9255	0.12	183851	keystroke_o	o	n/a
92.0605	0.12	184121	keystroke_r	r	n/a
92.3455	0.105	184691	keystroke_s	s	n/a
92.8405	0.075	185681	keystroke_Key.space	Key.space	n/a
92.9905	0.09	185981	keystroke_m	m	n/a
93.1255	0.15	186251	keystroke_e	e	n/a
93.7255	0.075	187451	keystroke_m	m	n/a
93.9205	0.105	187841	keystroke_o	o	n/a
94.0405	0.105	188081	keystroke_r	r	n/a
94.1605	0.09	188321	keystroke_i	i	n/a
94.2655	0.12	188531	keystroke_a	a	n/a
94.4005	0.09	188801	keystroke_l	l	n/a
94.6705	0.09	189341	keystroke_Key.enter	Key.enter	n/a
94.7675	12.61	189535	prompt	n/a	edmonton identifier gonna flag\n
95.7955	0.09	191591	keystroke_e	e	n/a
96.0505	0.075	192101	keystroke_d	d	n/a
96.3655	0.12	192731	keystroke_m	m	n/a
96.5905	0.18	193181	keystroke_o	o	n/a
96.7105	0.135	193421	keystroke_n	n	n/a
96.9505	0.075	193901	keystroke_t	t	n/a
97.0855	0.135	194171	keystroke_o	o	n/a
97.1455	0.12	194291	keystroke_n	n	n/a
99.0805	0.075	198161	keystroke_Key.space	Key.space	n/a
99.3205	0.12	198641	keystroke_i	i	n/a
99.6805	0.045	199361	keystroke_d	d	n/a
99.8905	0.12	199781	keystroke_e	e	n/a
99.9805	0.0905	199961	keystroke_n	n	n/a
100.4305	0.075	200861	keystroke_t	t	n/a
100.5355	0.105	201071	keystroke_i	i	n/a
100.6855	0.12	201371	keystroke_f	f	n/a
100.8805	0.075	201761	keystroke_i	i	n/a
101.0305	0.135	202061	keystroke_e	e	n/a
101.1055	0.195	202211	keystroke_r	r	n/a
101.3155	0.165	202631	keystroke_Key.space	Key.space	n/a
101.8705	0.15	203741	keystroke_g	g	n/a
102.1115	0.1045	204223	keystroke_o	o	n/a
102.2905	0.075	204581	keystroke_n	n	n/a
102.4415	0.074	204883	keystroke_n	n	n/a
102.5905	0.135	205181	keystroke_a	a	n/a
102.7705	0.135	205541	keystroke_Key.space	Key.space	n/a
103.2205	0.12	206441	keystroke_g	g	n/a
103.4305	0.135	206861	keystroke_l	l	n/a
103.5205	0.15	207041	keystroke_a	a	n/a
104.2255	0.075	208451	keystroke_Key.backspace	Key.backspace	n/a
104.4355	0.09	208871	keystroke_Key.backspace	Key.backspace	n/a
104.8555	0.075	209711	keystroke_Key.backspace	Key.backspace	n/a
105.6505	0.135	211301	keystroke_f	f	n/a
106.0405	0.09	212081	keystroke_l	l	n/a
106.1905	0.1055	212381	keystroke_a	a	n/a
106.386	0.09	212772	keystroke_g	g	n/a
107.286	0.09	214572	keystroke_Key.enter	Key.enter	n/a
107.382	8.456	214764	prompt	n/a	states may balloon threats\n
108.0505	0.15	216101	keystroke_s	s	n/a
108.2305	0.09	216461	keystroke_t	t	n/a
108.3655	0.135	216731	keystroke_a	a	n/a
108.4705	0.15	216941	keystroke_t	t	n/a
108.5755	0.165	217151	keystroke_e	e	n/a
108.6955	0.165	217391	keystroke_s	s	n/a
108.8905	0.105	217781	keystroke_Key.space	Key.space	n/a
109.0255	0.105	218051	keystroke_m	m	n/a
109.1155	0.135	218231	keystroke_a	a	n/a
109.2805	0.12	218561	keystroke_y	y	n/a
109.4905	0.12	218981	keystroke_Key.space	Key.space	n/a
109.7155	0.105	219431	keystroke_b	b	n/a
110.4955	0.135	220991	keystroke_a	a	n/a
110.6905	0.0605	221381	keystroke_l	l	n/a
110.8555	0.06	221711	keystroke_l	l	n/a
111.0355	0.15	222071	keystroke_o	o	n/a
111.1555	0.135	222311	keystroke_n	n	n/a
112.985	0.09	225970	keystroke_Key.backspace	Key.backspace	n/a
113.3	0.105	226600	keystroke_o	o	n/a
113.586	0.074	227172	keystroke_n	n	n/a
114.23	0.105	228460	keystroke_Key.space	Key.space	n/a
114.665	0.105	229330	keystroke_t	t	n/a
114.816	0.104	229632	keystroke_h	h	n/a
114.95	0.12	229900	keystroke_r	r	n/a
115.115	0.15	230230	keystroke_e	e	n/a
115.25	0.15	230500	keystroke_a	a	n/a
115.43	0.0905	230860	keystroke_t	t	n/a
115.5655	0.12	231131	keystroke_s	s	n/a
115.7755	0.06	231551	keystroke_Key.enter	Key.enter	n/a
115.843	7.78	231686	prompt	n/a	scene articles design decisions\n
116.825	0.091	233650	keystroke_s	s	n/a
117.2	0.03	234400	keystroke_c	c	n/a
117.35	0.105	234700	keystroke_e	e	n/a
117.53	0.105	235060	keystroke_n	n	n/a
117.695	0.091	235390	keystroke_e	e	n/a
118.37	0.135	236740	keystroke_Key.space	Key.space	n/a
118.64	0.135	237280	keystroke_a	a	n/a
118.835	0.09	237670	keystroke_r	r	n/a
119.03	0.09	238060	keystroke_t	t	n/a
119.135	0.09	238270	keystroke_i	i	n/a
119.315	0.121	238630	keystroke_c	c	n/a
119.465	0.105	238930	keystroke_l	l	n/a
119.615	0.135	239230	keystroke_e	e	n/a
119.69	0.15	239380	keystroke_s	s	n/a
119.915	0.105	239830	keystroke_Key.space	Key.space	n/a
120.095	0.09	240190	keystroke_d	d	n/a
120.29	0.105	240580	keystroke_e	e	n/a
120.486	0.119	240972	keystroke_s	s	n/a
120.62	0.121	241240	keystroke_i	i	n/a
120.8	0.075	241600	keystroke_g	g	n/a
120.92	0.09	241840	keystroke_n	n	n/a
121.235	0.12	242470	keystroke_Key.space	Key.space	n/a
121.49	0.076	242980	keystroke_d	d	n/a
121.7	0.061	243400	keystroke_e	e	n/a
121.925	0.075	243850	keystroke_c	c	n/a
122.12	0.06	244240	keystroke_i	i	n/a
122.316	0.104	244632	keystroke_s	s	n/a
122.481	0.134	244962	keystroke_i	i	n/a
122.555	0.165	245110	keystroke_o	o	n/a
122.646	0.134	245292	keystroke_n	n	n/a
122.751	0.104	245502	keystroke_s	s	n/a
123.545	0.075	247090	keystroke_Key.enter	Key.enter	n/a
123.628	8.9795	247256	prompt	n/a	edwards lives stone drug\n
124.6405	0.09	249281	keystroke_e	e	n/a
124.8355	0.12	249671	keystroke_d	d	n/a
125.3455	0.135	250691	keystroke_w	w	n/a
125.5705	0.195	251141	keystroke_a	a	n/a
125.7355	0.105	251471	keystroke_r	r	n/a
125.9605	0.09	251921	keystroke_d	d	n/a
126.1405	0.12	252281	keystroke_s	s	n/a
126.3805	0.09	252761	keystroke_Key.space	Key.space	n/a
126.5455	0.12	253091	keystroke_l	l	n/a
126.6355	0.105	253271	keystroke_i	i	n/a
126.8455	0.12	253691	keystroke_v	v	n/a
126.9655	0.165	253931	keystroke_e	e	n/a
127.0555	0.18	254111	keystroke_s	s	n/a
129.0355	0.09	258071	keystroke_Key.space	Key.space	n/a
129.1705	0.15	258341	keystroke_s	s	n/a
129.3655	0.12	258731	keystroke_t	t	n/a
129.4705	0.165	258941	keystroke_o	o	n/a
129.5905	0.105	259181	keystroke_n	n	n/a
129.7105	0.12	259421	keystroke_e	e	n/a
129.8605	0.12	259721	keystroke_Key.space	Key.space	n/a
130.1455	0.105	260291	keystroke_d	d	n/a
130.3255	0.105	260651	keystroke_r	r	n/a
130.5655	0.09	261131	keystroke_g	g	n/a
131.4055	0.12	262811	keystroke_Key.backspace	Key.backspace	n/a
131.7955	0.075	263591	keystroke_u	u	n/a
131.9905	0.12	263981	keystroke_g	g	n/a
132.5455	0.06	265091	keystroke_Key.enter	Key.enter	n/a
132.612	9.8805	265224	prompt	n/a	intended sally decorating enjoyed\n
133.3855	0.12	266771	keystroke_i	i	n/a
133.5665	0.104	267133	keystroke_n	n	n/a
133.8205	0.12	267641	keystroke_t	t	n/a
133.9555	0.15	267911	keystroke_e	e	n/a
134.0905	0.09	268181	keystroke_n	n	n/a
134.7505	0.135	269501	keystroke_d	d	n/a
135.0355	0.06	270071	keystroke_e	e	n/a
135.2155	0.075	270431	keystroke_d	d	n/a
135.8605	0.12	271721	keystroke_Key.space	Key.space	n/a
136.0555	0.12	272111	keystroke_s	s	n/a
136.2805	0.135	272561	keystroke_a	a	n/a
136.9555	0.075	273911	keystroke_l	l	n/a
137.0905	0.09	274181	keystroke_l	l	n/a
137.3005	0.105	274601	keystroke_y	y	n/a
137.4955	0.105	274991	keystroke_Key.space	Key.space	n/a
138.1105	0.0905	276221	keystroke_d	d	n/a
138.2905	0.075	276581	keystroke_e	e	n/a
138.5155	0.105	277031	keystroke_c	c	n/a
138.6655	0.135	277331	keystroke_o	o	n/a
138.8155	0.12	277631	keystroke_r	r	n/a
138.9955	0.12	277991	keystroke_a	a	n/a
139.1755	0.105	278351	keystroke_t	t	n/a
139.2655	0.18	278531	keystroke_i	i	n/a
139.6105	0.09	279221	keystroke_n	n	n/a
139.8655	0.075	279731	keystroke_g	g	n/a
140.7655	0.12	281531	keystroke_Key.space	Key.space	n/a
141.1555	0.09	282311	keystroke_e	e	n/a
141.2755	0.09	282551	keystroke_n	n	n/a
141.5005	0.15	283001	keystroke_j	j	n/a
141.6205	0.135	283241	keystroke_o	o	n/a
141.8005	0.105	283601	keystroke_y	y	n/a
142.0255	0.09	284051	keystroke_e	e	n/a
142.2355	0.075	284471	keystroke_d	d	n/a
142.4155	0.075	284831	keystroke_Key.enter	Key.enter	n/a
142.497	8.6885	284994	prompt	n/a	duke consist winner flyer\n
143.3455	0.075	286691	keystroke_d	d	n/a
143.5405	0.12	287081	keystroke_u	u	n/a
143.9155	0.12	287831	keystroke_k	k	n/a
144.0505	0.09	288101	keystroke_e	e	n/a
144.3355	0.09	288671	keystroke_Key.space	Key.space	n/a
144.5755	0.105	289151	keystroke_c	c	n/a
144.8905	0.18	289781	keystroke_o	o	n/a
144.9805	0.15	289961	keystroke_n	n	n/a
145.1755	0.09	290351	keystroke_s	s	n/a
145.2955	0.105	290591	keystroke_i	i	n/a
145.3855	0.15	290771	keystroke_s	s	n/a
145.5505	0.09	291101	keystroke_t	t	n/a
145.8505	0.09	291701	keystroke_Key.space	Key.space	n/a
146.2855	0.12	292571	keystroke_w	w	n/a
146.3905	0.09	292781	keystroke_i	i	n/a
146.5855	0.075	293171	keystroke_n	n	n/a
146.7355	0.105	293471	keystroke_n	n	n/a
146.8555	0.135	293711	keystroke_e	e	n/a
146.9305	0.15	293861	keystroke_r	r	n/a
147.3205	0.105	294641	keystroke_Key.space	Key.space	n/a
147.6945	0.106	295389	keystroke_f	f	n/a
147.994	0.015	295988	keystroke_l	l	n/a
148.0605	0.0875	296121	keystroke_y	y	n/a
148.2475	0.1765	296495	keystroke_e	e	n/a
150.3435	0.075	300687	keystroke_r	r	n/a
151.1085	0.075	302217	keystroke_Key.enter	Key.enter	n/a
151.1905	11.7255	302381	prompt	n/a	targets screens headline presentation\n
152.2335	0.015	304467	keystroke_t	t	n/a
152.8935	0.075	305787	keystroke_a	a	n/a
152.9085	0.105	305817	keystroke_r	r	n/a
153.2685	0.105	306537	keystroke_r	r	n/a
153.5985	0.09	307197	keystroke_g	g	n/a
153.868	0.12	307736	keystroke_e	e	n/a
154.064	0.09	308128	keystroke_t	t	n/a
154.199	0.105	308398	keystroke_s	s	n/a
155.143	0.03	310286	keystroke_Key.backspace	Key.backspace	n/a
155.293	0.045	310586	keystroke_Key.backspace	Key.backspace	n/a
155.473	0.06	310946	keystroke_Key.backspace	Key.backspace	n/a
155.653	0.075	311306	keystroke_Key.backspace	Key.backspace	n/a
156.073	0.09	312146	keystroke_Key.backspace	Key.backspace	n/a
156.899	0.089	313798	keystroke_g	g	n/a
157.213	0.135	314426	keystroke_e	e	n/a
157.304	0.12	314608	keystroke_t	t	n/a
157.483	0.12	314966	keystroke_s	s	n/a
158.083	0.075	316166	keystroke_Key.space	Key.space	n/a
158.233	0.091	316466	keystroke_s	s	n/a
158.444	0.09	316888	keystroke_c	c	n/a
158.639	0.135	317278	keystroke_r	r	n/a
158.729	0.135	317458	keystroke_e	e	n/a
158.924	0.105	317848	keystroke_e	e	n/a
159.104	0.09	318208	keystroke_n	n	n/a
159.209	0.149	318418	keystroke_s	s	n/a
159.374	0.119	318748	keystroke_Key.space	Key.space	n/a
159.568	0.106	319136	keystroke_h	h	n/a
159.658	0.106	319316	keystroke_e	e	n/a
159.809	0.119	319618	keystroke_a	a	n/a
159.988	0.121	319976	keystroke_d	d	n/a
160.153	0.136	320306	keystroke_l	l	n/a
160.244	0.15	320488	keystroke_i	i	n/a
160.438	0.121	320876	keystroke_n	n	n/a
160.589	0.09	321178	keystroke_e	e	n/a
160.784	0.134	321568	keystroke_Key.space	Key.space	n/a
161.053	0.105	322106	keystroke_p	p	n/a
161.189	0.12	322378	keystroke_r	r	n/a
161.279	0.15	322558	keystroke_e	e	n/a
161.5495	0.119	323099	keystroke_s	s	n/a
161.7445	0.15	323489	keystroke_e	e	n/a
161.8785	0.09	323757	keystroke_n	n	n/a
162.0285	0.0905	324057	keystroke_t	t	n/a
162.179	0.165	324358	keystroke_a	a	n/a
162.314	0.121	324628	keystroke_t	t	n/a
162.419	0.135	324838	keystroke_i	i	n/a
162.479	0.15	324958	keystroke_o	o	n/a
162.584	0.12	325168	keystroke_n	n	n/a
162.854	0.06	325708	keystroke_Key.enter	Key.enter	n/a
162.92	8.6665	325840	prompt	n/a	preferences populations page gambling\n
163.634	0.09	327268	keystroke_p	p	n/a
163.799	0.15	327598	keystroke_r	r	n/a
163.919	0.1355	327838	keystroke_e	e	n/a
164.1895	0.105	328379	keystroke_f	f	n/a
164.3245	0.135	328649	keystroke_e	e	n/a
164.4745	0.15	328949	keystroke_r	r	n/a
164.6095	0.135	329219	keystroke_e	e	n/a
164.7595	0.09	329519	keystroke_n	n	n/a
164.8945	0.09	329789	keystroke_c	c	n/a
165.0895	0.12	330179	keystroke_e	e	n/a
165.1645	0.18	330329	keystroke_s	s	n/a
165.3295	0.12	330659	keystroke_Key.space	Key.space	n/a
165.5095	0.165	331019	keystroke_p	p	n/a
165.6445	0.09	331289	keystroke_o	o	n/a
165.8545	0.03	331709	keystroke_l	l	n/a
166.214	0.09	332428	keystroke_Key.backspace	Key.backspace	n/a
166.484	0.12	332968	keystroke_p	p	n/a
166.649	0.121	333298	keystroke_u	u	n/a
166.904	0.12	333808	keystroke_l	l	n/a
167.594	0.165	335188	keystroke_a	a	n/a
167.924	0.0755	335848	keystroke_t	t	n/a
168.059	0.135	336118	keystroke_i	i	n/a
168.119	0.18	336238	keystroke_o	o	n/a
168.224	0.12	336448	keystroke_n	n	n/a
168.434	0.12	336868	keystroke_s	s	n/a
168.569	0.12	337138	keystroke_Key.space	Key.space	n/a
168.734	0.105	337468	keystroke_p	p	n/a
168.854	0.105	337708	keystroke_a	a	n/a
169.094	0.135	338188	keystroke_g	g	n/a
169.244	0.18	338488	keystroke_e	e	n/a
169.394	0.135	338788	keystroke_Key.space	Key.space	n/a
169.934	0.1055	339868	keystroke_g	g	n/a
170.1595	0.12	340319	keystroke_a	a	n/a
170.2645	0.075	340529	keystroke_m	m	n/a
170.4595	0.075	340919	keystroke_b	b	n/a
170.6695	0.105	341339	keystroke_l	l	n/a
170.8195	0.225	341639	keystroke_i	i	n/a
170.9845	0.15	341969	keystroke_n	n	n/a
171.1495	0.09	342299	keystroke_g	g	n/a
171.5095	0.075	343019	keystroke_Key.enter	Key.enter	n/a
171.5935	9.893	343187	prompt	n/a	collins prominent reasonably happens\n
172.604	0.135	345208	keystroke_c	c	n/a
172.769	0.09	345538	keystroke_o	o	n/a
172.979	0.045	345958	keystroke_l	l	n/a
173.099	0.105	346198	keystroke_l	l	n/a
173.249	0.21	346498	keystroke_i	i	n/a
173.354	0.15	346708	keystroke_n	n	n/a
173.549	0.15	347098	keystroke_s	s	n/a
173.684	0.135	347368	keystroke_Key.space	Key.space	n/a
173.879	0.105	347758	keystroke_p	p	n/a
174.119	0.105	348238	keystroke_r	r	n/a
174.209	0.09	348418	keystroke_o	o	n/a
174.45	0.074	348900	keystroke_m	m	n/a
174.629	0.09	349258	keystroke_i	i	n/a
174.809	0.12	349618	keystroke_n	n	n/a
175.005	0.149	350010	keystroke_e	e	n/a
175.109	0.121	350218	keystroke_n	n	n/a
175.244	0.075	350488	keystroke_t	t	n/a
177.437	0.057	354874	keystroke_Key.space	Key.space	n/a
177.929	0.21	355858	keystroke_r	r	n/a
178.019	0.21	356038	keystroke_e	e	n/a
178.184	0.12	356368	keystroke_a	a	n/a
178.379	0.121	356758	keystroke_s	s	n/a
178.469	0.195	356938	keystroke_o	o	n/a
178.589	0.12	357178	keystroke_n	n	n/a
179.039	0.12	358078	keystroke_a	a	n/a
179.204	0.121	358408	keystroke_b	b	n/a
179.309	0.12	358618	keystroke_l	l	n/a
179.609	0.12	359218	keystroke_y	y	n/a
180.239	0.09	360478	keystroke_Key.space	Key.space	n/a
180.449	0.09	360898	keystroke_h	h	n/a
180.554	0.15	361108	keystroke_a	a	n/a
180.689	0.09	361378	keystroke_p	p	n/a
180.839	0.105	361678	keystroke_p	p	n/a
180.959	0.105	361918	keystroke_e	e	n/a
181.079	0.105	362158	keystroke_n	n	n/a
181.244	0.09	362488	keystroke_s	s	n/a
181.409	0.075	362818	keystroke_Key.enter	Key.enter	n/a
181.4905	8.5315	362981	prompt	n/a	terrace tent varied bristol\n
183.558	0.057	367116	keystroke_t	t	n/a
183.63	0.1945	367260	keystroke_e	e	n/a
183.794	0.091	367588	keystroke_r	r	n/a
183.9595	0.105	367919	keystroke_r	r	n/a
184.184	0.1065	368368	keystroke_a	a	n/a
184.3945	0.105	368789	keystroke_c	c	n/a
184.619	0.1205	369238	keystroke_e	e	n/a
184.7545	0.105	369509	keystroke_Key.space	Key.space	n/a
184.9945	0.1045	369989	keystroke_t	t	n/a
185.115	0.1195	370230	keystroke_e	e	n/a
185.2195	0.12	370439	keystroke_n	n	n/a
185.3845	0.06	370769	keystroke_t	t	n/a
185.5645	0.12	371129	keystroke_Key.space	Key.space	n/a
185.9845	0.12	371969	keystroke_v	v	n/a
186.2695	0.12	372539	keystroke_a	a	n/a
186.4645	0.1355	372929	keystroke_r	r	n/a
186.6145	0.151	373229	keystroke_i	i	n/a
186.7055	0.09	373411	keystroke_e	e	n/a
186.9445	0.105	373889	keystroke_d	d	n/a
187.3645	0.135	374729	keystroke_Key.space	Key.space	n/a
187.8295	0.091	375659	keystroke_b	b	n/a
187.9505	0.164	375901	keystroke_r	r	n/a
188.2045	0.105	376409	keystroke_i	i	n/a
188.3855	0.18	376771	keystroke_s	s	n/a
188.7445	0.09	377489	keystroke_t	t	n/a
188.8955	0.09	377791	keystroke_o	o	n/a
189.0905	0.074	378181	keystroke_l	l	n/a
189.9745	0.045	379949	keystroke_Key.enter	Key.enter	n/a
190.0265	15.9715	380053	prompt	n/a	contribute ebay intranet calgary\n
191.1755	0.105	382351	keystroke_c	c	n/a
191.2655	0.149	382531	keystroke_o	o	n/a
191.3405	0.119	382681	keystroke_n	n	n/a
191.655	0.135	383310	keystroke_r	r	n/a
192.8095	0.075	385619	keystroke_Key.backspace	Key.backspace	n/a
193.5605	0.104	387121	keystroke_t	t	n/a
193.7845	0.12	387569	keystroke_r	r	n/a
195.435	0.09	390870	keystroke_i	i	n/a
195.72	0.075	391440	keystroke_b	b	n/a
195.945	0.09	391890	keystroke_u	u	n/a
196.17	0.135	392340	keystroke_t	t	n/a
196.26	0.195	392520	keystroke_e	e	n/a
196.425	0.12	392850	keystroke_Key.space	Key.space	n/a
196.65	0.12	393300	keystroke_e	e	n/a
197.34	0.12	394680	keystroke_b	b	n/a
197.865	0.1505	395730	keystroke_a	a	n/a
198.0005	0.089	396001	keystroke_y	y	n/a
198.2995	0.105	396599	keystroke_Key.space	Key.space	n/a
198.5405	0.18	397081	keystroke_i	i	n/a
198.6605	0.105	397321	keystroke_n	n	n/a
199.2605	0.074	398521	keystroke_t	t	n/a
199.5005	0.105	399001	keystroke_r	r	n/a
200.6245	0.165	401249	keystroke_a	a	n/a
200.7745	0.135	401549	keystroke_n	n	n/a
201.1045	0.166	402209	keystroke_e	e	n/a
201.2395	0.105	402479	keystroke_t	t	n/a
203.493	0.057	406986	keystroke_Key.space	Key.space	n/a
203.82	0.135	407640	keystroke_c	c	n/a
204.09	0.12	408180	keystroke_a	a	n/a
204.3	0.105	408600	keystroke_l	l	n/a
204.526	0.104	409052	keystroke_g	g	n/a
204.78	0.165	409560	keystroke_a	a	n/a
204.93	0.1205	409860	keystroke_r	r	n/a
205.0945	0.091	410189	keystroke_y	y	n/a
205.9055	0.089	411811	keystroke_Key.enter	Key.enter	n/a
206.004	9.474	412008	prompt	n/a	chapters memories records streams\n
207.2255	0.135	414451	keystroke_c	c	n/a
207.3755	0.09	414751	keystroke_h	h	n/a
207.4805	0.15	414961	keystroke_a	a	n/a
207.6455	0.09	415291	keystroke_p	p	n/a
207.8405	0.06	415681	keystroke_t	t	n/a
208.0055	0.15	416011	keystroke_e	e	n/a
208.0955	0.15	416191	keystroke_r	r	n/a
208.2905	0.165	416581	keystroke_s	s	n/a
208.4255	0.135	416851	keystroke_Key.space	Key.space	n/a
208.6495	0.121	417299	keystroke_m	m	n/a
208.7855	0.105	417571	keystroke_e	e	n/a
208.9055	0.09	417811	keystroke_m	m	n/a
209.0855	0.09	418171	keystroke_o	o	n/a
209.2355	0.12	418471	keystroke_r	r	n/a
209.3705	0.105	418741	keystroke_i	i	n/a
209.4905	0.165	418981	keystroke_e	e	n/a
209.6105	0.21	419221	keystroke_s	s	n/a
209.7905	0.119	419581	keystroke_Key.space	Key.space	n/a
210.0005	0.15	420001	keystroke_r	r	n/a
210.0905	0.135	420181	keystroke_e	e	n/a
210.7955	0.09	421591	keystroke_c	c	n/a
212.281	0.1195	424562	keystroke_o	o	n/a
212.6555	0.12	425311	keystroke_r	r	n/a
212.9255	0.09	425851	keystroke_d	d	n/a
213.1055	0.12	426211	keystroke_s	s	n/a
213.6005	0.089	427201	keystroke_Key.space	Key.space	n/a
213.8855	0.135	427771	keystroke_s	s	n/a
214.0805	0.075	428161	keystroke_t	t	n/a
214.2455	0.15	428491	keystroke_r	r	n/a
214.561	0.09	429122	keystroke_e	e	n/a
214.741	0.105	429482	keystroke_a	a	n/a
214.861	0.105	429722	keystroke_m	m	n/a
214.981	0.075	429962	keystroke_s	s	n/a
215.386	0.09	430772	keystroke_Key.enter	Key.enter	n/a
215.485	8.542	430970	prompt	n/a	discrimination valve daniel necessary\n
216.196	0.105	432392	keystroke_d	d	n/a
216.331	0.105	432662	keystroke_i	i	n/a
216.466	0.105	432932	keystroke_s	s	n/a
216.721	0.075	433442	keystroke_c	c	n/a
216.916	0.12	433832	keystroke_r	r	n/a
217.021	0.075	434042	keystroke_i	i	n/a
217.216	0.09	434432	keystroke_m	m	n/a
217.396	0.075	434792	keystroke_i	i	n/a
217.576	0.09	435152	keystroke_n	n	n/a
217.681	0.135	435362	keystroke_a	a	n/a
217.891	0.09	435782	keystroke_t	t	n/a
217.996	0.12	435992	keystroke_i	i	n/a
218.086	0.18	436172	keystroke_o	o	n/a
218.191	0.09	436382	keystroke_n	n	n/a
218.341	0.15	436682	keystroke_Key.space	Key.space	n/a
218.716	0.135	437432	keystroke_v	v	n/a
218.971	0.15	437942	keystroke_a	a	n/a
219.166	0.105	438332	keystroke_l	l	n/a
219.391	0.09	438782	keystroke_v	v	n/a
219.601	0.135	439202	keystroke_e	e	n/a
219.856	0.09	439712	keystroke_Key.space	Key.space	n/a
220.291	0.105	440582	keystroke_d	d	n/a
220.546	0.105	441092	keystroke_a	a	n/a
220.666	0.09	441332	keystroke_n	n	n/a
220.801	0.12	441602	keystroke_i	i	n/a
221.011	0.075	442022	keystroke_e	e	n/a
221.146	0.09	442292	keystroke_l	l	n/a
221.356	0.12	442712	keystroke_Key.space	Key.space	n/a
221.566	0.105	443132	keystroke_n	n	n/a
221.671	0.105	443342	keystroke_e	e	n/a
221.941	0.105	443882	keystroke_c	c	n/a
222.226	0.135	444452	keystroke_e	e	n/a
222.691	0.075	445382	keystroke_s	s	n/a
222.871	0.09	445742	keystroke_s	s	n/a
223.081	0.12	446162	keystroke_a	a	n/a
223.276	0.12	446552	keystroke_r	r	n/a
223.426	0.09	446852	keystroke_y	y	n/a
223.951	0.074	447902	keystroke_Key.enter	Key.enter	n/a
224.0305	5.472	448061	prompt	n/a	gains thomas doll kills\n
224.911	0.104	449822	keystroke_g	g	n/a
225.105	0.135	450210	keystroke_a	a	n/a
225.226	0.149	450452	keystroke_i	i	n/a
225.301	0.135	450602	keystroke_n	n	n/a
225.45	0.121	450900	keystroke_s	s	n/a
225.585	0.121	451170	keystroke_Key.space	Key.space	n/a
225.84	0.091	451680	keystroke_t	t	n/a
225.946	0.105	451892	keystroke_h	h	n/a
226.185	0.105	452370	keystroke_o	o	n/a
226.4265	0.0885	452853	keystroke_m	m	n/a
226.545	0.166	453090	keystroke_a	a	n/a
226.725	0.135	453450	keystroke_s	s	n/a
226.89	0.121	453780	keystroke_Key.space	Key.space	n/a
227.191	0.119	454382	keystroke_d	d	n/a
227.325	0.091	454650	keystroke_o	o	n/a
227.536	0.09	455072	keystroke_l	l	n/a
227.716	0.074	455432	keystroke_l	l	n/a
228.2705	0.135	456541	keystroke_Key.space	Key.space	n/a
228.6455	0.09	457291	keystroke_k	k	n/a
228.8105	0.09	457621	keystroke_i	i	n/a
229.0205	0.075	458041	keystroke_l	l	n/a
229.1705	0.105	458341	keystroke_l	l	n/a
229.2605	0.15	458521	keystroke_s	s	n/a
229.4405	0.06	458881	keystroke_Key.enter	Key.enter	n/a
229.5075	10.736	459015	prompt	n/a	influences southwest assumptions project\n
230.2955	0.195	460591	keystroke_i	i	n/a
230.4305	0.12	460861	keystroke_n	n	n/a
230.6855	0.135	461371	keystroke_f	f	n/a
230.7905	0.12	461581	keystroke_l	l	n/a
230.8955	0.09	461791	keystroke_u	u	n/a
231.0605	0.1355	462121	keystroke_e	e	n/a
231.211	0.075	462422	keystroke_n	n	n/a
231.316	0.1045	462632	keystroke_c	c	n/a
231.525	0.181	463050	keystroke_e	e	n/a
231.616	0.209	463232	keystroke_s	s	n/a
231.78	0.135	463560	keystroke_Key.space	Key.space	n/a
232.051	0.15	464102	keystroke_s	s	n/a
232.141	0.21	464282	keystroke_o	o	n/a
232.246	0.15	464492	keystroke_u	u	n/a
232.486	0.09	464972	keystroke_t	t	n/a
233.041	0.075	466082	keystroke_h	h	n/a
233.731	0.105	467462	keystroke_w	w	n/a
234.556	0.135	469112	keystroke_e	e	n/a
234.811	0.18	469622	keystroke_s	s	n/a
235.201	0.09	470402	keystroke_t	t	n/a
235.486	0.09	470972	keystroke_Key.space	Key.space	n/a
236.611	0.12	473222	keystroke_a	a	n/a
237.001	0.09	474002	keystroke_s	s	n/a
237.196	0.135	474392	keystroke_s	s	n/a
237.346	0.075	474692	keystroke_u	u	n/a
237.556	0.09	475112	keystroke_m	m	n/a
237.736	0.09	475472	keystroke_p	p	n/a
237.946	0.09	475892	keystroke_t	t	n/a
237.991	0.135	475982	keystroke_i	i	n/a
238.096	0.165	476192	keystroke_o	o	n/a
238.201	0.135	476402	keystroke_n	n	n/a
238.351	0.135	476702	keystroke_s	s	n/a
238.501	0.12	477002	keystroke_Key.space	Key.space	n/a
238.741	0.12	477482	keystroke_p	p	n/a
239.026	0.105	478052	keystroke_r	r	n/a
239.146	0.09	478292	keystroke_o	o	n/a
239.311	0.105	478622	keystroke_j	j	n/a
239.476	0.09	478952	keystroke_e	e	n/a
239.701	0.075	479402	keystroke_c	c	n/a
239.896	0.09	479792	keystroke_t	t	n/a
240.151	0.09	480302	keystroke_Key.enter	Key.enter	n/a
240.25	7.478	480500	prompt	n/a	roland levy mills divx\n
241.261	0.09	482522	keystroke_r	r	n/a
241.336	0.075	482672	keystroke_o	o	n/a
241.516	0.091	483032	keystroke_l	l	n/a
241.576	0.135	483152	keystroke_a	a	n/a
241.696	0.09	483392	keystroke_n	n	n/a
241.831	0.135	483662	keystroke_d	d	n/a
241.951	0.135	483902	keystroke_Key.space	Key.space	n/a
242.101	0.12	484202	keystroke_l	l	n/a
242.222	0.104	484444	keystroke_e	e	n/a
242.401	0.075	484802	keystroke_v	v	n/a
242.611	0.135	485222	keystroke_y	y	n/a
243.736	0.12	487472	keystroke_Key.space	Key.space	n/a
244.021	0.075	488042	keystroke_m	m	n/a
244.216	0.06	488432	keystroke_i	i	n/a
244.381	0.09	488762	keystroke_l	l	n/a
244.561	0.09	489122	keystroke_l	l	n/a
244.696	0.18	489392	keystroke_s	s	n/a
244.801	0.15	489602	keystroke_Key.space	Key.space	n/a
245.281	0.09	490562	keystroke_d	d	n/a
245.401	0.105	490802	keystroke_i	i	n/a
246.7815	0.134	493563	keystroke_v	v	n/a
246.8715	0.12	493743	keystroke_x	x	n/a
247.6365	0.09	495273	keystroke_Key.enter	Key.enter	n/a
247.733	9.6105	495466	prompt	n/a	gravity younger adventures giant\n
248.8365	0.075	497673	keystroke_g	g	n/a
249.0465	0.15	498093	keystroke_r	r	n/a
249.2115	0.165	498423	keystroke_a	a	n/a
249.9015	0.09	499803	keystroke_v	v	n/a
250.6365	0.105	501273	keystroke_i	i	n/a
251.2065	0.105	502413	keystroke_t	t	n/a
251.5365	0.075	503073	keystroke_y	y	n/a
251.8365	0.105	503673	keystroke_Key.space	Key.space	n/a
252.061	0.12	504122	keystroke_y	y	n/a
252.166	0.165	504332	keystroke_o	o	n/a
252.271	0.09	504542	keystroke_u	u	n/a
252.451	0.105	504902	keystroke_n	n	n/a
252.601	0.105	505202	keystroke_g	g	n/a
252.826	0.15	505652	keystroke_e	e	n/a
252.901	0.21	505802	keystroke_r	r	n/a
253.051	0.135	506102	keystroke_Key.space	Key.space	n/a
253.652	0.089	507304	keystroke_a	a	n/a
253.846	0.105	507692	keystroke_d	d	n/a
254.176	0.135	508352	keystroke_v	v	n/a
254.401	0.135	508802	keystroke_e	e	n/a
254.476	0.075	508952	keystroke_n	n	n/a
254.641	0.09	509282	keystroke_t	t	n/a
254.746	0.09	509492	keystroke_u	u	n/a
254.881	0.18	509762	keystroke_r	r	n/a
254.986	0.21	509972	keystroke_e	e	n/a
255.136	0.195	510272	keystroke_s	s	n/a
255.361	0.15	510722	keystroke_Key.space	Key.space	n/a
255.706	0.105	511412	keystroke_g	g	n/a
255.856	0.1355	511712	keystroke_i	i	n/a
255.946	0.1355	511892	keystroke_a	a	n/a
256.0965	0.09	512193	keystroke_n	n	n/a
256.5765	0.06	513153	keystroke_t	t	n/a
257.2665	0.075	514533	keystroke_Key.enter	Key.enter	n/a
257.35	7.553	514700	prompt	n/a	pointed parameters hydraulic licking\n
258.0315	0.09	516063	keystroke_p	p	n/a
258.2265	0.12	516453	keystroke_o	o	n/a
258.4215	0.195	516843	keystroke_i	i	n/a
258.5415	0.15	517083	keystroke_n	n	n/a
258.6465	0.09	517293	keystroke_t	t	n/a
258.7665	0.105	517533	keystroke_e	e	n/a
258.9765	0.12	517953	keystroke_d	d	n/a
259.1115	0.105	518223	keystroke_Key.space	Key.space	n/a
259.4565	0.105	518913	keystroke_p	p	n/a
259.5765	0.135	519153	keystroke_a	a	n/a
259.7265	0.165	519453	keystroke_r	r	n/a
259.8615	0.09	519723	keystroke_a	a	n/a
260.0115	0.105	520023	keystroke_m	m	n/a
260.2215	0.165	520443	keystroke_e	e	n/a
260.6415	0.09	521283	keystroke_t	t	n/a
260.7465	0.195	521493	keystroke_e	e	n/a
260.8515	0.18	521703	keystroke_r	r	n/a
261.0465	0.18	522093	keystroke_s	s	n/a
261.2115	0.12	522423	keystroke_Key.space	Key.space	n/a
261.4515	0.075	522903	keystroke_h	h	n/a
261.6615	0.105	523323	keystroke_y	y	n/a
261.8865	0.105	523773	keystroke_d	d	n/a
262.111	0.105	524222	keystroke_r	r	n/a
262.276	0.135	524552	keystroke_a	a	n/a
262.396	0.075	524792	keystroke_u	u	n/a
262.576	0.15	525152	keystroke_l	l	n/a
262.711	0.12	525422	keystroke_i	i	n/a
262.876	0.09	525752	keystroke_c	c	n/a
263.0855	0.09	526171	keystroke_Key.space	Key.space	n/a
263.222	0.1035	526444	keystroke_l	l	n/a
263.3565	0.105	526713	keystroke_i	i	n/a
263.4915	0.1355	526983	keystroke_c	c	n/a
263.6415	0.105	527283	keystroke_k	k	n/a
263.9565	0.194	527913	keystroke_i	i	n/a
264.0765	0.135	528153	keystroke_n	n	n/a
264.1965	0.09	528393	keystroke_g	g	n/a
264.8255	0.075	529651	keystroke_Key.enter	Key.enter	n/a
264.911	6.8925	529822	prompt	n/a	bumper stainless naval condos\n
265.8315	0.06	531663	keystroke_b	b	n/a
266.0405	0.061	532081	keystroke_u	u	n/a
266.2665	0.089	532533	keystroke_m	m	n/a
266.4765	0.09	532953	keystroke_p	p	n/a
266.6415	0.165	533283	keystroke_e	e	n/a
266.7465	0.195	533493	keystroke_r	r	n/a
266.9105	0.121	533821	keystroke_Key.space	Key.space	n/a
267.1065	0.165	534213	keystroke_s	s	n/a
267.2865	0.105	534573	keystroke_t	t	n/a
267.4515	0.15	534903	keystroke_a	a	n/a
267.6165	0.12	535233	keystroke_i	i	n/a
267.6615	0.15	535323	keystroke_n	n	n/a
267.8415	0.134	535683	keystroke_l	l	n/a
267.9615	0.135	535923	keystroke_e	e	n/a
268.0355	0.136	536071	keystroke_s	s	n/a
268.2465	0.135	536493	keystroke_s	s	n/a
268.3965	0.12	536793	keystroke_Key.space	Key.space	n/a
268.5315	0.09	537063	keystroke_n	n	n/a
268.6215	0.12	537243	keystroke_a	a	n/a
268.9215	0.061	537843	keystroke_v	v	n/a
269.3115	0.105	538623	keystroke_a	a	n/a
269.6265	0.075	539253	keystroke_l	l	n/a
270.1065	0.105	540213	keystroke_Key.space	Key.space	n/a
270.5565	0.09	541113	keystroke_c	c	n/a
270.6915	0.165	541383	keystroke_o	o	n/a
270.7965	0.12	541593	keystroke_n	n	n/a
271.2165	0.09	542433	keystroke_d	d	n/a
271.3665	0.105	542733	keystroke_o	o	n/a
271.5015	0.09	543003	keystroke_s	s	n/a
271.7415	0.06	543483	keystroke_Key.enter	Key.enter	n/a
271.8085	11.5745	543617	prompt	n/a	outdoor container racial racks\n
272.5965	0.165	545193	keystroke_s	s	n/a
272.7015	0.135	545403	keystroke_o	o	n/a
272.7915	0.12	545583	keystroke_u	u	n/a
272.9265	0.06	545853	keystroke_t	t	n/a
273.1215	0.075	546243	keystroke_s	s	n/a
273.6315	0.075	547263	keystroke_Key.backspace	Key.backspace	n/a
274.1115	0.06	548223	keystroke_Key.backspace	Key.backspace	n/a
274.2915	0.075	548583	keystroke_Key.backspace	Key.backspace	n/a
274.5305	0.076	549061	keystroke_Key.backspace	Key.backspace	n/a
274.8165	0.075	549633	keystroke_Key.backspace	Key.backspace	n/a
275.3415	0.135	550683	keystroke_o	o	n/a
275.4315	0.135	550863	keystroke_u	u	n/a
275.6265	0.105	551253	keystroke_t	t	n/a
275.9115	0.105	551823	keystroke_d	d	n/a
276.0765	0.06	552153	keystroke_o	o	n/a
276.2415	0.075	552483	keystroke_o	o	n/a
276.5415	0.105	553083	keystroke_r	r	n/a
276.7215	0.105	553443	keystroke_Key.space	Key.space	n/a
276.9615	0.12	553923	keystroke_c	c	n/a
277.0665	0.165	554133	keystroke_o	o	n/a
277.1865	0.09	554373	keystroke_n	n	n/a
277.2915	0.105	554583	keystroke_t	t	n/a
277.4565	0.12	554913	keystroke_a	a	n/a
277.7565	0.15	555513	keystroke_i	i	n/a
277.8315	0.15	555663	keystroke_n	n	n/a
278.0415	0.15	556083	keystroke_e	e	n/a
278.1465	0.18	556293	keystroke_r	r	n/a
280.6245	0.027	561249	keystroke_Key.space	Key.space	n/a
281.0565	0.18	562113	keystroke_r	r	n/a
281.2215	0.12	562443	keystroke_a	a	n/a
281.4765	0.09	562953	keystroke_c	c	n/a
281.5965	0.105	563193	keystroke_i	i	n/a
281.7165	0.12	563433	keystroke_a	a	n/a
281.8515	0.1195	563703	keystroke_l	l	n/a
281.986	0.09	563972	keystroke_Key.space	Key.space	n/a
282.152	0.135	564304	keystroke_r	r	n/a
282.331	0.136	564662	keystroke_a	a	n/a
282.631	0.106	565262	keystroke_c	c	n/a
282.841	0.106	565682	keystroke_k	k	n/a
283.007	0.09	566014	keystroke_s	s	n/a
283.337	0.044	566674	keystroke_Key.enter	Key.enter	n/a
283.388	18.54	566776	prompt	n/a	refund enormous massachusetts coordination\n
284.147	0.194	568294	keystroke_r	r	n/a
284.251	0.15	568502	keystroke_e	e	n/a
284.956	0.12	569912	keystroke_f	f	n/a
285.031	0.09	570062	keystroke_u	u	n/a
285.256	0.09	570512	keystroke_n	n	n/a
285.361	0.135	570722	keystroke_d	d	n/a
285.466	0.15	570932	keystroke_Key.space	Key.space	n/a
285.886	0.09	571772	keystroke_e	e	n/a
286.1415	0.12	572283	keystroke_n	n	n/a
286.2765	0.135	572553	keystroke_o	o	n/a
286.4565	0.135	572913	keystroke_r	r	n/a
286.636	0.09	573272	keystroke_m	m	n/a
286.966	0.135	573932	keystroke_o	o	n/a
287.056	0.12	574112	keystroke_u	u	n/a
287.161	0.1055	574322	keystroke_s	s	n/a
287.581	0.1205	575162	keystroke_Key.space	Key.space	n/a
287.8065	0.09	575613	keystroke_m	m	n/a
288.016	0.136	576032	keystroke_a	a	n/a
288.286	0.106	576572	keystroke_s	s	n/a
288.481	0.136	576962	keystroke_s	s	n/a
288.781	0.136	577562	keystroke_a	a	n/a
289.261	0.105	578522	keystroke_c	c	n/a
289.441	0.06	578882	keystroke_h	h	n/a
289.621	0.121	579242	keystroke_u	u	n/a
290.026	0.12	580052	keystroke_s	s	n/a
290.296	0.105	580592	keystroke_e	e	n/a
290.461	0.105	580922	keystroke_t	t	n/a
290.641	0.12	581282	keystroke_t	t	n/a
290.896	0.105	581792	keystroke_s	s	n/a
291.106	0.12	582212	keystroke_Key.space	Key.space	n/a
291.511	0.105	583022	keystroke_c	c	n/a
291.691	0.09	583382	keystroke_o	o	n/a
292.937	0.12	585874	keystroke_o	o	n/a
293.102	0.12	586204	keystroke_r	r	n/a
293.327	0.09	586654	keystroke_d	d	n/a
293.627	0.09	587254	keystroke_i	i	n/a
293.837	0.105	587674	keystroke_n	n	n/a
294.137	0.15	588274	keystroke_a	a	n/a
294.977	0.06	589954	keystroke_t	t	n/a
295.067	0.15	590134	keystroke_i	i	n/a
295.157	0.15	590314	keystroke_o	o	n/a
295.262	0.09	590524	keystroke_n	n	n/a
301.925	0	603850	keystroke_Key.enter	Key.enter	n/a
301.9335	6.6805	603867	prompt	n/a	alternatives towards rocket you\n
302.807	0.18	605614	keystroke_a	a	n/a
303.002	0.09	606004	keystroke_l	l	n/a
303.332	0.075	606664	keystroke_t	t	n/a
303.512	0.12	607024	keystroke_e	e	n/a
303.587	0.15	607174	keystroke_r	r	n/a
303.722	0.135	607444	keystroke_n	n	n/a
303.827	0.135	607654	keystroke_a	a	n/a
304.052	0.075	608104	keystroke_t	t	n/a
304.128	0.104	608256	keystroke_i	i	n/a
304.337	0.09	608674	keystroke_v	v	n/a
304.562	0.165	609124	keystroke_e	e	n/a
304.652	0.18	609304	keystroke_s	s	n/a
305.387	0.12	610774	keystroke_Key.space	Key.space	n/a
305.672	0.09	611344	keystroke_t	t	n/a
305.777	0.15	611554	keystroke_o	o	n/a
305.957	0.105	611914	keystroke_w	w	n/a
306.182	0.195	612364	keystroke_a	a	n/a
306.302	0.15	612604	keystroke_r	r	n/a
306.527	0.195	613054	keystroke_d	d	n/a
306.707	0.12	613414	keystroke_Key.space	Key.space	n/a
306.902	0.1045	613804	keystroke_r	r	n/a
306.9915	0.15	613983	keystroke_o	o	n/a
307.1715	0.0755	614343	keystroke_c	c	n/a
307.322	0.12	614644	keystroke_k	k	n/a
307.382	0.15	614764	keystroke_e	e	n/a
307.517	0.165	615034	keystroke_t	t	n/a
307.667	0.105	615334	keystroke_Key.space	Key.space	n/a
307.8315	0.12	615663	keystroke_y	y	n/a
307.9365	0.1655	615873	keystroke_o	o	n/a
308.042	0.1045	616084	keystroke_u	u	n/a
308.1615	0.06	616323	keystroke_r	r	n/a
308.5365	0.075	617073	keystroke_Key.enter	Key.enter	n/a
308.6185	10.165	617237	prompt	n/a	italiano scotland defendant rolled\n
310.1415	0.09	620283	keystroke_i	i	n/a
310.3665	0.135	620733	keystroke_l	l	n/a
310.5915	0.12	621183	keystroke_a	a	n/a
311.731	0.09	623462	keystroke_Key.backspace	Key.backspace	n/a
311.926	0.061	623852	keystroke_Key.backspace	Key.backspace	n/a
312.092	0.075	624184	keystroke_Key.backspace	Key.backspace	n/a
312.347	0.105	624694	keystroke_i	i	n/a
312.887	0.105	625774	keystroke_t	t	n/a
313.082	0.15	626164	keystroke_a	a	n/a
313.217	0.15	626434	keystroke_l	l	n/a
313.322	0.12	626644	keystroke_i	i	n/a
313.502	0.15	627004	keystroke_a	a	n/a
313.742	0.105	627484	keystroke_n	n	n/a
313.862	0.12	627724	keystroke_o	o	n/a
314.192	0.12	628384	keystroke_Key.space	Key.space	n/a
314.657	0.135	629314	keystroke_s	s	n/a
314.987	0.135	629974	keystroke_c	c	n/a
315.137	0.12	630274	keystroke_o	o	n/a
315.317	0.104	630634	keystroke_t	t	n/a
315.437	0.12	630874	keystroke_l	l	n/a
315.571	0.106	631142	keystroke_a	a	n/a
315.707	0.09	631414	keystroke_n	n	n/a
315.812	0.135	631624	keystroke_d	d	n/a
315.932	0.134	631864	keystroke_Key.space	Key.space	n/a
316.111	0.1065	632222	keystroke_d	d	n/a
316.321	0.0755	632642	keystroke_e	e	n/a
316.472	0.134	632944	keystroke_f	f	n/a
316.636	0.1355	633272	keystroke_e	e	n/a
316.7565	0.106	633513	keystroke_n	n	n/a
316.9365	0.09	633873	keystroke_d	d	n/a
317.1025	0.135	634205	keystroke_a	a	n/a
317.2375	0.09	634475	keystroke_n	n	n/a
317.3715	0.105	634743	keystroke_t	t	n/a
317.5215	0.12	635043	keystroke_Key.space	Key.space	n/a
317.7765	0.105	635553	keystroke_t	t	n/a
317.9115	0.0905	635823	keystroke_o	o	n/a
318.1365	0.075	636273	keystroke_l	l	n/a
318.2865	0.105	636573	keystroke_l	l	n/a
318.3615	0.09	636723	keystroke_e	e	n/a
318.5565	0.09	637113	keystroke_d	d	n/a
318.7065	0.075	637413	keystroke_Key.enter	Key.enter	n/a
318.7875	8.547	637575	prompt	n/a	addiction trains illinois garden\n
319.6065	0.09	639213	keystroke_a	a	n/a
319.8015	0.075	639603	keystroke_d	d	n/a
319.9665	0.12	639933	keystroke_d	d	n/a
320.1015	0.105	640203	keystroke_i	i	n/a
320.2365	0.09	640473	keystroke_c	c	n/a
320.4315	0.12	640863	keystroke_t	t	n/a
320.5215	0.09	641043	keystroke_i	i	n/a
320.5815	0.18	641163	keystroke_o	o	n/a
320.7015	0.12	641403	keystroke_n	n	n/a
320.8365	0.105	641673	keystroke_Key.space	Key.space	n/a
320.9865	0.075	641973	keystroke_t	t	n/a
321.1515	0.105	642303	keystroke_r	r	n/a
321.2865	0.15	642573	keystroke_a	a	n/a
321.4215	0.135	642843	keystroke_i	i	n/a
321.4525	0.134	642905	keystroke_n	n	n/a
321.6015	0.165	643203	keystroke_s	s	n/a
321.7215	0.105	643443	keystroke_Key.space	Key.space	n/a
322.082	0.119	644164	keystroke_i	i	n/a
322.307	0.09	644614	keystroke_l	l	n/a
322.487	0.135	644974	keystroke_l	l	n/a
322.607	0.15	645214	keystroke_i	i	n/a
324.935	0.117	649870	keystroke_n	n	n/a
324.992	0.165	649984	keystroke_o	o	n/a
325.112	0.12	650224	keystroke_i	i	n/a
325.247	0.12	650494	keystroke_s	s	n/a
325.952	0.119	651904	keystroke_Key.space	Key.space	n/a
326.132	0.105	652264	keystroke_g	g	n/a
326.312	0.18	652624	keystroke_a	a	n/a
326.402	0.135	652804	keystroke_r	r	n/a
326.627	0.09	653254	keystroke_d	d	n/a
326.821	0.091	653642	keystroke_e	e	n/a
326.942	0.09	653884	keystroke_n	n	n/a
327.257	0.075	654514	keystroke_Key.enter	Key.enter	n/a
327.339	8.23	654678	prompt	n/a	elections dreams parties scanning\n
328.742	0.105	657484	keystroke_e	e	n/a
328.877	0.12	657754	keystroke_l	l	n/a
329.012	0.09	658024	keystroke_e	e	n/a
329.237	0.105	658474	keystroke_c	c	n/a
329.462	0.12	658924	keystroke_t	t	n/a
329.597	0.09	659194	keystroke_i	i	n/a
329.642	0.18	659284	keystroke_o	o	n/a
329.762	0.135	659524	keystroke_n	n	n/a
329.882	0.165	659764	keystroke_s	s	n/a
330.062	0.105	660124	keystroke_Key.space	Key.space	n/a
330.242	0.105	660484	keystroke_d	d	n/a
330.452	0.165	660904	keystroke_r	r	n/a
330.572	0.18	661144	keystroke_e	e	n/a
330.737	0.135	661474	keystroke_a	a	n/a
330.887	0.12	661774	keystroke_m	m	n/a
331.022	0.12	662044	keystroke_s	s	n/a
331.217	0.105	662434	keystroke_Key.space	Key.space	n/a
331.502	0.135	663004	keystroke_p	p	n/a
331.922	0.195	663844	keystroke_a	a	n/a
332.042	0.135	664084	keystroke_r	r	n/a
332.252	0.075	664504	keystroke_t	t	n/a
332.372	0.12	664744	keystroke_i	i	n/a
332.462	0.15	664924	keystroke_e	e	n/a
332.567	0.18	665134	keystroke_s	s	n/a
332.747	0.12	665494	keystroke_Key.space	Key.space	n/a
333.272	0.105	666544	keystroke_s	s	n/a
333.497	0.09	666994	keystroke_c	c	n/a
334.052	0.12	668104	keystroke_a	a	n/a
334.307	0.06	668614	keystroke_n	n	n/a
334.472	0.105	668944	keystroke_n	n	n/a
334.547	0.195	669094	keystroke_i	i	n/a
334.667	0.105	669334	keystroke_n	n	n/a
334.757	0.09	669514	keystroke_g	g	n/a
335.492	0.075	670984	keystroke_Key.enter	Key.enter	n/a
335.574	6.0995	671148	prompt	n/a	brunette keywords away invest\n
336.347	0.09	672694	keystroke_b	b	n/a
336.647	0.135	673294	keystroke_r	r	n/a
336.797	0.075	673594	keystroke_u	u	n/a
337.007	0.12	674014	keystroke_n	n	n/a
337.127	0.195	674254	keystroke_e	e	n/a
337.307	0.075	674614	keystroke_t	t	n/a
337.472	0.105	674944	keystroke_t	t	n/a
337.622	0.18	675244	keystroke_e	e	n/a
337.787	0.105	675574	keystroke_Key.space	Key.space	n/a
338.102	0.12	676204	keystroke_k	k	n/a
338.282	0.105	676564	keystroke_e	e	n/a
338.447	0.105	676894	keystroke_y	y	n/a
338.642	0.12	677284	keystroke_w	w	n/a
338.792	0.105	677584	keystroke_o	o	n/a
338.912	0.105	677824	keystroke_r	r	n/a
339.122	0.12	678244	keystroke_d	d	n/a
339.272	0.165	678544	keystroke_s	s	n/a
339.422	0.135	678844	keystroke_Key.space	Key.space	n/a
339.617	0.18	679234	keystroke_a	a	n/a
339.8715	0.165	679743	keystroke_w	w	n/a
339.9915	0.135	679983	keystroke_a	a	n/a
340.2165	0.105	680433	keystroke_y	y	n/a
340.3815	0.15	680763	keystroke_Key.space	Key.space	n/a
340.6075	0.194	681215	keystroke_i	i	n/a
340.7865	0.09	681573	keystroke_n	n	n/a
340.9065	0.105	681813	keystroke_v	v	n/a
341.1015	0.136	682203	keystroke_e	e	n/a
341.1915	0.195	682383	keystroke_s	s	n/a
341.3125	0.104	682625	keystroke_t	t	n/a
341.5815	0.09	683163	keystroke_Key.enter	Key.enter	n/a
341.6785	8.2155	683357	prompt	n/a	contribute armor licensed specifies\n
342.7975	0.09	685595	keystroke_c	c	n/a
342.9775	0.15	685955	keystroke_o	o	n/a
343.0515	0.121	686103	keystroke_n	n	n/a
343.2175	0.074	686435	keystroke_t	t	n/a
343.3975	0.119	686795	keystroke_r	r	n/a
343.5315	0.076	687063	keystroke_i	i	n/a
343.6975	0.09	687395	keystroke_b	b	n/a
343.9215	0.105	687843	keystroke_u	u	n/a
344.0415	0.135	688083	keystroke_t	t	n/a
344.1465	0.15	688293	keystroke_e	e	n/a
344.2815	0.12	688563	keystroke_Key.space	Key.space	n/a
344.5065	0.15	689013	keystroke_a	a	n/a
344.7765	0.105	689553	keystroke_r	r	n/a
344.9415	0.09	689883	keystroke_m	m	n/a
345.1365	0.09	690273	keystroke_o	o	n/a
345.2565	0.135	690513	keystroke_r	r	n/a
345.4365	0.12	690873	keystroke_Key.space	Key.space	n/a
345.5875	0.119	691175	keystroke_l	l	n/a
345.6615	0.135	691323	keystroke_i	i	n/a
346.1565	0.105	692313	keystroke_c	c	n/a
346.3965	0.12	692793	keystroke_e	e	n/a
346.5015	0.075	693003	keystroke_n	n	n/a
346.6665	0.18	693333	keystroke_s	s	n/a
346.7715	0.105	693543	keystroke_e	e	n/a
346.9665	0.15	693933	keystroke_d	d	n/a
347.1015	0.12	694203	keystroke_Key.space	Key.space	n/a
347.2365	0.12	694473	keystroke_s	s	n/a
347.4165	0.105	694833	keystroke_p	p	n/a
347.5515	0.09	695103	keystroke_e	e	n/a
347.7615	0.12	695523	keystroke_c	c	n/a
347.8665	0.12	695733	keystroke_i	i	n/a
348.8575	0.12	697715	keystroke_f	f	n/a
348.9925	0.075	697985	keystroke_i	i	n/a
349.0525	0.164	698105	keystroke_e	e	n/a
349.1715	0.12	698343	keystroke_s	s	n/a
349.7875	0.104	699575	keystroke_Key.enter	Key.enter	n/a
349.8985	19.211	699797	prompt	n/a	sent norway warnings vbulletin\n
351.0625	0.164	702125	keystroke_s	s	n/a
351.1965	0.135	702393	keystroke_e	e	n/a
351.3165	0.105	702633	keystroke_n	n	n/a
351.4515	0.12	702903	keystroke_t	t	n/a
351.5865	0.105	703173	keystroke_Key.space	Key.space	n/a
351.7515	0.105	703503	keystroke_n	n	n/a
351.9765	0.106	703953	keystroke_o	o	n/a
352.2925	0.134	704585	keystroke_r	r	n/a
352.8765	0.15	705753	keystroke_w	w	n/a
352.9965	0.12	705993	keystroke_a	a	n/a
353.1765	0.106	706353	keystroke_y	y	n/a
353.3565	0.12	706713	keystroke_Key.space	Key.space	n/a
353.5965	0.091	707193	keystroke_w	w	n/a
353.8225	0.165	707645	keystroke_a	a	n/a
353.9265	0.15	707853	keystroke_r	r	n/a
354.0925	0.15	708185	keystroke_n	n	n/a
354.2125	0.195	708425	keystroke_i	i	n/a
354.3325	0.134	708665	keystroke_n	n	n/a
354.4375	0.104	708875	keystroke_g	g	n/a
354.6175	0.15	709235	keystroke_s	s	n/a
354.8115	0.121	709623	keystroke_Key.space	Key.space	n/a
356.2675	0.105	712535	keystroke_v	v	n/a
356.5525	0.074	713105	keystroke_b	b	n/a
357.3475	0.089	714695	keystroke_u	u	n/a
360.0355	0.072	720071	keystroke_l	l	n/a
360.5425	0.15	721085	keystroke_e	e	n/a
361.0075	0.09	722015	keystroke_t	t	n/a
361.1425	0.15	722285	keystroke_i	i	n/a
361.2175	0.12	722435	keystroke_n	n	n/a
364.6255	0.072	729251	keystroke_Key.left	Key.left	n/a
364.8925	0.105	729785	keystroke_Key.left	Key.left	n/a
365.1175	0.134	730235	keystroke_Key.left	Key.left	n/a
365.4475	0.105	730895	keystroke_Key.left	Key.left	n/a
366.2575	0.105	732515	keystroke_l	l	n/a
366.9625	0.12	733925	keystroke_Key.right	Key.right	n/a
367.1875	0.105	734375	keystroke_Key.right	Key.right	n/a
367.3975	0.12	734795	keystroke_Key.right	Key.right	n/a
367.6375	0.12	735275	keystroke_Key.right	Key.right	n/a
369.0325	0.075	738065	keystroke_Key.enter	Key.enter	n/a
369.1135	16.046	738227	prompt	n/a	resolved hundreds excellence genes\n
370.0075	0.18	740015	keystroke_r	r	n/a
370.1125	0.135	740225	keystroke_e	e	n/a
370.3075	0.165	740615	keystroke_s	s	n/a
370.4275	0.09	740855	keystroke_o	o	n/a
370.6375	0.135	741275	keystroke_l	l	n/a
370.8175	0.105	741635	keystroke_v	v	n/a
371.0425	0.21	742085	keystroke_e	e	n/a
371.2225	0.165	742445	keystroke_s	s	n/a
372.122	0.09	744244	keystroke_Key.backspace	Key.backspace	n/a
372.347	0.09	744694	keystroke_Key.backspace	Key.backspace	n/a
372.572	0.075	745144	keystroke_Key.backspace	Key.backspace	n/a
375.11	0.027	750220	keystroke_Key.backspace	Key.backspace	n/a
377.346	0.042	754692	keystroke_l	l	n/a
377.612	0.106	755224	keystroke_v	v	n/a
377.792	0.12	755584	keystroke_e	e	n/a
378.033	0.09	756066	keystroke_d	d	n/a
378.318	0.119	756636	keystroke_Key.space	Key.space	n/a
378.678	0.119	757356	keystroke_h	h	n/a
378.873	0.105	757746	keystroke_u	u	n/a
379.128	0.1045	758256	keystroke_n	n	n/a
379.2915	0.091	758583	keystroke_d	d	n/a
379.4875	0.165	758975	keystroke_r	r	n/a
379.5915	0.1965	759183	keystroke_e	e	n/a
380.838	0.119	761676	keystroke_d	d	n/a
381.017	0.105	762034	keystroke_s	s	n/a
381.858	0.119	763716	keystroke_Key.space	Key.space	n/a
382.0525	0.09	764105	keystroke_e	e	n/a
382.2625	0.105	764525	keystroke_x	x	n/a
382.6525	0.075	765305	keystroke_c	c	n/a
382.8475	0.105	765695	keystroke_e	e	n/a
382.9825	0.075	765965	keystroke_l	l	n/a
383.1475	0.105	766295	keystroke_l	l	n/a
383.2225	0.12	766445	keystroke_e	e	n/a
383.3435	0.104	766687	keystroke_n	n	n/a
383.5525	0.105	767105	keystroke_c	c	n/a
383.7625	0.165	767525	keystroke_e	e	n/a
383.8975	0.15	767795	keystroke_Key.space	Key.space	n/a
384.3025	0.09	768605	keystroke_g	g	n/a
384.4525	0.1045	768905	keystroke_e	e	n/a
384.602	0.12	769204	keystroke_n	n	n/a
384.707	0.135	769414	keystroke_e	e	n/a
384.797	0.135	769594	keystroke_s	s	n/a
385.067	0.09	770134	keystroke_Key.enter	Key.enter	n/a
385.1665	6.2025	770333	prompt	n/a	truck epic wells displaying\n
385.997	0.09	771994	keystroke_t	t	n/a
386.207	0.09	772414	keystroke_r	r	n/a
386.597	0.12	773194	keystroke_u	u	n/a
386.777	0.105	773554	keystroke_c	c	n/a
386.912	0.105	773824	keystroke_k	k	n/a
387.047	0.12	774094	keystroke_Key.space	Key.space	n/a
387.362	0.09	774724	keystroke_e	e	n/a
387.527	0.15	775054	keystroke_p	p	n/a
387.662	0.105	775324	keystroke_i	i	n/a
387.812	0.09	775624	keystroke_c	c	n/a
388.472	0.105	776944	keystroke_Key.space	Key.space	n/a
388.832	0.165	777664	keystroke_w	w	n/a
388.952	0.135	777904	keystroke_e	e	n/a
389.117	0.09	778234	keystroke_l	l	n/a
389.282	0.105	778564	keystroke_l	l	n/a
389.402	0.135	778804	keystroke_s	s	n/a
389.522	0.12	779044	keystroke_Key.space	Key.space	n/a
389.702	0.105	779404	keystroke_d	d	n/a
389.957	0.12	779914	keystroke_e	e	n/a
390.107	0.15	780214	keystroke_s	s	n/a
390.272	0.09	780544	keystroke_p	p	n/a
390.467	0.105	780934	keystroke_l	l	n/a
390.527	0.135	781054	keystroke_a	a	n/a
390.692	0.105	781384	keystroke_y	y	n/a
390.917	0.165	781834	keystroke_i	i	n/a
391.022	0.12	782044	keystroke_n	n	n/a
391.097	0.09	782194	keystroke_g	g	n/a
391.292	0.075	782584	keystroke_Key.enter	Key.enter	n/a
391.373	7.901	782746	prompt	n/a	seat directories tapes top\n
392.027	0.15	784054	keystroke_s	s	n/a
392.192	0.12	784384	keystroke_e	e	n/a
392.342	0.18	784684	keystroke_a	a	n/a
392.462	0.165	784924	keystroke_t	t	n/a
392.612	0.105	785224	keystroke_Key.space	Key.space	n/a
392.792	0.15	785584	keystroke_d	d	n/a
392.987	0.09	785974	keystroke_i	i	n/a
393.122	0.165	786244	keystroke_r	r	n/a
393.227	0.12	786454	keystroke_e	e	n/a
393.467	0.09	786934	keystroke_c	c	n/a
393.677	0.12	787354	keystroke_t	t	n/a
393.812	0.15	787624	keystroke_i	i	n/a
395.447	0.045	790894	keystroke_Key.backspace	Key.backspace	n/a
395.687	0.105	791374	keystroke_o	o	n/a
395.942	0.106	791884	keystroke_r	r	n/a
396.062	0.105	792124	keystroke_i	i	n/a
396.407	0.135	792814	keystroke_e	e	n/a
396.497	0.15	792994	keystroke_s	s	n/a
396.767	0.12	793534	keystroke_Key.space	Key.space	n/a
397.007	0.09	794014	keystroke_t	t	n/a
397.292	0.15	794584	keystroke_a	a	n/a
397.502	0.12	795004	keystroke_p	p	n/a
397.607	0.12	795214	keystroke_e	e	n/a
397.682	0.15	795364	keystroke_s	s	n/a
398.402	0.105	796804	keystroke_Key.space	Key.space	n/a
398.627	0.09	797254	keystroke_t	t	n/a
398.822	0.15	797644	keystroke_o	o	n/a
398.897	0.135	797794	keystroke_p	p	n/a
399.212	0.06	798424	keystroke_Key.enter	Key.enter	n/a
399.279	16.3605	798558	prompt	n/a	entrepreneur possession wild clinic\n
400.533	0.134	801066	keystroke_e	e	n/a
400.668	0.104	801336	keystroke_n	n	n/a
400.878	0.074	801756	keystroke_t	t	n/a
401.117	0.15	802234	keystroke_r	r	n/a
401.777	0.106	803554	keystroke_e	e	n/a
402.6775	0.105	805355	keystroke_p	p	n/a
403.0075	0.165	806015	keystroke_r	r	n/a
403.0975	0.18	806195	keystroke_e	e	n/a
403.9225	0.06	807845	keystroke_n	n	n/a
404.1625	0.135	808325	keystroke_e	e	n/a
404.5075	0.09	809015	keystroke_u	u	n/a
404.6425	0.09	809285	keystroke_r	r	n/a
405.3475	0.105	810695	keystroke_Key.space	Key.space	n/a
405.5425	0.15	811085	keystroke_p	p	n/a
405.6775	0.135	811355	keystroke_o	o	n/a
405.7975	0.09	811595	keystroke_s	s	n/a
405.9775	0.1205	811955	keystroke_s	s	n/a
406.1725	0.105	812345	keystroke_i	i	n/a
406.3675	0.135	812735	keystroke_s	s	n/a
406.473	0.1795	812946	keystroke_i	i	n/a
406.5925	0.195	813185	keystroke_o	o	n/a
406.7125	0.12	813425	keystroke_n	n	n/a
407.7175	0.12	815435	keystroke_Key.space	Key.space	n/a
408.0475	0.18	816095	keystroke_w	w	n/a
408.6325	0.075	817265	keystroke_Key.backspace	Key.backspace	n/a
408.8275	0.0895	817655	keystroke_Key.backspace	Key.backspace	n/a
409.022	0.09	818044	keystroke_Key.backspace	Key.backspace	n/a
409.232	0.09	818464	keystroke_Key.backspace	Key.backspace	n/a
409.922	0.06	819844	keystroke_Key.backspace	Key.backspace	n/a
411.3625	0.09	822725	keystroke_Key.backspace	Key.backspace	n/a
411.9625	0.0895	823925	keystroke_Key.backspace	Key.backspace	n/a
412.143	0.149	824286	keystroke_e	e	n/a
412.398	0.105	824796	keystroke_s	s	n/a
412.592	0.106	825184	keystroke_s	s	n/a
412.728	0.179	825456	keystroke_i	i	n/a
412.833	0.165	825666	keystroke_o	o	n/a
412.938	0.134	825876	keystroke_n	n	n/a
413.387	0.105	826774	keystroke_Key.space	Key.space	n/a
413.583	0.15	827166	keystroke_w	w	n/a
413.687	0.09	827374	keystroke_i	i	n/a
413.867	0.12	827734	keystroke_l	l	n/a
414.032	0.105	828064	keystroke_d	d	n/a
414.212	0.135	828424	keystroke_Key.space	Key.space	n/a
414.512	0.106	829024	keystroke_c	c	n/a
414.632	0.135	829264	keystroke_l	l	n/a
414.737	0.136	829474	keystroke_i	i	n/a
414.932	0.166	829864	keystroke_n	n	n/a
415.082	0.121	830164	keystroke_i	i	n/a
415.232	0.106	830464	keystroke_c	c	n/a
415.578	0.059	831156	keystroke_Key.enter	Key.enter	n/a
415.643	8.3065	831286	prompt	n/a	reminder draw mechanisms adjustments\n
416.553	0.15	833106	keystroke_r	r	n/a
416.642	0.136	833284	keystroke_e	e	n/a
416.779	0.089	833558	keystroke_m	m	n/a
416.972	0.181	833944	keystroke_i	i	n/a
417.078	0.149	834156	keystroke_n	n	n/a
417.137	0.105	834274	keystroke_d	d	n/a
417.362	0.136	834724	keystroke_e	e	n/a
417.437	0.166	834874	keystroke_r	r	n/a
417.542	0.12	835084	keystroke_Key.space	Key.space	n/a
417.738	0.09	835476	keystroke_d	d	n/a
417.978	0.165	835956	keystroke_r	r	n/a
418.248	0.194	836496	keystroke_a	a	n/a
418.368	0.15	836736	keystroke_w	w	n/a
418.683	0.12	837366	keystroke_Key.space	Key.space	n/a
418.863	0.104	837726	keystroke_m	m	n/a
419.208	0.09	838416	keystroke_e	e	n/a
419.493	0.089	838986	keystroke_c	c	n/a
419.627	0.106	839254	keystroke_h	h	n/a
419.763	0.165	839526	keystroke_a	a	n/a
420.033	0.18	840066	keystroke_n	n	n/a
420.153	0.12	840306	keystroke_i	i	n/a
420.317	0.106	840634	keystroke_s	s	n/a
420.528	0.105	841056	keystroke_m	m	n/a
420.678	0.105	841356	keystroke_s	s	n/a
420.992	0.105	841984	keystroke_Key.space	Key.space	n/a
421.173	0.104	842346	keystroke_a	a	n/a
421.398	0.105	842796	keystroke_d	d	n/a
421.983	0.074	843966	keystroke_j	j	n/a
422.178	0.105	844356	keystroke_u	u	n/a
422.298	0.21	844596	keystroke_s	s	n/a
422.492	0.105	844984	keystroke_t	t	n/a
422.658	0.105	845316	keystroke_m	m	n/a
422.778	0.119	845556	keystroke_e	e	n/a
422.898	0.105	845796	keystroke_n	n	n/a
423.063	0.075	846126	keystroke_t	t	n/a
423.242	0.075	846484	keystroke_s	s	n/a
423.843	0.104	847686	keystroke_Key.enter	Key.enter	n/a
423.9535	9.011	847907	prompt	n/a	rain cent italian northwest\n
424.758	0.105	849516	keystroke_r	r	n/a
424.893	0.18	849786	keystroke_a	a	n/a
425.043	0.15	850086	keystroke_i	i	n/a
425.148	0.105	850296	keystroke_n	n	n/a
425.267	0.121	850534	keystroke_Key.space	Key.space	n/a
425.508	0.09	851016	keystroke_c	c	n/a
425.733	0.105	851466	keystroke_e	e	n/a
425.808	0.105	851616	keystroke_n	n	n/a
425.973	0.105	851946	keystroke_t	t	n/a
426.078	0.134	852156	keystroke_Key.space	Key.space	n/a
426.707	0.091	853414	keystroke_i	i	n/a
426.873	0.09	853746	keystroke_t	t	n/a
427.023	0.135	854046	keystroke_a	a	n/a
427.203	0.15	854406	keystroke_l	l	n/a
427.293	0.135	854586	keystroke_i	i	n/a
427.443	0.135	854886	keystroke_a	a	n/a
427.593	0.135	855186	keystroke_n	n	n/a
427.773	0.12	855546	keystroke_Key.space	Key.space	n/a
428.013	0.15	856026	keystroke_n	n	n/a
428.118	0.135	856236	keystroke_o	o	n/a
428.238	0.09	856476	keystroke_r	r	n/a
428.433	0.09	856866	keystroke_t	t	n/a
428.508	0.105	857016	keystroke_h	h	n/a
428.988	0.18	857976	keystroke_w	w	n/a
429.123	0.18	858246	keystroke_e	e	n/a
429.318	0.165	858636	keystroke_s	s	n/a
429.438	0.105	858876	keystroke_t	t	n/a
432.951	0.012	865902	keystroke_Key.enter	Key.enter	n/a
432.969	8.4565	865938	prompt	n/a	spray capital beginners sara\n
433.773	0.165	867546	keystroke_s	s	n/a
433.923	0.105	867846	keystroke_p	p	n/a
434.103	0.105	868206	keystroke_r	r	n/a
434.268	0.15	868536	keystroke_a	a	n/a
434.448	0.12	868896	keystroke_y	y	n/a
434.718	0.135	869436	keystroke_Key.space	Key.space	n/a
435.303	0.12	870606	keystroke_c	c	n/a
435.528	0.164	871056	keystroke_a	a	n/a
436.1285	0.149	872257	keystroke_p	p	n/a
436.2325	0.135	872465	keystroke_i	i	n/a
436.4125	0.105	872825	keystroke_t	t	n/a
436.5775	0.15	873155	keystroke_a	a	n/a
436.8175	0.165	873635	keystroke_l	l	n/a
437.3875	0.06	874775	keystroke_Key.backspace	Key.backspace	n/a
437.8675	0.091	875735	keystroke_l	l	n/a
438.5725	0.105	877145	keystroke_Key.space	Key.space	n/a
438.8575	0.135	877715	keystroke_b	b	n/a
438.9785	0.119	877957	keystroke_e	e	n/a
439.2485	0.105	878497	keystroke_g	g	n/a
439.3825	0.151	878765	keystroke_i	i	n/a
439.4885	0.104	878977	keystroke_n	n	n/a
439.6675	0.121	879335	keystroke_n	n	n/a
439.8335	0.164	879667	keystroke_e	e	n/a
439.9235	0.179	879847	keystroke_r	r	n/a
440.1175	0.18	880235	keystroke_s	s	n/a
440.2825	0.12	880565	keystroke_Key.space	Key.space	n/a
440.4475	0.105	880895	keystroke_s	s	n/a
440.6875	0.18	881375	keystroke_a	a	n/a
440.8975	0.135	881795	keystroke_r	r	n/a
441.0175	0.105	882035	keystroke_a	a	n/a
441.3925	0.03	882785	keystroke_Key.enter	Key.enter	n/a
441.4315	8.453	882863	prompt	n/a	fixed creek reliability sparc\n
442.443	0.135	884886	keystroke_f	f	n/a
442.593	0.09	885186	keystroke_i	i	n/a
442.818	0.105	885636	keystroke_x	x	n/a
443.058	0.075	886116	keystroke_e	e	n/a
443.298	0.06	886596	keystroke_d	d	n/a
443.688	0.12	887376	keystroke_Key.space	Key.space	n/a
444.153	0.075	888306	keystroke_c	c	n/a
444.348	0.15	888696	keystroke_r	r	n/a
444.528	0.09	889056	keystroke_e	e	n/a
444.723	0.075	889446	keystroke_e	e	n/a
444.888	0.12	889776	keystroke_k	k	n/a
445.083	0.105	890166	keystroke_Key.space	Key.space	n/a
445.443	0.135	890886	keystroke_r	r	n/a
445.548	0.15	891096	keystroke_e	e	n/a
445.833	0.12	891666	keystroke_l	l	n/a
446.073	0.12	892146	keystroke_i	i	n/a
446.268	0.165	892536	keystroke_a	a	n/a
446.628	0.15	893256	keystroke_b	b	n/a
446.748	0.105	893496	keystroke_i	i	n/a
447.048	0.03	894096	keystroke_l	l	n/a
447.063	0.12	894126	keystroke_i	i	n/a
447.168	0.09	894336	keystroke_t	t	n/a
447.288	0.105	894576	keystroke_y	y	n/a
447.468	0.12	894936	keystroke_Key.space	Key.space	n/a
447.648	0.15	895296	keystroke_s	s	n/a
448.578	0.12	897156	keystroke_p	p	n/a
448.923	0.18	897846	keystroke_a	a	n/a
449.073	0.09	898146	keystroke_r	r	n/a
449.343	0.09	898686	keystroke_c	c	n/a
449.808	0.075	899616	keystroke_Key.enter	Key.enter	n/a
449.889	11.1405	899778	prompt	n/a	georgia hunter avatar toyota\n
450.678	0.12	901356	keystroke_g	g	n/a
450.948	0.135	901896	keystroke_e	e	n/a
451.113	0.12	902226	keystroke_o	o	n/a
451.338	0.12	902676	keystroke_r	r	n/a
451.788	0.09	903576	keystroke_g	g	n/a
451.923	0.105	903846	keystroke_i	i	n/a
452.268	0.165	904536	keystroke_a	a	n/a
452.463	0.12	904926	keystroke_Key.space	Key.space	n/a
452.643	0.045	905286	keystroke_h	h	n/a
452.808	0.105	905616	keystroke_u	u	n/a
453.063	0.105	906126	keystroke_n	n	n/a
453.828	0.105	907656	keystroke_t	t	n/a
454.578	0.15	909156	keystroke_e	e	n/a
454.668	0.165	909336	keystroke_r	r	n/a
454.968	0.12	909936	keystroke_Key.space	Key.space	n/a
455.418	0.12	910836	keystroke_a	a	n/a
456.078	0.105	912156	keystroke_v	v	n/a
456.288	0.12	912576	keystroke_a	a	n/a
456.558	0.105	913116	keystroke_t	t	n/a
456.843	0.18	913686	keystroke_a	a	n/a
456.963	0.135	913926	keystroke_r	r	n/a
457.143	0.165	914286	keystroke_Key.space	Key.space	n/a
458.493	0.12	916986	keystroke_t	t	n/a
458.628	0.15	917256	keystroke_o	o	n/a
458.853	0.18	917706	keystroke_y	y	n/a
458.973	0.15	917946	keystroke_o	o	n/a
459.768	0.105	919536	keystroke_t	t	n/a
459.978	0.12	919956	keystroke_a	a	n/a
460.923	0.105	921846	keystroke_Key.enter	Key.enter	n/a
461.0335	22.677	922067	prompt	n/a	tips perspectives slovak governance\n
462.138	0.045	924276	keystroke_u	u	n/a
462.5275	0.0755	925055	keystroke_Key.backspace	Key.backspace	n/a
462.6925	0.0905	925385	keystroke_t	t	n/a
462.903	0.165	925806	keystroke_i	i	n/a
463.038	0.135	926076	keystroke_p	p	n/a
463.6675	0.18	927335	keystroke_s	s	n/a
463.8775	0.1205	927755	keystroke_Key.space	Key.space	n/a
464.028	0.09	928056	keystroke_p	p	n/a
464.253	0.195	928506	keystroke_e	e	n/a
464.343	0.15	928686	keystroke_r	r	n/a
464.538	0.15	929076	keystroke_s	s	n/a
464.748	0.135	929496	keystroke_p	p	n/a
465.063	0.09	930126	keystroke_e	e	n/a
465.288	0.075	930576	keystroke_c	c	n/a
465.498	0.09	930996	keystroke_t	t	n/a
465.558	0.075	931116	keystroke_i	i	n/a
465.768	0.12	931536	keystroke_v	v	n/a
465.873	0.165	931746	keystroke_e	e	n/a
465.948	0.225	931896	keystroke_s	s	n/a
466.143	0.12	932286	keystroke_Key.space	Key.space	n/a
466.998	0.135	933996	keystroke_s	s	n/a
467.118	0.075	934236	keystroke_l	l	n/a
467.283	0.075	934566	keystroke_o	o	n/a
467.493	0.105	934986	keystroke_v	v	n/a
467.628	0.135	935256	keystroke_a	a	n/a
467.823	0.0895	935646	keystroke_k	k	n/a
468.1085	0.12	936217	keystroke_Key.space	Key.space	n/a
468.3935	0.075	936787	keystroke_g	g	n/a
468.5585	0.105	937117	keystroke_o	o	n/a
468.8135	0.09	937627	keystroke_v	v	n/a
468.9335	0.12	937867	keystroke_e	e	n/a
469.0085	0.15	938017	keystroke_r	r	n/a
469.1435	0.105	938287	keystroke_n	n	n/a
469.3385	0.135	938677	keystroke_e	e	n/a
470.6875	0.075	941375	keystroke_Key.backspace	Key.backspace	n/a
471.5735	0.15	943147	keystroke_a	a	n/a
476.1965	0.042	952393	keystroke_a	a	n/a
476.2835	0.105	952567	keystroke_n	n	n/a
476.4335	0.12	952867	keystroke_c	c	n/a
476.6435	0.105	953287	keystroke_e	e	n/a
479.2235	0.105	958447	keystroke_Key.backspace	Key.backspace	n/a
479.5535	0.09	959107	keystroke_Key.backspace	Key.backspace	n/a
479.8985	0.06	959797	keystroke_Key.backspace	Key.backspace	n/a
480.7385	0.09	961477	keystroke_Key.backspace	Key.backspace	n/a
482.4035	0.06	964807	keystroke_n	n	n/a
482.6885	0.12	965377	keystroke_c	c	n/a
482.9135	0.075	965827	keystroke_e	e	n/a
483.6185	0.09	967237	keystroke_Key.enter	Key.enter	n/a
483.7155	10.7945	967431	prompt	n/a	renaissance commodity philips lack\n
484.5485	0.18	969097	keystroke_r	r	n/a
484.6535	0.24	969307	keystroke_e	e	n/a
485.2835	0.09	970567	keystroke_n	n	n/a
485.4935	0.135	970987	keystroke_a	a	n/a
485.6885	0.12	971377	keystroke_i	i	n/a
485.8535	0.075	971707	keystroke_s	s	n/a
486.0335	0.075	972067	keystroke_s	s	n/a
486.2135	0.09	972427	keystroke_a	a	n/a
486.3185	0.105	972637	keystroke_n	n	n/a
486.4685	0.105	972937	keystroke_c	c	n/a
486.6935	0.15	973387	keystroke_e	e	n/a
486.8285	0.12	973657	keystroke_Key.space	Key.space	n/a
487.0835	0.12	974167	keystroke_c	c	n/a
487.2785	0.09	974557	keystroke_o	o	n/a
487.4885	0.075	974977	keystroke_m	m	n/a
487.6535	0.105	975307	keystroke_m	m	n/a
487.8485	0.135	975697	keystroke_o	o	n/a
488.2235	0.15	976447	keystroke_d	d	n/a
488.3745	0.089	976749	keystroke_i	i	n/a
488.5085	0.09	977017	keystroke_t	t	n/a
488.6135	0.12	977227	keystroke_y	y	n/a
488.8535	0.12	977707	keystroke_Key.space	Key.space	n/a
489.1085	0.105	978217	keystroke_p	p	n/a
489.4985	0.15	978997	keystroke_h	h	n/a
489.7985	0.105	979597	keystroke_i	i	n/a
490.3535	0.135	980707	keystroke_l	l	n/a
490.4735	0.195	980947	keystroke_i	i	n/a
490.6385	0.135	981277	keystroke_p	p	n/a
490.788	0.165	981576	keystroke_s	s	n/a
491.0135	0.1195	982027	keystroke_Key.space	Key.space	n/a
491.1935	0.1195	982387	keystroke_l	l	n/a
491.298	0.1055	982596	keystroke_a	a	n/a
491.553	0.09	983106	keystroke_c	c	n/a
491.703	0.09	983406	keystroke_k	k	n/a
494.481	0.027	988962	keystroke_Key.enter	Key.enter	n/a
494.5165	6.6095	989033	prompt	n/a	holland hands grey gage\n
495.783	0.166	991566	keystroke_h	h	n/a
495.888	0.1055	991776	keystroke_o	o	n/a
496.098	0.075	992196	keystroke_l	l	n/a
496.263	0.105	992526	keystroke_l	l	n/a
496.353	0.135	992706	keystroke_a	a	n/a
496.503	0.0905	993006	keystroke_n	n	n/a
496.623	0.15	993246	keystroke_d	d	n/a
496.758	0.15	993516	keystroke_Key.space	Key.space	n/a
496.893	0.12	993786	keystroke_h	h	n/a
497.014	0.119	994028	keystroke_a	a	n/a
497.134	0.119	994268	keystroke_n	n	n/a
497.643	0.15	995286	keystroke_d	d	n/a
497.883	0.12	995766	keystroke_s	s	n/a
498.603	0.105	997206	keystroke_Key.space	Key.space	n/a
498.843	0.12	997686	keystroke_g	g	n/a
499.099	0.134	998198	keystroke_r	r	n/a
499.458	0.075	998916	keystroke_e	e	n/a
499.608	0.105	999216	keystroke_y	y	n/a
500.163	0.09	1000326	keystroke_Key.space	Key.space	n/a
500.418	0.075	1000836	keystroke_g	g	n/a
500.583	0.136	1001166	keystroke_a	a	n/a
500.763	0.12	1001526	keystroke_g	g	n/a
500.869	0.105	1001738	keystroke_e	e	n/a
501.033	0.09	1002066	keystroke_Key.enter	Key.enter	n/a
501.1335	5.3465	1002267	prompt	n/a	align orange traffic knew\n
502.219	0.135	1004438	keystroke_a	a	n/a
502.383	0.15	1004766	keystroke_l	l	n/a
502.473	0.12	1004946	keystroke_i	i	n/a
502.653	0.09	1005306	keystroke_g	g	n/a
502.818	0.09	1005636	keystroke_n	n	n/a
503.073	0.105	1006146	keystroke_Key.space	Key.space	n/a
503.283	0.106	1006566	keystroke_o	o	n/a
503.358	0.135	1006716	keystroke_r	r	n/a
503.658	0.015	1007316	keystroke_a	a	n/a
503.688	0.09	1007376	keystroke_n	n	n/a
503.793	0.135	1007586	keystroke_g	g	n/a
503.913	0.18	1007826	keystroke_e	e	n/a
504.048	0.12	1008096	keystroke_Key.space	Key.space	n/a
504.258	0.06	1008516	keystroke_t	t	n/a
504.424	0.089	1008848	keystroke_r	r	n/a
504.528	0.136	1009056	keystroke_a	a	n/a
504.798	0.09	1009596	keystroke_f	f	n/a
505.038	0.091	1010076	keystroke_f	f	n/a
505.219	0.104	1010438	keystroke_i	i	n/a
505.338	0.136	1010676	keystroke_c	c	n/a
505.518	0.105	1011036	keystroke_Key.space	Key.space	n/a
505.774	0.074	1011548	keystroke_k	k	n/a
505.969	0.134	1011938	keystroke_n	n	n/a
506.118	0.12	1012236	keystroke_e	e	n/a
506.193	0.12	1012386	keystroke_w	w	n/a
506.388	0.09	1012776	keystroke_Key.enter	Key.enter	n/a
506.4845	10.001	1012969	prompt	n/a	tomatoes airport promises sponsor\n
507.423	0.09	1014846	keystroke_t	t	n/a
507.544	0.15	1015088	keystroke_o	o	n/a
507.828	0.12	1015656	keystroke_m	m	n/a
507.979	0.104	1015958	keystroke_a	a	n/a
508.189	0.104	1016378	keystroke_t	t	n/a
508.308	0.12	1016616	keystroke_o	o	n/a
508.459	0.15	1016918	keystroke_e	e	n/a
508.549	0.179	1017098	keystroke_s	s	n/a
508.743	0.196	1017486	keystroke_Key.space	Key.space	n/a
508.953	0.121	1017906	keystroke_a	a	n/a
509.283	0.136	1018566	keystroke_i	i	n/a
509.433	0.136	1018866	keystroke_r	r	n/a
509.629	0.135	1019258	keystroke_p	p	n/a
509.794	0.134	1019588	keystroke_o	o	n/a
510.034	0.105	1020068	keystroke_r	r	n/a
510.274	0.075	1020548	keystroke_t	t	n/a
511.5035	0.1045	1023007	keystroke_Key.space	Key.space	n/a
511.669	0.12	1023338	keystroke_p	p	n/a
511.894	0.104	1023788	keystroke_r	r	n/a
511.983	0.076	1023966	keystroke_o	o	n/a
512.194	0.105	1024388	keystroke_m	m	n/a
512.388	0.106	1024776	keystroke_i	i	n/a
512.689	0.015	1025378	keystroke_s	s	n/a
512.719	0.09	1025438	keystroke_i	i	n/a
513.544	0.059	1027088	keystroke_Key.backspace	Key.backspace	n/a
513.904	0.135	1027808	keystroke_e	e	n/a
513.994	0.105	1027988	keystroke_s	s	n/a
514.638	0.12	1029276	keystroke_Key.space	Key.space	n/a
514.969	0.135	1029938	keystroke_s	s	n/a
515.133	0.076	1030266	keystroke_p	p	n/a
515.329	0.21	1030658	keystroke_o	o	n/a
515.479	0.15	1030958	keystroke_n	n	n/a
515.644	0.119	1031288	keystroke_s	s	n/a
515.914	0.105	1031828	keystroke_o	o	n/a
516.034	0.09	1032068	keystroke_r	r	n/a
516.409	0.075	1032818	keystroke_Key.enter	Key.enter	n/a
516.5	10.1705	1033000	prompt	n/a	philippines gone entries prep\n
517.399	0.09	1034798	keystroke_p	p	n/a
517.594	0.09	1035188	keystroke_h	h	n/a
517.729	0.105	1035458	keystroke_i	i	n/a
517.999	0.12	1035998	keystroke_l	l	n/a
518.554	0.12	1037108	keystroke_i	i	n/a
518.854	0.06	1037708	keystroke_p	p	n/a
519.034	0.12	1038068	keystroke_p	p	n/a
519.439	0.06	1038878	keystroke_o	o	n/a
519.844	0.075	1039688	keystroke_Key.backspace	Key.backspace	n/a
520.084	0.09	1040168	keystroke_i	i	n/a
520.309	0.12	1040618	keystroke_n	n	n/a
520.43	0.179	1040860	keystroke_e	e	n/a
520.549	0.195	1041098	keystroke_s	s	n/a
520.999	0.105	1041998	keystroke_Key.space	Key.space	n/a
521.314	0.105	1042628	keystroke_g	g	n/a
521.464	0.105	1042928	keystroke_i	i	n/a
521.599	0.105	1043198	keystroke_n	n	n/a
521.824	0.075	1043648	keystroke_e	e	n/a
522.3635	0.12	1044727	keystroke_Key.space	Key.space	n/a
522.7385	0.15	1045477	keystroke_e	e	n/a
522.9185	0.105	1045837	keystroke_n	n	n/a
523.0985	0.09	1046197	keystroke_t	t	n/a
523.3535	0.135	1046707	keystroke_r	r	n/a
523.5185	0.135	1047037	keystroke_i	i	n/a
523.6385	0.15	1047277	keystroke_e	e	n/a
523.7285	0.165	1047457	keystroke_s	s	n/a
523.9535	0.135	1047907	keystroke_Key.space	Key.space	n/a
524.3435	0.135	1048687	keystroke_p	p	n/a
524.5235	0.1355	1049047	keystroke_r	r	n/a
524.8085	0.18	1049617	keystroke_e	e	n/a
524.9735	0.09	1049947	keystroke_t	t	n/a
525.4835	0.075	1050967	keystroke_Key.backspace	Key.backspace	n/a
526.354	0.075	1052708	keystroke_p	p	n/a
526.594	0.075	1053188	keystroke_Key.enter	Key.enter	n/a
526.675	7.646	1053350	prompt	n/a	neighbors packet exactly saver\n
527.599	0.135	1055198	keystroke_n	n	n/a
527.989	0.12	1055978	keystroke_e	e	n/a
528.364	0.075	1056728	keystroke_i	i	n/a
528.514	0.09	1057028	keystroke_g	g	n/a
528.649	0.09	1057298	keystroke_h	h	n/a
528.904	0.105	1057808	keystroke_b	b	n/a
529.069	0.135	1058138	keystroke_o	o	n/a
529.174	0.12	1058348	keystroke_r	r	n/a
529.504	0.135	1059008	keystroke_s	s	n/a
529.759	0.105	1059518	keystroke_Key.space	Key.space	n/a
530.029	0.119	1060058	keystroke_p	p	n/a
530.134	0.105	1060268	keystroke_a	a	n/a
530.373	0.09	1060746	keystroke_c	c	n/a
530.494	0.089	1060988	keystroke_k	k	n/a
530.598	0.151	1061196	keystroke_e	e	n/a
530.733	0.136	1061466	keystroke_t	t	n/a
530.898	0.135	1061796	keystroke_Key.space	Key.space	n/a
531.094	0.105	1062188	keystroke_e	e	n/a
531.334	0.089	1062668	keystroke_x	x	n/a
531.574	0.09	1063148	keystroke_a	a	n/a
531.798	0.091	1063596	keystroke_c	c	n/a
532.009	0.0895	1064018	keystroke_t	t	n/a
532.1585	0.105	1064317	keystroke_l	l	n/a
532.4285	0.075	1064857	keystroke_y	y	n/a
532.5785	0.135	1065157	keystroke_Key.space	Key.space	n/a
532.7285	0.12	1065457	keystroke_s	s	n/a
532.9535	0.12	1065907	keystroke_a	a	n/a
533.2985	0.0605	1066597	keystroke_v	v	n/a
533.8385	0.135	1067677	keystroke_e	e	n/a
533.9285	0.12	1067857	keystroke_r	r	n/a
534.2135	0.105	1068427	keystroke_Key.enter	Key.enter	n/a
534.3275	7.015	1068655	prompt	n/a	thesaurus can contest connect\n
535.5185	0.105	1071037	keystroke_t	t	n/a
536.0135	0.09	1072027	keystroke_h	h	n/a
536.1635	0.105	1072327	keystroke_e	e	n/a
536.6285	0.12	1073257	keystroke_s	s	n/a
536.8835	0.165	1073767	keystroke_a	a	n/a
537.1085	0.12	1074217	keystroke_u	u	n/a
537.2585	0.12	1074517	keystroke_r	r	n/a
537.5285	0.1055	1075057	keystroke_u	u	n/a
537.6485	0.135	1075297	keystroke_s	s	n/a
537.8885	0.09	1075777	keystroke_Key.space	Key.space	n/a
538.0985	0.105	1076197	keystroke_c	c	n/a
538.2635	0.15	1076527	keystroke_a	a	n/a
538.3535	0.105	1076707	keystroke_n	n	n/a
538.4435	0.12	1076887	keystroke_Key.space	Key.space	n/a
538.8035	0.135	1077607	keystroke_c	c	n/a
539.1785	0.165	1078357	keystroke_o	o	n/a
539.2835	0.1505	1078567	keystroke_n	n	n/a
539.464	0.1645	1078928	keystroke_t	t	n/a
539.584	0.18	1079168	keystroke_e	e	n/a
539.7185	0.2105	1079437	keystroke_s	s	n/a
539.8235	0.15	1079647	keystroke_t	t	n/a
539.9585	0.135	1079917	keystroke_Key.space	Key.space	n/a
540.2135	0.105	1080427	keystroke_c	c	n/a
540.3335	0.105	1080667	keystroke_o	o	n/a
540.4835	0.105	1080967	keystroke_n	n	n/a
540.6785	0.105	1081357	keystroke_n	n	n/a
540.7685	0.18	1081537	keystroke_e	e	n/a
540.9335	0.105	1081867	keystroke_t	t	n/a
541.2485	0.09	1082497	keystroke_Key.enter	Key.enter	n/a
541.3465	8.3495	1082693	prompt	n/a	chassis parameters any smtp\n
542.5835	0.12	1085167	keystroke_c	c	n/a
542.7335	0.0755	1085467	keystroke_h	h	n/a
542.9135	0.135	1085827	keystroke_a	a	n/a
543.1535	0.105	1086307	keystroke_s	s	n/a
543.3335	0.09	1086667	keystroke_s	s	n/a
543.5135	0.12	1087027	keystroke_i	i	n/a
543.7085	0.105	1087417	keystroke_s	s	n/a
544.2635	0.12	1088527	keystroke_Key.space	Key.space	n/a
544.4285	0.12	1088857	keystroke_p	p	n/a
545.1485	0.165	1090297	keystroke_a	a	n/a
545.3585	0.165	1090717	keystroke_r	r	n/a
545.4785	0.15	1090957	keystroke_a	a	n/a
545.6735	0.09	1091347	keystroke_m	m	n/a
545.8235	0.0905	1091647	keystroke_e	e	n/a
545.9735	0.12	1091947	keystroke_t	t	n/a
546.1235	0.15	1092247	keystroke_e	e	n/a
546.2135	0.15	1092427	keystroke_r	r	n/a
546.3485	0.135	1092697	keystroke_s	s	n/a
546.5285	0.135	1093057	keystroke_Key.space	Key.space	n/a
546.7835	0.105	1093567	keystroke_a	a	n/a
546.8735	0.075	1093747	keystroke_n	n	n/a
547.0985	0.105	1094197	keystroke_y	y	n/a
547.2185	0.12	1094437	keystroke_Key.space	Key.space	n/a
547.4435	0.15	1094887	keystroke_s	s	n/a
547.6085	0.106	1095217	keystroke_m	m	n/a
548.6435	0.06	1097287	keystroke_t	t	n/a
548.9435	0.105	1097887	keystroke_p	p	n/a
549.5885	0.105	1099177	keystroke_Key.enter	Key.enter	n/a
549.6995	11.113	1099399	prompt	n/a	homeland furnishings maintained reflect\n
550.6535	0.165	1101307	keystroke_h	h	n/a
550.7585	0.136	1101517	keystroke_o	o	n/a
551.404	0.1195	1102808	keystroke_e	e	n/a
551.8685	0.045	1103737	keystroke_Key.backspace	Key.backspace	n/a
552.124	0.165	1104248	keystroke_m	m	n/a
552.319	0.075	1104638	keystroke_e	e	n/a
552.409	0.12	1104818	keystroke_l	l	n/a
552.574	0.105	1105148	keystroke_a	a	n/a
552.68	0.089	1105360	keystroke_n	n	n/a
552.829	0.165	1105658	keystroke_d	d	n/a
553.624	0.12	1107248	keystroke_Key.space	Key.space	n/a
553.999	0.12	1107998	keystroke_f	f	n/a
554.194	0.12	1108388	keystroke_u	u	n/a
554.329	0.135	1108658	keystroke_r	r	n/a
554.524	0.075	1109048	keystroke_n	n	n/a
554.674	0.12	1109348	keystroke_i	i	n/a
554.809	0.12	1109618	keystroke_s	s	n/a
554.914	0.075	1109828	keystroke_h	h	n/a
555.079	0.195	1110158	keystroke_i	i	n/a
555.169	0.165	1110338	keystroke_n	n	n/a
555.319	0.09	1110638	keystroke_g	g	n/a
555.484	0.18	1110968	keystroke_s	s	n/a
555.679	0.105	1111358	keystroke_Key.space	Key.space	n/a
555.829	0.12	1111658	keystroke_m	m	n/a
556.0545	0.135	1112109	keystroke_a	a	n/a
556.2345	0.225	1112469	keystroke_i	i	n/a
556.3395	0.135	1112679	keystroke_n	n	n/a
556.4895	0.075	1112979	keystroke_t	t	n/a
556.6395	0.134	1113279	keystroke_a	a	n/a
557.2395	0.165	1114479	keystroke_i	i	n/a
557.3445	0.15	1114689	keystroke_n	n	n/a
557.5095	0.09	1115019	keystroke_e	e	n/a
557.7195	0.12	1115439	keystroke_d	d	n/a
557.8545	0.12	1115709	keystroke_Key.space	Key.space	n/a
558.2595	0.166	1116519	keystroke_r	r	n/a
558.3645	0.165	1116729	keystroke_e	e	n/a
558.8145	0.06	1117629	keystroke_l	l	n/a
559.1445	0.09	1118289	keystroke_Key.backspace	Key.backspace	n/a
559.3395	0.105	1118679	keystroke_f	f	n/a
559.6395	0.105	1119279	keystroke_l	l	n/a
559.9395	0.09	1119879	keystroke_e	e	n/a
560.2085	0.075	1120417	keystroke_c	c	n/a
560.4335	0.075	1120867	keystroke_t	t	n/a
560.7185	0.09	1121437	keystroke_Key.enter	Key.enter	n/a
560.819	8.152	1121638	prompt	n/a	recruitment recover settings brad\n
561.7085	0.165	1123417	keystroke_r	r	n/a
561.7995	0.119	1123599	keystroke_e	e	n/a
562.0695	0.075	1124139	keystroke_c	c	n/a
562.3095	0.15	1124619	keystroke_r	r	n/a
562.5345	0.135	1125069	keystroke_u	u	n/a
562.6545	0.135	1125309	keystroke_i	i	n/a
562.8495	0.09	1125699	keystroke_t	t	n/a
563.0295	0.12	1126059	keystroke_m	m	n/a
563.1345	0.12	1126269	keystroke_e	e	n/a
563.2545	0.135	1126509	keystroke_n	n	n/a
563.3745	0.105	1126749	keystroke_t	t	n/a
563.4945	0.135	1126989	keystroke_Key.space	Key.space	n/a
563.7345	0.15	1127469	keystroke_r	r	n/a
563.8245	0.135	1127649	keystroke_e	e	n/a
565.4445	0.12	1130889	keystroke_c	c	n/a
565.6245	0.09	1131249	keystroke_o	o	n/a
565.8645	0.09	1131729	keystroke_v	v	n/a
566.0295	0.135	1132059	keystroke_e	e	n/a
566.1345	0.165	1132269	keystroke_r	r	n/a
566.4795	0.12	1132959	keystroke_Key.space	Key.space	n/a
566.6445	0.165	1133289	keystroke_s	s	n/a
566.7495	0.225	1133499	keystroke_e	e	n/a
566.9595	0.09	1133919	keystroke_t	t	n/a
567.1395	0.105	1134279	keystroke_t	t	n/a
567.2745	0.15	1134549	keystroke_i	i	n/a
567.3495	0.135	1134699	keystroke_n	n	n/a
567.4395	0.105	1134879	keystroke_g	g	n/a
567.7245	0.105	1135449	keystroke_s	s	n/a
568.0845	0.105	1136169	keystroke_Key.space	Key.space	n/a
568.2645	0.12	1136529	keystroke_b	b	n/a
568.3545	0.135	1136709	keystroke_r	r	n/a
568.4745	0.105	1136949	keystroke_a	a	n/a
568.6395	0.105	1137279	keystroke_d	d	n/a
568.9545	0.015	1137909	keystroke_Key.enter	Key.enter	n/a
568.976	12.49	1137952	prompt	n/a	enzyme quite she competitors\n
569.869	0.12	1139738	keystroke_e	e	n/a
570.499	0.12	1140998	keystroke_x	x	n/a
570.724	0.165	1141448	keystroke_z	z	n/a
571.009	0.075	1142018	keystroke_u	u	n/a
571.549	0.06	1143098	keystroke_Key.backspace	Key.backspace	n/a
571.789	0.075	1143578	keystroke_y	y	n/a
572.299	0.105	1144598	keystroke_m	m	n/a
572.569	0.105	1145138	keystroke_e	e	n/a
572.794	0.09	1145588	keystroke_Key.space	Key.space	n/a
573.019	0.135	1146038	keystroke_q	q	n/a
573.124	0.135	1146248	keystroke_u	u	n/a
573.214	0.15	1146428	keystroke_i	i	n/a
574.159	0.15	1148318	keystroke_t	t	n/a
574.249	0.12	1148498	keystroke_e	e	n/a
578.182	0.057	1156364	keystroke_Key.space	Key.space	n/a
578.284	0.135	1156568	keystroke_s	s	n/a
578.419	0.105	1156838	keystroke_h	h	n/a
578.569	0.165	1157138	keystroke_e	e	n/a
578.719	0.12	1157438	keystroke_Key.space	Key.space	n/a
579.244	0.12	1158488	keystroke_c	c	n/a
579.394	0.09	1158788	keystroke_o	o	n/a
579.604	0.09	1159208	keystroke_m	m	n/a
579.799	0.105	1159598	keystroke_p	p	n/a
579.949	0.135	1159898	keystroke_e	e	n/a
580.339	0.09	1160678	keystroke_t	t	n/a
580.459	0.105	1160918	keystroke_i	i	n/a
580.609	0.105	1161218	keystroke_t	t	n/a
580.789	0.135	1161578	keystroke_o	o	n/a
580.939	0.105	1161878	keystroke_r	r	n/a
581.134	0.12	1162268	keystroke_s	s	n/a
581.374	0.09	1162748	keystroke_Key.enter	Key.enter	n/a
581.4705	8.8155	1162941	prompt	n/a	replication alleged guam observe\n
582.8295	0.15	1165659	keystroke_r	r	n/a
582.9045	0.15	1165809	keystroke_e	e	n/a
583.1595	0.12	1166319	keystroke_p	p	n/a
583.3995	0.135	1166799	keystroke_l	l	n/a
583.5045	0.15	1167009	keystroke_i	i	n/a
583.6995	0.105	1167399	keystroke_c	c	n/a
583.8645	0.134	1167729	keystroke_a	a	n/a
584.0895	0.105	1168179	keystroke_t	t	n/a
584.2095	0.135	1168419	keystroke_i	i	n/a
584.2845	0.165	1168569	keystroke_o	o	n/a
584.4185	0.12	1168837	keystroke_n	n	n/a
584.5235	0.105	1169047	keystroke_Key.space	Key.space	n/a
584.6895	0.12	1169379	keystroke_a	a	n/a
584.8245	0.09	1169649	keystroke_l	l	n/a
584.9735	0.135	1169947	keystroke_l	l	n/a
585.1235	0.106	1170247	keystroke_e	e	n/a
585.3195	0.134	1170639	keystroke_g	g	n/a
585.4845	0.12	1170969	keystroke_e	e	n/a
585.9345	0.0895	1171869	keystroke_d	d	n/a
586.204	0.105	1172408	keystroke_Key.space	Key.space	n/a
586.5645	0.15	1173129	keystroke_g	g	n/a
586.6845	0.075	1173369	keystroke_u	u	n/a
586.9695	0.135	1173939	keystroke_a	a	n/a
587.1345	0.105	1174269	keystroke_m	m	n/a
587.3295	0.105	1174659	keystroke_Key.space	Key.space	n/a
588.469	0.12	1176938	keystroke_o	o	n/a
588.619	0.105	1177238	keystroke_b	b	n/a
588.784	0.135	1177568	keystroke_s	s	n/a
589.024	0.135	1178048	keystroke_e	e	n/a
589.114	0.15	1178228	keystroke_r	r	n/a
589.369	0.105	1178738	keystroke_v	v	n/a
589.489	0.075	1178978	keystroke_e	e	n/a
590.2245	0.06	1180449	keystroke_Key.enter	Key.enter	n/a
590.2925	25.0145	1180585	prompt	n/a	passengers taiwan saturday default\n
590.9595	0.105	1181919	keystroke_p	p	n/a
591.2445	0.105	1182489	keystroke_a	a	n/a
591.4695	0.21	1182939	keystroke_s	s	n/a
592.249	0.12	1184498	keystroke_s	s	n/a
592.834	0.15	1185668	keystroke_e	e	n/a
592.969	0.09	1185938	keystroke_n	n	n/a
593.164	0.105	1186328	keystroke_g	g	n/a
593.389	0.195	1186778	keystroke_e	e	n/a
593.509	0.15	1187018	keystroke_r	r	n/a
593.689	0.181	1187378	keystroke_s	s	n/a
593.854	0.135	1187708	keystroke_Key.space	Key.space	n/a
594.649	0.12	1189298	keystroke_t	t	n/a
594.829	0.165	1189658	keystroke_a	a	n/a
594.934	0.12	1189868	keystroke_i	i	n/a
595.069	0.135	1190138	keystroke_w	w	n/a
595.144	0.15	1190288	keystroke_a	a	n/a
595.324	0.105	1190648	keystroke_n	n	n/a
598.432	0.042	1196864	keystroke_Key.space	Key.space	n/a
598.624	0.105	1197248	keystroke_s	s	n/a
599.029	0.165	1198058	keystroke_a	a	n/a
599.314	0.105	1198628	keystroke_t	t	n/a
599.479	0.165	1198958	keystroke_u	u	n/a
600.154	0.195	1200308	keystroke_r	r	n/a
600.574	0.12	1201148	keystroke_d	d	n/a
600.814	0.12	1201628	keystroke_a	a	n/a
600.92	0.119	1201840	keystroke_y	y	n/a
607.358	0.057	1214716	keystroke_Key.space	Key.space	n/a
607.7445	0.0905	1215489	keystroke_d	d	n/a
607.969	0.091	1215938	keystroke_e	e	n/a
608.255	0.135	1216510	keystroke_f	f	n/a
608.51	0.18	1217020	keystroke_a	a	n/a
608.869	0.105	1217738	keystroke_u	u	n/a
609.095	0.134	1218190	keystroke_l	l	n/a
609.215	0.075	1218430	keystroke_t	t	n/a
615.293	0.011	1230586	keystroke_Key.enter	Key.enter	n/a
615.312	6.295	1230624	prompt	n/a	rich andrews oasis older\n
616.2495	0.12	1232499	keystroke_r	r	n/a
616.3845	0.105	1232769	keystroke_i	i	n/a
616.5345	0.09	1233069	keystroke_c	c	n/a
616.6395	0.105	1233279	keystroke_h	h	n/a
616.8045	0.12	1233609	keystroke_Key.space	Key.space	n/a
617.1045	0.15	1234209	keystroke_a	a	n/a
617.2395	0.105	1234479	keystroke_n	n	n/a
617.3605	0.105	1234721	keystroke_d	d	n/a
617.5695	0.165	1235139	keystroke_r	r	n/a
617.6295	0.21	1235259	keystroke_e	e	n/a
617.7495	0.18	1235499	keystroke_w	w	n/a
618.079	0.12	1236158	keystroke_Key.space	Key.space	n/a
619.565	0.119	1239130	keystroke_o	o	n/a
619.804	0.105	1239608	keystroke_a	a	n/a
620.0295	0.075	1240059	keystroke_s	s	n/a
620.1195	0.135	1240239	keystroke_i	i	n/a
620.2395	0.18	1240479	keystroke_s	s	n/a
620.4045	0.12	1240809	keystroke_Key.space	Key.space	n/a
620.5845	0.09	1241169	keystroke_o	o	n/a
620.7795	0.135	1241559	keystroke_l	l	n/a
620.8845	0.075	1241769	keystroke_d	d	n/a
621.0945	0.135	1242189	keystroke_e	e	n/a
621.1845	0.12	1242369	keystroke_r	r	n/a
621.4995	0.105	1242999	keystroke_Key.enter	Key.enter	n/a
621.612	6.6695	1243224	prompt	n/a	insurance employee landing saver\n
622.445	0.09	1244890	keystroke_i	i	n/a
622.67	0.104	1245340	keystroke_n	n	n/a
622.819	0.136	1245638	keystroke_s	s	n/a
622.925	0.1045	1245850	keystroke_u	u	n/a
623.0595	0.135	1246119	keystroke_r	r	n/a
623.2095	0.12	1246419	keystroke_a	a	n/a
623.3145	0.1055	1246629	keystroke_n	n	n/a
623.4945	0.0755	1246989	keystroke_c	c	n/a
623.6745	0.15	1247349	keystroke_e	e	n/a
623.7795	0.135	1247559	keystroke_Key.space	Key.space	n/a
624.1545	0.105	1248309	keystroke_e	e	n/a
624.3495	0.09	1248699	keystroke_m	m	n/a
624.5445	0.075	1249089	keystroke_p	p	n/a
624.7395	0.12	1249479	keystroke_l	l	n/a
624.98	0.1045	1249960	keystroke_o	o	n/a
625.2045	0.12	1250409	keystroke_y	y	n/a
625.4145	0.075	1250829	keystroke_e	e	n/a
625.58	0.135	1251160	keystroke_e	e	n/a
625.7445	0.135	1251489	keystroke_Key.space	Key.space	n/a
625.9095	0.135	1251819	keystroke_l	l	n/a
626.0445	0.12	1252089	keystroke_a	a	n/a
626.1795	0.09	1252359	keystroke_n	n	n/a
626.2845	0.135	1252569	keystroke_d	d	n/a
626.4345	0.1655	1252869	keystroke_i	i	n/a
626.54	0.1345	1253080	keystroke_n	n	n/a
626.6445	0.12	1253289	keystroke_g	g	n/a
626.7945	0.12	1253589	keystroke_Key.space	Key.space	n/a
626.9295	0.12	1253859	keystroke_s	s	n/a
627.1395	0.1355	1254279	keystroke_a	a	n/a
627.6495	0.105	1255299	keystroke_v	v	n/a
627.8595	0.165	1255719	keystroke_e	e	n/a
627.9945	0.105	1255989	keystroke_r	r	n/a
628.1745	0.105	1256349	keystroke_Key.enter	Key.enter	n/a
628.2845	6.777	1256569	prompt	n/a	knowledge fisher labs pockets\n
628.9545	0.075	1257909	keystroke_k	k	n/a
629.1195	0.165	1258239	keystroke_n	n	n/a
629.2395	0.12	1258479	keystroke_o	o	n/a
629.4645	0.12	1258929	keystroke_w	w	n/a
629.6295	0.105	1259259	keystroke_l	l	n/a
629.8395	0.0755	1259679	keystroke_e	e	n/a
630.2145	0.12	1260429	keystroke_d	d	n/a
630.4845	0.165	1260969	keystroke_g	g	n/a
630.6345	0.15	1261269	keystroke_e	e	n/a
630.9045	0.12	1261809	keystroke_Key.space	Key.space	n/a
631.3245	0.12	1262649	keystroke_f	f	n/a
631.4145	0.09	1262829	keystroke_i	i	n/a
631.5345	0.135	1263069	keystroke_s	s	n/a
631.6545	0.105	1263309	keystroke_h	h	n/a
631.8045	0.15	1263609	keystroke_e	e	n/a
631.9245	0.15	1263849	keystroke_r	r	n/a
632.2995	0.09	1264599	keystroke_Key.space	Key.space	n/a
632.4345	0.105	1264869	keystroke_l	l	n/a
632.5245	0.135	1265049	keystroke_a	a	n/a
632.6745	0.135	1265349	keystroke_b	b	n/a
633.0195	0.135	1266039	keystroke_s	s	n/a
633.1995	0.105	1266399	keystroke_Key.space	Key.space	n/a
633.3655	0.119	1266731	keystroke_p	p	n/a
633.8145	0.105	1267629	keystroke_o	o	n/a
633.9945	0.12	1267989	keystroke_c	c	n/a
634.1745	0.12	1268349	keystroke_k	k	n/a
634.2795	0.195	1268559	keystroke_e	e	n/a
634.4445	0.12	1268889	keystroke_t	t	n/a
634.5795	0.105	1269159	keystroke_s	s	n/a
634.9695	0.09	1269939	keystroke_Key.enter	Key.enter	n/a
635.065	13.767	1270130	prompt	n/a	technology phpbb viruses sensitive\n
635.9145	0.12	1271829	keystroke_t	t	n/a
636.0945	0.105	1272189	keystroke_e	e	n/a
636.3495	0.09	1272699	keystroke_c	c	n/a
636.4845	0.105	1272969	keystroke_h	h	n/a
637.4595	0.195	1274919	keystroke_n	n	n/a
637.6095	0.21	1275219	keystroke_o	o	n/a
638.5845	0.075	1277169	keystroke_Key.backspace	Key.backspace	n/a
639.4995	0.075	1278999	keystroke_o	o	n/a
639.7395	0.09	1279479	keystroke_l	l	n/a
639.9195	0.105	1279839	keystroke_o	o	n/a
640.0395	0.105	1280079	keystroke_g	g	n/a
640.2045	0.105	1280409	keystroke_y	y	n/a
640.4295	0.12	1280859	keystroke_Key.space	Key.space	n/a
640.8045	0.12	1281609	keystroke_p	p	n/a
641.1795	0.105	1282359	keystroke_h	h	n/a
642.425	0.09	1284850	keystroke_p	p	n/a
642.726	0.059	1285452	keystroke_b	b	n/a
642.905	0.075	1285810	keystroke_b	b	n/a
644.42	0.09	1288840	keystroke_Key.space	Key.space	n/a
644.66	0.165	1289320	keystroke_v	v	n/a
644.915	0.105	1289830	keystroke_i	i	n/a
645.335	0.12	1290670	keystroke_r	r	n/a
645.485	0.135	1290970	keystroke_u	u	n/a
645.62	0.18	1291240	keystroke_s	s	n/a
645.74	0.195	1291480	keystroke_e	e	n/a
645.875	0.1805	1291750	keystroke_s	s	n/a
646.1155	0.134	1292231	keystroke_Key.space	Key.space	n/a
646.3555	0.119	1292711	keystroke_s	s	n/a
646.6555	0.119	1293311	keystroke_e	e	n/a
646.8055	0.105	1293611	keystroke_n	n	n/a
647.4055	0.165	1294811	keystroke_s	s	n/a
647.5555	0.09	1295111	keystroke_i	i	n/a
647.7495	0.106	1295499	keystroke_t	t	n/a
647.8705	0.075	1295741	keystroke_i	i	n/a
648.095	0.09	1296190	keystroke_v	v	n/a
648.2	0.0895	1296400	keystroke_e	e	n/a
648.7395	0.09	1297479	keystroke_Key.enter	Key.enter	n/a
648.837	15.955	1297674	prompt	n/a	polyester nintendo basket robbie\n
649.595	0.075	1299190	keystroke_p	p	n/a
650.015	0.12	1300030	keystroke_o	o	n/a
650.285	0.105	1300570	keystroke_l	l	n/a
650.57	0.165	1301140	keystroke_y	y	n/a
651.965	0.18	1303930	keystroke_e	e	n/a
652.325	0.136	1304650	keystroke_s	s	n/a
652.506	0.1485	1305012	keystroke_t	t	n/a
652.67	0.18	1305340	keystroke_e	e	n/a
652.8195	0.166	1305639	keystroke_r	r	n/a
652.9545	0.121	1305909	keystroke_Key.space	Key.space	n/a
653.3455	0.135	1306691	keystroke_n	n	n/a
653.6005	0.135	1307201	keystroke_i	i	n/a
655.3555	0.12	1310711	keystroke_n	n	n/a
655.7755	0.12	1311551	keystroke_t	t	n/a
655.9705	0.165	1311941	keystroke_e	e	n/a
656.1055	0.105	1312211	keystroke_n	n	n/a
656.3155	0.105	1312631	keystroke_d	d	n/a
656.4955	0.09	1312991	keystroke_o	o	n/a
656.8855	0.12	1313771	keystroke_Key.space	Key.space	n/a
657.0355	0.09	1314071	keystroke_b	b	n/a
657.1405	0.09	1314281	keystroke_a	a	n/a
657.3355	0.12	1314671	keystroke_s	s	n/a
657.6205	0.075	1315241	keystroke_t	t	n/a
658.1455	0.12	1316291	keystroke_Key.backspace	Key.backspace	n/a
658.4905	0.0895	1316981	keystroke_k	k	n/a
658.9555	0.1495	1317911	keystroke_e	e	n/a
659.075	0.1055	1318150	keystroke_t	t	n/a
661.9735	0.027	1323947	keystroke_Key.space	Key.space	n/a
662.1505	0.135	1324301	keystroke_r	r	n/a
662.3155	0.075	1324631	keystroke_o	o	n/a
662.5255	0.06	1325051	keystroke_b	b	n/a
662.7055	0.12	1325411	keystroke_b	b	n/a
664.0255	0.09	1328051	keystroke_i	i	n/a
664.175	0.09	1328350	keystroke_e	e	n/a
664.7	0.09	1329400	keystroke_Key.enter	Key.enter	n/a
664.796	7.2405	1329592	prompt	n/a	dear assault repository evans\n
665.45	0.105	1330900	keystroke_d	d	n/a
665.66	0.09	1331320	keystroke_e	e	n/a
665.795	0.195	1331590	keystroke_a	a	n/a
665.93	0.21	1331860	keystroke_r	r	n/a
666.155	0.09	1332310	keystroke_Key.space	Key.space	n/a
666.35	0.105	1332700	keystroke_a	a	n/a
666.59	0.075	1333180	keystroke_s	s	n/a
666.755	0.09	1333510	keystroke_s	s	n/a
666.965	0.12	1333930	keystroke_a	a	n/a
667.1	0.06	1334200	keystroke_u	u	n/a
667.28	0.105	1334560	keystroke_l	l	n/a
667.46	0.045	1334920	keystroke_t	t	n/a
667.595	0.105	1335190	keystroke_Key.space	Key.space	n/a
668	0.195	1336000	keystroke_r	r	n/a
668.21	0.135	1336420	keystroke_e	e	n/a
668.48	0.105	1336960	keystroke_p	p	n/a
668.795	0.12	1337590	keystroke_o	o	n/a
669.065	0.165	1338130	keystroke_s	s	n/a
669.3805	0.135	1338761	keystroke_i	i	n/a
669.6205	0.105	1339241	keystroke_t	t	n/a
669.7555	0.135	1339511	keystroke_o	o	n/a
669.9055	0.105	1339811	keystroke_r	r	n/a
670.0255	0.105	1340051	keystroke_y	y	n/a
670.31	0.12	1340620	keystroke_Key.space	Key.space	n/a
670.535	0.15	1341070	keystroke_e	e	n/a
670.94	0.105	1341880	keystroke_v	v	n/a
671.18	0.12	1342360	keystroke_a	a	n/a
671.33	0.12	1342660	keystroke_n	n	n/a
671.465	0.105	1342930	keystroke_s	s	n/a
671.945	0.0895	1343890	keystroke_Key.enter	Key.enter	n/a
672.04	8.7715	1344080	prompt	n/a	proxy regularly honduras reader\n
672.7555	0.1195	1345511	keystroke_p	p	n/a
673.07	0.12	1346140	keystroke_r	r	n/a
673.175	0.135	1346350	keystroke_o	o	n/a
673.55	0.195	1347100	keystroke_x	x	n/a
674.6755	0.12	1349351	keystroke_y	y	n/a
675.0055	0.12	1350011	keystroke_Key.space	Key.space	n/a
675.2605	0.165	1350521	keystroke_r	r	n/a
675.3655	0.15	1350731	keystroke_e	e	n/a
675.7105	0.12	1351421	keystroke_g	g	n/a
675.8155	0.06	1351631	keystroke_u	u	n/a
675.9945	0.121	1351989	keystroke_l	l	n/a
676.1305	0.089	1352261	keystroke_a	a	n/a
676.3855	0.12	1352771	keystroke_r	r	n/a
676.5645	0.121	1353129	keystroke_l	l	n/a
676.7905	0.105	1353581	keystroke_y	y	n/a
676.9995	0.12	1353999	keystroke_Key.space	Key.space	n/a
677.5855	0.12	1355171	keystroke_h	h	n/a
677.6905	0.195	1355381	keystroke_o	o	n/a
677.8555	0.134	1355711	keystroke_n	n	n/a
678.005	0.1055	1356010	keystroke_d	d	n/a
678.1705	0.15	1356341	keystroke_u	u	n/a
678.3655	0.15	1356731	keystroke_r	r	n/a
678.5305	0.12	1357061	keystroke_a	a	n/a
678.8155	0.12	1357631	keystroke_s	s	n/a
679.1005	0.12	1358201	keystroke_Key.space	Key.space	n/a
679.5205	0.18	1359041	keystroke_r	r	n/a
679.6255	0.18	1359251	keystroke_e	e	n/a
679.7755	0.12	1359551	keystroke_a	a	n/a
680.0005	0.09	1360001	keystroke_d	d	n/a
680.3605	0.134	1360721	keystroke_e	e	n/a
680.4655	0.12	1360931	keystroke_r	r	n/a
680.6905	0.12	1361381	keystroke_Key.enter	Key.enter	n/a
680.817	7.9155	1361634	prompt	n/a	utility refuse auburn proposal\n
681.6955	0.09	1363391	keystroke_u	u	n/a
682.43	0.09	1364860	keystroke_t	t	n/a
682.565	0.105	1365130	keystroke_i	i	n/a
682.775	0.15	1365550	keystroke_l	l	n/a
682.88	0.12	1365760	keystroke_i	i	n/a
683.03	0.105	1366060	keystroke_t	t	n/a
683.15	0.12	1366300	keystroke_y	y	n/a
683.345	0.09	1366690	keystroke_Key.space	Key.space	n/a
683.585	0.135	1367170	keystroke_r	r	n/a
683.66	0.12	1367320	keystroke_e	e	n/a
683.855	0.105	1367710	keystroke_f	f	n/a
683.99	0.12	1367980	keystroke_u	u	n/a
684.095	0.165	1368190	keystroke_s	s	n/a
684.2	0.18	1368400	keystroke_e	e	n/a
684.395	0.135	1368790	keystroke_Key.space	Key.space	n/a
684.785	0.165	1369570	keystroke_a	a	n/a
684.935	0.075	1369870	keystroke_u	u	n/a
685.145	0.075	1370290	keystroke_b	b	n/a
685.385	0.135	1370770	keystroke_u	u	n/a
686.3	0.09	1372600	keystroke_r	r	n/a
686.465	0.075	1372930	keystroke_n	n	n/a
686.855	0.12	1373710	keystroke_Key.space	Key.space	n/a
687.17	0.105	1374340	keystroke_p	p	n/a
687.335	0.12	1374670	keystroke_r	r	n/a
687.455	0.105	1374910	keystroke_o	o	n/a
687.725	0.105	1375450	keystroke_p	p	n/a
687.905	0.12	1375810	keystroke_o	o	n/a
688.07	0.105	1376140	keystroke_s	s	n/a
688.295	0.12	1376590	keystroke_a	a	n/a
688.4	0.075	1376800	keystroke_l	l	n/a
688.67	0.06	1377340	keystroke_Key.enter	Key.enter	n/a
688.7365	10.6605	1377473	prompt	n/a	anthropology degree dell habitat\n
689.51	0.15	1379020	keystroke_a	a	n/a
689.735	0.09	1379470	keystroke_h	h	n/a
689.915	0.075	1379830	keystroke_t	t	n/a
690.905	0.15	1381810	keystroke_Key.backspace	Key.backspace	n/a
691.265	0.105	1382530	keystroke_Key.backspace	Key.backspace	n/a
691.685	0.105	1383370	keystroke_n	n	n/a
691.94	0.12	1383880	keystroke_t	t	n/a
692.075	0.12	1384150	keystroke_h	h	n/a
692.3	0.15	1384600	keystroke_r	r	n/a
692.51	0.09	1385020	keystroke_o	o	n/a
692.75	0.21	1385500	keystroke_p	p	n/a
692.93	0.135	1385860	keystroke_o	o	n/a
693.35	0.12	1386700	keystroke_l	l	n/a
693.545	0.12	1387090	keystroke_o	o	n/a
693.755	0.09	1387510	keystroke_g	g	n/a
693.875	0.12	1387750	keystroke_y	y	n/a
694.085	0.105	1388170	keystroke_Key.space	Key.space	n/a
694.325	0.06	1388650	keystroke_d	d	n/a
694.52	0.075	1389040	keystroke_e	e	n/a
694.7	0.075	1389400	keystroke_g	g	n/a
694.91	0.135	1389820	keystroke_r	r	n/a
694.985	0.15	1389970	keystroke_e	e	n/a
695.255	0.12	1390510	keystroke_e	e	n/a
