onset	duration	sample	value	key	prompt_text
1.218	9.662	2436	prompt	n/a	the quick brown fox jumps over a lazy dog\n
5.028	0.0885	10056	keystroke	t	n/a
5.0865	0.12	10173	keystroke	h	n/a
5.1615	0.1655	10323	keystroke	e	n/a
5.2515	0.195	10503	keystroke	Key.space	n/a
5.431	0.1355	10862	keystroke	q	n/a
5.581	0.105	11162	keystroke	u	n/a
5.671	0.075	11342	keystroke	i	n/a
5.8055	0.1205	11611	keystroke	c	n/a
5.941	0.1315	11882	keystroke	k	n/a
6.0725	0.179	12145	keystroke	Key.space	n/a
6.2365	0.0915	12473	keystroke	b	n/a
6.4465	0.061	12893	keystroke	r	n/a
6.5685	0.12	13137	keystroke	o	n/a
6.7045	0.119	13409	keystroke	w	n/a
6.8245	0.105	13649	keystroke	n	n/a
6.9435	0.1795	13887	keystroke	Key.space	n/a
7.079	0.119	14158	keystroke	f	n/a
7.2435	0.0895	14487	keystroke	o	n/a
7.3635	0.1195	14727	keystroke	x	n/a
7.498	0.1655	14996	keystroke	Key.space	n/a
7.6495	0.0585	15299	keystroke	j	n/a
7.814	0.0595	15628	keystroke	u	n/a
8.008	0.0755	16016	keystroke	m	n/a
8.189	0.105	16378	keystroke	p	n/a
8.398	0.12	16796	keystroke	s	n/a
8.548	0.2105	17096	keystroke	Key.space	n/a
8.7285	0.075	17457	keystroke	o	n/a
8.8185	0.12	17637	keystroke	v	n/a
9.0145	0.134	18029	keystroke	e	n/a
9.089	0.1195	18178	keystroke	r	n/a
9.164	0.1495	18328	keystroke	Key.space	n/a
9.2985	0.15	18597	keystroke	a	n/a
9.404	0.1945	18808	keystroke	Key.space	n/a
9.6285	0.121	19257	keystroke	l	n/a
9.7635	0.12	19527	keystroke	a	n/a
9.9885	0.091	19977	keystroke	z	n/a
10.1245	0.0885	20249	keystroke	y	n/a
10.2275	0.1655	20455	keystroke	Key.space	n/a
10.348	0.12	20696	keystroke	d	n/a
10.4535	0.1345	20907	keystroke	o	n/a
10.604	0.0745	21208	keystroke	g	n/a
10.769	0.104	21538	keystroke	Key.enter	n/a
10.885	6.2755	21770	prompt	n/a	surprise charges bowl budapest\n
11.488	0.151	22976	keystroke	s	n/a
11.624	0.1195	23248	keystroke	u	n/a
11.7285	0.105	23457	keystroke	r	n/a
11.878	0.1205	23756	keystroke	p	n/a
11.9835	0.1205	23967	keystroke	r	n/a
12.119	0.09	24238	keystroke	i	n/a
12.269	0.1495	24538	keystroke	s	n/a
12.4035	0.136	24807	keystroke	e	n/a
12.5235	0.195	25047	keystroke	Key.space	n/a
12.6735	0.12	25347	keystroke	c	n/a
12.809	0.12	25618	keystroke	h	n/a
12.914	0.1655	25828	keystroke	a	n/a
13.049	0.089	26098	keystroke	r	n/a
13.2435	0.0745	26487	keystroke	g	n/a
13.4245	0.1185	26849	keystroke	e	n/a
13.5135	0.165	27027	keystroke	s	n/a
13.6635	0.165	27327	keystroke	Key.space	n/a
13.784	0.1045	27568	keystroke	b	n/a
13.934	0.1055	27868	keystroke	o	n/a
14.053	0.121	28106	keystroke	w	n/a
14.234	0.075	28468	keystroke	l	n/a
14.563	0.0455	29126	keystroke	s	n/a
14.9535	0.1045	29907	keystroke	Key.backspace	n/a
15.298	0.135	30596	keystroke	Key.space	n/a
15.494	0.1045	30988	keystroke	b	n/a
15.659	0.09	31318	keystroke	u	n/a
15.763	0.106	31526	keystroke	d	n/a
15.988	0.12	31976	keystroke	a	n/a
16.214	0.12	32428	keystroke	p	n/a
16.3035	0.0905	32607	keystroke	e	n/a
16.589	0.105	33178	keystroke	s	n/a
16.8445	0.0595	33689	keystroke	t	n/a
17.069	0.09	34138	keystroke	Key.enter	n/a
17.1645	7.8115	34329	prompt	n/a	gerald mental cognitive voting\n
17.804	0.015	35608	keystroke	s	n/a
18.029	0.074	36058	keystroke	Key.backspace	n/a
18.134	0.0895	36268	keystroke	g	n/a
18.2985	0.1655	36597	keystroke	e	n/a
18.418	0.121	36836	keystroke	r	n/a
18.674	0.12	37348	keystroke	a	n/a
18.838	0.1205	37676	keystroke	l	n/a
19.034	0.15	38068	keystroke	d	n/a
19.168	0.136	38336	keystroke	Key.space	n/a
19.363	0.121	38726	keystroke	m	n/a
19.4685	0.1205	38937	keystroke	e	n/a
19.6045	0.1045	39209	keystroke	n	n/a
19.7545	0.0885	39509	keystroke	t	n/a
19.949	0.1345	39898	keystroke	a	n/a
20.0985	0.09	40197	keystroke	l	n/a
20.219	0.135	40438	keystroke	Key.space	n/a
20.324	0.119	40648	keystroke	g	n/a
20.489	0.12	40978	keystroke	o	n/a
21.403	0.0455	42806	keystroke	Key.backspace	n/a
21.554	0.09	43108	keystroke	Key.backspace	n/a
21.704	0.105	43408	keystroke	c	n/a
21.839	0.105	43678	keystroke	o	n/a
21.988	0.0915	43976	keystroke	g	n/a
22.184	0.105	44368	keystroke	n	n/a
22.333	0.091	44666	keystroke	i	n/a
22.5135	0.09	45027	keystroke	t	n/a
22.694	0.0905	45388	keystroke	i	n/a
22.949	0.09	45898	keystroke	v	n/a
23.173	0.121	46346	keystroke	e	n/a
23.3085	0.1505	46617	keystroke	Key.space	n/a
23.624	0.15	47248	keystroke	v	n/a
23.968	0.106	47936	keystroke	o	n/a
24.103	0.106	48206	keystroke	t	n/a
24.284	0.18	48568	keystroke	i	n/a
24.434	0.105	48868	keystroke	n	n/a
24.554	0.0895	49108	keystroke	g	n/a
24.853	0.12	49706	keystroke	Key.enter	n/a
24.981	8.59	49962	prompt	n/a	grams surfaces lafayette convert\n
28.5315	0.0275	57063	keystroke	g	n/a
28.6335	0.1055	57267	keystroke	r	n/a
28.784	0.15	57568	keystroke	a	n/a
28.8895	0.15	57779	keystroke	m	n/a
29.0245	0.1345	58049	keystroke	s	n/a
29.129	0.18	58258	keystroke	Key.space	n/a
29.2785	0.135	58557	keystroke	s	n/a
29.4445	0.1045	58889	keystroke	u	n/a
29.5195	0.1045	59039	keystroke	r	n/a
29.744	0.0755	59488	keystroke	f	n/a
29.998	0.151	59996	keystroke	a	n/a
30.164	0.0905	60328	keystroke	c	n/a
30.3445	0.075	60689	keystroke	e	n/a
30.5245	0.1195	61049	keystroke	s	n/a
30.614	0.1495	61228	keystroke	Key.space	n/a
30.7945	0.15	61589	keystroke	l	n/a
30.9295	0.1345	61859	keystroke	a	n/a
31.0485	0.12	62097	keystroke	f	n/a
31.2295	0.1345	62459	keystroke	a	n/a
31.4245	0.1345	62849	keystroke	y	n/a
31.6345	0.119	63269	keystroke	e	n/a
31.829	0.075	63658	keystroke	t	n/a
31.964	0.075	63928	keystroke	t	n/a
32.099	0.135	64198	keystroke	e	n/a
32.219	0.195	64438	keystroke	Key.space	n/a
32.399	0.09	64798	keystroke	c	n/a
32.534	0.18	65068	keystroke	o	n/a
32.6535	0.1205	65307	keystroke	n	n/a
32.759	0.09	65518	keystroke	v	n/a
32.939	0.135	65878	keystroke	e	n/a
33.0295	0.119	66059	keystroke	r	n/a
33.2545	0.059	66509	keystroke	t	n/a
33.4635	0.1055	66927	keystroke	Key.enter	n/a
33.5765	4.419	67153	prompt	n/a	ward bring carrier crew\n
34.274	0.15	68548	keystroke	w	n/a
34.454	0.135	68908	keystroke	a	n/a
34.589	0.09	69178	keystroke	r	n/a
34.7695	0.134	69539	keystroke	d	n/a
34.8885	0.1955	69777	keystroke	Key.space	n/a
35.0685	0.076	70137	keystroke	b	n/a
35.2635	0.06	70527	keystroke	r	n/a
35.3845	0.1645	70769	keystroke	i	n/a
35.5035	0.105	71007	keystroke	n	n/a
35.5785	0.136	71157	keystroke	g	n/a
35.6985	0.21	71397	keystroke	Key.space	n/a
35.8945	0.12	71789	keystroke	c	n/a
36.0895	0.1645	72179	keystroke	a	n/a
36.2395	0.0895	72479	keystroke	r	n/a
36.419	0.09	72838	keystroke	r	n/a
36.554	0.135	73108	keystroke	i	n/a
36.644	0.15	73288	keystroke	e	n/a
36.764	0.135	73528	keystroke	r	n/a
36.9285	0.256	73857	keystroke	Key.space	n/a
37.17	0.089	74340	keystroke	c	n/a
37.3945	0.0745	74789	keystroke	r	n/a
37.5135	0.106	75027	keystroke	e	n/a
37.6945	0.09	75389	keystroke	w	n/a
37.874	0.12	75748	keystroke	Key.enter	n/a
38.0005	6.311	76001	prompt	n/a	mathematics root mexican novel\n
38.639	0.1655	77278	keystroke	m	n/a
38.7895	0.1045	77579	keystroke	a	n/a
38.909	0.075	77818	keystroke	t	n/a
39.0145	0.135	78029	keystroke	h	n/a
39.1345	0.179	78269	keystroke	e	n/a
39.4795	0.135	78959	keystroke	m	n/a
39.8085	0.135	79617	keystroke	a	n/a
39.9585	0.075	79917	keystroke	t	n/a
40.139	0.09	80278	keystroke	i	n/a
40.259	0.105	80518	keystroke	c	n/a
40.469	0.12	80938	keystroke	s	n/a
41.024	0.105	82048	keystroke	Key.space	n/a
41.324	0.0895	82648	keystroke	r	n/a
41.4445	0.06	82889	keystroke	o	n/a
41.5795	0.1345	83159	keystroke	o	n/a
41.6995	0.1195	83399	keystroke	t	n/a
41.8335	0.18	83667	keystroke	Key.space	n/a
42.0285	0.1355	84057	keystroke	m	n/a
42.149	0.075	84298	keystroke	e	n/a
42.344	0.1055	84688	keystroke	x	n/a
42.5095	0.0745	85019	keystroke	i	n/a
42.629	0.105	85258	keystroke	c	n/a
42.779	0.165	85558	keystroke	a	n/a
42.9145	0.119	85829	keystroke	n	n/a
43.0035	0.15	86007	keystroke	Key.space	n/a
43.2295	0.15	86459	keystroke	n	n/a
43.3635	0.15	86727	keystroke	o	n/a
43.5895	0.089	87179	keystroke	v	n/a
43.7995	0.075	87599	keystroke	e	n/a
43.9945	0.09	87989	keystroke	l	n/a
44.2195	0.0895	88439	keystroke	Key.enter	n/a
44.3185	5.8285	88637	prompt	n/a	bosnia ultimate sustainable boom\n
45.044	0.106	90088	keystroke	b	n/a
45.209	0.15	90418	keystroke	o	n/a
45.3145	0.1195	90629	keystroke	s	n/a
45.479	0.135	90958	keystroke	n	n/a
45.6295	0.105	91259	keystroke	i	n/a
45.7645	0.1505	91529	keystroke	a	n/a
45.8995	0.12	91799	keystroke	Key.space	n/a
46.1395	0.105	92279	keystroke	u	n/a
46.3495	0.12	92699	keystroke	l	n/a
46.5145	0.119	93029	keystroke	t	n/a
46.6495	0.0745	93299	keystroke	i	n/a
46.829	0.1055	93658	keystroke	m	n/a
46.979	0.18	93958	keystroke	a	n/a
47.189	0.135	94378	keystroke	t	n/a
47.384	0.1345	94768	keystroke	e	n/a
47.5045	0.15	95009	keystroke	Key.space	n/a
47.699	0.1055	95398	keystroke	s	n/a
47.8195	0.135	95639	keystroke	u	n/a
47.9395	0.12	95879	keystroke	s	n/a
48.1045	0.12	96209	keystroke	t	n/a
48.2845	0.15	96569	keystroke	a	n/a
48.449	0.166	96898	keystroke	i	n/a
48.599	0.1055	97198	keystroke	n	n/a
48.749	0.1355	97498	keystroke	a	n/a
48.9145	0.06	97829	keystroke	b	n/a
49.1095	0.09	98219	keystroke	l	n/a
49.1695	0.12	98339	keystroke	e	n/a
49.2745	0.18	98549	keystroke	Key.space	n/a
49.4395	0.09	98879	keystroke	b	n/a
49.5295	0.075	99059	keystroke	o	n/a
49.6795	0.1195	99359	keystroke	o	n/a
49.8595	0.0905	99719	keystroke	m	n/a
50.0385	0.105	100077	keystroke	Key.enter	n/a
50.163	6.763	100326	prompt	n/a	additions respected desktop notebook\n
50.7895	0.15	101579	keystroke	a	n/a
50.9095	0.105	101819	keystroke	d	n/a
51.0895	0.1055	102179	keystroke	d	n/a
51.2095	0.12	102419	keystroke	i	n/a
51.3585	0.09	102717	keystroke	t	n/a
51.494	0.15	102988	keystroke	i	n/a
51.629	0.1805	103258	keystroke	o	n/a
51.764	0.1055	103528	keystroke	n	n/a
51.8845	0.105	103769	keystroke	s	n/a
51.9595	0.195	103919	keystroke	Key.space	n/a
52.1245	0.135	104249	keystroke	r	n/a
52.2745	0.1045	104549	keystroke	e	n/a
52.484	0.15	104968	keystroke	s	n/a
52.6945	0.1355	105389	keystroke	p	n/a
52.8595	0.1195	105719	keystroke	e	n/a
53.0695	0.0895	106139	keystroke	c	n/a
53.279	0.075	106558	keystroke	t	n/a
53.444	0.0905	106888	keystroke	e	n/a
53.6545	0.1055	107309	keystroke	d	n/a
53.7895	0.135	107579	keystroke	Key.space	n/a
53.9395	0.105	107879	keystroke	d	n/a
54.1195	0.105	108239	keystroke	e	n/a
54.3145	0.105	108629	keystroke	s	n/a
54.4945	0.15	108989	keystroke	k	n/a
54.8245	0.105	109649	keystroke	t	n/a
54.9445	0.18	109889	keystroke	o	n/a
55.0795	0.135	110159	keystroke	p	n/a
55.229	0.105	110458	keystroke	Key.space	n/a
55.3945	0.12	110789	keystroke	n	n/a
55.5595	0.12	111119	keystroke	o	n/a
55.7095	0.1055	111419	keystroke	t	n/a
55.9195	0.105	111839	keystroke	e	n/a
56.1745	0.074	112349	keystroke	b	n/a
56.2945	0.075	112589	keystroke	o	n/a
56.4445	0.1195	112889	keystroke	o	n/a
56.6245	0.105	113249	keystroke	k	n/a
56.8495	0.075	113699	keystroke	Key.enter	n/a
56.9295	7.167	113859	prompt	n/a	anthropology atlanta moss matching\n
57.6445	0.1495	115289	keystroke	a	n/a
57.7645	0.1055	115529	keystroke	n	n/a
57.9295	0.105	115859	keystroke	t	n/a
58.0795	0.09	116159	keystroke	h	n/a
58.1995	0.105	116399	keystroke	r	n/a
58.38	0.0895	116760	keystroke	o	n/a
58.7695	0.075	117539	keystroke	p	n/a
59.0095	0.12	118019	keystroke	o	n/a
59.2345	0.0745	118469	keystroke	l	n/a
59.429	0.06	118858	keystroke	o	n/a
59.55	0.105	119100	keystroke	g	n/a
59.699	0.0905	119398	keystroke	y	n/a
59.834	0.1355	119668	keystroke	Key.space	n/a
60.0445	0.15	120089	keystroke	a	n/a
60.3445	0.09	120689	keystroke	t	n/a
60.659	0.1205	121318	keystroke	l	n/a
60.765	0.1495	121530	keystroke	a	n/a
60.8845	0.1045	121769	keystroke	n	n/a
61.02	0.104	122040	keystroke	t	n/a
61.23	0.12	122460	keystroke	a	n/a
61.394	0.1355	122788	keystroke	Key.space	n/a
61.545	0.12	123090	keystroke	m	n/a
61.665	0.1195	123330	keystroke	o	n/a
61.8295	0.105	123659	keystroke	s	n/a
62.04	0.0895	124080	keystroke	s	n/a
62.384	0.1205	124768	keystroke	Key.space	n/a
62.7745	0.135	125549	keystroke	m	n/a
62.894	0.166	125788	keystroke	a	n/a
63.03	0.075	126060	keystroke	t	n/a
63.254	0.075	126508	keystroke	c	n/a
63.3595	0.0905	126719	keystroke	h	n/a
63.479	0.15	126958	keystroke	i	n/a
63.585	0.119	127170	keystroke	n	n/a
63.689	0.0755	127378	keystroke	g	n/a
64.0045	0.0895	128009	keystroke	Key.enter	n/a
64.109	6.5125	128218	prompt	n/a	basket fewer marijuana finder\n
64.905	0.1045	129810	keystroke	b	n/a
65.085	0.1495	130170	keystroke	a	n/a
65.2345	0.135	130469	keystroke	s	n/a
65.4745	0.09	130949	keystroke	k	n/a
65.5345	0.135	131069	keystroke	e	n/a
65.6845	0.1205	131369	keystroke	t	n/a
65.789	0.225	131578	keystroke	Key.space	n/a
65.97	0.119	131940	keystroke	f	n/a
66.18	0.074	132360	keystroke	e	n/a
66.285	0.2095	132570	keystroke	w	n/a
66.48	0.134	132960	keystroke	e	n/a
66.7795	0.1205	133559	keystroke	r	n/a
66.914	0.15	133828	keystroke	Key.space	n/a
67.23	0.1495	134460	keystroke	m	n/a
67.3645	0.1655	134729	keystroke	a	n/a
67.5	0.105	135000	keystroke	r	n/a
67.62	0.104	135240	keystroke	i	n/a
67.845	0.075	135690	keystroke	j	n/a
68.07	0.134	136140	keystroke	a	n/a
68.489	0.03	136978	keystroke	Key.backspace	n/a
68.7595	0.06	137519	keystroke	u	n/a
68.939	0.1205	137878	keystroke	a	n/a
69.1195	0.1045	138239	keystroke	n	n/a
69.269	0.1055	138538	keystroke	a	n/a
69.539	0.12	139078	keystroke	Key.space	n/a
69.704	0.12	139408	keystroke	f	n/a
69.8545	0.1495	139709	keystroke	i	n/a
69.96	0.12	139920	keystroke	n	n/a
70.095	0.074	140190	keystroke	d	n/a
70.29	0.09	140580	keystroke	e	n/a
70.35	0.104	140700	keystroke	r	n/a
70.529	0.0905	141058	keystroke	Key.enter	n/a
70.6265	5.3395	141253	prompt	n/a	genius wing copyrights fetish\n
71.279	0.09	142558	keystroke	g	n/a
71.43	0.1045	142860	keystroke	e	n/a
71.5635	0.1065	143127	keystroke	n	n/a
71.7295	0.1045	143459	keystroke	i	n/a
71.9095	0.09	143819	keystroke	u	n/a
72.029	0.135	144058	keystroke	s	n/a
72.134	0.1655	144268	keystroke	Key.space	n/a
72.3445	0.135	144689	keystroke	w	n/a
72.4645	0.165	144929	keystroke	i	n/a
72.5845	0.12	145169	keystroke	n	n/a
72.7345	0.135	145469	keystroke	g	n/a
72.8545	0.165	145709	keystroke	Key.space	n/a
73.2	0.0895	146400	keystroke	c	n/a
73.3645	0.1205	146729	keystroke	o	n/a
73.5295	0.135	147059	keystroke	p	n/a
73.7395	0.075	147479	keystroke	y	n/a
73.9945	0.075	147989	keystroke	r	n/a
74.1295	0.106	148259	keystroke	i	n/a
74.2495	0.076	148499	keystroke	g	n/a
74.37	0.1355	148740	keystroke	h	n/a
74.4595	0.075	148919	keystroke	t	n/a
74.6845	0.105	149369	keystroke	s	n/a
74.7445	0.165	149489	keystroke	Key.space	n/a
74.94	0.074	149880	keystroke	f	n/a
75.0895	0.1055	150179	keystroke	e	n/a
75.209	0.09	150418	keystroke	t	n/a
75.375	0.135	150750	keystroke	i	n/a
75.524	0.076	151048	keystroke	s	n/a
75.66	0.075	151320	keystroke	h	n/a
75.854	0.105	151708	keystroke	Key.enter	n/a
75.966	6.116	151932	prompt	n/a	choices images seed virtual\n
76.634	0.121	153268	keystroke	c	n/a
76.7845	0.12	153569	keystroke	h	n/a
76.9495	0.076	153899	keystroke	o	n/a
77.1605	0.0745	154321	keystroke	i	n/a
77.2495	0.091	154499	keystroke	s	n/a
77.5495	0.06	155099	keystroke	Key.backspace	n/a
77.6545	0.09	155309	keystroke	c	n/a
77.864	0.1205	155728	keystroke	e	n/a
78.045	0.12	156090	keystroke	s	n/a
78.119	0.135	156238	keystroke	Key.space	n/a
78.315	0.0895	156630	keystroke	i	n/a
78.5245	0.09	157049	keystroke	m	n/a
78.6595	0.1505	157319	keystroke	a	n/a
78.8245	0.0745	157649	keystroke	g	n/a
79.1845	0.0895	158369	keystroke	e	n/a
79.47	0.1045	158940	keystroke	s	n/a
79.664	0.135	159328	keystroke	Key.space	n/a
79.8595	0.1345	159719	keystroke	s	n/a
80.01	0.0895	160020	keystroke	e	n/a
80.22	0.074	160440	keystroke	e	n/a
80.43	0.12	160860	keystroke	d	n/a
80.5645	0.1205	161129	keystroke	Key.space	n/a
80.745	0.12	161490	keystroke	v	n/a
80.895	0.135	161790	keystroke	i	n/a
81.0445	0.06	162089	keystroke	r	n/a
81.3145	0.075	162629	keystroke	t	n/a
81.4645	0.1205	162929	keystroke	u	n/a
81.599	0.121	163198	keystroke	a	n/a
81.7495	0.09	163499	keystroke	l	n/a
81.9745	0.105	163949	keystroke	Key.enter	n/a
82.086	7.3005	164172	prompt	n/a	southern differential certificate goals\n
82.83	0.135	165660	keystroke	s	n/a
82.9495	0.1955	165899	keystroke	o	n/a
83.085	0.09	166170	keystroke	u	n/a
83.189	0.09	166378	keystroke	t	n/a
83.3095	0.105	166619	keystroke	h	n/a
83.4	0.1195	166800	keystroke	e	n/a
83.4895	0.1355	166979	keystroke	r	n/a
83.669	0.1655	167338	keystroke	Key.space	n/a
84.3145	0.075	168629	keystroke	Key.backspace	n/a
84.57	0.045	169140	keystroke	n	n/a
84.705	0.149	169410	keystroke	Key.space	n/a
84.87	0.105	169740	keystroke	d	n/a
85.005	0.12	170010	keystroke	i	n/a
85.155	0.1045	170310	keystroke	f	n/a
85.335	0.0745	170670	keystroke	f	n/a
85.4845	0.12	170969	keystroke	e	n/a
85.5745	0.135	171149	keystroke	r	n/a
85.7395	0.1055	171479	keystroke	e	n/a
85.95	0.09	171900	keystroke	n	n/a
86.07	0.09	172140	keystroke	t	n/a
86.19	0.12	172380	keystroke	i	n/a
86.339	0.121	172678	keystroke	a	n/a
86.475	0.1195	172950	keystroke	l	n/a
86.5795	0.15	173159	keystroke	Key.space	n/a
86.7445	0.105	173489	keystroke	c	n/a
86.9395	0.105	173879	keystroke	e	n/a
87.0295	0.09	174059	keystroke	r	n/a
87.2245	0.061	174449	keystroke	t	n/a
87.3595	0.1045	174719	keystroke	i	n/a
87.51	0.104	175020	keystroke	f	n/a
87.674	0.1205	175348	keystroke	i	n/a
87.78	0.1195	175560	keystroke	c	n/a
88.0045	0.105	176009	keystroke	a	n/a
88.1395	0.09	176279	keystroke	t	n/a
88.2895	0.12	176579	keystroke	e	n/a
88.3945	0.18	176789	keystroke	Key.space	n/a
88.5305	0.104	177061	keystroke	g	n/a
88.6495	0.12	177299	keystroke	o	n/a
88.7995	0.135	177599	keystroke	a	n/a
88.95	0.1345	177900	keystroke	l	n/a
89.1145	0.09	178229	keystroke	s	n/a
89.2795	0.105	178559	keystroke	Key.enter	n/a
89.392	9.401	178784	prompt	n/a	failure mightn't experiment location\n
90.014	0.105	180028	keystroke	f	n/a
90.179	0.1505	180358	keystroke	a	n/a
90.3155	0.164	180631	keystroke	i	n/a
90.449	0.106	180898	keystroke	l	n/a
90.644	0.12	181288	keystroke	u	n/a
90.78	0.1195	181560	keystroke	r	n/a
90.9145	0.1655	181829	keystroke	e	n/a
91.035	0.135	182070	keystroke	Key.space	n/a
91.155	0.135	182310	keystroke	m	n/a
91.335	0.105	182670	keystroke	i	n/a
91.5	0.12	183000	keystroke	g	n/a
91.635	0.1045	183270	keystroke	h	n/a
91.7845	0.0905	183569	keystroke	t	n/a
92.429	0.121	184858	keystroke	n	n/a
92.625	0.1205	185250	keystroke	'	n/a
92.865	0.075	185730	keystroke	t	n/a
93.179	0.121	186358	keystroke	Key.space	n/a
93.54	0.1045	187080	keystroke	e	n/a
93.7495	0.1355	187499	keystroke	x	n/a
93.945	0.135	187890	keystroke	p	n/a
94.065	0.15	188130	keystroke	e	n/a
94.185	0.105	188370	keystroke	r	n/a
94.41	0.06	188820	keystroke	m	n/a
94.8595	0.075	189719	keystroke	Key.backspace	n/a
95.0845	0.0605	190169	keystroke	i	n/a
95.3095	0.0605	190619	keystroke	m	n/a
96.6295	0.1195	193259	keystroke	e	n/a
96.765	0.09	193530	keystroke	n	n/a
96.899	0.09	193798	keystroke	t	n/a
97.065	0.134	194130	keystroke	Key.space	n/a
97.3795	0.0895	194759	keystroke	l	n/a
97.545	0.104	195090	keystroke	o	n/a
97.725	0.0745	195450	keystroke	c	n/a
97.9045	0.15	195809	keystroke	a	n/a
98.1005	0.059	196201	keystroke	t	n/a
98.2345	0.135	196469	keystroke	i	n/a
98.3395	0.18	196679	keystroke	o	n/a
98.4595	0.1205	196919	keystroke	n	n/a
98.7	0.09	197400	keystroke	Key.enter	n/a
98.798	6.549	197596	prompt	n/a	concrete regular environment howdy\n
99.39	0.1195	198780	keystroke	c	n/a
99.494	0.166	198988	keystroke	o	n/a
99.615	0.104	199230	keystroke	n	n/a
99.734	0.106	199468	keystroke	c	n/a
99.974	0.105	199948	keystroke	r	n/a
100.14	0.134	200280	keystroke	e	n/a
100.305	0.1055	200610	keystroke	t	n/a
100.4555	0.1335	200911	keystroke	e	n/a
100.5745	0.1945	201149	keystroke	Key.space	n/a
100.725	0.12	201450	keystroke	r	n/a
100.875	0.104	201750	keystroke	e	n/a
101.13	0.12	202260	keystroke	g	n/a
101.28	0.12	202560	keystroke	u	n/a
101.43	0.135	202860	keystroke	l	n/a
101.58	0.15	203160	keystroke	a	n/a
101.7305	0.1335	203461	keystroke	r	n/a
101.8495	0.18	203699	keystroke	Key.space	n/a
101.984	0.165	203968	keystroke	e	n/a
102.12	0.1345	204240	keystroke	n	n/a
102.5545	0.1205	205109	keystroke	v	n/a
102.7945	0.105	205589	keystroke	i	n/a
102.9445	0.076	205889	keystroke	r	n/a
103.095	0.149	206190	keystroke	o	n/a
103.274	0.09	206548	keystroke	n	n/a
103.4995	0.0745	206999	keystroke	m	n/a
103.59	0.12	207180	keystroke	e	n/a
103.7245	0.09	207449	keystroke	n	n/a
103.8445	0.1045	207689	keystroke	t	n/a
104.0845	0.1045	208169	keystroke	Key.space	n/a
104.235	0.1045	208470	keystroke	h	n/a
104.3845	0.12	208769	keystroke	o	n/a
104.625	0.105	209250	keystroke	w	n/a
104.895	0.0745	209790	keystroke	d	n/a
105.03	0.0745	210060	keystroke	y	n/a
105.254	0.09	210508	keystroke	Key.enter	n/a
105.351	4.586	210702	prompt	n/a	last fotos cleaner each\n
105.96	0.12	211920	keystroke	l	n/a
106.0645	0.15	212129	keystroke	a	n/a
106.244	0.151	212488	keystroke	s	n/a
106.409	0.031	212818	keystroke	s	n/a
106.455	0.09	212910	keystroke	t	n/a
106.5295	0.2105	213059	keystroke	Key.space	n/a
106.6945	0.09	213389	keystroke	f	n/a
106.8445	0.1055	213689	keystroke	o	n/a
106.9795	0.0905	213959	keystroke	t	n/a
107.19	0.075	214380	keystroke	o	n/a
107.55	0.104	215100	keystroke	s	n/a
107.7	0.134	215400	keystroke	Key.space	n/a
107.9095	0.12	215819	keystroke	c	n/a
108.0595	0.1055	216119	keystroke	l	n/a
108.224	0.121	216448	keystroke	e	n/a
108.3745	0.1495	216749	keystroke	a	n/a
108.51	0.135	217020	keystroke	n	n/a
108.66	0.15	217320	keystroke	e	n/a
108.78	0.105	217560	keystroke	r	n/a
108.9445	0.1505	217889	keystroke	Key.space	n/a
109.11	0.119	218220	keystroke	e	n/a
109.29	0.12	218580	keystroke	a	n/a
109.485	0.105	218970	keystroke	c	n/a
109.6345	0.075	219269	keystroke	h	n/a
109.8295	0.1055	219659	keystroke	Key.enter	n/a
109.941	6.9145	219882	prompt	n/a	racial martin interactions analyst\n
110.7145	0.1205	221429	keystroke	r	n/a
110.88	0.1195	221760	keystroke	a	n/a
111.0145	0.1205	222029	keystroke	c	n/a
111.1655	0.119	222331	keystroke	i	n/a
111.2995	0.165	222599	keystroke	a	n/a
111.45	0.1345	222900	keystroke	l	n/a
111.5845	0.1805	223169	keystroke	Key.space	n/a
111.75	0.1345	223500	keystroke	m	n/a
111.87	0.135	223740	keystroke	a	n/a
111.974	0.105	223948	keystroke	r	n/a
112.1545	0.0895	224309	keystroke	t	n/a
112.2745	0.1795	224549	keystroke	i	n/a
112.409	0.12	224818	keystroke	n	n/a
112.544	0.1355	225088	keystroke	Key.space	n/a
112.7095	0.1805	225419	keystroke	i	n/a
112.8295	0.12	225659	keystroke	n	n/a
112.9645	0.105	225929	keystroke	t	n/a
113.1745	0.12	226349	keystroke	e	n/a
113.2345	0.135	226469	keystroke	r	n/a
113.4595	0.1355	226919	keystroke	a	n/a
113.624	0.076	227248	keystroke	c	n/a
113.835	0.045	227670	keystroke	t	n/a
113.9555	0.149	227911	keystroke	i	n/a
114.0745	0.181	228149	keystroke	o	n/a
114.1945	0.12	228389	keystroke	n	n/a
114.3	0.1195	228600	keystroke	s	n/a
114.3895	0.15	228779	keystroke	Key.space	n/a
114.57	0.1355	229140	keystroke	a	n/a
114.6895	0.135	229379	keystroke	n	n/a
114.8695	0.06	229739	keystroke	a	n/a
115.1095	0.12	230219	keystroke	Key.space	n/a
115.6045	0.0745	231209	keystroke	Key.backspace	n/a
115.8145	0.0755	231629	keystroke	l	n/a
116.025	0.0595	232050	keystroke	y	n/a
116.2195	0.1205	232439	keystroke	s	n/a
116.505	0.0445	233010	keystroke	t	n/a
116.745	0.1045	233490	keystroke	Key.enter	n/a
116.861	5.6765	233722	prompt	n/a	stan exists fees malawi\n
117.3895	0.135	234779	keystroke	s	n/a
117.54	0.0895	235080	keystroke	t	n/a
117.6895	0.1505	235379	keystroke	a	n/a
117.795	0.12	235590	keystroke	n	n/a
118.1545	0.12	236309	keystroke	Key.space	n/a
118.3195	0.105	236639	keystroke	e	n/a
118.545	0.1195	237090	keystroke	x	n/a
118.6795	0.1355	237359	keystroke	i	n/a
118.845	0.0895	237690	keystroke	s	n/a
119.039	0.091	238078	keystroke	t	n/a
119.279	0.121	238558	keystroke	w	n/a
119.79	0.074	239580	keystroke	Key.backspace	n/a
119.88	0.12	239760	keystroke	s	n/a
120.015	0.18	240030	keystroke	Key.space	n/a
120.21	0.06	240420	keystroke	f	n/a
120.36	0.09	240720	keystroke	e	n/a
120.54	0.075	241080	keystroke	e	n/a
120.735	0.1945	241470	keystroke	s	n/a
120.8695	0.12	241739	keystroke	Key.space	n/a
121.035	0.165	242070	keystroke	m	n/a
121.2005	0.134	242401	keystroke	a	n/a
121.38	0.0895	242760	keystroke	l	n/a
121.6945	0.1495	243389	keystroke	a	n/a
121.905	0.1195	243810	keystroke	w	n/a
122.205	0.09	244410	keystroke	i	n/a
122.429	0.105	244858	keystroke	Key.enter	n/a
122.5415	5.44	245083	prompt	n/a	connecting arrived fellow seed\n
123.195	0.12	246390	keystroke	c	n/a
123.285	0.165	246570	keystroke	o	n/a
123.39	0.105	246780	keystroke	n	n/a
123.584	0.121	247168	keystroke	n	n/a
123.75	0.0905	247500	keystroke	e	n/a
123.96	0.0595	247920	keystroke	c	n/a
124.155	0.0445	248310	keystroke	t	n/a
124.2895	0.1655	248579	keystroke	i	n/a
124.41	0.12	248820	keystroke	n	n/a
124.5	0.075	249000	keystroke	g	n/a
124.545	0.2095	249090	keystroke	Key.space	n/a
124.71	0.164	249420	keystroke	a	n/a
124.83	0.09	249660	keystroke	r	n/a
125.0095	0.09	250019	keystroke	r	n/a
125.1445	0.135	250289	keystroke	i	n/a
125.2645	0.075	250529	keystroke	v	n/a
125.4595	0.12	250919	keystroke	e	n/a
125.7745	0.1045	251549	keystroke	d	n/a
125.9095	0.1345	251819	keystroke	Key.space	n/a
126.059	0.1055	252118	keystroke	f	n/a
126.2695	0.12	252539	keystroke	e	n/a
126.4795	0.0455	252959	keystroke	l	n/a
126.6295	0.06	253259	keystroke	l	n/a
126.7945	0.09	253589	keystroke	o	n/a
126.8995	0.135	253799	keystroke	w	n/a
127.0345	0.21	254069	keystroke	Key.space	n/a
127.1995	0.1505	254399	keystroke	s	n/a
127.335	0.0895	254670	keystroke	e	n/a
127.5155	0.074	255031	keystroke	e	n/a
127.6945	0.0755	255389	keystroke	d	n/a
127.8745	0.1055	255749	keystroke	Key.enter	n/a
127.9875	6.909	255975	prompt	n/a	heavily boxed vendors thumbnail\n
128.64	0.15	257280	keystroke	h	n/a
128.7	0.15	257400	keystroke	e	n/a
128.88	0.1495	257760	keystroke	a	n/a
129.0745	0.105	258149	keystroke	v	n/a
129.21	0.1645	258420	keystroke	i	n/a
129.3295	0.106	258659	keystroke	l	n/a
129.525	0.0745	259050	keystroke	y	n/a
129.6145	0.15	259229	keystroke	Key.space	n/a
129.7945	0.12	259589	keystroke	b	n/a
129.959	0.121	259918	keystroke	o	n/a
130.1405	0.1045	260281	keystroke	x	n/a
130.35	0.09	260700	keystroke	e	n/a
130.575	0.075	261150	keystroke	d	n/a
130.6345	0.1655	261269	keystroke	Key.space	n/a
130.815	0.135	261630	keystroke	v	n/a
130.995	0.12	261990	keystroke	n	n/a
131.475	0.0445	262950	keystroke	Key.backspace	n/a
131.535	0.105	263070	keystroke	e	n/a
131.6845	0.075	263369	keystroke	n	n/a
131.8205	0.1045	263641	keystroke	d	n/a
131.955	0.1045	263910	keystroke	o	n/a
132.0895	0.09	264179	keystroke	r	n/a
132.3605	0.1495	264721	keystroke	s	n/a
132.4945	0.135	264989	keystroke	Key.space	n/a
132.7795	0.1055	265559	keystroke	t	n/a
132.885	0.105	265770	keystroke	h	n/a
133.2	0.09	266400	keystroke	u	n/a
133.425	0.075	266850	keystroke	m	n/a
133.605	0.075	267210	keystroke	b	n/a
133.9795	0.075	267959	keystroke	n	n/a
134.144	0.136	268288	keystroke	a	n/a
134.2945	0.105	268589	keystroke	i	n/a
134.565	0.0895	269130	keystroke	l	n/a
134.8045	0.09	269609	keystroke	Key.enter	n/a
134.9005	9.881	269801	prompt	n/a	converter disclosure browsing riverside\n
135.5395	0.15	271079	keystroke	c	n/a
135.7045	0.1495	271409	keystroke	o	n/a
135.869	0.121	271738	keystroke	n	n/a
136.05	0.06	272100	keystroke	c	n/a
136.5145	0.06	273029	keystroke	Key.backspace	n/a
136.56	0.075	273120	keystroke	v	n/a
136.8445	0.21	273689	keystroke	e	n/a
137.0395	0.0605	274079	keystroke	r	n/a
137.58	0.105	275160	keystroke	t	n/a
137.8045	0.136	275609	keystroke	e	n/a
137.8955	0.134	275791	keystroke	r	n/a
138.0595	0.18	276119	keystroke	Key.space	n/a
138.2545	0.135	276509	keystroke	d	n/a
138.3745	0.15	276749	keystroke	i	n/a
138.5095	0.105	277019	keystroke	s	n/a
138.7195	0.1355	277439	keystroke	c	n/a
138.9145	0.09	277829	keystroke	l	n/a
139.1105	0.089	278221	keystroke	o	n/a
139.32	0.1505	278640	keystroke	s	n/a
139.4855	0.104	278971	keystroke	u	n/a
139.6195	0.1055	279239	keystroke	r	n/a
140.475	0.0745	280950	keystroke	e	n/a
140.7595	0.12	281519	keystroke	Key.space	n/a
141.119	0.015	282238	keystroke	b	n/a
141.735	0.105	283470	keystroke	r	n/a
141.899	0.15	283798	keystroke	o	n/a
142.034	0.105	284068	keystroke	w	n/a
142.304	0.0915	284608	keystroke	s	n/a
142.47	0.165	284940	keystroke	i	n/a
142.5755	0.1345	285151	keystroke	n	n/a
142.725	0.09	285450	keystroke	g	n/a
142.86	0.165	285720	keystroke	Key.space	n/a
143.055	0.12	286110	keystroke	r	n/a
143.4	0.15	286800	keystroke	i	n/a
143.5795	0.09	287159	keystroke	v	n/a
143.7745	0.1205	287549	keystroke	e	n/a
143.864	0.0905	287728	keystroke	r	n/a
144.0295	0.15	288059	keystroke	s	n/a
144.1945	0.105	288389	keystroke	i	n/a
144.285	0.0895	288570	keystroke	d	n/a
144.4645	0.06	288929	keystroke	e	n/a
144.6745	0.105	289349	keystroke	Key.enter	n/a
144.787	5.065	289574	prompt	n/a	ment fonts sharp salad\n
145.59	0.1045	291180	keystroke	m	n/a
145.6795	0.12	291359	keystroke	e	n/a
145.8145	0.105	291629	keystroke	n	n/a
145.9645	0.12	291929	keystroke	t	n/a
146.0995	0.15	292199	keystroke	Key.space	n/a
146.3095	0.1055	292619	keystroke	f	n/a
146.4295	0.15	292859	keystroke	o	n/a
146.535	0.1645	293070	keystroke	n	n/a
146.6845	0.1055	293369	keystroke	t	n/a
146.8945	0.1045	293789	keystroke	s	n/a
146.955	0.149	293910	keystroke	Key.space	n/a
147.15	0.135	294300	keystroke	s	n/a
147.255	0.165	294510	keystroke	h	n/a
147.4355	0.1495	294871	keystroke	a	n/a
147.615	0.0895	295230	keystroke	r	n/a
147.8095	0.1355	295619	keystroke	p	n/a
147.99	0.179	295980	keystroke	Key.space	n/a
148.155	0.135	296310	keystroke	s	n/a
148.425	0.135	296850	keystroke	a	n/a
148.545	0.149	297090	keystroke	l	n/a
148.724	0.0905	297448	keystroke	a	n/a
149.129	0.0605	298258	keystroke	t	n/a
149.489	0.09	298978	keystroke	Key.backspace	n/a
149.61	0.045	299220	keystroke	d	n/a
149.775	0.074	299550	keystroke	Key.enter	n/a
149.8635	7.5485	299727	prompt	n/a	lifestyle catalog compile estates\n
150.645	0.0895	301290	keystroke	l	n/a
151.1695	0.1055	302339	keystroke	i	n/a
151.3495	0.1055	302699	keystroke	f	n/a
151.5295	0.105	303059	keystroke	e	n/a
151.7695	0.1345	303539	keystroke	s	n/a
151.92	0.09	303840	keystroke	t	n/a
152.1	0.09	304200	keystroke	y	n/a
152.31	0.104	304620	keystroke	l	n/a
152.4595	0.1355	304919	keystroke	e	n/a
152.58	0.1495	305160	keystroke	Key.space	n/a
152.7305	0.0885	305461	keystroke	c	n/a
152.865	0.134	305730	keystroke	a	n/a
153.029	0.075	306058	keystroke	t	n/a
153.164	0.1355	306328	keystroke	a	n/a
153.315	0.089	306630	keystroke	l	n/a
153.524	0.106	307048	keystroke	o	n/a
153.6905	0.1195	307381	keystroke	g	n/a
153.824	0.1355	307648	keystroke	Key.space	n/a
154.0495	0.1205	308099	keystroke	c	n/a
154.1705	0.1945	308341	keystroke	o	n/a
154.32	0.12	308640	keystroke	m	n/a
154.545	0.104	309090	keystroke	p	n/a
154.7695	0.09	309539	keystroke	i	n/a
154.934	0.1055	309868	keystroke	l	n/a
155.0695	0.1495	310139	keystroke	e	n/a
155.219	0.151	310438	keystroke	Key.space	n/a
155.3995	0.105	310799	keystroke	e	n/a
155.5795	0.15	311159	keystroke	s	n/a
155.7595	0.1055	311519	keystroke	t	n/a
155.9545	0.046	311909	keystroke	e	n/a
156.4645	0.09	312929	keystroke	Key.backspace	n/a
156.5845	0.15	313169	keystroke	a	n/a
156.7195	0.1205	313439	keystroke	t	n/a
156.9295	0.0905	313859	keystroke	e	n/a
157.0945	0.12	314189	keystroke	s	n/a
157.3195	0.0905	314639	keystroke	Key.enter	n/a
157.417	6.009	314834	prompt	n/a	isolated billy spine extremely\n
158.085	0.1195	316170	keystroke	i	n/a
158.22	0.15	316440	keystroke	s	n/a
158.385	0.105	316770	keystroke	o	n/a
158.594	0.106	317188	keystroke	l	n/a
158.715	0.164	317430	keystroke	a	n/a
158.8645	0.0905	317729	keystroke	t	n/a
159.03	0.09	318060	keystroke	e	n/a
159.24	0.0895	318480	keystroke	d	n/a
159.3145	0.1795	318629	keystroke	Key.space	n/a
159.48	0.089	318960	keystroke	b	n/a
159.57	0.149	319140	keystroke	i	n/a
159.69	0.0895	319380	keystroke	l	n/a
159.8545	0.09	319709	keystroke	l	n/a
160.0195	0.09	320039	keystroke	y	n/a
160.079	0.1955	320158	keystroke	Key.space	n/a
160.2305	0.149	320461	keystroke	s	n/a
160.3645	0.105	320729	keystroke	p	n/a
160.575	0.1195	321150	keystroke	i	n/a
160.7545	0.075	321509	keystroke	n	n/a
161.37	0.1045	322740	keystroke	e	n/a
161.4895	0.135	322979	keystroke	Key.space	n/a
161.6395	0.09	323279	keystroke	e	n/a
161.865	0.104	323730	keystroke	x	n/a
162.0895	0.09	324179	keystroke	t	n/a
162.285	0.105	324570	keystroke	r	n/a
162.4645	0.1205	324929	keystroke	e	n/a
162.5995	0.1195	325199	keystroke	m	n/a
162.7345	0.105	325469	keystroke	e	n/a
162.8995	0.09	325799	keystroke	l	n/a
163.1245	0.0755	326249	keystroke	y	n/a
163.3495	0.075	326699	keystroke	Key.enter	n/a
163.43	7.362	326860	prompt	n/a	depends acrobat promoted institutional\n
164.114	0.1055	328228	keystroke	d	n/a
164.3395	0.09	328679	keystroke	e	n/a
164.4445	0.105	328889	keystroke	p	n/a
164.5345	0.12	329069	keystroke	e	n/a
164.67	0.1195	329340	keystroke	n	n/a
164.7745	0.0905	329549	keystroke	d	n/a
164.9395	0.15	329879	keystroke	s	n/a
165.0595	0.165	330119	keystroke	Key.space	n/a
165.2695	0.15	330539	keystroke	a	n/a
165.45	0.0745	330900	keystroke	c	n/a
165.6605	0.0585	331321	keystroke	r	n/a
165.7795	0.12	331559	keystroke	o	n/a
166.05	0.0895	332100	keystroke	b	n/a
166.2595	0.1655	332519	keystroke	a	n/a
166.47	0.09	332940	keystroke	t	n/a
166.59	0.1345	333180	keystroke	Key.space	n/a
166.739	0.091	333478	keystroke	p	n/a
166.859	0.0905	333718	keystroke	r	n/a
166.9645	0.12	333929	keystroke	o	n/a
167.16	0.1345	334320	keystroke	m	n/a
167.3095	0.12	334619	keystroke	o	n/a
167.4455	0.104	334891	keystroke	t	n/a
167.6545	0.09	335309	keystroke	e	n/a
167.8645	0.105	335729	keystroke	d	n/a
167.9245	0.165	335849	keystroke	Key.space	n/a
168.0745	0.1505	336149	keystroke	i	n/a
168.1795	0.12	336359	keystroke	n	n/a
168.495	0.119	336990	keystroke	s	n/a
168.735	0.09	337470	keystroke	t	n/a
168.885	0.105	337770	keystroke	i	n/a
169.065	0.09	338130	keystroke	t	n/a
169.229	0.135	338458	keystroke	u	n/a
169.38	0.105	338760	keystroke	t	n/a
169.605	0.135	339210	keystroke	i	n/a
169.725	0.134	339450	keystroke	o	n/a
169.904	0.09	339808	keystroke	n	n/a
170.22	0.09	340440	keystroke	a	n/a
170.46	0.1045	340920	keystroke	l	n/a
170.6995	0.09	341399	keystroke	Key.enter	n/a
170.7965	7.3005	341593	prompt	n/a	placement algebra translate exposure\n
171.4945	0.12	342989	keystroke	p	n/a
171.6745	0.105	343349	keystroke	l	n/a
171.7945	0.1505	343589	keystroke	a	n/a
171.9595	0.09	343919	keystroke	c	n/a
172.155	0.105	344310	keystroke	e	n/a
172.29	0.09	344580	keystroke	m	n/a
172.38	0.105	344760	keystroke	e	n/a
172.5	0.105	345000	keystroke	n	n/a
172.605	0.119	345210	keystroke	t	n/a
172.86	0.134	345720	keystroke	Key.space	n/a
173.055	0.15	346110	keystroke	a	n/a
173.16	0.104	346320	keystroke	l	n/a
173.414	0.06	346828	keystroke	g	n/a
173.55	0.165	347100	keystroke	e	n/a
173.895	0.09	347790	keystroke	b	n/a
174.164	0.106	348328	keystroke	r	n/a
174.57	0.12	349140	keystroke	a	n/a
174.75	0.149	349500	keystroke	Key.space	n/a
175.049	0.0755	350098	keystroke	t	n/a
175.215	0.075	350430	keystroke	r	n/a
175.3195	0.1505	350639	keystroke	a	n/a
175.44	0.105	350880	keystroke	n	n/a
175.62	0.12	351240	keystroke	s	n/a
175.8	0.105	351600	keystroke	l	n/a
175.92	0.135	351840	keystroke	a	n/a
176.115	0.075	352230	keystroke	t	n/a
176.28	0.12	352560	keystroke	e	n/a
176.385	0.1345	352770	keystroke	Key.space	n/a
176.5945	0.105	353189	keystroke	e	n/a
176.82	0.1045	353640	keystroke	x	n/a
176.9545	0.1355	353909	keystroke	p	n/a
177.1495	0.12	354299	keystroke	o	n/a
177.2995	0.135	354599	keystroke	s	n/a
177.5245	0.0745	355049	keystroke	u	n/a
177.644	0.0755	355288	keystroke	r	n/a
177.8095	0.1055	355619	keystroke	e	n/a
177.99	0.105	355980	keystroke	Key.enter	n/a
178.1005	5.336	356201	prompt	n/a	strike sessions stud sanyo\n
178.845	0.1645	357690	keystroke	s	n/a
178.979	0.075	357958	keystroke	t	n/a
179.13	0.104	358260	keystroke	r	n/a
179.249	0.0905	358498	keystroke	i	n/a
179.489	0.106	358978	keystroke	k	n/a
179.58	0.1345	359160	keystroke	e	n/a
179.6995	0.195	359399	keystroke	Key.space	n/a
179.8805	0.1345	359761	keystroke	s	n/a
179.985	0.12	359970	keystroke	e	n/a
180.1645	0.09	360329	keystroke	s	n/a
180.3445	0.075	360689	keystroke	s	n/a
180.4945	0.1655	360989	keystroke	i	n/a
180.6305	0.2095	361261	keystroke	o	n/a
180.81	0.12	361620	keystroke	n	n/a
180.9605	0.1635	361921	keystroke	s	n/a
181.109	0.181	362218	keystroke	Key.space	n/a
181.275	0.18	362550	keystroke	s	n/a
181.44	0.105	362880	keystroke	t	n/a
181.604	0.106	363208	keystroke	u	n/a
181.7245	0.105	363449	keystroke	d	n/a
181.98	0.149	363960	keystroke	Key.space	n/a
182.175	0.105	364350	keystroke	s	n/a
182.354	0.1205	364708	keystroke	a	n/a
182.459	0.0905	364918	keystroke	n	n/a
182.6695	0.0605	365339	keystroke	y	n/a
183.105	0.0745	366210	keystroke	o	n/a
183.3445	0.0905	366689	keystroke	Key.enter	n/a
183.442	6.4445	366884	prompt	n/a	academy rise charleston buyers\n
184.095	0.195	368190	keystroke	a	n/a
184.3045	0.121	368609	keystroke	c	n/a
184.5145	0.15	369029	keystroke	a	n/a
184.71	0.074	369420	keystroke	d	n/a
184.89	0.075	369780	keystroke	e	n/a
185.01	0.09	370020	keystroke	m	n/a
185.205	0.075	370410	keystroke	y	n/a
185.309	0.18	370618	keystroke	Key.space	n/a
185.46	0.09	370920	keystroke	r	n/a
185.58	0.09	371160	keystroke	i	n/a
185.6855	0.1045	371371	keystroke	s	n/a
186.015	0.1345	372030	keystroke	e	n/a
186.165	0.1495	372330	keystroke	Key.space	n/a
186.4345	0.135	372869	keystroke	c	n/a
186.5545	0.1355	373109	keystroke	h	n/a
186.675	0.165	373350	keystroke	a	n/a
186.8245	0.0905	373649	keystroke	r	n/a
186.945	0.135	373890	keystroke	l	n/a
187.56	0.12	375120	keystroke	e	n/a
187.755	0.1495	375510	keystroke	s	n/a
187.9345	0.105	375869	keystroke	t	n/a
188.0695	0.181	376139	keystroke	o	n/a
188.2195	0.105	376439	keystroke	n	n/a
188.5495	0.135	377099	keystroke	Key.space	n/a
188.7445	0.0895	377489	keystroke	b	n/a
188.85	0.0745	377700	keystroke	u	n/a
189.0295	0.045	378059	keystroke	y	n/a
189.24	0.1645	378480	keystroke	e	n/a
189.3595	0.1055	378719	keystroke	r	n/a
189.5845	0.09	379169	keystroke	s	n/a
189.7495	0.1355	379499	keystroke	Key.enter	n/a
189.8905	7.632	379781	prompt	n/a	biblical streams startup computational\n
190.6345	0.0905	381269	keystroke	b	n/a
190.74	0.15	381480	keystroke	i	n/a
190.875	0.1045	381750	keystroke	b	n/a
191.04	0.12	382080	keystroke	l	n/a
191.22	0.1345	382440	keystroke	i	n/a
191.49	0.105	382980	keystroke	c	n/a
191.7	0.1645	383400	keystroke	a	n/a
191.8495	0.105	383699	keystroke	l	n/a
191.97	0.2095	383940	keystroke	Key.space	n/a
192.1495	0.165	384299	keystroke	s	n/a
192.3445	0.09	384689	keystroke	t	n/a
192.51	0.1045	385020	keystroke	r	n/a
192.75	0.15	385500	keystroke	e	n/a
193.02	0.1355	386040	keystroke	a	n/a
193.17	0.135	386340	keystroke	m	n/a
193.32	0.149	386640	keystroke	s	n/a
193.455	0.18	386910	keystroke	Key.space	n/a
193.665	0.1495	387330	keystroke	s	n/a
193.8445	0.1055	387689	keystroke	t	n/a
194.0245	0.135	388049	keystroke	a	n/a
194.1445	0.0905	388289	keystroke	r	n/a
194.34	0.0745	388680	keystroke	t	n/a
194.4905	0.1045	388981	keystroke	u	n/a
194.7	0.075	389400	keystroke	p	n/a
194.8795	0.135	389759	keystroke	Key.space	n/a
195.09	0.1495	390180	keystroke	c	n/a
195.2255	0.1795	390451	keystroke	o	n/a
195.3745	0.12	390749	keystroke	m	n/a
195.54	0.135	391080	keystroke	p	n/a
195.8105	0.0895	391621	keystroke	u	n/a
196.0045	0.1205	392009	keystroke	t	n/a
196.35	0.1495	392700	keystroke	a	n/a
196.4995	0.1055	392999	keystroke	t	n/a
196.635	0.165	393270	keystroke	i	n/a
196.77	0.165	393540	keystroke	o	n/a
196.905	0.09	393810	keystroke	n	n/a
197.025	0.135	394050	keystroke	a	n/a
197.161	0.089	394322	keystroke	l	n/a
197.4295	0.0905	394859	keystroke	Key.enter	n/a
197.5275	9.0695	395055	prompt	n/a	cottage universe cage approximate\n
198.6605	0.134	397321	keystroke	c	n/a
198.8845	0.135	397769	keystroke	o	n/a
199.14	0.0745	398280	keystroke	t	n/a
199.2745	0.1055	398549	keystroke	t	n/a
199.4395	0.1355	398879	keystroke	a	n/a
199.59	0.089	399180	keystroke	b	n/a
199.785	0.1345	399570	keystroke	e	n/a
199.8745	0.2255	399749	keystroke	Key.space	n/a
200.82	0.06	401640	keystroke	Key.backspace	n/a
200.9695	0.0895	401939	keystroke	Key.backspace	n/a
201.149	0.076	402298	keystroke	g	n/a
201.5845	0.0595	403169	keystroke	Key.backspace	n/a
201.7045	0.1355	403409	keystroke	Key.backspace	n/a
201.795	0.09	403590	keystroke	g	n/a
201.96	0.12	403920	keystroke	e	n/a
202.14	0.12	404280	keystroke	Key.space	n/a
202.4395	0.076	404879	keystroke	u	n/a
202.6195	0.061	405239	keystroke	n	n/a
202.785	0.0905	405570	keystroke	i	n/a
202.9355	0.1045	405871	keystroke	v	n/a
203.1595	0.12	406319	keystroke	e	n/a
203.2345	0.106	406469	keystroke	r	n/a
203.4745	0.1205	406949	keystroke	s	n/a
203.565	0.15	407130	keystroke	e	n/a
203.685	0.1345	407370	keystroke	Key.space	n/a
203.8795	0.0905	407759	keystroke	c	n/a
204.0295	0.151	408059	keystroke	a	n/a
204.24	0.075	408480	keystroke	g	n/a
204.4045	0.1205	408809	keystroke	e	n/a
204.51	0.135	409020	keystroke	Key.space	n/a
204.675	0.15	409350	keystroke	a	n/a
204.84	0.075	409680	keystroke	p	n/a
204.975	0.135	409950	keystroke	p	n/a
205.1255	0.089	410251	keystroke	r	n/a
205.2295	0.105	410459	keystroke	o	n/a
205.5145	0.15	411029	keystroke	x	n/a
205.6805	0.089	411361	keystroke	i	n/a
205.89	0.12	411780	keystroke	m	n/a
206.025	0.12	412050	keystroke	a	n/a
206.16	0.0595	412320	keystroke	t	n/a
206.31	0.075	412620	keystroke	e	n/a
206.4895	0.1055	412979	keystroke	Key.enter	n/a
206.604	7.283	413208	prompt	n/a	cheers enough introductory identifier\n
207.345	0.12	414690	keystroke	c	n/a
207.48	0.12	414960	keystroke	h	n/a
207.615	0.1205	415230	keystroke	e	n/a
207.8095	0.165	415619	keystroke	e	n/a
207.9445	0.105	415889	keystroke	r	n/a
208.155	0.15	416310	keystroke	s	n/a
208.2745	0.135	416549	keystroke	Key.space	n/a
208.455	0.1045	416910	keystroke	e	n/a
208.59	0.09	417180	keystroke	n	n/a
208.755	0.1795	417510	keystroke	o	n/a
208.905	0.1045	417810	keystroke	u	n/a
209.0395	0.1055	418079	keystroke	g	n/a
209.175	0.09	418350	keystroke	h	n/a
209.3095	0.12	418619	keystroke	Key.space	n/a
209.4895	0.18	418979	keystroke	i	n/a
209.655	0.105	419310	keystroke	n	n/a
209.91	0.075	419820	keystroke	t	n/a
210.0755	0.0745	420151	keystroke	r	n/a
210.18	0.135	420360	keystroke	o	n/a
210.345	0.1195	420690	keystroke	d	n/a
210.4795	0.1205	420959	keystroke	u	n/a
210.615	0.105	421230	keystroke	c	n/a
210.825	0.06	421650	keystroke	t	n/a
210.975	0.075	421950	keystroke	o	n/a
211.08	0.09	422160	keystroke	r	n/a
211.215	0.1205	422430	keystroke	y	n/a
211.35	0.12	422700	keystroke	Key.space	n/a
211.485	0.105	422970	keystroke	i	n/a
211.65	0.1045	423300	keystroke	d	n/a
211.83	0.075	423660	keystroke	e	n/a
211.965	0.12	423930	keystroke	n	n/a
212.1145	0.09	424229	keystroke	t	n/a
212.235	0.15	424470	keystroke	i	n/a
212.3995	0.106	424799	keystroke	f	n/a
212.745	0.1195	425490	keystroke	i	n/a
212.88	0.105	425760	keystroke	e	n/a
213.12	0.075	426240	keystroke	d	n/a
213.51	0.1045	427020	keystroke	Key.backspace	n/a
213.6	0.074	427200	keystroke	r	n/a
213.81	0.0745	427620	keystroke	Key.enter	n/a
213.8915	6.19	427783	prompt	n/a	volt programme entitled outlook\n
214.7395	0.1205	429479	keystroke	v	n/a
214.875	0.09	429750	keystroke	o	n/a
215.07	0.075	430140	keystroke	l	n/a
215.2795	0.0905	430559	keystroke	t	n/a
215.49	0.104	430980	keystroke	Key.space	n/a
215.625	0.09	431250	keystroke	p	n/a
215.745	0.1195	431490	keystroke	r	n/a
215.85	0.15	431700	keystroke	o	n/a
216.045	0.0755	432090	keystroke	g	n/a
216.195	0.09	432390	keystroke	r	n/a
216.33	0.1495	432660	keystroke	a	n/a
216.435	0.075	432870	keystroke	m	n/a
216.5995	0.1055	433199	keystroke	m	n/a
216.705	0.165	433410	keystroke	e	n/a
216.84	0.15	433680	keystroke	Key.space	n/a
217.065	0.12	434130	keystroke	e	n/a
217.2	0.104	434400	keystroke	n	n/a
217.41	0.12	434820	keystroke	t	n/a
217.575	0.135	435150	keystroke	i	n/a
217.725	0.1045	435450	keystroke	t	n/a
217.9355	0.1345	435871	keystroke	l	n/a
218.0545	0.12	436109	keystroke	e	n/a
218.2955	0.104	436591	keystroke	d	n/a
218.3395	0.165	436679	keystroke	Key.space	n/a
218.55	0.18	437100	keystroke	o	n/a
218.7	0.1195	437400	keystroke	u	n/a
218.865	0.0905	437730	keystroke	t	n/a
219.1945	0.0745	438389	keystroke	l	n/a
219.375	0.0595	438750	keystroke	o	n/a
219.5105	0.1045	439021	keystroke	o	n/a
219.78	0.075	439560	keystroke	k	n/a
220.02	0.059	440040	keystroke	Key.enter	n/a
220.0875	5.665	440175	prompt	n/a	libraries jews insight means\n
220.7405	0.134	441481	keystroke	l	n/a
220.8445	0.1805	441689	keystroke	i	n/a
220.9945	0.09	441989	keystroke	b	n/a
221.2055	0.119	442411	keystroke	r	n/a
221.4005	0.1495	442801	keystroke	a	n/a
221.52	0.12	443040	keystroke	r	n/a
221.73	0.135	443460	keystroke	i	n/a
222.0455	0.105	444091	keystroke	e	n/a
222.2255	0.164	444451	keystroke	s	n/a
222.33	0.15	444660	keystroke	Key.space	n/a
222.5395	0.12	445079	keystroke	j	n/a
222.6895	0.1205	445379	keystroke	e	n/a
223.0355	0.1345	446071	keystroke	w	n/a
223.305	0.1195	446610	keystroke	s	n/a
223.4095	0.135	446819	keystroke	Key.space	n/a
223.575	0.18	447150	keystroke	i	n/a
223.7395	0.105	447479	keystroke	n	n/a
223.8745	0.1355	447749	keystroke	s	n/a
224.0245	0.1355	448049	keystroke	i	n/a
224.25	0.105	448500	keystroke	g	n/a
224.4145	0.135	448829	keystroke	h	n/a
224.535	0.1205	449070	keystroke	t	n/a
224.6995	0.1205	449399	keystroke	Key.space	n/a
224.85	0.1345	449700	keystroke	m	n/a
224.9855	0.1045	449971	keystroke	e	n/a
225.12	0.1345	450240	keystroke	a	n/a
225.2245	0.1355	450449	keystroke	n	n/a
225.4055	0.09	450811	keystroke	s	n/a
225.645	0.105	451290	keystroke	Key.enter	n/a
225.757	10.2705	451514	prompt	n/a	shots initiative porsche ottawa\n
226.6045	0.06	453209	keystroke	s	n/a
226.635	0.1355	453270	keystroke	h	n/a
226.7845	0.106	453569	keystroke	o	n/a
226.9505	0.0745	453901	keystroke	t	n/a
227.145	0.15	454290	keystroke	s	n/a
227.264	0.135	454528	keystroke	Key.space	n/a
227.385	0.15	454770	keystroke	i	n/a
227.5055	0.1195	455011	keystroke	n	n/a
227.7605	0.1045	455521	keystroke	i	n/a
227.955	0.105	455910	keystroke	t	n/a
228.195	0.12	456390	keystroke	i	n/a
228.4505	0.164	456901	keystroke	a	n/a
228.6595	0.0755	457319	keystroke	t	n/a
229.9945	0.12	459989	keystroke	i	n/a
230.2655	0.0895	460531	keystroke	v	n/a
230.4455	0.09	460891	keystroke	e	n/a
230.5945	0.135	461189	keystroke	Key.space	n/a
231.435	0.105	462870	keystroke	p	n/a
231.7655	0.135	463531	keystroke	o	n/a
232.0355	0.105	464071	keystroke	r	n/a
232.2755	0.1045	464551	keystroke	c	n/a
232.41	0.135	464820	keystroke	h	n/a
233.0995	0.075	466199	keystroke	Key.backspace	n/a
233.2945	0.09	466589	keystroke	Key.backspace	n/a
233.64	0.105	467280	keystroke	s	n/a
233.94	0.12	467880	keystroke	c	n/a
234.075	0.105	468150	keystroke	h	n/a
234.2405	0.09	468481	keystroke	e	n/a
234.4655	0.105	468931	keystroke	Key.space	n/a
234.7205	0.12	469441	keystroke	o	n/a
234.8555	0.09	469711	keystroke	t	n/a
235.0055	0.104	470011	keystroke	t	n/a
235.1695	0.1655	470339	keystroke	a	n/a
235.4845	0.1355	470969	keystroke	w	n/a
235.6045	0.181	471209	keystroke	a	n/a
235.904	0.121	471808	keystroke	Key.enter	n/a
236.0325	6.054	472065	prompt	n/a	homeless pillow debate joseph\n
236.67	0.135	473340	keystroke	h	n/a
236.79	0.104	473580	keystroke	o	n/a
237	0.0905	474000	keystroke	m	n/a
237.075	0.12	474150	keystroke	e	n/a
237.24	0.12	474480	keystroke	l	n/a
237.33	0.12	474660	keystroke	e	n/a
237.495	0.105	474990	keystroke	s	n/a
237.69	0.0905	475380	keystroke	s	n/a
237.795	0.1355	475590	keystroke	Key.space	n/a
237.9145	0.165	475829	keystroke	p	n/a
238.0945	0.075	476189	keystroke	i	n/a
238.2595	0.0455	476519	keystroke	l	n/a
238.4095	0.0605	476819	keystroke	l	n/a
238.5755	0.075	477151	keystroke	o	n/a
238.6655	0.1345	477331	keystroke	w	n/a
238.785	0.1645	477570	keystroke	Key.space	n/a
238.9205	0.09	477841	keystroke	d	n/a
239.0855	0.1045	478171	keystroke	e	n/a
239.4595	0.121	478919	keystroke	b	n/a
239.715	0.134	479430	keystroke	a	n/a
239.895	0.0745	479790	keystroke	t	n/a
240.06	0.12	480120	keystroke	e	n/a
240.165	0.12	480330	keystroke	Key.space	n/a
240.615	0.1195	481230	keystroke	j	n/a
240.795	0.1055	481590	keystroke	o	n/a
240.96	0.0745	481920	keystroke	s	n/a
241.305	0.0755	482610	keystroke	e	n/a
241.4845	0.1055	482969	keystroke	p	n/a
241.6655	0.1045	483331	keystroke	h	n/a
241.98	0.1045	483960	keystroke	Key.enter	n/a
242.0915	5.726	484183	prompt	n/a	presently pour murder paintings\n
242.85	0.09	485700	keystroke	p	n/a
242.97	0.12	485940	keystroke	r	n/a
243.105	0.135	486210	keystroke	e	n/a
243.3605	0.134	486721	keystroke	s	n/a
243.4795	0.135	486959	keystroke	e	n/a
243.6155	0.105	487231	keystroke	n	n/a
243.7505	0.104	487501	keystroke	t	n/a
243.9155	0.09	487831	keystroke	l	n/a
244.1095	0.091	488219	keystroke	y	n/a
244.215	0.1045	488430	keystroke	Key.space	n/a
244.3645	0.151	488729	keystroke	p	n/a
244.5305	0.18	489061	keystroke	o	n/a
244.8	0.0905	489600	keystroke	u	n/a
245.01	0.1345	490020	keystroke	r	n/a
245.1295	0.15	490259	keystroke	Key.space	n/a
245.3405	0.0895	490681	keystroke	m	n/a
245.5355	0.074	491071	keystroke	u	n/a
245.6995	0.0905	491399	keystroke	r	n/a
245.91	0.09	491820	keystroke	d	n/a
246.09	0.135	492180	keystroke	e	n/a
246.1805	0.1345	492361	keystroke	r	n/a
246.27	0.12	492540	keystroke	Key.space	n/a
246.42	0.1345	492840	keystroke	p	n/a
246.5695	0.166	493139	keystroke	a	n/a
246.6905	0.18	493381	keystroke	i	n/a
246.8105	0.104	493621	keystroke	n	n/a
246.9305	0.089	493861	keystroke	t	n/a
247.0645	0.181	494129	keystroke	i	n/a
247.1555	0.149	494311	keystroke	n	n/a
247.3055	0.074	494611	keystroke	g	n/a
247.5145	0.091	495029	keystroke	s	n/a
247.725	0.09	495450	keystroke	Key.enter	n/a
247.822	6.3705	495644	prompt	n/a	judicial explore yards mapping\n
248.445	0.046	496890	keystroke	j	n/a
248.5955	0.0895	497191	keystroke	u	n/a
248.7305	0.0895	497461	keystroke	s	n/a
249.06	0.09	498120	keystroke	Key.backspace	n/a
249.195	0.105	498390	keystroke	d	n/a
249.33	0.09	498660	keystroke	i	n/a
249.465	0.135	498930	keystroke	c	n/a
249.6605	0.0895	499321	keystroke	i	n/a
249.9745	0.121	499949	keystroke	a	n/a
250.1105	0.0895	500221	keystroke	l	n/a
250.23	0.1345	500460	keystroke	Key.space	n/a
250.395	0.09	500790	keystroke	e	n/a
250.62	0.1205	501240	keystroke	x	n/a
250.755	0.1045	501510	keystroke	p	n/a
250.965	0.0895	501930	keystroke	l	n/a
251.1445	0.0755	502289	keystroke	o	n/a
251.265	0.09	502530	keystroke	r	n/a
251.445	0.1355	502890	keystroke	e	n/a
251.595	0.1195	503190	keystroke	Key.space	n/a
251.805	0.09	503610	keystroke	y	n/a
251.955	0.181	503910	keystroke	a	n/a
252.12	0.0905	504240	keystroke	r	n/a
252.36	0.105	504720	keystroke	d	n/a
252.6	0.1345	505200	keystroke	s	n/a
252.7495	0.1355	505499	keystroke	Key.space	n/a
253.05	0.135	506100	keystroke	m	n/a
253.2	0.15	506400	keystroke	a	n/a
253.365	0.045	506730	keystroke	p	n/a
253.485	0.135	506970	keystroke	p	n/a
253.605	0.194	507210	keystroke	i	n/a
253.7545	0.1205	507509	keystroke	n	n/a
253.9055	0.105	507811	keystroke	g	n/a
254.1	0.0905	508200	keystroke	Key.enter	n/a
254.197	7.075	508394	prompt	n/a	poster hotels vampire electronic\n
254.895	0.165	509790	keystroke	p	n/a
255.015	0.1505	510030	keystroke	o	n/a
255.1805	0.1645	510361	keystroke	s	n/a
255.36	0.09	510720	keystroke	t	n/a
255.525	0.15	511050	keystroke	e	n/a
255.645	0.12	511290	keystroke	r	n/a
255.75	0.15	511500	keystroke	Key.space	n/a
255.9455	0.1195	511891	keystroke	h	n/a
256.05	0.1205	512100	keystroke	o	n/a
256.171	0.104	512342	keystroke	t	n/a
256.32	0.1205	512640	keystroke	e	n/a
256.5	0.105	513000	keystroke	l	n/a
256.6355	0.135	513271	keystroke	s	n/a
257.04	0.1195	514080	keystroke	Key.space	n/a
257.5655	0.134	515131	keystroke	v	n/a
258.06	0.1505	516120	keystroke	a	n/a
258.195	0.105	516390	keystroke	m	n/a
258.39	0.1055	516780	keystroke	p	n/a
258.6	0.1055	517200	keystroke	i	n/a
258.72	0.1205	517440	keystroke	r	n/a
258.886	0.134	517772	keystroke	e	n/a
259.005	0.135	518010	keystroke	Key.space	n/a
259.1705	0.1045	518341	keystroke	e	n/a
259.335	0.105	518670	keystroke	l	n/a
259.425	0.105	518850	keystroke	e	n/a
259.65	0.075	519300	keystroke	c	n/a
259.875	0.06	519750	keystroke	t	n/a
260.01	0.0755	520020	keystroke	r	n/a
260.145	0.1045	520290	keystroke	o	n/a
260.3545	0.09	520709	keystroke	n	n/a
260.565	0.06	521130	keystroke	i	n/a
260.7005	0.105	521401	keystroke	c	n/a
261.1645	0.1055	522329	keystroke	Key.enter	n/a
261.2765	8.755	522553	prompt	n/a	counters pack virtual humanity\n
261.99	0.1505	523980	keystroke	c	n/a
262.1245	0.1655	524249	keystroke	o	n/a
262.2145	0.105	524429	keystroke	u	n/a
262.53	0.0905	525060	keystroke	t	n/a
262.965	0.075	525930	keystroke	Key.backspace	n/a
264.7045	0.0905	529409	keystroke	n	n/a
264.825	0.09	529650	keystroke	t	n/a
265.02	0.1205	530040	keystroke	e	n/a
265.125	0.12	530250	keystroke	r	n/a
265.41	0.1195	530820	keystroke	s	n/a
265.485	0.1495	530970	keystroke	Key.space	n/a
265.6645	0.121	531329	keystroke	p	n/a
265.77	0.1655	531540	keystroke	a	n/a
266.0705	0.119	532141	keystroke	c	n/a
266.2505	0.089	532501	keystroke	k	n/a
266.3405	0.1335	532681	keystroke	Key.space	n/a
266.685	0.1055	533370	keystroke	v	n/a
266.82	0.135	533640	keystroke	i	n/a
267.0005	0.059	534001	keystroke	r	n/a
267.585	0.09	535170	keystroke	t	n/a
267.735	0.12	535470	keystroke	u	n/a
267.9005	0.1495	535801	keystroke	a	n/a
268.035	0.09	536070	keystroke	l	n/a
268.155	0.12	536310	keystroke	Key.space	n/a
268.395	0.1055	536790	keystroke	h	n/a
268.755	0.105	537510	keystroke	u	n/a
268.9955	0.089	537991	keystroke	m	n/a
269.115	0.15	538230	keystroke	a	n/a
269.22	0.0895	538440	keystroke	n	n/a
269.3855	0.105	538771	keystroke	i	n/a
269.505	0.0605	539010	keystroke	t	n/a
269.64	0.0745	539280	keystroke	y	n/a
269.925	0.1045	539850	keystroke	Key.enter	n/a
270.036	9.0265	540072	prompt	n/a	corporations ricky ensemble conferencing\n
270.69	0.12	541380	keystroke	c	n/a
270.7955	0.135	541591	keystroke	o	n/a
270.9745	0.091	541949	keystroke	r	n/a
271.1995	0.1505	542399	keystroke	p	n/a
271.35	0.1355	542700	keystroke	o	n/a
271.4855	0.0895	542971	keystroke	r	n/a
271.6805	0.1495	543361	keystroke	a	n/a
271.8	0.105	543600	keystroke	t	n/a
271.95	0.135	543900	keystroke	i	n/a
272.056	0.1785	544112	keystroke	o	n/a
272.205	0.105	544410	keystroke	n	n/a
272.295	0.15	544590	keystroke	s	n/a
272.4	0.18	544800	keystroke	Key.space	n/a
272.535	0.1345	545070	keystroke	r	n/a
272.685	0.1055	545370	keystroke	i	n/a
272.8195	0.106	545639	keystroke	c	n/a
272.9405	0.104	545881	keystroke	k	n/a
273.24	0.0755	546480	keystroke	y	n/a
273.435	0.12	546870	keystroke	Key.space	n/a
273.6455	0.12	547291	keystroke	e	n/a
273.7505	0.1195	547501	keystroke	n	n/a
273.9595	0.105	547919	keystroke	s	n/a
274.1395	0.105	548279	keystroke	e	n/a
274.2595	0.1055	548519	keystroke	m	n/a
274.515	0.06	549030	keystroke	b	n/a
274.71	0.1195	549420	keystroke	l	n/a
274.8155	0.105	549631	keystroke	e	n/a
274.9205	0.1495	549841	keystroke	Key.space	n/a
275.2955	0.0895	550591	keystroke	c	n/a
275.445	0.12	550890	keystroke	o	n/a
275.6845	0.091	551369	keystroke	n	n/a
275.97	0.105	551940	keystroke	f	n/a
276.195	0.135	552390	keystroke	e	n/a
276.2855	0.1195	552571	keystroke	r	n/a
276.4505	0.1045	552901	keystroke	e	n/a
276.6455	0.104	553291	keystroke	n	n/a
276.8095	0.1205	553619	keystroke	c	n/a
276.9895	0.195	553979	keystroke	i	n/a
277.3195	0.061	554639	keystroke	g	n/a
278.1145	0.06	556229	keystroke	Key.backspace	n/a
278.506	0.0895	557012	keystroke	n	n/a
278.6245	0.091	557249	keystroke	g	n/a
278.955	0.105	557910	keystroke	Key.enter	n/a
279.0805	8.1715	558161	prompt	n/a	complaints orders cameron collaborative\n
279.855	0.1505	559710	keystroke	c	n/a
280.02	0.1655	560040	keystroke	o	n/a
280.1395	0.1055	560279	keystroke	m	n/a
280.2905	0.105	560581	keystroke	p	n/a
280.5005	0.104	561001	keystroke	l	n/a
280.6505	0.1495	561301	keystroke	a	n/a
280.785	0.151	561570	keystroke	i	n/a
280.95	0.0905	561900	keystroke	n	n/a
281.069	0.106	562138	keystroke	t	n/a
281.4	0.15	562800	keystroke	s	n/a
281.49	0.15	562980	keystroke	Key.space	n/a
281.655	0.12	563310	keystroke	o	n/a
281.76	0.12	563520	keystroke	r	n/a
281.985	0.0905	563970	keystroke	d	n/a
282.195	0.135	564390	keystroke	e	n/a
282.255	0.165	564510	keystroke	r	n/a
282.63	0.12	565260	keystroke	s	n/a
282.735	0.1355	565470	keystroke	Key.space	n/a
282.9305	0.1195	565861	keystroke	c	n/a
283.1405	0.1495	566281	keystroke	a	n/a
283.29	0.1345	566580	keystroke	m	n/a
283.4395	0.121	566879	keystroke	e	n/a
283.5295	0.105	567059	keystroke	r	n/a
283.7095	0.1655	567419	keystroke	o	n/a
283.845	0.0905	567690	keystroke	n	n/a
283.9495	0.1355	567899	keystroke	Key.space	n/a
284.1	0.15	568200	keystroke	c	n/a
284.2655	0.0745	568531	keystroke	o	n/a
284.445	0.0605	568890	keystroke	l	n/a
284.58	0.105	569160	keystroke	l	n/a
284.7	0.135	569400	keystroke	a	n/a
284.865	0.09	569730	keystroke	b	n/a
285.015	0.105	570030	keystroke	o	n/a
285.1655	0.075	570331	keystroke	r	n/a
285.315	0.12	570630	keystroke	a	n/a
285.54	0.03	571080	keystroke	g	n/a
285.8855	0.0745	571771	keystroke	t	n/a
286.2595	0.0305	572519	keystroke	Key.backspace	n/a
286.41	0.075	572820	keystroke	Key.backspace	n/a
286.545	0.091	573090	keystroke	t	n/a
286.6805	0.0755	573361	keystroke	i	n/a
286.785	0.0905	573570	keystroke	v	n/a
286.9955	0.075	573991	keystroke	e	n/a
287.1595	0.09	574319	keystroke	Key.enter	n/a
287.257	7.6445	574514	prompt	n/a	agent hamburg central performing\n
287.9395	0.1655	575879	keystroke	a	n/a
288.1195	0.075	576239	keystroke	g	n/a
288.2695	0.106	576539	keystroke	e	n/a
288.405	0.1055	576810	keystroke	n	n/a
288.5555	0.135	577111	keystroke	t	n/a
288.6745	0.1355	577349	keystroke	Key.space	n/a
288.9755	0.1205	577951	keystroke	h	n/a
289.1405	0.1645	578281	keystroke	a	n/a
289.2895	0.105	578579	keystroke	m	n/a
289.515	0.09	579030	keystroke	b	n/a
289.6355	0.1345	579271	keystroke	u	n/a
289.785	0.075	579570	keystroke	r	n/a
290.01	0.075	580020	keystroke	g	n/a
290.145	0.15	580290	keystroke	Key.space	n/a
290.43	0.09	580860	keystroke	c	n/a
290.79	0.09	581580	keystroke	e	n/a
290.9105	0.104	581821	keystroke	n	n/a
291.0905	0.089	582181	keystroke	t	n/a
291.2855	0.0745	582571	keystroke	r	n/a
291.4045	0.166	582809	keystroke	a	n/a
291.5545	0.091	583109	keystroke	l	n/a
291.6595	0.12	583319	keystroke	Key.space	n/a
291.8695	0.1205	583739	keystroke	p	n/a
291.9905	0.149	583981	keystroke	e	n/a
292.0955	0.12	584191	keystroke	r	n/a
292.3045	0.1205	584609	keystroke	s	n/a
292.6945	0.075	585389	keystroke	Key.backspace	n/a
292.86	0.0745	585720	keystroke	Key.backspace	n/a
293.5805	0.09	587161	keystroke	r	n/a
293.79	0.09	587580	keystroke	f	n/a
293.97	0.151	587940	keystroke	o	n/a
294.135	0.075	588270	keystroke	r	n/a
294.2555	0.1045	588511	keystroke	m	n/a
294.42	0.1645	588840	keystroke	i	n/a
294.525	0.135	589050	keystroke	n	n/a
294.63	0.0745	589260	keystroke	g	n/a
294.8105	0.09	589621	keystroke	Key.enter	n/a
294.9075	6.714	589815	prompt	n/a	proof arrow erik ottawa\n
295.74	0.1055	591480	keystroke	p	n/a
295.8745	0.136	591749	keystroke	r	n/a
296.025	0.0455	592050	keystroke	o	n/a
296.1895	0.06	592379	keystroke	o	n/a
296.535	0.09	593070	keystroke	f	n/a
296.805	0.12	593610	keystroke	Key.space	n/a
297.045	0.105	594090	keystroke	a	n/a
297.24	0.0605	594480	keystroke	r	n/a
297.3605	0.0895	594721	keystroke	r	n/a
297.48	0.12	594960	keystroke	o	n/a
297.75	0.12	595500	keystroke	w	n/a
297.885	0.195	595770	keystroke	Key.space	n/a
298.1405	0.1645	596281	keystroke	e	n/a
298.2745	0.1205	596549	keystroke	r	n/a
298.4255	0.104	596851	keystroke	i	n/a
298.71	0.09	597420	keystroke	k	n/a
298.86	0.15	597720	keystroke	Key.space	n/a
299.0545	0.106	598109	keystroke	o	n/a
299.175	0.09	598350	keystroke	r	n/a
300.09	0.075	600180	keystroke	Key.backspace	n/a
300.1955	0.0895	600391	keystroke	t	n/a
300.36	0.09	600720	keystroke	t	n/a
300.915	0.1045	601830	keystroke	a	n/a
301.2	0.1045	602400	keystroke	w	n/a
301.35	0.1045	602700	keystroke	a	n/a
301.5155	0.1045	603031	keystroke	Key.enter	n/a
301.6265	7.51	603253	prompt	n/a	foods priorities guyana saints\n
302.341	0.1195	604682	keystroke	f	n/a
302.475	0.0605	604950	keystroke	o	n/a
302.61	0.15	605220	keystroke	o	n/a
302.775	0.09	605550	keystroke	d	n/a
302.9705	0.1195	605941	keystroke	s	n/a
303.075	0.1355	606150	keystroke	Key.space	n/a
303.2395	0.1205	606479	keystroke	p	n/a
303.39	0.1055	606780	keystroke	r	n/a
303.5095	0.151	607019	keystroke	i	n/a
303.705	0.0895	607410	keystroke	o	n/a
303.9455	0.105	607891	keystroke	r	n/a
304.0795	0.106	608159	keystroke	i	n/a
304.2155	0.09	608431	keystroke	t	n/a
304.3655	0.09	608731	keystroke	i	n/a
304.5455	0.045	609091	keystroke	e	n/a
304.696	0.0895	609392	keystroke	i	n/a
305.0105	0.135	610021	keystroke	s	n/a
305.2795	0.105	610559	keystroke	Key.space	n/a
305.5955	0.12	611191	keystroke	g	n/a
305.7755	0.1495	611551	keystroke	u	n/a
306.18	0.075	612360	keystroke	y	n/a
306.405	0.1505	612810	keystroke	a	n/a
306.5255	0.1045	613051	keystroke	n	n/a
306.6755	0.1195	613351	keystroke	a	n/a
306.81	0.18	613620	keystroke	Key.space	n/a
306.96	0.105	613920	keystroke	s	n/a
307.14	0.165	614280	keystroke	a	n/a
307.245	0.075	614490	keystroke	n	n/a
307.605	0.09	615210	keystroke	Key.backspace	n/a
307.89	0.0755	615780	keystroke	i	n/a
308.115	0.0755	616230	keystroke	n	n/a
308.235	0.1055	616470	keystroke	d	n/a
308.6105	0.09	617221	keystroke	Key.backspace	n/a
308.7155	0.075	617431	keystroke	t	n/a
308.8955	0.09	617791	keystroke	s	n/a
309.0455	0.089	618091	keystroke	Key.enter	n/a
309.141	9.401	618282	prompt	n/a	coalition opponents modification baghdad\n
309.885	0.105	619770	keystroke	c	n/a
310.02	0.105	620040	keystroke	o	n/a
310.275	0.15	620550	keystroke	a	n/a
310.455	0.105	620910	keystroke	l	n/a
310.6805	0.0895	621361	keystroke	i	n/a
310.785	0.12	621570	keystroke	t	n/a
310.92	0.1805	621840	keystroke	i	n/a
311.07	0.135	622140	keystroke	o	n/a
311.265	0.09	622530	keystroke	n	n/a
311.385	0.12	622770	keystroke	Key.space	n/a
311.5345	0.181	623069	keystroke	o	n/a
311.685	0.1355	623370	keystroke	p	n/a
311.9255	0.15	623851	keystroke	p	n/a
312.0905	0.12	624181	keystroke	o	n/a
312.3605	0.12	624721	keystroke	n	n/a
312.6155	0.03	625231	keystroke	r	n/a
312.9605	0.074	625921	keystroke	Key.backspace	n/a
313.0655	0.105	626131	keystroke	e	n/a
313.2455	0.0905	626491	keystroke	n	n/a
313.365	0.0905	626730	keystroke	t	n/a
313.6805	0.135	627361	keystroke	s	n/a
313.7855	0.1495	627571	keystroke	Key.space	n/a
313.995	0.1205	627990	keystroke	m	n/a
314.1905	0.12	628381	keystroke	o	n/a
314.3255	0.1195	628651	keystroke	d	n/a
314.5805	0.105	629161	keystroke	i	n/a
314.7905	0.12	629581	keystroke	f	n/a
314.9405	0.1345	629881	keystroke	i	n/a
315.09	0.12	630180	keystroke	c	n/a
315.3005	0.1045	630601	keystroke	a	n/a
315.465	0.0755	630930	keystroke	t	n/a
315.6005	0.15	631201	keystroke	i	n/a
315.735	0.1805	631470	keystroke	o	n/a
315.8855	0.105	631771	keystroke	n	n/a
316.4705	0.06	632941	keystroke	Key.space	n/a
316.6795	0.121	633359	keystroke	b	n/a
317.07	0.15	634140	keystroke	a	n/a
317.295	0.1055	634590	keystroke	g	n/a
317.6255	0.12	635251	keystroke	h	n/a
317.9705	0.0895	635941	keystroke	d	n/a
318.1355	0.1495	636271	keystroke	a	n/a
318.27	0.0745	636540	keystroke	d	n/a
318.435	0.1045	636870	keystroke	Key.enter	n/a
318.547	7.48	637094	prompt	n/a	dietary residential outlined talented\n
319.3505	0.119	638701	keystroke	d	n/a
319.5	0.1205	639000	keystroke	i	n/a
319.6355	0.0745	639271	keystroke	e	n/a
319.875	0.075	639750	keystroke	t	n/a
320.07	0.136	640140	keystroke	a	n/a
320.1755	0.1045	640351	keystroke	r	n/a
320.4905	0.105	640981	keystroke	y	n/a
320.6405	0.1495	641281	keystroke	Key.space	n/a
320.8205	0.1195	641641	keystroke	r	n/a
320.9555	0.12	641911	keystroke	e	n/a
321.3305	0.119	642661	keystroke	s	n/a
321.4955	0.1195	642991	keystroke	i	n/a
321.6305	0.0895	643261	keystroke	d	n/a
321.81	0.09	643620	keystroke	e	n/a
321.915	0.1205	643830	keystroke	n	n/a
322.065	0.09	644130	keystroke	t	n/a
322.2305	0.1045	644461	keystroke	i	n/a
322.3805	0.12	644761	keystroke	a	n/a
322.5005	0.12	645001	keystroke	l	n/a
322.6505	0.135	645301	keystroke	Key.space	n/a
322.8305	0.165	645661	keystroke	o	n/a
322.9655	0.12	645931	keystroke	u	n/a
323.1305	0.09	646261	keystroke	t	n/a
323.625	0.1805	647250	keystroke	l	n/a
323.8205	0.105	647641	keystroke	i	n/a
324.0605	0.09	648121	keystroke	n	n/a
324.2555	0.09	648511	keystroke	e	n/a
324.4655	0.1205	648931	keystroke	d	n/a
324.63	0.15	649260	keystroke	Key.space	n/a
324.7505	0.1045	649501	keystroke	t	n/a
324.9005	0.1505	649801	keystroke	a	n/a
325.02	0.136	650040	keystroke	l	n/a
325.1705	0.15	650341	keystroke	e	n/a
325.291	0.119	650582	keystroke	n	n/a
325.425	0.09	650850	keystroke	t	n/a
325.6955	0.015	651391	keystroke	e	n/a
325.7855	0.0745	651571	keystroke	d	n/a
325.9205	0.105	651841	keystroke	Key.enter	n/a
326.0325	6.595	652065	prompt	n/a	interested productive roger lindsay\n
326.5805	0.21	653161	keystroke	i	n/a
326.73	0.1355	653460	keystroke	n	n/a
326.8655	0.105	653731	keystroke	t	n/a
327.0455	0.1195	654091	keystroke	e	n/a
327.105	0.1505	654210	keystroke	r	n/a
327.3005	0.12	654601	keystroke	e	n/a
327.4805	0.195	654961	keystroke	s	n/a
327.6155	0.105	655231	keystroke	t	n/a
327.7805	0.09	655561	keystroke	e	n/a
327.991	0.0895	655982	keystroke	d	n/a
328.11	0.12	656220	keystroke	Key.space	n/a
328.3505	0.0755	656701	keystroke	p	n/a
328.4705	0.089	656941	keystroke	r	n/a
328.5745	0.121	657149	keystroke	o	n/a
328.7545	0.136	657509	keystroke	d	n/a
328.9055	0.09	657811	keystroke	u	n/a
329.0255	0.1055	658051	keystroke	c	n/a
329.281	0.059	658562	keystroke	t	n/a
329.4295	0.0915	658859	keystroke	i	n/a
329.5355	0.09	659071	keystroke	v	n/a
329.73	0.1055	659460	keystroke	e	n/a
329.8055	0.1495	659611	keystroke	Key.space	n/a
330.0605	0.1045	660121	keystroke	r	n/a
330.2555	0.0895	660511	keystroke	o	n/a
330.496	0.074	660992	keystroke	g	n/a
330.676	0.1645	661352	keystroke	e	n/a
330.8255	0.135	661651	keystroke	r	n/a
331.0055	0.135	662011	keystroke	Key.space	n/a
331.1705	0.18	662341	keystroke	l	n/a
331.3055	0.105	662611	keystroke	i	n/a
331.516	0.0905	663032	keystroke	n	n/a
331.6205	0.12	663241	keystroke	d	n/a
331.9505	0.1045	663901	keystroke	s	n/a
332.175	0.091	664350	keystroke	a	n/a
332.31	0.0605	664620	keystroke	y	n/a
332.535	0.09	665070	keystroke	Key.enter	n/a
332.635	4.6725	665270	prompt	n/a	ripe meal aimed borough\n
333.3155	0.06	666631	keystroke	r	n/a
333.3895	0.136	666779	keystroke	i	n/a
333.5405	0.105	667081	keystroke	p	n/a
333.7805	0.135	667561	keystroke	e	n/a
333.9305	0.15	667861	keystroke	Key.space	n/a
334.1705	0.12	668341	keystroke	m	n/a
334.3205	0.135	668641	keystroke	e	n/a
334.5455	0.134	669091	keystroke	a	n/a
334.6955	0.09	669391	keystroke	l	n/a
334.8	0.1205	669600	keystroke	Key.space	n/a
335.0855	0.135	670171	keystroke	a	n/a
335.1755	0.09	670351	keystroke	i	n/a
335.401	0.1045	670802	keystroke	m	n/a
335.4895	0.106	670979	keystroke	e	n/a
335.7305	0.105	671461	keystroke	d	n/a
335.82	0.2095	671640	keystroke	Key.space	n/a
336.0005	0.09	672001	keystroke	b	n/a
336.1345	0.105	672269	keystroke	o	n/a
336.2705	0.075	672541	keystroke	r	n/a
336.4205	0.135	672841	keystroke	o	n/a
336.6005	0.12	673201	keystroke	u	n/a
336.8555	0.09	673711	keystroke	g	n/a
336.9905	0.09	673981	keystroke	h	n/a
337.2155	0.09	674431	keystroke	Key.enter	n/a
337.312	4.6605	674624	prompt	n/a	into bradford lucia goes\n
337.95	0.165	675900	keystroke	i	n/a
338.1	0.105	676200	keystroke	n	n/a
338.2505	0.0905	676501	keystroke	t	n/a
338.385	0.09	676770	keystroke	o	n/a
338.4605	0.165	676921	keystroke	Key.space	n/a
338.67	0.09	677340	keystroke	b	n/a
338.9405	0.0895	677881	keystroke	r	n/a
339.121	0.1645	678242	keystroke	a	n/a
339.271	0.104	678542	keystroke	d	n/a
339.5855	0.105	679171	keystroke	f	n/a
339.7805	0.12	679561	keystroke	o	n/a
339.915	0.09	679830	keystroke	r	n/a
340.08	0.15	680160	keystroke	d	n/a
340.2	0.135	680400	keystroke	Key.space	n/a
340.35	0.136	680700	keystroke	l	n/a
340.486	0.09	680972	keystroke	u	n/a
340.62	0.135	681240	keystroke	c	n/a
340.815	0.105	681630	keystroke	i	n/a
340.98	0.166	681960	keystroke	a	n/a
341.1	0.18	682200	keystroke	Key.space	n/a
341.31	0.0905	682620	keystroke	g	n/a
341.4305	0.105	682861	keystroke	o	n/a
341.5505	0.09	683101	keystroke	e	n/a
341.6855	0.135	683371	keystroke	s	n/a
341.8355	0.135	683671	keystroke	Key.enter	n/a
341.9765	6.3105	683953	prompt	n/a	why's pastor christian context\n
342.5855	0.075	685171	keystroke	s	n/a
343.005	0.09	686010	keystroke	Key.backspace	n/a
343.2	0.105	686400	keystroke	w	n/a
343.2905	0.0745	686581	keystroke	h	n/a
343.4555	0.075	686911	keystroke	y	n/a
343.6955	0.12	687391	keystroke	'	n/a
343.8455	0.105	687691	keystroke	s	n/a
343.9655	0.135	687931	keystroke	Key.space	n/a
344.1605	0.0895	688321	keystroke	p	n/a
344.2805	0.1355	688561	keystroke	a	n/a
344.49	0.105	688980	keystroke	s	n/a
344.6705	0.09	689341	keystroke	t	n/a
344.85	0.09	689700	keystroke	o	n/a
345.0005	0.12	690001	keystroke	r	n/a
345.18	0.15	690360	keystroke	Key.space	n/a
345.405	0.121	690810	keystroke	c	n/a
345.5405	0.105	691081	keystroke	h	n/a
345.6905	0.075	691381	keystroke	r	n/a
345.8105	0.135	691621	keystroke	i	n/a
345.9605	0.12	691921	keystroke	s	n/a
346.1105	0.105	692221	keystroke	t	n/a
346.2455	0.1045	692491	keystroke	i	n/a
346.4105	0.1345	692821	keystroke	a	n/a
346.516	0.1045	693032	keystroke	n	n/a
346.71	0.12	693420	keystroke	Key.space	n/a
346.98	0.09	693960	keystroke	c	n/a
347.1005	0.1495	694201	keystroke	o	n/a
347.2205	0.12	694441	keystroke	n	n/a
347.3255	0.0745	694651	keystroke	t	n/a
347.5055	0.0745	695011	keystroke	e	n/a
347.7295	0.1055	695459	keystroke	x	n/a
347.9855	0.045	695971	keystroke	t	n/a
348.195	0.09	696390	keystroke	Key.enter	n/a
348.292	5.5605	696584	prompt	n/a	pens either enterprises pill\n
348.975	0.12	697950	keystroke	p	n/a
349.035	0.1205	698070	keystroke	e	n/a
349.245	0.0905	698490	keystroke	n	n/a
349.44	0.1495	698880	keystroke	s	n/a
349.5445	0.136	699089	keystroke	Key.space	n/a
349.7105	0.12	699421	keystroke	e	n/a
349.8455	0.09	699691	keystroke	i	n/a
349.9505	0.089	699901	keystroke	t	n/a
350.0545	0.106	700109	keystroke	h	n/a
350.1455	0.09	700291	keystroke	e	n/a
350.19	0.1495	700380	keystroke	r	n/a
350.28	0.15	700560	keystroke	Key.space	n/a
350.475	0.09	700950	keystroke	p	n/a
350.8355	0.0745	701671	keystroke	Key.backspace	n/a
351.0305	0.045	702061	keystroke	e	n/a
351.1355	0.105	702271	keystroke	n	n/a
351.3155	0.1045	702631	keystroke	t	n/a
351.5555	0.0895	703111	keystroke	e	n/a
351.6	0.135	703200	keystroke	r	n/a
352.065	0.12	704130	keystroke	p	n/a
352.17	0.1055	704340	keystroke	r	n/a
352.2905	0.1045	704581	keystroke	i	n/a
352.546	0.0895	705092	keystroke	s	n/a
352.68	0.0895	705360	keystroke	e	n/a
352.8455	0.165	705691	keystroke	s	n/a
352.995	0.1205	705990	keystroke	Key.space	n/a
353.1305	0.1195	706261	keystroke	p	n/a
353.2655	0.104	706531	keystroke	i	n/a
353.445	0.0745	706890	keystroke	l	n/a
353.595	0.0605	707190	keystroke	l	n/a
353.7605	0.09	707521	keystroke	Key.enter	n/a
353.861	5.166	707722	prompt	n/a	static bios paper tablets\n
354.5255	0.1645	709051	keystroke	s	n/a
354.72	0.1205	709440	keystroke	t	n/a
354.96	0.2105	709920	keystroke	a	n/a
355.3505	0.1055	710701	keystroke	t	n/a
355.4855	0.135	710971	keystroke	i	n/a
355.6505	0.12	711301	keystroke	c	n/a
355.8005	0.149	711601	keystroke	Key.space	n/a
356.0105	0.09	712021	keystroke	b	n/a
356.1295	0.181	712259	keystroke	i	n/a
356.2805	0.1345	712561	keystroke	o	n/a
356.5645	0.12	713129	keystroke	s	n/a
356.6705	0.105	713341	keystroke	Key.space	n/a
356.8205	0.0745	713641	keystroke	p	n/a
356.9405	0.15	713881	keystroke	a	n/a
357.0605	0.12	714121	keystroke	p	n/a
357.2105	0.15	714421	keystroke	e	n/a
357.3455	0.119	714691	keystroke	r	n/a
357.4495	0.195	714899	keystroke	Key.space	n/a
357.6295	0.1055	715259	keystroke	t	n/a
357.825	0.0905	715650	keystroke	a	n/a
357.96	0.0755	715920	keystroke	b	n/a
358.14	0.1205	716280	keystroke	l	n/a
358.23	0.106	716460	keystroke	e	n/a
358.5455	0.0745	717091	keystroke	t	n/a
358.755	0.0905	717510	keystroke	s	n/a
358.9205	0.1045	717841	keystroke	Key.enter	n/a
359.031	7.676	718062	prompt	n/a	what're ministry corresponding batman\n
359.8355	0.135	719671	keystroke	w	n/a
359.9555	0.1495	719911	keystroke	h	n/a
360.15	0.1205	720300	keystroke	a	n/a
360.3005	0.09	720601	keystroke	t	n/a
360.4805	0.119	720961	keystroke	'	n/a
360.6745	0.135	721349	keystroke	r	n/a
360.8405	0.1345	721681	keystroke	e	n/a
360.945	0.1195	721890	keystroke	Key.space	n/a
361.2295	0.106	722459	keystroke	m	n/a
361.3805	0.1795	722761	keystroke	i	n/a
361.546	0.1185	723092	keystroke	n	n/a
361.7105	0.0905	723421	keystroke	i	n/a
361.845	0.1805	723690	keystroke	s	n/a
361.9955	0.0895	723991	keystroke	t	n/a
362.1905	0.0895	724381	keystroke	r	n/a
362.34	0.0905	724680	keystroke	y	n/a
362.49	0.165	724980	keystroke	Key.space	n/a
362.655	0.105	725310	keystroke	c	n/a
362.82	0.105	725640	keystroke	o	n/a
363.0605	0.075	726121	keystroke	r	n/a
363.2105	0.105	726421	keystroke	r	n/a
363.39	0.135	726780	keystroke	e	n/a
363.5555	0.165	727111	keystroke	s	n/a
363.7955	0.15	727591	keystroke	p	n/a
363.9305	0.195	727861	keystroke	o	n/a
364.7555	0.09	729511	keystroke	n	n/a
364.8605	0.1045	729721	keystroke	d	n/a
364.9945	0.166	729989	keystroke	i	n/a
365.1145	0.1215	730229	keystroke	n	n/a
365.2205	0.119	730441	keystroke	g	n/a
365.3095	0.136	730619	keystroke	Key.space	n/a
365.5355	0.105	731071	keystroke	b	n/a
365.715	0.1655	731430	keystroke	a	n/a
365.865	0.0905	731730	keystroke	t	n/a
366.09	0.1055	732180	keystroke	m	n/a
366.21	0.1355	732420	keystroke	a	n/a
366.3305	0.0895	732661	keystroke	n	n/a
366.6	0.105	733200	keystroke	Key.enter	n/a
366.7125	8.65	733425	prompt	n/a	charity engineering chains vernon\n
367.3655	0.0745	734731	keystroke	w	n/a
367.6645	0.09	735329	keystroke	Key.backspace	n/a
367.8	0.105	735600	keystroke	c	n/a
368.251	0.089	736502	keystroke	h	n/a
368.415	0.1505	736830	keystroke	a	n/a
368.58	0.1055	737160	keystroke	r	n/a
368.715	0.1205	737430	keystroke	i	n/a
368.85	0.09	737700	keystroke	t	n/a
369.0305	0.075	738061	keystroke	y	n/a
369.1505	0.135	738301	keystroke	Key.space	n/a
369.3	0.1205	738600	keystroke	e	n/a
369.4055	0.0905	738811	keystroke	n	n/a
369.7505	0.0905	739501	keystroke	g	n/a
369.9155	0.1945	739831	keystroke	i	n/a
370.0655	0.105	740131	keystroke	n	n/a
370.2605	0.09	740521	keystroke	e	n/a
370.425	0.15	740850	keystroke	e	n/a
370.5455	0.1345	741091	keystroke	r	n/a
370.725	0.1655	741450	keystroke	i	n/a
370.95	0.1205	741900	keystroke	g	n/a
371.04	0.1655	742080	keystroke	Key.space	n/a
371.835	0.06	743670	keystroke	Key.backspace	n/a
371.985	0.0755	743970	keystroke	Key.backspace	n/a
372.1655	0.075	744331	keystroke	Key.backspace	n/a
372.9155	0.1055	745831	keystroke	i	n/a
373.066	0.0895	746132	keystroke	n	n/a
373.2155	0.09	746431	keystroke	g	n/a
373.3655	0.15	746731	keystroke	Key.space	n/a
373.6505	0.1355	747301	keystroke	c	n/a
373.771	0.074	747542	keystroke	h	n/a
373.861	0.1645	747722	keystroke	a	n/a
373.98	0.15	747960	keystroke	i	n/a
374.07	0.1205	748140	keystroke	n	n/a
374.1755	0.1655	748351	keystroke	s	n/a
374.295	0.1805	748590	keystroke	Key.space	n/a
374.445	0.09	748890	keystroke	v	n/a
374.6255	0.105	749251	keystroke	e	n/a
374.7155	0.105	749431	keystroke	r	n/a
374.7905	0.12	749581	keystroke	n	n/a
374.9255	0.1505	749851	keystroke	o	n/a
375.06	0.1055	750120	keystroke	n	n/a
375.2845	0.076	750569	keystroke	Key.enter	n/a
375.3675	8.77	750735	prompt	n/a	electric narrative consist penetration\n
375.9905	0.1045	751981	keystroke	e	n/a
376.14	0.1055	752280	keystroke	l	n/a
376.2305	0.1045	752461	keystroke	e	n/a
376.4555	0.0745	752911	keystroke	c	n/a
376.666	0.074	753332	keystroke	t	n/a
376.8155	0.0445	753631	keystroke	r	n/a
376.9055	0.12	753811	keystroke	i	n/a
377.0255	0.1495	754051	keystroke	c	n/a
377.4155	0.1195	754831	keystroke	Key.space	n/a
377.6255	0.0905	755251	keystroke	m	n/a
378.165	0.075	756330	keystroke	Key.backspace	n/a
378.405	0.075	756810	keystroke	n	n/a
378.541	0.1495	757082	keystroke	a	n/a
378.6755	0.09	757351	keystroke	r	n/a
378.841	0.1345	757682	keystroke	r	n/a
379.0805	0.075	758161	keystroke	i	n/a
379.4705	0.06	758941	keystroke	Key.backspace	n/a
379.6515	0.1345	759303	keystroke	a	n/a
380.0405	0.1195	760081	keystroke	t	n/a
380.2055	0.075	760411	keystroke	i	n/a
380.3405	0.09	760681	keystroke	v	n/a
380.5355	0.12	761071	keystroke	e	n/a
380.6255	0.1495	761251	keystroke	Key.space	n/a
380.895	0.1205	761790	keystroke	c	n/a
381.0005	0.15	762001	keystroke	o	n/a
381.1055	0.12	762211	keystroke	n	n/a
381.2405	0.09	762481	keystroke	s	n/a
381.3455	0.12	762691	keystroke	i	n/a
381.4505	0.105	762901	keystroke	s	n/a
381.7505	0.12	763501	keystroke	t	n/a
381.9155	0.12	763831	keystroke	Key.space	n/a
382.1105	0.12	764221	keystroke	p	n/a
382.2005	0.12	764401	keystroke	e	n/a
382.3355	0.1195	764671	keystroke	n	n/a
382.576	0.119	765152	keystroke	e	n/a
382.86	0.0905	765720	keystroke	t	n/a
383.13	0.105	766260	keystroke	r	n/a
383.34	0.135	766680	keystroke	a	n/a
383.5205	0.09	767041	keystroke	t	n/a
383.64	0.136	767280	keystroke	i	n/a
383.73	0.18	767460	keystroke	o	n/a
383.865	0.105	767730	keystroke	n	n/a
384.03	0.1055	768060	keystroke	Key.enter	n/a
384.141	4.5575	768282	prompt	n/a	power directed jokes call\n
384.7805	0.12	769561	keystroke	p	n/a
384.9155	0.15	769831	keystroke	o	n/a
385.1255	0.195	770251	keystroke	w	n/a
385.2455	0.225	770491	keystroke	e	n/a
385.3805	0.135	770761	keystroke	r	n/a
385.4845	0.256	770969	keystroke	Key.space	n/a
385.7105	0.1205	771421	keystroke	d	n/a
385.8455	0.12	771691	keystroke	i	n/a
385.981	0.12	771962	keystroke	r	n/a
386.116	0.119	772232	keystroke	e	n/a
386.37	0.0905	772740	keystroke	c	n/a
386.595	0.076	773190	keystroke	t	n/a
386.745	0.0905	773490	keystroke	e	n/a
386.955	0.09	773910	keystroke	d	n/a
387.015	0.12	774030	keystroke	Key.space	n/a
387.15	0.12	774300	keystroke	j	n/a
387.285	0.09	774570	keystroke	o	n/a
387.4805	0.105	774961	keystroke	k	n/a
387.5705	0.0895	775141	keystroke	e	n/a
387.78	0.106	775560	keystroke	s	n/a
387.855	0.165	775710	keystroke	Key.space	n/a
387.99	0.135	775980	keystroke	c	n/a
388.1405	0.1945	776281	keystroke	a	n/a
388.29	0.061	776580	keystroke	l	n/a
388.441	0.089	776882	keystroke	l	n/a
388.606	0.0895	777212	keystroke	Key.enter	n/a
388.703	7.179	777406	prompt	n/a	feelings fabric lions mpeg\n
389.3245	0.09	778649	keystroke	f	n/a
389.52	0.0755	779040	keystroke	e	n/a
389.671	0.1045	779342	keystroke	e	n/a
389.7905	0.12	779581	keystroke	l	n/a
389.8655	0.195	779731	keystroke	i	n/a
390.0305	0.105	780061	keystroke	n	n/a
390.0755	0.105	780151	keystroke	g	n/a
390.1955	0.09	780391	keystroke	Key.space	n/a
390.6455	0.075	781291	keystroke	Key.backspace	n/a
390.8255	0.12	781651	keystroke	s	n/a
390.9605	0.12	781921	keystroke	Key.space	n/a
391.2305	0.0755	782461	keystroke	f	n/a
391.5305	0.12	783061	keystroke	a	n/a
391.71	0.09	783420	keystroke	b	n/a
391.9355	0.06	783871	keystroke	r	n/a
392.0705	0.1645	784141	keystroke	i	n/a
392.205	0.105	784410	keystroke	c	n/a
392.37	0.165	784740	keystroke	Key.space	n/a
392.536	0.134	785072	keystroke	l	n/a
392.6105	0.1945	785221	keystroke	i	n/a
392.82	0.0605	785640	keystroke	n	n/a
393.15	0.0755	786300	keystroke	Key.backspace	n/a
393.3905	0.09	786781	keystroke	o	n/a
393.54	0.0905	787080	keystroke	n	n/a
393.7355	0.045	787471	keystroke	w	n/a
394.065	0.075	788130	keystroke	Key.backspace	n/a
394.185	0.105	788370	keystroke	s	n/a
394.5005	0.105	789001	keystroke	Key.space	n/a
395.0555	0.075	790111	keystroke	m	n/a
395.221	0.0895	790442	keystroke	p	n/a
395.3405	0.121	790681	keystroke	e	n/a
395.6105	0.06	791221	keystroke	g	n/a
395.7905	0.09	791581	keystroke	Key.enter	n/a
395.8865	5.7585	791773	prompt	n/a	blah had medieval declaration\n
396.646	0.104	793292	keystroke	b	n/a
396.78	0.1055	793560	keystroke	l	n/a
396.9	0.15	793800	keystroke	a	n/a
397.0655	0.0895	794131	keystroke	h	n/a
397.215	0.106	794430	keystroke	Key.space	n/a
397.5	0.106	795000	keystroke	h	n/a
397.635	0.165	795270	keystroke	a	n/a
397.8155	0.1195	795631	keystroke	d	n/a
397.9055	0.1495	795811	keystroke	Key.space	n/a
398.1005	0.1355	796201	keystroke	m	n/a
398.25	0.105	796500	keystroke	e	n/a
398.4605	0.09	796921	keystroke	d	n/a
398.715	0.0905	797430	keystroke	i	n/a
398.9255	0.0895	797851	keystroke	e	n/a
399.1505	0.075	798301	keystroke	v	n/a
399.345	0.12	798690	keystroke	a	n/a
399.48	0.09	798960	keystroke	l	n/a
399.6	0.1805	799200	keystroke	Key.space	n/a
399.7495	0.091	799499	keystroke	d	n/a
399.9465	0.104	799893	keystroke	e	n/a
400.171	0.1195	800342	keystroke	c	n/a
400.305	0.1205	800610	keystroke	l	n/a
400.455	0.15	800910	keystroke	a	n/a
400.62	0.09	801240	keystroke	r	n/a
400.786	0.15	801572	keystroke	a	n/a
400.95	0.0605	801900	keystroke	t	n/a
401.0855	0.1345	802171	keystroke	i	n/a
401.2355	0.165	802471	keystroke	o	n/a
401.3555	0.0905	802711	keystroke	n	n/a
401.536	0.1045	803072	keystroke	Key.enter	n/a
401.652	7.5355	803304	prompt	n/a	automotive implies duty bigger\n
402.3605	0.15	804721	keystroke	a	n/a
402.481	0.1045	804962	keystroke	u	n/a
402.6455	0.09	805291	keystroke	t	n/a
402.766	0.09	805532	keystroke	o	n/a
402.99	0.09	805980	keystroke	m	n/a
403.155	0.09	806310	keystroke	o	n/a
403.305	0.0755	806610	keystroke	a	n/a
403.591	0.059	807182	keystroke	Key.backspace	n/a
403.7255	0.0905	807451	keystroke	t	n/a
403.86	0.09	807720	keystroke	i	n/a
404.3255	0.09	808651	keystroke	v	n/a
404.5355	0.12	809071	keystroke	e	n/a
404.6405	0.135	809281	keystroke	Key.space	n/a
404.806	0.1045	809612	keystroke	i	n/a
405.0305	0.105	810061	keystroke	m	n/a
405.241	0.0895	810482	keystroke	p	n/a
405.436	0.1045	810872	keystroke	l	n/a
405.5995	0.136	811199	keystroke	i	n/a
405.7205	0.105	811441	keystroke	e	n/a
405.9155	0.12	811831	keystroke	s	n/a
405.9905	0.195	811981	keystroke	Key.space	n/a
406.1555	0.1205	812311	keystroke	d	n/a
406.2905	0.105	812581	keystroke	u	n/a
406.5	0.075	813000	keystroke	e	n/a
406.86	0.0605	813720	keystroke	Key.backspace	n/a
406.95	0.076	813900	keystroke	t	n/a
407.0855	0.075	814171	keystroke	y	n/a
407.2505	0.135	814501	keystroke	Key.space	n/a
407.445	0.091	814890	keystroke	b	n/a
407.5505	0.1495	815101	keystroke	i	n/a
407.745	0.0605	815490	keystroke	g	n/a
407.8805	0.075	815761	keystroke	g	n/a
408.1355	0.12	816271	keystroke	r	n/a
408.6155	0.075	817231	keystroke	Key.backspace	n/a
408.7805	0.135	817561	keystroke	e	n/a
408.9005	0.09	817801	keystroke	r	n/a
409.1105	0.075	818221	keystroke	Key.enter	n/a
409.1905	8.712	818381	prompt	n/a	conventions stats universities forge\n
409.8005	0.15	819601	keystroke	c	n/a
410.1455	0.1355	820291	keystroke	o	n/a
410.2655	0.105	820531	keystroke	n	n/a
410.446	0.0745	820892	keystroke	v	n/a
410.64	0.12	821280	keystroke	e	n/a
410.8055	0.0895	821611	keystroke	n	n/a
410.9405	0.105	821881	keystroke	t	n/a
411.105	0.151	822210	keystroke	i	n/a
411.225	0.165	822450	keystroke	o	n/a
411.4205	0.0745	822841	keystroke	n	n/a
411.525	0.1355	823050	keystroke	s	n/a
411.6305	0.18	823261	keystroke	Key.space	n/a
411.8255	0.105	823651	keystroke	s	n/a
411.9895	0.091	823979	keystroke	t	n/a
412.1395	0.166	824279	keystroke	a	n/a
412.2755	0.1045	824551	keystroke	t	n/a
412.455	0.106	824910	keystroke	e	n/a
412.77	0.12	825540	keystroke	Key.space	n/a
413.5355	0.105	827071	keystroke	u	n/a
413.7455	0.0895	827491	keystroke	n	n/a
413.9405	0.135	827881	keystroke	i	n/a
414.0605	0.091	828121	keystroke	v	n/a
414.2255	0.135	828451	keystroke	e	n/a
414.3305	0.1055	828661	keystroke	r	n/a
414.5405	0.135	829081	keystroke	s	n/a
414.6605	0.09	829321	keystroke	i	n/a
414.766	0.1045	829532	keystroke	t	n/a
414.9305	0.12	829861	keystroke	i	n/a
415.0805	0.045	830161	keystroke	t	n/a
415.5905	0.075	831181	keystroke	Key.backspace	n/a
415.6805	0.09	831361	keystroke	e	n/a
415.875	0.151	831750	keystroke	s	n/a
415.995	0.135	831990	keystroke	Key.space	n/a
416.28	0.121	832560	keystroke	f	n/a
416.4155	0.135	832831	keystroke	o	n/a
416.5205	0.09	833041	keystroke	r	n/a
416.7155	0.075	833431	keystroke	g	n/a
416.8655	0.09	833731	keystroke	e	n/a
416.971	0.09	833942	keystroke	t	n/a
417.4205	0.105	834841	keystroke	Key.backspace	n/a
417.8105	0.09	835621	keystroke	Key.enter	n/a
417.908	4.794	835816	prompt	n/a	oops jake fonts placement\n
418.711	0.0595	837422	keystroke	o	n/a
418.86	0.1805	837720	keystroke	o	n/a
419.0105	0.1055	838021	keystroke	p	n/a
419.19	0.166	838380	keystroke	s	n/a
419.28	0.1805	838560	keystroke	Key.space	n/a
419.445	0.0905	838890	keystroke	j	n/a
419.595	0.165	839190	keystroke	a	n/a
419.7455	0.135	839491	keystroke	k	n/a
419.836	0.134	839672	keystroke	e	n/a
419.941	0.149	839882	keystroke	Key.space	n/a
420.135	0.1205	840270	keystroke	f	n/a
420.241	0.119	840482	keystroke	o	n/a
420.421	0.1345	840842	keystroke	n	n/a
420.6155	0.09	841231	keystroke	t	n/a
420.8105	0.135	841621	keystroke	s	n/a
420.901	0.1645	841802	keystroke	Key.space	n/a
421.0805	0.12	842161	keystroke	p	n/a
421.2905	0.12	842581	keystroke	l	n/a
421.3955	0.135	842791	keystroke	a	n/a
421.5755	0.09	843151	keystroke	c	n/a
421.755	0.106	843510	keystroke	e	n/a
421.8455	0.12	843691	keystroke	m	n/a
421.98	0.121	843960	keystroke	e	n/a
422.085	0.105	844170	keystroke	n	n/a
422.205	0.075	844410	keystroke	t	n/a
422.4	0.09	844800	keystroke	s	n/a
422.5955	0.1045	845191	keystroke	Key.enter	n/a
422.707	6.7155	845414	prompt	n/a	communist baby synopsis oakland\n
423.3605	0.1505	846721	keystroke	c	n/a
423.4805	0.165	846961	keystroke	o	n/a
423.616	0.0895	847232	keystroke	m	n/a
423.78	0.09	847560	keystroke	m	n/a
423.9905	0.0755	847981	keystroke	u	n/a
424.1855	0.0755	848371	keystroke	n	n/a
424.3655	0.0905	848731	keystroke	i	n/a
424.56	0.09	849120	keystroke	s	n/a
424.7405	0.135	849481	keystroke	t	n/a
424.8455	0.1945	849691	keystroke	Key.space	n/a
425.0105	0.0905	850021	keystroke	b	n/a
425.145	0.18	850290	keystroke	a	n/a
425.28	0.1055	850560	keystroke	b	n/a
425.4455	0.1055	850891	keystroke	y	n/a
425.5655	0.12	851131	keystroke	Key.space	n/a
425.715	0.1505	851430	keystroke	s	n/a
425.85	0.105	851700	keystroke	y	n/a
426.255	0.1205	852510	keystroke	n	n/a
426.5105	0.105	853021	keystroke	o	n/a
426.706	0.12	853412	keystroke	p	n/a
426.9905	0.1195	853981	keystroke	s	n/a
427.1255	0.0905	854251	keystroke	i	n/a
427.23	0.136	854460	keystroke	s	n/a
427.38	0.15	854760	keystroke	Key.space	n/a
427.545	0.135	855090	keystroke	o	n/a
427.951	0.1495	855902	keystroke	a	n/a
428.2955	0.09	856591	keystroke	k	n/a
428.6855	0.09	857371	keystroke	l	n/a
428.8055	0.15	857611	keystroke	a	n/a
428.9705	0.09	857941	keystroke	n	n/a
429.1205	0.0905	858241	keystroke	d	n/a
429.285	0.135	858570	keystroke	Key.enter	n/a
429.4315	4.9705	858863	prompt	n/a	roland secret pocket had\n
430.0955	0.12	860191	keystroke	r	n/a
430.3205	0.06	860641	keystroke	o	n/a
430.8305	0.12	861661	keystroke	l	n/a
430.9505	0.15	861901	keystroke	a	n/a
431.1305	0.09	862261	keystroke	n	n/a
431.2345	0.1505	862469	keystroke	d	n/a
431.3705	0.195	862741	keystroke	Key.space	n/a
431.5505	0.15	863101	keystroke	s	n/a
431.6705	0.1045	863341	keystroke	e	n/a
431.8805	0.0895	863761	keystroke	c	n/a
432.09	0.09	864180	keystroke	r	n/a
432.195	0.1655	864390	keystroke	e	n/a
432.391	0.135	864782	keystroke	t	n/a
432.585	0.12	865170	keystroke	Key.space	n/a
432.765	0.1205	865530	keystroke	p	n/a
432.9905	0.105	865981	keystroke	o	n/a
433.3205	0.015	866641	keystroke	c	n/a
433.381	0.1045	866762	keystroke	k	n/a
433.4705	0.18	866941	keystroke	e	n/a
433.6505	0.12	867301	keystroke	t	n/a
433.7405	0.15	867481	keystroke	Key.space	n/a
433.8455	0.105	867691	keystroke	h	n/a
433.98	0.1505	867960	keystroke	a	n/a
434.1005	0.12	868201	keystroke	d	n/a
434.2955	0.105	868591	keystroke	Key.enter	n/a
434.4075	4.24	868815	prompt	n/a	final pink solve raise\n
434.9705	0.12	869941	keystroke	r	n/a
435.1055	0.1505	870211	keystroke	i	n/a
435.2255	0.105	870451	keystroke	n	n/a
435.3905	0.12	870781	keystroke	a	n/a
435.4805	0.119	870961	keystroke	l	n/a
435.6305	0.1195	871261	keystroke	Key.space	n/a
435.765	0.1505	871530	keystroke	p	n/a
435.9755	0.1195	871951	keystroke	i	n/a
436.08	0.1055	872160	keystroke	n	n/a
436.246	0.09	872492	keystroke	k	n/a
436.3805	0.18	872761	keystroke	Key.space	n/a
436.5155	0.135	873031	keystroke	s	n/a
436.636	0.0895	873272	keystroke	o	n/a
436.845	0.075	873690	keystroke	l	n/a
437.3105	0.105	874621	keystroke	v	n/a
437.4905	0.1195	874981	keystroke	e	n/a
437.58	0.225	875160	keystroke	Key.space	n/a
437.746	0.104	875492	keystroke	r	n/a
437.911	0.164	875822	keystroke	a	n/a
438.06	0.121	876120	keystroke	i	n/a
438.21	0.12	876420	keystroke	s	n/a
438.36	0.106	876720	keystroke	e	n/a
438.54	0.1055	877080	keystroke	Key.enter	n/a
438.652	7.481	877304	prompt	n/a	collectables solid availability buy\n
439.321	0.1495	878642	keystroke	c	n/a
439.44	0.1055	878880	keystroke	o	n/a
439.8	0.091	879600	keystroke	l	n/a
440.326	0.105	880652	keystroke	l	n/a
440.5655	0.0895	881131	keystroke	e	n/a
440.73	0.09	881460	keystroke	c	n/a
440.94	0.061	881880	keystroke	t	n/a
441.136	0.12	882272	keystroke	a	n/a
441.286	0.09	882572	keystroke	b	n/a
441.4805	0.0905	882961	keystroke	l	n/a
441.586	0.09	883172	keystroke	e	n/a
441.721	0.149	883442	keystroke	s	n/a
441.825	0.196	883650	keystroke	Key.space	n/a
441.9755	0.1355	883951	keystroke	s	n/a
442.096	0.074	884192	keystroke	o	n/a
442.29	0.0905	884580	keystroke	l	n/a
442.5905	0.09	885181	keystroke	i	n/a
442.7555	0.12	885511	keystroke	d	n/a
442.8605	0.1505	885721	keystroke	Key.space	n/a
443.0855	0.1505	886171	keystroke	a	n/a
443.2505	0.105	886501	keystroke	v	n/a
443.4155	0.15	886831	keystroke	a	n/a
443.5805	0.135	887161	keystroke	i	n/a
443.7305	0.1495	887461	keystroke	l	n/a
443.895	0.135	887790	keystroke	a	n/a
444.06	0.106	888120	keystroke	b	n/a
444.2105	0.135	888421	keystroke	i	n/a
444.3305	0.15	888661	keystroke	l	n/a
444.466	0.1345	888932	keystroke	i	n/a
444.5855	0.09	889171	keystroke	t	n/a
444.7655	0.09	889531	keystroke	y	n/a
445.3205	0.15	890641	keystroke	Key.space	n/a
445.5305	0.12	891061	keystroke	b	n/a
445.6655	0.075	891331	keystroke	u	n/a
445.83	0.06	891660	keystroke	y	n/a
446.04	0.0905	892080	keystroke	Key.enter	n/a
446.1375	5.77	892275	prompt	n/a	click daughters airline guns\n
446.701	0.12	893402	keystroke	c	n/a
446.8815	0.164	893763	keystroke	l	n/a
447.0005	0.105	894001	keystroke	i	n/a
447.1505	0.12	894301	keystroke	c	n/a
447.285	0.0905	894570	keystroke	k	n/a
447.84	0.1655	895680	keystroke	Key.space	n/a
447.99	0.135	895980	keystroke	d	n/a
448.381	0.1645	896762	keystroke	a	n/a
448.5605	0.09	897121	keystroke	u	n/a
448.7255	0.105	897451	keystroke	g	n/a
448.8455	0.12	897691	keystroke	h	n/a
449.0255	0.09	898051	keystroke	t	n/a
449.1905	0.1205	898381	keystroke	e	n/a
449.295	0.12	898590	keystroke	r	n/a
449.551	0.1345	899102	keystroke	s	n/a
449.7005	0.1045	899401	keystroke	Key.space	n/a
449.866	0.134	899732	keystroke	a	n/a
449.985	0.1205	899970	keystroke	i	n/a
450.135	0.1205	900270	keystroke	r	n/a
450.3005	0.12	900601	keystroke	l	n/a
450.3755	0.1195	900751	keystroke	i	n/a
450.5855	0.105	901171	keystroke	n	n/a
450.721	0.134	901442	keystroke	e	n/a
450.825	0.135	901650	keystroke	Key.space	n/a
451.02	0.106	902040	keystroke	g	n/a
451.1405	0.0755	902281	keystroke	u	n/a
451.366	0.0745	902732	keystroke	n	n/a
451.5905	0.104	903181	keystroke	s	n/a
451.816	0.0895	903632	keystroke	Key.enter	n/a
451.913	5.0945	903826	prompt	n/a	induced listed ment relation\n
452.671	0.165	905342	keystroke	i	n/a
452.8205	0.105	905641	keystroke	n	n/a
452.97	0.1505	905940	keystroke	d	n/a
453.1355	0.1205	906271	keystroke	u	n/a
453.3455	0.12	906691	keystroke	c	n/a
453.5855	0.1055	907171	keystroke	e	n/a
453.78	0.0755	907560	keystroke	d	n/a
453.84	0.151	907680	keystroke	Key.space	n/a
453.976	0.134	907952	keystroke	l	n/a
454.065	0.1655	908130	keystroke	i	n/a
454.2005	0.15	908401	keystroke	s	n/a
454.3515	0.089	908703	keystroke	t	n/a
454.5005	0.09	909001	keystroke	e	n/a
454.7105	0.09	909421	keystroke	d	n/a
454.7855	0.12	909571	keystroke	Key.space	n/a
454.8905	0.135	909781	keystroke	m	n/a
455.0265	0.104	910053	keystroke	e	n/a
455.116	0.1055	910232	keystroke	n	n/a
455.2505	0.12	910501	keystroke	t	n/a
455.3555	0.195	910711	keystroke	Key.space	n/a
455.5205	0.12	911041	keystroke	r	n/a
455.73	0.136	911460	keystroke	e	n/a
455.911	0.12	911822	keystroke	l	n/a
456.076	0.1645	912152	keystroke	a	n/a
456.256	0.0755	912512	keystroke	t	n/a
456.3755	0.135	912751	keystroke	i	n/a
456.481	0.1945	912962	keystroke	o	n/a
456.6455	0.09	913291	keystroke	n	n/a
456.9005	0.105	913801	keystroke	Key.enter	n/a
457.0135	5.814	914027	prompt	n/a	pmid trust laden details\n
458.1155	0.104	916231	keystroke	p	n/a
458.3405	0.0895	916681	keystroke	m	n/a
458.536	0.0895	917072	keystroke	i	n/a
458.7605	0.12	917521	keystroke	d	n/a
458.8655	0.18	917731	keystroke	Key.space	n/a
459.0155	0.09	918031	keystroke	t	n/a
459.1805	0.105	918361	keystroke	r	n/a
459.3005	0.1055	918601	keystroke	u	n/a
459.4505	0.18	918901	keystroke	s	n/a
459.6155	0.1205	919231	keystroke	t	n/a
459.7205	0.15	919441	keystroke	Key.space	n/a
459.886	0.1045	919772	keystroke	l	n/a
460.0055	0.135	920011	keystroke	a	n/a
460.171	0.0895	920342	keystroke	d	n/a
460.3805	0.105	920761	keystroke	e	n/a
460.5605	0.105	921121	keystroke	r	n/a
461.0705	0.06	922141	keystroke	Key.backspace	n/a
461.2955	0.076	922591	keystroke	n	n/a
461.4005	0.165	922801	keystroke	Key.space	n/a
461.581	0.075	923162	keystroke	d	n/a
461.73	0.106	923460	keystroke	e	n/a
461.9705	0.09	923941	keystroke	t	n/a
462.1365	0.1345	924273	keystroke	a	n/a
462.3305	0.135	924661	keystroke	i	n/a
462.4355	0.15	924871	keystroke	l	n/a
462.5555	0.105	925111	keystroke	s	n/a
462.7205	0.105	925441	keystroke	Key.enter	n/a
462.832	6.7755	925664	prompt	n/a	frozen worthy uses compatible\n
463.5305	0.075	927061	keystroke	f	n/a
463.6955	0.075	927391	keystroke	r	n/a
463.785	0.1205	927570	keystroke	o	n/a
463.996	0.105	927992	keystroke	z	n/a
464.2955	0.075	928591	keystroke	e	n/a
464.4455	0.12	928891	keystroke	n	n/a
464.5505	0.165	929101	keystroke	Key.space	n/a
464.986	0.164	929972	keystroke	w	n/a
465.166	0.09	930332	keystroke	o	n/a
465.391	0.09	930782	keystroke	r	n/a
465.601	0.09	931202	keystroke	t	n/a
465.766	0.0745	931532	keystroke	h	n/a
466.0655	0.075	932131	keystroke	y	n/a
466.201	0.1495	932402	keystroke	Key.space	n/a
466.381	0.1045	932762	keystroke	u	n/a
466.4865	0.119	932973	keystroke	s	n/a
466.6955	0.09	933391	keystroke	e	n/a
466.8605	0.136	933721	keystroke	s	n/a
466.9655	0.15	933931	keystroke	Key.space	n/a
467.1755	0.1505	934351	keystroke	c	n/a
467.311	0.1795	934622	keystroke	o	n/a
467.4465	0.1045	934893	keystroke	m	n/a
467.67	0.106	935340	keystroke	p	n/a
467.8205	0.15	935641	keystroke	a	n/a
468	0.0905	936000	keystroke	t	n/a
468.1655	0.075	936331	keystroke	i	n/a
468.6155	0.09	937231	keystroke	a	n/a
468.9455	0.075	937891	keystroke	Key.backspace	n/a
469.0355	0.09	938071	keystroke	b	n/a
469.2315	0.09	938463	keystroke	l	n/a
469.336	0.074	938672	keystroke	e	n/a
469.501	0.1045	939002	keystroke	Key.enter	n/a
469.612	7.001	939224	prompt	n/a	configured motors universal dancing\n
470.491	0.105	940982	keystroke	c	n/a
470.6105	0.1055	941221	keystroke	o	n/a
470.7905	0.09	941581	keystroke	n	n/a
471.091	0.105	942182	keystroke	f	n/a
471.211	0.1045	942422	keystroke	i	n/a
471.5405	0.0905	943081	keystroke	g	n/a
471.691	0.165	943382	keystroke	u	n/a
471.871	0.119	943742	keystroke	r	n/a
472.081	0.1045	944162	keystroke	e	n/a
472.2905	0.1055	944581	keystroke	d	n/a
472.351	0.134	944702	keystroke	Key.space	n/a
472.516	0.12	945032	keystroke	m	n/a
472.636	0.105	945272	keystroke	o	n/a
472.7705	0.1055	945541	keystroke	t	n/a
472.9205	0.15	945841	keystroke	o	n/a
473.2655	0.105	946531	keystroke	r	n/a
473.5055	0.165	947011	keystroke	s	n/a
473.6105	0.135	947221	keystroke	Key.space	n/a
473.836	0.075	947672	keystroke	u	n/a
474.016	0.075	948032	keystroke	n	n/a
474.1505	0.1195	948301	keystroke	i	n/a
474.301	0.0895	948602	keystroke	v	n/a
474.4665	0.134	948933	keystroke	e	n/a
474.5565	0.119	949113	keystroke	r	n/a
474.766	0.1045	949532	keystroke	s	n/a
474.9455	0.15	949891	keystroke	a	n/a
475.0655	0.1355	950131	keystroke	l	n/a
475.456	0.135	950912	keystroke	Key.space	n/a
475.636	0.1045	951272	keystroke	d	n/a
475.7705	0.165	951541	keystroke	a	n/a
475.8755	0.105	951751	keystroke	n	n/a
476.0255	0.0905	952051	keystroke	c	n/a
476.1305	0.15	952261	keystroke	i	n/a
476.2505	0.105	952501	keystroke	n	n/a
476.3705	0.06	952741	keystroke	g	n/a
476.5055	0.105	953011	keystroke	Key.enter	n/a
476.616	4.557	953232	prompt	n/a	sign mats dependent scout\n
477.421	0.15	954842	keystroke	s	n/a
477.556	0.15	955112	keystroke	i	n/a
477.7365	0.089	955473	keystroke	g	n/a
477.8555	0.105	955711	keystroke	n	n/a
478.0055	0.1505	956011	keystroke	Key.space	n/a
478.171	0.12	956342	keystroke	m	n/a
478.321	0.1345	956642	keystroke	a	n/a
478.44	0.12	956880	keystroke	t	n/a
478.666	0.135	957332	keystroke	s	n/a
478.756	0.195	957512	keystroke	Key.space	n/a
478.921	0.09	957842	keystroke	d	n/a
479.101	0.089	958202	keystroke	e	n/a
479.251	0.104	958502	keystroke	p	n/a
479.326	0.105	958652	keystroke	e	n/a
479.46	0.121	958920	keystroke	n	n/a
479.566	0.09	959132	keystroke	d	n/a
479.746	0.105	959492	keystroke	e	n/a
479.8655	0.1205	959731	keystroke	n	n/a
480.0005	0.09	960001	keystroke	t	n/a
480.106	0.2245	960212	keystroke	Key.space	n/a
480.3155	0.0905	960631	keystroke	s	n/a
480.466	0.104	960932	keystroke	c	n/a
480.601	0.18	961202	keystroke	o	n/a
480.721	0.1055	961442	keystroke	u	n/a
480.8705	0.0755	961741	keystroke	t	n/a
481.08	0.09	962160	keystroke	Key.enter	n/a
481.1765	4.692	962353	prompt	n/a	glory jason denied he'd\n
481.906	0.089	963812	keystroke	g	n/a
482.0265	0.059	964053	keystroke	l	n/a
482.1905	0.0905	964381	keystroke	o	n/a
482.311	0.12	964622	keystroke	r	n/a
482.4605	0.09	964921	keystroke	y	n/a
482.5655	0.1505	965131	keystroke	Key.space	n/a
482.8205	0.12	965641	keystroke	j	n/a
482.971	0.1795	965942	keystroke	a	n/a
483.1355	0.135	966271	keystroke	s	n/a
483.2855	0.1805	966571	keystroke	o	n/a
483.4505	0.09	966901	keystroke	n	n/a
483.5555	0.15	967111	keystroke	Key.space	n/a
483.8405	0.09	967681	keystroke	d	n/a
484.006	0.0755	968012	keystroke	e	n/a
484.1105	0.12	968221	keystroke	n	n/a
484.2455	0.18	968491	keystroke	i	n/a
484.3815	0.104	968763	keystroke	e	n/a
484.606	0.0895	969212	keystroke	d	n/a
484.6505	0.15	969301	keystroke	Key.space	n/a
484.9055	0.135	969811	keystroke	h	n/a
485.0105	0.105	970021	keystroke	e	n/a
485.46	0.075	970920	keystroke	'	n/a
485.5655	0.09	971131	keystroke	d	n/a
485.776	0.09	971552	keystroke	Key.enter	n/a
485.8755	5.6025	971751	prompt	n/a	plan rope chosen or\n
486.5705	0.09	973141	keystroke	p	n/a
486.7355	0.12	973471	keystroke	l	n/a
487.321	0.119	974642	keystroke	a	n/a
487.561	0.09	975122	keystroke	n	n/a
487.9955	0.165	975991	keystroke	Key.space	n/a
488.146	0.135	976292	keystroke	r	n/a
488.296	0.12	976592	keystroke	o	n/a
488.5205	0.135	977041	keystroke	p	n/a
488.776	0.1645	977552	keystroke	e	n/a
488.9105	0.1655	977821	keystroke	Key.space	n/a
489.1205	0.1205	978241	keystroke	c	n/a
489.2415	0.1045	978483	keystroke	h	n/a
489.451	0.105	978902	keystroke	o	n/a
489.616	0.1045	979232	keystroke	s	n/a
489.7505	0.18	979501	keystroke	e	n/a
489.916	0.119	979832	keystroke	Key.space	n/a
490.1405	0.0755	980281	keystroke	n	n/a
490.4405	0.06	980881	keystroke	Key.backspace	n/a
490.5755	0.09	981151	keystroke	Key.backspace	n/a
490.8005	0.0605	981601	keystroke	n	n/a
490.9055	0.1055	981811	keystroke	Key.space	n/a
491.0405	0.0905	982081	keystroke	o	n/a
491.1915	0.074	982383	keystroke	r	n/a
491.386	0.09	982772	keystroke	Key.enter	n/a
491.484	9.473	982968	prompt	n/a	estimation beverly tanzania africa\n
492.6155	0.1045	985231	keystroke	e	n/a
492.8105	0.1355	985621	keystroke	s	n/a
493.1405	0.015	986281	keystroke	t	n/a
493.171	0.0755	986342	keystroke	i	n/a
493.3515	0.1045	986703	keystroke	m	n/a
493.4705	0.1655	986941	keystroke	a	n/a
493.6215	0.074	987243	keystroke	t	n/a
493.726	0.15	987452	keystroke	i	n/a
493.8455	0.1805	987691	keystroke	o	n/a
493.9805	0.121	987961	keystroke	n	n/a
494.1305	0.18	988261	keystroke	Key.space	n/a
494.2655	0.1205	988531	keystroke	v	n/a
494.476	0.105	988952	keystroke	e	n/a
494.7465	0.09	989493	keystroke	b	n/a
495.226	0.0595	990452	keystroke	Key.backspace	n/a
495.42	0.046	990840	keystroke	Key.backspace	n/a
495.57	0.0905	991140	keystroke	Key.backspace	n/a
495.7055	0.1055	991411	keystroke	b	n/a
495.9155	0.1055	991831	keystroke	e	n/a
496.171	0.1045	992342	keystroke	c	n/a
496.711	0.0745	993422	keystroke	Key.backspace	n/a
496.8305	0.106	993661	keystroke	v	n/a
497.07	0.151	994140	keystroke	e	n/a
497.1765	0.1195	994353	keystroke	r	n/a
497.325	0.091	994650	keystroke	l	n/a
497.5205	0.09	995041	keystroke	y	n/a
497.6405	0.135	995281	keystroke	Key.space	n/a
497.8055	0.121	995611	keystroke	t	n/a
497.9705	0.12	995941	keystroke	a	n/a
498.0755	0.1045	996151	keystroke	n	n/a
498.376	0.12	996752	keystroke	z	n/a
498.6765	0.1045	997353	keystroke	a	n/a
498.766	0.105	997532	keystroke	n	n/a
498.886	0.12	997772	keystroke	i	n/a
499.095	0.106	998190	keystroke	a	n/a
499.231	0.1645	998462	keystroke	Key.space	n/a
499.4255	0.135	998851	keystroke	a	n/a
499.5755	0.075	999151	keystroke	f	n/a
499.7705	0.0895	999541	keystroke	r	n/a
499.935	0.151	999870	keystroke	i	n/a
500.0555	0.1205	1000111	keystroke	a	n/a
500.4455	0.075	1000891	keystroke	Key.backspace	n/a
500.5365	0.0745	1001073	keystroke	c	n/a
500.686	0.1195	1001372	keystroke	a	n/a
500.866	0.0895	1001732	keystroke	Key.enter	n/a
500.9625	5.3655	1001925	prompt	n/a	window mods it edit\n
501.5855	0.105	1003171	keystroke	w	n/a
501.6605	0.1655	1003321	keystroke	i	n/a
501.7955	0.105	1003591	keystroke	n	n/a
501.9305	0.106	1003861	keystroke	d	n/a
502.081	0.1045	1004162	keystroke	o	n/a
502.4705	0.09	1004941	keystroke	w	n/a
502.6655	0.12	1005331	keystroke	Key.space	n/a
502.801	0.1195	1005602	keystroke	m	n/a
502.966	0.12	1005932	keystroke	o	n/a
503.1155	0.12	1006231	keystroke	d	n/a
504.0605	0.12	1008121	keystroke	s	n/a
504.316	0.1045	1008632	keystroke	Key.space	n/a
504.4655	0.135	1008931	keystroke	i	n/a
504.6155	0.09	1009231	keystroke	t	n/a
