onset	duration	sample	value	key	prompt_text
3.51	14.338	7020	prompt	n/a	the quick brown fox jumps over a lazy dog\n
6.762	0.012	13524	keystroke_t	t	n/a
6.764	0.115	13528	keystroke_h	h	n/a
6.834	0.12	13668	keystroke_e	e	n/a
6.939	0.1045	13878	keystroke_Key.space	Key.space	n/a
11.6365	0.027	23273	keystroke_q	q	n/a
11.6485	0.0905	23297	keystroke_u	u	n/a
11.7835	0.12	23567	keystroke_i	i	n/a
11.934	0.0745	23868	keystroke_c	c	n/a
12.0545	0.09	24109	keystroke_k	k	n/a
12.204	0.0745	24408	keystroke_Key.space	Key.space	n/a
12.5645	0.0595	25129	keystroke_b	b	n/a
12.7435	0.0605	25487	keystroke_r	r	n/a
12.864	0.1055	25728	keystroke_o	o	n/a
13.1195	0.0895	26239	keystroke_w	w	n/a
13.194	0.0905	26388	keystroke_n	n	n/a
13.329	0.06	26658	keystroke_Key.space	Key.space	n/a
13.7195	0.0745	27439	keystroke_f	f	n/a
13.809	0.105	27618	keystroke_o	o	n/a
13.9735	0.1055	27947	keystroke_x	x	n/a
14.109	0.0895	28218	keystroke_Key.space	Key.space	n/a
14.304	0.075	28608	keystroke_j	j	n/a
14.4535	0.06	28907	keystroke_u	u	n/a
14.6195	0.0895	29239	keystroke_m	m	n/a
14.7685	0.09	29537	keystroke_p	p	n/a
14.9185	0.1205	29837	keystroke_s	s	n/a
15.084	0.09	30168	keystroke_Key.space	Key.space	n/a
15.414	0.0905	30828	keystroke_o	o	n/a
15.5785	0.0605	31157	keystroke_v	v	n/a
15.7135	0.0755	31427	keystroke_e	e	n/a
15.8045	0.09	31609	keystroke_r	r	n/a
15.9085	0.075	31817	keystroke_Key.space	Key.space	n/a
15.999	0.105	31998	keystroke_a	a	n/a
16.119	0.09	32238	keystroke_Key.space	Key.space	n/a
16.3135	0.105	32627	keystroke_l	l	n/a
16.434	0.105	32868	keystroke_a	a	n/a
16.749	0.105	33498	keystroke_z	z	n/a
16.8385	0.1055	33677	keystroke_y	y	n/a
16.9885	0.09	33977	keystroke_Key.space	Key.space	n/a
17.2885	0.09	34577	keystroke_d	d	n/a
17.4395	0.119	34879	keystroke_o	o	n/a
17.619	0.06	35238	keystroke_g	g	n/a
17.754	0.0895	35508	keystroke_Key.enter	Key.enter	n/a
17.8565	10.91	35713	prompt	n/a	excluded association breed contemporary\n
21.146	0.013	42292	keystroke_e	e	n/a
21.3545	0.1045	42709	keystroke_x	x	n/a
21.8035	0.091	43607	keystroke_c	c	n/a
21.9095	0.12	43819	keystroke_l	l	n/a
21.9985	0.15	43997	keystroke_u	u	n/a
22.2385	0.09	44477	keystroke_e	e	n/a
22.4045	0.089	44809	keystroke_d	d	n/a
22.5695	0.075	45139	keystroke_e	e	n/a
22.8245	0.075	45649	keystroke_Key.space	Key.space	n/a
23.019	0.09	46038	keystroke_a	a	n/a
23.2445	0.06	46489	keystroke_s	s	n/a
23.379	0.075	46758	keystroke_s	s	n/a
23.469	0.135	46938	keystroke_o	o	n/a
23.6195	0.0745	47239	keystroke_c	c	n/a
23.7095	0.104	47419	keystroke_i	i	n/a
23.7385	0.1205	47477	keystroke_a	a	n/a
23.844	0.0905	47688	keystroke_t	t	n/a
23.9935	0.09	47987	keystroke_e	e	n/a
24.5035	0.0905	49007	keystroke_Key.backspace	Key.backspace	n/a
24.7745	0.1495	49549	keystroke_i	i	n/a
24.8795	0.149	49759	keystroke_o	o	n/a
24.9985	0.15	49997	keystroke_n	n	n/a
25.5535	0.0755	51107	keystroke_Key.space	Key.space	n/a
25.839	0.0455	51678	keystroke_b	b	n/a
26.004	0.0745	52008	keystroke_r	r	n/a
26.2145	0.074	52429	keystroke_e	e	n/a
26.3635	0.075	52727	keystroke_e	e	n/a
26.544	0.0605	53088	keystroke_d	d	n/a
26.6185	0.105	53237	keystroke_Key.space	Key.space	n/a
26.8735	0.075	53747	keystroke_c	c	n/a
26.934	0.1345	53868	keystroke_o	o	n/a
27.0235	0.15	54047	keystroke_n	n	n/a
27.189	0.0745	54378	keystroke_t	t	n/a
27.369	0.0595	54738	keystroke_e	e	n/a
27.5345	0.104	55069	keystroke_m	m	n/a
27.774	0.09	55548	keystroke_p	p	n/a
27.9695	0.0745	55939	keystroke_o	o	n/a
28.1345	0.0595	56269	keystroke_r	r	n/a
28.239	0.135	56478	keystroke_a	a	n/a
28.329	0.1205	56658	keystroke_r	r	n/a
28.479	0.09	56958	keystroke_y	y	n/a
28.7035	0.061	57407	keystroke_Key.enter	Key.enter	n/a
28.7725	5.7685	57545	prompt	n/a	jpeg muscle drums aerial\n
29.5745	0.0745	59149	keystroke_j	j	n/a
29.934	0.0905	59868	keystroke_p	p	n/a
30.2045	0.075	60409	keystroke_e	e	n/a
30.384	0.076	60768	keystroke_g	g	n/a
30.534	0.09	61068	keystroke_Key.space	Key.space	n/a
30.6995	0.09	61399	keystroke_m	m	n/a
30.8945	0.075	61789	keystroke_u	u	n/a
31.1495	0.09	62299	keystroke_s	s	n/a
31.4195	0.0745	62839	keystroke_c	c	n/a
31.5395	0.1045	63079	keystroke_l	l	n/a
31.629	0.0905	63258	keystroke_e	e	n/a
31.809	0.075	63618	keystroke_Key.space	Key.space	n/a
32.0645	0.0445	64129	keystroke_d	d	n/a
32.184	0.0755	64368	keystroke_r	r	n/a
32.3795	0.075	64759	keystroke_u	u	n/a
32.544	0.105	65088	keystroke_m	m	n/a
32.709	0.0745	65418	keystroke_s	s	n/a
32.8445	0.074	65689	keystroke_Key.space	Key.space	n/a
33.174	0.1055	66348	keystroke_a	a	n/a
33.369	0.0755	66738	keystroke_e	e	n/a
33.5495	0.074	67099	keystroke_r	r	n/a
33.834	0.0905	67668	keystroke_i	i	n/a
34.119	0.105	68238	keystroke_a	a	n/a
34.239	0.105	68478	keystroke_l	l	n/a
34.4795	0.0595	68959	keystroke_Key.enter	Key.enter	n/a
34.5465	7.255	69093	prompt	n/a	polymer injured suggestions beyond\n
35.3345	0.09	70669	keystroke_p	p	n/a
35.874	0.09	71748	keystroke_o	o	n/a
36.354	0.06	72708	keystroke_l	l	n/a
36.519	0.075	73038	keystroke_y	y	n/a
36.805	0.074	73610	keystroke_m	m	n/a
36.894	0.09	73788	keystroke_e	e	n/a
36.999	0.09	73998	keystroke_r	r	n/a
37.104	0.075	74208	keystroke_Key.space	Key.space	n/a
37.3145	0.06	74629	keystroke_i	i	n/a
37.434	0.0905	74868	keystroke_n	n	n/a
37.689	0.075	75378	keystroke_j	j	n/a
37.8545	0.075	75709	keystroke_u	u	n/a
38.169	0.0745	76338	keystroke_r	r	n/a
38.679	0.0905	77358	keystroke_e	e	n/a
39.0385	0.076	78077	keystroke_d	d	n/a
39.1885	0.091	78377	keystroke_Key.space	Key.space	n/a
39.429	0.0895	78858	keystroke_s	s	n/a
39.5645	0.09	79129	keystroke_u	u	n/a
39.729	0.0595	79458	keystroke_g	g	n/a
39.894	0.03	79788	keystroke_g	g	n/a
39.925	0.089	79850	keystroke_e	e	n/a
40.06	0.104	80120	keystroke_s	s	n/a
40.135	0.091	80270	keystroke_t	t	n/a
40.179	0.136	80358	keystroke_i	i	n/a
40.27	0.164	80540	keystroke_o	o	n/a
40.36	0.179	80720	keystroke_n	n	n/a
40.4495	0.1045	80899	keystroke_s	s	n/a
40.569	0.075	81138	keystroke_Key.space	Key.space	n/a
40.735	0.074	81470	keystroke_b	b	n/a
40.884	0.061	81768	keystroke_e	e	n/a
41.094	0.0755	82188	keystroke_y	y	n/a
41.3345	0.12	82669	keystroke_o	o	n/a
41.4245	0.135	82849	keystroke_n	n	n/a
41.5285	0.09	83057	keystroke_d	d	n/a
41.6935	0.105	83387	keystroke_Key.enter	Key.enter	n/a
41.806	8.9495	83612	prompt	n/a	pioneer possibly otherwise exchanges\n
42.5195	0.0895	85039	keystroke_p	p	n/a
42.804	0.0905	85608	keystroke_o	o	n/a
43.225	0.0735	86450	keystroke_Key.backspace	Key.backspace	n/a
43.5545	0.0755	87109	keystroke_i	i	n/a
43.7195	0.089	87439	keystroke_o	o	n/a
43.8245	0.104	87649	keystroke_n	n	n/a
44.155	0.0595	88310	keystroke_e	e	n/a
44.3045	0.076	88609	keystroke_e	e	n/a
44.3945	0.105	88789	keystroke_r	r	n/a
44.559	0.06	89118	keystroke_Key.space	Key.space	n/a
44.7695	0.0745	89539	keystroke_p	p	n/a
44.949	0.091	89898	keystroke_o	o	n/a
45.159	0.0605	90318	keystroke_s	s	n/a
45.294	0.0755	90588	keystroke_s	s	n/a
45.399	0.09	90798	keystroke_i	i	n/a
45.954	0.0755	91908	keystroke_b	b	n/a
46.209	0.0755	92418	keystroke_l	l	n/a
46.374	0.09	92748	keystroke_y	y	n/a
46.554	0.06	93108	keystroke_Key.space	Key.space	n/a
46.7795	0.074	93559	keystroke_o	o	n/a
46.914	0.0755	93828	keystroke_t	t	n/a
47.0045	0.09	94009	keystroke_h	h	n/a
47.0795	0.09	94159	keystroke_e	e	n/a
47.1545	0.119	94309	keystroke_r	r	n/a
47.9045	0.105	95809	keystroke_w	w	n/a
47.9945	0.075	95989	keystroke_i	i	n/a
48.159	0.1055	96318	keystroke_s	s	n/a
48.34	0.074	96680	keystroke_e	e	n/a
48.459	0.0755	96918	keystroke_Key.space	Key.space	n/a
48.714	0.06	97428	keystroke_e	e	n/a
49.0145	0.0895	98029	keystroke_x	x	n/a
49.9735	0.075	99947	keystroke_h	h	n/a
50.0795	0.105	100159	keystroke_a	a	n/a
50.1695	0.1045	100339	keystroke_n	n	n/a
50.2595	0.089	100519	keystroke_g	g	n/a
50.3635	0.076	100727	keystroke_e	e	n/a
50.5145	0.105	101029	keystroke_s	s	n/a
50.6635	0.091	101327	keystroke_Key.enter	Key.enter	n/a
50.763	8.9335	101526	prompt	n/a	cyprus prerequisite parks complete\n
51.564	0.075	103128	keystroke_c	c	n/a
51.789	0.06	103578	keystroke_y	y	n/a
52.059	0.105	104118	keystroke_p	p	n/a
52.374	0.0745	104748	keystroke_r	r	n/a
52.5095	0.089	105019	keystroke_u	u	n/a
52.7195	0.074	105439	keystroke_s	s	n/a
52.8385	0.0905	105677	keystroke_Key.space	Key.space	n/a
53.3495	0.105	106699	keystroke_p	p	n/a
53.485	0.1045	106970	keystroke_r	r	n/a
53.6045	0.0905	107209	keystroke_e	e	n/a
54.1595	0.075	108319	keystroke_r	r	n/a
54.2945	0.104	108589	keystroke_e	e	n/a
54.8485	0.075	109697	keystroke_q	q	n/a
54.954	0.075	109908	keystroke_u	u	n/a
55.1345	0.1045	110269	keystroke_i	i	n/a
55.434	0.105	110868	keystroke_s	s	n/a
55.914	0.0755	111828	keystroke_t	t	n/a
56.514	0.0905	113028	keystroke_Key.backspace	Key.backspace	n/a
56.7685	0.106	113537	keystroke_i	i	n/a
57.0235	0.076	114047	keystroke_t	t	n/a
57.1885	0.075	114377	keystroke_e	e	n/a
57.3685	0.06	114737	keystroke_Key.space	Key.space	n/a
57.5785	0.0905	115157	keystroke_p	p	n/a
57.699	0.105	115398	keystroke_a	a	n/a
57.7595	0.1045	115519	keystroke_r	r	n/a
57.954	0.0895	115908	keystroke_k	k	n/a
58.1035	0.0905	116207	keystroke_s	s	n/a
58.2385	0.0755	116477	keystroke_Key.space	Key.space	n/a
58.5235	0.0905	117047	keystroke_c	c	n/a
58.599	0.09	117198	keystroke_o	o	n/a
58.659	0.1345	117318	keystroke_m	m	n/a
58.8845	0.105	117769	keystroke_p	p	n/a
59.124	0.09	118248	keystroke_l	l	n/a
59.1995	0.09	118399	keystroke_e	e	n/a
59.305	0.0735	118610	keystroke_t	t	n/a
59.3935	0.075	118787	keystroke_e	e	n/a
59.6035	0.0905	119207	keystroke_Key.enter	Key.enter	n/a
59.705	6.8605	119410	prompt	n/a	vanilla applying australia essay\n
60.5195	0.075	121039	keystroke_v	v	n/a
60.6535	0.106	121307	keystroke_a	a	n/a
60.849	0.06	121698	keystroke_n	n	n/a
60.9695	0.0745	121939	keystroke_i	i	n/a
61.1795	0.0745	122359	keystroke_l	l	n/a
61.314	0.09	122628	keystroke_l	l	n/a
61.419	0.1205	122838	keystroke_a	a	n/a
61.554	0.09	123108	keystroke_Key.space	Key.space	n/a
61.884	0.09	123768	keystroke_a	a	n/a
62.0945	0.0745	124189	keystroke_p	p	n/a
62.2595	0.075	124519	keystroke_p	p	n/a
62.439	0.075	124878	keystroke_l	l	n/a
62.589	0.075	125178	keystroke_y	y	n/a
62.784	0.1505	125568	keystroke_i	i	n/a
62.8595	0.1645	125719	keystroke_n	n	n/a
62.979	0.075	125958	keystroke_g	g	n/a
63.069	0.075	126138	keystroke_Key.space	Key.space	n/a
63.234	0.12	126468	keystroke_a	a	n/a
63.429	0.09	126858	keystroke_u	u	n/a
63.6995	0.0745	127399	keystroke_s	s	n/a
63.864	0.06	127728	keystroke_t	t	n/a
64.029	0.06	128058	keystroke_r	r	n/a
64.284	0.105	128568	keystroke_a	a	n/a
64.554	0.075	129108	keystroke_l	l	n/a
64.674	0.0905	129348	keystroke_i	i	n/a
64.8245	0.119	129649	keystroke_a	a	n/a
64.989	0.0895	129978	keystroke_Key.space	Key.space	n/a
65.214	0.075	130428	keystroke_e	e	n/a
65.439	0.06	130878	keystroke_s	s	n/a
65.604	0.06	131208	keystroke_s	s	n/a
65.649	0.1045	131298	keystroke_a	a	n/a
65.829	0.0745	131658	keystroke_y	y	n/a
66.474	0.09	132948	keystroke_Key.enter	Key.enter	n/a
66.575	8.271	133150	prompt	n/a	proprietary titles tropical subsidiary\n
67.314	0.12	134628	keystroke_p	p	n/a
67.419	0.075	134838	keystroke_r	r	n/a
67.5395	0.09	135079	keystroke_o	o	n/a
67.8695	0.09	135739	keystroke_p	p	n/a
68.1095	0.075	136219	keystroke_r	r	n/a
68.2295	0.075	136459	keystroke_i	i	n/a
68.559	0.0605	137118	keystroke_e	e	n/a
68.889	0.075	137778	keystroke_t	t	n/a
69.0695	0.1045	138139	keystroke_a	a	n/a
69.249	0.075	138498	keystroke_r	r	n/a
69.369	0.105	138738	keystroke_y	y	n/a
69.504	0.075	139008	keystroke_Key.space	Key.space	n/a
69.699	0.06	139398	keystroke_t	t	n/a
69.804	0.09	139608	keystroke_i	i	n/a
69.954	0.075	139908	keystroke_t	t	n/a
70.074	0.12	140148	keystroke_l	l	n/a
70.164	0.091	140328	keystroke_e	e	n/a
70.344	0.091	140688	keystroke_s	s	n/a
70.464	0.075	140928	keystroke_Key.space	Key.space	n/a
70.884	0.0895	141768	keystroke_t	t	n/a
71.094	0.0755	142188	keystroke_r	r	n/a
71.2885	0.076	142577	keystroke_o	o	n/a
71.4545	0.0895	142909	keystroke_p	p	n/a
71.7685	0.0755	143537	keystroke_i	i	n/a
71.979	0.0905	143958	keystroke_c	c	n/a
72.0995	0.1195	144199	keystroke_a	a	n/a
72.264	0.1055	144528	keystroke_l	l	n/a
72.384	0.105	144768	keystroke_Key.space	Key.space	n/a
72.6245	0.0895	145249	keystroke_s	s	n/a
72.729	0.09	145458	keystroke_u	u	n/a
72.924	0.0755	145848	keystroke_b	b	n/a
73.2535	0.09	146507	keystroke_s	s	n/a
73.4195	0.074	146839	keystroke_i	i	n/a
73.899	0.09	147798	keystroke_d	d	n/a
74.034	0.09	148068	keystroke_i	i	n/a
74.214	0.1205	148428	keystroke_a	a	n/a
74.364	0.0905	148728	keystroke_r	r	n/a
74.4995	0.0895	148999	keystroke_y	y	n/a
74.7535	0.09	149507	keystroke_Key.enter	Key.enter	n/a
74.8505	6.775	149701	prompt	n/a	stuffed renew mouth looks\n
75.5495	0.0745	151099	keystroke_s	s	n/a
75.879	0.09	151758	keystroke_u	u	n/a
76.374	0.075	152748	keystroke_Key.backspace	Key.backspace	n/a
76.5995	0.0745	153199	keystroke_t	t	n/a
76.7345	0.0745	153469	keystroke_u	u	n/a
76.929	0.09	153858	keystroke_f	f	n/a
77.079	0.075	154158	keystroke_f	f	n/a
77.2135	0.076	154427	keystroke_e	e	n/a
77.4085	0.091	154817	keystroke_d	d	n/a
77.5735	0.075	155147	keystroke_Key.space	Key.space	n/a
77.9335	0.09	155867	keystroke_r	r	n/a
78.0385	0.075	156077	keystroke_e	e	n/a
78.2795	0.09	156559	keystroke_n	n	n/a
78.4745	0.0595	156949	keystroke_e	e	n/a
78.6395	0.0745	157279	keystroke_w	w	n/a
78.774	0.09	157548	keystroke_Key.space	Key.space	n/a
79.044	0.075	158088	keystroke_m	m	n/a
79.1945	0.1345	158389	keystroke_o	o	n/a
79.284	0.1205	158568	keystroke_u	u	n/a
79.554	0.075	159108	keystroke_t	t	n/a
79.66	0.089	159320	keystroke_h	h	n/a
80.514	0.06	161028	keystroke_Key.space	Key.space	n/a
80.724	0.09	161448	keystroke_l	l	n/a
80.9185	0.061	161837	keystroke_o	o	n/a
81.0395	0.0895	162079	keystroke_o	o	n/a
81.2195	0.0745	162439	keystroke_k	k	n/a
81.309	0.09	162618	keystroke_s	s	n/a
81.549	0.075	163098	keystroke_Key.enter	Key.enter	n/a
81.6305	9.3555	163261	prompt	n/a	penalties ricky guard brazilian\n
82.4185	0.105	164837	keystroke_p	p	n/a
82.5685	0.09	165137	keystroke_e	e	n/a
82.7635	0.075	165527	keystroke_n	n	n/a
82.9145	0.1495	165829	keystroke_a	a	n/a
83.244	0.1195	166488	keystroke_l	l	n/a
83.964	0.075	167928	keystroke_t	t	n/a
84.099	0.0755	168198	keystroke_i	i	n/a
84.234	0.075	168468	keystroke_e	e	n/a
84.3545	0.1195	168709	keystroke_s	s	n/a
84.519	0.0595	169038	keystroke_Key.space	Key.space	n/a
84.7585	0.045	169517	keystroke_r	r	n/a
84.894	0.075	169788	keystroke_i	i	n/a
85.2545	0.074	170509	keystroke_c	c	n/a
85.3895	0.089	170779	keystroke_k	k	n/a
85.6295	0.074	171259	keystroke_y	y	n/a
85.794	0.06	171588	keystroke_Key.space	Key.space	n/a
86.0785	0.076	172157	keystroke_g	g	n/a
86.1995	0.09	172399	keystroke_u	u	n/a
86.4835	0.121	172967	keystroke_a	a	n/a
86.5745	0.105	173149	keystroke_r	r	n/a
86.8285	0.075	173657	keystroke_d	d	n/a
86.9785	0.075	173957	keystroke_Key.space	Key.space	n/a
87.2185	0.06	174437	keystroke_b	b	n/a
87.4	0.0745	174800	keystroke_r	r	n/a
87.549	0.0905	175098	keystroke_a	a	n/a
88.0595	0.06	176119	keystroke_z	z	n/a
88.1795	0.105	176359	keystroke_z	z	n/a
88.7635	0.09	177527	keystroke_Key.backspace	Key.backspace	n/a
89.0345	0.075	178069	keystroke_i	i	n/a
89.244	0.0755	178488	keystroke_l	l	n/a
89.3785	0.0755	178757	keystroke_l	l	n/a
90.024	0.059	180048	keystroke_Key.backspace	Key.backspace	n/a
90.294	0.075	180588	keystroke_i	i	n/a
90.609	0.09	181218	keystroke_a	a	n/a
90.714	0.075	181428	keystroke_n	n	n/a
90.894	0.0905	181788	keystroke_Key.enter	Key.enter	n/a
90.996	8.6445	181992	prompt	n/a	disposition immediately creation grip\n
91.794	0.09	183588	keystroke_d	d	n/a
91.899	0.091	183798	keystroke_i	i	n/a
92.0345	0.09	184069	keystroke_s	s	n/a
92.559	0.09	185118	keystroke_p	p	n/a
92.7545	0.0745	185509	keystroke_o	o	n/a
93.085	0.074	186170	keystroke_s	s	n/a
93.2195	0.0595	186439	keystroke_i	i	n/a
93.354	0.0605	186708	keystroke_t	t	n/a
93.429	0.135	186858	keystroke_i	i	n/a
93.549	0.1505	187098	keystroke_o	o	n/a
93.6695	0.135	187339	keystroke_n	n	n/a
94.1345	0.06	188269	keystroke_Key.space	Key.space	n/a
94.4495	0.06	188899	keystroke_i	i	n/a
94.5845	0.105	189169	keystroke_m	m	n/a
95.0795	0.089	190159	keystroke_m	m	n/a
95.319	0.09	190638	keystroke_e	e	n/a
95.784	0.075	191568	keystroke_d	d	n/a
95.904	0.075	191808	keystroke_i	i	n/a
96.039	0.12	192078	keystroke_a	a	n/a
96.249	0.06	192498	keystroke_t	t	n/a
96.369	0.075	192738	keystroke_e	e	n/a
96.534	0.105	193068	keystroke_l	l	n/a
96.654	0.105	193308	keystroke_y	y	n/a
96.819	0.0755	193638	keystroke_Key.space	Key.space	n/a
97.1335	0.06	194267	keystroke_c	c	n/a
97.3145	0.09	194629	keystroke_r	r	n/a
97.4195	0.09	194839	keystroke_e	e	n/a
97.5995	0.105	195199	keystroke_a	a	n/a
97.8095	0.09	195619	keystroke_t	t	n/a
98.0945	0.15	196189	keystroke_i	i	n/a
98.2145	0.135	196429	keystroke_o	o	n/a
98.3345	0.149	196669	keystroke_n	n	n/a
98.5285	0.075	197057	keystroke_Key.space	Key.space	n/a
98.7695	0.06	197539	keystroke_g	g	n/a
98.9345	0.075	197869	keystroke_r	r	n/a
99.039	0.09	198078	keystroke_i	i	n/a
99.159	0.105	198318	keystroke_p	p	n/a
99.549	0.0905	199098	keystroke_Key.enter	Key.enter	n/a
99.644	12.9865	199288	prompt	n/a	segment friday trusts operating\n
100.449	0.0905	200898	keystroke_s	s	n/a
100.614	0.0755	201228	keystroke_e	e	n/a
100.8385	0.061	201677	keystroke_g	g	n/a
101.2595	0.075	202519	keystroke_m	m	n/a
101.3645	0.075	202729	keystroke_e	e	n/a
101.454	0.075	202908	keystroke_n	n	n/a
101.53	0.075	203060	keystroke_t	t	n/a
101.649	0.075	203298	keystroke_Key.space	Key.space	n/a
102.099	0.0755	204198	keystroke_g	g	n/a
102.7745	0.015	205549	keystroke_Key.backspace	Key.backspace	n/a
102.8345	0.06	205669	keystroke_f	f	n/a
102.999	0.0605	205998	keystroke_r	r	n/a
103.1345	0.075	206269	keystroke_i	i	n/a
103.329	0.075	206658	keystroke_d	d	n/a
103.4195	0.12	206839	keystroke_a	a	n/a
103.5545	0.09	207109	keystroke_y	y	n/a
103.7045	0.074	207409	keystroke_Key.space	Key.space	n/a
103.9145	0.06	207829	keystroke_t	t	n/a
104.0795	0.06	208159	keystroke_r	r	n/a
104.184	0.09	208368	keystroke_u	u	n/a
104.334	0.0755	208668	keystroke_s	s	n/a
104.4695	0.075	208939	keystroke_t	t	n/a
104.6195	0.075	209239	keystroke_a	a	n/a
105.174	0.045	210348	keystroke_=	=	n/a
105.189	0.015	210378	keystroke_Key.backspace	Key.backspace	n/a
105.684	0.105	211368	keystroke_=	=	n/a
106.164	0.105	212328	keystroke_Key.backspace	Key.backspace	n/a
106.4785	0.075	212957	keystroke_Key.backspace	Key.backspace	n/a
107.169	0.09	214338	keystroke_s	s	n/a
109.421	0.001	218842	keystroke_Key.space	Key.space	n/a
109.824	0.09	219648	keystroke_o	o	n/a
109.989	0.09	219978	keystroke_p	p	n/a
110.4245	0.1045	220849	keystroke_e	e	n/a
110.634	0.0755	221268	keystroke_r	r	n/a
110.784	0.105	221568	keystroke_a	a	n/a
111.024	0.06	222048	keystroke_t	t	n/a
111.1295	0.165	222259	keystroke_i	i	n/a
111.234	0.09	222468	keystroke_o	o	n/a
111.7895	0.074	223579	keystroke_Key.backspace	Key.backspace	n/a
112.0445	0.09	224089	keystroke_n	n	n/a
112.1945	0.06	224389	keystroke_g	g	n/a
112.554	0.0745	225108	keystroke_Key.enter	Key.enter	n/a
112.636	6.97	225272	prompt	n/a	reduces relate mentor controversy\n
113.394	0.0895	226788	keystroke_r	r	n/a
113.5295	0.0745	227059	keystroke_e	e	n/a
113.7535	0.075	227507	keystroke_d	d	n/a
113.859	0.0895	227718	keystroke_u	u	n/a
113.9795	0.074	227959	keystroke_c	c	n/a
114.1585	0.06	228317	keystroke_e	e	n/a
114.3085	0.0755	228617	keystroke_s	s	n/a
114.4285	0.09	228857	keystroke_Key.space	Key.space	n/a
114.6545	0.089	229309	keystroke_r	r	n/a
114.7735	0.0605	229547	keystroke_e	e	n/a
114.9535	0.105	229907	keystroke_l	l	n/a
115.0295	0.1195	230059	keystroke_a	a	n/a
115.119	0.105	230238	keystroke_t	t	n/a
115.2385	0.106	230477	keystroke_e	e	n/a
115.4335	0.075	230867	keystroke_Key.space	Key.space	n/a
115.7035	0.09	231407	keystroke_m	m	n/a
115.8385	0.06	231677	keystroke_e	e	n/a
116.0195	0.075	232039	keystroke_n	n	n/a
116.394	0.075	232788	keystroke_t	t	n/a
116.574	0.075	233148	keystroke_o	o	n/a
116.695	0.074	233390	keystroke_r	r	n/a
117.189	0.06	234378	keystroke_Key.space	Key.space	n/a
117.459	0.0755	234918	keystroke_c	c	n/a
117.549	0.1205	235098	keystroke_o	o	n/a
117.6545	0.119	235309	keystroke_n	n	n/a
117.954	0.075	235908	keystroke_t	t	n/a
118.119	0.075	236238	keystroke_r	r	n/a
118.314	0.0755	236628	keystroke_o	o	n/a
118.554	0.0895	237108	keystroke_v	v	n/a
118.749	0.1045	237498	keystroke_e	e	n/a
118.839	0.0905	237678	keystroke_r	r	n/a
119.124	0.09	238248	keystroke_s	s	n/a
119.274	0.075	238548	keystroke_y	y	n/a
119.5135	0.0905	239027	keystroke_Key.enter	Key.enter	n/a
119.6105	8.083	239221	prompt	n/a	bottles rwanda granted amend\n
120.3395	0.0745	240679	keystroke_b	b	n/a
120.474	0.09	240948	keystroke_o	o	n/a
120.6395	0.0595	241279	keystroke_t	t	n/a
120.7885	0.0755	241577	keystroke_t	t	n/a
120.9995	0.0895	241999	keystroke_l	l	n/a
121.134	0.075	242268	keystroke_e	e	n/a
121.314	0.09	242628	keystroke_s	s	n/a
121.449	0.075	242898	keystroke_Key.space	Key.space	n/a
122.1545	0.075	244309	keystroke_r	r	n/a
122.6345	0.06	245269	keystroke_w	w	n/a
123.429	0.1055	246858	keystroke_a	a	n/a
123.5485	0.121	247097	keystroke_n	n	n/a
123.699	0.105	247398	keystroke_d	d	n/a
124.584	0.1055	249168	keystroke_a	a	n/a
124.869	0.06	249738	keystroke_Key.space	Key.space	n/a
125.1845	0.0745	250369	keystroke_g	g	n/a
125.364	0.0595	250728	keystroke_r	r	n/a
125.589	0.09	251178	keystroke_a	a	n/a
125.724	0.09	251448	keystroke_n	n	n/a
125.844	0.075	251688	keystroke_t	t	n/a
125.9945	0.0745	251989	keystroke_e	e	n/a
126.159	0.0905	252318	keystroke_d	d	n/a
126.294	0.075	252588	keystroke_Key.space	Key.space	n/a
126.4895	0.12	252979	keystroke_a	a	n/a
126.654	0.12	253308	keystroke_m	m	n/a
126.864	0.075	253728	keystroke_e	e	n/a
126.9995	0.075	253999	keystroke_n	n	n/a
127.1945	0.075	254389	keystroke_d	d	n/a
127.614	0.075	255228	keystroke_Key.enter	Key.enter	n/a
127.6985	7.582	255397	prompt	n/a	hits soundtrack produce phys\n
128.484	0.0605	256968	keystroke_h	h	n/a
128.619	0.09	257238	keystroke_i	i	n/a
128.784	0.075	257568	keystroke_t	t	n/a
128.979	0.105	257958	keystroke_s	s	n/a
129.144	0.075	258288	keystroke_Key.space	Key.space	n/a
129.459	0.09	258918	keystroke_s	s	n/a
129.564	0.12	259128	keystroke_o	o	n/a
129.639	0.1055	259278	keystroke_u	u	n/a
129.849	0.09	259698	keystroke_n	n	n/a
130.0585	0.091	260117	keystroke_d	d	n/a
130.704	0.0595	261408	keystroke_t	t	n/a
130.8535	0.0755	261707	keystroke_r	r	n/a
131.0035	0.091	262007	keystroke_a	a	n/a
131.214	0.0755	262428	keystroke_c	c	n/a
131.3335	0.09	262667	keystroke_k	k	n/a
131.5135	0.06	263027	keystroke_Key.space	Key.space	n/a
132.4435	0.105	264887	keystroke_p	p	n/a
132.564	0.0745	265128	keystroke_r	r	n/a
132.6685	0.105	265337	keystroke_o	o	n/a
133.374	0.0455	266748	keystroke_d	d	n/a
133.449	0.1055	266898	keystroke_u	u	n/a
133.599	0.075	267198	keystroke_c	c	n/a
133.794	0.045	267588	keystroke_e	e	n/a
134.064	0.06	268128	keystroke_Key.space	Key.space	n/a
134.274	0.075	268548	keystroke_p	p	n/a
134.4085	0.106	268817	keystroke_h	h	n/a
134.724	0.0895	269448	keystroke_y	y	n/a
134.9635	0.076	269927	keystroke_s	s	n/a
135.2045	0.075	270409	keystroke_Key.enter	Key.enter	n/a
135.2935	9.0465	270587	prompt	n/a	arena enrollment financing closing\n
136.1645	0.104	272329	keystroke_a	a	n/a
136.4045	0.09	272809	keystroke_r	r	n/a
136.5845	0.09	273169	keystroke_e	e	n/a
136.9285	0.09	273857	keystroke_n	n	n/a
137.0645	0.1045	274129	keystroke_a	a	n/a
137.2745	0.074	274549	keystroke_Key.space	Key.space	n/a
138.0835	0.06	276167	keystroke_e	e	n/a
138.1585	0.0605	276317	keystroke_n	n	n/a
138.8185	0.0605	277637	keystroke_r	r	n/a
138.9245	0.0895	277849	keystroke_o	o	n/a
139.1785	0.075	278357	keystroke_l	l	n/a
139.329	0.09	278658	keystroke_l	l	n/a
139.644	0.075	279288	keystroke_m	m	n/a
139.734	0.0895	279468	keystroke_e	e	n/a
139.839	0.1055	279678	keystroke_n	n	n/a
139.9285	0.0755	279857	keystroke_t	t	n/a
140.184	0.06	280368	keystroke_Key.space	Key.space	n/a
140.3945	0.0895	280789	keystroke_f	f	n/a
140.529	0.075	281058	keystroke_i	i	n/a
140.904	0.0905	281808	keystroke_n	n	n/a
141.414	0.105	282828	keystroke_a	a	n/a
141.549	0.0905	283098	keystroke_n	n	n/a
141.684	0.0905	283368	keystroke_c	c	n/a
142.2995	0.1345	284599	keystroke_i	i	n/a
142.389	0.1655	284778	keystroke_n	n	n/a
142.4635	0.106	284927	keystroke_g	g	n/a
142.794	0.0745	285588	keystroke_Key.space	Key.space	n/a
143.0495	0.0745	286099	keystroke_c	c	n/a
143.154	0.0755	286308	keystroke_l	l	n/a
143.319	0.075	286638	keystroke_o	o	n/a
143.4685	0.1205	286937	keystroke_s	s	n/a
143.7535	0.1355	287507	keystroke_i	i	n/a
143.829	0.18	287658	keystroke_n	n	n/a
143.9195	0.1045	287839	keystroke_g	g	n/a
144.2635	0.0755	288527	keystroke_Key.enter	Key.enter	n/a
144.344	7.5565	288688	prompt	n/a	pamela formats dicke abraham\n
145.0295	0.1055	290059	keystroke_p	p	n/a
145.149	0.1355	290298	keystroke_a	a	n/a
145.4495	0.1195	290899	keystroke_m	m	n/a
145.689	0.0905	291378	keystroke_e	e	n/a
145.989	0.09	291978	keystroke_l	l	n/a
146.1095	0.1195	292219	keystroke_a	a	n/a
146.304	0.09	292608	keystroke_Key.space	Key.space	n/a
146.5585	0.09	293117	keystroke_f	f	n/a
146.694	0.0905	293388	keystroke_o	o	n/a
146.799	0.0905	293598	keystroke_r	r	n/a
147.024	0.09	294048	keystroke_m	m	n/a
147.129	0.1195	294258	keystroke_a	a	n/a
147.2185	0.09	294437	keystroke_t	t	n/a
147.4435	0.09	294887	keystroke_s	s	n/a
147.5785	0.0755	295157	keystroke_Key.space	Key.space	n/a
147.834	0.075	295668	keystroke_d	d	n/a
147.9395	0.09	295879	keystroke_i	i	n/a
148.1195	0.089	296239	keystroke_c	c	n/a
148.2545	0.09	296509	keystroke_k	k	n/a
148.6735	0.12	297347	keystroke_s	s	n/a
149.109	0.09	298218	keystroke_Key.backspace	Key.backspace	n/a
149.2885	0.075	298577	keystroke_e	e	n/a
149.4995	0.075	298999	keystroke_Key.space	Key.space	n/a
149.755	0.105	299510	keystroke_a	a	n/a
150.1745	0.0905	300349	keystroke_b	b	n/a
150.609	0.075	301218	keystroke_r	r	n/a
150.744	0.105	301488	keystroke_a	a	n/a
151.029	0.105	302058	keystroke_h	h	n/a
151.3745	0.1045	302749	keystroke_a	a	n/a
151.509	0.105	303018	keystroke_m	m	n/a
151.8095	0.0895	303619	keystroke_Key.enter	Key.enter	n/a
151.908	8.108	303816	prompt	n/a	snow placement unsigned puzzles\n
152.664	0.076	305328	keystroke_s	s	n/a
152.7545	0.0895	305509	keystroke_n	n	n/a
153.534	0.09	307068	keystroke_o	o	n/a
153.7145	0.0895	307429	keystroke_w	w	n/a
153.834	0.075	307668	keystroke_Key.space	Key.space	n/a
154.089	0.075	308178	keystroke_p	p	n/a
154.2995	0.1045	308599	keystroke_l	l	n/a
154.449	0.0905	308898	keystroke_a	a	n/a
154.629	0.06	309258	keystroke_c	c	n/a
154.809	0.045	309618	keystroke_e	e	n/a
154.929	0.09	309858	keystroke_m	m	n/a
155.0195	0.06	310039	keystroke_e	e	n/a
155.124	0.105	310248	keystroke_n	n	n/a
155.2135	0.045	310427	keystroke_t	t	n/a
155.3035	0.075	310607	keystroke_Key.space	Key.space	n/a
155.5285	0.075	311057	keystroke_u	u	n/a
155.7545	0.0895	311509	keystroke_n	n	n/a
156.1745	0.09	312349	keystroke_s	s	n/a
156.429	0.0595	312858	keystroke_i	i	n/a
156.7745	0.09	313549	keystroke_g	g	n/a
157.014	0.075	314028	keystroke_n	n	n/a
157.134	0.075	314268	keystroke_e	e	n/a
157.299	0.09	314598	keystroke_d	d	n/a
157.434	0.0755	314868	keystroke_Key.space	Key.space	n/a
157.5995	0.09	315199	keystroke_p	p	n/a
157.7795	0.06	315559	keystroke_u	u	n/a
158.169	0.075	316338	keystroke_a	a	n/a
158.6495	0.0745	317299	keystroke_Key.backspace	Key.backspace	n/a
158.919	0.0895	317838	keystroke_z	z	n/a
159.0695	0.0895	318139	keystroke_z	z	n/a
159.2195	0.1045	318439	keystroke_l	l	n/a
159.414	0.075	318828	keystroke_e	e	n/a
159.684	0.09	319368	keystroke_s	s	n/a
159.924	0.09	319848	keystroke_Key.enter	Key.enter	n/a
160.021	10.4045	320042	prompt	n/a	turning vernon that harley\n
161.814	0.06	323628	keystroke_Key.space	Key.space	n/a
162.7145	0.014	325429	keystroke_Key.backspace	Key.backspace	n/a
163.1345	0.0745	326269	keystroke_t	t	n/a
163.2245	0.0895	326449	keystroke_u	u	n/a
163.4195	0.074	326839	keystroke_n	n	n/a
163.6295	0.105	327259	keystroke_i	i	n/a
163.7045	0.164	327409	keystroke_n	n	n/a
163.7945	0.12	327589	keystroke_g	g	n/a
164.0785	0.075	328157	keystroke_Key.space	Key.space	n/a
164.4395	0.09	328879	keystroke_v	v	n/a
164.7245	0.014	329449	keystroke_e	e	n/a
165.024	0.0755	330048	keystroke_r	r	n/a
165.249	0.075	330498	keystroke_n	n	n/a
165.384	0.105	330768	keystroke_o	o	n/a
165.519	0.105	331038	keystroke_n	n	n/a
165.7435	0.0605	331487	keystroke_Key.space	Key.space	n/a
165.91	0.0745	331820	keystroke_t	t	n/a
165.9995	0.089	331999	keystroke_h	h	n/a
166.1795	0.104	332359	keystroke_t	t	n/a
166.4795	0.0745	332959	keystroke_h	h	n/a
167.364	0.075	334728	keystroke_Key.backspace	Key.backspace	n/a
167.9785	0.135	335957	keystroke_Key.backspace	Key.backspace	n/a
168.3695	0.075	336739	keystroke_a	a	n/a
168.594	0.0755	337188	keystroke_t	t	n/a
168.729	0.09	337458	keystroke_Key.space	Key.space	n/a
168.954	0.0905	337908	keystroke_h	h	n/a
169.059	0.135	338118	keystroke_a	a	n/a
169.164	0.12	338328	keystroke_r	r	n/a
169.779	0.105	339558	keystroke_l	l	n/a
169.93	0.0745	339860	keystroke_e	e	n/a
170.064	0.0755	340128	keystroke_y	y	n/a
170.334	0.0905	340668	keystroke_Key.enter	Key.enter	n/a
170.432	8.709	340864	prompt	n/a	generators suggest guards amenities\n
171.8345	0.0745	343669	keystroke_g	g	n/a
171.984	0.075	343968	keystroke_e	e	n/a
172.134	0.091	344268	keystroke_n	n	n/a
172.24	0.09	344480	keystroke_e	e	n/a
172.3895	0.105	344779	keystroke_r	r	n/a
172.5395	0.105	345079	keystroke_a	a	n/a
173.064	0.03	346128	keystroke_t	t	n/a
173.1395	0.1055	346279	keystroke_o	o	n/a
173.2295	0.0745	346459	keystroke_r	r	n/a
173.485	0.0885	346970	keystroke_s	s	n/a
173.6335	0.0755	347267	keystroke_Key.space	Key.space	n/a
173.889	0.09	347778	keystroke_s	s	n/a
174.039	0.09	348078	keystroke_u	u	n/a
174.175	0.059	348350	keystroke_g	g	n/a
174.324	0.06	348648	keystroke_g	g	n/a
174.459	0.06	348918	keystroke_e	e	n/a
174.6695	0.09	349339	keystroke_s	s	n/a
174.8345	0.0895	349669	keystroke_t	t	n/a
175.1945	0.06	350389	keystroke_Key.space	Key.space	n/a
175.6745	0.06	351349	keystroke_g	g	n/a
175.8095	0.075	351619	keystroke_u	u	n/a
175.9745	0.12	351949	keystroke_a	a	n/a
176.0795	0.105	352159	keystroke_r	r	n/a
176.3345	0.09	352669	keystroke_d	d	n/a
176.5445	0.075	353089	keystroke_s	s	n/a
176.7095	0.045	353419	keystroke_Key.space	Key.space	n/a
176.9195	0.1045	353839	keystroke_a	a	n/a
177.099	0.1055	354198	keystroke_m	m	n/a
177.6835	0.0755	355367	keystroke_e	e	n/a
177.8945	0.09	355789	keystroke_n	n	n/a
178.2695	0.075	356539	keystroke_i	i	n/a
178.5245	0.09	357049	keystroke_t	t	n/a
178.6295	0.075	357259	keystroke_i	i	n/a
178.7195	0.075	357439	keystroke_e	e	n/a
178.8545	0.1045	357709	keystroke_s	s	n/a
179.0345	0.1045	358069	keystroke_Key.enter	Key.enter	n/a
179.1465	5.979	358293	prompt	n/a	kennedy relation casting grad\n
179.934	0.0755	359868	keystroke_k	k	n/a
180.2495	0.0745	360499	keystroke_e	e	n/a
180.489	0.0605	360978	keystroke_n	n	n/a
180.6085	0.076	361217	keystroke_n	n	n/a
180.7595	0.0745	361519	keystroke_e	e	n/a
181.1345	0.09	362269	keystroke_d	d	n/a
181.2545	0.09	362509	keystroke_y	y	n/a
181.4195	0.075	362839	keystroke_Key.space	Key.space	n/a
181.6745	0.0745	363349	keystroke_r	r	n/a
181.8695	0.0595	363739	keystroke_e	e	n/a
182.109	0.105	364218	keystroke_l	l	n/a
182.229	0.1205	364458	keystroke_a	a	n/a
182.529	0.0745	365058	keystroke_t	t	n/a
182.589	0.15	365178	keystroke_i	i	n/a
182.709	0.165	365418	keystroke_o	o	n/a
182.829	0.1505	365658	keystroke_n	n	n/a
182.949	0.075	365898	keystroke_Key.space	Key.space	n/a
183.174	0.105	366348	keystroke_c	c	n/a
183.309	0.12	366618	keystroke_a	a	n/a
183.534	0.06	367068	keystroke_s	s	n/a
183.7295	0.0445	367459	keystroke_t	t	n/a
183.8645	0.1195	367729	keystroke_i	i	n/a
183.939	0.1505	367878	keystroke_n	n	n/a
184.014	0.1055	368028	keystroke_g	g	n/a
184.1195	0.0745	368239	keystroke_Key.space	Key.space	n/a
184.344	0.0605	368688	keystroke_g	g	n/a
184.509	0.0605	369018	keystroke_r	r	n/a
184.629	0.105	369258	keystroke_a	a	n/a
184.8395	0.09	369679	keystroke_d	d	n/a
185.0345	0.09	370069	keystroke_Key.enter	Key.enter	n/a
185.1325	7.718	370265	prompt	n/a	hewlett meeting batch contributions\n
185.9345	0.09	371869	keystroke_h	h	n/a
186.0835	0.091	372167	keystroke_e	e	n/a
186.354	0.075	372708	keystroke_w	w	n/a
186.6995	0.0895	373399	keystroke_l	l	n/a
187.1945	0.0745	374389	keystroke_e	e	n/a
187.599	0.0605	375198	keystroke_t	t	n/a
187.7495	0.06	375499	keystroke_t	t	n/a
187.9435	0.0755	375887	keystroke_Key.space	Key.space	n/a
188.1545	0.104	376309	keystroke_m	m	n/a
188.3045	0.075	376609	keystroke_e	e	n/a
188.4685	0.076	376937	keystroke_e	e	n/a
188.6195	0.075	377239	keystroke_t	t	n/a
188.7845	0.134	377569	keystroke_i	i	n/a
188.889	0.15	377778	keystroke_n	n	n/a
188.949	0.12	377898	keystroke_g	g	n/a
189.084	0.0905	378168	keystroke_Key.space	Key.space	n/a
189.399	0.09	378798	keystroke_b	b	n/a
189.5495	0.1195	379099	keystroke_a	a	n/a
189.954	0.0895	379908	keystroke_t	t	n/a
190.2395	0.089	380479	keystroke_c	c	n/a
190.3445	0.1045	380689	keystroke_h	h	n/a
190.4635	0.09	380927	keystroke_Key.space	Key.space	n/a
190.7785	0.091	381557	keystroke_c	c	n/a
190.8845	0.15	381769	keystroke_o	o	n/a
190.9745	0.1645	381949	keystroke_n	n	n/a
191.1845	0.0595	382369	keystroke_t	t	n/a
191.349	0.06	382698	keystroke_r	r	n/a
191.469	0.0905	382938	keystroke_i	i	n/a
191.6635	0.091	383327	keystroke_c	c	n/a
191.8135	0.105	383627	keystroke_u	u	n/a
192.0985	0.075	384197	keystroke_t	t	n/a
192.1885	0.1505	384377	keystroke_i	i	n/a
192.294	0.165	384588	keystroke_o	o	n/a
192.399	0.165	384798	keystroke_n	n	n/a
192.519	0.1055	385038	keystroke_s	s	n/a
192.7735	0.075	385547	keystroke_Key.enter	Key.enter	n/a
192.8555	8.905	385711	prompt	n/a	penn carriers occupational canadian\n
193.6885	0.1055	387377	keystroke_p	p	n/a
193.824	0.0905	387648	keystroke_e	e	n/a
194.0345	0.059	388069	keystroke_n	n	n/a
194.1845	0.075	388369	keystroke_n	n	n/a
194.274	0.075	388548	keystroke_Key.space	Key.space	n/a
194.559	0.0905	389118	keystroke_c	c	n/a
194.7395	0.1045	389479	keystroke_a	a	n/a
194.949	0.06	389898	keystroke_r	r	n/a
195.129	0.045	390258	keystroke_r	r	n/a
195.6395	0.06	391279	keystroke_i	i	n/a
195.8945	0.089	391789	keystroke_e	e	n/a
195.9845	0.105	391969	keystroke_r	r	n/a
196.224	0.0905	392448	keystroke_s	s	n/a
196.374	0.075	392748	keystroke_Key.space	Key.space	n/a
196.659	0.09	393318	keystroke_c	c	n/a
197.109	0.09	394218	keystroke_Key.backspace	Key.backspace	n/a
197.3945	0.0895	394789	keystroke_o	o	n/a
198.0995	0.119	396199	keystroke_c	c	n/a
198.2345	0.0145	396469	keystroke_c	c	n/a
198.309	0.09	396618	keystroke_u	u	n/a
198.5045	0.1195	397009	keystroke_p	p	n/a
198.6995	0.1045	397399	keystroke_a	a	n/a
198.939	0.045	397878	keystroke_t	t	n/a
198.999	0.165	397998	keystroke_i	i	n/a
199.089	0.18	398178	keystroke_o	o	n/a
199.224	0.135	398448	keystroke_n	n	n/a
199.374	0.105	398748	keystroke_a	a	n/a
199.5095	0.1345	399019	keystroke_l	l	n/a
199.629	0.075	399258	keystroke_Key.space	Key.space	n/a
199.9595	0.0745	399919	keystroke_c	c	n/a
200.1395	0.1045	400279	keystroke_a	a	n/a
200.5595	0.075	401119	keystroke_n	n	n/a
200.7245	0.09	401449	keystroke_a	a	n/a
201.0695	0.0745	402139	keystroke_d	d	n/a
201.204	0.075	402408	keystroke_i	i	n/a
201.309	0.105	402618	keystroke_a	a	n/a
201.429	0.09	402858	keystroke_n	n	n/a
201.684	0.075	403368	keystroke_Key.enter	Key.enter	n/a
201.766	7.1645	403532	prompt	n/a	baths pubs senators medicare\n
202.6895	0.06	405379	keystroke_b	b	n/a
202.794	0.1355	405588	keystroke_a	a	n/a
202.9595	0.0745	405919	keystroke_t	t	n/a
203.094	0.105	406188	keystroke_h	h	n/a
203.259	0.105	406518	keystroke_s	s	n/a
203.394	0.075	406788	keystroke_Key.space	Key.space	n/a
203.649	0.09	407298	keystroke_p	p	n/a
203.8145	0.09	407629	keystroke_u	u	n/a
203.9795	0.09	407959	keystroke_b	b	n/a
204.429	0.09	408858	keystroke_s	s	n/a
205.1785	0.045	410357	keystroke_Key.space	Key.space	n/a
205.494	0.09	410988	keystroke_s	s	n/a
206.004	0.075	412008	keystroke_e	e	n/a
206.1845	0.1045	412369	keystroke_n	n	n/a
206.4835	0.1055	412967	keystroke_a	a	n/a
206.769	0.0755	413538	keystroke_t	t	n/a
206.9195	0.089	413839	keystroke_o	o	n/a
206.9945	0.074	413989	keystroke_r	r	n/a
207.2045	0.074	414409	keystroke_s	s	n/a
207.3235	0.0755	414647	keystroke_Key.space	Key.space	n/a
207.5045	0.1045	415009	keystroke_m	m	n/a
207.6545	0.074	415309	keystroke_e	e	n/a
207.8485	0.0755	415697	keystroke_d	d	n/a
207.954	0.105	415908	keystroke_i	i	n/a
208.119	0.1055	416238	keystroke_c	c	n/a
208.299	0.105	416598	keystroke_a	a	n/a
208.449	0.105	416898	keystroke_r	r	n/a
208.569	0.105	417138	keystroke_e	e	n/a
208.839	0.09	417678	keystroke_Key.enter	Key.enter	n/a
208.9415	10.2345	417883	prompt	n/a	sauce luggage montreal arthritis\n
209.649	0.0755	419298	keystroke_s	s	n/a
209.7845	0.09	419569	keystroke_a	a	n/a
209.9795	0.0895	419959	keystroke_u	u	n/a
210.1285	0.0905	420257	keystroke_c	c	n/a
210.324	0.045	420648	keystroke_e	e	n/a
210.4285	0.061	420857	keystroke_Key.space	Key.space	n/a
210.6085	0.0905	421217	keystroke_l	l	n/a
210.789	0.075	421578	keystroke_u	u	n/a
210.954	0.0145	421908	keystroke_g	g	n/a
211.224	0.15	422448	keystroke_a	a	n/a
211.359	0.045	422718	keystroke_g	g	n/a
211.854	0.075	423708	keystroke_Key.backspace	Key.backspace	n/a
212.049	0.075	424098	keystroke_Key.backspace	Key.backspace	n/a
212.274	0.075	424548	keystroke_g	g	n/a
212.6195	0.1045	425239	keystroke_a	a	n/a
212.799	0.0755	425598	keystroke_g	g	n/a
212.919	0.0755	425838	keystroke_e	e	n/a
213.0235	0.09	426047	keystroke_Key.space	Key.space	n/a
213.279	0.09	426558	keystroke_m	m	n/a
213.489	0.075	426978	keystroke_o	o	n/a
213.6695	0.0905	427339	keystroke_n	n	n/a
213.9545	0.09	427909	keystroke_t	t	n/a
214.194	0.09	428388	keystroke_r	r	n/a
214.464	0.06	428928	keystroke_e	e	n/a
214.6595	0.105	429319	keystroke_a	a	n/a
214.8395	0.105	429679	keystroke_l	l	n/a
214.9745	0.075	429949	keystroke_Key.space	Key.space	n/a
215.3945	0.105	430789	keystroke_a	a	n/a
215.6345	0.06	431269	keystroke_r	r	n/a
216.204	0.075	432408	keystroke_t	t	n/a
216.6395	0.0895	433279	keystroke_h	h	n/a
217.0895	0.089	434179	keystroke_r	r	n/a
217.2385	0.076	434477	keystroke_i	i	n/a
217.39	0.0745	434780	keystroke_t	t	n/a
217.4945	0.09	434989	keystroke_i	i	n/a
217.5995	0.0895	435199	keystroke_e	e	n/a
218.1985	0.09	436397	keystroke_Key.backspace	Key.backspace	n/a
219.069	0.1045	438138	keystroke_Key.enter	Key.enter	n/a
219.1825	7.7335	438365	prompt	n/a	prefers cookbook preceding tahoe\n
220.539	0.105	441078	keystroke_p	p	n/a
220.629	0.105	441258	keystroke_r	r	n/a
220.719	0.075	441438	keystroke_e	e	n/a
220.944	0.0905	441888	keystroke_f	f	n/a
221.1395	0.0595	442279	keystroke_e	e	n/a
221.1695	0.119	442339	keystroke_r	r	n/a
221.4245	0.0745	442849	keystroke_s	s	n/a
221.5745	0.045	443149	keystroke_Key.space	Key.space	n/a
221.8435	0.076	443687	keystroke_c	c	n/a
221.979	0.09	443958	keystroke_o	o	n/a
222.1735	0.0755	444347	keystroke_o	o	n/a
222.3985	0.09	444797	keystroke_k	k	n/a
222.789	0.09	445578	keystroke_b	b	n/a
222.9535	0.0605	445907	keystroke_o	o	n/a
223.089	0.0755	446178	keystroke_o	o	n/a
223.284	0.075	446568	keystroke_k	k	n/a
223.554	0.045	447108	keystroke_Key.space	Key.space	n/a
223.824	0.09	447648	keystroke_p	p	n/a
223.929	0.1205	447858	keystroke_r	r	n/a
224.034	0.0755	448068	keystroke_e	e	n/a
224.3495	0.06	448699	keystroke_c	c	n/a
224.5435	0.061	449087	keystroke_e	e	n/a
224.8745	0.075	449749	keystroke_d	d	n/a
225.114	0.1355	450228	keystroke_i	i	n/a
225.204	0.1655	450408	keystroke_n	n	n/a
225.2795	0.105	450559	keystroke_g	g	n/a
225.4145	0.09	450829	keystroke_Key.space	Key.space	n/a
225.6245	0.075	451249	keystroke_t	t	n/a
225.8045	0.105	451609	keystroke_a	a	n/a
226.2555	0.074	452511	keystroke_h	h	n/a
226.4345	0.09	452869	keystroke_o	o	n/a
226.5845	0.06	453169	keystroke_e	e	n/a
226.8095	0.105	453619	keystroke_Key.enter	Key.enter	n/a
226.921	7.135	453842	prompt	n/a	notification injection belongs trip\n
227.679	0.0605	455358	keystroke_n	n	n/a
227.8295	0.074	455659	keystroke_o	o	n/a
228.309	0.075	456618	keystroke_t	t	n/a
228.5185	0.0605	457037	keystroke_i	i	n/a
228.8185	0.091	457637	keystroke_f	f	n/a
228.9985	0.0755	457997	keystroke_i	i	n/a
229.149	0.105	458298	keystroke_c	c	n/a
229.3295	0.1345	458659	keystroke_a	a	n/a
229.479	0.0605	458958	keystroke_t	t	n/a
229.554	0.1805	459108	keystroke_i	i	n/a
229.6895	0.149	459379	keystroke_o	o	n/a
229.7945	0.164	459589	keystroke_n	n	n/a
229.9595	0.075	459919	keystroke_Key.space	Key.space	n/a
230.1845	0.045	460369	keystroke_i	i	n/a
230.3335	0.0755	460667	keystroke_n	n	n/a
230.6045	0.075	461209	keystroke_j	j	n/a
230.7845	0.045	461569	keystroke_e	e	n/a
230.9645	0.0745	461929	keystroke_c	c	n/a
231.1445	0.045	462289	keystroke_t	t	n/a
231.2495	0.134	462499	keystroke_i	i	n/a
231.3685	0.136	462737	keystroke_o	o	n/a
231.4745	0.1345	462949	keystroke_n	n	n/a
231.6095	0.074	463219	keystroke_Key.space	Key.space	n/a
231.9235	0.061	463847	keystroke_b	b	n/a
232.0895	0.075	464179	keystroke_e	e	n/a
232.2685	0.0605	464537	keystroke_l	l	n/a
232.434	0.06	464868	keystroke_o	o	n/a
232.569	0.09	465138	keystroke_n	n	n/a
232.719	0.06	465438	keystroke_g	g	n/a
232.8695	0.0895	465739	keystroke_s	s	n/a
233.019	0.0755	466038	keystroke_Key.space	Key.space	n/a
233.1985	0.075	466397	keystroke_t	t	n/a
233.3795	0.074	466759	keystroke_r	r	n/a
233.4995	0.09	466999	keystroke_i	i	n/a
233.6495	0.105	467299	keystroke_p	p	n/a
233.964	0.09	467928	keystroke_Key.enter	Key.enter	n/a
234.0685	7.457	468137	prompt	n/a	bacterial back fancy spirit\n
234.8645	0.06	469729	keystroke_b	b	n/a
235.014	0.075	470028	keystroke_a	a	n/a
235.209	0.09	470418	keystroke_c	c	n/a
235.5395	0.0895	471079	keystroke_t	t	n/a
235.7345	0.09	471469	keystroke_e	e	n/a
235.9735	0.076	471947	keystroke_r	r	n/a
236.1695	0.0745	472339	keystroke_i	i	n/a
236.3185	0.106	472637	keystroke_a	a	n/a
236.4545	0.119	472909	keystroke_l	l	n/a
236.544	0.09	473088	keystroke_Key.space	Key.space	n/a
236.874	0.06	473748	keystroke_b	b	n/a
236.994	0.0895	473988	keystroke_a	a	n/a
237.1895	0.0745	474379	keystroke_c	c	n/a
237.309	0.09	474618	keystroke_k	k	n/a
237.414	0.075	474828	keystroke_Key.space	Key.space	n/a
237.624	0.09	475248	keystroke_f	f	n/a
238.149	0.075	476298	keystroke_a	a	n/a
238.404	0.075	476808	keystroke_n	n	n/a
238.6135	0.076	477227	keystroke_c	c	n/a
238.7935	0.0755	477587	keystroke_y	y	n/a
238.9145	0.0745	477829	keystroke_Key.space	Key.space	n/a
239.3335	0.0905	478667	keystroke_s	s	n/a
239.4835	0.121	478967	keystroke_p	p	n/a
240.414	0.0755	480828	keystroke_i	i	n/a
240.684	0.075	481368	keystroke_r	r	n/a
240.8185	0.075	481637	keystroke_i	i	n/a
241.1645	0.06	482329	keystroke_t	t	n/a
241.433	0.0905	482866	keystroke_Key.enter	Key.enter	n/a
241.529	9.1465	483058	prompt	n/a	utilities eval headline bradley\n
242.2585	0.075	484517	keystroke_u	u	n/a
242.619	0.075	485238	keystroke_t	t	n/a
242.769	0.075	485538	keystroke_i	i	n/a
243.1745	0.0445	486349	keystroke_l	l	n/a
243.279	0.0755	486558	keystroke_i	i	n/a
243.4445	0.0745	486889	keystroke_t	t	n/a
244.0595	0.075	488119	keystroke_i	i	n/a
244.1795	0.06	488359	keystroke_e	e	n/a
244.464	0.09	488928	keystroke_Key.space	Key.space	n/a
245.379	0.075	490758	keystroke_Key.backspace	Key.backspace	n/a
245.874	0.0895	491748	keystroke_s	s	n/a
246.0385	0.09	492077	keystroke_Key.space	Key.space	n/a
246.3085	0.09	492617	keystroke_e	e	n/a
246.5345	0.074	493069	keystroke_v	v	n/a
246.6985	0.105	493397	keystroke_a	a	n/a
246.8185	0.106	493637	keystroke_l	l	n/a
246.954	0.06	493908	keystroke_Key.space	Key.space	n/a
247.224	0.075	494448	keystroke_h	h	n/a
247.359	0.0755	494718	keystroke_e	e	n/a
247.4795	0.105	494959	keystroke_a	a	n/a
247.749	0.09	495498	keystroke_d	d	n/a
248.049	0.09	496098	keystroke_l	l	n/a
248.214	0.09	496428	keystroke_i	i	n/a
248.319	0.15	496638	keystroke_n	n	n/a
248.439	0.1055	496878	keystroke_e	e	n/a
248.574	0.09	497148	keystroke_Key.space	Key.space	n/a
248.844	0.0605	497688	keystroke_b	b	n/a
249.024	0.075	498048	keystroke_r	r	n/a
249.159	0.105	498318	keystroke_a	a	n/a
249.5185	0.075	499037	keystroke_d	d	n/a
249.7885	0.09	499577	keystroke_l	l	n/a
250.134	0.0755	500268	keystroke_e	e	n/a
250.2995	0.0745	500599	keystroke_y	y	n/a
250.5835	0.09	501167	keystroke_Key.enter	Key.enter	n/a
250.682	7.1485	501364	prompt	n/a	villas exemption wearing resort\n
251.7395	0.089	503479	keystroke_v	v	n/a
251.8585	0.075	503717	keystroke_i	i	n/a
252.0395	0.074	504079	keystroke_l	l	n/a
252.2045	0.075	504409	keystroke_l	l	n/a
252.3085	0.1205	504617	keystroke_a	a	n/a
252.489	0.09	504978	keystroke_s	s	n/a
252.624	0.105	505248	keystroke_Key.space	Key.space	n/a
252.8795	0.074	505759	keystroke_e	e	n/a
253.3285	0.0605	506657	keystroke_x	x	n/a
253.749	0.0905	507498	keystroke_e	e	n/a
253.9885	0.09	507977	keystroke_m	m	n/a
254.2445	0.1045	508489	keystroke_p	p	n/a
254.634	0.075	509268	keystroke_t	t	n/a
254.724	0.1345	509448	keystroke_i	i	n/a
254.8285	0.151	509657	keystroke_o	o	n/a
254.9335	0.1505	509867	keystroke_n	n	n/a
255.0985	0.06	510197	keystroke_Key.space	Key.space	n/a
255.324	0.09	510648	keystroke_w	w	n/a
255.519	0.06	511038	keystroke_e	e	n/a
255.654	0.1205	511308	keystroke_a	a	n/a
255.789	0.1055	511578	keystroke_r	r	n/a
256.0595	0.1195	512119	keystroke_i	i	n/a
256.134	0.1955	512268	keystroke_n	n	n/a
256.2545	0.1195	512509	keystroke_g	g	n/a
256.359	0.105	512718	keystroke_Key.space	Key.space	n/a
256.614	0.1055	513228	keystroke_r	r	n/a
256.779	0.0905	513558	keystroke_e	e	n/a
257.0495	0.1045	514099	keystroke_s	s	n/a
257.214	0.1055	514428	keystroke_o	o	n/a
257.3345	0.0745	514669	keystroke_r	r	n/a
257.514	0.075	515028	keystroke_t	t	n/a
257.739	0.09	515478	keystroke_Key.enter	Key.enter	n/a
257.837	8.9635	515674	prompt	n/a	mature appreciated adults audience\n
258.6095	0.0895	517219	keystroke_m	m	n/a
258.7135	0.12	517427	keystroke_a	a	n/a
258.954	0.075	517908	keystroke_t	t	n/a
259.074	0.09	518148	keystroke_u	u	n/a
259.179	0.12	518358	keystroke_r	r	n/a
259.4785	0.09	518957	keystroke_e	e	n/a
259.704	0.075	519408	keystroke_Key.space	Key.space	n/a
260.0195	0.105	520039	keystroke_a	a	n/a
260.289	0.075	520578	keystroke_p	p	n/a
260.439	0.09	520878	keystroke_p	p	n/a
260.544	0.12	521088	keystroke_r	r	n/a
260.709	0.105	521418	keystroke_e	e	n/a
261.249	0.075	522498	keystroke_c	c	n/a
261.369	0.09	522738	keystroke_i	i	n/a
261.519	0.12	523038	keystroke_a	a	n/a
261.594	0.135	523188	keystroke_t	t	n/a
261.744	0.075	523488	keystroke_e	e	n/a
261.969	0.09	523938	keystroke_d	d	n/a
262.119	0.09	524238	keystroke_Key.space	Key.space	n/a
262.4195	0.1045	524839	keystroke_a	a	n/a
262.704	0.09	525408	keystroke_d	d	n/a
263.4095	0.075	526819	keystroke_u	u	n/a
263.679	0.1195	527358	keystroke_l	l	n/a
263.8595	0.09	527719	keystroke_t	t	n/a
264.099	0.12	528198	keystroke_s	s	n/a
264.2495	0.104	528499	keystroke_Key.space	Key.space	n/a
264.5485	0.091	529097	keystroke_a	a	n/a
264.788	0.1065	529576	keystroke_u	u	n/a
265.4935	0.091	530987	keystroke_d	d	n/a
265.704	0.0895	531408	keystroke_i	i	n/a
266.0185	0.0905	532037	keystroke_e	e	n/a
266.1535	0.09	532307	keystroke_n	n	n/a
266.2735	0.09	532547	keystroke_c	c	n/a
266.529	0.0145	533058	keystroke_e	e	n/a
266.6935	0.105	533387	keystroke_Key.enter	Key.enter	n/a
266.806	10.15	533612	prompt	n/a	triple livestock sleeps portrait\n
267.534	0.075	535068	keystroke_t	t	n/a
267.789	0.015	535578	keystroke_r	r	n/a
267.9685	0.015	535937	keystroke_i	i	n/a
268.179	0.0905	536358	keystroke_p	p	n/a
268.4185	0.105	536837	keystroke_l	l	n/a
268.5385	0.076	537077	keystroke_e	e	n/a
268.6445	0.089	537289	keystroke_Key.space	Key.space	n/a
269.0635	0.075	538127	keystroke_l	l	n/a
269.214	0.075	538428	keystroke_i	i	n/a
269.3335	0.09	538667	keystroke_v	v	n/a
269.4845	0.089	538969	keystroke_e	e	n/a
269.619	0.06	539238	keystroke_Key.space	Key.space	n/a
269.799	0.12	539598	keystroke_s	s	n/a
270.219	0.06	540438	keystroke_Key.backspace	Key.backspace	n/a
270.399	0.075	540798	keystroke_Key.backspace	Key.backspace	n/a
270.7895	0.075	541579	keystroke_s	s	n/a
271.1945	0.09	542389	keystroke_t	t	n/a
271.464	0.09	542928	keystroke_o	o	n/a
271.6145	0.105	543229	keystroke_n	n	n/a
272.334	0.09	544668	keystroke_Key.backspace	Key.backspace	n/a
272.544	0.09	545088	keystroke_c	c	n/a
272.694	0.105	545388	keystroke_k	k	n/a
272.829	0.09	545658	keystroke_Key.space	Key.space	n/a
273.129	0.1205	546258	keystroke_s	s	n/a
273.2645	0.1045	546529	keystroke_l	l	n/a
273.4585	0.06	546917	keystroke_e	e	n/a
273.609	0.0755	547218	keystroke_e	e	n/a
273.729	0.105	547458	keystroke_p	p	n/a
273.894	0.09	547788	keystroke_s	s	n/a
274.014	0.09	548028	keystroke_Key.space	Key.space	n/a
274.314	0.0895	548628	keystroke_p	p	n/a
274.5095	0.074	549019	keystroke_o	o	n/a
274.6135	0.091	549227	keystroke_r	r	n/a
274.839	0.0605	549678	keystroke_t	t	n/a
275.7235	0.0755	551447	keystroke_r	r	n/a
276.2035	0.12	552407	keystroke_a	a	n/a
276.3685	0.0905	552737	keystroke_i	i	n/a
276.5635	0.0755	553127	keystroke_t	t	n/a
276.864	0.0905	553728	keystroke_Key.enter	Key.enter	n/a
276.965	8.3905	553930	prompt	n/a	emily gimme subscription keeping\n
277.659	0.075	555318	keystroke_e	e	n/a
277.779	0.105	555558	keystroke_m	m	n/a
278.079	0.0755	556158	keystroke_i	i	n/a
278.319	0.09	556638	keystroke_l	l	n/a
278.469	0.09	556938	keystroke_y	y	n/a
278.634	0.0745	557268	keystroke_Key.space	Key.space	n/a
279.309	0.1345	558618	keystroke_g	g	n/a
279.849	0.0745	559698	keystroke_i	i	n/a
280.2985	0.075	560597	keystroke_m	m	n/a
280.4335	0.091	560867	keystroke_m	m	n/a
280.6885	0.09	561377	keystroke_e	e	n/a
281.619	0.075	563238	keystroke_Key.space	Key.space	n/a
282.039	0.09	564078	keystroke_s	s	n/a
282.189	0.045	564378	keystroke_u	u	n/a
282.324	0.09	564648	keystroke_b	b	n/a
282.6695	0.0895	565339	keystroke_s	s	n/a
282.939	0.075	565878	keystroke_c	c	n/a
283.1185	0.09	566237	keystroke_r	r	n/a
283.239	0.0905	566478	keystroke_i	i	n/a
283.4045	0.1045	566809	keystroke_p	p	n/a
283.554	0.075	567108	keystroke_t	t	n/a
283.6595	0.1495	567319	keystroke_i	i	n/a
283.764	0.15	567528	keystroke_o	o	n/a
283.8845	0.1495	567769	keystroke_n	n	n/a
283.989	0.075	567978	keystroke_Key.space	Key.space	n/a
284.199	0.0895	568398	keystroke_k	k	n/a
284.3495	0.06	568699	keystroke_e	e	n/a
284.5145	0.0745	569029	keystroke_e	e	n/a
284.6485	0.091	569297	keystroke_p	p	n/a
284.874	0.135	569748	keystroke_i	i	n/a
284.979	0.1205	569958	keystroke_n	n	n/a
285.0535	0.09	570107	keystroke_g	g	n/a
285.2635	0.09	570527	keystroke_Key.enter	Key.enter	n/a
285.362	4.7805	570724	prompt	n/a	reading gotten tips trash\n
286.119	0.0745	572238	keystroke_r	r	n/a
286.2545	0.074	572509	keystroke_e	e	n/a
286.389	0.105	572778	keystroke_a	a	n/a
286.5695	0.0895	573139	keystroke_d	d	n/a
286.7035	0.1355	573407	keystroke_i	i	n/a
286.779	0.18	573558	keystroke_n	n	n/a
286.884	0.105	573768	keystroke_g	g	n/a
286.974	0.1045	573948	keystroke_Key.space	Key.space	n/a
287.2895	0.0745	574579	keystroke_g	g	n/a
287.4395	0.09	574879	keystroke_o	o	n/a
287.6195	0.06	575239	keystroke_t	t	n/a
287.8445	0.015	575689	keystroke_t	t	n/a
287.9195	0.09	575839	keystroke_e	e	n/a
288.0395	0.09	576079	keystroke_n	n	n/a
288.1745	0.075	576349	keystroke_Key.space	Key.space	n/a
288.3695	0.0745	576739	keystroke_t	t	n/a
288.4735	0.061	576947	keystroke_i	i	n/a
288.609	0.105	577218	keystroke_p	p	n/a
288.7285	0.09	577457	keystroke_s	s	n/a
288.879	0.09	577758	keystroke_Key.space	Key.space	n/a
289.164	0.075	578328	keystroke_t	t	n/a
289.3285	0.075	578657	keystroke_r	r	n/a
289.449	0.1055	578898	keystroke_a	a	n/a
289.7185	0.09	579437	keystroke_s	s	n/a
289.8245	0.0745	579649	keystroke_h	h	n/a
290.0485	0.0905	580097	keystroke_Key.enter	Key.enter	n/a
290.1485	9.2775	580297	prompt	n/a	norwegian prize platinum trivia\n
290.964	0.075	581928	keystroke_n	n	n/a
291.114	0.105	582228	keystroke_o	o	n/a
291.264	0.0905	582528	keystroke_r	r	n/a
291.714	0.09	583428	keystroke_w	w	n/a
291.954	0.0895	583908	keystroke_e	e	n/a
292.2245	0.09	584449	keystroke_i	i	n/a
292.7195	0.074	585439	keystroke_Key.backspace	Key.backspace	n/a
292.8995	0.0745	585799	keystroke_g	g	n/a
293.0495	0.074	586099	keystroke_i	i	n/a
293.6045	0.06	587209	keystroke_a	a	n/a
293.6785	0.091	587357	keystroke_n	n	n/a
293.8135	0.0755	587627	keystroke_Key.space	Key.space	n/a
294.1285	0.091	588257	keystroke_p	p	n/a
294.2495	0.075	588499	keystroke_r	r	n/a
294.3545	0.09	588709	keystroke_i	i	n/a
294.5495	0.09	589099	keystroke_z	z	n/a
294.851	0.088	589702	keystroke_e	e	n/a
295.074	0.06	590148	keystroke_Key.space	Key.space	n/a
295.464	0.105	590928	keystroke_p	p	n/a
295.659	0.12	591318	keystroke_l	l	n/a
295.8395	0.105	591679	keystroke_a	a	n/a
296.349	0.075	592698	keystroke_t	t	n/a
296.8135	0.09	593627	keystroke_i	i	n/a
297.1735	0.1205	594347	keystroke_n	n	n/a
297.6545	0.075	595309	keystroke_u	u	n/a
297.879	0.1055	595758	keystroke_m	m	n/a
298.074	0.075	596148	keystroke_Key.space	Key.space	n/a
298.2695	0.075	596539	keystroke_t	t	n/a
298.449	0.09	596898	keystroke_r	r	n/a
298.584	0.0905	597168	keystroke_i	i	n/a
298.8845	0.075	597769	keystroke_v	v	n/a
299.0035	0.0755	598007	keystroke_i	i	n/a
299.109	0.1055	598218	keystroke_a	a	n/a
299.3335	0.09	598667	keystroke_Key.enter	Key.enter	n/a
299.43	8.8615	598860	prompt	n/a	chassis simply guarantees malaysia\n
300.6995	0.09	601399	keystroke_c	c	n/a
300.8195	0.075	601639	keystroke_h	h	n/a
300.9845	0.105	601969	keystroke_a	a	n/a
301.269	0.06	602538	keystroke_s	s	n/a
301.404	0.09	602808	keystroke_s	s	n/a
301.584	0.075	603168	keystroke_i	i	n/a
301.689	0.0905	603378	keystroke_s	s	n/a
301.869	0.09	603738	keystroke_Key.space	Key.space	n/a
302.124	0.0905	604248	keystroke_s	s	n/a
302.2745	0.074	604549	keystroke_i	i	n/a
302.4095	0.105	604819	keystroke_m	m	n/a
302.6345	0.06	605269	keystroke_p	p	n/a
302.8445	0.075	605689	keystroke_l	l	n/a
302.9945	0.089	605989	keystroke_y	y	n/a
303.1885	0.075	606377	keystroke_Key.space	Key.space	n/a
303.699	0.015	607398	keystroke_g	g	n/a
303.7585	0.09	607517	keystroke_u	u	n/a
304.0295	0.09	608059	keystroke_a	a	n/a
304.2085	0.09	608417	keystroke_r	r	n/a
304.5245	0.105	609049	keystroke_a	a	n/a
304.674	0.105	609348	keystroke_n	n	n/a
304.854	0.0905	609708	keystroke_t	t	n/a
305.079	0.076	610158	keystroke_e	e	n/a
305.229	0.09	610458	keystroke_e	e	n/a
305.4695	0.075	610939	keystroke_s	s	n/a
305.619	0.1055	611238	keystroke_Key.space	Key.space	n/a
305.8735	0.106	611747	keystroke_m	m	n/a
306.0245	0.1195	612049	keystroke_a	a	n/a
306.2945	0.075	612589	keystroke_l	l	n/a
306.7295	0.09	613459	keystroke_a	a	n/a
307.3885	0.091	614777	keystroke_y	y	n/a
307.8095	0.059	615619	keystroke_s	s	n/a
307.9285	0.09	615857	keystroke_i	i	n/a
308.0335	0.075	616067	keystroke_a	a	n/a
308.199	0.09	616398	keystroke_Key.enter	Key.enter	n/a
308.3085	12.2825	616617	prompt	n/a	monsters proportion revenues capability\n
309.084	0.09	618168	keystroke_m	m	n/a
309.2195	0.075	618439	keystroke_o	o	n/a
309.354	0.105	618708	keystroke_n	n	n/a
309.624	0.075	619248	keystroke_s	s	n/a
309.789	0.075	619578	keystroke_t	t	n/a
309.924	0.075	619848	keystroke_e	e	n/a
309.985	0.1195	619970	keystroke_r	r	n/a
310.224	0.0895	620448	keystroke_s	s	n/a
310.344	0.075	620688	keystroke_Key.space	Key.space	n/a
310.5535	0.09	621107	keystroke_p	p	n/a
310.7335	0.0915	621467	keystroke_r	r	n/a
310.8535	0.0905	621707	keystroke_o	o	n/a
311.064	0.0905	622128	keystroke_p	p	n/a
311.364	0.075	622728	keystroke_o	o	n/a
311.5885	0.09	623177	keystroke_r	r	n/a
311.7845	0.075	623569	keystroke_t	t	n/a
312.009	0.1345	624018	keystroke_i	i	n/a
312.114	0.1505	624228	keystroke_o	o	n/a
312.205	0.1635	624410	keystroke_n	n	n/a
312.4135	0.0755	624827	keystroke_Key.space	Key.space	n/a
312.714	0.09	625428	keystroke_r	r	n/a
312.8345	0.105	625669	keystroke_e	e	n/a
313.1045	0.0895	626209	keystroke_v	v	n/a
313.3145	0.075	626629	keystroke_e	e	n/a
313.4495	0.104	626899	keystroke_n	n	n/a
313.6735	0.091	627347	keystroke_u	u	n/a
313.8095	0.15	627619	keystroke_s	s	n/a
314.289	0.09	628578	keystroke_Key.backspace	Key.backspace	n/a
314.529	0.075	629058	keystroke_e	e	n/a
314.7245	0.09	629449	keystroke_s	s	n/a
314.8735	0.09	629747	keystroke_Key.space	Key.space	n/a
315.129	0.09	630258	keystroke_c	c	n/a
315.264	0.105	630528	keystroke_a	a	n/a
315.5495	0.105	631099	keystroke_p	p	n/a
315.7295	0.105	631459	keystroke_a	a	n/a
316.269	0.0755	632538	keystroke_b	b	n/a
316.374	0.0905	632748	keystroke_i	i	n/a
316.554	0.09	633108	keystroke_t	t	n/a
316.764	0.075	633528	keystroke_i	i	n/a
317.574	0.075	635148	keystroke_Key.backspace	Key.backspace	n/a
318.0095	0.06	636019	keystroke_Key.backspace	Key.backspace	n/a
319.734	0.09	639468	keystroke_l	l	n/a
319.8845	0.075	639769	keystroke_i	i	n/a
320.004	0.0905	640008	keystroke_t	t	n/a
320.169	0.075	640338	keystroke_y	y	n/a
320.499	0.09	640998	keystroke_Key.enter	Key.enter	n/a
320.596	10.4345	641192	prompt	n/a	standards butler sperm singapore\n
321.31	0.074	642620	keystroke_s	s	n/a
321.4595	0.0745	642919	keystroke_t	t	n/a
321.639	0.091	643278	keystroke_a	a	n/a
321.699	0.105	643398	keystroke_n	n	n/a
321.849	0.106	643698	keystroke_d	d	n/a
322.015	0.089	644030	keystroke_a	a	n/a
322.074	0.135	644148	keystroke_r	r	n/a
322.3145	0.105	644629	keystroke_d	d	n/a
322.5095	0.06	645019	keystroke_s	s	n/a
322.6135	0.0905	645227	keystroke_Key.space	Key.space	n/a
322.884	0.06	645768	keystroke_b	b	n/a
323.0045	0.09	646009	keystroke_u	u	n/a
323.4095	0.09	646819	keystroke_t	t	n/a
323.7095	0.089	647419	keystroke_l	l	n/a
323.8585	0.106	647717	keystroke_e	e	n/a
323.9495	0.1055	647899	keystroke_r	r	n/a
324.0985	0.075	648197	keystroke_Key.space	Key.space	n/a
324.34	0.0895	648680	keystroke_s	s	n/a
324.535	0.105	649070	keystroke_p	p	n/a
324.759	0.1205	649518	keystroke_e	e	n/a
324.8495	0.12	649699	keystroke_r	r	n/a
325.104	0.1055	650208	keystroke_m	m	n/a
325.344	0.075	650688	keystroke_Key.space	Key.space	n/a
325.569	0.0905	651138	keystroke_s	s	n/a
325.689	0.075	651378	keystroke_i	i	n/a
325.823	0.091	651646	keystroke_g	g	n/a
326.3035	0.0755	652607	keystroke_n	n	n/a
326.409	0.1195	652818	keystroke_a	a	n/a
326.469	0.1355	652938	keystroke_g	g	n/a
327.069	0.0905	654138	keystroke_Key.backspace	Key.backspace	n/a
327.699	0.1195	655398	keystroke_p	p	n/a
327.9095	0.089	655819	keystroke_o	o	n/a
328.5235	0.015	657047	keystroke_Key.backspace	Key.backspace	n/a
328.6585	0.075	657317	keystroke_Key.backspace	Key.backspace	n/a
328.8235	0.075	657647	keystroke_Key.backspace	Key.backspace	n/a
329.0045	0.0745	658009	keystroke_Key.backspace	Key.backspace	n/a
329.785	0.1055	659570	keystroke_a	a	n/a
330.1435	0.091	660287	keystroke_p	p	n/a
330.3095	0.1045	660619	keystroke_o	o	n/a
330.399	0.0905	660798	keystroke_r	r	n/a
330.595	0.074	661190	keystroke_t	t	n/a
330.9385	0.09	661877	keystroke_Key.enter	Key.enter	n/a
331.037	6.8935	662074	prompt	n/a	accidents arise diameter gains\n
332.1245	0.105	664249	keystroke_a	a	n/a
332.349	0.0745	664698	keystroke_c	c	n/a
332.5285	0.0755	665057	keystroke_c	c	n/a
332.694	0.091	665388	keystroke_i	i	n/a
332.9495	0.09	665899	keystroke_d	d	n/a
333.1295	0.0605	666259	keystroke_e	e	n/a
333.234	0.076	666468	keystroke_n	n	n/a
333.325	0.0745	666650	keystroke_t	t	n/a
333.445	0.104	666890	keystroke_s	s	n/a
333.594	0.075	667188	keystroke_Key.space	Key.space	n/a
333.8785	0.121	667757	keystroke_a	a	n/a
334.0445	0.1055	668089	keystroke_r	r	n/a
334.6745	0.0745	669349	keystroke_i	i	n/a
334.8395	0.1045	669679	keystroke_s	s	n/a
334.974	0.105	669948	keystroke_e	e	n/a
335.124	0.075	670248	keystroke_Key.space	Key.space	n/a
335.3945	0.075	670789	keystroke_d	d	n/a
335.499	0.091	670998	keystroke_i	i	n/a
335.6485	0.12	671297	keystroke_a	a	n/a
335.979	0.0905	671958	keystroke_m	m	n/a
336.1295	0.0895	672259	keystroke_e	e	n/a
336.294	0.1055	672588	keystroke_t	t	n/a
336.4745	0.089	672949	keystroke_e	e	n/a
336.5345	0.105	673069	keystroke_r	r	n/a
336.6995	0.09	673399	keystroke_Key.space	Key.space	n/a
336.955	0.075	673910	keystroke_g	g	n/a
337.075	0.105	674150	keystroke_a	a	n/a
337.375	0.06	674750	keystroke_i	i	n/a
337.495	0.104	674990	keystroke_n	n	n/a
337.6295	0.0895	675259	keystroke_s	s	n/a
337.8395	0.0895	675679	keystroke_Key.enter	Key.enter	n/a
337.939	6.1415	675878	prompt	n/a	obesity hard outreach distance\n
338.6795	0.0745	677359	keystroke_o	o	n/a
338.8595	0.0745	677719	keystroke_b	b	n/a
339.5195	0.075	679039	keystroke_e	e	n/a
339.8345	0.09	679669	keystroke_s	s	n/a
339.9695	0.0895	679939	keystroke_i	i	n/a
340.075	0.074	680150	keystroke_t	t	n/a
340.195	0.09	680390	keystroke_y	y	n/a
340.27	0.089	680540	keystroke_Key.space	Key.space	n/a
340.495	0.0745	680990	keystroke_h	h	n/a
340.5995	0.12	681199	keystroke_a	a	n/a
340.6895	0.12	681379	keystroke_r	r	n/a
340.8995	0.104	681799	keystroke_d	d	n/a
341.0635	0.0455	682127	keystroke_Key.space	Key.space	n/a
341.2585	0.091	682517	keystroke_o	o	n/a
341.4545	0.09	682909	keystroke_u	u	n/a
341.5885	0.076	683177	keystroke_t	t	n/a
341.8735	0.076	683747	keystroke_r	r	n/a
342.0095	0.06	684019	keystroke_e	e	n/a
342.1595	0.105	684319	keystroke_a	a	n/a
342.3995	0.0895	684799	keystroke_c	c	n/a
342.5045	0.089	685009	keystroke_h	h	n/a
342.6245	0.09	685249	keystroke_Key.space	Key.space	n/a
342.7895	0.0895	685579	keystroke_d	d	n/a
342.8945	0.09	685789	keystroke_i	i	n/a
343.0435	0.0755	686087	keystroke_s	s	n/a
343.1945	0.0745	686389	keystroke_t	t	n/a
343.345	0.09	686690	keystroke_a	a	n/a
343.479	0.1055	686958	keystroke_n	n	n/a
343.599	0.075	687198	keystroke_c	c	n/a
343.779	0.075	687558	keystroke_e	e	n/a
343.989	0.09	687978	keystroke_Key.enter	Key.enter	n/a
344.094	6.332	688188	prompt	n/a	hero doll disciplines wanting\n
344.814	0.09	689628	keystroke_h	h	n/a
344.919	0.1055	689838	keystroke_e	e	n/a
345.009	0.1055	690018	keystroke_r	r	n/a
345.2345	0.089	690469	keystroke_o	o	n/a
345.369	0.06	690738	keystroke_Key.space	Key.space	n/a
345.61	0.074	691220	keystroke_d	d	n/a
345.744	0.075	691488	keystroke_o	o	n/a
346.194	0.045	692388	keystroke_l	l	n/a
346.315	0.089	692630	keystroke_l	l	n/a
346.4345	0.075	692869	keystroke_Key.space	Key.space	n/a
346.644	0.075	693288	keystroke_d	d	n/a
346.765	0.0895	693530	keystroke_i	i	n/a
346.9295	0.0895	693859	keystroke_s	s	n/a
347.455	0.09	694910	keystroke_c	c	n/a
347.634	0.091	695268	keystroke_i	i	n/a
348.04	0.089	696080	keystroke_p	p	n/a
348.264	0.0905	696528	keystroke_l	l	n/a
348.4445	0.0745	696889	keystroke_i	i	n/a
348.549	0.135	697098	keystroke_n	n	n/a
348.6695	0.0895	697339	keystroke_e	e	n/a
348.849	0.09	697698	keystroke_s	s	n/a
348.954	0.0895	697908	keystroke_Key.space	Key.space	n/a
349.315	0.0445	698630	keystroke_w	w	n/a
349.4045	0.105	698809	keystroke_a	a	n/a
349.555	0.0745	699110	keystroke_n	n	n/a
349.6595	0.089	699319	keystroke_t	t	n/a
349.9295	0.135	699859	keystroke_i	i	n/a
350.0195	0.15	700039	keystroke_n	n	n/a
350.1245	0.075	700249	keystroke_g	g	n/a
350.334	0.0895	700668	keystroke_Key.enter	Key.enter	n/a
350.4345	6.4415	700869	prompt	n/a	nights sweden science rolling\n
351.144	0.06	702288	keystroke_n	n	n/a
351.279	0.0755	702558	keystroke_i	i	n/a
351.384	0.075	702768	keystroke_g	g	n/a
351.474	0.09	702948	keystroke_h	h	n/a
351.579	0.061	703158	keystroke_t	t	n/a
351.744	0.09	703488	keystroke_s	s	n/a
351.894	0.045	703788	keystroke_Key.space	Key.space	n/a
352.1945	0.0895	704389	keystroke_s	s	n/a
352.464	0.09	704928	keystroke_w	w	n/a
352.869	0.09	705738	keystroke_e	e	n/a
353.1545	0.075	706309	keystroke_d	d	n/a
353.3345	0.075	706669	keystroke_e	e	n/a
353.44	0.1045	706880	keystroke_n	n	n/a
353.5745	0.075	707149	keystroke_Key.space	Key.space	n/a
353.8145	0.09	707629	keystroke_s	s	n/a
354.0685	0.091	708137	keystroke_c	c	n/a
354.519	0.09	709038	keystroke_i	i	n/a
354.9395	0.0905	709879	keystroke_e	e	n/a
355.059	0.091	710118	keystroke_n	n	n/a
355.194	0.0755	710388	keystroke_c	c	n/a
355.3745	0.0595	710749	keystroke_e	e	n/a
355.494	0.075	710988	keystroke_Key.space	Key.space	n/a
355.66	0.074	711320	keystroke_r	r	n/a
355.809	0.1055	711618	keystroke_o	o	n/a
356.0495	0.0755	712099	keystroke_l	l	n/a
356.184	0.0755	712368	keystroke_l	l	n/a
356.349	0.1205	712698	keystroke_i	i	n/a
356.44	0.1645	712880	keystroke_n	n	n/a
356.53	0.1045	713060	keystroke_g	g	n/a
356.7995	0.074	713599	keystroke_Key.enter	Key.enter	n/a
356.882	8.605	713764	prompt	n/a	latino valium attendance contact\n
357.625	0.09	715250	keystroke_l	l	n/a
357.73	0.1185	715460	keystroke_a	a	n/a
358.119	0.075	716238	keystroke_t	t	n/a
358.2545	0.0445	716509	keystroke_i	i	n/a
358.3745	0.09	716749	keystroke_n	n	n/a
358.5545	0.09	717109	keystroke_o	o	n/a
358.7045	0.075	717409	keystroke_Key.space	Key.space	n/a
359.2285	0.046	718457	keystroke_v	v	n/a
359.3045	0.105	718609	keystroke_a	a	n/a
359.5585	0.1055	719117	keystroke_l	l	n/a
359.8145	0.075	719629	keystroke_i	i	n/a
360.069	0.0755	720138	keystroke_u	u	n/a
360.264	0.09	720528	keystroke_m	m	n/a
360.429	0.09	720858	keystroke_Key.space	Key.space	n/a
360.654	0.105	721308	keystroke_a	a	n/a
360.864	0.06	721728	keystroke_t	t	n/a
361.0145	0.075	722029	keystroke_t	t	n/a
361.2385	0.075	722477	keystroke_e	e	n/a
361.3735	0.106	722747	keystroke_n	n	n/a
362.5595	0.105	725119	keystroke_d	d	n/a
363.3245	0.045	726649	keystroke_a	a	n/a
363.3845	0.105	726769	keystroke_n	n	n/a
363.4895	0.09	726979	keystroke_c	c	n/a
363.684	0.0745	727368	keystroke_e	e	n/a
363.819	0.0755	727638	keystroke_Key.space	Key.space	n/a
364.404	0.1055	728808	keystroke_c	c	n/a
364.479	0.1355	728958	keystroke_o	o	n/a
364.5695	0.1505	729139	keystroke_n	n	n/a
364.734	0.06	729468	keystroke_t	t	n/a
364.839	0.1055	729678	keystroke_a	a	n/a
365.0345	0.0905	730069	keystroke_c	c	n/a
365.1995	0.0745	730399	keystroke_t	t	n/a
365.3935	0.09	730787	keystroke_Key.enter	Key.enter	n/a
365.4925	6.383	730985	prompt	n/a	upper social excitement jumping\n
366.1595	0.059	732319	keystroke_u	u	n/a
366.3395	0.0755	732679	keystroke_p	p	n/a
366.5045	0.075	733009	keystroke_p	p	n/a
366.5945	0.105	733189	keystroke_e	e	n/a
366.6845	0.105	733369	keystroke_r	r	n/a
366.8045	0.075	733609	keystroke_Key.space	Key.space	n/a
367.0445	0.105	734089	keystroke_s	s	n/a
367.1795	0.075	734359	keystroke_o	o	n/a
367.434	0.015	734868	keystroke_c	c	n/a
367.464	0.0605	734928	keystroke_i	i	n/a
367.554	0.106	735108	keystroke_a	a	n/a
367.674	0.09	735348	keystroke_l	l	n/a
367.764	0.09	735528	keystroke_Key.space	Key.space	n/a
368.0195	0.075	736039	keystroke_e	e	n/a
368.2595	0.09	736519	keystroke_x	x	n/a
368.7545	0.09	737509	keystroke_c	c	n/a
368.9195	0.076	737839	keystroke_i	i	n/a
369.234	0.06	738468	keystroke_t	t	n/a
369.669	0.09	739338	keystroke_e	e	n/a
369.924	0.061	739848	keystroke_m	m	n/a
370.015	0.075	740030	keystroke_e	e	n/a
370.1045	0.09	740209	keystroke_n	n	n/a
370.2095	0.075	740419	keystroke_t	t	n/a
370.3145	0.074	740629	keystroke_Key.space	Key.space	n/a
370.6295	0.075	741259	keystroke_j	j	n/a
370.7945	0.0745	741589	keystroke_u	u	n/a
370.9595	0.0895	741919	keystroke_m	m	n/a
371.139	0.09	742278	keystroke_p	p	n/a
371.379	0.105	742758	keystroke_i	i	n/a
371.4695	0.1365	742939	keystroke_n	n	n/a
371.59	0.089	743180	keystroke_g	g	n/a
371.784	0.09	743568	keystroke_Key.enter	Key.enter	n/a
371.88	6.0255	743760	prompt	n/a	plans recommendation tulsa said\n
372.489	0.075	744978	keystroke_p	p	n/a
372.67	0.09	745340	keystroke_l	l	n/a
372.79	0.105	745580	keystroke_a	a	n/a
372.91	0.104	745820	keystroke_n	n	n/a
373.029	0.105	746058	keystroke_s	s	n/a
373.1645	0.0745	746329	keystroke_Key.space	Key.space	n/a
373.435	0.089	746870	keystroke_r	r	n/a
373.584	0.075	747168	keystroke_e	e	n/a
373.854	0.091	747708	keystroke_c	c	n/a
373.929	0.075	747858	keystroke_o	o	n/a
373.9895	0.12	747979	keystroke_m	m	n/a
374.229	0.075	748458	keystroke_m	m	n/a
374.32	0.09	748640	keystroke_e	e	n/a
374.4395	0.1045	748879	keystroke_n	n	n/a
374.5745	0.09	749149	keystroke_d	d	n/a
374.7845	0.104	749569	keystroke_a	a	n/a
374.859	0.0905	749718	keystroke_t	t	n/a
374.9505	0.1485	749901	keystroke_i	i	n/a
375.055	0.15	750110	keystroke_o	o	n/a
375.16	0.149	750320	keystroke_n	n	n/a
375.3245	0.0445	750649	keystroke_Key.space	Key.space	n/a
375.534	0.076	751068	keystroke_t	t	n/a
375.654	0.09	751308	keystroke_u	u	n/a
375.909	0.105	751818	keystroke_l	l	n/a
376.119	0.091	752238	keystroke_s	s	n/a
376.2545	0.1195	752509	keystroke_a	a	n/a
376.554	0.06	753108	keystroke_Key.space	Key.space	n/a
376.764	0.0755	753528	keystroke_s	s	n/a
377.0795	0.1055	754159	keystroke_a	a	n/a
377.304	0.06	754608	keystroke_i	i	n/a
377.574	0.06	755148	keystroke_d	d	n/a
377.8145	0.0895	755629	keystroke_Key.enter	Key.enter	n/a
377.912	4.765	755824	prompt	n/a	rock social gain guru\n
378.625	0.089	757250	keystroke_r	r	n/a
378.744	0.105	757488	keystroke_o	o	n/a
378.9095	0.104	757819	keystroke_c	c	n/a
379.0285	0.1055	758057	keystroke_k	k	n/a
379.1485	0.075	758297	keystroke_Key.space	Key.space	n/a
379.3435	0.091	758687	keystroke_s	s	n/a
379.48	0.0745	758960	keystroke_o	o	n/a
379.6745	0.0895	759349	keystroke_c	c	n/a
379.7945	0.074	759589	keystroke_i	i	n/a
379.914	0.09	759828	keystroke_a	a	n/a
380.0335	0.121	760067	keystroke_l	l	n/a
380.1385	0.075	760277	keystroke_Key.space	Key.space	n/a
380.424	0.075	760848	keystroke_g	g	n/a
380.574	0.1055	761148	keystroke_a	a	n/a
380.6945	0.135	761389	keystroke_i	i	n/a
380.799	0.1355	761598	keystroke_n	n	n/a
380.9345	0.074	761869	keystroke_Key.space	Key.space	n/a
381.3995	0.09	762799	keystroke_g	g	n/a
381.5345	0.09	763069	keystroke_u	u	n/a
381.76	0.0745	763520	keystroke_r	r	n/a
382.1345	0.075	764269	keystroke_u	u	n/a
382.5845	0.089	765169	keystroke_Key.enter	Key.enter	n/a
382.6935	9.582	765387	prompt	n/a	chapter balanced logistics adjacent\n
383.5895	0.0745	767179	keystroke_c	c	n/a
383.7095	0.09	767419	keystroke_h	h	n/a
384.1595	0.105	768319	keystroke_a	a	n/a
384.5485	0.105	769097	keystroke_p	p	n/a
384.909	0.075	769818	keystroke_t	t	n/a
385.089	0.0755	770178	keystroke_e	e	n/a
385.1495	0.105	770299	keystroke_r	r	n/a
385.3135	0.09	770627	keystroke_Key.space	Key.space	n/a
385.8695	0.075	771739	keystroke_b	b	n/a
386.065	0.0895	772130	keystroke_l	l	n/a
386.6345	0.0745	773269	keystroke_Key.backspace	Key.backspace	n/a
386.8885	0.106	773777	keystroke_a	a	n/a
387.2495	0.1045	774499	keystroke_l	l	n/a
387.64	0.104	775280	keystroke_a	a	n/a
387.789	0.0905	775578	keystroke_n	n	n/a
387.8945	0.09	775789	keystroke_c	c	n/a
388.0745	0.075	776149	keystroke_e	e	n/a
388.2395	0.089	776479	keystroke_d	d	n/a
388.3435	0.075	776687	keystroke_Key.space	Key.space	n/a
388.5995	0.075	777199	keystroke_l	l	n/a
388.7945	0.075	777589	keystroke_o	o	n/a
388.9595	0.075	777919	keystroke_g	g	n/a
389.1245	0.074	778249	keystroke_i	i	n/a
389.304	0.0755	778608	keystroke_s	s	n/a
389.4395	0.074	778879	keystroke_t	t	n/a
389.634	0.076	779268	keystroke_i	i	n/a
389.844	0.09	779688	keystroke_c	c	n/a
390.1	0.074	780200	keystroke_s	s	n/a
390.249	0.09	780498	keystroke_Key.space	Key.space	n/a
390.609	0.09	781218	keystroke_a	a	n/a
390.819	0.091	781638	keystroke_d	d	n/a
391.089	0.105	782178	keystroke_j	j	n/a
391.239	0.09	782478	keystroke_a	a	n/a
391.479	0.105	782958	keystroke_c	c	n/a
391.8245	0.0755	783649	keystroke_e	e	n/a
391.9305	0.089	783861	keystroke_n	n	n/a
392.0345	0.075	784069	keystroke_t	t	n/a
392.1995	0.074	784399	keystroke_Key.enter	Key.enter	n/a
392.292	9.163	784584	prompt	n/a	tobacco loans approximate fraction\n
393.175	0.0145	786350	keystroke_t	t	n/a
393.2495	0.0905	786499	keystroke_o	o	n/a
393.4145	0.074	786829	keystroke_b	b	n/a
393.549	0.1195	787098	keystroke_a	a	n/a
393.909	0.075	787818	keystroke_c	c	n/a
394.089	0.0755	788178	keystroke_c	c	n/a
394.2535	0.0905	788507	keystroke_o	o	n/a
394.449	0.059	788898	keystroke_Key.space	Key.space	n/a
394.7045	0.075	789409	keystroke_l	l	n/a
394.8835	0.076	789767	keystroke_o	o	n/a
395.0795	0.09	790159	keystroke_a	a	n/a
395.2895	0.075	790579	keystroke_d	d	n/a
395.4245	0.09	790849	keystroke_n	n	n/a
396.174	0.045	792348	keystroke_Key.backspace	Key.backspace	n/a
396.294	0.075	792588	keystroke_Key.backspace	Key.backspace	n/a
396.549	0.075	793098	keystroke_n	n	n/a
396.9995	0.09	793999	keystroke_s	s	n/a
397.2535	0.076	794507	keystroke_Key.space	Key.space	n/a
397.749	0.1055	795498	keystroke_a	a	n/a
397.914	0.075	795828	keystroke_p	p	n/a
398.064	0.09	796128	keystroke_p	p	n/a
398.1995	0.0895	796399	keystroke_r	r	n/a
398.35	0.089	796700	keystroke_o	o	n/a
398.8745	0.1045	797749	keystroke_x	x	n/a
398.994	0.09	797988	keystroke_i	i	n/a
399.219	0.105	798438	keystroke_m	m	n/a
399.294	0.135	798588	keystroke_a	a	n/a
399.3995	0.12	798799	keystroke_t	t	n/a
399.5495	0.1045	799099	keystroke_e	e	n/a
399.699	0.06	799398	keystroke_Key.space	Key.space	n/a
400.0145	0.075	800029	keystroke_f	f	n/a
400.239	0.075	800478	keystroke_r	r	n/a
400.405	0.0895	800810	keystroke_a	a	n/a
400.6295	0.075	801259	keystroke_c	c	n/a
400.7935	0.061	801587	keystroke_t	t	n/a
400.8695	0.1195	801739	keystroke_i	i	n/a
400.959	0.15	801918	keystroke_o	o	n/a
401.079	0.119	802158	keystroke_n	n	n/a
401.364	0.09	802728	keystroke_Key.enter	Key.enter	n/a
401.4605	7.482	802921	prompt	n/a	retailers hint verde china\n
402.204	0.1055	804408	keystroke_r	r	n/a
402.339	0.105	804678	keystroke_e	e	n/a
402.6385	0.06	805277	keystroke_t	t	n/a
402.879	0.12	805758	keystroke_a	a	n/a
403.344	0.09	806688	keystroke_i	i	n/a
403.869	0.12	807738	keystroke_l	l	n/a
404.079	0.09	808158	keystroke_e	e	n/a
404.184	0.105	808368	keystroke_r	r	n/a
404.4245	0.089	808849	keystroke_s	s	n/a
404.5735	0.076	809147	keystroke_Key.space	Key.space	n/a
404.813	0.061	809626	keystroke_h	h	n/a
404.9645	0.0895	809929	keystroke_i	i	n/a
405.0695	0.1195	810139	keystroke_n	n	n/a
405.2345	0.0895	810469	keystroke_t	t	n/a
405.414	0.075	810828	keystroke_Key.space	Key.space	n/a
405.774	0.075	811548	keystroke_v	v	n/a
406.044	0.12	812088	keystroke_e	e	n/a
406.119	0.12	812238	keystroke_r	r	n/a
406.509	0.06	813018	keystroke_d	d	n/a
406.674	0.06	813348	keystroke_e	e	n/a
406.809	0.075	813618	keystroke_Key.space	Key.space	n/a
407.034	0.075	814068	keystroke_c	c	n/a
407.139	0.09	814278	keystroke_h	h	n/a
407.319	0.09	814638	keystroke_a	a	n/a
407.4395	0.1045	814879	keystroke_i	i	n/a
407.904	0.0595	815808	keystroke_Key.backspace	Key.backspace	n/a
408.054	0.0755	816108	keystroke_Key.backspace	Key.backspace	n/a
408.2945	0.074	816589	keystroke_i	i	n/a
408.549	0.0745	817098	keystroke_n	n	n/a
408.669	0.106	817338	keystroke_a	a	n/a
408.849	0.0905	817698	keystroke_Key.enter	Key.enter	n/a
408.9595	6.251	817919	prompt	n/a	quarterly talent angel giant\n
409.915	0.0745	819830	keystroke_q	q	n/a
410.0345	0.075	820069	keystroke_u	u	n/a
410.2445	0.104	820489	keystroke_a	a	n/a
410.9185	0.091	821837	keystroke_r	r	n/a
411.16	0.074	822320	keystroke_t	t	n/a
411.339	0.105	822678	keystroke_e	e	n/a
411.4295	0.0895	822859	keystroke_r	r	n/a
411.64	0.089	823280	keystroke_l	l	n/a
411.7895	0.0905	823579	keystroke_y	y	n/a
411.939	0.045	823878	keystroke_Key.space	Key.space	n/a
412.119	0.076	824238	keystroke_t	t	n/a
412.2545	0.1055	824509	keystroke_a	a	n/a
412.4645	0.1055	824929	keystroke_l	l	n/a
412.6145	0.074	825229	keystroke_e	e	n/a
412.7195	0.105	825439	keystroke_n	n	n/a
412.8085	0.0915	825617	keystroke_t	t	n/a
412.944	0.0755	825888	keystroke_Key.space	Key.space	n/a
413.1995	0.12	826399	keystroke_a	a	n/a
413.3345	0.105	826669	keystroke_n	n	n/a
413.574	0.0755	827148	keystroke_g	g	n/a
413.7245	0.105	827449	keystroke_e	e	n/a
413.8445	0.12	827689	keystroke_l	l	n/a
413.9795	0.0745	827959	keystroke_Key.space	Key.space	n/a
414.3095	0.075	828619	keystroke_g	g	n/a
414.4595	0.075	828919	keystroke_i	i	n/a
414.609	0.105	829218	keystroke_a	a	n/a
414.7295	0.0895	829459	keystroke_n	n	n/a
414.909	0.076	829818	keystroke_t	t	n/a
415.1185	0.09	830237	keystroke_Key.enter	Key.enter	n/a
415.2295	8.156	830459	prompt	n/a	sphere speech boutique raleigh\n
416.2895	0.105	832579	keystroke_s	s	n/a
416.664	0.09	833328	keystroke_p	p	n/a
416.889	0.0905	833778	keystroke_h	h	n/a
417.024	0.135	834048	keystroke_e	e	n/a
417.144	0.136	834288	keystroke_r	r	n/a
417.264	0.105	834528	keystroke_e	e	n/a
417.595	0.074	835190	keystroke_Key.space	Key.space	n/a
417.834	0.105	835668	keystroke_s	s	n/a
418.059	0.105	836118	keystroke_p	p	n/a
418.284	0.06	836568	keystroke_e	e	n/a
418.434	0.0755	836868	keystroke_e	e	n/a
418.659	0.075	837318	keystroke_c	c	n/a
418.749	0.075	837498	keystroke_h	h	n/a
418.839	0.09	837678	keystroke_Key.space	Key.space	n/a
419.454	0.0755	838908	keystroke_b	b	n/a
419.635	0.1185	839270	keystroke_o	o	n/a
419.709	0.1345	839418	keystroke_u	u	n/a
419.9635	0.075	839927	keystroke_t	t	n/a
420.1135	0.0905	840227	keystroke_i	i	n/a
420.3235	0.075	840647	keystroke_q	q	n/a
420.429	0.0895	840858	keystroke_u	u	n/a
420.624	0.0745	841248	keystroke_e	e	n/a
420.804	0.0745	841608	keystroke_Key.space	Key.space	n/a
421.4195	0.09	842839	keystroke_r	r	n/a
421.6595	0.105	843319	keystroke_a	a	n/a
421.9745	0.1045	843949	keystroke_l	l	n/a
422.1235	0.075	844247	keystroke_e	e	n/a
422.6345	0.074	845269	keystroke_i	i	n/a
422.8745	0.059	845749	keystroke_g	g	n/a
422.9635	0.091	845927	keystroke_h	h	n/a
423.2935	0.09	846587	keystroke_Key.enter	Key.enter	n/a
423.391	9.145	846782	prompt	n/a	peninsula disease tags diffs\n
424.1645	0.119	848329	keystroke_p	p	n/a
424.3285	0.105	848657	keystroke_e	e	n/a
424.974	0.0755	849948	keystroke_n	n	n/a
425.1245	0.0905	850249	keystroke_i	i	n/a
425.919	0.075	851838	keystroke_n	n	n/a
426.384	0.106	852768	keystroke_s	s	n/a
426.475	0.0745	852950	keystroke_u	u	n/a
426.654	0.12	853308	keystroke_l	l	n/a
426.759	0.09	853518	keystroke_a	a	n/a
426.924	0.075	853848	keystroke_Key.space	Key.space	n/a
427.3745	0.09	854749	keystroke_d	d	n/a
427.5085	0.09	855017	keystroke_i	i	n/a
427.689	0.0905	855378	keystroke_s	s	n/a
428.3195	0.015	856639	keystroke_e	e	n/a
428.3645	0.105	856729	keystroke_a	a	n/a
428.6335	0.076	857267	keystroke_s	s	n/a
428.7235	0.0915	857447	keystroke_e	e	n/a
428.889	0.0755	857778	keystroke_Key.space	Key.space	n/a
429.0845	0.075	858169	keystroke_t	t	n/a
429.219	0.0905	858438	keystroke_a	a	n/a
429.324	0.105	858648	keystroke_g	g	n/a
429.489	0.105	858978	keystroke_s	s	n/a
429.624	0.075	859248	keystroke_Key.space	Key.space	n/a
429.879	0.074	859758	keystroke_d	d	n/a
430.059	0.0745	860118	keystroke_i	i	n/a
430.1945	0.06	860389	keystroke_f	f	n/a
430.3595	0.06	860719	keystroke_f	f	n/a
431.049	0.1055	862098	keystroke_=	=	n/a
431.7395	0.1045	863479	keystroke_Key.backspace	Key.backspace	n/a
432.1595	0.09	864319	keystroke_s	s	n/a
432.4585	0.075	864917	keystroke_Key.enter	Key.enter	n/a
432.5405	10.0755	865081	prompt	n/a	genealogy balanced cliff riverside\n
433.599	0.0755	867198	keystroke_g	g	n/a
433.765	0.059	867530	keystroke_e	e	n/a
433.915	0.0745	867830	keystroke_n	n	n/a
434.019	0.075	868038	keystroke_e	e	n/a
434.619	0.105	869238	keystroke_a	a	n/a
434.904	0.075	869808	keystroke_l	l	n/a
435.085	0.0585	870170	keystroke_o	o	n/a
435.2345	0.0745	870469	keystroke_g	g	n/a
435.3685	0.076	870737	keystroke_y	y	n/a
435.4895	0.0595	870979	keystroke_Key.space	Key.space	n/a
435.895	0.06	871790	keystroke_b	b	n/a
436.0595	0.0905	872119	keystroke_l	l	n/a
436.704	0.06	873408	keystroke_Key.backspace	Key.backspace	n/a
436.99	0.0895	873980	keystroke_a	a	n/a
437.3185	0.075	874637	keystroke_l	l	n/a
437.679	0.0895	875358	keystroke_a	a	n/a
437.7985	0.09	875597	keystroke_n	n	n/a
437.874	0.0905	875748	keystroke_c	c	n/a
438.0685	0.061	876137	keystroke_e	e	n/a
438.325	0.015	876650	keystroke_d	d	n/a
438.3535	0.075	876707	keystroke_Key.space	Key.space	n/a
438.625	0.0895	877250	keystroke_c	c	n/a
438.7595	0.1195	877519	keystroke_l	l	n/a
438.9085	0.0905	877817	keystroke_i	i	n/a
439.374	0.075	878748	keystroke_f	f	n/a
439.524	0.075	879048	keystroke_f	f	n/a
439.7195	0.06	879439	keystroke_Key.space	Key.space	n/a
440.1095	0.09	880219	keystroke_r	r	n/a
440.4695	0.0895	880939	keystroke_i	i	n/a
440.664	0.06	881328	keystroke_v	v	n/a
440.814	0.09	881628	keystroke_e	e	n/a
440.8885	0.106	881777	keystroke_r	r	n/a
441.174	0.075	882348	keystroke_d	d	n/a
441.699	0.076	883398	keystroke_Key.backspace	Key.backspace	n/a
441.985	0.074	883970	keystroke_s	s	n/a
442.089	0.075	884178	keystroke_i	i	n/a
442.179	0.075	884358	keystroke_d	d	n/a
442.329	0.075	884658	keystroke_e	e	n/a
442.524	0.09	885048	keystroke_Key.enter	Key.enter	n/a
442.62	10.5105	885240	prompt	n/a	consequently kill zoloft philippines\n
443.5295	0.0895	887059	keystroke_c	c	n/a
443.604	0.151	887208	keystroke_o	o	n/a
443.724	0.135	887448	keystroke_n	n	n/a
443.919	0.1055	887838	keystroke_s	s	n/a
444.129	0.091	888258	keystroke_e	e	n/a
444.324	0.105	888648	keystroke_q	q	n/a
444.444	0.09	888888	keystroke_u	u	n/a
444.774	0.075	889548	keystroke_e	e	n/a
444.879	0.09	889758	keystroke_n	n	n/a
444.97	0.074	889940	keystroke_t	t	n/a
445.1345	0.12	890269	keystroke_l	l	n/a
445.269	0.1045	890538	keystroke_y	y	n/a
445.3885	0.075	890777	keystroke_Key.space	Key.space	n/a
445.659	0.0755	891318	keystroke_k	k	n/a
445.839	0.075	891678	keystroke_i	i	n/a
446.034	0.075	892068	keystroke_l	l	n/a
446.169	0.0895	892338	keystroke_l	l	n/a
446.2885	0.105	892577	keystroke_Key.space	Key.space	n/a
446.904	0.105	893808	keystroke_z	z	n/a
447.024	0.0755	894048	keystroke_o	o	n/a
447.2045	0.0745	894409	keystroke_l	l	n/a
447.369	0.091	894738	keystroke_o	o	n/a
448.27	0.045	896540	keystroke_f	f	n/a
448.375	0.0745	896750	keystroke_t	t	n/a
448.584	0.075	897168	keystroke_Key.space	Key.space	n/a
448.8245	0.074	897649	keystroke_p	p	n/a
448.975	0.09	897950	keystroke_h	h	n/a
449.2745	0.0905	898549	keystroke_i	i	n/a
449.544	0.091	899088	keystroke_l	l	n/a
450.0385	0.091	900077	keystroke_i	i	n/a
450.3835	0.0905	900767	keystroke_p	p	n/a
451.029	0.09	902058	keystroke_p	p	n/a
451.3595	0.0605	902719	keystroke_i	i	n/a
451.494	0.12	902988	keystroke_n	n	n/a
452.1385	0.09	904277	keystroke_e	e	n/a
452.7685	0.09	905537	keystroke_s	s	n/a
453.0385	0.09	906077	keystroke_Key.enter	Key.enter	n/a
453.1385	8.184	906277	prompt	n/a	nancy certified challenges performer\n
454.089	0.015	908178	keystroke_n	n	n/a
454.329	0.105	908658	keystroke_a	a	n/a
454.765	0.0745	909530	keystroke_n	n	n/a
455.0335	0.076	910067	keystroke_c	c	n/a
455.1395	0.09	910279	keystroke_y	y	n/a
455.2735	0.076	910547	keystroke_Key.space	Key.space	n/a
455.515	0.09	911030	keystroke_c	c	n/a
455.7095	0.0755	911419	keystroke_e	e	n/a
455.7695	0.1045	911539	keystroke_r	r	n/a
456.399	0.09	912798	keystroke_t	t	n/a
456.564	0.091	913128	keystroke_i	i	n/a
456.789	0.075	913578	keystroke_f	f	n/a
456.909	0.075	913818	keystroke_i	i	n/a
457.12	0.0595	914240	keystroke_e	e	n/a
457.2995	0.09	914599	keystroke_d	d	n/a
457.4495	0.075	914899	keystroke_Key.space	Key.space	n/a
457.6745	0.09	915349	keystroke_c	c	n/a
457.794	0.0755	915588	keystroke_h	h	n/a
457.959	0.121	915918	keystroke_a	a	n/a
458.454	0.06	916908	keystroke_l	l	n/a
458.5895	0.0895	917179	keystroke_l	l	n/a
458.709	0.076	917418	keystroke_e	e	n/a
458.844	0.0905	917688	keystroke_n	n	n/a
459.009	0.075	918018	keystroke_g	g	n/a
459.1445	0.0745	918289	keystroke_e	e	n/a
459.3095	0.075	918619	keystroke_s	s	n/a
459.4285	0.075	918857	keystroke_Key.space	Key.space	n/a
459.6995	0.104	919399	keystroke_p	p	n/a
459.8335	0.0915	919667	keystroke_e	e	n/a
459.8945	0.135	919789	keystroke_r	r	n/a
460.2395	0.09	920479	keystroke_f	f	n/a
460.4195	0.09	920839	keystroke_o	o	n/a
460.5245	0.105	921049	keystroke_r	r	n/a
460.8095	0.074	921619	keystroke_m	m	n/a
460.9145	0.0905	921829	keystroke_e	e	n/a
460.9905	0.1045	921981	keystroke_r	r	n/a
461.2295	0.09	922459	keystroke_Key.enter	Key.enter	n/a
461.3325	11.223	922665	prompt	n/a	powerpoint spectrum why's creating\n
462.0245	0.09	924049	keystroke_p	p	n/a
462.2035	0.091	924407	keystroke_o	o	n/a
462.3995	0.089	924799	keystroke_w	w	n/a
462.5945	0.1045	925189	keystroke_e	e	n/a
462.6685	0.15	925337	keystroke_r	r	n/a
462.864	0.0595	925728	keystroke_Key.space	Key.space	n/a
463.3135	0.091	926627	keystroke_Key.backspace	Key.backspace	n/a
463.6155	0.089	927231	keystroke_p	p	n/a
463.825	0.0755	927650	keystroke_o	o	n/a
464.0195	0.045	928039	keystroke_i	i	n/a
464.154	0.091	928308	keystroke_n	n	n/a
464.274	0.075	928548	keystroke_t	t	n/a
464.364	0.075	928728	keystroke_Key.space	Key.space	n/a
464.665	0.089	929330	keystroke_s	s	n/a
464.829	0.106	929658	keystroke_p	p	n/a
465.0545	0.09	930109	keystroke_e	e	n/a
465.3545	0.09	930709	keystroke_c	c	n/a
465.6545	0.089	931309	keystroke_t	t	n/a
466.074	0.075	932148	keystroke_r	r	n/a
466.195	0.074	932390	keystroke_u	u	n/a
466.36	0.089	932720	keystroke_m	m	n/a
466.509	0.06	933018	keystroke_Key.space	Key.space	n/a
466.825	0.0745	933650	keystroke_w	w	n/a
466.915	0.0595	933830	keystroke_h	h	n/a
467.0795	0.06	934159	keystroke_y	y	n/a
467.29	0.1195	934580	keystroke_'	'	n/a
467.4545	0.0745	934909	keystroke_s	s	n/a
467.559	0.09	935118	keystroke_Key.space	Key.space	n/a
467.875	0.074	935750	keystroke_c	c	n/a
468.0695	0.0745	936139	keystroke_r	r	n/a
468.175	0.075	936350	keystroke_e	e	n/a
468.3845	0.09	936769	keystroke_t	t	n/a
468.6395	0.135	937279	keystroke_i	i	n/a
468.7295	0.18	937459	keystroke_n	n	n/a
468.8945	0.09	937789	keystroke_g	g	n/a
469.5395	0.09	939079	keystroke_.	.	n/a
470.244	0.045	940488	keystroke_Key.backspace	Key.backspace	n/a
470.424	0.061	940848	keystroke_Key.backspace	Key.backspace	n/a
470.589	0.06	941178	keystroke_Key.backspace	Key.backspace	n/a
470.769	0.0755	941538	keystroke_Key.backspace	Key.backspace	n/a
470.979	0.06	941958	keystroke_Key.backspace	Key.backspace	n/a
471.715	0.119	943430	keystroke_a	a	n/a
471.9695	0.0595	943939	keystroke_t	t	n/a
472.0595	0.1345	944119	keystroke_i	i	n/a
472.149	0.1655	944298	keystroke_n	n	n/a
472.254	0.105	944508	keystroke_g	g	n/a
472.464	0.0895	944928	keystroke_Key.enter	Key.enter	n/a
472.5585	5.537	945117	prompt	n/a	pass results produced national\n
473.2145	0.104	946429	keystroke_p	p	n/a
473.3645	0.105	946729	keystroke_a	a	n/a
473.5735	0.046	947147	keystroke_s	s	n/a
473.709	0.09	947418	keystroke_s	s	n/a
473.829	0.09	947658	keystroke_Key.space	Key.space	n/a
474.145	0.0895	948290	keystroke_r	r	n/a
474.279	0.0905	948558	keystroke_e	e	n/a
474.639	0.0755	949278	keystroke_s	s	n/a
474.73	0.074	949460	keystroke_u	u	n/a
474.909	0.1055	949818	keystroke_l	l	n/a
475.029	0.076	950058	keystroke_t	t	n/a
475.209	0.0905	950418	keystroke_s	s	n/a
475.3435	0.0755	950687	keystroke_Key.space	Key.space	n/a
475.5395	0.0905	951079	keystroke_p	p	n/a
475.6445	0.089	951289	keystroke_r	r	n/a
475.749	0.0905	951498	keystroke_o	o	n/a
475.96	0.0745	951920	keystroke_d	d	n/a
476.0645	0.075	952129	keystroke_u	u	n/a
476.1845	0.09	952369	keystroke_c	c	n/a
476.4395	0.015	952879	keystroke_e	e	n/a
476.529	0.0745	953058	keystroke_d	d	n/a
476.634	0.0755	953268	keystroke_Key.space	Key.space	n/a
476.9035	0.091	953807	keystroke_n	n	n/a
477.0245	0.1195	954049	keystroke_a	a	n/a
477.219	0.09	954438	keystroke_t	t	n/a
477.31	0.119	954620	keystroke_i	i	n/a
477.3995	0.1495	954799	keystroke_o	o	n/a
477.5045	0.134	955009	keystroke_n	n	n/a
477.6095	0.1345	955219	keystroke_a	a	n/a
477.759	0.121	955518	keystroke_l	l	n/a
477.9995	0.09	955999	keystroke_Key.enter	Key.enter	n/a
478.106	7.8745	956212	prompt	n/a	fork yukon digest survey\n
478.975	0.015	957950	keystroke_f	f	n/a
479.005	0.0145	958010	keystroke_o	o	n/a
479.0345	0.0605	958069	keystroke_r	r	n/a
479.4395	0.075	958879	keystroke_k	k	n/a
479.709	0.06	959418	keystroke_Key.space	Key.space	n/a
479.979	0.09	959958	keystroke_y	y	n/a
480.189	0.09	960378	keystroke_u	u	n/a
480.519	0.0755	961038	keystroke_k	k	n/a
480.684	0.076	961368	keystroke_o	o	n/a
480.7745	0.1195	961549	keystroke_n	n	n/a
480.939	0.075	961878	keystroke_Key.space	Key.space	n/a
481.1795	0.0755	962359	keystroke_d	d	n/a
481.6435	0.061	963287	keystroke_i	i	n/a
481.959	0.075	963918	keystroke_g	g	n/a
482.109	0.076	964218	keystroke_e	e	n/a
482.68	0.0745	965360	keystroke_s	s	n/a
482.829	0.0905	965658	keystroke_t	t	n/a
484.2985	0.06	968597	keystroke_Key.space	Key.space	n/a
484.5835	0.0905	969167	keystroke_s	s	n/a
485.109	0.075	970218	keystroke_u	u	n/a
485.199	0.075	970398	keystroke_r	r	n/a
485.394	0.075	970788	keystroke_v	v	n/a
485.544	0.0605	971088	keystroke_e	e	n/a
485.664	0.09	971328	keystroke_y	y	n/a
485.8745	0.104	971749	keystroke_Key.enter	Key.enter	n/a
485.985	7.7355	971970	prompt	n/a	korean bookmark clothes surge\n
486.9695	0.06	973939	keystroke_k	k	n/a
487.119	0.0895	974238	keystroke_o	o	n/a
487.3435	0.091	974687	keystroke_r	r	n/a
487.4795	0.061	974959	keystroke_e	e	n/a
487.5995	0.135	975199	keystroke_a	a	n/a
487.7495	0.09	975499	keystroke_n	n	n/a
487.8845	0.0745	975769	keystroke_Key.space	Key.space	n/a
488.244	0.015	976488	keystroke_b	b	n/a
488.304	0.075	976608	keystroke_o	o	n/a
488.454	0.0755	976908	keystroke_o	o	n/a
489.0245	0.0755	978049	keystroke_k	k	n/a
489.4885	0.091	978977	keystroke_m	m	n/a
489.6245	0.105	979249	keystroke_a	a	n/a
489.6995	0.104	979399	keystroke_r	r	n/a
489.8945	0.075	979789	keystroke_k	k	n/a
490.0445	0.0595	980089	keystroke_Key.space	Key.space	n/a
490.284	0.075	980568	keystroke_c	c	n/a
490.704	0.0905	981408	keystroke_l	l	n/a
490.929	0.0745	981858	keystroke_o	o	n/a
491.994	0.075	983988	keystroke_t	t	n/a
492.0995	0.0755	984199	keystroke_h	h	n/a
492.264	0.045	984528	keystroke_e	e	n/a
492.3845	0.1045	984769	keystroke_s	s	n/a
492.564	0.075	985128	keystroke_Key.space	Key.space	n/a
492.8345	0.0905	985669	keystroke_s	s	n/a
492.9845	0.0895	985969	keystroke_u	u	n/a
493.089	0.075	986178	keystroke_r	r	n/a
493.284	0.075	986568	keystroke_g	g	n/a
493.419	0.075	986838	keystroke_e	e	n/a
493.629	0.09	987258	keystroke_Key.enter	Key.enter	n/a
493.731	8.285	987462	prompt	n/a	moms tribal telecommunications packing\n
494.4695	0.089	988939	keystroke_m	m	n/a
494.6185	0.091	989237	keystroke_o	o	n/a
494.755	0.1045	989510	keystroke_m	m	n/a
495.0235	0.091	990047	keystroke_s	s	n/a
495.2045	0.045	990409	keystroke_Key.space	Key.space	n/a
495.4295	0.06	990859	keystroke_t	t	n/a
495.594	0.075	991188	keystroke_r	r	n/a
495.729	0.09	991458	keystroke_i	i	n/a
495.9695	0.0745	991939	keystroke_b	b	n/a
496.105	0.1045	992210	keystroke_a	a	n/a
496.27	0.0895	992540	keystroke_l	l	n/a
496.419	0.06	992838	keystroke_Key.space	Key.space	n/a
496.764	0.0755	993528	keystroke_t	t	n/a
496.915	0.0745	993830	keystroke_e	e	n/a
497.094	0.105	994188	keystroke_l	l	n/a
497.215	0.074	994430	keystroke_e	e	n/a
497.5135	0.076	995027	keystroke_c	c	n/a
497.6335	0.106	995267	keystroke_o	o	n/a
497.7245	0.12	995449	keystroke_m	m	n/a
497.9945	0.0755	995989	keystroke_m	m	n/a
498.2045	0.06	996409	keystroke_u	u	n/a
498.414	0.0755	996828	keystroke_n	n	n/a
498.5945	0.074	997189	keystroke_i	i	n/a
499.1785	0.06	998357	keystroke_c	c	n/a
499.3135	0.1205	998627	keystroke_a	a	n/a
499.419	0.0905	998838	keystroke_t	t	n/a
499.4945	0.15	998989	keystroke_i	i	n/a
499.6135	0.166	999227	keystroke_o	o	n/a
499.7035	0.165	999407	keystroke_n	n	n/a
499.854	0.091	999708	keystroke_s	s	n/a
499.9735	0.075	999947	keystroke_Key.space	Key.space	n/a
500.7395	0.0155	1001479	keystroke_p	p	n/a
500.785	0.1195	1001570	keystroke_a	a	n/a
501.0545	0.09	1002109	keystroke_c	c	n/a
501.174	0.0605	1002348	keystroke_k	k	n/a
501.355	0.1345	1002710	keystroke_i	i	n/a
501.4445	0.1795	1002889	keystroke_n	n	n/a
501.549	0.09	1003098	keystroke_g	g	n/a
501.924	0.09	1003848	keystroke_Key.enter	Key.enter	n/a
502.029	6.4365	1004058	prompt	n/a	vitamin loop interviews lance\n
502.9445	0.0745	1005889	keystroke_v	v	n/a
503.064	0.1045	1006128	keystroke_i	i	n/a
503.305	0.0595	1006610	keystroke_t	t	n/a
503.484	0.12	1006968	keystroke_a	a	n/a
503.979	0.045	1007958	keystroke_m	m	n/a
504.1285	0.0755	1008257	keystroke_i	i	n/a
504.2495	0.1045	1008499	keystroke_n	n	n/a
504.459	0.0595	1008918	keystroke_Key.space	Key.space	n/a
504.6685	0.0605	1009337	keystroke_l	l	n/a
504.88	0.044	1009760	keystroke_o	o	n/a
505	0.0745	1010000	keystroke_o	o	n/a
505.1495	0.0895	1010299	keystroke_p	p	n/a
505.284	0.075	1010568	keystroke_Key.space	Key.space	n/a
505.494	0.0605	1010988	keystroke_i	i	n/a
505.629	0.09	1011258	keystroke_n	n	n/a
505.764	0.09	1011528	keystroke_t	t	n/a
505.9145	0.105	1011829	keystroke_e	e	n/a
506.004	0.09	1012008	keystroke_r	r	n/a
506.3645	0.09	1012729	keystroke_v	v	n/a
506.4685	0.091	1012937	keystroke_i	i	n/a
506.619	0.105	1013238	keystroke_e	e	n/a
506.739	0.0905	1013478	keystroke_w	w	n/a
507.099	0.09	1014198	keystroke_s	s	n/a
507.279	0.075	1014558	keystroke_Key.space	Key.space	n/a
507.549	0.09	1015098	keystroke_l	l	n/a
507.6695	0.105	1015339	keystroke_a	a	n/a
507.775	0.104	1015550	keystroke_n	n	n/a
507.984	0.076	1015968	keystroke_c	c	n/a
508.1795	0.059	1016359	keystroke_e	e	n/a
508.389	0.075	1016778	keystroke_Key.enter	Key.enter	n/a
508.472	8.7685	1016944	prompt	n/a	twiki competing indirect inquiry\n
509.68	0.0585	1019360	keystroke_t	t	n/a
510.0845	0.0455	1020169	keystroke_w	w	n/a
510.264	0.0755	1020528	keystroke_i	i	n/a
510.505	0.059	1021010	keystroke_k	k	n/a
510.669	0.06	1021338	keystroke_i	i	n/a
510.819	0.075	1021638	keystroke_Key.space	Key.space	n/a
511.0445	0.075	1022089	keystroke_c	c	n/a
511.164	0.1355	1022328	keystroke_o	o	n/a
511.2695	0.135	1022539	keystroke_m	m	n/a
511.9135	0.091	1023827	keystroke_p	p	n/a
512.064	0.09	1024128	keystroke_e	e	n/a
512.3795	0.074	1024759	keystroke_t	t	n/a
512.709	0.1355	1025418	keystroke_i	i	n/a
512.7845	0.181	1025569	keystroke_n	n	n/a
512.8745	0.12	1025749	keystroke_g	g	n/a
513.0095	0.0895	1026019	keystroke_Key.space	Key.space	n/a
513.249	0.061	1026498	keystroke_i	i	n/a
513.3695	0.105	1026739	keystroke_n	n	n/a
513.669	0.09	1027338	keystroke_d	d	n/a
513.834	0.0755	1027668	keystroke_i	i	n/a
514.014	0.075	1028028	keystroke_r	r	n/a
514.1495	0.0745	1028299	keystroke_e	e	n/a
514.345	0.074	1028690	keystroke_c	c	n/a
514.524	0.061	1029048	keystroke_t	t	n/a
515.1535	0.0905	1030307	keystroke_Key.space	Key.space	n/a
515.3645	0.075	1030729	keystroke_i	i	n/a
515.5145	0.0895	1031029	keystroke_n	n	n/a
516.249	0.105	1032498	keystroke_q	q	n/a
516.369	0.076	1032738	keystroke_u	u	n/a
516.5495	0.105	1033099	keystroke_i	i	n/a
516.7595	0.075	1033519	keystroke_r	r	n/a
516.8645	0.075	1033729	keystroke_y	y	n/a
517.1335	0.1055	1034267	keystroke_Key.enter	Key.enter	n/a
517.246	6.7	1034492	prompt	n/a	loaded queens intervals trash\n
517.9285	0.09	1035857	keystroke_l	l	n/a
518.1095	0.075	1036219	keystroke_o	o	n/a
518.514	0.0895	1037028	keystroke_a	a	n/a
518.799	0.09	1037598	keystroke_d	d	n/a
519.054	0.016	1038108	keystroke_e	e	n/a
519.144	0.091	1038288	keystroke_d	d	n/a
519.279	0.075	1038558	keystroke_Key.space	Key.space	n/a
519.55	0.0895	1039100	keystroke_q	q	n/a
519.669	0.09	1039338	keystroke_u	u	n/a
519.879	0.0605	1039758	keystroke_e	e	n/a
520.0445	0.06	1040089	keystroke_e	e	n/a
520.1495	0.0755	1040299	keystroke_n	n	n/a
520.284	0.09	1040568	keystroke_s	s	n/a
520.419	0.0755	1040838	keystroke_Key.space	Key.space	n/a
520.719	0.06	1041438	keystroke_i	i	n/a
520.855	0.105	1041710	keystroke_n	n	n/a
520.9745	0.075	1041949	keystroke_t	t	n/a
521.1085	0.1055	1042217	keystroke_e	e	n/a
521.199	0.09	1042398	keystroke_r	r	n/a
521.679	0.09	1043358	keystroke_v	v	n/a
521.919	0.105	1043838	keystroke_a	a	n/a
522.144	0.09	1044288	keystroke_l	l	n/a
522.309	0.075	1044618	keystroke_s	s	n/a
522.429	0.09	1044858	keystroke_Key.space	Key.space	n/a
522.849	0.075	1045698	keystroke_t	t	n/a
523.074	0.09	1046148	keystroke_r	r	n/a
523.225	0.1045	1046450	keystroke_a	a	n/a
523.5095	0.0745	1047019	keystroke_s	s	n/a
523.599	0.0905	1047198	keystroke_h	h	n/a
523.8545	0.0895	1047709	keystroke_Key.enter	Key.enter	n/a
523.9555	8.645	1047911	prompt	n/a	harper dosage apollo brunette\n
526.4075	0.012	1052815	keystroke_h	h	n/a
526.4355	0.134	1052871	keystroke_a	a	n/a
526.5095	0.12	1053019	keystroke_r	r	n/a
526.7345	0.09	1053469	keystroke_p	p	n/a
526.84	0.1045	1053680	keystroke_e	e	n/a
526.9295	0.1205	1053859	keystroke_r	r	n/a
527.0345	0.075	1054069	keystroke_Key.space	Key.space	n/a
527.5445	0.105	1055089	keystroke_d	d	n/a
527.6795	0.105	1055359	keystroke_o	o	n/a
527.8595	0.09	1055719	keystroke_s	s	n/a
528.0395	0.105	1056079	keystroke_a	a	n/a
528.13	0.0895	1056260	keystroke_g	g	n/a
528.2345	0.0755	1056469	keystroke_e	e	n/a
528.444	0.06	1056888	keystroke_Key.space	Key.space	n/a
528.864	0.105	1057728	keystroke_a	a	n/a
529.0145	0.1055	1058029	keystroke_p	p	n/a
529.3595	0.075	1058719	keystroke_o	o	n/a
529.795	0.0595	1059590	keystroke_l	l	n/a
529.93	0.0745	1059860	keystroke_l	l	n/a
530.0795	0.09	1060159	keystroke_o	o	n/a
530.2295	0.075	1060459	keystroke_Key.space	Key.space	n/a
530.5145	0.045	1061029	keystroke_b	b	n/a
530.7245	0.0755	1061449	keystroke_r	r	n/a
530.9045	0.09	1061809	keystroke_u	u	n/a
531.564	0.09	1063128	keystroke_n	n	n/a
531.789	0.0755	1063578	keystroke_e	e	n/a
531.999	0.0755	1063998	keystroke_t	t	n/a
532.1645	0.075	1064329	keystroke_t	t	n/a
532.3	0.0745	1064600	keystroke_e	e	n/a
532.509	0.0895	1065018	keystroke_Key.enter	Key.enter	n/a
532.6045	9.731	1065209	prompt	n/a	london pmid advancement forward\n
533.515	0.0745	1067030	keystroke_l	l	n/a
533.8135	0.046	1067627	keystroke_o	o	n/a
533.92	0.105	1067840	keystroke_n	n	n/a
534.3085	0.0915	1068617	keystroke_d	d	n/a
534.444	0.06	1068888	keystroke_o	o	n/a
534.55	0.0885	1069100	keystroke_n	n	n/a
534.699	0.06	1069398	keystroke_Key.space	Key.space	n/a
534.999	0.1055	1069998	keystroke_p	p	n/a
535.6	0.075	1071200	keystroke_m	m	n/a
535.8245	0.0755	1071649	keystroke_i	i	n/a
535.9745	0.09	1071949	keystroke_d	d	n/a
536.0945	0.074	1072189	keystroke_Key.space	Key.space	n/a
536.3645	0.09	1072729	keystroke_a	a	n/a
536.6795	0.09	1073359	keystroke_d	d	n/a
537.0845	0.091	1074169	keystroke_v	v	n/a
537.3845	0.089	1074769	keystroke_a	a	n/a
537.5195	0.105	1075039	keystroke_n	n	n/a
537.6095	0.09	1075219	keystroke_c	c	n/a
537.8045	0.06	1075609	keystroke_e	e	n/a
538.0595	0.074	1076119	keystroke_m	m	n/a
538.1645	0.074	1076329	keystroke_e	e	n/a
538.2535	0.091	1076507	keystroke_n	n	n/a
538.3285	0.061	1076657	keystroke_t	t	n/a
538.4345	0.074	1076869	keystroke_Key.space	Key.space	n/a
538.6295	0.09	1077259	keystroke_f	f	n/a
538.75	0.104	1077500	keystroke_o	o	n/a
538.8545	0.0745	1077709	keystroke_r	r	n/a
539.1095	0.0745	1078219	keystroke_w	w	n/a
539.3195	0.105	1078639	keystroke_r	r	n/a
539.62	0.075	1079240	keystroke_d	d	n/a
540.3845	0.06	1080769	keystroke_Key.backspace	Key.backspace	n/a
540.5645	0.09	1081129	keystroke_Key.backspace	Key.backspace	n/a
540.8045	0.074	1081609	keystroke_s	s	n/a
541.3145	0.0895	1082629	keystroke_Key.backspace	Key.backspace	n/a
541.599	0.106	1083198	keystroke_a	a	n/a
541.779	0.09	1083558	keystroke_r	r	n/a
541.989	0.075	1083978	keystroke_d	d	n/a
542.244	0.09	1084488	keystroke_Key.enter	Key.enter	n/a
542.343	6.9975	1084686	prompt	n/a	voters protecting lifestyle controls\n
543.1	0.105	1086200	keystroke_v	v	n/a
543.3705	0.104	1086741	keystroke_o	o	n/a
543.6245	0.075	1087249	keystroke_t	t	n/a
543.7895	0.09	1087579	keystroke_e	e	n/a
543.8645	0.105	1087729	keystroke_r	r	n/a
544.0895	0.075	1088179	keystroke_s	s	n/a
544.2085	0.06	1088417	keystroke_Key.space	Key.space	n/a
544.4045	0.09	1088809	keystroke_p	p	n/a
544.5095	0.09	1089019	keystroke_r	r	n/a
544.6295	0.075	1089259	keystroke_o	o	n/a
544.8245	0.0745	1089649	keystroke_t	t	n/a
544.9745	0.075	1089949	keystroke_e	e	n/a
545.17	0.0595	1090340	keystroke_c	c	n/a
545.319	0.06	1090638	keystroke_t	t	n/a
545.649	0.076	1091298	keystroke_i	i	n/a
545.8145	0.105	1091629	keystroke_n	n	n/a
545.9345	0.0895	1091869	keystroke_g	g	n/a
546.039	0.075	1092078	keystroke_Key.space	Key.space	n/a
546.3095	0.06	1092619	keystroke_l	l	n/a
546.459	0.06	1092918	keystroke_i	i	n/a
546.579	0.0905	1093158	keystroke_f	f	n/a
546.7295	0.075	1093459	keystroke_e	e	n/a
547.0295	0.09	1094059	keystroke_s	s	n/a
547.2095	0.075	1094419	keystroke_t	t	n/a
547.359	0.09	1094718	keystroke_y	y	n/a
547.6595	0.1195	1095319	keystroke_l	l	n/a
547.794	0.075	1095588	keystroke_e	e	n/a
547.884	0.075	1095768	keystroke_Key.space	Key.space	n/a
548.1095	0.09	1096219	keystroke_c	c	n/a
548.214	0.12	1096428	keystroke_o	o	n/a
548.274	0.1505	1096548	keystroke_n	n	n/a
548.439	0.075	1096878	keystroke_t	t	n/a
548.6045	0.09	1097209	keystroke_r	r	n/a
548.739	0.075	1097478	keystroke_o	o	n/a
548.9195	0.09	1097839	keystroke_l	l	n/a
549.054	0.091	1098108	keystroke_s	s	n/a
549.2645	0.0745	1098529	keystroke_Key.enter	Key.enter	n/a
549.345	8.681	1098690	prompt	n/a	advantage sheffield celebrity applicant\n
550.4495	0.0155	1100899	keystroke_a	a	n/a
550.4795	0.045	1100959	keystroke_d	d	n/a
550.6445	0.075	1101289	keystroke_v	v	n/a
550.9145	0.09	1101829	keystroke_a	a	n/a
551.0185	0.1205	1102037	keystroke_n	n	n/a
551.319	0.075	1102638	keystroke_t	t	n/a
551.454	0.105	1102908	keystroke_a	a	n/a
551.574	0.1045	1103148	keystroke_g	g	n/a
551.7095	0.075	1103419	keystroke_e	e	n/a
551.799	0.0905	1103598	keystroke_Key.space	Key.space	n/a
552.1435	0.105	1104287	keystroke_s	s	n/a
552.2785	0.106	1104557	keystroke_h	h	n/a
552.5335	0.076	1105067	keystroke_e	e	n/a
552.8945	0.0605	1105789	keystroke_f	f	n/a
553.044	0.0905	1106088	keystroke_f	f	n/a
553.6295	0.12	1107259	keystroke_i	i	n/a
553.7795	0.09	1107559	keystroke_e	e	n/a
554.0495	0.1205	1108099	keystroke_l	l	n/a
554.2	0.0745	1108400	keystroke_d	d	n/a
554.319	0.105	1108638	keystroke_Key.space	Key.space	n/a
554.815	0.06	1109630	keystroke_e	e	n/a
555.024	0.106	1110048	keystroke_l	l	n/a
555.159	0.075	1110318	keystroke_e	e	n/a
555.444	0.06	1110888	keystroke_b	b	n/a
555.6235	0.061	1111247	keystroke_r	r	n/a
555.7435	0.0905	1111487	keystroke_i	i	n/a
555.8945	0.075	1111789	keystroke_t	t	n/a
556.0145	0.09	1112029	keystroke_y	y	n/a
556.149	0.0595	1112298	keystroke_Key.space	Key.space	n/a
556.405	0.1045	1112810	keystroke_a	a	n/a
556.5695	0.059	1113139	keystroke_p	p	n/a
556.7045	0.09	1113409	keystroke_p	p	n/a
556.93	0.074	1113860	keystroke_l	l	n/a
557.049	0.106	1114098	keystroke_i	i	n/a
557.229	0.075	1114458	keystroke_c	c	n/a
557.334	0.12	1114668	keystroke_a	a	n/a
557.424	0.09	1114848	keystroke_t	t	n/a
557.56	0.089	1115120	keystroke_n	n	n/a
