onset	duration	sample	value	key	prompt_text
4.7925	16.433	9585	prompt	n/a	the quick brown fox jumps over a lazy dog\n
8.0295	0.128	16059	keystroke_Key.space	Key.space	n/a
8.1885	0.105	16377	keystroke_q	q	n/a
8.3535	0.165	16707	keystroke_u	u	n/a
8.4735	0.09	16947	keystroke_i	i	n/a
8.5785	0.075	17157	keystroke_c	c	n/a
8.7575	0.136	17515	keystroke_k	k	n/a
9.3285	0.045	18657	keystroke_Key.backspace	Key.backspace	n/a
9.5375	0.061	19075	keystroke_Key.backspace	Key.backspace	n/a
9.7185	0.044	19437	keystroke_Key.backspace	Key.backspace	n/a
9.8535	0.059	19707	keystroke_Key.backspace	Key.backspace	n/a
10.003	0.0755	20006	keystroke_Key.backspace	Key.backspace	n/a
10.168	0.0445	20336	keystroke_Key.backspace	Key.backspace	n/a
10.2875	0.09	20575	keystroke_Key.backspace	Key.backspace	n/a
10.498	0.0895	20996	keystroke_Key.backspace	Key.backspace	n/a
11.143	0.12	22286	keystroke_t	t	n/a
11.233	0.09	22466	keystroke_h	h	n/a
11.5035	0.06	23007	keystroke_e	e	n/a
11.848	0.1045	23696	keystroke_Key.space	Key.space	n/a
12.5535	0.09	25107	keystroke_q	q	n/a
12.778	0.09	25556	keystroke_u	u	n/a
12.838	0.1055	25676	keystroke_i	i	n/a
12.9735	0.0905	25947	keystroke_c	c	n/a
13.124	0.089	26248	keystroke_k	k	n/a
13.213	0.15	26426	keystroke_Key.space	Key.space	n/a
13.349	0.059	26698	keystroke_b	b	n/a
13.6475	0.0605	27295	keystroke_o	o	n/a
14.0675	0.0605	28135	keystroke_Key.backspace	Key.backspace	n/a
14.143	0.059	28286	keystroke_r	r	n/a
14.278	0.0895	28556	keystroke_o	o	n/a
14.413	0.06	28826	keystroke_w	w	n/a
14.563	0.105	29126	keystroke_n	n	n/a
14.772	0.09	29544	keystroke_Key.space	Key.space	n/a
15.0125	0.0605	30025	keystroke_f	f	n/a
15.207	0.1055	30414	keystroke_o	o	n/a
15.613	0.059	31226	keystroke_x	x	n/a
16.1225	0.104	32245	keystroke_Key.space	Key.space	n/a
16.6625	0.075	33325	keystroke_j	j	n/a
16.858	0.09	33716	keystroke_u	u	n/a
17.113	0.09	34226	keystroke_m	m	n/a
17.353	0.0755	34706	keystroke_p	p	n/a
17.518	0.0755	35036	keystroke_s	s	n/a
17.6825	0.1205	35365	keystroke_Key.space	Key.space	n/a
17.7885	0.1345	35577	keystroke_o	o	n/a
17.9085	0.075	35817	keystroke_v	v	n/a
18.1475	0.1505	36295	keystroke_e	e	n/a
18.2835	0.0745	36567	keystroke_r	r	n/a
18.4625	0.1055	36925	keystroke_Key.space	Key.space	n/a
18.6135	0.06	37227	keystroke_a	a	n/a
18.6875	0.151	37375	keystroke_Key.space	Key.space	n/a
18.8685	0.0745	37737	keystroke_l	l	n/a
18.973	0.06	37946	keystroke_a	a	n/a
19.1525	0.0905	38305	keystroke_z	z	n/a
19.468	0.15	38936	keystroke_y	y	n/a
20.113	0.09	40226	keystroke_Key.space	Key.space	n/a
20.293	0.075	40586	keystroke_d	d	n/a
20.503	0.135	41006	keystroke_o	o	n/a
20.683	0.075	41366	keystroke_g	g	n/a
21.118	0.1045	42236	keystroke_Key.enter	Key.enter	n/a
21.2305	10.8395	42461	prompt	n/a	fragrances periods every depends\n
22.0475	0.0755	44095	keystroke_f	f	n/a
22.318	0.0745	44636	keystroke_r	r	n/a
22.573	0.075	45146	keystroke_a	a	n/a
23.113	0.09	46226	keystroke_g	g	n/a
23.323	0.0755	46646	keystroke_r	r	n/a
23.593	0.06	47186	keystroke_a	a	n/a
23.878	0.12	47756	keystroke_n	n	n/a
24.148	0.0605	48296	keystroke_c	c	n/a
24.3435	0.0745	48687	keystroke_e	e	n/a
24.5535	0.0895	49107	keystroke_s	s	n/a
24.7635	0.1195	49527	keystroke_Key.space	Key.space	n/a
25.0335	0.12	50067	keystroke_p	p	n/a
25.1835	0.135	50367	keystroke_e	e	n/a
25.2885	0.0895	50577	keystroke_r	r	n/a
25.498	0.12	50996	keystroke_i	i	n/a
25.588	0.15	51176	keystroke_o	o	n/a
25.753	0.0755	51506	keystroke_d	d	n/a
25.963	0.06	51926	keystroke_s	s	n/a
26.2485	0.105	52497	keystroke_Key.space	Key.space	n/a
26.4575	0.0455	52915	keystroke_e	e	n/a
26.653	0.075	53306	keystroke_v	v	n/a
26.833	0.1055	53666	keystroke_e	e	n/a
26.908	0.1205	53816	keystroke_r	r	n/a
27.178	0.105	54356	keystroke_y	y	n/a
27.538	0.105	55076	keystroke_Key.space	Key.space	n/a
27.719	0.0895	55438	keystroke_d	d	n/a
27.928	0.09	55856	keystroke_e	e	n/a
28.093	0.09	56186	keystroke_p	p	n/a
28.198	0.105	56396	keystroke_e	e	n/a
28.393	0.1205	56786	keystroke_n	n	n/a
28.543	0.06	57086	keystroke_d	d	n/a
28.7535	0.0455	57507	keystroke_s	s	n/a
31.95	0.1175	63900	keystroke_Key.enter	Key.enter	n/a
32.0735	10.3315	64147	prompt	n/a	kill studies however mitsubishi\n
32.9825	0.075	65965	keystroke_k	k	n/a
33.208	0.0745	66416	keystroke_i	i	n/a
33.4335	0.0595	66867	keystroke_l	l	n/a
33.583	0.09	67166	keystroke_l	l	n/a
33.8985	0.104	67797	keystroke_Key.space	Key.space	n/a
34.1225	0.105	68245	keystroke_s	s	n/a
34.4535	0.0445	68907	keystroke_t	t	n/a
34.663	0.075	69326	keystroke_u	u	n/a
34.8135	0.089	69627	keystroke_d	d	n/a
34.9475	0.075	69895	keystroke_i	i	n/a
35.0685	0.0755	70137	keystroke_e	e	n/a
35.263	0.075	70526	keystroke_s	s	n/a
35.8925	0.09	71785	keystroke_Key.space	Key.space	n/a
36.0875	0.0605	72175	keystroke_h	h	n/a
36.2535	0.089	72507	keystroke_o	o	n/a
36.4025	0.0755	72805	keystroke_w	w	n/a
36.628	0.0755	73256	keystroke_e	e	n/a
36.838	0.105	73676	keystroke_v	v	n/a
37.048	0.12	74096	keystroke_e	e	n/a
37.183	0.06	74366	keystroke_r	r	n/a
37.438	0.075	74876	keystroke_Key.space	Key.space	n/a
37.648	0.0755	75296	keystroke_m	m	n/a
37.873	0.06	75746	keystroke_i	i	n/a
38.248	0.045	76496	keystroke_t	t	n/a
38.6235	0.105	77247	keystroke_s	s	n/a
38.998	0.12	77996	keystroke_u	u	n/a
39.148	0.075	78296	keystroke_b	b	n/a
39.463	0.12	78926	keystroke_i	i	n/a
39.673	0.0905	79346	keystroke_s	s	n/a
39.838	0.181	79676	keystroke_h	h	n/a
40.033	0.09	80066	keystroke_i	i	n/a
42.345	0.0585	84690	keystroke_Key.enter	Key.enter	n/a
42.408	5.833	84816	prompt	n/a	died copper minor differ\n
43.183	0.12	86366	keystroke_d	d	n/a
43.3935	0.09	86787	keystroke_i	i	n/a
43.4985	0.09	86997	keystroke_e	e	n/a
43.7235	0.06	87447	keystroke_d	d	n/a
44.2635	0.1045	88527	keystroke_Key.space	Key.space	n/a
44.353	0.091	88706	keystroke_c	c	n/a
44.518	0.076	89036	keystroke_o	o	n/a
44.744	0.044	89488	keystroke_p	p	n/a
44.878	0.06	89756	keystroke_p	p	n/a
44.984	0.134	89968	keystroke_e	e	n/a
45.104	0.104	90208	keystroke_r	r	n/a
45.373	0.09	90746	keystroke_Key.space	Key.space	n/a
45.583	0.0905	91166	keystroke_m	m	n/a
45.748	0.105	91496	keystroke_i	i	n/a
45.913	0.075	91826	keystroke_n	n	n/a
46.138	0.06	92276	keystroke_o	o	n/a
46.303	0.0755	92606	keystroke_r	r	n/a
46.573	0.12	93146	keystroke_Key.space	Key.space	n/a
46.843	0.075	93686	keystroke_d	d	n/a
46.993	0.06	93986	keystroke_i	i	n/a
47.083	0.075	94166	keystroke_f	f	n/a
47.233	0.0755	94466	keystroke_f	f	n/a
47.4435	0.119	94887	keystroke_e	e	n/a
47.5175	0.105	95035	keystroke_r	r	n/a
48.1175	0.12	96235	keystroke_Key.enter	Key.enter	n/a
48.2465	12.7285	96493	prompt	n/a	matches cents planning stat\n
49.003	0.09	98006	keystroke_m	m	n/a
49.948	0.09	99896	keystroke_a	a	n/a
50.263	0.045	100526	keystroke_t	t	n/a
50.518	0.09	101036	keystroke_c	c	n/a
50.6535	0.1045	101307	keystroke_h	h	n/a
50.833	0.061	101666	keystroke_e	e	n/a
51.073	0.075	102146	keystroke_s	s	n/a
51.658	0.1205	103316	keystroke_Key.space	Key.space	n/a
51.898	0.09	103796	keystroke_c	c	n/a
52.123	0.075	104246	keystroke_e	e	n/a
52.258	0.105	104516	keystroke_n	n	n/a
52.468	0.075	104936	keystroke_t	t	n/a
53.293	0.06	106586	keystroke_s	s	n/a
53.533	0.09	107066	keystroke_Key.space	Key.space	n/a
53.923	0.12	107846	keystroke_p	p	n/a
54.028	0.09	108056	keystroke_l	l	n/a
54.178	0.06	108356	keystroke_a	a	n/a
54.358	0.06	108716	keystroke_n	n	n/a
54.493	0.12	108986	keystroke_n	n	n/a
54.6735	0.1495	109347	keystroke_i	i	n/a
54.808	0.135	109616	keystroke_n	n	n/a
54.988	0.075	109976	keystroke_g	g	n/a
55.573	0.135	111146	keystroke_Key.space	Key.space	n/a
55.738	0.091	111476	keystroke_s	s	n/a
55.978	0.0605	111956	keystroke_t	t	n/a
56.249	0.074	112498	keystroke_a	a	n/a
56.5945	0.0585	113189	keystroke_t	t	n/a
60.87	0.1035	121740	keystroke_Key.enter	Key.enter	n/a
60.9785	11.592	121957	prompt	n/a	luggage nokia commonly encouraged\n
61.9785	0.075	123957	keystroke_l	l	n/a
62.578	0.06	125156	keystroke_u	u	n/a
62.953	0.09	125906	keystroke_g	g	n/a
63.133	0.076	126266	keystroke_g	g	n/a
63.448	0.0605	126896	keystroke_a	a	n/a
63.733	0.06	127466	keystroke_g	g	n/a
63.913	0.06	127826	keystroke_e	e	n/a
64.228	0.06	128456	keystroke_Key.space	Key.space	n/a
64.709	0.074	129418	keystroke_n	n	n/a
64.903	0.0905	129806	keystroke_o	o	n/a
65.113	0.0905	130226	keystroke_k	k	n/a
65.3685	0.075	130737	keystroke_i	i	n/a
65.5635	0.09	131127	keystroke_a	a	n/a
65.8035	0.105	131607	keystroke_Key.space	Key.space	n/a
65.9835	0.09	131967	keystroke_c	c	n/a
66.1185	0.075	132237	keystroke_o	o	n/a
66.4485	0.0745	132897	keystroke_m	m	n/a
66.689	0.089	133378	keystroke_m	m	n/a
67.048	0.09	134096	keystroke_o	o	n/a
67.2735	0.0595	134547	keystroke_n	n	n/a
67.513	0.09	135026	keystroke_l	l	n/a
67.6485	0.1045	135297	keystroke_y	y	n/a
68.0085	0.075	136017	keystroke_Key.space	Key.space	n/a
68.2335	0.075	136467	keystroke_e	e	n/a
68.458	0.091	136916	keystroke_n	n	n/a
68.743	0.0755	137486	keystroke_c	c	n/a
68.8335	0.195	137667	keystroke_o	o	n/a
69.0295	0.104	138059	keystroke_u	u	n/a
69.1635	0.0745	138327	keystroke_r	r	n/a
69.3735	0.045	138747	keystroke_g	g	n/a
70.0335	0.075	140067	keystroke_Key.backspace	Key.backspace	n/a
70.1095	0.074	140219	keystroke_a	a	n/a
70.4085	0.06	140817	keystroke_g	g	n/a
70.5885	0.075	141177	keystroke_e	e	n/a
70.7835	0.075	141567	keystroke_d	d	n/a
72.4185	0.15	144837	keystroke_Key.enter	Key.enter	n/a
72.5755	8.081	145151	prompt	n/a	serum category scheduled mobile\n
73.3185	0.0745	146637	keystroke_s	s	n/a
73.528	0.135	147056	keystroke_e	e	n/a
73.633	0.105	147266	keystroke_r	r	n/a
73.813	0.1055	147626	keystroke_u	u	n/a
74.128	0.105	148256	keystroke_m	m	n/a
74.3085	0.1045	148617	keystroke_Key.space	Key.space	n/a
74.428	0.075	148856	keystroke_c	c	n/a
74.6535	0.06	149307	keystroke_a	a	n/a
74.9085	0.0745	149817	keystroke_t	t	n/a
75.0735	0.0745	150147	keystroke_e	e	n/a
75.3285	0.0755	150657	keystroke_g	g	n/a
75.494	0.105	150988	keystroke_o	o	n/a
75.613	0.0605	151226	keystroke_r	r	n/a
75.824	0.09	151648	keystroke_y	y	n/a
76.2435	0.105	152487	keystroke_Key.space	Key.space	n/a
76.4685	0.06	152937	keystroke_s	s	n/a
76.7385	0.075	153477	keystroke_c	c	n/a
76.9035	0.06	153807	keystroke_h	h	n/a
76.9935	0.075	153987	keystroke_e	e	n/a
77.1735	0.075	154347	keystroke_d	d	n/a
77.2785	0.0905	154557	keystroke_u	u	n/a
77.578	0.091	155156	keystroke_l	l	n/a
78.418	0.075	156836	keystroke_e	e	n/a
78.628	0.09	157256	keystroke_d	d	n/a
78.8835	0.09	157767	keystroke_Key.space	Key.space	n/a
79.078	0.105	158156	keystroke_m	m	n/a
79.198	0.1055	158396	keystroke_o	o	n/a
79.363	0.06	158726	keystroke_b	b	n/a
79.4985	0.1195	158997	keystroke_l	l	n/a
79.723	0.105	159446	keystroke_i	i	n/a
79.858	0.0755	159716	keystroke_e	e	n/a
80.548	0.105	161096	keystroke_Key.enter	Key.enter	n/a
80.6595	12.6405	161319	prompt	n/a	breath photographs haven tall\n
81.463	0.075	162926	keystroke_b	b	n/a
81.6885	0.045	163377	keystroke_r	r	n/a
82.2285	0.075	164457	keystroke_e	e	n/a
82.5885	0.06	165177	keystroke_a	a	n/a
82.9485	0.15	165897	keystroke_t	t	n/a
83.0535	0.09	166107	keystroke_h	h	n/a
83.6235	0.105	167247	keystroke_Key.space	Key.space	n/a
83.8785	0.09	167757	keystroke_p	p	n/a
84.1785	0.105	168357	keystroke_h	h	n/a
84.6735	0.1645	169347	keystroke_o	o	n/a
84.9285	0.0745	169857	keystroke_t	t	n/a
85.108	0.12	170216	keystroke_o	o	n/a
85.318	0.105	170636	keystroke_g	g	n/a
85.528	0.045	171056	keystroke_r	r	n/a
85.843	0.045	171686	keystroke_a	a	n/a
86.128	0.0905	172256	keystroke_p	p	n/a
86.4735	0.075	172947	keystroke_h	h	n/a
86.728	0.075	173456	keystroke_s	s	n/a
87.148	0.135	174296	keystroke_Key.space	Key.space	n/a
87.418	0.075	174836	keystroke_h	h	n/a
87.5535	0.0745	175107	keystroke_a	a	n/a
87.838	0.09	175676	keystroke_v	v	n/a
88.3185	0.075	176637	keystroke_e	e	n/a
88.5885	0.0895	177177	keystroke_n	n	n/a
89.0235	0.0895	178047	keystroke_Key.space	Key.space	n/a
89.3535	0.06	178707	keystroke_t	t	n/a
89.5635	0.075	179127	keystroke_e	e	n/a
89.9535	0.091	179907	keystroke_Key.backspace	Key.backspace	n/a
90.0585	0.09	180117	keystroke_a	a	n/a
90.2235	0.09	180447	keystroke_l	l	n/a
90.4035	0.09	180807	keystroke_l	l	n/a
93.2415	0.057	186483	keystroke_Key.enter	Key.enter	n/a
93.3035	10.1215	186607	prompt	n/a	gamecube labs watching thousands\n
94.2735	0.075	188547	keystroke_g	g	n/a
94.5135	0.075	189027	keystroke_a	a	n/a
94.6785	0.075	189357	keystroke_m	m	n/a
94.8285	0.06	189657	keystroke_e	e	n/a
95.2785	0.06	190557	keystroke_c	c	n/a
95.4435	0.09	190887	keystroke_u	u	n/a
95.5935	0.075	191187	keystroke_b	b	n/a
95.8635	0.075	191727	keystroke_e	e	n/a
96.4335	0.09	192867	keystroke_Key.space	Key.space	n/a
96.7935	0.06	193587	keystroke_l	l	n/a
96.9285	0.075	193857	keystroke_a	a	n/a
97.1835	0.09	194367	keystroke_b	b	n/a
97.3635	0.075	194727	keystroke_s	s	n/a
97.7385	0.09	195477	keystroke_Key.space	Key.space	n/a
97.9035	0.075	195807	keystroke_w	w	n/a
98.1435	0.06	196287	keystroke_a	a	n/a
98.3985	0.06	196797	keystroke_t	t	n/a
98.6685	0.09	197337	keystroke_c	c	n/a
98.8335	0.135	197667	keystroke_h	h	n/a
98.9835	0.105	197967	keystroke_i	i	n/a
99.2085	0.09	198417	keystroke_n	n	n/a
99.3735	0.09	198747	keystroke_g	g	n/a
99.6285	0.09	199257	keystroke_Key.space	Key.space	n/a
99.8685	0.18	199737	keystroke_t	t	n/a
100.0035	0.105	200007	keystroke_h	h	n/a
100.214	0.194	200428	keystroke_o	o	n/a
100.393	0.09	200786	keystroke_u	u	n/a
100.603	0.09	201206	keystroke_s	s	n/a
101.023	0.0755	202046	keystroke_a	a	n/a
101.264	0.104	202528	keystroke_n	n	n/a
101.458	0.06	202916	keystroke_d	d	n/a
101.699	0.06	203398	keystroke_s	s	n/a
103.2585	0.1645	206517	keystroke_Key.enter	Key.enter	n/a
103.428	16.5415	206856	prompt	n/a	thomson dictionaries atlanta laboratories\n
104.308	0.1505	208616	keystroke_t	t	n/a
104.413	0.105	208826	keystroke_h	h	n/a
104.593	0.105	209186	keystroke_o	o	n/a
104.878	0.1055	209756	keystroke_m	m	n/a
105.5385	0.105	211077	keystroke_s	s	n/a
105.6285	0.105	211257	keystroke_o	o	n/a
105.8985	0.1055	211797	keystroke_n	n	n/a
106.6335	0.12	213267	keystroke_Key.space	Key.space	n/a
106.8735	0.076	213747	keystroke_d	d	n/a
107.1585	0.106	214317	keystroke_i	i	n/a
107.4435	0.0605	214887	keystroke_c	c	n/a
107.9085	0.075	215817	keystroke_t	t	n/a
108.044	0.15	216088	keystroke_i	i	n/a
108.148	0.1355	216296	keystroke_o	o	n/a
108.4635	0.1055	216927	keystroke_n	n	n/a
108.869	0.09	217738	keystroke_a	a	n/a
109.153	0.076	218306	keystroke_r	r	n/a
109.319	0.12	218638	keystroke_i	i	n/a
109.4535	0.074	218907	keystroke_e	e	n/a
109.7385	0.044	219477	keystroke_s	s	n/a
111.6575	0.135	223315	keystroke_Key.space	Key.space	n/a
111.8685	0.09	223737	keystroke_a	a	n/a
112.1235	0.104	224247	keystroke_l	l	n/a
112.589	0.0735	225178	keystroke_t	t	n/a
113.638	0.075	227276	keystroke_a	a	n/a
113.863	0.09	227726	keystroke_n	n	n/a
114.058	0.0755	228116	keystroke_t	t	n/a
114.3735	0.104	228747	keystroke_a	a	n/a
115.1225	0.075	230245	keystroke_Key.space	Key.space	n/a
115.783	0.1205	231566	keystroke_l	l	n/a
115.904	0.104	231808	keystroke_a	a	n/a
116.3685	0.1345	232737	keystroke_b	b	n/a
116.833	0.15	233666	keystroke_o	o	n/a
117.013	0.0905	234026	keystroke_r	r	n/a
117.343	0.0755	234686	keystroke_a	a	n/a
117.628	0.06	235256	keystroke_t	t	n/a
117.763	0.105	235526	keystroke_o	o	n/a
117.868	0.09	235736	keystroke_r	r	n/a
118.0635	0.09	236127	keystroke_i	i	n/a
118.1685	0.075	236337	keystroke_e	e	n/a
118.3785	0.09	236757	keystroke_s	s	n/a
119.848	0.1195	239696	keystroke_Key.enter	Key.enter	n/a
119.9725	14.817	239945	prompt	n/a	babe premises calendar monetary\n
121.1225	0.0755	242245	keystroke_b	b	n/a
121.5285	0.0755	243057	keystroke_a	a	n/a
121.844	0.044	243688	keystroke_b	b	n/a
122.024	0.09	244048	keystroke_e	e	n/a
122.323	0.105	244646	keystroke_Key.space	Key.space	n/a
122.578	0.09	245156	keystroke_p	p	n/a
122.698	0.076	245396	keystroke_r	r	n/a
122.878	0.105	245756	keystroke_e	e	n/a
123.058	0.1805	246116	keystroke_m	m	n/a
123.223	0.09	246446	keystroke_i	i	n/a
123.328	0.0755	246656	keystroke_s	s	n/a
123.538	0.0905	247076	keystroke_e	e	n/a
123.7335	0.06	247467	keystroke_s	s	n/a
124.2585	0.135	248517	keystroke_Key.space	Key.space	n/a
124.4985	0.06	248997	keystroke_c	c	n/a
125.053	0.0905	250106	keystroke_a	a	n/a
125.2335	0.075	250467	keystroke_l	l	n/a
125.3685	0.09	250737	keystroke_e	e	n/a
125.5785	0.075	251157	keystroke_n	n	n/a
125.6385	0.075	251277	keystroke_d	d	n/a
125.8485	0.135	251697	keystroke_e	e	n/a
125.9685	0.09	251937	keystroke_r	r	n/a
126.5985	0.075	253197	keystroke_Key.backspace	Key.backspace	n/a
126.8235	0.075	253647	keystroke_Key.backspace	Key.backspace	n/a
126.9435	0.09	253887	keystroke_a	a	n/a
127.1835	0.075	254367	keystroke_r	r	n/a
127.4685	0.12	254937	keystroke_Key.space	Key.space	n/a
127.7835	0.06	255567	keystroke_m	m	n/a
127.9185	0.09	255837	keystroke_o	o	n/a
128.1735	0.075	256347	keystroke_n	n	n/a
128.3535	0.075	256707	keystroke_e	e	n/a
128.6235	0.06	257247	keystroke_t	t	n/a
128.9985	0.09	257997	keystroke_a	a	n/a
129.2535	0.06	258507	keystroke_r	r	n/a
129.4485	0.09	258897	keystroke_y	y	n/a
134.7305	0.058	269461	keystroke_Key.enter	Key.enter	n/a
134.793	9.972	269586	prompt	n/a	corners pricing verizon here\n
135.6435	0.1055	271287	keystroke_c	c	n/a
135.854	0.09	271708	keystroke_o	o	n/a
136.6035	0.0605	273207	keystroke_r	r	n/a
136.7985	0.0905	273597	keystroke_n	n	n/a
136.9785	0.195	273957	keystroke_e	e	n/a
137.1585	0.06	274317	keystroke_r	r	n/a
137.4285	0.0745	274857	keystroke_s	s	n/a
137.683	0.12	275366	keystroke_Key.space	Key.space	n/a
137.9535	0.0895	275907	keystroke_p	p	n/a
138.118	0.1055	276236	keystroke_r	r	n/a
138.359	0.044	276718	keystroke_i	i	n/a
138.523	0.105	277046	keystroke_c	c	n/a
138.8085	0.06	277617	keystroke_i	i	n/a
139.0335	0.09	278067	keystroke_n	n	n/a
139.4385	0.06	278877	keystroke_g	g	n/a
139.6785	0.09	279357	keystroke_Key.space	Key.space	n/a
139.7835	0.105	279567	keystroke_v	v	n/a
140.0535	0.225	280107	keystroke_e	e	n/a
140.2485	0.12	280497	keystroke_r	r	n/a
140.5785	0.12	281157	keystroke_i	i	n/a
141.988	0.075	283976	keystroke_z	z	n/a
142.123	0.105	284246	keystroke_o	o	n/a
142.4535	0.09	284907	keystroke_n	n	n/a
142.7985	0.1045	285597	keystroke_Key.space	Key.space	n/a
143.008	0.105	286016	keystroke_h	h	n/a
143.128	0.1355	286256	keystroke_e	e	n/a
143.264	0.1795	286528	keystroke_r	r	n/a
143.458	0.09	286916	keystroke_e	e	n/a
144.628	0.1345	289256	keystroke_Key.enter	Key.enter	n/a
144.7695	9.7305	289539	prompt	n/a	phantom trance tests adoption\n
145.918	0.075	291836	keystroke_p	p	n/a
146.263	0.075	292526	keystroke_h	h	n/a
146.7135	0.1045	293427	keystroke_a	a	n/a
147.2375	0.091	294475	keystroke_n	n	n/a
147.3875	0.091	294775	keystroke_t	t	n/a
147.5235	0.105	295047	keystroke_o	o	n/a
147.7935	0.06	295587	keystroke_m	m	n/a
148.1535	0.134	296307	keystroke_Key.space	Key.space	n/a
148.5725	0.15	297145	keystroke_t	t	n/a
148.7235	0.0895	297447	keystroke_r	r	n/a
149.0825	0.09	298165	keystroke_a	a	n/a
149.2475	0.09	298495	keystroke_n	n	n/a
149.4425	0.061	298885	keystroke_c	c	n/a
149.6535	0.089	299307	keystroke_e	e	n/a
150.1625	0.135	300325	keystroke_Key.space	Key.space	n/a
150.538	0.105	301076	keystroke_t	t	n/a
150.658	0.0905	301316	keystroke_e	e	n/a
150.883	0.09	301766	keystroke_s	s	n/a
151.123	0.045	302246	keystroke_t	t	n/a
151.333	0.075	302666	keystroke_s	s	n/a
151.603	0.12	303206	keystroke_Key.space	Key.space	n/a
151.798	0.06	303596	keystroke_a	a	n/a
152.248	0.0745	304496	keystroke_d	d	n/a
152.428	0.09	304856	keystroke_o	o	n/a
152.728	0.09	305456	keystroke_p	p	n/a
152.9685	0.075	305937	keystroke_t	t	n/a
153.1185	0.12	306237	keystroke_i	i	n/a
153.208	0.106	306416	keystroke_o	o	n/a
153.493	0.09	306986	keystroke_n	n	n/a
154.333	0.165	308666	keystroke_Key.enter	Key.enter	n/a
154.503	6.7615	309006	prompt	n/a	insert arise nextel racks\n
155.293	0.0755	310586	keystroke_i	i	n/a
155.5335	0.0895	311067	keystroke_n	n	n/a
155.6535	0.06	311307	keystroke_s	s	n/a
155.878	0.09	311756	keystroke_e	e	n/a
156.268	0.09	312536	keystroke_r	r	n/a
156.508	0.06	313016	keystroke_t	t	n/a
156.8235	0.105	313647	keystroke_Key.space	Key.space	n/a
157.0785	0.075	314157	keystroke_a	a	n/a
157.3935	0.06	314787	keystroke_r	r	n/a
157.6035	0.075	315207	keystroke_i	i	n/a
157.7085	0.0895	315417	keystroke_s	s	n/a
157.933	0.09	315866	keystroke_e	e	n/a
158.143	0.0745	316286	keystroke_Key.space	Key.space	n/a
158.338	0.0895	316676	keystroke_n	n	n/a
158.4725	0.06	316945	keystroke_e	e	n/a
158.743	0.09	317486	keystroke_x	x	n/a
159.028	0.06	318056	keystroke_t	t	n/a
159.238	0.075	318476	keystroke_e	e	n/a
159.433	0.075	318866	keystroke_l	l	n/a
159.6125	0.1505	319225	keystroke_Key.space	Key.space	n/a
159.7635	0.0295	319527	keystroke_r	r	n/a
159.958	0.06	319916	keystroke_a	a	n/a
160.183	0.075	320366	keystroke_c	c	n/a
160.318	0.09	320636	keystroke_k	k	n/a
160.5875	0.015	321175	keystroke_s	s	n/a
161.1575	0.105	322315	keystroke_Key.enter	Key.enter	n/a
161.2675	12.612	322535	prompt	n/a	folk naval audio americas\n
161.953	0.09	323906	keystroke_f	f	n/a
162.103	0.105	324206	keystroke_o	o	n/a
162.342	0.076	324684	keystroke_l	l	n/a
162.538	0.06	325076	keystroke_k	k	n/a
162.853	0.105	325706	keystroke_Key.space	Key.space	n/a
163.513	0.06	327026	keystroke_n	n	n/a
163.648	0.06	327296	keystroke_a	a	n/a
163.8875	0.0605	327775	keystroke_v	v	n/a
164.143	0.045	328286	keystroke_a	a	n/a
164.323	0.1045	328646	keystroke_l	l	n/a
164.577	0.0755	329154	keystroke_Key.space	Key.space	n/a
164.7125	0.06	329425	keystroke_a	a	n/a
164.8925	0.12	329785	keystroke_u	u	n/a
165.0725	0.09	330145	keystroke_d	d	n/a
165.2225	0.195	330445	keystroke_i	i	n/a
165.4025	0.1055	330805	keystroke_o	o	n/a
165.823	0.1345	331646	keystroke_Key.space	Key.space	n/a
166.1225	0.105	332245	keystroke_a	a	n/a
166.2725	0.0905	332545	keystroke_m	m	n/a
166.4525	0.1655	332905	keystroke_e	e	n/a
166.543	0.0895	333086	keystroke_r	r	n/a
166.7225	0.0905	333445	keystroke_i	i	n/a
166.8575	0.075	333715	keystroke_c	c	n/a
167.158	0.0895	334316	keystroke_a	a	n/a
167.4275	0.075	334855	keystroke_n	n	n/a
167.998	0.135	335996	keystroke_Key.backspace	Key.backspace	n/a
168.073	0.075	336146	keystroke_s	s	n/a
173.7905	0.0865	347581	keystroke_Key.enter	Key.enter	n/a
173.883	8.787	347766	prompt	n/a	israeli install mental tourism\n
174.8825	0.09	349765	keystroke_i	i	n/a
175.1075	0.0745	350215	keystroke_s	s	n/a
175.857	0.075	351714	keystroke_r	r	n/a
176.878	0.059	353756	keystroke_a	a	n/a
177.148	0.075	354296	keystroke_e	e	n/a
177.4925	0.09	354985	keystroke_l	l	n/a
177.7325	0.075	355465	keystroke_i	i	n/a
177.9875	0.09	355975	keystroke_Key.space	Key.space	n/a
178.1825	0.0605	356365	keystroke_i	i	n/a
178.3785	0.075	356757	keystroke_n	n	n/a
178.4825	0.046	356965	keystroke_s	s	n/a
178.6325	0.06	357265	keystroke_t	t	n/a
178.8285	0.089	357657	keystroke_a	a	n/a
178.9325	0.06	357865	keystroke_l	l	n/a
179.0675	0.0905	358135	keystroke_l	l	n/a
179.1885	0.119	358377	keystroke_Key.space	Key.space	n/a
179.2785	0.075	358557	keystroke_m	m	n/a
179.3675	0.0755	358735	keystroke_e	e	n/a
179.488	0.09	358976	keystroke_n	n	n/a
179.593	0.06	359186	keystroke_t	t	n/a
179.803	0.09	359606	keystroke_a	a	n/a
179.878	0.15	359756	keystroke_l	l	n/a
180.013	0.105	360026	keystroke_Key.space	Key.space	n/a
180.238	0.075	360476	keystroke_t	t	n/a
180.343	0.18	360686	keystroke_o	o	n/a
180.508	0.075	361016	keystroke_u	u	n/a
180.628	0.075	361256	keystroke_r	r	n/a
180.778	0.0755	361556	keystroke_i	i	n/a
180.9425	0.061	361885	keystroke_s	s	n/a
181.0625	0.09	362125	keystroke_m	m	n/a
182.593	0.075	365186	keystroke_Key.enter	Key.enter	n/a
182.6755	9.1	365351	prompt	n/a	rick disk representation transmitted\n
183.6125	0.075	367225	keystroke_r	r	n/a
183.778	0.09	367556	keystroke_i	i	n/a
184.0475	0.0755	368095	keystroke_c	c	n/a
184.258	0.075	368516	keystroke_k	k	n/a
184.513	0.0895	369026	keystroke_Key.space	Key.space	n/a
184.6475	0.09	369295	keystroke_d	d	n/a
184.8135	0.0595	369627	keystroke_i	i	n/a
184.948	0.06	369896	keystroke_s	s	n/a
185.098	0.045	370196	keystroke_k	k	n/a
185.3525	0.1055	370705	keystroke_Key.space	Key.space	n/a
185.7575	0.075	371515	keystroke_r	r	n/a
185.9685	0.045	371937	keystroke_e	e	n/a
186.0885	0.06	372177	keystroke_p	p	n/a
186.1925	0.061	372385	keystroke_r	r	n/a
186.3585	0.06	372717	keystroke_e	e	n/a
186.5235	0.045	373047	keystroke_s	s	n/a
186.6735	0.075	373347	keystroke_e	e	n/a
186.7635	0.075	373527	keystroke_n	n	n/a
186.8845	0.044	373769	keystroke_t	t	n/a
187.0635	0.074	374127	keystroke_a	a	n/a
187.2435	0.074	374487	keystroke_t	t	n/a
187.3335	0.06	374667	keystroke_i	i	n/a
187.3635	0.09	374727	keystroke_o	o	n/a
187.5575	0.121	375115	keystroke_n	n	n/a
187.6925	0.105	375385	keystroke_Key.space	Key.space	n/a
187.7675	0.075	375535	keystroke_t	t	n/a
187.9935	0.074	375987	keystroke_a	a	n/a
188.1285	0.075	376257	keystroke_n	n	n/a
188.2635	0.09	376527	keystroke_s	s	n/a
188.7885	0.075	377577	keystroke_Key.backspace	Key.backspace	n/a
188.9825	0.046	377965	keystroke_Key.backspace	Key.backspace	n/a
189.1035	0.075	378207	keystroke_Key.backspace	Key.backspace	n/a
189.2535	0.06	378507	keystroke_r	r	n/a
189.4935	0.06	378987	keystroke_a	a	n/a
189.6585	0.074	379317	keystroke_n	n	n/a
189.7785	0.09	379557	keystroke_s	s	n/a
190.0635	0.06	380127	keystroke_m	m	n/a
190.2735	0.0745	380547	keystroke_i	i	n/a
190.6035	0.06	381207	keystroke_t	t	n/a
190.7385	0.0595	381477	keystroke_t	t	n/a
190.8885	0.075	381777	keystroke_e	e	n/a
191.0835	0.09	382167	keystroke_d	d	n/a
191.6835	0.09	383367	keystroke_Key.enter	Key.enter	n/a
191.7775	13.7675	383555	prompt	n/a	istanbul entrance wood wicked\n
192.823	0.0605	385646	keystroke_i	i	n/a
192.928	0.0605	385856	keystroke_s	s	n/a
193.1835	0.06	386367	keystroke_t	t	n/a
193.5135	0.075	387027	keystroke_a	a	n/a
193.6335	0.09	387267	keystroke_n	n	n/a
193.963	0.0755	387926	keystroke_b	b	n/a
194.068	0.09	388136	keystroke_u	u	n/a
194.398	0.075	388796	keystroke_l	l	n/a
194.563	0.075	389126	keystroke_l	l	n/a
195.4335	0.0895	390867	keystroke_Key.backspace	Key.backspace	n/a
195.778	0.075	391556	keystroke_Key.space	Key.space	n/a
195.928	0.1055	391856	keystroke_e	e	n/a
196.093	0.105	392186	keystroke_n	n	n/a
196.2435	0.1045	392487	keystroke_t	t	n/a
196.4085	0.0745	392817	keystroke_r	r	n/a
196.978	0.075	393956	keystroke_a	a	n/a
197.1885	0.0745	394377	keystroke_n	n	n/a
197.368	0.0755	394736	keystroke_c	c	n/a
197.6235	0.075	395247	keystroke_e	e	n/a
198.1335	0.09	396267	keystroke_Key.space	Key.space	n/a
198.284	0.0895	396568	keystroke_w	w	n/a
198.4485	0.045	396897	keystroke_o	o	n/a
198.5985	0.0745	397197	keystroke_o	o	n/a
198.763	0.045	397526	keystroke_d	d	n/a
199.633	0.0905	399266	keystroke_Key.space	Key.space	n/a
199.8585	0.075	399717	keystroke_w	w	n/a
200.053	0.09	400106	keystroke_i	i	n/a
200.188	0.105	400376	keystroke_c	c	n/a
200.353	0.075	400706	keystroke_k	k	n/a
200.5335	0.0745	401067	keystroke_e	e	n/a
200.773	0.0755	401546	keystroke_d	d	n/a
205.5	0.0435	411000	keystroke_Key.enter	Key.enter	n/a
205.548	9.717	411096	prompt	n/a	humor precision yeast intensity\n
207.508	0.1505	415016	keystroke_h	h	n/a
207.6435	0.0595	415287	keystroke_u	u	n/a
207.898	0.0905	415796	keystroke_m	m	n/a
208.078	0.09	416156	keystroke_o	o	n/a
208.2435	0.09	416487	keystroke_r	r	n/a
208.4985	0.09	416997	keystroke_Key.space	Key.space	n/a
208.7085	0.09	417417	keystroke_p	p	n/a
208.8135	0.075	417627	keystroke_r	r	n/a
209.0385	0.075	418077	keystroke_e	e	n/a
209.2935	0.09	418587	keystroke_c	c	n/a
209.4885	0.0905	418977	keystroke_i	i	n/a
209.668	0.076	419336	keystroke_s	s	n/a
209.908	0.136	419816	keystroke_i	i	n/a
210.028	0.0905	420056	keystroke_o	o	n/a
210.283	0.076	420566	keystroke_n	n	n/a
210.568	0.106	421136	keystroke_Key.space	Key.space	n/a
211.2285	0.09	422457	keystroke_y	y	n/a
211.3335	0.09	422667	keystroke_e	e	n/a
211.5735	0.0455	423147	keystroke_a	a	n/a
211.7835	0.06	423567	keystroke_s	s	n/a
212.009	0.0595	424018	keystroke_t	t	n/a
212.2185	0.09	424437	keystroke_Key.space	Key.space	n/a
212.5785	0.075	425157	keystroke_i	i	n/a
212.7885	0.1055	425577	keystroke_n	n	n/a
213.1485	0.06	426297	keystroke_t	t	n/a
213.3435	0.075	426687	keystroke_e	e	n/a
213.4785	0.105	426957	keystroke_n	n	n/a
213.8535	0.075	427707	keystroke_s	s	n/a
213.974	0.0745	427948	keystroke_i	i	n/a
214.1985	0.135	428397	keystroke_t	t	n/a
214.3035	0.0905	428607	keystroke_y	y	n/a
215.1435	0.1195	430287	keystroke_Key.enter	Key.enter	n/a
215.2685	10.3025	430537	prompt	n/a	activities humanities acer volvo\n
215.924	0.074	431848	keystroke_a	a	n/a
216.149	0.075	432298	keystroke_c	c	n/a
216.4335	0.075	432867	keystroke_t	t	n/a
216.6135	0.105	433227	keystroke_i	i	n/a
217.994	0.075	435988	keystroke_v	v	n/a
218.234	0.09	436468	keystroke_i	i	n/a
218.459	0.06	436918	keystroke_t	t	n/a
218.624	0.06	437248	keystroke_i	i	n/a
218.729	0.075	437458	keystroke_e	e	n/a
218.924	0.09	437848	keystroke_s	s	n/a
219.2085	0.0305	438417	keystroke_Key.space	Key.space	n/a
219.569	0.12	439138	keystroke_h	h	n/a
219.734	0.09	439468	keystroke_u	u	n/a
220.049	0.075	440098	keystroke_m	m	n/a
220.319	0.09	440638	keystroke_a	a	n/a
220.469	0.105	440938	keystroke_n	n	n/a
220.679	0.09	441358	keystroke_i	i	n/a
220.934	0.09	441868	keystroke_t	t	n/a
221.084	0.09	442168	keystroke_i	i	n/a
221.234	0.075	442468	keystroke_e	e	n/a
221.414	0.105	442828	keystroke_s	s	n/a
221.729	0.09	443458	keystroke_Key.space	Key.space	n/a
221.984	0.075	443968	keystroke_a	a	n/a
222.224	0.075	444448	keystroke_c	c	n/a
222.4645	0.1795	444929	keystroke_e	e	n/a
222.599	0.105	445198	keystroke_r	r	n/a
222.809	0.135	445618	keystroke_Key.space	Key.space	n/a
223.034	0.09	446068	keystroke_v	v	n/a
223.199	0.0905	446398	keystroke_o	o	n/a
223.484	0.075	446968	keystroke_l	l	n/a
223.6195	0.0745	447239	keystroke_v	v	n/a
223.949	0.06	447898	keystroke_o	o	n/a
225.479	0.09	450958	keystroke_Key.enter	Key.enter	n/a
225.574	7.602	451148	prompt	n/a	cyber tell estimate detail\n
226.289	0.1045	452578	keystroke_c	c	n/a
226.544	0.1045	453088	keystroke_y	y	n/a
226.7245	0.074	453449	keystroke_b	b	n/a
226.9495	0.164	453899	keystroke_e	e	n/a
227.0995	0.075	454199	keystroke_r	r	n/a
227.3535	0.12	454707	keystroke_Key.space	Key.space	n/a
227.5185	0.076	455037	keystroke_t	t	n/a
227.6535	0.09	455307	keystroke_e	e	n/a
227.804	0.0745	455608	keystroke_l	l	n/a
227.9835	0.091	455967	keystroke_l	l	n/a
228.1335	0.105	456267	keystroke_Key.space	Key.space	n/a
228.2995	0.059	456599	keystroke_e	e	n/a
228.539	0.0745	457078	keystroke_s	s	n/a
228.959	0.075	457918	keystroke_t	t	n/a
229.1395	0.0745	458279	keystroke_i	i	n/a
229.334	0.09	458668	keystroke_m	m	n/a
229.484	0.075	458968	keystroke_a	a	n/a
229.7695	0.075	459539	keystroke_t	t	n/a
229.9345	0.075	459869	keystroke_e	e	n/a
230.7145	0.0895	461429	keystroke_Key.space	Key.space	n/a
230.8645	0.06	461729	keystroke_d	d	n/a
231.0595	0.09	462119	keystroke_e	e	n/a
231.3145	0.06	462629	keystroke_t	t	n/a
231.9145	0.06	463829	keystroke_a	a	n/a
232.079	0.0595	464158	keystroke_i	i	n/a
232.3495	0.059	464699	keystroke_l	l	n/a
233.069	0.105	466138	keystroke_Key.enter	Key.enter	n/a
233.1795	13.1065	466359	prompt	n/a	editor hotmail compact evaluations\n
233.999	0.075	467998	keystroke_e	e	n/a
234.209	0.075	468418	keystroke_d	d	n/a
234.434	0.09	468868	keystroke_i	i	n/a
234.704	0.06	469408	keystroke_t	t	n/a
234.869	0.09	469738	keystroke_o	o	n/a
235.004	0.09	470008	keystroke_r	r	n/a
235.199	0.12	470398	keystroke_Key.space	Key.space	n/a
235.3345	0.0895	470669	keystroke_h	h	n/a
235.499	0.1205	470998	keystroke_o	o	n/a
235.7395	0.06	471479	keystroke_t	t	n/a
236.0995	0.105	472199	keystroke_m	m	n/a
236.309	0.0905	472618	keystroke_a	a	n/a
236.4285	0.09	472857	keystroke_i	i	n/a
236.7895	0.075	473579	keystroke_l	l	n/a
237.4045	0.075	474809	keystroke_Key.space	Key.space	n/a
237.5995	0.075	475199	keystroke_c	c	n/a
237.7195	0.09	475439	keystroke_o	o	n/a
237.9295	0.075	475859	keystroke_m	m	n/a
239.609	0.135	479218	keystroke_p	p	n/a
239.8795	0.0745	479759	keystroke_a	a	n/a
240.749	0.1045	481498	keystroke_c	c	n/a
241.2285	0.075	482457	keystroke_t	t	n/a
241.5135	0.09	483027	keystroke_Key.space	Key.space	n/a
241.7245	0.074	483449	keystroke_e	e	n/a
242.0085	0.075	484017	keystroke_v	v	n/a
242.3995	0.075	484799	keystroke_a	a	n/a
243.2535	0.0905	486507	keystroke_l	l	n/a
244.4995	0.0755	488999	keystroke_u	u	n/a
244.6645	0.075	489329	keystroke_a	a	n/a
244.9795	0.105	489959	keystroke_t	t	n/a
245.099	0.12	490198	keystroke_i	i	n/a
245.175	0.119	490350	keystroke_o	o	n/a
245.444	0.075	490888	keystroke_n	n	n/a
245.594	0.06	491188	keystroke_s	s	n/a
246.194	0.09	492388	keystroke_Key.enter	Key.enter	n/a
246.2895	11.321	492579	prompt	n/a	weeks remind posts forbidden\n
248.024	0.1055	496048	keystroke_w	w	n/a
248.429	0.09	496858	keystroke_e	e	n/a
248.579	0.1055	497158	keystroke_e	e	n/a
248.864	0.135	497728	keystroke_k	k	n/a
249.4645	0.09	498929	keystroke_s	s	n/a
249.7345	0.12	499469	keystroke_Key.space	Key.space	n/a
249.9745	0.09	499949	keystroke_r	r	n/a
250.1695	0.09	500339	keystroke_e	e	n/a
250.305	0.1645	500610	keystroke_m	m	n/a
250.4995	0.089	500999	keystroke_i	i	n/a
250.6495	0.105	501299	keystroke_n	n	n/a
250.859	0.075	501718	keystroke_d	d	n/a
251.144	0.15	502288	keystroke_Key.space	Key.space	n/a
251.354	0.1355	502708	keystroke_p	p	n/a
251.504	0.105	503008	keystroke_o	o	n/a
251.624	0.0755	503248	keystroke_s	s	n/a
251.819	0.06	503638	keystroke_t	t	n/a
252.059	0.09	504118	keystroke_s	s	n/a
252.914	0.09	505828	keystroke_Key.space	Key.space	n/a
253.169	0.06	506338	keystroke_f	f	n/a
253.334	0.0755	506668	keystroke_o	o	n/a
253.514	0.06	507028	keystroke_r	r	n/a
254.039	0.0605	508078	keystroke_b	b	n/a
254.2045	0.0595	508409	keystroke_i	i	n/a
254.354	0.0605	508708	keystroke_d	d	n/a
254.5345	0.06	509069	keystroke_d	d	n/a
255.0145	0.075	510029	keystroke_e	e	n/a
255.3445	0.135	510689	keystroke_n	n	n/a
257.581	0.028	515162	keystroke_Key.enter	Key.enter	n/a
257.6145	13.1065	515229	prompt	n/a	zoom recorder apply they'd\n
258.6745	0.0595	517349	keystroke_z	z	n/a
258.869	0.0455	517738	keystroke_o	o	n/a
259.2145	0.09	518429	keystroke_o	o	n/a
259.5295	0.075	519059	keystroke_m	m	n/a
260.0395	0.09	520079	keystroke_Key.space	Key.space	n/a
260.3995	0.075	520799	keystroke_r	r	n/a
260.6095	0.06	521219	keystroke_e	e	n/a
260.8645	0.1045	521729	keystroke_c	c	n/a
261.149	0.121	522298	keystroke_o	o	n/a
261.3145	0.0595	522629	keystroke_r	r	n/a
261.569	0.09	523138	keystroke_d	d	n/a
261.824	0.151	523648	keystroke_e	e	n/a
261.96	0.074	523920	keystroke_r	r	n/a
262.619	0.1055	525238	keystroke_Key.space	Key.space	n/a
262.8145	0.0905	525629	keystroke_a	a	n/a
263.145	0.089	526290	keystroke_p	p	n/a
263.309	0.121	526618	keystroke_p	p	n/a
263.475	0.09	526950	keystroke_l	l	n/a
263.64	0.09	527280	keystroke_u	u	n/a
264.5845	0.0595	529169	keystroke_Key.backspace	Key.backspace	n/a
264.795	0.075	529590	keystroke_y	y	n/a
265.439	0.09	530878	keystroke_Key.space	Key.space	n/a
265.514	0.1205	531028	keystroke_t	t	n/a
265.6195	0.075	531239	keystroke_h	h	n/a
265.8445	0.075	531689	keystroke_e	e	n/a
266.0245	0.09	532049	keystroke_y	y	n/a
266.5945	0.075	533189	keystroke_'	'	n/a
266.909	0.0755	533818	keystroke_d	d	n/a
270.631	0.088	541262	keystroke_Key.enter	Key.enter	n/a
270.724	12.252	541448	prompt	n/a	stock deputy differ identifying\n
271.544	0.105	543088	keystroke_s	s	n/a
271.8295	0.0745	543659	keystroke_t	t	n/a
271.964	0.105	543928	keystroke_o	o	n/a
272.144	0.0905	544288	keystroke_c	c	n/a
272.3245	0.105	544649	keystroke_k	k	n/a
272.4885	0.1065	544977	keystroke_Key.space	Key.space	n/a
272.654	0.061	545308	keystroke_d	d	n/a
272.8795	0.0905	545759	keystroke_e	e	n/a
273.045	0.09	546090	keystroke_p	p	n/a
273.3595	0.0905	546719	keystroke_u	u	n/a
273.5095	0.0905	547019	keystroke_t	t	n/a
273.7495	0.06	547499	keystroke_y	y	n/a
274.2295	0.12	548459	keystroke_Key.space	Key.space	n/a
274.9045	0.09	549809	keystroke_d	d	n/a
275.0995	0.075	550199	keystroke_i	i	n/a
275.2195	0.045	550439	keystroke_f	f	n/a
275.3545	0.075	550709	keystroke_f	f	n/a
275.5945	0.165	551189	keystroke_e	e	n/a
275.7295	0.105	551459	keystroke_r	r	n/a
276.224	0.1355	552448	keystroke_Key.space	Key.space	n/a
276.585	0.075	553170	keystroke_i	i	n/a
276.661	0.074	553322	keystroke_d	d	n/a
276.885	0.06	553770	keystroke_e	e	n/a
276.99	0.0885	553980	keystroke_n	n	n/a
277.6645	0.075	555329	keystroke_t	t	n/a
277.8735	0.075	555747	keystroke_i	i	n/a
278.0395	0.105	556079	keystroke_f	f	n/a
278.37	0.075	556740	keystroke_y	y	n/a
278.534	0.061	557068	keystroke_i	i	n/a
278.6995	0.0745	557399	keystroke_n	n	n/a
278.8345	0.0745	557669	keystroke_g	g	n/a
282.9015	0.073	565803	keystroke_Key.enter	Key.enter	n/a
282.979	15.987	565958	prompt	n/a	orbit hungary baghdad regards\n
284.0245	0.12	568049	keystroke_o	o	n/a
284.1295	0.06	568259	keystroke_r	r	n/a
284.3245	0.09	568649	keystroke_b	b	n/a
284.4895	0.09	568979	keystroke_i	i	n/a
284.6245	0.075	569249	keystroke_t	t	n/a
284.7895	0.12	569579	keystroke_Key.space	Key.space	n/a
284.9395	0.135	569879	keystroke_h	h	n/a
285.1195	0.09	570239	keystroke_u	u	n/a
285.3445	0.06	570689	keystroke_n	n	n/a
285.5395	0.075	571079	keystroke_g	g	n/a
286.0045	0.06	572009	keystroke_a	a	n/a
286.26	0.0595	572520	keystroke_r	r	n/a
286.4845	0.135	572969	keystroke_t	t	n/a
287.2945	0.1045	574589	keystroke_Key.backspace	Key.backspace	n/a
287.415	0.075	574830	keystroke_y	y	n/a
287.7895	0.1045	575579	keystroke_Key.space	Key.space	n/a
288.5095	0.0895	577019	keystroke_b	b	n/a
290.7765	0	581553	keystroke_a	a	n/a
291.0895	0.09	582179	keystroke_g	g	n/a
291.3295	0.06	582659	keystroke_h	h	n/a
292.4995	0.06	584999	keystroke_d	d	n/a
292.6945	0.06	585389	keystroke_a	a	n/a
292.8895	0.06	585779	keystroke_d	d	n/a
293.2795	0.105	586559	keystroke_Key.space	Key.space	n/a
295.034	0.135	590068	keystroke_r	r	n/a
295.1095	0.1045	590219	keystroke_e	e	n/a
295.424	0.0605	590848	keystroke_g	g	n/a
295.6645	0.09	591329	keystroke_a	a	n/a
295.8895	0.0745	591779	keystroke_r	r	n/a
296.1145	0.0895	592229	keystroke_d	d	n/a
296.3085	0.091	592617	keystroke_s	s	n/a
298.876	0.088	597752	keystroke_Key.enter	Key.enter	n/a
298.9685	13.0925	597937	prompt	n/a	reform walt holders drainage\n
299.8945	0.075	599789	keystroke_r	r	n/a
300.1045	0.06	600209	keystroke_e	e	n/a
300.2995	0.09	600599	keystroke_f	f	n/a
300.4955	0.104	600991	keystroke_o	o	n/a
300.6145	0.075	601229	keystroke_r	r	n/a
300.7945	0.075	601589	keystroke_m	m	n/a
301.2295	0.15	602459	keystroke_Key.space	Key.space	n/a
301.3345	0.075	602669	keystroke_w	w	n/a
301.5745	0.075	603149	keystroke_a	a	n/a
302.28	0.09	604560	keystroke_l	l	n/a
302.414	0.09	604828	keystroke_t	t	n/a
302.774	0.1355	605548	keystroke_Key.space	Key.space	n/a
303.614	0.075	607228	keystroke_h	h	n/a
303.794	0.1055	607588	keystroke_o	o	n/a
304.139	0.09	608278	keystroke_l	l	n/a
304.304	0.09	608608	keystroke_d	d	n/a
304.574	0.18	609148	keystroke_e	e	n/a
304.739	0.0605	609478	keystroke_r	r	n/a
305.054	0.09	610108	keystroke_s	s	n/a
305.744	0.1055	611488	keystroke_Key.space	Key.space	n/a
306.3445	0.0755	612689	keystroke_d	d	n/a
306.5695	0.06	613139	keystroke_r	r	n/a
306.9445	0.09	613889	keystroke_a	a	n/a
307.0945	0.09	614189	keystroke_i	i	n/a
307.32	0.0895	614640	keystroke_n	n	n/a
307.6645	0.044	615329	keystroke_a	a	n/a
308.0245	0.0455	616049	keystroke_g	g	n/a
308.3245	0.075	616649	keystroke_e	e	n/a
312.016	0.043	624032	keystroke_Key.enter	Key.enter	n/a
312.072	11.374	624144	prompt	n/a	greenhouse continued thermal nine\n
313.065	0.075	626130	keystroke_g	g	n/a
313.2	0.0745	626400	keystroke_r	r	n/a
313.4695	0.075	626939	keystroke_e	e	n/a
313.694	0.061	627388	keystroke_e	e	n/a
313.889	0.09	627778	keystroke_n	n	n/a
314.1445	0.0905	628289	keystroke_h	h	n/a
314.3695	0.1645	628739	keystroke_o	o	n/a
314.52	0.119	629040	keystroke_u	u	n/a
314.699	0.076	629398	keystroke_s	s	n/a
315.0295	0.0455	630059	keystroke_e	e	n/a
315.539	0.135	631078	keystroke_Key.space	Key.space	n/a
315.764	0.09	631528	keystroke_c	c	n/a
315.9595	0.1045	631919	keystroke_o	o	n/a
316.3195	0.0745	632639	keystroke_n	n	n/a
316.589	0.075	633178	keystroke_t	t	n/a
316.7695	0.09	633539	keystroke_i	i	n/a
317.0245	0.06	634049	keystroke_n	n	n/a
317.3695	0.1045	634739	keystroke_u	u	n/a
317.519	0.075	635038	keystroke_e	e	n/a
317.774	0.06	635548	keystroke_d	d	n/a
318.164	0.105	636328	keystroke_Key.space	Key.space	n/a
318.9145	0.135	637829	keystroke_t	t	n/a
319.0645	0.09	638129	keystroke_h	h	n/a
319.8595	0.12	639719	keystroke_e	e	n/a
319.9195	0.09	639839	keystroke_r	r	n/a
320.1745	0.06	640349	keystroke_m	m	n/a
320.3245	0.075	640649	keystroke_a	a	n/a
320.5045	0.105	641009	keystroke_l	l	n/a
320.8945	0.12	641789	keystroke_Key.space	Key.space	n/a
321.3745	0.09	642749	keystroke_n	n	n/a
321.5695	0.06	643139	keystroke_i	i	n/a
321.7495	0.09	643499	keystroke_n	n	n/a
322.0195	0.06	644039	keystroke_e	e	n/a
323.2795	0.165	646559	keystroke_Key.enter	Key.enter	n/a
323.449	10.7375	646898	prompt	n/a	inbox lift cyber lightning\n
324.4645	0.075	648929	keystroke_i	i	n/a
324.6745	0.075	649349	keystroke_n	n	n/a
324.8545	0.075	649709	keystroke_b	b	n/a
325.0795	0.0745	650159	keystroke_o	o	n/a
326.399	0.0755	652798	keystroke_x	x	n/a
326.789	0.105	653578	keystroke_Key.space	Key.space	n/a
327.135	0.075	654270	keystroke_l	l	n/a
327.42	0.09	654840	keystroke_i	i	n/a
327.675	0.09	655350	keystroke_f	f	n/a
327.9745	0.0605	655949	keystroke_t	t	n/a
328.6045	0.09	657209	keystroke_Key.space	Key.space	n/a
329.2045	0.09	658409	keystroke_c	c	n/a
329.5495	0.075	659099	keystroke_y	y	n/a
330.0895	0.06	660179	keystroke_b	b	n/a
330.3145	0.18	660629	keystroke_e	e	n/a
330.4645	0.12	660929	keystroke_r	r	n/a
330.8535	0.106	661707	keystroke_Key.space	Key.space	n/a
331.049	0.1055	662098	keystroke_l	l	n/a
331.2895	0.06	662579	keystroke_i	i	n/a
331.4095	0.165	662819	keystroke_g	g	n/a
331.5295	0.075	663059	keystroke_h	h	n/a
331.7545	0.06	663509	keystroke_t	t	n/a
332.4595	0.09	664919	keystroke_n	n	n/a
332.6395	0.12	665279	keystroke_i	i	n/a
332.8045	0.075	665609	keystroke_n	n	n/a
333.1645	0.135	666329	keystroke_g	g	n/a
334.049	0.135	668098	keystroke_Key.enter	Key.enter	n/a
334.1895	11.1565	668379	prompt	n/a	lance investor initiated sean\n
335.024	0.12	670048	keystroke_l	l	n/a
335.234	0.075	670468	keystroke_a	a	n/a
335.4295	0.0895	670859	keystroke_n	n	n/a
335.5945	0.0895	671189	keystroke_c	c	n/a
335.834	0.105	671668	keystroke_e	e	n/a
336.0745	0.1345	672149	keystroke_Key.space	Key.space	n/a
336.254	0.0755	672508	keystroke_i	i	n/a
336.4645	0.09	672929	keystroke_n	n	n/a
336.6595	0.06	673319	keystroke_v	v	n/a
336.8695	0.075	673739	keystroke_e	e	n/a
337.4395	0.09	674879	keystroke_s	s	n/a
337.7845	0.075	675569	keystroke_t	t	n/a
337.9795	0.105	675959	keystroke_o	o	n/a
338.1595	0.075	676319	keystroke_r	r	n/a
338.6845	0.15	677369	keystroke_Key.space	Key.space	n/a
338.9395	0.075	677879	keystroke_i	i	n/a
339.225	0.0595	678450	keystroke_n	n	n/a
339.7795	0.09	679559	keystroke_i	i	n/a
340.0345	0.09	680069	keystroke_t	t	n/a
340.2895	0.045	680579	keystroke_i	i	n/a
340.694	0.06	681388	keystroke_a	a	n/a
341.6095	0.075	683219	keystroke_t	t	n/a
341.8945	0.09	683789	keystroke_e	e	n/a
342.1345	0.09	684269	keystroke_d	d	n/a
342.4795	0.12	684959	keystroke_Key.space	Key.space	n/a
342.6895	0.06	685379	keystroke_s	s	n/a
342.8995	0.075	685799	keystroke_e	e	n/a
343.1395	0.075	686279	keystroke_a	a	n/a
343.3495	0.06	686699	keystroke_n	n	n/a
345.2395	0.105	690479	keystroke_Key.enter	Key.enter	n/a
345.349	8.637	690698	prompt	n/a	heat technique reduces kate\n
346.3195	0.0895	692639	keystroke_h	h	n/a
346.4245	0.075	692849	keystroke_e	e	n/a
346.6495	0.074	693299	keystroke_a	a	n/a
346.9335	0.076	693867	keystroke_t	t	n/a
347.309	0.1055	694618	keystroke_Key.space	Key.space	n/a
347.5195	0.075	695039	keystroke_t	t	n/a
347.6995	0.09	695399	keystroke_e	e	n/a
347.9245	0.075	695849	keystroke_c	c	n/a
348.1195	0.0595	696239	keystroke_h	h	n/a
348.374	0.075	696748	keystroke_n	n	n/a
348.5845	0.09	697169	keystroke_i	i	n/a
348.8095	0.09	697619	keystroke_q	q	n/a
348.9595	0.12	697919	keystroke_u	u	n/a
349.1695	0.06	698339	keystroke_e	e	n/a
349.7545	0.09	699509	keystroke_Key.space	Key.space	n/a
350.0245	0.12	700049	keystroke_r	r	n/a
350.1595	0.09	700319	keystroke_e	e	n/a
350.8345	0.09	701669	keystroke_d	d	n/a
350.9845	0.15	701969	keystroke_u	u	n/a
351.644	0.1205	703288	keystroke_c	c	n/a
351.8855	0.059	703771	keystroke_e	e	n/a
352.08	0.0895	704160	keystroke_s	s	n/a
352.3645	0.105	704729	keystroke_Key.space	Key.space	n/a
352.6945	0.09	705389	keystroke_k	k	n/a
352.7995	0.075	705599	keystroke_a	a	n/a
353.0845	0.075	706169	keystroke_t	t	n/a
353.2495	0.09	706499	keystroke_e	e	n/a
353.8645	0.12	707729	keystroke_Key.enter	Key.enter	n/a
353.989	6.7615	707978	prompt	n/a	acres chest anger cure\n
354.615	0.0745	709230	keystroke_a	a	n/a
354.8395	0.075	709679	keystroke_c	c	n/a
355.0795	0.075	710159	keystroke_r	r	n/a
355.1845	0.09	710369	keystroke_e	e	n/a
355.4245	0.06	710849	keystroke_s	s	n/a
355.6195	0.12	711239	keystroke_Key.space	Key.space	n/a
355.7845	0.075	711569	keystroke_c	c	n/a
355.9645	0.06	711929	keystroke_h	h	n/a
356.0845	0.075	712169	keystroke_e	e	n/a
356.3095	0.075	712619	keystroke_s	s	n/a
356.5945	0.06	713189	keystroke_t	t	n/a
357.104	0.09	714208	keystroke_Key.space	Key.space	n/a
357.224	0.09	714448	keystroke_a	a	n/a
357.479	0.075	714958	keystroke_n	n	n/a
357.6295	0.0745	715259	keystroke_g	g	n/a
357.9295	0.1945	715859	keystroke_e	e	n/a
358.109	0.075	716218	keystroke_r	r	n/a
358.379	0.105	716758	keystroke_Key.space	Key.space	n/a
358.529	0.075	717058	keystroke_c	c	n/a
358.709	0.09	717418	keystroke_u	u	n/a
358.844	0.0755	717688	keystroke_t	t	n/a
359.054	0.045	718108	keystroke_e	e	n/a
359.594	0.045	719188	keystroke_Key.backspace	Key.backspace	n/a
359.714	0.09	719428	keystroke_Key.backspace	Key.backspace	n/a
359.834	0.0905	719668	keystroke_r	r	n/a
359.984	0.075	719968	keystroke_e	e	n/a
360.674	0.075	721348	keystroke_Key.enter	Key.enter	n/a
360.754	20.712	721508	prompt	n/a	pmid diesel electric purple\n
361.994	0.075	723988	keystroke_p	p	n/a
362.474	0.1055	724948	keystroke_m	m	n/a
362.684	0.09	725368	keystroke_i	i	n/a
362.879	0.091	725758	keystroke_d	d	n/a
363.389	0.09	726778	keystroke_Key.space	Key.space	n/a
363.6295	0.0745	727259	keystroke_d	d	n/a
363.8245	0.0895	727649	keystroke_i	i	n/a
364.064	0.075	728128	keystroke_s	s	n/a
364.964	0.075	729928	keystroke_Key.backspace	Key.backspace	n/a
365.069	0.075	730138	keystroke_e	e	n/a
365.714	0.135	731428	keystroke_s	s	n/a
366.3295	0.09	732659	keystroke_e	e	n/a
366.5395	0.09	733079	keystroke_l	l	n/a
367.0495	0.09	734099	keystroke_Key.space	Key.space	n/a
367.1995	0.09	734399	keystroke_e	e	n/a
367.4095	0.09	734819	keystroke_l	l	n/a
367.5445	0.105	735089	keystroke_e	e	n/a
367.859	0.105	735718	keystroke_c	c	n/a
368.714	0.135	737428	keystroke_t	t	n/a
369.014	0.075	738028	keystroke_r	r	n/a
369.359	0.1805	738718	keystroke_i	i	n/a
370.9345	0.0895	741869	keystroke_c	c	n/a
371.2945	0.1495	742589	keystroke_Key.space	Key.space	n/a
371.549	0.12	743098	keystroke_p	p	n/a
371.879	0.09	743758	keystroke_u	u	n/a
371.999	0.105	743998	keystroke_r	r	n/a
372.224	0.1055	744448	keystroke_p	p	n/a
372.419	0.075	744838	keystroke_l	l	n/a
373.349	0.06	746698	keystroke_e	e	n/a
381.346	0.118	762692	keystroke_Key.enter	Key.enter	n/a
381.469	11.187	762938	prompt	n/a	nurses analyzed maiden causing\n
382.6945	0.135	765389	keystroke_n	n	n/a
382.9645	0.09	765929	keystroke_u	u	n/a
383.2345	0.09	766469	keystroke_r	r	n/a
383.6395	0.075	767279	keystroke_s	s	n/a
383.849	0.075	767698	keystroke_e	e	n/a
384.059	0.06	768118	keystroke_s	s	n/a
384.4495	0.12	768899	keystroke_Key.space	Key.space	n/a
384.6295	0.09	769259	keystroke_a	a	n/a
384.7345	0.09	769469	keystroke_n	n	n/a
384.8995	0.06	769799	keystroke_a	a	n/a
385.0195	0.105	770039	keystroke_l	l	n/a
385.3795	0.09	770759	keystroke_y	y	n/a
385.544	0.075	771088	keystroke_z	z	n/a
385.86	0.075	771720	keystroke_e	e	n/a
386.069	0.09	772138	keystroke_d	d	n/a
386.504	0.105	773008	keystroke_Key.space	Key.space	n/a
386.8345	0.075	773669	keystroke_m	m	n/a
386.9845	0.09	773969	keystroke_a	a	n/a
387.1945	0.06	774389	keystroke_i	i	n/a
387.4045	0.09	774809	keystroke_d	d	n/a
387.6745	0.075	775349	keystroke_e	e	n/a
387.8395	0.09	775679	keystroke_n	n	n/a
388.349	0.105	776698	keystroke_Key.space	Key.space	n/a
388.5895	0.0895	777179	keystroke_c	c	n/a
388.904	0.075	777808	keystroke_a	a	n/a
389.144	0.09	778288	keystroke_u	u	n/a
389.309	0.075	778618	keystroke_s	s	n/a
389.519	0.075	779038	keystroke_i	i	n/a
389.714	0.075	779428	keystroke_n	n	n/a
389.834	0.075	779668	keystroke_g	g	n/a
392.611	0.043	785222	keystroke_Key.enter	Key.enter	n/a
392.659	9.132	785318	prompt	n/a	links protein votes line\n
393.6	0.0895	787200	keystroke_l	l	n/a
393.764	0.0755	787528	keystroke_i	i	n/a
394.019	0.12	788038	keystroke_n	n	n/a
394.109	0.105	788218	keystroke_k	k	n/a
394.289	0.105	788578	keystroke_s	s	n/a
394.5895	0.1045	789179	keystroke_Key.space	Key.space	n/a
394.829	0.1055	789658	keystroke_p	p	n/a
395.0395	0.075	790079	keystroke_r	r	n/a
395.1895	0.105	790379	keystroke_o	o	n/a
395.3995	0.06	790799	keystroke_t	t	n/a
395.6395	0.105	791279	keystroke_e	e	n/a
395.8195	0.09	791639	keystroke_i	i	n/a
396.0895	0.075	792179	keystroke_n	n	n/a
396.5995	0.12	793199	keystroke_Key.space	Key.space	n/a
396.8545	0.075	793709	keystroke_v	v	n/a
397.3945	0.075	794789	keystroke_o	o	n/a
397.6195	0.06	795239	keystroke_t	t	n/a
397.7995	0.06	795599	keystroke_e	e	n/a
398.0245	0.075	796049	keystroke_s	s	n/a
398.2345	0.09	796469	keystroke_Key.space	Key.space	n/a
398.4295	0.075	796859	keystroke_l	l	n/a
398.6395	0.045	797279	keystroke_i	i	n/a
398.8485	0.076	797697	keystroke_n	n	n/a
398.9845	0.1045	797969	keystroke_e	e	n/a
401.7315	0.058	803463	keystroke_Key.enter	Key.enter	n/a
401.794	13.2415	803588	prompt	n/a	spray nylon acquisitions dare\n
402.5545	0.09	805109	keystroke_s	s	n/a
402.8705	0.149	805741	keystroke_p	p	n/a
403.0495	0.0745	806099	keystroke_r	r	n/a
403.289	0.075	806578	keystroke_a	a	n/a
403.439	0.121	806878	keystroke_y	y	n/a
403.7395	0.105	807479	keystroke_Key.space	Key.space	n/a
404.715	0.0595	809430	keystroke_n	n	n/a
404.8795	0.06	809759	keystroke_y	y	n/a
405.4045	0.0905	810809	keystroke_l	l	n/a
405.6295	0.06	811259	keystroke_o	o	n/a
405.8695	0.0745	811739	keystroke_n	n	n/a
406.4695	0.105	812939	keystroke_Key.space	Key.space	n/a
406.7695	0.09	813539	keystroke_a	a	n/a
407.1445	0.12	814289	keystroke_c	c	n/a
407.654	0.1355	815308	keystroke_q	q	n/a
408.4495	0.1195	816899	keystroke_u	u	n/a
409.5745	0.135	819149	keystroke_i	i	n/a
410.6545	0.105	821309	keystroke_s	s	n/a
411.0595	0.075	822119	keystroke_i	i	n/a
411.1945	0.105	822389	keystroke_t	t	n/a
411.435	0.1035	822870	keystroke_i	i	n/a
411.5245	0.09	823049	keystroke_o	o	n/a
411.7795	0.09	823559	keystroke_n	n	n/a
412.0495	0.075	824099	keystroke_s	s	n/a
412.4545	0.12	824909	keystroke_Key.space	Key.space	n/a
412.6045	0.045	825209	keystroke_d	d	n/a
412.8745	0.105	825749	keystroke_a	a	n/a
413.1295	0.105	826259	keystroke_r	r	n/a
413.2495	0.105	826499	keystroke_e	e	n/a
414.8845	0.15	829769	keystroke_Key.enter	Key.enter	n/a
415.039	11.562	830078	prompt	n/a	alternatives looks mods loads\n
416.0095	0.075	832019	keystroke_a	a	n/a
416.22	0.1495	832440	keystroke_l	l	n/a
416.459	0.075	832918	keystroke_t	t	n/a
416.669	0.1205	833338	keystroke_e	e	n/a
416.7745	0.075	833549	keystroke_r	r	n/a
417.135	0.134	834270	keystroke_n	n	n/a
417.839	0.12	835678	keystroke_a	a	n/a
418.2145	0.09	836429	keystroke_t	t	n/a
418.3795	0.135	836759	keystroke_i	i	n/a
419.3695	0.06	838739	keystroke_v	v	n/a
419.5945	0.075	839189	keystroke_e	e	n/a
419.8045	0.09	839609	keystroke_s	s	n/a
420.059	0.105	840118	keystroke_Key.space	Key.space	n/a
420.299	0.0905	840598	keystroke_l	l	n/a
420.524	0.0755	841048	keystroke_o	o	n/a
420.704	0.15	841408	keystroke_o	o	n/a
421.0495	0.075	842099	keystroke_k	k	n/a
421.484	0.105	842968	keystroke_Key.space	Key.space	n/a
421.694	0.075	843388	keystroke_m	m	n/a
421.889	0.0755	843778	keystroke_o	o	n/a
422.489	0.0605	844978	keystroke_Key.backspace	Key.backspace	n/a
422.654	0.075	845308	keystroke_Key.backspace	Key.backspace	n/a
422.804	0.105	845608	keystroke_Key.backspace	Key.backspace	n/a
423.119	0.09	846238	keystroke_s	s	n/a
423.374	0.105	846748	keystroke_Key.space	Key.space	n/a
423.494	0.105	846988	keystroke_m	m	n/a
423.719	0.1055	847438	keystroke_o	o	n/a
423.854	0.09	847708	keystroke_d	d	n/a
424.094	0.075	848188	keystroke_s	s	n/a
424.349	0.09	848698	keystroke_Key.space	Key.space	n/a
424.589	0.0755	849178	keystroke_l	l	n/a
424.829	0.076	849658	keystroke_o	o	n/a
425.024	0.06	850048	keystroke_a	a	n/a
425.309	0.06	850618	keystroke_d	d	n/a
425.519	0.075	851038	keystroke_s	s	n/a
426.4645	0.135	852929	keystroke_Key.enter	Key.enter	n/a
426.604	12.5365	853208	prompt	n/a	director lambda transport diabetes\n
427.38	0.12	854760	keystroke_d	d	n/a
427.5895	0.0905	855179	keystroke_i	i	n/a
427.755	0.075	855510	keystroke_r	r	n/a
427.995	0.074	855990	keystroke_e	e	n/a
428.205	0.105	856410	keystroke_c	c	n/a
428.52	0.09	857040	keystroke_t	t	n/a
428.805	0.12	857610	keystroke_o	o	n/a
429.0145	0.045	858029	keystroke_r	r	n/a
429.2845	0.09	858569	keystroke_Key.space	Key.space	n/a
429.5395	0.105	859079	keystroke_l	l	n/a
429.6895	0.09	859379	keystroke_a	a	n/a
429.8845	0.075	859769	keystroke_m	m	n/a
430.1395	0.075	860279	keystroke_b	b	n/a
431.489	0.075	862978	keystroke_d	d	n/a
431.7435	0.0755	863487	keystroke_a	a	n/a
432.1195	0.12	864239	keystroke_Key.space	Key.space	n/a
432.3295	0.105	864659	keystroke_t	t	n/a
432.4355	0.074	864871	keystroke_r	r	n/a
432.7345	0.075	865469	keystroke_a	a	n/a
432.8695	0.075	865739	keystroke_n	n	n/a
433.0195	0.06	866039	keystroke_s	s	n/a
433.1845	0.18	866369	keystroke_p	p	n/a
433.3345	0.12	866669	keystroke_o	o	n/a
433.4695	0.21	866939	keystroke_r	r	n/a
433.665	0.075	867330	keystroke_t	t	n/a
434.1445	0.105	868289	keystroke_Key.space	Key.space	n/a
434.3245	0.165	868649	keystroke_d	d	n/a
434.6395	0.09	869279	keystroke_i	i	n/a
434.9095	0.09	869819	keystroke_a	a	n/a
435.9145	0.0905	871829	keystroke_b	b	n/a
436.289	0.09	872578	keystroke_e	e	n/a
436.5895	0.0595	873179	keystroke_t	t	n/a
436.7695	0.075	873539	keystroke_e	e	n/a
437.144	0.09	874288	keystroke_s	s	n/a
438.989	0.15	877978	keystroke_Key.enter	Key.enter	n/a
439.146	12.7595	878292	prompt	n/a	deviant cove villa supplements\n
440.0395	0.0745	880079	keystroke_d	d	n/a
440.2345	0.0745	880469	keystroke_e	e	n/a
440.4445	0.0895	880889	keystroke_v	v	n/a
440.6395	0.0895	881279	keystroke_i	i	n/a
440.864	0.075	881728	keystroke_a	a	n/a
441.029	0.0905	882058	keystroke_n	n	n/a
441.21	0.075	882420	keystroke_t	t	n/a
441.494	0.135	882988	keystroke_Key.space	Key.space	n/a
441.824	0.106	883648	keystroke_c	c	n/a
441.975	0.089	883950	keystroke_o	o	n/a
442.124	0.075	884248	keystroke_v	v	n/a
442.3345	0.075	884669	keystroke_e	e	n/a
442.634	0.135	885268	keystroke_Key.space	Key.space	n/a
443.834	0.075	887668	keystroke_v	v	n/a
443.9545	0.075	887909	keystroke_i	i	n/a
444.224	0.03	888448	keystroke_l	l	n/a
444.359	0.0755	888718	keystroke_l	l	n/a
444.539	0.075	889078	keystroke_a	a	n/a
444.794	0.105	889588	keystroke_Key.space	Key.space	n/a
444.944	0.105	889888	keystroke_s	s	n/a
445.274	0.075	890548	keystroke_u	u	n/a
445.5295	0.09	891059	keystroke_p	p	n/a
445.7245	0.075	891449	keystroke_p	p	n/a
447.1795	0.075	894359	keystroke_l	l	n/a
447.4045	0.045	894809	keystroke_e	e	n/a
447.5995	0.06	895199	keystroke_m	m	n/a
447.7495	0.089	895499	keystroke_e	e	n/a
447.9745	0.059	895949	keystroke_n	n	n/a
448.1545	0.045	896309	keystroke_t	t	n/a
448.7685	0.106	897537	keystroke_s	s	n/a
451.8465	0.058	903693	keystroke_Key.enter	Key.enter	n/a
451.909	7.8265	903818	prompt	n/a	married fifth result purple\n
452.8195	0.075	905639	keystroke_m	m	n/a
452.9095	0.09	905819	keystroke_a	a	n/a
453.1645	0.045	906329	keystroke_r	r	n/a
453.3145	0.075	906629	keystroke_r	r	n/a
453.4795	0.0745	906959	keystroke_i	i	n/a
453.599	0.075	907198	keystroke_e	e	n/a
453.824	0.06	907648	keystroke_d	d	n/a
454.034	0.09	908068	keystroke_Key.space	Key.space	n/a
454.259	0.1055	908518	keystroke_f	f	n/a
454.4245	0.105	908849	keystroke_i	i	n/a
454.9795	0.0755	909959	keystroke_f	f	n/a
455.3095	0.181	910619	keystroke_t	t	n/a
455.4445	0.09	910889	keystroke_h	h	n/a
456.1635	0.09	912327	keystroke_Key.space	Key.space	n/a
456.5235	0.076	913047	keystroke_r	r	n/a
456.7495	0.075	913499	keystroke_e	e	n/a
456.9445	0.0745	913889	keystroke_s	s	n/a
457.0645	0.075	914129	keystroke_u	u	n/a
457.4245	0.074	914849	keystroke_l	l	n/a
457.6035	0.0605	915207	keystroke_t	t	n/a
457.8285	0.0905	915657	keystroke_Key.space	Key.space	n/a
457.9635	0.09	915927	keystroke_p	p	n/a
458.2035	0.075	916407	keystroke_u	u	n/a
458.3095	0.0595	916619	keystroke_r	r	n/a
458.4435	0.135	916887	keystroke_p	p	n/a
458.5495	0.1205	917099	keystroke_l	l	n/a
458.7585	0.091	917517	keystroke_e	e	n/a
459.6145	0.1195	919229	keystroke_Key.enter	Key.enter	n/a
459.7385	8.4875	919477	prompt	n/a	sometimes marion liable cnet\n
460.289	0.09	920578	keystroke_s	s	n/a
460.394	0.0905	920788	keystroke_o	o	n/a
460.604	0.0755	921208	keystroke_m	m	n/a
460.6945	0.0745	921389	keystroke_e	e	n/a
460.949	0.075	921898	keystroke_t	t	n/a
461.039	0.075	922078	keystroke_i	i	n/a
461.189	0.1055	922378	keystroke_m	m	n/a
461.3095	0.0745	922619	keystroke_e	e	n/a
461.5645	0.0745	923129	keystroke_s	s	n/a
462.0145	0.0895	924029	keystroke_Key.space	Key.space	n/a
462.329	0.09	924658	keystroke_m	m	n/a
462.509	0.075	925018	keystroke_a	a	n/a
462.704	0.075	925408	keystroke_r	r	n/a
462.7945	0.1195	925589	keystroke_i	i	n/a
462.899	0.12	925798	keystroke_o	o	n/a
463.1695	0.105	926339	keystroke_n	n	n/a
463.3195	0.104	926639	keystroke_Key.space	Key.space	n/a
463.8445	0.105	927689	keystroke_l	l	n/a
464.0545	0.09	928109	keystroke_i	i	n/a
464.2645	0.09	928529	keystroke_a	a	n/a
464.6095	0.06	929219	keystroke_b	b	n/a
464.7595	0.09	929519	keystroke_l	l	n/a
464.9095	0.06	929819	keystroke_e	e	n/a
465.1195	0.075	930239	keystroke_Key.space	Key.space	n/a
465.2545	0.09	930509	keystroke_c	c	n/a
465.4345	0.105	930869	keystroke_n	n	n/a
465.7345	0.06	931469	keystroke_e	e	n/a
465.9595	0.045	931919	keystroke_t	t	n/a
468.181	0.043	936362	keystroke_Key.enter	Key.enter	n/a
468.229	10.317	936458	prompt	n/a	newport monica congressional lithuania\n
469.244	0.09	938488	keystroke_n	n	n/a
469.364	0.0755	938728	keystroke_e	e	n/a
469.559	0.06	939118	keystroke_w	w	n/a
469.664	0.195	939328	keystroke_p	p	n/a
469.814	0.1355	939628	keystroke_o	o	n/a
469.9345	0.165	939869	keystroke_r	r	n/a
470.0695	0.075	940139	keystroke_t	t	n/a
470.2345	0.135	940469	keystroke_Key.space	Key.space	n/a
470.3845	0.105	940769	keystroke_m	m	n/a
470.5645	0.105	941129	keystroke_o	o	n/a
470.8345	0.165	941669	keystroke_n	n	n/a
470.9695	0.135	941939	keystroke_i	i	n/a
471.1495	0.089	942299	keystroke_c	c	n/a
471.6895	0.075	943379	keystroke_a	a	n/a
471.9595	0.09	943919	keystroke_Key.space	Key.space	n/a
472.1845	0.105	944369	keystroke_c	c	n/a
472.3035	0.091	944607	keystroke_o	o	n/a
472.5135	0.09	945027	keystroke_n	n	n/a
472.634	0.06	945268	keystroke_g	g	n/a
472.844	0.075	945688	keystroke_r	r	n/a
473.054	0.06	946108	keystroke_e	e	n/a
473.25	0.0435	946500	keystroke_s	s	n/a
473.3545	0.0745	946709	keystroke_s	s	n/a
473.5195	0.135	947039	keystroke_i	i	n/a
473.6395	0.1045	947279	keystroke_o	o	n/a
473.8485	0.09	947697	keystroke_n	n	n/a
474.0285	0.03	948057	keystroke_a	a	n/a
474.1795	0.0745	948359	keystroke_l	l	n/a
474.989	0.105	949978	keystroke_Key.space	Key.space	n/a
475.574	0.105	951148	keystroke_l	l	n/a
475.814	0.075	951628	keystroke_i	i	n/a
476.234	0.1495	952468	keystroke_t	t	n/a
476.3685	0.091	952737	keystroke_h	h	n/a
476.594	0.105	953188	keystroke_u	u	n/a
477.104	0.0895	954208	keystroke_a	a	n/a
477.299	0.18	954598	keystroke_n	n	n/a
477.434	0.135	954868	keystroke_i	i	n/a
477.644	0.06	955288	keystroke_a	a	n/a
478.424	0.12	956848	keystroke_Key.enter	Key.enter	n/a
478.549	12.222	957098	prompt	n/a	nervous mountains japanese quad\n
479.5795	0.0595	959159	keystroke_n	n	n/a
479.7145	0.1495	959429	keystroke_e	e	n/a
479.82	0.089	959640	keystroke_r	r	n/a
480.119	0.075	960238	keystroke_v	v	n/a
480.254	0.135	960508	keystroke_o	o	n/a
480.509	0.076	961018	keystroke_u	u	n/a
480.69	0.06	961380	keystroke_s	s	n/a
481.169	0.1205	962338	keystroke_Key.space	Key.space	n/a
481.4395	0.06	962879	keystroke_m	m	n/a
481.6345	0.09	963269	keystroke_o	o	n/a
481.9045	0.06	963809	keystroke_u	u	n/a
482.789	0.105	965578	keystroke_n	n	n/a
482.924	0.075	965848	keystroke_t	t	n/a
483.224	0.09	966448	keystroke_a	a	n/a
483.359	0.0755	966718	keystroke_i	i	n/a
483.5995	0.104	967199	keystroke_n	n	n/a
483.8385	0.045	967677	keystroke_s	s	n/a
484.1685	0.061	968337	keystroke_Key.space	Key.space	n/a
484.8435	0.061	969687	keystroke_j	j	n/a
485.024	0.06	970048	keystroke_a	a	n/a
485.249	0.075	970498	keystroke_p	p	n/a
485.954	0.0755	971908	keystroke_a	a	n/a
486.149	0.09	972298	keystroke_n	n	n/a
486.419	0.075	972838	keystroke_e	e	n/a
486.629	0.075	973258	keystroke_s	s	n/a
486.839	0.09	973678	keystroke_e	e	n/a
487.259	0.09	974518	keystroke_Key.space	Key.space	n/a
487.769	0.075	975538	keystroke_q	q	n/a
488.024	0.12	976048	keystroke_u	u	n/a
488.249	0.06	976498	keystroke_a	a	n/a
488.5645	0.0595	977129	keystroke_d	d	n/a
490.6185	0.15	981237	keystroke_Key.enter	Key.enter	n/a
490.774	18.6265	981548	prompt	n/a	relations ability zinc align\n
491.745	0.1195	983490	keystroke_r	r	n/a
491.9845	0.1045	983969	keystroke_e	e	n/a
492.149	0.1055	984298	keystroke_l	l	n/a
492.2845	0.0745	984569	keystroke_a	a	n/a
492.57	0.059	985140	keystroke_t	t	n/a
492.659	0.135	985318	keystroke_i	i	n/a
492.764	0.1205	985528	keystroke_o	o	n/a
493.079	0.0755	986158	keystroke_n	n	n/a
493.259	0.09	986518	keystroke_s	s	n/a
493.619	0.105	987238	keystroke_Key.space	Key.space	n/a
493.874	0.045	987748	keystroke_a	a	n/a
494.204	0.075	988408	keystroke_b	b	n/a
494.354	0.0605	988708	keystroke_i	i	n/a
494.594	0.06	989188	keystroke_l	l	n/a
494.819	0.06	989638	keystroke_i	i	n/a
494.954	0.15	989908	keystroke_t	t	n/a
495.1185	0.0605	990237	keystroke_y	y	n/a
495.3735	0.06	990747	keystroke_Key.space	Key.space	n/a
496.304	0.075	992608	keystroke_z	z	n/a
496.4395	0.045	992879	keystroke_i	i	n/a
496.664	0.075	993328	keystroke_n	n	n/a
496.994	0.075	993988	keystroke_c	c	n/a
501.4815	0.028	1002963	keystroke_a	a	n/a
501.6145	0.15	1003229	keystroke_l	l	n/a
501.9745	0.074	1003949	keystroke_i	i	n/a
502.1985	0.06	1004397	keystroke_g	g	n/a
502.6185	0.06	1005237	keystroke_Key.backspace	Key.backspace	n/a
502.7835	0.061	1005567	keystroke_Key.backspace	Key.backspace	n/a
503.1295	0.074	1006259	keystroke_Key.backspace	Key.backspace	n/a
503.9995	0.0745	1007999	keystroke_Key.backspace	Key.backspace	n/a
504.2545	0.06	1008509	keystroke_Key.space	Key.space	n/a
504.4345	0.06	1008869	keystroke_a	a	n/a
504.6295	0.03	1009259	keystroke_l	l	n/a
504.8545	0.075	1009709	keystroke_i	i	n/a
505.0645	0.06	1010129	keystroke_g	g	n/a
505.2745	0.03	1010549	keystroke_n	n	n/a
509.326	0.073	1018652	keystroke_Key.enter	Key.enter	n/a
509.404	14.5175	1018808	prompt	n/a	proceeds shorts insertion paraguay\n
510.3585	0.09	1020717	keystroke_p	p	n/a
510.4645	0.06	1020929	keystroke_r	r	n/a
510.5845	0.104	1021169	keystroke_o	o	n/a
510.6745	0.089	1021349	keystroke_c	c	n/a
510.8535	0.076	1021707	keystroke_e	e	n/a
511.064	0.0305	1022128	keystroke_s	s	n/a
511.1985	0.046	1022397	keystroke_s	s	n/a
513.2985	0.105	1026597	keystroke_Key.backspace	Key.backspace	n/a
513.569	0.1045	1027138	keystroke_Key.backspace	Key.backspace	n/a
514.6795	0.075	1029359	keystroke_e	e	n/a
515.5795	0.075	1031159	keystroke_d	d	n/a
515.7895	0.075	1031579	keystroke_s	s	n/a
516.0745	0.09	1032149	keystroke_Key.space	Key.space	n/a
516.2995	0.09	1032599	keystroke_s	s	n/a
516.4195	0.06	1032839	keystroke_h	h	n/a
516.5845	0.105	1033169	keystroke_o	o	n/a
516.7045	0.12	1033409	keystroke_r	r	n/a
516.8095	0.06	1033619	keystroke_t	t	n/a
517.1235	0.061	1034247	keystroke_s	s	n/a
517.5285	0.151	1035057	keystroke_Key.space	Key.space	n/a
517.724	0.1055	1035448	keystroke_i	i	n/a
517.8745	0.135	1035749	keystroke_n	n	n/a
517.994	0.0605	1035988	keystroke_s	s	n/a
518.204	0.12	1036408	keystroke_e	e	n/a
518.2795	0.09	1036559	keystroke_r	r	n/a
518.5045	0.0595	1037009	keystroke_t	t	n/a
518.834	0.135	1037668	keystroke_i	i	n/a
518.939	0.106	1037878	keystroke_o	o	n/a
519.1945	0.09	1038389	keystroke_n	n	n/a
519.4645	0.12	1038929	keystroke_Key.space	Key.space	n/a
519.6895	0.09	1039379	keystroke_p	p	n/a
519.8245	0.075	1039649	keystroke_a	a	n/a
520.0345	0.045	1040069	keystroke_r	r	n/a
520.1695	0.075	1040339	keystroke_a	a	n/a
520.4545	0.06	1040909	keystroke_g	g	n/a
520.6345	0.105	1041269	keystroke_u	u	n/a
521.2345	0.09	1042469	keystroke_a	a	n/a
521.3835	0.105	1042767	keystroke_y	y	n/a
523.8165	0.103	1047633	keystroke_Key.enter	Key.enter	n/a
523.9245	8.0235	1047849	prompt	n/a	fits girls cedar older\n
524.9695	0.075	1049939	keystroke_f	f	n/a
525.1495	0.09	1050299	keystroke_i	i	n/a
525.3145	0.06	1050629	keystroke_t	t	n/a
525.7645	0.075	1051529	keystroke_s	s	n/a
525.9735	0.121	1051947	keystroke_Key.space	Key.space	n/a
526.1845	0.105	1052369	keystroke_g	g	n/a
526.3645	0.105	1052729	keystroke_i	i	n/a
526.4845	0.09	1052969	keystroke_r	r	n/a
526.7395	0.089	1053479	keystroke_l	l	n/a
526.9045	0.075	1053809	keystroke_s	s	n/a
527.1295	0.09	1054259	keystroke_Key.space	Key.space	n/a
527.4145	0.0895	1054829	keystroke_c	c	n/a
527.6235	0.061	1055247	keystroke_e	e	n/a
528.1045	0.075	1056209	keystroke_d	d	n/a
528.4645	0.075	1056929	keystroke_a	a	n/a
528.7345	0.06	1057469	keystroke_r	r	n/a
528.9285	0.105	1057857	keystroke_Key.space	Key.space	n/a
529.095	0.0745	1058190	keystroke_o	o	n/a
529.3195	0.0895	1058639	keystroke_l	l	n/a
529.4235	0.06	1058847	keystroke_d	d	n/a
529.6035	0.166	1059207	keystroke_e	e	n/a
529.7545	0.075	1059509	keystroke_r	r	n/a
531.8085	0.136	1063617	keystroke_Key.enter	Key.enter	n/a
531.9545	8.826	1063909	prompt	n/a	wage sheriff manitoba mart\n
532.754	0.0755	1065508	keystroke_w	w	n/a
532.979	0.06	1065958	keystroke_a	a	n/a
533.234	0.045	1066468	keystroke_g	g	n/a
533.4295	0.0595	1066859	keystroke_e	e	n/a
533.639	0.105	1067278	keystroke_Key.space	Key.space	n/a
533.924	0.06	1067848	keystroke_s	s	n/a
534.089	0.06	1068178	keystroke_h	h	n/a
534.2545	0.0745	1068509	keystroke_e	e	n/a
534.884	0.0905	1069768	keystroke_r	r	n/a
535.0495	0.0895	1070099	keystroke_i	i	n/a
535.244	0.06	1070488	keystroke_f	f	n/a
535.409	0.075	1070818	keystroke_f	f	n/a
536.1745	0.0745	1072349	keystroke_Key.space	Key.space	n/a
536.4445	0.075	1072889	keystroke_m	m	n/a
536.7295	0.0745	1073459	keystroke_a	a	n/a
537.1945	0.12	1074389	keystroke_n	n	n/a
537.4195	0.075	1074839	keystroke_i	i	n/a
538.4995	0.06	1076999	keystroke_t	t	n/a
538.6495	0.09	1077299	keystroke_o	o	n/a
538.7985	0.076	1077597	keystroke_b	b	n/a
539.0985	0.076	1078197	keystroke_a	a	n/a
539.414	0.0905	1078828	keystroke_Key.space	Key.space	n/a
539.7145	0.09	1079429	keystroke_m	m	n/a
539.8345	0.09	1079669	keystroke_a	a	n/a
540.0595	0.105	1080119	keystroke_r	r	n/a
540.3145	0.06	1080629	keystroke_t	t	n/a
540.7045	0.0745	1081409	keystroke_Key.enter	Key.enter	n/a
540.7835	19.1535	1081567	prompt	n/a	holidays indonesia specialties algorithms\n
541.7395	0.06	1083479	keystroke_h	h	n/a
541.875	0.074	1083750	keystroke_o	o	n/a
542.0845	0.075	1084169	keystroke_l	l	n/a
542.234	0.0895	1084468	keystroke_i	i	n/a
542.3395	0.075	1084679	keystroke_d	d	n/a
542.5195	0.074	1085039	keystroke_a	a	n/a
542.6235	0.12	1085247	keystroke_y	y	n/a
542.804	0.0745	1085608	keystroke_s	s	n/a
542.9385	0.136	1085877	keystroke_Key.space	Key.space	n/a
543.1335	0.076	1086267	keystroke_i	i	n/a
543.3595	0.09	1086719	keystroke_n	n	n/a
543.6445	0.075	1087289	keystroke_d	d	n/a
543.7945	0.09	1087589	keystroke_o	o	n/a
544.0345	0.0905	1088069	keystroke_n	n	n/a
544.2745	0.06	1088549	keystroke_e	e	n/a
544.4695	0.075	1088939	keystroke_s	s	n/a
544.6195	0.074	1089239	keystroke_i	i	n/a
544.7695	0.075	1089539	keystroke_a	a	n/a
545.0695	0.09	1090139	keystroke_Key.space	Key.space	n/a
545.3095	0.09	1090619	keystroke_s	s	n/a
545.4895	0.075	1090979	keystroke_p	p	n/a
545.6845	0.075	1091369	keystroke_e	e	n/a
546.1645	0.075	1092329	keystroke_c	c	n/a
546.3445	0.09	1092689	keystroke_i	i	n/a
546.5545	0.0595	1093109	keystroke_a	a	n/a
548.369	0.105	1096738	keystroke_l	l	n/a
549.119	0.09	1098238	keystroke_t	t	n/a
549.284	0.075	1098568	keystroke_i	i	n/a
549.404	0.09	1098808	keystroke_e	e	n/a
549.599	0.075	1099198	keystroke_s	s	n/a
549.779	0.12	1099558	keystroke_Key.space	Key.space	n/a
551.7895	0.075	1103579	keystroke_a	a	n/a
552.0295	0.075	1104059	keystroke_l	l	n/a
552.254	0.0755	1104508	keystroke_g	g	n/a
552.4645	0.105	1104929	keystroke_o	o	n/a
553.3195	0.104	1106639	keystroke_r	r	n/a
553.6935	0.121	1107387	keystroke_i	i	n/a
554.4595	0.18	1108919	keystroke_t	t	n/a
554.5795	0.12	1109159	keystroke_h	h	n/a
554.7895	0.105	1109579	keystroke_m	m	n/a
555.2095	0.075	1110419	keystroke_s	s	n/a
559.8905	0.044	1119781	keystroke_Key.enter	Key.enter	n/a
559.9415	13.059	1119883	prompt	n/a	elements nowhere pasta ratios\n
560.8795	0.09	1121759	keystroke_e	e	n/a
561.0295	0.09	1122059	keystroke_l	l	n/a
561.1645	0.09	1122329	keystroke_e	e	n/a
561.3745	0.0895	1122749	keystroke_m	m	n/a
561.689	0.075	1123378	keystroke_t	t	n/a
562.199	0.09	1124398	keystroke_Key.backspace	Key.backspace	n/a
562.469	0.075	1124938	keystroke_e	e	n/a
562.589	0.09	1125178	keystroke_n	n	n/a
562.77	0.074	1125540	keystroke_t	t	n/a
563.084	0.06	1126168	keystroke_s	s	n/a
563.444	0.135	1126888	keystroke_Key.space	Key.space	n/a
563.849	0.091	1127698	keystroke_n	n	n/a
564.015	0.089	1128030	keystroke_o	o	n/a
564.2245	0.0595	1128449	keystroke_w	w	n/a
564.374	0.09	1128748	keystroke_h	h	n/a
564.479	0.165	1128958	keystroke_e	e	n/a
564.629	0.135	1129258	keystroke_r	r	n/a
564.765	0.104	1129530	keystroke_e	e	n/a
565.379	0.105	1130758	keystroke_Key.space	Key.space	n/a
565.679	0.0905	1131358	keystroke_p	p	n/a
565.7695	0.15	1131539	keystroke_a	a	n/a
565.904	0.0905	1131808	keystroke_s	s	n/a
566.189	0.075	1132378	keystroke_t	t	n/a
566.6695	0.105	1133339	keystroke_a	a	n/a
566.879	0.1055	1133758	keystroke_Key.space	Key.space	n/a
567.015	0.059	1134030	keystroke_r	r	n/a
567.224	0.091	1134448	keystroke_a	a	n/a
567.599	0.075	1135198	keystroke_t	t	n/a
567.749	0.15	1135498	keystroke_i	i	n/a
567.854	0.136	1135708	keystroke_o	o	n/a
568.065	0.074	1136130	keystroke_s	s	n/a
572.9415	0.058	1145883	keystroke_Key.enter	Key.enter	n/a
573.004	11.922	1146008	prompt	n/a	arrives angry bobby promotion\n
573.8845	0.105	1147769	keystroke_a	a	n/a
574.1545	0.075	1148309	keystroke_r	r	n/a
574.3195	0.0595	1148639	keystroke_r	r	n/a
574.56	0.104	1149120	keystroke_i	i	n/a
574.694	0.09	1149388	keystroke_v	v	n/a
575.0545	0.075	1150109	keystroke_e	e	n/a
575.3095	0.075	1150619	keystroke_s	s	n/a
575.8795	0.135	1151759	keystroke_Key.space	Key.space	n/a
576.1345	0.045	1152269	keystroke_a	a	n/a
576.315	0.074	1152630	keystroke_n	n	n/a
576.494	0.0755	1152988	keystroke_g	g	n/a
576.644	0.06	1153288	keystroke_r	r	n/a
576.839	0.06	1153678	keystroke_y	y	n/a
577.3195	0.1195	1154639	keystroke_Key.space	Key.space	n/a
578.2945	0.075	1156589	keystroke_b	b	n/a
578.504	0.0755	1157008	keystroke_o	o	n/a
578.7895	0.045	1157579	keystroke_b	b	n/a
578.8945	0.12	1157789	keystroke_b	b	n/a
579.194	0.1055	1158388	keystroke_y	y	n/a
579.929	0.09	1159858	keystroke_Key.space	Key.space	n/a
580.23	0.074	1160460	keystroke_p	p	n/a
580.3795	0.09	1160759	keystroke_r	r	n/a
580.5295	0.075	1161059	keystroke_o	o	n/a
581.1445	0.12	1162289	keystroke_m	m	n/a
581.3395	0.105	1162679	keystroke_o	o	n/a
581.549	0.076	1163098	keystroke_t	t	n/a
581.73	0.119	1163460	keystroke_i	i	n/a
581.835	0.1195	1163670	keystroke_o	o	n/a
582.105	0.089	1164210	keystroke_n	n	n/a
584.896	0.028	1169792	keystroke_Key.enter	Key.enter	n/a
584.929	13.8275	1169858	prompt	n/a	books illinois owned fatty\n
585.749	0.091	1171498	keystroke_b	b	n/a
586.7845	0.06	1173569	keystroke_o	o	n/a
586.9345	0.09	1173869	keystroke_o	o	n/a
587.2945	0.0605	1174589	keystroke_k	k	n/a
587.5645	0.075	1175129	keystroke_s	s	n/a
587.9095	0.075	1175819	keystroke_Key.space	Key.space	n/a
588.1645	0.12	1176329	keystroke_i	i	n/a
588.5545	0.06	1177109	keystroke_l	l	n/a
588.7345	0.06	1177469	keystroke_l	l	n/a
590.2945	0.12	1180589	keystroke_i	i	n/a
591.0595	0.09	1182119	keystroke_n	n	n/a
591.3895	0.105	1182779	keystroke_o	o	n/a
592.1245	0.075	1184249	keystroke_i	i	n/a
592.2595	0.075	1184519	keystroke_s	s	n/a
592.4545	0.09	1184909	keystroke_Key.space	Key.space	n/a
592.589	0.121	1185178	keystroke_o	o	n/a
592.9195	0.1195	1185839	keystroke_w	w	n/a
593.5195	0.1195	1187039	keystroke_n	n	n/a
593.714	0.09	1187428	keystroke_e	e	n/a
593.94	0.075	1187880	keystroke_d	d	n/a
594.164	0.121	1188328	keystroke_Key.space	Key.space	n/a
594.27	0.06	1188540	keystroke_f	f	n/a
594.494	0.061	1188988	keystroke_a	a	n/a
594.78	0.06	1189560	keystroke_t	t	n/a
594.915	0.059	1189830	keystroke_t	t	n/a
595.17	0.074	1190340	keystroke_y	y	n/a
598.6815	0.073	1197363	keystroke_Key.enter	Key.enter	n/a
598.759	11.9975	1197518	prompt	n/a	nationally craig sweet convenience\n
599.7745	0.075	1199549	keystroke_n	n	n/a
599.9095	0.09	1199819	keystroke_a	a	n/a
600.1945	0.06	1200389	keystroke_t	t	n/a
600.2995	0.105	1200599	keystroke_i	i	n/a
600.3745	0.075	1200749	keystroke_o	o	n/a
600.5695	0.075	1201139	keystroke_n	n	n/a
600.6745	0.075	1201349	keystroke_a	a	n/a
600.8395	0.075	1201679	keystroke_l	l	n/a
600.9745	0.105	1201949	keystroke_l	l	n/a
601.1545	0.075	1202309	keystroke_y	y	n/a
601.4545	0.09	1202909	keystroke_Key.space	Key.space	n/a
601.6045	0.09	1203209	keystroke_c	c	n/a
601.815	0.075	1203630	keystroke_r	r	n/a
602.0695	0.075	1204139	keystroke_a	a	n/a
602.2945	0.075	1204589	keystroke_i	i	n/a
602.4295	0.075	1204859	keystroke_g	g	n/a
602.64	0.0895	1205280	keystroke_Key.space	Key.space	n/a
602.8195	0.09	1205639	keystroke_s	s	n/a
603.0595	0.075	1206119	keystroke_w	w	n/a
603.2695	0.045	1206539	keystroke_e	e	n/a
603.39	0.0595	1206780	keystroke_e	e	n/a
603.9895	0.15	1207979	keystroke_t	t	n/a
604.6495	0.105	1209299	keystroke_Key.space	Key.space	n/a
604.8595	0.09	1209719	keystroke_c	c	n/a
605.1145	0.075	1210229	keystroke_o	o	n/a
605.4145	0.09	1210829	keystroke_n	n	n/a
605.9845	0.09	1211969	keystroke_v	v	n/a
606.224	0.09	1212448	keystroke_e	e	n/a
606.644	0.12	1213288	keystroke_n	n	n/a
607.1695	0.105	1214339	keystroke_i	i	n/a
607.515	0.0745	1215030	keystroke_e	e	n/a
607.6495	0.091	1215299	keystroke_n	n	n/a
607.7695	0.09	1215539	keystroke_c	c	n/a
607.9495	0.09	1215899	keystroke_e	e	n/a
610.6965	0.058	1221393	keystroke_Key.enter	Key.enter	n/a
610.759	12.807	1221518	prompt	n/a	represents democrats hospitality oils\n
611.6245	0.075	1223249	keystroke_r	r	n/a
611.8195	0.075	1223639	keystroke_e	e	n/a
611.9545	0.09	1223909	keystroke_p	p	n/a
612.0745	0.075	1224149	keystroke_r	r	n/a
612.2545	0.075	1224509	keystroke_e	e	n/a
612.4345	0.06	1224869	keystroke_s	s	n/a
612.6145	0.075	1225229	keystroke_e	e	n/a
612.7195	0.09	1225439	keystroke_n	n	n/a
612.8695	0.075	1225739	keystroke_t	t	n/a
613.229	0.075	1226458	keystroke_s	s	n/a
613.56	0.104	1227120	keystroke_Key.space	Key.space	n/a
613.7845	0.075	1227569	keystroke_d	d	n/a
613.9795	0.09	1227959	keystroke_e	e	n/a
614.0995	0.075	1228199	keystroke_m	m	n/a
614.2795	0.09	1228559	keystroke_o	o	n/a
614.4295	0.089	1228859	keystroke_c	c	n/a
614.6845	0.044	1229369	keystroke_r	r	n/a
614.9095	0.059	1229819	keystroke_a	a	n/a
615.149	0.061	1230298	keystroke_t	t	n/a
615.404	0.06	1230808	keystroke_s	s	n/a
615.8845	0.075	1231769	keystroke_Key.space	Key.space	n/a
616.3495	0.06	1232699	keystroke_h	h	n/a
616.5895	0.09	1233179	keystroke_o	o	n/a
616.8445	0.06	1233689	keystroke_s	s	n/a
617.6095	0.1045	1235219	keystroke_p	p	n/a
617.8945	0.0895	1235789	keystroke_i	i	n/a
618.029	0.06	1236058	keystroke_t	t	n/a
618.4195	0.0895	1236839	keystroke_a	a	n/a
618.6445	0.135	1237289	keystroke_l	l	n/a
618.8095	0.1045	1237619	keystroke_i	i	n/a
619.034	0.1805	1238068	keystroke_t	t	n/a
619.185	0.0895	1238370	keystroke_y	y	n/a
619.845	0.1045	1239690	keystroke_Key.space	Key.space	n/a
620.9545	0.075	1241909	keystroke_o	o	n/a
621.18	0.075	1242360	keystroke_i	i	n/a
621.3895	0.075	1242779	keystroke_l	l	n/a
621.524	0.075	1243048	keystroke_s	s	n/a
623.4595	0.105	1246919	keystroke_Key.enter	Key.enter	n/a
623.5695	6.6415	1247139	prompt	n/a	crowd your payroll today\n
624.2545	0.09	1248509	keystroke_c	c	n/a
624.5095	0.0745	1249019	keystroke_r	r	n/a
624.7195	0.0895	1249439	keystroke_o	o	n/a
624.854	0.075	1249708	keystroke_w	w	n/a
625.124	0.075	1250248	keystroke_d	d	n/a
625.4245	0.105	1250849	keystroke_Key.space	Key.space	n/a
625.8445	0.075	1251689	keystroke_y	y	n/a
625.9495	0.15	1251899	keystroke_o	o	n/a
626.0695	0.105	1252139	keystroke_u	u	n/a
626.2195	0.06	1252439	keystroke_r	r	n/a
626.3695	0.15	1252739	keystroke_Key.space	Key.space	n/a
626.5045	0.12	1253009	keystroke_p	p	n/a
626.6545	0.075	1253309	keystroke_a	a	n/a
626.8945	0.09	1253789	keystroke_y	y	n/a
627.224	0.0755	1254448	keystroke_r	r	n/a
627.3145	0.105	1254629	keystroke_o	o	n/a
627.5695	0.06	1255139	keystroke_l	l	n/a
627.7195	0.06	1255439	keystroke_l	l	n/a
628.1245	0.12	1256249	keystroke_Key.space	Key.space	n/a
628.4995	0.045	1256999	keystroke_t	t	n/a
628.6045	0.09	1257209	keystroke_o	o	n/a
628.7395	0.105	1257479	keystroke_d	d	n/a
628.9345	0.0755	1257869	keystroke_a	a	n/a
629.3095	0.075	1258619	keystroke_y	y	n/a
630.1045	0.105	1260209	keystroke_Key.enter	Key.enter	n/a
630.214	12.372	1260428	prompt	n/a	retrieval prevention finance madagascar\n
631.1395	0.075	1262279	keystroke_e	e	n/a
631.6645	0.105	1263329	keystroke_Key.backspace	Key.backspace	n/a
631.7995	0.06	1263599	keystroke_r	r	n/a
632.0095	0.105	1264019	keystroke_e	e	n/a
632.295	0.0745	1264590	keystroke_t	t	n/a
632.4595	0.076	1264919	keystroke_r	r	n/a
632.7145	0.1205	1265429	keystroke_i	i	n/a
632.9695	0.075	1265939	keystroke_e	e	n/a
633.4045	0.03	1266809	keystroke_v	v	n/a
633.6595	0.045	1267319	keystroke_a	a	n/a
633.8395	0.075	1267679	keystroke_l	l	n/a
634.3045	0.105	1268609	keystroke_Key.space	Key.space	n/a
634.5595	0.09	1269119	keystroke_p	p	n/a
634.6945	0.0895	1269389	keystroke_r	r	n/a
634.905	0.074	1269810	keystroke_e	e	n/a
635.099	0.06	1270198	keystroke_v	v	n/a
635.264	0.06	1270528	keystroke_e	e	n/a
635.369	0.1055	1270738	keystroke_n	n	n/a
635.579	0.045	1271158	keystroke_t	t	n/a
635.729	0.09	1271458	keystroke_i	i	n/a
635.789	0.09	1271578	keystroke_o	o	n/a
636.014	0.105	1272028	keystroke_n	n	n/a
636.134	0.09	1272268	keystroke_Key.space	Key.space	n/a
636.299	0.09	1272598	keystroke_f	f	n/a
636.434	0.075	1272868	keystroke_i	i	n/a
636.629	0.0905	1273258	keystroke_n	n	n/a
636.7645	0.0745	1273529	keystroke_a	a	n/a
636.899	0.09	1273798	keystroke_n	n	n/a
637.064	0.06	1274128	keystroke_c	c	n/a
637.2895	0.0595	1274579	keystroke_e	e	n/a
637.5895	0.0895	1275179	keystroke_Key.space	Key.space	n/a
637.8745	0.0745	1275749	keystroke_m	m	n/a
638.0695	0.06	1276139	keystroke_a	a	n/a
638.3245	0.06	1276649	keystroke_d	d	n/a
638.5495	0.075	1277099	keystroke_a	a	n/a
638.9095	0.06	1277819	keystroke_g	g	n/a
639.1945	0.06	1278389	keystroke_a	a	n/a
639.6145	0.075	1279229	keystroke_s	s	n/a
639.8095	0.06	1279619	keystroke_c	c	n/a
640.0195	0.06	1280039	keystroke_a	a	n/a
640.2295	0.045	1280459	keystroke_r	r	n/a
642.5265	0.058	1285053	keystroke_Key.enter	Key.enter	n/a
642.5895	9.4765	1285179	prompt	n/a	tyler smoking camps dense\n
643.4545	0.045	1286909	keystroke_t	t	n/a
643.6795	0.045	1287359	keystroke_y	y	n/a
643.7995	0.09	1287599	keystroke_l	l	n/a
643.9495	0.15	1287899	keystroke_e	e	n/a
644.1145	0.06	1288229	keystroke_r	r	n/a
644.6095	0.09	1289219	keystroke_Key.space	Key.space	n/a
644.7145	0.06	1289429	keystroke_s	s	n/a
644.7895	0.0755	1289579	keystroke_m	m	n/a
644.9545	0.105	1289909	keystroke_o	o	n/a
645.4945	0.075	1290989	keystroke_k	k	n/a
645.6745	0.09	1291349	keystroke_i	i	n/a
645.8095	0.1045	1291619	keystroke_n	n	n/a
646.005	0.045	1292010	keystroke_g	g	n/a
646.379	0.076	1292758	keystroke_Key.space	Key.space	n/a
646.65	0.059	1293300	keystroke_c	c	n/a
646.89	0.045	1293780	keystroke_a	a	n/a
646.994	0.06	1293988	keystroke_m	m	n/a
647.234	0.1055	1294468	keystroke_p	p	n/a
647.475	0.074	1294950	keystroke_s	s	n/a
647.8945	0.0895	1295789	keystroke_Key.space	Key.space	n/a
648.104	0.0905	1296208	keystroke_d	d	n/a
648.2995	0.09	1296599	keystroke_e	e	n/a
648.4945	0.0595	1296989	keystroke_n	n	n/a
648.614	0.06	1297228	keystroke_s	s	n/a
648.8395	0.0605	1297679	keystroke_e	e	n/a
652.0065	0.058	1304013	keystroke_Key.enter	Key.enter	n/a
652.069	14.998	1304138	prompt	n/a	price exhibits robbie generator\n
653.159	0.105	1306318	keystroke_p	p	n/a
653.28	0.074	1306560	keystroke_r	r	n/a
653.505	0.134	1307010	keystroke_i	i	n/a
653.655	0.059	1307310	keystroke_c	c	n/a
653.8645	0.0905	1307729	keystroke_e	e	n/a
654.104	0.105	1308208	keystroke_Key.space	Key.space	n/a
654.3145	0.0745	1308629	keystroke_e	e	n/a
655.1245	0.0745	1310249	keystroke_x	x	n/a
655.349	0.06	1310698	keystroke_h	h	n/a
655.544	0.105	1311088	keystroke_i	i	n/a
655.799	0.075	1311598	keystroke_b	b	n/a
656.024	0.106	1312048	keystroke_i	i	n/a
656.1745	0.0595	1312349	keystroke_t	t	n/a
656.519	0.061	1313038	keystroke_s	s	n/a
656.834	0.075	1313668	keystroke_Key.space	Key.space	n/a
657.1945	0.0745	1314389	keystroke_r	r	n/a
657.344	0.061	1314688	keystroke_o	o	n/a
657.51	0.045	1315020	keystroke_b	b	n/a
657.614	0.075	1315228	keystroke_b	b	n/a
657.809	0.075	1315618	keystroke_i	i	n/a
657.96	0.045	1315920	keystroke_e	e	n/a
658.424	0.09	1316848	keystroke_Key.space	Key.space	n/a
658.634	0.0755	1317268	keystroke_g	g	n/a
658.8895	0.0755	1317779	keystroke_e	e	n/a
659.1595	0.015	1318319	keystroke_n	n	n/a
659.2795	0.06	1318559	keystroke_e	e	n/a
659.7595	0.0755	1319519	keystroke_a	a	n/a
660.1045	0.075	1320209	keystroke_t	t	n/a
660.2695	0.105	1320539	keystroke_o	o	n/a
660.3895	0.075	1320779	keystroke_r	r	n/a
663.616	0.058	1327232	keystroke_Key.backspace	Key.backspace	n/a
663.7945	0.09	1327589	keystroke_Key.backspace	Key.backspace	n/a
664.0045	0.09	1328009	keystroke_Key.backspace	Key.backspace	n/a
664.2145	0.12	1328429	keystroke_Key.backspace	Key.backspace	n/a
664.7395	0.09	1329479	keystroke_r	r	n/a
665.0845	0.0745	1330169	keystroke_a	a	n/a
665.3845	0.0595	1330769	keystroke_t	t	n/a
665.519	0.105	1331038	keystroke_o	o	n/a
665.64	0.0595	1331280	keystroke_r	r	n/a
666.9295	0.135	1333859	keystroke_Key.enter	Key.enter	n/a
667.073	6.1885	1334146	prompt	n/a	lift hosts ride they're\n
667.754	0.105	1335508	keystroke_l	l	n/a
667.949	0.105	1335898	keystroke_i	i	n/a
668.399	0.0905	1336798	keystroke_f	f	n/a
668.639	0.0755	1337278	keystroke_t	t	n/a
668.909	0.0905	1337818	keystroke_Key.space	Key.space	n/a
669.045	0.1045	1338090	keystroke_h	h	n/a
669.1795	0.12	1338359	keystroke_o	o	n/a
669.3145	0.06	1338629	keystroke_s	s	n/a
669.4795	0.0755	1338959	keystroke_t	t	n/a
669.6895	0.09	1339379	keystroke_s	s	n/a
669.9445	0.105	1339889	keystroke_Key.space	Key.space	n/a
670.1695	0.0605	1340339	keystroke_r	r	n/a
670.3045	0.09	1340609	keystroke_i	i	n/a
670.6645	0.06	1341329	keystroke_d	d	n/a
670.8895	0.075	1341779	keystroke_e	e	n/a
671.1145	0.135	1342229	keystroke_Key.space	Key.space	n/a
671.3095	0.105	1342619	keystroke_t	t	n/a
671.384	0.0755	1342768	keystroke_h	h	n/a
671.594	0.09	1343188	keystroke_e	e	n/a
671.699	0.0905	1343398	keystroke_y	y	n/a
672.045	0.09	1344090	keystroke_'	'	n/a
672.195	0.06	1344390	keystroke_r	r	n/a
672.3595	0.075	1344719	keystroke_e	e	n/a
673.1545	0.105	1346309	keystroke_Key.enter	Key.enter	n/a
673.265	9.986	1346530	prompt	n/a	lean somewhat ctrl richard\n
674.0845	0.0895	1348169	keystroke_l	l	n/a
674.189	0.06	1348378	keystroke_e	e	n/a
674.4295	0.06	1348859	keystroke_a	a	n/a
674.5795	0.12	1349159	keystroke_n	n	n/a
674.7145	0.12	1349429	keystroke_Key.space	Key.space	n/a
674.8495	0.075	1349699	keystroke_s	s	n/a
674.9545	0.09	1349909	keystroke_o	o	n/a
675.1795	0.075	1350359	keystroke_m	m	n/a
675.3295	0.06	1350659	keystroke_e	e	n/a
675.5845	0.06	1351169	keystroke_w	w	n/a
675.7195	0.06	1351439	keystroke_h	h	n/a
675.8245	0.0895	1351649	keystroke_a	a	n/a
676.1545	0.074	1352309	keystroke_t	t	n/a
676.6485	0.1205	1353297	keystroke_Key.space	Key.space	n/a
676.7995	0.1055	1353599	keystroke_c	c	n/a
677.819	0.045	1355638	keystroke_t	t	n/a
678.149	0.075	1356298	keystroke_r	r	n/a
678.374	0.06	1356748	keystroke_l	l	n/a
678.899	0.09	1357798	keystroke_Key.space	Key.space	n/a
679.244	0.075	1358488	keystroke_r	r	n/a
679.379	0.09	1358758	keystroke_i	i	n/a
679.514	0.0905	1359028	keystroke_c	c	n/a
679.695	0.0895	1359390	keystroke_h	h	n/a
679.7995	0.09	1359599	keystroke_a	a	n/a
680.0395	0.075	1360079	keystroke_r	r	n/a
680.2645	0.12	1360529	keystroke_d	d	n/a
683.146	0.103	1366292	keystroke_Key.enter	Key.enter	n/a
683.2565	17.979	1366513	prompt	n/a	instance virus cases deutsch\n
684.1495	0.09	1368299	keystroke_i	i	n/a
684.3745	0.075	1368749	keystroke_n	n	n/a
684.555	0.0745	1369110	keystroke_s	s	n/a
684.7795	0.06	1369559	keystroke_t	t	n/a
685.0495	0.09	1370099	keystroke_a	a	n/a
685.245	0.0895	1370490	keystroke_n	n	n/a
685.4395	0.075	1370879	keystroke_c	c	n/a
685.6795	0.075	1371359	keystroke_e	e	n/a
686.279	0.12	1372558	keystroke_Key.space	Key.space	n/a
686.669	0.09	1373338	keystroke_v	v	n/a
686.789	0.12	1373578	keystroke_i	i	n/a
686.954	0.0905	1373908	keystroke_r	r	n/a
687.149	0.105	1374298	keystroke_u	u	n/a
687.329	0.09	1374658	keystroke_s	s	n/a
687.614	0.12	1375228	keystroke_Key.space	Key.space	n/a
687.974	0.09	1375948	keystroke_c	c	n/a
688.244	0.075	1376488	keystroke_a	a	n/a
688.514	0.06	1377028	keystroke_s	s	n/a
688.709	0.06	1377418	keystroke_e	e	n/a
688.8895	0.0895	1377779	keystroke_s	s	n/a
689.295	0.1195	1378590	keystroke_Key.space	Key.space	n/a
690.599	0.075	1381198	keystroke_d	d	n/a
690.839	0.091	1381678	keystroke_e	e	n/a
691.0945	0.09	1382189	keystroke_u	u	n/a
692.039	0.106	1384078	keystroke_t	t	n/a
692.8045	0.0755	1385609	keystroke_s	s	n/a
693.0895	0.06	1386179	keystroke_c	c	n/a
693.4945	0.105	1386989	keystroke_h	h	n/a
701.1175	0.1165	1402235	keystroke_Key.enter	Key.enter	n/a
701.239	12.7625	1402478	prompt	n/a	brazilian gimme mill comics\n
702.285	0.0745	1404570	keystroke_b	b	n/a
702.5395	0.045	1405079	keystroke_r	r	n/a
702.869	0.0605	1405738	keystroke_a	a	n/a
703.095	0.06	1406190	keystroke_z	z	n/a
703.395	0.09	1406790	keystroke_i	i	n/a
703.62	0.105	1407240	keystroke_l	l	n/a
703.8	0.09	1407600	keystroke_i	i	n/a
703.995	0.06	1407990	keystroke_a	a	n/a
704.145	0.09	1408290	keystroke_n	n	n/a
704.535	0.0895	1409070	keystroke_Key.space	Key.space	n/a
704.8945	0.09	1409789	keystroke_g	g	n/a
705.2995	0.09	1410599	keystroke_i	i	n/a
705.5845	0.06	1411169	keystroke_m	m	n/a
705.7345	0.075	1411469	keystroke_m	m	n/a
706.2295	0.075	1412459	keystroke_e	e	n/a
706.5745	0.1055	1413149	keystroke_Key.space	Key.space	n/a
706.8295	0.06	1413659	keystroke_m	m	n/a
707.0695	0.0755	1414139	keystroke_i	i	n/a
707.3695	0.045	1414739	keystroke_l	l	n/a
707.519	0.0605	1415038	keystroke_l	l	n/a
708.194	0.105	1416388	keystroke_Key.space	Key.space	n/a
708.5695	0.06	1417139	keystroke_c	c	n/a
708.749	0.06	1417498	keystroke_o	o	n/a
708.9895	0.1055	1417979	keystroke_m	m	n/a
709.245	0.0745	1418490	keystroke_i	i	n/a
709.529	0.045	1419058	keystroke_c	c	n/a
709.7695	0.06	1419539	keystroke_s	s	n/a
713.912	0.088	1427824	keystroke_Key.enter	Key.enter	n/a
714.0045	13.587	1428009	prompt	n/a	recorders typically large how're\n
714.9	0.09	1429800	keystroke_r	r	n/a
715.11	0.075	1430220	keystroke_e	e	n/a
715.29	0.104	1430580	keystroke_c	c	n/a
715.4545	0.1055	1430909	keystroke_o	o	n/a
715.6195	0.09	1431239	keystroke_r	r	n/a
716.5045	0.075	1433009	keystroke_d	d	n/a
716.6995	0.1505	1433399	keystroke_e	e	n/a
716.82	0.09	1433640	keystroke_r	r	n/a
717.105	0.075	1434210	keystroke_s	s	n/a
717.6	0.12	1435200	keystroke_Key.space	Key.space	n/a
717.735	0.075	1435470	keystroke_t	t	n/a
717.96	0.06	1435920	keystroke_y	y	n/a
718.2	0.09	1436400	keystroke_p	p	n/a
718.5	0.06	1437000	keystroke_i	i	n/a
718.62	0.075	1437240	keystroke_c	c	n/a
718.89	0.075	1437780	keystroke_a	a	n/a
719.055	0.075	1438110	keystroke_l	l	n/a
719.22	0.09	1438440	keystroke_l	l	n/a
719.76	0.209	1439520	keystroke_y	y	n/a
720.5545	0.075	1441109	keystroke_Key.space	Key.space	n/a
720.8995	0.075	1441799	keystroke_l	l	n/a
721.0195	0.0905	1442039	keystroke_a	a	n/a
721.2445	0.0605	1442489	keystroke_r	r	n/a
721.47	0.0595	1442940	keystroke_g	g	n/a
721.6795	0.045	1443359	keystroke_e	e	n/a
722.3545	0.0905	1444709	keystroke_Key.space	Key.space	n/a
722.625	0.09	1445250	keystroke_h	h	n/a
722.805	0.09	1445610	keystroke_o	o	n/a
722.925	0.06	1445850	keystroke_w	w	n/a
723.405	0.075	1446810	keystroke_'	'	n/a
723.5995	0.075	1447199	keystroke_r	r	n/a
723.8245	0.076	1447649	keystroke_e	e	n/a
727.5465	0.043	1455093	keystroke_Key.enter	Key.enter	n/a
727.594	11.787	1455188	prompt	n/a	me absolute height however\n
728.5195	0.1055	1457039	keystroke_m	m	n/a
728.61	0.0895	1457220	keystroke_e	e	n/a
729.06	0.12	1458120	keystroke_Key.space	Key.space	n/a
729.225	0.075	1458450	keystroke_a	a	n/a
729.615	0.06	1459230	keystroke_b	b	n/a
730.14	0.06	1460280	keystroke_s	s	n/a
730.305	0.075	1460610	keystroke_o	o	n/a
730.56	0.075	1461120	keystroke_l	l	n/a
730.8	0.09	1461600	keystroke_u	u	n/a
730.95	0.075	1461900	keystroke_t	t	n/a
731.205	0.075	1462410	keystroke_e	e	n/a
731.505	0.12	1463010	keystroke_Key.space	Key.space	n/a
731.925	0.105	1463850	keystroke_h	h	n/a
732.105	0.075	1464210	keystroke_e	e	n/a
732.315	0.075	1464630	keystroke_i	i	n/a
732.495	0.195	1464990	keystroke_g	g	n/a
732.675	0.075	1465350	keystroke_h	h	n/a
732.96	0.0595	1465920	keystroke_t	t	n/a
733.3945	0.105	1466789	keystroke_Key.space	Key.space	n/a
733.6795	0.09	1467359	keystroke_h	h	n/a
733.9495	0.12	1467899	keystroke_o	o	n/a
734.115	0.0745	1468230	keystroke_w	w	n/a
734.3695	0.0605	1468739	keystroke_e	e	n/a
734.5955	0.074	1469191	keystroke_v	v	n/a
734.8345	0.1505	1469669	keystroke_e	e	n/a
734.9695	0.075	1469939	keystroke_r	r	n/a
739.322	0.058	1478644	keystroke_Key.enter	Key.enter	n/a
739.3845	10.317	1478769	prompt	n/a	experiences supplemental drop repairs\n
740.2955	0.089	1480591	keystroke_e	e	n/a
740.5045	0.091	1481009	keystroke_x	x	n/a
740.6705	0.075	1481341	keystroke_p	p	n/a
740.835	0.1195	1481670	keystroke_e	e	n/a
740.9405	0.089	1481881	keystroke_r	r	n/a
741.0895	0.09	1482179	keystroke_i	i	n/a
741.1945	0.0905	1482389	keystroke_e	e	n/a
741.3895	0.0605	1482779	keystroke_n	n	n/a
741.4945	0.1055	1482989	keystroke_c	c	n/a
741.7645	0.09	1483529	keystroke_e	e	n/a
742.0045	0.06	1484009	keystroke_s	s	n/a
742.2145	0.105	1484429	keystroke_Key.space	Key.space	n/a
742.38	0.0595	1484760	keystroke_s	s	n/a
742.4995	0.06	1484999	keystroke_u	u	n/a
742.7705	0.059	1485541	keystroke_p	p	n/a
742.9045	0.09	1485809	keystroke_p	p	n/a
743.0695	0.0905	1486139	keystroke_l	l	n/a
743.2645	0.06	1486529	keystroke_e	e	n/a
743.4145	0.0905	1486829	keystroke_m	m	n/a
743.5345	0.075	1487069	keystroke_e	e	n/a
743.6845	0.0905	1487369	keystroke_n	n	n/a
743.8645	0.06	1487729	keystroke_t	t	n/a
744.1495	0.0755	1488299	keystroke_a	a	n/a
744.375	0.0895	1488750	keystroke_l	l	n/a
745.155	0.1195	1490310	keystroke_Key.space	Key.space	n/a
745.245	0.1045	1490490	keystroke_d	d	n/a
745.4995	0.0605	1490999	keystroke_r	r	n/a
745.605	0.0895	1491210	keystroke_o	o	n/a
745.8	0.075	1491600	keystroke_p	p	n/a
746.3695	0.105	1492739	keystroke_Key.space	Key.space	n/a
746.535	0.0745	1493070	keystroke_r	r	n/a
746.7595	0.06	1493519	keystroke_e	e	n/a
746.955	0.075	1493910	keystroke_p	p	n/a
747.195	0.015	1494390	keystroke_a	a	n/a
747.345	0.075	1494690	keystroke_i	i	n/a
747.5105	0.0745	1495021	keystroke_r	r	n/a
747.8245	0.0605	1495649	keystroke_s	s	n/a
749.5645	0.1355	1499129	keystroke_Key.enter	Key.enter	n/a
749.7045	16.842	1499409	prompt	n/a	roger metallica specifically atlas\n
750.5545	0.0755	1501109	keystroke_r	r	n/a
750.7345	0.105	1501469	keystroke_o	o	n/a
750.8545	0.061	1501709	keystroke_g	g	n/a
751.05	0.1345	1502100	keystroke_e	e	n/a
751.1855	0.059	1502371	keystroke_r	r	n/a
751.5595	0.105	1503119	keystroke_Key.space	Key.space	n/a
752.355	0.1205	1504710	keystroke_m	m	n/a
752.5795	0.105	1505159	keystroke_e	e	n/a
752.8645	0.045	1505729	keystroke_t	t	n/a
753.1495	0.075	1506299	keystroke_a	a	n/a
753.2695	0.076	1506539	keystroke_l	l	n/a
753.4655	0.075	1506931	keystroke_l	l	n/a
753.9895	0.0905	1507979	keystroke_i	i	n/a
754.1395	0.09	1508279	keystroke_c	c	n/a
754.6795	0.09	1509359	keystroke_a	a	n/a
755.1895	0.15	1510379	keystroke_Key.space	Key.space	n/a
757.0195	0.075	1514039	keystroke_s	s	n/a
757.275	0.06	1514550	keystroke_p	p	n/a
757.6205	0.089	1515241	keystroke_e	e	n/a
757.9195	0.09	1515839	keystroke_c	c	n/a
758.85	0.12	1517700	keystroke_i	i	n/a
759.045	0.075	1518090	keystroke_f	f	n/a
759.27	0.09	1518540	keystroke_i	i	n/a
759.375	0.075	1518750	keystroke_c	c	n/a
759.615	0.075	1519230	keystroke_a	a	n/a
759.795	0.06	1519590	keystroke_l	l	n/a
759.93	0.075	1519860	keystroke_l	l	n/a
760.065	0.105	1520130	keystroke_y	y	n/a
760.5895	0.1055	1521179	keystroke_Key.space	Key.space	n/a
760.755	0.091	1521510	keystroke_a	a	n/a
761.145	0.075	1522290	keystroke_t	t	n/a
761.34	0.06	1522680	keystroke_l	l	n/a
761.595	0.0745	1523190	keystroke_a	a	n/a
761.8645	0.06	1523729	keystroke_s	s	n/a
766.487	0.058	1532974	keystroke_Key.enter	Key.enter	n/a
766.5495	15.837	1533099	prompt	n/a	christine affects impressed except\n
767.385	0.135	1534770	keystroke_c	c	n/a
767.73	0.105	1535460	keystroke_h	h	n/a
767.955	0.09	1535910	keystroke_r	r	n/a
768.285	0.12	1536570	keystroke_i	i	n/a
768.51	0.105	1537020	keystroke_s	s	n/a
769.065	0.075	1538130	keystroke_t	t	n/a
769.29	0.075	1538580	keystroke_i	i	n/a
769.575	0.075	1539150	keystroke_n	n	n/a
769.755	0.075	1539510	keystroke_e	e	n/a
770.025	0.12	1540050	keystroke_Key.space	Key.space	n/a
770.175	0.06	1540350	keystroke_a	a	n/a
770.49	0.06	1540980	keystroke_f	f	n/a
770.64	0.06	1541280	keystroke_f	f	n/a
770.88	0.06	1541760	keystroke_e	e	n/a
771.18	0.06	1542360	keystroke_c	c	n/a
771.45	0.075	1542900	keystroke_t	t	n/a
771.795	0.075	1543590	keystroke_s	s	n/a
772.035	0.105	1544070	keystroke_Key.space	Key.space	n/a
772.68	0.09	1545360	keystroke_i	i	n/a
772.995	0.075	1545990	keystroke_m	m	n/a
773.28	0.09	1546560	keystroke_p	p	n/a
773.46	0.075	1546920	keystroke_r	r	n/a
773.7	0.09	1547400	keystroke_e	e	n/a
774.015	0.06	1548030	keystroke_s	s	n/a
774.1955	0.0755	1548391	keystroke_s	s	n/a
774.4645	0.076	1548929	keystroke_e	e	n/a
774.6745	0.076	1549349	keystroke_d	d	n/a
775.6945	0.18	1551389	keystroke_Key.space	Key.space	n/a
775.8755	0.059	1551751	keystroke_e	e	n/a
776.1445	0.075	1552289	keystroke_x	x	n/a
777.705	0.075	1555410	keystroke_c	c	n/a
777.945	0.0595	1555890	keystroke_e	e	n/a
778.1245	0.09	1556249	keystroke_p	p	n/a
778.3495	0.0755	1556699	keystroke_t	t	n/a
782.25	0.134	1564500	keystroke_Key.enter	Key.enter	n/a
782.3895	26.637	1564779	prompt	n/a	vegetarian calculations compiled elimination\n
783.435	0.1045	1566870	keystroke_v	v	n/a
783.7195	0.0905	1567439	keystroke_e	e	n/a
784.0495	0.06	1568099	keystroke_g	g	n/a
785.28	0.1195	1570560	keystroke_a	a	n/a
786.0895	0.0905	1572179	keystroke_Key.backspace	Key.backspace	n/a
786.21	0.0745	1572420	keystroke_t	t	n/a
787.1245	0.1345	1574249	keystroke_Key.backspace	Key.backspace	n/a
787.305	0.09	1574610	keystroke_e	e	n/a
788.2645	0.105	1576529	keystroke_t	t	n/a
788.5945	0.0605	1577189	keystroke_a	a	n/a
788.7895	0.0905	1577579	keystroke_r	r	n/a
788.955	0.119	1577910	keystroke_i	i	n/a
789.1345	0.075	1578269	keystroke_a	a	n/a
789.3	0.0745	1578600	keystroke_n	n	n/a
789.7495	0.12	1579499	keystroke_Key.space	Key.space	n/a
790.1845	0.06	1580369	keystroke_c	c	n/a
790.4545	0.0445	1580909	keystroke_a	a	n/a
790.68	0.104	1581360	keystroke_l	l	n/a
791.4745	0.105	1582949	keystroke_c	c	n/a
791.865	0.105	1583730	keystroke_u	u	n/a
792.224	0.091	1584448	keystroke_l	l	n/a
792.419	0.075	1584838	keystroke_a	a	n/a
792.794	0.076	1585588	keystroke_t	t	n/a
792.975	0.134	1585950	keystroke_i	i	n/a
793.064	0.121	1586128	keystroke_o	o	n/a
793.365	0.0895	1586730	keystroke_n	n	n/a
793.5295	0.0755	1587059	keystroke_s	s	n/a
793.815	0.1045	1587630	keystroke_Key.space	Key.space	n/a
793.9655	0.075	1587931	keystroke_c	c	n/a
794.0995	0.105	1588199	keystroke_o	o	n/a
794.3105	0.075	1588621	keystroke_m	m	n/a
794.55	0.09	1589100	keystroke_p	p	n/a
794.76	0.09	1589520	keystroke_l	l	n/a
795.03	0.075	1590060	keystroke_i	i	n/a
795.165	0.06	1590330	keystroke_e	e	n/a
795.405	0.06	1590810	keystroke_d	d	n/a
795.87	0.045	1591740	keystroke_Key.backspace	Key.backspace	n/a
796.02	0.06	1592040	keystroke_Key.backspace	Key.backspace	n/a
796.155	0.12	1592310	keystroke_Key.backspace	Key.backspace	n/a
796.635	0.09	1593270	keystroke_Key.backspace	Key.backspace	n/a
797.205	0.06	1594410	keystroke_i	i	n/a
797.4895	0.075	1594979	keystroke_l	l	n/a
797.6095	0.075	1595219	keystroke_e	e	n/a
797.8045	0.09	1595609	keystroke_d	d	n/a
798.27	0.075	1596540	keystroke_Key.space	Key.space	n/a
798.7345	0.09	1597469	keystroke_e	e	n/a
799.35	0.1045	1598700	keystroke_l	l	n/a
799.6195	0.09	1599239	keystroke_i	i	n/a
800.7595	0.15	1601519	keystroke_m	m	n/a
801.0595	0.075	1602119	keystroke_i	i	n/a
801.286	0.075	1602572	keystroke_n	n	n/a
801.51	0.06	1603020	keystroke_a	a	n/a
801.81	0.075	1603620	keystroke_t	t	n/a
801.93	0.15	1603860	keystroke_i	i	n/a
802.035	0.105	1604070	keystroke_o	o	n/a
802.32	0.09	1604640	keystroke_n	n	n/a
808.9365	0.0885	1617873	keystroke_Key.enter	Key.enter	n/a
809.0295	9.237	1618059	prompt	n/a	sans leadership dispatched copy\n
809.8195	0.09	1619639	keystroke_s	s	n/a
810.0755	0.059	1620151	keystroke_a	a	n/a
810.255	0.0895	1620510	keystroke_n	n	n/a
810.4045	0.06	1620809	keystroke_s	s	n/a
810.7045	0.0905	1621409	keystroke_Key.space	Key.space	n/a
811.0945	0.1055	1622189	keystroke_l	l	n/a
811.2145	0.06	1622429	keystroke_e	e	n/a
811.4695	0.045	1622939	keystroke_a	a	n/a
811.74	0.0745	1623480	keystroke_d	d	n/a
811.95	0.18	1623900	keystroke_e	e	n/a
812.1	0.0755	1624200	keystroke_r	r	n/a
812.3255	0.075	1624651	keystroke_s	s	n/a
812.5805	0.09	1625161	keystroke_h	h	n/a
812.7305	0.12	1625461	keystroke_i	i	n/a
812.9105	0.09	1625821	keystroke_p	p	n/a
813.5105	0.12	1627021	keystroke_Key.space	Key.space	n/a
813.7205	0.09	1627441	keystroke_d	d	n/a
813.9745	0.061	1627949	keystroke_i	i	n/a
814.14	0.0595	1628280	keystroke_s	s	n/a
814.5295	0.106	1629059	keystroke_p	p	n/a
814.6805	0.0895	1629361	keystroke_a	a	n/a
814.98	0.0605	1629960	keystroke_t	t	n/a
815.25	0.075	1630500	keystroke_c	c	n/a
815.385	0.09	1630770	keystroke_h	h	n/a
815.55	0.0755	1631100	keystroke_e	e	n/a
815.79	0.075	1631580	keystroke_d	d	n/a
816.165	0.135	1632330	keystroke_Key.space	Key.space	n/a
816.48	0.075	1632960	keystroke_c	c	n/a
816.63	0.195	1633260	keystroke_o	o	n/a
816.795	0.12	1633590	keystroke_p	p	n/a
816.945	0.09	1633890	keystroke_y	y	n/a
818.145	0.1195	1636290	keystroke_Key.enter	Key.enter	n/a
818.2695	14.322	1636539	prompt	n/a	rights prisoner places personally\n
819.18	0.0745	1638360	keystroke_r	r	n/a
819.345	0.0895	1638690	keystroke_i	i	n/a
819.4645	0.15	1638929	keystroke_g	g	n/a
819.5845	0.0905	1639169	keystroke_h	h	n/a
819.7945	0.0755	1639589	keystroke_t	t	n/a
820.095	0.075	1640190	keystroke_s	s	n/a
820.26	0.1045	1640520	keystroke_Key.space	Key.space	n/a
820.4695	0.1055	1640939	keystroke_p	p	n/a
820.6795	0.06	1641359	keystroke_r	r	n/a
821.025	0.0895	1642050	keystroke_i	i	n/a
821.3095	0.0605	1642619	keystroke_s	s	n/a
821.475	0.0745	1642950	keystroke_o	o	n/a
821.7895	0.0905	1643579	keystroke_n	n	n/a
822.0145	0.105	1644029	keystroke_e	e	n/a
822.24	0.075	1644480	keystroke_r	r	n/a
822.63	0.0755	1645260	keystroke_Key.space	Key.space	n/a
822.885	0.09	1645770	keystroke_p	p	n/a
823.065	0.105	1646130	keystroke_l	l	n/a
823.2	0.03	1646400	keystroke_a	a	n/a
823.41	0.06	1646820	keystroke_c	c	n/a
823.68	0.06	1647360	keystroke_e	e	n/a
823.935	0.075	1647870	keystroke_s	s	n/a
824.3705	0.15	1648741	keystroke_Key.space	Key.space	n/a
824.7305	0.1045	1649461	keystroke_p	p	n/a
824.8805	0.1345	1649761	keystroke_e	e	n/a
824.9705	0.0895	1649941	keystroke_r	r	n/a
825.1955	0.1045	1650391	keystroke_s	s	n/a
825.33	0.075	1650660	keystroke_o	o	n/a
825.555	0.075	1651110	keystroke_n	n	n/a
825.66	0.06	1651320	keystroke_a	a	n/a
825.885	0.06	1651770	keystroke_l	l	n/a
826.035	0.106	1652070	keystroke_l	l	n/a
826.186	0.089	1652372	keystroke_y	y	n/a
832.5325	0.057	1665065	keystroke_Key.enter	Key.enter	n/a
832.595	13.9015	1665190	prompt	n/a	chinese survivor worker profit\n
833.505	0.09	1667010	keystroke_c	c	n/a
833.76	0.09	1667520	keystroke_h	h	n/a
834.27	0.0905	1668540	keystroke_i	i	n/a
834.5105	0.09	1669021	keystroke_n	n	n/a
834.7655	0.0895	1669531	keystroke_e	e	n/a
835.035	0.0755	1670070	keystroke_s	s	n/a
835.305	0.06	1670610	keystroke_e	e	n/a
835.59	0.135	1671180	keystroke_Key.space	Key.space	n/a
835.755	0.09	1671510	keystroke_s	s	n/a
835.9355	0.1045	1671871	keystroke_u	u	n/a
836.145	0.0455	1672290	keystroke_r	r	n/a
836.386	0.074	1672772	keystroke_v	v	n/a
836.595	0.0755	1673190	keystroke_i	i	n/a
840.272	0.0285	1680544	keystroke_v	v	n/a
840.48	0.09	1680960	keystroke_o	o	n/a
840.69	0.075	1681380	keystroke_r	r	n/a
840.975	0.105	1681950	keystroke_Key.space	Key.space	n/a
841.1405	0.0895	1682281	keystroke_w	w	n/a
841.275	0.12	1682550	keystroke_o	o	n/a
841.4705	0.0745	1682941	keystroke_r	r	n/a
841.605	0.09	1683210	keystroke_k	k	n/a
841.7405	0.1795	1683481	keystroke_e	e	n/a
841.905	0.09	1683810	keystroke_r	r	n/a
842.145	0.0905	1684290	keystroke_Key.space	Key.space	n/a
842.5955	0.09	1685191	keystroke_p	p	n/a
842.7155	0.075	1685431	keystroke_r	r	n/a
