onset	duration	sample	value	key	prompt_text
4.199	6.346	8398	prompt	n/a	the quick brown fox jumps over a lazy dog\n
5.248	0.028	10496	keystroke_t	t	n/a
5.2915	0.0745	10583	keystroke_h	h	n/a
5.3965	0.135	10793	keystroke_e	e	n/a
5.486	0.105	10972	keystroke_Key.space	Key.space	n/a
5.636	0.076	11272	keystroke_q	q	n/a
5.696	0.1485	11392	keystroke_u	u	n/a
5.7715	0.104	11543	keystroke_i	i	n/a
5.86	0.12	11720	keystroke_c	c	n/a
5.9655	0.0895	11931	keystroke_k	k	n/a
6.1	0.0895	12200	keystroke_Key.space	Key.space	n/a
6.1745	0.0755	12349	keystroke_b	b	n/a
6.265	0.136	12530	keystroke_r	r	n/a
6.3565	0.09	12713	keystroke_o	o	n/a
6.476	0.1205	12952	keystroke_w	w	n/a
6.5655	0.1205	13131	keystroke_n	n	n/a
6.701	0.09	13402	keystroke_Key.space	Key.space	n/a
6.8805	0.1055	13761	keystroke_f	f	n/a
6.9555	0.09	13911	keystroke_o	o	n/a
7.1055	0.105	14211	keystroke_x	x	n/a
7.1805	0.106	14361	keystroke_Key.space	Key.space	n/a
7.271	0.105	14542	keystroke_j	j	n/a
7.436	0.075	14872	keystroke_u	u	n/a
7.6305	0.0455	15261	keystroke_m	m	n/a
7.752	0.119	15504	keystroke_p	p	n/a
7.8565	0.0755	15713	keystroke_s	s	n/a
7.976	0.1055	15952	keystroke_Key.space	Key.space	n/a
8.171	0.031	16342	keystroke_v	v	n/a
8.5465	0.06	17093	keystroke_Key.backspace	Key.backspace	n/a
8.6965	0.1195	17393	keystroke_o	o	n/a
8.787	0.0445	17574	keystroke_v	v	n/a
8.981	0.0305	17962	keystroke_e	e	n/a
9.027	0.119	18054	keystroke_r	r	n/a
9.1015	0.105	18203	keystroke_Key.space	Key.space	n/a
9.2815	0.1355	18563	keystroke_a	a	n/a
9.356	0.1055	18712	keystroke_Key.space	Key.space	n/a
9.4765	0.12	18953	keystroke_l	l	n/a
9.6115	0.105	19223	keystroke_a	a	n/a
9.7915	0.1505	19583	keystroke_z	z	n/a
9.867	0.135	19734	keystroke_y	y	n/a
9.9715	0.105	19943	keystroke_Key.space	Key.space	n/a
10.1065	0.135	20213	keystroke_d	d	n/a
10.1965	0.12	20393	keystroke_o	o	n/a
10.346	0.076	20692	keystroke_g	g	n/a
10.4665	0.075	20933	keystroke_Key.enter	Key.enter	n/a
10.5515	4.7655	21103	prompt	n/a	offline breast indexed filling\n
11.141	0.09	22282	keystroke_o	o	n/a
11.307	0.0895	22614	keystroke_f	f	n/a
11.486	0.106	22972	keystroke_f	f	n/a
11.562	0.0745	23124	keystroke_l	l	n/a
11.727	0.074	23454	keystroke_i	i	n/a
11.892	0.104	23784	keystroke_n	n	n/a
11.937	0.074	23874	keystroke_e	e	n/a
12.056	0.1045	24112	keystroke_Key.space	Key.space	n/a
12.1465	0.1355	24293	keystroke_b	b	n/a
12.192	0.104	24384	keystroke_r	r	n/a
12.312	0.0895	24624	keystroke_e	e	n/a
12.4615	0.12	24923	keystroke_a	a	n/a
12.5515	0.1195	25103	keystroke_s	s	n/a
12.641	0.1055	25282	keystroke_t	t	n/a
12.747	0.0895	25494	keystroke_Key.space	Key.space	n/a
12.882	0.09	25764	keystroke_i	i	n/a
13.032	0.15	26064	keystroke_n	n	n/a
13.092	0.104	26184	keystroke_d	d	n/a
13.2715	0.075	26543	keystroke_e	e	n/a
13.4675	0.1045	26935	keystroke_x	x	n/a
13.6765	0.0895	27353	keystroke_e	e	n/a
13.841	0.1055	27682	keystroke_d	d	n/a
13.9015	0.0745	27803	keystroke_Key.space	Key.space	n/a
14.066	0.121	28132	keystroke_f	f	n/a
14.1565	0.09	28313	keystroke_i	i	n/a
14.3665	0.09	28733	keystroke_l	l	n/a
14.817	0.075	29634	keystroke_i	i	n/a
14.967	0.12	29934	keystroke_n	n	n/a
15.072	0.1045	30144	keystroke_g	g	n/a
15.207	0.1045	30414	keystroke_Key.enter	Key.enter	n/a
15.321	5.333	30642	prompt	n/a	foam restrictions beings links\n
16.3465	0.075	32693	keystroke_f	f	n/a
16.407	0.074	32814	keystroke_o	o	n/a
16.782	0.135	33564	keystroke_a	a	n/a
16.9015	0.1195	33803	keystroke_m	m	n/a
17.067	0.1045	34134	keystroke_Key.space	Key.space	n/a
17.231	0.1355	34462	keystroke_r	r	n/a
17.382	0.06	34764	keystroke_e	e	n/a
17.4715	0.1045	34943	keystroke_s	s	n/a
17.667	0.104	35334	keystroke_t	t	n/a
17.8315	0.1055	35663	keystroke_r	r	n/a
17.9375	0.1195	35875	keystroke_i	i	n/a
18.072	0.09	36144	keystroke_c	c	n/a
18.282	0.105	36564	keystroke_t	t	n/a
18.357	0.12	36714	keystroke_i	i	n/a
18.417	0.104	36834	keystroke_o	o	n/a
18.5965	0.12	37193	keystroke_n	n	n/a
18.702	0.074	37404	keystroke_s	s	n/a
18.8215	0.0745	37643	keystroke_Key.space	Key.space	n/a
19.0165	0.1055	38033	keystroke_b	b	n/a
19.152	0.106	38304	keystroke_e	e	n/a
19.2425	0.1045	38485	keystroke_i	i	n/a
19.392	0.12	38784	keystroke_n	n	n/a
19.452	0.075	38904	keystroke_g	g	n/a
19.632	0.119	39264	keystroke_s	s	n/a
19.721	0.1205	39442	keystroke_Key.space	Key.space	n/a
19.856	0.106	39712	keystroke_l	l	n/a
20.0365	0.0605	40073	keystroke_i	i	n/a
20.141	0.105	40282	keystroke_n	n	n/a
20.277	0.149	40554	keystroke_k	k	n/a
20.3665	0.12	40733	keystroke_s	s	n/a
20.5015	0.15	41003	keystroke_Key.enter	Key.enter	n/a
20.66	4.3135	41320	prompt	n/a	biblical belt tourist level\n
21.312	0.0745	42624	keystroke_b	b	n/a
21.447	0.09	42894	keystroke_i	i	n/a
21.597	0.059	43194	keystroke_b	b	n/a
21.7915	0.0595	43583	keystroke_l	l	n/a
21.926	0.1055	43852	keystroke_i	i	n/a
21.971	0.076	43942	keystroke_c	c	n/a
22.1965	0.0895	44393	keystroke_a	a	n/a
22.302	0.0895	44604	keystroke_l	l	n/a
22.421	0.12	44842	keystroke_Key.space	Key.space	n/a
22.5715	0.0895	45143	keystroke_b	b	n/a
22.692	0.12	45384	keystroke_e	e	n/a
22.797	0.0895	45594	keystroke_l	l	n/a
22.9465	0.12	45893	keystroke_t	t	n/a
23.0515	0.075	46103	keystroke_Key.space	Key.space	n/a
23.2155	0.1065	46431	keystroke_t	t	n/a
23.306	0.105	46612	keystroke_o	o	n/a
23.427	0.119	46854	keystroke_u	u	n/a
23.532	0.12	47064	keystroke_r	r	n/a
23.6665	0.104	47333	keystroke_i	i	n/a
23.756	0.0755	47512	keystroke_s	s	n/a
23.9365	0.0905	47873	keystroke_t	t	n/a
23.997	0.1485	47994	keystroke_Key.space	Key.space	n/a
24.1615	0.105	48323	keystroke_l	l	n/a
24.3425	0.119	48685	keystroke_e	e	n/a
24.4765	0.075	48953	keystroke_v	v	n/a
24.5525	0.089	49105	keystroke_e	e	n/a
24.687	0.12	49374	keystroke_l	l	n/a
24.8675	0.104	49735	keystroke_Key.enter	Key.enter	n/a
24.9785	5.5	49957	prompt	n/a	choices ricky alive accredited\n
25.587	0.1345	51174	keystroke_c	c	n/a
25.6465	0.09	51293	keystroke_h	h	n/a
25.7965	0.15	51593	keystroke_o	o	n/a
25.9015	0.105	51803	keystroke_i	i	n/a
25.9915	0.075	51983	keystroke_c	c	n/a
26.1865	0.09	52373	keystroke_e	e	n/a
26.3515	0.12	52703	keystroke_s	s	n/a
26.441	0.1205	52882	keystroke_Key.space	Key.space	n/a
26.5915	0.105	53183	keystroke_r	r	n/a
26.6515	0.09	53303	keystroke_i	i	n/a
26.802	0.075	53604	keystroke_c	c	n/a
26.877	0.1195	53754	keystroke_k	k	n/a
27.042	0.1045	54084	keystroke_y	y	n/a
27.1315	0.09	54263	keystroke_Key.space	Key.space	n/a
27.2965	0.105	54593	keystroke_a	a	n/a
27.357	0.0895	54714	keystroke_l	l	n/a
27.5065	0.12	55013	keystroke_i	i	n/a
27.6115	0.045	55223	keystroke_v	v	n/a
27.8365	0.135	55673	keystroke_e	e	n/a
28.0315	0.1045	56063	keystroke_Key.space	Key.space	n/a
28.182	0.0895	56364	keystroke_a	a	n/a
28.3915	0.0755	56783	keystroke_c	c	n/a
28.556	0.0755	57112	keystroke_c	c	n/a
29.0515	0.045	58103	keystroke_d	d	n/a
29.306	0.075	58612	keystroke_Key.backspace	Key.backspace	n/a
29.397	0.105	58794	keystroke_r	r	n/a
29.5165	0.1195	59033	keystroke_e	e	n/a
29.697	0.104	59394	keystroke_d	d	n/a
29.756	0.165	59512	keystroke_i	i	n/a
29.936	0.09	59872	keystroke_t	t	n/a
30.086	0.106	60172	keystroke_e	e	n/a
30.2365	0.1355	60473	keystroke_d	d	n/a
30.372	0.104	60744	keystroke_Key.enter	Key.enter	n/a
30.4815	7.812	60963	prompt	n/a	dairy person genetics adolescent\n
31.2265	0.06	62453	keystroke_d	d	n/a
31.4365	0.075	62873	keystroke_a	a	n/a
31.5265	0.105	63053	keystroke_i	i	n/a
31.6465	0.075	63293	keystroke_r	r	n/a
31.751	0.1355	63502	keystroke_y	y	n/a
31.842	0.1195	63684	keystroke_Key.space	Key.space	n/a
32.0515	0.105	64103	keystroke_p	p	n/a
32.0965	0.1205	64193	keystroke_e	e	n/a
32.2315	0.0905	64463	keystroke_r	r	n/a
32.411	0.0905	64822	keystroke_s	s	n/a
32.7265	0.0745	65453	keystroke_o	o	n/a
32.891	0.135	65782	keystroke_n	n	n/a
33.026	0.105	66052	keystroke_Key.space	Key.space	n/a
33.311	0.061	66622	keystroke_e	e	n/a
33.6565	0.09	67313	keystroke_Key.backspace	Key.backspace	n/a
33.7465	0.09	67493	keystroke_g	g	n/a
33.897	0.105	67794	keystroke_e	e	n/a
33.957	0.12	67914	keystroke_n	n	n/a
34.0915	0.105	68183	keystroke_e	e	n/a
34.241	0.0905	68482	keystroke_t	t	n/a
34.3165	0.1045	68633	keystroke_i	i	n/a
34.436	0.1055	68872	keystroke_c	c	n/a
34.646	0.0755	69292	keystroke_s	s	n/a
34.7065	0.089	69413	keystroke_Key.space	Key.space	n/a
34.8865	0.091	69773	keystroke_a	a	n/a
35.0515	0.015	70103	keystroke_s	s	n/a
35.3815	0.09	70763	keystroke_Key.backspace	Key.backspace	n/a
35.5315	0.105	71063	keystroke_d	d	n/a
36.342	0.09	72684	keystroke_o	o	n/a
36.5365	0.06	73073	keystroke_l	l	n/a
37.3165	0.105	74633	keystroke_e	e	n/a
37.4815	0.135	74963	keystroke_s	s	n/a
37.6615	0.09	75323	keystroke_c	c	n/a
37.8565	0.1355	75713	keystroke_e	e	n/a
37.962	0.105	75924	keystroke_n	n	n/a
38.097	0.104	76194	keystroke_t	t	n/a
38.2165	0.0745	76433	keystroke_Key.enter	Key.enter	n/a
38.301	5.903	76602	prompt	n/a	companies equity ambassador planner\n
38.9065	0.135	77813	keystroke_c	c	n/a
38.9965	0.075	77993	keystroke_o	o	n/a
39.1615	0.0755	78323	keystroke_m	m	n/a
39.3265	0.09	78653	keystroke_p	p	n/a
39.447	0.1045	78894	keystroke_a	a	n/a
39.5525	0.089	79105	keystroke_n	n	n/a
39.777	0.104	79554	keystroke_i	i	n/a
39.897	0.0745	79794	keystroke_e	e	n/a
40.077	0.105	80154	keystroke_s	s	n/a
40.151	0.091	80302	keystroke_Key.space	Key.space	n/a
40.377	0.0445	80754	keystroke_e	e	n/a
40.5415	0.1195	81083	keystroke_q	q	n/a
40.617	0.149	81234	keystroke_u	u	n/a
40.6915	0.1205	81383	keystroke_i	i	n/a
40.9765	0.1045	81953	keystroke_t	t	n/a
41.066	0.12	82132	keystroke_y	y	n/a
41.171	0.1055	82342	keystroke_Key.space	Key.space	n/a
41.3215	0.135	82643	keystroke_a	a	n/a
41.667	0.075	83334	keystroke_m	m	n/a
41.8765	0.12	83753	keystroke_b	b	n/a
41.9665	0.09	83933	keystroke_a	a	n/a
42.132	0.0595	84264	keystroke_s	s	n/a
42.2815	0.0905	84563	keystroke_s	s	n/a
42.446	0.076	84892	keystroke_a	a	n/a
42.611	0.106	85222	keystroke_d	d	n/a
42.686	0.091	85372	keystroke_o	o	n/a
42.8215	0.09	85643	keystroke_r	r	n/a
42.8815	0.105	85763	keystroke_Key.space	Key.space	n/a
43.0025	0.089	86005	keystroke_p	p	n/a
43.1815	0.105	86363	keystroke_l	l	n/a
43.2565	0.075	86513	keystroke_a	a	n/a
43.5865	0.105	87173	keystroke_n	n	n/a
43.7665	0.105	87533	keystroke_n	n	n/a
43.8265	0.121	87653	keystroke_e	e	n/a
43.9615	0.09	87923	keystroke_r	r	n/a
44.1265	0.0745	88253	keystroke_Key.enter	Key.enter	n/a
44.2075	5.1555	88415	prompt	n/a	calculated flash ministry commons\n
44.7265	0.105	89453	keystroke_c	c	n/a
44.9365	0.1055	89873	keystroke_a	a	n/a
45.027	0.119	90054	keystroke_l	l	n/a
45.312	0.0895	90624	keystroke_c	c	n/a
45.4465	0.075	90893	keystroke_u	u	n/a
45.6565	0.105	91313	keystroke_l	l	n/a
45.7465	0.06	91493	keystroke_a	a	n/a
45.9115	0.0905	91823	keystroke_t	t	n/a
46.1065	0.075	92213	keystroke_e	e	n/a
46.1965	0.105	92393	keystroke_d	d	n/a
46.2865	0.075	92573	keystroke_Key.space	Key.space	n/a
46.4065	0.09	92813	keystroke_f	f	n/a
46.5265	0.09	93053	keystroke_l	l	n/a
46.6315	0.0755	93263	keystroke_a	a	n/a
46.722	0.12	93444	keystroke_s	s	n/a
46.812	0.119	93624	keystroke_h	h	n/a
46.961	0.1055	93922	keystroke_Key.space	Key.space	n/a
47.2765	0.075	94553	keystroke_m	m	n/a
47.4115	0.075	94823	keystroke_i	i	n/a
47.5465	0.09	95093	keystroke_n	n	n/a
47.6665	0.105	95333	keystroke_i	i	n/a
47.7265	0.09	95453	keystroke_s	s	n/a
47.9065	0.12	95813	keystroke_t	t	n/a
48.0415	0.12	96083	keystroke_r	r	n/a
48.1015	0.12	96203	keystroke_y	y	n/a
48.2065	0.12	96413	keystroke_Key.space	Key.space	n/a
48.3415	0.1045	96683	keystroke_c	c	n/a
48.417	0.06	96834	keystroke_o	o	n/a
48.5965	0.0605	97193	keystroke_m	m	n/a
48.746	0.076	97492	keystroke_m	m	n/a
48.897	0.074	97794	keystroke_o	o	n/a
49.032	0.1195	98064	keystroke_n	n	n/a
49.122	0.105	98244	keystroke_s	s	n/a
49.2415	0.1205	98483	keystroke_Key.enter	Key.enter	n/a
49.366	6.732	98732	prompt	n/a	mrna gmbh immune linux\n
49.961	0.09	99922	keystroke_m	m	n/a
50.202	0.1045	100404	keystroke_m	m	n/a
50.5165	0.0755	101033	keystroke_Key.backspace	Key.backspace	n/a
50.637	0.1045	101274	keystroke_r	r	n/a
50.8465	0.1205	101693	keystroke_n	n	n/a
51.027	0.105	102054	keystroke_a	a	n/a
51.146	0.09	102292	keystroke_Key.space	Key.space	n/a
51.626	0.075	103252	keystroke_g	g	n/a
52.3765	0.06	104753	keystroke_m	m	n/a
52.586	0.0755	105172	keystroke_b	b	n/a
53.0215	0.0905	106043	keystroke_h	h	n/a
53.2465	0.06	106493	keystroke_Key.space	Key.space	n/a
53.4715	0.075	106943	keystroke_i	i	n/a
53.667	0.045	107334	keystroke_m	m	n/a
53.8015	0.06	107603	keystroke_m	m	n/a
53.9665	0.0905	107933	keystroke_u	u	n/a
54.1315	0.12	108263	keystroke_n	n	n/a
54.2365	0.12	108473	keystroke_e	e	n/a
54.3415	0.0895	108683	keystroke_Key.space	Key.space	n/a
54.5665	0.0605	109133	keystroke_l	l	n/a
54.6565	0.0605	109313	keystroke_l	l	n/a
55.1815	0.075	110363	keystroke_Key.backspace	Key.backspace	n/a
55.347	0.0895	110694	keystroke_i	i	n/a
55.542	0.089	111084	keystroke_n	n	n/a
55.752	0.0895	111504	keystroke_u	u	n/a
55.8565	0.1055	111713	keystroke_x	x	n/a
56.0365	0.06	112073	keystroke_Key.enter	Key.enter	n/a
56.102	8.6065	112204	prompt	n/a	behalf adequate envelope spain\n
56.8615	0.09	113723	keystroke_b	b	n/a
56.9665	0.12	113933	keystroke_e	e	n/a
57.2065	0.075	114413	keystroke_l	l	n/a
57.5215	0.06	115043	keystroke_Key.backspace	Key.backspace	n/a
57.7015	0.0905	115403	keystroke_h	h	n/a
57.837	0.12	115674	keystroke_a	a	n/a
57.972	0.075	115944	keystroke_l	l	n/a
58.092	0.1045	116184	keystroke_f	f	n/a
58.1815	0.12	116363	keystroke_Key.space	Key.space	n/a
58.347	0.09	116694	keystroke_a	a	n/a
58.7215	0.075	117443	keystroke_d	d	n/a
58.977	0.09	117954	keystroke_r	r	n/a
59.2765	0.06	118553	keystroke_Key.backspace	Key.backspace	n/a
59.3375	0.0895	118675	keystroke_e	e	n/a
59.7715	0.1055	119543	keystroke_q	q	n/a
59.9065	0.12	119813	keystroke_u	u	n/a
60.0415	0.06	120083	keystroke_e	e	n/a
60.4015	0.09	120803	keystroke_Key.backspace	Key.backspace	n/a
60.507	0.1045	121014	keystroke_a	a	n/a
60.657	0.1195	121314	keystroke_t	t	n/a
60.762	0.09	121524	keystroke_e	e	n/a
61.256	0.121	122512	keystroke_Key.space	Key.space	n/a
62.322	0.09	124644	keystroke_e	e	n/a
62.382	0.074	124764	keystroke_n	n	n/a
62.592	0.074	125184	keystroke_v	v	n/a
62.7865	0.045	125573	keystroke_e	e	n/a
62.847	0.075	125694	keystroke_l	l	n/a
63.282	0.0895	126564	keystroke_o	o	n/a
63.3415	0.12	126683	keystroke_p	p	n/a
63.4615	0.1205	126923	keystroke_e	e	n/a
63.6115	0.12	127223	keystroke_Key.space	Key.space	n/a
63.7765	0.105	127553	keystroke_s	s	n/a
64.0015	0.1055	128003	keystroke_p	p	n/a
64.137	0.0745	128274	keystroke_a	a	n/a
64.2565	0.0905	128513	keystroke_i	i	n/a
64.4515	0.0905	128903	keystroke_n	n	n/a
64.617	0.09	129234	keystroke_Key.enter	Key.enter	n/a
64.714	6.819	129428	prompt	n/a	exam namibia odds freeze\n
65.262	0.09	130524	keystroke_e	e	n/a
65.472	0.105	130944	keystroke_x	x	n/a
65.682	0.09	131364	keystroke_a	a	n/a
65.742	0.105	131484	keystroke_m	m	n/a
65.862	0.135	131724	keystroke_Key.space	Key.space	n/a
66.102	0.075	132204	keystroke_n	n	n/a
66.206	0.076	132412	keystroke_a	a	n/a
66.327	0.074	132654	keystroke_m	m	n/a
66.8665	0.075	133733	keystroke_i	i	n/a
68.5915	0.046	137183	keystroke_b	b	n/a
68.666	0.076	137332	keystroke_i	i	n/a
68.772	0.119	137544	keystroke_a	a	n/a
68.907	0.104	137814	keystroke_Key.space	Key.space	n/a
69.2965	0.0155	138593	keystroke_o	o	n/a
69.3415	0.105	138683	keystroke_d	d	n/a
69.5365	0.105	139073	keystroke_d	d	n/a
69.672	0.09	139344	keystroke_s	s	n/a
69.7765	0.12	139553	keystroke_Key.space	Key.space	n/a
69.9115	0.0455	139823	keystroke_r	r	n/a
70.196	0.0905	140392	keystroke_Key.backspace	Key.backspace	n/a
70.272	0.104	140544	keystroke_f	f	n/a
70.392	0.09	140784	keystroke_r	r	n/a
70.571	0.09	141142	keystroke_e	e	n/a
70.722	0.0895	141444	keystroke_e	e	n/a
70.932	0.134	141864	keystroke_z	z	n/a
71.187	0.104	142374	keystroke_e	e	n/a
71.411	0.12	142822	keystroke_Key.enter	Key.enter	n/a
71.539	4.8395	143078	prompt	n/a	intro mouse outdoor enterprises\n
72.057	0.06	144114	keystroke_i	i	n/a
72.297	0.164	144594	keystroke_n	n	n/a
72.447	0.0895	144894	keystroke_t	t	n/a
72.5665	0.15	145133	keystroke_r	r	n/a
72.672	0.1045	145344	keystroke_o	o	n/a
72.7915	0.135	145583	keystroke_Key.space	Key.space	n/a
72.897	0.12	145794	keystroke_m	m	n/a
73.1215	0.09	146243	keystroke_o	o	n/a
73.271	0.12	146542	keystroke_u	u	n/a
73.3315	0.105	146663	keystroke_s	s	n/a
73.466	0.135	146932	keystroke_e	e	n/a
73.571	0.1055	147142	keystroke_Key.space	Key.space	n/a
73.7065	0.1805	147413	keystroke_o	o	n/a
73.871	0.121	147742	keystroke_u	u	n/a
74.007	0.09	148014	keystroke_t	t	n/a
74.1865	0.12	148373	keystroke_d	d	n/a
74.292	0.0895	148584	keystroke_o	o	n/a
74.472	0.09	148944	keystroke_o	o	n/a
74.532	0.0895	149064	keystroke_r	r	n/a
74.6515	0.12	149303	keystroke_Key.space	Key.space	n/a
74.7565	0.105	149513	keystroke_e	e	n/a
74.9665	0.1055	149933	keystroke_n	n	n/a
75.132	0.1045	150264	keystroke_t	t	n/a
75.297	0.1195	150594	keystroke_e	e	n/a
75.4315	0.1355	150863	keystroke_r	r	n/a
75.5365	0.1355	151073	keystroke_p	p	n/a
75.657	0.105	151314	keystroke_r	r	n/a
75.7465	0.1205	151493	keystroke_i	i	n/a
75.852	0.09	151704	keystroke_s	s	n/a
76.0165	0.09	152033	keystroke_e	e	n/a
76.197	0.0595	152394	keystroke_s	s	n/a
76.2715	0.1055	152543	keystroke_Key.enter	Key.enter	n/a
76.384	5.23	152768	prompt	n/a	prayer athletes interest aurora\n
76.977	0.12	153954	keystroke_p	p	n/a
77.097	0.12	154194	keystroke_r	r	n/a
77.307	0.12	154614	keystroke_a	a	n/a
77.442	0.12	154884	keystroke_y	y	n/a
77.532	0.0895	155064	keystroke_e	e	n/a
77.712	0.089	155424	keystroke_r	r	n/a
77.832	0.134	155664	keystroke_Key.space	Key.space	n/a
78.116	0.0755	156232	keystroke_a	a	n/a
78.312	0.135	156624	keystroke_t	t	n/a
78.402	0.09	156804	keystroke_h	h	n/a
78.5965	0.105	157193	keystroke_l	l	n/a
78.6565	0.1205	157313	keystroke_e	e	n/a
78.8515	0.09	157703	keystroke_t	t	n/a
78.9875	0.119	157975	keystroke_e	e	n/a
79.1815	0.105	158363	keystroke_s	s	n/a
79.2865	0.0745	158573	keystroke_Key.space	Key.space	n/a
79.377	0.075	158754	keystroke_i	i	n/a
79.512	0.1355	159024	keystroke_n	n	n/a
79.5715	0.0895	159143	keystroke_t	t	n/a
79.707	0.105	159414	keystroke_e	e	n/a
79.841	0.121	159682	keystroke_r	r	n/a
79.977	0.105	159954	keystroke_e	e	n/a
80.1575	0.0895	160315	keystroke_s	s	n/a
80.322	0.105	160644	keystroke_t	t	n/a
80.397	0.1045	160794	keystroke_Key.space	Key.space	n/a
80.5615	0.0755	161123	keystroke_a	a	n/a
80.637	0.105	161274	keystroke_u	u	n/a
80.772	0.105	161544	keystroke_r	r	n/a
80.892	0.0895	161784	keystroke_o	o	n/a
81.0115	0.1055	162023	keystroke_r	r	n/a
81.4165	0.09	162833	keystroke_a	a	n/a
81.5215	0.09	163043	keystroke_Key.enter	Key.enter	n/a
81.618	3.2055	163236	prompt	n/a	beings each shots such\n
82.287	0.015	164574	keystroke_b	b	n/a
82.317	0.1045	164634	keystroke_e	e	n/a
82.377	0.0755	164754	keystroke_i	i	n/a
82.4965	0.1505	164993	keystroke_n	n	n/a
82.5565	0.075	165113	keystroke_g	g	n/a
82.7215	0.106	165443	keystroke_s	s	n/a
82.842	0.105	165684	keystroke_Key.space	Key.space	n/a
82.9015	0.0905	165803	keystroke_e	e	n/a
83.067	0.09	166134	keystroke_a	a	n/a
83.2315	0.1205	166463	keystroke_c	c	n/a
83.292	0.15	166584	keystroke_h	h	n/a
83.427	0.12	166854	keystroke_Key.space	Key.space	n/a
83.532	0.0745	167064	keystroke_s	s	n/a
83.6515	0.06	167303	keystroke_h	h	n/a
83.7575	0.1195	167515	keystroke_o	o	n/a
83.8465	0.0895	167693	keystroke_t	t	n/a
84.012	0.1045	168024	keystroke_s	s	n/a
84.072	0.0745	168144	keystroke_Key.space	Key.space	n/a
84.237	0.104	168474	keystroke_s	s	n/a
84.282	0.135	168564	keystroke_u	u	n/a
84.432	0.09	168864	keystroke_c	c	n/a
84.5075	0.1345	169015	keystroke_h	h	n/a
84.717	0.105	169434	keystroke_Key.enter	Key.enter	n/a
84.829	4.915	169658	prompt	n/a	precise street cursor micro\n
85.467	0.1045	170934	keystroke_p	p	n/a
85.527	0.075	171054	keystroke_r	r	n/a
85.617	0.09	171234	keystroke_e	e	n/a
85.812	0.135	171624	keystroke_c	c	n/a
85.887	0.18	171774	keystroke_i	i	n/a
86.037	0.0605	172074	keystroke_s	s	n/a
86.172	0.105	172344	keystroke_e	e	n/a
86.261	0.1205	172522	keystroke_Key.space	Key.space	n/a
86.427	0.0895	172854	keystroke_s	s	n/a
86.637	0.0895	173274	keystroke_t	t	n/a
86.7715	0.09	173543	keystroke_r	r	n/a
86.9515	0.075	173903	keystroke_e	e	n/a
87.1315	0.0905	174263	keystroke_e	e	n/a
87.266	0.091	174532	keystroke_t	t	n/a
87.3265	0.1195	174653	keystroke_Key.space	Key.space	n/a
87.491	0.1065	174982	keystroke_c	c	n/a
87.582	0.1045	175164	keystroke_u	u	n/a
87.702	0.1045	175404	keystroke_r	r	n/a
87.912	0.0895	175824	keystroke_s	s	n/a
88.0165	0.1655	176033	keystroke_o	o	n/a
88.1965	0.1055	176393	keystroke_r	r	n/a
88.7365	0.015	177473	keystroke_Key.space	Key.space	n/a
88.812	0.075	177624	keystroke_m	m	n/a
89.007	0.09	178014	keystroke_i	i	n/a
89.172	0.09	178344	keystroke_c	c	n/a
89.3965	0.105	178793	keystroke_r	r	n/a
89.472	0.09	178944	keystroke_o	o	n/a
89.652	0.0895	179304	keystroke_Key.enter	Key.enter	n/a
89.75	6.953	179500	prompt	n/a	parents usgs leader investigator\n
90.417	0.1045	180834	keystroke_p	p	n/a
90.5065	0.075	181013	keystroke_a	a	n/a
90.6865	0.0755	181373	keystroke_r	r	n/a
90.867	0.06	181734	keystroke_e	e	n/a
90.942	0.1045	181884	keystroke_n	n	n/a
91.032	0.06	182064	keystroke_t	t	n/a
91.212	0.1045	182424	keystroke_s	s	n/a
91.3325	0.1035	182665	keystroke_Key.space	Key.space	n/a
91.451	0.106	182902	keystroke_u	u	n/a
91.541	0.106	183082	keystroke_s	s	n/a
91.7075	0.1045	183415	keystroke_g	g	n/a
91.857	0.105	183714	keystroke_s	s	n/a
92.0365	0.0755	184073	keystroke_Key.space	Key.space	n/a
92.592	0.1045	185184	keystroke_l	l	n/a
92.682	0.075	185364	keystroke_e	e	n/a
92.712	0.015	185424	keystroke_w	w	n/a
92.9215	0.1205	185843	keystroke_a	a	n/a
93.087	0.075	186174	keystroke_d	d	n/a
93.2525	0.0895	186505	keystroke_e	e	n/a
93.4625	0.0895	186925	keystroke_Key.backspace	Key.backspace	n/a
93.642	0.075	187284	keystroke_Key.backspace	Key.backspace	n/a
93.807	0.0745	187614	keystroke_Key.backspace	Key.backspace	n/a
93.9865	0.09	187973	keystroke_Key.backspace	Key.backspace	n/a
94.1215	0.0755	188243	keystroke_a	a	n/a
94.2425	0.074	188485	keystroke_d	d	n/a
94.4515	0.0755	188903	keystroke_e	e	n/a
94.5565	0.1205	189113	keystroke_r	r	n/a
94.6465	0.12	189293	keystroke_Key.space	Key.space	n/a
94.7515	0.09	189503	keystroke_i	i	n/a
94.9165	0.1505	189833	keystroke_n	n	n/a
95.052	0.12	190104	keystroke_v	v	n/a
95.2465	0.106	190493	keystroke_e	e	n/a
95.412	0.09	190824	keystroke_s	s	n/a
95.592	0.12	191184	keystroke_t	t	n/a
95.742	0.0895	191484	keystroke_i	i	n/a
95.982	0.0755	191964	keystroke_g	g	n/a
96.177	0.06	192354	keystroke_a	a	n/a
96.342	0.09	192684	keystroke_t	t	n/a
96.387	0.135	192774	keystroke_o	o	n/a
96.5065	0.151	193013	keystroke_r	r	n/a
96.6115	0.0905	193223	keystroke_Key.enter	Key.enter	n/a
96.707	7.7215	193414	prompt	n/a	referral disturbed blogs meetup\n
97.452	0.09	194904	keystroke_r	r	n/a
97.587	0.09	195174	keystroke_e	e	n/a
98.381	0.1065	196762	keystroke_f	f	n/a
98.547	0.0745	197094	keystroke_e	e	n/a
98.6515	0.1055	197303	keystroke_r	r	n/a
98.8465	0.09	197693	keystroke_r	r	n/a
99.0565	0.0905	198113	keystroke_a	a	n/a
99.0865	0.105	198173	keystroke_l	l	n/a
99.2365	0.135	198473	keystroke_Key.space	Key.space	n/a
99.387	0.12	198774	keystroke_d	d	n/a
99.5215	0.1055	199043	keystroke_i	i	n/a
99.612	0.075	199224	keystroke_s	s	n/a
99.792	0.09	199584	keystroke_t	t	n/a
99.912	0.1045	199824	keystroke_r	r	n/a
100.452	0.09	200904	keystroke_u	u	n/a
101.3965	0.06	202793	keystroke_Key.backspace	Key.backspace	n/a
101.5465	0.0755	203093	keystroke_Key.backspace	Key.backspace	n/a
101.7115	0.12	203423	keystroke_u	u	n/a
101.9065	0.105	203813	keystroke_r	r	n/a
102.0865	0.1355	204173	keystroke_b	b	n/a
102.237	0.105	204474	keystroke_e	e	n/a
102.447	0.075	204894	keystroke_d	d	n/a
102.522	0.0895	205044	keystroke_Key.space	Key.space	n/a
102.6865	0.1055	205373	keystroke_b	b	n/a
102.911	0.0605	205822	keystroke_l	l	n/a
103.0765	0.105	206153	keystroke_o	o	n/a
103.2265	0.105	206453	keystroke_g	g	n/a
103.4065	0.1055	206813	keystroke_s	s	n/a
103.467	0.0905	206934	keystroke_Key.space	Key.space	n/a
103.587	0.135	207174	keystroke_m	m	n/a
103.6315	0.076	207263	keystroke_e	e	n/a
103.7815	0.12	207563	keystroke_e	e	n/a
103.9475	0.134	207895	keystroke_t	t	n/a
104.022	0.09	208044	keystroke_u	u	n/a
104.157	0.105	208314	keystroke_p	p	n/a
104.337	0.09	208674	keystroke_Key.enter	Key.enter	n/a
104.438	4.8055	208876	prompt	n/a	dover latex dairy orders\n
105.1175	0.1195	210235	keystroke_d	d	n/a
105.222	0.09	210444	keystroke_o	o	n/a
105.3415	0.0905	210683	keystroke_v	v	n/a
105.5375	0.0895	211075	keystroke_e	e	n/a
105.642	0.12	211284	keystroke_r	r	n/a
105.746	0.105	211492	keystroke_Key.space	Key.space	n/a
105.912	0.075	211824	keystroke_l	l	n/a
106.212	0.0455	212424	keystroke_a	a	n/a
106.4215	0.0605	212843	keystroke_t	t	n/a
106.8115	0.075	213623	keystroke_e	e	n/a
107.082	0.1345	214164	keystroke_x	x	n/a
107.202	0.0895	214404	keystroke_Key.space	Key.space	n/a
107.442	0.0905	214884	keystroke_d	d	n/a
107.6065	0.105	215213	keystroke_a	a	n/a
107.6665	0.105	215333	keystroke_i	i	n/a
107.8165	0.1055	215633	keystroke_r	r	n/a
107.907	0.1205	215814	keystroke_y	y	n/a
108.0115	0.1055	216023	keystroke_Key.space	Key.space	n/a
108.3125	0.135	216625	keystroke_o	o	n/a
108.4175	0.104	216835	keystroke_r	r	n/a
108.5975	0.119	217195	keystroke_d	d	n/a
108.7915	0.0905	217583	keystroke_e	e	n/a
108.8665	0.12	217733	keystroke_r	r	n/a
109.0915	0.0905	218183	keystroke_s	s	n/a
109.151	0.091	218302	keystroke_Key.enter	Key.enter	n/a
109.2485	4.93	218497	prompt	n/a	critical joining indexed prince\n
109.857	0.09	219714	keystroke_c	c	n/a
110.051	0.121	220102	keystroke_r	r	n/a
110.1275	0.09	220255	keystroke_i	i	n/a
110.322	0.09	220644	keystroke_t	t	n/a
110.3965	0.09	220793	keystroke_i	i	n/a
110.5465	0.075	221093	keystroke_c	c	n/a
110.7265	0.135	221453	keystroke_a	a	n/a
110.7715	0.15	221543	keystroke_l	l	n/a
110.9065	0.12	221813	keystroke_Key.space	Key.space	n/a
110.9965	0.1355	221993	keystroke_j	j	n/a
111.1765	0.105	222353	keystroke_o	o	n/a
111.3265	0.09	222653	keystroke_i	i	n/a
111.5225	0.0595	223045	keystroke_n	n	n/a
111.6415	0.0905	223283	keystroke_i	i	n/a
111.792	0.1205	223584	keystroke_n	n	n/a
111.867	0.105	223734	keystroke_g	g	n/a
111.987	0.075	223974	keystroke_Key.space	Key.space	n/a
112.077	0.0745	224154	keystroke_i	i	n/a
112.227	0.165	224454	keystroke_n	n	n/a
112.3165	0.0605	224633	keystroke_d	d	n/a
112.4965	0.061	224993	keystroke_e	e	n/a
112.722	0.12	225444	keystroke_x	x	n/a
112.961	0.105	225922	keystroke_e	e	n/a
113.172	0.0455	226344	keystroke_d	d	n/a
113.201	0.121	226402	keystroke_Key.space	Key.space	n/a
113.337	0.09	226674	keystroke_p	p	n/a
113.442	0.1195	226884	keystroke_r	r	n/a
113.5465	0.0755	227093	keystroke_i	i	n/a
113.697	0.165	227394	keystroke_n	n	n/a
113.787	0.09	227574	keystroke_c	c	n/a
113.982	0.09	227964	keystroke_e	e	n/a
114.087	0.09	228174	keystroke_Key.enter	Key.enter	n/a
114.1835	6.76	228367	prompt	n/a	cardiff mediawiki reasons helicopter\n
114.927	0.0595	229854	keystroke_c	c	n/a
115.437	0.0745	230874	keystroke_a	a	n/a
115.6315	0.0755	231263	keystroke_r	r	n/a
115.7815	0.1055	231563	keystroke_d	d	n/a
115.8565	0.1205	231713	keystroke_i	i	n/a
115.962	0.0745	231924	keystroke_f	f	n/a
116.127	0.0895	232254	keystroke_f	f	n/a
116.1865	0.105	232373	keystroke_Key.space	Key.space	n/a
116.352	0.1195	232704	keystroke_m	m	n/a
116.4565	0.09	232913	keystroke_e	e	n/a
116.6515	0.091	233303	keystroke_d	d	n/a
116.7125	0.134	233425	keystroke_i	i	n/a
116.8765	0.0755	233753	keystroke_a	a	n/a
117.117	0.0905	234234	keystroke_w	w	n/a
117.1925	0.1045	234385	keystroke_i	i	n/a
117.3715	0.105	234743	keystroke_k	k	n/a
117.552	0.0745	235104	keystroke_i	i	n/a
117.7165	0.105	235433	keystroke_Key.space	Key.space	n/a
117.7915	0.09	235583	keystroke_r	r	n/a
117.927	0.1045	235854	keystroke_e	e	n/a
118.1065	0.09	236213	keystroke_a	a	n/a
118.1815	0.135	236363	keystroke_s	s	n/a
118.2565	0.0755	236513	keystroke_o	o	n/a
118.422	0.105	236844	keystroke_n	n	n/a
118.497	0.0745	236994	keystroke_s	s	n/a
118.6915	0.09	237383	keystroke_Key.space	Key.space	n/a
118.7825	0.104	237565	keystroke_h	h	n/a
118.9015	0.135	237803	keystroke_e	e	n/a
119.0375	0.0745	238075	keystroke_l	l	n/a
119.352	0.09	238704	keystroke_i	i	n/a
119.637	0.09	239274	keystroke_c	c	n/a
119.831	0.12	239662	keystroke_o	o	n/a
119.907	0.089	239814	keystroke_p	p	n/a
120.026	0.045	240052	keystroke_e	e	n/a
120.342	0.0895	240684	keystroke_Key.backspace	Key.backspace	n/a
120.447	0.06	240894	keystroke_t	t	n/a
120.657	0.0745	241314	keystroke_e	e	n/a
120.7465	0.1355	241493	keystroke_r	r	n/a
120.8665	0.075	241733	keystroke_Key.enter	Key.enter	n/a
120.948	7.106	241896	prompt	n/a	playing assignment enterprise homeless\n
121.572	0.0745	243144	keystroke_p	p	n/a
121.6765	0.09	243353	keystroke_a	a	n/a
121.7965	0.0755	243593	keystroke_l	l	n/a
122.052	0.074	244104	keystroke_Key.backspace	Key.backspace	n/a
122.201	0.076	244402	keystroke_Key.backspace	Key.backspace	n/a
122.382	0.105	244764	keystroke_l	l	n/a
122.487	0.12	244974	keystroke_a	a	n/a
122.6525	0.0745	245305	keystroke_y	y	n/a
122.832	0.06	245664	keystroke_i	i	n/a
122.9825	0.0895	245965	keystroke_n	n	n/a
123.042	0.09	246084	keystroke_g	g	n/a
123.161	0.1055	246322	keystroke_Key.space	Key.space	n/a
123.2215	0.09	246443	keystroke_a	a	n/a
123.447	0.0745	246894	keystroke_s	s	n/a
123.6115	0.1055	247223	keystroke_s	s	n/a
123.657	0.0745	247314	keystroke_i	i	n/a
123.8365	0.1505	247673	keystroke_g	g	n/a
123.9415	0.0755	247883	keystroke_n	n	n/a
124.062	0.1195	248124	keystroke_m	m	n/a
124.167	0.0895	248334	keystroke_e	e	n/a
124.2715	0.1205	248543	keystroke_n	n	n/a
124.4515	0.105	248903	keystroke_t	t	n/a
124.7665	0.09	249533	keystroke_Key.space	Key.space	n/a
125.3515	0.1055	250703	keystroke_e	e	n/a
125.4115	0.12	250823	keystroke_n	n	n/a
125.5765	0.105	251153	keystroke_t	t	n/a
125.7715	0.03	251543	keystroke_e	e	n/a
125.876	0.1055	251752	keystroke_r	r	n/a
125.9515	0.105	251903	keystroke_p	p	n/a
126.1165	0.105	252233	keystroke_r	r	n/a
126.207	0.1045	252414	keystroke_i	i	n/a
126.3565	0.09	252713	keystroke_s	s	n/a
126.5065	0.135	253013	keystroke_e	e	n/a
126.5815	0.09	253163	keystroke_Key.space	Key.space	n/a
126.6575	0.1045	253315	keystroke_h	h	n/a
126.867	0.0595	253734	keystroke_o	o	n/a
127.0015	0.12	254003	keystroke_m	m	n/a
127.062	0.12	254124	keystroke_e	e	n/a
127.4065	0.106	254813	keystroke_l	l	n/a
127.527	0.105	255054	keystroke_e	e	n/a
127.691	0.091	255382	keystroke_s	s	n/a
127.872	0.105	255744	keystroke_s	s	n/a
127.962	0.09	255924	keystroke_Key.enter	Key.enter	n/a
128.0575	5.4705	256115	prompt	n/a	logan vital recovered affiliates\n
128.682	0.09	257364	keystroke_l	l	n/a
128.847	0.0895	257694	keystroke_o	o	n/a
128.9215	0.075	257843	keystroke_g	g	n/a
129.1025	0.119	258205	keystroke_a	a	n/a
129.162	0.1195	258324	keystroke_n	n	n/a
129.267	0.1045	258534	keystroke_Key.space	Key.space	n/a
129.387	0.105	258774	keystroke_v	v	n/a
129.5065	0.15	259013	keystroke_i	i	n/a
129.6715	0.0905	259343	keystroke_t	t	n/a
129.9115	0.1055	259823	keystroke_a	a	n/a
129.972	0.12	259944	keystroke_l	l	n/a
130.062	0.135	260124	keystroke_Key.space	Key.space	n/a
130.272	0.075	260544	keystroke_r	r	n/a
130.392	0.0755	260784	keystroke_e	e	n/a
130.556	0.136	261112	keystroke_c	c	n/a
130.647	0.135	261294	keystroke_o	o	n/a
130.797	0.06	261594	keystroke_v	v	n/a
131.0675	0.104	262135	keystroke_e	e	n/a
131.187	0.1045	262374	keystroke_r	r	n/a
131.322	0.105	262644	keystroke_e	e	n/a
131.487	0.105	262974	keystroke_d	d	n/a
131.547	0.135	263094	keystroke_Key.space	Key.space	n/a
131.712	0.105	263424	keystroke_a	a	n/a
131.922	0.09	263844	keystroke_f	f	n/a
132.207	0.09	264414	keystroke_f	f	n/a
132.312	0.105	264624	keystroke_i	i	n/a
132.522	0.075	265044	keystroke_l	l	n/a
132.687	0.12	265374	keystroke_i	i	n/a
132.792	0.075	265584	keystroke_a	a	n/a
132.987	0.09	265974	keystroke_t	t	n/a
133.152	0.09	266304	keystroke_e	e	n/a
133.317	0.12	266634	keystroke_s	s	n/a
133.422	0.1045	266844	keystroke_Key.enter	Key.enter	n/a
133.5315	5.802	267063	prompt	n/a	fails security completing hamilton\n
134.1715	0.09	268343	keystroke_f	f	n/a
134.3665	0.0905	268733	keystroke_a	a	n/a
134.396	0.106	268792	keystroke_i	i	n/a
134.561	0.091	269122	keystroke_l	l	n/a
134.667	0.105	269334	keystroke_s	s	n/a
134.772	0.12	269544	keystroke_Key.space	Key.space	n/a
134.877	0.075	269754	keystroke_s	s	n/a
135.027	0.075	270054	keystroke_e	e	n/a
135.222	0.135	270444	keystroke_c	c	n/a
135.342	0.105	270684	keystroke_u	u	n/a
135.567	0.059	271134	keystroke_r	r	n/a
135.612	0.075	271224	keystroke_i	i	n/a
136.047	0.12	272094	keystroke_t	t	n/a
136.152	0.105	272304	keystroke_y	y	n/a
136.301	0.1205	272602	keystroke_Key.space	Key.space	n/a
136.5865	0.1805	273173	keystroke_c	c	n/a
136.6915	0.06	273383	keystroke_o	o	n/a
136.841	0.091	273682	keystroke_m	m	n/a
137.052	0.09	274104	keystroke_p	p	n/a
137.217	0.12	274434	keystroke_l	l	n/a
137.292	0.075	274584	keystroke_e	e	n/a
137.426	0.121	274852	keystroke_t	t	n/a
137.532	0.059	275064	keystroke_i	i	n/a
137.652	0.18	275304	keystroke_n	n	n/a
137.772	0.09	275544	keystroke_g	g	n/a
137.877	0.1195	275754	keystroke_Key.space	Key.space	n/a
137.9815	0.105	275963	keystroke_h	h	n/a
138.102	0.1345	276204	keystroke_a	a	n/a
138.192	0.1195	276384	keystroke_m	m	n/a
138.492	0.015	276984	keystroke_i	i	n/a
138.627	0.105	277254	keystroke_l	l	n/a
138.7625	0.0895	277525	keystroke_t	t	n/a
138.837	0.105	277674	keystroke_o	o	n/a
139.032	0.135	278064	keystroke_n	n	n/a
139.242	0.09	278484	keystroke_Key.enter	Key.enter	n/a
139.3375	5.456	278675	prompt	n/a	fitness glasgow incidence ottawa\n
139.977	0.15	279954	keystroke_f	f	n/a
140.112	0.12	280224	keystroke_i	i	n/a
140.247	0.09	280494	keystroke_t	t	n/a
140.352	0.1645	280704	keystroke_n	n	n/a
140.4565	0.1055	280913	keystroke_e	e	n/a
140.6515	0.045	281303	keystroke_s	s	n/a
140.817	0.105	281634	keystroke_s	s	n/a
140.9065	0.075	281813	keystroke_Key.space	Key.space	n/a
140.996	0.091	281992	keystroke_g	g	n/a
141.132	0.0595	282264	keystroke_l	l	n/a
141.207	0.09	282414	keystroke_a	a	n/a
141.402	0.06	282804	keystroke_s	s	n/a
141.717	0.09	283434	keystroke_g	g	n/a
141.777	0.12	283554	keystroke_o	o	n/a
141.942	0.075	283884	keystroke_w	w	n/a
142.152	0.105	284304	keystroke_Key.space	Key.space	n/a
142.287	0.09	284574	keystroke_i	i	n/a
142.452	0.1195	284904	keystroke_n	n	n/a
142.557	0.119	285114	keystroke_c	c	n/a
142.7065	0.12	285413	keystroke_i	i	n/a
142.7965	0.0905	285593	keystroke_d	d	n/a
143.0065	0.0905	286013	keystroke_e	e	n/a
143.0815	0.12	286163	keystroke_n	n	n/a
143.2165	0.1045	286433	keystroke_c	c	n/a
143.426	0.1055	286852	keystroke_e	e	n/a
143.5165	0.09	287033	keystroke_Key.space	Key.space	n/a
143.6665	0.105	287333	keystroke_o	o	n/a
143.8315	0.075	287663	keystroke_t	t	n/a
144.027	0.0445	288054	keystroke_t	t	n/a
144.222	0.075	288444	keystroke_a	a	n/a
144.356	0.1205	288712	keystroke_w	w	n/a
144.5665	0.0755	289133	keystroke_a	a	n/a
144.656	0.1355	289312	keystroke_Key.enter	Key.enter	n/a
144.7965	4.887	289593	prompt	n/a	kentucky maybe creature peru\n
145.482	0.105	290964	keystroke_k	k	n/a
145.527	0.135	291054	keystroke_e	e	n/a
145.677	0.105	291354	keystroke_n	n	n/a
145.812	0.105	291624	keystroke_t	t	n/a
145.947	0.12	291894	keystroke_u	u	n/a
146.052	0.12	292104	keystroke_c	c	n/a
146.202	0.1045	292404	keystroke_k	k	n/a
146.322	0.105	292644	keystroke_y	y	n/a
146.412	0.075	292824	keystroke_Key.space	Key.space	n/a
146.562	0.09	293124	keystroke_m	m	n/a
146.652	0.09	293304	keystroke_a	a	n/a
146.7725	0.1195	293545	keystroke_y	y	n/a
146.982	0.135	293964	keystroke_b	b	n/a
147.072	0.09	294144	keystroke_e	e	n/a
147.177	0.105	294354	keystroke_Key.space	Key.space	n/a
147.297	0.075	294594	keystroke_c	c	n/a
147.506	0.091	295012	keystroke_r	r	n/a
147.627	0.0895	295254	keystroke_e	e	n/a
147.8075	0.0595	295615	keystroke_a	a	n/a
147.9715	0.1055	295943	keystroke_t	t	n/a
148.0615	0.12	296123	keystroke_u	u	n/a
148.1215	0.0905	296243	keystroke_r	r	n/a
148.2865	0.1205	296573	keystroke_e	e	n/a
148.362	0.104	296724	keystroke_Key.space	Key.space	n/a
148.4525	0.104	296905	keystroke_p	p	n/a
148.6765	0.031	297353	keystroke_r	r	n/a
149.0365	0.0895	298073	keystroke_Key.backspace	Key.backspace	n/a
149.097	0.09	298194	keystroke_e	e	n/a
149.231	0.1355	298462	keystroke_r	r	n/a
149.321	0.15	298642	keystroke_u	u	n/a
149.5765	0.105	299153	keystroke_Key.enter	Key.enter	n/a
149.69	6.1295	299380	prompt	n/a	garmin disable message small\n
150.387	0.1355	300774	keystroke_g	g	n/a
150.8365	0.09	301673	keystroke_a	a	n/a
151.0015	0.105	302003	keystroke_r	r	n/a
151.0615	0.105	302123	keystroke_m	m	n/a
151.212	0.09	302424	keystroke_i	i	n/a
151.362	0.1645	302724	keystroke_n	n	n/a
151.5115	0.105	303023	keystroke_Key.space	Key.space	n/a
151.542	0.1045	303084	keystroke_d	d	n/a
151.677	0.1645	303354	keystroke_i	i	n/a
151.8265	0.105	303653	keystroke_s	s	n/a
152.0365	0.09	304073	keystroke_a	a	n/a
152.097	0.0895	304194	keystroke_b	b	n/a
152.3065	0.0905	304613	keystroke_l	l	n/a
152.397	0.0895	304794	keystroke_e	e	n/a
152.4715	0.09	304943	keystroke_Key.space	Key.space	n/a
152.6515	0.12	305303	keystroke_m	m	n/a
152.787	0.09	305574	keystroke_e	e	n/a
152.937	0.0905	305874	keystroke_s	s	n/a
153.1025	0.104	306205	keystroke_s	s	n/a
153.222	0.104	306444	keystroke_g	g	n/a
153.2965	0.0595	306593	keystroke_a	a	n/a
153.4925	0.1045	306985	keystroke_e	e	n/a
153.627	0.104	307254	keystroke_Key.space	Key.space	n/a
154.076	0.076	308152	keystroke_Key.backspace	Key.backspace	n/a
154.2565	0.06	308513	keystroke_Key.backspace	Key.backspace	n/a
154.4215	0.0595	308843	keystroke_Key.backspace	Key.backspace	n/a
154.557	0.1195	309114	keystroke_Key.backspace	Key.backspace	n/a
154.602	0.0895	309204	keystroke_a	a	n/a
154.7665	0.0905	309533	keystroke_g	g	n/a
154.9025	0.104	309805	keystroke_e	e	n/a
154.9915	0.105	309983	keystroke_Key.space	Key.space	n/a
155.1115	0.1055	310223	keystroke_s	s	n/a
155.157	0.1205	310314	keystroke_m	m	n/a
155.3215	0.0905	310643	keystroke_a	a	n/a
155.4265	0.045	310853	keystroke_l	l	n/a
155.5615	0.076	311123	keystroke_l	l	n/a
155.6815	0.135	311363	keystroke_Key.enter	Key.enter	n/a
155.8235	6.055	311647	prompt	n/a	playing survive fares download\n
156.537	0.0895	313074	keystroke_p	p	n/a
156.7315	0.0755	313463	keystroke_l	l	n/a
156.8215	0.12	313643	keystroke_a	a	n/a
156.971	0.076	313942	keystroke_y	y	n/a
157.151	0.0455	314302	keystroke_i	i	n/a
157.3015	0.1055	314603	keystroke_n	n	n/a
157.3765	0.09	314753	keystroke_g	g	n/a
157.4815	0.09	314963	keystroke_Key.space	Key.space	n/a
157.5565	0.1205	315113	keystroke_s	s	n/a
157.601	0.166	315202	keystroke_u	u	n/a
157.797	0.0905	315594	keystroke_s	s	n/a
158.172	0.104	316344	keystroke_Key.backspace	Key.backspace	n/a
158.262	0.105	316524	keystroke_r	r	n/a
158.397	0.164	316794	keystroke_i	i	n/a
158.472	0.104	316944	keystroke_v	v	n/a
158.8165	0.0745	317633	keystroke_Key.backspace	Key.backspace	n/a
158.9965	0.0745	317993	keystroke_Key.backspace	Key.backspace	n/a
159.057	0.09	318114	keystroke_v	v	n/a
159.161	0.15	318322	keystroke_i	i	n/a
159.266	0.075	318532	keystroke_v	v	n/a
159.462	0.105	318924	keystroke_e	e	n/a
159.567	0.149	319134	keystroke_Key.space	Key.space	n/a
159.732	0.074	319464	keystroke_f	f	n/a
159.9115	0.0755	319823	keystroke_a	a	n/a
160.301	0.105	320602	keystroke_r	r	n/a
160.4665	0.075	320933	keystroke_e	e	n/a
160.6465	0.0905	321293	keystroke_s	s	n/a
160.7215	0.09	321443	keystroke_Key.space	Key.space	n/a
160.8415	0.105	321683	keystroke_d	d	n/a
160.917	0.1045	321834	keystroke_o	o	n/a
161.052	0.1045	322104	keystroke_w	w	n/a
161.142	0.075	322284	keystroke_n	n	n/a
161.322	0.074	322644	keystroke_l	l	n/a
161.471	0.135	322942	keystroke_o	o	n/a
161.531	0.09	323062	keystroke_a	a	n/a
161.667	0.09	323334	keystroke_d	d	n/a
161.772	0.1045	323544	keystroke_Key.enter	Key.enter	n/a
161.8825	4.541	323765	prompt	n/a	wherever norton vary pain\n
162.507	0.104	325014	keystroke_w	w	n/a
162.627	0.1645	325254	keystroke_h	h	n/a
162.702	0.0745	325404	keystroke_e	e	n/a
162.8065	0.12	325613	keystroke_r	r	n/a
162.9415	0.12	325883	keystroke_e	e	n/a
163.167	0.1045	326334	keystroke_v	v	n/a
163.2415	0.1205	326483	keystroke_e	e	n/a
163.4665	0.0755	326933	keystroke_r	r	n/a
163.7665	0.0905	327533	keystroke_Key.space	Key.space	n/a
163.8865	0.0905	327773	keystroke_n	n	n/a
164.052	0.0905	328104	keystroke_o	o	n/a
164.202	0.089	328404	keystroke_r	r	n/a
164.367	0.1195	328734	keystroke_t	t	n/a
164.4565	0.0905	328913	keystroke_o	o	n/a
164.637	0.12	329274	keystroke_n	n	n/a
164.772	0.105	329544	keystroke_Key.space	Key.space	n/a
164.862	0.12	329724	keystroke_v	v	n/a
165.087	0.075	330174	keystroke_a	a	n/a
165.237	0.12	330474	keystroke_r	r	n/a
165.282	0.15	330564	keystroke_y	y	n/a
165.402	0.105	330804	keystroke_Key.space	Key.space	n/a
165.537	0.15	331074	keystroke_p	p	n/a
165.672	0.09	331344	keystroke_a	a	n/a
165.777	0.075	331554	keystroke_i	i	n/a
166.122	0.12	332244	keystroke_n	n	n/a
166.317	0.105	332634	keystroke_Key.enter	Key.enter	n/a
166.4315	7.4765	332863	prompt	n/a	dealing tamil paperback voyuer\n
167.052	0.09	334104	keystroke_d	d	n/a
167.3965	0.1055	334793	keystroke_e	e	n/a
167.5625	0.0895	335125	keystroke_a	a	n/a
167.6065	0.105	335213	keystroke_l	l	n/a
167.7715	0.06	335543	keystroke_i	i	n/a
167.907	0.12	335814	keystroke_n	n	n/a
167.997	0.0895	335994	keystroke_g	g	n/a
168.1015	0.1045	336203	keystroke_Key.space	Key.space	n/a
168.252	0.09	336504	keystroke_t	t	n/a
168.507	0.0745	337014	keystroke_a	a	n/a
168.6715	0.06	337343	keystroke_m	m	n/a
168.8215	0.075	337643	keystroke_i	i	n/a
169.0165	0.06	338033	keystroke_l	l	n/a
169.1815	0.105	338363	keystroke_Key.space	Key.space	n/a
169.4215	0.0755	338843	keystroke_p	p	n/a
169.4815	0.09	338963	keystroke_a	a	n/a
169.6015	0.12	339203	keystroke_p	p	n/a
169.6615	0.0905	339323	keystroke_e	e	n/a
169.782	0.1045	339564	keystroke_r	r	n/a
170.0065	0.0905	340013	keystroke_b	b	n/a
170.112	0.0895	340224	keystroke_a	a	n/a
170.2765	0.135	340553	keystroke_c	c	n/a
170.352	0.1045	340704	keystroke_k	k	n/a
170.4865	0.135	340973	keystroke_Key.space	Key.space	n/a
171.5665	0.106	343133	keystroke_v	v	n/a
171.6865	0.105	343373	keystroke_o	o	n/a
172.452	0.12	344904	keystroke_y	y	n/a
172.887	0.074	345774	keystroke_e	e	n/a
173.336	0.03	346672	keystroke_Key.backspace	Key.backspace	n/a
173.4575	0.134	346915	keystroke_u	u	n/a
173.5465	0.0905	347093	keystroke_e	e	n/a
173.6675	0.1485	347335	keystroke_r	r	n/a
173.801	0.1055	347602	keystroke_Key.enter	Key.enter	n/a
173.9115	4.482	347823	prompt	n/a	medicine foreign pair whom'st\n
174.537	0.0895	349074	keystroke_m	m	n/a
174.5965	0.135	349193	keystroke_e	e	n/a
174.8065	0.105	349613	keystroke_d	d	n/a
174.8665	0.135	349733	keystroke_i	i	n/a
175.0315	0.1055	350063	keystroke_c	c	n/a
175.107	0.1045	350214	keystroke_i	i	n/a
175.317	0.1195	350634	keystroke_n	n	n/a
175.3915	0.105	350783	keystroke_e	e	n/a
175.5115	0.09	351023	keystroke_Key.space	Key.space	n/a
175.632	0.1195	351264	keystroke_f	f	n/a
175.7365	0.09	351473	keystroke_o	o	n/a
175.7965	0.09	351593	keystroke_r	r	n/a
175.9765	0.0905	351953	keystroke_e	e	n/a
176.052	0.105	352104	keystroke_i	i	n/a
176.172	0.1195	352344	keystroke_g	g	n/a
176.2765	0.1055	352553	keystroke_n	n	n/a
176.3965	0.075	352793	keystroke_Key.space	Key.space	n/a
176.532	0.09	353064	keystroke_p	p	n/a
176.607	0.135	353214	keystroke_a	a	n/a
176.757	0.1205	353514	keystroke_i	i	n/a
176.907	0.12	353814	keystroke_r	r	n/a
177.027	0.075	354054	keystroke_Key.space	Key.space	n/a
177.117	0.09	354234	keystroke_w	w	n/a
177.222	0.06	354444	keystroke_h	h	n/a
177.357	0.09	354714	keystroke_o	o	n/a
177.522	0.0895	355044	keystroke_m	m	n/a
177.837	0.075	355674	keystroke_'	'	n/a
177.942	0.09	355884	keystroke_s	s	n/a
178.152	0.09	356304	keystroke_t	t	n/a
178.2865	0.105	356573	keystroke_Key.enter	Key.enter	n/a
178.398	10.796	356796	prompt	n/a	tourism thesaurus exciting meet\n
179.0375	0.0885	358075	keystroke_t	t	n/a
179.112	0.105	358224	keystroke_h	h	n/a
179.4415	0.06	358883	keystroke_Key.backspace	Key.backspace	n/a
179.6365	0.09	359273	keystroke_o	o	n/a
179.7715	0.1205	359543	keystroke_u	u	n/a
179.8625	0.119	359725	keystroke_r	r	n/a
180.0115	0.09	360023	keystroke_i	i	n/a
180.162	0.0895	360324	keystroke_s	s	n/a
180.2365	0.1205	360473	keystroke_m	m	n/a
180.386	0.1205	360772	keystroke_Key.space	Key.space	n/a
180.5515	0.0905	361103	keystroke_t	t	n/a
180.6265	0.105	361253	keystroke_h	h	n/a
180.7465	0.06	361493	keystroke_e	e	n/a
180.8515	0.105	361703	keystroke_r	r	n/a
181.3015	0.09	362603	keystroke_Key.backspace	Key.backspace	n/a
181.4965	0.0905	362993	keystroke_s	s	n/a
181.782	0.0745	363564	keystroke_a	a	n/a
181.932	0.105	363864	keystroke_r	r	n/a
182.052	0.075	364104	keystroke_u	u	n/a
182.142	0.059	364284	keystroke_a	a	n/a
183.147	0.06	366294	keystroke_Key.backspace	Key.backspace	n/a
183.327	0.075	366654	keystroke_Key.backspace	Key.backspace	n/a
184.317	0.0895	368634	keystroke_u	u	n/a
184.391	0.106	368782	keystroke_s	s	n/a
185.3815	0.12	370763	keystroke_Key.backspace	Key.backspace	n/a
185.6815	0.075	371363	keystroke_Key.backspace	Key.backspace	n/a
185.8765	0.075	371753	keystroke_Key.backspace	Key.backspace	n/a
186.1015	0.1355	372203	keystroke_u	u	n/a
186.657	0.12	373314	keystroke_r	r	n/a
186.792	0.105	373584	keystroke_u	u	n/a
186.987	0.09	373974	keystroke_s	s	n/a
187.107	0.105	374214	keystroke_Key.space	Key.space	n/a
187.4815	0.075	374963	keystroke_e	e	n/a
187.692	0.075	375384	keystroke_x	x	n/a
187.857	0.075	375714	keystroke_c	c	n/a
187.962	0.1195	375924	keystroke_i	i	n/a
188.0665	0.121	376133	keystroke_t	t	n/a
188.1715	0.075	376343	keystroke_i	i	n/a
188.3065	0.105	376613	keystroke_n	n	n/a
188.3815	0.09	376763	keystroke_g	g	n/a
188.5165	0.0905	377033	keystroke_Key.space	Key.space	n/a
188.5615	0.1655	377123	keystroke_m	m	n/a
188.6665	0.0905	377333	keystroke_e	e	n/a
188.832	0.105	377664	keystroke_e	e	n/a
188.982	0.12	377964	keystroke_t	t	n/a
189.087	0.105	378174	keystroke_Key.enter	Key.enter	n/a
189.198	6.685	378396	prompt	n/a	moisture katie temperatures radio\n
189.807	0.075	379614	keystroke_m	m	n/a
189.9865	0.09	379973	keystroke_o	o	n/a
190.212	0.15	380424	keystroke_i	i	n/a
190.572	0.12	381144	keystroke_s	s	n/a
190.797	0.105	381594	keystroke_t	t	n/a
191.007	0.12	382014	keystroke_u	u	n/a
191.127	0.105	382254	keystroke_r	r	n/a
191.351	0.0905	382702	keystroke_e	e	n/a
191.4265	0.0905	382853	keystroke_Key.space	Key.space	n/a
191.6065	0.105	383213	keystroke_k	k	n/a
191.802	0.06	383604	keystroke_a	a	n/a
192.012	0.089	384024	keystroke_t	t	n/a
192.041	0.211	384082	keystroke_i	i	n/a
192.417	0.09	384834	keystroke_e	e	n/a
192.5665	0.105	385133	keystroke_Key.space	Key.space	n/a
192.7765	0.075	385553	keystroke_t	t	n/a
192.912	0.1345	385824	keystroke_e	e	n/a
193.0315	0.09	386063	keystroke_m	m	n/a
193.452	0.0895	386904	keystroke_p	p	n/a
193.632	0.0745	387264	keystroke_e	e	n/a
193.7665	0.12	387533	keystroke_r	r	n/a
194.007	0.0745	388014	keystroke_a	a	n/a
194.186	0.1055	388372	keystroke_t	t	n/a
194.261	0.1205	388522	keystroke_u	u	n/a
194.3665	0.0895	388733	keystroke_r	r	n/a
194.5465	0.0745	389093	keystroke_e	e	n/a
194.697	0.0895	389394	keystroke_s	s	n/a
194.771	0.121	389542	keystroke_Key.space	Key.space	n/a
194.907	0.105	389814	keystroke_r	r	n/a
195.116	0.076	390232	keystroke_a	a	n/a
195.252	0.09	390504	keystroke_d	d	n/a
195.357	0.24	390714	keystroke_i	i	n/a
195.4915	0.1505	390983	keystroke_o	o	n/a
195.822	0.059	391644	keystroke_Key.enter	Key.enter	n/a
195.8875	5.681	391775	prompt	n/a	fans forced dvds invention\n
196.5415	0.12	393083	keystroke_f	f	n/a
196.722	0.12	393444	keystroke_a	a	n/a
196.797	0.135	393594	keystroke_n	n	n/a
197.112	0.09	394224	keystroke_s	s	n/a
197.217	0.09	394434	keystroke_Key.space	Key.space	n/a
197.412	0.135	394824	keystroke_f	f	n/a
197.517	0.165	395034	keystroke_o	o	n/a
197.652	0.09	395304	keystroke_r	r	n/a
197.862	0.075	395724	keystroke_c	c	n/a
198.072	0.105	396144	keystroke_e	e	n/a
198.327	0.134	396654	keystroke_Key.space	Key.space	n/a
198.8065	0.0895	397613	keystroke_Key.backspace	Key.backspace	n/a
198.912	0.1195	397824	keystroke_d	d	n/a
199.0165	0.1205	398033	keystroke_Key.space	Key.space	n/a
199.272	0.089	398544	keystroke_d	d	n/a
199.4365	0.0755	398873	keystroke_v	v	n/a
199.6315	0.075	399263	keystroke_d	d	n/a
199.8265	0.0905	399653	keystroke_s	s	n/a
200.0215	0.1345	400043	keystroke_Key.space	Key.space	n/a
200.187	0.09	400374	keystroke_i	i	n/a
200.352	0.12	400704	keystroke_n	n	n/a
200.442	0.12	400884	keystroke_v	v	n/a
200.652	0.12	401304	keystroke_e	e	n/a
200.742	0.104	401484	keystroke_n	n	n/a
200.862	0.1195	401724	keystroke_t	t	n/a
200.9665	0.21	401933	keystroke_i	i	n/a
201.102	0.1645	402204	keystroke_o	o	n/a
201.2815	0.1055	402563	keystroke_n	n	n/a
201.432	0.1345	402864	keystroke_Key.enter	Key.enter	n/a
201.573	4.541	403146	prompt	n/a	political slave built aims\n
202.1965	0.1655	404393	keystroke_p	p	n/a
202.347	0.104	404694	keystroke_o	o	n/a
202.572	0.06	405144	keystroke_l	l	n/a
202.7065	0.1205	405413	keystroke_i	i	n/a
202.8565	0.12	405713	keystroke_t	t	n/a
202.9465	0.105	405893	keystroke_i	i	n/a
203.0815	0.075	406163	keystroke_c	c	n/a
203.277	0.0895	406554	keystroke_a	a	n/a
203.3365	0.12	406673	keystroke_l	l	n/a
203.4865	0.135	406973	keystroke_Key.space	Key.space	n/a
203.6365	0.075	407273	keystroke_s	s	n/a
203.7115	0.075	407423	keystroke_l	l	n/a
203.9665	0.135	407933	keystroke_a	a	n/a
204.0865	0.0905	408173	keystroke_v	v	n/a
204.2215	0.075	408443	keystroke_e	e	n/a
204.3265	0.105	408653	keystroke_Key.space	Key.space	n/a
204.5515	0.075	409103	keystroke_b	b	n/a
204.8215	0.1805	409643	keystroke_u	u	n/a
204.926	0.121	409852	keystroke_i	i	n/a
205.122	0.135	410244	keystroke_l	l	n/a
205.212	0.12	410424	keystroke_t	t	n/a
205.347	0.104	410694	keystroke_Key.space	Key.space	n/a
205.527	0.135	411054	keystroke_a	a	n/a
205.617	0.09	411234	keystroke_i	i	n/a
205.812	0.105	411624	keystroke_m	m	n/a
205.887	0.12	411774	keystroke_s	s	n/a
206.037	0.075	412074	keystroke_Key.enter	Key.enter	n/a
206.1175	4.6605	412235	prompt	n/a	devon lodge employees modem\n
206.817	0.09	413634	keystroke_d	d	n/a
207.011	0.1055	414022	keystroke_e	e	n/a
207.071	0.0755	414142	keystroke_v	v	n/a
207.281	0.075	414562	keystroke_o	o	n/a
207.402	0.149	414804	keystroke_n	n	n/a
207.5215	0.1055	415043	keystroke_Key.space	Key.space	n/a
207.6415	0.1055	415283	keystroke_l	l	n/a
207.837	0.12	415674	keystroke_o	o	n/a
207.912	0.09	415824	keystroke_d	d	n/a
208.107	0.075	416214	keystroke_g	g	n/a
208.242	0.1195	416484	keystroke_e	e	n/a
208.347	0.0745	416694	keystroke_Key.space	Key.space	n/a
208.4815	0.09	416963	keystroke_e	e	n/a
208.5565	0.09	417113	keystroke_m	m	n/a
208.7515	0.06	417503	keystroke_p	p	n/a
208.917	0.0595	417834	keystroke_l	l	n/a
209.067	0.1345	418134	keystroke_o	o	n/a
209.292	0.105	418584	keystroke_y	y	n/a
209.367	0.104	418734	keystroke_e	e	n/a
209.5315	0.135	419063	keystroke_e	e	n/a
209.757	0.12	419514	keystroke_s	s	n/a
209.831	0.105	419662	keystroke_Key.space	Key.space	n/a
209.951	0.106	419902	keystroke_m	m	n/a
210.132	0.104	420264	keystroke_o	o	n/a
210.192	0.1195	420384	keystroke_d	d	n/a
210.402	0.105	420804	keystroke_e	e	n/a
210.477	0.135	420954	keystroke_m	m	n/a
210.717	0.059	421434	keystroke_Key.enter	Key.enter	n/a
210.783	8.455	421566	prompt	n/a	professor agricultural croatia enrollment\n
211.392	0.09	422784	keystroke_p	p	n/a
211.467	0.105	422934	keystroke_r	r	n/a
211.662	0.105	423324	keystroke_i	i	n/a
211.7215	0.0905	423443	keystroke_f	f	n/a
212.0965	0.0595	424193	keystroke_Key.backspace	Key.backspace	n/a
212.321	0.015	424642	keystroke_Key.backspace	Key.backspace	n/a
212.3515	0.136	424703	keystroke_o	o	n/a
212.427	0.104	424854	keystroke_f	f	n/a
212.576	0.0905	425152	keystroke_e	e	n/a
212.7265	0.1055	425453	keystroke_s	s	n/a
212.9215	0.105	425843	keystroke_s	s	n/a
212.997	0.09	425994	keystroke_o	o	n/a
213.131	0.1065	426262	keystroke_r	r	n/a
213.2215	0.15	426443	keystroke_Key.space	Key.space	n/a
213.3865	0.1055	426773	keystroke_a	a	n/a
213.7165	0.105	427433	keystroke_g	g	n/a
214.0765	0.0755	428153	keystroke_r	r	n/a
214.1815	0.12	428363	keystroke_i	i	n/a
214.3765	0.09	428753	keystroke_c	c	n/a
214.4815	0.0755	428963	keystroke_u	u	n/a
214.677	0.075	429354	keystroke_l	l	n/a
214.7815	0.135	429563	keystroke_t	t	n/a
214.9015	0.12	429803	keystroke_u	u	n/a
215.0065	0.105	430013	keystroke_r	r	n/a
215.2465	0.105	430493	keystroke_a	a	n/a
215.3065	0.075	430613	keystroke_l	l	n/a
215.4265	0.105	430853	keystroke_Key.space	Key.space	n/a
215.7115	0.061	431423	keystroke_c	c	n/a
215.9065	0.105	431813	keystroke_r	r	n/a
216.0415	0.1055	432083	keystroke_o	o	n/a
216.207	0.0895	432414	keystroke_a	a	n/a
216.596	0.076	433192	keystroke_t	t	n/a
216.657	0.119	433314	keystroke_i	i	n/a
216.8965	0.0755	433793	keystroke_a	a	n/a
217.001	0.075	434002	keystroke_Key.space	Key.space	n/a
217.196	0.09	434392	keystroke_e	e	n/a
217.2715	0.0905	434543	keystroke_n	n	n/a
217.4365	0.105	434873	keystroke_r	r	n/a
217.5115	0.09	435023	keystroke_o	o	n/a
217.722	0.059	435444	keystroke_l	l	n/a
217.8715	0.0745	435743	keystroke_l	l	n/a
218.081	0.106	436162	keystroke_e	e	n/a
218.5915	0.015	437183	keystroke_Key.backspace	Key.backspace	n/a
218.7115	0.1055	437423	keystroke_m	m	n/a
218.8465	0.105	437693	keystroke_e	e	n/a
218.9365	0.1055	437873	keystroke_n	n	n/a
219.0565	0.105	438113	keystroke_t	t	n/a
219.1465	0.09	438293	keystroke_Key.enter	Key.enter	n/a
219.2415	6.8065	438483	prompt	n/a	wisdom improving kings partnerships\n
219.9115	0.12	439823	keystroke_w	w	n/a
220.017	0.1345	440034	keystroke_i	i	n/a
220.197	0.09	440394	keystroke_s	s	n/a
220.512	0.105	441024	keystroke_d	d	n/a
220.632	0.074	441264	keystroke_o	o	n/a
220.7965	0.1055	441593	keystroke_m	m	n/a
220.9165	0.1205	441833	keystroke_Key.space	Key.space	n/a
221.052	0.045	442104	keystroke_i	i	n/a
221.231	0.0755	442462	keystroke_m	m	n/a
221.4115	0.1655	442823	keystroke_p	p	n/a
221.5615	0.075	443123	keystroke_r	r	n/a
221.877	0.1045	443754	keystroke_o	o	n/a
221.9965	0.12	443993	keystroke_v	v	n/a
222.1315	0.1055	444263	keystroke_i	i	n/a
222.7615	0.105	445523	keystroke_n	n	n/a
222.882	0.0745	445764	keystroke_g	g	n/a
222.9715	0.105	445943	keystroke_Key.space	Key.space	n/a
223.197	0.09	446394	keystroke_k	k	n/a
223.362	0.09	446724	keystroke_i	i	n/a
223.557	0.104	447114	keystroke_n	n	n/a
223.8265	0.105	447653	keystroke_g	g	n/a
224.0225	0.1185	448045	keystroke_s	s	n/a
224.081	0.105	448162	keystroke_Key.space	Key.space	n/a
224.261	0.09	448522	keystroke_p	p	n/a
224.3365	0.0605	448673	keystroke_a	a	n/a
224.502	0.06	449004	keystroke_r	r	n/a
224.667	0.075	449334	keystroke_t	t	n/a
224.727	0.12	449454	keystroke_n	n	n/a
224.862	0.105	449724	keystroke_e	e	n/a
224.982	0.12	449964	keystroke_r	r	n/a
225.237	0.135	450474	keystroke_s	s	n/a
225.387	0.105	450774	keystroke_h	h	n/a
225.537	0.105	451074	keystroke_i	i	n/a
225.702	0.135	451404	keystroke_p	p	n/a
225.777	0.12	451554	keystroke_s	s	n/a
225.942	0.105	451884	keystroke_Key.enter	Key.enter	n/a
226.0505	6.088	452101	prompt	n/a	inspiration compression impacts univ\n
226.617	0.21	453234	keystroke_i	i	n/a
226.842	0.03	453684	keystroke_n	n	n/a
226.857	0.045	453714	keystroke_s	s	n/a
227.307	0.09	454614	keystroke_p	p	n/a
227.502	0.09	455004	keystroke_i	i	n/a
227.637	0.09	455274	keystroke_r	r	n/a
227.847	0.06	455694	keystroke_a	a	n/a
228.027	0.105	456054	keystroke_t	t	n/a
228.057	0.1345	456114	keystroke_i	i	n/a
228.1465	0.09	456293	keystroke_o	o	n/a
228.3415	0.105	456683	keystroke_n	n	n/a
228.4475	0.089	456895	keystroke_Key.space	Key.space	n/a
228.567	0.135	457134	keystroke_c	c	n/a
228.717	0.06	457434	keystroke_o	o	n/a
228.852	0.105	457704	keystroke_m	m	n/a
229.032	0.105	458064	keystroke_p	p	n/a
229.107	0.12	458214	keystroke_r	r	n/a
229.257	0.105	458514	keystroke_e	e	n/a
229.4365	0.0905	458873	keystroke_s	s	n/a
229.617	0.09	459234	keystroke_s	s	n/a
229.662	0.15	459324	keystroke_i	i	n/a
229.752	0.09	459504	keystroke_o	o	n/a
229.9625	0.089	459925	keystroke_n	n	n/a
230.0525	0.1045	460105	keystroke_Key.space	Key.space	n/a
230.172	0.06	460344	keystroke_i	i	n/a
230.322	0.0895	460644	keystroke_m	m	n/a
230.4865	0.105	460973	keystroke_p	p	n/a
230.5465	0.09	461093	keystroke_a	a	n/a
230.7115	0.06	461423	keystroke_c	c	n/a
230.8915	0.1055	461783	keystroke_t	t	n/a
231.1015	0.105	462203	keystroke_s	s	n/a
231.1765	0.1205	462353	keystroke_Key.space	Key.space	n/a
231.312	0.135	462624	keystroke_u	u	n/a
231.597	0.089	463194	keystroke_n	n	n/a
231.747	0.12	463494	keystroke_i	i	n/a
231.851	0.105	463702	keystroke_v	v	n/a
231.9865	0.1505	463973	keystroke_Key.enter	Key.enter	n/a
232.1425	5.3355	464285	prompt	n/a	markets skilled glow reproductive\n
232.7665	0.1205	465533	keystroke_m	m	n/a
232.8265	0.09	465653	keystroke_a	a	n/a
232.992	0.1195	465984	keystroke_r	r	n/a
233.082	0.1645	466164	keystroke_k	k	n/a
233.202	0.06	466404	keystroke_e	e	n/a
233.3215	0.105	466643	keystroke_t	t	n/a
233.547	0.105	467094	keystroke_s	s	n/a
233.622	0.104	467244	keystroke_Key.space	Key.space	n/a
233.757	0.075	467514	keystroke_k	k	n/a
234.042	0.0745	468084	keystroke_Key.backspace	Key.backspace	n/a
234.162	0.105	468324	keystroke_s	s	n/a
234.222	0.104	468444	keystroke_k	k	n/a
234.4015	0.09	468803	keystroke_i	i	n/a
234.5815	0.075	469163	keystroke_l	l	n/a
234.7615	0.075	469523	keystroke_l	l	n/a
234.8215	0.0755	469643	keystroke_e	e	n/a
234.971	0.0905	469942	keystroke_d	d	n/a
235.0315	0.1045	470063	keystroke_Key.space	Key.space	n/a
235.1515	0.1045	470303	keystroke_g	g	n/a
235.227	0.09	470454	keystroke_l	l	n/a
235.377	0.119	470754	keystroke_o	o	n/a
235.482	0.09	470964	keystroke_w	w	n/a
235.601	0.135	471202	keystroke_Key.space	Key.space	n/a
235.722	0.105	471444	keystroke_r	r	n/a
235.8415	0.135	471683	keystroke_e	e	n/a
235.992	0.105	471984	keystroke_p	p	n/a
236.307	0.015	472614	keystroke_r	r	n/a
236.337	0.0895	472674	keystroke_o	o	n/a
236.487	0.09	472974	keystroke_d	d	n/a
236.577	0.1345	473154	keystroke_u	u	n/a
236.6965	0.0755	473393	keystroke_c	c	n/a
236.8925	0.1045	473785	keystroke_t	t	n/a
236.982	0.15	473964	keystroke_i	i	n/a
237.1165	0.09	474233	keystroke_v	v	n/a
237.2965	0.12	474593	keystroke_e	e	n/a
237.3715	0.105	474743	keystroke_Key.enter	Key.enter	n/a
237.484	7.8845	474968	prompt	n/a	shows fundraising dare networking\n
238.0765	0.09	476153	keystroke_s	s	n/a
238.122	0.105	476244	keystroke_h	h	n/a
238.2875	0.134	476575	keystroke_o	o	n/a
238.4065	0.1055	476813	keystroke_w	w	n/a
238.572	0.1045	477144	keystroke_s	s	n/a
238.661	0.09	477322	keystroke_Key.space	Key.space	n/a
238.781	0.136	477562	keystroke_f	f	n/a
238.856	0.0755	477712	keystroke_u	u	n/a
239.037	0.135	478074	keystroke_n	n	n/a
239.112	0.105	478224	keystroke_d	d	n/a
239.322	0.105	478644	keystroke_r	r	n/a
239.502	0.105	479004	keystroke_a	a	n/a
239.562	0.09	479124	keystroke_i	i	n/a
239.712	0.1045	479424	keystroke_s	s	n/a
239.802	0.0595	479604	keystroke_i	i	n/a
239.922	0.12	479844	keystroke_n	n	n/a
239.997	0.105	479994	keystroke_g	g	n/a
240.132	0.135	480264	keystroke_Key.space	Key.space	n/a
240.237	0.1195	480474	keystroke_d	d	n/a
240.432	0.045	480864	keystroke_a	a	n/a
240.582	0.09	481164	keystroke_r	r	n/a
240.687	0.135	481374	keystroke_e	e	n/a
240.807	0.105	481614	keystroke_Key.space	Key.space	n/a
241.047	0.0755	482094	keystroke_e	e	n/a
241.077	0.06	482154	keystroke_n	n	n/a
241.377	0.059	482754	keystroke_Key.backspace	Key.backspace	n/a
241.511	0.075	483022	keystroke_Key.backspace	Key.backspace	n/a
241.677	0.135	483354	keystroke_n	n	n/a
241.737	0.105	483474	keystroke_e	e	n/a
241.902	0.104	483804	keystroke_t	t	n/a
242.082	0.12	484164	keystroke_w	w	n/a
242.232	0.15	484464	keystroke_r	r	n/a
242.322	0.09	484644	keystroke_o	o	n/a
242.517	0.06	485034	keystroke_k	k	n/a
242.6365	0.1205	485273	keystroke_i	i	n/a
242.8615	0.045	485723	keystroke_n	n	n/a
243.072	0.1045	486144	keystroke_Key.backspace	Key.backspace	n/a
243.267	0.0745	486534	keystroke_Key.backspace	Key.backspace	n/a
243.446	0.061	486892	keystroke_Key.backspace	Key.backspace	n/a
243.6115	0.105	487223	keystroke_Key.backspace	Key.backspace	n/a
244.2865	0.105	488573	keystroke_Key.backspace	Key.backspace	n/a
244.482	0.105	488964	keystroke_o	o	n/a
244.617	0.12	489234	keystroke_r	r	n/a
244.722	0.09	489444	keystroke_k	k	n/a
244.887	0.06	489774	keystroke_i	i	n/a
245.067	0.09	490134	keystroke_n	n	n/a
245.172	0.105	490344	keystroke_g	g	n/a
245.262	0.105	490524	keystroke_Key.enter	Key.enter	n/a
245.375	6.924	490750	prompt	n/a	mouse princess disabilities navigate\n
245.937	0.105	491874	keystroke_m	m	n/a
246.102	0.105	492204	keystroke_o	o	n/a
246.282	0.12	492564	keystroke_u	u	n/a
246.357	0.089	492714	keystroke_s	s	n/a
246.522	0.105	493044	keystroke_e	e	n/a
246.5965	0.1345	493193	keystroke_Key.space	Key.space	n/a
246.7475	0.1345	493495	keystroke_p	p	n/a
246.8675	0.1045	493735	keystroke_r	r	n/a
246.942	0.074	493884	keystroke_i	i	n/a
247.107	0.12	494214	keystroke_n	n	n/a
247.152	0.12	494304	keystroke_c	c	n/a
247.392	0.09	494784	keystroke_e	e	n/a
247.572	0.075	495144	keystroke_s	s	n/a
247.722	0.105	495444	keystroke_s	s	n/a
247.797	0.105	495594	keystroke_Key.space	Key.space	n/a
247.962	0.1205	495924	keystroke_s	s	n/a
248.052	0.15	496104	keystroke_i	i	n/a
248.3815	0.06	496763	keystroke_Key.backspace	Key.backspace	n/a
248.547	0.0745	497094	keystroke_Key.backspace	Key.backspace	n/a
248.592	0.12	497184	keystroke_d	d	n/a
248.697	0.165	497394	keystroke_i	i	n/a
248.8165	0.0905	497633	keystroke_s	s	n/a
249.012	0.1045	498024	keystroke_a	a	n/a
249.1015	0.0905	498203	keystroke_b	b	n/a
249.792	0.075	499584	keystroke_i	i	n/a
249.9865	0.075	499973	keystroke_l	l	n/a
250.1365	0.1055	500273	keystroke_i	i	n/a
250.2565	0.1205	500513	keystroke_t	t	n/a
250.392	0.12	500784	keystroke_i	i	n/a
250.497	0.0905	500994	keystroke_e	e	n/a
250.677	0.075	501354	keystroke_s	s	n/a
250.737	0.075	501474	keystroke_Key.space	Key.space	n/a
251.022	0.09	502044	keystroke_n	n	n/a
251.157	0.1045	502314	keystroke_a	a	n/a
251.2765	0.0755	502553	keystroke_v	v	n/a
251.4715	0.09	502943	keystroke_i	i	n/a
251.5765	0.105	503153	keystroke_g	g	n/a
251.7715	0.075	503543	keystroke_a	a	n/a
251.9365	0.1055	503873	keystroke_t	t	n/a
252.102	0.1195	504204	keystroke_e	e	n/a
252.2065	0.0895	504413	keystroke_Key.enter	Key.enter	n/a
252.3025	4.796	504605	prompt	n/a	license horse gnome bridal\n
253.107	0.0895	506214	keystroke_l	l	n/a
253.2865	0.1205	506573	keystroke_i	i	n/a
253.377	0.06	506754	keystroke_c	c	n/a
253.557	0.105	507114	keystroke_e	e	n/a
253.647	0.12	507294	keystroke_n	n	n/a
253.767	0.09	507534	keystroke_s	s	n/a
253.947	0.0895	507894	keystroke_e	e	n/a
254.006	0.121	508012	keystroke_Key.space	Key.space	n/a
254.172	0.09	508344	keystroke_h	h	n/a
254.337	0.09	508674	keystroke_o	o	n/a
254.4275	0.105	508855	keystroke_r	r	n/a
254.757	0.075	509514	keystroke_s	s	n/a
254.922	0.105	509844	keystroke_e	e	n/a
255.042	0.12	510084	keystroke_Key.space	Key.space	n/a
255.267	0.09	510534	keystroke_g	g	n/a
255.372	0.09	510744	keystroke_n	n	n/a
255.537	0.0895	511074	keystroke_o	o	n/a
255.7615	0.09	511523	keystroke_m	m	n/a
255.8825	0.074	511765	keystroke_e	e	n/a
255.9715	0.105	511943	keystroke_Key.space	Key.space	n/a
256.1665	0.09	512333	keystroke_b	b	n/a
256.2715	0.075	512543	keystroke_r	r	n/a
256.3615	0.12	512723	keystroke_i	i	n/a
256.5115	0.105	513023	keystroke_d	d	n/a
256.7515	0.0755	513503	keystroke_a	a	n/a
256.842	0.1055	513684	keystroke_l	l	n/a
257.022	0.075	514044	keystroke_Key.enter	Key.enter	n/a
257.103	7.0355	514206	prompt	n/a	teaching download portland retrieval\n
257.772	0.075	515544	keystroke_t	t	n/a
257.922	0.09	515844	keystroke_e	e	n/a
258.0865	0.1055	516173	keystroke_a	a	n/a
258.237	0.105	516474	keystroke_c	c	n/a
258.297	0.09	516594	keystroke_h	h	n/a
258.417	0.075	516834	keystroke_i	i	n/a
258.552	0.134	517104	keystroke_n	n	n/a
258.657	0.075	517314	keystroke_g	g	n/a
258.747	0.089	517494	keystroke_Key.space	Key.space	n/a
258.867	0.1195	517734	keystroke_d	d	n/a
259.212	0.105	518424	keystroke_o	o	n/a
259.346	0.121	518692	keystroke_w	w	n/a
259.496	0.106	518992	keystroke_n	n	n/a
259.707	0.0595	519414	keystroke_l	l	n/a
259.842	0.1045	519684	keystroke_o	o	n/a
259.8865	0.0755	519773	keystroke_a	a	n/a
260.0365	0.0905	520073	keystroke_d	d	n/a
260.127	0.1045	520254	keystroke_Key.space	Key.space	n/a
260.322	0.1345	520644	keystroke_p	p	n/a
260.5015	0.09	521003	keystroke_r	r	n/a
260.577	0.1345	521154	keystroke_o	o	n/a
261.027	0.0745	522054	keystroke_Key.backspace	Key.backspace	n/a
261.177	0.06	522354	keystroke_Key.backspace	Key.backspace	n/a
261.267	0.15	522534	keystroke_o	o	n/a
261.357	0.105	522714	keystroke_r	r	n/a
261.492	0.105	522984	keystroke_t	t	n/a
261.627	0.0895	523254	keystroke_l	l	n/a
261.8665	0.09	523733	keystroke_a	a	n/a
261.9715	0.105	523943	keystroke_n	n	n/a
262.0615	0.1055	524123	keystroke_d	d	n/a
262.1815	0.1355	524363	keystroke_Key.space	Key.space	n/a
262.332	0.105	524664	keystroke_r	r	n/a
262.482	0.075	524964	keystroke_e	e	n/a
262.662	0.105	525324	keystroke_t	t	n/a
262.827	0.09	525654	keystroke_r	r	n/a
263.247	0.105	526494	keystroke_i	i	n/a
263.367	0.12	526734	keystroke_e	e	n/a
263.592	0.075	527184	keystroke_v	v	n/a
263.7415	0.1055	527483	keystroke_a	a	n/a
263.832	0.1195	527664	keystroke_l	l	n/a
264.026	0.1055	528052	keystroke_Key.enter	Key.enter	n/a
264.1385	5.89	528277	prompt	n/a	trans information uploaded metallic\n
264.702	0.09	529404	keystroke_t	t	n/a
264.822	0.105	529644	keystroke_r	r	n/a
265.032	0.09	530064	keystroke_a	a	n/a
265.062	0.165	530124	keystroke_n	n	n/a
265.242	0.09	530484	keystroke_s	s	n/a
265.452	0.105	530904	keystroke_Key.space	Key.space	n/a
265.572	0.075	531144	keystroke_i	i	n/a
265.707	0.105	531414	keystroke_n	n	n/a
265.812	0.105	531624	keystroke_f	f	n/a
265.932	0.075	531864	keystroke_o	o	n/a
265.992	0.105	531984	keystroke_r	r	n/a
266.127	0.09	532254	keystroke_m	m	n/a
266.232	0.045	532464	keystroke_a	a	n/a
266.4275	0.089	532855	keystroke_t	t	n/a
266.4715	0.12	532943	keystroke_i	i	n/a
266.5315	0.1055	533063	keystroke_o	o	n/a
266.7415	0.1205	533483	keystroke_n	n	n/a
266.862	0.09	533724	keystroke_Key.space	Key.space	n/a
267.117	0.075	534234	keystroke_u	u	n/a
267.327	0.075	534654	keystroke_p	p	n/a
267.507	0.075	535014	keystroke_l	l	n/a
267.6565	0.12	535313	keystroke_o	o	n/a
267.7015	0.09	535403	keystroke_a	a	n/a
267.8815	0.0605	535763	keystroke_d	d	n/a
268.0465	0.061	536093	keystroke_e	e	n/a
268.1965	0.09	536393	keystroke_d	d	n/a
268.3015	0.075	536603	keystroke_Key.space	Key.space	n/a
268.3775	0.1345	536755	keystroke_m	m	n/a
268.5265	0.1055	537053	keystroke_e	e	n/a
268.6915	0.1355	537383	keystroke_n	n	n/a
269.111	0.061	538222	keystroke_Key.backspace	Key.backspace	n/a
269.172	0.09	538344	keystroke_t	t	n/a
269.3665	0.1045	538733	keystroke_a	a	n/a
269.427	0.09	538854	keystroke_l	l	n/a
269.5915	0.0445	539183	keystroke_l	l	n/a
269.697	0.149	539394	keystroke_i	i	n/a
269.786	0.0905	539572	keystroke_c	c	n/a
269.936	0.09	539872	keystroke_Key.enter	Key.enter	n/a
270.0325	4.376	540065	prompt	n/a	cooler today tamil at\n
270.687	0.1195	541374	keystroke_c	c	n/a
270.7615	0.06	541523	keystroke_o	o	n/a
270.9115	0.0605	541823	keystroke_o	o	n/a
271.077	0.0595	542154	keystroke_l	l	n/a
271.122	0.0745	542244	keystroke_e	e	n/a
271.242	0.12	542484	keystroke_r	r	n/a
271.3465	0.12	542693	keystroke_Key.space	Key.space	n/a
271.452	0.105	542904	keystroke_t	t	n/a
271.542	0.075	543084	keystroke_o	o	n/a
271.662	0.105	543324	keystroke_d	d	n/a
271.841	0.0905	543682	keystroke_a	a	n/a
271.886	0.121	543772	keystroke_y	y	n/a
272.022	0.104	544044	keystroke_Key.space	Key.space	n/a
272.142	0.1045	544284	keystroke_t	t	n/a
272.352	0.09	544704	keystroke_a	a	n/a
272.427	0.105	544854	keystroke_m	m	n/a
272.592	0.09	545184	keystroke_i	i	n/a
272.817	0.06	545634	keystroke_l	l	n/a
272.907	0.105	545814	keystroke_a	a	n/a
272.922	0.03	545844	keystroke_Key.space	Key.space	n/a
273.192	0.075	546384	keystroke_t	t	n/a
273.4765	0.0905	546953	keystroke_Key.backspace	Key.backspace	n/a
273.6865	0.03	547373	keystroke_Key.backspace	Key.backspace	n/a
273.8065	0.075	547613	keystroke_Key.backspace	Key.backspace	n/a
273.942	0.12	547884	keystroke_Key.space	Key.space	n/a
274.0465	0.06	548093	keystroke_a	a	n/a
274.1815	0.1355	548363	keystroke_t	t	n/a
274.3015	0.105	548603	keystroke_Key.enter	Key.enter	n/a
274.4125	6.791	548825	prompt	n/a	weblog nashville initiated select\n
275.112	0.12	550224	keystroke_w	w	n/a
275.2765	0.1055	550553	keystroke_e	e	n/a
275.322	0.09	550644	keystroke_b	b	n/a
275.517	0.0595	551034	keystroke_l	l	n/a
275.667	0.09	551334	keystroke_o	o	n/a
275.7715	0.1195	551543	keystroke_g	g	n/a
275.9065	0.1045	551813	keystroke_Key.space	Key.space	n/a
276.147	0.104	552294	keystroke_n	n	n/a
276.2665	0.0895	552533	keystroke_a	a	n/a
276.5515	0.1055	553103	keystroke_s	s	n/a
276.641	0.076	553282	keystroke_h	h	n/a
276.912	0.105	553824	keystroke_v	v	n/a
277.0315	0.0905	554063	keystroke_i	i	n/a
277.2425	0.0595	554485	keystroke_l	l	n/a
277.3615	0.09	554723	keystroke_l	l	n/a
277.4665	0.105	554933	keystroke_e	e	n/a
277.5565	0.1205	555113	keystroke_Key.space	Key.space	n/a
277.707	0.105	555414	keystroke_i	i	n/a
277.9315	0.0605	555863	keystroke_n	n	n/a
278.097	0.075	556194	keystroke_i	i	n/a
278.817	0.27	557634	keystroke_t	t	n/a
279.0875	0.014	558175	keystroke_i	i	n/a
279.1165	0.015	558233	keystroke_a	a	n/a
279.2215	0.0905	558443	keystroke_t	t	n/a
279.3865	0.0905	558773	keystroke_e	e	n/a
279.5965	0.09	559193	keystroke_d	d	n/a
279.6865	0.075	559373	keystroke_Key.space	Key.space	n/a
279.837	0.0895	559674	keystroke_s	s	n/a
279.9715	0.105	559943	keystroke_l	l	n/a
280.3465	0.0755	560693	keystroke_Key.backspace	Key.backspace	n/a
280.482	0.105	560964	keystroke_e	e	n/a
280.572	0.105	561144	keystroke_l	l	n/a
280.662	0.075	561324	keystroke_e	e	n/a
280.917	0.015	561834	keystroke_c	c	n/a
281.022	0.105	562044	keystroke_t	t	n/a
281.112	0.09	562224	keystroke_Key.enter	Key.enter	n/a
281.208	5.5755	562416	prompt	n/a	helen watches hydrogen declaration\n
281.787	0.12	563574	keystroke_h	h	n/a
281.982	0.18	563964	keystroke_e	e	n/a
282.132	0.09	564264	keystroke_l	l	n/a
282.282	0.1195	564564	keystroke_e	e	n/a
282.357	0.1345	564714	keystroke_n	n	n/a
282.5515	0.1205	565103	keystroke_Key.space	Key.space	n/a
282.642	0.105	565284	keystroke_w	w	n/a
282.822	0.075	565644	keystroke_a	a	n/a
282.986	0.076	565972	keystroke_t	t	n/a
283.182	0.105	566364	keystroke_c	c	n/a
283.257	0.1045	566514	keystroke_h	h	n/a
283.3915	0.09	566783	keystroke_e	e	n/a
283.572	0.12	567144	keystroke_s	s	n/a
283.676	0.076	567352	keystroke_Key.space	Key.space	n/a
283.917	0.09	567834	keystroke_h	h	n/a
284.097	0.12	568194	keystroke_y	y	n/a
284.157	0.06	568314	keystroke_d	d	n/a
284.306	0.106	568612	keystroke_r	r	n/a
284.4265	0.0895	568853	keystroke_o	o	n/a
284.592	0.074	569184	keystroke_g	g	n/a
284.771	0.1055	569542	keystroke_e	e	n/a
284.8325	0.119	569665	keystroke_n	n	n/a
284.9365	0.12	569873	keystroke_Key.space	Key.space	n/a
285.0865	0.105	570173	keystroke_d	d	n/a
285.2815	0.0755	570563	keystroke_e	e	n/a
285.4625	0.1045	570925	keystroke_c	c	n/a
285.567	0.0745	571134	keystroke_l	l	n/a
285.702	0.075	571404	keystroke_a	a	n/a
285.896	0.0905	571792	keystroke_r	r	n/a
286.1065	0.0595	572213	keystroke_a	a	n/a
286.271	0.106	572542	keystroke_t	t	n/a
286.332	0.1055	572664	keystroke_i	i	n/a
286.362	0.1205	572724	keystroke_o	o	n/a
286.5275	0.0895	573055	keystroke_n	n	n/a
286.706	0.076	573412	keystroke_Key.enter	Key.enter	n/a
286.787	5.2015	573574	prompt	n/a	emirates translate spain prix\n
287.337	0.12	574674	keystroke_e	e	n/a
287.472	0.105	574944	keystroke_m	m	n/a
287.637	0.1055	575274	keystroke_i	i	n/a
287.907	0.105	575814	keystroke_r	r	n/a
288.102	0.0595	576204	keystroke_a	a	n/a
288.2965	0.06	576593	keystroke_t	t	n/a
288.4165	0.076	576833	keystroke_e	e	n/a
288.5665	0.0905	577133	keystroke_s	s	n/a
288.687	0.09	577374	keystroke_Key.space	Key.space	n/a
288.852	0.075	577704	keystroke_t	t	n/a
288.972	0.1045	577944	keystroke_r	r	n/a
289.2565	0.09	578513	keystroke_a	a	n/a
289.4515	0.1055	578903	keystroke_n	n	n/a
289.601	0.106	579202	keystroke_s	s	n/a
289.857	0.075	579714	keystroke_l	l	n/a
290.022	0.075	580044	keystroke_a	a	n/a
290.217	0.074	580434	keystroke_t	t	n/a
290.3365	0.121	580673	keystroke_e	e	n/a
290.4415	0.105	580883	keystroke_Key.space	Key.space	n/a
290.5315	0.1205	581063	keystroke_s	s	n/a
290.622	0.09	581244	keystroke_p	p	n/a
290.7565	0.09	581513	keystroke_a	a	n/a
290.802	0.075	581604	keystroke_i	i	n/a
290.937	0.135	581874	keystroke_n	n	n/a
291.087	0.074	582174	keystroke_Key.space	Key.space	n/a
291.312	0.09	582624	keystroke_p	p	n/a
291.447	0.075	582894	keystroke_r	r	n/a
291.612	0.09	583224	keystroke_i	i	n/a
291.747	0.12	583494	keystroke_x	x	n/a
291.867	0.12	583734	keystroke_Key.enter	Key.enter	n/a
291.993	5.4405	583986	prompt	n/a	helen accomplish one carry\n
292.632	0.105	585264	keystroke_h	h	n/a
292.6925	0.104	585385	keystroke_e	e	n/a
292.842	0.09	585684	keystroke_l	l	n/a
292.917	0.105	585834	keystroke_e	e	n/a
293.037	0.1195	586074	keystroke_n	n	n/a
293.142	0.0895	586284	keystroke_d	d	n/a
293.2765	0.075	586553	keystroke_Key.space	Key.space	n/a
293.5775	0.0595	587155	keystroke_o	o	n/a
293.846	0.09	587692	keystroke_Key.backspace	Key.backspace	n/a
294.042	0.045	588084	keystroke_Key.backspace	Key.backspace	n/a
294.206	0.0455	588412	keystroke_Key.backspace	Key.backspace	n/a
294.4315	0.09	588863	keystroke_Key.space	Key.space	n/a
294.5065	0.075	589013	keystroke_a	a	n/a
294.6715	0.09	589343	keystroke_c	c	n/a
294.8965	0.1055	589793	keystroke_c	c	n/a
294.987	0.105	589974	keystroke_o	o	n/a
295.152	0.1045	590304	keystroke_m	m	n/a
295.362	0.0895	590724	keystroke_p	p	n/a
295.5415	0.075	591083	keystroke_l	l	n/a
295.7065	0.105	591413	keystroke_i	i	n/a
295.8265	0.105	591653	keystroke_s	s	n/a
295.9015	0.1355	591803	keystroke_h	h	n/a
296.007	0.0895	592014	keystroke_Key.space	Key.space	n/a
296.142	0.09	592284	keystroke_o	o	n/a
296.307	0.135	592614	keystroke_n	n	n/a
296.382	0.105	592764	keystroke_e	e	n/a
296.502	0.12	593004	keystroke_Key.space	Key.space	n/a
296.637	0.06	593274	keystroke_c	c	n/a
296.817	0.045	593634	keystroke_a	a	n/a
296.967	0.09	593934	keystroke_r	r	n/a
297.117	0.105	594234	keystroke_r	r	n/a
297.162	0.0895	594324	keystroke_y	y	n/a
297.312	0.12	594624	keystroke_Key.enter	Key.enter	n/a
297.438	4.7955	594876	prompt	n/a	expenses stake tongue warranties\n
297.9865	0.1055	595973	keystroke_e	e	n/a
298.2115	0.09	596423	keystroke_x	x	n/a
298.287	0.1195	596574	keystroke_p	p	n/a
298.4215	0.0905	596843	keystroke_e	e	n/a
298.557	0.105	597114	keystroke_n	n	n/a
298.6465	0.09	597293	keystroke_s	s	n/a
298.797	0.1195	597594	keystroke_e	e	n/a
298.9765	0.1345	597953	keystroke_s	s	n/a
299.066	0.105	598132	keystroke_Key.space	Key.space	n/a
299.186	0.121	598372	keystroke_s	s	n/a
299.381	0.106	598762	keystroke_t	t	n/a
299.577	0.09	599154	keystroke_a	a	n/a
299.636	0.12	599272	keystroke_k	k	n/a
299.742	0.105	599484	keystroke_e	e	n/a
299.831	0.106	599662	keystroke_Key.space	Key.space	n/a
299.937	0.105	599874	keystroke_t	t	n/a
300.011	0.0905	600022	keystroke_o	o	n/a
300.147	0.105	600294	keystroke_n	n	n/a
300.192	0.1045	600384	keystroke_g	g	n/a
300.372	0.15	600744	keystroke_u	u	n/a
300.507	0.105	601014	keystroke_e	e	n/a
300.627	0.105	601254	keystroke_Key.space	Key.space	n/a
300.747	0.06	601494	keystroke_w	w	n/a
300.897	0.075	601794	keystroke_a	a	n/a
301.077	0.09	602154	keystroke_r	r	n/a
301.211	0.121	602422	keystroke_r	r	n/a
301.4065	0.105	602813	keystroke_a	a	n/a
301.497	0.1045	602994	keystroke_n	n	n/a
301.632	0.1045	603264	keystroke_t	t	n/a
301.752	0.1355	603504	keystroke_i	i	n/a
301.8575	0.0895	603715	keystroke_e	e	n/a
302.007	0.09	604014	keystroke_s	s	n/a
302.127	0.105	604254	keystroke_Key.enter	Key.enter	n/a
302.241	6.3085	604482	prompt	n/a	glad hampshire honest handles\n
302.952	0.09	605904	keystroke_g	g	n/a
303.072	0.1195	606144	keystroke_l	l	n/a
303.2065	0.0905	606413	keystroke_a	a	n/a
303.3865	0.076	606773	keystroke_d	d	n/a
303.4765	0.09	606953	keystroke_Key.space	Key.space	n/a
303.582	0.105	607164	keystroke_h	h	n/a
303.761	0.09	607522	keystroke_a	a	n/a
303.882	0.105	607764	keystroke_m	m	n/a
304.092	0.06	608184	keystroke_p	p	n/a
304.197	0.104	608394	keystroke_s	s	n/a
304.317	0.105	608634	keystroke_h	h	n/a
304.452	0.1045	608904	keystroke_i	i	n/a
304.542	0.09	609084	keystroke_e	e	n/a
304.7065	0.1055	609413	keystroke_Key.space	Key.space	n/a
304.9025	0.0595	609805	keystroke_h	h	n/a
305.112	0.045	610224	keystroke_o	o	n/a
305.607	0.075	611214	keystroke_Key.backspace	Key.backspace	n/a
305.787	0.0595	611574	keystroke_Key.backspace	Key.backspace	n/a
305.952	0.075	611904	keystroke_Key.backspace	Key.backspace	n/a
306.132	0.074	612264	keystroke_Key.backspace	Key.backspace	n/a
306.192	0.105	612384	keystroke_r	r	n/a
306.3265	0.12	612653	keystroke_e	e	n/a
306.417	0.1345	612834	keystroke_Key.space	Key.space	n/a
306.6715	0.075	613343	keystroke_h	h	n/a
306.8225	0.089	613645	keystroke_o	o	n/a
306.9865	0.0905	613973	keystroke_n	n	n/a
307.0915	0.1055	614183	keystroke_e	e	n/a
307.2715	0.0755	614543	keystroke_s	s	n/a
307.452	0.09	614904	keystroke_t	t	n/a
307.4965	0.09	614993	keystroke_Key.space	Key.space	n/a
307.602	0.0905	615204	keystroke_h	h	n/a
307.7215	0.0905	615443	keystroke_a	a	n/a
307.7965	0.105	615593	keystroke_n	n	n/a
307.9165	0.105	615833	keystroke_d	d	n/a
308.0665	0.105	616133	keystroke_l	l	n/a
308.1565	0.105	616313	keystroke_e	e	n/a
308.3215	0.121	616643	keystroke_s	s	n/a
308.4565	0.091	616913	keystroke_Key.enter	Key.enter	n/a
308.554	5.2895	617108	prompt	n/a	inherited stream cathedral vocal\n
309.1475	0.104	618295	keystroke_i	i	n/a
309.3115	0.105	618623	keystroke_n	n	n/a
309.5065	0.105	619013	keystroke_h	h	n/a
309.687	0.1045	619374	keystroke_e	e	n/a
309.8215	0.105	619643	keystroke_r	r	n/a
309.9565	0.136	619913	keystroke_i	i	n/a
310.0765	0.106	620153	keystroke_t	t	n/a
310.302	0.0905	620604	keystroke_e	e	n/a
310.4815	0.1205	620963	keystroke_d	d	n/a
310.5865	0.1205	621173	keystroke_Key.space	Key.space	n/a
310.722	0.0595	621444	keystroke_s	s	n/a
310.9165	0.075	621833	keystroke_t	t	n/a
311.0215	0.1205	622043	keystroke_r	r	n/a
311.232	0.09	622464	keystroke_e	e	n/a
311.382	0.105	622764	keystroke_a	a	n/a
311.442	0.165	622884	keystroke_m	m	n/a
311.592	0.135	623184	keystroke_Key.space	Key.space	n/a
311.667	0.075	623334	keystroke_c	c	n/a
311.832	0.075	623664	keystroke_a	a	n/a
312.027	0.09	624054	keystroke_t	t	n/a
312.132	0.09	624264	keystroke_h	h	n/a
312.192	0.1045	624384	keystroke_e	e	n/a
312.432	0.075	624864	keystroke_d	d	n/a
312.612	0.075	625224	keystroke_r	r	n/a
312.7915	0.106	625583	keystroke_a	a	n/a
312.852	0.1195	625704	keystroke_l	l	n/a
312.9865	0.1355	625973	keystroke_Key.space	Key.space	n/a
313.1365	0.06	626273	keystroke_v	v	n/a
313.2265	0.09	626453	keystroke_o	o	n/a
313.3765	0.075	626753	keystroke_c	c	n/a
313.557	0.09	627114	keystroke_a	a	n/a
313.6015	0.1055	627203	keystroke_l	l	n/a
313.752	0.0895	627504	keystroke_Key.enter	Key.enter	n/a
313.8485	6.2505	627697	prompt	n/a	respected latinas we've polo\n
314.472	0.105	628944	keystroke_r	r	n/a
314.622	0.09	629244	keystroke_e	e	n/a
314.802	0.105	629604	keystroke_s	s	n/a
314.8925	0.1045	629785	keystroke_p	p	n/a
314.9825	0.1045	629965	keystroke_e	e	n/a
315.192	0.06	630384	keystroke_c	c	n/a
315.4015	0.0905	630803	keystroke_t	t	n/a
315.5665	0.0905	631133	keystroke_e	e	n/a
315.7175	0.104	631435	keystroke_d	d	n/a
315.7915	0.105	631583	keystroke_Key.space	Key.space	n/a
315.942	0.1195	631884	keystroke_l	l	n/a
316.032	0.075	632064	keystroke_a	a	n/a
316.227	0.0905	632454	keystroke_t	t	n/a
316.3015	0.0905	632603	keystroke_i	i	n/a
316.4525	0.135	632905	keystroke_n	n	n/a
316.5575	0.089	633115	keystroke_a	a	n/a
316.7065	0.1205	633413	keystroke_s	s	n/a
316.842	0.09	633684	keystroke_Key.space	Key.space	n/a
317.337	0.09	634674	keystroke_w	w	n/a
317.487	0.09	634974	keystroke_e	e	n/a
317.592	0.09	635184	keystroke_v	v	n/a
318.057	0.0895	636114	keystroke_Key.backspace	Key.backspace	n/a
318.5815	0.09	637163	keystroke_'	'	n/a
318.657	0.075	637314	keystroke_v	v	n/a
318.8215	0.12	637643	keystroke_e	e	n/a
318.882	0.1345	637764	keystroke_Key.space	Key.space	n/a
319.0915	0.1055	638183	keystroke_p	p	n/a
319.6615	0.045	639323	keystroke_o	o	n/a
319.7225	0.06	639445	keystroke_l	l	n/a
319.8565	0.0905	639713	keystroke_o	o	n/a
320.0215	0.075	640043	keystroke_Key.enter	Key.enter	n/a
320.1085	4.3415	640217	prompt	n/a	understand meal and model\n
320.6665	0.0905	641333	keystroke_u	u	n/a
320.847	0.15	641694	keystroke_n	n	n/a
320.922	0.09	641844	keystroke_d	d	n/a
321.117	0.105	642234	keystroke_e	e	n/a
321.237	0.075	642474	keystroke_r	r	n/a
321.387	0.09	642774	keystroke_s	s	n/a
321.582	0.075	643164	keystroke_t	t	n/a
321.777	0.12	643554	keystroke_a	a	n/a
321.852	0.135	643704	keystroke_n	n	n/a
321.9875	0.0895	643975	keystroke_d	d	n/a
322.092	0.105	644184	keystroke_Key.space	Key.space	n/a
322.2125	0.135	644425	keystroke_m	m	n/a
322.302	0.09	644604	keystroke_e	e	n/a
322.467	0.105	644934	keystroke_a	a	n/a
322.542	0.12	645084	keystroke_l	l	n/a
322.692	0.105	645384	keystroke_Key.space	Key.space	n/a
322.812	0.09	645624	keystroke_a	a	n/a
322.872	0.15	645744	keystroke_n	n	n/a
322.977	0.12	645954	keystroke_d	d	n/a
323.127	0.12	646254	keystroke_Key.space	Key.space	n/a
323.2475	0.105	646495	keystroke_m	m	n/a
323.4415	0.18	646883	keystroke_o	o	n/a
323.5165	0.09	647033	keystroke_d	d	n/a
323.7125	0.089	647425	keystroke_e	e	n/a
323.772	0.1195	647544	keystroke_l	l	n/a
324.372	0.0745	648744	keystroke_Key.enter	Key.enter	n/a
324.454	5.409	648908	prompt	n/a	genuine chubby mature violation\n
325.0915	0.0905	650183	keystroke_g	g	n/a
325.257	0.105	650514	keystroke_e	e	n/a
325.332	0.075	650664	keystroke_n	n	n/a
325.5425	0.165	651085	keystroke_u	u	n/a
325.6775	0.104	651355	keystroke_i	i	n/a
325.8565	0.12	651713	keystroke_n	n	n/a
325.932	0.0755	651864	keystroke_e	e	n/a
326.2925	0.0895	652585	keystroke_Key.space	Key.space	n/a
326.412	0.12	652824	keystroke_c	c	n/a
326.5025	0.1195	653005	keystroke_h	h	n/a
326.667	0.045	653334	keystroke_u	u	n/a
326.787	0.075	653574	keystroke_b	b	n/a
326.922	0.12	653844	keystroke_b	b	n/a
327.027	0.105	654054	keystroke_y	y	n/a
327.161	0.091	654322	keystroke_Key.space	Key.space	n/a
327.5065	0.0455	655013	keystroke_m	m	n/a
327.537	0.0895	655074	keystroke_a	a	n/a
327.8225	0.09	655645	keystroke_t	t	n/a
327.927	0.1055	655854	keystroke_u	u	n/a
328.0025	0.09	656005	keystroke_r	r	n/a
328.2115	0.1355	656423	keystroke_e	e	n/a
328.3765	0.1055	656753	keystroke_Key.space	Key.space	n/a
328.542	0.1345	657084	keystroke_v	v	n/a
328.632	0.1505	657264	keystroke_i	i	n/a
328.737	0.0895	657474	keystroke_o	o	n/a
328.9315	0.106	657863	keystroke_l	l	n/a
329.007	0.075	658014	keystroke_a	a	n/a
329.187	0.105	658374	keystroke_t	t	n/a
329.3065	0.151	658613	keystroke_i	i	n/a
329.3665	0.121	658733	keystroke_o	o	n/a
329.5765	0.105	659153	keystroke_n	n	n/a
329.727	0.135	659454	keystroke_Key.enter	Key.enter	n/a
329.8665	5.2775	659733	prompt	n/a	candidate novel spoke freely\n
330.4765	0.0455	660953	keystroke_c	c	n/a
330.5965	0.121	661193	keystroke_a	a	n/a
330.672	0.1045	661344	keystroke_n	n	n/a
330.7915	0.106	661583	keystroke_d	d	n/a
330.912	0.0755	661824	keystroke_i	i	n/a
331.0025	0.09	662005	keystroke_d	d	n/a
331.1515	0.09	662303	keystroke_a	a	n/a
331.3775	0.0745	662755	keystroke_t	t	n/a
331.527	0.1055	663054	keystroke_e	e	n/a
331.647	0.105	663294	keystroke_Key.space	Key.space	n/a
331.797	0.0745	663594	keystroke_n	n	n/a
331.9615	0.09	663923	keystroke_o	o	n/a
332.037	0.0905	664074	keystroke_v	v	n/a
332.2015	0.1205	664403	keystroke_e	e	n/a
332.292	0.1195	664584	keystroke_l	l	n/a
332.4265	0.09	664853	keystroke_Key.space	Key.space	n/a
332.5175	0.105	665035	keystroke_s	s	n/a
332.6225	0.1195	665245	keystroke_p	p	n/a
332.6965	0.0905	665393	keystroke_o	o	n/a
332.8615	0.075	665723	keystroke_j	j	n/a
333.282	0.0595	666564	keystroke_Key.backspace	Key.backspace	n/a
333.432	0.135	666864	keystroke_k	k	n/a
333.552	0.104	667104	keystroke_e	e	n/a
333.671	0.136	667342	keystroke_Key.space	Key.space	n/a
333.822	0.045	667644	keystroke_r	r	n/a
334.136	0.09	668272	keystroke_Key.backspace	Key.backspace	n/a
334.2565	0.136	668513	keystroke_f	f	n/a
334.4065	0.1055	668813	keystroke_r	r	n/a
334.602	0.075	669204	keystroke_e	e	n/a
334.737	0.1205	669474	keystroke_e	e	n/a
334.842	0.105	669684	keystroke_l	l	n/a
334.948	0.119	669896	keystroke_y	y	n/a
335.052	0.09	670104	keystroke_Key.enter	Key.enter	n/a
335.149	7.0445	670298	prompt	n/a	ward managed petersburg identify\n
335.8325	0.15	671665	keystroke_w	w	n/a
336.057	0.075	672114	keystroke_a	a	n/a
336.2225	0.089	672445	keystroke_r	r	n/a
336.4015	0.1205	672803	keystroke_d	d	n/a
336.492	0.09	672984	keystroke_Key.space	Key.space	n/a
336.613	0.119	673226	keystroke_m	m	n/a
336.702	0.09	673404	keystroke_a	a	n/a
336.837	0.165	673674	keystroke_n	n	n/a
336.912	0.06	673824	keystroke_a	a	n/a
337.032	0.12	674064	keystroke_g	g	n/a
337.242	0.089	674484	keystroke_e	e	n/a
337.3925	0.1195	674785	keystroke_d	d	n/a
337.4665	0.1055	674933	keystroke_Key.space	Key.space	n/a
337.601	0.136	675202	keystroke_p	p	n/a
337.722	0.105	675444	keystroke_e	e	n/a
337.842	0.135	675684	keystroke_r	r	n/a
338.5915	0.12	677183	keystroke_Key.backspace	Key.backspace	n/a
338.6965	0.1055	677393	keystroke_t	t	n/a
338.8765	0.12	677753	keystroke_e	e	n/a
339.0125	0.119	678025	keystroke_r	r	n/a
339.327	0.12	678654	keystroke_s	s	n/a
339.4615	0.12	678923	keystroke_b	b	n/a
339.672	0.09	679344	keystroke_u	u	n/a
339.763	0.089	679526	keystroke_r	r	n/a
339.956	0.1065	679912	keystroke_g	g	n/a
340.0765	0.0595	680153	keystroke_Key.space	Key.space	n/a
340.152	0.12	680304	keystroke_i	i	n/a
340.7075	0.0745	681415	keystroke_d	d	n/a
340.9165	0.135	681833	keystroke_e	e	n/a
341.082	0.075	682164	keystroke_n	n	n/a
341.2315	0.121	682463	keystroke_t	t	n/a
341.397	0.105	682794	keystroke_i	i	n/a
341.8015	0.1355	683603	keystroke_f	f	n/a
341.8915	0.0905	683783	keystroke_y	y	n/a
342.0865	0.1055	684173	keystroke_Key.enter	Key.enter	n/a
342.199	5.081	684398	prompt	n/a	allows positioning bringing rent\n
342.792	0.135	685584	keystroke_a	a	n/a
342.882	0.1045	685764	keystroke_l	l	n/a
343.062	0.135	686124	keystroke_l	l	n/a
343.272	0.1655	686544	keystroke_o	o	n/a
343.362	0.1055	686724	keystroke_w	w	n/a
343.5265	0.1055	687053	keystroke_s	s	n/a
343.601	0.136	687202	keystroke_Key.space	Key.space	n/a
343.7525	0.21	687505	keystroke_p	p	n/a
343.917	0.105	687834	keystroke_o	o	n/a
344.0825	0.104	688165	keystroke_s	s	n/a
344.232	0.1045	688464	keystroke_i	i	n/a
344.3525	0.149	688705	keystroke_t	t	n/a
344.457	0.1805	688914	keystroke_i	i	n/a
344.5465	0.135	689093	keystroke_o	o	n/a
344.7565	0.1205	689513	keystroke_n	n	n/a
344.922	0.0895	689844	keystroke_i	i	n/a
345.0565	0.12	690113	keystroke_n	n	n/a
345.1615	0.0905	690323	keystroke_g	g	n/a
345.2665	0.105	690533	keystroke_Key.space	Key.space	n/a
345.3565	0.0905	690713	keystroke_b	b	n/a
345.5815	0.12	691163	keystroke_r	r	n/a
345.8215	0.091	691643	keystroke_i	i	n/a
346.017	0.09	692034	keystroke_n	n	n/a
346.137	0.1195	692274	keystroke_g	g	n/a
346.2575	0.104	692515	keystroke_i	i	n/a
346.4065	0.12	692813	keystroke_n	n	n/a
346.5125	0.074	693025	keystroke_g	g	n/a
346.602	0.12	693204	keystroke_Key.space	Key.space	n/a
346.737	0.1045	693474	keystroke_r	r	n/a
346.857	0.135	693714	keystroke_e	e	n/a
346.9615	0.121	693923	keystroke_n	n	n/a
347.0825	0.09	694165	keystroke_t	t	n/a
347.1725	0.104	694345	keystroke_Key.enter	Key.enter	n/a
347.2845	5.9355	694569	prompt	n/a	feat attach characterized brick\n
347.907	0.1045	695814	keystroke_f	f	n/a
348.087	0.1045	696174	keystroke_e	e	n/a
348.2965	0.091	696593	keystroke_a	a	n/a
348.5075	0.105	697015	keystroke_t	t	n/a
348.582	0.1645	697164	keystroke_Key.space	Key.space	n/a
348.732	0.0905	697464	keystroke_a	a	n/a
348.972	0.0755	697944	keystroke_t	t	n/a
349.1215	0.091	698243	keystroke_t	t	n/a
349.3175	0.0895	698635	keystroke_a	a	n/a
349.4975	0.0895	698995	keystroke_c	c	n/a
349.527	0.1355	699054	keystroke_h	h	n/a
349.647	0.15	699294	keystroke_Key.space	Key.space	n/a
349.722	0.075	699444	keystroke_c	c	n/a
349.842	0.1205	699684	keystroke_h	h	n/a
349.932	0.0895	699864	keystroke_a	a	n/a
350.112	0.09	700224	keystroke_r	r	n/a
350.2765	0.0905	700553	keystroke_a	a	n/a
350.442	0.1205	700884	keystroke_c	c	n/a
350.532	0.1195	701064	keystroke_t	t	n/a
350.6815	0.09	701363	keystroke_e	e	n/a
350.8315	0.0905	701663	keystroke_r	r	n/a
350.967	0.12	701934	keystroke_i	i	n/a
351.1625	0.0895	702325	keystroke_z	z	n/a
351.357	0.105	702714	keystroke_e	e	n/a
351.552	0.075	703104	keystroke_d	d	n/a
351.6415	0.0905	703283	keystroke_Key.space	Key.space	n/a
351.7465	0.091	703493	keystroke_b	b	n/a
352.167	0.105	704334	keystroke_r	r	n/a
352.437	0.12	704874	keystroke_i	i	n/a
352.827	0.104	705654	keystroke_c	c	n/a
352.9475	0.1185	705895	keystroke_k	k	n/a
353.127	0.09	706254	keystroke_Key.enter	Key.enter	n/a
353.232	4.1865	706464	prompt	n/a	nose odds late snow\n
353.862	0.075	707724	keystroke_n	n	n/a
354.0115	0.12	708023	keystroke_o	o	n/a
354.1015	0.06	708203	keystroke_s	s	n/a
354.2365	0.105	708473	keystroke_e	e	n/a
354.3115	0.075	708623	keystroke_Key.space	Key.space	n/a
354.3875	0.0895	708775	keystroke_o	o	n/a
354.492	0.075	708984	keystroke_f	f	n/a
354.6575	0.1045	709315	keystroke_f	f	n/a
354.837	0.105	709674	keystroke_s	s	n/a
355.182	0.105	710364	keystroke_Key.backspace	Key.backspace	n/a
355.4065	0.0455	710813	keystroke_Key.backspace	Key.backspace	n/a
355.542	0.105	711084	keystroke_Key.backspace	Key.backspace	n/a
355.617	0.105	711234	keystroke_d	d	n/a
355.8425	0.1045	711685	keystroke_d	d	n/a
356.007	0.12	712014	keystroke_s	s	n/a
356.142	0.135	712284	keystroke_Key.space	Key.space	n/a
356.2325	0.135	712465	keystroke_l	l	n/a
356.3515	0.0755	712703	keystroke_a	a	n/a
356.547	0.075	713094	keystroke_t	t	n/a
356.682	0.105	713364	keystroke_e	e	n/a
356.757	0.09	713514	keystroke_Key.space	Key.space	n/a
356.892	0.075	713784	keystroke_s	s	n/a
356.937	0.075	713874	keystroke_n	n	n/a
357.087	0.1645	714174	keystroke_o	o	n/a
357.1915	0.105	714383	keystroke_w	w	n/a
357.312	0.104	714624	keystroke_Key.enter	Key.enter	n/a
357.424	7.089	714848	prompt	n/a	petersburg extension combines texture\n
358.0915	0.1055	716183	keystroke_p	p	n/a
358.1365	0.12	716273	keystroke_e	e	n/a
358.5265	0.046	717053	keystroke_r	r	n/a
358.8865	0.0605	717773	keystroke_Key.backspace	Key.backspace	n/a
358.9315	0.045	717863	keystroke_t	t	n/a
359.052	0.0905	718104	keystroke_e	e	n/a
359.1715	0.12	718343	keystroke_r	r	n/a
359.4415	0.12	718883	keystroke_s	s	n/a
359.547	0.0895	719094	keystroke_b	b	n/a
359.757	0.0145	719514	keystroke_u	u	n/a
359.7865	0.0905	719573	keystroke_r	r	n/a
360.1615	0.075	720323	keystroke_g	g	n/a
360.3715	0.1055	720743	keystroke_Key.space	Key.space	n/a
360.582	0.1195	721164	keystroke_e	e	n/a
360.8225	0.1195	721645	keystroke_x	x	n/a
361.0915	0.075	722183	keystroke_t	t	n/a
361.242	0.1055	722484	keystroke_e	e	n/a
361.3175	0.09	722635	keystroke_n	n	n/a
361.4665	0.1055	722933	keystroke_s	s	n/a
361.5875	0.179	723175	keystroke_i	i	n/a
361.692	0.0895	723384	keystroke_o	o	n/a
361.8865	0.1355	723773	keystroke_n	n	n/a
362.022	0.1195	724044	keystroke_Key.space	Key.space	n/a
362.0815	0.135	724163	keystroke_c	c	n/a
362.2465	0.0755	724493	keystroke_o	o	n/a
362.3965	0.0905	724793	keystroke_m	m	n/a
362.592	0.075	725184	keystroke_b	b	n/a
362.742	0.09	725484	keystroke_i	i	n/a
362.892	0.12	725784	keystroke_n	n	n/a
362.967	0.105	725934	keystroke_e	e	n/a
363.132	0.105	726264	keystroke_s	s	n/a
363.222	0.135	726444	keystroke_Key.space	Key.space	n/a
363.342	0.075	726684	keystroke_t	t	n/a
363.4915	0.09	726983	keystroke_e	e	n/a
363.7165	0.12	727433	keystroke_x	x	n/a
363.9715	0.09	727943	keystroke_t	t	n/a
364.0765	0.105	728153	keystroke_u	u	n/a
364.1215	0.105	728243	keystroke_r	r	n/a
364.3165	0.12	728633	keystroke_e	e	n/a
364.4215	0.09	728843	keystroke_Key.enter	Key.enter	n/a
364.516	5.758	729032	prompt	n/a	ability producers pdas cars\n
365.0675	0.104	730135	keystroke_a	a	n/a
365.1415	0.0905	730283	keystroke_b	b	n/a
365.3065	0.105	730613	keystroke_i	i	n/a
365.502	0.0905	731004	keystroke_l	l	n/a
365.6515	0.135	731303	keystroke_i	i	n/a
365.7265	0.06	731453	keystroke_t	t	n/a
365.862	0.1055	731724	keystroke_y	y	n/a
365.937	0.089	731874	keystroke_Key.space	Key.space	n/a
366.041	0.1505	732082	keystroke_p	p	n/a
366.177	0.104	732354	keystroke_r	r	n/a
366.2515	0.121	732503	keystroke_o	o	n/a
366.4165	0.0905	732833	keystroke_d	d	n/a
366.5215	0.1055	733043	keystroke_u	u	n/a
366.6415	0.0605	733283	keystroke_c	c	n/a
366.8215	0.0905	733643	keystroke_e	e	n/a
367.242	0.09	734484	keystroke_r	r	n/a
367.437	0.105	734874	keystroke_s	s	n/a
367.496	0.105	734992	keystroke_Key.space	Key.space	n/a
367.647	0.105	735294	keystroke_p	p	n/a
367.842	0.105	735684	keystroke_d	d	n/a
368.052	0.134	736104	keystroke_a	a	n/a
368.172	0.1055	736344	keystroke_s	s	n/a
368.322	0.12	736644	keystroke_Key.space	Key.space	n/a
368.4715	0.0905	736943	keystroke_c	c	n/a
368.667	0.0755	737334	keystroke_a	a	n/a
368.922	0.0155	737844	keystroke_r	r	n/a
369.057	0.045	738114	keystroke_d	d	n/a
369.672	0.06	739344	keystroke_Key.backspace	Key.backspace	n/a
369.717	0.03	739434	keystroke_s	s	n/a
370.1815	0.0905	740363	keystroke_Key.enter	Key.enter	n/a
370.2815	6.0535	740563	prompt	n/a	leeds financing investigated thinkpad\n
370.887	0.135	741774	keystroke_l	l	n/a
370.962	0.105	741924	keystroke_e	e	n/a
371.142	0.105	742284	keystroke_e	e	n/a
371.322	0.105	742644	keystroke_d	d	n/a
371.442	0.12	742884	keystroke_s	s	n/a
371.532	0.12	743064	keystroke_Key.space	Key.space	n/a
371.697	0.12	743394	keystroke_f	f	n/a
371.757	0.09	743514	keystroke_i	i	n/a
371.937	0.075	743874	keystroke_n	n	n/a
372.027	0.09	744054	keystroke_a	a	n/a
372.102	0.09	744204	keystroke_n	n	n/a
372.207	0.105	744414	keystroke_c	c	n/a
372.282	0.09	744564	keystroke_i	i	n/a
372.447	0.12	744894	keystroke_n	n	n/a
372.5515	0.105	745103	keystroke_g	g	n/a
372.6415	0.105	745283	keystroke_Key.space	Key.space	n/a
372.8965	0.06	745793	keystroke_i	i	n/a
373.0615	0.135	746123	keystroke_n	n	n/a
373.1815	0.09	746363	keystroke_v	v	n/a
373.3915	0.09	746783	keystroke_e	e	n/a
373.557	0.0595	747114	keystroke_s	s	n/a
373.722	0.1045	747444	keystroke_t	t	n/a
373.7965	0.105	747593	keystroke_i	i	n/a
373.9615	0.0605	747923	keystroke_g	g	n/a
374.172	0.045	748344	keystroke_a	a	n/a
374.367	0.0595	748734	keystroke_t	t	n/a
374.6365	0.0905	749273	keystroke_e	e	n/a
374.847	0.0595	749694	keystroke_d	d	n/a
374.9515	0.09	749903	keystroke_Key.space	Key.space	n/a
375.0575	0.1045	750115	keystroke_t	t	n/a
375.147	0.119	750294	keystroke_h	h	n/a
375.281	0.076	750562	keystroke_i	i	n/a
375.4165	0.135	750833	keystroke_n	n	n/a
375.6415	0.09	751283	keystroke_k	k	n/a
375.836	0.135	751672	keystroke_p	p	n/a
375.911	0.09	751822	keystroke_a	a	n/a
376.062	0.1045	752124	keystroke_d	d	n/a
376.211	0.1205	752422	keystroke_Key.enter	Key.enter	n/a
376.3395	6.624	752679	prompt	n/a	print shelter exhibition interests\n
377.1415	0.121	754283	keystroke_p	p	n/a
377.2315	0.12	754463	keystroke_r	r	n/a
377.3215	0.09	754643	keystroke_i	i	n/a
377.502	0.1345	755004	keystroke_n	n	n/a
377.592	0.0905	755184	keystroke_t	t	n/a
377.712	0.119	755424	keystroke_Key.space	Key.space	n/a
377.817	0.119	755634	keystroke_s	s	n/a
377.892	0.09	755784	keystroke_h	h	n/a
378.312	0.06	756624	keystroke_Key.backspace	Key.backspace	n/a
378.7315	0.0755	757463	keystroke_h	h	n/a
378.837	0.1495	757674	keystroke_e	e	n/a
378.9715	0.1205	757943	keystroke_l	l	n/a
379.1065	0.105	758213	keystroke_t	t	n/a
379.3015	0.1205	758603	keystroke_e	e	n/a
379.437	0.1195	758874	keystroke_r	r	n/a
379.5415	0.12	759083	keystroke_Key.space	Key.space	n/a
379.6765	0.1055	759353	keystroke_e	e	n/a
379.902	0.1345	759804	keystroke_x	x	n/a
380.022	0.105	760044	keystroke_h	h	n/a
380.1865	0.106	760373	keystroke_i	i	n/a
380.517	0.075	761034	keystroke_b	b	n/a
380.697	0.119	761394	keystroke_i	i	n/a
380.772	0.15	761544	keystroke_t	t	n/a
380.907	0.1195	761814	keystroke_i	i	n/a
380.937	0.1195	761874	keystroke_o	o	n/a
381.102	0.1345	762204	keystroke_n	n	n/a
381.2215	0.1505	762443	keystroke_Key.space	Key.space	n/a
381.4765	0.075	762953	keystroke_i	i	n/a
381.7015	0.12	763403	keystroke_n	n	n/a
381.777	0.12	763554	keystroke_t	t	n/a
381.957	0.09	763914	keystroke_e	e	n/a
382.0765	0.12	764153	keystroke_r	r	n/a
382.2115	0.1505	764423	keystroke_e	e	n/a
382.4215	0.105	764843	keystroke_s	s	n/a
382.6015	0.105	765203	keystroke_t	t	n/a
382.7815	0.12	765563	keystroke_s	s	n/a
382.887	0.0745	765774	keystroke_Key.enter	Key.enter	n/a
382.968	5.651	765936	prompt	n/a	speech biodiversity foster taxation\n
383.5765	0.105	767153	keystroke_s	s	n/a
383.697	0.1045	767394	keystroke_p	p	n/a
383.787	0.105	767574	keystroke_e	e	n/a
383.9515	0.0905	767903	keystroke_e	e	n/a
384.147	0.135	768294	keystroke_c	c	n/a
384.2065	0.1505	768413	keystroke_h	h	n/a
384.372	0.1195	768744	keystroke_Key.space	Key.space	n/a
384.5065	0.09	769013	keystroke_b	b	n/a
384.717	0.195	769434	keystroke_i	i	n/a
384.8665	0.1355	769733	keystroke_o	o	n/a
385.017	0.1195	770034	keystroke_d	d	n/a
385.152	0.1345	770304	keystroke_i	i	n/a
385.2875	0.089	770575	keystroke_v	v	n/a
385.4515	0.1355	770903	keystroke_e	e	n/a
385.602	0.1045	771204	keystroke_r	r	n/a
385.767	0.15	771534	keystroke_s	s	n/a
385.8715	0.09	771743	keystroke_i	i	n/a
385.9915	0.105	771983	keystroke_t	t	n/a
386.0815	0.12	772163	keystroke_y	y	n/a
386.1565	0.1205	772313	keystroke_Key.space	Key.space	n/a
386.322	0.12	772644	keystroke_f	f	n/a
386.412	0.15	772824	keystroke_o	o	n/a
386.667	0.075	773334	keystroke_s	s	n/a
386.832	0.09	773664	keystroke_t	t	n/a
387.012	0.075	774024	keystroke_e	e	n/a
387.087	0.12	774174	keystroke_r	r	n/a
387.177	0.135	774354	keystroke_Key.space	Key.space	n/a
387.327	0.105	774654	keystroke_t	t	n/a
387.5365	0.075	775073	keystroke_a	a	n/a
387.687	0.119	775374	keystroke_x	x	n/a
387.882	0.0755	775764	keystroke_a	a	n/a
388.0475	0.105	776095	keystroke_t	t	n/a
388.1365	0.12	776273	keystroke_i	i	n/a
388.197	0.1195	776394	keystroke_o	o	n/a
388.3325	0.119	776665	keystroke_n	n	n/a
388.4815	0.135	776963	keystroke_Key.enter	Key.enter	n/a
388.6235	8.05	777247	prompt	n/a	welfare collaboration patch rooms\n
389.217	0.089	778434	keystroke_w	w	n/a
389.337	0.12	778674	keystroke_e	e	n/a
389.442	0.1195	778884	keystroke_l	l	n/a
390.012	0.015	780024	keystroke_g	g	n/a
390.057	0.105	780114	keystroke_a	a	n/a
390.252	0.075	780504	keystroke_r	r	n/a
390.3565	0.1205	780713	keystroke_e	e	n/a
390.7315	0.105	781463	keystroke_Key.backspace	Key.backspace	n/a
390.9265	0.06	781853	keystroke_Key.backspace	Key.backspace	n/a
391.0915	0.045	782183	keystroke_Key.backspace	Key.backspace	n/a
391.2415	0.075	782483	keystroke_Key.backspace	Key.backspace	n/a
391.3765	0.135	782753	keystroke_f	f	n/a
391.6915	0.09	783383	keystroke_e	e	n/a
392.2915	0.106	784583	keystroke_Key.backspace	Key.backspace	n/a
392.3675	0.074	784735	keystroke_a	a	n/a
392.5315	0.09	785063	keystroke_r	r	n/a
392.6825	0.1045	785365	keystroke_e	e	n/a
392.802	0.105	785604	keystroke_Key.space	Key.space	n/a
392.9825	0.1045	785965	keystroke_c	c	n/a
393.0715	0.091	786143	keystroke_o	o	n/a
393.297	0.03	786594	keystroke_l	l	n/a
393.402	0.1205	786804	keystroke_l	l	n/a
393.582	0.075	787164	keystroke_a	a	n/a
393.777	0.09	787554	keystroke_b	b	n/a
394.0015	0.075	788003	keystroke_o	o	n/a
394.1065	0.105	788213	keystroke_r	r	n/a
394.332	0.075	788664	keystroke_a	a	n/a
394.5265	0.105	789053	keystroke_t	t	n/a
394.5725	0.1345	789145	keystroke_i	i	n/a
394.6165	0.105	789233	keystroke_o	o	n/a
394.8425	0.1045	789685	keystroke_n	n	n/a
394.9615	0.105	789923	keystroke_Key.space	Key.space	n/a
395.1275	0.09	790255	keystroke_p	p	n/a
395.1565	0.0755	790313	keystroke_a	a	n/a
395.3365	0.09	790673	keystroke_t	t	n/a
395.5315	0.1055	791063	keystroke_c	c	n/a
395.577	0.1345	791154	keystroke_h	h	n/a
395.697	0.1045	791394	keystroke_Key.space	Key.space	n/a
395.8175	0.0895	791635	keystroke_r	r	n/a
395.952	0.105	791904	keystroke_o	o	n/a
396.161	0.0915	792322	keystroke_o	o	n/a
396.342	0.135	792684	keystroke_m	m	n/a
396.4615	0.105	792923	keystroke_s	s	n/a
396.5815	0.09	793163	keystroke_Key.enter	Key.enter	n/a
396.6785	4.2705	793357	prompt	n/a	pharmacy hosts bones speech\n
397.227	0.09	794454	keystroke_p	p	n/a
397.392	0.12	794784	keystroke_h	h	n/a
397.482	0.075	794964	keystroke_a	a	n/a
397.617	0.09	795234	keystroke_r	r	n/a
397.692	0.105	795384	keystroke_m	m	n/a
397.8125	0.105	795625	keystroke_a	a	n/a
397.9925	0.1045	795985	keystroke_c	c	n/a
398.052	0.135	796104	keystroke_y	y	n/a
398.157	0.135	796314	keystroke_Key.space	Key.space	n/a
398.4565	0.09	796913	keystroke_h	h	n/a
398.651	0.1055	797302	keystroke_o	o	n/a
398.742	0.0895	797484	keystroke_s	s	n/a
398.952	0.105	797904	keystroke_t	t	n/a
399.147	0.0755	798294	keystroke_s	s	n/a
399.207	0.105	798414	keystroke_Key.space	Key.space	n/a
399.297	0.09	798594	keystroke_b	b	n/a
399.462	0.06	798924	keystroke_o	o	n/a
399.642	0.09	799284	keystroke_n	n	n/a
399.672	0.09	799344	keystroke_e	e	n/a
399.837	0.105	799674	keystroke_s	s	n/a
399.912	0.1195	799824	keystroke_Key.space	Key.space	n/a
400.062	0.105	800124	keystroke_s	s	n/a
400.1525	0.089	800305	keystroke_p	p	n/a
400.2565	0.1055	800513	keystroke_e	e	n/a
400.4365	0.075	800873	keystroke_e	e	n/a
400.6465	0.105	801293	keystroke_c	c	n/a
400.692	0.0895	801384	keystroke_h	h	n/a
400.842	0.1045	801684	keystroke_Key.enter	Key.enter	n/a
400.9555	5.6175	801911	prompt	n/a	commonwealth literature camera from\n
401.637	0.1045	803274	keystroke_c	c	n/a
401.6975	0.0745	803395	keystroke_o	o	n/a
401.8765	0.0455	803753	keystroke_m	m	n/a
402.012	0.0745	804024	keystroke_m	m	n/a
