onset	duration	sample	value	key	prompt_text
14.148	14.3635	28296	prompt	n/a	the quick brown fox jumps over a lazy dog\n
15.3095	0	30619	keystroke_t	t	n/a
15.3515	0.09	30703	keystroke_h	h	n/a
15.5325	0.105	31065	keystroke_e	e	n/a
15.9365	0.075	31873	keystroke_Key.space	Key.space	n/a
16.5665	0.091	33133	keystroke_q	q	n/a
16.6725	0.075	33345	keystroke_u	u	n/a
16.8675	0.06	33735	keystroke_i	i	n/a
17.0475	0.06	34095	keystroke_c	c	n/a
17.1525	0.06	34305	keystroke_k	k	n/a
17.5265	0.151	35053	keystroke_Key.space	Key.space	n/a
18.0825	0.075	36165	keystroke_b	b	n/a
18.5775	0.03	37155	keystroke_o	o	n/a
18.8025	0.089	37605	keystroke_Key.backspace	Key.backspace	n/a
18.967	0.0905	37934	keystroke_o	o	n/a
19.2965	0.105	38593	keystroke_Key.backspace	Key.backspace	n/a
19.5365	0.061	39073	keystroke_e	e	n/a
19.927	0.12	39854	keystroke_Key.backspace	Key.backspace	n/a
20.032	0.06	40064	keystroke_r	r	n/a
20.122	0.075	40244	keystroke_i	i	n/a
20.272	0.06	40544	keystroke_w	w	n/a
20.617	0.09	41234	keystroke_Key.backspace	Key.backspace	n/a
20.767	0.12	41534	keystroke_Key.backspace	Key.backspace	n/a
20.827	0.105	41654	keystroke_o	o	n/a
20.947	0.09	41894	keystroke_w	w	n/a
21.097	0.075	42194	keystroke_n	n	n/a
21.187	0.105	42374	keystroke_Key.space	Key.space	n/a
21.907	0.045	43814	keystroke_f	f	n/a
21.997	0.09	43994	keystroke_o	o	n/a
22.147	0.09	44294	keystroke_x	x	n/a
22.252	0.06	44504	keystroke_Key.space	Key.space	n/a
22.447	0.075	44894	keystroke_j	j	n/a
22.537	0.09	45074	keystroke_u	u	n/a
22.642	0.075	45284	keystroke_m	m	n/a
22.912	0.09	45824	keystroke_s	s	n/a
23.2575	0.15	46515	keystroke_Key.backspace	Key.backspace	n/a
23.3925	0.045	46785	keystroke_s	s	n/a
23.7525	0.12	47505	keystroke_Key.backspace	Key.backspace	n/a
23.8275	0.12	47655	keystroke_p	p	n/a
23.9325	0.105	47865	keystroke_s	s	n/a
24.0825	0.105	48165	keystroke_Key.space	Key.space	n/a
24.2325	0.105	48465	keystroke_o	o	n/a
24.3225	0.06	48645	keystroke_v	v	n/a
24.4575	0.135	48915	keystroke_e	e	n/a
24.5475	0.075	49095	keystroke_r	r	n/a
24.6525	0.075	49305	keystroke_Key.space	Key.space	n/a
24.7875	0.105	49575	keystroke_a	a	n/a
24.9075	0.075	49815	keystroke_Key.space	Key.space	n/a
25.1475	0.06	50295	keystroke_k	k	n/a
25.1625	0.03	50325	keystroke_l	l	n/a
25.2375	0.135	50475	keystroke_a	a	n/a
25.3275	0.12	50655	keystroke_z	z	n/a
25.6125	0.06	51225	keystroke_Key.backspace	Key.backspace	n/a
25.7325	0.105	51465	keystroke_Key.backspace	Key.backspace	n/a
25.9125	0.09	51825	keystroke_Key.backspace	Key.backspace	n/a
26.0925	0.075	52185	keystroke_Key.backspace	Key.backspace	n/a
26.5875	0.06	53175	keystroke_l	l	n/a
26.6775	0.15	53355	keystroke_a	a	n/a
26.7525	0.135	53505	keystroke_z	z	n/a
26.9775	0.06	53955	keystroke_y	y	n/a
27.1425	0.12	54285	keystroke_Key.space	Key.space	n/a
27.9825	0.075	55965	keystroke_d	d	n/a
28.0425	0.09	56085	keystroke_o	o	n/a
28.1925	0.075	56385	keystroke_g	g	n/a
28.4475	0.06	56895	keystroke_Key.enter	Key.enter	n/a
28.519	10.73	57038	prompt	n/a	license symantec dallas salad\n
29.2275	0.09	58455	keystroke_l	l	n/a
29.3925	0.09	58785	keystroke_i	i	n/a
29.6175	0.06	59235	keystroke_c	c	n/a
29.7975	0.09	59595	keystroke_e	e	n/a
30.8325	0.075	61665	keystroke_n	n	n/a
31.1025	0.075	62205	keystroke_s	s	n/a
31.2975	0.135	62595	keystroke_e	e	n/a
31.4025	0.135	62805	keystroke_Key.space	Key.space	n/a
32.1075	0.075	64215	keystroke_s	s	n/a
32.2575	0.06	64515	keystroke_y	y	n/a
32.4075	0.06	64815	keystroke_n	n	n/a
32.5725	0.075	65145	keystroke_a	a	n/a
32.6925	0.06	65385	keystroke_n	n	n/a
33.3375	0.06	66675	keystroke_Key.backspace	Key.backspace	n/a
33.5025	0.09	67005	keystroke_Key.backspace	Key.backspace	n/a
33.8775	0.105	67755	keystroke_Key.backspace	Key.backspace	n/a
34.0725	0.09	68145	keystroke_m	m	n/a
34.2675	0.09	68535	keystroke_a	a	n/a
34.3725	0.075	68745	keystroke_n	n	n/a
34.5525	0.06	69105	keystroke_t	t	n/a
34.7475	0.135	69495	keystroke_e	e	n/a
34.8375	0.135	69675	keystroke_x	x	n/a
35.1975	0.06	70395	keystroke_Key.backspace	Key.backspace	n/a
35.3925	0.12	70785	keystroke_c	c	n/a
35.738	0.104	71476	keystroke_Key.space	Key.space	n/a
36.337	0.076	72674	keystroke_d	d	n/a
36.533	0.09	73066	keystroke_a	a	n/a
36.683	0.09	73366	keystroke_l	l	n/a
36.833	0.09	73666	keystroke_l	l	n/a
36.938	0.105	73876	keystroke_a	a	n/a
36.983	0.12	73966	keystroke_s	s	n/a
37.222	0.121	74444	keystroke_Key.space	Key.space	n/a
37.493	0.09	74986	keystroke_s	s	n/a
37.643	0.105	75286	keystroke_a	a	n/a
38.693	0.09	77386	keystroke_l	l	n/a
38.768	0.135	77536	keystroke_a	a	n/a
38.873	0.105	77746	keystroke_d	d	n/a
39.158	0.089	78316	keystroke_Key.enter	Key.enter	n/a
39.255	10.9305	78510	prompt	n/a	tampa slightly birmingham incl\n
40.043	0.06	80086	keystroke_t	t	n/a
40.268	0.09	80536	keystroke_a	a	n/a
40.373	0.075	80746	keystroke_m	m	n/a
40.538	0.105	81076	keystroke_p	p	n/a
40.613	0.105	81226	keystroke_a	a	n/a
40.762	0.121	81524	keystroke_Key.space	Key.space	n/a
41.4975	0.1205	82995	keystroke_s	s	n/a
41.6625	0.06	83325	keystroke_l	l	n/a
41.8125	0.09	83625	keystroke_i	i	n/a
41.9625	0.09	83925	keystroke_g	g	n/a
42.0825	0.06	84165	keystroke_h	h	n/a
42.1725	0.075	84345	keystroke_t	t	n/a
42.2925	0.1055	84585	keystroke_l	l	n/a
42.4125	0.0605	84825	keystroke_y	y	n/a
42.548	0.105	85096	keystroke_Key.space	Key.space	n/a
43.2225	0.075	86445	keystroke_b	b	n/a
43.343	0.0895	86686	keystroke_r	r	n/a
43.4925	0.0905	86985	keystroke_i	i	n/a
43.628	0.0895	87256	keystroke_n	n	n/a
44.0625	0.135	88125	keystroke_Key.backspace	Key.backspace	n/a
44.1825	0.09	88365	keystroke_m	m	n/a
44.8425	0.06	89685	keystroke_Key.backspace	Key.backspace	n/a
45.0075	0.075	90015	keystroke_Key.backspace	Key.backspace	n/a
45.4875	0.09	90975	keystroke_Key.backspace	Key.backspace	n/a
45.6375	0.09	91275	keystroke_i	i	n/a
46.1325	0.0905	92265	keystroke_r	r	n/a
46.2375	0.075	92475	keystroke_m	m	n/a
47.0025	0.1205	94005	keystroke_i	i	n/a
47.1975	0.09	94395	keystroke_n	n	n/a
47.4975	0.06	94995	keystroke_g	g	n/a
47.8275	0.075	95655	keystroke_h	h	n/a
47.9775	0.105	95955	keystroke_a	a	n/a
48.098	0.0595	96196	keystroke_m	m	n/a
48.2175	0.105	96435	keystroke_Key.space	Key.space	n/a
48.3825	0.12	96765	keystroke_i	i	n/a
48.5175	0.075	97035	keystroke_n	n	n/a
48.6225	0.105	97245	keystroke_c	c	n/a
49.0575	0.105	98115	keystroke_l	l	n/a
49.4175	0.045	98835	keystroke_'	'	n/a
49.8375	0.105	99675	keystroke_Key.backspace	Key.backspace	n/a
50.0925	0.09	100185	keystroke_Key.enter	Key.enter	n/a
50.191	11.244	100382	prompt	n/a	decent expensive announcement nevada\n
50.9625	0.09	101925	keystroke_d	d	n/a
51.0975	0.09	102195	keystroke_e	e	n/a
51.2625	0.075	102525	keystroke_c	c	n/a
51.3525	0.09	102705	keystroke_e	e	n/a
51.5175	0.09	103035	keystroke_n	n	n/a
51.6225	0.06	103245	keystroke_t	t	n/a
51.7125	0.09	103425	keystroke_Key.space	Key.space	n/a
51.9075	0.09	103815	keystroke_e	e	n/a
52.0575	0.135	104115	keystroke_x	x	n/a
52.2075	0.09	104415	keystroke_p	p	n/a
52.3275	0.09	104655	keystroke_e	e	n/a
52.4775	0.075	104955	keystroke_n	n	n/a
52.6875	0.075	105375	keystroke_s	s	n/a
52.8225	0.075	105645	keystroke_i	i	n/a
52.8975	0.06	105795	keystroke_c	c	n/a
52.9725	0.135	105945	keystroke_e	e	n/a
53.0625	0.135	106125	keystroke_Key.space	Key.space	n/a
53.4825	0.075	106965	keystroke_Key.backspace	Key.backspace	n/a
53.6485	0.059	107297	keystroke_Key.backspace	Key.backspace	n/a
53.7825	0.075	107565	keystroke_Key.backspace	Key.backspace	n/a
53.8425	0.09	107685	keystroke_v	v	n/a
53.9925	0.135	107985	keystroke_e	e	n/a
54.1425	0.135	108285	keystroke_Key.space	Key.space	n/a
54.683	0.074	109366	keystroke_s	s	n/a
54.907	0.09	109814	keystroke_Key.backspace	Key.backspace	n/a
55.013	0.045	110026	keystroke_c	c	n/a
55.207	0.075	110414	keystroke_Key.backspace	Key.backspace	n/a
55.328	0.104	110656	keystroke_a	a	n/a
55.478	0.074	110956	keystroke_c	c	n/a
55.852	0.09	111704	keystroke_Key.backspace	Key.backspace	n/a
56.017	0.061	112034	keystroke_n	n	n/a
56.123	0.075	112246	keystroke_n	n	n/a
56.302	0.106	112604	keystroke_o	o	n/a
56.512	0.105	113024	keystroke_u	u	n/a
56.572	0.105	113144	keystroke_n	n	n/a
56.722	0.045	113444	keystroke_c	c	n/a
56.768	0.104	113536	keystroke_e	e	n/a
57.638	0.074	115276	keystroke_m	m	n/a
57.742	0.091	115484	keystroke_e	e	n/a
57.848	0.075	115696	keystroke_n	n	n/a
57.983	0.06	115966	keystroke_t	t	n/a
58.057	0.075	116114	keystroke_Key.space	Key.space	n/a
58.553	0.059	117106	keystroke_n	n	n/a
58.628	0.134	117256	keystroke_e	e	n/a
58.748	0.12	117496	keystroke_d	d	n/a
59.153	0.06	118306	keystroke_Key.backspace	Key.backspace	n/a
59.303	0.059	118606	keystroke_b	b	n/a
59.587	0.105	119174	keystroke_Key.backspace	Key.backspace	n/a
60.352	0.091	120704	keystroke_v	v	n/a
60.848	0.12	121696	keystroke_a	a	n/a
60.997	0.091	121994	keystroke_d	d	n/a
61.103	0.089	122206	keystroke_a	a	n/a
61.343	0.09	122686	keystroke_Key.enter	Key.enter	n/a
61.441	10.5995	122882	prompt	n/a	contributions says samuel evidence\n
62.153	0.06	124306	keystroke_c	c	n/a
62.288	0.09	124576	keystroke_o	o	n/a
62.483	0.075	124966	keystroke_n	n	n/a
63.893	0.12	127786	keystroke_t	t	n/a
63.983	0.105	127966	keystroke_r	r	n/a
64.118	0.09	128236	keystroke_i	i	n/a
64.313	0.12	128626	keystroke_b	b	n/a
65.048	0.075	130096	keystroke_u	u	n/a
65.333	0.0155	130666	keystroke_t	t	n/a
65.363	0.06	130726	keystroke_i	i	n/a
65.528	0.075	131056	keystroke_o	o	n/a
65.6935	0.0895	131387	keystroke_n	n	n/a
65.798	0.1205	131596	keystroke_s	s	n/a
65.933	0.135	131866	keystroke_Key.space	Key.space	n/a
66.3835	0.1045	132767	keystroke_s	s	n/a
66.548	0.105	133096	keystroke_a	a	n/a
66.668	0.09	133336	keystroke_y	y	n/a
66.743	0.135	133486	keystroke_s	s	n/a
66.893	0.15	133786	keystroke_Key.space	Key.space	n/a
67.433	0.075	134866	keystroke_s	s	n/a
67.568	0.0905	135136	keystroke_a	a	n/a
67.673	0.0905	135346	keystroke_m	m	n/a
67.8535	0.0895	135707	keystroke_u	u	n/a
68.048	0.0905	136096	keystroke_e	e	n/a
68.198	0.09	136396	keystroke_l	l	n/a
68.303	0.135	136606	keystroke_Key.space	Key.space	n/a
69.383	0.105	138766	keystroke_e	e	n/a
69.638	0.105	139276	keystroke_v	v	n/a
69.923	0.09	139846	keystroke_Key.backspace	Key.backspace	n/a
69.998	0.075	139996	keystroke_v	v	n/a
70.118	0.075	140236	keystroke_i	i	n/a
70.883	0.105	141766	keystroke_d	d	n/a
71.048	0.12	142096	keystroke_e	e	n/a
71.348	0.105	142696	keystroke_n	n	n/a
71.423	0.195	142846	keystroke_c	c	n/a
71.528	0.135	143056	keystroke_e	e	n/a
71.9485	0.09	143897	keystroke_Key.enter	Key.enter	n/a
72.045	10.9905	144090	prompt	n/a	related technology predict tutorials\n
73.0435	0.09	146087	keystroke_r	r	n/a
73.2685	0.06	146537	keystroke_e	e	n/a
73.7485	0.0895	147497	keystroke_l	l	n/a
73.883	0.075	147766	keystroke_a	a	n/a
74.003	0.075	148006	keystroke_t	t	n/a
74.138	0.135	148276	keystroke_e	e	n/a
74.228	0.105	148456	keystroke_d	d	n/a
74.393	0.075	148786	keystroke_Key.space	Key.space	n/a
74.648	0.075	149296	keystroke_t	t	n/a
74.858	0.06	149716	keystroke_e	e	n/a
75.143	0.09	150286	keystroke_c	c	n/a
75.293	0.075	150586	keystroke_h	h	n/a
75.773	0.0605	151546	keystroke_n	n	n/a
76.0435	0.105	152087	keystroke_o	o	n/a
76.2385	0.09	152477	keystroke_l	l	n/a
76.4185	0.09	152837	keystroke_o	o	n/a
76.6435	0.075	153287	keystroke_g	g	n/a
76.7635	0.075	153527	keystroke_y	y	n/a
76.8985	0.135	153797	keystroke_Key.space	Key.space	n/a
77.6935	0.1205	155387	keystroke_p	p	n/a
77.814	0.119	155628	keystroke_r	r	n/a
77.918	0.136	155836	keystroke_e	e	n/a
78.519	0.104	157038	keystroke_d	d	n/a
78.698	0.106	157396	keystroke_i	i	n/a
78.848	0.0755	157696	keystroke_c	c	n/a
79.029	0.0885	158058	keystroke_t	t	n/a
79.1785	0.075	158357	keystroke_Key.space	Key.space	n/a
79.4635	0.075	158927	keystroke_t	t	n/a
79.6285	0.09	159257	keystroke_u	u	n/a
79.8085	0.09	159617	keystroke_r	r	n/a
80.2885	0.135	160577	keystroke_Key.backspace	Key.backspace	n/a
80.3935	0.06	160787	keystroke_t	t	n/a
80.9035	0.105	161807	keystroke_o	o	n/a
81.0835	0.06	162167	keystroke_r	r	n/a
81.2035	0.045	162407	keystroke_u	u	n/a
81.6085	0.105	163217	keystroke_Key.backspace	Key.backspace	n/a
81.7735	0.0895	163547	keystroke_i	i	n/a
81.878	0.105	163756	keystroke_a	a	n/a
82.133	0.075	164266	keystroke_s	s	n/a
82.373	0.12	164746	keystroke_Key.backspace	Key.backspace	n/a
82.508	0.09	165016	keystroke_l	l	n/a
82.658	0.09	165316	keystroke_s	s	n/a
82.9435	0.09	165887	keystroke_Key.enter	Key.enter	n/a
83.0425	7.6125	166085	prompt	n/a	flat colors rather pierre\n
83.858	0.06	167716	keystroke_f	f	n/a
84.068	0.105	168136	keystroke_l	l	n/a
84.158	0.105	168316	keystroke_a	a	n/a
84.264	0.089	168528	keystroke_r	r	n/a
84.848	0.06	169696	keystroke_Key.backspace	Key.backspace	n/a
85.373	0.12	170746	keystroke_t	t	n/a
86.138	0.09	172276	keystroke_Key.space	Key.space	n/a
86.273	0.135	172546	keystroke_c	c	n/a
86.453	0.105	172906	keystroke_o	o	n/a
86.618	0.09	173236	keystroke_l	l	n/a
86.753	0.105	173506	keystroke_o	o	n/a
86.858	0.06	173716	keystroke_r	r	n/a
87.098	0.09	174196	keystroke_s	s	n/a
87.488	0.105	174976	keystroke_Key.space	Key.space	n/a
88.253	0.09	176506	keystroke_r	r	n/a
88.493	0.09	176986	keystroke_a	a	n/a
88.553	0.09	177106	keystroke_t	t	n/a
88.703	0.09	177406	keystroke_h	h	n/a
88.778	0.105	177556	keystroke_e	e	n/a
88.838	0.09	177676	keystroke_r	r	n/a
88.958	0.075	177916	keystroke_Key.space	Key.space	n/a
89.273	0.03	178546	keystroke_p	p	n/a
89.513	0.105	179026	keystroke_i	i	n/a
89.783	0.165	179566	keystroke_e	e	n/a
89.963	0.075	179926	keystroke_r	r	n/a
90.128	0.12	180256	keystroke_r	r	n/a
90.428	0.09	180856	keystroke_e	e	n/a
90.563	0.09	181126	keystroke_Key.enter	Key.enter	n/a
90.6645	8.2115	181329	prompt	n/a	injuries projection mats acts\n
91.418	0.075	182836	keystroke_i	i	n/a
91.553	0.075	183106	keystroke_n	n	n/a
91.763	0.075	183526	keystroke_j	j	n/a
91.898	0.075	183796	keystroke_u	u	n/a
92.033	0.09	184066	keystroke_r	r	n/a
92.124	0.104	184248	keystroke_i	i	n/a
92.243	0.075	184486	keystroke_e	e	n/a
92.873	0.105	185746	keystroke_s	s	n/a
93.008	0.09	186016	keystroke_Key.space	Key.space	n/a
93.878	0.105	187756	keystroke_p	p	n/a
94.058	0.09	188116	keystroke_r	r	n/a
94.358	0.12	188716	keystroke_o	o	n/a
94.673	0.03	189346	keystroke_k	k	n/a
94.9435	0.105	189887	keystroke_e	e	n/a
95.1835	0.03	190367	keystroke_Key.backspace	Key.backspace	n/a
95.333	0.165	190666	keystroke_Key.backspace	Key.backspace	n/a
95.408	0.105	190816	keystroke_j	j	n/a
95.573	0.121	191146	keystroke_e	e	n/a
95.633	0.12	191266	keystroke_c	c	n/a
95.8735	0.075	191747	keystroke_t	t	n/a
96.0085	0.09	192017	keystroke_i	i	n/a
96.1885	0.075	192377	keystroke_o	o	n/a
96.3085	0.075	192617	keystroke_n	n	n/a
96.4585	0.135	192917	keystroke_Key.space	Key.space	n/a
97.0585	0.09	194117	keystroke_m	m	n/a
97.1935	0.135	194387	keystroke_a	a	n/a
97.3435	0.09	194687	keystroke_t	t	n/a
97.7935	0.075	195587	keystroke_s	s	n/a
97.9885	0.09	195977	keystroke_Key.space	Key.space	n/a
98.1835	0.105	196367	keystroke_a	a	n/a
98.3185	0.06	196637	keystroke_c	c	n/a
98.4835	0.06	196967	keystroke_t	t	n/a
98.6935	0.09	197387	keystroke_s	s	n/a
98.8285	0.045	197657	keystroke_Key.enter	Key.enter	n/a
98.8805	6.235	197761	prompt	n/a	spread explain family config\n
99.8035	0.105	199607	keystroke_s	s	n/a
99.9235	0.105	199847	keystroke_p	p	n/a
100.1635	0.075	200327	keystroke_r	r	n/a
100.3435	0.09	200687	keystroke_e	e	n/a
100.5235	0.12	201047	keystroke_a	a	n/a
100.5985	0.135	201197	keystroke_d	d	n/a
100.9585	0.075	201917	keystroke_Key.space	Key.space	n/a
101.0935	0.09	202187	keystroke_e	e	n/a
101.2585	0.105	202517	keystroke_x	x	n/a
101.3485	0.15	202697	keystroke_p	p	n/a
101.4385	0.165	202877	keystroke_l	l	n/a
101.6185	0.09	203237	keystroke_a	a	n/a
101.6935	0.12	203387	keystroke_i	i	n/a
101.7685	0.105	203537	keystroke_n	n	n/a
101.9935	0.09	203987	keystroke_Key.space	Key.space	n/a
102.6685	0.105	205337	keystroke_f	f	n/a
102.8485	0.09	205697	keystroke_a	a	n/a
102.9535	0.09	205907	keystroke_m	m	n/a
103.0885	0.075	206177	keystroke_i	i	n/a
103.2835	0.09	206567	keystroke_l	l	n/a
103.3885	0.075	206777	keystroke_y	y	n/a
103.8835	0.075	207767	keystroke_Key.space	Key.space	n/a
104.2285	0.09	208457	keystroke_c	c	n/a
104.2885	0.09	208577	keystroke_o	o	n/a
104.4235	0.076	208847	keystroke_n	n	n/a
104.5135	0.09	209027	keystroke_f	f	n/a
104.6335	0.075	209267	keystroke_i	i	n/a
104.7385	0.075	209477	keystroke_g	g	n/a
105.0235	0.09	210047	keystroke_Key.enter	Key.enter	n/a
105.1205	8.5755	210241	prompt	n/a	ministers legislation laos anne\n
106.0435	0.06	212087	keystroke_m	m	n/a
106.1635	0.12	212327	keystroke_i	i	n/a
106.2685	0.075	212537	keystroke_n	n	n/a
106.3585	0.105	212717	keystroke_i	i	n/a
106.7785	0.09	213557	keystroke_s	s	n/a
106.9135	0.075	213827	keystroke_t	t	n/a
107.0785	0.105	214157	keystroke_e	e	n/a
107.1385	0.135	214277	keystroke_r	r	n/a
107.3035	0.09	214607	keystroke_s	s	n/a
107.4535	0.075	214907	keystroke_Key.space	Key.space	n/a
107.6785	0.091	215357	keystroke_l	l	n/a
107.7835	0.075	215567	keystroke_e	e	n/a
107.9335	0.061	215867	keystroke_g	g	n/a
108.0685	0.091	216137	keystroke_i	i	n/a
108.1735	0.1195	216347	keystroke_s	s	n/a
108.294	0.074	216588	keystroke_t	t	n/a
108.893	0.135	217786	keystroke_Key.backspace	Key.backspace	n/a
109.014	0.105	218028	keystroke_l	l	n/a
109.9885	0.09	219977	keystroke_a	a	n/a
110.1385	0.09	220277	keystroke_t	t	n/a
110.2735	0.09	220547	keystroke_i	i	n/a
110.4685	0.045	220937	keystroke_o	o	n/a
110.5585	0.09	221117	keystroke_n	n	n/a
110.6785	0.12	221357	keystroke_Key.space	Key.space	n/a
111.4135	0.12	222827	keystroke_l	l	n/a
111.9985	0.09	223997	keystroke_a	a	n/a
112.3135	0.09	224627	keystroke_o	o	n/a
112.4185	0.105	224837	keystroke_s	s	n/a
112.5985	0.135	225197	keystroke_Key.space	Key.space	n/a
113.0935	0.09	226187	keystroke_a	a	n/a
113.1985	0.075	226397	keystroke_n	n	n/a
113.3185	0.075	226637	keystroke_n	n	n/a
113.4385	0.075	226877	keystroke_e	e	n/a
113.648	0.045	227296	keystroke_Key.enter	Key.enter	n/a
113.702	5.813	227404	prompt	n/a	sony dense blanket goal\n
114.368	0.09	228736	keystroke_s	s	n/a
114.489	0.104	228978	keystroke_o	o	n/a
114.653	0.075	229306	keystroke_n	n	n/a
114.833	0.03	229666	keystroke_y	y	n/a
115.358	0.075	230716	keystroke_Key.space	Key.space	n/a
115.584	0.104	231168	keystroke_d	d	n/a
115.674	0.104	231348	keystroke_e	e	n/a
115.913	0.075	231826	keystroke_n	n	n/a
116.018	0.075	232036	keystroke_s	s	n/a
116.198	0.075	232396	keystroke_e	e	n/a
116.318	0.09	232636	keystroke_Key.space	Key.space	n/a
116.7385	0.09	233477	keystroke_b	b	n/a
116.9625	0.09	233925	keystroke_l	l	n/a
117.384	0.075	234768	keystroke_a	a	n/a
117.459	0.075	234918	keystroke_n	n	n/a
117.638	0.105	235276	keystroke_k	k	n/a
117.759	0.134	235518	keystroke_e	e	n/a
117.878	0.091	235756	keystroke_t	t	n/a
118.373	0.09	236746	keystroke_Key.space	Key.space	n/a
118.733	0.076	237466	keystroke_g	g	n/a
118.838	0.09	237676	keystroke_o	o	n/a
118.988	0.061	237976	keystroke_a	a	n/a
119.078	0.09	238156	keystroke_l	l	n/a
119.438	0.075	238876	keystroke_Key.enter	Key.enter	n/a
119.5195	7.181	239039	prompt	n/a	surname preliminary dozens stuck\n
120.293	0.121	240586	keystroke_s	s	n/a
120.504	0.104	241008	keystroke_u	u	n/a
120.624	0.075	241248	keystroke_r	r	n/a
120.758	0.091	241516	keystroke_n	n	n/a
120.908	0.075	241816	keystroke_a	a	n/a
120.968	0.106	241936	keystroke_m	m	n/a
121.104	0.089	242208	keystroke_e	e	n/a
121.208	0.09	242416	keystroke_Key.space	Key.space	n/a
121.674	0.09	243348	keystroke_p	p	n/a
121.793	0.091	243586	keystroke_r	r	n/a
121.868	0.105	243736	keystroke_e	e	n/a
122.034	0.045	244068	keystroke_m	m	n/a
122.273	0.105	244546	keystroke_Key.backspace	Key.backspace	n/a
122.364	0.105	244728	keystroke_l	l	n/a
122.6025	0.105	245205	keystroke_i	i	n/a
122.7685	0.12	245537	keystroke_m	m	n/a
122.9925	0.09	245985	keystroke_i	i	n/a
123.1285	0.12	246257	keystroke_n	n	n/a
123.3235	0.074	246647	keystroke_a	a	n/a
123.5035	0.089	247007	keystroke_r	r	n/a
123.6075	0.091	247215	keystroke_y	y	n/a
123.7125	0.105	247425	keystroke_Key.space	Key.space	n/a
124.6435	0.09	249287	keystroke_d	d	n/a
124.8235	0.105	249647	keystroke_o	o	n/a
124.9435	0.09	249887	keystroke_z	z	n/a
125.1535	0.089	250307	keystroke_e	e	n/a
125.2585	0.09	250517	keystroke_n	n	n/a
125.4075	0.105	250815	keystroke_Key.space	Key.space	n/a
125.7385	0.09	251477	keystroke_s	s	n/a
125.9785	0.06	251957	keystroke_t	t	n/a
126.0985	0.075	252197	keystroke_u	u	n/a
126.2035	0.075	252407	keystroke_c	c	n/a
126.3075	0.091	252615	keystroke_k	k	n/a
126.6225	0.076	253245	keystroke_Key.enter	Key.enter	n/a
126.705	7.2105	253410	prompt	n/a	tickets therapy lisa nasty\n
127.4035	0.06	254807	keystroke_t	t	n/a
127.5225	0.061	255045	keystroke_i	i	n/a
127.5985	0.075	255197	keystroke_c	c	n/a
127.7335	0.075	255467	keystroke_k	k	n/a
127.7935	0.09	255587	keystroke_e	e	n/a
127.8525	0.091	255705	keystroke_t	t	n/a
128.0635	0.075	256127	keystroke_s	s	n/a
128.5575	0.075	257115	keystroke_Key.space	Key.space	n/a
128.9485	0.045	257897	keystroke_t	t	n/a
129.0385	0.074	258077	keystroke_h	h	n/a
129.1285	0.104	258257	keystroke_e	e	n/a
129.1885	0.09	258377	keystroke_r	r	n/a
129.3835	0.075	258767	keystroke_a	a	n/a
129.4735	0.075	258947	keystroke_p	p	n/a
129.6535	0.075	259307	keystroke_y	y	n/a
130.2085	0.074	260417	keystroke_Key.space	Key.space	n/a
131.3185	0.105	262637	keystroke_l	l	n/a
131.5135	0.09	263027	keystroke_i	i	n/a
131.6185	0.12	263237	keystroke_s	s	n/a
131.7535	0.15	263507	keystroke_a	a	n/a
132.6375	0.061	265275	keystroke_Key.space	Key.space	n/a
132.8035	0.075	265607	keystroke_n	n	n/a
132.8925	0.151	265785	keystroke_a	a	n/a
132.9835	0.105	265967	keystroke_s	s	n/a
133.2375	0.075	266475	keystroke_t	t	n/a
133.4335	0.09	266867	keystroke_y	y	n/a
133.8535	0.06	267707	keystroke_Key.enter	Key.enter	n/a
133.9265	15.1235	267853	prompt	n/a	spokesman devices chelsea standings\n
134.7535	0.09	269507	keystroke_s	s	n/a
134.8585	0.09	269717	keystroke_p	p	n/a
135.0685	0.105	270137	keystroke_o	o	n/a
135.1435	0.105	270287	keystroke_k	k	n/a
135.2635	0.075	270527	keystroke_e	e	n/a
135.9985	0.09	271997	keystroke_Key.backspace	Key.backspace	n/a
136.4035	0.075	272807	keystroke_e	e	n/a
136.7185	0.06	273437	keystroke_m	m	n/a
137.0185	0.045	274037	keystroke_s	s	n/a
137.3935	0.045	274787	keystroke_a	a	n/a
137.5585	0.075	275117	keystroke_Key.backspace	Key.backspace	n/a
137.6935	0.105	275387	keystroke_Key.backspace	Key.backspace	n/a
137.7535	0.105	275507	keystroke_a	a	n/a
137.8885	0.075	275777	keystroke_n	n	n/a
137.9485	0.09	275897	keystroke_Key.space	Key.space	n/a
138.3235	0.075	276647	keystroke_t	t	n/a
138.5935	0.105	277187	keystroke_Key.backspace	Key.backspace	n/a
138.7135	0.09	277427	keystroke_d	d	n/a
138.8185	0.06	277637	keystroke_e	e	n/a
138.9535	0.09	277907	keystroke_v	v	n/a
139.0735	0.075	278147	keystroke_i	i	n/a
139.2835	0.09	278567	keystroke_c	c	n/a
139.3435	0.12	278687	keystroke_e	e	n/a
139.5685	0.09	279137	keystroke_Key.space	Key.space	n/a
140.4685	0.09	280937	keystroke_c	c	n/a
140.6035	0.09	281207	keystroke_h	h	n/a
140.7235	0.075	281447	keystroke_e	e	n/a
141.4885	0.075	282977	keystroke_l	l	n/a
142.0285	0.075	284057	keystroke_s	s	n/a
142.2235	0.075	284447	keystroke_e	e	n/a
142.3585	0.09	284717	keystroke_a	a	n/a
142.4935	0.15	284987	keystroke_Key.space	Key.space	n/a
142.8535	0.09	285707	keystroke_s	s	n/a
143.0185	0.075	286037	keystroke_t	t	n/a
143.1685	0.09	286337	keystroke_a	a	n/a
143.3785	0.09	286757	keystroke_n	n	n/a
143.7385	0.06	287477	keystroke_d	d	n/a
143.8285	0.165	287657	keystroke_i	i	n/a
143.9335	0.105	287867	keystroke_n	n	n/a
144.0235	0.06	288047	keystroke_g	g	n/a
144.1135	0.09	288227	keystroke_Key.space	Key.space	n/a
146.0335	0.075	292067	keystroke_s	s	n/a
146.1985	0.06	292397	keystroke_t	t	n/a
146.3635	0.105	292727	keystroke_a	a	n/a
146.9035	0.075	293807	keystroke_Key.backspace	Key.backspace	n/a
147.9535	0.105	295907	keystroke_Key.backspace	Key.backspace	n/a
148.1185	0.135	296237	keystroke_Key.backspace	Key.backspace	n/a
148.5835	0.12	297167	keystroke_Key.backspace	Key.backspace	n/a
148.7485	0.09	297497	keystroke_s	s	n/a
148.9735	0.075	297947	keystroke_Key.enter	Key.enter	n/a
149.057	9.9695	298114	prompt	n/a	morgan opera extra expenses\n
150.084	0.075	300168	keystroke_m	m	n/a
150.263	0.09	300526	keystroke_o	o	n/a
151.149	0.089	302298	keystroke_r	r	n/a
151.374	0.06	302748	keystroke_g	g	n/a
151.509	0.074	303018	keystroke_a	a	n/a
151.628	0.09	303256	keystroke_n	n	n/a
151.704	0.119	303408	keystroke_Key.space	Key.space	n/a
152.709	0.09	305418	keystroke_o	o	n/a
152.949	0.09	305898	keystroke_p	p	n/a
153.054	0.09	306108	keystroke_e	e	n/a
153.234	0.06	306468	keystroke_r	r	n/a
153.399	0.075	306798	keystroke_a	a	n/a
153.548	0.076	307096	keystroke_n	n	n/a
153.638	0.105	307276	keystroke_Key.space	Key.space	n/a
154.013	0.091	308026	keystroke_Key.backspace	Key.backspace	n/a
154.163	0.075	308326	keystroke_Key.backspace	Key.backspace	n/a
154.328	0.106	308656	keystroke_Key.space	Key.space	n/a
155.184	0.075	310368	keystroke_e	e	n/a
155.424	0.06	310848	keystroke_x	x	n/a
155.604	0.075	311208	keystroke_t	t	n/a
155.739	0.09	311478	keystroke_r	r	n/a
155.934	0.09	311868	keystroke_a	a	n/a
156.068	0.075	312136	keystroke_Key.space	Key.space	n/a
156.8945	0.105	313789	keystroke_e	e	n/a
157.824	0.09	315648	keystroke_x	x	n/a
157.929	0.075	315858	keystroke_p	p	n/a
158.094	0.075	316188	keystroke_e	e	n/a
158.244	0.06	316488	keystroke_n	n	n/a
158.334	0.09	316668	keystroke_s	s	n/a
158.619	0.075	317238	keystroke_e	e	n/a
158.784	0.09	317568	keystroke_s	s	n/a
158.934	0.09	317868	keystroke_Key.enter	Key.enter	n/a
159.032	8.4235	318064	prompt	n/a	cloth trader environments serves\n
159.549	0.12	319098	keystroke_c	c	n/a
159.684	0.09	319368	keystroke_l	l	n/a
159.8485	0.09	319697	keystroke_o	o	n/a
159.9985	0.06	319997	keystroke_t	t	n/a
160.0735	0.09	320147	keystroke_h	h	n/a
160.2085	0.09	320417	keystroke_Key.space	Key.space	n/a
160.7935	0.06	321587	keystroke_t	t	n/a
160.9585	0.0755	321917	keystroke_r	r	n/a
161.139	0.105	322278	keystroke_d	d	n/a
161.319	0.165	322638	keystroke_e	e	n/a
161.439	0.105	322878	keystroke_r	r	n/a
161.678	0.09	323356	keystroke_Key.backspace	Key.backspace	n/a
161.858	0.075	323716	keystroke_Key.backspace	Key.backspace	n/a
162.008	0.09	324016	keystroke_Key.backspace	Key.backspace	n/a
162.189	0.044	324378	keystroke_Key.backspace	Key.backspace	n/a
162.699	0.075	325398	keystroke_r	r	n/a
162.924	0.12	325848	keystroke_a	a	n/a
163.029	0.12	326058	keystroke_d	d	n/a
163.314	0.135	326628	keystroke_e	e	n/a
163.434	0.104	326868	keystroke_r	r	n/a
163.974	0.075	327948	keystroke_Key.space	Key.space	n/a
164.184	0.09	328368	keystroke_e	e	n/a
164.2885	0.075	328577	keystroke_n	n	n/a
164.4235	0.09	328847	keystroke_v	v	n/a
164.5585	0.09	329117	keystroke_i	i	n/a
164.8135	0.045	329627	keystroke_r	r	n/a
164.9035	0.075	329807	keystroke_o	o	n/a
165.0835	0.06	330167	keystroke_n	n	n/a
165.2635	0.09	330527	keystroke_m	m	n/a
165.3685	0.075	330737	keystroke_e	e	n/a
165.4585	0.09	330917	keystroke_n	n	n/a
165.5635	0.06	331127	keystroke_t	t	n/a
165.7585	0.075	331517	keystroke_s	s	n/a
165.8345	0.074	331669	keystroke_Key.space	Key.space	n/a
166.1335	0.06	332267	keystroke_e	e	n/a
166.3585	0.09	332717	keystroke_Key.backspace	Key.backspace	n/a
166.4045	0.089	332809	keystroke_s	s	n/a
166.6135	0.075	333227	keystroke_e	e	n/a
166.7785	0.09	333557	keystroke_r	r	n/a
166.9435	0.075	333887	keystroke_v	v	n/a
167.0785	0.091	334157	keystroke_e	e	n/a
167.2885	0.06	334577	keystroke_s	s	n/a
167.3785	0.075	334757	keystroke_Key.enter	Key.enter	n/a
167.461	9.5195	334922	prompt	n/a	practitioners store sodium mason\n
168.2485	0.09	336497	keystroke_p	p	n/a
168.4885	0.06	336977	keystroke_r	r	n/a
168.6685	0.075	337337	keystroke_a	a	n/a
168.7735	0.09	337547	keystroke_c	c	n/a
169.5985	0.06	339197	keystroke_t	t	n/a
169.8385	0.09	339677	keystroke_i	i	n/a
170.4235	0.075	340847	keystroke_t	t	n/a
170.4995	0.059	340999	keystroke_i	i	n/a
170.6485	0.06	341297	keystroke_o	o	n/a
170.7685	0.075	341537	keystroke_n	n	n/a
170.8585	0.105	341717	keystroke_e	e	n/a
170.9335	0.105	341867	keystroke_r	r	n/a
171.0835	0.105	342167	keystroke_s	s	n/a
171.2335	0.045	342467	keystroke_Key.space	Key.space	n/a
171.3235	0.09	342647	keystroke_s	s	n/a
171.4585	0.075	342917	keystroke_t	t	n/a
171.6535	0.09	343307	keystroke_o	o	n/a
171.8335	0.105	343667	keystroke_r	r	n/a
171.9085	0.105	343817	keystroke_e	e	n/a
172.0585	0.075	344117	keystroke_Key.space	Key.space	n/a
172.3285	0.09	344657	keystroke_s	s	n/a
172.5395	0.075	345079	keystroke_o	o	n/a
172.6745	0.089	345349	keystroke_d	d	n/a
172.7785	0.06	345557	keystroke_u	u	n/a
172.9885	0.075	345977	keystroke_m	m	n/a
173.1835	0.09	346367	keystroke_Key.space	Key.space	n/a
173.7385	0.09	347477	keystroke_Key.backspace	Key.backspace	n/a
173.9035	0.105	347807	keystroke_Key.backspace	Key.backspace	n/a
174.0685	0.105	348137	keystroke_Key.backspace	Key.backspace	n/a
174.2335	0.12	348467	keystroke_Key.backspace	Key.backspace	n/a
174.7745	0.09	349549	keystroke_d	d	n/a
174.8785	0.09	349757	keystroke_i	i	n/a
175.0735	0.075	350147	keystroke_u	u	n/a
175.1635	0.12	350327	keystroke_m	m	n/a
175.3135	0.135	350627	keystroke_Key.space	Key.space	n/a
175.9885	0.06	351977	keystroke_m	m	n/a
176.2295	0.089	352459	keystroke_a	a	n/a
176.2885	0.12	352577	keystroke_s	s	n/a
176.4545	0.089	352909	keystroke_o	o	n/a
176.6035	0.076	353207	keystroke_n	n	n/a
176.9035	0.075	353807	keystroke_Key.enter	Key.enter	n/a
176.985	11.8005	353970	prompt	n/a	investigate horse transformation sixth\n
177.8335	0.091	355667	keystroke_i	i	n/a
177.9835	0.075	355967	keystroke_n	n	n/a
179.3935	0.076	358787	keystroke_v	v	n/a
179.6035	0.105	359207	keystroke_e	e	n/a
179.8285	0.075	359657	keystroke_s	s	n/a
180.1435	0.076	360287	keystroke_t	t	n/a
181.1335	0.075	362267	keystroke_i	i	n/a
181.2985	0.076	362597	keystroke_g	g	n/a
181.5085	0.091	363017	keystroke_a	a	n/a
181.6735	0.076	363347	keystroke_g	g	n/a
181.6885	0.046	363377	keystroke_t	t	n/a
181.7495	0.09	363499	keystroke_e	e	n/a
182.1985	0.09	364397	keystroke_Key.backspace	Key.backspace	n/a
182.4085	0.105	364817	keystroke_Key.backspace	Key.backspace	n/a
182.5735	0.15	365147	keystroke_t	t	n/a
182.7085	0.03	365417	keystroke_e	e	n/a
182.8585	0.06	365717	keystroke_Key.backspace	Key.backspace	n/a
183.0235	0.075	366047	keystroke_Key.backspace	Key.backspace	n/a
183.1885	0.075	366377	keystroke_Key.backspace	Key.backspace	n/a
183.2495	0.12	366499	keystroke_t	t	n/a
183.3235	0.121	366647	keystroke_e	e	n/a
183.4285	0.09	366857	keystroke_Key.space	Key.space	n/a
183.5945	0.074	367189	keystroke_h	h	n/a
183.8195	0.075	367639	keystroke_o	o	n/a
183.8785	0.076	367757	keystroke_r	r	n/a
184.1795	0.059	368359	keystroke_s	s	n/a
184.3595	0.075	368719	keystroke_e	e	n/a
184.6135	0.09	369227	keystroke_Key.space	Key.space	n/a
184.9445	0.075	369889	keystroke_t	t	n/a
185.1395	0.074	370279	keystroke_r	r	n/a
185.3335	0.09	370667	keystroke_a	a	n/a
185.5285	0.03	371057	keystroke_n	n	n/a
185.5735	0.105	371147	keystroke_s	s	n/a
185.9345	0.089	371869	keystroke_f	f	n/a
186.0545	0.09	372109	keystroke_o	o	n/a
186.1895	0.074	372379	keystroke_r	r	n/a
186.6235	0.075	373247	keystroke_m	m	n/a
186.7145	0.075	373429	keystroke_a	a	n/a
186.8045	0.09	373609	keystroke_t	t	n/a
186.8945	0.105	373789	keystroke_i	i	n/a
187.0445	0.075	374089	keystroke_o	o	n/a
187.1795	0.059	374359	keystroke_n	n	n/a
187.3435	0.09	374687	keystroke_Key.space	Key.space	n/a
187.4195	0.105	374839	keystroke_s	s	n/a
187.5545	0.09	375109	keystroke_i	i	n/a
188.1245	0.089	376249	keystroke_x	x	n/a
188.3045	0.075	376609	keystroke_t	t	n/a
188.4095	0.075	376819	keystroke_h	h	n/a
188.6945	0.089	377389	keystroke_Key.enter	Key.enter	n/a
188.79	7.931	377580	prompt	n/a	belly dominant stays passive\n
189.3995	0.075	378799	keystroke_b	b	n/a
189.5645	0.075	379129	keystroke_e	e	n/a
189.6545	0.059	379309	keystroke_l	l	n/a
189.7885	0.09	379577	keystroke_l	l	n/a
189.8795	0.06	379759	keystroke_y	y	n/a
190.3745	0.074	380749	keystroke_Key.space	Key.space	n/a
190.8095	0.06	381619	keystroke_d	d	n/a
190.8835	0.106	381767	keystroke_o	o	n/a
191.0345	0.09	382069	keystroke_m	m	n/a
191.5745	0.12	383149	keystroke_i	i	n/a
191.7695	0.135	383539	keystroke_n	n	n/a
192.0995	0.09	384199	keystroke_a	a	n/a
192.2195	0.075	384439	keystroke_n	n	n/a
192.3395	0.06	384679	keystroke_t	t	n/a
192.5035	0.075	385007	keystroke_Key.space	Key.space	n/a
193.3445	0.075	386689	keystroke_s	s	n/a
193.6295	0.06	387259	keystroke_t	t	n/a
193.6745	0.12	387349	keystroke_a	a	n/a
193.8245	0.09	387649	keystroke_y	y	n/a
193.9285	0.076	387857	keystroke_s	s	n/a
194.0345	0.134	388069	keystroke_Key.space	Key.space	n/a
194.4095	0.12	388819	keystroke_a	a	n/a
194.6645	0.135	389329	keystroke_Key.backspace	Key.backspace	n/a
194.7695	0.12	389539	keystroke_p	p	n/a
194.9045	0.105	389809	keystroke_a	a	n/a
195.1295	0.09	390259	keystroke_s	s	n/a
195.3245	0.06	390649	keystroke_s	s	n/a
195.4145	0.075	390829	keystroke_i	i	n/a
195.5345	0.06	391069	keystroke_b	b	n/a
195.6845	0.105	391369	keystroke_e	e	n/a
196.0445	0.09	392089	keystroke_Key.backspace	Key.backspace	n/a
196.1945	0.075	392389	keystroke_Key.backspace	Key.backspace	n/a
196.2395	0.105	392479	keystroke_v	v	n/a
196.4045	0.105	392809	keystroke_e	e	n/a
196.6595	0.06	393319	keystroke_Key.enter	Key.enter	n/a
196.7285	8.273	393457	prompt	n/a	economic adjust avoiding football\n
197.3495	0.09	394699	keystroke_e	e	n/a
197.5745	0.045	395149	keystroke_v	v	n/a
197.9645	0.09	395929	keystroke_Key.backspace	Key.backspace	n/a
198.0695	0.075	396139	keystroke_c	c	n/a
198.6245	0.09	397249	keystroke_o	o	n/a
198.8945	0.0745	397789	keystroke_n	n	n/a
199.0745	0.09	398149	keystroke_o	o	n/a
199.2395	0.105	398479	keystroke_m	m	n/a
199.3895	0.105	398779	keystroke_i	i	n/a
199.5245	0.135	399049	keystroke_c	c	n/a
199.7195	0.09	399439	keystroke_Key.space	Key.space	n/a
200.3495	0.135	400699	keystroke_a	a	n/a
200.5445	0.09	401089	keystroke_d	d	n/a
200.8145	0.075	401629	keystroke_j	j	n/a
200.9495	0.09	401899	keystroke_u	u	n/a
201.0695	0.105	402139	keystroke_s	s	n/a
201.1745	0.075	402349	keystroke_t	t	n/a
201.3245	0.075	402649	keystroke_Key.space	Key.space	n/a
201.6395	0.09	403279	keystroke_a	a	n/a
201.9995	0.12	403999	keystroke_v	v	n/a
202.1345	0.105	404269	keystroke_o	o	n/a
202.3295	0.075	404659	keystroke_i	i	n/a
202.4495	0.105	404899	keystroke_d	d	n/a
202.7345	0.15	405469	keystroke_i	i	n/a
202.8545	0.09	405709	keystroke_n	n	n/a
202.9595	0.09	405919	keystroke_g	g	n/a
203.0645	0.06	406129	keystroke_Key.space	Key.space	n/a
203.6345	0.06	407269	keystroke_f	f	n/a
203.7095	0.06	407419	keystroke_o	o	n/a
203.8295	0.09	407659	keystroke_o	o	n/a
203.9495	0.06	407899	keystroke_t	t	n/a
204.0845	0.075	408169	keystroke_b	b	n/a
204.2795	0.105	408559	keystroke_a	a	n/a
204.3695	0.09	408739	keystroke_l	l	n/a
204.6245	0.09	409249	keystroke_l	l	n/a
204.9245	0.075	409849	keystroke_Key.enter	Key.enter	n/a
205.0065	5.4395	410013	prompt	n/a	statements human brown glen\n
205.6295	0.12	411259	keystroke_s	s	n/a
205.7495	0.06	411499	keystroke_t	t	n/a
205.8995	0.09	411799	keystroke_a	a	n/a
206.0045	0.12	412009	keystroke_t	t	n/a
206.3945	0.075	412789	keystroke_e	e	n/a
206.6495	0.09	413299	keystroke_m	m	n/a
206.7995	0.075	413599	keystroke_e	e	n/a
206.9195	0.09	413839	keystroke_n	n	n/a
207.0245	0.015	414049	keystroke_t	t	n/a
207.2195	0.09	414439	keystroke_s	s	n/a
207.3395	0.09	414679	keystroke_Key.space	Key.space	n/a
207.5495	0.075	415099	keystroke_h	h	n/a
207.6995	0.09	415399	keystroke_u	u	n/a
207.8195	0.105	415639	keystroke_m	m	n/a
207.9395	0.09	415879	keystroke_a	a	n/a
208.0445	0.075	416089	keystroke_n	n	n/a
208.1795	0.105	416359	keystroke_Key.space	Key.space	n/a
208.3895	0.06	416779	keystroke_b	b	n/a
208.4945	0.12	416989	keystroke_r	r	n/a
208.7345	0.09	417469	keystroke_o	o	n/a
208.8695	0.06	417739	keystroke_w	w	n/a
208.9595	0.09	417919	keystroke_n	n	n/a
209.1395	0.075	418279	keystroke_Key.space	Key.space	n/a
209.7095	0.075	419419	keystroke_g	g	n/a
209.8145	0.09	419629	keystroke_l	l	n/a
209.8595	0.09	419719	keystroke_e	e	n/a
210.0245	0.075	420049	keystroke_n	n	n/a
210.3845	0.06	420769	keystroke_Key.enter	Key.enter	n/a
210.452	9.489	420904	prompt	n/a	challenging possession memphis questions\n
211.4195	0.075	422839	keystroke_c	c	n/a
211.5245	0.075	423049	keystroke_h	h	n/a
211.7345	0.075	423469	keystroke_e	e	n/a
211.9895	0.075	423979	keystroke_l	l	n/a
212.1245	0.09	424249	keystroke_l	l	n/a
212.3195	0.075	424639	keystroke_e	e	n/a
212.4545	0.075	424909	keystroke_n	n	n/a
212.6195	0.105	425239	keystroke_g	g	n/a
212.7995	0.12	425599	keystroke_i	i	n/a
212.8745	0.12	425749	keystroke_n	n	n/a
212.9795	0.06	425959	keystroke_g	g	n/a
213.0695	0.075	426139	keystroke_Key.space	Key.space	n/a
213.4595	0.06	426919	keystroke_p	p	n/a
213.6095	0.075	427219	keystroke_o	o	n/a
213.7595	0.06	427519	keystroke_s	s	n/a
213.9245	0.075	427849	keystroke_s	s	n/a
214.1195	0.075	428239	keystroke_e	e	n/a
214.3145	0.06	428629	keystroke_s	s	n/a
214.4345	0.075	428869	keystroke_s	s	n/a
214.5245	0.075	429049	keystroke_i	i	n/a
214.6595	0.09	429319	keystroke_o	o	n/a
214.7795	0.075	429559	keystroke_n	n	n/a
214.9295	0.075	429859	keystroke_Key.space	Key.space	n/a
215.0945	0.06	430189	keystroke_m	m	n/a
215.1695	0.09	430339	keystroke_e	e	n/a
215.2745	0.045	430549	keystroke_m	m	n/a
215.4395	0.075	430879	keystroke_p	p	n/a
215.7845	0.09	431569	keystroke_h	h	n/a
215.9945	0.075	431989	keystroke_u	u	n/a
216.0095	0.045	432019	keystroke_i	i	n/a
216.0845	0.09	432169	keystroke_s	s	n/a
216.2195	0.12	432439	keystroke_Key.space	Key.space	n/a
216.5645	0.09	433129	keystroke_Key.backspace	Key.backspace	n/a
216.7295	0.09	433459	keystroke_Key.backspace	Key.backspace	n/a
216.8945	0.18	433789	keystroke_Key.backspace	Key.backspace	n/a
216.9995	0.076	433999	keystroke_i	i	n/a
217.2545	0.09	434509	keystroke_Key.backspace	Key.backspace	n/a
217.4045	0.12	434809	keystroke_Key.backspace	Key.backspace	n/a
217.4495	0.12	434899	keystroke_i	i	n/a
217.5545	0.105	435109	keystroke_s	s	n/a
217.6895	0.12	435379	keystroke_Key.space	Key.space	n/a
218.6645	0.09	437329	keystroke_q	q	n/a
218.7695	0.09	437539	keystroke_u	u	n/a
218.9045	0.075	437809	keystroke_e	e	n/a
219.0845	0.06	438169	keystroke_s	s	n/a
219.1745	0.075	438349	keystroke_t	t	n/a
219.2945	0.075	438589	keystroke_i	i	n/a
219.4595	0.076	438919	keystroke_o	o	n/a
219.5645	0.075	439129	keystroke_n	n	n/a
219.6695	0.105	439339	keystroke_s	s	n/a
219.8645	0.075	439729	keystroke_Key.enter	Key.enter	n/a
219.9455	7.061	439891	prompt	n/a	occurs partner stake richardson\n
220.7645	0.075	441529	keystroke_o	o	n/a
220.8995	0.075	441799	keystroke_c	c	n/a
221.0645	0.06	442129	keystroke_c	c	n/a
221.3345	0.045	442669	keystroke_u	u	n/a
221.3495	0.015	442699	keystroke_i	i	n/a
221.4245	0.06	442849	keystroke_r	r	n/a
221.9645	0.075	443929	keystroke_Key.backspace	Key.backspace	n/a
222.1145	0.09	444229	keystroke_Key.backspace	Key.backspace	n/a
222.2195	0.06	444439	keystroke_r	r	n/a
222.4895	0.075	444979	keystroke_s	s	n/a
222.6245	0.075	445249	keystroke_Key.space	Key.space	n/a
222.8195	0.105	445639	keystroke_p	p	n/a
222.8795	0.09	445759	keystroke_a	a	n/a
223.0445	0.075	446089	keystroke_r	r	n/a
223.2245	0.06	446449	keystroke_t	t	n/a
223.3455	0.074	446691	keystroke_n	n	n/a
223.4345	0.105	446869	keystroke_e	e	n/a
223.4945	0.105	446989	keystroke_r	r	n/a
223.6295	0.075	447259	keystroke_Key.space	Key.space	n/a
223.8845	0.105	447769	keystroke_s	s	n/a
224.0195	0.03	448039	keystroke_s	s	n/a
224.0345	0.06	448069	keystroke_t	t	n/a
224.1395	0.09	448279	keystroke_a	a	n/a
224.2445	0.075	448489	keystroke_k	k	n/a
224.3345	0.06	448669	keystroke_e	e	n/a
224.4245	0.075	448849	keystroke_Key.space	Key.space	n/a
224.6195	0.06	449239	keystroke_r	r	n/a
224.7095	0.075	449419	keystroke_i	i	n/a
224.8295	0.061	449659	keystroke_c	c	n/a
224.9195	0.075	449839	keystroke_h	h	n/a
225.0095	0.09	450019	keystroke_a	a	n/a
226.0445	0.06	452089	keystroke_r	r	n/a
226.2245	0.09	452449	keystroke_d	d	n/a
226.4345	0.075	452869	keystroke_s	s	n/a
226.5245	0.075	453049	keystroke_o	o	n/a
226.6595	0.075	453319	keystroke_n	n	n/a
226.9295	0.075	453859	keystroke_Key.enter	Key.enter	n/a
227.0115	9.1005	454023	prompt	n/a	arranged realistic placing resolution\n
227.6345	0.075	455269	keystroke_a	a	n/a
227.8295	0.075	455659	keystroke_r	r	n/a
227.9795	0.105	455959	keystroke_r	r	n/a
228.1745	0.09	456349	keystroke_a	a	n/a
228.3245	0.075	456649	keystroke_n	n	n/a
228.4145	0.045	456829	keystroke_g	g	n/a
228.5195	0.12	457039	keystroke_e	e	n/a
228.6095	0.12	457219	keystroke_d	d	n/a
229.2845	0.075	458569	keystroke_Key.space	Key.space	n/a
229.6595	0.06	459319	keystroke_r	r	n/a
229.8395	0.06	459679	keystroke_e	e	n/a
229.9445	0.09	459889	keystroke_a	a	n/a
230.0795	0.075	460159	keystroke_l	l	n/a
230.2595	0.075	460519	keystroke_i	i	n/a
230.3495	0.075	460699	keystroke_s	s	n/a
230.5745	0.045	461149	keystroke_t	t	n/a
230.7245	0.075	461449	keystroke_i	i	n/a
230.8295	0.105	461659	keystroke_c	c	n/a
230.9495	0.12	461899	keystroke_Key.space	Key.space	n/a
231.6395	0.015	463279	keystroke_l	l	n/a
231.8345	0.135	463669	keystroke_Key.backspace	Key.backspace	n/a
231.9245	0.165	463849	keystroke_p	p	n/a
232.0595	0.12	464119	keystroke_l	l	n/a
232.1195	0.15	464239	keystroke_a	a	n/a
232.2545	0.105	464509	keystroke_c	c	n/a
232.4345	0.135	464869	keystroke_i	i	n/a
232.5245	0.135	465049	keystroke_n	n	n/a
232.6745	0.06	465349	keystroke_g	g	n/a
232.8395	0.15	465679	keystroke_Key.space	Key.space	n/a
233.3045	0.09	466609	keystroke_r	r	n/a
233.6645	0.075	467329	keystroke_e	e	n/a
233.8745	0.09	467749	keystroke_s	s	n/a
233.9495	0.09	467899	keystroke_o	o	n/a
234.0845	0.105	468169	keystroke_l	l	n/a
234.3395	0.076	468679	keystroke_u	u	n/a
234.5045	0.045	469009	keystroke_t	t	n/a
234.5645	0.09	469129	keystroke_i	i	n/a
234.8195	0.06	469639	keystroke_n	n	n/a
235.2245	0.09	470449	keystroke_Key.backspace	Key.backspace	n/a
235.4795	0.09	470959	keystroke_o	o	n/a
235.7195	0.06	471439	keystroke_n	n	n/a
236.0645	0.045	472129	keystroke_Key.enter	Key.enter	n/a
236.1185	9.038	472237	prompt	n/a	shipments servers grades livecam\n
236.8145	0.09	473629	keystroke_s	s	n/a
236.9195	0.09	473839	keystroke_h	h	n/a
237.1445	0.075	474289	keystroke_i	i	n/a
237.6695	0.09	475339	keystroke_p	p	n/a
238.1045	0.075	476209	keystroke_m	m	n/a
238.2395	0.075	476479	keystroke_e	e	n/a
238.3895	0.075	476779	keystroke_n	n	n/a
238.4795	0.075	476959	keystroke_t	t	n/a
238.7045	0.075	477409	keystroke_s	s	n/a
238.8095	0.06	477619	keystroke_Key.space	Key.space	n/a
239.1545	0.06	478309	keystroke_s	s	n/a
239.4095	0.075	478819	keystroke_e	e	n/a
239.5895	0.09	479179	keystroke_r	r	n/a
239.7695	0.075	479539	keystroke_v	v	n/a
239.9645	0.105	479929	keystroke_e	e	n/a
240.0545	0.075	480109	keystroke_r	r	n/a
240.2195	0.075	480439	keystroke_s	s	n/a
240.3845	0.09	480769	keystroke_Key.space	Key.space	n/a
240.7745	0.09	481549	keystroke_g	g	n/a
240.8945	0.12	481789	keystroke_r	r	n/a
241.0895	0.12	482179	keystroke_a	a	n/a
241.1795	0.12	482359	keystroke_d	d	n/a
241.2695	0.105	482539	keystroke_e	e	n/a
241.4795	0.09	482959	keystroke_s	s	n/a
241.7045	0.09	483409	keystroke_Key.space	Key.space	n/a
242.0195	0.075	484039	keystroke_l	l	n/a
242.1845	0.09	484369	keystroke_i	i	n/a
242.2895	0.075	484579	keystroke_c	c	n/a
242.3945	0.12	484789	keystroke_e	e	n/a
242.7995	0.06	485599	keystroke_Key.backspace	Key.backspace	n/a
242.9195	0.135	485839	keystroke_Key.backspace	Key.backspace	n/a
243.2195	0.09	486439	keystroke_c	c	n/a
243.3695	0.105	486739	keystroke_e	e	n/a
243.7295	0.075	487459	keystroke_Key.backspace	Key.backspace	n/a
243.8945	0.105	487789	keystroke_Key.backspace	Key.backspace	n/a
244.0155	0.074	488031	keystroke_v	v	n/a
244.1495	0.135	488299	keystroke_e	e	n/a
244.5545	0.075	489109	keystroke_c	c	n/a
244.6605	0.104	489321	keystroke_a	a	n/a
244.7795	0.075	489559	keystroke_m	m	n/a
245.0945	0.06	490189	keystroke_Key.enter	Key.enter	n/a
245.1615	14.0205	490323	prompt	n/a	eventually distribution anyway motel\n
245.8305	0.089	491661	keystroke_e	e	n/a
246.0545	0.09	492109	keystroke_c	c	n/a
246.1895	0.09	492379	keystroke_e	e	n/a
246.5345	0.075	493069	keystroke_Key.backspace	Key.backspace	n/a
246.6845	0.105	493369	keystroke_Key.backspace	Key.backspace	n/a
246.8655	0.029	493731	keystroke_e	e	n/a
247.0595	0.046	494119	keystroke_v	v	n/a
247.2245	0.075	494449	keystroke_Key.backspace	Key.backspace	n/a
247.3895	0.105	494779	keystroke_Key.backspace	Key.backspace	n/a
247.4195	0.106	494839	keystroke_v	v	n/a
247.5695	0.09	495139	keystroke_e	e	n/a
247.9595	0.075	495919	keystroke_n	n	n/a
248.2745	0.06	496549	keystroke_t	t	n/a
248.4245	0.075	496849	keystroke_u	u	n/a
248.6205	0.074	497241	keystroke_a	a	n/a
248.6955	0.09	497391	keystroke_l	l	n/a
248.8445	0.105	497689	keystroke_l	l	n/a
249.0095	0.075	498019	keystroke_y	y	n/a
249.5195	0.075	499039	keystroke_Key.space	Key.space	n/a
249.8355	0.075	499671	keystroke_s	s	n/a
250.0895	0.105	500179	keystroke_Key.backspace	Key.backspace	n/a
250.1805	0.119	500361	keystroke_d	d	n/a
250.3595	0.091	500719	keystroke_i	i	n/a
250.6155	0.075	501231	keystroke_s	s	n/a
250.8705	0.059	501741	keystroke_t	t	n/a
252.3105	0.044	504621	keystroke_r	r	n/a
252.4005	0.059	504801	keystroke_i	i	n/a
253.9455	0.045	507891	keystroke_b	b	n/a
254.0805	0.074	508161	keystroke_u	u	n/a
254.6205	0.059	509241	keystroke_t	t	n/a
254.8005	0.059	509601	keystroke_i	i	n/a
254.9495	0.061	509899	keystroke_o	o	n/a
255.0855	0.089	510171	keystroke_n	n	n/a
255.1895	0.105	510379	keystroke_Key.space	Key.space	n/a
256.0905	0.12	512181	keystroke_a	a	n/a
256.2705	0.075	512541	keystroke_n	n	n/a
257.1245	0.075	514249	keystroke_y	y	n/a
257.3645	0.076	514729	keystroke_w	w	n/a
257.6355	0.09	515271	keystroke_a	a	n/a
257.7555	0.074	515511	keystroke_y	y	n/a
257.8905	0.12	515781	keystroke_Key.space	Key.space	n/a
258.2795	0.076	516559	keystroke_m	m	n/a
258.4605	0.09	516921	keystroke_o	o	n/a
258.5805	0.045	517161	keystroke_t	t	n/a
258.7605	0.09	517521	keystroke_e	e	n/a
258.8205	0.09	517641	keystroke_l	l	n/a
259.1045	0.075	518209	keystroke_Key.enter	Key.enter	n/a
259.1875	12.7895	518375	prompt	n/a	lasting encountered special fioricet\n
259.9005	0.09	519801	keystroke_l	l	n/a
260.0955	0.074	520191	keystroke_a	a	n/a
260.1105	0.165	520221	keystroke_s	s	n/a
260.3205	0.06	520641	keystroke_t	t	n/a
260.4105	0.15	520821	keystroke_i	i	n/a
260.5305	0.089	521061	keystroke_n	n	n/a
260.6655	0.075	521331	keystroke_g	g	n/a
260.7845	0.075	521569	keystroke_Key.space	Key.space	n/a
261.1305	0.075	522261	keystroke_e	e	n/a
261.3105	0.135	522621	keystroke_c	c	n/a
261.6545	0.091	523309	keystroke_Key.backspace	Key.backspace	n/a
261.8045	0.076	523609	keystroke_n	n	n/a
261.8955	0.134	523791	keystroke_c	c	n/a
262.0755	0.075	524151	keystroke_o	o	n/a
262.3305	0.119	524661	keystroke_u	u	n/a
262.4205	0.12	524841	keystroke_n	n	n/a
262.5545	0.121	525109	keystroke_t	t	n/a
263.5755	0.15	527151	keystroke_e	e	n/a
263.8755	0.104	527751	keystroke_r	r	n/a
264.0705	0.135	528141	keystroke_e	e	n/a
264.1755	0.105	528351	keystroke_d	d	n/a
264.2955	0.074	528591	keystroke_Key.space	Key.space	n/a
265.0305	0.09	530061	keystroke_s	s	n/a
265.1055	0.09	530211	keystroke_p	p	n/a
265.2405	0.075	530481	keystroke_e	e	n/a
265.3605	0.09	530721	keystroke_c	c	n/a
265.4805	0.075	530961	keystroke_i	i	n/a
265.6005	0.09	531201	keystroke_a	a	n/a
265.7205	0.075	531441	keystroke_l	l	n/a
265.8105	0.105	531621	keystroke_Key.space	Key.space	n/a
268.1685	0.012	536337	keystroke_f	f	n/a
268.2555	0.045	536511	keystroke_i	i	n/a
268.6305	0.105	537261	keystroke_o	o	n/a
269.7855	0.105	539571	keystroke_r	r	n/a
271.3755	0.09	542751	keystroke_c	c	n/a
271.5105	0.15	543021	keystroke_e	e	n/a
271.6755	0.09	543351	keystroke_t	t	n/a
271.8855	0.09	543771	keystroke_Key.enter	Key.enter	n/a
271.9825	7.8695	543965	prompt	n/a	mirror conduct acoustic tile\n
272.5605	0.09	545121	keystroke_m	m	n/a
272.7405	0.06	545481	keystroke_i	i	n/a
272.8305	0.075	545661	keystroke_r	r	n/a
273.1605	0.06	546321	keystroke_r	r	n/a
273.2355	0.105	546471	keystroke_o	o	n/a
273.3555	0.105	546711	keystroke_r	r	n/a
273.4905	0.15	546981	keystroke_Key.space	Key.space	n/a
273.9855	0.105	547971	keystroke_c	c	n/a
274.0755	0.075	548151	keystroke_o	o	n/a
274.2405	0.075	548481	keystroke_n	n	n/a
274.3455	0.135	548691	keystroke_d	d	n/a
274.7805	0.075	549561	keystroke_u	u	n/a
275.2005	0.12	550401	keystroke_c	c	n/a
275.4105	0.09	550821	keystroke_t	t	n/a
275.9505	0.075	551901	keystroke_Key.space	Key.space	n/a
276.3555	0.09	552711	keystroke_a	a	n/a
276.5505	0.075	553101	keystroke_c	c	n/a
277.1355	0.075	554271	keystroke_o	o	n/a
277.3155	0.09	554631	keystroke_u	u	n/a
277.4805	0.06	554961	keystroke_s	s	n/a
277.7205	0.06	555441	keystroke_t	t	n/a
277.8255	0.075	555651	keystroke_i	i	n/a
277.9305	0.105	555861	keystroke_c	c	n/a
278.0655	0.135	556131	keystroke_Key.space	Key.space	n/a
279.0405	0.105	558081	keystroke_t	t	n/a
279.1605	0.075	558321	keystroke_i	i	n/a
279.4005	0.09	558801	keystroke_l	l	n/a
279.4905	0.075	558981	keystroke_e	e	n/a
279.7905	0.06	559581	keystroke_Key.enter	Key.enter	n/a
279.856	7.7065	559712	prompt	n/a	kijiji genre name simple\n
282.3735	0.012	564747	keystroke_k	k	n/a
282.5505	0.105	565101	keystroke_i	i	n/a
283.0605	0.15	566121	keystroke_j	j	n/a
283.2255	0.18	566451	keystroke_i	i	n/a
283.4805	0.105	566961	keystroke_j	j	n/a
283.6005	0.12	567201	keystroke_i	i	n/a
283.8405	0.15	567681	keystroke_Key.space	Key.space	n/a
284.6205	0.105	569241	keystroke_g	g	n/a
284.8155	0.09	569631	keystroke_e	e	n/a
285.1005	0.09	570201	keystroke_n	n	n/a
285.6555	0.15	571311	keystroke_r	r	n/a
285.7605	0.105	571521	keystroke_e	e	n/a
285.9255	0.09	571851	keystroke_Key.space	Key.space	n/a
286.1355	0.075	572271	keystroke_n	n	n/a
286.2255	0.075	572451	keystroke_a	a	n/a
286.3155	0.075	572631	keystroke_m	m	n/a
286.4055	0.06	572811	keystroke_e	e	n/a
286.4955	0.075	572991	keystroke_Key.space	Key.space	n/a
286.6755	0.09	573351	keystroke_s	s	n/a
286.7505	0.105	573501	keystroke_i	i	n/a
286.8705	0.09	573741	keystroke_m	m	n/a
287.0355	0.12	574071	keystroke_p	p	n/a
287.0955	0.15	574191	keystroke_l	l	n/a
287.2305	0.09	574461	keystroke_e	e	n/a
287.5005	0.06	575001	keystroke_Key.enter	Key.enter	n/a
287.571	9.1565	575142	prompt	n/a	errors management confidentiality japanese\n
288.2655	0.09	576531	keystroke_e	e	n/a
288.5055	0.045	577011	keystroke_r	r	n/a
288.7305	0.015	577461	keystroke_r	r	n/a
288.7605	0.09	577521	keystroke_o	o	n/a
288.8355	0.06	577671	keystroke_r	r	n/a
289.0305	0.09	578061	keystroke_s	s	n/a
289.1505	0.06	578301	keystroke_Key.space	Key.space	n/a
289.3155	0.06	578631	keystroke_m	m	n/a
289.4205	0.075	578841	keystroke_a	a	n/a
289.6305	0.076	579261	keystroke_n	n	n/a
289.7205	0.075	579441	keystroke_a	a	n/a
289.8855	0.075	579771	keystroke_g	g	n/a
289.9905	0.135	579981	keystroke_e	e	n/a
290.5305	0.075	581061	keystroke_m	m	n/a
290.6355	0.09	581271	keystroke_e	e	n/a
290.7405	0.075	581481	keystroke_n	n	n/a
290.8605	0.09	581721	keystroke_t	t	n/a
290.9655	0.06	581931	keystroke_Key.space	Key.space	n/a
291.2655	0.105	582531	keystroke_c	c	n/a
291.3555	0.045	582711	keystroke_o	o	n/a
291.4605	0.075	582921	keystroke_n	n	n/a
291.5955	0.105	583191	keystroke_f	f	n/a
291.6855	0.09	583371	keystroke_i	i	n/a
292.2405	0.135	584481	keystroke_d	d	n/a
292.3605	0.105	584721	keystroke_e	e	n/a
292.5255	0.075	585051	keystroke_n	n	n/a
292.7655	0.105	585531	keystroke_t	t	n/a
292.9305	0.105	585861	keystroke_i	i	n/a
293.0955	0.105	586191	keystroke_a	a	n/a
293.2305	0.09	586461	keystroke_l	l	n/a
293.4705	0.09	586941	keystroke_i	i	n/a
293.6055	0.105	587211	keystroke_t	t	n/a
293.8455	0.075	587691	keystroke_y	y	n/a
293.9505	0.12	587901	keystroke_Key.space	Key.space	n/a
294.7605	0.06	589521	keystroke_f	f	n/a
294.9705	0.09	589941	keystroke_Key.backspace	Key.backspace	n/a
295.1205	0.075	590241	keystroke_j	j	n/a
295.2405	0.09	590481	keystroke_a	a	n/a
295.7655	0.075	591531	keystroke_p	p	n/a
295.8855	0.105	591771	keystroke_a	a	n/a
296.0355	0.09	592071	keystroke_n	n	n/a
296.1705	0.09	592341	keystroke_e	e	n/a
296.3505	0.075	592701	keystroke_s	s	n/a
296.5305	0.09	593061	keystroke_e	e	n/a
296.6355	0.09	593271	keystroke_Key.enter	Key.enter	n/a
296.7325	9.343	593465	prompt	n/a	accompanying that'd frequently daisy\n
297.3405	0.105	594681	keystroke_a	a	n/a
297.5955	0.06	595191	keystroke_c	c	n/a
297.7305	0.075	595461	keystroke_c	c	n/a
297.8205	0.09	595641	keystroke_o	o	n/a
297.9705	0.09	595941	keystroke_m	m	n/a
298.1955	0.075	596391	keystroke_p	p	n/a
298.7805	0.09	597561	keystroke_a	a	n/a
298.9005	0.075	597801	keystroke_n	n	n/a
299.0355	0.09	598071	keystroke_y	y	n/a
299.2155	0.075	598431	keystroke_t	t	n/a
299.3055	0.12	598611	keystroke_i	i	n/a
299.4105	0.09	598821	keystroke_n	n	n/a
299.4705	0.09	598941	keystroke_g	g	n/a
299.6055	0.15	599211	keystroke_Key.space	Key.space	n/a
300.9105	0.075	601821	keystroke_t	t	n/a
301.0605	0.09	602121	keystroke_h	h	n/a
301.2705	0.09	602541	keystroke_t	t	n/a
301.5705	0.105	603141	keystroke_Key.backspace	Key.backspace	n/a
301.6305	0.105	603261	keystroke_a	a	n/a
301.7365	0.074	603473	keystroke_t	t	n/a
301.8705	0.09	603741	keystroke_'	'	n/a
302.0805	0.09	604161	keystroke_s	s	n/a
302.2155	0.135	604431	keystroke_Key.space	Key.space	n/a
302.9205	0.135	605841	keystroke_f	f	n/a
303.2055	0.09	606411	keystroke_r	r	n/a
303.4005	0.12	606801	keystroke_e	e	n/a
303.6705	0.075	607341	keystroke_q	q	n/a
303.7755	0.09	607551	keystroke_u	u	n/a
303.9105	0.09	607821	keystroke_e	e	n/a
304.0455	0.075	608091	keystroke_n	n	n/a
304.181	0.09	608362	keystroke_t	t	n/a
304.286	0.09	608572	keystroke_l	l	n/a
304.391	0.105	608782	keystroke_y	y	n/a
304.511	0.105	609022	keystroke_Key.space	Key.space	n/a
305.096	0.12	610192	keystroke_d	d	n/a
305.246	0.105	610492	keystroke_a	a	n/a
305.396	0.105	610792	keystroke_i	i	n/a
305.531	0.09	611062	keystroke_s	s	n/a
305.681	0.06	611362	keystroke_y	y	n/a
306.011	0.06	612022	keystroke_Key.enter	Key.enter	n/a
306.0795	5.078	612159	prompt	n/a	fitting this engine checklist\n
307.016	0.09	614032	keystroke_f	f	n/a
307.136	0.06	614272	keystroke_i	i	n/a
307.271	0.06	614542	keystroke_t	t	n/a
307.436	0.075	614872	keystroke_t	t	n/a
307.526	0.15	615052	keystroke_i	i	n/a
307.646	0.09	615292	keystroke_n	n	n/a
307.751	0.075	615502	keystroke_g	g	n/a
307.856	0.075	615712	keystroke_Key.space	Key.space	n/a
308.261	0.06	616522	keystroke_t	t	n/a
308.306	0.075	616612	keystroke_h	h	n/a
308.471	0.09	616942	keystroke_i	i	n/a
308.576	0.075	617152	keystroke_s	s	n/a
308.636	0.09	617272	keystroke_Key.space	Key.space	n/a
308.771	0.06	617542	keystroke_e	e	n/a
308.846	0.075	617692	keystroke_n	n	n/a
308.936	0.075	617872	keystroke_g	g	n/a
309.012	0.119	618024	keystroke_i	i	n/a
309.101	0.075	618202	keystroke_n	n	n/a
309.146	0.09	618292	keystroke_e	e	n/a
309.251	0.105	618502	keystroke_Key.space	Key.space	n/a
309.416	0.06	618832	keystroke_c	c	n/a
309.521	0.075	619042	keystroke_h	h	n/a
309.956	0.135	619912	keystroke_e	e	n/a
310.061	0.09	620122	keystroke_c	c	n/a
310.181	0.075	620362	keystroke_k	k	n/a
310.421	0.09	620842	keystroke_l	l	n/a
310.691	0.075	621382	keystroke_i	i	n/a
310.766	0.15	621532	keystroke_s	s	n/a
310.901	0.06	621802	keystroke_t	t	n/a
311.081	0.075	622162	keystroke_Key.enter	Key.enter	n/a
311.164	6.1735	622328	prompt	n/a	suzuki turning japan rangers\n
312.161	0.09	624322	keystroke_s	s	n/a
312.341	0.075	624682	keystroke_u	u	n/a
312.461	0.09	624922	keystroke_z	z	n/a
312.686	0.075	625372	keystroke_u	u	n/a
312.971	0.09	625942	keystroke_k	k	n/a
313.106	0.105	626212	keystroke_i	i	n/a
313.256	0.105	626512	keystroke_Key.space	Key.space	n/a
313.646	0.06	627292	keystroke_t	t	n/a
313.766	0.075	627532	keystroke_u	u	n/a
313.856	0.09	627712	keystroke_r	r	n/a
313.961	0.075	627922	keystroke_n	n	n/a
314.096	0.135	628192	keystroke_i	i	n/a
314.186	0.09	628372	keystroke_n	n	n/a
314.291	0.06	628582	keystroke_g	g	n/a
314.366	0.09	628732	keystroke_Key.space	Key.space	n/a
314.726	0.075	629452	keystroke_j	j	n/a
314.831	0.075	629662	keystroke_a	a	n/a
314.951	0.075	629902	keystroke_p	p	n/a
315.041	0.075	630082	keystroke_a	a	n/a
315.206	0.075	630412	keystroke_n	n	n/a
315.341	0.12	630682	keystroke_Key.space	Key.space	n/a
315.776	0.06	631552	keystroke_r	r	n/a
315.941	0.075	631882	keystroke_a	a	n/a
316.661	0.09	633322	keystroke_n	n	n/a
316.766	0.09	633532	keystroke_g	g	n/a
316.931	0.105	633862	keystroke_e	e	n/a
317.006	0.075	634012	keystroke_r	r	n/a
317.171	0.09	634342	keystroke_s	s	n/a
317.276	0.06	634552	keystroke_Key.enter	Key.enter	n/a
317.344	9.144	634688	prompt	n/a	alpha boots copies numerical\n
318.056	0.06	636112	keystroke_a	a	n/a
318.176	0.06	636352	keystroke_l	l	n/a
318.281	0.09	636562	keystroke_p	p	n/a
318.581	0.075	637162	keystroke_h	h	n/a
318.791	0.075	637582	keystroke_a	a	n/a
319.031	0.105	638062	keystroke_Key.space	Key.space	n/a
320.741	0.09	641482	keystroke_b	b	n/a
320.876	0.075	641752	keystroke_o	o	n/a
321.026	0.09	642052	keystroke_o	o	n/a
321.101	0.075	642202	keystroke_t	t	n/a
321.357	0.089	642714	keystroke_s	s	n/a
321.476	0.075	642952	keystroke_Key.space	Key.space	n/a
321.881	0.105	643762	keystroke_c	c	n/a
322.061	0.075	644122	keystroke_o	o	n/a
322.496	0.075	644992	keystroke_p	p	n/a
322.736	0.075	645472	keystroke_i	i	n/a
322.841	0.075	645682	keystroke_e	e	n/a
323.021	0.135	646042	keystroke_s	s	n/a
323.171	0.12	646342	keystroke_Key.space	Key.space	n/a
324.026	0.06	648052	keystroke_n	n	n/a
324.206	0.06	648412	keystroke_u	u	n/a
324.221	0.03	648442	keystroke_i	i	n/a
324.941	0.09	649882	keystroke_Key.backspace	Key.backspace	n/a
325.076	0.09	650152	keystroke_m	m	n/a
325.271	0.15	650542	keystroke_e	e	n/a
325.406	0.075	650812	keystroke_r	r	n/a
325.541	0.09	651082	keystroke_i	i	n/a
325.661	0.135	651322	keystroke_c	c	n/a
325.916	0.09	651832	keystroke_a	a	n/a
326.036	0.075	652072	keystroke_l	l	n/a
326.411	0.075	652822	keystroke_Key.enter	Key.enter	n/a
326.4925	13.9755	652985	prompt	n/a	instructional disc miniature reserve\n
327.6265	0.075	655253	keystroke_i	i	n/a
327.9115	0.09	655823	keystroke_n	n	n/a
328.4515	0.075	656903	keystroke_s	s	n/a
328.6465	0.105	657293	keystroke_t	t	n/a
330.2815	0.06	660563	keystroke_r	r	n/a
330.3865	0.06	660773	keystroke_u	u	n/a
330.4915	0.135	660983	keystroke_c	c	n/a
330.7915	0.075	661583	keystroke_t	t	n/a
330.8815	0.075	661763	keystroke_i	i	n/a
331.0315	0.09	662063	keystroke_o	o	n/a
331.1365	0.09	662273	keystroke_n	n	n/a
331.2565	0.105	662513	keystroke_a	a	n/a
331.4065	0.09	662813	keystroke_l	l	n/a
331.5115	0.105	663023	keystroke_Key.space	Key.space	n/a
332.3515	0.09	664703	keystroke_d	d	n/a
332.4565	0.075	664913	keystroke_i	i	n/a
332.5465	0.105	665093	keystroke_s	s	n/a
332.7115	0.09	665423	keystroke_c	c	n/a
332.8915	0.15	665783	keystroke_Key.space	Key.space	n/a
333.5365	0.09	667073	keystroke_m	m	n/a
333.7015	0.09	667403	keystroke_o	o	n/a
333.8065	0.105	667613	keystroke_n	n	n/a
334.1665	0.075	668333	keystroke_Key.backspace	Key.backspace	n/a
334.3165	0.105	668633	keystroke_Key.backspace	Key.backspace	n/a
334.3765	0.105	668753	keystroke_o	o	n/a
334.5415	0.075	669083	keystroke_n	n	n/a
334.6465	0.075	669293	keystroke_i	i	n/a
334.8565	0.06	669713	keystroke_Key.backspace	Key.backspace	n/a
335.0215	0.075	670043	keystroke_Key.backspace	Key.backspace	n/a
335.1715	0.105	670343	keystroke_Key.backspace	Key.backspace	n/a
335.3965	0.105	670793	keystroke_i	i	n/a
335.5765	0.075	671153	keystroke_n	n	n/a
335.6665	0.105	671333	keystroke_i	i	n/a
335.9065	0.075	671813	keystroke_a	a	n/a
336.0265	0.075	672053	keystroke_t	t	n/a
336.1465	0.09	672293	keystroke_u	u	n/a
336.2215	0.135	672443	keystroke_r	r	n/a
336.3115	0.12	672623	keystroke_e	e	n/a
336.5815	0.075	673163	keystroke_Key.space	Key.space	n/a
336.8515	0.075	673703	keystroke_d	d	n/a
337.0915	0.09	674183	keystroke_Key.backspace	Key.backspace	n/a
337.1665	0.12	674333	keystroke_r	r	n/a
337.2415	0.12	674483	keystroke_e	e	n/a
337.6315	0.09	675263	keystroke_s	s	n/a
337.8415	0.09	675683	keystroke_e	e	n/a
338.0065	0.12	676013	keystroke_r	r	n/a
338.2465	0.075	676493	keystroke_v	v	n/a
338.2615	0.06	676523	keystroke_c	c	n/a
338.3965	0.12	676793	keystroke_e	e	n/a
338.4115	0.15	676823	keystroke_Key.space	Key.space	n/a
338.8465	0.09	677693	keystroke_Key.backspace	Key.backspace	n/a
338.9965	0.09	677993	keystroke_Key.backspace	Key.backspace	n/a
339.2815	0.105	678563	keystroke_e	e	n/a
339.3715	0.09	678743	keystroke_Key.space	Key.space	n/a
339.5065	0.135	679013	keystroke_Key.backspace	Key.backspace	n/a
339.7165	0.075	679433	keystroke_Key.backspace	Key.backspace	n/a
339.8665	0.105	679733	keystroke_Key.backspace	Key.backspace	n/a
339.9415	0.105	679883	keystroke_e	e	n/a
340.0615	0.06	680123	keystroke_Key.space	Key.space	n/a
340.2115	0.09	680423	keystroke_Key.backspace	Key.backspace	n/a
340.4065	0.06	680813	keystroke_Key.enter	Key.enter	n/a
340.4745	4.869	680949	prompt	n/a	sewing lock changed posts\n
341.0515	0.09	682103	keystroke_s	s	n/a
341.2765	0.09	682553	keystroke_e	e	n/a
341.4865	0.105	682973	keystroke_q	q	n/a
341.8015	0.075	683603	keystroke_Key.backspace	Key.backspace	n/a
341.9365	0.075	683873	keystroke_w	w	n/a
341.9965	0.12	683993	keystroke_i	i	n/a
342.0865	0.105	684173	keystroke_n	n	n/a
342.1765	0.105	684353	keystroke_g	g	n/a
342.3115	0.135	684623	keystroke_Key.space	Key.space	n/a
342.7315	0.075	685463	keystroke_l	l	n/a
342.8815	0.09	685763	keystroke_o	o	n/a
342.9865	0.075	685973	keystroke_c	c	n/a
343.1065	0.075	686213	keystroke_k	k	n/a
343.1965	0.09	686393	keystroke_Key.space	Key.space	n/a
343.5115	0.09	687023	keystroke_c	c	n/a
343.6465	0.09	687293	keystroke_h	h	n/a
343.7515	0.12	687503	keystroke_a	a	n/a
343.9315	0.075	687863	keystroke_n	n	n/a
344.0215	0.075	688043	keystroke_g	g	n/a
344.1415	0.165	688283	keystroke_e	e	n/a
344.2615	0.135	688523	keystroke_d	d	n/a
344.4125	0.044	688825	keystroke_Key.space	Key.space	n/a
344.5915	0.09	689183	keystroke_p	p	n/a
344.7415	0.12	689483	keystroke_o	o	n/a
344.8465	0.135	689693	keystroke_s	s	n/a
344.9515	0.06	689903	keystroke_t	t	n/a
345.1015	0.09	690203	keystroke_s	s	n/a
345.2665	0.075	690533	keystroke_Key.enter	Key.enter	n/a
345.3535	12.185	690707	prompt	n/a	context interim sweden vacations\n
345.9115	0.06	691823	keystroke_c	c	n/a
345.9865	0.09	691973	keystroke_o	o	n/a
346.1215	0.03	692243	keystroke_j	j	n/a
346.2565	0.075	692513	keystroke_t	t	n/a
346.5115	0.06	693023	keystroke_Key.backspace	Key.backspace	n/a
346.9465	0.105	693893	keystroke_Key.backspace	Key.backspace	n/a
347.0665	0.075	694133	keystroke_b	b	n/a
347.1715	0.09	694343	keystroke_t	t	n/a
347.4265	0.06	694853	keystroke_Key.backspace	Key.backspace	n/a
347.5765	0.135	695153	keystroke_Key.backspace	Key.backspace	n/a
347.6815	0.075	695363	keystroke_n	n	n/a
347.7715	0.105	695543	keystroke_t	t	n/a
347.8915	0.195	695783	keystroke_e	e	n/a
348.0565	0.09	696113	keystroke_x	x	n/a
348.2665	0.09	696533	keystroke_t	t	n/a
348.4015	0.075	696803	keystroke_Key.space	Key.space	n/a
348.9865	0.06	697973	keystroke_l	l	n/a
349.1815	0.06	698363	keystroke_i	i	n/a
349.8415	0.06	699683	keystroke_Key.backspace	Key.backspace	n/a
349.9915	0.09	699983	keystroke_n	n	n/a
350.7865	0.075	701573	keystroke_Key.backspace	Key.backspace	n/a
350.9515	0.075	701903	keystroke_Key.backspace	Key.backspace	n/a
351.0865	0.06	702173	keystroke_i	i	n/a
351.1765	0.12	702353	keystroke_n	n	n/a
351.8515	0.09	703703	keystroke_t	t	n/a
352.0015	0.12	704003	keystroke_e	e	n/a
352.0915	0.09	704183	keystroke_r	r	n/a
352.7965	0.105	705593	keystroke_i	i	n/a
352.9315	0.075	705863	keystroke_m	m	n/a
353.0515	0.1195	706103	keystroke_Key.space	Key.space	n/a
353.576	0.091	707152	keystroke_s	s	n/a
353.802	0.104	707604	keystroke_e	e	n/a
354.071	0.12	708142	keystroke_Key.backspace	Key.backspace	n/a
354.177	0.075	708354	keystroke_w	w	n/a
354.491	0.105	708982	keystroke_e	e	n/a
354.746	0.136	709492	keystroke_d	d	n/a
354.851	0.105	709702	keystroke_e	e	n/a
355.016	0.075	710032	keystroke_n	n	n/a
355.151	0.12	710302	keystroke_Key.space	Key.space	n/a
355.631	0.106	711262	keystroke_v	v	n/a
355.901	0.09	711802	keystroke_a	a	n/a
356.096	0.09	712192	keystroke_c	c	n/a
356.336	0.091	712672	keystroke_a	a	n/a
356.561	0.075	713122	keystroke_t	t	n/a
356.681	0.076	713362	keystroke_i	i	n/a
356.832	0.09	713664	keystroke_o	o	n/a
356.966	0.09	713932	keystroke_n	n	n/a
357.236	0.09	714472	keystroke_s	s	n/a
357.477	0.059	714954	keystroke_Key.enter	Key.enter	n/a
357.5445	11.8295	715089	prompt	n/a	included movies seriously concentrate\n
358.196	0.106	716392	keystroke_i	i	n/a
358.392	0.06	716784	keystroke_n	n	n/a
358.541	0.091	717082	keystroke_c	c	n/a
358.616	0.091	717232	keystroke_l	l	n/a
358.797	0.089	717594	keystroke_u	u	n/a
358.902	0.089	717804	keystroke_d	d	n/a
359.066	0.12	718132	keystroke_e	e	n/a
359.157	0.09	718314	keystroke_d	d	n/a
359.321	0.075	718642	keystroke_Key.space	Key.space	n/a
359.592	0.074	719184	keystroke_m	m	n/a
359.742	0.12	719484	keystroke_o	o	n/a
359.847	0.09	719694	keystroke_c	c	n/a
359.981	0.091	719962	keystroke_i	i	n/a
360.222	0.059	720444	keystroke_Key.backspace	Key.backspace	n/a
360.356	0.121	720712	keystroke_Key.backspace	Key.backspace	n/a
360.447	0.075	720894	keystroke_v	v	n/a
360.552	0.089	721104	keystroke_i	i	n/a
360.657	0.059	721314	keystroke_e	e	n/a
360.852	0.075	721704	keystroke_s	s	n/a
361.002	0.074	722004	keystroke_Key.space	Key.space	n/a
361.407	0.045	722814	keystroke_s	s	n/a
361.572	0.059	723144	keystroke_e	e	n/a
361.752	0.089	723504	keystroke_r	r	n/a
361.827	0.06	723654	keystroke_i	i	n/a
361.977	0.075	723954	keystroke_o	o	n/a
362.157	0.075	724314	keystroke_u	u	n/a
362.247	0.075	724494	keystroke_s	s	n/a
362.367	0.089	724734	keystroke_l	l	n/a
362.502	0.075	725004	keystroke_y	y	n/a
362.636	0.075	725272	keystroke_Key.space	Key.space	n/a
362.802	0.09	725604	keystroke_c	c	n/a
362.937	0.089	725874	keystroke_o	o	n/a
363.057	0.09	726114	keystroke_n	n	n/a
363.206	0.121	726412	keystroke_c	c	n/a
363.341	0.076	726682	keystroke_e	e	n/a
363.522	0.075	727044	keystroke_r	r	n/a
364.047	0.105	728094	keystroke_t	t	n/a
364.407	0.24	728814	keystroke_a	a	n/a
364.827	0.105	729654	keystroke_t	t	n/a
365.501	0.06	731002	keystroke_Key.backspace	Key.backspace	n/a
365.666	0.091	731332	keystroke_Key.backspace	Key.backspace	n/a
366.386	0.12	732772	keystroke_Key.backspace	Key.backspace	n/a
366.972	0.075	733944	keystroke_Key.backspace	Key.backspace	n/a
367.137	0.075	734274	keystroke_n	n	n/a
367.752	0.06	735504	keystroke_t	t	n/a
367.947	0.15	735894	keystroke_r	r	n/a
368.172	0.15	736344	keystroke_e	e	n/a
368.516	0.091	737032	keystroke_Key.backspace	Key.backspace	n/a
368.608	0.089	737216	keystroke_a	a	n/a
368.697	0.105	737394	keystroke_t	t	n/a
368.787	0.12	737574	keystroke_e	e	n/a
368.892	0.12	737784	keystroke_Key.space	Key.space	n/a
369.132	0.104	738264	keystroke_Key.backspace	Key.backspace	n/a
369.297	0.075	738594	keystroke_Key.enter	Key.enter	n/a
369.381	12.383	738762	prompt	n/a	selections guidance do prairie\n
369.927	0.075	739854	keystroke_s	s	n/a
370.017	0.075	740034	keystroke_o	o	n/a
370.302	0.09	740604	keystroke_l	l	n/a
370.572	0.06	741144	keystroke_Key.backspace	Key.backspace	n/a
370.722	0.105	741444	keystroke_Key.backspace	Key.backspace	n/a
370.812	0.075	741624	keystroke_e	e	n/a
370.902	0.075	741804	keystroke_l	l	n/a
371.007	0.09	742014	keystroke_e	e	n/a
371.111	0.106	742222	keystroke_c	c	n/a
371.292	0.075	742584	keystroke_t	t	n/a
371.562	0.06	743124	keystroke_i	i	n/a
371.727	0.105	743454	keystroke_o	o	n/a
371.877	0.1045	743754	keystroke_n	n	n/a
372.0265	0.135	744053	keystroke_Key.space	Key.space	n/a
372.6415	0.105	745283	keystroke_Key.backspace	Key.backspace	n/a
372.7315	0.12	745463	keystroke_s	s	n/a
372.8665	0.12	745733	keystroke_Key.space	Key.space	n/a
373.3615	0.075	746723	keystroke_g	g	n/a
373.5415	0.06	747083	keystroke_u	u	n/a
373.6915	0.075	747383	keystroke_i	i	n/a
373.7675	0.089	747535	keystroke_c	c	n/a
373.8865	0.075	747773	keystroke_a	a	n/a
374.1115	0.075	748223	keystroke_Key.backspace	Key.backspace	n/a
374.2615	0.12	748523	keystroke_Key.backspace	Key.backspace	n/a
374.4415	0.075	748883	keystroke_a	a	n/a
374.6965	0.12	749393	keystroke_Key.backspace	Key.backspace	n/a
374.7725	0.104	749545	keystroke_f	f	n/a
374.9815	0.09	749963	keystroke_a	a	n/a
375.2365	0.075	750473	keystroke_Key.backspace	Key.backspace	n/a
375.3715	0.135	750743	keystroke_Key.backspace	Key.backspace	n/a
375.4325	0.104	750865	keystroke_d	d	n/a
375.5515	0.105	751103	keystroke_a	a	n/a
375.7165	0.045	751433	keystroke_n	n	n/a
375.7465	0.12	751493	keystroke_c	c	n/a
375.8815	0.135	751763	keystroke_e	e	n/a
375.9265	0.135	751853	keystroke_Key.space	Key.space	n/a
376.6165	0.09	753233	keystroke_d	d	n/a
376.6915	0.09	753383	keystroke_o	o	n/a
376.8115	0.09	753623	keystroke_Key.space	Key.space	n/a
377.0065	0.09	754013	keystroke_p	p	n/a
377.1115	0.075	754223	keystroke_r	r	n/a
377.2915	0.136	754583	keystroke_a	a	n/a
377.4415	0.09	754883	keystroke_r	r	n/a
377.7565	0.09	755513	keystroke_i	i	n/a
381.0455	0.101	762091	keystroke_r	r	n/a
381.1315	0.105	762263	keystroke_e	e	n/a
381.2215	0.135	762443	keystroke_Key.space	Key.space	n/a
381.4315	0.105	762863	keystroke_Key.backspace	Key.backspace	n/a
381.7015	0.06	763403	keystroke_Key.enter	Key.enter	n/a
381.772	8.857	763544	prompt	n/a	pour pursue deputy metals\n
382.4375	0.044	764875	keystroke_p	p	n/a
383.1275	0.03	766255	keystroke_u	u	n/a
383.2175	0.089	766435	keystroke_t	t	n/a
383.5165	0.06	767033	keystroke_Key.backspace	Key.backspace	n/a
383.6515	0.135	767303	keystroke_Key.backspace	Key.backspace	n/a
383.7275	0.09	767455	keystroke_o	o	n/a
383.9375	0.074	767875	keystroke_u	u	n/a
384.0125	0.104	768025	keystroke_t	t	n/a
384.1615	0.15	768323	keystroke_Key.space	Key.space	n/a
384.6265	0.06	769253	keystroke_Key.backspace	Key.backspace	n/a
384.7615	0.12	769523	keystroke_Key.backspace	Key.backspace	n/a
384.7925	0.119	769585	keystroke_r	r	n/a
384.9265	0.165	769853	keystroke_Key.space	Key.space	n/a
385.7225	0.074	771445	keystroke_p	p	n/a
385.9625	0.075	771925	keystroke_u	u	n/a
386.1125	0.06	772225	keystroke_r	r	n/a
386.6675	0.089	773335	keystroke_s	s	n/a
386.8325	0.045	773665	keystroke_u	u	n/a
386.9675	0.18	773935	keystroke_r	r	n/a
387.3865	0.091	774773	keystroke_Key.backspace	Key.backspace	n/a
387.4325	0.134	774865	keystroke_e	e	n/a
387.5365	0.12	775073	keystroke_Key.space	Key.space	n/a
388.2415	0.151	776483	keystroke_d	d	n/a
388.3615	0.091	776723	keystroke_e	e	n/a
388.4675	0.074	776935	keystroke_p	p	n/a
388.6915	0.075	777383	keystroke_u	u	n/a
388.7965	0.09	777593	keystroke_t	t	n/a
388.9315	0.075	777863	keystroke_y	y	n/a
389.0365	0.12	778073	keystroke_Key.space	Key.space	n/a
389.8315	0.061	779663	keystroke_m	m	n/a
389.9225	0.105	779845	keystroke_e	e	n/a
390.0575	0.074	780115	keystroke_t	t	n/a
390.1925	0.089	780385	keystroke_a	a	n/a
390.2975	0.059	780595	keystroke_l	l	n/a
390.4015	0.106	780803	keystroke_s	s	n/a
390.5525	0.075	781105	keystroke_Key.enter	Key.enter	n/a
390.634	10.6745	781268	prompt	n/a	morrison cams slowly chemicals\n
391.3775	0.06	782755	keystroke_h	h	n/a
391.5575	0.075	783115	keystroke_o	o	n/a
391.6925	0.12	783385	keystroke_r	r	n/a
391.9025	0.075	783805	keystroke_r	r	n/a
392.3225	0.074	784645	keystroke_Key.backspace	Key.backspace	n/a
392.4865	0.075	784973	keystroke_Key.backspace	Key.backspace	n/a
392.6225	0.105	785245	keystroke_Key.backspace	Key.backspace	n/a
392.8165	0.105	785633	keystroke_Key.backspace	Key.backspace	n/a
393.0725	0.104	786145	keystroke_m	m	n/a
393.2675	0.075	786535	keystroke_i	i	n/a
393.7025	0.089	787405	keystroke_Key.backspace	Key.backspace	n/a
393.7475	0.12	787495	keystroke_o	o	n/a
394.2415	0.076	788483	keystroke_r	r	n/a
394.4375	0.06	788875	keystroke_r	r	n/a
394.5575	0.075	789115	keystroke_i	i	n/a
394.7075	0.105	789415	keystroke_s	s	n/a
394.7975	0.045	789595	keystroke_o	o	n/a
394.9475	0.059	789895	keystroke_n	n	n/a
395.9365	0.106	791873	keystroke_Key.space	Key.space	n/a
396.2225	0.075	792445	keystroke_c	c	n/a
396.4475	0.09	792895	keystroke_a	a	n/a
396.5675	0.09	793135	keystroke_m	m	n/a
396.6725	0.135	793345	keystroke_s	s	n/a
396.7925	0.12	793585	keystroke_Key.space	Key.space	n/a
397.1825	0.09	794365	keystroke_s	s	n/a
397.3025	0.075	794605	keystroke_l	l	n/a
397.4675	0.045	794935	keystroke_o	o	n/a
397.5425	0.105	795085	keystroke_t	t	n/a
397.9475	0.03	795895	keystroke_Key.backspace	Key.backspace	n/a
398.7875	0.075	797575	keystroke_w	w	n/a
398.9075	0.09	797815	keystroke_l	l	n/a
399.0425	0.03	798085	keystroke_t	t	n/a
399.3875	0.105	798775	keystroke_Key.backspace	Key.backspace	n/a
399.5225	0.075	799045	keystroke_y	y	n/a
400.0025	0.074	800005	keystroke_Key.space	Key.space	n/a
400.2125	0.105	800425	keystroke_c	c	n/a
400.3625	0.06	800725	keystroke_h	h	n/a
400.4375	0.09	800875	keystroke_e	e	n/a
400.5575	0.105	801115	keystroke_m	m	n/a
400.7075	0.075	801415	keystroke_i	i	n/a
400.7525	0.105	801505	keystroke_c	c	n/a
400.8725	0.09	801745	keystroke_a	a	n/a
400.9775	0.09	801955	keystroke_l	l	n/a
401.0825	0.09	802165	keystroke_s	s	n/a
401.2325	0.074	802465	keystroke_Key.enter	Key.enter	n/a
401.3125	13.467	802625	prompt	n/a	dependent tulsa harassment strengthen\n
402.0425	0.135	804085	keystroke_d	d	n/a
402.1475	0.105	804295	keystroke_e	e	n/a
402.372	0.105	804744	keystroke_p	p	n/a
402.777	0.06	805554	keystroke_e	e	n/a
402.957	0.075	805914	keystroke_n	n	n/a
403.167	0.06	806334	keystroke_d	d	n/a
403.557	0.075	807114	keystroke_e	e	n/a
403.693	0.059	807386	keystroke_n	n	n/a
403.797	0.09	807594	keystroke_t	t	n/a
403.947	0.075	807894	keystroke_Key.space	Key.space	n/a
404.427	0.075	808854	keystroke_l	l	n/a
404.652	0.06	809304	keystroke_u	u	n/a
405.117	0.09	810234	keystroke_Key.backspace	Key.backspace	n/a
405.267	0.12	810534	keystroke_Key.backspace	Key.backspace	n/a
405.342	0.09	810684	keystroke_t	t	n/a
405.867	0.06	811734	keystroke_u	u	n/a
406.062	0.075	812124	keystroke_l	l	n/a
406.212	0.091	812424	keystroke_s	s	n/a
406.497	0.09	812994	keystroke_a	a	n/a
406.632	0.135	813264	keystroke_Key.space	Key.space	n/a
407.232	0.06	814464	keystroke_h	h	n/a
407.307	0.105	814614	keystroke_a	a	n/a
407.487	0.09	814974	keystroke_r	r	n/a
407.817	0.105	815634	keystroke_a	a	n/a
408.102	0.075	816204	keystroke_s	s	n/a
408.252	0.09	816504	keystroke_s	s	n/a
408.717	0.075	817434	keystroke_e	e	n/a
408.957	0.12	817914	keystroke_Key.backspace	Key.backspace	n/a
409.107	0.105	818214	keystroke_m	m	n/a
409.227	0.09	818454	keystroke_e	e	n/a
409.347	0.09	818694	keystroke_n	n	n/a
409.452	0.09	818904	keystroke_t	t	n/a
409.602	0.075	819204	keystroke_Key.space	Key.space	n/a
410.668	0.089	821336	keystroke_s	s	n/a
410.832	0.091	821664	keystroke_t	t	n/a
412.227	0.076	824454	keystroke_r	r	n/a
412.318	0.075	824636	keystroke_e	e	n/a
412.482	0.046	824964	keystroke_n	n	n/a
412.663	0.105	825326	keystroke_g	g	n/a
413.728	0.074	827456	keystroke_t	t	n/a
413.848	0.074	827696	keystroke_h	h	n/a
414.177	0.106	828354	keystroke_e	e	n/a
414.313	0.104	828626	keystroke_n	n	n/a
414.702	0.075	829404	keystroke_Key.enter	Key.enter	n/a
414.7835	7.841	829567	prompt	n/a	hobbies coaching technology accepts\n
415.663	0.044	831326	keystroke_h	h	n/a
415.842	0.121	831684	keystroke_o	o	n/a
415.948	0.059	831896	keystroke_b	b	n/a
416.112	0.06	832224	keystroke_b	b	n/a
416.203	0.074	832406	keystroke_i	i	n/a
416.337	0.09	832674	keystroke_e	e	n/a
416.562	0.06	833124	keystroke_s	s	n/a
416.667	0.06	833334	keystroke_Key.space	Key.space	n/a
417.012	0.076	834024	keystroke_c	c	n/a
417.102	0.105	834204	keystroke_o	o	n/a
417.222	0.075	834444	keystroke_a	a	n/a
417.313	0.089	834626	keystroke_s	s	n/a
417.702	0.075	835404	keystroke_Key.backspace	Key.backspace	n/a
417.793	0.089	835586	keystroke_c	c	n/a
417.913	0.06	835826	keystroke_h	h	n/a
418.062	0.135	836124	keystroke_i	i	n/a
418.168	0.09	836336	keystroke_n	n	n/a
418.273	0.059	836546	keystroke_g	g	n/a
418.362	0.09	836724	keystroke_Key.space	Key.space	n/a
418.843	0.059	837686	keystroke_t	t	n/a
419.052	0.091	838104	keystroke_e	e	n/a
419.128	0.105	838256	keystroke_c	c	n/a
419.247	0.076	838494	keystroke_h	h	n/a
419.547	0.076	839094	keystroke_n	n	n/a
419.802	0.106	839604	keystroke_o	o	n/a
420.043	0.089	840086	keystroke_l	l	n/a
420.163	0.104	840326	keystroke_o	o	n/a
420.328	0.075	840656	keystroke_g	g	n/a
420.478	0.059	840956	keystroke_y	y	n/a
420.552	0.15	841104	keystroke_Key.space	Key.space	n/a
421.378	0.075	842756	keystroke_a	a	n/a
421.528	0.075	843056	keystroke_c	c	n/a
421.678	0.09	843356	keystroke_c	c	n/a
421.782	0.091	843564	keystroke_e	e	n/a
421.948	0.089	843896	keystroke_p	p	n/a
422.068	0.044	844136	keystroke_t	t	n/a
422.293	0.09	844586	keystroke_s	s	n/a
422.548	0.074	845096	keystroke_Key.enter	Key.enter	n/a
422.629	7.0305	845258	prompt	n/a	walker measures blue adelaide\n
423.193	0.075	846386	keystroke_w	w	n/a
423.388	0.089	846776	keystroke_a	a	n/a
423.462	0.091	846924	keystroke_l	l	n/a
423.627	0.076	847254	keystroke_k	k	n/a
423.688	0.12	847376	keystroke_e	e	n/a
423.793	0.075	847586	keystroke_r	r	n/a
423.927	0.06	847854	keystroke_Key.space	Key.space	n/a
424.108	0.09	848216	keystroke_m	m	n/a
424.183	0.075	848366	keystroke_e	e	n/a
424.318	0.12	848636	keystroke_a	a	n/a
424.393	0.15	848786	keystroke_s	s	n/a
424.648	0.089	849296	keystroke_u	u	n/a
424.753	0.165	849506	keystroke_r	r	n/a
424.918	0.075	849836	keystroke_e	e	n/a
425.503	0.09	851006	keystroke_s	s	n/a
425.668	0.089	851336	keystroke_Key.space	Key.space	n/a
425.968	0.06	851936	keystroke_b	b	n/a
426.057	0.076	852114	keystroke_l	l	n/a
426.238	0.089	852476	keystroke_u	u	n/a
426.298	0.104	852596	keystroke_e	e	n/a
426.403	0.119	852806	keystroke_Key.space	Key.space	n/a
426.703	0.12	853406	keystroke_a	a	n/a
427.108	0.075	854216	keystroke_d	d	n/a
427.288	0.089	854576	keystroke_e	e	n/a
427.633	0.12	855266	keystroke_l	l	n/a
428.533	0.06	857066	keystroke_i	i	n/a
428.563	0.075	857126	keystroke_a	a	n/a
428.818	0.06	857636	keystroke_Key.backspace	Key.backspace	n/a
428.952	0.106	857904	keystroke_Key.backspace	Key.backspace	n/a
429.088	0.09	858176	keystroke_a	a	n/a
429.193	0.09	858386	keystroke_i	i	n/a
429.298	0.09	858596	keystroke_d	d	n/a
429.358	0.09	858716	keystroke_e	e	n/a
429.583	0.075	859166	keystroke_Key.enter	Key.enter	n/a
429.6635	5.666	859327	prompt	n/a	share utility suse licensing\n
430.333	0.09	860666	keystroke_s	s	n/a
430.453	0.09	860906	keystroke_h	h	n/a
430.528	0.09	861056	keystroke_a	a	n/a
430.633	0.105	861266	keystroke_r	r	n/a
430.753	0.075	861506	keystroke_e	e	n/a
430.873	0.09	861746	keystroke_Key.space	Key.space	n/a
431.113	0.06	862226	keystroke_u	u	n/a
431.473	0.06	862946	keystroke_t	t	n/a
431.593	0.09	863186	keystroke_i	i	n/a
431.788	0.06	863576	keystroke_l	l	n/a
431.953	0.09	863906	keystroke_i	i	n/a
432.148	0.09	864296	keystroke_t	t	n/a
432.553	0.075	865106	keystroke_y	y	n/a
432.703	0.09	865406	keystroke_Key.space	Key.space	n/a
433.393	0.105	866786	keystroke_s	s	n/a
433.573	0.06	867146	keystroke_u	u	n/a
433.663	0.06	867326	keystroke_s	s	n/a
433.828	0.075	867656	keystroke_e	e	n/a
433.918	0.075	867836	keystroke_Key.space	Key.space	n/a
434.158	0.06	868316	keystroke_l	l	n/a
434.308	0.075	868616	keystroke_i	i	n/a
434.413	0.09	868826	keystroke_c	c	n/a
434.473	0.105	868946	keystroke_e	e	n/a
434.608	0.075	869216	keystroke_n	n	n/a
434.758	0.105	869516	keystroke_s	s	n/a
434.878	0.12	869756	keystroke_i	i	n/a
434.953	0.09	869906	keystroke_n	n	n/a
435.058	0.09	870116	keystroke_g	g	n/a
435.268	0.06	870536	keystroke_Key.enter	Key.enter	n/a
435.335	6.3095	870670	prompt	n/a	dealer pepper danish properly\n
435.958	0.12	871916	keystroke_d	d	n/a
436.093	0.12	872186	keystroke_e	e	n/a
436.243	0.075	872486	keystroke_a	a	n/a
436.333	0.075	872666	keystroke_l	l	n/a
436.873	0.135	873746	keystroke_e	e	n/a
436.948	0.12	873896	keystroke_r	r	n/a
437.113	0.09	874226	keystroke_Key.space	Key.space	n/a
437.368	0.09	874736	keystroke_p	p	n/a
437.443	0.12	874886	keystroke_e	e	n/a
437.863	0.06	875726	keystroke_p	p	n/a
437.998	0.09	875996	keystroke_p	p	n/a
438.103	0.105	876206	keystroke_e	e	n/a
438.163	0.09	876326	keystroke_r	r	n/a
438.283	0.075	876566	keystroke_Key.space	Key.space	n/a
438.493	0.09	876986	keystroke_d	d	n/a
438.613	0.09	877226	keystroke_a	a	n/a
438.763	0.09	877526	keystroke_n	n	n/a
438.958	0.075	877916	keystroke_i	i	n/a
439.0625	0.0605	878125	keystroke_s	s	n/a
439.183	0.0595	878366	keystroke_h	h	n/a
439.2875	0.12	878575	keystroke_Key.space	Key.space	n/a
439.6025	0.09	879205	keystroke_p	p	n/a
439.9625	0.0905	879925	keystroke_r	r	n/a
440.0675	0.075	880135	keystroke_o	o	n/a
440.2625	0.0905	880525	keystroke_p	p	n/a
440.3675	0.12	880735	keystroke_e	e	n/a
440.4725	0.075	880945	keystroke_r	r	n/a
440.5625	0.075	881125	keystroke_l	l	n/a
440.7725	0.105	881545	keystroke_y	y	n/a
440.983	0.0295	881966	keystroke_y	y	n/a
441.2975	0.135	882595	keystroke_Key.backspace	Key.backspace	n/a
441.5675	0.075	883135	keystroke_Key.enter	Key.enter	n/a
441.649	7.375	883298	prompt	n/a	operator historic julian putting\n
442.2275	0.09	884455	keystroke_o	o	n/a
442.4375	0.09	884875	keystroke_p	p	n/a
442.5125	0.105	885025	keystroke_e	e	n/a
442.5725	0.105	885145	keystroke_r	r	n/a
442.7675	0.06	885535	keystroke_a	a	n/a
442.8575	0.09	885715	keystroke_t	t	n/a
443.0525	0.09	886105	keystroke_o	o	n/a
443.1575	0.075	886315	keystroke_r	r	n/a
443.2775	0.09	886555	keystroke_Key.space	Key.space	n/a
443.6375	0.06	887275	keystroke_h	h	n/a
443.8175	0.075	887635	keystroke_i	i	n/a
443.9075	0.075	887815	keystroke_s	s	n/a
444.4625	0.06	888925	keystroke_t	t	n/a
444.5825	0.06	889165	keystroke_o	o	n/a
444.6875	0.075	889375	keystroke_r	r	n/a
445.1225	0.075	890245	keystroke_i	i	n/a
445.2125	0.12	890425	keystroke_c	c	n/a
445.3625	0.12	890725	keystroke_Key.space	Key.space	n/a
446.3675	0.045	892735	keystroke_j	j	n/a
446.4425	0.105	892885	keystroke_u	u	n/a
446.6825	0.075	893365	keystroke_l	l	n/a
446.8925	0.06	893785	keystroke_i	i	n/a
447.0125	0.075	894025	keystroke_a	a	n/a
447.1325	0.075	894265	keystroke_n	n	n/a
447.2375	0.12	894475	keystroke_Key.space	Key.space	n/a
447.4775	0.045	894955	keystroke_o	o	n/a
447.8525	0.12	895705	keystroke_Key.backspace	Key.backspace	n/a
447.9275	0.09	895855	keystroke_p	p	n/a
448.1825	0.075	896365	keystroke_u	u	n/a
448.3025	0.06	896605	keystroke_t	t	n/a
448.4675	0.06	896935	keystroke_t	t	n/a
448.4975	0.165	896995	keystroke_i	i	n/a
448.6325	0.075	897265	keystroke_n	n	n/a
448.7225	0.06	897445	keystroke_g	g	n/a
448.9325	0.09	897865	keystroke_Key.enter	Key.enter	n/a
449.029	14.966	898058	prompt	n/a	objective specified qualify academics\n
449.8025	0.075	899605	keystroke_o	o	n/a
450.1325	0.06	900265	keystroke_b	b	n/a
450.2975	0.06	900595	keystroke_j	j	n/a
450.4475	0.12	900895	keystroke_e	e	n/a
450.5525	0.12	901105	keystroke_c	c	n/a
450.9125	0.09	901825	keystroke_t	t	n/a
451.0925	0.075	902185	keystroke_i	i	n/a
451.1525	0.075	902305	keystroke_v	v	n/a
451.3175	0.105	902635	keystroke_e	e	n/a
451.4075	0.135	902815	keystroke_Key.space	Key.space	n/a
452.2325	0.075	904465	keystroke_s	s	n/a
452.3225	0.09	904645	keystroke_p	p	n/a
452.4425	0.09	904885	keystroke_e	e	n/a
452.5335	0.104	905067	keystroke_c	c	n/a
452.8775	0.12	905755	keystroke_i	i	n/a
453.0575	0.075	906115	keystroke_f	f	n/a
453.2075	0.105	906415	keystroke_i	i	n/a
453.3725	0.075	906745	keystroke_c	c	n/a
453.6875	0.105	907375	keystroke_Key.backspace	Key.backspace	n/a
453.7775	0.15	907555	keystroke_e	e	n/a
453.8375	0.15	907675	keystroke_d	d	n/a
454.0175	0.15	908035	keystroke_Key.space	Key.space	n/a
457.8755	0.012	915751	keystroke_q	q	n/a
457.9775	0.075	915955	keystroke_u	u	n/a
458.6975	0.09	917395	keystroke_a	a	n/a
458.8325	0.075	917665	keystroke_l	l	n/a
459.028	0.075	918056	keystroke_i	i	n/a
459.6585	0.09	919317	keystroke_f	f	n/a
459.7925	0.075	919585	keystroke_y	y	n/a
459.8975	0.135	919795	keystroke_Key.space	Key.space	n/a
460.4975	0.12	920995	keystroke_a	a	n/a
460.7975	0.12	921595	keystroke_c	c	n/a
461.1125	0.09	922225	keystroke_a	a	n/a
461.3675	0.135	922735	keystroke_d	d	n/a
461.4725	0.12	922945	keystroke_e	e	n/a
461.5775	0.105	923155	keystroke_m	m	n/a
461.7125	0.106	923425	keystroke_i	i	n/a
461.7725	0.136	923545	keystroke_x	x	n/a
461.9675	0.105	923935	keystroke_s	s	n/a
462.3575	0.12	924715	keystroke_Key.backspace	Key.backspace	n/a
462.5675	0.075	925135	keystroke_Key.backspace	Key.backspace	n/a
462.7625	0.075	925525	keystroke_Key.backspace	Key.backspace	n/a
462.8685	0.074	925737	keystroke_c	c	n/a
463.2575	0.075	926515	keystroke_Key.backspace	Key.backspace	n/a
463.5135	0.074	927027	keystroke_i	i	n/a
463.5585	0.119	927117	keystroke_c	c	n/a
463.7075	0.12	927415	keystroke_s	s	n/a
463.9325	0.06	927865	keystroke_Key.enter	Key.enter	n/a
464.001	7.2995	928002	prompt	n/a	appendix prayer operating christians\n
464.6685	0.075	929337	keystroke_a	a	n/a
464.8625	0.075	929725	keystroke_p	p	n/a
465.013	0.06	930026	keystroke_p	p	n/a
465.178	0.075	930356	keystroke_e	e	n/a
465.358	0.09	930716	keystroke_n	n	n/a
465.628	0.06	931256	keystroke_d	d	n/a
465.793	0.075	931586	keystroke_i	i	n/a
465.928	0.12	931856	keystroke_x	x	n/a
466.168	0.105	932336	keystroke_Key.space	Key.space	n/a
466.693	0.09	933386	keystroke_p	p	n/a
466.828	0.105	933656	keystroke_r	r	n/a
467.023	0.12	934046	keystroke_a	a	n/a
467.293	0.105	934586	keystroke_y	y	n/a
467.428	0.165	934856	keystroke_e	e	n/a
467.533	0.135	935066	keystroke_r	r	n/a
467.653	0.12	935306	keystroke_Key.space	Key.space	n/a
468.328	0.09	936656	keystroke_o	o	n/a
468.523	0.09	937046	keystroke_p	p	n/a
468.628	0.075	937256	keystroke_e	e	n/a
468.673	0.075	937346	keystroke_r	r	n/a
468.928	0.075	937856	keystroke_a	a	n/a
469.033	0.075	938066	keystroke_t	t	n/a
469.183	0.105	938366	keystroke_i	i	n/a
469.333	0.075	938666	keystroke_n	n	n/a
469.423	0.075	938846	keystroke_g	g	n/a
469.513	0.105	939026	keystroke_Key.space	Key.space	n/a
469.768	0.075	939536	keystroke_c	c	n/a
469.888	0.075	939776	keystroke_h	h	n/a
469.993	0.075	939986	keystroke_r	r	n/a
470.113	0.09	940226	keystroke_i	i	n/a
470.233	0.135	940466	keystroke_s	s	n/a
470.353	0.075	940706	keystroke_t	t	n/a
470.503	0.09	941006	keystroke_i	i	n/a
470.653	0.06	941306	keystroke_a	a	n/a
470.788	0.06	941576	keystroke_n	n	n/a
470.908	0.105	941816	keystroke_s	s	n/a
471.208	0.09	942416	keystroke_Key.enter	Key.enter	n/a
471.307	11.618	942614	prompt	n/a	experiments label expiration scoop\n
473.401	0	946802	keystroke_e	e	n/a
473.518	0.09	947036	keystroke_x	x	n/a
473.653	0.105	947306	keystroke_p	p	n/a
473.773	0.12	947546	keystroke_e	e	n/a
473.848	0.105	947696	keystroke_r	r	n/a
473.983	0.075	947966	keystroke_i	i	n/a
474.373	0.06	948746	keystroke_m	m	n/a
474.463	0.075	948926	keystroke_e	e	n/a
474.568	0.075	949136	keystroke_n	n	n/a
474.658	0.06	949316	keystroke_t	t	n/a
474.838	0.09	949676	keystroke_s	s	n/a
474.943	0.075	949886	keystroke_Key.space	Key.space	n/a
475.348	0.075	950696	keystroke_l	l	n/a
475.408	0.06	950816	keystroke_a	a	n/a
475.528	0.09	951056	keystroke_v	v	n/a
475.633	0.09	951266	keystroke_e	e	n/a
475.903	0.06	951806	keystroke_Key.backspace	Key.backspace	n/a
476.068	0.09	952136	keystroke_Key.backspace	Key.backspace	n/a
476.113	0.075	952226	keystroke_b	b	n/a
476.308	0.06	952616	keystroke_e	e	n/a
476.443	0.075	952886	keystroke_l	l	n/a
476.938	0.09	953876	keystroke_Key.space	Key.space	n/a
477.358	0.09	954716	keystroke_e	e	n/a
477.508	0.12	955016	keystroke_x	x	n/a
477.928	0.045	955856	keystroke_i	i	n/a
478.168	0.09	956336	keystroke_Key.backspace	Key.backspace	n/a
478.213	0.09	956426	keystroke_p	p	n/a
478.468	0.09	956936	keystroke_i	i	n/a
478.618	0.09	957236	keystroke_r	r	n/a
478.828	0.09	957656	keystroke_a	a	n/a
478.933	0.09	957866	keystroke_t	t	n/a
479.038	0.045	958076	keystroke_i	i	n/a
479.188	0.09	958376	keystroke_o	o	n/a
479.338	0.09	958676	keystroke_n	n	n/a
479.488	0.15	958976	keystroke_Key.space	Key.space	n/a
480.703	0.105	961406	keystroke_s	s	n/a
480.883	0.09	961766	keystroke_c	c	n/a
481.033	0.075	962066	keystroke_r	r	n/a
481.378	0.045	962756	keystroke_o	o	n/a
481.603	0.06	963206	keystroke_Key.backspace	Key.backspace	n/a
481.753	0.105	963506	keystroke_Key.backspace	Key.backspace	n/a
481.813	0.06	963626	keystroke_o	o	n/a
481.963	0.09	963926	keystroke_o	o	n/a
482.203	0.105	964406	keystroke_p	p	n/a
482.833	0.09	965666	keystroke_Key.enter	Key.enter	n/a
482.9285	8.832	965857	prompt	n/a	shot softball realize coalition\n
483.688	0.09	967376	keystroke_s	s	n/a
483.793	0.06	967586	keystroke_h	h	n/a
483.973	0.0895	967946	keystroke_o	o	n/a
484.064	0.074	968128	keystroke_t	t	n/a
484.168	0.09	968336	keystroke_Key.space	Key.space	n/a
484.6775	0.0755	969355	keystroke_s	s	n/a
484.783	0.0745	969566	keystroke_o	o	n/a
484.9025	0.075	969805	keystroke_f	f	n/a
485.0975	0.0755	970195	keystroke_t	t	n/a
485.248	0.0595	970496	keystroke_b	b	n/a
485.7425	0.12	971485	keystroke_Key.backspace	Key.backspace	n/a
485.8475	0.105	971695	keystroke_o	o	n/a
486.0275	0.075	972055	keystroke_l	l	n/a
486.1925	0.045	972385	keystroke_l	l	n/a
486.3875	0.0755	972775	keystroke_Key.backspace	Key.backspace	n/a
486.538	0.105	973076	keystroke_Key.backspace	Key.backspace	n/a
486.703	0.1045	973406	keystroke_Key.backspace	Key.backspace	n/a
486.8975	0.09	973795	keystroke_a	a	n/a
487.0025	0.0755	974005	keystroke_l	l	n/a
487.1375	0.0905	974275	keystroke_l	l	n/a
487.258	0.0895	974516	keystroke_Key.space	Key.space	n/a
487.723	0.1345	975446	keystroke_r	r	n/a
487.8425	0.12	975685	keystroke_e	e	n/a
488.1135	0.105	976227	keystroke_a	a	n/a
489.223	0.0905	978446	keystroke_l	l	n/a
489.463	0.075	978926	keystroke_i	i	n/a
489.568	0.09	979136	keystroke_z	z	n/a
489.7785	0.1045	979557	keystroke_e	e	n/a
489.8535	0.1345	979707	keystroke_Key.space	Key.space	n/a
490.108	0.09	980216	keystroke_c	c	n/a
490.228	0.0755	980456	keystroke_o	o	n/a
490.3485	0.09	980697	keystroke_a	a	n/a
490.4535	0.09	980907	keystroke_l	l	n/a
490.6785	0.0895	981357	keystroke_i	i	n/a
490.8735	0.09	981747	keystroke_t	t	n/a
490.9485	0.0595	981897	keystroke_i	i	n/a
491.0985	0.075	982197	keystroke_o	o	n/a
491.2335	0.075	982467	keystroke_n	n	n/a
491.6685	0.0895	983337	keystroke_Key.enter	Key.enter	n/a
491.7665	8.6645	983533	prompt	n/a	our aluminum signing poems\n
492.3885	0.105	984777	keystroke_o	o	n/a
492.628	0.0755	985256	keystroke_u	u	n/a
492.7185	0.06	985437	keystroke_t	t	n/a
492.8985	0.075	985797	keystroke_Key.space	Key.space	n/a
493.6485	0.09	987297	keystroke_a	a	n/a
493.7835	0.06	987567	keystroke_l	l	n/a
493.9785	0.06	987957	keystroke_u	u	n/a
494.0685	0.12	988137	keystroke_m	m	n/a
496.411	0.012	992822	keystroke_i	i	n/a
496.513	0.105	993026	keystroke_n	n	n/a
496.648	0.105	993296	keystroke_u	u	n/a
496.813	0.075	993626	keystroke_m	m	n/a
496.918	0.135	993836	keystroke_Key.space	Key.space	n/a
497.459	0.104	994918	keystroke_s	s	n/a
497.593	0.105	995186	keystroke_i	i	n/a
497.773	0.075	995546	keystroke_g	g	n/a
498.898	0.06	997796	keystroke_n	n	n/a
499.034	0.104	998068	keystroke_i	i	n/a
499.108	0.09	998216	keystroke_n	n	n/a
499.213	0.075	998426	keystroke_g	g	n/a
499.303	0.075	998606	keystroke_Key.space	Key.space	n/a
499.573	0.075	999146	keystroke_p	p	n/a
499.753	0.09	999506	keystroke_o	o	n/a
499.903	0.06	999806	keystroke_e	e	n/a
500.038	0.076	1000076	keystroke_m	m	n/a
500.173	0.075	1000346	keystroke_s	s	n/a
500.338	0.09	1000676	keystroke_Key.enter	Key.enter	n/a
500.4365	9.3985	1000873	prompt	n/a	untitled physician location raised\n
501.313	0.076	1002626	keystroke_u	u	n/a
501.523	0.075	1003046	keystroke_l	l	n/a
501.643	0.075	1003286	keystroke_t	t	n/a
502.738	0.105	1005476	keystroke_Key.backspace	Key.backspace	n/a
502.978	0.1055	1005956	keystroke_Key.backspace	Key.backspace	n/a
503.3085	0.06	1006617	keystroke_n	n	n/a
503.8335	0.06	1007667	keystroke_t	t	n/a
503.9835	0.06	1007967	keystroke_i	i	n/a
504.0735	0.075	1008147	keystroke_t	t	n/a
504.2385	0.09	1008477	keystroke_l	l	n/a
504.3735	0.12	1008747	keystroke_e	e	n/a
504.4485	0.105	1008897	keystroke_d	d	n/a
504.5985	0.09	1009197	keystroke_Key.space	Key.space	n/a
504.8985	0.075	1009797	keystroke_p	p	n/a
505.1085	0.105	1010217	keystroke_h	h	n/a
505.2435	0.12	1010487	keystroke_y	y	n/a
505.4835	0.105	1010967	keystroke_s	s	n/a
505.9185	0.075	1011837	keystroke_i	i	n/a
506.1435	0.105	1012287	keystroke_c	c	n/a
506.4585	0.075	1012917	keystroke_i	i	n/a
506.5635	0.09	1013127	keystroke_a	a	n/a
506.7435	0.06	1013487	keystroke_n	n	n/a
506.8335	0.105	1013667	keystroke_Key.space	Key.space	n/a
507.1335	0.075	1014267	keystroke_l	l	n/a
507.2985	0.09	1014597	keystroke_o	o	n/a
507.4185	0.105	1014837	keystroke_c	c	n/a
507.5535	0.06	1015107	keystroke_a	a	n/a
507.7335	0.075	1015467	keystroke_t	t	n/a
507.8985	0.015	1015797	keystroke_i	i	n/a
508.0185	0.06	1016037	keystroke_o	o	n/a
508.1535	0.075	1016307	keystroke_n	n	n/a
508.2735	0.105	1016547	keystroke_Key.space	Key.space	n/a
508.4835	0.075	1016967	keystroke_r	r	n/a
508.769	0.0745	1017538	keystroke_a	a	n/a
508.9485	0.12	1017897	keystroke_i	i	n/a
509.3235	0.075	1018647	keystroke_s	s	n/a
509.4735	0.15	1018947	keystroke_e	e	n/a
509.5635	0.12	1019127	keystroke_d	d	n/a
509.7435	0.09	1019487	keystroke_Key.enter	Key.enter	n/a
509.839	6.1015	1019678	prompt	n/a	morgan marker theory transcript\n
510.5235	0.075	1021047	keystroke_m	m	n/a
510.6735	0.105	1021347	keystroke_o	o	n/a
510.7485	0.15	1021497	keystroke_r	r	n/a
510.9435	0.075	1021887	keystroke_g	g	n/a
511.1085	0.12	1022217	keystroke_a	a	n/a
511.3635	0.075	1022727	keystroke_n	n	n/a
511.4685	0.105	1022937	keystroke_Key.space	Key.space	n/a
511.8285	0.09	1023657	keystroke_m	m	n/a
511.9335	0.135	1023867	keystroke_a	a	n/a
512.0535	0.09	1024107	keystroke_r	r	n/a
512.1735	0.075	1024347	keystroke_k	k	n/a
512.2635	0.12	1024527	keystroke_e	e	n/a
512.3535	0.09	1024707	keystroke_r	r	n/a
512.4585	0.075	1024917	keystroke_Key.space	Key.space	n/a
512.7285	0.03	1025457	keystroke_t	t	n/a
512.7735	0.075	1025547	keystroke_h	h	n/a
512.9085	0.075	1025817	keystroke_e	e	n/a
513.0435	0.03	1026087	keystroke_o	o	n/a
513.1635	0.075	1026327	keystroke_r	r	n/a
513.2685	0.09	1026537	keystroke_y	y	n/a
513.3735	0.12	1026747	keystroke_Key.space	Key.space	n/a
513.9135	0.06	1027827	keystroke_t	t	n/a
514.0635	0.105	1028127	keystroke_r	r	n/a
514.3035	0.06	1028607	keystroke_a	a	n/a
514.4685	0.045	1028937	keystroke_n	n	n/a
514.5435	0.09	1029087	keystroke_s	s	n/a
514.9635	0.105	1029927	keystroke_c	c	n/a
515.0985	0.105	1030197	keystroke_r	r	n/a
515.2045	0.089	1030409	keystroke_i	i	n/a
515.4285	0.03	1030857	keystroke_p	p	n/a
515.4735	0.075	1030947	keystroke_t	t	n/a
515.8785	0.06	1031757	keystroke_Key.enter	Key.enter	n/a
515.946	7.0745	1031892	prompt	n/a	thereof reproduce disks eddie\n
516.5685	0.09	1033137	keystroke_t	t	n/a
516.7035	0.075	1033407	keystroke_h	h	n/a
516.8235	0.06	1033647	keystroke_e	e	n/a
516.9585	0.09	1033917	keystroke_r	r	n/a
517.1535	0.045	1034307	keystroke_e	e	n/a
517.4545	0.089	1034909	keystroke_o	o	n/a
517.5585	0.075	1035117	keystroke_g	g	n/a
517.9485	0.09	1035897	keystroke_Key.backspace	Key.backspace	n/a
517.9935	0.105	1035987	keystroke_f	f	n/a
518.1435	0.18	1036287	keystroke_Key.space	Key.space	n/a
518.8335	0.135	1037667	keystroke_r	r	n/a
518.9835	0.09	1037967	keystroke_e	e	n/a
519.1335	0.12	1038267	keystroke_p	p	n/a
519.3735	0.105	1038747	keystroke_r	r	n/a
519.6135	0.09	1039227	keystroke_o	o	n/a
520.3185	0.09	1040637	keystroke_d	d	n/a
520.4535	0.075	1040907	keystroke_u	u	n/a
520.5435	0.15	1041087	keystroke_c	c	n/a
520.6635	0.165	1041327	keystroke_e	e	n/a
520.7535	0.135	1041507	keystroke_Key.space	Key.space	n/a
521.549	0.105	1043098	keystroke_d	d	n/a
521.669	0.074	1043338	keystroke_i	i	n/a
521.759	0.06	1043518	keystroke_s	s	n/a
521.894	0.059	1043788	keystroke_k	k	n/a
521.968	0.121	1043936	keystroke_s	s	n/a
522.043	0.12	1044086	keystroke_Key.space	Key.space	n/a
522.239	0.105	1044478	keystroke_e	e	n/a
522.389	0.09	1044778	keystroke_d	d	n/a
522.554	0.059	1045108	keystroke_d	d	n/a
522.659	0.09	1045318	keystroke_i	i	n/a
522.763	0.076	1045526	keystroke_e	e	n/a
522.929	0.089	1045858	keystroke_Key.enter	Key.enter	n/a
523.025	8.2005	1046050	prompt	n/a	tackle minimal cleveland hansen\n
523.589	0.06	1047178	keystroke_t	t	n/a
523.934	0.06	1047868	keystroke_a	a	n/a
523.994	0.104	1047988	keystroke_c	c	n/a
524.204	0.075	1048408	keystroke_k	k	n/a
524.399	0.06	1048798	keystroke_l	l	n/a
524.474	0.135	1048948	keystroke_e	e	n/a
524.593	0.106	1049186	keystroke_Key.space	Key.space	n/a
524.864	0.074	1049728	keystroke_m	m	n/a
524.999	0.12	1049998	keystroke_i	i	n/a
525.104	0.15	1050208	keystroke_n	n	n/a
525.239	0.09	1050478	keystroke_i	i	n/a
525.344	0.105	1050688	keystroke_a	a	n/a
525.509	0.09	1051018	keystroke_l	l	n/a
525.764	0.074	1051528	keystroke_Key.backspace	Key.backspace	n/a
525.899	0.15	1051798	keystroke_Key.backspace	Key.backspace	n/a
525.989	0.09	1051978	keystroke_m	m	n/a
526.063	0.091	1052126	keystroke_a	a	n/a
526.184	0.075	1052368	keystroke_l	l	n/a
526.273	0.106	1052546	keystroke_Key.space	Key.space	n/a
527.084	0.09	1054168	keystroke_c	c	n/a
527.189	0.105	1054378	keystroke_l	l	n/a
527.309	0.09	1054618	keystroke_e	e	n/a
527.804	0.075	1055608	keystroke_v	v	n/a
527.909	0.105	1055818	keystroke_e	e	n/a
528.149	0.09	1056298	keystroke_l	l	n/a
528.314	0.09	1056628	keystroke_a	a	n/a
528.434	0.09	1056868	keystroke_n	n	n/a
528.509	0.12	1057018	keystroke_d	d	n/a
528.644	0.105	1057288	keystroke_Key.space	Key.space	n/a
529.124	0.045	1058248	keystroke_h	h	n/a
529.244	0.104	1058488	keystroke_a	a	n/a
529.409	0.075	1058818	keystroke_n	n	n/a
529.889	0.045	1059778	keystroke_s	s	n/a
530.054	0.075	1060108	keystroke_e	e	n/a
530.144	0.075	1060288	keystroke_n	n	n/a
530.279	0.105	1060558	keystroke_Key.space	Key.space	n/a
530.954	0.075	1061908	keystroke_Key.backspace	Key.backspace	n/a
531.134	0.09	1062268	keystroke_Key.enter	Key.enter	n/a
531.231	6.9245	1062462	prompt	n/a	racial stays bands alphabetical\n
532.034	0.135	1064068	keystroke_r	r	n/a
532.409	0.135	1064818	keystroke_a	a	n/a
532.545	0.104	1065090	keystroke_c	c	n/a
532.679	0.06	1065358	keystroke_i	i	n/a
532.784	0.09	1065568	keystroke_s	s	n/a
532.949	0.075	1065898	keystroke_l	l	n/a
533.039	0.12	1066078	keystroke_Key.space	Key.space	n/a
533.429	0.09	1066858	keystroke_s	s	n/a
533.579	0.075	1067158	keystroke_t	t	n/a
533.714	0.09	1067428	keystroke_a	a	n/a
533.909	0.075	1067818	keystroke_y	y	n/a
533.985	0.119	1067970	keystroke_s	s	n/a
534.089	0.105	1068178	keystroke_Key.space	Key.space	n/a
534.704	0.0895	1069408	keystroke_b	b	n/a
534.9285	0.09	1069857	keystroke_a	a	n/a
535.0335	0.0905	1070067	keystroke_n	n	n/a
535.0935	0.15	1070187	keystroke_d	d	n/a
535.184	0.1195	1070368	keystroke_s	s	n/a
535.634	0.09	1071268	keystroke_Key.space	Key.space	n/a
535.799	0.075	1071598	keystroke_a	a	n/a
535.934	0.105	1071868	keystroke_p	p	n/a
536.2785	0.1205	1072557	keystroke_Key.backspace	Key.backspace	n/a
536.354	0.105	1072708	keystroke_l	l	n/a
536.504	0.105	1073008	keystroke_p	p	n/a
536.744	0.09	1073488	keystroke_h	h	n/a
536.849	0.09	1073698	keystroke_a	a	n/a
537.0585	0.0455	1074117	keystroke_b	b	n/a
537.164	0.09	1074328	keystroke_e	e	n/a
537.374	0.06	1074748	keystroke_t	t	n/a
537.449	0.075	1074898	keystroke_i	i	n/a
537.554	0.09	1075108	keystroke_c	c	n/a
537.674	0.12	1075348	keystroke_a	a	n/a
537.779	0.075	1075558	keystroke_l	l	n/a
538.064	0.09	1076128	keystroke_Key.enter	Key.enter	n/a
538.161	8.9195	1076322	prompt	n/a	iraqi bedrooms marc previews\n
538.874	0.09	1077748	keystroke_i	i	n/a
539.399	0.0895	1078798	keystroke_w	w	n/a
539.7735	0.12	1079547	keystroke_Key.backspace	Key.backspace	n/a
540.1485	0.075	1080297	keystroke_r	r	n/a
540.344	0.0895	1080688	keystroke_a	a	n/a
540.5385	0.1055	1081077	keystroke_q	q	n/a
540.884	0.09	1081768	keystroke_i	i	n/a
541.094	0.1045	1082188	keystroke_Key.space	Key.space	n/a
542.0985	0.045	1084197	keystroke_b	b	n/a
542.1585	0.12	1084317	keystroke_e	e	n/a
542.2485	0.09	1084497	keystroke_d	d	n/a
542.4135	0.09	1084827	keystroke_r	r	n/a
542.4885	0.075	1084977	keystroke_o	o	n/a
542.6385	0.12	1085277	keystroke_o	o	n/a
542.7435	0.075	1085487	keystroke_m	m	n/a
542.8335	0.135	1085667	keystroke_s	s	n/a
542.9385	0.09	1085877	keystroke_Key.space	Key.space	n/a
543.2235	0.09	1086447	keystroke_m	m	n/a
543.3285	0.075	1086657	keystroke_a	a	n/a
543.9435	0.105	1087887	keystroke_r	r	n/a
544.1085	0.135	1088217	keystroke_c	c	n/a
544.5285	0.12	1089057	keystroke_Key.space	Key.space	n/a
544.7085	0.105	1089417	keystroke_p	p	n/a
544.8435	0.105	1089687	keystroke_r	r	n/a
544.9635	0.105	1089927	keystroke_e	e	n/a
545.1435	0.135	1090287	keystroke_c	c	n/a
545.3385	0.075	1090677	keystroke_i	i	n/a
545.5035	0.075	1091007	keystroke_e	e	n/a
545.7135	0.09	1091427	keystroke_Key.backspace	Key.backspace	n/a
545.8785	0.09	1091757	keystroke_Key.backspace	Key.backspace	n/a
546.0285	0.12	1092057	keystroke_Key.backspace	Key.backspace	n/a
546.1035	0.09	1092207	keystroke_v	v	n/a
546.2535	0.09	1092507	keystroke_i	i	n/a
546.3585	0.15	1092717	keystroke_e	e	n/a
546.4635	0.12	1092927	keystroke_w	w	n/a
546.7035	0.09	1093407	keystroke_s	s	n/a
546.9885	0.09	1093977	keystroke_Key.enter	Key.enter	n/a
547.085	9.476	1094170	prompt	n/a	supports convenient turkish persistent\n
548.6685	0.09	1097337	keystroke_s	s	n/a
548.8485	0.075	1097697	keystroke_u	u	n/a
549.1185	0.06	1098237	keystroke_p	p	n/a
549.2385	0.075	1098477	keystroke_p	p	n/a
549.4035	0.09	1098807	keystroke_o	o	n/a
549.4785	0.075	1098957	keystroke_r	r	n/a
549.6735	0.06	1099347	keystroke_t	t	n/a
549.8685	0.075	1099737	keystroke_s	s	n/a
549.9585	0.06	1099917	keystroke_Key.space	Key.space	n/a
550.3185	0.09	1100637	keystroke_c	c	n/a
550.3935	0.075	1100787	keystroke_o	o	n/a
550.5135	0.09	1101027	keystroke_n	n	n/a
551.1885	0.075	1102377	keystroke_v	v	n/a
551.3535	0.09	1102707	keystroke_e	e	n/a
551.5335	0.075	1103067	keystroke_n	n	n/a
551.7285	0.075	1103457	keystroke_i	i	n/a
551.9685	0.06	1103937	keystroke_e	e	n/a
552.1035	0.075	1104207	keystroke_n	n	n/a
