onset	duration	sample	value	key	prompt_text
5.41	10.469	10820	prompt	n/a	the quick brown fox jumps over a lazy dog\n
6.6535	0.042	13307	keystroke_t	t	n/a
6.681	0.104	13362	keystroke_h	h	n/a
6.771	0.135	13542	keystroke_e	e	n/a
6.8905	0.0905	13781	keystroke_Key.space	Key.space	n/a
6.9655	0.1205	13931	keystroke_q	q	n/a
7.07	0.121	14140	keystroke_u	u	n/a
7.161	0.12	14322	keystroke_i	i	n/a
7.311	0.105	14622	keystroke_c	c	n/a
7.401	0.03	14802	keystroke_k	k	n/a
7.776	0.12	15552	keystroke_Key.caps_lock	Key.caps_lock	n/a
8.781	0.045	17562	keystroke_Key.backspace	Key.backspace	n/a
9.081	0.09	18162	keystroke_Key.backspace	Key.backspace	n/a
9.276	0.0445	18552	keystroke_Key.backspace	Key.backspace	n/a
9.441	0.03	18882	keystroke_Key.backspace	Key.backspace	n/a
9.5755	0.0455	19151	keystroke_Key.backspace	Key.backspace	n/a
9.726	0.0605	19452	keystroke_Key.backspace	Key.backspace	n/a
9.9055	0.075	19811	keystroke_Key.backspace	Key.backspace	n/a
10.0855	0.0755	20171	keystroke_Key.backspace	Key.backspace	n/a
10.4015	0.12	20803	keystroke_t	t	n/a
10.5065	0.1195	21013	keystroke_h	h	n/a
10.641	0.1205	21282	keystroke_e	e	n/a
10.716	0.105	21432	keystroke_Key.space	Key.space	n/a
10.8215	0.0745	21643	keystroke_q	q	n/a
10.881	0.12	21762	keystroke_u	u	n/a
10.9855	0.1045	21971	keystroke_i	i	n/a
11.0765	0.1045	22153	keystroke_c	c	n/a
11.211	0.045	22422	keystroke_k	k	n/a
11.585	0.121	23170	keystroke_Key.space	Key.space	n/a
11.7365	0.1195	23473	keystroke_b	b	n/a
11.841	0.1055	23682	keystroke_r	r	n/a
11.961	0.09	23922	keystroke_o	o	n/a
12.0665	0.1045	24133	keystroke_w	w	n/a
12.156	0.09	24312	keystroke_n	n	n/a
12.261	0.105	24522	keystroke_Key.space	Key.space	n/a
12.3515	0.09	24703	keystroke_f	f	n/a
12.456	0.12	24912	keystroke_o	o	n/a
12.561	0.1195	25122	keystroke_x	x	n/a
12.6955	0.135	25391	keystroke_Key.space	Key.space	n/a
12.816	0.0905	25632	keystroke_j	j	n/a
12.966	0.075	25932	keystroke_u	u	n/a
13.1615	0.059	26323	keystroke_m	m	n/a
13.2805	0.105	26561	keystroke_p	p	n/a
13.3705	0.0905	26741	keystroke_s	s	n/a
13.5055	0.1055	27011	keystroke_Key.space	Key.space	n/a
13.626	0.135	27252	keystroke_o	o	n/a
13.701	0.075	27402	keystroke_v	v	n/a
13.9105	0.046	27821	keystroke_e	e	n/a
13.97	0.105	27940	keystroke_r	r	n/a
14.256	0.0895	28512	keystroke_Key.space	Key.space	n/a
14.4505	0.0905	28901	keystroke_a	a	n/a
14.661	0.105	29322	keystroke_Key.space	Key.space	n/a
14.751	0.105	29502	keystroke_l	l	n/a
14.901	0.0905	29802	keystroke_a	a	n/a
15.066	0.1345	30132	keystroke_z	z	n/a
15.141	0.12	30282	keystroke_y	y	n/a
15.23	0.121	30460	keystroke_Key.space	Key.space	n/a
15.4555	0.1205	30911	keystroke_d	d	n/a
15.561	0.105	31122	keystroke_o	o	n/a
15.651	0.0905	31302	keystroke_g	g	n/a
15.786	0.0895	31572	keystroke_Key.enter	Key.enter	n/a
15.8845	7.254	31769	prompt	n/a	antarctica thumbzilla warrant bond\n
16.4465	0.1345	32893	keystroke_a	a	n/a
16.536	0.09	33072	keystroke_n	n	n/a
16.7455	0.076	33491	keystroke_t	t	n/a
16.971	0.09	33942	keystroke_a	a	n/a
17.3165	0.0745	34633	keystroke_c	c	n/a
17.7805	0.0905	35561	keystroke_Key.backspace	Key.backspace	n/a
17.856	0.09	35712	keystroke_r	r	n/a
18.066	0.09	36132	keystroke_c	c	n/a
18.321	0.09	36642	keystroke_t	t	n/a
18.5315	0.0895	37063	keystroke_i	i	n/a
18.981	0.09	37962	keystroke_c	c	n/a
19.1765	0.074	38353	keystroke_a	a	n/a
19.236	0.12	38472	keystroke_Key.space	Key.space	n/a
19.461	0.0445	38922	keystroke_t	t	n/a
19.5215	0.09	39043	keystroke_h	h	n/a
19.701	0.0895	39402	keystroke_u	u	n/a
19.911	0.0745	39822	keystroke_m	m	n/a
20.1955	0.076	40391	keystroke_b	b	n/a
20.601	0.0905	41202	keystroke_z	z	n/a
20.6605	0.0905	41321	keystroke_i	i	n/a
20.8705	0.076	41741	keystroke_l	l	n/a
21.021	0.0745	42042	keystroke_l	l	n/a
21.1405	0.1205	42281	keystroke_a	a	n/a
21.2155	0.136	42431	keystroke_Key.space	Key.space	n/a
21.3955	0.09	42791	keystroke_w	w	n/a
21.6055	0.046	43211	keystroke_a	a	n/a
21.726	0.0905	43452	keystroke_r	r	n/a
21.906	0.1055	43812	keystroke_r	r	n/a
22.116	0.075	44232	keystroke_a	a	n/a
22.206	0.105	44412	keystroke_n	n	n/a
22.341	0.09	44682	keystroke_t	t	n/a
22.446	0.045	44892	keystroke_Key.space	Key.space	n/a
22.5215	0.075	45043	keystroke_b	b	n/a
22.686	0.09	45372	keystroke_o	o	n/a
22.8215	0.09	45643	keystroke_n	n	n/a
22.8965	0.0905	45793	keystroke_d	d	n/a
23.031	0.105	46062	keystroke_Key.enter	Key.enter	n/a
23.144	4.119	46288	prompt	n/a	educational beneath rope an\n
23.6615	0.0745	47323	keystroke_e	e	n/a
23.826	0.075	47652	keystroke_d	d	n/a
23.8865	0.0895	47773	keystroke_u	u	n/a
23.9915	0.1045	47983	keystroke_c	c	n/a
24.1715	0.075	48343	keystroke_a	a	n/a
24.336	0.105	48672	keystroke_t	t	n/a
24.4115	0.1045	48823	keystroke_i	i	n/a
24.426	0.12	48852	keystroke_o	o	n/a
24.6215	0.089	49243	keystroke_n	n	n/a
24.8905	0.106	49781	keystroke_a	a	n/a
24.9505	0.1055	49901	keystroke_l	l	n/a
25.101	0.105	50202	keystroke_Key.space	Key.space	n/a
25.251	0.105	50502	keystroke_b	b	n/a
25.3415	0.0895	50683	keystroke_e	e	n/a
25.4765	0.1345	50953	keystroke_n	n	n/a
25.581	0.09	51162	keystroke_e	e	n/a
25.7615	0.105	51523	keystroke_a	a	n/a
25.911	0.1055	51822	keystroke_t	t	n/a
26.106	0.135	52212	keystroke_h	h	n/a
26.226	0.12	52452	keystroke_Key.space	Key.space	n/a
26.331	0.12	52662	keystroke_r	r	n/a
26.4365	0.0745	52873	keystroke_o	o	n/a
26.631	0.105	53262	keystroke_p	p	n/a
26.7515	0.0895	53503	keystroke_e	e	n/a
26.841	0.135	53682	keystroke_Key.space	Key.space	n/a
26.946	0.09	53892	keystroke_a	a	n/a
26.991	0.105	53982	keystroke_n	n	n/a
27.1705	0.091	54341	keystroke_Key.enter	Key.enter	n/a
27.2675	5.561	54535	prompt	n/a	christians lenders advert cole\n
27.891	0.135	55782	keystroke_c	c	n/a
28.011	0.03	56022	keystroke_h	h	n/a
28.0865	0.135	56173	keystroke_r	r	n/a
28.2065	0.1045	56413	keystroke_i	i	n/a
28.611	0.075	57222	keystroke_s	s	n/a
28.791	0.0905	57582	keystroke_t	t	n/a
28.8665	0.105	57733	keystroke_i	i	n/a
29.1065	0.09	58213	keystroke_a	a	n/a
29.1965	0.09	58393	keystroke_n	n	n/a
29.3315	0.075	58663	keystroke_s	s	n/a
29.4065	0.104	58813	keystroke_Key.space	Key.space	n/a
29.5255	0.1205	59051	keystroke_l	l	n/a
29.676	0.09	59352	keystroke_e	e	n/a
29.886	0.1945	59772	keystroke_n	n	n/a
30.456	0.075	60912	keystroke_d	d	n/a
30.636	0.06	61272	keystroke_e	e	n/a
30.726	0.12	61452	keystroke_r	r	n/a
30.951	0.075	61902	keystroke_s	s	n/a
31.041	0.12	62082	keystroke_Key.space	Key.space	n/a
31.311	0.075	62622	keystroke_a	a	n/a
31.5055	0.0605	63011	keystroke_d	d	n/a
31.641	0.075	63282	keystroke_v	v	n/a
31.732	0.0595	63464	keystroke_e	e	n/a
31.837	0.104	63674	keystroke_r	r	n/a
32.016	0.105	64032	keystroke_t	t	n/a
32.106	0.105	64212	keystroke_Key.space	Key.space	n/a
32.2265	0.12	64453	keystroke_c	c	n/a
32.3315	0.105	64663	keystroke_o	o	n/a
32.496	0.166	64992	keystroke_l	l	n/a
32.601	0.105	65202	keystroke_e	e	n/a
32.736	0.09	65472	keystroke_Key.enter	Key.enter	n/a
32.8325	6.206	65665	prompt	n/a	typically deer antenna this's\n
33.4115	0.135	66823	keystroke_t	t	n/a
33.651	0.1045	67302	keystroke_y	y	n/a
33.7565	0.09	67513	keystroke_p	p	n/a
33.9215	0.0895	67843	keystroke_u	u	n/a
34.0255	0.0605	68051	keystroke_c	c	n/a
34.3265	0.09	68653	keystroke_Key.backspace	Key.backspace	n/a
34.4915	0.075	68983	keystroke_Key.backspace	Key.backspace	n/a
34.6415	0.12	69283	keystroke_i	i	n/a
34.731	0.12	69462	keystroke_c	c	n/a
34.986	0.105	69972	keystroke_a	a	n/a
35.076	0.075	70152	keystroke_l	l	n/a
35.2565	0.0745	70513	keystroke_l	l	n/a
35.331	0.075	70662	keystroke_y	y	n/a
35.4205	0.135	70841	keystroke_Key.space	Key.space	n/a
35.5565	0.09	71113	keystroke_d	d	n/a
35.721	0.0905	71442	keystroke_e	e	n/a
35.916	0.1355	71832	keystroke_e	e	n/a
36.112	0.104	72224	keystroke_r	r	n/a
36.231	0.105	72462	keystroke_Key.space	Key.space	n/a
36.411	0.0905	72822	keystroke_a	a	n/a
36.5165	0.0895	73033	keystroke_n	n	n/a
36.636	0.06	73272	keystroke_t	t	n/a
36.7565	0.12	73513	keystroke_e	e	n/a
36.8915	0.089	73783	keystroke_n	n	n/a
37.0715	0.09	74143	keystroke_n	n	n/a
37.1165	0.09	74233	keystroke_a	a	n/a
37.2655	0.091	74531	keystroke_Key.space	Key.space	n/a
37.3115	0.1045	74623	keystroke_t	t	n/a
37.461	0.105	74922	keystroke_h	h	n/a
37.7015	0.119	75403	keystroke_i	i	n/a
37.7915	0.0895	75583	keystroke_s	s	n/a
38.631	0.075	77262	keystroke_'	'	n/a
38.736	0.12	77472	keystroke_s	s	n/a
38.9915	0.0445	77983	keystroke_Key.enter	Key.enter	n/a
39.043	7.141	78086	prompt	n/a	commissioner jefferson israel specialized\n
39.8915	0.12	79783	keystroke_c	c	n/a
39.9665	0.06	79933	keystroke_o	o	n/a
40.1165	0.0745	80233	keystroke_m	m	n/a
40.266	0.0905	80532	keystroke_m	m	n/a
40.506	0.106	81012	keystroke_i	i	n/a
40.6265	0.1055	81253	keystroke_s	s	n/a
40.8665	0.09	81733	keystroke_s	s	n/a
40.941	0.18	81882	keystroke_i	i	n/a
41.0455	0.1215	82091	keystroke_o	o	n/a
41.212	0.12	82424	keystroke_n	n	n/a
41.452	0.164	82904	keystroke_e	e	n/a
41.601	0.105	83202	keystroke_r	r	n/a
41.691	0.135	83382	keystroke_Key.space	Key.space	n/a
41.811	0.1205	83622	keystroke_j	j	n/a
41.887	0.104	83774	keystroke_e	e	n/a
42.262	0.074	84524	keystroke_f	f	n/a
42.426	0.075	84852	keystroke_f	f	n/a
42.532	0.1045	85064	keystroke_e	e	n/a
42.651	0.106	85302	keystroke_r	r	n/a
42.8615	0.105	85723	keystroke_s	s	n/a
42.9215	0.0895	85843	keystroke_o	o	n/a
43.056	0.1505	86112	keystroke_n	n	n/a
43.1915	0.0895	86383	keystroke_Key.space	Key.space	n/a
43.2965	0.1045	86593	keystroke_i	i	n/a
43.3865	0.1045	86773	keystroke_s	s	n/a
43.7465	0.089	87493	keystroke_r	r	n/a
44.0315	0.0745	88063	keystroke_a	a	n/a
44.211	0.075	88422	keystroke_e	e	n/a
44.3015	0.0895	88603	keystroke_l	l	n/a
44.406	0.1355	88812	keystroke_Key.space	Key.space	n/a
44.571	0.12	89142	keystroke_s	s	n/a
44.706	0.0905	89412	keystroke_p	p	n/a
44.7665	0.0755	89533	keystroke_e	e	n/a
44.9465	0.105	89893	keystroke_c	c	n/a
45.0365	0.09	90073	keystroke_i	i	n/a
45.2015	0.09	90403	keystroke_a	a	n/a
45.3065	0.0895	90613	keystroke_l	l	n/a
45.4715	0.104	90943	keystroke_i	i	n/a
45.5915	0.06	91183	keystroke_z	z	n/a
45.7715	0.105	91543	keystroke_e	e	n/a
45.981	0.121	91962	keystroke_d	d	n/a
46.086	0.09	92172	keystroke_Key.enter	Key.enter	n/a
46.2015	4.9175	92403	prompt	n/a	reggae juice raised mirrors\n
46.8815	0.09	93763	keystroke_r	r	n/a
47.001	0.075	94002	keystroke_e	e	n/a
47.166	0.076	94332	keystroke_g	g	n/a
47.3165	0.0895	94633	keystroke_g	g	n/a
47.496	0.091	94992	keystroke_a	a	n/a
47.661	0.0905	95322	keystroke_e	e	n/a
47.766	0.09	95532	keystroke_Key.space	Key.space	n/a
47.931	0.1205	95862	keystroke_j	j	n/a
48.157	0.1795	96314	keystroke_u	u	n/a
48.261	0.166	96522	keystroke_i	i	n/a
48.396	0.075	96792	keystroke_c	c	n/a
48.576	0.106	97152	keystroke_e	e	n/a
48.696	0.09	97392	keystroke_Key.space	Key.space	n/a
48.771	0.106	97542	keystroke_r	r	n/a
48.952	0.1195	97904	keystroke_a	a	n/a
49.056	0.181	98112	keystroke_i	i	n/a
49.1765	0.075	98353	keystroke_s	s	n/a
49.3125	0.074	98625	keystroke_e	e	n/a
49.462	0.09	98924	keystroke_d	d	n/a
49.5525	0.1035	99105	keystroke_Key.space	Key.space	n/a
49.6115	0.1045	99223	keystroke_m	m	n/a
49.8365	0.195	99673	keystroke_i	i	n/a
50.0915	0.09	100183	keystroke_r	r	n/a
50.2565	0.15	100513	keystroke_r	r	n/a
50.3915	0.1805	100783	keystroke_o	o	n/a
50.736	0.0905	101472	keystroke_r	r	n/a
50.932	0.089	101864	keystroke_s	s	n/a
51.036	0.0755	102072	keystroke_Key.enter	Key.enter	n/a
51.1235	4.4305	102247	prompt	n/a	flyer abandoned alice money\n
51.757	0.119	103514	keystroke_f	f	n/a
51.8465	0.0595	103693	keystroke_l	l	n/a
52.042	0.1495	104084	keystroke_y	y	n/a
52.1165	0.105	104233	keystroke_e	e	n/a
52.2515	0.12	104503	keystroke_r	r	n/a
52.3865	0.12	104773	keystroke_Key.space	Key.space	n/a
52.5665	0.105	105133	keystroke_a	a	n/a
52.7165	0.09	105433	keystroke_b	b	n/a
52.8365	0.105	105673	keystroke_a	a	n/a
52.9565	0.0905	105913	keystroke_n	n	n/a
53.0615	0.075	106123	keystroke_d	d	n/a
53.1665	0.0755	106333	keystroke_o	o	n/a
53.3015	0.1205	106603	keystroke_n	n	n/a
53.3915	0.09	106783	keystroke_e	e	n/a
53.5715	0.105	107143	keystroke_d	d	n/a
53.6315	0.105	107263	keystroke_Key.space	Key.space	n/a
53.7815	0.09	107563	keystroke_a	a	n/a
53.8565	0.075	107713	keystroke_l	l	n/a
53.991	0.135	107982	keystroke_i	i	n/a
54.0515	0.1195	108103	keystroke_c	c	n/a
54.2765	0.0895	108553	keystroke_e	e	n/a
54.351	0.1205	108702	keystroke_Key.space	Key.space	n/a
54.457	0.105	108914	keystroke_m	m	n/a
54.651	0.06	109302	keystroke_o	o	n/a
55.0265	0.045	110053	keystroke_n	n	n/a
55.1165	0.0755	110233	keystroke_e	e	n/a
55.3415	0.105	110683	keystroke_y	y	n/a
55.4765	0.075	110953	keystroke_Key.enter	Key.enter	n/a
55.558	4.7505	111116	prompt	n/a	linda produced jane brad\n
56.6465	0.1055	113293	keystroke_l	l	n/a
56.8265	0.06	113653	keystroke_i	i	n/a
56.9765	0.15	113953	keystroke_n	n	n/a
57.0365	0.105	114073	keystroke_d	d	n/a
57.202	0.1045	114404	keystroke_a	a	n/a
57.2915	0.105	114583	keystroke_Key.space	Key.space	n/a
57.441	0.1205	114882	keystroke_p	p	n/a
57.5915	0.105	115183	keystroke_r	r	n/a
57.802	0.089	115604	keystroke_o	o	n/a
58.072	0.104	116144	keystroke_d	d	n/a
58.2815	0.1355	116563	keystroke_u	u	n/a
58.371	0.09	116742	keystroke_c	c	n/a
58.5665	0.0895	117133	keystroke_e	e	n/a
58.7465	0.1045	117493	keystroke_d	d	n/a
58.836	0.09	117672	keystroke_Key.space	Key.space	n/a
59.091	0.0905	118182	keystroke_j	j	n/a
59.211	0.1055	118422	keystroke_a	a	n/a
59.3315	0.12	118663	keystroke_n	n	n/a
59.421	0.09	118842	keystroke_e	e	n/a
59.571	0.045	119142	keystroke_Key.space	Key.space	n/a
59.6615	0.12	119323	keystroke_b	b	n/a
59.736	0.105	119472	keystroke_r	r	n/a
59.947	0.074	119894	keystroke_a	a	n/a
60.081	0.0905	120162	keystroke_d	d	n/a
60.186	0.1205	120372	keystroke_Key.enter	Key.enter	n/a
60.3235	5.5795	120647	prompt	n/a	ericsson sally maine conviction\n
60.9215	0.045	121843	keystroke_e	e	n/a
61.2365	0.075	122473	keystroke_r	r	n/a
61.3715	0.12	122743	keystroke_i	i	n/a
61.537	0.1185	123074	keystroke_c	c	n/a
61.8365	0.0745	123673	keystroke_s	s	n/a
62.0015	0.09	124003	keystroke_s	s	n/a
62.076	0.09	124152	keystroke_o	o	n/a
62.226	0.105	124452	keystroke_n	n	n/a
62.332	0.1045	124664	keystroke_Key.space	Key.space	n/a
62.4215	0.1195	124843	keystroke_s	s	n/a
62.6165	0.0745	125233	keystroke_a	a	n/a
62.7065	0.075	125413	keystroke_l	l	n/a
62.8565	0.075	125713	keystroke_l	l	n/a
63.0965	0.105	126193	keystroke_y	y	n/a
63.2315	0.09	126463	keystroke_Key.space	Key.space	n/a
63.4415	0.09	126883	keystroke_m	m	n/a
63.502	0.1045	127004	keystroke_a	a	n/a
63.6215	0.1195	127243	keystroke_i	i	n/a
63.787	0.119	127574	keystroke_n	n	n/a
63.831	0.105	127662	keystroke_e	e	n/a
64.0565	0.0745	128113	keystroke_Key.space	Key.space	n/a
64.2215	0.0595	128443	keystroke_c	c	n/a
64.311	0.105	128622	keystroke_o	o	n/a
64.4765	0.105	128953	keystroke_n	n	n/a
64.6715	0.105	129343	keystroke_v	v	n/a
65.047	0.119	130094	keystroke_i	i	n/a
65.137	0.0895	130274	keystroke_c	c	n/a
65.332	0.1195	130664	keystroke_t	t	n/a
65.4365	0.1055	130873	keystroke_i	i	n/a
65.482	0.1195	130964	keystroke_o	o	n/a
65.646	0.0905	131292	keystroke_n	n	n/a
65.841	0.0605	131682	keystroke_Key.enter	Key.enter	n/a
65.908	6.4905	131816	prompt	n/a	who's hereby alcohol soldier\n
66.4865	0.1045	132973	keystroke_w	w	n/a
66.5615	0.0895	133123	keystroke_h	h	n/a
66.696	0.091	133392	keystroke_o	o	n/a
67.042	0.074	134084	keystroke_'	'	n/a
67.522	0.074	135044	keystroke_s	s	n/a
67.566	0.105	135132	keystroke_Key.space	Key.space	n/a
67.7465	0.1195	135493	keystroke_h	h	n/a
67.867	0.1195	135734	keystroke_e	e	n/a
68.1215	0.1205	136243	keystroke_e	e	n/a
68.3765	0.06	136753	keystroke_r	r	n/a
68.6605	0.091	137321	keystroke_Key.backspace	Key.backspace	n/a
68.8255	0.076	137651	keystroke_Key.backspace	Key.backspace	n/a
68.902	0.0895	137804	keystroke_r	r	n/a
69.052	0.1045	138104	keystroke_e	e	n/a
69.142	0.1195	138284	keystroke_b	b	n/a
69.3815	0.105	138763	keystroke_y	y	n/a
69.5315	0.09	139063	keystroke_Key.space	Key.space	n/a
69.6515	0.0895	139303	keystroke_a	a	n/a
69.756	0.12	139512	keystroke_l	l	n/a
69.892	0.1195	139784	keystroke_c	c	n/a
70.0565	0.105	140113	keystroke_o	o	n/a
70.942	0.104	141884	keystroke_h	h	n/a
71.0015	0.0895	142003	keystroke_o	o	n/a
71.152	0.104	142304	keystroke_l	l	n/a
71.301	0.1055	142602	keystroke_Key.space	Key.space	n/a
71.422	0.119	142844	keystroke_s	s	n/a
71.511	0.091	143022	keystroke_o	o	n/a
71.6615	0.135	143323	keystroke_l	l	n/a
71.766	0.105	143532	keystroke_d	d	n/a
71.901	0.135	143802	keystroke_i	i	n/a
71.976	0.1205	143952	keystroke_e	e	n/a
72.1415	0.1195	144283	keystroke_r	r	n/a
72.291	0.105	144582	keystroke_Key.enter	Key.enter	n/a
72.4025	6.043	144805	prompt	n/a	last efficiency involvement anger\n
73.0265	0.12	146053	keystroke_l	l	n/a
73.1475	0.0895	146295	keystroke_a	a	n/a
73.2665	0.09	146533	keystroke_s	s	n/a
73.492	0.0595	146984	keystroke_t	t	n/a
73.566	0.0755	147132	keystroke_Key.space	Key.space	n/a
73.6565	0.0895	147313	keystroke_e	e	n/a
73.822	0.089	147644	keystroke_f	f	n/a
73.972	0.105	147944	keystroke_f	f	n/a
74.0915	0.1205	148183	keystroke_i	i	n/a
74.6165	0.12	149233	keystroke_c	c	n/a
74.7215	0.1195	149443	keystroke_i	i	n/a
74.9315	0.075	149863	keystroke_e	e	n/a
75.036	0.1205	150072	keystroke_n	n	n/a
75.1715	0.09	150343	keystroke_c	c	n/a
75.3215	0.09	150643	keystroke_y	y	n/a
75.4265	0.06	150853	keystroke_Key.space	Key.space	n/a
75.5615	0.075	151123	keystroke_i	i	n/a
75.6965	0.105	151393	keystroke_n	n	n/a
75.7875	0.119	151575	keystroke_v	v	n/a
75.922	0.1045	151844	keystroke_o	o	n/a
76.0715	0.12	152143	keystroke_l	l	n/a
76.1615	0.09	152323	keystroke_v	v	n/a
76.3565	0.075	152713	keystroke_e	e	n/a
76.477	0.12	152954	keystroke_m	m	n/a
76.5515	0.1355	153103	keystroke_e	e	n/a
76.807	0.074	153614	keystroke_t	t	n/a
77.271	0.045	154542	keystroke_Key.backspace	Key.backspace	n/a
77.437	0.119	154874	keystroke_n	n	n/a
77.4815	0.0605	154963	keystroke_t	t	n/a
77.616	0.12	155232	keystroke_Key.space	Key.space	n/a
77.706	0.106	155412	keystroke_a	a	n/a
77.842	0.12	155684	keystroke_n	n	n/a
77.977	0.06	155954	keystroke_g	g	n/a
78.1265	0.0755	156253	keystroke_e	e	n/a
78.2315	0.1205	156463	keystroke_r	r	n/a
78.3665	0.075	156733	keystroke_Key.enter	Key.enter	n/a
78.4505	6.3075	156901	prompt	n/a	ricky freedom valued watching\n
79.1315	0.09	158263	keystroke_r	r	n/a
79.2365	0.09	158473	keystroke_i	i	n/a
79.3565	0.075	158713	keystroke_c	c	n/a
79.4465	0.09	158893	keystroke_k	k	n/a
79.5815	0.12	159163	keystroke_y	y	n/a
79.7765	0.1495	159553	keystroke_Key.space	Key.space	n/a
80.061	0.0455	160122	keystroke_f	f	n/a
80.451	0.075	160902	keystroke_Key.backspace	Key.backspace	n/a
81.127	0.1195	162254	keystroke_f	f	n/a
81.276	0.1055	162552	keystroke_r	r	n/a
81.442	0.09	162884	keystroke_e	e	n/a
81.606	0.09	163212	keystroke_e	e	n/a
81.7565	0.105	163513	keystroke_d	d	n/a
81.8015	0.0755	163603	keystroke_o	o	n/a
81.9515	0.12	163903	keystroke_m	m	n/a
82.0865	0.105	164173	keystroke_Key.space	Key.space	n/a
82.1765	0.06	164353	keystroke_v	v	n/a
82.3265	0.105	164653	keystroke_a	a	n/a
82.4465	0.03	164893	keystroke_l	l	n/a
82.9865	0.06	165973	keystroke_u	u	n/a
83.002	0.075	166004	keystroke_e	e	n/a
83.1815	0.0755	166363	keystroke_d	d	n/a
83.257	0.0895	166514	keystroke_Key.space	Key.space	n/a
83.572	0.1045	167144	keystroke_w	w	n/a
83.7365	0.12	167473	keystroke_a	a	n/a
83.8715	0.12	167743	keystroke_t	t	n/a
84.037	0.0895	168074	keystroke_c	c	n/a
84.1115	0.105	168223	keystroke_h	h	n/a
84.2765	0.06	168553	keystroke_i	i	n/a
84.4415	0.075	168883	keystroke_n	n	n/a
84.5465	0.1345	169093	keystroke_g	g	n/a
84.697	0.0595	169394	keystroke_Key.enter	Key.enter	n/a
84.763	5.7555	169526	prompt	n/a	receptors reduced cultures involving\n
85.417	0.0895	170834	keystroke_r	r	n/a
85.5365	0.0895	171073	keystroke_e	e	n/a
85.732	0.0895	171464	keystroke_c	c	n/a
85.9265	0.075	171853	keystroke_e	e	n/a
85.9715	0.1055	171943	keystroke_p	p	n/a
86.1065	0.0755	172213	keystroke_t	t	n/a
86.1965	0.1055	172393	keystroke_o	o	n/a
86.286	0.09	172572	keystroke_r	r	n/a
86.467	0.105	172934	keystroke_s	s	n/a
86.556	0.12	173112	keystroke_Key.space	Key.space	n/a
86.692	0.075	173384	keystroke_r	r	n/a
86.797	0.09	173594	keystroke_e	e	n/a
86.977	0.104	173954	keystroke_d	d	n/a
87.066	0.135	174132	keystroke_u	u	n/a
87.1865	0.0745	174373	keystroke_c	c	n/a
87.366	0.0605	174732	keystroke_e	e	n/a
87.5775	0.089	175155	keystroke_d	d	n/a
87.7115	0.1045	175423	keystroke_Key.space	Key.space	n/a
87.891	0.091	175782	keystroke_c	c	n/a
87.966	0.09	175932	keystroke_u	u	n/a
88.192	0.0595	176384	keystroke_l	l	n/a
88.252	0.089	176504	keystroke_t	t	n/a
88.491	0.151	176982	keystroke_u	u	n/a
88.612	0.0745	177224	keystroke_r	r	n/a
88.792	0.0595	177584	keystroke_e	e	n/a
88.926	0.0905	177852	keystroke_s	s	n/a
89.046	0.1055	178092	keystroke_Key.space	Key.space	n/a
89.1965	0.0755	178393	keystroke_i	i	n/a
89.331	0.105	178662	keystroke_n	n	n/a
89.4815	0.1055	178963	keystroke_v	v	n/a
89.602	0.089	179204	keystroke_o	o	n/a
89.7515	0.1195	179503	keystroke_l	l	n/a
89.8565	0.06	179713	keystroke_v	v	n/a
89.991	0.091	179982	keystroke_i	i	n/a
90.141	0.105	180282	keystroke_n	n	n/a
90.276	0.106	180552	keystroke_g	g	n/a
90.411	0.105	180822	keystroke_Key.enter	Key.enter	n/a
90.523	5.6955	181046	prompt	n/a	giants cellular powerpoint grab\n
90.9665	0.0595	181933	keystroke_r	r	n/a
91.311	0.0905	182622	keystroke_Key.backspace	Key.backspace	n/a
91.4465	0.0745	182893	keystroke_g	g	n/a
91.536	0.091	183072	keystroke_i	i	n/a
92.031	0.105	184062	keystroke_a	a	n/a
92.121	0.12	184242	keystroke_n	n	n/a
92.2565	0.075	184513	keystroke_t	t	n/a
92.451	0.105	184902	keystroke_s	s	n/a
92.541	0.105	185082	keystroke_Key.space	Key.space	n/a
92.8715	0.075	185743	keystroke_c	c	n/a
93.0665	0.075	186133	keystroke_e	e	n/a
93.1415	0.0605	186283	keystroke_l	l	n/a
93.3215	0.0605	186643	keystroke_l	l	n/a
93.471	0.0905	186942	keystroke_u	u	n/a
93.652	0.105	187304	keystroke_l	l	n/a
93.7115	0.06	187423	keystroke_a	a	n/a
93.8465	0.105	187693	keystroke_r	r	n/a
93.9215	0.105	187843	keystroke_Key.space	Key.space	n/a
94.0415	0.1655	188083	keystroke_p	p	n/a
94.1465	0.1505	188293	keystroke_o	o	n/a
94.1915	0.12	188383	keystroke_w	w	n/a
94.3265	0.09	188653	keystroke_e	e	n/a
94.432	0.1195	188864	keystroke_r	r	n/a
94.5065	0.1955	189013	keystroke_p	p	n/a
94.6115	0.12	189223	keystroke_o	o	n/a
94.852	0.074	189704	keystroke_i	i	n/a
95.061	0.1055	190122	keystroke_n	n	n/a
95.212	0.104	190424	keystroke_t	t	n/a
95.361	0.12	190722	keystroke_Key.space	Key.space	n/a
95.451	0.105	190902	keystroke_g	g	n/a
95.6015	0.09	191203	keystroke_r	r	n/a
95.8115	0.1205	191623	keystroke_a	a	n/a
95.872	0.104	191744	keystroke_b	b	n/a
96.0965	0.12	192193	keystroke_Key.enter	Key.enter	n/a
96.223	4.93	192446	prompt	n/a	billing began deeply clock\n
96.8015	0.075	193603	keystroke_b	b	n/a
96.9665	0.0755	193933	keystroke_i	i	n/a
97.1615	0.09	194323	keystroke_l	l	n/a
97.327	0.12	194654	keystroke_l	l	n/a
97.5065	0.0905	195013	keystroke_i	i	n/a
97.6715	0.09	195343	keystroke_n	n	n/a
97.746	0.1055	195492	keystroke_g	g	n/a
97.8365	0.1045	195673	keystroke_Key.space	Key.space	n/a
97.9565	0.1205	195913	keystroke_b	b	n/a
98.032	0.1045	196064	keystroke_e	e	n/a
98.1965	0.165	196393	keystroke_h	h	n/a
98.362	0.074	196724	keystroke_a	a	n/a
98.616	0.0755	197232	keystroke_Key.backspace	Key.backspace	n/a
98.781	0.06	197562	keystroke_Key.backspace	Key.backspace	n/a
98.857	0.0445	197714	keystroke_g	g	n/a
99.007	0.089	198014	keystroke_a	a	n/a
99.0665	0.1355	198133	keystroke_n	n	n/a
99.216	0.15	198432	keystroke_Key.space	Key.space	n/a
99.547	0.12	199094	keystroke_d	d	n/a
99.7565	0.045	199513	keystroke_e	e	n/a
99.847	0.09	199694	keystroke_e	e	n/a
99.907	0.09	199814	keystroke_p	p	n/a
100.072	0.105	200144	keystroke_l	l	n/a
100.161	0.091	200322	keystroke_y	y	n/a
100.267	0.105	200534	keystroke_Key.space	Key.space	n/a
100.4025	0.105	200805	keystroke_c	c	n/a
100.4925	0.09	200985	keystroke_l	l	n/a
100.6415	0.105	201283	keystroke_o	o	n/a
100.7625	0.074	201525	keystroke_c	c	n/a
100.8665	0.0755	201733	keystroke_k	k	n/a
101.0465	0.105	202093	keystroke_Key.enter	Key.enter	n/a
101.1565	4.347	202313	prompt	n/a	child thriller reads scholar\n
101.7665	0.15	203533	keystroke_c	c	n/a
101.8565	0.0745	203713	keystroke_h	h	n/a
101.962	0.0905	203924	keystroke_i	i	n/a
102.1715	0.0755	204343	keystroke_l	l	n/a
102.2315	0.105	204463	keystroke_d	d	n/a
102.3515	0.1345	204703	keystroke_Key.space	Key.space	n/a
102.472	0.09	204944	keystroke_t	t	n/a
102.546	0.0755	205092	keystroke_h	h	n/a
102.6515	0.105	205303	keystroke_r	r	n/a
102.727	0.09	205454	keystroke_i	i	n/a
102.922	0.059	205844	keystroke_l	l	n/a
103.086	0.075	206172	keystroke_l	l	n/a
103.176	0.09	206352	keystroke_e	e	n/a
103.2815	0.1205	206563	keystroke_r	r	n/a
103.386	0.1205	206772	keystroke_Key.space	Key.space	n/a
103.4765	0.12	206953	keystroke_r	r	n/a
103.5975	0.1045	207195	keystroke_e	e	n/a
103.7765	0.075	207553	keystroke_a	a	n/a
103.912	0.09	207824	keystroke_d	d	n/a
104.047	0.104	208094	keystroke_s	s	n/a
104.1365	0.1055	208273	keystroke_Key.space	Key.space	n/a
104.272	0.135	208544	keystroke_s	s	n/a
104.512	0.09	209024	keystroke_c	c	n/a
104.572	0.0595	209144	keystroke_h	h	n/a
104.692	0.105	209384	keystroke_o	o	n/a
104.857	0.1645	209714	keystroke_l	l	n/a
104.902	0.09	209804	keystroke_a	a	n/a
105.0815	0.0755	210163	keystroke_r	r	n/a
105.381	0.1205	210762	keystroke_Key.enter	Key.enter	n/a
105.511	4.6275	211022	prompt	n/a	steal dallas supplier estates\n
106.027	0.0895	212054	keystroke_s	s	n/a
106.2365	0.045	212473	keystroke_t	t	n/a
106.477	0.045	212954	keystroke_e	e	n/a
106.657	0.105	213314	keystroke_a	a	n/a
106.7765	0.105	213553	keystroke_l	l	n/a
106.8365	0.1505	213673	keystroke_Key.space	Key.space	n/a
107.0175	0.059	214035	keystroke_d	d	n/a
107.2865	0.075	214573	keystroke_a	a	n/a
107.3465	0.09	214693	keystroke_l	l	n/a
107.5415	0.06	215083	keystroke_l	l	n/a
107.5715	0.106	215143	keystroke_a	a	n/a
107.706	0.106	215412	keystroke_s	s	n/a
107.826	0.135	215652	keystroke_Key.space	Key.space	n/a
107.946	0.09	215892	keystroke_s	s	n/a
108.037	0.06	216074	keystroke_u	u	n/a
108.186	0.075	216372	keystroke_p	p	n/a
108.352	0.0595	216704	keystroke_p	p	n/a
108.517	0.074	217034	keystroke_l	l	n/a
108.651	0.106	217302	keystroke_i	i	n/a
108.7265	0.1055	217453	keystroke_e	e	n/a
108.847	0.104	217694	keystroke_r	r	n/a
108.936	0.136	217872	keystroke_Key.space	Key.space	n/a
109.147	0.105	218294	keystroke_e	e	n/a
109.356	0.076	218712	keystroke_s	s	n/a
109.462	0.1045	218924	keystroke_t	t	n/a
109.5815	0.06	219163	keystroke_a	a	n/a
109.6715	0.135	219343	keystroke_t	t	n/a
109.7465	0.09	219493	keystroke_e	e	n/a
109.941	0.091	219882	keystroke_s	s	n/a
110.047	0.0895	220094	keystroke_Key.enter	Key.enter	n/a
110.1415	4.888	220283	prompt	n/a	complaint town warning proudly\n
110.737	0.15	221474	keystroke_c	c	n/a
110.8265	0.076	221653	keystroke_o	o	n/a
110.991	0.0755	221982	keystroke_m	m	n/a
111.1275	0.0885	222255	keystroke_p	p	n/a
111.2915	0.0895	222583	keystroke_l	l	n/a
111.366	0.09	222732	keystroke_a	a	n/a
111.486	0.075	222972	keystroke_i	i	n/a
111.6065	0.15	223213	keystroke_n	n	n/a
111.727	0.0895	223454	keystroke_t	t	n/a
111.8315	0.1195	223663	keystroke_Key.space	Key.space	n/a
111.937	0.09	223874	keystroke_t	t	n/a
112.057	0.15	224114	keystroke_o	o	n/a
112.191	0.091	224382	keystroke_w	w	n/a
112.312	0.18	224624	keystroke_n	n	n/a
112.462	0.12	224924	keystroke_Key.space	Key.space	n/a
112.597	0.104	225194	keystroke_w	w	n/a
112.792	0.09	225584	keystroke_a	a	n/a
112.987	0.104	225974	keystroke_r	r	n/a
113.077	0.195	226154	keystroke_n	n	n/a
113.497	0.0145	226994	keystroke_i	i	n/a
113.586	0.196	227172	keystroke_n	n	n/a
113.692	0.105	227384	keystroke_g	g	n/a
113.812	0.12	227624	keystroke_Key.space	Key.space	n/a
114.0065	0.1355	228013	keystroke_p	p	n/a
114.157	0.104	228314	keystroke_r	r	n/a
114.277	0.09	228554	keystroke_o	o	n/a
114.427	0.12	228854	keystroke_u	u	n/a
114.517	0.105	229034	keystroke_d	d	n/a
114.6825	0.0895	229365	keystroke_l	l	n/a
114.802	0.0905	229604	keystroke_y	y	n/a
114.936	0.09	229872	keystroke_Key.enter	Key.enter	n/a
115.0325	6.401	230065	prompt	n/a	subtle of appropriations correlation\n
115.537	0.059	231074	keystroke_c	c	n/a
115.866	0.0455	231732	keystroke_Key.backspace	Key.backspace	n/a
115.9415	0.0905	231883	keystroke_s	s	n/a
116.092	0.075	232184	keystroke_u	u	n/a
116.302	0.075	232604	keystroke_b	b	n/a
116.407	0.09	232814	keystroke_t	t	n/a
116.541	0.1205	233082	keystroke_l	l	n/a
116.767	0.0895	233534	keystroke_e	e	n/a
116.8415	0.15	233683	keystroke_Key.space	Key.space	n/a
116.9615	0.105	233923	keystroke_o	o	n/a
117.0515	0.076	234103	keystroke_f	f	n/a
117.1415	0.12	234283	keystroke_Key.space	Key.space	n/a
117.307	0.134	234614	keystroke_a	a	n/a
117.5315	0.06	235063	keystroke_p	p	n/a
117.681	0.1355	235362	keystroke_p	p	n/a
117.802	0.12	235604	keystroke_r	r	n/a
117.9365	0.165	235873	keystroke_o	o	n/a
118.0575	0.119	236115	keystroke_p	p	n/a
118.2065	0.105	236413	keystroke_r	r	n/a
118.4765	0.105	236953	keystroke_i	i	n/a
118.6565	0.06	237313	keystroke_a	a	n/a
118.822	0.1045	237644	keystroke_t	t	n/a
118.8965	0.135	237793	keystroke_i	i	n/a
118.957	0.104	237914	keystroke_o	o	n/a
119.1515	0.1055	238303	keystroke_n	n	n/a
119.332	0.09	238664	keystroke_s	s	n/a
119.4515	0.12	238903	keystroke_Key.space	Key.space	n/a
119.722	0.089	239444	keystroke_c	c	n/a
119.812	0.059	239624	keystroke_o	o	n/a
120.0665	0.0755	240133	keystroke_r	r	n/a
120.307	0.09	240614	keystroke_r	r	n/a
120.457	0.09	240914	keystroke_e	e	n/a
120.532	0.1045	241064	keystroke_l	l	n/a
120.651	0.091	241302	keystroke_a	a	n/a
120.847	0.104	241694	keystroke_t	t	n/a
120.892	0.135	241784	keystroke_i	i	n/a
120.936	0.12	241872	keystroke_o	o	n/a
121.132	0.104	242264	keystroke_n	n	n/a
121.282	0.149	242564	keystroke_Key.enter	Key.enter	n/a
121.439	4.659	242878	prompt	n/a	swim cargo promotional taken\n
122.047	0.06	244094	keystroke_w	w	n/a
122.317	0.0745	244634	keystroke_Key.backspace	Key.backspace	n/a
122.3615	0.0905	244723	keystroke_s	s	n/a
122.5565	0.0905	245113	keystroke_w	w	n/a
122.616	0.076	245232	keystroke_i	i	n/a
122.811	0.091	245622	keystroke_m	m	n/a
122.916	0.1055	245832	keystroke_Key.space	Key.space	n/a
123.051	0.076	246102	keystroke_c	c	n/a
123.232	0.06	246464	keystroke_a	a	n/a
123.397	0.09	246794	keystroke_r	r	n/a
123.577	0.1195	247154	keystroke_g	g	n/a
123.6365	0.09	247273	keystroke_o	o	n/a
123.7275	0.104	247455	keystroke_Key.space	Key.space	n/a
123.8615	0.12	247723	keystroke_p	p	n/a
123.9365	0.1205	247873	keystroke_r	r	n/a
124.0725	0.0745	248145	keystroke_o	o	n/a
124.2215	0.0745	248443	keystroke_m	m	n/a
124.372	0.105	248744	keystroke_o	o	n/a
124.462	0.119	248924	keystroke_t	t	n/a
124.597	0.15	249194	keystroke_i	i	n/a
124.687	0.089	249374	keystroke_o	o	n/a
124.866	0.0755	249732	keystroke_n	n	n/a
124.972	0.09	249944	keystroke_a	a	n/a
125.0465	0.1055	250093	keystroke_l	l	n/a
125.182	0.1045	250364	keystroke_Key.space	Key.space	n/a
125.2415	0.0905	250483	keystroke_t	t	n/a
125.4815	0.075	250963	keystroke_a	a	n/a
125.5715	0.0755	251143	keystroke_k	k	n/a
125.662	0.06	251324	keystroke_e	e	n/a
125.7365	0.106	251473	keystroke_n	n	n/a
125.962	0.1345	251924	keystroke_Key.enter	Key.enter	n/a
126.102	7.481	252204	prompt	n/a	worldwide glossary satisfactory pharmaceutical\n
126.667	0.105	253334	keystroke_w	w	n/a
126.757	0.09	253514	keystroke_o	o	n/a
126.862	0.09	253724	keystroke_r	r	n/a
126.967	0.12	253934	keystroke_l	l	n/a
127.132	0.0895	254264	keystroke_d	d	n/a
127.357	0.09	254714	keystroke_w	w	n/a
127.432	0.1195	254864	keystroke_i	i	n/a
127.5665	0.06	255133	keystroke_d	d	n/a
127.7465	0.1055	255493	keystroke_e	e	n/a
127.836	0.1055	255672	keystroke_Key.space	Key.space	n/a
128.0015	0.0755	256003	keystroke_g	g	n/a
128.0915	0.075	256183	keystroke_l	l	n/a
128.2865	0.09	256573	keystroke_o	o	n/a
128.332	0.074	256664	keystroke_s	s	n/a
128.497	0.089	256994	keystroke_s	s	n/a
128.647	0.06	257294	keystroke_a	a	n/a
128.796	0.09	257592	keystroke_r	r	n/a
128.857	0.15	257714	keystroke_y	y	n/a
128.961	0.136	257922	keystroke_Key.space	Key.space	n/a
129.051	0.1055	258102	keystroke_s	s	n/a
129.2315	0.09	258463	keystroke_a	a	n/a
129.4715	0.0755	258943	keystroke_t	t	n/a
129.6215	0.1055	259243	keystroke_i	i	n/a
129.7865	0.09	259573	keystroke_s	s	n/a
130.0115	0.0905	260023	keystroke_f	f	n/a
130.2065	0.075	260413	keystroke_a	a	n/a
130.3565	0.091	260713	keystroke_c	c	n/a
130.552	0.1195	261104	keystroke_t	t	n/a
130.6565	0.09	261313	keystroke_o	o	n/a
130.7765	0.0905	261553	keystroke_r	r	n/a
130.9265	0.135	261853	keystroke_y	y	n/a
131.0315	0.1055	262063	keystroke_Key.space	Key.space	n/a
131.2415	0.075	262483	keystroke_p	p	n/a
131.4215	0.1205	262843	keystroke_h	h	n/a
131.691	0.0905	263382	keystroke_a	a	n/a
131.8565	0.0905	263713	keystroke_r	r	n/a
131.9615	0.105	263923	keystroke_m	m	n/a
132.1565	0.09	264313	keystroke_a	a	n/a
132.3815	0.0605	264763	keystroke_c	c	n/a
132.562	0.0745	265124	keystroke_e	e	n/a
132.637	0.1045	265274	keystroke_u	u	n/a
132.7865	0.12	265573	keystroke_t	t	n/a
132.8765	0.12	265753	keystroke_i	i	n/a
133.042	0.075	266084	keystroke_c	c	n/a
133.222	0.1045	266444	keystroke_a	a	n/a
133.3115	0.0905	266623	keystroke_l	l	n/a
133.5065	0.075	267013	keystroke_Key.enter	Key.enter	n/a
133.587	5.547	267174	prompt	n/a	disaster mirrors bali tongue\n
134.3015	0.045	268603	keystroke_s	s	n/a
134.3765	0.12	268753	keystroke_d	d	n/a
134.6915	0.0755	269383	keystroke_Key.backspace	Key.backspace	n/a
134.8415	0.06	269683	keystroke_Key.backspace	Key.backspace	n/a
134.8865	0.121	269773	keystroke_d	d	n/a
134.9775	0.119	269955	keystroke_i	i	n/a
135.082	0.09	270164	keystroke_s	s	n/a
135.307	0.0595	270614	keystroke_a	a	n/a
135.5315	0.0905	271063	keystroke_s	s	n/a
135.6525	0.134	271305	keystroke_t	t	n/a
135.742	0.105	271484	keystroke_e	e	n/a
135.892	0.09	271784	keystroke_r	r	n/a
136.012	0.09	272024	keystroke_Key.space	Key.space	n/a
136.207	0.06	272414	keystroke_m	m	n/a
136.6115	0.0755	273223	keystroke_i	i	n/a
136.7165	0.091	273433	keystroke_r	r	n/a
136.912	0.09	273824	keystroke_r	r	n/a
136.9865	0.09	273973	keystroke_o	o	n/a
137.1365	0.075	274273	keystroke_r	r	n/a
137.3465	0.105	274693	keystroke_s	s	n/a
137.4215	0.12	274843	keystroke_Key.space	Key.space	n/a
137.6165	0.09	275233	keystroke_b	b	n/a
137.7215	0.0905	275443	keystroke_a	a	n/a
137.8725	0.059	275745	keystroke_l	l	n/a
138.021	0.1055	276042	keystroke_i	i	n/a
138.1865	0.0755	276373	keystroke_Key.space	Key.space	n/a
138.2765	0.105	276553	keystroke_t	t	n/a
138.3665	0.0755	276733	keystroke_o	o	n/a
138.487	0.1195	276974	keystroke_n	n	n/a
138.6215	0.09	277243	keystroke_g	g	n/a
138.7115	0.12	277423	keystroke_u	u	n/a
138.8465	0.075	277693	keystroke_e	e	n/a
139.0265	0.1045	278053	keystroke_Key.enter	Key.enter	n/a
139.138	4.99	278276	prompt	n/a	mumbai spider suitable refinance\n
139.8075	0.119	279615	keystroke_m	m	n/a
139.971	0.0905	279942	keystroke_u	u	n/a
140.1815	0.0605	280363	keystroke_m	m	n/a
140.362	0.0745	280724	keystroke_b	b	n/a
140.4515	0.0895	280903	keystroke_a	a	n/a
140.571	0.0905	281142	keystroke_i	i	n/a
140.676	0.135	281352	keystroke_Key.space	Key.space	n/a
140.827	0.09	281654	keystroke_s	s	n/a
140.932	0.075	281864	keystroke_p	p	n/a
141.097	0.15	282194	keystroke_i	i	n/a
141.186	0.0905	282372	keystroke_d	d	n/a
141.3825	0.089	282765	keystroke_e	e	n/a
141.5015	0.105	283003	keystroke_r	r	n/a
141.5915	0.09	283183	keystroke_Key.space	Key.space	n/a
141.757	0.12	283514	keystroke_s	s	n/a
141.847	0.1645	283694	keystroke_u	u	n/a
141.9665	0.12	283933	keystroke_i	i	n/a
142.1315	0.06	284263	keystroke_t	t	n/a
142.327	0.119	284654	keystroke_a	a	n/a
142.4015	0.0605	284803	keystroke_b	b	n/a
142.5515	0.1045	285103	keystroke_l	l	n/a
142.641	0.106	285282	keystroke_e	e	n/a
142.7615	0.1195	285523	keystroke_Key.space	Key.space	n/a
142.866	0.106	285732	keystroke_r	r	n/a
143.016	0.09	286032	keystroke_e	e	n/a
143.2265	0.06	286453	keystroke_f	f	n/a
143.2565	0.06	286513	keystroke_i	i	n/a
143.436	0.09	286872	keystroke_n	n	n/a
143.557	0.0895	287114	keystroke_a	a	n/a
143.6315	0.09	287263	keystroke_n	n	n/a
143.7365	0.091	287473	keystroke_c	c	n/a
143.947	0.0595	287894	keystroke_e	e	n/a
144.0665	0.06	288133	keystroke_Key.enter	Key.enter	n/a
144.131	5.1125	288262	prompt	n/a	anyway workshop nato homeland\n
144.802	0.1195	289604	keystroke_a	a	n/a
144.8915	0.0905	289783	keystroke_n	n	n/a
145.102	0.1045	290204	keystroke_y	y	n/a
145.2365	0.0755	290473	keystroke_w	w	n/a
145.3715	0.1355	290743	keystroke_a	a	n/a
145.508	0.089	291016	keystroke_y	y	n/a
145.7015	0.12	291403	keystroke_Key.space	Key.space	n/a
145.8965	0.1205	291793	keystroke_w	w	n/a
145.9865	0.0905	291973	keystroke_o	o	n/a
146.0915	0.1205	292183	keystroke_r	r	n/a
146.2265	0.1055	292453	keystroke_k	k	n/a
146.392	0.105	292784	keystroke_s	s	n/a
146.512	0.0895	293024	keystroke_h	h	n/a
146.722	0.164	293444	keystroke_o	o	n/a
146.826	0.121	293652	keystroke_p	p	n/a
147.006	0.09	294012	keystroke_Key.space	Key.space	n/a
147.202	0.104	294404	keystroke_n	n	n/a
147.261	0.0605	294522	keystroke_a	a	n/a
147.4415	0.0905	294883	keystroke_t	t	n/a
147.4865	0.105	294973	keystroke_o	o	n/a
147.6065	0.12	295213	keystroke_Key.space	Key.space	n/a
147.742	0.0745	295484	keystroke_h	h	n/a
148.1315	0.075	296263	keystroke_o	o	n/a
148.2815	0.12	296563	keystroke_m	m	n/a
148.3865	0.105	296773	keystroke_e	e	n/a
148.7015	0.075	297403	keystroke_l	l	n/a
148.8065	0.12	297613	keystroke_a	a	n/a
148.912	0.1195	297824	keystroke_n	n	n/a
149.0015	0.12	298003	keystroke_d	d	n/a
149.1365	0.105	298273	keystroke_Key.enter	Key.enter	n/a
149.2475	6.4455	298495	prompt	n/a	handheld headset meditation pale\n
149.8415	0.075	299683	keystroke_h	h	n/a
149.947	0.1045	299894	keystroke_a	a	n/a
150.0215	0.1205	300043	keystroke_n	n	n/a
150.157	0.105	300314	keystroke_d	d	n/a
150.547	0.09	301094	keystroke_h	h	n/a
150.697	0.09	301394	keystroke_e	e	n/a
150.802	0.09	301604	keystroke_l	l	n/a
151.027	0.045	302054	keystroke_p	p	n/a
151.3865	0.06	302773	keystroke_Key.backspace	Key.backspace	n/a
151.5065	0.075	303013	keystroke_d	d	n/a
151.5965	0.105	303193	keystroke_Key.space	Key.space	n/a
152.031	0.106	304062	keystroke_h	h	n/a
152.077	0.105	304154	keystroke_e	e	n/a
152.287	0.059	304574	keystroke_a	a	n/a
152.436	0.075	304872	keystroke_d	d	n/a
152.646	0.0905	305292	keystroke_s	s	n/a
152.857	0.0905	305714	keystroke_e	e	n/a
153.0665	0.105	306133	keystroke_t	t	n/a
153.2015	0.105	306403	keystroke_Key.space	Key.space	n/a
153.3215	0.135	306643	keystroke_m	m	n/a
153.4115	0.075	306823	keystroke_e	e	n/a
153.5765	0.12	307153	keystroke_d	d	n/a
153.6815	0.135	307363	keystroke_i	i	n/a
154.236	0.09	308472	keystroke_t	t	n/a
154.4465	0.075	308893	keystroke_a	a	n/a
154.627	0.1045	309254	keystroke_t	t	n/a
154.687	0.1045	309374	keystroke_i	i	n/a
154.7015	0.135	309403	keystroke_o	o	n/a
154.8665	0.1355	309733	keystroke_n	n	n/a
154.986	0.135	309972	keystroke_Key.space	Key.space	n/a
155.182	0.0895	310364	keystroke_p	p	n/a
155.317	0.059	310634	keystroke_a	a	n/a
155.407	0.12	310814	keystroke_l	l	n/a
155.481	0.091	310962	keystroke_e	e	n/a
155.602	0.089	311204	keystroke_Key.enter	Key.enter	n/a
155.6965	3.8515	311393	prompt	n/a	joining thin grey sight\n
156.4115	0.0895	312823	keystroke_j	j	n/a
156.6365	0.1345	313273	keystroke_o	o	n/a
156.712	0.1345	313424	keystroke_i	i	n/a
156.9815	0.105	313963	keystroke_n	n	n/a
157.1315	0.0905	314263	keystroke_i	i	n/a
157.266	0.12	314532	keystroke_n	n	n/a
157.387	0.104	314774	keystroke_g	g	n/a
157.536	0.135	315072	keystroke_Key.space	Key.space	n/a
157.657	0.134	315314	keystroke_t	t	n/a
157.7765	0.09	315553	keystroke_h	h	n/a
157.9115	0.105	315823	keystroke_i	i	n/a
158.046	0.1655	316092	keystroke_n	n	n/a
158.2125	0.089	316425	keystroke_Key.space	Key.space	n/a
158.2565	0.1055	316513	keystroke_g	g	n/a
158.4215	0.1055	316843	keystroke_r	r	n/a
158.6015	0.1205	317203	keystroke_e	e	n/a
158.6615	0.105	317323	keystroke_y	y	n/a
158.7365	0.09	317473	keystroke_Key.space	Key.space	n/a
158.8265	0.1495	317653	keystroke_s	s	n/a
158.961	0.0755	317922	keystroke_i	i	n/a
159.0665	0.105	318133	keystroke_g	g	n/a
159.1565	0.06	318313	keystroke_h	h	n/a
159.3365	0.09	318673	keystroke_t	t	n/a
159.4415	0.1045	318883	keystroke_Key.enter	Key.enter	n/a
159.5525	5.591	319105	prompt	n/a	treat having supplies orientation\n
160.2665	0.0905	320533	keystroke_t	t	n/a
160.416	0.135	320832	keystroke_r	r	n/a
160.626	0.0905	321252	keystroke_e	e	n/a
160.822	0.105	321644	keystroke_a	a	n/a
160.912	0.105	321824	keystroke_t	t	n/a
161.0015	0.12	322003	keystroke_Key.space	Key.space	n/a
161.182	0.12	322364	keystroke_h	h	n/a
161.286	0.0755	322572	keystroke_a	a	n/a
161.392	0.059	322784	keystroke_v	v	n/a
161.572	0.075	323144	keystroke_i	i	n/a
161.707	0.12	323414	keystroke_n	n	n/a
161.782	0.119	323564	keystroke_g	g	n/a
161.871	0.12	323742	keystroke_Key.space	Key.space	n/a
162.006	0.12	324012	keystroke_s	s	n/a
162.0665	0.0755	324133	keystroke_u	u	n/a
162.276	0.06	324552	keystroke_p	p	n/a
162.412	0.089	324824	keystroke_p	p	n/a
162.607	0.12	325214	keystroke_l	l	n/a
162.757	0.149	325514	keystroke_i	i	n/a
162.847	0.105	325694	keystroke_e	e	n/a
163.0265	0.1055	326053	keystroke_s	s	n/a
163.086	0.135	326172	keystroke_Key.space	Key.space	n/a
163.191	0.121	326382	keystroke_o	o	n/a
163.357	0.12	326714	keystroke_r	r	n/a
163.537	0.1495	327074	keystroke_i	i	n/a
163.897	0.1345	327794	keystroke_e	e	n/a
164.0155	0.1365	328031	keystroke_n	n	n/a
164.182	0.0745	328364	keystroke_t	t	n/a
164.3765	0.09	328753	keystroke_a	a	n/a
164.6015	0.12	329203	keystroke_t	t	n/a
164.6465	0.1355	329293	keystroke_i	i	n/a
164.6915	0.1055	329383	keystroke_o	o	n/a
164.8415	0.12	329683	keystroke_n	n	n/a
165.0665	0.075	330133	keystroke_Key.enter	Key.enter	n/a
165.151	7.117	330302	prompt	n/a	administrative accuracy actors neither\n
165.8165	0.045	331633	keystroke_a	a	n/a
166.1465	0.106	332293	keystroke_d	d	n/a
166.2365	0.1205	332473	keystroke_m	m	n/a
166.446	0.091	332892	keystroke_i	i	n/a
166.6275	0.089	333255	keystroke_n	n	n/a
166.8665	0.105	333733	keystroke_i	i	n/a
167.1365	0.0905	334273	keystroke_s	s	n/a
167.376	0.105	334752	keystroke_t	t	n/a
167.541	0.1065	335082	keystroke_r	r	n/a
167.767	0.0595	335534	keystroke_a	a	n/a
167.9765	0.105	335953	keystroke_t	t	n/a
168.1415	0.15	336283	keystroke_i	i	n/a
168.2765	0.0905	336553	keystroke_v	v	n/a
168.486	0.075	336972	keystroke_e	e	n/a
168.546	0.135	337092	keystroke_Key.space	Key.space	n/a
169.147	0.09	338294	keystroke_a	a	n/a
169.327	0.075	338654	keystroke_c	c	n/a
169.477	0.075	338954	keystroke_c	c	n/a
169.627	0.1195	339254	keystroke_u	u	n/a
169.732	0.0895	339464	keystroke_r	r	n/a
169.9125	0.0895	339825	keystroke_a	a	n/a
170.062	0.1045	340124	keystroke_c	c	n/a
170.1365	0.135	340273	keystroke_y	y	n/a
170.2415	0.135	340483	keystroke_Key.space	Key.space	n/a
170.4365	0.045	340873	keystroke_a	a	n/a
170.662	0.105	341324	keystroke_c	c	n/a
170.887	0.1195	341774	keystroke_t	t	n/a
170.9615	0.12	341923	keystroke_o	o	n/a
171.0965	0.06	342193	keystroke_r	r	n/a
171.262	0.0895	342524	keystroke_s	s	n/a
171.3665	0.105	342733	keystroke_Key.space	Key.space	n/a
171.4565	0.1355	342913	keystroke_n	n	n/a
171.5765	0.09	343153	keystroke_e	e	n/a
171.6815	0.105	343363	keystroke_i	i	n/a
171.7715	0.1055	343543	keystroke_t	t	n/a
171.862	0.1045	343724	keystroke_h	h	n/a
171.9515	0.09	343903	keystroke_e	e	n/a
172.072	0.1045	344144	keystroke_r	r	n/a
172.1615	0.105	344323	keystroke_Key.enter	Key.enter	n/a
172.2715	5.7715	344543	prompt	n/a	leon coal manufacturers rwanda\n
172.8215	0.1205	345643	keystroke_l	l	n/a
172.9115	0.12	345823	keystroke_e	e	n/a
173.0465	0.12	346093	keystroke_o	o	n/a
173.257	0.119	346514	keystroke_n	n	n/a
173.361	0.136	346722	keystroke_Key.space	Key.space	n/a
173.452	0.12	346904	keystroke_c	c	n/a
173.572	0.105	347144	keystroke_o	o	n/a
173.722	0.1345	347444	keystroke_a	a	n/a
173.826	0.105	347652	keystroke_l	l	n/a
173.946	0.0755	347892	keystroke_Key.space	Key.space	n/a
174.0365	0.1055	348073	keystroke_m	m	n/a
174.156	0.09	348312	keystroke_a	a	n/a
174.261	0.0605	348522	keystroke_n	n	n/a
174.426	0.15	348852	keystroke_u	u	n/a
174.5315	0.0895	349063	keystroke_f	f	n/a
174.7265	0.075	349453	keystroke_a	a	n/a
174.877	0.0745	349754	keystroke_c	c	n/a
175.0715	0.1195	350143	keystroke_t	t	n/a
175.1615	0.135	350323	keystroke_u	u	n/a
175.236	0.105	350472	keystroke_r	r	n/a
175.446	0.105	350892	keystroke_e	e	n/a
175.7165	0.12	351433	keystroke_r	r	n/a
175.9115	0.135	351823	keystroke_s	s	n/a
176.0165	0.135	352033	keystroke_Key.space	Key.space	n/a
176.1525	0.089	352305	keystroke_r	r	n/a
176.722	0.134	353444	keystroke_w	w	n/a
176.9465	0.105	353893	keystroke_a	a	n/a
177.037	0.15	354074	keystroke_n	n	n/a
177.201	0.091	354402	keystroke_d	d	n/a
177.337	0.0745	354674	keystroke_s	s	n/a
177.681	0.105	355362	keystroke_Key.backspace	Key.backspace	n/a
177.771	0.075	355542	keystroke_a	a	n/a
177.9065	0.1345	355813	keystroke_Key.enter	Key.enter	n/a
178.0475	7.0615	356095	prompt	n/a	startup humanitarian squad frequencies\n
178.746	0.075	357492	keystroke_s	s	n/a
178.942	0.0895	357884	keystroke_t	t	n/a
179.212	0.089	358424	keystroke_a	a	n/a
179.4065	0.09	358813	keystroke_r	r	n/a
179.587	0.0895	359174	keystroke_t	t	n/a
179.692	0.1195	359384	keystroke_u	u	n/a
179.9015	0.0905	359803	keystroke_p	p	n/a
180.0365	0.1205	360073	keystroke_Key.space	Key.space	n/a
180.141	0.151	360282	keystroke_h	h	n/a
180.277	0.09	360554	keystroke_u	u	n/a
180.471	0.105	360942	keystroke_m	m	n/a
180.547	0.12	361094	keystroke_a	a	n/a
180.682	0.06	361364	keystroke_n	n	n/a
180.817	0.105	361634	keystroke_i	i	n/a
180.907	0.105	361814	keystroke_t	t	n/a
181.147	0.074	362294	keystroke_a	a	n/a
181.552	0.09	363104	keystroke_r	r	n/a
181.6865	0.105	363373	keystroke_i	i	n/a
181.8965	0.09	363793	keystroke_a	a	n/a
181.9565	0.135	363913	keystroke_n	n	n/a
182.0765	0.12	364153	keystroke_Key.space	Key.space	n/a
182.2865	0.045	364573	keystroke_s	s	n/a
182.4815	0.09	364963	keystroke_q	q	n/a
182.5415	0.12	365083	keystroke_u	u	n/a
182.6915	0.1205	365383	keystroke_a	a	n/a
182.992	0.045	365984	keystroke_d	d	n/a
183.067	0.089	366134	keystroke_Key.space	Key.space	n/a
183.352	0.12	366704	keystroke_f	f	n/a
183.502	0.09	367004	keystroke_r	r	n/a
183.696	0.12	367392	keystroke_e	e	n/a
183.9065	0.1055	367813	keystroke_q	q	n/a
184.026	0.106	368052	keystroke_u	u	n/a
184.117	0.105	368234	keystroke_e	e	n/a
184.371	0.106	368742	keystroke_n	n	n/a
184.492	0.09	368984	keystroke_c	c	n/a
184.642	0.12	369284	keystroke_i	i	n/a
184.746	0.076	369492	keystroke_e	e	n/a
184.912	0.09	369824	keystroke_s	s	n/a
185.0165	0.0905	370033	keystroke_Key.enter	Key.enter	n/a
185.1125	6.117	370225	prompt	n/a	communities function indicate cheats\n
185.8265	0.105	371653	keystroke_c	c	n/a
185.917	0.0905	371834	keystroke_o	o	n/a
186.1265	0.0755	372253	keystroke_m	m	n/a
186.262	0.09	372524	keystroke_m	m	n/a
186.457	0.074	372914	keystroke_u	u	n/a
186.592	0.074	373184	keystroke_n	n	n/a
186.771	0.076	373542	keystroke_i	i	n/a
186.862	0.134	373724	keystroke_t	t	n/a
187.011	0.1205	374022	keystroke_i	i	n/a
187.132	0.0745	374264	keystroke_e	e	n/a
187.281	0.1205	374562	keystroke_s	s	n/a
187.416	0.0905	374832	keystroke_Key.space	Key.space	n/a
187.7465	0.0755	375493	keystroke_f	f	n/a
187.8065	0.075	375613	keystroke_u	u	n/a
187.9715	0.105	375943	keystroke_n	n	n/a
188.0765	0.1205	376153	keystroke_c	c	n/a
188.3165	0.1055	376633	keystroke_t	t	n/a
188.3765	0.135	376753	keystroke_i	i	n/a
188.4365	0.12	376873	keystroke_o	o	n/a
188.662	0.0895	377324	keystroke_n	n	n/a
188.7515	0.09	377503	keystroke_Key.space	Key.space	n/a
188.8565	0.09	377713	keystroke_i	i	n/a
189.007	0.1045	378014	keystroke_n	n	n/a
189.1265	0.0905	378253	keystroke_d	d	n/a
189.2315	0.1055	378463	keystroke_i	i	n/a
189.5025	0.0595	379005	keystroke_c	c	n/a
189.666	0.0605	379332	keystroke_a	a	n/a
189.832	0.0895	379664	keystroke_t	t	n/a
189.9815	0.12	379963	keystroke_e	e	n/a
190.0865	0.105	380173	keystroke_Key.space	Key.space	n/a
190.1765	0.12	380353	keystroke_c	c	n/a
190.2825	0.089	380565	keystroke_h	h	n/a
190.4015	0.1045	380803	keystroke_e	e	n/a
190.581	0.0755	381162	keystroke_a	a	n/a
190.807	0.0745	381614	keystroke_t	t	n/a
191.0165	0.0895	382033	keystroke_s	s	n/a
191.121	0.1055	382242	keystroke_Key.enter	Key.enter	n/a
191.2335	7.405	382467	prompt	n/a	engineering schedules expenditures voice\n
192.052	0.0895	384104	keystroke_e	e	n/a
192.2315	0.12	384463	keystroke_n	n	n/a
192.4115	0.105	384823	keystroke_g	g	n/a
192.4865	0.075	384973	keystroke_i	i	n/a
192.6215	0.1345	385243	keystroke_n	n	n/a
192.742	0.12	385484	keystroke_e	e	n/a
192.937	0.089	385874	keystroke_e	e	n/a
193.177	0.1045	386354	keystroke_r	r	n/a
193.2665	0.0755	386533	keystroke_i	i	n/a
193.4315	0.09	386863	keystroke_n	n	n/a
193.4765	0.105	386953	keystroke_g	g	n/a
193.6115	0.09	387223	keystroke_Key.space	Key.space	n/a
193.672	0.105	387344	keystroke_s	s	n/a
193.822	0.105	387644	keystroke_c	c	n/a
193.942	0.089	387884	keystroke_h	h	n/a
194.047	0.09	388094	keystroke_e	e	n/a
194.227	0.089	388454	keystroke_d	d	n/a
194.272	0.105	388544	keystroke_u	u	n/a
194.482	0.075	388964	keystroke_l	l	n/a
194.542	0.09	389084	keystroke_e	e	n/a
194.692	0.1045	389384	keystroke_s	s	n/a
194.767	0.1045	389534	keystroke_Key.space	Key.space	n/a
194.916	0.106	389832	keystroke_e	e	n/a
195.156	0.1355	390312	keystroke_x	x	n/a
195.277	0.089	390554	keystroke_p	p	n/a
195.426	0.136	390852	keystroke_e	e	n/a
195.6215	0.1055	391243	keystroke_n	n	n/a
195.937	0.1195	391874	keystroke_d	d	n/a
196.1315	0.1655	392263	keystroke_i	i	n/a
196.2815	0.105	392563	keystroke_t	t	n/a
196.4165	0.0905	392833	keystroke_u	u	n/a
197.1065	0.075	394213	keystroke_r	r	n/a
197.347	0.1045	394694	keystroke_e	e	n/a
197.5715	0.09	395143	keystroke_s	s	n/a
197.6765	0.12	395353	keystroke_Key.space	Key.space	n/a
197.9465	0.075	395893	keystroke_v	v	n/a
198.0065	0.181	396013	keystroke_o	o	n/a
198.097	0.1495	396194	keystroke_i	i	n/a
198.2015	0.09	396403	keystroke_c	c	n/a
198.4265	0.0755	396853	keystroke_e	e	n/a
198.5165	0.12	397033	keystroke_Key.enter	Key.enter	n/a
198.643	7.765	397286	prompt	n/a	detail 'twas collectible dear\n
199.2365	0.09	398473	keystroke_d	d	n/a
199.417	0.075	398834	keystroke_e	e	n/a
199.5965	0.03	399193	keystroke_t	t	n/a
199.6565	0.09	399313	keystroke_i	i	n/a
199.8965	0.105	399793	keystroke_a	a	n/a
200.017	0.0895	400034	keystroke_l	l	n/a
200.1665	0.09	400333	keystroke_Key.space	Key.space	n/a
200.5115	0.105	401023	keystroke_Key.backspace	Key.backspace	n/a
200.737	0.044	401474	keystroke_Key.backspace	Key.backspace	n/a
200.902	0.06	401804	keystroke_Key.backspace	Key.backspace	n/a
201.0665	0.0755	402133	keystroke_Key.backspace	Key.backspace	n/a
201.217	0.135	402434	keystroke_a	a	n/a
201.277	0.09	402554	keystroke_i	i	n/a
201.4865	0.09	402973	keystroke_l	l	n/a
201.637	0.1345	403274	keystroke_Key.space	Key.space	n/a
202.4315	0.105	404863	keystroke_'	'	n/a
202.7765	0.1205	405553	keystroke_t	t	n/a
202.8665	0.12	405733	keystroke_w	w	n/a
203.062	0.1345	406124	keystroke_a	a	n/a
203.1815	0.1355	406363	keystroke_s	s	n/a
203.3015	0.0895	406603	keystroke_Key.space	Key.space	n/a
203.437	0.06	406874	keystroke_c	c	n/a
204.216	0.0905	408432	keystroke_o	o	n/a
204.427	0.0595	408854	keystroke_l	l	n/a
204.5465	0.12	409093	keystroke_l	l	n/a
204.6515	0.075	409303	keystroke_e	e	n/a
204.8165	0.105	409633	keystroke_c	c	n/a
205.0565	0.105	410113	keystroke_t	t	n/a
205.1315	0.12	410263	keystroke_i	i	n/a
205.2965	0.0755	410593	keystroke_b	b	n/a
205.3865	0.09	410773	keystroke_l	l	n/a
205.5515	0.0905	411103	keystroke_e	e	n/a
205.626	0.12	411252	keystroke_Key.space	Key.space	n/a
205.747	0.0595	411494	keystroke_d	d	n/a
205.911	0.06	411822	keystroke_e	e	n/a
206.0615	0.0755	412123	keystroke_a	a	n/a
206.2415	0.1205	412483	keystroke_r	r	n/a
206.3165	0.09	412633	keystroke_Key.enter	Key.enter	n/a
206.412	5.7265	412824	prompt	n/a	malawi fetish sellers eden\n
207.0365	0.105	414073	keystroke_m	m	n/a
207.1565	0.09	414313	keystroke_a	a	n/a
207.3065	0.1055	414613	keystroke_l	l	n/a
207.4265	0.09	414853	keystroke_a	a	n/a
207.636	0.0605	415272	keystroke_w	w	n/a
208.0265	0.135	416053	keystroke_i	i	n/a
208.3415	0.105	416683	keystroke_Key.space	Key.space	n/a
208.6115	0.075	417223	keystroke_f	f	n/a
208.7915	0.0605	417583	keystroke_e	e	n/a
208.9415	0.1195	417883	keystroke_t	t	n/a
209.0765	0.0745	418153	keystroke_i	i	n/a
209.1965	0.075	418393	keystroke_s	s	n/a
209.2865	0.12	418573	keystroke_h	h	n/a
209.3915	0.135	418783	keystroke_Key.space	Key.space	n/a
209.5565	0.0455	419113	keystroke_d	d	n/a
210.066	0.0905	420132	keystroke_Key.backspace	Key.backspace	n/a
210.217	0.074	420434	keystroke_s	s	n/a
210.396	0.105	420792	keystroke_e	e	n/a
210.531	0.105	421062	keystroke_l	l	n/a
210.7115	0.12	421423	keystroke_l	l	n/a
210.847	0.06	421694	keystroke_e	e	n/a
210.9965	0.06	421993	keystroke_r	r	n/a
211.1615	0.075	422323	keystroke_s	s	n/a
211.2215	0.075	422443	keystroke_Key.space	Key.space	n/a
211.3715	0.135	422743	keystroke_e	e	n/a
211.5815	0.075	423163	keystroke_d	d	n/a
211.7615	0.0905	423523	keystroke_e	e	n/a
211.8065	0.09	423613	keystroke_n	n	n/a
212.0315	0.105	424063	keystroke_Key.enter	Key.enter	n/a
212.1425	6.4905	424285	prompt	n/a	acquisitions spotlight those neil\n
212.8415	0.06	425683	keystroke_a	a	n/a
212.9915	0.1205	425983	keystroke_c	c	n/a
213.3515	0.105	426703	keystroke_q	q	n/a
213.4415	0.195	426883	keystroke_u	u	n/a
213.5465	0.1495	427093	keystroke_i	i	n/a
213.8465	0.0895	427693	keystroke_s	s	n/a
214.372	0.1195	428744	keystroke_i	i	n/a
214.5215	0.1205	429043	keystroke_t	t	n/a
214.6265	0.18	429253	keystroke_i	i	n/a
214.7165	0.105	429433	keystroke_o	o	n/a
214.9265	0.12	429853	keystroke_n	n	n/a
215.0015	0.0905	430003	keystroke_s	s	n/a
215.1515	0.1045	430303	keystroke_Key.space	Key.space	n/a
215.2715	0.0745	430543	keystroke_s	s	n/a
215.3615	0.1645	430723	keystroke_p	p	n/a
215.451	0.15	430902	keystroke_o	o	n/a
215.6465	0.1045	431293	keystroke_t	t	n/a
215.9315	0.1645	431863	keystroke_l	l	n/a
216.1565	0.1195	432313	keystroke_i	i	n/a
216.2915	0.09	432583	keystroke_g	g	n/a
216.3665	0.1355	432733	keystroke_h	h	n/a
216.5615	0.075	433123	keystroke_t	t	n/a
216.8615	0.1345	433723	keystroke_Key.space	Key.space	n/a
217.1615	0.12	434323	keystroke_t	t	n/a
217.2665	0.075	434533	keystroke_h	h	n/a
217.401	0.0905	434802	keystroke_o	o	n/a
217.506	0.09	435012	keystroke_s	s	n/a
217.672	0.1195	435344	keystroke_e	e	n/a
217.7615	0.12	435523	keystroke_Key.space	Key.space	n/a
217.8665	0.105	435733	keystroke_n	n	n/a
218.0315	0.075	436063	keystroke_e	e	n/a
218.1215	0.075	436243	keystroke_i	i	n/a
218.302	0.104	436604	keystroke_l	l	n/a
218.5565	0.075	437113	keystroke_Key.enter	Key.enter	n/a
218.6375	8.021	437275	prompt	n/a	privilege readings pharmacology bargain\n
219.397	0.1045	438794	keystroke_p	p	n/a
219.4865	0.105	438973	keystroke_r	r	n/a
219.6065	0.1195	439213	keystroke_i	i	n/a
219.7865	0.0755	439573	keystroke_v	v	n/a
219.981	0.09	439962	keystroke_e	e	n/a
220.0265	0.1055	440053	keystroke_l	l	n/a
220.161	0.0755	440322	keystroke_e	e	n/a
220.3565	0.09	440713	keystroke_g	g	n/a
220.6415	0.0905	441283	keystroke_e	e	n/a
220.7465	0.1195	441493	keystroke_Key.space	Key.space	n/a
220.986	0.091	441972	keystroke_r	r	n/a
221.122	0.12	442244	keystroke_e	e	n/a
221.452	0.089	442904	keystroke_a	a	n/a
221.601	0.0905	443202	keystroke_d	d	n/a
221.6615	0.09	443323	keystroke_i	i	n/a
221.812	0.1495	443624	keystroke_n	n	n/a
221.902	0.0595	443804	keystroke_g	g	n/a
222.1415	0.09	444283	keystroke_s	s	n/a
222.2765	0.12	444553	keystroke_Key.space	Key.space	n/a
222.622	0.06	445244	keystroke_p	p	n/a
222.8015	0.105	445603	keystroke_h	h	n/a
222.9215	0.06	445843	keystroke_a	a	n/a
223.1165	0.0455	446233	keystroke_r	r	n/a
223.2065	0.1205	446413	keystroke_m	m	n/a
223.2965	0.09	446593	keystroke_a	a	n/a
223.5365	0.06	447073	keystroke_c	c	n/a
223.611	0.09	447222	keystroke_o	o	n/a
223.807	0.03	447614	keystroke_l	l	n/a
223.956	0.0905	447912	keystroke_o	o	n/a
224.211	0.075	448422	keystroke_g	g	n/a
224.301	0.121	448602	keystroke_y	y	n/a
224.4665	0.075	448933	keystroke_Key.space	Key.space	n/a
224.751	0.016	449502	keystroke_b	b	n/a
224.857	0.075	449714	keystroke_a	a	n/a
225.067	0.074	450134	keystroke_r	r	n/a
225.1265	0.0905	450253	keystroke_g	g	n/a
225.426	0.06	450852	keystroke_i	i	n/a
225.756	0.076	451512	keystroke_Key.backspace	Key.backspace	n/a
225.846	0.06	451692	keystroke_a	a	n/a
225.9365	0.0745	451873	keystroke_i	i	n/a
226.1165	0.0755	452233	keystroke_n	n	n/a
226.5665	0.09	453133	keystroke_Key.enter	Key.enter	n/a
226.6625	5.156	453325	prompt	n/a	could've team fairly court\n
227.4815	0.015	454963	keystroke_c	c	n/a
227.5115	0.075	455023	keystroke_o	o	n/a
227.602	0.075	455204	keystroke_u	u	n/a
227.7815	0.105	455563	keystroke_l	l	n/a
227.902	0.074	455804	keystroke_d	d	n/a
228.1715	0.1505	456343	keystroke_'	'	n/a
228.4115	0.0755	456823	keystroke_v	v	n/a
228.5925	0.119	457185	keystroke_e	e	n/a
228.7265	0.105	457453	keystroke_Key.space	Key.space	n/a
228.952	0.1045	457904	keystroke_t	t	n/a
229.177	0.1045	458354	keystroke_e	e	n/a
229.3565	0.12	458713	keystroke_a	a	n/a
229.447	0.1355	458894	keystroke_m	m	n/a
229.5665	0.12	459133	keystroke_Key.space	Key.space	n/a
229.747	0.075	459494	keystroke_f	f	n/a
229.927	0.075	459854	keystroke_a	a	n/a
230.301	0.121	460602	keystroke_i	i	n/a
230.437	0.09	460874	keystroke_r	r	n/a
230.587	0.135	461174	keystroke_l	l	n/a
230.737	0.09	461474	keystroke_y	y	n/a
230.8415	0.12	461683	keystroke_Key.space	Key.space	n/a
231.037	0.0745	462074	keystroke_c	c	n/a
231.096	0.1505	462192	keystroke_o	o	n/a
231.2165	0.105	462433	keystroke_u	u	n/a
231.442	0.0895	462884	keystroke_r	r	n/a
231.5615	0.1195	463123	keystroke_t	t	n/a
231.696	0.1205	463392	keystroke_Key.enter	Key.enter	n/a
231.823	6.355	463646	prompt	n/a	seattle electrical harris occur\n
232.4165	0.12	464833	keystroke_s	s	n/a
232.6415	0.0755	465283	keystroke_e	e	n/a
232.9415	0.045	465883	keystroke_a	a	n/a
233.121	0.106	466242	keystroke_t	t	n/a
233.3915	0.0905	466783	keystroke_t	t	n/a
233.496	0.09	466992	keystroke_l	l	n/a
233.646	0.105	467292	keystroke_e	e	n/a
233.812	0.119	467624	keystroke_Key.space	Key.space	n/a
234.292	0.105	468584	keystroke_e	e	n/a
234.411	0.165	468822	keystroke_l	l	n/a
234.592	0.1045	469184	keystroke_e	e	n/a
234.8915	0.06	469783	keystroke_c	c	n/a
235.1165	0.075	470233	keystroke_t	t	n/a
235.2215	0.12	470443	keystroke_r	r	n/a
235.3715	0.135	470743	keystroke_i	i	n/a
235.5065	0.06	471013	keystroke_c	c	n/a
235.731	0.075	471462	keystroke_a	a	n/a
235.821	0.105	471642	keystroke_l	l	n/a
235.971	0.1355	471942	keystroke_Key.space	Key.space	n/a
236.2865	0.1045	472573	keystroke_h	h	n/a
236.376	0.09	472752	keystroke_a	a	n/a
236.541	0.105	473082	keystroke_r	r	n/a
236.721	0.105	473442	keystroke_r	r	n/a
236.841	0.135	473682	keystroke_i	i	n/a
236.9615	0.1055	473923	keystroke_s	s	n/a
237.067	0.104	474134	keystroke_Key.space	Key.space	n/a
237.351	0.0905	474702	keystroke_o	o	n/a
237.4565	0.0755	474913	keystroke_c	c	n/a
237.6065	0.09	475213	keystroke_c	c	n/a
237.6815	0.1055	475363	keystroke_u	u	n/a
237.9215	0.105	475843	keystroke_r	r	n/a
238.0715	0.105	476143	keystroke_Key.enter	Key.enter	n/a
238.1845	6.6385	476369	prompt	n/a	ecommerce instructor annotated involving\n
238.822	0.134	477644	keystroke_e	e	n/a
239.061	0.12	478122	keystroke_c	c	n/a
239.152	0.089	478304	keystroke_o	o	n/a
239.331	0.045	478662	keystroke_m	m	n/a
239.452	0.104	478904	keystroke_m	m	n/a
239.542	0.0745	479084	keystroke_e	e	n/a
239.662	0.0745	479324	keystroke_r	r	n/a
239.872	0.0745	479744	keystroke_c	c	n/a
240.0665	0.09	480133	keystroke_e	e	n/a
240.1265	0.105	480253	keystroke_Key.space	Key.space	n/a
240.2165	0.105	480433	keystroke_i	i	n/a
240.382	0.089	480764	keystroke_n	n	n/a
240.411	0.09	480822	keystroke_s	s	n/a
240.6065	0.09	481213	keystroke_t	t	n/a
240.727	0.089	481454	keystroke_r	r	n/a
240.772	0.1195	481544	keystroke_u	u	n/a
240.9215	0.1055	481843	keystroke_c	c	n/a
241.132	0.119	482264	keystroke_t	t	n/a
241.222	0.105	482444	keystroke_o	o	n/a
241.312	0.089	482624	keystroke_r	r	n/a
241.461	0.1055	482922	keystroke_Key.space	Key.space	n/a
241.6715	0.0905	483343	keystroke_a	a	n/a
241.822	0.045	483644	keystroke_n	n	n/a
242.272	0.089	484544	keystroke_n	n	n/a
242.4815	0.0755	484963	keystroke_o	o	n/a
242.602	0.105	485204	keystroke_t	t	n/a
243.0215	0.075	486043	keystroke_a	a	n/a
243.2165	0.075	486433	keystroke_t	t	n/a
243.3665	0.09	486733	keystroke_e	e	n/a
243.532	0.09	487064	keystroke_d	d	n/a
243.5765	0.105	487153	keystroke_Key.space	Key.space	n/a
243.667	0.09	487334	keystroke_i	i	n/a
243.8165	0.09	487633	keystroke_n	n	n/a
243.9215	0.105	487843	keystroke_v	v	n/a
244.0115	0.0905	488023	keystroke_o	o	n/a
244.1615	0.09	488323	keystroke_l	l	n/a
244.2815	0.105	488563	keystroke_v	v	n/a
244.4015	0.0445	488803	keystroke_i	i	n/a
244.491	0.1205	488982	keystroke_n	n	n/a
244.596	0.1355	489192	keystroke_g	g	n/a
244.746	0.0755	489492	keystroke_Key.enter	Key.enter	n/a
244.8265	4.572	489653	prompt	n/a	stops expression islam right\n
245.5415	0.0305	491083	keystroke_s	s	n/a
245.752	0.105	491504	keystroke_t	t	n/a
245.842	0.1345	491684	keystroke_o	o	n/a
245.8725	0.134	491745	keystroke_p	p	n/a
246.052	0.1195	492104	keystroke_s	s	n/a
246.1865	0.12	492373	keystroke_Key.space	Key.space	n/a
246.3215	0.09	492643	keystroke_e	e	n/a
246.561	0.061	493122	keystroke_x	x	n/a
246.606	0.136	493212	keystroke_p	p	n/a
246.8615	0.09	493723	keystroke_r	r	n/a
247.012	0.075	494024	keystroke_e	e	n/a
247.177	0.075	494354	keystroke_s	s	n/a
247.342	0.104	494684	keystroke_s	s	n/a
247.387	0.15	494774	keystroke_i	i	n/a
247.461	0.105	494922	keystroke_o	o	n/a
247.641	0.106	495282	keystroke_n	n	n/a
247.7315	0.105	495463	keystroke_Key.space	Key.space	n/a
247.8515	0.1205	495703	keystroke_i	i	n/a
247.8665	0.09	495733	keystroke_s	s	n/a
248.107	0.09	496214	keystroke_l	l	n/a
248.377	0.0895	496754	keystroke_a	a	n/a
248.4815	0.09	496963	keystroke_m	m	n/a
248.6765	0.1195	497353	keystroke_Key.space	Key.space	n/a
248.827	0.09	497654	keystroke_r	r	n/a
248.9015	0.0895	497803	keystroke_i	i	n/a
249.021	0.12	498042	keystroke_g	g	n/a
249.0365	0.12	498073	keystroke_h	h	n/a
249.202	0.1195	498404	keystroke_t	t	n/a
249.2915	0.1045	498583	keystroke_Key.enter	Key.enter	n/a
249.403	5.546	498806	prompt	n/a	writers top yamaha losing\n
250.087	0.075	500174	keystroke_w	w	n/a
250.2365	0.12	500473	keystroke_r	r	n/a
250.3265	0.105	500653	keystroke_i	i	n/a
250.4465	0.1055	500893	keystroke_t	t	n/a
250.537	0.105	501074	keystroke_i	i	n/a
250.6565	0.12	501313	keystroke_e	e	n/a
250.897	0.075	501794	keystroke_r	r	n/a
251.1965	0.075	502393	keystroke_Key.backspace	Key.backspace	n/a
251.4065	0.075	502813	keystroke_Key.backspace	Key.backspace	n/a
251.6015	0.0755	503203	keystroke_Key.backspace	Key.backspace	n/a
251.827	0.1055	503654	keystroke_e	e	n/a
251.977	0.104	503954	keystroke_r	r	n/a
252.171	0.121	504342	keystroke_s	s	n/a
252.277	0.105	504554	keystroke_Key.space	Key.space	n/a
252.517	0.09	505034	keystroke_t	t	n/a
252.577	0.18	505154	keystroke_o	o	n/a
252.712	0.06	505424	keystroke_p	p	n/a
252.817	0.104	505634	keystroke_Key.space	Key.space	n/a
252.982	0.105	505964	keystroke_y	y	n/a
253.207	0.12	506414	keystroke_a	a	n/a
253.342	0.09	506684	keystroke_m	m	n/a
253.4465	0.1055	506893	keystroke_a	a	n/a
253.581	0.105	507162	keystroke_h	h	n/a
253.732	0.1195	507464	keystroke_a	a	n/a
253.8815	0.1055	507763	keystroke_Key.space	Key.space	n/a
254.107	0.0745	508214	keystroke_l	l	n/a
254.2715	0.135	508543	keystroke_o	o	n/a
254.3165	0.1205	508633	keystroke_s	s	n/a
254.452	0.0745	508904	keystroke_i	i	n/a
254.5865	0.105	509173	keystroke_n	n	n/a
254.7515	0.105	509503	keystroke_g	g	n/a
254.8265	0.12	509653	keystroke_Key.enter	Key.enter	n/a
254.9525	7.181	509905	prompt	n/a	warehouse archived cooling anything\n
255.712	0.1195	511424	keystroke_w	w	n/a
255.9075	0.104	511815	keystroke_a	a	n/a
256.1015	0.091	512203	keystroke_r	r	n/a
256.2215	0.135	512443	keystroke_e	e	n/a
256.2965	0.075	512593	keystroke_h	h	n/a
256.4465	0.0905	512893	keystroke_o	o	n/a
256.566	0.105	513132	keystroke_u	u	n/a
256.657	0.0745	513314	keystroke_s	s	n/a
256.777	0.1195	513554	keystroke_e	e	n/a
256.8365	0.15	513673	keystroke_Key.space	Key.space	n/a
257.002	0.075	514004	keystroke_a	a	n/a
257.196	0.076	514392	keystroke_r	r	n/a
257.392	0.089	514784	keystroke_c	c	n/a
257.467	0.09	514934	keystroke_h	h	n/a
257.572	0.12	515144	keystroke_i	i	n/a
257.7365	0.0745	515473	keystroke_v	v	n/a
257.9165	0.06	515833	keystroke_e	e	n/a
258.007	0.134	516014	keystroke_r	r	n/a
258.3365	0.105	516673	keystroke_d	d	n/a
258.4265	0.0905	516853	keystroke_Key.space	Key.space	n/a
258.652	0.105	517304	keystroke_c	c	n/a
258.9515	0.09	517903	keystroke_Key.backspace	Key.backspace	n/a
259.1315	0.06	518263	keystroke_Key.backspace	Key.backspace	n/a
259.2965	0.06	518593	keystroke_Key.backspace	Key.backspace	n/a
259.4615	0.03	518923	keystroke_Key.backspace	Key.backspace	n/a
259.5515	0.075	519103	keystroke_d	d	n/a
259.837	0.09	519674	keystroke_Key.space	Key.space	n/a
260.062	0.075	520124	keystroke_c	c	n/a
260.122	0.09	520244	keystroke_o	o	n/a
260.271	0.076	520542	keystroke_o	o	n/a
260.452	0.074	520904	keystroke_l	l	n/a
260.616	0.075	521232	keystroke_i	i	n/a
260.781	0.0905	521562	keystroke_n	n	n/a
260.827	0.09	521654	keystroke_g	g	n/a
260.9465	0.09	521893	keystroke_Key.space	Key.space	n/a
261.0515	0.12	522103	keystroke_a	a	n/a
261.157	0.075	522314	keystroke_n	n	n/a
261.352	0.1045	522704	keystroke_y	y	n/a
261.472	0.09	522944	keystroke_t	t	n/a
261.562	0.09	523124	keystroke_h	h	n/a
261.6665	0.105	523333	keystroke_i	i	n/a
261.801	0.105	523602	keystroke_n	n	n/a
261.891	0.1065	523782	keystroke_g	g	n/a
262.026	0.106	524052	keystroke_Key.enter	Key.enter	n/a
262.1375	5.036	524275	prompt	n/a	holders gift hayes nasty\n
262.702	0.105	525404	keystroke_h	h	n/a
262.852	0.105	525704	keystroke_o	o	n/a
263.031	0.076	526062	keystroke_l	l	n/a
263.062	0.0895	526124	keystroke_d	d	n/a
263.2415	0.0895	526483	keystroke_e	e	n/a
263.362	0.119	526724	keystroke_r	r	n/a
263.5715	0.1345	527143	keystroke_s	s	n/a
263.6915	0.1205	527383	keystroke_Key.space	Key.space	n/a
263.946	0.105	527892	keystroke_g	g	n/a
264.037	0.0905	528074	keystroke_i	i	n/a
264.381	0.121	528762	keystroke_f	f	n/a
264.592	0.09	529184	keystroke_t	t	n/a
264.666	0.121	529332	keystroke_Key.space	Key.space	n/a
264.802	0.12	529604	keystroke_h	h	n/a
264.937	0.105	529874	keystroke_a	a	n/a
265.087	0.105	530174	keystroke_y	y	n/a
265.162	0.09	530324	keystroke_e	e	n/a
265.3265	0.0905	530653	keystroke_d	d	n/a
265.431	0.105	530862	keystroke_Key.space	Key.space	n/a
265.882	0.075	531764	keystroke_Key.backspace	Key.backspace	n/a
266.047	0.06	532094	keystroke_Key.backspace	Key.backspace	n/a
266.077	0.075	532154	keystroke_s	s	n/a
266.182	0.1045	532364	keystroke_Key.space	Key.space	n/a
266.3175	0.1195	532635	keystroke_n	n	n/a
266.4065	0.075	532813	keystroke_a	a	n/a
266.6165	0.0605	533233	keystroke_s	s	n/a
266.8115	0.0605	533623	keystroke_t	t	n/a
266.902	0.075	533804	keystroke_y	y	n/a
267.067	0.105	534134	keystroke_Key.enter	Key.enter	n/a
267.178	5.816	534356	prompt	n/a	marking lesson painted accompanied\n
267.892	0.09	535784	keystroke_a	a	n/a
267.9665	0.09	535933	keystroke_m	m	n/a
268.2815	0.105	536563	keystroke_Key.backspace	Key.backspace	n/a
268.4465	0.06	536893	keystroke_Key.backspace	Key.backspace	n/a
268.627	0.1045	537254	keystroke_m	m	n/a
268.687	0.1045	537374	keystroke_a	a	n/a
268.912	0.06	537824	keystroke_r	r	n/a
268.9415	0.0905	537883	keystroke_k	k	n/a
269.0915	0.09	538183	keystroke_i	i	n/a
269.2115	0.1355	538423	keystroke_n	n	n/a
269.3315	0.0755	538663	keystroke_g	g	n/a
269.4215	0.105	538843	keystroke_Key.space	Key.space	n/a
269.6015	0.1205	539203	keystroke_l	l	n/a
269.647	0.0895	539294	keystroke_e	e	n/a
269.7965	0.105	539593	keystroke_s	s	n/a
270.0065	0.09	540013	keystroke_s	s	n/a
270.0665	0.09	540133	keystroke_o	o	n/a
270.2165	0.121	540433	keystroke_n	n	n/a
270.3215	0.1195	540643	keystroke_Key.space	Key.space	n/a
270.5165	0.09	541033	keystroke_p	p	n/a
270.576	0.1055	541152	keystroke_a	a	n/a
270.6965	0.09	541393	keystroke_i	i	n/a
270.8465	0.135	541693	keystroke_n	n	n/a
270.9515	0.09	541903	keystroke_t	t	n/a
271.162	0.09	542324	keystroke_e	e	n/a
271.357	0.0745	542714	keystroke_d	d	n/a
271.4465	0.12	542893	keystroke_Key.space	Key.space	n/a
271.5515	0.0905	543103	keystroke_a	a	n/a
271.7015	0.09	543403	keystroke_c	c	n/a
271.867	0.09	543734	keystroke_c	c	n/a
271.927	0.1045	543854	keystroke_o	o	n/a
272.107	0.0745	544214	keystroke_m	m	n/a
272.242	0.0895	544484	keystroke_p	p	n/a
272.3465	0.09	544693	keystroke_a	a	n/a
272.4525	0.074	544905	keystroke_n	n	n/a
272.5715	0.1655	545143	keystroke_i	i	n/a
272.6615	0.09	545323	keystroke_e	e	n/a
272.827	0.09	545654	keystroke_d	d	n/a
272.9015	0.09	545803	keystroke_Key.enter	Key.enter	n/a
272.998	5.7105	545996	prompt	n/a	relation concerning body infringement\n
273.6515	0.1055	547303	keystroke_r	r	n/a
273.787	0.12	547574	keystroke_e	e	n/a
273.877	0.1345	547754	keystroke_l	l	n/a
274.026	0.0605	548052	keystroke_a	a	n/a
274.2065	0.105	548413	keystroke_t	t	n/a
274.266	0.1355	548532	keystroke_i	i	n/a
274.3265	0.1055	548653	keystroke_o	o	n/a
274.5365	0.12	549073	keystroke_n	n	n/a
274.6415	0.12	549283	keystroke_Key.space	Key.space	n/a
274.7765	0.135	549553	keystroke_c	c	n/a
274.8965	0.075	549793	keystroke_o	o	n/a
275.0015	0.15	550003	keystroke_n	n	n/a
275.1065	0.0905	550213	keystroke_c	c	n/a
275.3765	0.09	550753	keystroke_e	e	n/a
275.4815	0.15	550963	keystroke_r	r	n/a
275.797	0.09	551594	keystroke_n	n	n/a
275.9615	0.06	551923	keystroke_i	i	n/a
276.0965	0.105	552193	keystroke_n	n	n/a
276.157	0.1195	552314	keystroke_g	g	n/a
276.2915	0.105	552583	keystroke_Key.space	Key.space	n/a
276.382	0.0745	552764	keystroke_b	b	n/a
276.5465	0.0755	553093	keystroke_o	o	n/a
276.622	0.12	553244	keystroke_d	d	n/a
276.756	0.121	553512	keystroke_y	y	n/a
276.8915	0.0895	553783	keystroke_Key.space	Key.space	n/a
276.997	0.105	553994	keystroke_i	i	n/a
277.1615	0.165	554323	keystroke_n	n	n/a
277.312	0.119	554624	keystroke_f	f	n/a
277.4465	0.15	554893	keystroke_r	r	n/a
277.5815	0.075	555163	keystroke_i	i	n/a
277.702	0.135	555404	keystroke_n	n	n/a
277.807	0.105	555614	keystroke_g	g	n/a
277.972	0.105	555944	keystroke_e	e	n/a
278.092	0.12	556184	keystroke_m	m	n/a
278.182	0.1645	556364	keystroke_e	e	n/a
278.3315	0.1055	556663	keystroke_n	n	n/a
278.4515	0.1355	556903	keystroke_t	t	n/a
278.6165	0.09	557233	keystroke_Key.enter	Key.enter	n/a
278.7115	4.8425	557423	prompt	n/a	ukraine simulations folks punch\n
279.427	0.0595	558854	keystroke_u	u	n/a
279.5615	0.1355	559123	keystroke_k	k	n/a
279.712	0.0895	559424	keystroke_r	r	n/a
279.907	0.1045	559814	keystroke_a	a	n/a
279.9815	0.06	559963	keystroke_i	i	n/a
280.1015	0.12	560203	keystroke_n	n	n/a
280.1765	0.12	560353	keystroke_e	e	n/a
280.342	0.0745	560684	keystroke_Key.space	Key.space	n/a
280.4465	0.12	560893	keystroke_s	s	n/a
280.537	0.075	561074	keystroke_i	i	n/a
280.6875	0.089	561375	keystroke_m	m	n/a
280.897	0.075	561794	keystroke_u	u	n/a
281.0615	0.1055	562123	keystroke_l	l	n/a
281.137	0.075	562274	keystroke_a	a	n/a
281.3315	0.1055	562663	keystroke_t	t	n/a
281.3915	0.12	562783	keystroke_i	i	n/a
281.452	0.09	562904	keystroke_o	o	n/a
281.647	0.105	563294	keystroke_n	n	n/a
281.737	0.09	563474	keystroke_s	s	n/a
281.842	0.09	563684	keystroke_Key.space	Key.space	n/a
281.962	0.09	563924	keystroke_f	f	n/a
282.037	0.045	564074	keystroke_o	o	n/a
282.202	0.1045	564404	keystroke_l	l	n/a
282.2915	0.1205	564583	keystroke_k	k	n/a
282.472	0.105	564944	keystroke_s	s	n/a
282.592	0.12	565184	keystroke_Key.space	Key.space	n/a
282.727	0.105	565454	keystroke_p	p	n/a
282.907	0.06	565814	keystroke_u	u	n/a
283.087	0.075	566174	keystroke_n	n	n/a
283.192	0.075	566384	keystroke_c	c	n/a
283.252	0.105	566504	keystroke_h	h	n/a
283.462	0.09	566924	keystroke_Key.enter	Key.enter	n/a
283.5585	4.195	567117	prompt	n/a	nano ranks trash commander\n
284.1525	0.089	568305	keystroke_n	n	n/a
284.1965	0.135	568393	keystroke_a	a	n/a
284.302	0.09	568604	keystroke_n	n	n/a
284.4665	0.09	568933	keystroke_o	o	n/a
284.6165	0.12	569233	keystroke_Key.space	Key.space	n/a
284.7215	0.09	569443	keystroke_r	r	n/a
284.917	0.09	569834	keystroke_a	a	n/a
284.9615	0.105	569923	keystroke_n	n	n/a
285.097	0.1195	570194	keystroke_k	k	n/a
285.1865	0.075	570373	keystroke_s	s	n/a
285.3065	0.135	570613	keystroke_Key.space	Key.space	n/a
285.3665	0.0905	570733	keystroke_t	t	n/a
285.5015	0.09	571003	keystroke_r	r	n/a
285.697	0.09	571394	keystroke_a	a	n/a
285.8015	0.12	571603	keystroke_n	n	n/a
286.116	0.0605	572232	keystroke_Key.backspace	Key.backspace	n/a
286.237	0.1045	572474	keystroke_s	s	n/a
286.327	0.1345	572654	keystroke_h	h	n/a
286.4465	0.09	572893	keystroke_Key.space	Key.space	n/a
286.5515	0.105	573103	keystroke_c	c	n/a
286.6415	0.075	573283	keystroke_o	o	n/a
286.7915	0.0605	573583	keystroke_m	m	n/a
286.9265	0.09	573853	keystroke_m	m	n/a
287.0315	0.09	574063	keystroke_a	a	n/a
287.152	0.1495	574304	keystroke_n	n	n/a
287.272	0.0595	574544	keystroke_d	d	n/a
287.4365	0.09	574873	keystroke_e	e	n/a
287.5415	0.1205	575083	keystroke_r	r	n/a
287.6315	0.1205	575263	keystroke_Key.enter	Key.enter	n/a
287.758	6.2955	575516	prompt	n/a	memo input competitive tribune\n
288.2915	0.1805	576583	keystroke_m	m	n/a
288.457	0.045	576914	keystroke_e	e	n/a
288.487	0.09	576974	keystroke_m	m	n/a
288.666	0.076	577332	keystroke_o	o	n/a
288.7715	0.135	577543	keystroke_Key.space	Key.space	n/a
288.9365	0.09	577873	keystroke_i	i	n/a
289.162	0.0895	578324	keystroke_n	n	n/a
289.401	0.09	578802	keystroke_p	p	n/a
289.5815	0.12	579163	keystroke_u	u	n/a
289.6865	0.105	579373	keystroke_t	t	n/a
289.8965	0.12	579793	keystroke_Key.space	Key.space	n/a
290.2115	0.135	580423	keystroke_c	c	n/a
290.3015	0.09	580603	keystroke_o	o	n/a
290.572	0.0895	581144	keystroke_p	p	n/a
290.976	0.075	581952	keystroke_Key.backspace	Key.backspace	n/a
291.187	0.059	582374	keystroke_m	m	n/a
291.3815	0.0745	582763	keystroke_p	p	n/a
291.502	0.1045	583004	keystroke_e	e	n/a
291.6815	0.1345	583363	keystroke_t	t	n/a
291.801	0.09	583602	keystroke_i	i	n/a
291.907	0.074	583814	keystroke_t	t	n/a
292.0115	0.1045	584023	keystroke_i	i	n/a
292.1315	0.0455	584263	keystroke_v	v	n/a
292.297	0.089	584594	keystroke_e	e	n/a
292.371	0.135	584742	keystroke_Key.space	Key.space	n/a
292.4915	0.105	584983	keystroke_t	t	n/a
292.6265	0.0895	585253	keystroke_r	r	n/a
292.732	0.1195	585464	keystroke_i	i	n/a
292.8515	0.09	585703	keystroke_b	b	n/a
292.9565	0.12	585913	keystroke_u	u	n/a
293.0315	0.105	586063	keystroke_t	t	n/a
293.527	0.074	587054	keystroke_Key.backspace	Key.backspace	n/a
293.707	0.1045	587414	keystroke_n	n	n/a
293.812	0.1195	587624	keystroke_e	e	n/a
293.946	0.1055	587892	keystroke_Key.enter	Key.enter	n/a
294.0575	6.986	588115	prompt	n/a	listprice journalism subtle accompanying\n
294.9065	0.0455	589813	keystroke_l	l	n/a
295.0425	0.134	590085	keystroke_i	i	n/a
295.102	0.0595	590204	keystroke_s	s	n/a
295.267	0.0895	590534	keystroke_t	t	n/a
295.4165	0.135	590833	keystroke_p	p	n/a
295.5665	0.089	591133	keystroke_r	r	n/a
295.672	0.12	591344	keystroke_i	i	n/a
295.7615	0.09	591523	keystroke_c	c	n/a
295.972	0.1045	591944	keystroke_e	e	n/a
296.0315	0.1205	592063	keystroke_Key.space	Key.space	n/a
296.1365	0.12	592273	keystroke_j	j	n/a
296.392	0.15	592784	keystroke_o	o	n/a
296.527	0.135	593054	keystroke_u	u	n/a
296.647	0.0895	593294	keystroke_r	r	n/a
296.842	0.1345	593684	keystroke_n	n	n/a
297.037	0.119	594074	keystroke_a	a	n/a
297.142	0.1045	594284	keystroke_l	l	n/a
297.3215	0.105	594643	keystroke_i	i	n/a
297.4715	0.1055	594943	keystroke_s	s	n/a
297.5615	0.1505	595123	keystroke_m	m	n/a
297.7265	0.09	595453	keystroke_Key.space	Key.space	n/a
297.8915	0.09	595783	keystroke_s	s	n/a
297.9365	0.09	595873	keystroke_u	u	n/a
298.282	0.1495	596564	keystroke_b	b	n/a
298.3865	0.12	596773	keystroke_t	t	n/a
298.6265	0.0905	597253	keystroke_l	l	n/a
298.897	0.029	597794	keystroke_e	e	n/a
298.911	0.1055	597822	keystroke_Key.space	Key.space	n/a
299.031	0.0905	598062	keystroke_a	a	n/a
299.1965	0.0895	598393	keystroke_c	c	n/a
299.361	0.106	598722	keystroke_c	c	n/a
299.4215	0.1045	598843	keystroke_o	o	n/a
299.586	0.1055	599172	keystroke_m	m	n/a
299.7965	0.06	599593	keystroke_p	p	n/a
300.007	0.0895	600014	keystroke_a	a	n/a
300.1415	0.12	600283	keystroke_n	n	n/a
300.4115	0.1055	600823	keystroke_y	y	n/a
300.5315	0.06	601063	keystroke_i	i	n/a
300.6665	0.09	601333	keystroke_n	n	n/a
300.7715	0.09	601543	keystroke_g	g	n/a
300.9065	0.135	601813	keystroke_Key.enter	Key.enter	n/a
301.0475	5.3355	602095	prompt	n/a	progress painful i extra\n
301.627	0.075	603254	keystroke_p	p	n/a
301.7465	0.1205	603493	keystroke_r	r	n/a
301.836	0.121	603672	keystroke_o	o	n/a
301.971	0.076	603942	keystroke_f	f	n/a
302.137	0.06	604274	keystroke_e	e	n/a
302.511	0.075	605022	keystroke_Key.backspace	Key.backspace	n/a
302.691	0.0605	605382	keystroke_Key.backspace	Key.backspace	n/a
303.036	0.106	606072	keystroke_g	g	n/a
303.0965	0.1055	606193	keystroke_r	r	n/a
303.2465	0.09	606493	keystroke_e	e	n/a
303.412	0.0895	606824	keystroke_s	s	n/a
303.607	0.1045	607214	keystroke_s	s	n/a
303.667	0.1345	607334	keystroke_Key.space	Key.space	n/a
303.8465	0.15	607693	keystroke_p	p	n/a
304.147	0.074	608294	keystroke_a	a	n/a
304.237	0.0745	608474	keystroke_i	i	n/a
304.387	0.12	608774	keystroke_n	n	n/a
304.657	0.12	609314	keystroke_f	f	n/a
304.717	0.0895	609434	keystroke_u	u	n/a
304.927	0.074	609854	keystroke_l	l	n/a
305.0465	0.1055	610093	keystroke_Key.space	Key.space	n/a
305.167	0.104	610334	keystroke_i	i	n/a
305.272	0.135	610544	keystroke_Key.space	Key.space	n/a
305.362	0.09	610724	keystroke_e	e	n/a
305.5865	0.1055	611173	keystroke_x	x	n/a
305.842	0.0895	611684	keystroke_t	t	n/a
305.9625	0.1045	611925	keystroke_r	r	n/a
306.1715	0.09	612343	keystroke_a	a	n/a
306.276	0.105	612552	keystroke_Key.enter	Key.enter	n/a
306.388	7.0175	612776	prompt	n/a	planners planned feature outcomes\n
306.907	0.09	613814	keystroke_p	p	n/a
307.042	0.0745	614084	keystroke_a	a	n/a
307.132	0.06	614264	keystroke_l	l	n/a
307.387	0.06	614774	keystroke_Key.backspace	Key.backspace	n/a
307.5365	0.0445	615073	keystroke_Key.backspace	Key.backspace	n/a
307.8215	0.12	615643	keystroke_a	a	n/a
308.1215	0.09	616243	keystroke_Key.backspace	Key.backspace	n/a
308.347	0.0895	616694	keystroke_l	l	n/a
308.467	0.1495	616934	keystroke_a	a	n/a
308.5865	0.0905	617173	keystroke_n	n	n/a
308.7515	0.105	617503	keystroke_n	n	n/a
308.8415	0.105	617683	keystroke_e	e	n/a
308.9915	0.09	617983	keystroke_r	r	n/a
309.157	0.135	618314	keystroke_s	s	n/a
309.2465	0.1205	618493	keystroke_Key.space	Key.space	n/a
309.8465	0.0905	619693	keystroke_p	p	n/a
310.0565	0.0905	620113	keystroke_l	l	n/a
310.162	0.1045	620324	keystroke_a	a	n/a
310.2815	0.09	620563	keystroke_n	n	n/a
310.4465	0.1055	620893	keystroke_n	n	n/a
310.567	0.09	621134	keystroke_e	e	n/a
310.7315	0.1055	621463	keystroke_d	d	n/a
310.7915	0.1045	621583	keystroke_Key.space	Key.space	n/a
310.9425	0.089	621885	keystroke_f	f	n/a
311.2415	0.1055	622483	keystroke_e	e	n/a
311.4965	0.045	622993	keystroke_a	a	n/a
311.6475	0.104	623295	keystroke_t	t	n/a
311.766	0.09	623532	keystroke_u	u	n/a
311.902	0.09	623804	keystroke_r	r	n/a
312.111	0.1205	624222	keystroke_e	e	n/a
312.186	0.1055	624372	keystroke_Key.space	Key.space	n/a
312.307	0.15	624614	keystroke_o	o	n/a
312.4415	0.1045	624883	keystroke_u	u	n/a
312.561	0.0455	625122	keystroke_t	t	n/a
312.726	0.121	625452	keystroke_c	c	n/a
312.817	0.09	625634	keystroke_o	o	n/a
312.982	0.1045	625964	keystroke_m	m	n/a
313.0265	0.105	626053	keystroke_e	e	n/a
313.1915	0.12	626383	keystroke_s	s	n/a
313.326	0.075	626652	keystroke_Key.enter	Key.enter	n/a
313.4095	5.874	626819	prompt	n/a	bahamas needed transaction colin\n
313.9715	0.105	627943	keystroke_b	b	n/a
314.3915	0.105	628783	keystroke_a	a	n/a
314.5115	0.105	629023	keystroke_h	h	n/a
314.6015	0.106	629203	keystroke_a	a	n/a
314.7515	0.15	629503	keystroke_m	m	n/a
314.887	0.09	629774	keystroke_a	a	n/a
315.1115	0.1045	630223	keystroke_s	s	n/a
315.202	0.1045	630404	keystroke_Key.space	Key.space	n/a
315.4265	0.105	630853	keystroke_n	n	n/a
315.517	0.1045	631034	keystroke_e	e	n/a
315.682	0.0895	631364	keystroke_e	e	n/a
315.862	0.0895	631724	keystroke_d	d	n/a
316.0565	0.045	632113	keystroke_e	e	n/a
316.1915	0.045	632383	keystroke_d	d	n/a
316.2665	0.12	632533	keystroke_Key.space	Key.space	n/a
316.3715	0.1055	632743	keystroke_t	t	n/a
316.4915	0.136	632983	keystroke_r	r	n/a
316.8215	0.105	633643	keystroke_a	a	n/a
317.0765	0.1055	634153	keystroke_n	n	n/a
317.2865	0.09	634573	keystroke_s	s	n/a
317.4665	0.06	634933	keystroke_c	c	n/a
317.6315	0.0455	635263	keystroke_a	a	n/a
317.811	0.1205	635622	keystroke_t	t	n/a
317.842	0.2095	635684	keystroke_i	i	n/a
317.976	0.1055	635952	keystroke_o	o	n/a
318.186	0.1055	636372	keystroke_n	n	n/a
318.307	0.074	636614	keystroke_Key.space	Key.space	n/a
318.3365	0.1045	636673	keystroke_c	c	n/a
318.472	0.0895	636944	keystroke_o	o	n/a
318.636	0.091	637272	keystroke_l	l	n/a
318.8015	0.0745	637603	keystroke_i	i	n/a
318.966	0.045	637932	keystroke_n	n	n/a
319.1615	0.1195	638323	keystroke_Key.enter	Key.enter	n/a
319.287	8.261	638574	prompt	n/a	interval bleeding could've golden\n
319.9265	0.0295	639853	keystroke_i	i	n/a
320.5565	0.135	641113	keystroke_n	n	n/a
320.6615	0.075	641323	keystroke_t	t	n/a
320.7965	0.121	641593	keystroke_e	e	n/a
320.9185	0.133	641837	keystroke_r	r	n/a
320.9915	0.09	641983	keystroke_v	v	n/a
321.1715	0.136	642343	keystroke_a	a	n/a
321.2775	0.089	642555	keystroke_l	l	n/a
321.4115	0.105	642823	keystroke_Key.space	Key.space	n/a
321.5315	0.105	643063	keystroke_b	b	n/a
321.727	0.12	643454	keystroke_l	l	n/a
321.817	0.105	643634	keystroke_e	e	n/a
321.982	0.09	643964	keystroke_e	e	n/a
322.162	0.105	644324	keystroke_d	d	n/a
322.237	0.06	644474	keystroke_i	i	n/a
322.342	0.15	644684	keystroke_n	n	n/a
322.447	0.105	644894	keystroke_g	g	n/a
322.597	0.105	645194	keystroke_Key.space	Key.space	n/a
322.747	0.1045	645494	keystroke_c	c	n/a
322.792	0.15	645584	keystroke_o	o	n/a
322.912	0.09	645824	keystroke_u	u	n/a
323.122	0.075	646244	keystroke_l	l	n/a
323.6615	0.135	647323	keystroke_d	d	n/a
323.8565	0.1055	647713	keystroke_v	v	n/a
324.5765	0.09	649153	keystroke_Key.backspace	Key.backspace	n/a
325.101	0.091	650202	keystroke_;	;	n/a
325.3115	0.0605	650623	keystroke_v	v	n/a
325.6565	0.075	651313	keystroke_Key.backspace	Key.backspace	n/a
325.8365	0.0605	651673	keystroke_Key.backspace	Key.backspace	n/a
326.137	0.0595	652274	keystroke_'	'	n/a
326.2265	0.075	652453	keystroke_v	v	n/a
326.3765	0.135	652753	keystroke_e	e	n/a
326.4365	0.135	652873	keystroke_Key.space	Key.space	n/a
326.6915	0.1205	653383	keystroke_g	g	n/a
326.797	0.0745	653594	keystroke_o	o	n/a
326.9465	0.09	653893	keystroke_l	l	n/a
327.0215	0.105	654043	keystroke_d	d	n/a
327.2165	0.075	654433	keystroke_e	e	n/a
327.2465	0.075	654493	keystroke_n	n	n/a
327.457	0.09	654914	keystroke_Key.enter	Key.enter	n/a
327.5515	6.477	655103	prompt	n/a	character products mailto technology\n
328.222	0.12	656444	keystroke_c	c	n/a
328.942	0.075	657884	keystroke_h	h	n/a
329.182	0.135	658364	keystroke_a	a	n/a
329.332	0.09	658664	keystroke_r	r	n/a
329.437	0.09	658874	keystroke_a	a	n/a
329.6165	0.1055	659233	keystroke_c	c	n/a
329.691	0.106	659382	keystroke_t	t	n/a
329.842	0.09	659684	keystroke_e	e	n/a
329.977	0.1205	659954	keystroke_r	r	n/a
330.051	0.105	660102	keystroke_Key.space	Key.space	n/a
330.201	0.121	660402	keystroke_p	p	n/a
330.262	0.0895	660524	keystroke_r	r	n/a
330.397	0.12	660794	keystroke_o	o	n/a
330.487	0.119	660974	keystroke_d	d	n/a
330.622	0.1345	661244	keystroke_u	u	n/a
330.697	0.0895	661394	keystroke_c	c	n/a
330.937	0.09	661874	keystroke_t	t	n/a
331.132	0.104	662264	keystroke_s	s	n/a
331.207	0.1195	662414	keystroke_Key.space	Key.space	n/a
331.342	0.1195	662684	keystroke_m	m	n/a
331.4765	0.09	662953	keystroke_a	a	n/a
331.762	0.0895	663524	keystroke_i	i	n/a
331.9565	0.105	663913	keystroke_l	l	n/a
332.0765	0.105	664153	keystroke_t	t	n/a
332.167	0.1045	664334	keystroke_o	o	n/a
332.3465	0.15	664693	keystroke_Key.space	Key.space	n/a
332.5115	0.075	665023	keystroke_t	t	n/a
332.632	0.1045	665264	keystroke_e	e	n/a
332.8115	0.135	665623	keystroke_c	c	n/a
332.8715	0.075	665743	keystroke_h	h	n/a
333.021	0.076	666042	keystroke_n	n	n/a
333.201	0.075	666402	keystroke_o	o	n/a
333.351	0.0905	666702	keystroke_l	l	n/a
333.516	0.1805	667032	keystroke_o	o	n/a
333.5615	0.12	667123	keystroke_g	g	n/a
333.7865	0.12	667573	keystroke_y	y	n/a
333.9215	0.1045	667843	keystroke_Key.enter	Key.enter	n/a
334.032	5.3665	668064	prompt	n/a	production disco those're thirty\n
334.612	0.134	669224	keystroke_p	p	n/a
334.671	0.106	669342	keystroke_r	r	n/a
334.791	0.135	669582	keystroke_o	o	n/a
334.911	0.106	669822	keystroke_d	d	n/a
335.047	0.119	670094	keystroke_u	u	n/a
335.1515	0.0745	670303	keystroke_c	c	n/a
335.332	0.12	670664	keystroke_t	t	n/a
335.406	0.1365	670812	keystroke_i	i	n/a
335.481	0.091	670962	keystroke_o	o	n/a
335.692	0.12	671384	keystroke_n	n	n/a
335.782	0.12	671564	keystroke_Key.space	Key.space	n/a
335.917	0.09	671834	keystroke_d	d	n/a
336.022	0.105	672044	keystroke_i	i	n/a
336.112	0.12	672224	keystroke_s	s	n/a
336.307	0.135	672614	keystroke_c	c	n/a
336.442	0.09	672884	keystroke_o	o	n/a
336.6215	0.1055	673243	keystroke_Key.space	Key.space	n/a
336.696	0.1205	673392	keystroke_t	t	n/a
336.8315	0.06	673663	keystroke_h	h	n/a
337.117	0.1045	674234	keystroke_o	o	n/a
337.2815	0.0745	674563	keystroke_s	s	n/a
337.657	0.075	675314	keystroke_e	e	n/a
337.747	0.105	675494	keystroke_'	'	n/a
337.972	0.09	675944	keystroke_r	r	n/a
338.107	0.12	676214	keystroke_e	e	n/a
338.197	0.119	676394	keystroke_Key.space	Key.space	n/a
338.392	0.12	676784	keystroke_t	t	n/a
338.482	0.09	676964	keystroke_h	h	n/a
338.647	0.12	677294	keystroke_i	i	n/a
338.737	0.09	677474	keystroke_r	r	n/a
338.887	0.12	677774	keystroke_t	t	n/a
339.127	0.075	678254	keystroke_y	y	n/a
339.277	0.1195	678554	keystroke_Key.enter	Key.enter	n/a
339.403	4.6905	678806	prompt	n/a	postal print specs involves\n
339.951	0.076	679902	keystroke_p	p	n/a
340.132	0.1495	680264	keystroke_o	o	n/a
340.327	0.045	680654	keystroke_s	s	n/a
340.762	0.075	681524	keystroke_t	t	n/a
340.9725	0.104	681945	keystroke_a	a	n/a
341.047	0.1195	682094	keystroke_l	l	n/a
341.1215	0.18	682243	keystroke_Key.space	Key.space	n/a
341.3315	0.1355	682663	keystroke_p	p	n/a
341.4215	0.12	682843	keystroke_r	r	n/a
341.5565	0.0755	683113	keystroke_i	i	n/a
341.7365	0.1045	683473	keystroke_n	n	n/a
341.797	0.089	683594	keystroke_t	t	n/a
341.901	0.105	683802	keystroke_Key.space	Key.space	n/a
342.021	0.076	684042	keystroke_s	s	n/a
342.111	0.1205	684222	keystroke_p	p	n/a
342.187	0.075	684374	keystroke_e	e	n/a
342.367	0.09	684734	keystroke_c	c	n/a
342.562	0.09	685124	keystroke_s	s	n/a
342.667	0.075	685334	keystroke_Key.space	Key.space	n/a
342.937	0.09	685874	keystroke_i	i	n/a
343.102	0.105	686204	keystroke_n	n	n/a
343.222	0.12	686444	keystroke_v	v	n/a
343.342	0.105	686684	keystroke_o	o	n/a
343.507	0.165	687014	keystroke_l	l	n/a
343.582	0.075	687164	keystroke_v	v	n/a
343.7465	0.0905	687493	keystroke_e	e	n/a
343.912	0.12	687824	keystroke_s	s	n/a
344.0165	0.075	688033	keystroke_Key.enter	Key.enter	n/a
344.0975	5.2165	688195	prompt	n/a	produced vaccine casinos rapidly\n
344.8565	0.1205	689713	keystroke_p	p	n/a
344.992	0.105	689984	keystroke_r	r	n/a
345.082	0.135	690164	keystroke_o	o	n/a
345.232	0.105	690464	keystroke_d	d	n/a
345.367	0.105	690734	keystroke_u	u	n/a
345.442	0.1045	690884	keystroke_c	c	n/a
345.6665	0.121	691333	keystroke_e	e	n/a
345.861	0.075	691722	keystroke_d	d	n/a
345.937	0.104	691874	keystroke_Key.space	Key.space	n/a
346.056	0.136	692112	keystroke_v	v	n/a
346.2965	0.09	692593	keystroke_a	a	n/a
346.4765	0.09	692953	keystroke_c	c	n/a
346.657	0.06	693314	keystroke_c	c	n/a
346.717	0.0595	693434	keystroke_i	i	n/a
346.837	0.1045	693674	keystroke_n	n	n/a
346.911	0.1065	693822	keystroke_e	e	n/a
347.047	0.089	694094	keystroke_Key.space	Key.space	n/a
347.122	0.119	694244	keystroke_c	c	n/a
347.346	0.106	694692	keystroke_a	a	n/a
347.466	0.121	694932	keystroke_s	s	n/a
347.557	0.09	695114	keystroke_i	i	n/a
347.751	0.0905	695502	keystroke_n	n	n/a
347.9165	0.075	695833	keystroke_o	o	n/a
347.9765	0.12	695953	keystroke_s	s	n/a
348.0815	0.15	696163	keystroke_Key.space	Key.space	n/a
348.217	0.0745	696434	keystroke_r	r	n/a
348.367	0.1345	696734	keystroke_a	a	n/a
348.4565	0.105	696913	keystroke_p	p	n/a
348.5915	0.1055	697183	keystroke_i	i	n/a
348.862	0.1195	697724	keystroke_d	d	n/a
348.9665	0.12	697933	keystroke_l	l	n/a
349.102	0.12	698204	keystroke_y	y	n/a
349.206	0.106	698412	keystroke_Key.enter	Key.enter	n/a
349.3185	5.665	698637	prompt	n/a	apollo phrase application merchant\n
349.957	0.1195	699914	keystroke_a	a	n/a
350.1365	0.1055	700273	keystroke_p	p	n/a
350.347	0.089	700694	keystroke_o	o	n/a
350.5415	0.075	701083	keystroke_l	l	n/a
350.6915	0.09	701383	keystroke_l	l	n/a
350.8865	0.075	701773	keystroke_o	o	n/a
351.0365	0.0755	702073	keystroke_Key.space	Key.space	n/a
351.1715	0.075	702343	keystroke_p	p	n/a
351.3215	0.135	702643	keystroke_h	h	n/a
351.397	0.09	702794	keystroke_r	r	n/a
351.577	0.105	703154	keystroke_a	a	n/a
351.7115	0.1055	703423	keystroke_s	s	n/a
351.922	0.09	703844	keystroke_e	e	n/a
351.997	0.0895	703994	keystroke_Key.space	Key.space	n/a
352.1165	0.12	704233	keystroke_a	a	n/a
352.1925	0.089	704385	keystroke_p	p	n/a
352.357	0.105	704714	keystroke_p	p	n/a
352.537	0.09	705074	keystroke_l	l	n/a
352.731	0.121	705462	keystroke_i	i	n/a
352.822	0.075	705644	keystroke_c	c	n/a
352.987	0.06	705974	keystroke_a	a	n/a
353.1365	0.1195	706273	keystroke_t	t	n/a
353.2115	0.1955	706423	keystroke_i	i	n/a
353.301	0.135	706602	keystroke_o	o	n/a
353.5115	0.135	707023	keystroke_n	n	n/a
353.617	0.105	707234	keystroke_Key.space	Key.space	n/a
353.7665	0.1655	707533	keystroke_m	m	n/a
353.8115	0.1355	707623	keystroke_e	e	n/a
353.976	0.09	707952	keystroke_r	r	n/a
354.1715	0.1055	708343	keystroke_c	c	n/a
354.261	0.1505	708522	keystroke_h	h	n/a
354.366	0.09	708732	keystroke_a	a	n/a
354.576	0.1955	709152	keystroke_n	n	n/a
354.7125	0.09	709425	keystroke_t	t	n/a
354.9065	0.075	709813	keystroke_Key.enter	Key.enter	n/a
354.988	7.7655	709976	prompt	n/a	silence industries plates cartridge\n
355.642	0.1495	711284	keystroke_s	s	n/a
355.7765	0.06	711553	keystroke_i	i	n/a
355.972	0.1045	711944	keystroke_l	l	n/a
356.0915	0.1055	712183	keystroke_e	e	n/a
356.212	0.195	712424	keystroke_n	n	n/a
356.332	0.09	712664	keystroke_c	c	n/a
356.527	0.104	713054	keystroke_e	e	n/a
356.6015	0.1055	713203	keystroke_Key.space	Key.space	n/a
356.677	0.09	713354	keystroke_i	i	n/a
356.827	0.135	713654	keystroke_n	n	n/a
356.902	0.09	713804	keystroke_d	d	n/a
357.112	0.09	714224	keystroke_s	s	n/a
357.232	0.179	714464	keystroke_u	u	n/a
357.592	0.059	715184	keystroke_Key.backspace	Key.backspace	n/a
357.7415	0.045	715483	keystroke_Key.backspace	Key.backspace	n/a
357.892	0.135	715784	keystroke_u	u	n/a
357.936	0.136	715872	keystroke_s	s	n/a
358.162	0.09	716324	keystroke_t	t	n/a
358.672	0.015	717344	keystroke_r	r	n/a
358.702	0.09	717404	keystroke_i	i	n/a
358.792	0.09	717584	keystroke_e	e	n/a
358.972	0.105	717944	keystroke_s	s	n/a
359.077	0.105	718154	keystroke_Key.space	Key.space	n/a
359.302	0.0745	718604	keystroke_p	p	n/a
359.482	0.1045	718964	keystroke_l	l	n/a
359.542	0.09	719084	keystroke_a	a	n/a
359.722	0.1195	719444	keystroke_t	t	n/a
359.887	0.135	719774	keystroke_e	e	n/a
360.0815	0.0905	720163	keystroke_d	d	n/a
360.457	0.1045	720914	keystroke_Key.backspace	Key.backspace	n/a
360.577	0.1195	721154	keystroke_s	s	n/a
360.6815	0.135	721363	keystroke_Key.space	Key.space	n/a
360.922	0.1045	721844	keystroke_c	c	n/a
361.1015	0.0755	722203	keystroke_a	a	n/a
361.282	0.1195	722564	keystroke_r	r	n/a
361.506	0.121	723012	keystroke_t	t	n/a
361.912	0.1045	723824	keystroke_r	r	n/a
362.0315	0.12	724063	keystroke_i	i	n/a
362.3015	0.105	724603	keystroke_d	d	n/a
362.422	0.075	724844	keystroke_g	g	n/a
362.542	0.105	725084	keystroke_e	e	n/a
362.677	0.075	725354	keystroke_Key.enter	Key.enter	n/a
362.757	4.2115	725514	prompt	n/a	seeds seat chosen replacing\n
363.3375	0.044	726675	keystroke_s	s	n/a
363.4865	0.061	726973	keystroke_e	e	n/a
363.637	0.0895	727274	keystroke_e	e	n/a
363.7715	0.1205	727543	keystroke_d	d	n/a
363.907	0.105	727814	keystroke_s	s	n/a
364.1015	0.135	728203	keystroke_Key.space	Key.space	n/a
364.206	0.091	728412	keystroke_s	s	n/a
364.356	0.106	728712	keystroke_e	e	n/a
364.536	0.1055	729072	keystroke_a	a	n/a
364.7015	0.1055	729403	keystroke_t	t	n/a
364.821	0.12	729642	keystroke_Key.space	Key.space	n/a
364.926	0.121	729852	keystroke_c	c	n/a
365.032	0.06	730064	keystroke_h	h	n/a
365.182	0.105	730364	keystroke_o	o	n/a
365.272	0.089	730544	keystroke_s	s	n/a
365.422	0.1045	730844	keystroke_e	e	n/a
365.4815	0.1355	730963	keystroke_n	n	n/a
365.6315	0.12	731263	keystroke_Key.space	Key.space	n/a
365.797	0.12	731594	keystroke_r	r	n/a
365.9315	0.1505	731863	keystroke_e	e	n/a
366.0215	0.09	732043	keystroke_p	p	n/a
366.202	0.1045	732404	keystroke_l	l	n/a
366.292	0.045	732584	keystroke_a	a	n/a
366.4565	0.09	732913	keystroke_c	c	n/a
366.517	0.0745	733034	keystroke_i	i	n/a
366.6665	0.1055	733333	keystroke_n	n	n/a
366.786	0.091	733572	keystroke_g	g	n/a
366.8915	0.075	733783	keystroke_Key.enter	Key.enter	n/a
366.9725	6.5805	733945	prompt	n/a	creatures consultants decent silver\n
367.642	0.1195	735284	keystroke_c	c	n/a
367.8815	0.0755	735763	keystroke_r	r	n/a
367.9865	0.1055	735973	keystroke_e	e	n/a
368.152	0.1045	736304	keystroke_a	a	n/a
368.347	0.105	736694	keystroke_t	t	n/a
368.437	0.119	736874	keystroke_u	u	n/a
368.5115	0.0905	737023	keystroke_r	r	n/a
368.6915	0.0895	737383	keystroke_e	e	n/a
368.842	0.134	737684	keystroke_s	s	n/a
368.9615	0.12	737923	keystroke_Key.space	Key.space	n/a
369.1115	0.09	738223	keystroke_c	c	n/a
369.187	0.06	738374	keystroke_o	o	n/a
369.277	0.1205	738554	keystroke_n	n	n/a
369.3815	0.12	738763	keystroke_s	s	n/a
369.5315	0.0895	739063	keystroke_u	u	n/a
369.996	0.09	739992	keystroke_l	l	n/a
370.1915	0.09	740383	keystroke_t	t	n/a
370.431	0.09	740862	keystroke_a	a	n/a
370.536	0.136	741072	keystroke_n	n	n/a
370.702	0.06	741404	keystroke_c	c	n/a
370.9865	0.105	741973	keystroke_Key.backspace	Key.backspace	n/a
371.0765	0.09	742153	keystroke_t	t	n/a
371.2565	0.105	742513	keystroke_s	s	n/a
371.3465	0.12	742693	keystroke_Key.space	Key.space	n/a
371.601	0.106	743202	keystroke_d	d	n/a
371.7815	0.06	743563	keystroke_e	e	n/a
371.9165	0.105	743833	keystroke_c	c	n/a
372.172	0.1345	744344	keystroke_e	e	n/a
372.322	0.105	744644	keystroke_n	n	n/a
372.457	0.075	744914	keystroke_t	t	n/a
372.576	0.121	745152	keystroke_Key.space	Key.space	n/a
372.7275	0.104	745455	keystroke_s	s	n/a
372.7865	0.09	745573	keystroke_i	i	n/a
372.966	0.1505	745932	keystroke_l	l	n/a
373.086	0.015	746172	keystroke_v	v	n/a
373.222	0.0745	746444	keystroke_e	e	n/a
373.3415	0.12	746683	keystroke_r	r	n/a
373.446	0.105	746892	keystroke_Key.enter	Key.enter	n/a
373.556	5.098	747112	prompt	n/a	variable laos transmit phys\n
374.3015	0.075	748603	keystroke_v	v	n/a
374.4515	0.1055	748903	keystroke_a	a	n/a
374.646	0.0765	749292	keystroke_r	r	n/a
374.736	0.0765	749472	keystroke_i	i	n/a
374.8265	0.1205	749653	keystroke_a	a	n/a
374.931	0.0755	749862	keystroke_b	b	n/a
375.1115	0.09	750223	keystroke_l	l	n/a
375.232	0.12	750464	keystroke_e	e	n/a
375.3215	0.105	750643	keystroke_Key.space	Key.space	n/a
375.442	0.15	750884	keystroke_l	l	n/a
375.8765	0.135	751753	keystroke_a	a	n/a
375.9965	0.1045	751993	keystroke_o	o	n/a
376.221	0.105	752442	keystroke_s	s	n/a
376.3865	0.1195	752773	keystroke_Key.space	Key.space	n/a
376.627	0.0745	753254	keystroke_t	t	n/a
376.7465	0.1055	753493	keystroke_r	r	n/a
376.9415	0.121	753883	keystroke_a	a	n/a
377.0315	0.09	754063	keystroke_n	n	n/a
377.1065	0.1355	754213	keystroke_s	s	n/a
377.437	0.09	754874	keystroke_m	m	n/a
377.617	0.09	755234	keystroke_i	i	n/a
377.692	0.0895	755384	keystroke_t	t	n/a
377.7965	0.12	755593	keystroke_Key.space	Key.space	n/a
377.9015	0.09	755803	keystroke_p	p	n/a
378.0965	0.09	756193	keystroke_h	h	n/a
378.2915	0.106	756583	keystroke_y	y	n/a
378.3815	0.105	756763	keystroke_s	s	n/a
378.562	0.0895	757124	keystroke_Key.enter	Key.enter	n/a
378.661	5.724	757322	prompt	n/a	outer cookie phentermine belief\n
379.327	0.09	758654	keystroke_o	o	n/a
379.4925	0.149	758985	keystroke_u	u	n/a
379.5825	0.104	759165	keystroke_t	t	n/a
379.732	0.135	759464	keystroke_e	e	n/a
379.882	0.09	759764	keystroke_r	r	n/a
379.9415	0.09	759883	keystroke_Key.space	Key.space	n/a
380.107	0.09	760214	keystroke_c	c	n/a
380.167	0.089	760334	keystroke_o	o	n/a
380.332	0.12	760664	keystroke_o	o	n/a
380.437	0.1345	760874	keystroke_k	k	n/a
380.662	0.15	761324	keystroke_i	i	n/a
380.7965	0.105	761593	keystroke_e	e	n/a
380.917	0.1045	761834	keystroke_Key.space	Key.space	n/a
381.037	0.0745	762074	keystroke_p	p	n/a
381.2165	0.135	762433	keystroke_h	h	n/a
381.3365	0.135	762673	keystroke_e	e	n/a
381.9365	0.135	763873	keystroke_n	n	n/a
382.1165	0.105	764233	keystroke_t	t	n/a
382.2965	0.105	764593	keystroke_e	e	n/a
382.4165	0.12	764833	keystroke_r	r	n/a
382.5515	0.1205	765103	keystroke_m	m	n/a
382.7615	0.075	765523	keystroke_i	i	n/a
382.8965	0.075	765793	keystroke_n	n	n/a
382.987	0.12	765974	keystroke_e	e	n/a
383.0915	0.0605	766183	keystroke_Key.space	Key.space	n/a
383.182	0.0755	766364	keystroke_b	b	n/a
383.317	0.105	766634	keystroke_e	e	n/a
383.452	0.105	766904	keystroke_l	l	n/a
383.632	0.1345	767264	keystroke_i	i	n/a
383.752	0.0595	767504	keystroke_e	e	n/a
384.082	0.0895	768164	keystroke_f	f	n/a
384.2315	0.1505	768463	keystroke_Key.enter	Key.enter	n/a
384.393	6.9955	768786	prompt	n/a	generic correspondence surfing films\n
385.0865	0.075	770173	keystroke_g	g	n/a
385.267	0.09	770534	keystroke_e	e	n/a
385.3265	0.12	770653	keystroke_n	n	n/a
385.4615	0.105	770923	keystroke_e	e	n/a
385.5815	0.1055	771163	keystroke_r	r	n/a
385.702	0.075	771404	keystroke_i	i	n/a
385.8225	0.1345	771645	keystroke_c	c	n/a
385.942	0.09	771884	keystroke_Key.space	Key.space	n/a
386.167	0.1195	772334	keystroke_c	c	n/a
386.272	0.1055	772544	keystroke_o	o	n/a
386.407	0.075	772814	keystroke_r	r	n/a
386.5715	0.105	773143	keystroke_r	r	n/a
386.6915	0.12	773383	keystroke_e	e	n/a
386.8565	0.12	773713	keystroke_s	s	n/a
386.9315	0.15	773863	keystroke_p	p	n/a
387.0065	0.1055	774013	keystroke_o	o	n/a
387.2315	0.12	774463	keystroke_n	n	n/a
387.277	0.0755	774554	keystroke_d	d	n/a
387.4565	0.075	774913	keystroke_e	e	n/a
387.5165	0.135	775033	keystroke_n	n	n/a
387.6665	0.0905	775333	keystroke_c	c	n/a
387.862	0.12	775724	keystroke_e	e	n/a
387.952	0.104	775904	keystroke_Key.space	Key.space	n/a
388.072	0.12	776144	keystroke_s	s	n/a
388.1765	0.18	776353	keystroke_u	u	n/a
388.327	0.0895	776654	keystroke_r	r	n/a
388.7615	0.09	777523	keystroke_g	g	n/a
388.807	0.105	777614	keystroke_i	i	n/a
389.0165	0.1205	778033	keystroke_n	n	n/a
389.3465	0.09	778693	keystroke_Key.backspace	Key.backspace	n/a
389.5415	0.03	779083	keystroke_Key.backspace	Key.backspace	n/a
389.6765	0.0605	779353	keystroke_Key.backspace	Key.backspace	n/a
389.767	0.105	779534	keystroke_f	f	n/a
389.857	0.09	779714	keystroke_i	i	n/a
390.052	0.119	780104	keystroke_n	n	n/a
390.157	0.089	780314	keystroke_g	g	n/a
390.2765	0.105	780553	keystroke_Key.space	Key.space	n/a
390.6665	0.091	781333	keystroke_f	f	n/a
390.7415	0.1055	781483	keystroke_i	i	n/a
390.9215	0.1355	781843	keystroke_l	l	n/a
391.086	0.12	782172	keystroke_m	m	n/a
391.191	0.106	782382	keystroke_s	s	n/a
391.281	0.105	782562	keystroke_Key.enter	Key.enter	n/a
391.393	7.916	782786	prompt	n/a	suggesting finland statewide powered\n
392.0165	0.105	784033	keystroke_s	s	n/a
392.0615	0.12	784123	keystroke_u	u	n/a
392.2715	0.1055	784543	keystroke_g	g	n/a
392.497	0.06	784994	keystroke_g	g	n/a
392.647	0.0905	785294	keystroke_e	e	n/a
392.8415	0.075	785683	keystroke_s	s	n/a
393.037	0.075	786074	keystroke_t	t	n/a
393.0825	0.0885	786165	keystroke_i	i	n/a
393.232	0.149	786464	keystroke_n	n	n/a
393.322	0.075	786644	keystroke_g	g	n/a
393.4415	0.1195	786883	keystroke_Key.space	Key.space	n/a
393.607	0.12	787214	keystroke_f	f	n/a
393.667	0.075	787334	keystroke_i	i	n/a
393.817	0.105	787634	keystroke_n	n	n/a
394.177	0.075	788354	keystroke_l	l	n/a
394.267	0.135	788534	keystroke_a	a	n/a
394.417	0.12	788834	keystroke_n	n	n/a
394.492	0.105	788984	keystroke_d	d	n/a
394.642	0.105	789284	keystroke_Key.space	Key.space	n/a
394.732	0.0895	789464	keystroke_s	s	n/a
394.9575	0.044	789915	keystroke_t	t	n/a
395.1675	0.089	790335	keystroke_a	a	n/a
395.2715	0.1205	790543	keystroke_t	t	n/a
395.392	0.09	790784	keystroke_e	e	n/a
395.632	0.075	791264	keystroke_w	w	n/a
395.6465	0.1355	791293	keystroke_i	i	n/a
395.902	0.09	791804	keystroke_d	d	n/a
396.112	0.09	792224	keystroke_e	e	n/a
396.217	0.09	792434	keystroke_Key.space	Key.space	n/a
396.308	0.209	792616	keystroke_p	p	n/a
396.442	0.135	792884	keystroke_o	o	n/a
396.622	0.12	793244	keystroke_e	e	n/a
396.637	0.0305	793274	keystroke_w	w	n/a
396.817	0.12	793634	keystroke_r	r	n/a
396.967	0.135	793934	keystroke_e	e	n/a
397.327	0.09	794654	keystroke_Key.backspace	Key.backspace	n/a
397.5215	0.06	795043	keystroke_Key.backspace	Key.backspace	n/a
397.6865	0.06	795373	keystroke_Key.backspace	Key.backspace	n/a
397.8365	0.105	795673	keystroke_Key.backspace	Key.backspace	n/a
398.107	0.0755	796214	keystroke_w	w	n/a
398.661	0.106	797322	keystroke_e	e	n/a
398.7975	0.119	797595	keystroke_r	r	n/a
398.9015	0.15	797803	keystroke_e	e	n/a
