onset	duration	sample	value	key	prompt_text
1.795	15.181	3590	prompt	n/a	the quick brown fox jumps over a lazy dog\n
4.8175	0.1305	9635	keystroke_t	t	n/a
4.948	0.2255	9896	keystroke_h	h	n/a
5.083	0.2405	10166	keystroke_e	e	n/a
5.399	0.209	10798	keystroke_Key.space	Key.space	n/a
5.6355	0.162	11271	keystroke_q	q	n/a
5.918	0.222	11836	keystroke_u	u	n/a
6.068	0.1925	12136	keystroke_i	i	n/a
6.3355	0.1805	12671	keystroke_c	c	n/a
6.561	0.195	13122	keystroke_k	k	n/a
6.906	0.1505	13812	keystroke_Key.space	Key.space	n/a
7.266	0.21	14532	keystroke_b	b	n/a
7.477	0.224	14954	keystroke_r	r	n/a
7.731	0.2405	15462	keystroke_o	o	n/a
7.9865	0.15	15973	keystroke_w	w	n/a
8.257	0.195	16514	keystroke_n	n	n/a
8.6025	0.1805	17205	keystroke_Key.space	Key.space	n/a
8.784	0.2095	17568	keystroke_f	f	n/a
9.0835	0.27	18167	keystroke_o	o	n/a
9.3385	0.195	18677	keystroke_x	x	n/a
9.654	0.211	19308	keystroke_Key.space	Key.space	n/a
10.0145	0.1955	20029	keystroke_j	j	n/a
10.4805	0.165	20961	keystroke_u	u	n/a
10.841	0.2855	21682	keystroke_m	m	n/a
11.1415	0.2705	22283	keystroke_p	p	n/a
11.337	0.1655	22674	keystroke_s	s	n/a
11.6975	0.1655	23395	keystroke_Key.space	Key.space	n/a
11.923	0.2105	23846	keystroke_o	o	n/a
12.1485	0.195	24297	keystroke_v	v	n/a
12.374	0.2255	24748	keystroke_e	e	n/a
12.539	0.196	25078	keystroke_r	r	n/a
12.7045	0.1955	25409	keystroke_Key.space	Key.space	n/a
13.1105	0.2105	26221	keystroke_a	a	n/a
13.381	0.195	26762	keystroke_Key.space	Key.space	n/a
13.907	0.2095	27814	keystroke_l	l	n/a
14.1315	0.1805	28263	keystroke_a	a	n/a
14.5675	0.1955	29135	keystroke_z	z	n/a
14.808	0.2255	29616	keystroke_y	y	n/a
15.1385	0.1955	30277	keystroke_Key.space	Key.space	n/a
15.3795	0.18	30759	keystroke_d	d	n/a
15.5745	0.361	31149	keystroke_o	o	n/a
15.9205	0.165	31841	keystroke_g	g	n/a
16.7465	0.226	33493	keystroke_Key.enter	Key.enter	n/a
16.9815	7.8825	33963	prompt	n/a	invalid adams prime vice\n
18.175	0.33	36350	keystroke_i	i	n/a
18.3395	0.2105	36679	keystroke_n	n	n/a
18.911	0.2105	37822	keystroke_v	v	n/a
19.076	0.2405	38152	keystroke_a	a	n/a
19.332	0.3455	38664	keystroke_l	l	n/a
19.497	0.1955	38994	keystroke_i	i	n/a
19.7075	0.165	39415	keystroke_d	d	n/a
19.993	0.225	39986	keystroke_Key.space	Key.space	n/a
20.338	0.211	40676	keystroke_a	a	n/a
20.624	0.2255	41248	keystroke_d	d	n/a
20.8645	0.2405	41729	keystroke_a	a	n/a
21.3905	0.21	42781	keystroke_m	m	n/a
21.721	0.1655	43442	keystroke_s	s	n/a
21.9315	0.21	43863	keystroke_Key.space	Key.space	n/a
22.337	0.2105	44674	keystroke_p	p	n/a
22.6225	0.1955	45245	keystroke_r	r	n/a
22.848	0.376	45696	keystroke_i	i	n/a
23.0585	0.2105	46117	keystroke_m	m	n/a
23.254	0.165	46508	keystroke_e	e	n/a
23.524	0.196	47048	keystroke_Key.space	Key.space	n/a
23.915	0.15	47830	keystroke_v	v	n/a
24.005	0.2405	48010	keystroke_i	i	n/a
24.306	0.27	48612	keystroke_c	c	n/a
24.531	0.1805	49062	keystroke_e	e	n/a
24.6665	0.1955	49333	keystroke_Key.enter	Key.enter	n/a
24.87	11.444	49740	prompt	n/a	she reputation toner leader\n
25.658	0.1655	51316	keystroke_s	s	n/a
25.989	0.21	51978	keystroke_h	h	n/a
26.169	0.1355	52338	keystroke_e	e	n/a
26.3495	0.1955	52699	keystroke_Key.space	Key.space	n/a
26.7555	0.165	53511	keystroke_p	p	n/a
27.266	0.1655	54532	keystroke_Key.backspace	Key.backspace	n/a
27.5965	0.2255	55193	keystroke_r	r	n/a
27.732	0.2105	55464	keystroke_e	e	n/a
28.1075	0.015	56215	keystroke_u	u	n/a
28.7385	0.1505	57477	keystroke_Key.backspace	Key.backspace	n/a
29.46	0.2705	58920	keystroke_p	p	n/a
29.7315	0.2095	59463	keystroke_u	u	n/a
30.2565	0.18	60513	keystroke_t	t	n/a
30.4215	0.2255	60843	keystroke_a	a	n/a
30.632	0.1805	61264	keystroke_t	t	n/a
30.7975	0.285	61595	keystroke_i	i	n/a
31.0525	0.286	62105	keystroke_o	o	n/a
31.1575	0.256	62315	keystroke_n	n	n/a
31.4885	0.09	62977	keystroke_s	s	n/a
32.0895	0.1805	64179	keystroke_Key.backspace	Key.backspace	n/a
32.585	0.196	65170	keystroke_Key.space	Key.space	n/a
33.051	0.1655	66102	keystroke_t	t	n/a
33.2615	0.2705	66523	keystroke_o	o	n/a
33.472	0.2705	66944	keystroke_n	n	n/a
33.7275	0.225	67455	keystroke_e	e	n/a
33.8925	0.1805	67785	keystroke_r	r	n/a
34.103	0.2705	68206	keystroke_Key.space	Key.space	n/a
34.4485	0.21	68897	keystroke_l	l	n/a
34.6435	0.256	69287	keystroke_e	e	n/a
34.9145	0.18	69829	keystroke_a	a	n/a
35.1995	0.1805	70399	keystroke_d	d	n/a
35.5605	0.1955	71121	keystroke_e	e	n/a
35.7105	0.2105	71421	keystroke_r	r	n/a
36.116	0.1955	72232	keystroke_Key.enter	Key.enter	n/a
36.32	15.7685	72640	prompt	n/a	strengths plant zdnet switching\n
37.093	0.2105	74186	keystroke_s	s	n/a
37.3185	0.15	74637	keystroke_t	t	n/a
37.6785	0.226	75357	keystroke_r	r	n/a
37.8445	0.18	75689	keystroke_e	e	n/a
38.295	0.2255	76590	keystroke_n	n	n/a
38.6255	0.1655	77251	keystroke_g	g	n/a
39.587	0.18	79174	keystroke_t	t	n/a
39.782	0.2405	79564	keystroke_h	h	n/a
40.083	0.195	80166	keystroke_s	s	n/a
40.4735	0.195	80947	keystroke_Key.space	Key.space	n/a
41.1195	0.2405	82239	keystroke_p	p	n/a
41.615	0.286	83230	keystroke_l	l	n/a
42.036	0.21	84072	keystroke_a	a	n/a
42.261	0.2105	84522	keystroke_n	n	n/a
42.9225	0.195	85845	keystroke_t	t	n/a
43.2375	0.1655	86475	keystroke_Key.space	Key.space	n/a
43.944	0.211	87888	keystroke_z	z	n/a
44.4545	0.2255	88909	keystroke_d	d	n/a
45.0255	0.225	90051	keystroke_n	n	n/a
45.2655	0.2405	90531	keystroke_e	e	n/a
45.5815	0.18	91163	keystroke_t	t	n/a
45.7465	0.2405	91493	keystroke_Key.space	Key.space	n/a
46.167	0.1505	92334	keystroke_s	s	n/a
46.4525	0.2105	92905	keystroke_w	w	n/a
46.813	0.3455	93626	keystroke_i	i	n/a
47.1595	0.2245	94319	keystroke_c	c	n/a
48.18	0.1655	96360	keystroke_Key.backspace	Key.backspace	n/a
48.33	0.1965	96660	keystroke_t	t	n/a
49.0515	0.195	98103	keystroke_c	c	n/a
49.593	0.2095	99186	keystroke_i	i	n/a
50.118	0.1355	100236	keystroke_Key.backspace	Key.backspace	n/a
50.629	0.21	101258	keystroke_h	h	n/a
50.9745	0.345	101949	keystroke_i	i	n/a
51.1995	0.2105	102399	keystroke_n	n	n/a
51.56	0.1955	103120	keystroke_g	g	n/a
51.906	0.18	103812	keystroke_Key.enter	Key.enter	n/a
52.094	13.4665	104188	prompt	n/a	correlation thong platinum casa\n
53.1675	0.18	106335	keystroke_c	c	n/a
53.378	0.33	106756	keystroke_o	o	n/a
53.663	0.105	107326	keystroke_r	r	n/a
53.9335	0.2555	107867	keystroke_r	r	n/a
54.114	0.21	108228	keystroke_e	e	n/a
54.4445	0.375	108889	keystroke_l	l	n/a
54.8495	0.2405	109699	keystroke_a	a	n/a
55.15	0.1805	110300	keystroke_t	t	n/a
55.3	0.256	110600	keystroke_i	i	n/a
55.481	0.27	110962	keystroke_o	o	n/a
55.601	0.255	111202	keystroke_n	n	n/a
56.2165	0.225	112433	keystroke_Key.space	Key.space	n/a
56.981	0.2115	113962	keystroke_t	t	n/a
57.2815	0.2095	114563	keystroke_h	h	n/a
57.461	0.315	114922	keystroke_o	o	n/a
57.641	0.24	115282	keystroke_n	n	n/a
57.791	0.1795	115582	keystroke_g	g	n/a
57.9855	0.255	115971	keystroke_Key.space	Key.space	n/a
58.3305	0.24	116661	keystroke_p	p	n/a
58.7805	0.2995	117561	keystroke_l	l	n/a
59.065	0.105	118130	keystroke_i	i	n/a
59.77	0.165	119540	keystroke_Key.backspace	Key.backspace	n/a
60.206	0.299	120412	keystroke_a	a	n/a
60.521	0.194	121042	keystroke_t	t	n/a
61	0.2395	122000	keystroke_i	i	n/a
61.6745	0.195	123349	keystroke_n	n	n/a
62.214	0.181	124428	keystroke_u	u	n/a
62.7235	0.2105	125447	keystroke_m	m	n/a
63.5035	0.195	127007	keystroke_Key.space	Key.space	n/a
63.7735	0.285	127547	keystroke_c	c	n/a
64.0435	0.3	128087	keystroke_a	a	n/a
64.3585	0.2245	128717	keystroke_s	s	n/a
64.673	0.255	129346	keystroke_a	a	n/a
65.363	0.1945	130726	keystroke_Key.enter	Key.enter	n/a
65.5685	15.5555	131137	prompt	n/a	effects punch player culture\n
66.4125	0.165	132825	keystroke_e	e	n/a
66.773	0.165	133546	keystroke_f	f	n/a
67.0725	0.255	134145	keystroke_f	f	n/a
67.3425	0.24	134685	keystroke_e	e	n/a
68.2875	0.195	136575	keystroke_c	c	n/a
68.722	0.33	137444	keystroke_t	t	n/a
68.992	0.195	137984	keystroke_s	s	n/a
69.727	0.225	139454	keystroke_Key.space	Key.space	n/a
70.2365	0.24	140473	keystroke_p	p	n/a
70.4165	0.21	140833	keystroke_u	u	n/a
70.9415	0.2245	141883	keystroke_b	b	n/a
71.316	0.24	142632	keystroke_c	c	n/a
71.946	0.134	143892	keystroke_Key.backspace	Key.backspace	n/a
72.2	0.1355	144400	keystroke_Key.backspace	Key.backspace	n/a
73.7445	0.18	147489	keystroke_n	n	n/a
74.2245	0.18	148449	keystroke_c	c	n/a
74.4645	0.24	148929	keystroke_h	h	n/a
74.8095	0.165	149619	keystroke_Key.space	Key.space	n/a
75.4245	0.209	150849	keystroke_p	p	n/a
75.8285	0.24	151657	keystroke_l	l	n/a
76.2035	0.21	152407	keystroke_a	a	n/a
76.5335	0.2095	153067	keystroke_y	y	n/a
76.803	0.225	153606	keystroke_e	e	n/a
76.983	0.21	153966	keystroke_r	r	n/a
77.418	0.2095	154836	keystroke_Key.space	Key.space	n/a
77.853	0.165	155706	keystroke_c	c	n/a
78.7675	0.21	157535	keystroke_u	u	n/a
78.9175	0.405	157835	keystroke_l	l	n/a
79.2925	0.21	158585	keystroke_t	t	n/a
79.727	0.225	159454	keystroke_u	u	n/a
79.937	0.195	159874	keystroke_r	r	n/a
80.072	0.15	160144	keystroke_e	e	n/a
80.9415	0.18	161883	keystroke_Key.enter	Key.enter	n/a
81.13	10.2805	162260	prompt	n/a	kits hearing oclc taxes\n
82.021	0.18	164042	keystroke_k	k	n/a
82.696	0.33	165392	keystroke_i	i	n/a
82.846	0.3145	165692	keystroke_t	t	n/a
83.1155	0.15	166231	keystroke_s	s	n/a
83.4455	0.12	166891	keystroke_Key.space	Key.space	n/a
83.8055	0.24	167611	keystroke_h	h	n/a
83.9555	0.225	167911	keystroke_e	e	n/a
84.1505	0.27	168301	keystroke_a	a	n/a
84.3755	0.2395	168751	keystroke_r	r	n/a
84.87	0.225	169740	keystroke_n	n	n/a
85.155	0.21	170310	keystroke_g	g	n/a
85.605	0.1945	171210	keystroke_Key.space	Key.space	n/a
86.2645	0.24	172529	keystroke_o	o	n/a
86.9545	0.2095	173909	keystroke_c	c	n/a
87.554	0.2395	175108	keystroke_l	l	n/a
87.7185	0.24	175437	keystroke_c	c	n/a
88.5885	0.195	177177	keystroke_Key.space	Key.space	n/a
89.008	0.255	178016	keystroke_t	t	n/a
89.248	0.24	178496	keystroke_a	a	n/a
89.7575	0.21	179515	keystroke_x	x	n/a
90.2675	0.315	180535	keystroke_e	e	n/a
90.5375	0.18	181075	keystroke_s	s	n/a
91.2415	0.1655	182483	keystroke_Key.enter	Key.enter	n/a
91.417	30.4445	182834	prompt	n/a	substantially shadows remember lime\n
92.352	0.194	184704	keystroke_s	s	n/a
92.772	0.195	185544	keystroke_u	u	n/a
93.2505	0.225	186501	keystroke_b	b	n/a
93.8055	0.15	187611	keystroke_s	s	n/a
94.1355	0.24	188271	keystroke_t	t	n/a
94.4055	0.2695	188811	keystroke_i	i	n/a
95.065	0.21	190130	keystroke_a	a	n/a
95.665	0.2105	191330	keystroke_n	n	n/a
96.415	0.195	192830	keystroke_t	t	n/a
96.625	0.3	193250	keystroke_i	i	n/a
96.91	0.2245	193820	keystroke_a	a	n/a
97.09	0.1345	194180	keystroke_l	l	n/a
97.3445	0.3	194689	keystroke_l	l	n/a
97.8095	0.255	195619	keystroke_y	y	n/a
98.184	0.2545	196368	keystroke_Key.space	Key.space	n/a
101.5465	0.056	203093	keystroke_Key.backspace	Key.backspace	n/a
101.7385	0.134	203477	keystroke_Key.backspace	Key.backspace	n/a
101.9485	0.119	203897	keystroke_Key.backspace	Key.backspace	n/a
102.1725	0.105	204345	keystroke_Key.backspace	Key.backspace	n/a
102.442	0.166	204884	keystroke_Key.backspace	Key.backspace	n/a
102.712	0.12	205424	keystroke_Key.backspace	Key.backspace	n/a
102.952	0.3295	205904	keystroke_Key.backspace	Key.backspace	n/a
103.5065	0.135	207013	keystroke_Key.backspace	Key.backspace	n/a
103.7775	0.165	207555	keystroke_Key.backspace	Key.backspace	n/a
104.2125	0.164	208425	keystroke_Key.backspace	Key.backspace	n/a
106.989	0.117	213978	keystroke_a	a	n/a
107.091	0.255	214182	keystroke_n	n	n/a
107.586	0.18	215172	keystroke_t	t	n/a
107.856	0.24	215712	keystroke_i	i	n/a
108.096	0.1945	216192	keystroke_a	a	n/a
108.2605	0.165	216521	keystroke_l	l	n/a
108.5605	0.1495	217121	keystroke_l	l	n/a
110.4495	0.195	220899	keystroke_y	y	n/a
110.9895	0.21	221979	keystroke_Key.space	Key.space	n/a
111.709	0.135	223418	keystroke_s	s	n/a
112.219	0.27	224438	keystroke_h	h	n/a
112.429	0.225	224858	keystroke_a	a	n/a
112.804	0.1945	225608	keystroke_d	d	n/a
113.1185	0.36	226237	keystroke_o	o	n/a
113.2685	0.18	226537	keystroke_w	w	n/a
113.6885	0.165	227377	keystroke_s	s	n/a
114.213	0.225	228426	keystroke_Key.space	Key.space	n/a
114.7825	0.21	229565	keystroke_r	r	n/a
114.9325	0.165	229865	keystroke_e	e	n/a
115.1575	0.225	230315	keystroke_m	m	n/a
115.3975	0.12	230795	keystroke_e	e	n/a
115.8925	0.21	231785	keystroke_b	b	n/a
116.207	0.285	232414	keystroke_e	e	n/a
116.417	0.225	232834	keystroke_r	r	n/a
117.347	0.135	234694	keystroke_Key.backspace	Key.backspace	n/a
117.572	0.105	235144	keystroke_Key.backspace	Key.backspace	n/a
117.7815	0.1205	235563	keystroke_Key.backspace	Key.backspace	n/a
118.5465	0.2245	237093	keystroke_m	m	n/a
119.311	0.195	238622	keystroke_b	b	n/a
119.551	0.225	239102	keystroke_e	e	n/a
119.716	0.2095	239432	keystroke_r	r	n/a
120.0455	0.21	240091	keystroke_Key.space	Key.space	n/a
120.5405	0.3445	241081	keystroke_l	l	n/a
120.855	0.345	241710	keystroke_i	i	n/a
121.065	0.285	242130	keystroke_m	m	n/a
121.26	0.21	242520	keystroke_e	e	n/a
121.68	0.18	243360	keystroke_Key.enter	Key.enter	n/a
121.8675	16.143	243735	prompt	n/a	hdtv rebound amateur jack\n
122.9695	0.2845	245939	keystroke_h	h	n/a
123.1945	0.1495	246389	keystroke_d	d	n/a
123.644	0.195	247288	keystroke_t	t	n/a
124.139	0.2095	248278	keystroke_v	v	n/a
124.7085	0.195	249417	keystroke_Key.space	Key.space	n/a
125.1735	0.27	250347	keystroke_r	r	n/a
125.3535	0.165	250707	keystroke_e	e	n/a
125.818	0.165	251636	keystroke_d	d	n/a
126.448	0.135	252896	keystroke_Key.backspace	Key.backspace	n/a
126.958	0.195	253916	keystroke_b	b	n/a
127.3175	0.36	254635	keystroke_o	o	n/a
127.5575	0.165	255115	keystroke_u	u	n/a
128.0225	0.2095	256045	keystroke_n	n	n/a
128.277	0.18	256554	keystroke_d	d	n/a
129.222	0.1795	258444	keystroke_Key.space	Key.space	n/a
129.4765	0.255	258953	keystroke_a	a	n/a
129.9115	0.165	259823	keystroke_m	m	n/a
130.0765	0.36	260153	keystroke_e	e	n/a
130.3915	0.255	260783	keystroke_a	a	n/a
131.441	0.405	262882	keystroke_Key.backspace	Key.backspace	n/a
132.176	0.165	264352	keystroke_Key.backspace	Key.backspace	n/a
132.491	0.2095	264982	keystroke_a	a	n/a
132.9405	0.195	265881	keystroke_t	t	n/a
133.3605	0.21	266721	keystroke_e	e	n/a
133.765	0.165	267530	keystroke_a	a	n/a
134.38	0.15	268760	keystroke_Key.backspace	Key.backspace	n/a
134.935	0.1645	269870	keystroke_u	u	n/a
135.1595	0.195	270319	keystroke_r	r	n/a
135.5645	0.1945	271129	keystroke_Key.space	Key.space	n/a
136.209	0.21	272418	keystroke_j	j	n/a
136.479	0.21	272958	keystroke_a	a	n/a
136.7935	0.21	273587	keystroke_c	c	n/a
136.9585	0.18	273917	keystroke_k	k	n/a
137.7685	0.24	275537	keystroke_Key.enter	Key.enter	n/a
138.015	27.9915	276030	prompt	n/a	occasion hebrew engineers substitute\n
142.555	0.162	285110	keystroke_o	o	n/a
142.732	0.15	285464	keystroke_c	c	n/a
143.032	0.24	286064	keystroke_c	c	n/a
143.542	0.2845	287084	keystroke_a	a	n/a
143.8415	0.15	287683	keystroke_s	s	n/a
144.1265	0.135	288253	keystroke_s	s	n/a
144.4265	0.255	288853	keystroke_i	i	n/a
144.6215	0.3145	289243	keystroke_o	o	n/a
144.876	0.226	289752	keystroke_n	n	n/a
146.946	0.15	293892	keystroke_Key.backspace	Key.backspace	n/a
147.231	0.3285	294462	keystroke_Key.backspace	Key.backspace	n/a
147.68	0.1355	295360	keystroke_Key.backspace	Key.backspace	n/a
147.9205	0.06	295841	keystroke_Key.backspace	Key.backspace	n/a
148.1755	0.075	296351	keystroke_Key.backspace	Key.backspace	n/a
148.4305	0.12	296861	keystroke_Key.backspace	Key.backspace	n/a
150.862	0.208	301724	keystroke_a	a	n/a
151.189	0.15	302378	keystroke_s	s	n/a
151.504	0.2545	303008	keystroke_i	i	n/a
151.6685	0.27	303337	keystroke_o	o	n/a
151.8185	0.195	303637	keystroke_n	n	n/a
152.1635	0.24	304327	keystroke_Key.space	Key.space	n/a
152.883	0.195	305766	keystroke_b	b	n/a
153.603	0.15	307206	keystroke_Key.backspace	Key.backspace	n/a
154.053	0.2095	308106	keystroke_h	h	n/a
154.2925	0.255	308585	keystroke_e	e	n/a
155.0435	0.2385	310087	keystroke_b	b	n/a
155.237	0.21	310474	keystroke_r	r	n/a
155.342	0.18	310684	keystroke_e	e	n/a
155.478	0.194	310956	keystroke_w	w	n/a
155.927	0.21	311854	keystroke_Key.space	Key.space	n/a
156.453	0.1645	312906	keystroke_e	e	n/a
156.6765	0.195	313353	keystroke_n	n	n/a
157.2015	0.165	314403	keystroke_g	g	n/a
157.5465	0.391	315093	keystroke_i	i	n/a
157.7265	0.225	315453	keystroke_n	n	n/a
158.1625	0.209	316325	keystroke_e	e	n/a
158.4765	0.1655	316953	keystroke_r	r	n/a
158.762	0.435	317524	keystroke_r	r	n/a
159.046	0.135	318092	keystroke_s	s	n/a
159.7055	0.15	319411	keystroke_Key.backspace	Key.backspace	n/a
159.9755	0.09	319951	keystroke_Key.backspace	Key.backspace	n/a
160.1555	0.136	320311	keystroke_Key.backspace	Key.backspace	n/a
160.4415	0.21	320883	keystroke_e	e	n/a
160.6205	0.256	321241	keystroke_r	r	n/a
160.8305	0.151	321661	keystroke_s	s	n/a
161.3105	0.21	322621	keystroke_Key.space	Key.space	n/a
161.8055	0.195	323611	keystroke_s	s	n/a
162.1215	0.194	324243	keystroke_u	u	n/a
162.5855	0.225	325171	keystroke_b	b	n/a
162.9	0.195	325800	keystroke_s	s	n/a
163.2	0.165	326400	keystroke_t	t	n/a
163.38	0.315	326760	keystroke_i	i	n/a
163.725	0.195	327450	keystroke_t	t	n/a
164.04	0.225	328080	keystroke_u	u	n/a
164.4	0.165	328800	keystroke_e	e	n/a
165.075	0.15	330150	keystroke_Key.backspace	Key.backspace	n/a
165.255	0.195	330510	keystroke_t	t	n/a
165.48	0.15	330960	keystroke_e	e	n/a
165.8095	0.195	331619	keystroke_Key.enter	Key.enter	n/a
166.0115	28.9515	332023	prompt	n/a	indices netscape finally proudly\n
171.3475	0.266	342695	keystroke_i	i	n/a
171.4635	0.2085	342927	keystroke_n	n	n/a
171.778	0.195	343556	keystroke_c	c	n/a
171.988	0.21	343976	keystroke_i	i	n/a
172.227	0.181	344454	keystroke_d	d	n/a
172.8715	0.136	345743	keystroke_Key.backspace	Key.backspace	n/a
173.1125	0.104	346225	keystroke_Key.backspace	Key.backspace	n/a
173.3075	0.134	346615	keystroke_Key.backspace	Key.backspace	n/a
173.5775	0.15	347155	keystroke_d	d	n/a
173.9675	0.21	347935	keystroke_i	i	n/a
174.2525	0.3	348505	keystroke_c	c	n/a
174.5075	0.2395	349015	keystroke_e	e	n/a
174.6575	0.1795	349315	keystroke_s	s	n/a
175.497	0.21	350994	keystroke_Key.space	Key.space	n/a
176.307	0.1945	352614	keystroke_n	n	n/a
176.4265	0.24	352853	keystroke_e	e	n/a
176.6065	0.225	353213	keystroke_t	t	n/a
177.671	0.21	355342	keystroke_s	s	n/a
178.361	0.225	356722	keystroke_p	p	n/a
178.587	0.254	357174	keystroke_a	a	n/a
178.961	0.195	357922	keystroke_c	c	n/a
179.096	0.18	358192	keystroke_e	e	n/a
179.936	0.15	359872	keystroke_Key.backspace	Key.backspace	n/a
180.1905	0.33	360381	keystroke_Key.backspace	Key.backspace	n/a
180.7905	0.18	361581	keystroke_Key.backspace	Key.backspace	n/a
181.1505	0.24	362301	keystroke_Key.backspace	Key.backspace	n/a
184.0475	0.147	368095	keystroke_c	c	n/a
184.3595	0.255	368719	keystroke_a	a	n/a
184.869	0.3	369738	keystroke_p	p	n/a
185.109	0.24	370218	keystroke_e	e	n/a
185.484	0.195	370968	keystroke_Key.space	Key.space	n/a
186.489	0.18	372978	keystroke_f	f	n/a
186.699	0.345	373398	keystroke_i	i	n/a
186.879	0.21	373758	keystroke_n	n	n/a
187.059	0.225	374118	keystroke_a	a	n/a
187.269	0.12	374538	keystroke_l	l	n/a
187.4935	0.21	374987	keystroke_l	l	n/a
187.9135	0.195	375827	keystroke_y	y	n/a
188.1985	0.225	376397	keystroke_Key.space	Key.space	n/a
188.888	0.24	377776	keystroke_p	p	n/a
189.203	0.21	378406	keystroke_r	r	n/a
190.9125	0.3	381825	keystroke_o	o	n/a
191.1375	0.195	382275	keystroke_u	u	n/a
191.5575	0.15	383115	keystroke_l	l	n/a
192.067	0.18	384134	keystroke_Key.backspace	Key.backspace	n/a
192.307	0.195	384614	keystroke_d	d	n/a
192.697	0.21	385394	keystroke_l	l	n/a
194.1815	0.18	388363	keystroke_y	y	n/a
194.8115	0.15	389623	keystroke_Key.enter	Key.enter	n/a
194.968	20.0765	389936	prompt	n/a	object enhancements pledge assignment\n
200.0475	0.208	400095	keystroke_o	o	n/a
200.4655	0.255	400931	keystroke_b	b	n/a
201.08	0.195	402160	keystroke_j	j	n/a
201.305	0.225	402610	keystroke_e	e	n/a
201.65	0.18	403300	keystroke_c	c	n/a
202.13	0.18	404260	keystroke_t	t	n/a
202.685	0.27	405370	keystroke_Key.space	Key.space	n/a
203.2845	0.18	406569	keystroke_e	e	n/a
203.4945	0.225	406989	keystroke_n	n	n/a
204.2895	0.21	408579	keystroke_h	h	n/a
204.5005	0.2685	409001	keystroke_a	a	n/a
204.8595	0.21	409719	keystroke_n	n	n/a
205.0705	0.164	410141	keystroke_c	c	n/a
205.1895	0.2095	410379	keystroke_e	e	n/a
205.669	0.195	411338	keystroke_m	m	n/a
205.924	0.195	411848	keystroke_e	e	n/a
206.209	0.21	412418	keystroke_n	n	n/a
206.374	0.33	412748	keystroke_t	t	n/a
206.614	0.195	413228	keystroke_s	s	n/a
206.884	0.24	413768	keystroke_Key.space	Key.space	n/a
207.544	0.21	415088	keystroke_p	p	n/a
208.069	0.1645	416138	keystroke_l	l	n/a
208.2035	0.1505	416407	keystroke_e	e	n/a
208.5935	0.27	417187	keystroke_d	d	n/a
209.1485	0.285	418297	keystroke_g	g	n/a
209.4485	0.225	418897	keystroke_e	e	n/a
210.363	0.24	420726	keystroke_Key.space	Key.space	n/a
210.633	0.27	421266	keystroke_a	a	n/a
210.873	0.15	421746	keystroke_s	s	n/a
211.143	0.195	422286	keystroke_s	s	n/a
211.398	0.24	422796	keystroke_i	i	n/a
211.653	0.195	423306	keystroke_g	g	n/a
211.923	0.195	423846	keystroke_n	n	n/a
212.6725	0.21	425345	keystroke_m	m	n/a
212.9125	0.165	425825	keystroke_e	e	n/a
213.1825	0.195	426365	keystroke_n	n	n/a
213.6325	0.225	427265	keystroke_t	t	n/a
214.862	0.1795	429724	keystroke_Key.enter	Key.enter	n/a
215.0495	17.6615	430099	prompt	n/a	victims of zones saddam\n
216.9765	0.1945	433953	keystroke_v	v	n/a
217.561	0.255	435122	keystroke_i	i	n/a
217.861	0.135	435722	keystroke_c	c	n/a
218.897	0.059	437794	keystroke_w	w	n/a
218.911	0.21	437822	keystroke_t	t	n/a
219.136	0.27	438272	keystroke_i	i	n/a
219.691	0.1345	439382	keystroke_Key.backspace	Key.backspace	n/a
219.9305	0.195	439861	keystroke_Key.backspace	Key.backspace	n/a
220.2755	0.15	440551	keystroke_Key.backspace	Key.backspace	n/a
220.8455	0.18	441691	keystroke_t	t	n/a
220.9955	0.36	441991	keystroke_i	i	n/a
221.2205	0.225	442441	keystroke_m	m	n/a
221.4155	0.165	442831	keystroke_s	s	n/a
221.7455	0.195	443491	keystroke_Key.space	Key.space	n/a
222.0755	0.24	444151	keystroke_o	o	n/a
222.3305	0.21	444661	keystroke_f	f	n/a
222.5555	0.24	445111	keystroke_Key.space	Key.space	n/a
222.8105	0.195	445621	keystroke_z	z	n/a
222.9905	0.315	445981	keystroke_o	o	n/a
223.1855	0.225	446371	keystroke_n	n	n/a
223.4855	0.2395	446971	keystroke_r	r	n/a
224.64	0.18	449280	keystroke_Key.backspace	Key.backspace	n/a
225.196	0.2395	450392	keystroke_e	e	n/a
225.345	0.1645	450690	keystroke_s	s	n/a
225.9895	0.18	451979	keystroke_Key.space	Key.space	n/a
226.3795	0.225	452759	keystroke_s	s	n/a
226.8595	0.225	453719	keystroke_a	a	n/a
227.3845	0.18	454769	keystroke_d	d	n/a
227.6995	0.24	455399	keystroke_d	d	n/a
228.24	0.1945	456480	keystroke_a	a	n/a
228.2845	0.135	456569	keystroke_l	l	n/a
229.1845	0.15	458369	keystroke_Key.backspace	Key.backspace	n/a
231.269	0.135	462538	keystroke_m	m	n/a
232.514	0.195	465028	keystroke_Key.enter	Key.enter	n/a
232.717	14.6375	465434	prompt	n/a	proceeds frankfurt mats paste\n
237.805	0.1905	475610	keystroke_p	p	n/a
237.9655	0.1795	475931	keystroke_r	r	n/a
238.115	0.3595	476230	keystroke_o	o	n/a
238.5055	0.2245	477011	keystroke_c	c	n/a
238.745	0.1795	477490	keystroke_e	e	n/a
239.119	0.135	478238	keystroke_e	e	n/a
239.537	0.2405	479074	keystroke_d	d	n/a
239.763	0.1345	479526	keystroke_s	s	n/a
240.241	0.2245	480482	keystroke_Key.space	Key.space	n/a
240.616	0.1635	481232	keystroke_f	f	n/a
240.975	0.2395	481950	keystroke_r	r	n/a
241.1395	0.2095	482279	keystroke_a	a	n/a
241.319	0.2995	482638	keystroke_n	n	n/a
241.6935	0.374	483387	keystroke_k	k	n/a
242.2315	0.1805	484463	keystroke_f	f	n/a
242.5315	0.2545	485063	keystroke_u	u	n/a
243.1455	0.1795	486291	keystroke_r	r	n/a
243.5485	0.1955	487097	keystroke_t	t	n/a
243.6685	0.299	487337	keystroke_Key.space	Key.space	n/a
244.4175	0.21	488835	keystroke_m	m	n/a
244.5825	0.254	489165	keystroke_a	a	n/a
244.8515	0.3295	489703	keystroke_t	t	n/a
245.106	0.165	490212	keystroke_s	s	n/a
245.255	0.2555	490510	keystroke_Key.space	Key.space	n/a
245.704	0.2405	491408	keystroke_p	p	n/a
245.9145	0.2095	491829	keystroke_a	a	n/a
246.079	0.195	492158	keystroke_s	s	n/a
246.5135	0.2395	493027	keystroke_t	t	n/a
246.738	0.1795	493476	keystroke_e	e	n/a
247.157	0.195	494314	keystroke_Key.enter	Key.enter	n/a
247.3605	19.1615	494721	prompt	n/a	incorporated foreign constitute it'd\n
248.2205	0.33	496441	keystroke_i	i	n/a
248.3855	0.21	496771	keystroke_n	n	n/a
248.655	0.2255	497310	keystroke_c	c	n/a
248.8205	0.389	497641	keystroke_o	o	n/a
249.84	0.165	499680	keystroke_r	r	n/a
250.1245	0.3305	500249	keystroke_p	p	n/a
250.44	0.2845	500880	keystroke_o	o	n/a
250.6495	0.2255	501299	keystroke_r	r	n/a
250.89	0.2395	501780	keystroke_a	a	n/a
251.0995	0.1795	502199	keystroke_t	t	n/a
251.729	0.2705	503458	keystroke_a	a	n/a
252.0295	0.255	504059	keystroke_t	t	n/a
252.2545	0.1955	504509	keystroke_e	e	n/a
252.6145	0.2255	505229	keystroke_d	d	n/a
252.899	0.2855	505798	keystroke_Key.space	Key.space	n/a
253.274	0.2105	506548	keystroke_f	f	n/a
254.1145	0.134	508229	keystroke_Key.backspace	Key.backspace	n/a
254.37	0.2845	508740	keystroke_Key.backspace	Key.backspace	n/a
254.7745	0.1205	509549	keystroke_Key.backspace	Key.backspace	n/a
255.2245	0.1205	510449	keystroke_Key.backspace	Key.backspace	n/a
255.45	0.36	510900	keystroke_Key.backspace	Key.backspace	n/a
255.915	0.1645	511830	keystroke_Key.backspace	Key.backspace	n/a
256.7245	0.1955	513449	keystroke_e	e	n/a
257.1445	0.1955	514289	keystroke_d	d	n/a
257.55	0.2245	515100	keystroke_Key.space	Key.space	n/a
258.135	0.21	516270	keystroke_f	f	n/a
258.346	0.4485	516692	keystroke_o	o	n/a
258.5845	0.2405	517169	keystroke_r	r	n/a
258.7495	0.2405	517499	keystroke_e	e	n/a
259.1395	0.2855	518279	keystroke_i	i	n/a
259.62	0.1645	519240	keystroke_g	g	n/a
260.055	0.2095	520110	keystroke_n	n	n/a
260.535	0.2245	521070	keystroke_Key.space	Key.space	n/a
260.94	0.2695	521880	keystroke_c	c	n/a
261.165	0.3	522330	keystroke_o	o	n/a
261.3595	0.1955	522719	keystroke_n	n	n/a
261.54	0.2395	523080	keystroke_s	s	n/a
261.8095	0.1805	523619	keystroke_t	t	n/a
262.11	0.2095	524220	keystroke_i	i	n/a
262.3645	0.1805	524729	keystroke_t	t	n/a
262.695	0.24	525390	keystroke_u	u	n/a
262.95	0.24	525900	keystroke_t	t	n/a
263.145	0.2095	526290	keystroke_e	e	n/a
263.3995	0.2105	526799	keystroke_Key.space	Key.space	n/a
263.8795	0.3005	527759	keystroke_i	i	n/a
264.18	0.2095	528360	keystroke_t	t	n/a
264.585	0.2395	529170	keystroke_'	'	n/a
264.93	0.2995	529860	keystroke_l	l	n/a
265.575	0.1795	531150	keystroke_Key.backspace	Key.backspace	n/a
265.89	0.165	531780	keystroke_d	d	n/a
266.355	0.165	532710	keystroke_Key.enter	Key.enter	n/a
266.5275	17.8145	533055	prompt	n/a	thats mario antiques religious\n
268.1095	0.2555	536219	keystroke_t	t	n/a
268.2295	0.2405	536459	keystroke_h	h	n/a
268.455	0.2695	536910	keystroke_a	a	n/a
268.65	0.3	537300	keystroke_t	t	n/a
269.2645	0.1805	538529	keystroke_'	'	n/a
270.045	0.1945	540090	keystroke_s	s	n/a
270.48	0.2095	540960	keystroke_Key.space	Key.space	n/a
270.975	0.2245	541950	keystroke_s	s	n/a
271.2595	0.1505	542519	keystroke_m	m	n/a
271.86	0.1795	543720	keystroke_Key.backspace	Key.backspace	n/a
272.1745	0.1355	544349	keystroke_Key.backspace	Key.backspace	n/a
272.445	0.1495	544890	keystroke_Key.backspace	Key.backspace	n/a
272.7145	0.0905	545429	keystroke_Key.backspace	Key.backspace	n/a
272.9545	0.09	545909	keystroke_Key.backspace	Key.backspace	n/a
273.2095	0.21	546419	keystroke_s	s	n/a
273.825	0.2245	547650	keystroke_Key.space	Key.space	n/a
274.7695	0.21	549539	keystroke_m	m	n/a
274.9945	0.3755	549989	keystroke_a	a	n/a
275.325	0.195	550650	keystroke_r	r	n/a
275.6245	0.3	551249	keystroke_i	i	n/a
275.88	0.2545	551760	keystroke_o	o	n/a
276.1645	0.3	552329	keystroke_Key.space	Key.space	n/a
276.6595	0.24	553319	keystroke_a	a	n/a
276.9145	0.285	553829	keystroke_n	n	n/a
277.335	0.2545	554670	keystroke_i	i	n/a
278.6995	0.1655	557399	keystroke_Key.backspace	Key.backspace	n/a
278.851	0.119	557702	keystroke_q	q	n/a
279.345	0.165	558690	keystroke_Key.backspace	Key.backspace	n/a
279.555	0.18	559110	keystroke_t	t	n/a
280.0795	0.2255	560159	keystroke_i	i	n/a
280.35	0.2245	560700	keystroke_q	q	n/a
280.77	0.2095	561540	keystroke_u	u	n/a
280.9345	0.285	561869	keystroke_e	e	n/a
281.1595	0.1805	562319	keystroke_s	s	n/a
281.445	0.27	562890	keystroke_Key.space	Key.space	n/a
282.015	0.1645	564030	keystroke_r	r	n/a
282.1195	0.1955	564239	keystroke_e	e	n/a
282.24	0.24	564480	keystroke_l	l	n/a
282.405	0.2545	564810	keystroke_i	i	n/a
282.735	0.1645	565470	keystroke_g	g	n/a
282.9445	0.2105	565889	keystroke_i	i	n/a
283.17	0.3	566340	keystroke_o	o	n/a
283.395	0.2245	566790	keystroke_u	u	n/a
283.6045	0.2255	567209	keystroke_s	s	n/a
284.1445	0.1955	568289	keystroke_Key.enter	Key.enter	n/a
284.349	14.258	568698	prompt	n/a	upgrading who're relief theater\n
285.495	0.196	570990	keystroke_u	u	n/a
285.765	0.2855	571530	keystroke_p	p	n/a
286.305	0.151	572610	keystroke_g	g	n/a
286.606	0.224	573212	keystroke_r	r	n/a
286.845	0.2995	573690	keystroke_a	a	n/a
288.3305	0.209	576661	keystroke_d	d	n/a
288.78	0.375	577560	keystroke_i	i	n/a
289.0045	0.1655	578009	keystroke_n	n	n/a
289.3495	0.165	578699	keystroke_g	g	n/a
289.755	0.255	579510	keystroke_Key.space	Key.space	n/a
290.04	0.1495	580080	keystroke_w	w	n/a
290.31	0.2245	580620	keystroke_h	h	n/a
290.4595	0.2405	580919	keystroke_o	o	n/a
290.82	0.2545	581640	keystroke_'	'	n/a
291.0595	0.2715	582119	keystroke_r	r	n/a
291.255	0.1645	582510	keystroke_e	e	n/a
291.5095	0.2705	583019	keystroke_Key.space	Key.space	n/a
291.945	0.225	583890	keystroke_r	r	n/a
292.11	0.1955	584220	keystroke_e	e	n/a
292.665	0.42	585330	keystroke_l	l	n/a
292.8455	0.2545	585691	keystroke_i	i	n/a
293.07	0.225	586140	keystroke_e	e	n/a
293.34	0.24	586680	keystroke_f	f	n/a
293.8655	0.1795	587731	keystroke_t	t	n/a
294.075	0.2255	588150	keystroke_Key.space	Key.space	n/a
294.99	0.15	589980	keystroke_Key.backspace	Key.backspace	n/a
295.2455	0.135	590491	keystroke_Key.backspace	Key.backspace	n/a
295.605	0.2405	591210	keystroke_Key.space	Key.space	n/a
296.0555	0.24	592111	keystroke_t	t	n/a
296.3105	0.255	592621	keystroke_h	h	n/a
296.4605	0.225	592921	keystroke_e	e	n/a
297.0605	0.3	594121	keystroke_a	a	n/a
297.4955	0.18	594991	keystroke_t	t	n/a
297.7655	0.24	595531	keystroke_e	e	n/a
297.9605	0.1345	595921	keystroke_r	r	n/a
298.395	0.2095	596790	keystroke_Key.enter	Key.enter	n/a
298.6115	11.876	597223	prompt	n/a	timer compound fence persian\n
299.9855	0.165	599971	keystroke_t	t	n/a
300.0755	0.3745	600151	keystroke_i	i	n/a
300.271	0.24	600542	keystroke_m	m	n/a
300.526	0.21	601052	keystroke_e	e	n/a
300.691	0.18	601382	keystroke_r	r	n/a
300.915	0.315	601830	keystroke_Key.space	Key.space	n/a
301.29	0.21	602580	keystroke_c	c	n/a
301.441	0.345	602882	keystroke_o	o	n/a
301.62	0.196	603240	keystroke_m	m	n/a
302.056	0.24	604112	keystroke_p	p	n/a
302.385	0.331	604770	keystroke_o	o	n/a
302.971	0.1795	605942	keystroke_u	u	n/a
303.525	0.286	607050	keystroke_n	n	n/a
303.826	0.195	607652	keystroke_d	d	n/a
304.14	0.2695	608280	keystroke_Key.space	Key.space	n/a
304.3805	0.24	608761	keystroke_f	f	n/a
304.5905	0.1805	609181	keystroke_e	e	n/a
304.801	0.2685	609602	keystroke_n	n	n/a
305.0555	0.2545	610111	keystroke_c	c	n/a
305.2505	0.1505	610501	keystroke_e	e	n/a
305.415	0.2995	610830	keystroke_Key.space	Key.space	n/a
305.7595	0.1215	611519	keystroke_Key.space	Key.space	n/a
305.956	0.2545	611912	keystroke_p	p	n/a
306.0595	0.271	612119	keystroke_e	e	n/a
306.2855	0.27	612571	keystroke_r	r	n/a
306.841	0.044	613682	keystroke_s	s	n/a
307.426	0.195	614852	keystroke_i	i	n/a
307.546	0.3	615092	keystroke_o	o	n/a
307.7395	0.2565	615479	keystroke_n	n	n/a
308.7895	0.016	617579	keystroke_Key.backspace	Key.backspace	n/a
308.8505	0.15	617701	keystroke_Key.backspace	Key.backspace	n/a
309.3145	0.256	618629	keystroke_a	a	n/a
309.5855	0.2105	619171	keystroke_n	n	n/a
310.2905	0.1955	620581	keystroke_Key.enter	Key.enter	n/a
310.495	12.0825	620990	prompt	n/a	documents diving ease socks\n
311.476	0.165	622952	keystroke_d	d	n/a
311.671	0.33	623342	keystroke_o	o	n/a
311.926	0.18	623852	keystroke_c	c	n/a
312.226	0.18	624452	keystroke_u	u	n/a
312.976	0.18	625952	keystroke_m	m	n/a
313.321	0.21	626642	keystroke_e	e	n/a
313.576	0.225	627152	keystroke_n	n	n/a
313.816	0.3	627632	keystroke_t	t	n/a
314.056	0.2095	628112	keystroke_s	s	n/a
314.4305	0.24	628861	keystroke_Key.space	Key.space	n/a
314.6855	0.15	629371	keystroke_d	d	n/a
314.956	0.224	629912	keystroke_i	i	n/a
315.195	0.1805	630390	keystroke_v	v	n/a
315.4055	0.3905	630811	keystroke_i	i	n/a
315.6305	0.27	631261	keystroke_n	n	n/a
315.7355	0.18	631471	keystroke_g	g	n/a
315.84	0.0455	631680	keystroke_i	i	n/a
315.9755	0.195	631951	keystroke_Key.space	Key.space	n/a
316.1855	0.36	632371	keystroke_e	e	n/a
316.5305	0.255	633061	keystroke_a	a	n/a
316.7555	0.285	633511	keystroke_s	s	n/a
316.9805	0.1955	633961	keystroke_e	e	n/a
317.43	0.12	634860	keystroke_Key.backspace	Key.backspace	n/a
317.655	0.075	635310	keystroke_Key.backspace	Key.backspace	n/a
317.85	0.075	635700	keystroke_Key.backspace	Key.backspace	n/a
318.03	0.075	636060	keystroke_Key.backspace	Key.backspace	n/a
318.24	0.12	636480	keystroke_Key.backspace	Key.backspace	n/a
318.555	0.18	637110	keystroke_Key.backspace	Key.backspace	n/a
319.1855	0.24	638371	keystroke_Key.space	Key.space	n/a
319.5455	0.27	639091	keystroke_e	e	n/a
319.8005	0.27	639601	keystroke_a	a	n/a
320.0255	0.24	640051	keystroke_s	s	n/a
320.2055	0.18	640411	keystroke_e	e	n/a
320.4605	0.315	640921	keystroke_Key.space	Key.space	n/a
320.7155	0.195	641431	keystroke_s	s	n/a
321.0305	0.2695	642061	keystroke_o	o	n/a
321.2405	0.196	642481	keystroke_c	c	n/a
321.6455	0.21	643291	keystroke_k	k	n/a
321.8855	0.18	643771	keystroke_s	s	n/a
322.38	0.195	644760	keystroke_Key.enter	Key.enter	n/a
322.5835	13.75	645167	prompt	n/a	oval starting terms realistic\n
327.949	0.236	655898	keystroke_o	o	n/a
328.155	0.271	656310	keystroke_v	v	n/a
328.471	0.239	656942	keystroke_a	a	n/a
328.8765	0.24	657753	keystroke_l	l	n/a
329.4015	0.254	658803	keystroke_Key.space	Key.space	n/a
329.6715	0.255	659343	keystroke_s	s	n/a
329.9715	0.24	659943	keystroke_t	t	n/a
330.2405	0.256	660481	keystroke_a	a	n/a
330.4655	0.1955	660931	keystroke_r	r	n/a
330.8865	0.1945	661773	keystroke_t	t	n/a
331.351	0.2705	662702	keystroke_n	n	n/a
331.5465	0.135	663093	keystroke_g	g	n/a
331.7855	0.225	663571	keystroke_Key.space	Key.space	n/a
331.9955	0.226	663991	keystroke_t	t	n/a
332.1905	0.241	664381	keystroke_e	e	n/a
332.3565	0.195	664713	keystroke_r	r	n/a
332.5965	0.225	665193	keystroke_m	m	n/a
332.8515	0.21	665703	keystroke_s	s	n/a
333.1515	0.21	666303	keystroke_Key.space	Key.space	n/a
333.5415	0.24	667083	keystroke_r	r	n/a
333.6615	0.24	667323	keystroke_e	e	n/a
334.0215	0.24	668043	keystroke_a	a	n/a
334.2165	0.344	668433	keystroke_l	l	n/a
334.4715	0.315	668943	keystroke_i	i	n/a
334.8015	0.225	669603	keystroke_s	s	n/a
335.2505	0.196	670501	keystroke_t	t	n/a
335.4605	0.2555	670921	keystroke_i	i	n/a
335.776	0.18	671552	keystroke_c	c	n/a
336.136	0.195	672272	keystroke_Key.enter	Key.enter	n/a
336.3395	14.5885	672679	prompt	n/a	delaware motherboard greatly cannon\n
337.0655	0.18	674131	keystroke_d	d	n/a
337.501	0.42	675002	keystroke_l	l	n/a
337.771	0.195	675542	keystroke_e	e	n/a
338.266	0.1195	676532	keystroke_Key.backspace	Key.backspace	n/a
338.4905	0.105	676981	keystroke_Key.backspace	Key.backspace	n/a
338.896	0.1645	677792	keystroke_e	e	n/a
339.2105	0.315	678421	keystroke_l	l	n/a
339.6155	0.225	679231	keystroke_a	a	n/a
340.051	0.21	680102	keystroke_w	w	n/a
340.276	0.24	680552	keystroke_a	a	n/a
340.606	0.21	681212	keystroke_r	r	n/a
340.771	0.195	681542	keystroke_e	e	n/a
341.116	0.18	682232	keystroke_Key.space	Key.space	n/a
342.226	0.21	684452	keystroke_m	m	n/a
342.496	0.33	684992	keystroke_o	o	n/a
342.871	0.21	685742	keystroke_t	t	n/a
343.126	0.285	686252	keystroke_h	h	n/a
343.321	0.195	686642	keystroke_e	e	n/a
343.471	0.165	686942	keystroke_r	r	n/a
344.311	0.225	688622	keystroke_b	b	n/a
344.551	0.39	689102	keystroke_o	o	n/a
344.791	0.24	689582	keystroke_a	a	n/a
345.001	0.18	690002	keystroke_r	r	n/a
345.436	0.195	690872	keystroke_d	d	n/a
345.841	0.18	691682	keystroke_Key.space	Key.space	n/a
346.426	0.226	692852	keystroke_g	g	n/a
346.906	0.286	693812	keystroke_r	r	n/a
347.101	0.225	694202	keystroke_e	e	n/a
347.281	0.255	694562	keystroke_a	a	n/a
347.672	0.194	695344	keystroke_t	t	n/a
347.971	0.24	695942	keystroke_l	l	n/a
348.451	0.1805	696902	keystroke_y	y	n/a
348.7355	0.18	697471	keystroke_Key.space	Key.space	n/a
348.9615	0.24	697923	keystroke_c	c	n/a
349.2455	0.27	698491	keystroke_a	a	n/a
349.5905	0.165	699181	keystroke_n	n	n/a
349.8605	0.181	699721	keystroke_n	n	n/a
350.1015	0.359	700203	keystroke_o	o	n/a
350.3265	0.179	700653	keystroke_n	n	n/a
350.7155	0.21	701431	keystroke_Key.enter	Key.enter	n/a
350.9325	25.721	701865	prompt	n/a	accountability studio barbara concerned\n
354.7545	0.192	709509	keystroke_a	a	n/a
355.1255	0.21	710251	keystroke_c	c	n/a
355.5615	0.225	711123	keystroke_c	c	n/a
355.8915	0.375	711783	keystroke_o	o	n/a
356.1155	0.196	712231	keystroke_u	u	n/a
356.6865	0.21	713373	keystroke_n	n	n/a
357.1805	0.255	714361	keystroke_t	t	n/a
357.4665	0.21	714933	keystroke_a	a	n/a
357.8265	0.195	715653	keystroke_b	b	n/a
358.0965	0.239	716193	keystroke_i	i	n/a
358.3065	0.269	716613	keystroke_l	l	n/a
358.5165	0.255	717033	keystroke_i	i	n/a
358.8755	0.181	717751	keystroke_t	t	n/a
359.3415	0.194	718683	keystroke_y	y	n/a
359.7465	0.164	719493	keystroke_Key.space	Key.space	n/a
360.4965	0.2255	720993	keystroke_s	s	n/a
360.737	0.225	721474	keystroke_t	t	n/a
361.127	0.225	722254	keystroke_u	u	n/a
361.397	0.21	722794	keystroke_d	d	n/a
361.697	0.255	723394	keystroke_i	i	n/a
361.877	0.195	723754	keystroke_o	o	n/a
362.342	0.225	724684	keystroke_Key.space	Key.space	n/a
363.0015	0.2555	726003	keystroke_b	b	n/a
363.227	0.195	726454	keystroke_a	a	n/a
363.602	0.165	727204	keystroke_r	r	n/a
364.456	0.255	728912	keystroke_b	b	n/a
364.591	0.255	729182	keystroke_a	a	n/a
364.831	0.225	729662	keystroke_r	r	n/a
364.981	0.2705	729962	keystroke_a	a	n/a
365.476	0.1955	730952	keystroke_Key.space	Key.space	n/a
366.2115	0.255	732423	keystroke_c	c	n/a
366.4815	0.3595	732963	keystroke_o	o	n/a
366.766	0.18	733532	keystroke_n	n	n/a
366.961	0.195	733922	keystroke_d	d	n/a
367.276	0.195	734552	keystroke_e	e	n/a
367.456	0.21	734912	keystroke_r	r	n/a
367.921	0.15	735842	keystroke_Key.backspace	Key.backspace	n/a
368.191	0.075	736382	keystroke_Key.backspace	Key.backspace	n/a
368.401	0.075	736802	keystroke_Key.backspace	Key.backspace	n/a
368.611	0.075	737222	keystroke_Key.backspace	Key.backspace	n/a
369.811	0.2255	739622	keystroke_n	n	n/a
370.426	0.255	740852	keystroke_c	c	n/a
370.742	0.179	741484	keystroke_e	e	n/a
370.936	0.21	741872	keystroke_r	r	n/a
371.056	0.21	742112	keystroke_e	e	n/a
371.416	0.21	742832	keystroke_d	d	n/a
372.946	0.18	745892	keystroke_Key.backspace	Key.backspace	n/a
373.291	0.1505	746582	keystroke_Key.backspace	Key.backspace	n/a
375.5215	0.125	751043	keystroke_n	n	n/a
375.5865	0.15	751173	keystroke_e	e	n/a
375.9315	0.18	751863	keystroke_d	d	n/a
376.4565	0.195	752913	keystroke_Key.enter	Key.enter	n/a
376.6595	13.3145	753319	prompt	n/a	lynn separation aviation farm\n
381.2	0.176	762400	keystroke_l	l	n/a
381.556	0.181	763112	keystroke_y	y	n/a
382.081	0.136	764162	keystroke_n	n	n/a
382.352	0.224	764704	keystroke_n	n	n/a
382.996	0.27	765992	keystroke_Key.space	Key.space	n/a
383.417	0.225	766834	keystroke_s	s	n/a
383.612	0.21	767224	keystroke_e	e	n/a
384.302	0.3	768604	keystroke_p	p	n/a
384.482	0.195	768964	keystroke_e	e	n/a
384.617	0.2995	769234	keystroke_r	r	n/a
384.8865	0.3	769773	keystroke_a	a	n/a
385.1715	0.18	770343	keystroke_t	t	n/a
385.4265	0.225	770853	keystroke_i	i	n/a
385.5315	0.285	771063	keystroke_o	o	n/a
385.7115	0.21	771423	keystroke_n	n	n/a
386.4765	0.18	772953	keystroke_Key.space	Key.space	n/a
386.7315	0.255	773463	keystroke_a	a	n/a
387.0315	0.225	774063	keystroke_v	v	n/a
387.2415	0.285	774483	keystroke_i	i	n/a
387.3765	0.21	774753	keystroke_a	a	n/a
387.6315	0.21	775263	keystroke_t	t	n/a
387.8415	0.255	775683	keystroke_i	i	n/a
387.9765	0.27	775953	keystroke_o	o	n/a
388.1415	0.21	776283	keystroke_n	n	n/a
388.4565	0.2105	776913	keystroke_Key.space	Key.space	n/a
388.652	0.24	777304	keystroke_f	f	n/a
388.922	0.2545	777844	keystroke_a	a	n/a
389.1465	0.165	778293	keystroke_r	r	n/a
389.3415	0.195	778683	keystroke_m	m	n/a
389.8065	0.165	779613	keystroke_Key.enter	Key.enter	n/a
389.979	13.9	779958	prompt	n/a	belong specializing addresses continuous\n
390.8265	0.255	781653	keystroke_b	b	n/a
391.0065	0.225	782013	keystroke_e	e	n/a
391.1865	0.18	782373	keystroke_l	l	n/a
391.5015	0.33	783003	keystroke_o	o	n/a
391.6665	0.24	783333	keystroke_n	n	n/a
391.8165	0.21	783633	keystroke_g	g	n/a
392.0275	0.239	784055	keystroke_Key.space	Key.space	n/a
392.2365	0.21	784473	keystroke_s	s	n/a
392.7315	0.225	785463	keystroke_p	p	n/a
392.9715	0.195	785943	keystroke_e	e	n/a
393.7065	0.195	787413	keystroke_c	c	n/a
394.1265	0.255	788253	keystroke_i	i	n/a
394.3665	0.21	788733	keystroke_a	a	n/a
394.6215	0.345	789243	keystroke_l	l	n/a
394.8165	0.18	789633	keystroke_i	i	n/a
395.252	0.27	790504	keystroke_z	z	n/a
395.852	0.36	791704	keystroke_i	i	n/a
396.1215	0.2255	792243	keystroke_n	n	n/a
396.332	0.18	792664	keystroke_g	g	n/a
396.872	0.21	793744	keystroke_Key.space	Key.space	n/a
397.202	0.18	794404	keystroke_a	a	n/a
397.472	0.1795	794944	keystroke_d	d	n/a
397.8765	0.2105	795753	keystroke_d	d	n/a
398.627	0.255	797254	keystroke_r	r	n/a
398.852	0.24	797704	keystroke_e	e	n/a
399.032	0.1645	798064	keystroke_s	s	n/a
399.3615	0.105	798723	keystroke_s	s	n/a
399.4515	0.301	798903	keystroke_e	e	n/a
399.6915	0.18	799383	keystroke_s	s	n/a
400.3065	0.225	800613	keystroke_Key.space	Key.space	n/a
401.0715	0.21	802143	keystroke_c	c	n/a
401.2065	0.48	802413	keystroke_o	o	n/a
401.4015	0.27	802803	keystroke_n	n	n/a
401.8965	0.166	803793	keystroke_t	t	n/a
402.0465	0.2855	804093	keystroke_i	i	n/a
402.197	0.15	804394	keystroke_n	n	n/a
402.678	0.2235	805356	keystroke_u	u	n/a
402.948	0.4195	805896	keystroke_o	o	n/a
403.127	0.2095	806254	keystroke_u	u	n/a
403.3965	0.166	806793	keystroke_s	s	n/a
403.667	0.21	807334	keystroke_Key.enter	Key.enter	n/a
403.883	17.6065	807766	prompt	n/a	intended staffing encouraging awful\n
404.673	0.315	809346	keystroke_i	i	n/a
404.852	0.195	809704	keystroke_n	n	n/a
405.062	0.181	810124	keystroke_t	t	n/a
405.557	0.18	811114	keystroke_e	e	n/a
405.858	0.254	811716	keystroke_n	n	n/a
406.143	0.165	812286	keystroke_d	d	n/a
406.517	0.21	813034	keystroke_e	e	n/a
407.027	0.211	814054	keystroke_d	d	n/a
407.4015	0.1965	814803	keystroke_Key.space	Key.space	n/a
407.8815	0.211	815763	keystroke_s	s	n/a
408.1975	0.255	816395	keystroke_a	a	n/a
408.6025	0.12	817205	keystroke_t	t	n/a
409.2915	0.15	818583	keystroke_Key.backspace	Key.backspace	n/a
409.5615	0.2105	819123	keystroke_Key.backspace	Key.backspace	n/a
409.9065	0.211	819813	keystroke_t	t	n/a
410.3565	0.195	820713	keystroke_a	a	n/a
410.6875	0.149	821375	keystroke_f	f	n/a
410.9875	0.18	821975	keystroke_f	f	n/a
411.302	0.481	822604	keystroke_i	i	n/a
411.543	0.27	823086	keystroke_n	n	n/a
411.873	0.1795	823746	keystroke_g	g	n/a
412.2475	0.3	824495	keystroke_Key.space	Key.space	n/a
412.862	0.21	825724	keystroke_e	e	n/a
413.627	0.24	827254	keystroke_n	n	n/a
414.2425	0.1795	828485	keystroke_c	c	n/a
414.497	0.36	828994	keystroke_o	o	n/a
414.6925	0.2245	829385	keystroke_u	u	n/a
414.962	0.255	829924	keystroke_r	r	n/a
415.412	0.2705	830824	keystroke_a	a	n/a
415.727	0.18	831454	keystroke_g	g	n/a
415.952	0.3605	831904	keystroke_i	i	n/a
416.102	0.225	832204	keystroke_n	n	n/a
416.342	0.225	832684	keystroke_g	g	n/a
416.672	0.27	833344	keystroke_Key.space	Key.space	n/a
417.197	0.24	834394	keystroke_a	a	n/a
417.422	0.24	834844	keystroke_w	w	n/a
418.472	0.165	836944	keystroke_s	s	n/a
419.072	0.21	838144	keystroke_Key.backspace	Key.backspace	n/a
419.267	0.1805	838534	keystroke_w	w	n/a
419.8525	0.165	839705	keystroke_Key.backspace	Key.backspace	n/a
420.0925	0.18	840185	keystroke_f	f	n/a
420.4375	0.285	840875	keystroke_u	u	n/a
420.6625	0.3145	841325	keystroke_l	l	n/a
421.2325	0.2545	842465	keystroke_Key.enter	Key.enter	n/a
421.4945	14.59	842989	prompt	n/a	input channel speaker spectacular\n
422.4175	0.39	844835	keystroke_i	i	n/a
422.5675	0.255	845135	keystroke_n	n	n/a
423.0925	0.285	846185	keystroke_p	p	n/a
423.3625	0.255	846725	keystroke_u	u	n/a
423.7525	0.21	847505	keystroke_t	t	n/a
423.9925	0.3305	847985	keystroke_Key.space	Key.space	n/a
424.4275	0.2105	848855	keystroke_c	c	n/a
424.803	0.2395	849606	keystroke_h	h	n/a
425.0575	0.21	850115	keystroke_a	a	n/a
425.4625	0.165	850925	keystroke_n	n	n/a
425.7325	0.21	851465	keystroke_n	n	n/a
426.122	0.21	852244	keystroke_e	e	n/a
426.392	0.375	852784	keystroke_l	l	n/a
426.752	0.225	853504	keystroke_Key.space	Key.space	n/a
428.537	0.18	857074	keystroke_s	s	n/a
429.002	0.3	858004	keystroke_p	p	n/a
429.257	0.21	858514	keystroke_e	e	n/a
429.482	0.21	858964	keystroke_a	a	n/a
429.827	0.33	859654	keystroke_k	k	n/a
430.112	0.24	860224	keystroke_e	e	n/a
430.322	0.1655	860644	keystroke_r	r	n/a
430.562	0.405	861124	keystroke_Key.space	Key.space	n/a
430.908	0.239	861816	keystroke_s	s	n/a
431.282	0.285	862564	keystroke_p	p	n/a
431.417	0.151	862834	keystroke_e	e	n/a
431.807	0.195	863614	keystroke_c	c	n/a
432.527	0.135	865054	keystroke_g	g	n/a
433.457	0.165	866914	keystroke_Key.backspace	Key.backspace	n/a
433.982	0.24	867964	keystroke_t	t	n/a
434.238	0.239	868476	keystroke_a	a	n/a
434.7025	0.136	869405	keystroke_c	c	n/a
435.0325	0.24	870065	keystroke_u	u	n/a
435.1975	0.285	870395	keystroke_l	l	n/a
435.2875	0.2395	870575	keystroke_a	a	n/a
435.512	0.12	871024	keystroke_r	r	n/a
435.8575	0.2245	871715	keystroke_Key.enter	Key.enter	n/a
436.089	9.072	872178	prompt	n/a	dear feof ranks seek\n
437.073	0.149	874146	keystroke_d	d	n/a
437.373	0.224	874746	keystroke_e	e	n/a
437.612	0.211	875224	keystroke_a	a	n/a
437.808	0.18	875616	keystroke_r	r	n/a
438.032	0.255	876064	keystroke_Key.space	Key.space	n/a
438.632	0.211	877264	keystroke_f	f	n/a
439.202	0.195	878404	keystroke_e	e	n/a
439.758	0.255	879516	keystroke_o	o	n/a
440.028	0.2405	880056	keystroke_f	f	n/a
440.4325	0.2245	880865	keystroke_Key.space	Key.space	n/a
441.438	0.3	882876	keystroke_r	r	n/a
441.738	0.21	883476	keystroke_a	a	n/a
442.097	0.3455	884194	keystroke_n	n	n/a
442.3825	0.241	884765	keystroke_k	k	n/a
442.563	0.1805	885126	keystroke_s	s	n/a
442.9225	0.1955	885845	keystroke_Key.space	Key.space	n/a
443.147	0.2255	886294	keystroke_s	s	n/a
443.327	0.405	886654	keystroke_e	e	n/a
444.078	0.1955	888156	keystroke_e	e	n/a
444.3785	0.2385	888757	keystroke_k	k	n/a
444.947	0.2115	889894	keystroke_Key.enter	Key.enter	n/a
445.167	17.228	890334	prompt	n/a	stock mitsubishi font separate\n
446.1485	0.255	892297	keystroke_s	s	n/a
446.3885	0.15	892777	keystroke_t	t	n/a
446.583	0.284	893166	keystroke_o	o	n/a
446.8535	0.195	893707	keystroke_c	c	n/a
447.183	0.344	894366	keystroke_k	k	n/a
447.767	0.196	895534	keystroke_Key.space	Key.space	n/a
448.4285	0.2385	896857	keystroke_m	m	n/a
448.833	0.2395	897666	keystroke_i	i	n/a
449.238	0.21	898476	keystroke_t	t	n/a
450.0485	0.18	900097	keystroke_b	b	n/a
450.5585	0.195	901117	keystroke_u	u	n/a
452.0585	0.194	904117	keystroke_Key.backspace	Key.backspace	n/a
452.3735	0.195	904747	keystroke_s	s	n/a
452.3875	0.166	904775	keystroke_Key.backspace	Key.backspace	n/a
452.8235	0.195	905647	keystroke_Key.backspace	Key.backspace	n/a
453.6935	0.225	907387	keystroke_s	s	n/a
454.7285	0.21	909457	keystroke_u	u	n/a
455.6135	0.195	911227	keystroke_b	b	n/a
456.0635	0.255	912127	keystroke_i	i	n/a
456.4685	0.165	912937	keystroke_s	s	n/a
456.7385	0.2695	913477	keystroke_h	h	n/a
456.8885	0.285	913777	keystroke_i	i	n/a
457.428	0.21	914856	keystroke_Key.space	Key.space	n/a
457.623	0.1955	915246	keystroke_f	f	n/a
458.118	0.3605	916236	keystroke_o	o	n/a
458.223	0.0905	916446	keystroke_n	n	n/a
458.6885	0.21	917377	keystroke_t	t	n/a
459.0035	0.21	918007	keystroke_Key.space	Key.space	n/a
459.5285	0.24	919057	keystroke_s	s	n/a
459.7835	0.195	919567	keystroke_e	e	n/a
460.2035	0.345	920407	keystroke_p	p	n/a
460.8335	0.36	921667	keystroke_e	e	n/a
461.1485	0.3	922297	keystroke_r	r	n/a
461.4335	0.285	922867	keystroke_a	a	n/a
461.7635	0.21	923527	keystroke_t	t	n/a
461.9285	0.165	923857	keystroke_e	e	n/a
462.1835	0.21	924367	keystroke_Key.enter	Key.enter	n/a
462.4025	14.063	924805	prompt	n/a	preston function corporation anything\n
463.4435	0.285	926887	keystroke_p	p	n/a
463.6235	0.24	927247	keystroke_r	r	n/a
463.7435	0.285	927487	keystroke_e	e	n/a
463.9985	0.1795	927997	keystroke_s	s	n/a
464.343	0.18	928686	keystroke_o	o	n/a
464.823	0.15	929646	keystroke_Key.backspace	Key.backspace	n/a
465.048	0.211	930096	keystroke_t	t	n/a
465.288	0.375	930576	keystroke_o	o	n/a
465.498	0.286	930996	keystroke_n	n	n/a
465.768	0.18	931536	keystroke_Key.space	Key.space	n/a
465.888	0.1805	931776	keystroke_f	f	n/a
466.1435	0.195	932287	keystroke_u	u	n/a
466.6835	0.21	933367	keystroke_n	n	n/a
467.0585	0.24	934117	keystroke_c	c	n/a
467.4485	0.09	934897	keystroke_w	w	n/a
467.5535	0.24	935107	keystroke_t	t	n/a
468.2735	0.12	936547	keystroke_Key.backspace	Key.backspace	n/a
468.5435	0.195	937087	keystroke_Key.backspace	Key.backspace	n/a
468.9335	0.225	937867	keystroke_t	t	n/a
469.2185	0.255	938437	keystroke_i	i	n/a
469.4135	0.315	938827	keystroke_o	o	n/a
469.5935	0.255	939187	keystroke_n	n	n/a
470.2085	0.195	940417	keystroke_Key.space	Key.space	n/a
470.6735	0.21	941347	keystroke_c	c	n/a
471.1235	0.315	942247	keystroke_o	o	n/a
471.4985	0.225	942997	keystroke_r	r	n/a
471.9635	0.39	943927	keystroke_p	p	n/a
472.1585	0.24	944317	keystroke_o	o	n/a
472.2635	0.3	944527	keystroke_r	r	n/a
472.5485	0.24	945097	keystroke_a	a	n/a
472.8035	0.18	945607	keystroke_t	t	n/a
473.0135	0.165	946027	keystroke_i	i	n/a
473.1485	0.3	946297	keystroke_o	o	n/a
473.3135	0.255	946627	keystroke_n	n	n/a
473.5985	0.195	947197	keystroke_Key.space	Key.space	n/a
473.8085	0.24	947617	keystroke_a	a	n/a
474.0335	0.165	948067	keystroke_n	n	n/a
474.4835	0.195	948967	keystroke_y	y	n/a
474.9485	0.195	949897	keystroke_t	t	n/a
475.1585	0.285	950317	keystroke_h	h	n/a
475.4585	0.421	950917	keystroke_i	i	n/a
475.6985	0.165	951397	keystroke_n	n	n/a
475.8935	0.165	951787	keystroke_g	g	n/a
476.2385	0.225	952477	keystroke_Key.enter	Key.enter	n/a
476.4715	39.2645	952943	prompt	n/a	extension multiple bedding located\n
477.3335	0.165	954667	keystroke_e	e	n/a
477.7685	0.21	955537	keystroke_x	x	n/a
478.6085	0.21	957217	keystroke_t	t	n/a
478.8785	0.225	957757	keystroke_e	e	n/a
479.4185	0.24	958837	keystroke_n	n	n/a
479.7935	0.24	959587	keystroke_a	a	n/a
480.1385	0.165	960277	keystroke_i	i	n/a
480.2585	0.36	960517	keystroke_o	o	n/a
480.4685	0.165	960937	keystroke_n	n	n/a
481.173	0.136	962346	keystroke_Key.backspace	Key.backspace	n/a
481.413	0.121	962826	keystroke_Key.backspace	Key.backspace	n/a
481.654	0.134	963308	keystroke_Key.backspace	Key.backspace	n/a
482.2375	0.166	964475	keystroke_Key.backspace	Key.backspace	n/a
482.4335	0.2405	964867	keystroke_s	s	n/a
484.489	0.15	968978	keystroke_i	i	n/a
484.609	0.3	969218	keystroke_o	o	n/a
484.759	0.21	969518	keystroke_n	n	n/a
485.239	0.195	970478	keystroke_Key.space	Key.space	n/a
485.749	0.21	971498	keystroke_m	m	n/a
486.154	0.21	972308	keystroke_u	u	n/a
486.304	0.21	972608	keystroke_l	l	n/a
486.829	0.225	973658	keystroke_p	p	n/a
487.114	0.24	974228	keystroke_t	t	n/a
487.339	0.255	974678	keystroke_i	i	n/a
487.504	0.225	975008	keystroke_l	l	n/a
488.089	0.135	976178	keystroke_Key.backspace	Key.backspace	n/a
488.329	0.12	976658	keystroke_Key.backspace	Key.backspace	n/a
488.554	0.12	977108	keystroke_Key.backspace	Key.backspace	n/a
488.824	0.105	977648	keystroke_Key.backspace	Key.backspace	n/a
489.484	0.135	978968	keystroke_u	u	n/a
490.129	0.075	980258	keystroke_i	i	n/a
490.564	0.12	981128	keystroke_Key.backspace	Key.backspace	n/a
490.804	0.105	981608	keystroke_Key.backspace	Key.backspace	n/a
492.379	0.24	984758	keystroke_i	i	n/a
493.174	0.21	986348	keystroke_p	p	n/a
493.549	0.27	987098	keystroke_l	l	n/a
493.744	0.225	987488	keystroke_e	e	n/a
494.344	0.135	988688	keystroke_=	=	n/a
494.614	0.105	989228	keystroke_=	=	n/a
494.809	0.09	989618	keystroke_=	=	n/a
495.064	0.225	990128	keystroke_Key.backspace	Key.backspace	n/a
496.339	0.12	992678	keystroke_Key.backspace	Key.backspace	n/a
496.579	0.15	993158	keystroke_Key.backspace	Key.backspace	n/a
496.894	0.165	993788	keystroke_Key.backspace	Key.backspace	n/a
497.209	0.15	994418	keystroke_Key.backspace	Key.backspace	n/a
497.509	0.165	995018	keystroke_Key.backspace	Key.backspace	n/a
497.914	0.105	995828	keystroke_Key.backspace	Key.backspace	n/a
500.167	0.087	1000334	keystroke_t	t	n/a
500.389	0.24	1000778	keystroke_i	i	n/a
501.589	0.105	1003178	keystroke_s	s	n/a
503.014	0.15	1006028	keystroke_Key.backspace	Key.backspace	n/a
504.364	0.135	1008728	keystroke_p	p	n/a
504.829	0.195	1009658	keystroke_l	l	n/a
505.129	0.15	1010258	keystroke_w	w	n/a
506.479	0.165	1012958	keystroke_Key.backspace	Key.backspace	n/a
506.584	0.195	1013168	keystroke_e	e	n/a
507.514	0.24	1015028	keystroke_Key.space	Key.space	n/a
510.487	0.147	1020974	keystroke_b	b	n/a
510.499	0.21	1020998	keystroke_e	e	n/a
510.859	0.18	1021718	keystroke_d	d	n/a
511.069	0.24	1022138	keystroke_d	d	n/a
511.594	0.406	1023188	keystroke_i	i	n/a
511.834	0.195	1023668	keystroke_n	n	n/a
511.984	0.195	1023968	keystroke_g	g	n/a
512.284	0.225	1024568	keystroke_Key.space	Key.space	n/a
512.584	0.27	1025168	keystroke_l	l	n/a
513.889	0.33	1027778	keystroke_o	o	n/a
514.039	0.27	1028078	keystroke_c	c	n/a
514.294	0.286	1028588	keystroke_a	a	n/a
514.654	0.225	1029308	keystroke_t	t	n/a
514.849	0.18	1029698	keystroke_e	e	n/a
515.149	0.225	1030298	keystroke_d	d	n/a
515.509	0.225	1031018	keystroke_Key.enter	Key.enter	n/a
515.7415	24.88	1031483	prompt	n/a	participate samba overview anderson\n
516.754	0.225	1033508	keystroke_p	p	n/a
516.875	0.314	1033750	keystroke_a	a	n/a
517.159	0.196	1034318	keystroke_r	r	n/a
517.759	0.195	1035518	keystroke_t	t	n/a
518.479	0.165	1036958	keystroke_Key.backspace	Key.backspace	n/a
518.659	0.196	1037318	keystroke_c	c	n/a
519.17	0.224	1038340	keystroke_i	i	n/a
520.175	0.255	1040350	keystroke_p	p	n/a
521.135	0.209	1042270	keystroke_i	i	n/a
521.464	0.165	1042928	keystroke_t	t	n/a
521.78	0.209	1043560	keystroke_a	a	n/a
521.959	0.226	1043918	keystroke_t	t	n/a
522.124	0.195	1044248	keystroke_e	e	n/a
522.574	0.21	1045148	keystroke_Key.space	Key.space	n/a
523.549	0.15	1047098	keystroke_Key.backspace	Key.backspace	n/a
523.8195	0.09	1047639	keystroke_Key.backspace	Key.backspace	n/a
523.9995	0.09	1047999	keystroke_Key.backspace	Key.backspace	n/a
524.2395	0.195	1048479	keystroke_Key.backspace	Key.backspace	n/a
524.6595	0.105	1049319	keystroke_Key.backspace	Key.backspace	n/a
524.9145	0.105	1049829	keystroke_Key.backspace	Key.backspace	n/a
528.2175	0.237	1056435	keystroke_a	a	n/a
528.5145	0.24	1057029	keystroke_t	t	n/a
528.7245	0.18	1057449	keystroke_e	e	n/a
529.2945	0.24	1058589	keystroke_Key.space	Key.space	n/a
529.7745	0.195	1059549	keystroke_s	s	n/a
530.0295	0.225	1060059	keystroke_a	a	n/a
530.3295	0.196	1060659	keystroke_m	m	n/a
530.7645	0.21	1061529	keystroke_b	b	n/a
530.9595	0.15	1061919	keystroke_e	e	n/a
531.2895	0.225	1062579	keystroke_Key.space	Key.space	n/a
531.5745	0.36	1063149	keystroke_o	o	n/a
531.7695	0.225	1063539	keystroke_v	v	n/a
532.0545	0.285	1064109	keystroke_e	e	n/a
532.2945	0.18	1064589	keystroke_r	r	n/a
532.6695	0.12	1065339	keystroke_Key.backspace	Key.backspace	n/a
532.8945	0.105	1065789	keystroke_Key.backspace	Key.backspace	n/a
533.1195	0.09	1066239	keystroke_Key.backspace	Key.backspace	n/a
533.2995	0.105	1066599	keystroke_Key.backspace	Key.backspace	n/a
533.5395	0.165	1067079	keystroke_Key.backspace	Key.backspace	n/a
533.8245	0.12	1067649	keystroke_Key.backspace	Key.backspace	n/a
534.1095	0.225	1068219	keystroke_a	a	n/a
534.5445	0.27	1069089	keystroke_Key.space	Key.space	n/a
535.4595	0.315	1070919	keystroke_o	o	n/a
535.6695	0.21	1071339	keystroke_v	v	n/a
535.9995	0.1955	1071999	keystroke_e	e	n/a
536.15	0.18	1072300	keystroke_r	r	n/a
536.57	0.195	1073140	keystroke_v	v	n/a
536.794	0.316	1073588	keystroke_i	i	n/a
536.989	0.196	1073978	keystroke_e	e	n/a
537.14	0.165	1074280	keystroke_w	w	n/a
537.425	0.255	1074850	keystroke_Key.space	Key.space	n/a
537.77	0.21	1075540	keystroke_a	a	n/a
538.07	0.255	1076140	keystroke_n	n	n/a
538.31	0.15	1076620	keystroke_d	d	n/a
538.61	0.225	1077220	keystroke_e	e	n/a
538.79	0.225	1077580	keystroke_r	r	n/a
539.06	0.195	1078120	keystroke_s	s	n/a
539.375	0.3	1078750	keystroke_o	o	n/a
539.585	0.225	1079170	keystroke_n	n	n/a
540.44	0.18	1080880	keystroke_Key.enter	Key.enter	n/a
540.6265	23.0955	1081253	prompt	n/a	sperm comparative cradle circuit\n
545.169	0.101	1090338	keystroke_s	s	n/a
545.69	0.24	1091380	keystroke_p	p	n/a
546.32	0.195	1092640	keystroke_r	r	n/a
546.44	0.21	1092880	keystroke_e	e	n/a
546.845	0.225	1093690	keystroke_m	m	n/a
547.5795	0.18	1095159	keystroke_Key.backspace	Key.backspace	n/a
548.405	0.15	1096810	keystroke_Key.backspace	Key.backspace	n/a
548.645	0.1945	1097290	keystroke_Key.backspace	Key.backspace	n/a
549.2755	0.209	1098551	keystroke_e	e	n/a
549.4255	0.18	1098851	keystroke_r	r	n/a
550.234	0.15	1100468	keystroke_l	l	n/a
550.264	0.1955	1100528	keystroke_m	m	n/a
550.819	0.165	1101638	keystroke_Key.backspace	Key.backspace	n/a
551.0895	0.165	1102179	keystroke_Key.backspace	Key.backspace	n/a
551.6005	0.21	1103201	keystroke_m	m	n/a
552.1095	0.255	1104219	keystroke_Key.space	Key.space	n/a
552.8595	0.211	1105719	keystroke_c	c	n/a
553.0095	0.435	1106019	keystroke_o	o	n/a
553.1455	0.255	1106291	keystroke_m	m	n/a
553.8495	0.24	1107699	keystroke_p	p	n/a
554.0745	0.345	1108149	keystroke_a	a	n/a
554.4495	0.2095	1108899	keystroke_r	r	n/a
555.125	0.21	1110250	keystroke_a	a	n/a
555.425	0.1645	1110850	keystroke_t	t	n/a
555.755	0.2695	1111510	keystroke_i	i	n/a
555.98	0.2245	1111960	keystroke_v	v	n/a
556.2195	0.165	1112439	keystroke_e	e	n/a
556.4295	0.24	1112859	keystroke_Key.space	Key.space	n/a
557.6145	0.21	1115229	keystroke_c	c	n/a
558.0195	0.24	1116039	keystroke_r	r	n/a
558.2145	0.165	1116429	keystroke_a	a	n/a
558.4995	0.1805	1116999	keystroke_d	d	n/a
558.86	0.24	1117720	keystroke_u	u	n/a
559.415	0.18	1118830	keystroke_Key.backspace	Key.backspace	n/a
559.895	0.255	1119790	keystroke_l	l	n/a
560.105	0.18	1120210	keystroke_e	e	n/a
560.45	0.27	1120900	keystroke_Key.space	Key.space	n/a
560.855	0.21	1121710	keystroke_c	c	n/a
561.035	0.3	1122070	keystroke_i	i	n/a
561.35	0.195	1122700	keystroke_r	r	n/a
561.8455	0.255	1123691	keystroke_c	c	n/a
562.1145	0.226	1124229	keystroke_u	u	n/a
562.8645	0.211	1125729	keystroke_i	i	n/a
563.0605	0.165	1126121	keystroke_t	t	n/a
563.4955	0.225	1126991	keystroke_Key.enter	Key.enter	n/a
563.7265	13.271	1127453	prompt	n/a	sacred purposes donors performing\n
564.3205	0.165	1128641	keystroke_s	s	n/a
564.6205	0.255	1129241	keystroke_a	a	n/a
564.9955	0.21	1129991	keystroke_c	c	n/a
565.5205	0.255	1131041	keystroke_r	r	n/a
565.7005	0.18	1131401	keystroke_e	e	n/a
566.0455	0.24	1132091	keystroke_d	d	n/a
566.3745	0.225	1132749	keystroke_Key.space	Key.space	n/a
566.9305	0.24	1133861	keystroke_p	p	n/a
567.1855	0.255	1134371	keystroke_u	u	n/a
568.2205	0.21	1136441	keystroke_r	r	n/a
568.4605	0.195	1136921	keystroke_p	p	n/a
568.8055	0.24	1137611	keystroke_o	o	n/a
569.1205	0.18	1138241	keystroke_s	s	n/a
569.2705	0.24	1138541	keystroke_e	e	n/a
569.4505	0.179	1138901	keystroke_s	s	n/a
569.8255	0.24	1139651	keystroke_Key.space	Key.space	n/a
570.5755	0.15	1141151	keystroke_d	d	n/a
570.6955	0.255	1141391	keystroke_o	o	n/a
570.8905	0.269	1141781	keystroke_n	n	n/a
571.1155	0.21	1142231	keystroke_o	o	n/a
571.3705	0.225	1142741	keystroke_t	t	n/a
571.5355	0.15	1143071	keystroke_s	s	n/a
571.9105	0.135	1143821	keystroke_Key.backspace	Key.backspace	n/a
572.1355	0.15	1144271	keystroke_Key.backspace	Key.backspace	n/a
572.3605	0.24	1144721	keystroke_r	r	n/a
572.5255	0.18	1145051	keystroke_s	s	n/a
572.9455	0.255	1145891	keystroke_Key.space	Key.space	n/a
573.8905	0.27	1147781	keystroke_p	p	n/a
574.0555	0.195	1148111	keystroke_e	e	n/a
574.2055	0.225	1148411	keystroke_r	r	n/a
574.8655	0.21	1149731	keystroke_f	f	n/a
575.0905	0.3	1150181	keystroke_o	o	n/a
575.3305	0.24	1150661	keystroke_r	r	n/a
575.6305	0.225	1151261	keystroke_m	m	n/a
576.0055	0.345	1152011	keystroke_i	i	n/a
576.1855	0.195	1152371	keystroke_n	n	n/a
576.4705	0.165	1152941	keystroke_g	g	n/a
576.7855	0.21	1153571	keystroke_Key.enter	Key.enter	n/a
577.0035	23.679	1154007	prompt	n/a	vbulletin geometry packaging portrait\n
578.5705	0.24	1157141	keystroke_v	v	n/a
579.4855	0.195	1158971	keystroke_b	b	n/a
579.9805	0.24	1159961	keystroke_u	u	n/a
580.2505	0.18	1160501	keystroke_l	l	n/a
580.5505	0.195	1161101	keystroke_l	l	n/a
580.8805	0.225	1161761	keystroke_e	e	n/a
582.5455	0.195	1165091	keystroke_t	t	n/a
582.8755	0.39	1165751	keystroke_i	i	n/a
583.0855	0.24	1166171	keystroke_n	n	n/a
583.4905	0.225	1166981	keystroke_Key.space	Key.space	n/a
584.1055	0.24	1168211	keystroke_g	g	n/a
584.3155	0.195	1168631	keystroke_e	e	n/a
584.7055	0.315	1169411	keystroke_o	o	n/a
586.0255	0.195	1172051	keystroke_m	m	n/a
586.3405	0.18	1172681	keystroke_e	e	n/a
586.7155	0.15	1173431	keystroke_t	t	n/a
587.0305	0.21	1174061	keystroke_r	r	n/a
587.2255	0.225	1174451	keystroke_y	y	n/a
587.6155	0.27	1175231	keystroke_Key.space	Key.space	n/a
588.1105	0.255	1176221	keystroke_p	p	n/a
588.3355	0.255	1176671	keystroke_a	a	n/a
588.7855	0.195	1177571	keystroke_c	c	n/a
589.0105	0.24	1178021	keystroke_k	k	n/a
589.2515	0.269	1178503	keystroke_a	a	n/a
589.6405	0.18	1179281	keystroke_c	c	n/a
589.8805	0.24	1179761	keystroke_k	k	n/a
590.4955	0.27	1180991	keystroke_i	i	n/a
591.0505	0.12	1182101	keystroke_Key.backspace	Key.backspace	n/a
591.2905	0.12	1182581	keystroke_Key.backspace	Key.backspace	n/a
591.5155	0.105	1183031	keystroke_Key.backspace	Key.backspace	n/a
591.6655	0.15	1183331	keystroke_Key.backspace	Key.backspace	n/a
592.7605	0.225	1185521	keystroke_a	a	n/a
593.3455	0.21	1186691	keystroke_k	k	n/a
593.9455	0.195	1187891	keystroke_Key.backspace	Key.backspace	n/a
594.5755	0.24	1189151	keystroke_g	g	n/a
594.9955	0.36	1189991	keystroke_i	i	n/a
595.3255	0.225	1190651	keystroke_n	n	n/a
595.6105	0.21	1191221	keystroke_g	g	n/a
596.1805	0.27	1192361	keystroke_Key.space	Key.space	n/a
596.9455	0.24	1193891	keystroke_p	p	n/a
597.1105	0.345	1194221	keystroke_o	o	n/a
597.3355	0.195	1194671	keystroke_r	r	n/a
597.7105	0.1955	1195421	keystroke_t	t	n/a
598.026	0.24	1196052	keystroke_r	r	n/a
598.2055	0.2105	1196411	keystroke_a	a	n/a
598.417	0.3585	1196834	keystroke_i	i	n/a
598.626	0.2245	1197252	keystroke_n	n	n/a
598.866	0.105	1197732	keystroke_t	t	n/a
599.211	0.1645	1198422	keystroke_Key.backspace	Key.backspace	n/a
599.4805	0.1805	1198961	keystroke_Key.backspace	Key.backspace	n/a
599.9905	0.1955	1199981	keystroke_t	t	n/a
600.471	0.21	1200942	keystroke_Key.enter	Key.enter	n/a
600.689	9.069	1201378	prompt	n/a	laura trend you'd at\n
602.122	0.2535	1204244	keystroke_l	l	n/a
602.6005	0.2255	1205201	keystroke_u	u	n/a
602.841	0.24	1205682	keystroke_a	a	n/a
603.5005	0.1055	1207001	keystroke_Key.backspace	Key.backspace	n/a
603.726	0.1195	1207452	keystroke_Key.backspace	Key.backspace	n/a
603.9805	0.2255	1207961	keystroke_a	a	n/a
604.3715	0.209	1208743	keystroke_u	u	n/a
604.5815	0.239	1209163	keystroke_r	r	n/a
604.7755	0.21	1209551	keystroke_a	a	n/a
605.2255	0.21	1210451	keystroke_Key.space	Key.space	n/a
605.8255	0.165	1211651	keystroke_t	t	n/a
606.1105	0.181	1212221	keystroke_r	r	n/a
606.2305	0.165	1212461	keystroke_e	e	n/a
606.3805	0.24	1212761	keystroke_n	n	n/a
606.5915	0.209	1213183	keystroke_d	d	n/a
606.7855	0.21	1213571	keystroke_Key.space	Key.space	n/a
607.1155	0.18	1214231	keystroke_y	y	n/a
607.2805	0.481	1214561	keystroke_o	o	n/a
607.4455	0.27	1214891	keystroke_u	u	n/a
607.9255	0.195	1215851	keystroke_'	'	n/a
608.0905	0.151	1216181	keystroke_d	d	n/a
608.4355	0.255	1216871	keystroke_Key.space	Key.space	n/a
608.7965	0.269	1217593	keystroke_a	a	n/a
609.1255	0.166	1218251	keystroke_t	t	n/a
609.5605	0.195	1219121	keystroke_Key.enter	Key.enter	n/a
609.762	20.5245	1219524	prompt	n/a	change not agricultural rating\n
610.7605	0.226	1221521	keystroke_c	c	n/a
611.1365	0.209	1222273	keystroke_h	h	n/a
611.3615	0.239	1222723	keystroke_a	a	n/a
611.6305	0.301	1223261	keystroke_n	n	n/a
612.0655	0.256	1224131	keystroke_g	g	n/a
612.2755	0.241	1224551	keystroke_e	e	n/a
612.4715	0.209	1224943	keystroke_Key.space	Key.space	n/a
612.7565	0.285	1225513	keystroke_n	n	n/a
612.9505	0.346	1225901	keystroke_o	o	n/a
613.1305	0.226	1226261	keystroke_t	t	n/a
613.3855	0.24	1226771	keystroke_Key.space	Key.space	n/a
613.6415	0.24	1227283	keystroke_a	a	n/a
614.0165	0.195	1228033	keystroke_g	g	n/a
615.3965	0.239	1230793	keystroke_r	r	n/a
616.4305	0.196	1232861	keystroke_c	c	n/a
616.7165	0.21	1233433	keystroke_u	u	n/a
616.8515	0.3	1233703	keystroke_l	l	n/a
617.5105	0.15	1235021	keystroke_Key.backspace	Key.backspace	n/a
617.7505	0.285	1235501	keystroke_Key.backspace	Key.backspace	n/a
618.3505	0.15	1236701	keystroke_Key.backspace	Key.backspace	n/a
619.0415	0.21	1238083	keystroke_i	i	n/a
619.8815	0.224	1239763	keystroke_c	c	n/a
620.1515	0.24	1240303	keystroke_u	u	n/a
620.3165	0.27	1240633	keystroke_l	l	n/a
620.6315	0.21	1241263	keystroke_t	t	n/a
621.262	0.194	1242524	keystroke_u	u	n/a
621.861	0.151	1243722	keystroke_Key.backspace	Key.backspace	n/a
622.372	0.195	1244744	keystroke_Key.backspace	Key.backspace	n/a
623.692	0.225	1247384	keystroke_t	t	n/a
625.372	0.21	1250744	keystroke_u	u	n/a
625.567	0.165	1251134	keystroke_r	r	n/a
625.762	0.27	1251524	keystroke_a	a	n/a
626.137	0.255	1252274	keystroke_l	l	n/a
626.617	0.21	1253234	keystroke_Key.space	Key.space	n/a
627.157	0.18	1254314	keystroke_t	t	n/a
627.337	0.09	1254674	keystroke_h	h	n/a
627.757	0.15	1255514	keystroke_Key.backspace	Key.backspace	n/a
627.982	0.135	1255964	keystroke_Key.backspace	Key.backspace	n/a
628.342	0.24	1256684	keystroke_r	r	n/a
628.537	0.255	1257074	keystroke_a	a	n/a
629.062	0.21	1258124	keystroke_t	t	n/a
629.257	0.45	1258514	keystroke_i	i	n/a
629.497	0.255	1258994	keystroke_n	n	n/a
629.677	0.165	1259354	keystroke_g	g	n/a
630.052	0.225	1260104	keystroke_Key.enter	Key.enter	n/a
630.293	15.5415	1260586	prompt	n/a	bruce debian inspection equally\n
631.837	0.195	1263674	keystroke_b	b	n/a
632.422	0.195	1264844	keystroke_r	r	n/a
632.767	0.24	1265534	keystroke_u	u	n/a
632.977	0.255	1265954	keystroke_c	c	n/a
633.187	0.24	1266374	keystroke_e	e	n/a
633.457	0.255	1266914	keystroke_Key.space	Key.space	n/a
634.927	0.195	1269854	keystroke_b	b	n/a
635.017	0.18	1270034	keystroke_d	d	n/a
635.392	0.255	1270784	keystroke_e	e	n/a
635.932	0.135	1271864	keystroke_Key.backspace	Key.backspace	n/a
636.172	0.3	1272344	keystroke_Key.backspace	Key.backspace	n/a
636.757	0.105	1273514	keystroke_Key.backspace	Key.backspace	n/a
636.937	0.195	1273874	keystroke_d	d	n/a
637.267	0.225	1274534	keystroke_e	e	n/a
638.437	0.195	1276874	keystroke_b	b	n/a
638.572	0.255	1277144	keystroke_a	a	n/a
638.917	0.405	1277834	keystroke_i	i	n/a
639.142	0.21	1278284	keystroke_n	n	n/a
639.367	0.33	1278734	keystroke_Key.space	Key.space	n/a
639.877	0.2845	1279754	keystroke_i	i	n/a
640.0265	0.165	1280053	keystroke_n	n	n/a
640.3415	0.15	1280683	keystroke_s	s	n/a
640.6865	0.345	1281373	keystroke_p	p	n/a
640.8815	0.18	1281763	keystroke_e	e	n/a
641.2115	0.225	1282423	keystroke_c	c	n/a
641.662	0.21	1283324	keystroke_t	t	n/a
641.812	0.165	1283624	keystroke_i	i	n/a
641.917	0.225	1283834	keystroke_o	o	n/a
642.067	0.2395	1284134	keystroke_n	n	n/a
642.3215	0.285	1284643	keystroke_Key.space	Key.space	n/a
642.847	0.21	1285694	keystroke_e	e	n/a
643.147	0.24	1286294	keystroke_q	q	n/a
643.552	0.225	1287104	keystroke_u	u	n/a
644.017	0.195	1288034	keystroke_a	a	n/a
644.257	0.135	1288514	keystroke_l	l	n/a
644.482	0.195	1288964	keystroke_l	l	n/a
644.947	0.195	1289894	keystroke_y	y	n/a
645.607	0.225	1291214	keystroke_Key.enter	Key.enter	n/a
645.8395	11.9495	1291679	prompt	n/a	usda competing concord blend\n
647.002	0.21	1294004	keystroke_u	u	n/a
647.122	0.135	1294244	keystroke_s	s	n/a
647.482	0.225	1294964	keystroke_d	d	n/a
647.708	0.269	1295416	keystroke_a	a	n/a
648.022	0.24	1296044	keystroke_Key.space	Key.space	n/a
648.337	0.21	1296674	keystroke_c	c	n/a
648.562	0.3	1297124	keystroke_o	o	n/a
648.952	0.195	1297904	keystroke_m	m	n/a
649.312	0.24	1298624	keystroke_p	p	n/a
649.432	0.255	1298864	keystroke_e	e	n/a
649.762	0.255	1299524	keystroke_t	t	n/a
649.972	0.21	1299944	keystroke_e	e	n/a
650.317	0.18	1300634	keystroke_t	t	n/a
650.527	0.39	1301054	keystroke_i	i	n/a
650.767	0.225	1301534	keystroke_n	n	n/a
650.993	0.239	1301986	keystroke_g	g	n/a
651.397	0.225	1302794	keystroke_Key.space	Key.space	n/a
651.997	0.195	1303994	keystroke_c	c	n/a
652.207	0.48	1304414	keystroke_o	o	n/a
652.387	0.24	1304774	keystroke_n	n	n/a
652.927	0.24	1305854	keystroke_f	f	n/a
653.647	0.15	1307294	keystroke_Key.backspace	Key.backspace	n/a
653.827	0.211	1307654	keystroke_c	c	n/a
654.202	0.345	1308404	keystroke_o	o	n/a
654.443	0.164	1308886	keystroke_r	r	n/a
654.847	0.1955	1309694	keystroke_d	d	n/a
655.222	0.24	1310444	keystroke_Key.space	Key.space	n/a
655.912	0.2545	1311824	keystroke_b	b	n/a
656.2415	0.21	1312483	keystroke_l	l	n/a
656.5865	0.1805	1313173	keystroke_e	e	n/a
657.007	0.195	1314014	keystroke_n	n	n/a
657.142	0.18	1314284	keystroke_d	d	n/a
657.547	0.24	1315094	keystroke_Key.enter	Key.enter	n/a
657.805	9.4345	1315610	prompt	n/a	home simply produced train\n
658.882	0.24	1317764	keystroke_h	h	n/a
659.107	0.42	1318214	keystroke_o	o	n/a
659.332	0.24	1318664	keystroke_m	m	n/a
659.602	0.2395	1319204	keystroke_e	e	n/a
659.9165	0.255	1319833	keystroke_Key.space	Key.space	n/a
660.1115	0.195	1320223	keystroke_s	s	n/a
660.2615	0.27	1320523	keystroke_i	i	n/a
660.3815	0.226	1320763	keystroke_m	m	n/a
660.8015	0.241	1321603	keystroke_p	p	n/a
661.2215	0.27	1322443	keystroke_l	l	n/a
661.5665	0.225	1323133	keystroke_y	y	n/a
661.8215	0.24	1323643	keystroke_Key.space	Key.space	n/a
662.3315	0.24	1324663	keystroke_p	p	n/a
662.4515	0.15	1324903	keystroke_r	r	n/a
662.8265	0.285	1325653	keystroke_o	o	n/a
663.0215	0.195	1326043	keystroke_d	d	n/a
663.3815	0.2565	1326763	keystroke_u	u	n/a
663.668	0.209	1327336	keystroke_c	c	n/a
664.2965	0.2405	1328593	keystroke_e	e	n/a
664.838	0.194	1329676	keystroke_d	d	n/a
665.017	0.21	1330034	keystroke_Key.space	Key.space	n/a
665.572	0.18	1331144	keystroke_t	t	n/a
665.977	0.2245	1331954	keystroke_r	r	n/a
666.1575	0.1945	1332315	keystroke_a	a	n/a
666.383	0.2985	1332766	keystroke_i	i	n/a
666.5625	0.194	1333125	keystroke_n	n	n/a
667.0265	0.21	1334053	keystroke_Key.enter	Key.enter	n/a
667.245	18.686	1334490	prompt	n/a	vessel generating brown equality\n
668.2575	0.225	1336515	keystroke_v	v	n/a
668.7515	0.271	1337503	keystroke_e	e	n/a
669.0375	0.195	1338075	keystroke_s	s	n/a
669.3675	0.24	1338735	keystroke_s	s	n/a
670.0725	0.195	1340145	keystroke_e	e	n/a
670.5815	0.271	1341163	keystroke_l	l	n/a
671.0615	0.21	1342123	keystroke_Key.space	Key.space	n/a
671.4525	0.224	1342905	keystroke_g	g	n/a
671.6925	0.195	1343385	keystroke_e	e	n/a
671.9465	0.211	1343893	keystroke_n	n	n/a
672.0665	0.286	1344133	keystroke_e	e	n/a
672.2915	0.256	1344583	keystroke_r	r	n/a
672.5625	0.3	1345125	keystroke_a	a	n/a
672.8325	0.179	1345665	keystroke_t	t	n/a
673.0575	0.345	1346115	keystroke_i	i	n/a
673.2075	0.21	1346415	keystroke_n	n	n/a
673.4625	0.179	1346925	keystroke_g	g	n/a
673.6865	0.226	1347373	keystroke_Key.space	Key.space	n/a
674.1075	0.255	1348215	keystroke_b	b	n/a
674.5725	0.195	1349145	keystroke_e	e	n/a
674.9775	0.344	1349955	keystroke_o	o	n/a
675.5925	0.134	1351185	keystroke_Key.backspace	Key.backspace	n/a
675.8475	0.119	1351695	keystroke_Key.backspace	Key.backspace	n/a
676.4465	0.196	1352893	keystroke_Key.backspace	Key.backspace	n/a
676.6575	0.044	1353315	keystroke_Key.backspace	Key.backspace	n/a
677.5725	0.165	1355145	keystroke_r	r	n/a
677.8875	0.3305	1355775	keystroke_o	o	n/a
678.173	0.195	1356346	keystroke_w	w	n/a
678.698	0.1635	1357396	keystroke_Key.backspace	Key.backspace	n/a
678.9815	0.09	1357963	keystroke_Key.backspace	Key.backspace	n/a
679.1765	0.15	1358353	keystroke_Key.backspace	Key.backspace	n/a
680.4515	0.195	1360903	keystroke_Key.space	Key.space	n/a
681.1125	0.225	1362225	keystroke_b	b	n/a
681.5475	0.18	1363095	keystroke_r	r	n/a
681.8175	0.255	1363635	keystroke_o	o	n/a
682.0275	0.15	1364055	keystroke_w	w	n/a
682.2825	0.24	1364565	keystroke_n	n	n/a
682.6725	0.18	1365345	keystroke_Key.space	Key.space	n/a
682.9575	0.195	1365915	keystroke_e	e	n/a
683.5725	0.24	1367145	keystroke_q	q	n/a
684.0225	0.24	1368045	keystroke_u	u	n/a
684.2925	0.255	1368585	keystroke_a	a	n/a
684.5925	0.15	1369185	keystroke_l	l	n/a
684.8025	0.165	1369605	keystroke_l	l	n/a
685.328	0.195	1370656	keystroke_y	y	n/a
685.7475	0.1805	1371495	keystroke_Key.enter	Key.enter	n/a
685.9355	23.98	1371871	prompt	n/a	raid dell greg tomatoes\n
694.841	0.222	1389682	keystroke_r	r	n/a
695.003	0.18	1390006	keystroke_a	a	n/a
695.228	0.21	1390456	keystroke_i	i	n/a
695.813	0.165	1391626	keystroke_d	d	n/a
696.248	0.225	1392496	keystroke_Key.space	Key.space	n/a
696.548	0.225	1393096	keystroke_d	d	n/a
697.013	0.285	1394026	keystroke_e	e	n/a
697.853	0.165	1395706	keystroke_l	l	n/a
698.048	0.1805	1396096	keystroke_l	l	n/a
698.9775	0.21	1397955	keystroke_Key.space	Key.space	n/a
699.3225	0.181	1398645	keystroke_g	g	n/a
699.6835	0.225	1399367	keystroke_r	r	n/a
699.8485	0.195	1399697	keystroke_e	e	n/a
700.2835	0.195	1400567	keystroke_g	g	n/a
700.6285	0.27	1401257	keystroke_Key.space	Key.space	n/a
700.9735	0.24	1401947	keystroke_t	t	n/a
701.2285	0.33	1402457	keystroke_i	i	n/a
701.4235	0.165	1402847	keystroke_n	n	n/a
701.6185	0.225	1403237	keystroke_a	a	n/a
701.8285	0.12	1403657	keystroke_t	t	n/a
702.2185	0.12	1404437	keystroke_=	=	n/a
702.6685	0.045	1405337	keystroke_=	=	n/a
703.7485	0.119	1407497	keystroke_Key.backspace	Key.backspace	n/a
704.0035	0.119	1408007	keystroke_Key.backspace	Key.backspace	n/a
704.2125	0.135	1408425	keystroke_Key.backspace	Key.backspace	n/a
704.4535	0.135	1408907	keystroke_Key.backspace	Key.backspace	n/a
704.6635	0.165	1409327	keystroke_Key.backspace	Key.backspace	n/a
704.9335	0.15	1409867	keystroke_Key.backspace	Key.backspace	n/a
706.1485	0.299	1412297	keystroke_o	o	n/a
706.2985	0.165	1412597	keystroke_,	,	n/a
707.0935	0.165	1414187	keystroke_Key.backspace	Key.backspace	n/a
708.2485	0.21	1416497	keystroke_m	m	n/a
708.3985	0.255	1416797	keystroke_a	a	n/a
708.6085	0.195	1417217	keystroke_t	t	n/a
709.0285	0.3	1418057	keystroke_o	o	n/a
709.1335	0.24	1418267	keystroke_e	e	n/a
709.3135	0.15	1418627	keystroke_s	s	n/a
709.7335	0.18	1419467	keystroke_Key.enter	Key.enter	n/a
709.9235	14.842	1419847	prompt	n/a	moves beta ought interventions\n
716.337	0.237	1432674	keystroke_m	m	n/a
716.559	0.27	1433118	keystroke_o	o	n/a
716.679	0.255	1433358	keystroke_v	v	n/a
716.949	0.255	1433898	keystroke_e	e	n/a
717.114	0.15	1434228	keystroke_s	s	n/a
717.354	0.255	1434708	keystroke_Key.space	Key.space	n/a
718.119	0.195	1436238	keystroke_b	b	n/a
718.194	0.285	1436388	keystroke_e	e	n/a
718.434	0.285	1436868	keystroke_t	t	n/a
718.659	0.24	1437318	keystroke_a	a	n/a
718.929	0.2695	1437858	keystroke_Key.space	Key.space	n/a
719.5895	0.359	1439179	keystroke_o	o	n/a
719.7845	0.225	1439569	keystroke_u	u	n/a
720.0095	0.195	1440019	keystroke_g	g	n/a
720.2935	0.225	1440587	keystroke_h	h	n/a
720.4435	0.211	1440887	keystroke_t	t	n/a
720.7585	0.24	1441517	keystroke_Key.space	Key.space	n/a
721.4495	0.33	1442899	keystroke_i	i	n/a
721.6445	0.195	1443289	keystroke_n	n	n/a
722.0495	0.269	1444099	keystroke_t	t	n/a
722.3045	0.27	1444609	keystroke_e	e	n/a
722.4685	0.15	1444937	keystroke_r	r	n/a
722.8285	0.24	1445657	keystroke_v	v	n/a
723.0545	0.225	1446109	keystroke_e	e	n/a
723.2935	0.225	1446587	keystroke_n	n	n/a
723.4885	0.211	1446977	keystroke_t	t	n/a
723.7135	0.316	1447427	keystroke_i	i	n/a
723.9095	0.36	1447819	keystroke_o	o	n/a
724.0295	0.209	1448059	keystroke_n	n	n/a
724.1645	0.135	1448329	keystroke_s	s	n/a
724.5845	0.179	1449169	keystroke_Key.enter	Key.enter	n/a
724.7715	14.0945	1449543	prompt	n/a	cadillac race merge photoshop\n
730.1515	0.148	1460303	keystroke_c	c	n/a
730.3295	0.225	1460659	keystroke_a	a	n/a
730.7495	0.165	1461499	keystroke_d	d	n/a
730.9885	0.256	1461977	keystroke_i	i	n/a
731.1385	0.166	1462277	keystroke_l	l	n/a
731.4095	0.195	1462819	keystroke_l	l	n/a
731.6345	0.285	1463269	keystroke_a	a	n/a
732.0845	0.225	1464169	keystroke_c	c	n/a
732.5945	0.239	1465189	keystroke_Key.space	Key.space	n/a
733.2245	0.21	1466449	keystroke_r	r	n/a
733.4035	0.256	1466807	keystroke_a	a	n/a
733.7045	0.24	1467409	keystroke_c	c	n/a
733.8995	0.24	1467799	keystroke_e	e	n/a
734.1245	0.21	1468249	keystroke_Key.space	Key.space	n/a
734.5745	0.27	1469149	keystroke_m	m	n/a
734.7095	0.21	1469419	keystroke_e	e	n/a
734.8595	0.15	1469719	keystroke_r	r	n/a
735.2195	0.195	1470439	keystroke_g	g	n/a
735.3995	0.225	1470799	keystroke_e	e	n/a
735.6095	0.21	1471219	keystroke_Key.space	Key.space	n/a
736.1645	0.239	1472329	keystroke_p	p	n/a
736.4645	0.33	1472929	keystroke_h	h	n/a
736.6595	0.24	1473319	keystroke_o	o	n/a
737.0195	0.165	1474039	keystroke_t	t	n/a
737.1395	0.285	1474279	keystroke_o	o	n/a
737.5295	0.18	1475059	keystroke_s	s	n/a
737.6645	0.15	1475329	keystroke_h	h	n/a
737.7245	0.39	1475449	keystroke_o	o	n/a
738.0845	0.18	1476169	keystroke_p	p	n/a
738.6695	0.195	1477339	keystroke_Key.enter	Key.enter	n/a
738.8795	19.907	1477759	prompt	n/a	ensemble diagnosis info unemployment\n
741.447	0.087	1482894	keystroke_e	e	n/a
741.579	0.21	1483158	keystroke_m	m	n/a
742.119	0.165	1484238	keystroke_Key.backspace	Key.backspace	n/a
742.674	0.195	1485348	keystroke_n	n	n/a
743.634	0.225	1487268	keystroke_s	s	n/a
743.784	0.1945	1487568	keystroke_e	e	n/a
743.9635	0.24	1487927	keystroke_m	m	n/a
744.4295	0.239	1488859	keystroke_b	b	n/a
744.5935	0.24	1489187	keystroke_l	l	n/a
744.7745	0.179	1489549	keystroke_e	e	n/a
745.1635	0.3	1490327	keystroke_Key.space	Key.space	n/a
745.5685	0.195	1491137	keystroke_d	d	n/a
745.8245	0.2395	1491649	keystroke_i	i	n/a
746.514	0.285	1493028	keystroke_a	a	n/a
747.19	0.194	1494380	keystroke_g	g	n/a
747.864	0.316	1495728	keystroke_n	n	n/a
748.089	0.33	1496178	keystroke_o	o	n/a
749.905	0.239	1499810	keystroke_s	s	n/a
750.16	0.284	1500320	keystroke_i	i	n/a
750.28	0.179	1500560	keystroke_s	s	n/a
750.819	0.24	1501638	keystroke_Key.space	Key.space	n/a
751.359	0.3	1502718	keystroke_i	i	n/a
751.509	0.255	1503018	keystroke_n	n	n/a
751.704	0.21	1503408	keystroke_f	f	n/a
752.064	0.405	1504128	keystroke_o	o	n/a
752.754	0.226	1505508	keystroke_Key.space	Key.space	n/a
753.625	0.165	1507250	keystroke_u	u	n/a
754.105	0.284	1508210	keystroke_n	n	n/a
754.93	0.194	1509860	keystroke_e	e	n/a
755.29	0.21	1510580	keystroke_m	m	n/a
755.725	0.2545	1511450	keystroke_p	p	n/a
756.115	0.21	1512230	keystroke_l	l	n/a
756.4745	0.254	1512949	keystroke_o	o	n/a
756.8945	0.21	1513789	keystroke_y	y	n/a
757.5095	0.255	1515019	keystroke_m	m	n/a
757.7495	0.195	1515499	keystroke_e	e	n/a
758.0045	0.27	1516009	keystroke_n	n	n/a
758.2295	0.135	1516459	keystroke_t	t	n/a
758.6045	0.18	1517209	keystroke_Key.enter	Key.enter	n/a
758.7915	10.735	1517583	prompt	n/a	friday combination examined fuzzy\n
759.4745	0.18	1518949	keystroke_f	f	n/a
759.7585	0.196	1519517	keystroke_r	r	n/a
759.9695	0.314	1519939	keystroke_i	i	n/a
760.1185	0.24	1520237	keystroke_d	d	n/a
760.3745	0.255	1520749	keystroke_a	a	n/a
760.7195	0.24	1521439	keystroke_y	y	n/a
761.409	0.271	1522818	keystroke_Key.space	Key.space	n/a
761.875	0.165	1523750	keystroke_c	c	n/a
762.1	0.375	1524200	keystroke_o	o	n/a
762.295	0.21	1524590	keystroke_m	m	n/a
762.715	0.1945	1525430	keystroke_b	b	n/a
762.9695	0.3305	1525939	keystroke_i	i	n/a
763.12	0.21	1526240	keystroke_n	n	n/a
763.315	0.225	1526630	keystroke_a	a	n/a
763.555	0.165	1527110	keystroke_t	t	n/a
763.675	0.27	1527350	keystroke_i	i	n/a
763.855	0.39	1527710	keystroke_o	o	n/a
763.96	0.255	1527920	keystroke_n	n	n/a
764.395	0.239	1528790	keystroke_Key.space	Key.space	n/a
764.575	0.15	1529150	keystroke_e	e	n/a
764.905	0.24	1529810	keystroke_x	x	n/a
765.235	0.24	1530470	keystroke_a	a	n/a
765.94	0.24	1531880	keystroke_m	m	n/a
766.225	0.375	1532450	keystroke_i	i	n/a
766.375	0.24	1532750	keystroke_n	n	n/a
766.495	0.18	1532990	keystroke_e	e	n/a
766.84	0.2245	1533680	keystroke_d	d	n/a
767.0795	0.2405	1534159	keystroke_Key.space	Key.space	n/a
767.305	0.195	1534610	keystroke_f	f	n/a
767.785	0.2245	1535570	keystroke_u	u	n/a
768.2495	0.225	1536499	keystroke_z	z	n/a
768.5495	0.21	1537099	keystroke_z	z	n/a
768.8045	0.225	1537609	keystroke_y	y	n/a
769.3145	0.21	1538629	keystroke_Key.enter	Key.enter	n/a
769.5315	10.345	1539063	prompt	n/a	sugar literature desktop ruling\n
770.3195	0.18	1540639	keystroke_s	s	n/a
770.8295	0.255	1541659	keystroke_u	u	n/a
771.0395	0.165	1542079	keystroke_g	g	n/a
771.3095	0.345	1542619	keystroke_e	e	n/a
771.5045	0.151	1543009	keystroke_r	r	n/a
771.6695	0.255	1543339	keystroke_Key.space	Key.space	n/a
772.2845	0.135	1544569	keystroke_Key.backspace	Key.backspace	n/a
772.5395	0.105	1545079	keystroke_Key.backspace	Key.backspace	n/a
772.7195	0.15	1545439	keystroke_Key.backspace	Key.backspace	n/a
772.9295	0.255	1545859	keystroke_a	a	n/a
773.1545	0.18	1546309	keystroke_r	r	n/a
773.4695	0.225	1546939	keystroke_Key.space	Key.space	n/a
773.8895	0.195	1547779	keystroke_l	l	n/a
774.0245	0.195	1548049	keystroke_i	i	n/a
774.2495	0.195	1548499	keystroke_t	t	n/a
774.4295	0.18	1548859	keystroke_e	e	n/a
774.5645	0.21	1549129	keystroke_r	r	n/a
774.7295	0.21	1549459	keystroke_a	a	n/a
775.0005	0.194	1550001	keystroke_t	t	n/a
775.2695	0.24	1550539	keystroke_u	u	n/a
775.5555	0.209	1551111	keystroke_r	r	n/a
775.6595	0.21	1551319	keystroke_e	e	n/a
775.9145	0.225	1551829	keystroke_Key.space	Key.space	n/a
776.1245	0.18	1552249	keystroke_d	d	n/a
776.4395	0.255	1552879	keystroke_e	e	n/a
776.6345	0.165	1553269	keystroke_s	s	n/a
776.8005	0.209	1553601	keystroke_k	k	n/a
777.1595	0.165	1554319	keystroke_t	t	n/a
777.3695	0.315	1554739	keystroke_o	o	n/a
777.6395	0.225	1555279	keystroke_p	p	n/a
778.0145	0.225	1556029	keystroke_Key.space	Key.space	n/a
778.2845	0.21	1556569	keystroke_r	r	n/a
778.5095	0.255	1557019	keystroke_u	u	n/a
778.7195	0.3	1557439	keystroke_l	l	n/a
778.9445	0.315	1557889	keystroke_i	i	n/a
779.1095	0.225	1558219	keystroke_n	n	n/a
779.3045	0.195	1558609	keystroke_g	g	n/a
779.6795	0.195	1559359	keystroke_Key.enter	Key.enter	n/a
779.881	16.3615	1559762	prompt	n/a	expiration smaller avon geography\n
780.79	0.12	1561580	keystroke_e	e	n/a
781.135	0.21	1562270	keystroke_x	x	n/a
781.495	0.21	1562990	keystroke_p	p	n/a
781.54	0.06	1563080	keystroke_s	s	n/a
781.72	0.225	1563440	keystroke_i	i	n/a
782.23	0.15	1564460	keystroke_Key.backspace	Key.backspace	n/a
782.5	0.105	1565000	keystroke_Key.backspace	Key.backspace	n/a
782.98	0.225	1565960	keystroke_i	i	n/a
783.175	0.24	1566350	keystroke_r	r	n/a
783.4	0.255	1566800	keystroke_a	a	n/a
783.64	0.195	1567280	keystroke_t	t	n/a
783.805	0.27	1567610	keystroke_i	i	n/a
784.015	0.285	1568030	keystroke_o	o	n/a
784.135	0.195	1568270	keystroke_n	n	n/a
784.54	0.15	1569080	keystroke_f	f	n/a
784.63	0.21	1569260	keystroke_Key.space	Key.space	n/a
785.26	0.135	1570520	keystroke_Key.backspace	Key.backspace	n/a
785.5	0.105	1571000	keystroke_Key.backspace	Key.backspace	n/a
785.995	0.27	1571990	keystroke_Key.space	Key.space	n/a
786.4	0.21	1572800	keystroke_s	s	n/a
786.67	0.18	1573340	keystroke_l	l	n/a
786.79	0.12	1573580	keystroke_m	m	n/a
787.24	0.12	1574480	keystroke_Key.backspace	Key.backspace	n/a
787.465	0.135	1574930	keystroke_Key.backspace	Key.backspace	n/a
788.095	0.18	1576190	keystroke_m	m	n/a
788.35	0.255	1576700	keystroke_a	a	n/a
788.68	0.15	1577360	keystroke_l	l	n/a
788.965	0.225	1577930	keystroke_l	l	n/a
789.565	0.24	1579130	keystroke_e	e	n/a
789.76	0.195	1579520	keystroke_r	r	n/a
790.075	0.225	1580150	keystroke_Key.space	Key.space	n/a
790.615	0.24	1581230	keystroke_a	a	n/a
790.885	0.225	1581770	keystroke_v	v	n/a
791.5	0.345	1583000	keystroke_o	o	n/a
791.71	0.195	1583420	keystroke_n	n	n/a
791.965	0.195	1583930	keystroke_Key.space	Key.space	n/a
792.085	0.24	1584170	keystroke_g	g	n/a
792.28	0.225	1584560	keystroke_e	e	n/a
792.535	0.21	1585070	keystroke_o	o	n/a
793.855	0.135	1587710	keystroke_g	g	n/a
794.14	0.225	1588280	keystroke_r	r	n/a
794.77	0.27	1589540	keystroke_a	a	n/a
794.965	0.27	1589930	keystroke_p	p	n/a
795.25	0.24	1590500	keystroke_h	h	n/a
795.76	0.15	1591520	keystroke_y	y	n/a
796.12	0.12	1592240	keystroke_Key.enter	Key.enter	n/a
796.2475	17.8595	1592495	prompt	n/a	calculated airport patricia weekly\n
801.553	0.147	1603106	keystroke_c	c	n/a
801.64	0.24	1603280	keystroke_a	a	n/a
801.79	0.225	1603580	keystroke_l	l	n/a
802.465	0.21	1604930	keystroke_c	c	n/a
802.66	0.255	1605320	keystroke_u	u	n/a
802.825	0.24	1605650	keystroke_l	l	n/a
803.275	0.27	1606550	keystroke_a	a	n/a
803.575	0.225	1607150	keystroke_t	t	n/a
803.785	0.21	1607570	keystroke_e	e	n/a
804.22	0.21	1608440	keystroke_d	d	n/a
804.565	0.225	1609130	keystroke_Key.space	Key.space	n/a
805.075	0.24	1610150	keystroke_a	a	n/a
805.285	0.21	1610570	keystroke_i	i	n/a
805.735	0.195	1611470	keystroke_r	r	n/a
806.44	0.24	1612880	keystroke_p	p	n/a
806.635	0.3	1613270	keystroke_o	o	n/a
807.28	0.21	1614560	keystroke_r	r	n/a
807.7	0.195	1615400	keystroke_t	t	n/a
808	0.21	1616000	keystroke_Key.space	Key.space	n/a
808.525	0.24	1617050	keystroke_p	p	n/a
808.705	0.225	1617410	keystroke_a	a	n/a
808.9	0.18	1617800	keystroke_t	t	n/a
809.185	0.195	1618370	keystroke_i	i	n/a
809.44	0.165	1618880	keystroke_r	r	n/a
809.935	0.1495	1619870	keystroke_Key.backspace	Key.backspace	n/a
810.1745	0.135	1620349	keystroke_Key.backspace	Key.backspace	n/a
810.2955	0.18	1620591	keystroke_r	r	n/a
810.6545	0.195	1621309	keystroke_i	i	n/a
810.8655	0.164	1621731	keystroke_c	c	n/a
811.0145	0.271	1622029	keystroke_i	i	n/a
811.2545	0.271	1622509	keystroke_a	a	n/a
811.7495	0.24	1623499	keystroke_Key.space	Key.space	n/a
812.0655	0.254	1624131	keystroke_w	w	n/a
812.3645	0.165	1624729	keystroke_e	e	n/a
812.6345	0.181	1625269	keystroke_e	e	n/a
812.8605	0.209	1625721	keystroke_k	k	n/a
813.1595	0.195	1626319	keystroke_l	l	n/a
813.5055	0.165	1627011	keystroke_y	y	n/a
813.8795	0.225	1627759	keystroke_Key.enter	Key.enter	n/a
814.1125	13.406	1628225	prompt	n/a	terrace encourage customers freight\n
814.9155	0.21	1629831	keystroke_t	t	n/a
815.1405	0.21	1630281	keystroke_e	e	n/a
815.3655	0.12	1630731	keystroke_r	r	n/a
815.6505	0.255	1631301	keystroke_r	r	n/a
816.1455	0.225	1632291	keystroke_a	a	n/a
816.7605	0.24	1633521	keystroke_c	c	n/a
816.9855	0.195	1633971	keystroke_e	e	n/a
817.2545	0.255	1634509	keystroke_Key.space	Key.space	n/a
817.4955	0.225	1634991	keystroke_e	e	n/a
817.7645	0.226	1635529	keystroke_n	n	n/a
818.1255	0.18	1636251	keystroke_o	o	n/a
818.6045	0.136	1637209	keystroke_Key.backspace	Key.backspace	n/a
819.1605	0.224	1638321	keystroke_n	n	n/a
819.7455	0.15	1639491	keystroke_Key.backspace	Key.backspace	n/a
819.9255	0.1955	1639851	keystroke_c	c	n/a
820.346	0.284	1640692	keystroke_o	o	n/a
820.51	0.211	1641020	keystroke_u	u	n/a
820.601	0.24	1641202	keystroke_r	r	n/a
820.871	0.21	1641742	keystroke_a	a	n/a
821.126	0.255	1642252	keystroke_g	g	n/a
821.366	0.195	1642732	keystroke_e	e	n/a
821.606	0.21	1643212	keystroke_Key.space	Key.space	n/a
822.236	0.24	1644472	keystroke_c	c	n/a
822.536	0.24	1645072	keystroke_u	u	n/a
822.851	0.27	1645702	keystroke_s	s	n/a
823.151	0.18	1646302	keystroke_t	t	n/a
823.301	0.36	1646602	keystroke_o	o	n/a
823.481	0.21	1646962	keystroke_m	m	n/a
823.751	0.27	1647502	keystroke_e	e	n/a
823.961	0.24	1647922	keystroke_r	r	n/a
824.096	0.195	1648192	keystroke_s	s	n/a
824.666	0.314	1649332	keystroke_Key.space	Key.space	n/a
825.071	0.195	1650142	keystroke_f	f	n/a
825.386	0.285	1650772	keystroke_r	r	n/a
825.716	0.225	1651432	keystroke_e	e	n/a
826.046	0.27	1652092	keystroke_i	i	n/a
826.376	0.195	1652752	keystroke_g	g	n/a
826.646	0.27	1653292	keystroke_h	h	n/a
826.871	0.18	1653742	keystroke_t	t	n/a
827.291	0.225	1654582	keystroke_Key.enter	Key.enter	n/a
827.526	21.3525	1655052	prompt	n/a	photographer reductions fortune asset\n
828.596	0.24	1657192	keystroke_p	p	n/a
828.881	0.285	1657762	keystroke_h	h	n/a
829.091	0.42	1658182	keystroke_o	o	n/a
829.571	0.18	1659142	keystroke_t	t	n/a
830.081	0.165	1660162	keystroke_g	g	n/a
830.696	0.135	1661392	keystroke_Key.backspace	Key.backspace	n/a
831.101	0.33	1662202	keystroke_o	o	n/a
831.701	0.18	1663402	keystroke_g	g	n/a
832.091	0.2845	1664182	keystroke_r	r	n/a
832.3305	0.21	1664661	keystroke_a	a	n/a
832.5105	0.225	1665021	keystroke_p	p	n/a
832.7655	0.27	1665531	keystroke_h	h	n/a
833.0505	0.255	1666101	keystroke_e	e	n/a
833.2155	0.18	1666431	keystroke_r	r	n/a
833.5155	0.27	1667031	keystroke_Key.space	Key.space	n/a
834.5355	0.21	1669071	keystroke_r	r	n/a
835.3605	0.24	1670721	keystroke_e	e	n/a
836.0805	0.24	1672161	keystroke_d	d	n/a
836.5305	0.225	1673061	keystroke_u	u	n/a
836.831	0.2095	1673662	keystroke_c	c	n/a
837.3855	0.3	1674771	keystroke_i	i	n/a
838.0755	0.195	1676151	keystroke_Key.backspace	Key.backspace	n/a
839.471	0.224	1678942	keystroke_t	t	n/a
839.62	0.271	1679240	keystroke_i	i	n/a
839.755	0.376	1679510	keystroke_o	o	n/a
839.92	0.24	1679840	keystroke_n	n	n/a
840.191	0.18	1680382	keystroke_s	s	n/a
840.535	0.255	1681070	keystroke_Key.space	Key.space	n/a
841.3	0.106	1682600	keystroke_s	s	n/a
841.915	0.18	1683830	keystroke_Key.backspace	Key.backspace	n/a
842.231	0.269	1684462	keystroke_f	f	n/a
842.486	0.419	1684972	keystroke_o	o	n/a
842.8	0.256	1685600	keystroke_r	r	n/a
843.206	0.089	1686412	keystroke_s	s	n/a
843.385	0.181	1686770	keystroke_t	t	n/a
843.491	0.179	1686982	keystroke_u	u	n/a
844	0.165	1688000	keystroke_Key.backspace	Key.backspace	n/a
844.285	0.09	1688570	keystroke_Key.backspace	Key.backspace	n/a
844.495	0.09	1688990	keystroke_Key.backspace	Key.backspace	n/a
845.696	0.195	1691392	keystroke_t	t	n/a
846.131	0.179	1692262	keystroke_u	u	n/a
846.671	0.24	1693342	keystroke_n	n	n/a
846.835	0.225	1693670	keystroke_e	e	n/a
847.135	0.24	1694270	keystroke_Key.space	Key.space	n/a
847.391	0.269	1694782	keystroke_a	a	n/a
847.646	0.15	1695292	keystroke_s	s	n/a
847.9	0.225	1695800	keystroke_s	s	n/a
848.051	0.18	1696102	keystroke_e	e	n/a
848.44	0.015	1696880	keystroke_a	a	n/a
848.711	0.164	1697422	keystroke_Key.enter	Key.enter	n/a
848.8835	20.62	1697767	prompt	n/a	promote opened outlets elderly\n
854.954	0.177	1709908	keystroke_p	p	n/a
855.236	0.24	1710472	keystroke_r	r	n/a
855.461	0.315	1710922	keystroke_o	o	n/a
855.731	0.27	1711462	keystroke_m	m	n/a
855.926	0.285	1711852	keystroke_o	o	n/a
856.166	0.255	1712332	keystroke_t	t	n/a
856.361	0.21	1712722	keystroke_e	e	n/a
856.631	0.195	1713262	keystroke_Key.space	Key.space	n/a
857.156	0.09	1714312	keystroke_l	l	n/a
857.351	0.255	1714702	keystroke_p	p	n/a
857.756	0.075	1715512	keystroke_e	e	n/a
858.086	0.15	1716172	keystroke_Key.backspace	Key.backspace	n/a
858.341	0.09	1716682	keystroke_Key.backspace	Key.backspace	n/a
858.536	0.105	1717072	keystroke_Key.backspace	Key.backspace	n/a
859.256	0.165	1718512	keystroke_o	o	n/a
860.126	0.225	1720252	keystroke_p	p	n/a
860.351	0.195	1720702	keystroke_e	e	n/a
860.756	0.195	1721512	keystroke_n	n	n/a
861.221	0.21	1722442	keystroke_e	e	n/a
861.656	0.195	1723312	keystroke_d	d	n/a
862.106	0.21	1724212	keystroke_Key.space	Key.space	n/a
862.961	0.27	1725922	keystroke_o	o	n/a
863.141	0.18	1726282	keystroke_u	u	n/a
863.261	0.24	1726522	keystroke_t	t	n/a
863.666	0.24	1727332	keystroke_l	l	n/a
863.816	0.165	1727632	keystroke_e	e	n/a
863.996	0.27	1727992	keystroke_t	t	n/a
864.191	0.15	1728382	keystroke_s	s	n/a
864.731	0.21	1729462	keystroke_Key.space	Key.space	n/a
864.956	0.18	1729912	keystroke_e	e	n/a
865.286	0.345	1730572	keystroke_l	l	n/a
865.466	0.15	1730932	keystroke_d	d	n/a
865.781	0.09	1731562	keystroke_e	e	n/a
866.561	0.18	1733122	keystroke_r	r	n/a
867.056	0.21	1734112	keystroke_l	l	n/a
867.521	0.18	1735042	keystroke_y	y	n/a
868.001	0.15	1736002	keystroke_Key.shift_r	Key.shift_r	n/a
869.366	0.135	1738732	keystroke_Key.enter	Key.enter	n/a
869.509	22.584	1739018	prompt	n/a	terrorist meta withdrawal panels\n
870.806	0.225	1741612	keystroke_t	t	n/a
871.061	0.21	1742122	keystroke_e	e	n/a
871.241	0.195	1742482	keystroke_r	r	n/a
871.601	0.195	1743202	keystroke_r	r	n/a
872.006	0.27	1744012	keystroke_o	o	n/a
872.516	0.195	1745032	keystroke_r	r	n/a
872.816	0.285	1745632	keystroke_i	i	n/a
873.041	0.27	1746082	keystroke_s	s	n/a
873.281	0.225	1746562	keystroke_t	t	n/a
873.701	0.21	1747402	keystroke_Key.space	Key.space	n/a
874.151	0.225	1748302	keystroke_m	m	n/a
874.301	0.15	1748602	keystroke_e	e	n/a
874.466	0.285	1748932	keystroke_t	t	n/a
874.706	0.195	1749412	keystroke_a	a	n/a
874.931	0.225	1749862	keystroke_Key.space	Key.space	n/a
875.336	0.015	1750672	keystroke_2	2	n/a
875.411	0.165	1750822	keystroke_w	w	n/a
875.621	0.18	1751242	keystroke_i	i	n/a
876.056	0.15	1752112	keystroke_Key.backspace	Key.backspace	n/a
876.311	0.135	1752622	keystroke_Key.backspace	Key.backspace	n/a
876.551	0.135	1753102	keystroke_Key.backspace	Key.backspace	n/a
876.791	0.24	1753582	keystroke_w	w	n/a
877.271	0.195	1754542	keystroke_i	i	n/a
877.571	0.21	1755142	keystroke_t	t	n/a
877.856	0.255	1755712	keystroke_h	h	n/a
878.156	0.15	1756312	keystroke_d	d	n/a
878.381	0.27	1756762	keystroke_r	r	n/a
878.636	0.24	1757272	keystroke_a	a	n/a
878.801	0.24	1757602	keystroke_w	w	n/a
879.881	0.255	1759762	keystroke_l	l	n/a
880.691	0.165	1761382	keystroke_Key.backspace	Key.backspace	n/a
881.231	0.24	1762462	keystroke_a	a	n/a
881.516	0.195	1763032	keystroke_w	w	n/a
881.771	0.225	1763542	keystroke_l	l	n/a
882.626	0.225	1765252	keystroke_Key.space	Key.space	n/a
883.781	0.15	1767562	keystroke_Key.backspace	Key.backspace	n/a
884.096	0.15	1768192	keystroke_Key.backspace	Key.backspace	n/a
884.351	0.135	1768702	keystroke_Key.backspace	Key.backspace	n/a
885.941	0.21	1771882	keystroke_l	l	n/a
889.89	0.146	1779780	keystroke_Key.space	Key.space	n/a
890.367	0.254	1780734	keystroke_p	p	n/a
890.531	0.181	1781062	keystroke_a	a	n/a
890.816	0.225	1781632	keystroke_n	n	n/a
891.027	0.27	1782054	keystroke_e	e	n/a
891.312	0.284	1782624	keystroke_l	l	n/a
891.521	0.181	1783042	keystroke_s	s	n/a
891.882	0.209	1783764	keystroke_Key.enter	Key.enter	n/a
892.098	23.802	1784196	prompt	n/a	byte aerospace treasure affects\n
896.22	0.087	1792440	keystroke_b	b	n/a
896.637	0.165	1793274	keystroke_y	y	n/a
896.757	0.225	1793514	keystroke_e	e	n/a
897.537	0.18	1795074	keystroke_Key.backspace	Key.backspace	n/a
897.672	0.285	1795344	keystroke_t	t	n/a
897.912	0.165	1795824	keystroke_e	e	n/a
898.512	0.194	1797024	keystroke_Key.space	Key.space	n/a
899.142	0.21	1798284	keystroke_a	a	n/a
899.367	0.27	1798734	keystroke_e	e	n/a
899.607	0.18	1799214	keystroke_r	r	n/a
900.012	0.225	1800024	keystroke_o	o	n/a
900.387	0.1785	1800774	keystroke_s	s	n/a
900.6715	0.224	1801343	keystroke_p	p	n/a
901.2415	0.134	1802483	keystroke_Key.backspace	Key.backspace	n/a
901.512	0.1195	1803024	keystroke_Key.backspace	Key.backspace	n/a
901.7065	0.105	1803413	keystroke_Key.backspace	Key.backspace	n/a
901.9315	0.119	1803863	keystroke_Key.backspace	Key.backspace	n/a
902.9515	0.18	1805903	keystroke_r	r	n/a
903.2065	0.225	1806413	keystroke_o	o	n/a
903.7315	0.18	1807463	keystroke_s	s	n/a
903.9565	0.2395	1807913	keystroke_p	p	n/a
904.2415	0.2395	1808483	keystroke_a	a	n/a
904.541	0.2415	1809082	keystroke_c	c	n/a
904.7515	0.195	1809503	keystroke_e	e	n/a
905.0065	0.24	1810013	keystroke_Key.space	Key.space	n/a
905.501	0.1655	1811002	keystroke_t	t	n/a
905.8165	0.255	1811633	keystroke_r	r	n/a
905.9675	0.209	1811935	keystroke_e	e	n/a
906.1465	0.225	1812293	keystroke_a	a	n/a
906.4015	0.1645	1812803	keystroke_t	t	n/a
906.642	0.269	1813284	keystroke_u	u	n/a
906.926	0.195	1813852	keystroke_r	r	n/a
907.076	0.2105	1814152	keystroke_e	e	n/a
907.3165	0.195	1814633	keystroke_Key.space	Key.space	n/a
907.5415	0.255	1815083	keystroke_a	a	n/a
907.9615	0.135	1815923	keystroke_f	f	n/a
908.2465	0.1945	1816493	keystroke_f	f	n/a
908.381	0.24	1816762	keystroke_e	e	n/a
909.0865	0.165	1818173	keystroke_Key.backspace	Key.backspace	n/a
909.3715	0.075	1818743	keystroke_Key.backspace	Key.backspace	n/a
909.5665	0.06	1819133	keystroke_Key.backspace	Key.backspace	n/a
909.7465	0.075	1819493	keystroke_Key.backspace	Key.backspace	n/a
909.9565	0.0745	1819913	keystroke_Key.backspace	Key.backspace	n/a
910.151	0.12	1820302	keystroke_Key.backspace	Key.backspace	n/a
910.376	0.12	1820752	keystroke_Key.backspace	Key.backspace	n/a
910.6165	0.15	1821233	keystroke_Key.backspace	Key.backspace	n/a
910.8865	0.15	1821773	keystroke_Key.backspace	Key.backspace	n/a
911.1265	0.2245	1822253	keystroke_s	s	n/a
911.7865	0.225	1823573	keystroke_u	u	n/a
912.1315	0.226	1824263	keystroke_r	r	n/a
912.2815	0.195	1824563	keystroke_e	e	n/a
912.5815	0.135	1825163	keystroke_Key.space	Key.space	n/a
912.9265	0.255	1825853	keystroke_a	a	n/a
913.2265	0.21	1826453	keystroke_f	f	n/a
913.571	0.2555	1827142	keystroke_f	f	n/a
913.782	0.225	1827564	keystroke_e	e	n/a
914.322	0.165	1828644	keystroke_c	c	n/a
914.801	0.2865	1829602	keystroke_t	t	n/a
915.056	0.226	1830112	keystroke_s	s	n/a
915.671	0.225	1831342	keystroke_Key.enter	Key.enter	n/a
915.9055	20.5585	1831811	prompt	n/a	associates puzzle followed titans\n
923.565	0.222	1847130	keystroke_a	a	n/a
923.772	0.149	1847544	keystroke_s	s	n/a
924.027	0.15	1848054	keystroke_s	s	n/a
924.372	0.24	1848744	keystroke_o	o	n/a
924.747	0.195	1849494	keystroke_c	c	n/a
925.107	0.24	1850214	keystroke_i	i	n/a
925.526	0.226	1851052	keystroke_a	a	n/a
925.812	0.27	1851624	keystroke_t	t	n/a
926.037	0.21	1852074	keystroke_e	e	n/a
926.217	0.135	1852434	keystroke_s	s	n/a
926.516	0.255	1853032	keystroke_Key.space	Key.space	n/a
926.997	0.255	1853994	keystroke_p	p	n/a
927.207	0.195	1854414	keystroke_u	u	n/a
927.507	0.225	1855014	keystroke_z	z	n/a
927.822	0.18	1855644	keystroke_z	z	n/a
928.062	0.255	1856124	keystroke_l	l	n/a
928.362	0.21	1856724	keystroke_e	e	n/a
928.527	0.18	1857054	keystroke_s	s	n/a
928.782	0.21	1857564	keystroke_Key.space	Key.space	n/a
929.097	0.21	1858194	keystroke_f	f	n/a
929.757	0.12	1859514	keystroke_Key.backspace	Key.backspace	n/a
930.027	0.03	1860054	keystroke_Key.backspace	Key.backspace	n/a
930.207	0.09	1860414	keystroke_Key.backspace	Key.backspace	n/a
930.477	0.045	1860954	keystroke_Key.backspace	Key.backspace	n/a
931.152	0.225	1862304	keystroke_e	e	n/a
931.617	0.255	1863234	keystroke_Key.space	Key.space	n/a
932.202	0.21	1864404	keystroke_f	f	n/a
932.472	0.165	1864944	keystroke_o	o	n/a
932.787	0.135	1865574	keystroke_l	l	n/a
933.012	0.135	1866024	keystroke_l	l	n/a
933.312	0.225	1866624	keystroke_o	o	n/a
933.462	0.21	1866924	keystroke_w	w	n/a
933.642	0.165	1867284	keystroke_e	e	n/a
934.017	0.21	1868034	keystroke_d	d	n/a
934.332	0.225	1868664	keystroke_Key.space	Key.space	n/a
934.782	0.165	1869564	keystroke_t	t	n/a
934.977	0.24	1869954	keystroke_i	i	n/a
935.082	0.285	1870164	keystroke_t	t	n/a
935.337	0.21	1870674	keystroke_a	a	n/a
935.607	0.24	1871214	keystroke_n	n	n/a
935.802	0.165	1871604	keystroke_s	s	n/a
936.267	0.195	1872534	keystroke_Key.enter	Key.enter	n/a
936.47	27.0695	1872940	prompt	n/a	claim organization gives cases\n
941.865	0.027	1883730	keystroke_s	s	n/a
942.8065	0.18	1885613	keystroke_Key.backspace	Key.backspace	n/a
943.2415	0.21	1886483	keystroke_c	c	n/a
943.7965	0.226	1887593	keystroke_l	l	n/a
944.2025	0.239	1888405	keystroke_a	a	n/a
944.5325	0.389	1889065	keystroke_i	i	n/a
944.7265	0.151	1889453	keystroke_n	n	n/a
944.7725	0.179	1889545	keystroke_m	m	n/a
945.7165	0.12	1891433	keystroke_Key.backspace	Key.backspace	n/a
949.1105	0.056	1898221	keystroke_Key.backspace	Key.backspace	n/a
950.307	0.09	1900614	keystroke_m	m	n/a
951.462	0.27	1902924	keystroke_Key.space	Key.space	n/a
952.647	0.21	1905294	keystroke_o	o	n/a
952.797	0.195	1905594	keystroke_r	r	n/a
953.232	0.18	1906464	keystroke_g	g	n/a
953.562	0.345	1907124	keystroke_i	i	n/a
953.817	0.195	1907634	keystroke_n	n	n/a
954.657	0.15	1909314	keystroke_Key.backspace	Key.backspace	n/a
954.912	0.135	1909824	keystroke_Key.backspace	Key.backspace	n/a
955.887	0.225	1911774	keystroke_a	a	n/a
956.367	0.195	1912734	keystroke_n	n	n/a
956.952	0.21	1913904	keystroke_i	i	n/a
957.462	0.225	1914924	keystroke_z	z	n/a
957.882	0.24	1915764	keystroke_a	a	n/a
958.182	0.18	1916364	keystroke_t	t	n/a
958.332	0.24	1916664	keystroke_i	i	n/a
958.512	0.3	1917024	keystroke_o	o	n/a
958.647	0.255	1917294	keystroke_n	n	n/a
958.962	0.255	1917924	keystroke_Key.space	Key.space	n/a
959.202	0.195	1918404	keystroke_g	g	n/a
959.427	0.315	1918854	keystroke_i	i	n/a
959.592	0.225	1919184	keystroke_v	v	n/a
959.772	0.225	1919544	keystroke_e	e	n/a
959.937	0.165	1919874	keystroke_s	s	n/a
960.072	0.255	1920144	keystroke_Key.space	Key.space	n/a
960.792	0.3	1921584	keystroke_c	c	n/a
961.047	0.195	1922094	keystroke_a	a	n/a
961.272	0.27	1922544	keystroke_e	e	n/a
