onset	duration	sample	value	key	prompt_text
69.891	8.4125	139782	prompt	n/a	the quick brown fox jumps over a lazy dog\n
71.621	0.151	143242	keystroke	t	n/a
71.7645	0.1115	143529	keystroke	h	n/a
71.86	0.112	143720	keystroke	e	n/a
72.0035	0.0965	144007	keystroke	Key.space	n/a
72.1085	0.12	144217	keystroke	q	n/a
72.244	0.1445	144488	keystroke	u	n/a
72.3485	0.1115	144697	keystroke	i	n/a
72.452	0.136	144904	keystroke	c	n/a
72.589	0.199	145178	keystroke	k	n/a
72.7485	0.1355	145497	keystroke	Key.space	n/a
73.308	0.0795	146616	keystroke	b	n/a
73.5645	0.1115	147129	keystroke	r	n/a
73.7085	0.119	147417	keystroke	o	n/a
73.836	0.1045	147672	keystroke	w	n/a
73.9405	0.1755	147881	keystroke	n	n/a
74.0835	0.1285	148167	keystroke	Key.space	n/a
74.2685	0.1275	148537	keystroke	f	n/a
74.3875	0.088	148775	keystroke	o	n/a
74.532	0.112	149064	keystroke	x	n/a
74.6595	0.112	149319	keystroke	Key.space	n/a
74.7555	0.168	149511	keystroke	j	n/a
74.9315	0.0885	149863	keystroke	u	n/a
75.027	0.1855	150054	keystroke	m	n/a
75.22	0.103	150440	keystroke	p	n/a
75.3315	0.1125	150663	keystroke	s	n/a
75.475	0.137	150950	keystroke	Key.space	n/a
75.596	0.136	151192	keystroke	o	n/a
75.723	0.065	151446	keystroke	v	n/a
75.868	0.1435	151736	keystroke	e	n/a
76.1635	0.1285	152327	keystroke	r	n/a
76.372	0.1275	152744	keystroke	Key.space	n/a
76.6915	0.128	153383	keystroke	a	n/a
76.8205	0.127	153641	keystroke	Key.space	n/a
77.0435	0.0965	154087	keystroke	l	n/a
77.1315	0.1285	154263	keystroke	a	n/a
77.356	0.12	154712	keystroke	z	n/a
77.6285	0.1115	155257	keystroke	y	n/a
77.772	0.1035	155544	keystroke	Key.space	n/a
77.8845	0.112	155769	keystroke	d	n/a
77.98	0.0885	155960	keystroke	o	n/a
78.076	0.104	156152	keystroke	g	n/a
78.188	0.112	156376	keystroke	Key.enter	n/a
78.3095	9.2415	156619	prompt	n/a	transferred modems beneath electrical\n
79.0445	0.1355	158089	keystroke	t	n/a
79.3005	0.1675	158601	keystroke	r	n/a
79.484	0.1675	158968	keystroke	a	n/a
79.6765	0.096	159353	keystroke	n	n/a
79.9005	0.1275	159801	keystroke	s	n/a
80.1405	0.104	160281	keystroke	f	n/a
80.468	0.1755	160936	keystroke	e	n/a
80.7	0.064	161400	keystroke	r	n/a
80.78	0.1195	161560	keystroke	r	n/a
81.3085	0.167	162617	keystroke	r	n/a
81.756	0.0715	163512	keystroke	Key.backspace	n/a
82.0685	0.2155	164137	keystroke	e	n/a
82.236	0.144	164472	keystroke	d	n/a
82.412	0.152	164824	keystroke	Key.space	n/a
82.8445	0.1675	165689	keystroke	m	n/a
82.9725	0.103	165945	keystroke	o	n/a
83.0685	0.0955	166137	keystroke	d	n/a
83.276	0.184	166552	keystroke	e	n/a
83.644	0.104	167288	keystroke	m	n/a
84.076	0.1115	168152	keystroke	s	n/a
84.252	0.1195	168504	keystroke	Key.space	n/a
84.4595	0.064	168919	keystroke	b	n/a
84.6445	0.152	169289	keystroke	e	n/a
84.788	0.072	169576	keystroke	n	n/a
84.9715	0.121	169943	keystroke	e	n/a
85.1	0.176	170200	keystroke	a	n/a
85.26	0.136	170520	keystroke	t	n/a
85.436	0.104	170872	keystroke	h	n/a
85.531	0.1125	171062	keystroke	Key.space	n/a
85.708	0.1045	171416	keystroke	e	n/a
85.964	0.088	171928	keystroke	l	n/a
86.068	0.1435	172136	keystroke	e	n/a
86.3475	0.088	172695	keystroke	c	n/a
86.5805	0.175	173161	keystroke	t	n/a
86.6835	0.1035	173367	keystroke	r	n/a
86.8125	0.1195	173625	keystroke	i	n/a
86.964	0.136	173928	keystroke	c	n/a
87.068	0.144	174136	keystroke	a	n/a
87.156	0.104	174312	keystroke	l	n/a
87.436	0.112	174872	keystroke	Key.enter	n/a
87.5555	8.763	175111	prompt	n/a	francisco february cedar brand\n
88.6275	0.0565	177255	keystroke	f	n/a
88.796	0.16	177592	keystroke	r	n/a
88.916	0.176	177832	keystroke	a	n/a
89.684	0.112	179368	keystroke	n	n/a
89.964	0.1515	179928	keystroke	c	n/a
90.2035	0.152	180407	keystroke	i	n/a
90.3795	0.104	180759	keystroke	s	n/a
90.6755	0.1125	181351	keystroke	o	n/a
91.3395	0.1045	182679	keystroke	Key.backspace	n/a
91.4925	0.151	182985	keystroke	c	n/a
91.6835	0.153	183367	keystroke	o	n/a
91.892	0.143	183784	keystroke	Key.space	n/a
92.2515	0.1365	184503	keystroke	f	n/a
92.428	0.1035	184856	keystroke	e	n/a
92.6925	0.12	185385	keystroke	b	n/a
93.276	0.1435	186552	keystroke	r	n/a
93.5235	0.113	187047	keystroke	u	n/a
93.668	0.159	187336	keystroke	a	n/a
93.78	0.1115	187560	keystroke	r	n/a
94.036	0.12	188072	keystroke	y	n/a
94.195	0.121	188390	keystroke	Key.space	n/a
94.4765	0.135	188953	keystroke	c	n/a
94.6675	0.112	189335	keystroke	e	n/a
94.8685	0.1035	189737	keystroke	d	n/a
95.06	0.1605	190120	keystroke	a	n/a
95.148	0.136	190296	keystroke	r	n/a
95.3	0.1195	190600	keystroke	Key.space	n/a
95.5555	0.073	191111	keystroke	b	n/a
95.756	0.1755	191512	keystroke	r	n/a
95.8525	0.151	191705	keystroke	a	n/a
96.0115	0.0725	192023	keystroke	n	n/a
96.1	0.088	192200	keystroke	d	n/a
96.236	0.0795	192472	keystroke	Key.enter	n/a
96.323	8.82	192646	prompt	n/a	beginners pichunter brass psychiatry\n
96.98	0.112	193960	keystroke	b	n/a
97.188	0.104	194376	keystroke	e	n/a
97.404	0.088	194808	keystroke	g	n/a
97.572	0.095	195144	keystroke	i	n/a
97.7885	0.0715	195577	keystroke	n	n/a
97.9475	0.08	195895	keystroke	n	n/a
98.0445	0.119	196089	keystroke	e	n/a
98.108	0.16	196216	keystroke	r	n/a
98.2275	0.1125	196455	keystroke	s	n/a
98.468	0.143	196936	keystroke	Key.space	n/a
98.8675	0.1285	197735	keystroke	p	n/a
99.196	0.12	198392	keystroke	i	n/a
99.3795	0.1285	198759	keystroke	c	n/a
99.5315	0.088	199063	keystroke	h	n/a
99.8035	0.1765	199607	keystroke	u	n/a
99.9485	0.1035	199897	keystroke	n	n/a
100.084	0.128	200168	keystroke	t	n/a
100.212	0.1685	200424	keystroke	e	n/a
100.3325	0.1275	200665	keystroke	r	n/a
100.467	0.1365	200934	keystroke	Key.space	n/a
100.667	0.08	201334	keystroke	b	n/a
100.876	0.16	201752	keystroke	r	n/a
100.98	0.1595	201960	keystroke	a	n/a
101.0595	0.096	202119	keystroke	s	n/a
101.2435	0.0805	202487	keystroke	s	n/a
101.356	0.168	202712	keystroke	Key.space	n/a
101.54	0.144	203080	keystroke	p	n/a
101.948	0.12	203896	keystroke	s	n/a
102.14	0.12	204280	keystroke	y	n/a
102.636	0.1595	205272	keystroke	c	n/a
102.8115	0.097	205623	keystroke	h	n/a
103.172	0.128	206344	keystroke	i	n/a
103.86	0.16	207720	keystroke	a	n/a
104.116	0.103	208232	keystroke	t	n/a
104.3235	0.112	208647	keystroke	r	n/a
104.54	0.104	209080	keystroke	y	n/a
105.012	0.1275	210024	keystroke	Key.enter	n/a
105.148	6.8745	210296	prompt	n/a	warrant cross perspective structures\n
105.74	0.088	211480	keystroke	w	n/a
105.9405	0.151	211881	keystroke	a	n/a
106.0675	0.064	212135	keystroke	r	n/a
106.228	0.112	212456	keystroke	r	n/a
106.3555	0.152	212711	keystroke	a	n/a
106.5395	0.0805	213079	keystroke	n	n/a
106.6205	0.096	213241	keystroke	t	n/a
106.756	0.1675	213512	keystroke	Key.space	n/a
106.9315	0.08	213863	keystroke	c	n/a
107.14	0.08	214280	keystroke	r	n/a
107.2275	0.104	214455	keystroke	o	n/a
107.34	0.063	214680	keystroke	s	n/a
107.492	0.08	214984	keystroke	s	n/a
107.588	0.152	215176	keystroke	Key.space	n/a
107.7405	0.1275	215481	keystroke	p	n/a
107.876	0.1605	215752	keystroke	e	n/a
107.972	0.112	215944	keystroke	r	n/a
108.116	0.1355	216232	keystroke	s	n/a
108.2595	0.0965	216519	keystroke	p	n/a
108.3085	0.1275	216617	keystroke	e	n/a
108.8035	0.112	217607	keystroke	c	n/a
109.2755	0.1205	218551	keystroke	t	n/a
109.4355	0.1365	218871	keystroke	i	n/a
109.54	0.088	219080	keystroke	v	n/a
109.708	0.128	219416	keystroke	e	n/a
109.8595	0.1445	219719	keystroke	Key.space	n/a
110.1635	0.168	220327	keystroke	s	n/a
110.62	0.0725	221240	keystroke	t	n/a
110.7955	0.0805	221591	keystroke	r	n/a
110.956	0.104	221912	keystroke	u	n/a
111.116	0.0795	222232	keystroke	c	n/a
111.3485	0.071	222697	keystroke	t	n/a
111.476	0.1035	222952	keystroke	u	n/a
111.5715	0.16	223143	keystroke	r	n/a
111.6675	0.1445	223335	keystroke	e	n/a
111.7325	0.119	223465	keystroke	s	n/a
111.8755	0.1445	223751	keystroke	Key.enter	n/a
112.027	5.6185	224054	prompt	n/a	sitting chip exclude plaintiff\n
112.6355	0.2005	225271	keystroke	s	n/a
112.892	0.0955	225784	keystroke	i	n/a
113.028	0.0875	226056	keystroke	t	n/a
113.1955	0.0965	226391	keystroke	t	n/a
113.2675	0.144	226535	keystroke	i	n/a
113.348	0.0955	226696	keystroke	n	n/a
113.4275	0.12	226855	keystroke	g	n/a
113.563	0.1205	227126	keystroke	Key.space	n/a
113.7795	0.136	227559	keystroke	c	n/a
113.8595	0.1605	227719	keystroke	h	n/a
113.9635	0.128	227927	keystroke	i	n/a
114.1635	0.184	228327	keystroke	p	n/a
114.3485	0.1115	228697	keystroke	Key.space	n/a
114.62	0.0875	229240	keystroke	e	n/a
114.8195	0.16	229639	keystroke	x	n/a
114.9875	0.184	229975	keystroke	c	n/a
115.1235	0.1435	230247	keystroke	l	n/a
115.2045	0.1345	230409	keystroke	u	n/a
115.3	0.072	230600	keystroke	d	n/a
115.467	0.12	230934	keystroke	e	n/a
115.579	0.12	231158	keystroke	Key.space	n/a
115.7795	0.0805	231559	keystroke	p	n/a
116.0035	0.08	232007	keystroke	l	n/a
116.124	0.143	232248	keystroke	a	n/a
116.244	0.1595	232488	keystroke	i	n/a
116.356	0.08	232712	keystroke	n	n/a
117.003	0.089	234006	keystroke	t	n/a
117.1955	0.1195	234391	keystroke	i	n/a
117.3235	0.0635	234647	keystroke	f	n/a
117.4835	0.072	234967	keystroke	f	n/a
117.563	0.0805	235126	keystroke	Key.enter	n/a
117.6505	7.5635	235301	prompt	n/a	marc pike jason warning\n
119.468	0.095	238936	keystroke	m	n/a
119.579	0.153	239158	keystroke	a	n/a
119.668	0.0795	239336	keystroke	r	n/a
119.9315	0.1605	239863	keystroke	c	n/a
120.1075	0.1285	240215	keystroke	Key.space	n/a
120.2675	0.184	240535	keystroke	p	n/a
120.5555	0.112	241111	keystroke	o	n/a
121.051	0.08	242102	keystroke	Key.backspace	n/a
121.292	0.095	242584	keystroke	i	n/a
121.499	0.104	242998	keystroke	k	n/a
121.603	0.1365	243206	keystroke	e	n/a
121.899	0.104	243798	keystroke	Key.space	n/a
122.451	0.089	244902	keystroke	j	n/a
122.5475	0.184	245095	keystroke	a	n/a
122.66	0.1755	245320	keystroke	s	n/a
122.8035	0.169	245607	keystroke	o	n/a
122.916	0.1435	245832	keystroke	n	n/a
123.0275	0.144	246055	keystroke	Key.space	n/a
123.276	0.16	246552	keystroke	a	n/a
123.42	0.1115	246840	keystroke	w	n/a
123.692	0.0635	247384	keystroke	Key.backspace	n/a
123.8515	0.072	247703	keystroke	Key.backspace	n/a
123.9395	0.0965	247879	keystroke	w	n/a
124.0435	0.1595	248087	keystroke	a	n/a
124.171	0.129	248342	keystroke	r	n/a
124.331	0.113	248662	keystroke	n	n/a
124.756	0.1675	249512	keystroke	i	n/a
124.883	0.0805	249766	keystroke	n	n/a
124.9555	0.12	249911	keystroke	g	n/a
125.1075	0.104	250215	keystroke	Key.enter	n/a
125.2185	6.387	250437	prompt	n/a	shorts brave approaches addressing\n
126.1635	0.1605	252327	keystroke	s	n/a
126.308	0.1515	252616	keystroke	h	n/a
126.404	0.151	252808	keystroke	o	n/a
126.499	0.088	252998	keystroke	r	n/a
126.683	0.137	253366	keystroke	t	n/a
126.779	0.097	253558	keystroke	s	n/a
126.899	0.12	253798	keystroke	Key.space	n/a
127.059	0.105	254118	keystroke	b	n/a
127.2755	0.136	254551	keystroke	r	n/a
127.396	0.128	254792	keystroke	a	n/a
127.588	0.095	255176	keystroke	v	n/a
127.74	0.1355	255480	keystroke	e	n/a
127.915	0.1045	255830	keystroke	Key.space	n/a
128.059	0.16	256118	keystroke	a	n/a
128.179	0.072	256358	keystroke	p	n/a
128.3155	0.0965	256631	keystroke	p	n/a
128.7155	0.1205	257431	keystroke	r	n/a
128.8435	0.1045	257687	keystroke	o	n/a
129.0035	0.16	258007	keystroke	a	n/a
129.132	0.1435	258264	keystroke	c	n/a
129.2515	0.088	258503	keystroke	h	n/a
129.3235	0.2	258647	keystroke	e	n/a
129.4275	0.112	258855	keystroke	s	n/a
129.5955	0.136	259191	keystroke	Key.space	n/a
129.8115	0.1765	259623	keystroke	a	n/a
129.988	0.1195	259976	keystroke	d	n/a
130.195	0.0895	260390	keystroke	d	n/a
130.412	0.159	260824	keystroke	r	n/a
130.4675	0.1755	260935	keystroke	e	n/a
130.6275	0.0955	261255	keystroke	s	n/a
130.7955	0.0645	261591	keystroke	s	n/a
131.22	0.135	262440	keystroke	i	n/a
131.316	0.087	262632	keystroke	n	n/a
131.371	0.08	262742	keystroke	g	n/a
131.4915	0.1115	262983	keystroke	Key.enter	n/a
131.6095	6.764	263219	prompt	n/a	requires opponent curtis commodities\n
132.203	0.1445	264406	keystroke	r	n/a
132.267	0.1285	264534	keystroke	e	n/a
132.476	0.1035	264952	keystroke	q	n/a
132.6115	0.168	265223	keystroke	u	n/a
132.707	0.1205	265414	keystroke	i	n/a
132.771	0.152	265542	keystroke	r	n/a
132.8355	0.1595	265671	keystroke	e	n/a
133.0195	0.128	266039	keystroke	Key.space	n/a
133.2595	0.1205	266519	keystroke	o	n/a
133.3955	0.088	266791	keystroke	p	n/a
133.5875	0.08	267175	keystroke	p	n/a
133.9475	0.096	267895	keystroke	o	n/a
134.268	0.0715	268536	keystroke	n	n/a
134.379	0.113	268758	keystroke	e	n/a
134.499	0.089	268998	keystroke	n	n/a
134.644	0.1275	269288	keystroke	t	n/a
134.867	0.1115	269734	keystroke	Key.space	n/a
135.1235	0.088	270247	keystroke	c	n/a
135.2915	0.112	270583	keystroke	u	n/a
135.4915	0.0885	270983	keystroke	r	n/a
135.6835	0.1045	271367	keystroke	t	n/a
135.8045	0.0865	271609	keystroke	i	n/a
135.908	0.103	271816	keystroke	s	n/a
136.0995	0.1195	272199	keystroke	Key.space	n/a
136.3235	0.1435	272647	keystroke	c	n/a
136.4355	0.1435	272871	keystroke	o	n/a
136.555	0.072	273110	keystroke	m	n/a
136.732	0.071	273464	keystroke	m	n/a
137.0835	0.112	274167	keystroke	o	n/a
137.3235	0.12	274647	keystroke	d	n/a
137.4915	0.1115	274983	keystroke	i	n/a
137.6515	0.1285	275303	keystroke	t	n/a
137.763	0.145	275526	keystroke	i	n/a
137.956	0.1595	275912	keystroke	e	n/a
138.059	0.129	276118	keystroke	s	n/a
138.2515	0.1195	276503	keystroke	Key.enter	n/a
138.377	7.14	276754	prompt	n/a	vary licensed suggests organizing\n
138.9955	0.1035	277991	keystroke	v	n/a
139.1475	0.136	278295	keystroke	a	n/a
139.252	0.104	278504	keystroke	r	n/a
139.4675	0.088	278935	keystroke	y	n/a
139.588	0.1595	279176	keystroke	Key.space	n/a
139.7795	0.176	279559	keystroke	l	n/a
139.8675	0.128	279735	keystroke	i	n/a
140.011	0.184	280022	keystroke	s	n/a
140.9315	0.096	281863	keystroke	Key.backspace	n/a
141.1315	0.152	282263	keystroke	c	n/a
141.3235	0.168	282647	keystroke	e	n/a
141.5395	0.112	283079	keystroke	n	n/a
141.6755	0.192	283351	keystroke	s	n/a
141.7635	0.1365	283527	keystroke	e	n/a
141.9795	0.0795	283959	keystroke	Key.space	n/a
142.3715	0.088	284743	keystroke	Key.backspace	n/a
142.4755	0.1275	284951	keystroke	d	n/a
142.6355	0.1045	285271	keystroke	Key.space	n/a
142.732	0.1115	285464	keystroke	s	n/a
142.884	0.079	285768	keystroke	u	n/a
142.964	0.0635	285928	keystroke	g	n/a
143.099	0.072	286198	keystroke	g	n/a
143.244	0.16	286488	keystroke	e	n/a
143.3555	0.1445	286711	keystroke	s	n/a
143.468	0.128	286936	keystroke	t	n/a
143.6675	0.0955	287335	keystroke	s	n/a
143.8595	0.128	287719	keystroke	Key.space	n/a
144.028	0.12	288056	keystroke	o	n/a
144.1075	0.0955	288215	keystroke	r	n/a
144.3475	0.128	288695	keystroke	g	n/a
144.459	0.12	288918	keystroke	a	n/a
144.612	0.1505	289224	keystroke	n	n/a
144.7715	0.096	289543	keystroke	i	n/a
144.8755	0.112	289751	keystroke	z	n/a
144.995	0.1445	289990	keystroke	i	n/a
145.14	0.087	290280	keystroke	n	n/a
145.2435	0.104	290487	keystroke	g	n/a
145.4195	0.095	290839	keystroke	Key.enter	n/a
145.521	7.244	291042	prompt	n/a	dakota costs lobby negative\n
146.3155	0.095	292631	keystroke	d	n/a
146.556	0.159	293112	keystroke	a	n/a
147.451	0.112	294902	keystroke	k	n/a
147.6835	0.104	295367	keystroke	o	n/a
147.827	0.16	295654	keystroke	t	n/a
147.9555	0.1595	295911	keystroke	a	n/a
148.139	0.12	296278	keystroke	Key.space	n/a
148.3	0.135	296600	keystroke	c	n/a
148.4115	0.1045	296823	keystroke	o	n/a
148.5	0.1195	297000	keystroke	s	n/a
148.627	0.153	297254	keystroke	t	n/a
148.7315	0.136	297463	keystroke	s	n/a
148.883	0.128	297766	keystroke	Key.space	n/a
149.147	0.081	298294	keystroke	l	n/a
149.316	0.087	298632	keystroke	o	n/a
149.4825	0.033	298965	keystroke	b	n/a
149.611	0.0485	299222	keystroke	b	n/a
149.859	0.0965	299718	keystroke	y	n/a
150.091	0.096	300182	keystroke	Key.space	n/a
150.388	0.087	300776	keystroke	n	n/a
150.4515	0.0955	300903	keystroke	e	n/a
150.6115	0.1115	301223	keystroke	g	n/a
150.7555	0.136	301511	keystroke	a	n/a
150.843	0.0965	301686	keystroke	t	n/a
151.0595	0.1035	302119	keystroke	i	n/a
151.147	0.024	302294	keystroke	v	n/a
151.2425	0.049	302485	keystroke	v	n/a
151.3635	0.04	302727	keystroke	e	n/a
151.7875	0.104	303575	keystroke	Key.backspace	n/a
152.0105	0.057	304021	keystroke	Key.backspace	n/a
152.5395	0.111	305079	keystroke	e	n/a
152.6595	0.1035	305319	keystroke	Key.enter	n/a
152.7675	5.3255	305535	prompt	n/a	cheaper voted studying draw\n
153.403	0.1605	306806	keystroke	c	n/a
153.499	0.088	306998	keystroke	h	n/a
153.571	0.1285	307142	keystroke	e	n/a
153.659	0.144	307318	keystroke	a	n/a
153.7315	0.1035	307463	keystroke	p	n/a
153.852	0.1355	307704	keystroke	e	n/a
153.955	0.096	307910	keystroke	r	n/a
154.067	0.112	308134	keystroke	Key.space	n/a
154.251	0.0885	308502	keystroke	c	n/a
154.6195	0.0715	309239	keystroke	Key.backspace	n/a
154.7475	0.112	309495	keystroke	v	n/a
154.8755	0.104	309751	keystroke	o	n/a
154.9955	0.128	309991	keystroke	t	n/a
155.1155	0.1755	310231	keystroke	e	n/a
155.403	0.1125	310806	keystroke	d	n/a
155.8515	0.127	311703	keystroke	Key.space	n/a
156.0115	0.127	312023	keystroke	s	n/a
156.0835	0.128	312167	keystroke	t	n/a
156.5395	0.0875	313079	keystroke	u	n/a
156.6915	0.0955	313383	keystroke	d	n/a
156.867	0.0965	313734	keystroke	y	n/a
156.956	0.16	313912	keystroke	i	n/a
157.059	0.0955	314118	keystroke	n	n/a
157.1635	0.088	314327	keystroke	g	n/a
157.3395	0.1115	314679	keystroke	Key.space	n/a
157.5075	0.128	315015	keystroke	d	n/a
157.66	0.1585	315320	keystroke	r	n/a
157.8035	0.184	315607	keystroke	a	n/a
157.8905	0.113	315781	keystroke	w	n/a
157.9945	0.097	315989	keystroke	Key.enter	n/a
158.0965	4.381	316193	prompt	n/a	looking rural avenue is\n
158.6595	0.08	317319	keystroke	l	n/a
158.8275	0.072	317655	keystroke	o	n/a
158.9875	0.104	317975	keystroke	o	n/a
159.0675	0.096	318135	keystroke	k	n/a
159.2595	0.144	318519	keystroke	i	n/a
159.355	0.0805	318710	keystroke	n	n/a
159.4665	0.0885	318933	keystroke	g	n/a
159.5395	0.0955	319079	keystroke	Key.space	n/a
159.939	0.088	319878	keystroke	r	n/a
160.067	0.088	320134	keystroke	u	n/a
160.163	0.112	320326	keystroke	r	n/a
160.283	0.1595	320566	keystroke	a	n/a
160.5225	0.241	321045	keystroke	l	n/a
160.7865	0.1365	321573	keystroke	Key.space	n/a
160.931	0.1515	321862	keystroke	a	n/a
161.123	0.0795	322246	keystroke	v	n/a
161.283	0.1275	322566	keystroke	e	n/a
161.403	0.0965	322806	keystroke	n	n/a
161.683	0.0565	323366	keystroke	u	n/a
161.763	0.128	323526	keystroke	e	n/a
161.971	0.136	323942	keystroke	Key.space	n/a
162.1155	0.0795	324231	keystroke	i	n/a
162.155	0.096	324310	keystroke	s	n/a
162.355	0.12	324710	keystroke	Key.enter	n/a
162.482	8.74	324964	prompt	n/a	liquid affiliate sailing monroe\n
162.9955	0.135	325991	keystroke	l	n/a
163.563	0.104	327126	keystroke	i	n/a
163.9635	0.1355	327927	keystroke	q	n/a
164.091	0.2005	328182	keystroke	u	n/a
164.1875	0.104	328375	keystroke	i	n/a
164.3075	0.144	328615	keystroke	d	n/a
164.475	0.136	328950	keystroke	Key.space	n/a
164.6995	0.1275	329399	keystroke	a	n/a
164.9395	0.072	329879	keystroke	f	n/a
165.107	0.0965	330214	keystroke	f	n/a
166.3555	0.1275	332711	keystroke	i	n/a
166.6125	0.199	333225	keystroke	l	n/a
166.7875	0.128	333575	keystroke	i	n/a
166.9955	0.16	333991	keystroke	a	n/a
167.1395	0.136	334279	keystroke	t	n/a
167.2035	0.16	334407	keystroke	e	n/a
167.3795	0.128	334759	keystroke	Key.space	n/a
167.6675	0.152	335335	keystroke	s	n/a
167.8995	0.136	335799	keystroke	a	n/a
167.9795	0.144	335959	keystroke	i	n/a
168.0755	0.152	336151	keystroke	l	n/a
168.2355	0.176	336471	keystroke	i	n/a
168.3555	0.167	336711	keystroke	n	n/a
168.5395	0.144	337079	keystroke	g	n/a
168.6915	0.143	337383	keystroke	Key.space	n/a
169.0595	0.12	338119	keystroke	o	n/a
169.4905	0.088	338981	keystroke	Key.backspace	n/a
169.763	0.128	339526	keystroke	m	n/a
170.035	0.088	340070	keystroke	o	n/a
170.331	0.088	340662	keystroke	n	n/a
170.5945	0.1205	341189	keystroke	r	n/a
170.6995	0.135	341399	keystroke	o	n/a
170.9235	0.12	341847	keystroke	e	n/a
171.1315	0.087	342263	keystroke	Key.enter	n/a
171.226	9.2985	342452	prompt	n/a	amended obtain velocity dash\n
173.963	0.176	347926	keystroke	a	n/a
174.115	0.1195	348230	keystroke	m	n/a
174.251	0.096	348502	keystroke	e	n/a
174.9785	0.112	349957	keystroke	n	n/a
175.1955	0.095	350391	keystroke	d	n/a
175.3865	0.1925	350773	keystroke	e	n/a
175.523	0.152	351046	keystroke	d	n/a
175.683	0.1605	351366	keystroke	Key.space	n/a
175.915	0.072	351830	keystroke	b	n/a
176.267	0.064	352534	keystroke	Key.backspace	n/a
176.5075	0.096	353015	keystroke	o	n/a
176.6435	0.088	353287	keystroke	b	n/a
176.8995	0.1675	353799	keystroke	t	n/a
177.019	0.168	354038	keystroke	a	n/a
177.1555	0.1275	354311	keystroke	i	n/a
177.251	0.1285	354502	keystroke	n	n/a
177.595	0.144	355190	keystroke	Key.space	n/a
177.811	0.048	355622	keystroke	v	n/a
178.2825	0.113	356565	keystroke	e	n/a
178.707	0.113	357414	keystroke	l	n/a
178.9955	0.088	357991	keystroke	o	n/a
179.131	0.0645	358262	keystroke	c	n/a
179.3715	0.1035	358743	keystroke	i	n/a
179.499	0.0805	358998	keystroke	t	n/a
179.6835	0.0955	359367	keystroke	y	n/a
179.7875	0.1515	359575	keystroke	Key.space	n/a
179.923	0.1365	359846	keystroke	d	n/a
180.043	0.16	360086	keystroke	a	n/a
180.139	0.112	360278	keystroke	s	n/a
180.2515	0.0875	360503	keystroke	h	n/a
180.435	0.0885	360870	keystroke	Key.enter	n/a
180.5285	5.354	361057	prompt	n/a	clone stays tanks choices\n
181.147	0.112	362294	keystroke	c	n/a
181.2515	0.0715	362503	keystroke	l	n/a
181.419	0.12	362838	keystroke	o	n/a
181.6195	0.0875	363239	keystroke	e	n/a
181.667	0.048	363334	keystroke	n	n/a
182.3305	0.048	364661	keystroke	Key.backspace	n/a
182.4675	0.071	364935	keystroke	Key.backspace	n/a
182.7075	0.08	365415	keystroke	n	n/a
182.8105	0.105	365621	keystroke	e	n/a
182.9545	0.112	365909	keystroke	Key.space	n/a
183.0425	0.12	366085	keystroke	s	n/a
183.1475	0.103	366295	keystroke	t	n/a
183.2745	0.1285	366549	keystroke	a	n/a
183.3625	0.0805	366725	keystroke	y	n/a
183.506	0.097	367012	keystroke	s	n/a
183.619	0.1195	367238	keystroke	Key.space	n/a
183.7305	0.1365	367461	keystroke	t	n/a
183.811	0.128	367622	keystroke	a	n/a
183.907	0.159	367814	keystroke	n	n/a
184.003	0.1765	368006	keystroke	k	n/a
184.1875	0.12	368375	keystroke	Key.space	n/a
184.3875	0.119	368775	keystroke	c	n/a
184.4835	0.16	368967	keystroke	h	n/a
184.6115	0.192	369223	keystroke	o	n/a
184.7155	0.144	369431	keystroke	i	n/a
185.2835	0.167	370567	keystroke	c	n/a
185.3875	0.151	370775	keystroke	e	n/a
185.475	0.1035	370950	keystroke	s	n/a
185.771	0.105	371542	keystroke	Key.enter	n/a
185.8925	4.1125	371785	prompt	n/a	then flexible colon males\n
186.5235	0.104	373047	keystroke	t	n/a
186.5795	0.096	373159	keystroke	h	n/a
186.7235	0.1275	373447	keystroke	e	n/a
186.835	0.136	373670	keystroke	n	n/a
186.971	0.1205	373942	keystroke	Key.space	n/a
187.139	0.1125	374278	keystroke	f	n/a
187.2995	0.12	374599	keystroke	l	n/a
187.515	0.0965	375030	keystroke	e	n/a
187.7635	0.112	375527	keystroke	x	n/a
187.8915	0.1115	375783	keystroke	i	n/a
188.035	0.08	376070	keystroke	b	n/a
188.171	0.08	376342	keystroke	l	n/a
188.275	0.0955	376550	keystroke	e	n/a
188.3945	0.1205	376789	keystroke	Key.space	n/a
188.5305	0.1445	377061	keystroke	c	n/a
188.699	0.088	377398	keystroke	o	n/a
188.899	0.072	377798	keystroke	l	n/a
189.075	0.1125	378150	keystroke	o	n/a
189.1875	0.143	378375	keystroke	n	n/a
189.3385	0.104	378677	keystroke	Key.space	n/a
189.4745	0.096	378949	keystroke	m	n/a
189.595	0.0875	379190	keystroke	a	n/a
189.667	0.104	379334	keystroke	l	n/a
189.747	0.1525	379494	keystroke	e	n/a
189.8595	0.0795	379719	keystroke	s	n/a
189.947	0.056	379894	keystroke	Key.enter	n/a
190.0125	5.8565	380025	prompt	n/a	vast psychology utils sticks\n
190.6755	0.1035	381351	keystroke	v	n/a
190.851	0.1675	381702	keystroke	a	n/a
190.9715	0.135	381943	keystroke	s	n/a
191.123	0.0245	382246	keystroke	s	n/a
191.1545	0.128	382309	keystroke	t	n/a
191.2985	0.136	382597	keystroke	Key.space	n/a
191.4905	0.1285	382981	keystroke	p	n/a
191.731	0.088	383462	keystroke	s	n/a
191.987	0.088	383974	keystroke	y	n/a
192.371	0.152	384742	keystroke	c	n/a
192.531	0.1515	385062	keystroke	h	n/a
192.6595	0.1115	385319	keystroke	o	n/a
192.907	0.056	385814	keystroke	l	n/a
193.059	0.08	386118	keystroke	o	n/a
193.171	0.0805	386342	keystroke	g	n/a
193.363	0.096	386726	keystroke	y	n/a
193.475	0.2075	386950	keystroke	Key.space	n/a
193.6745	0.16	387349	keystroke	u	n/a
194.171	0.1515	388342	keystroke	t	n/a
194.355	0.1685	388710	keystroke	i	n/a
194.5155	0.159	389031	keystroke	l	n/a
194.676	0.127	389352	keystroke	s	n/a
194.891	0.128	389782	keystroke	Key.space	n/a
195.027	0.136	390054	keystroke	s	n/a
195.115	0.1195	390230	keystroke	t	n/a
195.2825	0.0965	390565	keystroke	i	n/a
195.483	0.1035	390966	keystroke	c	n/a
195.5705	0.0725	391141	keystroke	k	n/a
195.6745	0.08	391349	keystroke	s	n/a
195.7785	0.0885	391557	keystroke	Key.enter	n/a
195.873	8.492	391746	prompt	n/a	groove showcase forces identified\n
196.627	0.096	393254	keystroke	g	n/a
196.827	0.104	393654	keystroke	r	n/a
196.9635	0.0715	393927	keystroke	o	n/a
197.1145	0.089	394229	keystroke	o	n/a
197.563	0.1365	395126	keystroke	v	n/a
197.6745	0.113	395349	keystroke	e	n/a
197.819	0.1515	395638	keystroke	Key.space	n/a
198.0745	0.104	396149	keystroke	s	n/a
198.1795	0.111	396359	keystroke	h	n/a
198.2585	0.1125	396517	keystroke	o	n/a
198.3475	0.1115	396695	keystroke	w	n/a
198.587	0.128	397174	keystroke	c	n/a
198.6915	0.1595	397383	keystroke	a	n/a
198.843	0.168	397686	keystroke	s	n/a
198.955	0.16	397910	keystroke	e	n/a
199.2025	0.1445	398405	keystroke	Key.space	n/a
199.411	0.104	398822	keystroke	s	n/a
199.899	0.0635	399798	keystroke	Key.backspace	n/a
200.0025	0.1205	400005	keystroke	f	n/a
200.147	0.096	400294	keystroke	o	n/a
200.235	0.12	400470	keystroke	r	n/a
201.1155	0.2	402231	keystroke	c	n/a
201.2585	0.136	402517	keystroke	e	n/a
201.3475	0.135	402695	keystroke	s	n/a
201.555	0.1515	403110	keystroke	Key.space	n/a
201.8595	0.103	403719	keystroke	i	n/a
202.0035	0.096	404007	keystroke	d	n/a
202.1945	0.113	404389	keystroke	e	n/a
202.3875	0.087	404775	keystroke	n	n/a
202.578	0.121	405156	keystroke	t	n/a
202.8825	0.1285	405765	keystroke	i	n/a
203.315	0.112	406630	keystroke	f	n/a
203.603	0.128	407206	keystroke	i	n/a
203.787	0.1755	407574	keystroke	e	n/a
203.986	0.1525	407972	keystroke	d	n/a
204.2425	0.12	408485	keystroke	Key.enter	n/a
204.3695	6.172	408739	prompt	n/a	tramadol legal face verify\n
205.6825	0.1765	411365	keystroke	t	n/a
205.787	0.12	411574	keystroke	r	n/a
205.947	0.2	411894	keystroke	a	n/a
206.619	0.184	413238	keystroke	m	n/a
206.85	0.161	413700	keystroke	a	n/a
207.1075	0.1435	414215	keystroke	d	n/a
207.243	0.096	414486	keystroke	o	n/a
207.475	0.144	414950	keystroke	l	n/a
207.6585	0.1205	415317	keystroke	Key.space	n/a
207.843	0.1035	415686	keystroke	l	n/a
207.915	0.12	415830	keystroke	e	n/a
208.0585	0.1365	416117	keystroke	g	n/a
208.1715	0.12	416343	keystroke	a	n/a
208.2665	0.161	416533	keystroke	l	n/a
208.379	0.1355	416758	keystroke	Key.space	n/a
208.5545	0.0965	417109	keystroke	f	n/a
208.675	0.104	417350	keystroke	a	n/a
208.7865	0.1205	417573	keystroke	c	n/a
208.851	0.144	417702	keystroke	e	n/a
208.987	0.1435	417974	keystroke	Key.space	n/a
209.235	0.104	418470	keystroke	v	n/a
209.4025	0.144	418805	keystroke	e	n/a
209.523	0.112	419046	keystroke	r	n/a
209.787	0.1125	419574	keystroke	i	n/a
209.907	0.056	419814	keystroke	f	n/a
210.315	0.1205	420630	keystroke	y	n/a
210.4425	0.096	420885	keystroke	Key.enter	n/a
210.5455	6.0985	421091	prompt	n/a	queensland daddy marsh mighty\n
211.3075	0.088	422615	keystroke	q	n/a
211.4675	0.103	422935	keystroke	u	n/a
211.627	0.0715	423254	keystroke	e	n/a
211.779	0.0955	423558	keystroke	e	n/a
211.8985	0.104	423797	keystroke	n	n/a
212.3865	0.096	424773	keystroke	s	n/a
212.611	0.1275	425222	keystroke	l	n/a
212.8345	0.12	425669	keystroke	a	n/a
212.9945	0.08	425989	keystroke	n	n/a
213.1155	0.063	426231	keystroke	d	n/a
213.2985	0.12	426597	keystroke	Key.space	n/a
213.4265	0.1045	426853	keystroke	d	n/a
213.571	0.1275	427142	keystroke	a	n/a
213.659	0.0955	427318	keystroke	d	n/a
213.835	0.0955	427670	keystroke	d	n/a
214.0595	0.0955	428119	keystroke	y	n/a
214.1865	0.136	428373	keystroke	Key.space	n/a
214.379	0.144	428758	keystroke	m	n/a
214.5235	0.0795	429047	keystroke	a	n/a
214.555	0.096	429110	keystroke	r	n/a
214.9865	0.136	429973	keystroke	s	n/a
215.1555	0.151	430311	keystroke	h	n/a
215.3305	0.152	430661	keystroke	Key.space	n/a
215.9625	0.16	431925	keystroke	m	n/a
216.0825	0.104	432165	keystroke	i	n/a
216.1785	0.08	432357	keystroke	g	n/a
216.2745	0.0805	432549	keystroke	h	n/a
216.355	0.096	432710	keystroke	t	n/a
216.5225	0.072	433045	keystroke	y	n/a
216.5705	0.072	433141	keystroke	Key.enter	n/a
216.647	5.0305	433294	prompt	n/a	areas version lounge radio\n
217.1785	0.1525	434357	keystroke	a	n/a
217.307	0.127	434614	keystroke	r	n/a
217.371	0.1275	434742	keystroke	e	n/a
217.49	0.201	434980	keystroke	a	n/a
217.651	0.176	435302	keystroke	s	n/a
217.947	0.1675	435894	keystroke	Key.space	n/a
218.283	0.095	436566	keystroke	v	n/a
218.419	0.192	436838	keystroke	e	n/a
218.539	0.1515	437078	keystroke	r	n/a
218.627	0.1355	437254	keystroke	s	n/a
218.7785	0.232	437557	keystroke	i	n/a
218.931	0.176	437862	keystroke	o	n/a
219.0585	0.1925	438117	keystroke	n	n/a
219.258	0.1445	438516	keystroke	Key.space	n/a
219.587	0.0795	439174	keystroke	l	n/a
219.779	0.12	439558	keystroke	o	n/a
219.867	0.104	439734	keystroke	u	n/a
220.083	0.104	440166	keystroke	n	n/a
220.195	0.12	440390	keystroke	g	n/a
220.282	0.1285	440564	keystroke	e	n/a
220.443	0.128	440886	keystroke	Key.space	n/a
220.826	0.144	441652	keystroke	r	n/a
221.01	0.145	442020	keystroke	a	n/a
221.17	0.153	442340	keystroke	d	n/a
221.299	0.103	442598	keystroke	i	n/a
221.347	0.135	442694	keystroke	o	n/a
221.554	0.1205	443108	keystroke	Key.enter	n/a
221.6825	5.2985	443365	prompt	n/a	drag beth meaningful who\n
222.2345	0.16	444469	keystroke	d	n/a
222.4025	0.1285	444805	keystroke	r	n/a
222.507	0.16	445014	keystroke	a	n/a
222.643	0.112	445286	keystroke	g	n/a
222.77	0.1525	445540	keystroke	Key.space	n/a
222.8915	0.0715	445783	keystroke	b	n/a
223.035	0.183	446070	keystroke	e	n/a
223.202	0.1125	446404	keystroke	t	n/a
223.379	0.1275	446758	keystroke	h	n/a
223.515	0.1275	447030	keystroke	Key.space	n/a
223.8505	0.104	447701	keystroke	m	n/a
223.9145	0.1525	447829	keystroke	e	n/a
224.0185	0.1525	448037	keystroke	a	n/a
224.875	0.096	449750	keystroke	n	n/a
225.1305	0.216	450261	keystroke	i	n/a
225.3145	0.112	450629	keystroke	n	n/a
225.4825	0.096	450965	keystroke	g	n/a
225.851	0.1755	451702	keystroke	f	n/a
225.971	0.2075	451942	keystroke	u	n/a
226.1145	0.144	452229	keystroke	l	n/a
226.2745	0.144	452549	keystroke	Key.space	n/a
226.4265	0.104	452853	keystroke	w	n/a
226.4995	0.1595	452999	keystroke	h	n/a
226.667	0.1045	453334	keystroke	o	n/a
226.8665	0.112	453733	keystroke	Key.enter	n/a
226.985	4.5715	453970	prompt	n/a	actual lemon respond tight\n
227.6275	0.175	455255	keystroke	a	n/a
227.779	0.1115	455558	keystroke	c	n/a
228.043	0.1355	456086	keystroke	t	n/a
228.323	0.0955	456646	keystroke	u	n/a
228.4265	0.136	456853	keystroke	a	n/a
228.555	0.16	457110	keystroke	l	n/a
228.715	0.127	457430	keystroke	Key.space	n/a
228.875	0.1195	457750	keystroke	l	n/a
229.026	0.1285	458052	keystroke	e	n/a
229.1385	0.1445	458277	keystroke	m	n/a
229.275	0.167	458550	keystroke	o	n/a
229.411	0.176	458822	keystroke	n	n/a
229.594	0.1525	459188	keystroke	Key.space	n/a
230.003	0.167	460006	keystroke	r	n/a
230.066	0.153	460132	keystroke	e	n/a
230.195	0.1355	460390	keystroke	s	n/a
230.338	0.08	460676	keystroke	p	n/a
230.507	0.1435	461014	keystroke	o	n/a
230.603	0.12	461206	keystroke	n	n/a
230.7305	0.1115	461461	keystroke	d	n/a
230.81	0.1365	461620	keystroke	Key.space	n/a
230.9705	0.088	461941	keystroke	t	n/a
231.0425	0.096	462085	keystroke	i	n/a
231.154	0.0805	462308	keystroke	g	n/a
231.2425	0.08	462485	keystroke	h	n/a
231.33	0.08	462660	keystroke	t	n/a
231.4505	0.104	462901	keystroke	Key.enter	n/a
231.559	4.6535	463118	prompt	n/a	fourth dean jury readily\n
232.2425	0.1435	464485	keystroke	f	n/a
232.394	0.176	464788	keystroke	o	n/a
232.522	0.16	465044	keystroke	u	n/a
232.723	0.096	465446	keystroke	r	n/a
232.906	0.128	465812	keystroke	t	n/a
233.083	0.136	466166	keystroke	h	n/a
233.282	0.1205	466564	keystroke	Key.space	n/a
233.595	0.0635	467190	keystroke	d	n/a
233.7385	0.16	467477	keystroke	e	n/a
233.859	0.152	467718	keystroke	a	n/a
233.979	0.135	467958	keystroke	n	n/a
234.107	0.16	468214	keystroke	Key.space	n/a
234.2505	0.1445	468501	keystroke	j	n/a
234.427	0.1035	468854	keystroke	u	n/a
234.507	0.0795	469014	keystroke	r	n/a
234.699	0.1035	469398	keystroke	y	n/a
234.8105	0.136	469621	keystroke	Key.space	n/a
234.986	0.129	469972	keystroke	r	n/a
235.034	0.097	470068	keystroke	e	n/a
235.146	0.169	470292	keystroke	a	n/a
235.267	0.135	470534	keystroke	d	n/a
235.4665	0.304	470933	keystroke	i	n/a
235.7465	0.1445	471493	keystroke	l	n/a
235.9465	0.128	471893	keystroke	y	n/a
236.0825	0.128	472165	keystroke	Key.enter	n/a
236.2165	5.412	472433	prompt	n/a	kijiji night foot plymouth\n
237.1545	0.104	474309	keystroke	k	n/a
237.3945	0.104	474789	keystroke	i	n/a
237.7145	0.1685	475429	keystroke	j	n/a
237.883	0.151	475766	keystroke	i	n/a
238.05	0.1925	476100	keystroke	j	n/a
238.1945	0.136	476389	keystroke	i	n/a
238.4985	0.144	476997	keystroke	Key.space	n/a
238.6505	0.1605	477301	keystroke	n	n/a
238.7705	0.1115	477541	keystroke	i	n/a
238.85	0.096	477700	keystroke	g	n/a
238.9545	0.1045	477909	keystroke	h	n/a
239.059	0.096	478118	keystroke	t	n/a
239.146	0.1285	478292	keystroke	Key.space	n/a
239.2985	0.104	478597	keystroke	f	n/a
239.3705	0.08	478741	keystroke	o	n/a
239.5305	0.08	479061	keystroke	o	n/a
239.6665	0.128	479333	keystroke	t	n/a
240.0265	0.12	480053	keystroke	Key.space	n/a
240.2745	0.2005	480549	keystroke	p	n/a
240.355	0.192	480710	keystroke	l	n/a
240.618	0.1045	481236	keystroke	y	n/a
240.8825	0.112	481765	keystroke	m	n/a
241.0025	0.184	482005	keystroke	o	n/a
241.139	0.111	482278	keystroke	u	n/a
241.283	0.1275	482566	keystroke	t	n/a
241.355	0.088	482710	keystroke	h	n/a
241.5385	0.088	483077	keystroke	Key.enter	n/a
241.6325	5.5085	483265	prompt	n/a	that iraq always adaptor\n
242.2345	0.1195	484469	keystroke	t	n/a
242.346	0.0885	484692	keystroke	h	n/a
242.426	0.136	484852	keystroke	a	n/a
242.4985	0.1115	484997	keystroke	t	n/a
242.6025	0.128	485205	keystroke	Key.space	n/a
242.7705	0.1045	485541	keystroke	i	n/a
242.867	0.111	485734	keystroke	r	n/a
243.034	0.153	486068	keystroke	a	n/a
243.4665	0.112	486933	keystroke	q	n/a
243.6265	0.12	487253	keystroke	Key.space	n/a
243.907	0.128	487814	keystroke	a	n/a
244.042	0.096	488084	keystroke	l	n/a
244.162	0.0885	488324	keystroke	w	n/a
244.3155	0.135	488631	keystroke	a	n/a
244.4345	0.12	488869	keystroke	y	n/a
244.5705	0.1195	489141	keystroke	s	n/a
244.73	0.12	489460	keystroke	Key.space	n/a
244.9785	0.16	489957	keystroke	a	n/a
245.1545	0.12	490309	keystroke	d	n/a
245.3945	0.16	490789	keystroke	a	n/a
245.6185	0.176	491237	keystroke	p	n/a
245.7625	0.128	491525	keystroke	o	n/a
246.202	0.088	492404	keystroke	Key.backspace	n/a
246.4985	0.152	492997	keystroke	t	n/a
246.6825	0.144	493365	keystroke	o	n/a
246.8345	0.12	493669	keystroke	r	n/a
246.9945	0.1435	493989	keystroke	Key.enter	n/a
247.146	5.8105	494292	prompt	n/a	attorney shed replacement ring\n
247.786	0.1765	495572	keystroke	a	n/a
247.946	0.0885	495892	keystroke	t	n/a
248.1305	0.104	496261	keystroke	t	n/a
248.2515	0.143	496503	keystroke	o	n/a
248.4105	0.1205	496821	keystroke	r	n/a
248.683	0.1195	497366	keystroke	n	n/a
248.7785	0.0965	497557	keystroke	e	n/a
248.9545	0.112	497909	keystroke	y	n/a
249.0985	0.1515	498197	keystroke	Key.space	n/a
249.267	0.119	498534	keystroke	s	n/a
249.41	0.0965	498820	keystroke	h	n/a
249.507	0.087	499014	keystroke	e	n/a
249.7305	0.1525	499461	keystroke	d	n/a
249.8905	0.136	499781	keystroke	Key.space	n/a
250.0985	0.1755	500197	keystroke	r	n/a
250.203	0.135	500406	keystroke	e	n/a
250.3945	0.08	500789	keystroke	p	n/a
250.6665	0.1195	501333	keystroke	l	n/a
250.81	0.208	501620	keystroke	a	n/a
251.314	0.224	502628	keystroke	c	n/a
251.6825	0.136	503365	keystroke	e	n/a
251.882	0.113	503764	keystroke	m	n/a
252.003	0.1275	504006	keystroke	e	n/a
252.1315	0.095	504263	keystroke	n	n/a
252.235	0.0955	504470	keystroke	t	n/a
252.3705	0.12	504741	keystroke	Key.space	n/a
252.4825	0.104	504965	keystroke	r	n/a
252.5705	0.12	505141	keystroke	i	n/a
252.6665	0.1045	505333	keystroke	n	n/a
252.754	0.089	505508	keystroke	g	n/a
252.8745	0.0795	505749	keystroke	Key.enter	n/a
252.9635	7.6405	505927	prompt	n/a	rescue clothing correctly sussex\n
254.2025	0.136	508405	keystroke	r	n/a
254.259	0.1105	508518	keystroke	e	n/a
254.379	0.128	508758	keystroke	s	n/a
254.65	0.136	509300	keystroke	u	n/a
254.826	0.152	509652	keystroke	e	n/a
254.962	0.1365	509924	keystroke	Key.space	n/a
255.2505	0.112	510501	keystroke	c	n/a
255.347	0.0715	510694	keystroke	l	n/a
255.523	0.0875	511046	keystroke	o	n/a
255.626	0.137	511252	keystroke	t	n/a
255.7225	0.1285	511445	keystroke	h	n/a
255.81	0.184	511620	keystroke	i	n/a
255.947	0.095	511894	keystroke	n	n/a
256.058	0.12	512116	keystroke	g	n/a
256.162	0.144	512324	keystroke	Key.space	n/a
256.3785	0.144	512757	keystroke	c	n/a
256.4905	0.0885	512981	keystroke	o	n/a
256.6745	0.0875	513349	keystroke	r	n/a
256.8665	0.064	513733	keystroke	r	n/a
256.922	0.169	513844	keystroke	e	n/a
257.091	0.0635	514182	keystroke	c	n/a
257.2905	0.096	514581	keystroke	t	n/a
257.4265	0.1115	514853	keystroke	l	n/a
257.5465	0.0955	515093	keystroke	y	n/a
257.666	0.1355	515332	keystroke	Key.space	n/a
257.8745	0.1685	515749	keystroke	s	n/a
258.0665	0.104	516133	keystroke	u	n/a
258.3385	0.072	516677	keystroke	s	n/a
258.5145	0.056	517029	keystroke	s	n/a
258.6025	0.16	517205	keystroke	e	n/a
258.723	0.0875	517446	keystroke	s	n/a
259.7865	0.096	519573	keystroke	x	n/a
260.0505	0.0715	520101	keystroke	Key.backspace	n/a
260.218	0.0635	520436	keystroke	Key.backspace	n/a
260.3225	0.08	520645	keystroke	x	n/a
260.5065	0.096	521013	keystroke	Key.enter	n/a
260.609	4.579	521218	prompt	n/a	heater legs destinations mild\n
261.2905	0.095	522581	keystroke	h	n/a
261.3705	0.1515	522741	keystroke	e	n/a
261.4905	0.1595	522981	keystroke	a	n/a
261.618	0.121	523236	keystroke	t	n/a
261.723	0.167	523446	keystroke	e	n/a
261.8585	0.112	523717	keystroke	r	n/a
261.946	0.152	523892	keystroke	Key.space	n/a
262.162	0.12	524324	keystroke	l	n/a
262.251	0.111	524502	keystroke	e	n/a
262.37	0.169	524740	keystroke	g	n/a
262.5305	0.0805	525061	keystroke	s	n/a
262.6425	0.1435	525285	keystroke	Key.space	n/a
263.0425	0.1355	526085	keystroke	d	n/a
263.251	0.136	526502	keystroke	e	n/a
263.37	0.145	526740	keystroke	s	n/a
263.474	0.152	526948	keystroke	t	n/a
263.619	0.151	527238	keystroke	i	n/a
263.73	0.1195	527460	keystroke	n	n/a
263.818	0.1355	527636	keystroke	a	n/a
263.8985	0.1355	527797	keystroke	t	n/a
263.9545	0.1835	527909	keystroke	i	n/a
264.042	0.144	528084	keystroke	o	n/a
264.139	0.127	528278	keystroke	n	n/a
264.2825	0.1195	528565	keystroke	s	n/a
264.418	0.1365	528836	keystroke	Key.space	n/a
264.6105	0.2165	529221	keystroke	m	n/a
264.738	0.2	529476	keystroke	i	n/a
264.8415	0.1525	529683	keystroke	l	n/a
265.01	0.088	530020	keystroke	d	n/a
265.09	0.0965	530180	keystroke	Key.enter	n/a
265.1915	4.957	530383	prompt	n/a	out wallet trademark downtown\n
265.8745	0.1525	531749	keystroke	o	n/a
265.994	0.1205	531988	keystroke	u	n/a
266.098	0.12	532196	keystroke	t	n/a
266.219	0.095	532438	keystroke	Key.space	n/a
266.306	0.0725	532612	keystroke	w	n/a
266.4425	0.104	532885	keystroke	a	n/a
266.5305	0.064	533061	keystroke	l	n/a
266.6825	0.088	533365	keystroke	l	n/a
266.7715	0.1595	533543	keystroke	e	n/a
266.867	0.144	533734	keystroke	t	n/a
267.018	0.144	534036	keystroke	Key.space	n/a
267.234	0.169	534468	keystroke	t	n/a
267.306	0.098	534612	keystroke	r	n/a
267.395	0.151	534790	keystroke	a	n/a
267.514	0.1365	535028	keystroke	d	n/a
267.738	0.104	535476	keystroke	e	n/a
267.9065	0.1355	535813	keystroke	m	n/a
268.027	0.1515	536054	keystroke	a	n/a
268.1465	0.112	536293	keystroke	r	n/a
268.1945	0.184	536389	keystroke	k	n/a
268.3465	0.16	536693	keystroke	Key.space	n/a
268.634	0.1435	537268	keystroke	d	n/a
268.738	0.104	537476	keystroke	o	n/a
268.8505	0.1285	537701	keystroke	w	n/a
268.971	0.0875	537942	keystroke	n	n/a
269.0825	0.0955	538165	keystroke	t	n/a
269.1705	0.128	538341	keystroke	o	n/a
269.2825	0.0965	538565	keystroke	w	n/a
269.41	0.0875	538820	keystroke	n	n/a
270.042	0.104	540084	keystroke	Key.enter	n/a
270.1525	7.756	540305	prompt	n/a	brake jamaica canyon introduces\n
270.8825	0.12	541765	keystroke	b	n/a
271.1785	0.1045	542357	keystroke	r	n/a
271.2105	0.152	542421	keystroke	a	n/a
271.3785	0.128	542757	keystroke	k	n/a
271.4905	0.096	542981	keystroke	e	n/a
271.6175	0.161	543235	keystroke	Key.space	n/a
271.7865	0.1435	543573	keystroke	j	n/a
271.946	0.1365	543892	keystroke	a	n/a
272.2665	0.176	544533	keystroke	m	n/a
272.6665	0.16	545333	keystroke	a	n/a
273.0175	0.1205	546035	keystroke	i	n/a
273.227	0.16	546454	keystroke	c	n/a
273.3215	0.1365	546643	keystroke	a	n/a
273.498	0.1605	546996	keystroke	Key.space	n/a
273.8985	0.1595	547797	keystroke	c	n/a
273.9945	0.1355	547989	keystroke	a	n/a
274.602	0.112	549204	keystroke	n	n/a
274.8185	0.127	549637	keystroke	y	n/a
274.9545	0.144	549909	keystroke	o	n/a
275.0505	0.176	550101	keystroke	n	n/a
275.2175	0.16	550435	keystroke	Key.space	n/a
275.4895	0.129	550979	keystroke	i	n/a
275.5695	0.128	551139	keystroke	n	n/a
275.858	0.1765	551716	keystroke	t	n/a
275.9705	0.136	551941	keystroke	r	n/a
276.1625	0.1195	552325	keystroke	o	n/a
276.3065	0.136	552613	keystroke	d	n/a
277.2495	0.097	554499	keystroke	u	n/a
277.386	0.168	554772	keystroke	c	n/a
277.5055	0.145	555011	keystroke	e	n/a
277.602	0.128	555204	keystroke	s	n/a
277.794	0.1125	555588	keystroke	Key.enter	n/a
277.913	8.123	555826	prompt	n/a	deals payable archived samba\n
278.4665	0.0715	556933	keystroke	d	n/a
278.6265	0.1515	557253	keystroke	e	n/a
278.746	0.1365	557492	keystroke	a	n/a
278.8585	0.104	557717	keystroke	l	n/a
278.9535	0.121	557907	keystroke	s	n/a
279.09	0.1285	558180	keystroke	Key.space	n/a
279.2745	0.192	558549	keystroke	p	n/a
279.4905	0.176	558981	keystroke	a	n/a
279.6105	0.119	559221	keystroke	y	n/a
279.7865	0.1275	559573	keystroke	a	n/a
279.922	0.0875	559844	keystroke	b	n/a
280.0495	0.096	560099	keystroke	l	n/a
280.1375	0.104	560275	keystroke	e	n/a
280.2735	0.144	560547	keystroke	Key.space	n/a
280.378	0.1445	560756	keystroke	a	n/a
280.4975	0.097	560995	keystroke	r	n/a
280.786	0.12	561572	keystroke	c	n/a
280.922	0.1445	561844	keystroke	h	n/a
281.074	0.112	562148	keystroke	i	n/a
281.178	0.1285	562356	keystroke	e	n/a
281.378	0.128	562756	keystroke	v	n/a
283.682	0.08	567364	keystroke	Key.backspace	n/a
283.914	0.08	567828	keystroke	Key.backspace	n/a
284.1455	0.065	568291	keystroke	v	n/a
284.586	0.192	569172	keystroke	e	n/a
284.722	0.176	569444	keystroke	d	n/a
284.93	0.136	569860	keystroke	Key.space	n/a
285.1775	0.0885	570355	keystroke	s	n/a
285.3535	0.1685	570707	keystroke	a	n/a
285.578	0.1275	571156	keystroke	m	n/a
285.7305	0.12	571461	keystroke	b	n/a
285.842	0.112	571684	keystroke	a	n/a
285.9455	0.0885	571891	keystroke	Key.enter	n/a
286.041	6.331	572082	prompt	n/a	trusts which's swap influences\n
286.69	0.216	573380	keystroke	t	n/a
286.882	0.128	573764	keystroke	r	n/a
287.018	0.088	574036	keystroke	u	n/a
287.114	0.12	574228	keystroke	s	n/a
287.202	0.12	574404	keystroke	t	n/a
287.722	0.128	575444	keystroke	s	n/a
287.8895	0.152	575779	keystroke	Key.space	n/a
288.1055	0.1125	576211	keystroke	w	n/a
288.2015	0.1445	576403	keystroke	h	n/a
288.2975	0.1285	576595	keystroke	i	n/a
288.434	0.1195	576868	keystroke	c	n/a
288.53	0.1115	577060	keystroke	h	n/a
288.634	0.112	577268	keystroke	'	n/a
288.7855	0.1115	577571	keystroke	s	n/a
288.929	0.1045	577858	keystroke	Key.space	n/a
289.0585	0.088	578117	keystroke	s	n/a
289.3055	0.136	578611	keystroke	a	n/a
289.69	0.0715	579380	keystroke	Key.backspace	n/a
289.794	0.064	579588	keystroke	w	n/a
289.938	0.112	579876	keystroke	a	n/a
290.0185	0.127	580037	keystroke	p	n/a
290.1775	0.152	580355	keystroke	Key.space	n/a
290.3775	0.1845	580755	keystroke	i	n/a
290.4905	0.1355	580981	keystroke	n	n/a
290.9305	0.152	581861	keystroke	f	n/a
291.0825	0.184	582165	keystroke	l	n/a
291.29	0.1765	582580	keystroke	u	n/a
291.4895	0.1365	582979	keystroke	e	n/a
291.65	0.1115	583300	keystroke	n	n/a
291.8015	0.185	583603	keystroke	c	n/a
291.8895	0.1845	583779	keystroke	e	n/a
292.026	0.104	584052	keystroke	s	n/a
292.266	0.104	584532	keystroke	Key.enter	n/a
292.376	6.5485	584752	prompt	n/a	deliver acrobat hearings specs\n
292.954	0.104	585908	keystroke	d	n/a
293.138	0.104	586276	keystroke	e	n/a
293.3615	0.168	586723	keystroke	l	n/a
293.4575	0.1685	586915	keystroke	i	n/a
294.0505	0.1195	588101	keystroke	v	n/a
294.282	0.184	588564	keystroke	e	n/a
294.426	0.128	588852	keystroke	r	n/a
294.642	0.1595	589284	keystroke	Key.space	n/a
294.994	0.16	589988	keystroke	a	n/a
295.178	0.104	590356	keystroke	r	n/a
295.794	0.096	591588	keystroke	Key.backspace	n/a
295.962	0.088	591924	keystroke	c	n/a
296.21	0.096	592420	keystroke	r	n/a
296.33	0.096	592660	keystroke	o	n/a
296.61	0.088	593220	keystroke	b	n/a
296.7625	0.167	593525	keystroke	a	n/a
296.874	0.112	593748	keystroke	t	n/a
297.0015	0.136	594003	keystroke	Key.space	n/a
297.338	0.096	594676	keystroke	h	n/a
297.401	0.153	594802	keystroke	e	n/a
297.481	0.137	594962	keystroke	a	n/a
297.554	0.12	595108	keystroke	r	n/a
297.666	0.144	595332	keystroke	i	n/a
297.7625	0.1115	595525	keystroke	n	n/a
297.858	0.112	595716	keystroke	g	n/a
297.986	0.1195	595972	keystroke	Key.space	n/a
298.2505	0.1435	596501	keystroke	s	n/a
298.3945	0.111	596789	keystroke	p	n/a
298.466	0.152	596932	keystroke	e	n/a
298.6095	0.136	597219	keystroke	c	n/a
298.7375	0.073	597475	keystroke	s	n/a
298.8255	0.096	597651	keystroke	Key.enter	n/a
298.9285	4.7065	597857	prompt	n/a	guided picking stevens farms\n
299.5545	0.1275	599109	keystroke	g	n/a
299.666	0.1525	599332	keystroke	u	n/a
299.7545	0.1115	599509	keystroke	i	n/a
299.8415	0.08	599683	keystroke	d	n/a
300.0015	0.16	600003	keystroke	e	n/a
300.09	0.1605	600180	keystroke	d	n/a
300.2415	0.128	600483	keystroke	Key.space	n/a
300.3295	0.168	600659	keystroke	p	n/a
300.4495	0.1045	600899	keystroke	i	n/a
300.5775	0.152	601155	keystroke	c	n/a
300.6815	0.0805	601363	keystroke	k	n/a
300.8655	0.136	601731	keystroke	i	n/a
300.97	0.0965	601940	keystroke	n	n/a
301.21	0.1605	602420	keystroke	g	n/a
301.458	0.152	602916	keystroke	Key.space	n/a
301.5855	0.1525	603171	keystroke	s	n/a
301.714	0.144	603428	keystroke	t	n/a
301.834	0.1275	603668	keystroke	e	n/a
302.1145	0.1195	604229	keystroke	v	n/a
302.234	0.12	604468	keystroke	e	n/a
302.37	0.104	604740	keystroke	n	n/a
302.521	0.105	605042	keystroke	s	n/a
302.6975	0.1355	605395	keystroke	Key.space	n/a
302.97	0.12	605940	keystroke	f	n/a
303.1055	0.1845	606211	keystroke	a	n/a
303.2255	0.1365	606451	keystroke	r	n/a
303.353	0.089	606706	keystroke	m	n/a
303.458	0.0875	606916	keystroke	s	n/a
303.538	0.0955	607076	keystroke	Key.enter	n/a
303.6375	4.863	607275	prompt	n/a	duke referred carlos kinds\n
304.2985	0.063	608597	keystroke	d	n/a
304.3535	0.1045	608707	keystroke	u	n/a
304.586	0.128	609172	keystroke	k	n/a
304.6825	0.1355	609365	keystroke	e	n/a
304.866	0.136	609732	keystroke	Key.space	n/a
305.074	0.152	610148	keystroke	r	n/a
305.162	0.0795	610324	keystroke	e	n/a
305.3535	0.1365	610707	keystroke	f	n/a
305.506	0.1925	611012	keystroke	e	n/a
305.682	0.0805	611364	keystroke	r	n/a
305.8425	0.1035	611685	keystroke	r	n/a
305.938	0.1115	611876	keystroke	e	n/a
306.1615	0.128	612323	keystroke	d	n/a
306.3375	0.1275	612675	keystroke	Key.space	n/a
306.6015	0.096	613203	keystroke	c	n/a
306.7215	0.1445	613443	keystroke	a	n/a
306.8335	0.104	613667	keystroke	r	n/a
307.0735	0.088	614147	keystroke	l	n/a
307.2425	0.095	614485	keystroke	o	n/a
307.3535	0.121	614707	keystroke	s	n/a
307.49	0.1035	614980	keystroke	Key.space	n/a
307.714	0.096	615428	keystroke	k	n/a
307.9225	0.119	615845	keystroke	i	n/a
308.002	0.1275	616004	keystroke	n	n/a
308.106	0.1285	616212	keystroke	d	n/a
308.1785	0.1115	616357	keystroke	s	n/a
308.3695	0.128	616739	keystroke	Key.enter	n/a
308.5045	6.9625	617009	prompt	n/a	hired academics gourmet export\n
309.1935	0.1205	618387	keystroke	h	n/a
309.4095	0.121	618819	keystroke	i	n/a
309.5315	0.127	619063	keystroke	r	n/a
309.642	0.1355	619284	keystroke	e	n/a
309.8575	0.128	619715	keystroke	d	n/a
310.0255	0.168	620051	keystroke	Key.space	n/a
310.186	0.2	620372	keystroke	a	n/a
310.354	0.12	620708	keystroke	c	n/a
310.577	0.1605	621154	keystroke	a	n/a
310.85	0.104	621700	keystroke	d	n/a
311.098	0.136	622196	keystroke	e	n/a
311.266	0.2	622532	keystroke	m	n/a
311.4105	0.1195	622821	keystroke	i	n/a
311.546	0.128	623092	keystroke	c	n/a
311.65	0.12	623300	keystroke	s	n/a
311.81	0.16	623620	keystroke	Key.space	n/a
312.0585	0.12	624117	keystroke	g	n/a
312.498	0.1675	624996	keystroke	o	n/a
312.634	0.144	625268	keystroke	u	n/a
312.8585	0.1115	625717	keystroke	r	n/a
313.114	0.1115	626228	keystroke	m	n/a
313.2585	0.168	626517	keystroke	e	n/a
313.4095	0.1365	626819	keystroke	t	n/a
313.554	0.136	627108	keystroke	Key.space	n/a
313.77	0.088	627540	keystroke	e	n/a
314.01	0.104	628020	keystroke	x	n/a
314.298	0.184	628596	keystroke	p	n/a
314.3935	0.144	628787	keystroke	o	n/a
314.506	0.1035	629012	keystroke	r	n/a
314.6985	0.127	629397	keystroke	t	n/a
314.7935	0.072	629587	keystroke	s	n/a
315.2015	0.0805	630403	keystroke	Key.backspace	n/a
315.4095	0.0565	630819	keystroke	Key.enter	n/a
315.47	8.653	630940	prompt	n/a	introducing proc contest cloud\n
316.274	0.1675	632548	keystroke	i	n/a
316.41	0.1355	632820	keystroke	n	n/a
316.5535	0.1445	633107	keystroke	t	n/a
316.6095	0.1285	633219	keystroke	r	n/a
316.721	0.1285	633442	keystroke	o	n/a
317.162	0.128	634324	keystroke	u	n/a
317.305	0.185	634610	keystroke	c	n/a
317.8495	0.064	635699	keystroke	Key.backspace	n/a
318.0175	0.0565	636035	keystroke	Key.backspace	n/a
318.146	0.1435	636292	keystroke	d	n/a
318.3135	0.097	636627	keystroke	u	n/a
318.538	0.136	637076	keystroke	c	n/a
318.8815	0.1285	637763	keystroke	t	n/a
319.025	0.128	638050	keystroke	i	n/a
319.114	0.143	638228	keystroke	n	n/a
319.6095	0.0645	639219	keystroke	Key.backspace	n/a
319.778	0.072	639556	keystroke	Key.backspace	n/a
320.05	0.144	640100	keystroke	i	n/a
320.482	0.0635	640964	keystroke	Key.backspace	n/a
320.642	0.048	641284	keystroke	Key.backspace	n/a
320.8815	0.168	641763	keystroke	i	n/a
320.986	0.0955	641972	keystroke	n	n/a
321.1215	0.112	642243	keystroke	g	n/a
321.234	0.1435	642468	keystroke	Key.space	n/a
321.354	0.0795	642708	keystroke	p	n/a
321.4825	0.111	642965	keystroke	r	n/a
321.5785	0.1035	643157	keystroke	o	n/a
321.8255	0.088	643651	keystroke	c	n/a
321.9615	0.1125	643923	keystroke	Key.space	n/a
322.2815	0.168	644563	keystroke	c	n/a
322.418	0.152	644836	keystroke	o	n/a
322.5375	0.137	645075	keystroke	n	n/a
322.7695	0.1765	645539	keystroke	t	n/a
322.9135	0.1765	645827	keystroke	e	n/a
323.05	0.16	646100	keystroke	s	n/a
323.154	0.144	646308	keystroke	t	n/a
323.313	0.128	646626	keystroke	Key.space	n/a
323.506	0.12	647012	keystroke	c	n/a
323.586	0.0635	647172	keystroke	l	n/a
323.7455	0.1045	647491	keystroke	o	n/a
323.826	0.104	647652	keystroke	u	n/a
323.946	0.1045	647892	keystroke	d	n/a
324.034	0.087	648068	keystroke	Key.enter	n/a
324.1275	6.6995	648255	prompt	n/a	fellow windsor salon o'clock\n
324.73	0.0715	649460	keystroke	d	n/a
325.0895	0.0725	650179	keystroke	Key.backspace	n/a
325.2095	0.1765	650419	keystroke	f	n/a
325.322	0.119	650644	keystroke	e	n/a
325.521	0.0565	651042	keystroke	l	n/a
325.6655	0.056	651331	keystroke	l	n/a
325.8175	0.072	651635	keystroke	o	n/a
325.9295	0.096	651859	keystroke	w	n/a
326.082	0.1035	652164	keystroke	Key.space	n/a
326.4415	0.1045	652883	keystroke	w	n/a
326.537	0.1525	653074	keystroke	i	n/a
326.634	0.136	653268	keystroke	n	n/a
326.786	0.1515	653572	keystroke	d	n/a
326.986	0.112	653972	keystroke	s	n/a
327.1135	0.1115	654227	keystroke	o	n/a
327.234	0.1195	654468	keystroke	r	n/a
327.3615	0.1285	654723	keystroke	Key.space	n/a
327.5295	0.0965	655059	keystroke	s	n/a
327.6895	0.1525	655379	keystroke	a	n/a
327.786	0.08	655572	keystroke	l	n/a
327.9535	0.144	655907	keystroke	o	n/a
328.0745	0.127	656149	keystroke	n	n/a
328.1935	0.128	656387	keystroke	Key.space	n/a
328.474	0.0955	656948	keystroke	o	n/a
328.6815	0.0955	657363	keystroke	'	n/a
328.9215	0.0885	657843	keystroke	l	n/a
329.2255	0.048	658451	keystroke	o	n/a
329.5855	0.056	659171	keystroke	Key.backspace	n/a
329.73	0.056	659460	keystroke	Key.backspace	n/a
329.834	0.1675	659668	keystroke	c	n/a
330.2175	0.056	660435	keystroke	l	n/a
330.3775	0.072	660755	keystroke	o	n/a
330.4895	0.152	660979	keystroke	c	n/a
330.5695	0.1045	661139	keystroke	k	n/a
330.7535	0.072	661507	keystroke	Key.enter	n/a
330.83	12.3015	661660	prompt	n/a	leasing draw admin chemical\n
333.866	0.1195	667732	keystroke	l	n/a
333.9935	0.1285	667987	keystroke	e	n/a
334.225	0.169	668450	keystroke	a	n/a
334.346	0.151	668692	keystroke	s	n/a
334.577	0.1685	669154	keystroke	i	n/a
334.6895	0.128	669379	keystroke	n	n/a
334.7935	0.12	669587	keystroke	g	n/a
334.9295	0.1275	669859	keystroke	Key.space	n/a
335.057	0.137	670114	keystroke	d	n/a
335.225	0.1605	670450	keystroke	r	n/a
335.3615	0.2565	670723	keystroke	a	n/a
335.5695	0.1435	671139	keystroke	w	n/a
336.049	0.1205	672098	keystroke	Key.space	n/a
336.4015	0.152	672803	keystroke	a	n/a
336.5455	0.1285	673091	keystroke	d	n/a
336.7695	0.152	673539	keystroke	m	n/a
336.914	0.1675	673828	keystroke	i	n/a
337.0255	0.1765	674051	keystroke	n	n/a
337.177	0.16	674354	keystroke	Key.space	n/a
337.6415	0.1275	675283	keystroke	c	n/a
337.785	0.08	675570	keystroke	h	n/a
338.834	0.1595	677668	keystroke	e	n/a
339.09	0.223	678180	keystroke	m	n/a
339.242	0.152	678484	keystroke	i	n/a
340.3135	0.224	680627	keystroke	c	n/a
340.4415	0.136	680883	keystroke	a	n/a
342.0015	0.088	684003	keystroke	l	n/a
342.217	0.1045	684434	keystroke	s	n/a
342.8415	0.0955	685683	keystroke	Key.backspace	n/a
343.057	0.0725	686114	keystroke	Key.enter	n/a
343.136	6.787	686272	prompt	n/a	hear produce technology spouse\n
344.018	0.104	688036	keystroke	h	n/a
344.0815	0.1195	688163	keystroke	e	n/a
344.178	0.1755	688356	keystroke	a	n/a
344.2975	0.12	688595	keystroke	r	n/a
344.433	0.1685	688866	keystroke	Key.space	n/a
344.658	0.087	689316	keystroke	p	n/a
344.801	0.1125	689602	keystroke	r	n/a
344.914	0.087	689828	keystroke	o	n/a
345.217	0.1445	690434	keystroke	d	n/a
345.8175	0.136	691635	keystroke	u	n/a
345.9775	0.1595	691955	keystroke	c	n/a
346.0575	0.1355	692115	keystroke	e	n/a
346.2015	0.1275	692403	keystroke	Key.space	n/a
346.4655	0.16	692931	keystroke	t	n/a
346.5855	0.128	693171	keystroke	e	n/a
347.21	0.104	694420	keystroke	c	n/a
347.402	0.1355	694804	keystroke	h	n/a
347.7855	0.192	695571	keystroke	n	n/a
347.97	0.104	695940	keystroke	o	n/a
348.226	0.0875	696452	keystroke	l	n/a
348.3935	0.097	696787	keystroke	o	n/a
348.546	0.096	697092	keystroke	g	n/a
348.754	0.1115	697508	keystroke	y	n/a
348.913	0.1055	697826	keystroke	Key.space	n/a
349.1295	0.144	698259	keystroke	s	n/a
349.257	0.0805	698514	keystroke	p	n/a
349.449	0.1445	698898	keystroke	o	n/a
349.553	0.112	699106	keystroke	u	n/a
349.633	0.145	699266	keystroke	s	n/a
349.73	0.103	699460	keystroke	e	n/a
349.849	0.072	699698	keystroke	Key.enter	n/a
349.9275	19.316	699855	prompt	n/a	loop opponent planners chrysler\n
351.018	0.0795	702036	keystroke	l	n/a
351.2015	0.0635	702403	keystroke	o	n/a
351.353	0.0805	702706	keystroke	o	n/a
351.53	0.103	703060	keystroke	p	n/a
351.665	0.1765	703330	keystroke	Key.space	n/a
351.898	0.1515	703796	keystroke	o	n/a
352.0975	0.08	704195	keystroke	p	n/a
352.274	0.0715	704548	keystroke	p	n/a
358.626	0.104	717252	keystroke	o	n/a
358.9055	0.087	717811	keystroke	n	n/a
359.0415	0.104	718083	keystroke	e	n/a
359.129	0.0885	718258	keystroke	n	n/a
359.281	0.1525	718562	keystroke	t	n/a
359.4415	0.144	718883	keystroke	Key.space	n/a
359.8335	0.104	719667	keystroke	p	n/a
360.0735	0.08	720147	keystroke	l	n/a
360.1935	0.168	720387	keystroke	a	n/a
360.3295	0.072	720659	keystroke	n	n/a
360.4815	0.096	720963	keystroke	n	n/a
360.5615	0.2	721123	keystroke	e	n/a
360.6575	0.1435	721315	keystroke	r	n/a
360.745	0.1285	721490	keystroke	s	n/a
360.9455	0.144	721891	keystroke	Key.space	n/a
361.2655	0.1445	722531	keystroke	c	n/a
361.4255	0.112	722851	keystroke	h	n/a
362.0495	0.1195	724099	keystroke	r	n/a
362.337	0.1365	724674	keystroke	y	n/a
362.545	0.1525	725090	keystroke	s	n/a
362.6895	0.105	725379	keystroke	l	n/a
362.7785	0.151	725557	keystroke	e	n/a
362.8815	0.104	725763	keystroke	r	n/a
369.1605	0.081	738321	keystroke	Key.enter	n/a
369.248	43.8275	738496	prompt	n/a	downloads restriction speech determine\n
405.465	0.152	810930	keystroke	d	n/a
405.6095	0.104	811219	keystroke	o	n/a
405.7055	0.1435	811411	keystroke	w	n/a
405.8255	0.1035	811651	keystroke	n	n/a
405.969	0.096	811938	keystroke	l	n/a
406.169	0.088	812338	keystroke	o	n/a
406.2885	0.224	812577	keystroke	a	n/a
406.4805	0.16	812961	keystroke	d	n/a
407.0485	0.1525	814097	keystroke	s	n/a
407.305	0.1675	814610	keystroke	Key.space	n/a
407.585	0.1285	815170	keystroke	r	n/a
407.6805	0.145	815361	keystroke	e	n/a
408.025	0.1115	816050	keystroke	s	n/a
408.2335	0.1995	816467	keystroke	t	n/a
408.3445	0.1125	816689	keystroke	r	n/a
408.625	0.144	817250	keystroke	i	n/a
408.962	0.1115	817924	keystroke	c	n/a
409.217	0.1205	818434	keystroke	t	n/a
409.361	0.112	818722	keystroke	i	n/a
409.433	0.168	818866	keystroke	o	n/a
409.553	0.168	819106	keystroke	n	n/a
409.713	0.1115	819426	keystroke	Key.space	n/a
409.897	0.12	819794	keystroke	s	n/a
409.993	0.0965	819986	keystroke	p	n/a
410.105	0.0805	820210	keystroke	e	n/a
410.257	0.168	820514	keystroke	e	n/a
410.401	0.1445	820802	keystroke	c	n/a
410.536	0.145	821072	keystroke	h	n/a
410.665	0.12	821330	keystroke	Key.space	n/a
410.985	0.128	821970	keystroke	d	n/a
411.201	0.1845	822402	keystroke	e	n/a
411.361	0.1445	822722	keystroke	t	n/a
411.513	0.176	823026	keystroke	e	n/a
411.641	0.12	823282	keystroke	r	n/a
411.809	0.144	823618	keystroke	m	n/a
411.937	0.136	823874	keystroke	i	n/a
412.049	0.0795	824098	keystroke	n	n/a
412.1445	0.137	824289	keystroke	e	n/a
412.2645	0.1045	824529	keystroke	Key.space	n/a
412.777	0.0715	825554	keystroke	Key.backspace	n/a
412.9925	0.0805	825985	keystroke	Key.enter	n/a
413.08	5.963	826160	prompt	n/a	employment trust hardwood which's\n
413.649	0.136	827298	keystroke	e	n/a
413.8085	0.1365	827617	keystroke	m	n/a
414.249	0.104	828498	keystroke	p	n/a
414.497	0.071	828994	keystroke	l	n/a
414.6655	0.08	829331	keystroke	o	n/a
414.8245	0.1205	829649	keystroke	y	n/a
415.361	0.088	830722	keystroke	m	n/a
415.457	0.112	830914	keystroke	e	n/a
415.5525	0.0965	831105	keystroke	n	n/a
415.6565	0.1045	831313	keystroke	t	n/a
415.8165	0.144	831633	keystroke	Key.space	n/a
415.9445	0.152	831889	keystroke	t	n/a
416.009	0.1195	832018	keystroke	r	n/a
416.137	0.104	832274	keystroke	u	n/a
416.249	0.1445	832498	keystroke	s	n/a
416.353	0.112	832706	keystroke	t	n/a
416.609	0.119	833218	keystroke	Key.space	n/a
416.785	0.0955	833570	keystroke	h	n/a
416.8725	0.152	833745	keystroke	a	n/a
416.945	0.136	833890	keystroke	r	n/a
417.0165	0.1205	834033	keystroke	d	n/a
417.1925	0.1365	834385	keystroke	w	n/a
417.305	0.0645	834610	keystroke	o	n/a
417.441	0.088	834882	keystroke	o	n/a
417.545	0.096	835090	keystroke	d	n/a
417.6645	0.1045	835329	keystroke	Key.space	n/a
417.753	0.0965	835506	keystroke	w	n/a
417.8495	0.1275	835699	keystroke	h	n/a
417.921	0.1045	835842	keystroke	i	n/a
418.001	0.1045	836002	keystroke	c	n/a
418.113	0.0795	836226	keystroke	h	n/a
418.7685	0.0965	837537	keystroke	'	n/a
418.8655	0.0795	837731	keystroke	s	n/a
418.969	0.072	837938	keystroke	Key.enter	n/a
419.0475	5.9635	838095	prompt	n/a	drink struck prices wider\n
419.6655	0.1355	839331	keystroke	d	n/a
419.793	0.144	839586	keystroke	r	n/a
419.873	0.1275	839746	keystroke	i	n/a
419.984	0.2255	839968	keystroke	n	n/a
420.137	0.1765	840274	keystroke	k	n/a
420.281	0.144	840562	keystroke	Key.space	n/a
420.4095	0.1515	840819	keystroke	s	n/a
420.497	0.08	840994	keystroke	t	n/a
420.641	0.12	841282	keystroke	r	n/a
420.769	0.0955	841538	keystroke	u	n/a
420.9295	0.136	841859	keystroke	c	n/a
421.0005	0.1605	842001	keystroke	k	n/a
421.1525	0.12	842305	keystroke	Key.space	n/a
421.3215	0.111	842643	keystroke	p	n/a
421.449	0.112	842898	keystroke	r	n/a
421.569	0.1045	843138	keystroke	i	n/a
421.6815	0.16	843363	keystroke	c	n/a
421.761	0.1445	843522	keystroke	e	n/a
421.849	0.1045	843698	keystroke	s	n/a
423.92	0.121	847840	keystroke	Key.space	n/a
424.0335	0.1035	848067	keystroke	w	n/a
424.137	0.12	848274	keystroke	i	n/a
424.2325	0.089	848465	keystroke	d	n/a
424.433	0.112	848866	keystroke	e	n/a
424.4965	0.104	848993	keystroke	r	n/a
424.92	0.0885	849840	keystroke	Key.enter	n/a
425.015	6.468	850030	prompt	n/a	administrative merely bloggers eating\n
425.7455	0.1835	851491	keystroke	a	n/a
425.953	0.096	851906	keystroke	d	n/a
426.3525	0.192	852705	keystroke	m	n/a
426.5525	0.225	853105	keystroke	i	n/a
426.697	0.144	853394	keystroke	n	n/a
426.881	0.1125	853762	keystroke	i	n/a
427.0245	0.1605	854049	keystroke	s	n/a
427.169	0.1275	854338	keystroke	t	n/a
427.433	0.127	854866	keystroke	r	n/a
427.576	0.1605	855152	keystroke	a	n/a
427.9125	0.1285	855825	keystroke	t	n/a
428.0975	0.119	856195	keystroke	i	n/a
428.2255	0.1435	856451	keystroke	v	n/a
428.3535	0.12	856707	keystroke	e	n/a
428.496	0.129	856992	keystroke	Key.space	n/a
428.6815	0.103	857363	keystroke	m	n/a
428.7695	0.1355	857539	keystroke	e	n/a
428.8565	0.1365	857713	keystroke	r	n/a
428.985	0.0955	857970	keystroke	e	n/a
429.161	0.1045	858322	keystroke	l	n/a
429.3045	0.1205	858609	keystroke	y	n/a
429.465	0.1355	858930	keystroke	Key.space	n/a
429.6965	0.08	859393	keystroke	b	n/a
429.769	0.0635	859538	keystroke	l	n/a
429.937	0.072	859874	keystroke	o	n/a
430.096	0.08	860192	keystroke	g	n/a
430.24	0.0885	860480	keystroke	g	n/a
430.3845	0.1915	860769	keystroke	e	n/a
430.473	0.111	860946	keystroke	r	n/a
430.552	0.112	861104	keystroke	s	n/a
430.713	0.1275	861426	keystroke	Key.space	n/a
430.8245	0.128	861649	keystroke	e	n/a
430.9285	0.136	861857	keystroke	a	n/a
431.0245	0.104	862049	keystroke	t	n/a
431.105	0.144	862210	keystroke	i	n/a
431.2085	0.072	862417	keystroke	n	n/a
431.2645	0.088	862529	keystroke	g	n/a
431.408	0.073	862816	keystroke	Key.enter	n/a
431.4865	7.8045	862973	prompt	n/a	closure karma definitely sympathy\n
432.2895	0.143	864579	keystroke	c	n/a
432.361	0.08	864722	keystroke	l	n/a
432.5205	0.0885	865041	keystroke	o	n/a
432.609	0.184	865218	keystroke	s	n/a
432.7295	0.088	865459	keystroke	e	n/a
433.1205	0.0805	866241	keystroke	Key.backspace	n/a
433.553	0.088	867106	keystroke	u	n/a
433.657	0.136	867314	keystroke	r	n/a
433.705	0.1285	867410	keystroke	e	n/a
433.841	0.096	867682	keystroke	Key.space	n/a
434.185	0.104	868370	keystroke	k	n/a
434.2805	0.16	868561	keystroke	a	n/a
434.3615	0.111	868723	keystroke	r	n/a
434.5365	0.089	869073	keystroke	m	n/a
434.6405	0.129	869281	keystroke	a	n/a
434.7695	0.1275	869539	keystroke	Key.space	n/a
435.096	0.0725	870192	keystroke	d	n/a
435.2495	0.1435	870499	keystroke	e	n/a
435.3765	0.112	870753	keystroke	f	n/a
435.5535	0.143	871107	keystroke	i	n/a
435.6735	0.1355	871347	keystroke	n	n/a
435.777	0.104	871554	keystroke	i	n/a
436.5375	0.1435	873075	keystroke	t	n/a
436.889	0.136	873778	keystroke	e	n/a
437.041	0.1035	874082	keystroke	l	n/a
437.177	0.112	874354	keystroke	y	n/a
437.3445	0.1285	874689	keystroke	Key.space	n/a
437.569	0.1605	875138	keystroke	s	n/a
437.809	0.1275	875618	keystroke	y	n/a
438.377	0.0955	876754	keystroke	m	n/a
438.601	0.0885	877202	keystroke	p	n/a
438.6965	0.136	877393	keystroke	a	n/a
438.7695	0.1195	877539	keystroke	t	n/a
438.9045	0.0885	877809	keystroke	h	n/a
439.1285	0.0885	878257	keystroke	y	n/a
439.225	0.063	878450	keystroke	Key.enter	n/a
439.295	7.7475	878590	prompt	n/a	passed simpsons economies mixture\n
441.2085	0.1445	882417	keystroke	p	n/a
441.3285	0.1365	882657	keystroke	a	n/a
441.4085	0.0805	882817	keystroke	s	n/a
441.561	0.088	883122	keystroke	s	n/a
441.7125	0.1675	883425	keystroke	e	n/a
441.7925	0.1515	883585	keystroke	d	n/a
441.936	0.12	883872	keystroke	Key.space	n/a
442.121	0.128	884242	keystroke	s	n/a
442.2405	0.145	884481	keystroke	i	n/a
442.337	0.104	884674	keystroke	m	n/a
442.5125	0.1045	885025	keystroke	p	n/a
442.7925	0.136	885585	keystroke	s	n/a
442.905	0.1275	885810	keystroke	o	n/a
442.9845	0.104	885969	keystroke	n	n/a
443.1205	0.1205	886241	keystroke	s	n/a
443.2805	0.128	886561	keystroke	Key.space	n/a
443.7365	0.1355	887473	keystroke	e	n/a
443.888	0.184	887776	keystroke	c	n/a
444.4565	0.1685	888913	keystroke	o	n/a
444.761	0.1195	889522	keystroke	n	n/a
445.1845	0.1525	890369	keystroke	o	n/a
445.3925	0.208	890785	keystroke	m	n/a
445.5605	0.112	891121	keystroke	i	n/a
445.6735	0.1755	891347	keystroke	e	n/a
445.761	0.1595	891522	keystroke	s	n/a
445.952	0.12	891904	keystroke	Key.space	n/a
446.193	0.1755	892386	keystroke	m	n/a
446.2885	0.112	892577	keystroke	i	n/a
446.4085	0.0965	892817	keystroke	x	n/a
446.5685	0.104	893137	keystroke	t	n/a
446.697	0.088	893394	keystroke	u	n/a
446.801	0.12	893602	keystroke	r	n/a
446.849	0.088	893698	keystroke	e	n/a
446.961	0.079	893922	keystroke	Key.enter	n/a
447.0465	6.8535	894093	prompt	n/a	catalyst michael mental package\n
447.857	0.096	895714	keystroke	c	n/a
447.969	0.1195	895938	keystroke	a	n/a
448.1445	0.1675	896289	keystroke	t	n/a
448.304	0.104	896608	keystroke	a	n/a
448.648	0.136	897296	keystroke	l	n/a
448.817	0.1045	897634	keystroke	y	n/a
449.009	0.176	898018	keystroke	s	n/a
449.153	0.152	898306	keystroke	t	n/a
449.4405	0.1355	898881	keystroke	Key.space	n/a
450.209	0.1595	900418	keystroke	m	n/a
450.328	0.1205	900656	keystroke	i	n/a
450.873	0.16	901746	keystroke	c	n/a
451.057	0.08	902114	keystroke	h	n/a
451.257	0.207	902514	keystroke	a	n/a
451.609	0.128	903218	keystroke	e	n/a
451.777	0.152	903554	keystroke	l	n/a
451.9765	0.1445	903953	keystroke	Key.space	n/a
452.2245	0.096	904449	keystroke	m	n/a
452.329	0.12	904658	keystroke	e	n/a
452.4325	0.0885	904865	keystroke	n	n/a
452.5445	0.128	905089	keystroke	t	n/a
452.6325	0.152	905265	keystroke	a	n/a
452.7375	0.1515	905475	keystroke	l	n/a
452.8645	0.152	905729	keystroke	Key.space	n/a
453.1125	0.08	906225	keystroke	p	n/a
453.2005	0.152	906401	keystroke	a	n/a
453.2885	0.128	906577	keystroke	c	n/a
453.3845	0.0965	906769	keystroke	k	n/a
453.5125	0.1365	907025	keystroke	a	n/a
453.641	0.112	907282	keystroke	g	n/a
453.729	0.104	907458	keystroke	e	n/a
453.817	0.08	907634	keystroke	Key.enter	n/a
453.9065	7.48	907813	prompt	n/a	hero directories potato he've\n
454.889	0.0875	909778	keystroke	h	n/a
454.9765	0.1365	909953	keystroke	e	n/a
455.0485	0.112	910097	keystroke	r	n/a
455.1045	0.152	910209	keystroke	o	n/a
455.2645	0.1355	910529	keystroke	Key.space	n/a
455.6325	0.12	911265	keystroke	d	n/a
455.777	0.103	911554	keystroke	i	n/a
455.976	0.1285	911952	keystroke	r	n/a
456.073	0.1435	912146	keystroke	e	n/a
456.2485	0.0955	912497	keystroke	c	n/a
456.504	0.1205	913008	keystroke	t	n/a
456.6725	0.104	913345	keystroke	o	n/a
457.0245	0.104	914049	keystroke	r	n/a
458.048	0.128	916096	keystroke	i	n/a
458.1205	0.1915	916241	keystroke	e	n/a
458.2325	0.1595	916465	keystroke	s	n/a
458.4	0.1845	916800	keystroke	Key.space	n/a
458.5925	0.184	917185	keystroke	p	n/a
458.7125	0.1365	917425	keystroke	o	n/a
458.9205	0.136	917841	keystroke	t	n/a
459.0405	0.176	918081	keystroke	a	n/a
459.1285	0.136	918257	keystroke	t	n/a
459.2725	0.12	918545	keystroke	o	n/a
459.6085	0.1675	919217	keystroke	Key.space	n/a
460.0085	0.072	920017	keystroke	h	n/a
460.0725	0.104	920145	keystroke	e	n/a
460.1845	0.088	920369	keystroke	'	n/a
460.9685	0.104	921937	keystroke	v	n/a
461.0965	0.1045	922193	keystroke	e	n/a
461.2725	0.112	922545	keystroke	Key.enter	n/a
461.391	6.4995	922782	prompt	n/a	deutsch brands feat bite\n
462.0725	0.0965	924145	keystroke	d	n/a
462.2645	0.104	924529	keystroke	e	n/a
462.5925	0.1195	925185	keystroke	u	n/a
462.889	0.16	925778	keystroke	s	n/a
463.344	0.08	926688	keystroke	Key.backspace	n/a
463.5125	0.1525	927025	keystroke	t	n/a
463.7045	0.144	927409	keystroke	s	n/a
464.193	0.1195	928386	keystroke	c	n/a
464.288	0.1365	928576	keystroke	h	n/a
464.5125	0.128	929025	keystroke	Key.space	n/a
464.8725	0.0875	929745	keystroke	b	n/a
465.0725	0.1675	930145	keystroke	r	n/a
465.185	0.151	930370	keystroke	a	n/a
465.337	0.0955	930674	keystroke	n	n/a
465.473	0.143	930946	keystroke	d	n/a
465.5925	0.0715	931185	keystroke	s	n/a
465.7605	0.12	931521	keystroke	Key.space	n/a
465.9365	0.144	931873	keystroke	f	n/a
466.0405	0.136	932081	keystroke	e	n/a
466.1445	0.144	932289	keystroke	a	n/a
466.968	0.12	933936	keystroke	t	n/a
467.1125	0.1515	934225	keystroke	Key.space	n/a
467.3925	0.0805	934785	keystroke	b	n/a
467.504	0.088	935008	keystroke	i	n/a
467.6405	0.1365	935281	keystroke	t	n/a
467.721	0.096	935442	keystroke	e	n/a
467.8	0.0885	935600	keystroke	Key.enter	n/a
467.8945	10.0205	935789	prompt	n/a	acdbentity francisco supreme troops\n
468.6165	0.1515	937233	keystroke	a	n/a
469.0325	0.096	938065	keystroke	c	n/a
469.265	0.1115	938530	keystroke	d	n/a
469.7525	0.081	939505	keystroke	b	n/a
470.016	0.104	940032	keystroke	e	n/a
470.36	0.0725	940720	keystroke	n	n/a
470.9365	0.0965	941873	keystroke	t	n/a
471.209	0.08	942418	keystroke	i	n/a
471.352	0.081	942704	keystroke	t	n/a
471.5285	0.088	943057	keystroke	y	n/a
471.768	0.1285	943536	keystroke	Key.space	n/a
472.0085	0.1035	944017	keystroke	f	n/a
472.1925	0.1355	944385	keystroke	r	n/a
472.2965	0.1595	944593	keystroke	a	n/a
472.5045	0.08	945009	keystroke	n	n/a
472.776	0.1685	945552	keystroke	c	n/a
473.376	0.1365	946752	keystroke	i	n/a
473.752	0.1125	947504	keystroke	s	n/a
474.137	0.168	948274	keystroke	c	n/a
474.296	0.1675	948592	keystroke	o	n/a
474.456	0.1525	948912	keystroke	Key.space	n/a
474.7125	0.0795	949425	keystroke	p	n/a
475.2555	0.08	950511	keystroke	Key.backspace	n/a
475.3765	0.144	950753	keystroke	s	n/a
475.521	0.151	951042	keystroke	u	n/a
475.632	0.128	951264	keystroke	p	n/a
475.792	0.096	951584	keystroke	r	n/a
475.976	0.104	951952	keystroke	e	n/a
476.0965	0.1035	952193	keystroke	m	n/a
476.1925	0.096	952385	keystroke	e	n/a
476.3605	0.128	952721	keystroke	Key.space	n/a
476.632	0.224	953264	keystroke	t	n/a
476.7205	0.112	953441	keystroke	r	n/a
476.968	0.0885	953936	keystroke	o	n/a
477.1595	0.137	954319	keystroke	o	n/a
477.289	0.104	954578	keystroke	p	n/a
477.408	0.0805	954816	keystroke	s	n/a
477.832	0.08	955664	keystroke	Key.enter	n/a
477.9195	6.2585	955839	prompt	n/a	hood launched personally commentary\n
478.6005	0.112	957201	keystroke	h	n/a
478.6885	0.0645	957377	keystroke	o	n/a
478.8405	0.08	957681	keystroke	o	n/a
478.9285	0.112	957857	keystroke	d	n/a
479.048	0.112	958096	keystroke	Key.space	n/a
479.3515	0.097	958703	keystroke	l	n/a
479.505	0.1595	959010	keystroke	a	n/a
479.721	0.1115	959442	keystroke	u	n/a
480.353	0.0795	960706	keystroke	n	n/a
480.5045	0.152	961009	keystroke	c	n/a
480.5925	0.088	961185	keystroke	h	n/a
480.809	0.0865	961618	keystroke	e	n/a
481.008	0.1285	962016	keystroke	d	n/a
481.1685	0.1355	962337	keystroke	Key.space	n/a
481.32	0.096	962640	keystroke	p	n/a
481.393	0.1755	962786	keystroke	e	n/a
481.464	0.1605	962928	keystroke	r	n/a
481.5765	0.103	963153	keystroke	s	n/a
481.697	0.1835	963394	keystroke	o	n/a
481.825	0.1115	963650	keystroke	n	n/a
481.9205	0.152	963841	keystroke	a	n/a
482.065	0.064	964130	keystroke	l	n/a
482.208	0.096	964416	keystroke	l	n/a
482.297	0.127	964594	keystroke	y	n/a
482.432	0.136	964864	keystroke	Key.space	n/a
482.9045	0.136	965809	keystroke	c	n/a
482.9605	0.152	965921	keystroke	o	n/a
483.0795	0.072	966159	keystroke	m	n/a
483.2405	0.0795	966481	keystroke	m	n/a
483.36	0.1125	966720	keystroke	e	n/a
483.448	0.088	966896	keystroke	n	n/a
483.576	0.096	967152	keystroke	t	n/a
483.744	0.16	967488	keystroke	a	n/a
483.825	0.1035	967650	keystroke	r	n/a
484.008	0.088	968016	keystroke	y	n/a
484.112	0.0645	968224	keystroke	Key.enter	n/a
484.1815	5.364	968363	prompt	n/a	registry why's commentary grove\n
484.824	0.16	969648	keystroke	r	n/a
484.9125	0.111	969825	keystroke	e	n/a
485.408	0.1285	970816	keystroke	g	n/a
485.5605	0.096	971121	keystroke	i	n/a
485.68	0.128	971360	keystroke	s	n/a
485.784	0.096	971568	keystroke	t	n/a
485.9765	0.1115	971953	keystroke	r	n/a
486.248	0.08	972496	keystroke	y	n/a
486.408	0.12	972816	keystroke	Key.space	n/a
486.624	0.08	973248	keystroke	w	n/a
486.76	0.0805	973520	keystroke	h	n/a
486.88	0.1035	973760	keystroke	y	n/a
486.9925	0.0955	973985	keystroke	'	n/a
487.1675	0.0885	974335	keystroke	s	n/a
487.288	0.0965	974576	keystroke	Key.space	n/a
487.4405	0.0795	974881	keystroke	c	n/a
487.504	0.104	975008	keystroke	o	n/a
487.6	0.056	975200	keystroke	m	n/a
487.736	0.08	975472	keystroke	m	n/a
487.832	0.1205	975664	keystroke	e	n/a
487.96	0.0885	975920	keystroke	n	n/a
488.0405	0.112	976081	keystroke	t	n/a
488.1845	0.151	976369	keystroke	a	n/a
488.2795	0.105	976559	keystroke	r	n/a
488.48	0.096	976960	keystroke	y	n/a
488.744	0.1355	977488	keystroke	Key.space	n/a
488.848	0.0885	977696	keystroke	g	n/a
489.0325	0.0875	978065	keystroke	r	n/a
489.1125	0.095	978225	keystroke	o	n/a
489.248	0.0885	978496	keystroke	v	n/a
489.3675	0.088	978735	keystroke	e	n/a
489.4645	0.0795	978929	keystroke	Key.enter	n/a
489.5485	5.086	979097	prompt	n/a	frank rock publishing amanda\n
490.672	0.0645	981344	keystroke	f	n/a
490.8325	0.12	981665	keystroke	r	n/a
490.9045	0.136	981809	keystroke	a	n/a
491.0245	0.192	982049	keystroke	n	n/a
491.1445	0.16	982289	keystroke	k	n/a
491.2965	0.144	982593	keystroke	Key.space	n/a
491.4245	0.104	982849	keystroke	r	n/a
491.5365	0.088	983073	keystroke	o	n/a
491.6805	0.1515	983361	keystroke	c	n/a
491.792	0.136	983584	keystroke	k	n/a
491.912	0.144	983824	keystroke	Key.space	n/a
492.064	0.1685	984128	keystroke	p	n/a
492.216	0.1125	984432	keystroke	u	n/a
492.3125	0.1035	984625	keystroke	b	n/a
492.448	0.144	984896	keystroke	l	n/a
492.5285	0.136	985057	keystroke	i	n/a
492.656	0.112	985312	keystroke	s	n/a
492.76	0.1365	985520	keystroke	h	n/a
492.8645	0.1755	985729	keystroke	i	n/a
492.992	0.1115	985984	keystroke	n	n/a
493.1115	0.1205	986223	keystroke	g	n/a
493.2245	0.119	986449	keystroke	Key.space	n/a
493.3515	0.1285	986703	keystroke	a	n/a
493.5365	0.1115	987073	keystroke	m	n/a
493.728	0.16	987456	keystroke	a	n/a
494.104	0.088	988208	keystroke	n	n/a
494.288	0.1605	988576	keystroke	d	n/a
494.4165	0.112	988833	keystroke	a	n/a
494.5365	0.095	989073	keystroke	Key.enter	n/a
494.639	6.1945	989278	prompt	n/a	provider nested candidates investor\n
495.2805	0.096	990561	keystroke	p	n/a
495.4	0.104	990800	keystroke	r	n/a
495.52	0.096	991040	keystroke	o	n/a
495.752	0.112	991504	keystroke	v	n/a
495.88	0.0955	991760	keystroke	i	n/a
495.9835	0.081	991967	keystroke	d	n/a
496.16	0.144	992320	keystroke	e	n/a
496.2485	0.1195	992497	keystroke	r	n/a
496.408	0.128	992816	keystroke	Key.space	n/a
496.6325	0.0875	993265	keystroke	n	n/a
496.68	0.1605	993360	keystroke	e	n/a
496.784	0.136	993568	keystroke	s	n/a
496.896	0.112	993792	keystroke	t	n/a
497.0165	0.2075	994033	keystroke	e	n/a
497.1605	0.1515	994321	keystroke	d	n/a
497.328	0.136	994656	keystroke	Key.space	n/a
497.4885	0.176	994977	keystroke	c	n/a
497.624	0.152	995248	keystroke	a	n/a
497.768	0.096	995536	keystroke	n	n/a
498.0725	0.103	996145	keystroke	d	n/a
498.2085	0.0875	996417	keystroke	i	n/a
498.336	0.0965	996672	keystroke	d	n/a
498.5445	0.144	997089	keystroke	a	n/a
498.6645	0.1595	997329	keystroke	t	n/a
498.7595	0.1445	997519	keystroke	e	n/a
498.872	0.112	997744	keystroke	s	n/a
499.056	0.144	998112	keystroke	Key.space	n/a
499.272	0.144	998544	keystroke	i	n/a
499.3685	0.1195	998737	keystroke	n	n/a
499.496	0.104	998992	keystroke	v	n/a
499.6075	0.113	999215	keystroke	e	n/a
499.704	0.1445	999408	keystroke	s	n/a
499.816	0.1045	999632	keystroke	t	n/a
499.9355	0.08	999871	keystroke	o	n/a
500.048	0.1365	1000096	keystroke	r	n/a
500.736	0.096	1001472	keystroke	Key.enter	n/a
500.836	5.014	1001672	prompt	n/a	framework overall portrait dies\n
501.536	0.0645	1003072	keystroke	f	n/a
501.6805	0.1275	1003361	keystroke	r	n/a
501.7605	0.0875	1003521	keystroke	a	n/a
501.8565	0.0715	1003713	keystroke	m	n/a
501.952	0.088	1003904	keystroke	e	n/a
502.1445	0.1115	1004289	keystroke	w	n/a
502.2405	0.104	1004481	keystroke	o	n/a
502.3285	0.1035	1004657	keystroke	r	n/a
502.456	0.1045	1004912	keystroke	k	n/a
502.5915	0.169	1005183	keystroke	Key.space	n/a
502.848	0.128	1005696	keystroke	o	n/a
502.9525	0.0715	1005905	keystroke	v	n/a
503.096	0.16	1006192	keystroke	e	n/a
503.192	0.153	1006384	keystroke	r	n/a
503.296	0.1115	1006592	keystroke	a	n/a
503.385	0.0635	1006770	keystroke	l	n/a
503.536	0.152	1007072	keystroke	l	n/a
503.6555	0.144	1007311	keystroke	Key.space	n/a
503.937	0.1825	1007874	keystroke	p	n/a
504.0635	0.128	1008127	keystroke	o	n/a
504.1835	0.0885	1008367	keystroke	r	n/a
504.352	0.112	1008704	keystroke	t	n/a
504.5525	0.1515	1009105	keystroke	r	n/a
504.6715	0.153	1009343	keystroke	a	n/a
504.792	0.0955	1009584	keystroke	i	n/a
504.904	0.152	1009808	keystroke	t	n/a
505.304	0.096	1010608	keystroke	Key.space	n/a
505.401	0.087	1010802	keystroke	d	n/a
505.5035	0.0805	1011007	keystroke	i	n/a
505.5755	0.1365	1011151	keystroke	e	n/a
505.68	0.0965	1011360	keystroke	s	n/a
505.76	0.088	1011520	keystroke	Key.enter	n/a
505.855	5.563	1011710	prompt	n/a	household finance breeds tracked\n
506.552	0.1035	1013104	keystroke	h	n/a
506.6645	0.1435	1013329	keystroke	o	n/a
506.768	0.1205	1013536	keystroke	u	n/a
506.872	0.112	1013744	keystroke	s	n/a
506.9365	0.1195	1013873	keystroke	e	n/a
507.048	0.176	1014096	keystroke	h	n/a
507.16	0.112	1014320	keystroke	o	n/a
507.4	0.08	1014800	keystroke	l	n/a
507.496	0.1205	1014992	keystroke	d	n/a
507.624	0.112	1015248	keystroke	Key.space	n/a
508.0245	0.1355	1016049	keystroke	f	n/a
508.128	0.176	1016256	keystroke	i	n/a
508.296	0.144	1016592	keystroke	n	n/a
508.584	0.1765	1017168	keystroke	a	n/a
508.744	0.096	1017488	keystroke	n	n/a
508.864	0.168	1017728	keystroke	c	n/a
508.952	0.144	1017904	keystroke	e	n/a
509.1515	0.1685	1018303	keystroke	Key.space	n/a
509.3765	0.08	1018753	keystroke	b	n/a
509.6005	0.1435	1019201	keystroke	r	n/a
509.6805	0.0955	1019361	keystroke	e	n/a
509.8395	0.088	1019679	keystroke	e	n/a
510.032	0.1605	1020064	keystroke	d	n/a
510.1525	0.12	1020305	keystroke	s	n/a
510.336	0.144	1020672	keystroke	Key.space	n/a
510.5525	0.16	1021105	keystroke	t	n/a
510.6235	0.096	1021247	keystroke	r	n/a
510.728	0.1675	1021456	keystroke	a	n/a
510.8645	0.111	1021729	keystroke	c	n/a
510.9675	0.1035	1021935	keystroke	k	n/a
511.039	0.169	1022078	keystroke	e	n/a
511.1445	0.1515	1022289	keystroke	d	n/a
511.288	0.1275	1022576	keystroke	Key.enter	n/a
511.4225	6.2995	1022845	prompt	n/a	conventions nine internationally bush\n
512.0405	0.152	1024081	keystroke	c	n/a
512.1195	0.2085	1024239	keystroke	o	n/a
512.4	0.0955	1024800	keystroke	n	n/a
512.536	0.08	1025072	keystroke	v	n/a
512.632	0.0875	1025264	keystroke	e	n/a
512.7525	0.08	1025505	keystroke	n	n/a
512.8475	0.1045	1025695	keystroke	t	n/a
512.9765	0.2235	1025953	keystroke	i	n/a
513.0875	0.1365	1026175	keystroke	o	n/a
513.1765	0.1435	1026353	keystroke	n	n/a
513.32	0.104	1026640	keystroke	s	n/a
513.44	0.16	1026880	keystroke	Key.space	n/a
513.616	0.072	1027232	keystroke	n	n/a
513.68	0.168	1027360	keystroke	i	n/a
513.808	0.088	1027616	keystroke	n	n/a
513.904	0.1045	1027808	keystroke	e	n/a
514.039	0.129	1028078	keystroke	Key.space	n/a
514.2	0.048	1028400	keystroke	t	n/a
514.535	0.081	1029070	keystroke	Key.backspace	n/a
514.8075	0.136	1029615	keystroke	i	n/a
514.8965	0.103	1029793	keystroke	n	n/a
515.1685	0.111	1030337	keystroke	t	n/a
515.304	0.1195	1030608	keystroke	e	n/a
515.68	0.128	1031360	keystroke	r	n/a
515.864	0.088	1031728	keystroke	n	n/a
515.968	0.168	1031936	keystroke	a	n/a
516.064	0.144	1032128	keystroke	t	n/a
516.128	0.2075	1032256	keystroke	i	n/a
516.248	0.1275	1032496	keystroke	o	n/a
516.3115	0.144	1032623	keystroke	n	n/a
516.4475	0.136	1032895	keystroke	a	n/a
516.5685	0.063	1033137	keystroke	l	n/a
516.711	0.0885	1033422	keystroke	l	n/a
516.808	0.0885	1033616	keystroke	y	n/a
516.904	0.128	1033808	keystroke	Key.space	n/a
517.048	0.1035	1034096	keystroke	b	n/a
517.1435	0.0965	1034287	keystroke	u	n/a
517.2805	0.08	1034561	keystroke	s	n/a
517.368	0.0645	1034736	keystroke	h	n/a
517.6485	0.071	1035297	keystroke	Key.enter	n/a
517.726	5.0925	1035452	prompt	n/a	towers impressive peterson sudden\n
518.352	0.0805	1036704	keystroke	t	n/a
518.4245	0.112	1036849	keystroke	o	n/a
518.5365	0.144	1037073	keystroke	w	n/a
518.6165	0.175	1037233	keystroke	e	n/a
518.6955	0.176	1037391	keystroke	r	n/a
518.848	0.1365	1037696	keystroke	s	n/a
519.0235	0.1525	1038047	keystroke	Key.space	n/a
519.152	0.136	1038304	keystroke	i	n/a
519.256	0.1445	1038512	keystroke	m	n/a
519.392	0.12	1038784	keystroke	p	n/a
519.528	0.1525	1039056	keystroke	r	n/a
519.6	0.1445	1039200	keystroke	e	n/a
519.7125	0.071	1039425	keystroke	s	n/a
519.848	0.1045	1039696	keystroke	s	n/a
519.9685	0.1115	1039937	keystroke	i	n/a
520.104	0.1115	1040208	keystroke	v	n/a
520.2075	0.121	1040415	keystroke	e	n/a
520.3355	0.1365	1040671	keystroke	Key.space	n/a
520.52	0.1445	1041040	keystroke	p	n/a
520.624	0.1765	1041248	keystroke	e	n/a
520.7525	0.1115	1041505	keystroke	t	n/a
520.92	0.168	1041840	keystroke	e	n/a
521.04	0.128	1042080	keystroke	r	n/a
521.28	0.112	1042560	keystroke	s	n/a
521.4005	0.1435	1042801	keystroke	o	n/a
521.496	0.2005	1042992	keystroke	n	n/a
521.712	0.128	1043424	keystroke	Key.space	n/a
521.896	0.112	1043792	keystroke	s	n/a
522.0165	0.087	1044033	keystroke	u	n/a
522.1275	0.0885	1044255	keystroke	d	n/a
522.312	0.064	1044624	keystroke	d	n/a
522.4635	0.089	1044927	keystroke	e	n/a
522.5675	0.0645	1045135	keystroke	n	n/a
522.72	0.096	1045440	keystroke	Key.enter	n/a
522.83	5.412	1045660	prompt	n/a	harley caroline usps limit\n
523.504	0.088	1047008	keystroke	h	n/a
523.568	0.1605	1047136	keystroke	a	n/a
523.6565	0.1275	1047313	keystroke	r	n/a
523.8085	0.0875	1047617	keystroke	l	n/a
523.8875	0.096	1047775	keystroke	e	n/a
524.048	0.1205	1048096	keystroke	y	n/a
524.184	0.1355	1048368	keystroke	Key.space	n/a
524.5275	0.0805	1049055	keystroke	c	n/a
524.624	0.168	1049248	keystroke	a	n/a
524.7525	0.1275	1049505	keystroke	r	n/a
524.896	0.096	1049792	keystroke	o	n/a
525.112	0.152	1050224	keystroke	l	n/a
525.2395	0.1525	1050479	keystroke	i	n/a
525.32	0.128	1050640	keystroke	n	n/a
525.4245	0.127	1050849	keystroke	e	n/a
525.544	0.136	1051088	keystroke	Key.space	n/a
525.6805	0.152	1051361	keystroke	u	n/a
525.784	0.12	1051568	keystroke	p	n/a
526.5595	0.056	1053119	keystroke	Key.backspace	n/a
526.6475	0.1445	1053295	keystroke	s	n/a
526.9755	0.1205	1053951	keystroke	p	n/a
527.1675	0.137	1054335	keystroke	s	n/a
527.432	0.128	1054864	keystroke	Key.space	n/a
527.656	0.176	1055312	keystroke	l	n/a
527.752	0.136	1055504	keystroke	i	n/a
527.848	0.16	1055696	keystroke	m	n/a
527.9685	0.0635	1055937	keystroke	i	n/a
528.024	0.104	1056048	keystroke	t	n/a
528.1355	0.104	1056271	keystroke	Key.enter	n/a
528.2465	5.7075	1056493	prompt	n/a	plus response realtor nobody\n
528.8715	0.1045	1057743	keystroke	p	n/a
529.1035	0.1605	1058207	keystroke	l	n/a
529.24	0.112	1058480	keystroke	u	n/a
529.3365	0.1275	1058673	keystroke	s	n/a
529.456	0.104	1058912	keystroke	Key.space	n/a
529.616	0.152	1059232	keystroke	r	n/a
529.68	0.176	1059360	keystroke	e	n/a
529.816	0.1445	1059632	keystroke	s	n/a
530.008	0.0795	1060016	keystroke	p	n/a
530.224	0.136	1060448	keystroke	o	n/a
530.3275	0.113	1060655	keystroke	n	n/a
530.4315	0.1605	1060863	keystroke	s	n/a
530.551	0.1525	1061102	keystroke	e	n/a
530.952	0.1515	1061904	keystroke	Key.space	n/a
531.232	0.1525	1062464	keystroke	r	n/a
531.272	0.192	1062544	keystroke	e	n/a
531.3915	0.16	1062783	keystroke	a	n/a
531.52	0.1125	1063040	keystroke	l	n/a
532.3845	0.127	1064769	keystroke	t	n/a
532.5205	0.111	1065041	keystroke	o	n/a
532.6405	0.1355	1065281	keystroke	r	n/a
532.7835	0.1285	1065567	keystroke	Key.space	n/a
533.1365	0.1435	1066273	keystroke	n	n/a
533.24	0.0805	1066480	keystroke	o	n/a
533.304	0.08	1066608	keystroke	b	n/a
533.456	0.104	1066912	keystroke	d	n/a
533.672	0.096	1067344	keystroke	y	n/a
533.848	0.104	1067696	keystroke	Key.enter	n/a
533.9585	10.035	1067917	prompt	n/a	surgical contributors sunshine dynamics\n
534.76	0.112	1069520	keystroke	s	n/a
534.9045	0.088	1069809	keystroke	u	n/a
534.9925	0.0795	1069985	keystroke	r	n/a
535.232	0.1035	1070464	keystroke	g	n/a
535.5285	0.119	1071057	keystroke	i	n/a
535.7115	0.1445	1071423	keystroke	c	n/a
535.7995	0.1525	1071599	keystroke	a	n/a
535.92	0.1515	1071840	keystroke	l	n/a
536.0555	0.1445	1072111	keystroke	Key.space	n/a
536.3045	0.1195	1072609	keystroke	c	n/a
536.392	0.152	1072784	keystroke	o	n/a
536.48	0.1445	1072960	keystroke	n	n/a
536.6475	0.145	1073295	keystroke	t	n/a
536.7275	0.12	1073455	keystroke	r	n/a
537.864	0.144	1075728	keystroke	i	n/a
538.2235	0.1205	1076447	keystroke	b	n/a
538.4885	0.103	1076977	keystroke	u	n/a
538.672	0.1275	1077344	keystroke	t	n/a
538.8165	0.0955	1077633	keystroke	o	n/a
538.919	0.1615	1077838	keystroke	r	n/a
539.0325	0.1275	1078065	keystroke	s	n/a
539.183	0.153	1078366	keystroke	Key.space	n/a
539.48	0.152	1078960	keystroke	s	n/a
539.624	0.128	1079248	keystroke	h	n/a
540.128	0.0715	1080256	keystroke	Key.backspace	n/a
540.4235	0.1605	1080847	keystroke	u	n/a
540.5355	0.088	1081071	keystroke	n	n/a
540.744	0.1435	1081488	keystroke	s	n/a
540.84	0.128	1081680	keystroke	h	n/a
540.9275	0.1765	1081855	keystroke	i	n/a
541.0405	0.1195	1082081	keystroke	n	n/a
541.1515	0.113	1082303	keystroke	e	n/a
541.304	0.1195	1082608	keystroke	Key.space	n/a
541.64	0.12	1083280	keystroke	d	n/a
541.9035	0.136	1083807	keystroke	y	n/a
542.1365	0.0715	1084273	keystroke	n	n/a
542.216	0.1285	1084432	keystroke	a	n/a
542.328	0.08	1084656	keystroke	m	n/a
542.992	0.096	1085984	keystroke	i	n/a
543.1045	0.1435	1086209	keystroke	c	n/a
543.192	0.088	1086384	keystroke	s	n/a
543.287	0.144	1086574	keystroke	Key.space	n/a
543.9115	0.08	1087823	keystroke	Key.enter	n/a
543.9965	7.525	1087993	prompt	n/a	sequence ways goat ordinance\n
544.6395	0.12	1089279	keystroke	s	n/a
545.256	0.072	1090512	keystroke	q	n/a
545.6075	0.0965	1091215	keystroke	Key.backspace	n/a
545.705	0.151	1091410	keystroke	e	n/a
545.824	0.096	1091648	keystroke	q	n/a
546.4	0.096	1092800	keystroke	u	n/a
546.512	0.1355	1093024	keystroke	e	n/a
546.6715	0.0965	1093343	keystroke	n	n/a
546.7755	0.1845	1093551	keystroke	c	n/a
546.856	0.152	1093712	keystroke	e	n/a
547.16	0.128	1094320	keystroke	Key.space	n/a
547.28	0.08	1094560	keystroke	w	n/a
547.4405	0.127	1094881	keystroke	a	n/a
547.544	0.128	1095088	keystroke	y	n/a
547.6645	0.0875	1095329	keystroke	s	n/a
547.8	0.12	1095600	keystroke	Key.space	n/a
548.0725	0.0875	1096145	keystroke	g	n/a
548.161	0.1025	1096322	keystroke	o	n/a
548.2395	0.1515	1096479	keystroke	a	n/a
548.328	0.136	1096656	keystroke	t	n/a
548.448	0.1275	1096896	keystroke	Key.space	n/a
548.728	0.1275	1097456	keystroke	o	n/a
549.1035	0.168	1098207	keystroke	r	n/a
549.5045	0.1505	1099009	keystroke	d	n/a
549.9755	0.1285	1099951	keystroke	i	n/a
550.456	0.104	1100912	keystroke	n	n/a
550.656	0.144	1101312	keystroke	a	n/a
550.7755	0.088	1101551	keystroke	n	n/a
550.8795	0.112	1101759	keystroke	c	n/a
550.9435	0.137	1101887	keystroke	e	n/a
551.44	0.0795	1102880	keystroke	Key.enter	n/a
551.5255	5.1005	1103051	prompt	n/a	somewhat marriage sweet witch\n
552.1355	0.152	1104271	keystroke	s	n/a
552.792	0.184	1105584	keystroke	o	n/a
552.9355	0.1365	1105871	keystroke	m	n/a
553.048	0.127	1106096	keystroke	e	n/a
553.224	0.104	1106448	keystroke	w	n/a
553.3915	0.0875	1106783	keystroke	h	n/a
553.488	0.176	1106976	keystroke	a	n/a
553.607	0.136	1107214	keystroke	t	n/a
553.735	0.1445	1107470	keystroke	Key.space	n/a
553.928	0.1195	1107856	keystroke	m	n/a
554.0395	0.136	1108079	keystroke	a	n/a
554.136	0.0555	1108272	keystroke	r	n/a
554.2715	0.088	1108543	keystroke	r	n/a
554.3755	0.088	1108751	keystroke	i	n/a
554.456	0.1435	1108912	keystroke	a	n/a
554.584	0.12	1109168	keystroke	g	n/a
554.6715	0.104	1109343	keystroke	e	n/a
554.8	0.1355	1109600	keystroke	Key.space	n/a
554.9995	0.0885	1109999	keystroke	s	n/a
555.2	0.12	1110400	keystroke	w	n/a
555.287	0.105	1110574	keystroke	e	n/a
555.448	0.1675	1110896	keystroke	e	n/a
555.608	0.08	1111216	keystroke	t	n/a
555.704	0.135	1111408	keystroke	Key.space	n/a
555.887	0.1365	1111774	keystroke	w	n/a
556.032	0.0875	1112064	keystroke	i	n/a
556.0955	0.0725	1112191	keystroke	t	n/a
556.288	0.1195	1112576	keystroke	c	n/a
556.384	0.0555	1112768	keystroke	h	n/a
556.536	0.0875	1113072	keystroke	Key.enter	n/a
556.63	8.067	1113260	prompt	n/a	november circus oxide heavy\n
557.255	0.136	1114510	keystroke	n	n/a
557.3515	0.128	1114703	keystroke	o	n/a
557.52	0.063	1115040	keystroke	v	n/a
557.631	0.12	1115262	keystroke	e	n/a
557.744	0.0875	1115488	keystroke	m	n/a
558.367	0.1205	1116734	keystroke	b	n/a
558.856	0.176	1117712	keystroke	Key.backspace	n/a
560.176	0.088	1120352	keystroke	b	n/a
560.344	0.144	1120688	keystroke	e	n/a
560.432	0.112	1120864	keystroke	r	n/a
560.559	0.128	1121118	keystroke	Key.space	n/a
561.0155	0.16	1122031	keystroke	c	n/a
561.2155	0.161	1122431	keystroke	i	n/a
561.967	0.08	1123934	keystroke	r	n/a
562.224	0.1285	1124448	keystroke	c	n/a
562.3435	0.112	1124687	keystroke	u	n/a
562.4635	0.0965	1124927	keystroke	s	n/a
562.5755	0.1045	1125151	keystroke	Key.space	n/a
562.8315	0.1125	1125663	keystroke	o	n/a
563.088	0.136	1126176	keystroke	x	n/a
563.216	0.0955	1126432	keystroke	i	n/a
563.3755	0.112	1126751	keystroke	d	n/a
563.6075	0.1925	1127215	keystroke	e	n/a
563.7675	0.1445	1127535	keystroke	Key.space	n/a
564.056	0.104	1128112	keystroke	h	n/a
564.12	0.104	1128240	keystroke	e	n/a
564.232	0.136	1128464	keystroke	a	n/a
564.36	0.08	1128720	keystroke	v	n/a
564.5435	0.088	1129087	keystroke	y	n/a
564.615	0.0805	1129230	keystroke	Key.enter	n/a
564.7	5.1735	1129400	prompt	n/a	kidney runtime exhibits leader\n
565.383	0.0725	1130766	keystroke	k	n/a
565.5515	0.072	1131103	keystroke	i	n/a
565.64	0.1035	1131280	keystroke	d	n/a
565.84	0.087	1131680	keystroke	n	n/a
565.952	0.1035	1131904	keystroke	e	n/a
566.143	0.1045	1132286	keystroke	y	n/a
566.271	0.161	1132542	keystroke	Key.space	n/a
566.591	0.1365	1133182	keystroke	r	n/a
566.695	0.1365	1133390	keystroke	u	n/a
566.799	0.0965	1133598	keystroke	n	n/a
566.919	0.12	1133838	keystroke	t	n/a
566.9995	0.1275	1133999	keystroke	i	n/a
567.079	0.1125	1134158	keystroke	m	n/a
567.1515	0.1115	1134303	keystroke	e	n/a
567.271	0.12	1134542	keystroke	Key.space	n/a
567.6315	0.112	1135263	keystroke	e	n/a
567.8555	0.136	1135711	keystroke	x	n/a
568.016	0.1595	1136032	keystroke	h	n/a
568.1275	0.12	1136255	keystroke	i	n/a
568.2395	0.12	1136479	keystroke	b	n/a
568.344	0.087	1136688	keystroke	i	n/a
568.5035	0.184	1137007	keystroke	t	n/a
568.759	0.137	1137518	keystroke	s	n/a
568.951	0.12	1137902	keystroke	Key.space	n/a
569.2	0.0955	1138400	keystroke	l	n/a
569.24	0.0955	1138480	keystroke	e	n/a
569.3425	0.1695	1138685	keystroke	a	n/a
569.456	0.0955	1138912	keystroke	d	n/a
569.6235	0.144	1139247	keystroke	e	n/a
569.735	0.0565	1139470	keystroke	r	n/a
569.759	0.1125	1139518	keystroke	Key.enter	n/a
569.8765	5.4765	1139753	prompt	n/a	argument readings crack webster\n
570.527	0.145	1141054	keystroke	a	n/a
570.607	0.096	1141214	keystroke	r	n/a
571.0315	0.112	1142063	keystroke	g	n/a
571.1915	0.1115	1142383	keystroke	u	n/a
571.4955	0.1035	1142991	keystroke	m	n/a
571.615	0.1125	1143230	keystroke	e	n/a
571.7435	0.0875	1143487	keystroke	n	n/a
571.8235	0.112	1143647	keystroke	t	n/a
571.9595	0.152	1143919	keystroke	Key.space	n/a
572.263	0.128	1144526	keystroke	r	n/a
572.3275	0.1115	1144655	keystroke	e	n/a
572.407	0.1845	1144814	keystroke	a	n/a
572.5435	0.136	1145087	keystroke	d	n/a
572.6625	0.113	1145325	keystroke	i	n/a
572.7355	0.088	1145471	keystroke	n	n/a
572.7995	0.1435	1145599	keystroke	g	n/a
572.919	0.12	1145838	keystroke	s	n/a
573.0635	0.1195	1146127	keystroke	Key.space	n/a
573.247	0.1125	1146494	keystroke	c	n/a
573.48	0.111	1146960	keystroke	r	n/a
573.5675	0.208	1147135	keystroke	a	n/a
573.7355	0.1445	1147471	keystroke	c	n/a
573.847	0.144	1147694	keystroke	k	n/a
573.9995	0.112	1147999	keystroke	Key.space	n/a
574.0795	0.0885	1148159	keystroke	w	n/a
574.1435	0.1605	1148287	keystroke	e	n/a
574.4875	0.128	1148975	keystroke	b	n/a
574.7515	0.1595	1149503	keystroke	s	n/a
574.9275	0.1195	1149855	keystroke	t	n/a
575.0235	0.1435	1150047	keystroke	e	n/a
575.135	0.105	1150270	keystroke	r	n/a
575.2635	0.088	1150527	keystroke	Key.enter	n/a
575.358	5.395	1150716	prompt	n/a	monitor ratings staff harold\n
576.0235	0.1515	1152047	keystroke	m	n/a
576.167	0.185	1152334	keystroke	o	n/a
576.327	0.1925	1152654	keystroke	n	n/a
576.447	0.121	1152894	keystroke	i	n/a
576.5755	0.0955	1153151	keystroke	t	n/a
576.688	0.0875	1153376	keystroke	o	n/a
576.784	0.1195	1153568	keystroke	r	n/a
576.896	0.1355	1153792	keystroke	Key.space	n/a
577.0555	0.104	1154111	keystroke	r	n/a
577.1435	0.168	1154287	keystroke	a	n/a
577.2715	0.128	1154543	keystroke	t	n/a
577.392	0.1195	1154784	keystroke	i	n/a
577.4795	0.072	1154959	keystroke	n	n/a
577.5435	0.0885	1155087	keystroke	g	n/a
577.671	0.1125	1155342	keystroke	Key.space	n/a
577.8475	0.128	1155695	keystroke	s	n/a
577.951	0.1045	1155902	keystroke	t	n/a
578.0795	0.1445	1156159	keystroke	a	n/a
578.208	0.08	1156416	keystroke	f	n/a
578.375	0.0885	1156750	keystroke	f	n/a
578.495	0.136	1156990	keystroke	Key.space	n/a
578.744	0.112	1157488	keystroke	h	n/a
578.8475	0.152	1157695	keystroke	a	n/a
578.944	0.1515	1157888	keystroke	r	n/a
579.927	0.177	1159854	keystroke	o	n/a
580.3835	0.1605	1160767	keystroke	l	n/a
580.551	0.12	1161102	keystroke	d	n/a
580.664	0.087	1161328	keystroke	Key.enter	n/a
580.7585	8.1635	1161517	prompt	n/a	atlas inspiration effectively advance\n
581.4315	0.1595	1162863	keystroke	a	n/a
581.8955	0.136	1163791	keystroke	t	n/a
582.128	0.1275	1164256	keystroke	l	n/a
582.248	0.1675	1164496	keystroke	a	n/a
582.3595	0.16	1164719	keystroke	s	n/a
582.5345	0.16	1165069	keystroke	Key.space	n/a
582.8475	0.176	1165695	keystroke	i	n/a
583.191	0.089	1166382	keystroke	n	n/a
583.448	0.135	1166896	keystroke	s	n/a
583.663	0.137	1167326	keystroke	p	n/a
583.9915	0.088	1167983	keystroke	i	n/a
584.1195	0.112	1168239	keystroke	r	n/a
584.2955	0.184	1168591	keystroke	a	n/a
584.4395	0.144	1168879	keystroke	t	n/a
584.5435	0.176	1169087	keystroke	i	n/a
584.6555	0.1355	1169311	keystroke	o	n/a
584.743	0.1685	1169486	keystroke	n	n/a
584.8875	0.144	1169775	keystroke	Key.space	n/a
585.0715	0.096	1170143	keystroke	e	n/a
585.2155	0.119	1170431	keystroke	f	n/a
585.4315	0.1365	1170863	keystroke	f	n/a
585.5515	0.176	1171103	keystroke	e	n/a
585.6955	0.08	1171391	keystroke	c	n/a
585.935	0.112	1171870	keystroke	t	n/a
586.1195	0.136	1172239	keystroke	i	n/a
586.3585	0.129	1172717	keystroke	v	n/a
586.4715	0.136	1172943	keystroke	e	n/a
586.663	0.072	1173326	keystroke	l	n/a
586.8155	0.136	1173631	keystroke	y	n/a
586.9675	0.135	1173935	keystroke	Key.space	n/a
587.1355	0.128	1174271	keystroke	a	n/a
587.2795	0.152	1174559	keystroke	d	n/a
588.1995	0.1355	1176399	keystroke	v	n/a
588.3755	0.1605	1176751	keystroke	a	n/a
588.5195	0.0965	1177039	keystroke	n	n/a
588.6235	0.1035	1177247	keystroke	c	n/a
588.6715	0.1115	1177343	keystroke	e	n/a
588.823	0.0965	1177646	keystroke	Key.enter	n/a
588.9255	8.8035	1177851	prompt	n/a	indonesia oldest john acdbentity\n
589.6955	0.192	1179391	keystroke	i	n/a
589.8635	0.088	1179727	keystroke	n	n/a
590.0635	0.136	1180127	keystroke	d	n/a
590.215	0.1365	1180430	keystroke	o	n/a
590.736	0.1115	1181472	keystroke	e	n/a
590.9595	0.08	1181919	keystroke	s	n/a
591.0875	0.0885	1182175	keystroke	i	n/a
591.2395	0.1525	1182479	keystroke	a	n/a
591.407	0.168	1182814	keystroke	Key.space	n/a
591.7035	0.096	1183407	keystroke	o	n/a
591.9355	0.072	1183871	keystroke	l	n/a
592.0235	0.08	1184047	keystroke	d	n/a
592.1995	0.1595	1184399	keystroke	e	n/a
592.351	0.1445	1184702	keystroke	s	n/a
592.5755	0.128	1185151	keystroke	t	n/a
592.791	0.1045	1185582	keystroke	Key.space	n/a
593.1115	0.1515	1186223	keystroke	j	n/a
593.303	0.0645	1186606	keystroke	o	n/a
593.448	0.096	1186896	keystroke	h	n/a
593.8955	0.0475	1187791	keystroke	Key.backspace	n/a
594.336	0.088	1188672	keystroke	h	n/a
594.5515	0.128	1189103	keystroke	n	n/a
594.751	0.168	1189502	keystroke	Key.space	n/a
594.895	0.1685	1189790	keystroke	a	n/a
595.1115	0.1115	1190223	keystroke	c	n/a
595.656	0.136	1191312	keystroke	d	n/a
596.247	0.104	1192494	keystroke	b	n/a
596.519	0.1285	1193038	keystroke	e	n/a
596.6865	0.113	1193373	keystroke	n	n/a
596.8875	0.168	1193775	keystroke	t	n/a
597.2075	0.088	1194415	keystroke	i	n/a
597.3035	0.0885	1194607	keystroke	t	n/a
597.495	0.089	1194990	keystroke	y	n/a
597.6475	0.08	1195295	keystroke	Key.enter	n/a
597.7335	6.412	1195467	prompt	n/a	biographies repair ordered details\n
598.424	0.143	1196848	keystroke	b	n/a
598.5435	0.1755	1197087	keystroke	i	n/a
598.6395	0.1275	1197279	keystroke	o	n/a
598.815	0.072	1197630	keystroke	g	n/a
598.9755	0.168	1197951	keystroke	r	n/a
599.0955	0.1435	1198191	keystroke	a	n/a
599.2075	0.1525	1198415	keystroke	p	n/a
600.503	0.128	1201006	keystroke	h	n/a
600.6475	0.0955	1201295	keystroke	i	n/a
600.703	0.168	1201406	keystroke	e	n/a
600.815	0.1195	1201630	keystroke	s	n/a
601.007	0.136	1202014	keystroke	Key.space	n/a
601.191	0.1685	1202382	keystroke	r	n/a
601.2635	0.128	1202527	keystroke	e	n/a
601.4235	0.087	1202847	keystroke	p	n/a
601.5195	0.159	1203039	keystroke	a	n/a
601.6475	0.0955	1203295	keystroke	i	n/a
601.751	0.1045	1203502	keystroke	r	n/a
601.863	0.1435	1203726	keystroke	Key.space	n/a
602.0305	0.12	1204061	keystroke	o	n/a
602.127	0.144	1204254	keystroke	r	n/a
602.2385	0.072	1204477	keystroke	d	n/a
602.3985	0.1605	1204797	keystroke	e	n/a
602.528	0.127	1205056	keystroke	r	n/a
602.6715	0.0955	1205343	keystroke	e	n/a
602.831	0.144	1205662	keystroke	d	n/a
602.9995	0.144	1205999	keystroke	Key.space	n/a
603.2155	0.0715	1206431	keystroke	d	n/a
603.3595	0.1675	1206719	keystroke	e	n/a
603.4955	0.1835	1206991	keystroke	t	n/a
603.607	0.1365	1207214	keystroke	a	n/a
603.703	0.16	1207406	keystroke	i	n/a
603.8075	0.1115	1207615	keystroke	l	n/a
603.8955	0.096	1207791	keystroke	s	n/a
604.0475	0.0955	1208095	keystroke	Key.enter	n/a
604.1535	6.303	1208307	prompt	n/a	functional cells mechanical alone\n
604.7435	0.168	1209487	keystroke	f	n/a
604.9035	0.152	1209807	keystroke	u	n/a
605.0155	0.104	1210031	keystroke	n	n/a
605.1665	0.12	1210333	keystroke	c	n/a
605.5675	0.16	1211135	keystroke	t	n/a
605.703	0.216	1211406	keystroke	i	n/a
605.807	0.144	1211614	keystroke	o	n/a
605.887	0.128	1211774	keystroke	n	n/a
606.0075	0.16	1212015	keystroke	a	n/a
606.1435	0.1995	1212287	keystroke	l	n/a
606.3195	0.1355	1212639	keystroke	Key.space	n/a
606.423	0.1435	1212846	keystroke	c	n/a
606.495	0.1205	1212990	keystroke	e	n/a
606.6305	0.057	1213261	keystroke	l	n/a
606.7755	0.0795	1213551	keystroke	l	n/a
606.856	0.1035	1213712	keystroke	s	n/a
606.967	0.1205	1213934	keystroke	Key.space	n/a
607.3355	0.112	1214671	keystroke	m	n/a
607.4315	0.1755	1214863	keystroke	e	n/a
607.9195	0.16	1215839	keystroke	c	n/a
608.0475	0.104	1216095	keystroke	h	n/a
608.239	0.1515	1216478	keystroke	a	n/a
608.359	0.1605	1216718	keystroke	n	n/a
608.5115	0.128	1217023	keystroke	i	n/a
608.6555	0.1195	1217311	keystroke	c	n/a
608.7275	0.1515	1217455	keystroke	a	n/a
608.8475	0.1435	1217695	keystroke	l	n/a
608.9825	0.136	1217965	keystroke	Key.space	n/a
609.1675	0.136	1218335	keystroke	a	n/a
609.319	0.0645	1218638	keystroke	l	n/a
609.3355	0.056	1218671	keystroke	b	n/a
609.8305	0.057	1219661	keystroke	Key.backspace	n/a
610.0945	0.1365	1220189	keystroke	o	n/a
610.199	0.08	1220398	keystroke	n	n/a
610.287	0.0805	1220574	keystroke	e	n/a
610.3825	0.0725	1220765	keystroke	Key.enter	n/a
610.4595	5.837	1220919	prompt	n/a	print rapidly gather intake\n
612.935	0.0965	1225870	keystroke	p	n/a
613.039	0.1205	1226078	keystroke	r	n/a
613.1835	0.111	1226367	keystroke	i	n/a
613.2395	0.088	1226479	keystroke	n	n/a
613.3275	0.1115	1226655	keystroke	t	n/a
613.4475	0.0955	1226895	keystroke	Key.space	n/a
613.575	0.1525	1227150	keystroke	r	n/a
613.679	0.12	1227358	keystroke	a	n/a
613.743	0.104	1227486	keystroke	p	n/a
613.9115	0.103	1227823	keystroke	i	n/a
614.0065	0.1445	1228013	keystroke	d	n/a
614.2155	0.1035	1228431	keystroke	l	n/a
614.3595	0.111	1228719	keystroke	y	n/a
614.4625	0.128	1228925	keystroke	Key.space	n/a
614.6705	0.136	1229341	keystroke	g	n/a
614.8145	0.144	1229629	keystroke	a	n/a
614.9025	0.137	1229805	keystroke	t	n/a
615.055	0.08	1230110	keystroke	h	n/a
615.127	0.1035	1230254	keystroke	e	n/a
615.199	0.1445	1230398	keystroke	r	n/a
615.335	0.128	1230670	keystroke	Key.space	n/a
615.5115	0.1595	1231023	keystroke	i	n/a
615.631	0.0965	1231262	keystroke	n	n/a
615.767	0.176	1231534	keystroke	t	n/a
615.887	0.128	1231774	keystroke	a	n/a
615.9835	0.096	1231967	keystroke	k	n/a
616.0945	0.096	1232189	keystroke	e	n/a
