onset	duration	sample	value	key	prompt_text
1.6805	20.325	3361	prompt	n/a	the quick brown fox jumps over a lazy dog\n
12.9745	0.001	25949	keystroke_t	t	n/a
12.9745	0.011	25949	keystroke_h	h	n/a
13.0305	0.12	26061	keystroke_e	e	n/a
13.4955	0.031	26991	keystroke_Key.backspace	Key.backspace	n/a
13.6015	0.0895	27203	keystroke_Key.backspace	Key.backspace	n/a
13.706	0.105	27412	keystroke_Key.backspace	Key.backspace	n/a
14.201	0.091	28402	keystroke_t	t	n/a
14.4865	0.135	28973	keystroke_h	h	n/a
14.6365	0.105	29273	keystroke_e	e	n/a
14.7265	0.135	29453	keystroke_Key.space	Key.space	n/a
14.8915	0.135	29783	keystroke_q	q	n/a
15.0115	0.105	30023	keystroke_u	u	n/a
15.1915	0.12	30383	keystroke_i	i	n/a
15.3565	0.105	30713	keystroke_c	c	n/a
15.5065	0.12	31013	keystroke_k	k	n/a
15.6415	0.075	31283	keystroke_Key.space	Key.space	n/a
15.8815	0.06	31763	keystroke_b	b	n/a
16.0615	0.075	32123	keystroke_r	r	n/a
16.346	0.1205	32692	keystroke_o	o	n/a
16.5115	0.0295	33023	keystroke_n	n	n/a
16.766	0.06	33532	keystroke_Key.backspace	Key.backspace	n/a
16.841	0.105	33682	keystroke_w	w	n/a
16.961	0.075	33922	keystroke_n	n	n/a
17.126	0.12	34252	keystroke_Key.space	Key.space	n/a
17.261	0.12	34522	keystroke_f	f	n/a
17.426	0.09	34852	keystroke_l	l	n/a
17.7265	0.06	35453	keystroke_Key.backspace	Key.backspace	n/a
17.9065	0.105	35813	keystroke_o	o	n/a
17.9965	0.09	35993	keystroke_x	x	n/a
18.1165	0.09	36233	keystroke_Key.space	Key.space	n/a
18.2215	0.075	36443	keystroke_j	j	n/a
18.401	0.075	36802	keystroke_u	u	n/a
18.596	0.09	37192	keystroke_m	m	n/a
18.716	0.09	37432	keystroke_p	p	n/a
18.911	0.12	37822	keystroke_s	s	n/a
19.061	0.0755	38122	keystroke_Key.space	Key.space	n/a
19.3315	0.105	38663	keystroke_o	o	n/a
19.4505	0.061	38901	keystroke_v	v	n/a
19.5415	0.134	39083	keystroke_e	e	n/a
19.6315	0.1055	39263	keystroke_r	r	n/a
19.7215	0.09	39443	keystroke_Key.space	Key.space	n/a
19.8265	0.15	39653	keystroke_a	a	n/a
19.9465	0.12	39893	keystroke_Key.space	Key.space	n/a
20.0515	0.165	40103	keystroke_l	l	n/a
20.2615	0.015	40523	keystroke_z	z	n/a
20.5765	0.06	41153	keystroke_Key.backspace	Key.backspace	n/a
20.5915	0.105	41183	keystroke_a	a	n/a
20.7865	0.09	41573	keystroke_z	z	n/a
21.2665	0.076	42533	keystroke_y	y	n/a
21.3715	0.105	42743	keystroke_Key.space	Key.space	n/a
21.5665	0.09	43133	keystroke_d	d	n/a
21.6415	0.12	43283	keystroke_o	o	n/a
21.7465	0.09	43493	keystroke_g	g	n/a
21.9115	0.0895	43823	keystroke_Key.enter	Key.enter	n/a
22.0145	6.1545	44029	prompt	n/a	webmaster floor waters mighty\n
22.842	0.089	45684	keystroke_w	w	n/a
22.946	0.09	45892	keystroke_e	e	n/a
23.141	0.076	46282	keystroke_b	b	n/a
23.472	0.089	46944	keystroke_m	m	n/a
23.546	0.135	47092	keystroke_a	a	n/a
23.726	0.091	47452	keystroke_s	s	n/a
23.981	0.0305	47962	keystroke_t	t	n/a
24.4615	0.12	48923	keystroke_e	e	n/a
24.5815	0.1195	49163	keystroke_r	r	n/a
24.746	0.135	49492	keystroke_Key.space	Key.space	n/a
24.896	0.09	49792	keystroke_f	f	n/a
24.957	0.089	49914	keystroke_l	l	n/a
25.152	0.074	50304	keystroke_o	o	n/a
25.406	0.105	50812	keystroke_o	o	n/a
25.542	0.104	51084	keystroke_r	r	n/a
25.691	0.105	51382	keystroke_Key.space	Key.space	n/a
25.886	0.1355	51772	keystroke_w	w	n/a
26.0965	0.045	52193	keystroke_a	a	n/a
26.1865	0.075	52373	keystroke_t	t	n/a
26.3215	0.12	52643	keystroke_e	e	n/a
26.3965	0.075	52793	keystroke_r	r	n/a
26.5765	0.12	53153	keystroke_s	s	n/a
26.7115	0.075	53423	keystroke_Key.space	Key.space	n/a
26.8165	0.105	53633	keystroke_m	m	n/a
27.0115	0.09	54023	keystroke_i	i	n/a
27.1165	0.06	54233	keystroke_g	g	n/a
27.1915	0.0905	54383	keystroke_h	h	n/a
27.282	0.089	54564	keystroke_t	t	n/a
27.792	0.104	55584	keystroke_y	y	n/a
28.076	0.09	56152	keystroke_Key.enter	Key.enter	n/a
28.1765	7.448	56353	prompt	n/a	hack designed status monitor\n
29.037	0.089	58074	keystroke_h	h	n/a
29.382	0.089	58764	keystroke_a	a	n/a
29.531	0.135	59062	keystroke_c	c	n/a
29.711	0.106	59422	keystroke_k	k	n/a
29.876	0.105	59752	keystroke_Key.space	Key.space	n/a
30.056	0.09	60112	keystroke_e	e	n/a
30.371	0.0605	60742	keystroke_Key.backspace	Key.backspace	n/a
30.4465	0.09	60893	keystroke_d	d	n/a
30.6265	0.09	61253	keystroke_e	e	n/a
30.8815	0.09	61763	keystroke_s	s	n/a
31.0465	0.12	62093	keystroke_i	i	n/a
31.1815	0.091	62363	keystroke_g	g	n/a
31.2865	0.075	62573	keystroke_n	n	n/a
31.3915	0.045	62783	keystroke_e	e	n/a
31.7515	0.12	63503	keystroke_d	d	n/a
31.9465	0.12	63893	keystroke_Key.space	Key.space	n/a
32.2015	0.09	64403	keystroke_s	s	n/a
32.396	0.075	64792	keystroke_t	t	n/a
32.726	0.075	65452	keystroke_t	t	n/a
32.981	0.076	65962	keystroke_Key.backspace	Key.backspace	n/a
33.087	0.06	66174	keystroke_a	a	n/a
33.161	0.09	66322	keystroke_t	t	n/a
33.267	0.09	66534	keystroke_u	u	n/a
33.371	0.121	66742	keystroke_s	s	n/a
33.506	0.12	67012	keystroke_Key.space	Key.space	n/a
33.851	0.075	67702	keystroke_m	m	n/a
33.941	0.046	67882	keystroke_a	a	n/a
34.166	0.06	68332	keystroke_Key.backspace	Key.backspace	n/a
34.437	0.105	68874	keystroke_o	o	n/a
34.467	0.134	68934	keystroke_n	n	n/a
34.992	0.089	69984	keystroke_i	i	n/a
35.111	0.076	70222	keystroke_t	t	n/a
35.201	0.121	70402	keystroke_o	o	n/a
35.307	0.089	70614	keystroke_r	r	n/a
35.486	0.135	70972	keystroke_Key.enter	Key.enter	n/a
35.63	7.0135	71260	prompt	n/a	effort estonia clara visit\n
36.102	0.105	72204	keystroke_e	e	n/a
36.297	0.06	72594	keystroke_f	f	n/a
36.446	0.076	72892	keystroke_f	f	n/a
36.551	0.106	73102	keystroke_o	o	n/a
36.657	0.09	73314	keystroke_r	r	n/a
36.912	0.105	73824	keystroke_t	t	n/a
37.482	0.105	74964	keystroke_Key.space	Key.space	n/a
37.751	0.09	75502	keystroke_e	e	n/a
37.932	0.119	75864	keystroke_s	s	n/a
38.186	0.06	76372	keystroke_t	t	n/a
38.366	0.12	76732	keystroke_o	o	n/a
38.441	0.09	76882	keystroke_n	n	n/a
38.651	0.09	77302	keystroke_i	i	n/a
38.981	0.135	77962	keystroke_a	a	n/a
39.296	0.1055	78592	keystroke_Key.space	Key.space	n/a
39.7315	0.135	79463	keystroke_c	c	n/a
39.9425	0.149	79885	keystroke_l	l	n/a
40.0465	0.105	80093	keystroke_a	a	n/a
40.2715	0.09	80543	keystroke_r	r	n/a
40.7665	0.12	81533	keystroke_a	a	n/a
41.6665	0.12	83333	keystroke_Key.space	Key.space	n/a
41.8465	0.121	83693	keystroke_v	v	n/a
41.9515	0.12	83903	keystroke_i	i	n/a
42.0415	0.12	84083	keystroke_s	s	n/a
42.1765	0.135	84353	keystroke_i	i	n/a
42.2965	0.105	84593	keystroke_t	t	n/a
42.5365	0.105	85073	keystroke_Key.enter	Key.enter	n/a
42.6505	7.2835	85301	prompt	n/a	rough household floyd elephant\n
43.2265	0.075	86453	keystroke_r	r	n/a
43.2865	0.09	86573	keystroke_o	o	n/a
43.4515	0.105	86903	keystroke_u	u	n/a
43.5865	0.09	87173	keystroke_g	g	n/a
43.692	0.075	87384	keystroke_h	h	n/a
43.796	0.105	87592	keystroke_Key.space	Key.space	n/a
44.022	0.104	88044	keystroke_h	h	n/a
44.112	0.12	88224	keystroke_o	o	n/a
44.307	0.119	88614	keystroke_u	u	n/a
44.442	0.09	88884	keystroke_s	s	n/a
44.621	0.091	89242	keystroke_e	e	n/a
44.937	0.12	89874	keystroke_h	h	n/a
45.027	0.075	90054	keystroke_o	o	n/a
45.192	0.105	90384	keystroke_l	l	n/a
45.297	0.12	90594	keystroke_d	d	n/a
45.402	0.135	90804	keystroke_Key.space	Key.space	n/a
45.627	0.09	91254	keystroke_f	f	n/a
45.702	0.09	91404	keystroke_l	l	n/a
46.032	0.09	92064	keystroke_o	o	n/a
46.227	0.0895	92454	keystroke_y	y	n/a
46.6765	0.09	93353	keystroke_e	e	n/a
46.9015	0.09	93803	keystroke_d	d	n/a
47.2165	0.075	94433	keystroke_Key.backspace	Key.backspace	n/a
47.3365	0.105	94673	keystroke_Key.backspace	Key.backspace	n/a
47.4115	0.12	94823	keystroke_d	d	n/a
47.7565	0.105	95513	keystroke_Key.space	Key.space	n/a
47.9665	0.075	95933	keystroke_e	e	n/a
48.1315	0.1045	96263	keystroke_l	l	n/a
48.521	0.075	97042	keystroke_e	e	n/a
48.567	0.135	97134	keystroke_p	p	n/a
49.107	0.089	98214	keystroke_h	h	n/a
49.301	0.136	98602	keystroke_a	a	n/a
49.407	0.089	98814	keystroke_n	n	n/a
49.587	0.104	99174	keystroke_t	t	n/a
49.796	0.136	99592	keystroke_Key.enter	Key.enter	n/a
49.939	7.825	99878	prompt	n/a	mongolia nancy intention proper\n
50.576	0.106	101152	keystroke_m	m	n/a
50.696	0.105	101392	keystroke_o	o	n/a
50.771	0.091	101542	keystroke_n	n	n/a
51.1765	0.03	102353	keystroke_g	g	n/a
51.4765	0.09	102953	keystroke_o	o	n/a
51.6565	0.105	103313	keystroke_l	l	n/a
52.0165	0.075	104033	keystroke_i	i	n/a
52.4065	0.12	104813	keystroke_a	a	n/a
52.6015	0.09	105203	keystroke_Key.space	Key.space	n/a
52.7365	0.1055	105473	keystroke_n	n	n/a
52.962	0.105	105924	keystroke_a	a	n/a
53.051	0.105	106102	keystroke_n	n	n/a
53.201	0.12	106402	keystroke_c	c	n/a
53.487	0.105	106974	keystroke_y	y	n/a
53.666	0.105	107332	keystroke_Key.space	Key.space	n/a
53.846	0.136	107692	keystroke_i	i	n/a
53.906	0.15	107812	keystroke_n	n	n/a
54.251	0.09	108502	keystroke_t	t	n/a
54.446	0.091	108892	keystroke_e	e	n/a
54.566	0.091	109132	keystroke_n	n	n/a
55.437	0.075	110874	keystroke_t	t	n/a
55.571	0.09	111142	keystroke_i	i	n/a
55.901	0.12	111802	keystroke_o	o	n/a
55.962	0.134	111924	keystroke_n	n	n/a
56.426	0.105	112852	keystroke_Key.space	Key.space	n/a
56.682	0.089	113364	keystroke_p	p	n/a
56.907	0.075	113814	keystroke_r	r	n/a
56.996	0.091	113992	keystroke_o	o	n/a
57.176	0.106	114352	keystroke_p	p	n/a
57.311	0.165	114622	keystroke_e	e	n/a
57.462	0.075	114924	keystroke_r	r	n/a
57.657	0.104	115314	keystroke_Key.enter	Key.enter	n/a
57.772	7.0275	115544	prompt	n/a	tanzania pulse infant pubs\n
58.392	0.075	116784	keystroke_t	t	n/a
58.6615	0.09	117323	keystroke_a	a	n/a
58.7815	0.105	117563	keystroke_n	n	n/a
59.6065	0.12	119213	keystroke_z	z	n/a
59.8615	0.12	119723	keystroke_a	a	n/a
60.2365	0.075	120473	keystroke_n	n	n/a
60.5365	0.09	121073	keystroke_i	i	n/a
60.6415	0.135	121283	keystroke_a	a	n/a
60.8515	0.119	121703	keystroke_Key.space	Key.space	n/a
61.1365	0.075	122273	keystroke_p	p	n/a
61.3165	0.105	122633	keystroke_u	u	n/a
61.4665	0.135	122933	keystroke_l	l	n/a
61.6015	0.12	123203	keystroke_s	s	n/a
61.7965	0.12	123593	keystroke_e	e	n/a
61.9005	0.106	123801	keystroke_Key.space	Key.space	n/a
61.9915	0.135	123983	keystroke_i	i	n/a
62.0665	0.105	124133	keystroke_n	n	n/a
62.2165	0.105	124433	keystroke_f	f	n/a
62.5015	0.09	125003	keystroke_n	n	n/a
62.7865	0.075	125573	keystroke_Key.backspace	Key.backspace	n/a
63.1765	0.105	126353	keystroke_a	a	n/a
63.2965	0.09	126593	keystroke_n	n	n/a
63.446	0.12	126892	keystroke_t	t	n/a
63.8505	0.12	127701	keystroke_Key.space	Key.space	n/a
64.0315	0.105	128063	keystroke_p	p	n/a
64.1665	0.105	128333	keystroke_u	u	n/a
64.3765	0.075	128753	keystroke_b	b	n/a
64.5415	0.09	129083	keystroke_s	s	n/a
64.6755	0.12	129351	keystroke_Key.enter	Key.enter	n/a
64.809	9.1545	129618	prompt	n/a	notre consecutive under next\n
65.456	0.165	130912	keystroke_n	n	n/a
65.681	0.12	131362	keystroke_o	o	n/a
65.816	0.075	131632	keystroke_r	r	n/a
66.012	0.059	132024	keystroke_t	t	n/a
66.221	0.105	132442	keystroke_r	r	n/a
66.911	0.195	133822	keystroke_Key.backspace	Key.backspace	n/a
67.181	0.105	134362	keystroke_Key.backspace	Key.backspace	n/a
67.467	0.089	134934	keystroke_t	t	n/a
67.661	0.06	135322	keystroke_Key.backspace	Key.backspace	n/a
67.781	0.09	135562	keystroke_Key.backspace	Key.backspace	n/a
67.887	0.075	135774	keystroke_t	t	n/a
68.006	0.12	136012	keystroke_o	o	n/a
68.3815	0.075	136763	keystroke_Key.backspace	Key.backspace	n/a
68.5315	0.12	137063	keystroke_r	r	n/a
68.9965	0.105	137993	keystroke_e	e	n/a
69.2815	0.1045	138563	keystroke_Key.space	Key.space	n/a
69.537	0.12	139074	keystroke_c	c	n/a
69.642	0.12	139284	keystroke_o	o	n/a
69.701	0.12	139402	keystroke_n	n	n/a
69.896	0.105	139792	keystroke_s	s	n/a
70.181	0.105	140362	keystroke_e	e	n/a
70.436	0.121	140872	keystroke_c	c	n/a
70.751	0.105	141502	keystroke_t	t	n/a
71.036	0.09	142072	keystroke_Key.backspace	Key.backspace	n/a
71.216	0.09	142432	keystroke_u	u	n/a
71.321	0.105	142642	keystroke_t	t	n/a
71.441	0.135	142882	keystroke_i	i	n/a
71.561	0.09	143122	keystroke_v	v	n/a
71.711	0.135	143422	keystroke_e	e	n/a
71.861	0.12	143722	keystroke_Key.space	Key.space	n/a
71.996	0.075	143992	keystroke_u	u	n/a
72.206	0.0755	144412	keystroke_n	n	n/a
72.4015	0.075	144803	keystroke_d	d	n/a
72.5655	0.136	145131	keystroke_e	e	n/a
72.6865	0.104	145373	keystroke_r	r	n/a
72.8505	0.121	145701	keystroke_Key.space	Key.space	n/a
73.1215	0.105	146243	keystroke_n	n	n/a
73.2115	0.075	146423	keystroke_e	e	n/a
73.4065	0.105	146813	keystroke_x	x	n/a
73.6315	0.12	147263	keystroke_t	t	n/a
73.8415	0.12	147683	keystroke_Key.enter	Key.enter	n/a
73.9695	11.0935	147939	prompt	n/a	campaigns operate barely largely\n
74.4565	0.12	148913	keystroke_c	c	n/a
74.5315	0.135	149063	keystroke_o	o	n/a
74.6365	0.075	149273	keystroke_m	m	n/a
74.9365	0.105	149873	keystroke_a	a	n/a
75.2965	0.075	150593	keystroke_Key.backspace	Key.backspace	n/a
75.4315	0.075	150863	keystroke_Key.backspace	Key.backspace	n/a
75.5655	0.106	151131	keystroke_Key.backspace	Key.backspace	n/a
75.7315	0.12	151463	keystroke_a	a	n/a
75.8655	0.106	151731	keystroke_m	m	n/a
76.5865	0.105	153173	keystroke_p	p	n/a
76.9915	0.09	153983	keystroke_a	a	n/a
77.2615	0.12	154523	keystroke_i	i	n/a
77.5165	0.075	155033	keystroke_g	g	n/a
77.6665	0.09	155333	keystroke_n	n	n/a
77.7865	0.075	155573	keystroke_e	e	n/a
78.0565	0.09	156113	keystroke_Key.backspace	Key.backspace	n/a
78.1615	0.12	156323	keystroke_s	s	n/a
78.5215	0.105	157043	keystroke_Key.space	Key.space	n/a
78.6865	0.135	157373	keystroke_o	o	n/a
78.8365	0.03	157673	keystroke_v	v	n/a
79.0915	0.075	158183	keystroke_Key.backspace	Key.backspace	n/a
79.3315	0.12	158663	keystroke_p	p	n/a
79.976	0.12	159952	keystroke_e	e	n/a
80.157	0.075	160314	keystroke_r	r	n/a
80.337	0.1195	160674	keystroke_a	a	n/a
80.5465	0.075	161093	keystroke_t	t	n/a
80.7115	0.105	161423	keystroke_e	e	n/a
80.8915	0.105	161783	keystroke_Key.space	Key.space	n/a
81.0565	0.1055	162113	keystroke_b	b	n/a
81.221	0.105	162442	keystroke_a	a	n/a
81.416	0.075	162832	keystroke_r	r	n/a
81.521	0.135	163042	keystroke_l	l	n/a
81.671	0.106	163342	keystroke_e	e	n/a
82.196	0.045	164392	keystroke_Key.backspace	Key.backspace	n/a
82.316	0.09	164632	keystroke_Key.backspace	Key.backspace	n/a
82.421	0.12	164842	keystroke_e	e	n/a
82.556	0.121	165112	keystroke_l	l	n/a
82.706	0.106	165412	keystroke_y	y	n/a
83.051	0.075	166102	keystroke_Key.space	Key.space	n/a
83.487	0.134	166974	keystroke_l	l	n/a
83.741	0.09	167482	keystroke_a	a	n/a
83.921	0.106	167842	keystroke_r	r	n/a
84.221	0.06	168442	keystroke_g	g	n/a
84.387	0.1335	168774	keystroke_e	e	n/a
84.5365	0.165	169073	keystroke_l	l	n/a
84.7155	0.105	169431	keystroke_y	y	n/a
84.9705	0.091	169941	keystroke_Key.enter	Key.enter	n/a
85.069	5.081	170138	prompt	n/a	core rely arrivals issued\n
85.6465	0.12	171293	keystroke_c	c	n/a
85.8115	0.104	171623	keystroke_o	o	n/a
85.9315	0.105	171863	keystroke_r	r	n/a
86.0205	0.1355	172041	keystroke_e	e	n/a
86.201	0.09	172402	keystroke_Key.space	Key.space	n/a
86.321	0.12	172642	keystroke_r	r	n/a
86.696	0.12	173392	keystroke_e	e	n/a
86.846	0.15	173692	keystroke_l	l	n/a
87.056	0.12	174112	keystroke_y	y	n/a
87.281	0.12	174562	keystroke_Key.space	Key.space	n/a
87.581	0.09	175162	keystroke_a	a	n/a
87.776	0.06	175552	keystroke_r	r	n/a
87.912	0.075	175824	keystroke_r	r	n/a
88.016	0.105	176032	keystroke_i	i	n/a
88.106	0.06	176212	keystroke_v	v	n/a
88.377	0.089	176754	keystroke_a	a	n/a
88.481	0.136	176962	keystroke_l	l	n/a
88.572	0.119	177144	keystroke_s	s	n/a
88.721	0.09	177442	keystroke_Key.space	Key.space	n/a
88.886	0.105	177772	keystroke_i	i	n/a
89.006	0.06	178012	keystroke_s	s	n/a
89.156	0.09	178312	keystroke_s	s	n/a
89.291	0.09	178582	keystroke_u	u	n/a
89.337	0.075	178674	keystroke_e	e	n/a
89.502	0.119	179004	keystroke_s	s	n/a
89.801	0.09	179602	keystroke_Key.backspace	Key.backspace	n/a
89.877	0.104	179754	keystroke_d	d	n/a
90.041	0.105	180082	keystroke_Key.enter	Key.enter	n/a
90.1585	9.816	180317	prompt	n/a	vancouver roster implement frankfurt\n
90.777	0.06	181554	keystroke_v	v	n/a
90.971	0.1355	181942	keystroke_a	a	n/a
91.1215	0.09	182243	keystroke_n	n	n/a
91.3455	0.121	182691	keystroke_c	c	n/a
91.6465	0.06	183293	keystroke_o	o	n/a
91.8565	0.105	183713	keystroke_u	u	n/a
92.577	0.044	185154	keystroke_v	v	n/a
92.727	0.165	185454	keystroke_e	e	n/a
92.862	0.074	185724	keystroke_r	r	n/a
93.476	0.075	186952	keystroke_Key.space	Key.space	n/a
93.731	0.09	187462	keystroke_r	r	n/a
93.837	0.09	187674	keystroke_o	o	n/a
93.987	0.09	187974	keystroke_s	s	n/a
94.302	0.105	188604	keystroke_t	t	n/a
94.7665	0.12	189533	keystroke_e	e	n/a
94.9165	0.105	189833	keystroke_r	r	n/a
95.0965	0.105	190193	keystroke_Key.space	Key.space	n/a
95.2165	0.12	190433	keystroke_i	i	n/a
95.5315	0.105	191063	keystroke_m	m	n/a
95.6815	0.105	191363	keystroke_p	p	n/a
95.8615	0.135	191723	keystroke_l	l	n/a
96.0265	0.135	192053	keystroke_e	e	n/a
96.2665	0.105	192533	keystroke_m	m	n/a
96.4015	0.1045	192803	keystroke_e	e	n/a
96.507	0.105	193014	keystroke_n	n	n/a
96.641	0.075	193282	keystroke_t	t	n/a
97.376	0.075	194752	keystroke_Key.space	Key.space	n/a
97.556	0.076	195112	keystroke_f	f	n/a
97.752	0.089	195504	keystroke_r	r	n/a
98.006	0.075	196012	keystroke_a	a	n/a
98.2325	0.1335	196465	keystroke_n	n	n/a
98.321	0.12	196642	keystroke_k	k	n/a
98.756	0.075	197512	keystroke_f	f	n/a
98.846	0.106	197692	keystroke_u	u	n/a
99.071	0.105	198142	keystroke_r	r	n/a
99.311	0.09	198622	keystroke_t	t	n/a
99.866	0.105	199732	keystroke_Key.enter	Key.enter	n/a
99.9795	7.164	199959	prompt	n/a	hair figured cottages poll\n
100.511	0.12	201022	keystroke_l	l	n/a
100.676	0.105	201352	keystroke_a	a	n/a
100.901	0.06	201802	keystroke_Key.backspace	Key.backspace	n/a
101.021	0.075	202042	keystroke_Key.backspace	Key.backspace	n/a
101.216	0.105	202432	keystroke_a	a	n/a
101.231	0.0755	202462	keystroke_h	h	n/a
101.681	0.06	203362	keystroke_Key.backspace	Key.backspace	n/a
101.801	0.09	203602	keystroke_Key.backspace	Key.backspace	n/a
101.996	0.075	203992	keystroke_h	h	n/a
102.131	0.105	204262	keystroke_a	a	n/a
102.237	0.104	204474	keystroke_i	i	n/a
102.476	0.12	204952	keystroke_r	r	n/a
102.656	0.12	205312	keystroke_Key.space	Key.space	n/a
102.836	0.09	205672	keystroke_f	f	n/a
102.971	0.105	205942	keystroke_i	i	n/a
103.106	0.12	206212	keystroke_g	g	n/a
103.496	0.09	206992	keystroke_u	u	n/a
103.631	0.12	207262	keystroke_r	r	n/a
103.811	0.12	207622	keystroke_e	e	n/a
104.126	0.09	208252	keystroke_d	d	n/a
104.366	0.135	208732	keystroke_Key.space	Key.space	n/a
104.606	0.12	209212	keystroke_c	c	n/a
104.741	0.105	209482	keystroke_o	o	n/a
104.981	0.09	209962	keystroke_t	t	n/a
105.146	0.075	210292	keystroke_t	t	n/a
105.326	0.135	210652	keystroke_a	a	n/a
105.476	0.06	210952	keystroke_g	g	n/a
105.626	0.12	211252	keystroke_e	e	n/a
105.881	0.135	211762	keystroke_s	s	n/a
106.017	0.104	212034	keystroke_Key.space	Key.space	n/a
106.226	0.075	212452	keystroke_p	p	n/a
106.496	0.105	212992	keystroke_o	o	n/a
106.706	0.09	213412	keystroke_l	l	n/a
106.856	0.09	213712	keystroke_l	l	n/a
107.066	0.075	214132	keystroke_Key.enter	Key.enter	n/a
107.149	8.589	214298	prompt	n/a	kenya mpegs eligibility dude\n
107.711	0.12	215422	keystroke_k	k	n/a
108.086	0.12	216172	keystroke_e	e	n/a
108.176	0.09	216352	keystroke_n	n	n/a
108.551	0.091	217102	keystroke_y	y	n/a
108.777	0.134	217554	keystroke_a	a	n/a
108.926	0.12	217852	keystroke_Key.space	Key.space	n/a
109.077	0.134	218154	keystroke_m	m	n/a
109.571	0.106	219142	keystroke_p	p	n/a
109.782	0.12	219564	keystroke_e	e	n/a
110.082	0.09	220164	keystroke_g	g	n/a
110.4105	0.076	220821	keystroke_s	s	n/a
110.561	0.1045	221122	keystroke_Key.space	Key.space	n/a
110.711	0.1205	221422	keystroke_e	e	n/a
111.1455	0.136	222291	keystroke_l	l	n/a
112.2115	0.105	224423	keystroke_i	i	n/a
112.3615	0.105	224723	keystroke_g	g	n/a
112.5565	0.105	225113	keystroke_i	i	n/a
112.871	0.09	225742	keystroke_b	b	n/a
113.0515	0.09	226103	keystroke_i	i	n/a
113.2915	0.135	226583	keystroke_l	l	n/a
113.3965	0.12	226793	keystroke_i	i	n/a
113.621	0.121	227242	keystroke_t	t	n/a
113.862	0.104	227724	keystroke_y	y	n/a
114.116	0.105	228232	keystroke_Key.space	Key.space	n/a
114.611	0.09	229222	keystroke_d	d	n/a
114.686	0.135	229372	keystroke_u	u	n/a
114.776	0.106	229552	keystroke_d	d	n/a
114.986	0.105	229972	keystroke_e	e	n/a
115.6005	0.135	231201	keystroke_Key.enter	Key.enter	n/a
115.744	6.25	231488	prompt	n/a	systems cameras loves fact\n
116.2765	0.1205	232553	keystroke_s	s	n/a
116.5455	0.0915	233091	keystroke_y	y	n/a
116.756	0.0905	233512	keystroke_s	s	n/a
116.9505	0.0765	233901	keystroke_t	t	n/a
117.1155	0.12	234231	keystroke_e	e	n/a
117.7155	0.12	235431	keystroke_m	m	n/a
117.8065	0.119	235613	keystroke_s	s	n/a
118.0305	0.106	236061	keystroke_Key.space	Key.space	n/a
118.241	0.15	236482	keystroke_c	c	n/a
118.376	0.12	236752	keystroke_a	a	n/a
118.811	0.105	237622	keystroke_m	m	n/a
118.901	0.105	237802	keystroke_e	e	n/a
119.021	0.09	238042	keystroke_r	r	n/a
119.231	0.105	238462	keystroke_a	a	n/a
119.486	0.105	238972	keystroke_s	s	n/a
119.606	0.105	239212	keystroke_Key.space	Key.space	n/a
120.146	0.06	240292	keystroke_l	l	n/a
120.356	0.075	240712	keystroke_o	o	n/a
120.371	0.061	240742	keystroke_v	v	n/a
120.551	0.075	241102	keystroke_e	e	n/a
120.881	0.105	241762	keystroke_s	s	n/a
120.987	0.119	241974	keystroke_Key.space	Key.space	n/a
121.256	0.09	242512	keystroke_f	f	n/a
121.406	0.105	242812	keystroke_a	a	n/a
121.526	0.105	243052	keystroke_c	c	n/a
121.751	0.076	243502	keystroke_t	t	n/a
121.871	0.12	243742	keystroke_Key.enter	Key.enter	n/a
122	8.453	244000	prompt	n/a	commitment seen restricted luther\n
122.666	0.12	245332	keystroke_c	c	n/a
122.771	0.105	245542	keystroke_o	o	n/a
122.861	0.06	245722	keystroke_m	m	n/a
122.981	0.075	245962	keystroke_m	m	n/a
123.221	0.105	246442	keystroke_i	i	n/a
123.371	0.06	246742	keystroke_t	t	n/a
123.581	0.12	247162	keystroke_i	i	n/a
124.001	0.06	248002	keystroke_Key.backspace	Key.backspace	n/a
124.166	0.106	248332	keystroke_m	m	n/a
124.286	0.09	248572	keystroke_e	e	n/a
124.391	0.075	248782	keystroke_n	n	n/a
124.511	0.105	249022	keystroke_t	t	n/a
124.766	0.09	249532	keystroke_Key.space	Key.space	n/a
124.946	0.1355	249892	keystroke_s	s	n/a
125.1565	0.06	250313	keystroke_e	e	n/a
125.2915	0.105	250583	keystroke_e	e	n/a
125.4115	0.105	250823	keystroke_n	n	n/a
125.6665	0.09	251333	keystroke_Key.space	Key.space	n/a
125.907	0.059	251814	keystroke_r	r	n/a
125.981	0.091	251962	keystroke_e	e	n/a
126.176	0.121	252352	keystroke_s	s	n/a
126.461	0.075	252922	keystroke_t	t	n/a
126.641	0.105	253282	keystroke_r	r	n/a
126.761	0.121	253522	keystroke_i	i	n/a
127.137	0.104	254274	keystroke_c	c	n/a
127.391	0.075	254782	keystroke_t	t	n/a
127.557	0.075	255114	keystroke_e	e	n/a
127.751	0.121	255502	keystroke_d	d	n/a
127.901	0.075	255802	keystroke_Key.space	Key.space	n/a
128.126	0.106	256252	keystroke_l	l	n/a
128.322	0.119	256644	keystroke_u	u	n/a
128.471	0.1355	256942	keystroke_c	c	n/a
128.8005	0.075	257601	keystroke_Key.backspace	Key.backspace	n/a
128.8915	0.105	257783	keystroke_s	s	n/a
129.3715	0.075	258743	keystroke_Key.backspace	Key.backspace	n/a
129.4605	0.09	258921	keystroke_t	t	n/a
129.5815	0.09	259163	keystroke_h	h	n/a
129.6405	0.166	259281	keystroke_e	e	n/a
129.7765	0.12	259553	keystroke_r	r	n/a
130.3465	0.104	260693	keystroke_Key.enter	Key.enter	n/a
130.4585	5.7545	260917	prompt	n/a	fitting defines flying shooting\n
131.081	0.09	262162	keystroke_f	f	n/a
131.156	0.105	262312	keystroke_i	i	n/a
131.366	0.075	262732	keystroke_t	t	n/a
131.516	0.091	263032	keystroke_t	t	n/a
131.591	0.135	263182	keystroke_i	i	n/a
131.666	0.12	263332	keystroke_n	n	n/a
131.771	0.105	263542	keystroke_g	g	n/a
131.891	0.135	263782	keystroke_Key.space	Key.space	n/a
132.132	0.074	264264	keystroke_d	d	n/a
132.296	0.135	264592	keystroke_e	e	n/a
132.432	0.119	264864	keystroke_f	f	n/a
132.566	0.12	265132	keystroke_i	i	n/a
132.641	0.09	265282	keystroke_n	n	n/a
132.732	0.059	265464	keystroke_e	e	n/a
132.912	0.119	265824	keystroke_s	s	n/a
133.001	0.105	266002	keystroke_Key.space	Key.space	n/a
133.136	0.09	266272	keystroke_l	l	n/a
133.451	0.06	266902	keystroke_Key.backspace	Key.backspace	n/a
133.497	0.089	266994	keystroke_f	f	n/a
133.707	0.09	267414	keystroke_l	l	n/a
133.901	0.1345	267802	keystroke_y	y	n/a
134.0505	0.165	268101	keystroke_i	i	n/a
134.1415	0.105	268283	keystroke_n	n	n/a
134.2605	0.105	268521	keystroke_g	g	n/a
134.6215	0.105	269243	keystroke_Key.space	Key.space	n/a
134.9065	0.029	269813	keystroke_s	s	n/a
134.9215	0.089	269843	keystroke_h	h	n/a
135.4765	0.045	270953	keystroke_o	o	n/a
135.5815	0.09	271163	keystroke_o	o	n/a
135.6565	0.104	271313	keystroke_t	t	n/a
135.7765	0.1495	271553	keystroke_i	i	n/a
135.851	0.12	271702	keystroke_n	n	n/a
135.911	0.09	271822	keystroke_g	g	n/a
136.091	0.12	272182	keystroke_Key.enter	Key.enter	n/a
136.2185	8.395	272437	prompt	n/a	static underwear cycling combining\n
136.706	0.12	273412	keystroke_s	s	n/a
136.961	0.075	273922	keystroke_t	t	n/a
137.1715	0.075	274343	keystroke_a	a	n/a
137.3355	0.105	274671	keystroke_t	t	n/a
137.5155	0.091	275031	keystroke_i	i	n/a
137.6365	0.12	275273	keystroke_c	c	n/a
137.9655	0.015	275931	keystroke_Key.space	Key.space	n/a
138.0255	0.075	276051	keystroke_u	u	n/a
138.1615	0.105	276323	keystroke_d	d	n/a
138.5055	0.075	277011	keystroke_e	e	n/a
138.7305	0.075	277461	keystroke_Key.backspace	Key.backspace	n/a
138.8655	0.09	277731	keystroke_Key.backspace	Key.backspace	n/a
139.0755	0.046	278151	keystroke_n	n	n/a
139.1655	0.091	278331	keystroke_d	d	n/a
139.3305	0.135	278661	keystroke_e	e	n/a
139.4205	0.105	278841	keystroke_r	r	n/a
139.9155	0.105	279831	keystroke_w	w	n/a
140.1565	0.119	280313	keystroke_e	e	n/a
140.3815	0.089	280763	keystroke_a	a	n/a
140.9355	0.09	281871	keystroke_r	r	n/a
141.0705	0.1205	282141	keystroke_Key.space	Key.space	n/a
141.296	0.105	282592	keystroke_c	c	n/a
141.551	0.09	283102	keystroke_y	y	n/a
141.806	0.12	283612	keystroke_c	c	n/a
141.941	0.105	283882	keystroke_l	l	n/a
142.076	0.135	284152	keystroke_i	i	n/a
142.151	0.105	284302	keystroke_n	n	n/a
142.257	0.119	284514	keystroke_g	g	n/a
142.451	0.12	284902	keystroke_Key.space	Key.space	n/a
142.706	0.12	285412	keystroke_c	c	n/a
142.796	0.15	285592	keystroke_o	o	n/a
142.886	0.135	285772	keystroke_m	m	n/a
143.261	0.075	286522	keystroke_b	b	n/a
143.366	0.165	286732	keystroke_i	i	n/a
143.456	0.12	286912	keystroke_n	n	n/a
143.996	0.12	287992	keystroke_i	i	n/a
144.206	0.105	288412	keystroke_n	n	n/a
144.326	0.121	288652	keystroke_g	g	n/a
144.491	0.12	288982	keystroke_Key.enter	Key.enter	n/a
144.6215	8.467	289243	prompt	n/a	elliott desktops queen trails\n
145.256	0.105	290512	keystroke_e	e	n/a
145.391	0.075	290782	keystroke_l	l	n/a
145.556	0.075	291112	keystroke_l	l	n/a
145.766	0.06	291532	keystroke_o	o	n/a
146.021	0.045	292042	keystroke_Key.backspace	Key.backspace	n/a
146.186	0.06	292372	keystroke_i	i	n/a
146.351	0.09	292702	keystroke_o	o	n/a
146.486	0.06	292972	keystroke_t	t	n/a
146.651	0.09	293302	keystroke_t	t	n/a
146.8015	0.105	293603	keystroke_Key.space	Key.space	n/a
147.0105	0.076	294021	keystroke_d	d	n/a
147.1915	0.075	294383	keystroke_e	e	n/a
147.4315	0.104	294863	keystroke_s	s	n/a
147.5515	0.09	295103	keystroke_k	k	n/a
147.7765	0.12	295553	keystroke_t	t	n/a
147.8815	0.15	295763	keystroke_o	o	n/a
148.1665	0.105	296333	keystroke_p	p	n/a
148.5565	0.09	297113	keystroke_s	s	n/a
148.7515	0.059	297503	keystroke_Key.space	Key.space	n/a
149.0365	0.105	298073	keystroke_q	q	n/a
149.1555	0.061	298311	keystroke_u	u	n/a
149.2315	0.06	298463	keystroke_i	i	n/a
149.6965	0.075	299393	keystroke_Key.backspace	Key.backspace	n/a
149.7855	0.106	299571	keystroke_e	e	n/a
149.9065	0.06	299813	keystroke_n	n	n/a
150.0415	0.074	300083	keystroke_n	n	n/a
150.2065	0.105	300413	keystroke_Key.space	Key.space	n/a
150.6855	0.061	301371	keystroke_Key.backspace	Key.backspace	n/a
150.8215	0.06	301643	keystroke_Key.backspace	Key.backspace	n/a
150.941	0.105	301882	keystroke_Key.backspace	Key.backspace	n/a
151.061	0.135	302122	keystroke_e	e	n/a
151.211	0.046	302422	keystroke_n	n	n/a
151.301	0.105	302602	keystroke_Key.space	Key.space	n/a
151.421	0.09	302842	keystroke_t	t	n/a
151.631	0.075	303262	keystroke_r	r	n/a
151.947	0.134	303894	keystroke_a	a	n/a
152.247	0.089	304494	keystroke_i	i	n/a
152.366	0.151	304732	keystroke_l	l	n/a
152.486	0.12	304972	keystroke_s	s	n/a
152.951	0.135	305902	keystroke_Key.enter	Key.enter	n/a
153.095	8.363	306190	prompt	n/a	underlying depression voyuer boxed\n
153.761	0.045	307522	keystroke_u	u	n/a
153.941	0.105	307882	keystroke_n	n	n/a
154.166	0.09	308332	keystroke_d	d	n/a
154.466	0.015	308932	keystroke_e	e	n/a
154.496	0.0755	308992	keystroke_r	r	n/a
154.646	0.15	309292	keystroke_l	l	n/a
154.856	0.09	309712	keystroke_y	y	n/a
154.976	0.105	309952	keystroke_i	i	n/a
155.051	0.09	310102	keystroke_n	n	n/a
155.111	0.1205	310222	keystroke_g	g	n/a
155.246	0.12	310492	keystroke_Key.space	Key.space	n/a
155.411	0.09	310822	keystroke_d	d	n/a
155.591	0.09	311182	keystroke_e	e	n/a
155.786	0.12	311572	keystroke_s	s	n/a
156.116	0.09	312232	keystroke_Key.backspace	Key.backspace	n/a
156.341	0.105	312682	keystroke_p	p	n/a
156.476	0.09	312952	keystroke_r	r	n/a
156.581	0.105	313162	keystroke_e	e	n/a
156.806	0.045	313612	keystroke_s	s	n/a
156.971	0.06	313942	keystroke_s	s	n/a
157.061	0.24	314122	keystroke_i	i	n/a
157.136	0.15	314272	keystroke_o	o	n/a
157.211	0.135	314422	keystroke_n	n	n/a
157.436	0.075	314872	keystroke_Key.space	Key.space	n/a
157.676	0.09	315352	keystroke_v	v	n/a
157.916	0.105	315832	keystroke_o	o	n/a
158.081	0.105	316162	keystroke_y	y	n/a
158.366	0.105	316732	keystroke_u	u	n/a
158.5765	0.1195	317153	keystroke_e	e	n/a
158.846	0.1205	317692	keystroke_r	r	n/a
159.1465	0.12	318293	keystroke_Key.space	Key.space	n/a
160.3315	0.075	320663	keystroke_b	b	n/a
160.4215	0.135	320843	keystroke_o	o	n/a
160.5265	0.059	321053	keystroke_e	e	n/a
160.8105	0.075	321621	keystroke_Key.backspace	Key.backspace	n/a
160.8715	0.074	321743	keystroke_x	x	n/a
161.0355	0.061	322071	keystroke_e	e	n/a
161.2015	0.075	322403	keystroke_d	d	n/a
161.3215	0.134	322643	keystroke_Key.enter	Key.enter	n/a
161.467	11.6765	322934	prompt	n/a	tide modeling swimming mental\n
162.1015	0.075	324203	keystroke_t	t	n/a
162.1905	0.1065	324381	keystroke_i	i	n/a
162.3105	0.075	324621	keystroke_d	d	n/a
162.5065	0.104	325013	keystroke_e	e	n/a
162.6265	0.119	325253	keystroke_Key.space	Key.space	n/a
162.8515	0.075	325703	keystroke_m	m	n/a
163.136	0.075	326272	keystroke_o	o	n/a
163.571	0.12	327142	keystroke_d	d	n/a
163.736	0.09	327472	keystroke_u	u	n/a
165.026	0.09	330052	keystroke_l	l	n/a
166.046	0.09	332092	keystroke_i	i	n/a
166.346	0.0595	332692	keystroke_Key.backspace	Key.backspace	n/a
166.4805	0.136	332961	keystroke_Key.backspace	Key.backspace	n/a
166.8715	0.105	333743	keystroke_Key.backspace	Key.backspace	n/a
167.9365	0.135	335873	keystroke_e	e	n/a
168.2815	0.12	336563	keystroke_l	l	n/a
168.5665	0.135	337133	keystroke_i	i	n/a
168.7765	0.105	337553	keystroke_n	n	n/a
168.9115	0.105	337823	keystroke_g	g	n/a
169.0465	0.09	338093	keystroke_Key.space	Key.space	n/a
169.3015	0.075	338603	keystroke_s	s	n/a
169.4965	0.12	338993	keystroke_w	w	n/a
169.6315	0.105	339263	keystroke_i	i	n/a
169.7815	0.09	339563	keystroke_n	n	n/a
170.3665	0.06	340733	keystroke_Key.backspace	Key.backspace	n/a
170.5465	0.045	341093	keystroke_m	m	n/a
170.6665	0.075	341333	keystroke_m	m	n/a
170.8765	0.105	341753	keystroke_i	i	n/a
170.9215	0.105	341843	keystroke_n	n	n/a
171.1465	0.105	342293	keystroke_g	g	n/a
171.7765	0.09	343553	keystroke_Key.space	Key.space	n/a
171.971	0.106	343942	keystroke_m	m	n/a
172.092	0.134	344184	keystroke_e	e	n/a
172.211	0.105	344422	keystroke_n	n	n/a
172.466	0.09	344932	keystroke_t	t	n/a
172.706	0.121	345412	keystroke_a	a	n/a
172.811	0.121	345622	keystroke_l	l	n/a
173.036	0.105	346072	keystroke_Key.enter	Key.enter	n/a
173.149	10.6305	346298	prompt	n/a	banana head algeria conventional\n
174.011	0.091	348022	keystroke_b	b	n/a
174.177	0.075	348354	keystroke_a	a	n/a
174.267	0.06	348534	keystroke_n	n	n/a
174.477	0.015	348954	keystroke_n	n	n/a
174.536	0.1495	349072	keystroke_a	a	n/a
175.1655	0.061	350331	keystroke_Key.backspace	Key.backspace	n/a
175.301	0.0745	350602	keystroke_Key.backspace	Key.backspace	n/a
175.4205	0.135	350841	keystroke_a	a	n/a
175.5415	0.119	351083	keystroke_n	n	n/a
175.7665	0.15	351533	keystroke_a	a	n/a
176.0655	0.12	352131	keystroke_Key.space	Key.space	n/a
176.2465	0.105	352493	keystroke_n	n	n/a
176.4415	0.089	352883	keystroke_e	e	n/a
176.5915	0.134	353183	keystroke_a	a	n/a
176.7555	0.091	353511	keystroke_d	d	n/a
176.891	0.105	353782	keystroke_Key.space	Key.space	n/a
177.041	0.1355	354082	keystroke_a	a	n/a
177.2215	0.135	354443	keystroke_l	l	n/a
177.4015	0.09	354803	keystroke_g	g	n/a
177.5955	0.165	355191	keystroke_e	e	n/a
177.7765	0.104	355553	keystroke_r	r	n/a
177.9855	0.106	355971	keystroke_i	i	n/a
178.1055	0.1505	356211	keystroke_a	a	n/a
178.376	0.09	356752	keystroke_Key.space	Key.space	n/a
178.736	0.135	357472	keystroke_c	c	n/a
178.856	0.105	357712	keystroke_o	o	n/a
178.931	0.12	357862	keystroke_n	n	n/a
179.411	0.09	358822	keystroke_v	v	n/a
179.592	0.134	359184	keystroke_e	e	n/a
179.861	0.09	359722	keystroke_n	n	n/a
180.821	0.075	361642	keystroke_t	t	n/a
180.927	0.104	361854	keystroke_i	i	n/a
181.272	0.12	362544	keystroke_o	o	n/a
181.346	0.151	362692	keystroke_n	n	n/a
181.752	0.105	363504	keystroke_a	a	n/a
181.871	0.1355	363742	keystroke_l	l	n/a
183.6265	0.15	367253	keystroke_Key.enter	Key.enter	n/a
183.786	7.0415	367572	prompt	n/a	dryer caps transmission wool\n
184.5105	0.135	369021	keystroke_d	d	n/a
184.7215	0.12	369443	keystroke_r	r	n/a
184.9615	0.105	369923	keystroke_y	y	n/a
185.201	0.15	370402	keystroke_e	e	n/a
185.366	0.09	370732	keystroke_r	r	n/a
185.531	0.12	371062	keystroke_Key.space	Key.space	n/a
185.726	0.135	371452	keystroke_c	c	n/a
185.876	0.09	371752	keystroke_a	a	n/a
185.981	0.121	371962	keystroke_p	p	n/a
186.117	0.1045	372234	keystroke_s	s	n/a
186.2515	0.105	372503	keystroke_Key.space	Key.space	n/a
186.5965	0.0595	373193	keystroke_t	t	n/a
186.7615	0.06	373523	keystroke_r	r	n/a
186.971	0.1205	373942	keystroke_a	a	n/a
187.121	0.105	374242	keystroke_n	n	n/a
187.211	0.105	374422	keystroke_s	s	n/a
187.466	0.075	374932	keystroke_f	f	n/a
187.601	0.09	375202	keystroke_m	m	n/a
187.841	0.06	375682	keystroke_Key.backspace	Key.backspace	n/a
187.961	0.075	375922	keystroke_Key.backspace	Key.backspace	n/a
188.171	0.09	376342	keystroke_m	m	n/a
188.321	0.09	376642	keystroke_i	i	n/a
188.456	0.06	376912	keystroke_s	s	n/a
188.6055	0.091	377211	keystroke_s	s	n/a
188.7115	0.225	377423	keystroke_i	i	n/a
188.8015	0.135	377603	keystroke_o	o	n/a
188.9055	0.091	377811	keystroke_n	n	n/a
189.386	0.09	378772	keystroke_Key.space	Key.space	n/a
189.626	0.075	379252	keystroke_w	w	n/a
189.746	0.105	379492	keystroke_e	e	n/a
190.046	0.06	380092	keystroke_Key.backspace	Key.backspace	n/a
190.226	0.06	380452	keystroke_o	o	n/a
190.376	0.075	380752	keystroke_o	o	n/a
190.526	0.105	381052	keystroke_l	l	n/a
190.767	0.059	381534	keystroke_Key.enter	Key.enter	n/a
190.8325	6.9255	381665	prompt	n/a	nasdaq institutions murphy woods\n
191.231	0.165	382462	keystroke_d	d	n/a
191.486	0.075	382972	keystroke_Key.backspace	Key.backspace	n/a
191.667	0.074	383334	keystroke_n	n	n/a
191.786	0.12	383572	keystroke_a	a	n/a
191.921	0.075	383842	keystroke_s	s	n/a
192.236	0.12	384472	keystroke_d	d	n/a
192.371	0.12	384742	keystroke_a	a	n/a
192.596	0.105	385192	keystroke_q	q	n/a
192.806	0.12	385612	keystroke_Key.space	Key.space	n/a
193.001	0.1505	386002	keystroke_i	i	n/a
193.136	0.1055	386272	keystroke_n	n	n/a
193.3315	0.075	386663	keystroke_s	s	n/a
193.5715	0.09	387143	keystroke_t	t	n/a
193.7515	0.12	387503	keystroke_i	i	n/a
194.2015	0.12	388403	keystroke_t	t	n/a
194.3965	0.105	388793	keystroke_u	u	n/a
194.7115	0.075	389423	keystroke_t	t	n/a
194.7715	0.24	389543	keystroke_i	i	n/a
194.8615	0.135	389723	keystroke_o	o	n/a
194.9215	0.105	389843	keystroke_n	n	n/a
195.0715	0.135	390143	keystroke_s	s	n/a
195.2215	0.105	390443	keystroke_Key.space	Key.space	n/a
195.4465	0.105	390893	keystroke_m	m	n/a
195.8815	0.09	391763	keystroke_u	u	n/a
196.0015	0.09	392003	keystroke_r	r	n/a
196.2265	0.06	392453	keystroke_p	p	n/a
196.4675	0.119	392935	keystroke_h	h	n/a
196.6015	0.105	393203	keystroke_y	y	n/a
196.8115	0.105	393623	keystroke_Key.space	Key.space	n/a
197.0365	0.105	394073	keystroke_w	w	n/a
197.1265	0.075	394253	keystroke_o	o	n/a
197.2615	0.1195	394523	keystroke_o	o	n/a
197.3515	0.1345	394703	keystroke_d	d	n/a
197.471	0.12	394942	keystroke_s	s	n/a
197.651	0.105	395302	keystroke_Key.enter	Key.enter	n/a
197.7655	6.0235	395531	prompt	n/a	sarah dome herb failed\n
198.401	0.1205	396802	keystroke_s	s	n/a
198.5665	0.1045	397133	keystroke_a	a	n/a
198.7915	0.0295	397583	keystroke_r	r	n/a
198.942	0.104	397884	keystroke_a	a	n/a
199.182	0.104	398364	keystroke_h	h	n/a
199.571	0.09	399142	keystroke_Key.space	Key.space	n/a
199.872	0.075	399744	keystroke_d	d	n/a
200.067	0.059	400134	keystroke_e	e	n/a
200.111	0.09	400222	keystroke_o	o	n/a
200.396	0.06	400792	keystroke_Key.backspace	Key.backspace	n/a
200.516	0.06	401032	keystroke_Key.backspace	Key.backspace	n/a
200.697	0.119	401394	keystroke_o	o	n/a
200.831	0.1045	401662	keystroke_m	m	n/a
201.1305	0.12	402261	keystroke_e	e	n/a
201.5055	0.105	403011	keystroke_Key.space	Key.space	n/a
201.7165	0.105	403433	keystroke_h	h	n/a
201.7905	0.12	403581	keystroke_e	e	n/a
202.1215	0.075	404243	keystroke_r	r	n/a
202.3305	0.105	404661	keystroke_b	b	n/a
202.5105	0.09	405021	keystroke_Key.space	Key.space	n/a
202.7355	0.09	405471	keystroke_f	f	n/a
202.9755	0.091	405951	keystroke_a	a	n/a
203.0805	0.12	406161	keystroke_i	i	n/a
203.1855	0.136	406371	keystroke_l	l	n/a
203.2755	0.105	406551	keystroke_e	e	n/a
203.4715	0.089	406943	keystroke_d	d	n/a
203.6505	0.135	407301	keystroke_Key.enter	Key.enter	n/a
203.7945	10.0585	407589	prompt	n/a	romance atmosphere initial george\n
204.446	0.105	408892	keystroke_r	r	n/a
204.596	0.12	409192	keystroke_o	o	n/a
204.791	0.105	409582	keystroke_m	m	n/a
205.062	0.074	410124	keystroke_a	a	n/a
205.166	0.06	410332	keystroke_n	n	n/a
205.376	0.12	410752	keystroke_c	c	n/a
205.676	0.09	411352	keystroke_e	e	n/a
206.501	0.06	413002	keystroke_Key.space	Key.space	n/a
206.786	0.0755	413572	keystroke_a	a	n/a
207.011	0.09	414022	keystroke_t	t	n/a
207.206	0.09	414412	keystroke_m	m	n/a
207.386	0.105	414772	keystroke_o	o	n/a
207.476	0.09	414952	keystroke_s	s	n/a
207.776	0.09	415552	keystroke_t	t	n/a
208.316	0.045	416632	keystroke_Key.backspace	Key.backspace	n/a
208.886	0.105	417772	keystroke_p	p	n/a
209.096	0.091	418192	keystroke_h	h	n/a
209.321	0.135	418642	keystroke_e	e	n/a
209.531	0.105	419062	keystroke_r	r	n/a
209.666	0.12	419332	keystroke_e	e	n/a
209.921	0.09	419842	keystroke_Key.space	Key.space	n/a
210.356	0.03	420712	keystroke_i	i	n/a
210.506	0.0905	421012	keystroke_n	n	n/a
210.7465	0.105	421493	keystroke_i	i	n/a
210.9115	0.12	421823	keystroke_t	t	n/a
211.526	0.09	423052	keystroke_i	i	n/a
211.721	0.135	423442	keystroke_a	a	n/a
211.841	0.12	423682	keystroke_l	l	n/a
211.991	0.09	423982	keystroke_Key.space	Key.space	n/a
212.201	0.09	424402	keystroke_g	g	n/a
212.486	0.09	424972	keystroke_o	o	n/a
212.876	0.06	425752	keystroke_Key.backspace	Key.backspace	n/a
212.967	0.105	425934	keystroke_e	e	n/a
213.086	0.1055	426172	keystroke_o	o	n/a
213.2065	0.105	426413	keystroke_r	r	n/a
213.4165	0.06	426833	keystroke_g	g	n/a
213.5665	0.105	427133	keystroke_e	e	n/a
213.7465	0.104	427493	keystroke_Key.enter	Key.enter	n/a
213.8595	9.0085	427719	prompt	n/a	religious tractor bloggers decline\n
214.5565	0.12	429113	keystroke_r	r	n/a
214.7065	0.075	429413	keystroke_e	e	n/a
214.9165	0.12	429833	keystroke_g	g	n/a
215.4865	0.06	430973	keystroke_Key.backspace	Key.backspace	n/a
215.696	0.105	431392	keystroke_l	l	n/a
215.846	0.1205	431692	keystroke_i	i	n/a
216.056	0.12	432112	keystroke_g	g	n/a
216.236	0.27	432472	keystroke_i	i	n/a
216.371	0.1505	432742	keystroke_o	o	n/a
216.851	0.075	433702	keystroke_u	u	n/a
216.986	0.105	433972	keystroke_s	s	n/a
217.271	0.105	434542	keystroke_Key.space	Key.space	n/a
217.691	0.075	435382	keystroke_t	t	n/a
217.871	0.075	435742	keystroke_r	r	n/a
218.08	0.106	436160	keystroke_a	a	n/a
218.666	0.1355	437332	keystroke_c	c	n/a
218.981	0.0755	437962	keystroke_t	t	n/a
219.1615	0.105	438323	keystroke_o	o	n/a
219.3715	0.12	438743	keystroke_r	r	n/a
219.6255	0.075	439251	keystroke_Key.space	Key.space	n/a
219.8215	0.105	439643	keystroke_b	b	n/a
219.9415	0.105	439883	keystroke_l	l	n/a
220.1505	0.105	440301	keystroke_o	o	n/a
220.3465	0.09	440693	keystroke_g	g	n/a
220.5555	0.076	441111	keystroke_g	g	n/a
220.7215	0.15	441443	keystroke_e	e	n/a
220.8865	0.074	441773	keystroke_r	r	n/a
221.1105	0.09	442221	keystroke_s	s	n/a
221.2305	0.09	442461	keystroke_Key.space	Key.space	n/a
221.3655	0.106	442731	keystroke_d	d	n/a
221.5305	0.121	443061	keystroke_e	e	n/a
221.7265	0.135	443453	keystroke_l	l	n/a
222.0415	0.089	444083	keystroke_Key.backspace	Key.backspace	n/a
222.1015	0.12	444203	keystroke_c	c	n/a
222.2515	0.09	444503	keystroke_l	l	n/a
222.3265	0.135	444653	keystroke_i	i	n/a
222.4165	0.105	444833	keystroke_n	n	n/a
222.5065	0.12	445013	keystroke_e	e	n/a
222.7465	0.12	445493	keystroke_Key.enter	Key.enter	n/a
222.8745	4.9285	445749	prompt	n/a	slim wales treo austin\n
223.4965	0.119	446993	keystroke_s	s	n/a
223.6305	0.135	447261	keystroke_l	l	n/a
223.7355	0.12	447471	keystroke_i	i	n/a
223.8855	0.12	447771	keystroke_m	m	n/a
224.2905	0.105	448581	keystroke_Key.space	Key.space	n/a
224.6055	0.15	449211	keystroke_w	w	n/a
224.8455	0.12	449691	keystroke_a	a	n/a
224.9365	0.149	449873	keystroke_l	l	n/a
225.0705	0.06	450141	keystroke_e	e	n/a
225.2365	0.119	450473	keystroke_s	s	n/a
225.3705	0.075	450741	keystroke_Key.space	Key.space	n/a
225.5655	0.075	451131	keystroke_t	t	n/a
225.7455	0.075	451491	keystroke_r	r	n/a
225.9105	0.105	451821	keystroke_e	e	n/a
226.1955	0.091	452391	keystroke_o	o	n/a
226.3305	0.0905	452661	keystroke_Key.space	Key.space	n/a
226.616	0.105	453232	keystroke_a	a	n/a
226.766	0.105	453532	keystroke_u	u	n/a
226.946	0.105	453892	keystroke_s	s	n/a
227.171	0.09	454342	keystroke_t	t	n/a
227.336	0.15	454672	keystroke_i	i	n/a
227.441	0.135	454882	keystroke_n	n	n/a
227.696	0.105	455392	keystroke_Key.enter	Key.enter	n/a
227.8085	6.789	455617	prompt	n/a	limousines bookings down gotta\n
228.5805	0.12	457161	keystroke_l	l	n/a
228.7615	0.09	457523	keystroke_i	i	n/a
228.9415	0.105	457883	keystroke_m	m	n/a
229.511	0.075	459022	keystroke_i	i	n/a
229.811	0.045	459622	keystroke_Key.backspace	Key.backspace	n/a
230.006	0.09	460012	keystroke_o	o	n/a
230.171	0.12	460342	keystroke_u	u	n/a
230.351	0.105	460702	keystroke_s	s	n/a
230.561	0.0895	461122	keystroke_i	i	n/a
230.8605	0.075	461721	keystroke_n	n	n/a
231.0105	0.105	462021	keystroke_e	e	n/a
231.221	0.1195	462442	keystroke_s	s	n/a
231.3555	0.105	462711	keystroke_Key.space	Key.space	n/a
231.5955	0.06	463191	keystroke_b	b	n/a
231.6705	0.0755	463341	keystroke_l	l	n/a
231.8655	0.046	463731	keystroke_o	o	n/a
231.9855	0.165	463971	keystroke_o	o	n/a
232.091	0.1195	464182	keystroke_k	k	n/a
232.3155	0.105	464631	keystroke_i	i	n/a
232.3755	0.09	464751	keystroke_n	n	n/a
232.4505	0.1055	464901	keystroke_g	g	n/a
232.6905	0.105	465381	keystroke_s	s	n/a
232.8105	0.09	465621	keystroke_Key.space	Key.space	n/a
233.036	0.12	466072	keystroke_d	d	n/a
233.141	0.105	466282	keystroke_o	o	n/a
233.231	0.12	466462	keystroke_w	w	n/a
233.366	0.06	466732	keystroke_n	n	n/a
233.471	0.0895	466942	keystroke_Key.space	Key.space	n/a
233.6955	0.0605	467391	keystroke_g	g	n/a
233.816	0.12	467632	keystroke_o	o	n/a
233.9505	0.075	467901	keystroke_t	t	n/a
234.072	0.089	468144	keystroke_t	t	n/a
234.2955	0.09	468591	keystroke_a	a	n/a
234.4905	0.105	468981	keystroke_Key.enter	Key.enter	n/a
234.6025	6.55	469205	prompt	n/a	forget likes defendant integer\n
235.3015	0.134	470603	keystroke_f	f	n/a
235.6605	0.105	471321	keystroke_o	o	n/a
235.7805	0.105	471561	keystroke_r	r	n/a
235.9905	0.045	471981	keystroke_g	g	n/a
236.1705	0.15	472341	keystroke_e	e	n/a
236.2605	0.106	472521	keystroke_t	t	n/a
236.3955	0.09	472791	keystroke_Key.space	Key.space	n/a
236.4705	0.151	472941	keystroke_l	l	n/a
236.5755	0.076	473151	keystroke_i	i	n/a
236.7115	0.135	473423	keystroke_k	k	n/a
236.8015	0.06	473603	keystroke_e	e	n/a
236.9965	0.104	473993	keystroke_s	s	n/a
237.1155	0.09	474231	keystroke_Key.space	Key.space	n/a
237.3255	0.076	474651	keystroke_d	d	n/a
237.5055	0.0605	475011	keystroke_e	e	n/a
237.686	0.075	475372	keystroke_f	f	n/a
237.806	0.105	475612	keystroke_e	e	n/a
238.046	0.09	476092	keystroke_n	n	n/a
238.211	0.12	476422	keystroke_d	d	n/a
238.406	0.105	476812	keystroke_a	a	n/a
238.571	0.12	477142	keystroke_n	n	n/a
238.871	0.075	477742	keystroke_t	t	n/a
239.066	0.135	478132	keystroke_Key.space	Key.space	n/a
239.306	0.075	478612	keystroke_i	i	n/a
239.561	0.09	479122	keystroke_n	n	n/a
240.026	0.09	480052	keystroke_t	t	n/a
240.281	0.075	480562	keystroke_e	e	n/a
240.536	0.075	481072	keystroke_g	g	n/a
240.716	0.15	481432	keystroke_e	e	n/a
240.881	0.075	481762	keystroke_r	r	n/a
241.016	0.135	482032	keystroke_Key.enter	Key.enter	n/a
241.158	10.06	482316	prompt	n/a	guild frequencies tremendous investigated\n
241.871	0.09	483742	keystroke_g	g	n/a
241.976	0.105	483952	keystroke_u	u	n/a
242.171	0.06	484342	keystroke_i	i	n/a
242.321	0.12	484642	keystroke_l	l	n/a
242.456	0.105	484912	keystroke_d	d	n/a
242.696	0.105	485392	keystroke_Key.space	Key.space	n/a
242.8755	0.105	485751	keystroke_f	f	n/a
243.0865	0.119	486173	keystroke_r	r	n/a
243.2215	0.104	486443	keystroke_e	e	n/a
243.4905	0.075	486981	keystroke_q	q	n/a
243.6705	0.076	487341	keystroke_u	u	n/a
243.9855	0.151	487971	keystroke_e	e	n/a
244.1205	0.091	488241	keystroke_n	n	n/a
244.5855	0.12	489171	keystroke_c	c	n/a
244.7205	0.09	489441	keystroke_i	i	n/a
244.8255	0.061	489651	keystroke_e	e	n/a
245.0055	0.12	490011	keystroke_s	s	n/a
245.2005	0.09	490401	keystroke_Key.space	Key.space	n/a
245.4555	0.061	490911	keystroke_t	t	n/a
245.6065	0.089	491213	keystroke_r	r	n/a
245.8005	0.105	491601	keystroke_e	e	n/a
246.0255	0.105	492051	keystroke_m	m	n/a
246.4465	0.105	492893	keystroke_e	e	n/a
246.5365	0.105	493073	keystroke_n	n	n/a
246.6855	0.106	493371	keystroke_t	t	n/a
247.541	0.09	495082	keystroke_Key.backspace	Key.backspace	n/a
247.931	0.135	495862	keystroke_d	d	n/a
248.216	0.075	496432	keystroke_o	o	n/a
248.411	0.12	496822	keystroke_u	u	n/a
248.561	0.075	497122	keystroke_s	s	n/a
248.756	0.105	497512	keystroke_Key.space	Key.space	n/a
248.891	0.15	497782	keystroke_i	i	n/a
249.011	0.075	498022	keystroke_n	n	n/a
249.236	0.075	498472	keystroke_v	v	n/a
249.356	0.12	498712	keystroke_e	e	n/a
249.596	0.105	499192	keystroke_s	s	n/a
249.806	0.105	499612	keystroke_t	t	n/a
250.016	0.105	500032	keystroke_i	i	n/a
250.136	0.105	500272	keystroke_g	g	n/a
250.361	0.09	500722	keystroke_a	a	n/a
250.541	0.09	501082	keystroke_t	t	n/a
250.706	0.105	501412	keystroke_e	e	n/a
250.916	0.09	501832	keystroke_d	d	n/a
251.126	0.09	502252	keystroke_Key.enter	Key.enter	n/a
251.236	7.6025	502472	prompt	n/a	transformation senegal patio million\n
251.771	0.075	503542	keystroke_t	t	n/a
251.951	0.075	503902	keystroke_r	r	n/a
252.1165	0.15	504233	keystroke_a	a	n/a
252.2805	0.105	504561	keystroke_n	n	n/a
252.3865	0.089	504773	keystroke_s	s	n/a
252.5965	0.089	505193	keystroke_f	f	n/a
253.0615	0.089	506123	keystroke_o	o	n/a
253.1665	0.0895	506333	keystroke_r	r	n/a
253.316	0.09	506632	keystroke_m	m	n/a
253.466	0.075	506932	keystroke_a	a	n/a
253.6765	0.09	507353	keystroke_t	t	n/a
253.7365	0.225	507473	keystroke_i	i	n/a
253.8115	0.134	507623	keystroke_o	o	n/a
253.8865	0.104	507773	keystroke_n	n	n/a
254.1405	0.075	508281	keystroke_Key.space	Key.space	n/a
254.3505	0.075	508701	keystroke_s	s	n/a
254.6665	0.105	509333	keystroke_e	e	n/a
254.8015	0.074	509603	keystroke_n	n	n/a
255.1165	0.104	510233	keystroke_e	e	n/a
255.5205	0.091	511041	keystroke_g	g	n/a
255.6715	0.12	511343	keystroke_a	a	n/a
255.7915	0.119	511583	keystroke_l	l	n/a
255.9255	0.12	511851	keystroke_Key.space	Key.space	n/a
256.0915	0.105	512183	keystroke_p	p	n/a
256.2565	0.09	512513	keystroke_a	a	n/a
256.4505	0.091	512901	keystroke_t	t	n/a
256.8565	0.074	513713	keystroke_i	i	n/a
256.9915	0.12	513983	keystroke_o	o	n/a
257.2005	0.09	514401	keystroke_Key.space	Key.space	n/a
257.4415	0.09	514883	keystroke_m	m	n/a
257.5915	0.09	515183	keystroke_i	i	n/a
257.7865	0.075	515573	keystroke_l	l	n/a
257.9365	0.105	515873	keystroke_l	l	n/a
258.131	0.225	516262	keystroke_i	i	n/a
258.221	0.12	516442	keystroke_o	o	n/a
258.326	0.12	516652	keystroke_n	n	n/a
258.731	0.1045	517462	keystroke_Key.enter	Key.enter	n/a
258.847	10.5365	517694	prompt	n/a	aggregate investments tension humanity\n
259.5415	0.089	519083	keystroke_g	g	n/a
259.7215	0.059	519443	keystroke_a	a	n/a
259.8855	0.06	519771	keystroke_Key.backspace	Key.backspace	n/a
259.9905	0.12	519981	keystroke_Key.backspace	Key.backspace	n/a
260.1255	0.105	520251	keystroke_a	a	n/a
260.2155	0.106	520431	keystroke_g	g	n/a
260.426	0.075	520852	keystroke_r	r	n/a
260.606	0.09	521212	keystroke_r	r	n/a
261.0705	0.06	522141	keystroke_Key.backspace	Key.backspace	n/a
261.2055	0.075	522411	keystroke_Key.backspace	Key.backspace	n/a
261.3415	0.104	522683	keystroke_g	g	n/a
261.5955	0.091	523191	keystroke_r	r	n/a
261.8055	0.1055	523611	keystroke_e	e	n/a
262.136	0.09	524272	keystroke_g	g	n/a
262.331	0.105	524662	keystroke_a	a	n/a
262.541	0.045	525082	keystroke_t	t	n/a
262.841	0.105	525682	keystroke_e	e	n/a
263.366	0.105	526732	keystroke_Key.space	Key.space	n/a
263.561	0.12	527122	keystroke_i	i	n/a
263.666	0.075	527332	keystroke_n	n	n/a
263.996	0.075	527992	keystroke_v	v	n/a
264.116	0.12	528232	keystroke_e	e	n/a
264.311	0.105	528622	keystroke_s	s	n/a
264.491	0.075	528982	keystroke_t	t	n/a
264.626	0.105	529252	keystroke_m	m	n/a
264.716	0.105	529432	keystroke_e	e	n/a
264.836	0.105	529672	keystroke_n	n	n/a
264.926	0.075	529852	keystroke_t	t	n/a
265.121	0.12	530242	keystroke_s	s	n/a
265.256	0.09	530512	keystroke_Key.space	Key.space	n/a
265.496	0.06	530992	keystroke_t	t	n/a
265.646	0.09	531292	keystroke_e	e	n/a
265.7665	0.0895	531533	keystroke_n	n	n/a
265.901	0.12	531802	keystroke_s	s	n/a
266.036	0.24	532072	keystroke_i	i	n/a
266.156	0.135	532312	keystroke_o	o	n/a
266.261	0.1055	532522	keystroke_n	n	n/a
267.131	0.105	534262	keystroke_Key.space	Key.space	n/a
267.626	0.03	535252	keystroke_h	h	n/a
267.986	0.0895	535972	keystroke_u	u	n/a
268.2565	0.075	536513	keystroke_m	m	n/a
268.4505	0.12	536901	keystroke_a	a	n/a
268.5855	0.076	537171	keystroke_n	n	n/a
268.7805	0.091	537561	keystroke_i	i	n/a
268.9005	0.105	537801	keystroke_t	t	n/a
269.1105	0.09	538221	keystroke_y	y	n/a
269.2605	0.12	538521	keystroke_Key.enter	Key.enter	n/a
269.3885	8.6345	538777	prompt	n/a	forests launches deal guitars\n
270.0255	0.09	540051	keystroke_f	f	n/a
270.1005	0.105	540201	keystroke_o	o	n/a
270.2355	0.1055	540471	keystroke_r	r	n/a
270.686	0.09	541372	keystroke_e	e	n/a
270.851	0.09	541702	keystroke_s	s	n/a
271.001	0.105	542002	keystroke_t	t	n/a
271.256	0.09	542512	keystroke_Key.space	Key.space	n/a
271.496	0.105	542992	keystroke_l	l	n/a
271.616	0.135	543232	keystroke_a	a	n/a
271.856	0.12	543712	keystroke_u	u	n/a
272.711	0.075	545422	keystroke_g	g	n/a
272.936	0.06	545872	keystroke_Key.backspace	Key.backspace	n/a
273.281	0.12	546562	keystroke_h	h	n/a
273.716	0.06	547432	keystroke_Key.backspace	Key.backspace	n/a
273.896	0.075	547792	keystroke_n	n	n/a
274.136	0.089	548272	keystroke_c	c	n/a
274.211	0.089	548422	keystroke_h	h	n/a
274.331	0.06	548662	keystroke_e	e	n/a
274.466	0.15	548932	keystroke_s	s	n/a
274.646	0.104	549292	keystroke_Key.space	Key.space	n/a
274.931	0.105	549862	keystroke_d	d	n/a
275.1105	0.121	550221	keystroke_e	e	n/a
275.2615	0.12	550523	keystroke_a	a	n/a
275.4255	0.12	550851	keystroke_l	l	n/a
275.6355	0.12	551271	keystroke_Key.space	Key.space	n/a
275.7855	0.075	551571	keystroke_d	d	n/a
276.0255	0.075	552051	keystroke_Key.backspace	Key.backspace	n/a
276.1615	0.135	552323	keystroke_g	g	n/a
276.2815	0.089	552563	keystroke_u	u	n/a
276.4905	0.091	552981	keystroke_i	i	n/a
276.6255	0.076	553251	keystroke_t	t	n/a
276.7755	0.166	553551	keystroke_e	e	n/a
276.9255	0.075	553851	keystroke_r	r	n/a
277.1815	0.074	554363	keystroke_Key.backspace	Key.backspace	n/a
277.3155	0.121	554631	keystroke_Key.backspace	Key.backspace	n/a
277.4505	0.061	554901	keystroke_a	a	n/a
277.5865	0.059	555173	keystroke_r	r	n/a
277.7665	0.09	555533	keystroke_s	s	n/a
277.9155	0.105	555831	keystroke_Key.enter	Key.enter	n/a
278.028	6.295	556056	prompt	n/a	on causing announce joining\n
278.5005	0.136	557001	keystroke_o	o	n/a
278.6065	0.089	557213	keystroke_n	n	n/a
278.7105	0.1505	557421	keystroke_Key.space	Key.space	n/a
278.8905	0.15	557781	keystroke_c	c	n/a
279.1005	0.106	558201	keystroke_a	a	n/a
279.266	0.12	558532	keystroke_u	u	n/a
279.446	0.09	558892	keystroke_s	s	n/a
279.566	0.121	559132	keystroke_i	i	n/a
279.656	0.105	559312	keystroke_n	n	n/a
279.776	0.12	559552	keystroke_g	g	n/a
279.881	0.12	559762	keystroke_Key.space	Key.space	n/a
280.182	0.074	560364	keystroke_a	a	n/a
280.272	0.059	560544	keystroke_n	n	n/a
280.406	0.075	560812	keystroke_n	n	n/a
280.571	0.105	561142	keystroke_o	o	n/a
280.976	0.105	561952	keystroke_u	u	n/a
281.501	0.075	563002	keystroke_n	n	n/a
281.726	0.106	563452	keystroke_c	c	n/a
281.936	0.09	563872	keystroke_e	e	n/a
282.041	0.09	564082	keystroke_Key.space	Key.space	n/a
282.176	0.12	564352	keystroke_j	j	n/a
282.281	0.18	564562	keystroke_o	o	n/a
282.371	0.18	564742	keystroke_i	i	n/a
282.476	0.105	564952	keystroke_n	n	n/a
282.9265	0.074	565853	keystroke_n	n	n/a
283.1205	0.091	566241	keystroke_i	i	n/a
283.4055	0.03	566811	keystroke_Key.backspace	Key.backspace	n/a
283.4505	0.165	566901	keystroke_Key.backspace	Key.backspace	n/a
283.8555	0.136	567711	keystroke_i	i	n/a
283.9315	0.105	567863	keystroke_n	n	n/a
284.0215	0.104	568043	keystroke_g	g	n/a
284.1855	0.135	568371	keystroke_Key.enter	Key.enter	n/a
284.329	6.2635	568658	prompt	n/a	earned marriage mail cowboy\n
284.8455	0.105	569691	keystroke_e	e	n/a
285.4455	0.105	570891	keystroke_a	a	n/a
285.6405	0.06	571281	keystroke_r	r	n/a
285.7465	0.104	571493	keystroke_n	n	n/a
285.8355	0.106	571671	keystroke_e	e	n/a
286.0465	0.104	572093	keystroke_d	d	n/a
286.1815	0.119	572363	keystroke_Key.space	Key.space	n/a
286.4215	0.104	572843	keystroke_m	m	n/a
286.7365	0.06	573473	keystroke_a	a	n/a
286.9465	0.044	573893	keystroke_r	r	n/a
287.0815	0.09	574163	keystroke_r	r	n/a
287.3065	0.119	574613	keystroke_i	i	n/a
287.4565	0.09	574913	keystroke_a	a	n/a
287.6065	0.044	575213	keystroke_g	g	n/a
287.8455	0.091	575691	keystroke_e	e	n/a
287.9205	0.135	575841	keystroke_Key.space	Key.space	n/a
288.1005	0.106	576201	keystroke_m	m	n/a
288.3415	0.09	576683	keystroke_a	a	n/a
288.5665	0.09	577133	keystroke_i	i	n/a
288.7015	0.119	577403	keystroke_l	l	n/a
288.8355	0.105	577671	keystroke_Key.space	Key.space	n/a
288.9865	0.12	577973	keystroke_c	c	n/a
289.0755	0.1355	578151	keystroke_o	o	n/a
289.256	0.105	578512	keystroke_w	w	n/a
289.706	0.075	579412	keystroke_b	b	n/a
289.766	0.135	579532	keystroke_o	o	n/a
289.916	0.09	579832	keystroke_y	y	n/a
290.471	0.12	580942	keystroke_Key.enter	Key.enter	n/a
290.598	8.41	581196	prompt	n/a	mountains shared teachers labels\n
291.132	0.119	582264	keystroke_m	m	n/a
291.236	0.09	582472	keystroke_o	o	n/a
291.416	0.06	582832	keystroke_u	u	n/a
291.581	0.106	583162	keystroke_n	n	n/a
291.701	0.075	583402	keystroke_t	t	n/a
291.881	0.105	583762	keystroke_a	a	n/a
291.926	0.15	583852	keystroke_i	i	n/a
292.016	0.105	584032	keystroke_n	n	n/a
292.106	0.12	584212	keystroke_s	s	n/a
292.496	0.105	584992	keystroke_Key.space	Key.space	n/a
292.676	0.12	585352	keystroke_s	s	n/a
292.886	0.12	585772	keystroke_h	h	n/a
293.126	0.09	586252	keystroke_a	a	n/a
293.381	0.076	586762	keystroke_r	r	n/a
293.711	0.09	587422	keystroke_e	e	n/a
293.906	0.12	587812	keystroke_d	d	n/a
294.041	0.105	588082	keystroke_Key.space	Key.space	n/a
294.282	0.074	588564	keystroke_t	t	n/a
294.401	0.135	588802	keystroke_e	e	n/a
294.596	0.09	589192	keystroke_a	a	n/a
294.866	0.0905	589732	keystroke_c	c	n/a
294.986	0.12	589972	keystroke_h	h	n/a
295.046	0.075	590092	keystroke_e	e	n/a
295.211	0.09	590422	keystroke_s	s	n/a
295.856	0.09	591712	keystroke_Key.backspace	Key.backspace	n/a
295.961	0.075	591922	keystroke_r	r	n/a
296.186	0.105	592372	keystroke_s	s	n/a
296.306	0.09	592612	keystroke_Key.space	Key.space	n/a
296.606	0.03	593212	keystroke_h	h	n/a
296.696	0.09	593392	keystroke_l	l	n/a
296.951	0.0595	593902	keystroke_Key.backspace	Key.backspace	n/a
297.0855	0.075	594171	keystroke_Key.backspace	Key.backspace	n/a
297.2815	0.105	594563	keystroke_l	l	n/a
297.3705	0.091	594741	keystroke_a	a	n/a
297.4915	0.09	594983	keystroke_b	b	n/a
297.7005	0.106	595401	keystroke_l	l	n/a
297.8065	0.134	595613	keystroke_e	e	n/a
298.3305	0.045	596661	keystroke_Key.backspace	Key.backspace	n/a
298.4505	0.06	596901	keystroke_Key.backspace	Key.backspace	n/a
298.5415	0.134	597083	keystroke_e	e	n/a
298.6615	0.119	597323	keystroke_l	l	n/a
298.7655	0.135	597531	keystroke_s	s	n/a
298.9165	0.089	597833	keystroke_Key.enter	Key.enter	n/a
299.0145	7.089	598029	prompt	n/a	ignore house he'll am\n
299.5915	0.09	599183	keystroke_l	l	n/a
299.8455	0.045	599691	keystroke_Key.backspace	Key.backspace	n/a
299.996	0.075	599992	keystroke_i	i	n/a
300.131	0.105	600262	keystroke_g	g	n/a
300.266	0.105	600532	keystroke_n	n	n/a
300.386	0.105	600772	keystroke_o	o	n/a
300.536	0.135	601072	keystroke_r	r	n/a
300.791	0.12	601582	keystroke_e	e	n/a
301.046	0.12	602092	keystroke_Key.space	Key.space	n/a
301.286	0.105	602572	keystroke_h	h	n/a
301.406	0.105	602812	keystroke_o	o	n/a
301.541	0.12	603082	keystroke_u	u	n/a
301.646	0.075	603292	keystroke_s	s	n/a
301.781	0.105	603562	keystroke_e	e	n/a
301.871	0.105	603742	keystroke_Key.space	Key.space	n/a
301.977	0.119	603954	keystroke_h	h	n/a
302.171	0.105	604342	keystroke_e	e	n/a
302.846	0.105	605692	keystroke_;	;	n/a
303.0405	0.075	606081	keystroke_l	l	n/a
303.3555	0.06	606711	keystroke_Key.backspace	Key.backspace	n/a
303.4755	0.09	606951	keystroke_Key.backspace	Key.backspace	n/a
304.6905	0.105	609381	keystroke_'	'	n/a
304.9155	0.046	609831	keystroke_l	l	n/a
305.0805	0.076	610161	keystroke_l	l	n/a
305.4405	0.105	610881	keystroke_Key.space	Key.space	n/a
305.7405	0.121	611481	keystroke_a	a	n/a
305.8455	0.105	611691	keystroke_m	m	n/a
306.0255	0.075	612051	keystroke_Key.enter	Key.enter	n/a
306.1095	8.258	612219	prompt	n/a	combine skip tubes olive\n
306.6565	0.134	613313	keystroke_c	c	n/a
306.7315	0.134	613463	keystroke_o	o	n/a
306.8205	0.105	613641	keystroke_m	m	n/a
307.0315	0.105	614063	keystroke_i	i	n/a
307.0615	0.119	614123	keystroke_n	n	n/a
307.1955	0.091	614391	keystroke_e	e	n/a
307.2705	0.12	614541	keystroke_Key.space	Key.space	n/a
307.4365	0.104	614873	keystroke_s	s	n/a
307.4955	0.091	614991	keystroke_k	k	n/a
307.6605	0.12	615321	keystroke_i	i	n/a
307.9455	0.075	615891	keystroke_Key.backspace	Key.backspace	n/a
308.0805	0.075	616161	keystroke_Key.backspace	Key.backspace	n/a
308.2155	0.075	616431	keystroke_Key.backspace	Key.backspace	n/a
308.3505	0.09	616701	keystroke_Key.backspace	Key.backspace	n/a
308.5005	0.075	617001	keystroke_Key.backspace	Key.backspace	n/a
308.6355	0.105	617271	keystroke_Key.backspace	Key.backspace	n/a
309.1905	0.09	618381	keystroke_n	n	n/a
309.3115	0.15	618623	keystroke_e	e	n/a
309.4455	0.135	618891	keystroke_Key.space	Key.space	n/a
310.0455	0.06	620091	keystroke_Key.backspace	Key.backspace	n/a
310.1805	0.09	620361	keystroke_Key.backspace	Key.backspace	n/a
310.3155	0.09	620631	keystroke_Key.backspace	Key.backspace	n/a
310.4655	0.09	620931	keystroke_Key.backspace	Key.backspace	n/a
310.6915	0.105	621383	keystroke_b	b	n/a
310.7805	0.121	621561	keystroke_i	i	n/a
310.8405	0.121	621681	keystroke_n	n	n/a
310.9905	0.121	621981	keystroke_e	e	n/a
311.2455	0.12	622491	keystroke_Key.space	Key.space	n/a
311.7855	0.075	623571	keystroke_s	s	n/a
311.8305	0.075	623661	keystroke_k	k	n/a
311.9815	0.119	623963	keystroke_i	i	n/a
312.1455	0.121	624291	keystroke_p	p	n/a
312.3255	0.12	624651	keystroke_Key.space	Key.space	n/a
312.6705	0.075	625341	keystroke_t	t	n/a
312.7615	0.09	625523	keystroke_u	u	n/a
312.8805	0.06	625761	keystroke_b	b	n/a
313.0305	0.09	626061	keystroke_e	e	n/a
313.2115	0.12	626423	keystroke_s	s	n/a
313.3165	0.089	626633	keystroke_Key.space	Key.space	n/a
313.4515	0.075	626903	keystroke_o	o	n/a
313.6765	0.089	627353	keystroke_l	l	n/a
313.6905	0.196	627381	keystroke_i	i	n/a
313.9005	0.076	627801	keystroke_v	v	n/a
314.0515	0.119	628103	keystroke_e	e	n/a
314.2605	0.105	628521	keystroke_Key.enter	Key.enter	n/a
314.374	7.225	628748	prompt	n/a	advances malpractice angel three\n
314.9215	0.119	629843	keystroke_a	a	n/a
315.0865	0.104	630173	keystroke_d	d	n/a
315.3865	0.09	630773	keystroke_v	v	n/a
315.4905	0.1205	630981	keystroke_a	a	n/a
315.671	0.105	631342	keystroke_n	n	n/a
315.791	0.105	631582	keystroke_c	c	n/a
315.986	0.09	631972	keystroke_e	e	n/a
316.1815	0.09	632363	keystroke_s	s	n/a
316.2855	0.105	632571	keystroke_Key.space	Key.space	n/a
316.4955	0.106	632991	keystroke_m	m	n/a
316.6615	0.134	633323	keystroke_a	a	n/a
316.7815	0.119	633563	keystroke_l	l	n/a
317.0065	0.089	634013	keystroke_p	p	n/a
317.4865	0.09	634973	keystroke_r	r	n/a
317.7705	0.075	635541	keystroke_a	a	n/a
317.9965	0.1195	635993	keystroke_c	c	n/a
318.3565	0.074	636713	keystroke_t	t	n/a
318.4455	0.121	636891	keystroke_i	i	n/a
318.5815	0.059	637163	keystroke_c	c	n/a
318.7455	0.075	637491	keystroke_e	e	n/a
318.8355	0.12	637671	keystroke_Key.space	Key.space	n/a
318.9705	0.106	637941	keystroke_a	a	n/a
319.0905	0.09	638181	keystroke_n	n	n/a
319.1955	0.075	638391	keystroke_g	g	n/a
319.3465	0.12	638693	keystroke_e	e	n/a
319.4955	0.12	638991	keystroke_l	l	n/a
319.6765	0.075	639353	keystroke_Key.space	Key.space	n/a
319.8865	0.059	639773	keystroke_t	t	n/a
320.0815	0.105	640163	keystroke_r	r	n/a
320.2315	0.09	640463	keystroke_e	e	n/a
320.5165	0.06	641033	keystroke_Key.backspace	Key.backspace	n/a
320.6205	0.091	641241	keystroke_Key.backspace	Key.backspace	n/a
320.861	0.0905	641722	keystroke_h	h	n/a
321.056	0.105	642112	keystroke_r	r	n/a
321.221	0.09	642442	keystroke_e	e	n/a
321.371	0.105	642742	keystroke_e	e	n/a
321.491	0.105	642982	keystroke_Key.enter	Key.enter	n/a
321.6065	4.7015	643213	prompt	n/a	free wound rates intense\n
322.181	0.09	644362	keystroke_f	f	n/a
322.376	0.165	644752	keystroke_r	r	n/a
322.616	0.06	645232	keystroke_e	e	n/a
322.766	0.09	645532	keystroke_e	e	n/a
322.886	0.105	645772	keystroke_Key.space	Key.space	n/a
323.111	0.09	646222	keystroke_w	w	n/a
323.216	0.075	646432	keystroke_o	o	n/a
323.366	0.105	646732	keystroke_u	u	n/a
323.606	0.045	647212	keystroke_n	n	n/a
323.846	0.09	647692	keystroke_d	d	n/a
323.966	0.09	647932	keystroke_Key.space	Key.space	n/a
324.191	0.076	648382	keystroke_r	r	n/a
324.356	0.09	648712	keystroke_a	a	n/a
324.476	0.135	648952	keystroke_t	t	n/a
324.626	0.09	649252	keystroke_e	e	n/a
324.896	0.12	649792	keystroke_s	s	n/a
325.046	0.09	650092	keystroke_Key.space	Key.space	n/a
325.271	0.12	650542	keystroke_i	i	n/a
325.376	0.09	650752	keystroke_n	n	n/a
325.511	0.105	651022	keystroke_t	t	n/a
325.676	0.09	651352	keystroke_e	e	n/a
325.811	0.09	651622	keystroke_n	n	n/a
325.886	0.105	651772	keystroke_s	s	n/a
326.051	0.09	652102	keystroke_e	e	n/a
326.186	0.12	652372	keystroke_Key.enter	Key.enter	n/a
326.315	9.3225	652630	prompt	n/a	booking classroom economics computation\n
326.831	0.105	653662	keystroke_a	a	n/a
327.101	0.075	654202	keystroke_Key.backspace	Key.backspace	n/a
327.206	0.09	654412	keystroke_b	b	n/a
327.311	0.09	654622	keystroke_o	o	n/a
327.446	0.12	654892	keystroke_o	o	n/a
327.611	0.09	655222	keystroke_k	k	n/a
327.791	0.12	655582	keystroke_i	i	n/a
327.851	0.105	655702	keystroke_n	n	n/a
327.971	0.09	655942	keystroke_g	g	n/a
328.121	0.09	656242	keystroke_Key.space	Key.space	n/a
328.376	0.135	656752	keystroke_c	c	n/a
328.706	0.135	657412	keystroke_l	l	n/a
328.811	0.135	657622	keystroke_a	a	n/a
328.901	0.09	657802	keystroke_s	s	n/a
329.081	0.09	658162	keystroke_s	s	n/a
329.381	0.075	658762	keystroke_r	r	n/a
329.486	0.06	658972	keystroke_o	o	n/a
329.606	0.105	659212	keystroke_o	o	n/a
329.726	0.075	659452	keystroke_m	m	n/a
329.816	0.105	659632	keystroke_Key.space	Key.space	n/a
330.101	0.09	660202	keystroke_e	e	n/a
331.106	0.15	662212	keystroke_c	c	n/a
331.451	0.105	662902	keystroke_o	o	n/a
331.526	0.075	663052	keystroke_n	n	n/a
331.886	0.06	663772	keystroke_o	o	n/a
331.976	0.105	663952	keystroke_m	m	n/a
332.156	0.105	664312	keystroke_i	i	n/a
332.276	0.12	664552	keystroke_c	c	n/a
332.591	0.09	665182	keystroke_s	s	n/a
332.801	0.09	665602	keystroke_Key.space	Key.space	n/a
333.011	0.135	666022	keystroke_c	c	n/a
333.101	0.165	666202	keystroke_o	o	n/a
333.221	0.105	666442	keystroke_m	m	n/a
333.476	0.075	666952	keystroke_p	p	n/a
333.626	0.105	667252	keystroke_u	u	n/a
333.821	0.09	667642	keystroke_t	t	n/a
334.076	0.105	668152	keystroke_a	a	n/a
334.376	0.09	668752	keystroke_t	t	n/a
334.481	0.21	668962	keystroke_i	i	n/a
334.526	0.15	669052	keystroke_o	o	n/a
334.601	0.105	669202	keystroke_n	n	n/a
334.736	0.12	669472	keystroke_s	s	n/a
335.351	0.09	670702	keystroke_Key.backspace	Key.backspace	n/a
335.531	0.105	671062	keystroke_Key.enter	Key.enter	n/a
335.6475	6.9355	671295	prompt	n/a	feet adventure offered authentic\n
336.266	0.09	672532	keystroke_f	f	n/a
336.341	0.135	672682	keystroke_e	e	n/a
336.551	0.12	673102	keystroke_e	e	n/a
336.926	0.105	673852	keystroke_t	t	n/a
337.466	0.105	674932	keystroke_Key.space	Key.space	n/a
337.676	0.12	675352	keystroke_a	a	n/a
337.826	0.12	675652	keystroke_d	d	n/a
338.396	0.075	676792	keystroke_v	v	n/a
338.531	0.135	677062	keystroke_e	e	n/a
338.681	0.12	677362	keystroke_n	n	n/a
338.846	0.09	677692	keystroke_t	t	n/a
338.981	0.105	677962	keystroke_u	u	n/a
339.071	0.105	678142	keystroke_r	r	n/a
339.161	0.12	678322	keystroke_e	e	n/a
339.311	0.134	678622	keystroke_Key.space	Key.space	n/a
339.565	0.091	679130	keystroke_o	o	n/a
339.626	0.06	679252	keystroke_f	f	n/a
339.761	0.075	679522	keystroke_f	f	n/a
339.881	0.12	679762	keystroke_e	e	n/a
339.986	0.12	679972	keystroke_r	r	n/a
340.121	0.105	680242	keystroke_e	e	n/a
340.346	0.09	680692	keystroke_d	d	n/a
340.451	0.105	680902	keystroke_Key.space	Key.space	n/a
340.691	0.119	681382	keystroke_a	a	n/a
341.021	0.09	682042	keystroke_u	u	n/a
341.171	0.105	682342	keystroke_t	t	n/a
341.291	0.09	682582	keystroke_h	h	n/a
341.441	0.105	682882	keystroke_e	e	n/a
341.561	0.075	683122	keystroke_n	n	n/a
341.831	0.105	683662	keystroke_t	t	n/a
341.966	0.12	683932	keystroke_i	i	n/a
342.146	0.121	684292	keystroke_c	c	n/a
342.476	0.105	684952	keystroke_Key.enter	Key.enter	n/a
342.5875	6.1765	685175	prompt	n/a	pull uruguay usual parents\n
343.361	0.06	686722	keystroke_p	p	n/a
343.481	0.105	686962	keystroke_u	u	n/a
343.646	0.09	687292	keystroke_l	l	n/a
343.826	0.105	687652	keystroke_l	l	n/a
344.036	0.105	688072	keystroke_Key.space	Key.space	n/a
344.156	0.09	688312	keystroke_u	u	n/a
344.366	0.105	688732	keystroke_r	r	n/a
344.666	0.015	689332	keystroke_u	u	n/a
344.801	0.09	689602	keystroke_g	g	n/a
345.026	0.105	690052	keystroke_u	u	n/a
345.281	0.09	690562	keystroke_a	a	n/a
345.521	0.09	691042	keystroke_y	y	n/a
345.671	0.12	691342	keystroke_Key.space	Key.space	n/a
345.821	0.105	691642	keystroke_u	u	n/a
345.971	0.105	691942	keystroke_s	s	n/a
346.256	0.09	692512	keystroke_u	u	n/a
346.496	0.075	692992	keystroke_a	a	n/a
346.541	0.075	693082	keystroke_l	l	n/a
346.691	0.09	693382	keystroke_l	l	n/a
347.051	0.06	694102	keystroke_Key.backspace	Key.backspace	n/a
347.351	0.045	694702	keystroke_Key.space	Key.space	n/a
347.576	0.045	695152	keystroke_p	p	n/a
347.756	0.09	695512	keystroke_a	a	n/a
347.936	0.09	695872	keystroke_r	r	n/a
348.071	0.12	696142	keystroke_e	e	n/a
348.176	0.135	696352	keystroke_n	n	n/a
348.296	0.06	696592	keystroke_t	t	n/a
348.491	0.075	696982	keystroke_s	s	n/a
348.641	0.12	697282	keystroke_Key.enter	Key.enter	n/a
348.771	14.032	697542	prompt	n/a	stake observations constitutional untitled\n
349.451	0.135	698902	keystroke_s	s	n/a
349.676	0.09	699352	keystroke_t	t	n/a
350.021	0.105	700042	keystroke_a	a	n/a
350.216	0.105	700432	keystroke_k	k	n/a
350.351	0.105	700702	keystroke_e	e	n/a
350.516	0.12	701032	keystroke_Key.space	Key.space	n/a
350.756	0.105	701512	keystroke_o	o	n/a
350.876	0.09	701752	keystroke_v	v	n/a
351.371	0.045	702742	keystroke_Key.backspace	Key.backspace	n/a
351.476	0.075	702952	keystroke_b	b	n/a
352.226	0.075	704452	keystroke_s	s	n/a
352.361	0.105	704722	keystroke_e	e	n/a
352.451	0.105	704902	keystroke_r	r	n/a
352.676	0.105	705352	keystroke_a	a	n/a
352.766	0.135	705532	keystroke_v	v	n/a
353.036	0.06	706072	keystroke_Key.backspace	Key.backspace	n/a
353.186	0.0745	706372	keystroke_Key.backspace	Key.backspace	n/a
353.3655	0.1055	706731	keystroke_v	v	n/a
353.516	0.06	707032	keystroke_a	a	n/a
353.696	0.09	707392	keystroke_t	t	n/a
353.801	0.255	707602	keystroke_i	i	n/a
353.876	0.135	707752	keystroke_o	o	n/a
353.951	0.12	707902	keystroke_n	n	n/a
354.611	0.105	709222	keystroke_s	s	n/a
354.746	0.105	709492	keystroke_Key.space	Key.space	n/a
355.136	0.105	710272	keystroke_c	c	n/a
355.211	0.135	710422	keystroke_o	o	n/a
355.316	0.105	710632	keystroke_n	n	n/a
355.511	0.105	711022	keystroke_s	s	n/a
355.646	0.12	711292	keystroke_i	i	n/a
356.021	0.075	712042	keystroke_Key.backspace	Key.backspace	n/a
356.156	0.12	712312	keystroke_t	t	n/a
356.261	0.09	712522	keystroke_i	i	n/a
357.101	0.1045	714202	keystroke_t	t	n/a
357.3255	0.12	714651	keystroke_u	u	n/a
357.6855	0.076	715371	keystroke_t	t	n/a
357.7615	0.119	715523	keystroke_i	i	n/a
358.0755	0.121	716151	keystroke_o	o	n/a
358.1515	0.12	716303	keystroke_n	n	n/a
358.3155	0.135	716631	keystroke_a	a	n/a
358.4515	0.134	716903	keystroke_l	l	n/a
359.2155	0.105	718431	keystroke_Key.space	Key.space	n/a
360.176	0.105	720352	keystroke_c	c	n/a
360.4155	0.09	720831	keystroke_Key.backspace	Key.backspace	n/a
360.5815	0.074	721163	keystroke_u	u	n/a
360.7755	0.06	721551	keystroke_n	n	n/a
360.9405	0.091	721881	keystroke_t	t	n/a
361.0155	0.091	722031	keystroke_i	i	n/a
361.616	0.0895	723232	keystroke_t	t	n/a
361.7505	0.121	723501	keystroke_l	l	n/a
361.8405	0.105	723681	keystroke_e	e	n/a
362.2155	0.105	724431	keystroke_d	d	n/a
362.6955	0.105	725391	keystroke_Key.enter	Key.enter	n/a
362.81	13.283	725620	prompt	n/a	computed program babies underground\n
363.3405	0.121	726681	keystroke_o	o	n/a
363.5655	0.106	727131	keystroke_m	m	n/a
363.7465	0.089	727493	keystroke_p	p	n/a
364.0155	0.09	728031	keystroke_u	u	n/a
364.1215	0.075	728243	keystroke_t	t	n/a
364.2715	0.089	728543	keystroke_e	e	n/a
364.4805	0.105	728961	keystroke_d	d	n/a
364.5555	0.105	729111	keystroke_Key.space	Key.space	n/a
364.7965	0.104	729593	keystroke_g	g	n/a
365.2455	0.045	730491	keystroke_Key.backspace	Key.backspace	n/a
366.5055	0.135	733011	keystroke_c	c	n/a
366.6265	0.164	733253	keystroke_o	o	n/a
366.7755	0.075	733551	keystroke_m	m	n/a
366.9705	0.09	733941	keystroke_p	p	n/a
367.1065	0.104	734213	keystroke_u	u	n/a
367.2255	0.105	734451	keystroke_t	t	n/a
367.4355	0.135	734871	keystroke_e	e	n/a
368.0955	0.09	736191	keystroke_d	d	n/a
368.2005	0.105	736401	keystroke_Key.space	Key.space	n/a
368.4255	0.075	736851	keystroke_p	p	n/a
368.5455	0.091	737091	keystroke_r	r	n/a
368.6215	0.104	737243	keystroke_o	o	n/a
368.7405	0.09	737481	keystroke_g	g	n/a
368.9805	0.09	737961	keystroke_r	r	n/a
369.1605	0.121	738321	keystroke_a	a	n/a
369.3105	0.105	738621	keystroke_m	m	n/a
369.5355	0.09	739071	keystroke_Key.space	Key.space	n/a
369.7905	0.075	739581	keystroke_b	b	n/a
370.0305	0.09	740061	keystroke_a	a	n/a
370.6005	0.06	741201	keystroke_b	b	n/a
370.7065	0.104	741413	keystroke_i	i	n/a
370.7965	0.059	741593	keystroke_e	e	n/a
370.9755	0.105	741951	keystroke_s	s	n/a
371.0955	0.075	742191	keystroke_Key.space	Key.space	n/a
371.1855	0.075	742371	keystroke_u	u	n/a
371.3955	0.105	742791	keystroke_n	n	n/a
371.5905	0.091	743181	keystroke_d	d	n/a
371.7555	0.135	743511	keystroke_e	e	n/a
371.8755	0.105	743751	keystroke_r	r	n/a
372.1305	0.075	744261	keystroke_g	g	n/a
372.2355	0.09	744471	keystroke_o	o	n/a
372.4005	0.135	744801	keystroke_u	u	n/a
372.5965	0.104	745193	keystroke_n	n	n/a
372.7155	0.106	745431	keystroke_d	d	n/a
373.4055	0.075	746811	keystroke_Key.backspace	Key.backspace	n/a
373.5405	0.075	747081	keystroke_Key.backspace	Key.backspace	n/a
373.6755	0.075	747351	keystroke_Key.backspace	Key.backspace	n/a
373.8105	0.09	747621	keystroke_Key.backspace	Key.backspace	n/a
374.3205	0.135	748641	keystroke_r	r	n/a
375.4015	0.06	750803	keystroke_o	o	n/a
375.4755	0.106	750951	keystroke_u	u	n/a
375.6855	0.075	751371	keystroke_n	n	n/a
375.8055	0.091	751611	keystroke_d	d	n/a
375.9715	0.119	751943	keystroke_Key.enter	Key.enter	n/a
376.1005	8.1225	752201	prompt	n/a	with cafe state announcement\n
376.811	0.09	753622	keystroke_w	w	n/a
376.871	0.09	753742	keystroke_i	i	n/a
376.991	0.105	753982	keystroke_t	t	n/a
377.066	0.105	754132	keystroke_h	h	n/a
377.366	0.105	754732	keystroke_Key.space	Key.space	n/a
377.562	0.119	755124	keystroke_c	c	n/a
377.696	0.105	755392	keystroke_a	a	n/a
377.906	0.105	755812	keystroke_f	f	n/a
377.996	0.135	755992	keystroke_e	e	n/a
378.281	0.12	756562	keystroke_Key.space	Key.space	n/a
378.536	0.105	757072	keystroke_s	s	n/a
379.031	0.09	758062	keystroke_a	a	n/a
379.181	0.09	758362	keystroke_t	t	n/a
379.331	0.12	758662	keystroke_e	e	n/a
379.916	0.06	759832	keystroke_Key.backspace	Key.backspace	n/a
380.066	0.075	760132	keystroke_Key.backspace	Key.backspace	n/a
380.186	0.09	760372	keystroke_Key.backspace	Key.backspace	n/a
380.486	0.075	760972	keystroke_t	t	n/a
380.651	0.0895	761302	keystroke_a	a	n/a
380.7555	0.0905	761511	keystroke_t	t	n/a
381.0705	0.105	762141	keystroke_e	e	n/a
381.6255	0.105	763251	keystroke_Key.space	Key.space	n/a
381.9255	0.105	763851	keystroke_a	a	n/a
382.3755	0.045	764751	keystroke_n	n	n/a
382.4955	0.075	764991	keystroke_n	n	n/a
382.6905	0.12	765381	keystroke_o	o	n/a
382.8705	0.105	765741	keystroke_u	u	n/a
383.096	0.1055	766192	keystroke_n	n	n/a
383.3215	0.089	766643	keystroke_c	c	n/a
383.5155	0.1055	767031	keystroke_e	e	n/a
383.636	0.075	767272	keystroke_m	m	n/a
383.741	0.105	767482	keystroke_e	e	n/a
383.831	0.12	767662	keystroke_n	n	n/a
383.936	0.105	767872	keystroke_t	t	n/a
384.101	0.12	768202	keystroke_Key.enter	Key.enter	n/a
384.2275	8.441	768455	prompt	n/a	glasgow strange relaxation byte\n
384.881	0.09	769762	keystroke_g	g	n/a
385.346	0.105	770692	keystroke_l	l	n/a
385.646	0.15	771292	keystroke_a	a	n/a
385.826	0.12	771652	keystroke_s	s	n/a
386.621	0.03	773242	keystroke_g	g	n/a
386.801	0.12	773602	keystroke_o	o	n/a
386.936	0.12	773872	keystroke_w	w	n/a
387.176	0.105	774352	keystroke_Key.space	Key.space	n/a
387.416	0.105	774832	keystroke_s	s	n/a
388.616	0.075	777232	keystroke_t	t	n/a
388.826	0.06	777652	keystroke_r	r	n/a
388.991	0.12	777982	keystroke_a	a	n/a
389.081	0.135	778162	keystroke_n	n	n/a
389.201	0.075	778402	keystroke_g	g	n/a
389.381	0.135	778762	keystroke_e	e	n/a
389.651	0.12	779302	keystroke_Key.space	Key.space	n/a
389.891	0.09	779782	keystroke_r	r	n/a
390.011	0.135	780022	keystroke_e	e	n/a
390.191	0.15	780382	keystroke_l	l	n/a
390.326	0.075	780652	keystroke_a	a	n/a
390.656	0.09	781312	keystroke_x	x	n/a
390.821	0.09	781642	keystroke_a	a	n/a
391.016	0.09	782032	keystroke_t	t	n/a
391.106	0.21	782212	keystroke_i	i	n/a
391.151	0.135	782302	keystroke_o	o	n/a
391.226	0.136	782452	keystroke_n	n	n/a
391.526	0.09	783052	keystroke_Key.space	Key.space	n/a
391.796	0.09	783592	keystroke_b	b	n/a
392.021	0.075	784042	keystroke_y	y	n/a
392.216	0.06	784432	keystroke_t	t	n/a
392.381	0.09	784762	keystroke_e	e	n/a
392.531	0.135	785062	keystroke_Key.enter	Key.enter	n/a
392.6755	6.938	785351	prompt	n/a	wallace gone elected stopping\n
393.16	0.106	786320	keystroke_w	w	n/a
393.311	0.135	786622	keystroke_a	a	n/a
393.581	0.075	787162	keystroke_l	l	n/a
393.7305	0.135	787461	keystroke_l	l	n/a
393.8505	0.12	787701	keystroke_a	a	n/a
394.0015	0.134	788003	keystroke_n	n	n/a
394.0905	0.135	788181	keystroke_c	c	n/a
394.4205	0.06	788841	keystroke_Key.backspace	Key.backspace	n/a
394.5555	0.09	789111	keystroke_Key.backspace	Key.backspace	n/a
394.6305	0.09	789261	keystroke_c	c	n/a
394.8715	0.164	789743	keystroke_e	e	n/a
395.3955	0.075	790791	keystroke_Key.space	Key.space	n/a
395.6055	0.091	791211	keystroke_g	g	n/a
395.6815	0.12	791363	keystroke_o	o	n/a
395.7405	0.12	791481	keystroke_n	n	n/a
395.9805	0.12	791961	keystroke_e	e	n/a
396.521	0.105	793042	keystroke_Key.space	Key.space	n/a
396.7905	0.12	793581	keystroke_e	e	n/a
396.9255	0.18	793851	keystroke_l	l	n/a
397.1205	0.06	794241	keystroke_e	e	n/a
397.3015	0.105	794603	keystroke_c	c	n/a
397.511	0.09	795022	keystroke_t	t	n/a
397.676	0.105	795352	keystroke_e	e	n/a
397.871	0.12	795742	keystroke_d	d	n/a
398.006	0.075	796012	keystroke_Key.space	Key.space	n/a
398.141	0.12	796282	keystroke_s	s	n/a
398.336	0.105	796672	keystroke_t	t	n/a
398.426	0.21	796852	keystroke_o	o	n/a
398.621	0.105	797242	keystroke_p	p	n/a
398.801	0.09	797602	keystroke_p	p	n/a
398.951	0.1795	797902	keystroke_i	i	n/a
399.041	0.1195	798082	keystroke_n	n	n/a
399.1605	0.09	798321	keystroke_g	g	n/a
399.4905	0.12	798981	keystroke_Key.enter	Key.enter	n/a
399.619	5.604	799238	prompt	n/a	vocational fatal checklist kids\n
400.1505	0.105	800301	keystroke_v	v	n/a
400.3455	0.12	800691	keystroke_o	o	n/a
400.5705	0.105	801141	keystroke_c	c	n/a
400.7055	0.105	801411	keystroke_a	a	n/a
400.9305	0.075	801861	keystroke_t	t	n/a
400.9755	0.24	801951	keystroke_i	i	n/a
401.0205	0.18	802041	keystroke_o	o	n/a
401.1105	0.135	802221	keystroke_n	n	n/a
401.2755	0.105	802551	keystroke_a	a	n/a
401.3955	0.12	802791	keystroke_l	l	n/a
401.5305	0.105	803061	keystroke_Key.space	Key.space	n/a
401.9055	0.075	803811	keystroke_f	f	n/a
402.1305	0.09	804261	keystroke_a	a	n/a
402.3105	0.075	804621	keystroke_t	t	n/a
402.5205	0.121	805041	keystroke_a	a	n/a
402.7005	0.135	805401	keystroke_l	l	n/a
402.8505	0.09	805701	keystroke_Key.space	Key.space	n/a
403.0305	0.105	806061	keystroke_c	c	n/a
403.1805	0.1205	806361	keystroke_h	h	n/a
403.271	0.089	806542	keystroke_e	e	n/a
403.451	0.12	806902	keystroke_c	c	n/a
403.541	0.105	807082	keystroke_k	k	n/a
403.706	0.15	807412	keystroke_l	l	n/a
403.811	0.105	807622	keystroke_i	i	n/a
404.066	0.09	808132	keystroke_s	s	n/a
404.246	0.09	808492	keystroke_t	t	n/a
404.351	0.09	808702	keystroke_Key.space	Key.space	n/a
404.486	0.075	808972	keystroke_k	k	n/a
404.651	0.12	809302	keystroke_i	i	n/a
404.801	0.135	809602	keystroke_d	d	n/a
404.951	0.09	809902	keystroke_s	s	n/a
405.101	0.12	810202	keystroke_Key.enter	Key.enter	n/a
405.2285	9.474	810457	prompt	n/a	experimental dealer taking regularly\n
405.836	0.135	811672	keystroke_e	e	n/a
406.001	0.045	812002	keystroke_r	r	n/a
406.3	0.06	812600	keystroke_Key.backspace	Key.backspace	n/a
406.361	0.119	812722	keystroke_x	x	n/a
406.766	0.105	813532	keystroke_p	p	n/a
407.066	0.09	814132	keystroke_e	e	n/a
407.201	0.105	814402	keystroke_r	r	n/a
407.291	0.09	814582	keystroke_i	i	n/a
407.486	0.09	814972	keystroke_m	m	n/a
407.621	0.09	815242	keystroke_e	e	n/a
407.711	0.105	815422	keystroke_n	n	n/a
407.831	0.075	815662	keystroke_t	t	n/a
408.311	0.06	816622	keystroke_a	a	n/a
408.506	0.105	817012	keystroke_l	l	n/a
408.776	0.09	817552	keystroke_Key.space	Key.space	n/a
408.926	0.075	817852	keystroke_d	d	n/a
409.121	0.12	818242	keystroke_e	e	n/a
409.271	0.105	818542	keystroke_a	a	n/a
409.391	0.12	818782	keystroke_l	l	n/a
409.496	0.105	818992	keystroke_e	e	n/a
409.586	0.105	819172	keystroke_r	r	n/a
409.721	0.105	819442	keystroke_Key.space	Key.space	n/a
409.901	0.075	819802	keystroke_t	t	n/a
410.066	0.12	820132	keystroke_a	a	n/a
410.201	0.0895	820402	keystroke_k	k	n/a
410.4105	0.15	820821	keystroke_i	i	n/a
410.4705	0.15	820941	keystroke_n	n	n/a
410.6055	0.135	821211	keystroke_g	g	n/a
410.7555	0.105	821511	keystroke_Key.space	Key.space	n/a
411.0855	0.105	822171	keystroke_r	r	n/a
411.2055	0.105	822411	keystroke_e	e	n/a
411.3855	0.09	822771	keystroke_g	g	n/a
411.5055	0.105	823011	keystroke_u	u	n/a
411.6705	0.045	823341	keystroke_r	r	n/a
411.7755	0.105	823551	keystroke_l	l	n/a
412.2105	0.09	824421	keystroke_a	a	n/a
412.4955	0.075	824991	keystroke_Key.backspace	Key.backspace	n/a
412.6305	0.075	825261	keystroke_Key.backspace	Key.backspace	n/a
412.7955	0.06	825591	keystroke_Key.backspace	Key.backspace	n/a
413.5915	0.134	827183	keystroke_l	l	n/a
413.7105	0.075	827421	keystroke_a	a	n/a
413.8765	0.104	827753	keystroke_r	r	n/a
414.1305	0.09	828261	keystroke_y	y	n/a
414.5805	0.12	829161	keystroke_Key.enter	Key.enter	n/a
414.7095	8.154	829419	prompt	n/a	varies impaired silly fragrance\n
415.5855	0.045	831171	keystroke_v	v	n/a
415.8715	0.104	831743	keystroke_a	a	n/a
416.0805	0.09	832161	keystroke_r	r	n/a
416.2015	0.089	832403	keystroke_i	i	n/a
416.3355	0.091	832671	keystroke_s	s	n/a
416.5165	0.089	833033	keystroke_e	e	n/a
416.876	0.06	833752	keystroke_Key.backspace	Key.backspace	n/a
417.011	0.06	834022	keystroke_Key.backspace	Key.backspace	n/a
417.176	0.075	834352	keystroke_e	e	n/a
417.401	0.075	834802	keystroke_s	s	n/a
417.506	0.09	835012	keystroke_Key.space	Key.space	n/a
417.656	0.12	835312	keystroke_i	i	n/a
417.791	0.12	835582	keystroke_m	m	n/a
417.971	0.12	835942	keystroke_p	p	n/a
418.151	0.105	836302	keystroke_a	a	n/a
418.271	0.105	836542	keystroke_i	i	n/a
418.391	0.105	836782	keystroke_r	r	n/a
418.481	0.135	836962	keystroke_e	e	n/a
418.826	0.1045	837652	keystroke_d	d	n/a
419.021	0.1045	838042	keystroke_Key.space	Key.space	n/a
419.171	0.0895	838342	keystroke_s	s	n/a
419.2905	0.09	838581	keystroke_i	i	n/a
419.4705	0.045	838941	keystroke_l	l	n/a
419.5905	0.135	839181	keystroke_l	l	n/a
419.6955	0.105	839391	keystroke_y	y	n/a
419.8455	0.075	839691	keystroke_Key.space	Key.space	n/a
419.9505	0.12	839901	keystroke_f	f	n/a
420.1905	0.09	840381	keystroke_r	r	n/a
420.4605	0.09	840921	keystroke_a	a	n/a
420.6855	0.075	841371	keystroke_g	g	n/a
421.1055	0.06	842211	keystroke_r	r	n/a
421.3005	0.105	842601	keystroke_a	a	n/a
421.6905	0.045	843381	keystroke_n	n	n/a
422.0055	0.075	844011	keystroke_c	c	n/a
422.2305	0.09	844461	keystroke_e	e	n/a
422.7255	0.135	845451	keystroke_Key.enter	Key.enter	n/a
422.87	10.2525	845740	prompt	n/a	telecom xbox attributes example\n
423.521	0.1055	847042	keystroke_t	t	n/a
423.6555	0.105	847311	keystroke_e	e	n/a
423.7755	0.0905	847551	keystroke_l	l	n/a
423.896	0.105	847792	keystroke_e	e	n/a
424.196	0.12	848392	keystroke_c	c	n/a
424.346	0.135	848692	keystroke_o	o	n/a
424.451	0.12	848902	keystroke_m	m	n/a
424.796	0.09	849592	keystroke_Key.space	Key.space	n/a
425.6205	0.105	851241	keystroke_x	x	n/a
425.8605	0.0305	851721	keystroke_b	b	n/a
425.906	0.1345	851812	keystroke_o	o	n/a
426.341	0.09	852682	keystroke_x	x	n/a
426.656	0.12	853312	keystroke_Key.space	Key.space	n/a
426.94	0.135	853880	keystroke_a	a	n/a
427.195	0.09	854390	keystroke_t	t	n/a
427.405	0.105	854810	keystroke_t	t	n/a
427.87	0.1355	855740	keystroke_r	r	n/a
429.4605	0.09	858921	keystroke_i	i	n/a
429.7155	0.06	859431	keystroke_b	b	n/a
429.8665	0.119	859733	keystroke_u	u	n/a
430.541	0.105	861082	keystroke_t	t	n/a
430.676	0.09	861352	keystroke_e	e	n/a
430.886	0.09	861772	keystroke_s	s	n/a
431.036	0.105	862072	keystroke_Key.space	Key.space	n/a
431.321	0.075	862642	keystroke_e	e	n/a
431.516	0.105	863032	keystroke_x	x	n/a
431.651	0.09	863302	keystroke_p	p	n/a
431.966	0.09	863932	keystroke_Key.backspace	Key.backspace	n/a
432.086	0.105	864172	keystroke_a	a	n/a
432.176	0.12	864352	keystroke_m	m	n/a
432.311	0.09	864622	keystroke_p	p	n/a
432.461	0.12	864922	keystroke_l	l	n/a
432.581	0.12	865162	keystroke_e	e	n/a
433.0155	0.105	866031	keystroke_Key.enter	Key.enter	n/a
433.1275	8.366	866255	prompt	n/a	they've employed enjoying imported\n
433.7955	0.09	867591	keystroke_t	t	n/a
433.8705	0.09	867741	keystroke_h	h	n/a
433.9455	0.121	867891	keystroke_e	e	n/a
434.1715	0.044	868343	keystroke_y	y	n/a
434.666	0.104	869332	keystroke_'	'	n/a
434.965	0.09	869930	keystroke_v	v	n/a
435.101	0.134	870202	keystroke_e	e	n/a
435.446	0.119	870892	keystroke_Key.space	Key.space	n/a
435.641	0.105	871282	keystroke_e	e	n/a
435.791	0.15	871582	keystroke_m	m	n/a
435.956	0.104	871912	keystroke_p	p	n/a
436.121	0.134	872242	keystroke_l	l	n/a
436.271	0.045	872542	keystroke_a	a	n/a
436.421	0.09	872842	keystroke_y	y	n/a
436.796	0.045	873592	keystroke_Key.backspace	Key.backspace	n/a
436.915	0.075	873830	keystroke_Key.backspace	Key.backspace	n/a
437.11	0.106	874220	keystroke_o	o	n/a
437.201	0.09	874402	keystroke_y	y	n/a
437.456	0.135	874912	keystroke_e	e	n/a
438.085	0.106	876170	keystroke_d	d	n/a
438.385	0.106	876770	keystroke_Key.space	Key.space	n/a
438.6255	0.105	877251	keystroke_e	e	n/a
438.7315	0.074	877463	keystroke_n	n	n/a
438.9255	0.121	877851	keystroke_j	j	n/a
439.0915	0.105	878183	keystroke_o	o	n/a
439.4505	0.105	878901	keystroke_y	y	n/a
439.5715	0.164	879143	keystroke_i	i	n/a
439.6605	0.106	879321	keystroke_n	n	n/a
439.7215	0.134	879443	keystroke_g	g	n/a
439.9905	0.105	879981	keystroke_Key.space	Key.space	n/a
440.2615	0.059	880523	keystroke_i	i	n/a
440.3355	0.135	880671	keystroke_m	m	n/a
440.5155	0.06	881031	keystroke_p	p	n/a
440.5605	0.165	881121	keystroke_o	o	n/a
440.7405	0.06	881481	keystroke_r	r	n/a
440.9055	0.09	881811	keystroke_t	t	n/a
441.0705	0.09	882141	keystroke_e	e	n/a
441.2655	0.09	882531	keystroke_d	d	n/a
441.3855	0.105	882771	keystroke_Key.enter	Key.enter	n/a
441.5035	5.885	883007	prompt	n/a	hairy startup briefs iowa\n
442.2555	0.105	884511	keystroke_h	h	n/a
442.376	0.09	884752	keystroke_a	a	n/a
442.571	0.104	885142	keystroke_i	i	n/a
442.705	0.12	885410	keystroke_r	r	n/a
442.975	0.091	885950	keystroke_y	y	n/a
443.216	0.119	886432	keystroke_Key.space	Key.space	n/a
443.471	0.104	886942	keystroke_s	s	n/a
443.666	0.089	887332	keystroke_t	t	n/a
443.86	0.09	887720	keystroke_a	a	n/a
443.996	0.075	887992	keystroke_r	r	n/a
444.19	0.09	888380	keystroke_t	t	n/a
444.296	0.12	888592	keystroke_u	u	n/a
444.535	0.091	889070	keystroke_p	p	n/a
444.7	0.121	889400	keystroke_Key.space	Key.space	n/a
444.985	0.09	889970	keystroke_b	b	n/a
445.181	0.105	890362	keystroke_r	r	n/a
445.376	0.12	890752	keystroke_i	i	n/a
445.481	0.105	890962	keystroke_e	e	n/a
445.646	0.105	891292	keystroke_f	f	n/a
445.841	0.135	891682	keystroke_s	s	n/a
446.006	0.09	892012	keystroke_Key.space	Key.space	n/a
446.231	0.09	892462	keystroke_i	i	n/a
446.411	0.105	892822	keystroke_o	o	n/a
446.6055	0.06	893211	keystroke_w	w	n/a
446.7105	0.0605	893421	keystroke_e	e	n/a
447.056	0.0745	894112	keystroke_Key.backspace	Key.backspace	n/a
447.1155	0.105	894231	keystroke_a	a	n/a
447.2655	0.12	894531	keystroke_Key.enter	Key.enter	n/a
447.3935	6.879	894787	prompt	n/a	respondent fonts inches knee\n
448.0155	0.12	896031	keystroke_r	r	n/a
448.1205	0.075	896241	keystroke_e	e	n/a
448.3155	0.09	896631	keystroke_s	s	n/a
448.4805	0.075	896961	keystroke_p	p	n/a
448.5405	0.196	897081	keystroke_o	o	n/a
448.7205	0.105	897441	keystroke_n	n	n/a
448.8405	0.135	897681	keystroke_d	d	n/a
449.5465	0.104	899093	keystroke_e	e	n/a
449.6655	0.09	899331	keystroke_n	n	n/a
449.7405	0.106	899481	keystroke_t	t	n/a
449.8905	0.135	899781	keystroke_Key.space	Key.space	n/a
449.9805	0.15	899961	keystroke_f	f	n/a
450.1605	0.09	900321	keystroke_o	o	n/a
450.3105	0.09	900621	keystroke_n	n	n/a
450.5515	0.0745	901103	keystroke_t	t	n/a
450.791	0.135	901582	keystroke_s	s	n/a
450.941	0.075	901882	keystroke_Key.space	Key.space	n/a
451.2555	0.075	902511	keystroke_i	i	n/a
451.3155	0.105	902631	keystroke_n	n	n/a
451.9305	0.12	903861	keystroke_c	c	n/a
452.381	0.12	904762	keystroke_h	h	n/a
452.486	0.075	904972	keystroke_e	e	n/a
452.636	0.105	905272	keystroke_s	s	n/a
452.771	0.089	905542	keystroke_Key.space	Key.space	n/a
452.936	0.089	905872	keystroke_n	n	n/a
453.25	0.03	906500	keystroke_Key.backspace	Key.backspace	n/a
453.401	0.165	906802	keystroke_k	k	n/a
453.461	0.165	906922	keystroke_n	n	n/a
453.611	0.075	907222	keystroke_e	e	n/a
453.836	0.09	907672	keystroke_e	e	n/a
454.181	0.09	908362	keystroke_Key.enter	Key.enter	n/a
454.278	4.5245	908556	prompt	n/a	may lands closed console\n
454.856	0.105	909712	keystroke_m	m	n/a
455.155	0.091	910310	keystroke_y	y	n/a
455.411	0.06	910822	keystroke_Key.backspace	Key.backspace	n/a
455.486	0.135	910972	keystroke_a	a	n/a
455.636	0.09	911272	keystroke_y	y	n/a
455.801	0.12	911602	keystroke_Key.space	Key.space	n/a
455.95	0.121	911900	keystroke_l	l	n/a
456.176	0.135	912352	keystroke_a	a	n/a
456.296	0.09	912592	keystroke_n	n	n/a
456.401	0.12	912802	keystroke_d	d	n/a
456.626	0.09	913252	keystroke_s	s	n/a
456.776	0.09	913552	keystroke_Key.space	Key.space	n/a
456.986	0.09	913972	keystroke_c	c	n/a
457.061	0.09	914122	keystroke_l	l	n/a
457.226	0.12	914452	keystroke_o	o	n/a
457.301	0.075	914602	keystroke_s	s	n/a
457.436	0.075	914872	keystroke_e	e	n/a
457.601	0.105	915202	keystroke_d	d	n/a
457.676	0.12	915352	keystroke_Key.space	Key.space	n/a
457.841	0.135	915682	keystroke_c	c	n/a
457.961	0.09	915922	keystroke_o	o	n/a
458.021	0.075	916042	keystroke_n	n	n/a
458.126	0.105	916252	keystroke_s	s	n/a
458.276	0.09	916552	keystroke_o	o	n/a
458.426	0.12	916852	keystroke_l	l	n/a
458.516	0.105	917032	keystroke_e	e	n/a
458.681	0.12	917362	keystroke_Key.enter	Key.enter	n/a
458.822	5.8305	917644	prompt	n/a	collar edge asked negotiation\n
459.416	0.105	918832	keystroke_c	c	n/a
459.55	0.046	919100	keystroke_o	o	n/a
459.716	0.09	919432	keystroke_l	l	n/a
459.851	0.105	919702	keystroke_l	l	n/a
460.031	0.06	920062	keystroke_a	a	n/a
460.196	0.0905	920392	keystroke_r	r	n/a
460.3305	0.09	920661	keystroke_Key.space	Key.space	n/a
460.4365	0.119	920873	keystroke_e	e	n/a
460.6755	0.105	921351	keystroke_d	d	n/a
460.8715	0.045	921743	keystroke_g	g	n/a
460.9755	0.15	921951	keystroke_e	e	n/a
461.1265	0.089	922253	keystroke_Key.space	Key.space	n/a
461.2615	0.134	922523	keystroke_a	a	n/a
461.5305	0.06	923061	keystroke_s	s	n/a
461.7115	0.089	923423	keystroke_k	k	n/a
461.8305	0.106	923661	keystroke_e	e	n/a
462.0405	0.105	924081	keystroke_d	d	n/a
462.2055	0.1045	924411	keystroke_Key.space	Key.space	n/a
462.431	0.09	924862	keystroke_n	n	n/a
462.626	0.105	925252	keystroke_e	e	n/a
462.88	0.076	925760	keystroke_g	g	n/a
462.986	0.105	925972	keystroke_o	o	n/a
463.286	0.09	926572	keystroke_t	t	n/a
463.421	0.105	926842	keystroke_i	i	n/a
463.691	0.105	927382	keystroke_a	a	n/a
463.96	0.076	927920	keystroke_t	t	n/a
464.021	0.24	928042	keystroke_i	i	n/a
464.08	0.166	928160	keystroke_o	o	n/a
464.156	0.119	928312	keystroke_n	n	n/a
464.515	0.135	929030	keystroke_Key.enter	Key.enter	n/a
464.659	7.5385	929318	prompt	n/a	settings murphy confidence potato\n
465.206	0.09	930412	keystroke_s	s	n/a
465.505	0.061	931010	keystroke_e	e	n/a
465.655	0.061	931310	keystroke_t	t	n/a
465.79	0.106	931580	keystroke_t	t	n/a
465.881	0.135	931762	keystroke_i	i	n/a
465.956	0.105	931912	keystroke_n	n	n/a
466.03	0.075	932060	keystroke_g	g	n/a
466.256	0.09	932512	keystroke_s	s	n/a
466.33	0.075	932660	keystroke_Key.space	Key.space	n/a
466.525	0.091	933050	keystroke_m	m	n/a
466.75	0.091	933500	keystroke_u	u	n/a
466.9	0.12	933800	keystroke_r	r	n/a
467.14	0.091	934280	keystroke_p	p	n/a
467.275	0.091	934550	keystroke_h	h	n/a
467.441	0.134	934882	keystroke_y	y	n/a
467.621	0.104	935242	keystroke_Key.space	Key.space	n/a
467.876	0.09	935752	keystroke_c	c	n/a
467.921	0.104	935842	keystroke_o	o	n/a
467.981	0.105	935962	keystroke_n	n	n/a
468.146	0.1045	936292	keystroke_f	f	n/a
468.2355	0.105	936471	keystroke_i	i	n/a
468.3855	0.09	936771	keystroke_d	d	n/a
468.5355	0.09	937071	keystroke_n	n	n/a
468.6115	0.1045	937223	keystroke_e	e	n/a
468.8505	0.09	937701	keystroke_c	c	n/a
469.0755	0.09	938151	keystroke_e	e	n/a
469.436	0.09	938872	keystroke_Key.space	Key.space	n/a
469.646	0.075	939292	keystroke_p	p	n/a
469.766	0.135	939532	keystroke_o	o	n/a
469.916	0.09	939832	keystroke_t	t	n/a
470.051	0.045	940102	keystroke_o	o	n/a
470.201	0.06	940402	keystroke_a	a	n/a
470.425	0.061	940850	keystroke_Key.backspace	Key.backspace	n/a
470.561	0.105	941122	keystroke_Key.backspace	Key.backspace	n/a
470.681	0.06	941362	keystroke_a	a	n/a
470.801	0.09	941602	keystroke_t	t	n/a
470.906	0.135	941812	keystroke_o	o	n/a
472.046	0.15	944092	keystroke_Key.enter	Key.enter	n/a
472.2035	9.5495	944407	prompt	n/a	doctors unlimited desktops telecharger\n
472.841	0.12	945682	keystroke_d	d	n/a
472.976	0.12	945952	keystroke_o	o	n/a
473.081	0.105	946162	keystroke_c	c	n/a
473.336	0.06	946672	keystroke_t	t	n/a
473.397	0.089	946794	keystroke_u	u	n/a
473.501	0.105	947002	keystroke_r	r	n/a
473.846	0.075	947692	keystroke_Key.backspace	Key.backspace	n/a
473.981	0.09	947962	keystroke_Key.backspace	Key.backspace	n/a
474.176	0.12	948352	keystroke_o	o	n/a
474.266	0.075	948532	keystroke_r	r	n/a
474.506	0.12	949012	keystroke_s	s	n/a
474.761	0.15	949522	keystroke_Key.space	Key.space	n/a
475.031	0.075	950062	keystroke_u	u	n/a
475.226	0.075	950452	keystroke_n	n	n/a
475.361	0.105	950722	keystroke_l	l	n/a
475.751	0.105	951502	keystroke_i	i	n/a
475.901	0.12	951802	keystroke_m	m	n/a
476.036	0.12	952072	keystroke_i	i	n/a
476.141	0.09	952282	keystroke_t	t	n/a
476.321	0.075	952642	keystroke_e	e	n/a
476.531	0.105	953062	keystroke_d	d	n/a
476.651	0.09	953302	keystroke_Key.space	Key.space	n/a
476.921	0.105	953842	keystroke_d	d	n/a
477.086	0.09	954172	keystroke_e	e	n/a
477.266	0.09	954532	keystroke_s	s	n/a
477.581	0.105	955162	keystroke_k	k	n/a
477.806	0.105	955612	keystroke_t	t	n/a
477.881	0.24	955762	keystroke_o	o	n/a
478.031	0.12	956062	keystroke_p	p	n/a
478.196	0.105	956392	keystroke_s	s	n/a
478.376	0.105	956752	keystroke_Key.space	Key.space	n/a
478.676	0.03	957352	keystroke_t	t	n/a
478.766	0.09	957532	keystroke_e	e	n/a
478.916	0.15	957832	keystroke_l	l	n/a
479.051	0.09	958102	keystroke_e	e	n/a
479.381	0.105	958762	keystroke_c	c	n/a
480.251	0.105	960502	keystroke_h	h	n/a
480.761	0.105	961522	keystroke_a	a	n/a
480.956	0.045	961912	keystroke_r	r	n/a
481.106	0.045	962212	keystroke_g	g	n/a
481.301	0.18	962602	keystroke_e	e	n/a
481.406	0.105	962812	keystroke_r	r	n/a
481.631	0.12	963262	keystroke_Key.enter	Key.enter	n/a
481.758	10.57	963516	prompt	n/a	bangladesh maple pressure legend\n
482.3805	0.09	964761	keystroke_b	b	n/a
482.5165	0.12	965033	keystroke_a	a	n/a
482.7115	0.105	965423	keystroke_n	n	n/a
482.9055	0.09	965811	keystroke_g	g	n/a
483.0415	0.12	966083	keystroke_l	l	n/a
483.2205	0.135	966441	keystroke_a	a	n/a
483.3705	0.075	966741	keystroke_s	s	n/a
483.7455	0.06	967491	keystroke_Key.backspace	Key.backspace	n/a
484.766	0.134	969532	keystroke_d	d	n/a
485.081	0.06	970162	keystroke_e	e	n/a
485.231	0.09	970462	keystroke_s	s	n/a
485.351	0.09	970702	keystroke_h	h	n/a
485.456	0.075	970912	keystroke_Key.space	Key.space	n/a
485.636	0.105	971272	keystroke_m	m	n/a
485.756	0.0905	971512	keystroke_a	a	n/a
485.8315	0.075	971663	keystroke_p	p	n/a
486.1005	0.03	972201	keystroke_l	l	n/a
486.1165	0.12	972233	keystroke_e	e	n/a
487.0155	0.09	974031	keystroke_Key.space	Key.space	n/a
487.2565	0.089	974513	keystroke_p	p	n/a
487.3915	0.105	974783	keystroke_r	r	n/a
487.4805	0.09	974961	keystroke_e	e	n/a
487.6465	0.06	975293	keystroke_s	s	n/a
487.7955	0.105	975591	keystroke_s	s	n/a
488.0215	0.104	976043	keystroke_u	u	n/a
488.1115	0.105	976223	keystroke_r	r	n/a
488.3505	0.091	976701	keystroke_Key.space	Key.space	n/a
488.5305	0.12	977061	keystroke_l	l	n/a
488.9505	0.091	977901	keystroke_e	e	n/a
489.1615	0.089	978323	keystroke_d	d	n/a
489.2955	0.076	978591	keystroke_u	u	n/a
489.4165	0.105	978833	keystroke_e	e	n/a
489.5065	0.119	979013	keystroke_n	n	n/a
489.8365	0.059	979673	keystroke_Key.backspace	Key.backspace	n/a
489.9705	0.06	979941	keystroke_Key.backspace	Key.backspace	n/a
490.0905	0.075	980181	keystroke_Key.backspace	Key.backspace	n/a
490.2255	0.105	980451	keystroke_Key.backspace	Key.backspace	n/a
490.3465	0.089	980693	keystroke_g	g	n/a
490.5565	0.089	981113	keystroke_n	n	n/a
490.6615	0.105	981323	keystroke_e	e	n/a
491.141	0.045	982282	keystroke_Key.backspace	Key.backspace	n/a
491.276	0.045	982552	keystroke_Key.backspace	Key.backspace	n/a
491.351	0.1195	982702	keystroke_e	e	n/a
491.4555	0.105	982911	keystroke_n	n	n/a
491.6055	0.135	983211	keystroke_d	d	n/a
492.2355	0.0905	984471	keystroke_Key.enter	Key.enter	n/a
492.334	6.7745	984668	prompt	n/a	lasting driver activated merchants\n
492.986	0.135	985972	keystroke_l	l	n/a
493.106	0.12	986212	keystroke_a	a	n/a
493.346	0.015	986692	keystroke_t	t	n/a
493.616	0.06	987232	keystroke_Key.backspace	Key.backspace	n/a
493.677	0.089	987354	keystroke_s	s	n/a
493.826	0.06	987652	keystroke_t	t	n/a
493.871	0.135	987742	keystroke_i	i	n/a
493.946	0.12	987892	keystroke_n	n	n/a
494.051	0.135	988102	keystroke_g	g	n/a
494.201	0.09	988402	keystroke_Key.space	Key.space	n/a
494.396	0.09	988792	keystroke_d	d	n/a
494.561	0.09	989122	keystroke_r	r	n/a
494.711	0.135	989422	keystroke_i	i	n/a
494.831	0.105	989662	keystroke_v	v	n/a
495.191	0.121	990382	keystroke_e	e	n/a
495.296	0.105	990592	keystroke_r	r	n/a
495.4755	0.09	990951	keystroke_Key.space	Key.space	n/a
495.6415	0.134	991283	keystroke_a	a	n/a
495.8205	0.105	991641	keystroke_c	c	n/a
496.0455	0.09	992091	keystroke_t	t	n/a
496.1665	0.104	992333	keystroke_i	i	n/a
496.2565	0.104	992513	keystroke_v	v	n/a
496.406	0.0895	992812	keystroke_a	a	n/a
496.5555	0.105	993111	keystroke_t	t	n/a
496.7205	0.09	993441	keystroke_e	e	n/a
496.9615	0.135	993923	keystroke_d	d	n/a
497.1105	0.1205	994221	keystroke_Key.space	Key.space	n/a
497.276	0.12	994552	keystroke_m	m	n/a
497.456	0.105	994912	keystroke_e	e	n/a
497.636	0.105	995272	keystroke_r	r	n/a
497.891	0.09	995782	keystroke_c	c	n/a
498.026	0.105	996052	keystroke_h	h	n/a
498.206	0.09	996412	keystroke_a	a	n/a
498.356	0.1055	996712	keystroke_n	n	n/a
498.625	0.076	997250	keystroke_t	t	n/a
498.821	0.075	997642	keystroke_s	s	n/a
498.986	0.12	997972	keystroke_Key.enter	Key.enter	n/a
499.113	6.971	998226	prompt	n/a	flux nails oaks dried\n
499.5865	0.104	999173	keystroke_l	l	n/a
499.9305	0.091	999861	keystroke_u	u	n/a
500.0655	0.076	1000131	keystroke_x	x	n/a
500.935	0.045	1001870	keystroke_Key.backspace	Key.backspace	n/a
501.04	0.06	1002080	keystroke_Key.backspace	Key.backspace	n/a
501.16	0.076	1002320	keystroke_Key.backspace	Key.backspace	n/a
501.267	0.074	1002534	keystroke_f	f	n/a
501.371	0.12	1002742	keystroke_l	l	n/a
501.596	0.104	1003192	keystroke_u	u	n/a
501.716	0.104	1003432	keystroke_x	x	n/a
502.046	0.119	1004092	keystroke_Key.space	Key.space	n/a
502.331	0.015	1004662	keystroke_m	m	n/a
502.451	0.06	1004902	keystroke_n	n	n/a
502.675	0.045	1005350	keystroke_Key.backspace	Key.backspace	n/a
502.766	0.089	1005532	keystroke_Key.backspace	Key.backspace	n/a
503.171	0.074	1006342	keystroke_n	n	n/a
503.366	0.12	1006732	keystroke_a	a	n/a
503.5	0.091	1007000	keystroke_i	i	n/a
503.621	0.12	1007242	keystroke_l	l	n/a
503.786	0.12	1007572	keystroke_s	s	n/a
503.95	0.091	1007900	keystroke_Key.space	Key.space	n/a
504.176	0.09	1008352	keystroke_o	o	n/a
504.386	0.135	1008772	keystroke_a	a	n/a
504.595	0.091	1009190	keystroke_k	k	n/a
504.746	0.09	1009492	keystroke_s	s	n/a
504.941	0.104	1009882	keystroke_Key.space	Key.space	n/a
505.241	0.12	1010482	keystroke_d	d	n/a
505.421	0.105	1010842	keystroke_r	r	n/a
505.556	0.135	1011112	keystroke_i	i	n/a
505.631	0.105	1011262	keystroke_e	e	n/a
505.841	0.09	1011682	keystroke_d	d	n/a
505.945	0.136	1011890	keystroke_Key.enter	Key.enter	n/a
506.0905	15.6225	1012181	prompt	n/a	separated unions purposes paragraphs\n
506.725	0.076	1013450	keystroke_s	s	n/a
506.996	0.015	1013992	keystroke_e	e	n/a
507.131	0.105	1014262	keystroke_a	a	n/a
507.475	0.0605	1014950	keystroke_Key.backspace	Key.backspace	n/a
507.6555	0.105	1015311	keystroke_p	p	n/a
507.7905	0.075	1015581	keystroke_a	a	n/a
507.9705	0.075	1015941	keystroke_r	r	n/a
508.1205	0.121	1016241	keystroke_a	a	n/a
508.2855	0.1055	1016571	keystroke_t	t	n/a
508.436	0.105	1016872	keystroke_e	e	n/a
508.661	0.089	1017322	keystroke_d	d	n/a
508.765	0.09	1017530	keystroke_Key.space	Key.space	n/a
508.886	0.075	1017772	keystroke_u	u	n/a
509.081	0.119	1018162	keystroke_n	n	n/a
509.186	0.089	1018372	keystroke_i	i	n/a
509.276	0.09	1018552	keystroke_t	t	n/a
509.41	0.165	1018820	keystroke_o	o	n/a
509.501	0.135	1019002	keystroke_n	n	n/a
510.0555	0.06	1020111	keystroke_Key.backspace	Key.backspace	n/a
510.1755	0.075	1020351	keystroke_Key.backspace	Key.backspace	n/a
510.3105	0.105	1020621	keystroke_Key.backspace	Key.backspace	n/a
510.5365	0.134	1021073	keystroke_o	o	n/a
510.6415	0.119	1021283	keystroke_n	n	n/a
510.8815	0.105	1021763	keystroke_s	s	n/a
511.3455	0.105	1022691	keystroke_Key.space	Key.space	n/a
511.5415	0.12	1023083	keystroke_p	p	n/a
511.6915	0.044	1023383	keystroke_e	e	n/a
511.9765	0.074	1023953	keystroke_r	r	n/a
512.1705	0.075	1024341	keystroke_Key.backspace	Key.backspace	n/a
512.2605	0.105	1024521	keystroke_Key.backspace	Key.backspace	n/a
512.4405	0.106	1024881	keystroke_Key.backspace	Key.backspace	n/a
512.8755	0.075	1025751	keystroke_p	p	n/a
513.0255	0.075	1026051	keystroke_u	u	n/a
513.1455	0.105	1026291	keystroke_r	r	n/a
513.3115	0.06	1026623	keystroke_o	o	n/a
