onset	duration	sample	value	key	prompt_text
7.0185	11.8805	14037	prompt	n/a	the quick brown fox jumps over a lazy dog\n
8.6085	0.012	17217	keystroke_t	t	n/a
8.9805	0.105	17961	keystroke_h	h	n/a
9.0405	0.091	18081	keystroke_e	e	n/a
9.2665	0.104	18533	keystroke_Key.space	Key.space	n/a
10.106	0.105	20212	keystroke_q	q	n/a
10.286	0.15	20572	keystroke_y	y	n/a
10.676	0.105	21352	keystroke_Key.backspace	Key.backspace	n/a
11.786	0.21	23572	keystroke_u	u	n/a
11.891	0.18	23782	keystroke_i	i	n/a
12.161	0.075	24322	keystroke_c	c	n/a
12.251	0.105	24502	keystroke_k	k	n/a
12.4305	0.09	24861	keystroke_Key.space	Key.space	n/a
12.5955	0.06	25191	keystroke_b	b	n/a
12.6855	0.09	25371	keystroke_r	r	n/a
12.7905	0.075	25581	keystroke_o	o	n/a
12.9105	0.105	25821	keystroke_w	w	n/a
13.0305	0.075	26061	keystroke_n	n	n/a
13.2105	0.09	26421	keystroke_Key.space	Key.space	n/a
14.156	0.075	28312	keystroke_f	f	n/a
14.321	0.075	28642	keystroke_o	o	n/a
14.531	0.105	29062	keystroke_x	x	n/a
14.621	0.0605	29242	keystroke_Key.space	Key.space	n/a
14.8315	0.06	29663	keystroke_j	j	n/a
14.9665	0.075	29933	keystroke_u	u	n/a
15.1615	0.06	30323	keystroke_m	m	n/a
15.3415	0.06	30683	keystroke_p	p	n/a
15.941	0.105	31882	keystroke_s	s	n/a
16.061	0.075	32122	keystroke_Key.space	Key.space	n/a
16.271	0.1505	32542	keystroke_o	o	n/a
16.4965	0.105	32993	keystroke_v	v	n/a
16.6465	0.12	33293	keystroke_e	e	n/a
16.7365	0.075	33473	keystroke_r	r	n/a
16.7965	0.09	33593	keystroke_Key.space	Key.space	n/a
16.9465	0.09	33893	keystroke_a	a	n/a
17.0665	0.075	34133	keystroke_Key.space	Key.space	n/a
17.2765	0.105	34553	keystroke_l	l	n/a
17.3505	0.061	34701	keystroke_a	a	n/a
17.5465	0.1045	35093	keystroke_z	z	n/a
17.651	0.06	35302	keystroke_y	y	n/a
17.831	0.0905	35662	keystroke_Key.space	Key.space	n/a
17.9365	0.06	35873	keystroke_d	d	n/a
18.1315	0.09	36263	keystroke_o	o	n/a
18.4165	0.105	36833	keystroke_g	g	n/a
18.806	0.09	37612	keystroke_Key.enter	Key.enter	n/a
18.903	6.835	37806	prompt	n/a	foundation sharp brazil trash\n
19.871	0.105	39742	keystroke_f	f	n/a
20.426	0.105	40852	keystroke_o	o	n/a
20.591	0.075	41182	keystroke_u	u	n/a
20.786	0.105	41572	keystroke_n	n	n/a
20.831	0.075	41662	keystroke_d	d	n/a
20.951	0.09	41902	keystroke_a	a	n/a
21.176	0.06	42352	keystroke_t	t	n/a
21.191	0.1205	42382	keystroke_i	i	n/a
21.2505	0.076	42501	keystroke_o	o	n/a
21.4765	0.075	42953	keystroke_n	n	n/a
21.6415	0.09	43283	keystroke_Key.space	Key.space	n/a
21.761	0.105	43522	keystroke_s	s	n/a
21.881	0.105	43762	keystroke_h	h	n/a
21.987	0.059	43974	keystroke_a	a	n/a
22.166	0.075	44332	keystroke_r	r	n/a
22.271	0.12	44542	keystroke_p	p	n/a
22.556	0.09	45112	keystroke_Key.space	Key.space	n/a
23.021	0.09	46042	keystroke_b	b	n/a
23.126	0.09	46252	keystroke_r	r	n/a
23.321	0.105	46642	keystroke_a	a	n/a
23.576	0.09	47152	keystroke_z	z	n/a
23.681	0.09	47362	keystroke_i	i	n/a
23.8755	0.0755	47751	keystroke_l	l	n/a
24.0705	0.105	48141	keystroke_Key.space	Key.space	n/a
24.7765	0.075	49553	keystroke_t	t	n/a
24.9565	0.075	49913	keystroke_r	r	n/a
25.1215	0.135	50243	keystroke_a	a	n/a
25.2115	0.12	50423	keystroke_s	s	n/a
25.3465	0.075	50693	keystroke_h	h	n/a
25.5865	0.15	51173	keystroke_Key.enter	Key.enter	n/a
25.7415	10.5865	51483	prompt	n/a	consciousness raising toronto sigma\n
26.712	0.119	53424	keystroke_c	c	n/a
27.401	0.075	54802	keystroke_o	o	n/a
27.656	0.1355	55312	keystroke_n	n	n/a
28.0465	0.12	56093	keystroke_s	s	n/a
28.4215	0.075	56843	keystroke_c	c	n/a
28.601	0.15	57202	keystroke_i	i	n/a
28.691	0.12	57382	keystroke_o	o	n/a
28.871	0.15	57742	keystroke_u	u	n/a
29.006	0.15	58012	keystroke_s	s	n/a
29.396	0.105	58792	keystroke_n	n	n/a
29.486	0.105	58972	keystroke_e	e	n/a
29.726	0.06	59452	keystroke_s	s	n/a
29.906	0.09	59812	keystroke_s	s	n/a
30.161	0.12	60322	keystroke_Key.space	Key.space	n/a
30.671	0.09	61342	keystroke_r	r	n/a
30.866	0.105	61732	keystroke_a	a	n/a
31.001	0.105	62002	keystroke_i	i	n/a
31.181	0.09	62362	keystroke_s	s	n/a
31.2865	0.09	62573	keystroke_i	i	n/a
31.3615	0.135	62723	keystroke_n	n	n/a
31.5115	0.075	63023	keystroke_g	g	n/a
31.6465	0.12	63293	keystroke_Key.space	Key.space	n/a
32.3215	0.09	64643	keystroke_t	t	n/a
32.5315	0.105	65063	keystroke_o	o	n/a
32.6515	0.09	65303	keystroke_r	r	n/a
32.8765	0.09	65753	keystroke_o	o	n/a
33.0865	0.105	66173	keystroke_n	n	n/a
33.2065	0.075	66413	keystroke_t	t	n/a
33.3265	0.075	66653	keystroke_o	o	n/a
33.5065	0.12	67013	keystroke_Key.space	Key.space	n/a
35.2615	0.12	70523	keystroke_s	s	n/a
35.4265	0.105	70853	keystroke_i	i	n/a
35.6665	0.06	71333	keystroke_g	g	n/a
35.7415	0.105	71483	keystroke_m	m	n/a
36.0115	0.12	72023	keystroke_a	a	n/a
36.1915	0.1345	72383	keystroke_Key.enter	Key.enter	n/a
36.3325	9.2505	72665	prompt	n/a	warm controversy being alias\n
37.1065	0.105	74213	keystroke_w	w	n/a
37.3315	0.06	74663	keystroke_a	a	n/a
37.5115	0.09	75023	keystroke_r	r	n/a
37.6015	0.075	75203	keystroke_m	m	n/a
37.8415	0.135	75683	keystroke_Key.space	Key.space	n/a
38.2165	0.105	76433	keystroke_c	c	n/a
38.8465	0.09	77693	keystroke_o	o	n/a
39.0265	0.15	78053	keystroke_n	n	n/a
39.1615	0.09	78323	keystroke_t	t	n/a
39.3565	0.075	78713	keystroke_r	r	n/a
39.476	0.12	78952	keystroke_o	o	n/a
39.611	0.135	79222	keystroke_v	v	n/a
39.8515	0.12	79703	keystroke_e	e	n/a
39.9415	0.09	79883	keystroke_r	r	n/a
40.1215	0.105	80243	keystroke_s	s	n/a
40.2715	0.1045	80543	keystroke_y	y	n/a
40.511	0.09	81022	keystroke_Key.space	Key.space	n/a
41.786	0.1055	83572	keystroke_b	b	n/a
41.9065	0.06	83813	keystroke_e	e	n/a
42.0265	0.105	84053	keystroke_i	i	n/a
42.1165	0.135	84233	keystroke_n	n	n/a
42.266	0.105	84532	keystroke_g	g	n/a
42.401	0.105	84802	keystroke_Key.space	Key.space	n/a
42.7155	0.1065	85431	keystroke_a	a	n/a
42.837	0.165	85674	keystroke_l	l	n/a
43.347	0.104	86694	keystroke_Key.backspace	Key.backspace	n/a
44.7565	0.105	89513	keystroke_l	l	n/a
44.8765	0.105	89753	keystroke_i	i	n/a
44.9965	0.12	89993	keystroke_a	a	n/a
45.0865	0.12	90173	keystroke_s	s	n/a
45.447	0.135	90894	keystroke_Key.enter	Key.enter	n/a
45.5875	6.8205	91175	prompt	n/a	excitement milan belief accepts\n
46.286	0.105	92572	keystroke_e	e	n/a
46.527	0.089	93054	keystroke_x	x	n/a
47.081	0.09	94162	keystroke_c	c	n/a
47.277	0.105	94554	keystroke_i	i	n/a
47.367	0.105	94734	keystroke_t	t	n/a
47.516	0.091	95032	keystroke_e	e	n/a
47.591	0.106	95182	keystroke_m	m	n/a
47.742	0.105	95484	keystroke_e	e	n/a
47.862	0.075	95724	keystroke_n	n	n/a
47.937	0.105	95874	keystroke_t	t	n/a
48.071	0.075	96142	keystroke_Key.space	Key.space	n/a
48.266	0.09	96532	keystroke_m	m	n/a
48.341	0.121	96682	keystroke_i	i	n/a
48.566	0.09	97132	keystroke_l	l	n/a
48.702	0.104	97404	keystroke_a	a	n/a
48.821	0.06	97642	keystroke_n	n	n/a
48.986	0.0755	97972	keystroke_Key.space	Key.space	n/a
49.1665	0.09	98333	keystroke_b	b	n/a
49.3015	0.06	98603	keystroke_e	e	n/a
49.3915	0.12	98783	keystroke_l	l	n/a
49.4665	0.135	98933	keystroke_i	i	n/a
49.5415	0.075	99083	keystroke_e	e	n/a
49.7515	0.09	99503	keystroke_f	f	n/a
49.9465	0.12	99893	keystroke_Key.space	Key.space	n/a
50.786	0.12	101572	keystroke_a	a	n/a
51.071	0.075	102142	keystroke_c	c	n/a
51.251	0.09	102502	keystroke_c	c	n/a
51.356	0.165	102712	keystroke_e	e	n/a
51.716	0.165	103432	keystroke_p	p	n/a
51.851	0.105	103702	keystroke_t	t	n/a
52.031	0.105	104062	keystroke_s	s	n/a
52.211	0.195	104422	keystroke_Key.enter	Key.enter	n/a
52.4115	5.1265	104823	prompt	n/a	mouth casual whose milk\n
53.3665	0.09	106733	keystroke_m	m	n/a
53.5465	0.105	107093	keystroke_o	o	n/a
53.6365	0.105	107273	keystroke_u	u	n/a
53.7865	0.105	107573	keystroke_t	t	n/a
53.9215	0.075	107843	keystroke_h	h	n/a
54.1315	0.105	108263	keystroke_Key.space	Key.space	n/a
54.3715	0.1045	108743	keystroke_c	c	n/a
54.626	0.1205	109252	keystroke_a	a	n/a
54.747	0.089	109494	keystroke_s	s	n/a
54.881	0.105	109762	keystroke_u	u	n/a
55.016	0.105	110032	keystroke_a	a	n/a
55.196	0.075	110392	keystroke_l	l	n/a
55.436	0.09	110872	keystroke_Key.space	Key.space	n/a
55.616	0.105	111232	keystroke_w	w	n/a
55.7065	0.0745	111413	keystroke_h	h	n/a
55.856	0.09	111712	keystroke_o	o	n/a
55.916	0.075	111832	keystroke_s	s	n/a
56.051	0.09	112102	keystroke_e	e	n/a
56.411	0.06	112822	keystroke_Key.space	Key.space	n/a
56.606	0.105	113212	keystroke_m	m	n/a
56.831	0.12	113662	keystroke_i	i	n/a
57.011	0.18	114022	keystroke_l	l	n/a
57.146	0.135	114292	keystroke_k	k	n/a
57.401	0.135	114802	keystroke_Key.enter	Key.enter	n/a
57.546	6.4575	115092	prompt	n/a	asin null arrival normally\n
58.1965	0.135	116393	keystroke_a	a	n/a
58.2565	0.135	116513	keystroke_s	s	n/a
58.4515	0.09	116903	keystroke_i	i	n/a
58.6015	0.09	117203	keystroke_n	n	n/a
58.7965	0.075	117593	keystroke_Key.space	Key.space	n/a
58.9765	0.135	117953	keystroke_n	n	n/a
59.0965	0.105	118193	keystroke_u	u	n/a
60.1315	0.09	120263	keystroke_l	l	n/a
60.3565	0.075	120713	keystroke_l	l	n/a
60.5815	0.12	121163	keystroke_Key.space	Key.space	n/a
60.8065	0.15	121613	keystroke_a	a	n/a
61.3015	0.015	122603	keystroke_r	r	n/a
61.4365	0.105	122873	keystroke_r	r	n/a
61.6165	0.12	123233	keystroke_i	i	n/a
61.7215	0.09	123443	keystroke_v	v	n/a
61.9465	0.12	123893	keystroke_a	a	n/a
62.0515	0.09	124103	keystroke_l	l	n/a
62.3065	0.075	124613	keystroke_Key.space	Key.space	n/a
62.5165	0.06	125033	keystroke_n	n	n/a
62.6665	0.105	125333	keystroke_o	o	n/a
62.7725	0.089	125545	keystroke_r	r	n/a
62.8315	0.135	125663	keystroke_m	m	n/a
63.0415	0.12	126083	keystroke_a	a	n/a
63.1765	0.09	126353	keystroke_l	l	n/a
63.3415	0.135	126683	keystroke_l	l	n/a
63.4015	0.135	126803	keystroke_y	y	n/a
63.866	0.1355	127732	keystroke_Key.enter	Key.enter	n/a
64.0085	6.64	128017	prompt	n/a	terrorism newspapers up criminal\n
64.706	0.0905	129412	keystroke_t	t	n/a
64.8715	0.12	129743	keystroke_e	e	n/a
64.9765	0.075	129953	keystroke_r	r	n/a
65.1565	0.09	130313	keystroke_r	r	n/a
65.2765	0.105	130553	keystroke_o	o	n/a
65.3965	0.075	130793	keystroke_r	r	n/a
65.5165	0.075	131033	keystroke_i	i	n/a
65.6065	0.12	131213	keystroke_s	s	n/a
65.7715	0.075	131543	keystroke_m	m	n/a
65.981	0.076	131962	keystroke_Key.space	Key.space	n/a
66.147	0.12	132294	keystroke_n	n	n/a
66.237	0.1345	132474	keystroke_e	e	n/a
66.2965	0.09	132593	keystroke_w	w	n/a
66.507	0.09	133014	keystroke_s	s	n/a
66.627	0.1045	133254	keystroke_p	p	n/a
66.7325	0.089	133465	keystroke_a	a	n/a
66.8665	0.1045	133733	keystroke_p	p	n/a
67.031	0.09	134062	keystroke_e	e	n/a
67.226	0.136	134452	keystroke_r	r	n/a
67.346	0.121	134692	keystroke_s	s	n/a
67.452	0.104	134904	keystroke_Key.space	Key.space	n/a
67.796	0.061	135592	keystroke_u	u	n/a
67.947	0.104	135894	keystroke_p	p	n/a
68.1715	0.105	136343	keystroke_Key.space	Key.space	n/a
68.2615	0.06	136523	keystroke_c	c	n/a
68.4265	0.105	136853	keystroke_r	r	n/a
68.5465	0.15	137093	keystroke_i	i	n/a
68.6065	0.135	137213	keystroke_m	m	n/a
68.8615	0.12	137723	keystroke_n	n	n/a
69.3265	0.09	138653	keystroke_Key.backspace	Key.backspace	n/a
69.6715	0.12	139343	keystroke_i	i	n/a
69.896	0.09	139792	keystroke_n	n	n/a
70.016	0.105	140032	keystroke_a	a	n/a
70.136	0.105	140272	keystroke_l	l	n/a
70.557	0.09	141114	keystroke_Key.enter	Key.enter	n/a
70.652	11.6065	141304	prompt	n/a	feeding causes completing occupational\n
71.457	0.12	142914	keystroke_f	f	n/a
71.607	0.09	143214	keystroke_e	e	n/a
71.802	0.0895	143604	keystroke_e	e	n/a
71.9815	0.105	143963	keystroke_d	d	n/a
72.0715	0.0755	144143	keystroke_i	i	n/a
72.132	0.12	144264	keystroke_n	n	n/a
72.267	0.1195	144534	keystroke_g	g	n/a
72.4165	0.12	144833	keystroke_Key.space	Key.space	n/a
72.5215	0.09	145043	keystroke_c	c	n/a
72.7465	0.075	145493	keystroke_a	a	n/a
72.8365	0.105	145673	keystroke_u	u	n/a
72.9565	0.09	145913	keystroke_s	s	n/a
73.0915	0.09	146183	keystroke_e	e	n/a
73.2865	0.09	146573	keystroke_s	s	n/a
73.3915	0.105	146783	keystroke_Key.space	Key.space	n/a
73.6165	0.12	147233	keystroke_c	c	n/a
73.7215	0.105	147443	keystroke_o	o	n/a
73.8415	0.1345	147683	keystroke_m	m	n/a
74.081	0.075	148162	keystroke_p	p	n/a
74.276	0.135	148552	keystroke_l	l	n/a
74.351	0.061	148702	keystroke_e	e	n/a
74.576	0.075	149152	keystroke_t	t	n/a
74.637	0.105	149274	keystroke_i	i	n/a
74.726	0.1055	149452	keystroke_n	n	n/a
74.8465	0.09	149693	keystroke_g	g	n/a
74.9665	0.105	149933	keystroke_Key.space	Key.space	n/a
75.7015	0.105	151403	keystroke_o	o	n/a
75.8065	0.015	151613	keystroke_c	c	n/a
75.926	0.09	151852	keystroke_c	c	n/a
76.031	0.105	152062	keystroke_u	u	n/a
76.241	0.1205	152482	keystroke_p	p	n/a
76.3765	0.09	152753	keystroke_t	t	n/a
76.6015	0.09	153203	keystroke_a	a	n/a
76.7515	0.12	153503	keystroke_i	i	n/a
76.7965	0.09	153593	keystroke_o	o	n/a
76.9915	0.105	153983	keystroke_n	n	n/a
77.0815	0.12	154163	keystroke_a	a	n/a
77.2165	0.06	154433	keystroke_l	l	n/a
77.6065	0.1055	155213	keystroke_Key.space	Key.space	n/a
78.117	0.12	156234	keystroke_Key.backspace	Key.backspace	n/a
78.432	0.045	156864	keystroke_Key.backspace	Key.backspace	n/a
78.612	0.03	157224	keystroke_Key.backspace	Key.backspace	n/a
78.762	0.06	157524	keystroke_Key.backspace	Key.backspace	n/a
78.941	0.061	157882	keystroke_Key.backspace	Key.backspace	n/a
79.122	0.075	158244	keystroke_Key.backspace	Key.backspace	n/a
79.302	0.06	158604	keystroke_Key.backspace	Key.backspace	n/a
79.482	0.059	158964	keystroke_Key.backspace	Key.backspace	n/a
79.661	0.075	159322	keystroke_Key.backspace	Key.backspace	n/a
80.832	0.12	161664	keystroke_p	p	n/a
80.966	0.106	161932	keystroke_a	a	n/a
81.207	0.09	162414	keystroke_t	t	n/a
81.282	0.12	162564	keystroke_i	i	n/a
81.342	0.075	162684	keystroke_o	o	n/a
81.522	0.09	163044	keystroke_n	n	n/a
81.627	0.1195	163254	keystroke_a	a	n/a
81.7615	0.1055	163523	keystroke_l	l	n/a
82.181	0.075	164362	keystroke_Key.enter	Key.enter	n/a
82.2695	8.4035	164539	prompt	n/a	artificial eminem municipality train\n
82.992	0.105	165984	keystroke_a	a	n/a
83.216	0.105	166432	keystroke_r	r	n/a
83.441	0.09	166882	keystroke_t	t	n/a
83.532	0.104	167064	keystroke_i	i	n/a
83.681	0.121	167362	keystroke_f	f	n/a
83.832	0.134	167664	keystroke_i	i	n/a
83.892	0.0895	167784	keystroke_c	c	n/a
84.0865	0.09	168173	keystroke_a	a	n/a
84.1915	0.075	168383	keystroke_l	l	n/a
84.4015	0.09	168803	keystroke_Key.space	Key.space	n/a
84.5365	0.105	169073	keystroke_e	e	n/a
84.6565	0.105	169313	keystroke_m	m	n/a
84.7615	0.09	169523	keystroke_i	i	n/a
84.9415	0.12	169883	keystroke_n	n	n/a
85.1215	0.12	170243	keystroke_e	e	n/a
85.2715	0.12	170543	keystroke_m	m	n/a
85.5865	0.105	171173	keystroke_Key.space	Key.space	n/a
87.297	0.149	174594	keystroke_m	m	n/a
87.596	0.1805	175192	keystroke_u	u	n/a
87.7915	0.105	175583	keystroke_n	n	n/a
88.0165	0.12	176033	keystroke_i	i	n/a
88.1815	0.105	176363	keystroke_c	c	n/a
88.272	0.0965	176544	keystroke_i	i	n/a
88.4965	0.1195	176993	keystroke_p	p	n/a
88.691	0.12	177382	keystroke_a	a	n/a
88.841	0.18	177682	keystroke_l	l	n/a
89.006	0.12	178012	keystroke_i	i	n/a
89.111	0.105	178222	keystroke_t	t	n/a
89.291	0.09	178582	keystroke_y	y	n/a
89.501	0.12	179002	keystroke_Key.space	Key.space	n/a
89.636	0.09	179272	keystroke_t	t	n/a
89.846	0.0905	179692	keystroke_r	r	n/a
90.0415	0.12	180083	keystroke_a	a	n/a
90.1315	0.075	180263	keystroke_i	i	n/a
90.1765	0.15	180353	keystroke_n	n	n/a
90.5665	0.105	181133	keystroke_Key.enter	Key.enter	n/a
90.6755	8.683	181351	prompt	n/a	you'd requirements groove calculator\n
91.451	0.09	182902	keystroke_y	y	n/a
91.631	0.105	183262	keystroke_o	o	n/a
91.676	0.1055	183352	keystroke_u	u	n/a
92.3965	0.075	184793	keystroke_'	'	n/a
92.5915	0.105	185183	keystroke_d	d	n/a
92.8315	0.12	185663	keystroke_Key.space	Key.space	n/a
93.5065	0.09	187013	keystroke_r	r	n/a
93.7165	0.105	187433	keystroke_e	e	n/a
93.8815	0.1045	187763	keystroke_q	q	n/a
94.001	0.12	188002	keystroke_u	u	n/a
94.077	0.119	188154	keystroke_i	i	n/a
94.197	0.1345	188394	keystroke_r	r	n/a
94.2715	0.12	188543	keystroke_e	e	n/a
94.3765	0.12	188753	keystroke_m	m	n/a
94.5115	0.12	189023	keystroke_e	e	n/a
94.6465	0.075	189293	keystroke_n	n	n/a
94.7365	0.075	189473	keystroke_t	t	n/a
94.8565	0.105	189713	keystroke_Key.space	Key.space	n/a
95.247	0.09	190494	keystroke_g	g	n/a
95.757	0.045	191514	keystroke_r	r	n/a
95.847	0.0595	191694	keystroke_o	o	n/a
96.0265	0.105	192053	keystroke_o	o	n/a
96.1615	0.105	192323	keystroke_v	v	n/a
96.326	0.105	192652	keystroke_e	e	n/a
96.4465	0.12	192893	keystroke_Key.space	Key.space	n/a
96.5815	0.1045	193163	keystroke_c	c	n/a
96.837	0.12	193674	keystroke_a	a	n/a
97.617	0.12	195234	keystroke_l	l	n/a
98.1565	0.105	196313	keystroke_c	c	n/a
98.2765	0.1045	196553	keystroke_u	u	n/a
98.471	0.135	196942	keystroke_l	l	n/a
98.546	0.075	197092	keystroke_a	a	n/a
98.726	0.09	197452	keystroke_t	t	n/a
98.831	0.091	197662	keystroke_o	o	n/a
98.951	0.09	197902	keystroke_r	r	n/a
99.221	0.135	198442	keystroke_Key.enter	Key.enter	n/a
99.369	12.1395	198738	prompt	n/a	literacy compilation promise ping\n
100.046	0.15	200092	keystroke_l	l	n/a
100.211	0.12	200422	keystroke_i	i	n/a
100.256	0.09	200512	keystroke_t	t	n/a
100.376	0.135	200752	keystroke_e	e	n/a
100.496	0.06	200992	keystroke_r	r	n/a
100.646	0.09	201292	keystroke_a	a	n/a
100.841	0.105	201682	keystroke_c	c	n/a
100.976	0.075	201952	keystroke_y	y	n/a
101.231	0.09	202462	keystroke_Key.space	Key.space	n/a
101.426	0.09	202852	keystroke_c	c	n/a
101.531	0.135	203062	keystroke_i	i	n/a
101.636	0.12	203272	keystroke_m	m	n/a
101.8765	0.09	203753	keystroke_o	o	n/a
102.0865	0.15	204173	keystroke_l	l	n/a
102.2065	0.135	204413	keystroke_i	i	n/a
102.2815	0.075	204563	keystroke_a	a	n/a
102.462	0.105	204924	keystroke_t	t	n/a
102.552	0.105	205104	keystroke_i	i	n/a
102.597	0.105	205194	keystroke_o	o	n/a
102.822	0.075	205644	keystroke_n	n	n/a
103.017	0.06	206034	keystroke_Key.space	Key.space	n/a
104.697	0.12	209394	keystroke_Key.backspace	Key.backspace	n/a
104.892	0.089	209784	keystroke_Key.backspace	Key.backspace	n/a
105.087	0.06	210174	keystroke_Key.backspace	Key.backspace	n/a
105.267	0.044	210534	keystroke_Key.backspace	Key.backspace	n/a
105.416	0.105	210832	keystroke_Key.backspace	Key.backspace	n/a
105.596	0.075	211192	keystroke_Key.backspace	Key.backspace	n/a
105.792	0.044	211584	keystroke_Key.backspace	Key.backspace	n/a
105.9565	0.075	211913	keystroke_Key.backspace	Key.backspace	n/a
106.1515	0.06	212303	keystroke_Key.backspace	Key.backspace	n/a
106.331	0.075	212662	keystroke_Key.backspace	Key.backspace	n/a
106.556	0.045	213112	keystroke_Key.backspace	Key.backspace	n/a
107.651	0.09	215302	keystroke_o	o	n/a
107.831	0.09	215662	keystroke_m	m	n/a
108.011	0.15	216022	keystroke_p	p	n/a
108.162	0.179	216324	keystroke_l	l	n/a
108.476	0.135	216952	keystroke_i	i	n/a
108.581	0.075	217162	keystroke_a	a	n/a
108.776	0.105	217552	keystroke_t	t	n/a
108.821	0.12	217642	keystroke_i	i	n/a
108.896	0.075	217792	keystroke_o	o	n/a
109.091	0.09	218182	keystroke_n	n	n/a
109.2865	0.09	218573	keystroke_Key.space	Key.space	n/a
109.5115	0.135	219023	keystroke_p	p	n/a
109.6765	0.105	219353	keystroke_r	r	n/a
109.7965	0.1045	219593	keystroke_o	o	n/a
109.916	0.105	219832	keystroke_m	m	n/a
110.066	0.105	220132	keystroke_i	i	n/a
110.126	0.09	220252	keystroke_s	s	n/a
110.261	0.105	220522	keystroke_e	e	n/a
110.381	0.075	220762	keystroke_Key.space	Key.space	n/a
110.6065	0.1045	221213	keystroke_p	p	n/a
110.846	0.1205	221692	keystroke_i	i	n/a
110.9965	0.12	221993	keystroke_n	n	n/a
111.1315	0.09	222263	keystroke_g	g	n/a
111.462	0.045	222924	keystroke_Key.enter	Key.enter	n/a
111.5185	5.6295	223037	prompt	n/a	redhead custom fans export\n
112.3765	0.15	224753	keystroke_r	r	n/a
112.4665	0.12	224933	keystroke_e	e	n/a
112.8565	0.09	225713	keystroke_d	d	n/a
112.9915	0.105	225983	keystroke_h	h	n/a
113.1115	0.09	226223	keystroke_e	e	n/a
113.172	0.1195	226344	keystroke_a	a	n/a
113.3815	0.0755	226763	keystroke_d	d	n/a
113.502	0.105	227004	keystroke_Key.space	Key.space	n/a
113.9815	0.0905	227963	keystroke_c	c	n/a
114.087	0.1195	228174	keystroke_u	u	n/a
114.1765	0.09	228353	keystroke_s	s	n/a
114.3565	0.09	228713	keystroke_t	t	n/a
114.4615	0.0905	228923	keystroke_o	o	n/a
114.522	0.135	229044	keystroke_m	m	n/a
114.837	0.15	229674	keystroke_Key.space	Key.space	n/a
115.227	0.105	230454	keystroke_f	f	n/a
115.542	0.09	231084	keystroke_a	a	n/a
115.647	0.105	231294	keystroke_n	n	n/a
115.782	0.1045	231564	keystroke_s	s	n/a
115.9165	0.12	231833	keystroke_Key.space	Key.space	n/a
116.0515	0.105	232103	keystroke_e	e	n/a
116.3065	0.135	232613	keystroke_x	x	n/a
116.4415	0.135	232883	keystroke_p	p	n/a
116.5315	0.15	233063	keystroke_o	o	n/a
116.6515	0.075	233303	keystroke_r	r	n/a
116.8465	0.075	233693	keystroke_t	t	n/a
116.9965	0.1505	233993	keystroke_Key.enter	Key.enter	n/a
117.1515	7.3615	234303	prompt	n/a	cure affordable portions denied\n
117.881	0.121	235762	keystroke_c	c	n/a
118.242	0.105	236484	keystroke_u	u	n/a
118.332	0.135	236664	keystroke_r	r	n/a
118.407	0.1195	236814	keystroke_e	e	n/a
118.5715	0.135	237143	keystroke_Key.space	Key.space	n/a
118.7215	0.12	237443	keystroke_a	a	n/a
119.0665	0.09	238133	keystroke_f	f	n/a
119.2765	0.06	238553	keystroke_f	f	n/a
119.4115	0.135	238823	keystroke_o	o	n/a
119.4715	0.076	238943	keystroke_r	r	n/a
119.6515	0.075	239303	keystroke_d	d	n/a
119.7865	0.105	239573	keystroke_a	a	n/a
119.9365	0.105	239873	keystroke_b	b	n/a
120.2815	0.0755	240563	keystroke_e	e	n/a
120.7315	0.12	241463	keystroke_Key.backspace	Key.backspace	n/a
121.227	0.0895	242454	keystroke_l	l	n/a
121.3615	0.075	242723	keystroke_e	e	n/a
121.5115	0.09	243023	keystroke_Key.space	Key.space	n/a
122.5615	0.1805	245123	keystroke_p	p	n/a
122.682	0.165	245364	keystroke_o	o	n/a
122.801	0.076	245602	keystroke_r	r	n/a
122.982	0.089	245964	keystroke_t	t	n/a
123.041	0.135	246082	keystroke_i	i	n/a
123.102	0.104	246204	keystroke_o	o	n/a
123.296	0.105	246592	keystroke_n	n	n/a
123.417	0.089	246834	keystroke_s	s	n/a
123.522	0.119	247044	keystroke_Key.space	Key.space	n/a
123.671	0.136	247342	keystroke_d	d	n/a
123.746	0.135	247492	keystroke_e	e	n/a
123.852	0.089	247704	keystroke_n	n	n/a
123.971	0.166	247942	keystroke_i	i	n/a
124.076	0.105	248152	keystroke_e	e	n/a
124.196	0.135	248392	keystroke_d	d	n/a
124.361	0.15	248722	keystroke_Key.enter	Key.enter	n/a
124.5165	10.1365	249033	prompt	n/a	spelling compaq malpractice belts\n
125.261	0.09	250522	keystroke_s	s	n/a
125.366	0.12	250732	keystroke_p	p	n/a
125.471	0.105	250942	keystroke_e	e	n/a
125.636	0.075	251272	keystroke_l	l	n/a
125.8015	0.09	251603	keystroke_l	l	n/a
126.0115	0.105	252023	keystroke_i	i	n/a
126.0715	0.12	252143	keystroke_n	n	n/a
126.1765	0.075	252353	keystroke_g	g	n/a
126.297	0.1045	252594	keystroke_Key.space	Key.space	n/a
126.4765	0.1055	252953	keystroke_c	c	n/a
126.5215	0.1505	253043	keystroke_o	o	n/a
126.627	0.1045	253254	keystroke_m	m	n/a
126.8065	0.15	253613	keystroke_p	p	n/a
126.9715	0.105	253943	keystroke_q	q	n/a
127.241	0.1505	254482	keystroke_Key.space	Key.space	n/a
127.7515	0.045	255503	keystroke_Key.backspace	Key.backspace	n/a
127.9165	0.09	255833	keystroke_Key.backspace	Key.backspace	n/a
128.0515	0.105	256103	keystroke_q	q	n/a
128.442	0.105	256884	keystroke_Key.backspace	Key.backspace	n/a
128.532	0.105	257064	keystroke_a	a	n/a
128.697	0.09	257394	keystroke_w	w	n/a
128.9065	0.135	257813	keystroke_Key.space	Key.space	n/a
129.281	0.03	258562	keystroke_Key.backspace	Key.backspace	n/a
129.401	0.0905	258802	keystroke_Key.backspace	Key.backspace	n/a
129.4765	0.105	258953	keystroke_q	q	n/a
129.7015	0.105	259403	keystroke_Key.space	Key.space	n/a
129.942	0.135	259884	keystroke_m	m	n/a
130.152	0.105	260304	keystroke_a	a	n/a
131.426	0.075	262852	keystroke_l	l	n/a
131.622	0.105	263244	keystroke_p	p	n/a
131.667	0.104	263334	keystroke_r	r	n/a
131.817	0.0745	263634	keystroke_a	a	n/a
132.2215	0.075	264443	keystroke_c	c	n/a
132.4315	0.075	264863	keystroke_t	t	n/a
132.5065	0.1045	265013	keystroke_i	i	n/a
132.641	0.165	265282	keystroke_c	c	n/a
132.866	0.106	265732	keystroke_e	e	n/a
133.016	0.135	266032	keystroke_Key.space	Key.space	n/a
133.541	0.091	267082	keystroke_b	b	n/a
133.661	0.075	267322	keystroke_e	e	n/a
133.796	0.15	267592	keystroke_l	l	n/a
133.932	0.089	267864	keystroke_t	t	n/a
134.0965	0.105	268193	keystroke_s	s	n/a
134.4715	0.18	268943	keystroke_Key.enter	Key.enter	n/a
134.657	12.1615	269314	prompt	n/a	disposition senate section significantly\n
135.506	0.09	271012	keystroke_d	d	n/a
135.761	0.1055	271522	keystroke_s	s	n/a
136.0765	0.09	272153	keystroke_Key.backspace	Key.backspace	n/a
136.256	0.12	272512	keystroke_i	i	n/a
136.361	0.105	272722	keystroke_s	s	n/a
136.496	0.15	272992	keystroke_p	p	n/a
136.541	0.15	273082	keystroke_o	o	n/a
136.706	0.135	273412	keystroke_s	s	n/a
136.826	0.09	273652	keystroke_i	i	n/a
136.961	0.105	273922	keystroke_t	t	n/a
137.036	0.12	274072	keystroke_i	i	n/a
137.081	0.105	274162	keystroke_o	o	n/a
137.291	0.075	274582	keystroke_n	n	n/a
137.486	0.12	274972	keystroke_Key.space	Key.space	n/a
137.591	0.12	275182	keystroke_s	s	n/a
137.9065	0.1045	275813	keystroke_e	e	n/a
138.056	0.0905	276112	keystroke_n	n	n/a
138.161	0.0605	276322	keystroke_a	a	n/a
138.341	0.1205	276682	keystroke_t	t	n/a
138.401	0.1205	276802	keystroke_e	e	n/a
138.551	0.12	277102	keystroke_Key.space	Key.space	n/a
138.656	0.105	277312	keystroke_s	s	n/a
138.836	0.075	277672	keystroke_e	e	n/a
139.0165	0.09	278033	keystroke_c	c	n/a
139.2115	0.075	278423	keystroke_t	t	n/a
139.2565	0.12	278513	keystroke_i	i	n/a
139.3165	0.12	278633	keystroke_o	o	n/a
139.557	0.09	279114	keystroke_n	n	n/a
139.767	0.165	279534	keystroke_Key.space	Key.space	n/a
140.4865	0.1205	280973	keystroke_s	s	n/a
141.057	0.165	282114	keystroke_i	i	n/a
141.237	0.105	282474	keystroke_g	g	n/a
141.417	0.165	282834	keystroke_n	n	n/a
141.7315	0.135	283463	keystroke_i	i	n/a
144.509	0.043	289018	keystroke_f	f	n/a
144.582	0.12	289164	keystroke_i	i	n/a
144.642	0.075	289284	keystroke_c	c	n/a
144.837	0.105	289674	keystroke_a	a	n/a
144.972	0.09	289944	keystroke_n	n	n/a
145.077	0.105	290154	keystroke_t	t	n/a
145.197	0.075	290394	keystroke_l	l	n/a
145.437	0.0745	290874	keystroke_y	y	n/a
146.0515	0.06	292103	keystroke_Key.space	Key.space	n/a
146.4415	0.105	292883	keystroke_Key.backspace	Key.backspace	n/a
146.7265	0.09	293453	keystroke_Key.enter	Key.enter	n/a
146.829	6.709	293658	prompt	n/a	parts prot surf teenage\n
147.5665	0.18	295133	keystroke_p	p	n/a
147.7165	0.09	295433	keystroke_a	a	n/a
147.911	0.061	295822	keystroke_r	r	n/a
148.061	0.0905	296122	keystroke_t	t	n/a
148.3615	0.105	296723	keystroke_s	s	n/a
148.4665	0.09	296933	keystroke_Key.space	Key.space	n/a
148.7065	0.105	297413	keystroke_p	p	n/a
148.8265	0.105	297653	keystroke_r	r	n/a
148.9915	0.075	297983	keystroke_o	o	n/a
149.1115	0.105	298223	keystroke_t	t	n/a
149.3215	0.09	298643	keystroke_Key.space	Key.space	n/a
149.6815	0.075	299363	keystroke_f	f	n/a
150.296	0.09	300592	keystroke_Key.backspace	Key.backspace	n/a
151.4815	0.135	302963	keystroke_s	s	n/a
151.7065	0.12	303413	keystroke_u	u	n/a
151.8415	0.09	303683	keystroke_r	r	n/a
152.0815	0.075	304163	keystroke_f	f	n/a
152.1715	0.135	304343	keystroke_Key.space	Key.space	n/a
152.3515	0.09	304703	keystroke_t	t	n/a
152.5015	0.105	305003	keystroke_e	e	n/a
152.6815	0.12	305363	keystroke_e	e	n/a
152.8165	0.15	305633	keystroke_n	n	n/a
152.9965	0.105	305993	keystroke_a	a	n/a
153.1315	0.09	306263	keystroke_g	g	n/a
153.2365	0.105	306473	keystroke_e	e	n/a
153.4465	0.09	306893	keystroke_Key.enter	Key.enter	n/a
153.541	7.242	307082	prompt	n/a	indeed triumph sharp somewhere\n
154.3765	0.135	308753	keystroke_i	i	n/a
154.4815	0.165	308963	keystroke_n	n	n/a
154.6315	0.18	309263	keystroke_d	d	n/a
154.8265	0.09	309653	keystroke_e	e	n/a
154.9615	0.105	309923	keystroke_e	e	n/a
155.831	0.136	311662	keystroke_d	d	n/a
155.982	0.165	311964	keystroke_Key.space	Key.space	n/a
156.312	0.075	312624	keystroke_t	t	n/a
156.522	0.09	313044	keystroke_r	r	n/a
156.7465	0.105	313493	keystroke_u	u	n/a
157.0765	0.075	314153	keystroke_Key.backspace	Key.backspace	n/a
157.2865	0.09	314573	keystroke_i	i	n/a
157.4965	0.045	314993	keystroke_u	u	n/a
157.6765	0.075	315353	keystroke_m	m	n/a
157.8565	0.12	315713	keystroke_p	p	n/a
158.1565	0.09	316313	keystroke_h	h	n/a
158.381	0.105	316762	keystroke_Key.space	Key.space	n/a
158.501	0.09	317002	keystroke_s	s	n/a
158.622	0.105	317244	keystroke_h	h	n/a
158.711	0.09	317422	keystroke_a	a	n/a
158.981	0.106	317962	keystroke_r	r	n/a
159.236	0.12	318472	keystroke_p	p	n/a
159.581	0.09	319162	keystroke_Key.space	Key.space	n/a
159.657	0.119	319314	keystroke_s	s	n/a
159.791	0.1055	319582	keystroke_o	o	n/a
159.836	0.1655	319672	keystroke_m	m	n/a
159.9565	0.09	319913	keystroke_e	e	n/a
160.1815	0.075	320363	keystroke_w	w	n/a
160.3015	0.09	320603	keystroke_h	h	n/a
160.3925	0.089	320785	keystroke_e	e	n/a
160.4665	0.15	320933	keystroke_r	r	n/a
160.5715	0.12	321143	keystroke_e	e	n/a
160.6615	0.12	321323	keystroke_Key.enter	Key.enter	n/a
160.787	11.652	321574	prompt	n/a	swingers perth netherlands aviation\n
161.3965	0.105	322793	keystroke_s	s	n/a
161.6515	0.12	323303	keystroke_w	w	n/a
161.8465	0.1355	323693	keystroke_i	i	n/a
161.936	0.12	323872	keystroke_n	n	n/a
162.161	0.076	324322	keystroke_g	g	n/a
162.222	0.0895	324444	keystroke_e	e	n/a
162.282	0.1195	324564	keystroke_r	r	n/a
162.4465	0.105	324893	keystroke_s	s	n/a
162.5365	0.105	325073	keystroke_Key.space	Key.space	n/a
162.8065	0.18	325613	keystroke_p	p	n/a
162.9265	0.09	325853	keystroke_e	e	n/a
163.1365	0.105	326273	keystroke_r	r	n/a
163.3765	0.09	326753	keystroke_t	t	n/a
163.4815	0.09	326963	keystroke_h	h	n/a
163.7065	0.075	327413	keystroke_Key.space	Key.space	n/a
163.8715	0.12	327743	keystroke_n	n	n/a
163.9465	0.15	327893	keystroke_e	e	n/a
164.0815	0.105	328163	keystroke_r	r	n/a
164.7265	0.075	329453	keystroke_Key.backspace	Key.backspace	n/a
164.9515	0.09	329903	keystroke_t	t	n/a
165.8515	0.12	331703	keystroke_h	h	n/a
165.9265	0.105	331853	keystroke_e	e	n/a
165.9865	0.12	331973	keystroke_r	r	n/a
166.1215	0.1355	332243	keystroke_l	l	n/a
166.272	0.075	332544	keystroke_a	a	n/a
166.376	0.12	332752	keystroke_n	n	n/a
166.511	0.105	333022	keystroke_d	d	n/a
166.556	0.135	333112	keystroke_s	s	n/a
166.721	0.12	333442	keystroke_Key.space	Key.space	n/a
169.9485	0.058	339897	keystroke_a	a	n/a
170.1265	0.075	340253	keystroke_v	v	n/a
170.337	0.165	340674	keystroke_i	i	n/a
170.426	0.121	340852	keystroke_a	a	n/a
171.011	0.046	342022	keystroke_t	t	n/a
171.086	0.12	342172	keystroke_i	i	n/a
171.131	0.09	342262	keystroke_o	o	n/a
171.342	0.075	342684	keystroke_n	n	n/a
172.2565	0.18	344513	keystroke_Key.enter	Key.enter	n/a
172.449	6.244	344898	prompt	n/a	stamps arch supplement rate\n
173.0365	0.12	346073	keystroke_s	s	n/a
173.2615	0.06	346523	keystroke_t	t	n/a
173.4865	0.03	346973	keystroke_a	a	n/a
173.5015	0.075	347003	keystroke_m	m	n/a
173.6815	0.12	347363	keystroke_p	p	n/a
173.8165	0.1195	347633	keystroke_s	s	n/a
173.981	0.135	347962	keystroke_Key.space	Key.space	n/a
174.221	0.09	348442	keystroke_a	a	n/a
174.4615	0.09	348923	keystroke_r	r	n/a
174.6865	0.09	349373	keystroke_c	c	n/a
174.8065	0.075	349613	keystroke_h	h	n/a
175.0465	0.105	350093	keystroke_Key.space	Key.space	n/a
175.7215	0.135	351443	keystroke_s	s	n/a
175.9165	0.09	351833	keystroke_u	u	n/a
176.2165	0.09	352433	keystroke_p	p	n/a
176.4265	0.075	352853	keystroke_p	p	n/a
176.6665	0.12	353333	keystroke_l	l	n/a
176.8615	0.12	353723	keystroke_e	e	n/a
176.9965	0.105	353993	keystroke_m	m	n/a
177.1465	0.105	354293	keystroke_e	e	n/a
177.2665	0.09	354533	keystroke_n	n	n/a
177.4165	0.0755	354833	keystroke_t	t	n/a
177.507	0.12	355014	keystroke_Key.space	Key.space	n/a
177.6715	0.12	355343	keystroke_r	r	n/a
178.1515	0.09	356303	keystroke_a	a	n/a
178.361	0.0915	356722	keystroke_t	t	n/a
178.4215	0.1355	356843	keystroke_e	e	n/a
178.542	0.15	357084	keystroke_Key.enter	Key.enter	n/a
178.696	6.102	357392	prompt	n/a	randy alert weddings consumers\n
179.487	0.075	358974	keystroke_r	r	n/a
179.652	0.09	359304	keystroke_a	a	n/a
179.757	0.09	359514	keystroke_n	n	n/a
179.832	0.105	359664	keystroke_d	d	n/a
179.982	0.06	359964	keystroke_y	y	n/a
180.162	0.105	360324	keystroke_Key.space	Key.space	n/a
180.627	0.09	361254	keystroke_a	a	n/a
180.747	0.12	361494	keystroke_l	l	n/a
180.882	0.06	361764	keystroke_e	e	n/a
181.2865	0.1355	362573	keystroke_r	r	n/a
181.6315	0.09	363263	keystroke_t	t	n/a
181.7965	0.12	363593	keystroke_Key.space	Key.space	n/a
181.9315	0.105	363863	keystroke_w	w	n/a
182.0515	0.15	364103	keystroke_e	e	n/a
182.3665	0.075	364733	keystroke_d	d	n/a
182.5465	0.075	365093	keystroke_d	d	n/a
182.6515	0.0755	365303	keystroke_i	i	n/a
182.6815	0.15	365363	keystroke_n	n	n/a
182.817	0.0745	365634	keystroke_g	g	n/a
183.012	0.1045	366024	keystroke_s	s	n/a
183.147	0.12	366294	keystroke_Key.space	Key.space	n/a
183.4765	0.105	366953	keystroke_c	c	n/a
183.5665	0.09	367133	keystroke_o	o	n/a
183.7315	0.12	367463	keystroke_n	n	n/a
183.8665	0.1055	367733	keystroke_s	s	n/a
183.987	0.075	367974	keystroke_u	u	n/a
184.167	0.105	368334	keystroke_m	m	n/a
184.242	0.09	368484	keystroke_e	e	n/a
184.287	0.105	368574	keystroke_r	r	n/a
184.467	0.135	368934	keystroke_s	s	n/a
184.617	0.18	369234	keystroke_Key.enter	Key.enter	n/a
184.802	5.651	369604	prompt	n/a	argued earth emission population\n
185.4415	0.09	370883	keystroke_a	a	n/a
185.6665	0.09	371333	keystroke_r	r	n/a
185.8615	0.135	371723	keystroke_g	g	n/a
185.9215	0.18	371843	keystroke_u	u	n/a
186.0715	0.075	372143	keystroke_e	e	n/a
186.162	0.1345	372324	keystroke_d	d	n/a
186.3265	0.135	372653	keystroke_Key.space	Key.space	n/a
186.5815	0.15	373163	keystroke_e	e	n/a
186.7165	0.1045	373433	keystroke_a	a	n/a
186.926	0.09	373852	keystroke_r	r	n/a
187.136	0.105	374272	keystroke_t	t	n/a
187.226	0.06	374452	keystroke_h	h	n/a
187.421	0.075	374842	keystroke_Key.space	Key.space	n/a
187.541	0.12	375082	keystroke_e	e	n/a
187.646	0.09	375292	keystroke_m	m	n/a
187.8715	0.09	375743	keystroke_i	i	n/a
187.9465	0.09	375893	keystroke_s	s	n/a
188.1415	0.09	376283	keystroke_s	s	n/a
188.2465	0.1205	376493	keystroke_i	i	n/a
188.307	0.12	376614	keystroke_o	o	n/a
188.517	0.09	377034	keystroke_n	n	n/a
188.682	0.105	377364	keystroke_Key.space	Key.space	n/a
188.922	0.135	377844	keystroke_p	p	n/a
189.027	0.15	378054	keystroke_o	o	n/a
189.162	0.105	378324	keystroke_p	p	n/a
189.357	0.0895	378714	keystroke_u	u	n/a
189.5065	0.15	379013	keystroke_l	l	n/a
189.5965	0.09	379193	keystroke_a	a	n/a
189.8065	0.09	379613	keystroke_t	t	n/a
189.8215	0.135	379643	keystroke_i	i	n/a
189.8815	0.12	379763	keystroke_o	o	n/a
190.0915	0.105	380183	keystroke_n	n	n/a
190.3015	0.15	380603	keystroke_Key.enter	Key.enter	n/a
190.456	5.5775	380912	prompt	n/a	warm white offered consisting\n
191.111	0.09	382222	keystroke_w	w	n/a
191.306	0.075	382612	keystroke_a	a	n/a
191.486	0.091	382972	keystroke_r	r	n/a
191.561	0.09	383122	keystroke_m	m	n/a
191.786	0.12	383572	keystroke_Key.space	Key.space	n/a
192.026	0.09	384052	keystroke_w	w	n/a
192.146	0.12	384292	keystroke_h	h	n/a
192.221	0.121	384442	keystroke_i	i	n/a
192.296	0.091	384592	keystroke_t	t	n/a
192.357	0.105	384714	keystroke_e	e	n/a
192.477	0.09	384954	keystroke_Key.space	Key.space	n/a
192.687	0.12	385374	keystroke_o	o	n/a
193.272	0.105	386544	keystroke_f	f	n/a
193.5115	0.09	387023	keystroke_f	f	n/a
193.6615	0.12	387323	keystroke_e	e	n/a
193.7965	0.12	387593	keystroke_r	r	n/a
193.8865	0.09	387773	keystroke_e	e	n/a
194.0515	0.09	388103	keystroke_d	d	n/a
194.1565	0.12	388313	keystroke_Key.space	Key.space	n/a
194.3215	0.09	388643	keystroke_c	c	n/a
194.3815	0.105	388763	keystroke_o	o	n/a
194.6065	0.09	389213	keystroke_n	n	n/a
194.7115	0.09	389423	keystroke_s	s	n/a
194.907	0.12	389814	keystroke_i	i	n/a
195.042	0.09	390084	keystroke_s	s	n/a
195.312	0.015	390624	keystroke_t	t	n/a
195.357	0.135	390714	keystroke_i	i	n/a
195.522	0.105	391044	keystroke_n	n	n/a
195.612	0.09	391224	keystroke_g	g	n/a
195.8815	0.15	391763	keystroke_Key.enter	Key.enter	n/a
196.036	6.672	392072	prompt	n/a	macedonia delivered computer alex\n
196.722	0.15	393444	keystroke_m	m	n/a
196.917	0.12	393834	keystroke_a	a	n/a
197.232	0.075	394464	keystroke_c	c	n/a
197.562	0.09	395124	keystroke_e	e	n/a
197.757	0.105	395514	keystroke_d	d	n/a
197.922	0.09	395844	keystroke_o	o	n/a
198.132	0.075	396264	keystroke_n	n	n/a
198.222	0.09	396444	keystroke_i	i	n/a
198.342	0.105	396684	keystroke_a	a	n/a
198.492	0.105	396984	keystroke_Key.space	Key.space	n/a
198.672	0.135	397344	keystroke_d	d	n/a
198.747	0.12	397494	keystroke_e	e	n/a
198.837	0.1345	397674	keystroke_l	l	n/a
198.942	0.06	397884	keystroke_i	i	n/a
199.212	0.105	398424	keystroke_e	e	n/a
199.602	0.105	399204	keystroke_Key.backspace	Key.backspace	n/a
199.797	0.105	399594	keystroke_v	v	n/a
200.007	0.105	400014	keystroke_e	e	n/a
200.112	0.15	400224	keystroke_r	r	n/a
200.232	0.075	400464	keystroke_e	e	n/a
200.3665	0.105	400733	keystroke_d	d	n/a
200.5165	0.12	401033	keystroke_Key.space	Key.space	n/a
200.7865	0.105	401573	keystroke_c	c	n/a
200.8765	0.18	401753	keystroke_o	o	n/a
200.9665	0.135	401933	keystroke_m	m	n/a
201.1915	0.09	402383	keystroke_p	p	n/a
201.3715	0.12	402743	keystroke_u	u	n/a
201.4315	0.075	402863	keystroke_t	t	n/a
201.5215	0.135	403043	keystroke_e	e	n/a
201.6265	0.1045	403253	keystroke_r	r	n/a
201.776	0.12	403552	keystroke_Key.space	Key.space	n/a
202.001	0.09	404002	keystroke_a	a	n/a
202.136	0.135	404272	keystroke_l	l	n/a
202.211	0.075	404422	keystroke_e	e	n/a
202.421	0.12	404842	keystroke_x	x	n/a
202.571	0.135	405142	keystroke_Key.enter	Key.enter	n/a
202.718	5.6905	405436	prompt	n/a	conspiracy paintball woman myers\n
203.442	0.09	406884	keystroke_c	c	n/a
203.502	0.105	407004	keystroke_o	o	n/a
203.682	0.12	407364	keystroke_n	n	n/a
203.817	0.105	407634	keystroke_s	s	n/a
203.937	0.15	407874	keystroke_p	p	n/a
204.027	0.15	408054	keystroke_i	i	n/a
204.132	0.06	408264	keystroke_r	r	n/a
204.237	0.075	408474	keystroke_a	a	n/a
204.447	0.09	408894	keystroke_c	c	n/a
204.552	0.105	409104	keystroke_y	y	n/a
204.792	0.12	409584	keystroke_Key.space	Key.space	n/a
205.137	0.135	410274	keystroke_p	p	n/a
205.362	0.135	410724	keystroke_a	a	n/a
205.512	0.105	411024	keystroke_i	i	n/a
205.602	0.09	411204	keystroke_n	n	n/a
205.707	0.075	411414	keystroke_t	t	n/a
205.842	0.1045	411684	keystroke_b	b	n/a
205.9765	0.12	411953	keystroke_a	a	n/a
206.0815	0.105	412163	keystroke_l	l	n/a
206.2615	0.105	412523	keystroke_l	l	n/a
206.4715	0.105	412943	keystroke_Key.space	Key.space	n/a
206.5775	0.104	413155	keystroke_w	w	n/a
206.7415	0.09	413483	keystroke_o	o	n/a
206.7865	0.135	413573	keystroke_m	m	n/a
206.9365	0.105	413873	keystroke_a	a	n/a
207.0715	0.0755	414143	keystroke_n	n	n/a
207.267	0.105	414534	keystroke_Key.space	Key.space	n/a
207.492	0.09	414984	keystroke_m	m	n/a
207.747	0.105	415494	keystroke_y	y	n/a
207.867	0.119	415734	keystroke_e	e	n/a
207.972	0.12	415944	keystroke_r	r	n/a
208.137	0.12	416274	keystroke_s	s	n/a
208.271	0.136	416542	keystroke_Key.enter	Key.enter	n/a
208.415	4.0735	416830	prompt	n/a	twist page anchor deny\n
209.052	0.0895	418104	keystroke_t	t	n/a
209.2315	0.09	418463	keystroke_w	w	n/a
209.3365	0.135	418673	keystroke_i	i	n/a
209.4565	0.03	418913	keystroke_s	s	n/a
209.5615	0.105	419123	keystroke_t	t	n/a
209.6515	0.075	419303	keystroke_Key.space	Key.space	n/a
209.892	0.075	419784	keystroke_p	p	n/a
210.087	0.105	420174	keystroke_a	a	n/a
210.237	0.105	420474	keystroke_g	g	n/a
210.387	0.105	420774	keystroke_e	e	n/a
210.507	0.1195	421014	keystroke_Key.space	Key.space	n/a
210.6565	0.09	421313	keystroke_a	a	n/a
210.7765	0.105	421553	keystroke_n	n	n/a
210.8665	0.12	421733	keystroke_c	c	n/a
211.0315	0.075	422063	keystroke_h	h	n/a
211.1665	0.105	422333	keystroke_o	o	n/a
211.2565	0.09	422513	keystroke_r	r	n/a
211.4065	0.12	422813	keystroke_Key.space	Key.space	n/a
211.6165	0.15	423233	keystroke_d	d	n/a
211.7815	0.135	423563	keystroke_e	e	n/a
211.9465	0.09	423893	keystroke_n	n	n/a
212.1565	0.075	424313	keystroke_y	y	n/a
212.3815	0.105	424763	keystroke_Key.enter	Key.enter	n/a
212.492	7.526	424984	prompt	n/a	many flexible tragedy selected\n
213.072	0.12	426144	keystroke_m	m	n/a
213.237	0.15	426474	keystroke_a	a	n/a
213.372	0.09	426744	keystroke_n	n	n/a
213.552	0.06	427104	keystroke_y	y	n/a
213.717	0.105	427434	keystroke_Key.space	Key.space	n/a
213.822	0.134	427644	keystroke_f	f	n/a
213.912	0.09	427824	keystroke_e	e	n/a
214.017	0.089	428034	keystroke_l	l	n/a
214.872	0.045	429744	keystroke_Key.backspace	Key.backspace	n/a
214.992	0.12	429984	keystroke_Key.backspace	Key.backspace	n/a
215.292	0.135	430584	keystroke_l	l	n/a
215.412	0.075	430824	keystroke_e	e	n/a
215.607	0.15	431214	keystroke_x	x	n/a
215.742	0.09	431484	keystroke_i	i	n/a
215.922	0.09	431844	keystroke_b	b	n/a
216.132	0.09	432264	keystroke_l	l	n/a
216.237	0.105	432474	keystroke_e	e	n/a
216.372	0.12	432744	keystroke_Key.space	Key.space	n/a
216.612	0.105	433224	keystroke_t	t	n/a
217.077	0.075	434154	keystroke_r	r	n/a
217.257	0.12	434514	keystroke_a	a	n/a
217.662	0.075	435324	keystroke_g	g	n/a
217.767	0.0895	435534	keystroke_e	e	n/a
217.9615	0.1055	435923	keystroke_d	d	n/a
218.082	0.06	436164	keystroke_y	y	n/a
218.292	0.135	436584	keystroke_Key.space	Key.space	n/a
218.487	0.105	436974	keystroke_s	s	n/a
218.832	0.105	437664	keystroke_e	e	n/a
219.042	0.12	438084	keystroke_l	l	n/a
219.102	0.09	438204	keystroke_e	e	n/a
219.372	0.0745	438744	keystroke_c	c	n/a
219.5515	0.075	439103	keystroke_t	t	n/a
219.6415	0.12	439283	keystroke_e	e	n/a
219.8065	0.0755	439613	keystroke_d	d	n/a
219.897	0.12	439794	keystroke_Key.enter	Key.enter	n/a
220.021	7.5725	440042	prompt	n/a	phase genuine unwrap strike\n
220.647	0.105	441294	keystroke_p	p	n/a
220.872	0.135	441744	keystroke_h	h	n/a
220.962	0.105	441924	keystroke_a	a	n/a
221.022	0.105	442044	keystroke_s	s	n/a
221.217	0.09	442434	keystroke_e	e	n/a
221.382	0.075	442764	keystroke_Key.space	Key.space	n/a
221.652	0.075	443304	keystroke_g	g	n/a
221.817	0.1195	443634	keystroke_e	e	n/a
222.552	0.06	445104	keystroke_n	n	n/a
223.152	0.12	446304	keystroke_u	u	n/a
223.242	0.105	446484	keystroke_i	i	n/a
223.422	0.105	446844	keystroke_n	n	n/a
223.572	0.074	447144	keystroke_e	e	n/a
223.707	0.104	447414	keystroke_Key.space	Key.space	n/a
224.336	0.0605	448672	keystroke_u	u	n/a
224.5165	0.12	449033	keystroke_n	n	n/a
224.7715	0.12	449543	keystroke_w	w	n/a
225.0415	0.076	450083	keystroke_r	r	n/a
225.2225	0.105	450445	keystroke_a	a	n/a
225.3425	0.105	450685	keystroke_p	p	n/a
226.3015	0.1055	452603	keystroke_Key.space	Key.space	n/a
226.4515	0.105	452903	keystroke_s	s	n/a
226.6765	0.09	453353	keystroke_t	t	n/a
226.8715	0.09	453743	keystroke_r	r	n/a
226.9765	0.075	453953	keystroke_i	i	n/a
227.1415	0.12	454283	keystroke_k	k	n/a
227.232	0.0895	454464	keystroke_e	e	n/a
227.4715	0.1205	454943	keystroke_Key.enter	Key.enter	n/a
227.6055	7.848	455211	prompt	n/a	photographers culture dense vary\n
228.417	0.09	456834	keystroke_p	p	n/a
228.6865	0.06	457373	keystroke_h	h	n/a
228.9115	0.12	457823	keystroke_o	o	n/a
229.062	0.0745	458124	keystroke_t	t	n/a
230.022	0.12	460044	keystroke_o	o	n/a
230.8315	0.09	461663	keystroke_g	g	n/a
230.9225	0.089	461845	keystroke_r	r	n/a
231.1465	0.105	462293	keystroke_a	a	n/a
231.2815	0.09	462563	keystroke_p	p	n/a
231.4915	0.09	462983	keystroke_h	h	n/a
231.5665	0.06	463133	keystroke_e	e	n/a
231.747	0.075	463494	keystroke_r	r	n/a
231.823	0.1185	463646	keystroke_s	s	n/a
231.9425	0.1045	463885	keystroke_Key.space	Key.space	n/a
232.242	0.105	464484	keystroke_c	c	n/a
232.407	0.105	464814	keystroke_u	u	n/a
232.617	0.135	465234	keystroke_l	l	n/a
232.782	0.09	465564	keystroke_t	t	n/a
232.887	0.105	465774	keystroke_u	u	n/a
233.007	0.1195	466014	keystroke_r	r	n/a
233.0665	0.105	466133	keystroke_e	e	n/a
233.2765	0.12	466553	keystroke_Key.space	Key.space	n/a
233.952	0.135	467904	keystroke_d	d	n/a
234.027	0.12	468054	keystroke_e	e	n/a
234.162	0.105	468324	keystroke_n	n	n/a
234.252	0.09	468504	keystroke_s	s	n/a
234.4015	0.075	468803	keystroke_e	e	n/a
234.5065	0.09	469013	keystroke_Key.space	Key.space	n/a
234.7315	0.0755	469463	keystroke_v	v	n/a
234.792	0.06	469584	keystroke_a	a	n/a
234.942	0.135	469884	keystroke_r	r	n/a
235.062	0.075	470124	keystroke_y	y	n/a
235.332	0.12	470664	keystroke_Key.enter	Key.enter	n/a
235.456	5.9825	470912	prompt	n/a	booty hacker direction landscapes\n
236.5765	0.09	473153	keystroke_b	b	n/a
236.7865	0.075	473573	keystroke_o	o	n/a
236.9665	0.075	473933	keystroke_o	o	n/a
237.0865	0.075	474173	keystroke_t	t	n/a
237.1915	0.045	474383	keystroke_y	y	n/a
237.3865	0.075	474773	keystroke_Key.space	Key.space	n/a
237.5665	0.105	475133	keystroke_h	h	n/a
237.6265	0.075	475253	keystroke_a	a	n/a
237.8215	0.09	475643	keystroke_c	c	n/a
237.9415	0.12	475883	keystroke_k	k	n/a
238.0315	0.12	476063	keystroke_e	e	n/a
238.1215	0.09	476243	keystroke_r	r	n/a
238.2415	0.12	476483	keystroke_Key.space	Key.space	n/a
238.3915	0.075	476783	keystroke_d	d	n/a
238.5265	0.12	477053	keystroke_i	i	n/a
238.6015	0.12	477203	keystroke_r	r	n/a
238.6765	0.075	477353	keystroke_e	e	n/a
238.8415	0.075	477683	keystroke_c	c	n/a
239.0215	0.09	478043	keystroke_t	t	n/a
239.0665	0.12	478133	keystroke_i	i	n/a
239.1265	0.09	478253	keystroke_o	o	n/a
239.3365	0.06	478673	keystroke_n	n	n/a
239.5015	0.075	479003	keystroke_Key.space	Key.space	n/a
239.6665	0.135	479333	keystroke_l	l	n/a
239.8165	0.0605	479633	keystroke_a	a	n/a
239.937	0.12	479874	keystroke_n	n	n/a
240.072	0.06	480144	keystroke_d	d	n/a
240.252	0.075	480504	keystroke_s	s	n/a
240.417	0.045	480834	keystroke_c	c	n/a
240.567	0.09	481134	keystroke_a	a	n/a
240.717	0.165	481434	keystroke_p	p	n/a
240.912	0.105	481824	keystroke_e	e	n/a
241.317	0.1205	482634	keystroke_Key.enter	Key.enter	n/a
241.4415	8.6675	482883	prompt	n/a	wildlife distances bookstore metadata\n
242.126	0.106	484252	keystroke_w	w	n/a
242.2765	0.12	484553	keystroke_i	i	n/a
242.4415	0.105	484883	keystroke_d	d	n/a
243.192	0.09	486384	keystroke_Key.backspace	Key.backspace	n/a
243.897	0.135	487794	keystroke_l	l	n/a
244.2275	0.059	488455	keystroke_d	d	n/a
244.4215	0.135	488843	keystroke_l	l	n/a
244.5265	0.135	489053	keystroke_i	i	n/a
244.6165	0.12	489233	keystroke_f	f	n/a
244.7215	0.12	489443	keystroke_e	e	n/a
244.8715	0.135	489743	keystroke_Key.space	Key.space	n/a
245.292	0.0895	490584	keystroke_d	d	n/a
245.4265	0.105	490853	keystroke_i	i	n/a
245.5015	0.09	491003	keystroke_s	s	n/a
245.6665	0.045	491333	keystroke_t	t	n/a
245.8015	0.0905	491603	keystroke_a	a	n/a
245.922	0.105	491844	keystroke_n	n	n/a
245.997	0.105	491994	keystroke_c	c	n/a
246.087	0.105	492174	keystroke_e	e	n/a
246.2815	0.09	492563	keystroke_s	s	n/a
246.3865	0.09	492773	keystroke_Key.space	Key.space	n/a
246.6865	0.1055	493373	keystroke_b	b	n/a
246.942	0.045	493884	keystroke_o	o	n/a
247.077	0.105	494154	keystroke_o	o	n/a
247.122	0.15	494244	keystroke_k	k	n/a
247.242	0.09	494484	keystroke_s	s	n/a
247.407	0.075	494814	keystroke_t	t	n/a
247.542	0.09	495084	keystroke_o	o	n/a
247.632	0.12	495264	keystroke_r	r	n/a
247.692	0.12	495384	keystroke_e	e	n/a
247.827	0.105	495654	keystroke_Key.space	Key.space	n/a
248.142	0.21	496284	keystroke_m	m	n/a
248.517	0.12	497034	keystroke_e	e	n/a
248.8175	0.0745	497635	keystroke_t	t	n/a
249.027	0.09	498054	keystroke_a	a	n/a
249.207	0.09	498414	keystroke_d	d	n/a
249.357	0.06	498714	keystroke_a	a	n/a
249.537	0.06	499074	keystroke_t	t	n/a
249.732	0.09	499464	keystroke_a	a	n/a
249.9865	0.12	499973	keystroke_Key.enter	Key.enter	n/a
250.119	6.169	500238	prompt	n/a	remix emperor engineers toilet\n
250.767	0.135	501534	keystroke_r	r	n/a
250.842	0.105	501684	keystroke_e	e	n/a
250.962	0.135	501924	keystroke_m	m	n/a
251.127	0.15	502254	keystroke_i	i	n/a
251.277	0.12	502554	keystroke_x	x	n/a
251.472	0.165	502944	keystroke_Key.space	Key.space	n/a
252.057	0.105	504114	keystroke_e	e	n/a
252.207	0.09	504414	keystroke_m	m	n/a
252.7165	0.15	505433	keystroke_p	p	n/a
252.8975	0.134	505795	keystroke_e	e	n/a
253.0765	0.106	506153	keystroke_r	r	n/a
253.2265	0.121	506453	keystroke_o	o	n/a
253.3475	0.09	506695	keystroke_r	r	n/a
253.4815	0.135	506963	keystroke_Key.space	Key.space	n/a
253.6615	0.075	507323	keystroke_e	e	n/a
254.022	0.12	508044	keystroke_n	n	n/a
254.187	0.105	508374	keystroke_g	g	n/a
254.337	0.06	508674	keystroke_i	i	n/a
254.367	0.135	508734	keystroke_n	n	n/a
254.487	0.09	508974	keystroke_e	e	n/a
254.712	0.09	509424	keystroke_e	e	n/a
254.817	0.105	509634	keystroke_r	r	n/a
254.997	0.105	509994	keystroke_s	s	n/a
255.117	0.09	510234	keystroke_Key.space	Key.space	n/a
255.267	0.09	510534	keystroke_t	t	n/a
255.372	0.075	510744	keystroke_o	o	n/a
255.567	0.075	511134	keystroke_i	i	n/a
255.7325	0.165	511465	keystroke_l	l	n/a
255.7925	0.075	511585	keystroke_e	e	n/a
255.9575	0.09	511915	keystroke_t	t	n/a
256.1225	0.1645	512245	keystroke_Key.enter	Key.enter	n/a
256.291	6.3875	512582	prompt	n/a	nightmare licensing sales laughing\n
256.932	0.09	513864	keystroke_n	n	n/a
257.052	0.135	514104	keystroke_i	i	n/a
257.172	0.075	514344	keystroke_g	g	n/a
257.322	0.12	514644	keystroke_h	h	n/a
257.427	0.12	514854	keystroke_t	t	n/a
257.6525	0.135	515305	keystroke_m	m	n/a
257.8025	0.09	515605	keystroke_a	a	n/a
257.997	0.12	515994	keystroke_r	r	n/a
258.057	0.12	516114	keystroke_e	e	n/a
258.207	0.12	516414	keystroke_Key.space	Key.space	n/a
258.5375	0.135	517075	keystroke_l	l	n/a
258.7025	0.135	517405	keystroke_i	i	n/a
258.8525	0.1345	517705	keystroke_c	c	n/a
258.972	0.15	517944	keystroke_e	e	n/a
259.107	0.135	518214	keystroke_n	n	n/a
259.257	0.09	518514	keystroke_s	s	n/a
259.692	0.105	519384	keystroke_i	i	n/a
259.767	0.1195	519534	keystroke_n	n	n/a
259.8715	0.075	519743	keystroke_g	g	n/a
260.0215	0.105	520043	keystroke_Key.space	Key.space	n/a
260.1275	0.089	520255	keystroke_s	s	n/a
260.3665	0.09	520733	keystroke_a	a	n/a
260.4715	0.135	520943	keystroke_l	l	n/a
260.6515	0.045	521303	keystroke_e	e	n/a
260.8315	0.09	521663	keystroke_s	s	n/a
260.9665	0.09	521933	keystroke_Key.space	Key.space	n/a
261.4915	0.12	522983	keystroke_l	l	n/a
261.5665	0.12	523133	keystroke_a	a	n/a
261.7615	0.0905	523523	keystroke_u	u	n/a
261.927	0.06	523854	keystroke_g	g	n/a
262.002	0.075	524004	keystroke_h	h	n/a
262.062	0.135	524124	keystroke_i	i	n/a
262.212	0.105	524424	keystroke_n	n	n/a
262.347	0.075	524694	keystroke_g	g	n/a
262.482	0.195	524964	keystroke_Key.enter	Key.enter	n/a
262.6815	5.172	525363	prompt	n/a	farm college affiliated report\n
263.3665	0.105	526733	keystroke_f	f	n/a
263.5765	0.075	527153	keystroke_a	a	n/a
263.7265	0.09	527453	keystroke_r	r	n/a
263.8315	0.075	527663	keystroke_m	m	n/a
264.0115	0.12	528023	keystroke_Key.space	Key.space	n/a
264.1165	0.09	528233	keystroke_c	c	n/a
264.2365	0.09	528473	keystroke_o	o	n/a
264.432	0.045	528864	keystroke_l	l	n/a
264.582	0.06	529164	keystroke_l	l	n/a
264.627	0.105	529254	keystroke_e	e	n/a
264.792	0.105	529584	keystroke_g	g	n/a
264.957	0.075	529914	keystroke_e	e	n/a
265.047	0.12	530094	keystroke_Key.space	Key.space	n/a
265.257	0.075	530514	keystroke_a	a	n/a
265.4965	0.06	530993	keystroke_f	f	n/a
265.6615	0.105	531323	keystroke_f	f	n/a
265.7815	0.1205	531563	keystroke_i	i	n/a
265.962	0.15	531924	keystroke_l	l	n/a
266.052	0.15	532104	keystroke_i	i	n/a
266.157	0.075	532314	keystroke_a	a	n/a
266.352	0.075	532704	keystroke_t	t	n/a
266.397	0.105	532794	keystroke_e	e	n/a
266.577	0.105	533154	keystroke_d	d	n/a
266.697	0.105	533394	keystroke_Key.space	Key.space	n/a
266.937	0.1345	533874	keystroke_r	r	n/a
267.0115	0.135	534023	keystroke_e	e	n/a
267.1615	0.12	534323	keystroke_p	p	n/a
267.1765	0.165	534353	keystroke_o	o	n/a
267.3265	0.075	534653	keystroke_r	r	n/a
267.5065	0.09	535013	keystroke_t	t	n/a
267.6565	0.195	535313	keystroke_Key.enter	Key.enter	n/a
267.8595	9.3395	535719	prompt	n/a	pension yale arrives banking\n
268.5115	0.09	537023	keystroke_o	o	n/a
268.5565	0.06	537113	keystroke_e	e	n/a
268.9465	0.06	537893	keystroke_Key.backspace	Key.backspace	n/a
269.1265	0.09	538253	keystroke_Key.backspace	Key.backspace	n/a
269.5315	0.105	539063	keystroke_p	p	n/a
269.6515	0.105	539303	keystroke_e	e	n/a
269.8315	0.0905	539663	keystroke_n	n	n/a
269.952	0.135	539904	keystroke_s	s	n/a
270.102	0.135	540204	keystroke_i	i	n/a
270.177	0.09	540354	keystroke_o	o	n/a
270.342	0.105	540684	keystroke_n	n	n/a
270.957	0.135	541914	keystroke_y	y	n/a
271.482	0.045	542964	keystroke_Key.backspace	Key.backspace	n/a
271.722	0.09	543444	keystroke_Key.space	Key.space	n/a
272.0815	0.105	544163	keystroke_y	y	n/a
272.2315	0.12	544463	keystroke_a	a	n/a
272.3665	0.105	544733	keystroke_l	l	n/a
272.5315	0.06	545063	keystroke_e	e	n/a
272.6365	0.105	545273	keystroke_Key.space	Key.space	n/a
272.9065	0.105	545813	keystroke_a	a	n/a
273.7015	0.075	547403	keystroke_r	r	n/a
273.8815	0.0755	547763	keystroke_r	r	n/a
274.002	0.12	548004	keystroke_i	i	n/a
274.152	0.09	548304	keystroke_v	v	n/a
274.272	0.12	548544	keystroke_e	e	n/a
274.512	0.09	549024	keystroke_s	s	n/a
274.572	0.09	549144	keystroke_Key.space	Key.space	n/a
274.767	0.105	549534	keystroke_b	b	n/a
274.887	0.09	549774	keystroke_a	a	n/a
275.007	0.12	550014	keystroke_j	j	n/a
275.5915	0.121	551183	keystroke_Key.backspace	Key.backspace	n/a
276.147	0.06	552294	keystroke_n	n	n/a
276.312	0.06	552624	keystroke_k	k	n/a
276.507	0.105	553014	keystroke_i	i	n/a
276.537	0.195	553074	keystroke_n	n	n/a
276.747	0.09	553494	keystroke_g	g	n/a
277.047	0.15	554094	keystroke_Key.enter	Key.enter	n/a
277.209	7.7895	554418	prompt	n/a	personalized silver genres inner\n
277.9475	0.1345	555895	keystroke_p	p	n/a
278.0065	0.1055	556013	keystroke_e	e	n/a
278.202	0.0895	556404	keystroke_r	r	n/a
278.3065	0.15	556613	keystroke_s	s	n/a
278.4115	0.06	556823	keystroke_o	o	n/a
278.5615	0.09	557123	keystroke_n	n	n/a
278.7565	0.195	557513	keystroke_l	l	n/a
280.1665	0.12	560333	keystroke_Key.backspace	Key.backspace	n/a
280.737	0.12	561474	keystroke_a	a	n/a
281.052	0.135	562104	keystroke_l	l	n/a
281.172	0.12	562344	keystroke_i	i	n/a
281.232	0.105	562464	keystroke_z	z	n/a
281.442	0.1345	562884	keystroke_e	e	n/a
281.6965	0.12	563393	keystroke_d	d	n/a
281.8315	0.105	563663	keystroke_Key.space	Key.space	n/a
282.147	0.105	564294	keystroke_s	s	n/a
282.282	0.0895	564564	keystroke_i	i	n/a
282.4765	0.105	564953	keystroke_l	l	n/a
282.5515	0.12	565103	keystroke_v	v	n/a
282.7165	0.135	565433	keystroke_e	e	n/a
282.8365	0.075	565673	keystroke_r	r	n/a
282.9265	0.09	565853	keystroke_Key.space	Key.space	n/a
283.1515	0.075	566303	keystroke_g	g	n/a
283.2115	0.105	566423	keystroke_e	e	n/a
283.3765	0.12	566753	keystroke_n	n	n/a
283.4365	0.105	566873	keystroke_e	e	n/a
283.5265	0.105	567053	keystroke_r	r	n/a
283.6915	0.045	567383	keystroke_a	a	n/a
283.8115	0.1205	567623	keystroke_t	t	n/a
283.902	0.105	567804	keystroke_e	e	n/a
284.067	0.105	568134	keystroke_s	s	n/a
284.127	0.075	568254	keystroke_Key.space	Key.space	n/a
284.277	0.12	568554	keystroke_i	i	n/a
284.382	0.06	568764	keystroke_n	n	n/a
284.532	0.105	569064	keystroke_n	n	n/a
284.637	0.12	569274	keystroke_e	e	n/a
284.712	0.12	569424	keystroke_r	r	n/a
284.862	0.135	569724	keystroke_Key.enter	Key.enter	n/a
285.003	5.5305	570006	prompt	n/a	herein gaming files people\n
285.9425	0.09	571885	keystroke_h	h	n/a
286.0175	0.09	572035	keystroke_e	e	n/a
286.227	0.09	572454	keystroke_r	r	n/a
286.887	0.09	573774	keystroke_e	e	n/a
286.992	0.06	573984	keystroke_i	i	n/a
287.037	0.12	574074	keystroke_n	n	n/a
287.262	0.135	574524	keystroke_Key.space	Key.space	n/a
287.5625	0.059	575125	keystroke_g	g	n/a
287.7425	0.105	575485	keystroke_a	a	n/a
287.7875	0.1195	575575	keystroke_m	m	n/a
287.937	0.1205	575874	keystroke_i	i	n/a
288.1175	0.105	576235	keystroke_n	n	n/a
288.2365	0.105	576473	keystroke_g	g	n/a
288.3565	0.105	576713	keystroke_Key.space	Key.space	n/a
288.8075	0.09	577615	keystroke_f	f	n/a
288.8975	0.0745	577795	keystroke_i	i	n/a
289.092	0.09	578184	keystroke_l	l	n/a
289.152	0.09	578304	keystroke_e	e	n/a
289.347	0.105	578694	keystroke_s	s	n/a
289.422	0.075	578844	keystroke_Key.space	Key.space	n/a
289.632	0.09	579264	keystroke_p	p	n/a
289.737	0.09	579474	keystroke_e	e	n/a
289.842	0.075	579684	keystroke_o	o	n/a
290.022	0.045	580044	keystroke_p	p	n/a
290.172	0.105	580344	keystroke_l	l	n/a
290.247	0.105	580494	keystroke_e	e	n/a
290.3965	0.135	580793	keystroke_Key.enter	Key.enter	n/a
290.536	5.6825	581072	prompt	n/a	debate guyana numeric performer\n
291.342	0.12	582684	keystroke_d	d	n/a
291.402	0.135	582804	keystroke_e	e	n/a
291.582	0.1195	583164	keystroke_b	b	n/a
291.6715	0.075	583343	keystroke_a	a	n/a
291.867	0.105	583734	keystroke_t	t	n/a
291.912	0.135	583824	keystroke_e	e	n/a
292.062	0.12	584124	keystroke_Key.space	Key.space	n/a
292.677	0.075	585354	keystroke_g	g	n/a
292.872	0.075	585744	keystroke_u	u	n/a
293.037	0.105	586074	keystroke_y	y	n/a
293.187	0.09	586374	keystroke_a	a	n/a
293.322	0.12	586644	keystroke_n	n	n/a
293.487	0.075	586974	keystroke_a	a	n/a
293.577	0.09	587154	keystroke_Key.space	Key.space	n/a
293.772	0.075	587544	keystroke_n	n	n/a
293.982	0.09	587964	keystroke_u	u	n/a
294.162	0.105	588324	keystroke_m	m	n/a
294.222	0.09	588444	keystroke_e	e	n/a
294.402	0.06	588804	keystroke_r	r	n/a
294.492	0.075	588984	keystroke_i	i	n/a
294.597	0.09	589194	keystroke_c	c	n/a
294.702	0.09	589404	keystroke_Key.space	Key.space	n/a
294.942	0.12	589884	keystroke_p	p	n/a
294.987	0.09	589974	keystroke_e	e	n/a
295.167	0.09	590334	keystroke_r	r	n/a
295.377	0.09	590754	keystroke_f	f	n/a
295.497	0.105	590994	keystroke_o	o	n/a
295.587	0.075	591174	keystroke_r	r	n/a
295.767	0.105	591534	keystroke_m	m	n/a
295.842	0.12	591684	keystroke_e	e	n/a
295.917	0.135	591834	keystroke_r	r	n/a
296.067	0.15	592134	keystroke_Key.enter	Key.enter	n/a
296.2225	5.846	592445	prompt	n/a	tasks interpreted blades cohen\n
296.9665	0.075	593933	keystroke_t	t	n/a
297.1465	0.12	594293	keystroke_a	a	n/a
297.2675	0.059	594535	keystroke_s	s	n/a
297.3415	0.03	594683	keystroke_k	k	n/a
297.7765	0.105	595553	keystroke_s	s	n/a
297.9265	0.12	595853	keystroke_Key.space	Key.space	n/a
298.1965	0.15	596393	keystroke_i	i	n/a
298.3015	0.165	596603	keystroke_n	n	n/a
298.4365	0.09	596873	keystroke_t	t	n/a
298.5715	0.12	597143	keystroke_e	e	n/a
298.6765	0.165	597353	keystroke_r	r	n/a
298.8865	0.15	597773	keystroke_p	p	n/a
299.1115	0.12	598223	keystroke_r	r	n/a
299.3965	0.135	598793	keystroke_e	e	n/a
299.6365	0.105	599273	keystroke_t	t	n/a
299.7565	0.105	599513	keystroke_e	e	n/a
299.8915	0.12	599783	keystroke_d	d	n/a
300.0415	0.12	600083	keystroke_Key.space	Key.space	n/a
300.2965	0.075	600593	keystroke_b	b	n/a
300.4765	0.1205	600953	keystroke_l	l	n/a
300.5065	0.075	601013	keystroke_a	a	n/a
300.687	0.12	601374	keystroke_d	d	n/a
300.762	0.09	601524	keystroke_e	e	n/a
300.942	0.12	601884	keystroke_s	s	n/a
301.077	0.045	602154	keystroke_Key.space	Key.space	n/a
301.227	0.12	602454	keystroke_c	c	n/a
301.332	0.105	602664	keystroke_o	o	n/a
301.527	0.105	603054	keystroke_h	h	n/a
301.632	0.12	603264	keystroke_e	e	n/a
301.737	0.075	603474	keystroke_n	n	n/a
301.917	0.15	603834	keystroke_Key.enter	Key.enter	n/a
302.071	5.2475	604142	prompt	n/a	duncan zero wave sixth\n
302.8925	0.12	605785	keystroke_d	d	n/a
303.0275	0.09	606055	keystroke_u	u	n/a
303.2225	0.15	606445	keystroke_n	n	n/a
303.3275	0.075	606655	keystroke_c	c	n/a
303.5225	0.09	607045	keystroke_a	a	n/a
303.5975	0.09	607195	keystroke_n	n	n/a
303.7625	0.15	607525	keystroke_Key.space	Key.space	n/a
304.3025	0.15	608605	keystroke_z	z	n/a
304.5575	0.105	609115	keystroke_e	e	n/a
304.782	0.12	609564	keystroke_r	r	n/a
304.977	0.09	609954	keystroke_o	o	n/a
305.172	0.1355	610344	keystroke_Key.space	Key.space	n/a
305.4575	0.075	610915	keystroke_w	w	n/a
305.6375	0.09	611275	keystroke_a	a	n/a
305.7425	0.09	611485	keystroke_v	v	n/a
305.847	0.0755	611694	keystroke_e	e	n/a
305.9525	0.12	611905	keystroke_Key.space	Key.space	n/a
306.0875	0.105	612175	keystroke_s	s	n/a
306.2375	0.15	612475	keystroke_i	i	n/a
306.6275	0.1195	613255	keystroke_x	x	n/a
306.852	0.12	613704	keystroke_t	t	n/a
306.957	0.075	613914	keystroke_h	h	n/a
307.137	0.18	614274	keystroke_Key.enter	Key.enter	n/a
307.323	5.5305	614646	prompt	n/a	reserved southwest hour academic\n
308.007	0.165	616014	keystroke_r	r	n/a
308.112	0.135	616224	keystroke_e	e	n/a
308.322	0.12	616644	keystroke_s	s	n/a
308.487	0.09	616974	keystroke_e	e	n/a
308.682	0.075	617364	keystroke_r	r	n/a
308.817	0.09	617634	keystroke_v	v	n/a
308.862	0.105	617724	keystroke_e	e	n/a
308.937	0.135	617874	keystroke_d	d	n/a
309.087	0.105	618174	keystroke_Key.space	Key.space	n/a
309.222	0.12	618444	keystroke_s	s	n/a
309.4025	0.135	618805	keystroke_o	o	n/a
309.5225	0.135	619045	keystroke_u	u	n/a
309.6725	0.075	619345	keystroke_t	t	n/a
309.7925	0.1195	619585	keystroke_h	h	n/a
309.987	0.09	619974	keystroke_w	w	n/a
310.107	0.105	620214	keystroke_e	e	n/a
310.272	0.105	620544	keystroke_s	s	n/a
310.467	0.09	620934	keystroke_t	t	n/a
310.587	0.105	621174	keystroke_Key.space	Key.space	n/a
310.8875	0.105	621775	keystroke_h	h	n/a
311.1125	0.105	622225	keystroke_o	o	n/a
311.1575	0.135	622315	keystroke_u	u	n/a
311.2775	0.075	622555	keystroke_r	r	n/a
311.3975	0.15	622795	keystroke_Key.space	Key.space	n/a
311.5325	0.075	623065	keystroke_a	a	n/a
311.7125	0.09	623425	keystroke_c	c	n/a
311.8775	0.075	623755	keystroke_a	a	n/a
312.1025	0.165	624205	keystroke_d	d	n/a
312.2375	0.1195	624475	keystroke_e	e	n/a
312.342	0.09	624684	keystroke_m	m	n/a
312.432	0.1495	624864	keystroke_i	i	n/a
312.5215	0.105	625043	keystroke_c	c	n/a
312.7165	0.135	625433	keystroke_Key.enter	Key.enter	n/a
312.856	7.5885	625712	prompt	n/a	flights howard easter notification\n
313.6615	0.091	627323	keystroke_f	f	n/a
313.7065	0.135	627413	keystroke_l	l	n/a
313.7965	0.1205	627593	keystroke_i	i	n/a
313.917	0.075	627834	keystroke_g	g	n/a
314.037	0.105	628074	keystroke_h	h	n/a
314.097	0.105	628194	keystroke_t	t	n/a
314.247	0.105	628494	keystroke_s	s	n/a
314.322	0.12	628644	keystroke_Key.space	Key.space	n/a
314.457	0.09	628914	keystroke_t	t	n/a
314.727	0.075	629454	keystroke_Key.backspace	Key.backspace	n/a
314.9515	0.075	629903	keystroke_h	h	n/a
315.1165	0.135	630233	keystroke_o	o	n/a
315.1765	0.09	630353	keystroke_w	w	n/a
315.3415	0.09	630683	keystroke_a	a	n/a
315.5065	0.075	631013	keystroke_r	r	n/a
315.6865	0.075	631373	keystroke_d	d	n/a
315.7625	0.119	631525	keystroke_Key.space	Key.space	n/a
315.8965	0.09	631793	keystroke_e	e	n/a
316.0765	0.12	632153	keystroke_a	a	n/a
316.1515	0.12	632303	keystroke_s	s	n/a
316.4065	0.09	632813	keystroke_t	t	n/a
316.5275	0.119	633055	keystroke_e	e	n/a
316.6315	0.09	633263	keystroke_r	r	n/a
316.7365	0.09	633473	keystroke_Key.space	Key.space	n/a
316.9615	0.09	633923	keystroke_n	n	n/a
317.1265	0.1355	634253	keystroke_o	o	n/a
317.247	0.075	634494	keystroke_t	t	n/a
317.352	0.105	634704	keystroke_i	i	n/a
317.472	0.075	634944	keystroke_f	f	n/a
317.577	0.09	635154	keystroke_i	i	n/a
317.652	0.075	635304	keystroke_c	c	n/a
317.832	0.075	635664	keystroke_a	a	n/a
317.967	0.09	635934	keystroke_t	t	n/a
318.012	0.12	636024	keystroke_i	i	n/a
318.102	0.075	636204	keystroke_o	o	n/a
318.252	0.105	636504	keystroke_n	n	n/a
320.3225	0.12	640645	keystroke_Key.enter	Key.enter	n/a
320.4545	8.6445	640909	prompt	n/a	shoppers collective rendering scanner\n
321.1175	0.12	642235	keystroke_s	s	n/a
321.2675	0.09	642535	keystroke_h	h	n/a
321.5375	0.15	643075	keystroke_o	o	n/a
321.6125	0.12	643225	keystroke_p	p	n/a
321.8375	0.12	643675	keystroke_p	p	n/a
321.9425	0.09	643885	keystroke_e	e	n/a
322.1225	0.105	644245	keystroke_r	r	n/a
322.2125	0.105	644425	keystroke_s	s	n/a
322.3025	0.105	644605	keystroke_Key.space	Key.space	n/a
322.4675	0.12	644935	keystroke_c	c	n/a
322.6025	0.075	645205	keystroke_o	o	n/a
322.7825	0.06	645565	keystroke_l	l	n/a
322.9175	0.1195	645835	keystroke_l	l	n/a
322.9475	0.0745	645895	keystroke_e	e	n/a
323.233	0.074	646466	keystroke_c	c	n/a
323.337	0.12	646674	keystroke_c	c	n/a
323.592	0.09	647184	keystroke_t	t	n/a
323.712	0.12	647424	keystroke_i	i	n/a
323.802	0.105	647604	keystroke_v	v	n/a
324.297	0.0605	648594	keystroke_Key.backspace	Key.backspace	n/a
324.4625	0.075	648925	keystroke_Key.backspace	Key.backspace	n/a
324.6425	0.09	649285	keystroke_Key.backspace	Key.backspace	n/a
324.8525	0.075	649705	keystroke_Key.backspace	Key.backspace	n/a
325.0025	0.09	650005	keystroke_t	t	n/a
325.1525	0.075	650305	keystroke_i	i	n/a
325.2425	0.09	650485	keystroke_v	v	n/a
325.5575	0.09	651115	keystroke_e	e	n/a
325.7225	0.12	651445	keystroke_Key.space	Key.space	n/a
326.2925	0.135	652585	keystroke_r	r	n/a
326.3825	0.105	652765	keystroke_e	e	n/a
326.5325	0.12	653065	keystroke_n	n	n/a
326.6675	0.12	653335	keystroke_d	d	n/a
326.7275	0.105	653455	keystroke_e	e	n/a
326.8925	0.09	653785	keystroke_r	r	n/a
326.9675	0.1195	653935	keystroke_i	i	n/a
327.132	0.15	654264	keystroke_n	n	n/a
327.267	0.075	654534	keystroke_g	g	n/a
327.402	0.12	654804	keystroke_Key.space	Key.space	n/a
327.657	0.09	655314	keystroke_s	s	n/a
328.032	0.06	656064	keystroke_c	c	n/a
328.197	0.105	656394	keystroke_a	a	n/a
328.332	0.06	656664	keystroke_n	n	n/a
328.4825	0.09	656965	keystroke_n	n	n/a
328.5575	0.06	657115	keystroke_e	e	n/a
328.7375	0.105	657475	keystroke_r	r	n/a
328.9475	0.15	657895	keystroke_Key.enter	Key.enter	n/a
329.1095	6.514	658219	prompt	n/a	laptop immediate canal gallery\n
329.8175	0.15	659635	keystroke_l	l	n/a
330.0875	0.135	660175	keystroke_a	a	n/a
330.1775	0.12	660355	keystroke_p	p	n/a
330.4025	0.12	660805	keystroke_t	t	n/a
330.5375	0.06	661075	keystroke_o	o	n/a
330.7175	0.075	661435	keystroke_p	p	n/a
330.972	0.12	661944	keystroke_Key.space	Key.space	n/a
331.362	0.105	662724	keystroke_i	i	n/a
331.482	0.075	662964	keystroke_m	m	n/a
331.662	0.105	663324	keystroke_m	m	n/a
331.737	0.075	663474	keystroke_e	e	n/a
331.932	0.075	663864	keystroke_d	d	n/a
332.037	0.12	664074	keystroke_i	i	n/a
332.127	0.075	664254	keystroke_a	a	n/a
332.307	0.09	664614	keystroke_t	t	n/a
332.382	0.12	664764	keystroke_e	e	n/a
332.517	0.12	665034	keystroke_Key.space	Key.space	n/a
332.862	0.06	665724	keystroke_c	c	n/a
333.027	0.075	666054	keystroke_a	a	n/a
333.147	0.105	666294	keystroke_n	n	n/a
333.282	0.09	666564	keystroke_a	a	n/a
333.387	0.105	666774	keystroke_l	l	n/a
333.642	0.075	667284	keystroke_Key.space	Key.space	n/a
334.167	0.075	668334	keystroke_g	g	n/a
334.257	0.09	668514	keystroke_a	a	n/a
334.602	0.09	669204	keystroke_l	l	n/a
334.797	0.105	669594	keystroke_l	l	n/a
334.947	0.075	669894	keystroke_e	e	n/a
335.127	0.12	670254	keystroke_r	r	n/a
335.247	0.045	670494	keystroke_y	y	n/a
335.517	0.105	671034	keystroke_Key.enter	Key.enter	n/a
335.626	8.458	671252	prompt	n/a	workout assurance morgan disagree\n
336.2375	0.12	672475	keystroke_w	w	n/a
336.4475	0.09	672895	keystroke_o	o	n/a
336.8375	0.09	673675	keystroke_r	r	n/a
337.0625	0.15	674125	keystroke_k	k	n/a
337.5275	0.135	675055	keystroke_o	o	n/a
337.7075	0.135	675415	keystroke_u	u	n/a
337.9025	0.12	675805	keystroke_t	t	n/a
338.1415	0.135	676283	keystroke_Key.space	Key.space	n/a
338.637	0.105	677274	keystroke_a	a	n/a
338.787	0.09	677574	keystroke_s	s	n/a
338.982	0.105	677964	keystroke_s	s	n/a
339.207	0.105	678414	keystroke_u	u	n/a
339.282	0.0745	678564	keystroke_r	r	n/a
339.402	0.1045	678804	keystroke_a	a	n/a
339.5365	0.1205	679073	keystroke_n	n	n/a
339.6415	0.09	679283	keystroke_c	c	n/a
339.7015	0.121	679403	keystroke_e	e	n/a
339.8665	0.1055	679733	keystroke_Key.space	Key.space	n/a
340.1215	0.075	680243	keystroke_m	m	n/a
340.2725	0.1045	680545	keystroke_o	o	n/a
340.362	0.09	680724	keystroke_r	r	n/a
340.512	0.105	681024	keystroke_g	g	n/a
340.632	0.105	681264	keystroke_a	a	n/a
340.752	0.075	681504	keystroke_n	n	n/a
340.9325	0.12	681865	keystroke_Key.space	Key.space	n/a
342.822	0.06	685644	keystroke_d	d	n/a
342.927	0.135	685854	keystroke_i	i	n/a
343.017	0.09	686034	keystroke_s	s	n/a
343.212	0.105	686424	keystroke_a	a	n/a
343.332	0.09	686664	keystroke_g	g	n/a
343.452	0.15	686904	keystroke_r	r	n/a
343.617	0.075	687234	keystroke_e	e	n/a
343.797	0.09	687594	keystroke_e	e	n/a
343.917	0.165	687834	keystroke_Key.enter	Key.enter	n/a
344.0945	16.2945	688189	prompt	n/a	oxygen who'd've officially locator\n
345.4465	0.12	690893	keystroke_o	o	n/a
345.6125	0.105	691225	keystroke_x	x	n/a
345.7315	0.105	691463	keystroke_y	y	n/a
346.0165	0.09	692033	keystroke_g	g	n/a
346.1215	0.105	692243	keystroke_e	e	n/a
346.2715	0.105	692543	keystroke_n	n	n/a
347.787	0.12	695574	keystroke_Key.space	Key.space	n/a
347.997	0.09	695994	keystroke_w	w	n/a
348.087	0.09	696174	keystroke_h	h	n/a
348.327	0.165	696654	keystroke_o	o	n/a
349.992	0.105	699984	keystroke_'	'	n/a
350.277	0.09	700554	keystroke_d	d	n/a
351.957	0.105	703914	keystroke_'	'	n/a
352.197	0.135	704394	keystroke_v	v	n/a
352.422	0.15	704844	keystroke_e	e	n/a
352.632	0.105	705264	keystroke_Key.space	Key.space	n/a
353.742	0.18	707484	keystroke_o	o	n/a
354.102	0.09	708204	keystroke_f	f	n/a
354.342	0.12	708684	keystroke_f	f	n/a
354.987	0.12	709974	keystroke_i	i	n/a
356.127	0.105	712254	keystroke_c	c	n/a
356.397	0.1055	712794	keystroke_i	i	n/a
357.117	0.1205	714234	keystroke_a	a	n/a
357.4625	0.03	714925	keystroke_l	l	n/a
357.6275	0.06	715255	keystroke_l	l	n/a
358.0025	0.09	716005	keystroke_y	y	n/a
358.2725	0.09	716545	keystroke_Key.space	Key.space	n/a
359.142	0.075	718284	keystroke_l	l	n/a
359.322	0.1055	718644	keystroke_o	o	n/a
359.3825	0.075	718765	keystroke_c	c	n/a
359.5625	0.105	719125	keystroke_a	a	n/a
359.7575	0.105	719515	keystroke_t	t	n/a
359.9375	0.105	719875	keystroke_o	o	n/a
360.0275	0.09	720055	keystroke_r	r	n/a
360.2525	0.135	720505	keystroke_Key.enter	Key.enter	n/a
360.4	10.249	720800	prompt	n/a	perspective somalia five calm\n
361.0175	0.105	722035	keystroke_p	p	n/a
361.1075	0.0895	722215	keystroke_e	e	n/a
361.3015	0.06	722603	keystroke_r	r	n/a
361.452	0.1205	722904	keystroke_s	s	n/a
361.9475	0.12	723895	keystroke_p	p	n/a
362.0375	0.09	724075	keystroke_e	e	n/a
362.3225	0.149	724645	keystroke_c	c	n/a
362.6215	0.075	725243	keystroke_t	t	n/a
362.7425	0.105	725485	keystroke_i	i	n/a
362.8025	0.12	725605	keystroke_v	v	n/a
362.9515	0.12	725903	keystroke_e	e	n/a
363.0565	0.09	726113	keystroke_Key.space	Key.space	n/a
363.1775	0.119	726355	keystroke_s	s	n/a
363.2975	0.075	726595	keystroke_o	o	n/a
363.3865	0.166	726773	keystroke_m	m	n/a
363.927	0.12	727854	keystroke_a	a	n/a
364.092	0.12	728184	keystroke_l	l	n/a
364.182	0.1055	728364	keystroke_i	i	n/a
364.3025	0.1045	728605	keystroke_a	a	n/a
364.452	0.12	728904	keystroke_Key.space	Key.space	n/a
365.9225	0.075	731845	keystroke_Key.backspace	Key.backspace	n/a
366.1175	0.075	732235	keystroke_Key.backspace	Key.backspace	n/a
366.312	0.0605	732624	keystroke_Key.backspace	Key.backspace	n/a
366.8225	0.045	733645	keystroke_Key.backspace	Key.backspace	n/a
368.2475	0.15	736495	keystroke_l	l	n/a
368.3825	0.1195	736765	keystroke_i	i	n/a
368.487	0.1055	736974	keystroke_a	a	n/a
368.6375	0.105	737275	keystroke_Key.space	Key.space	n/a
368.9375	0.105	737875	keystroke_f	f	n/a
369.1175	0.105	738235	keystroke_i	i	n/a
369.2225	0.06	738445	keystroke_v	v	n/a
369.2975	0.1195	738595	keystroke_e	e	n/a
369.477	0.105	738954	keystroke_Key.space	Key.space	n/a
369.8975	0.09	739795	keystroke_c	c	n/a
370.0775	0.105	740155	keystroke_a	a	n/a
370.1675	0.09	740335	keystroke_l	l	n/a
370.2875	0.105	740575	keystroke_m	m	n/a
370.5275	0.12	741055	keystroke_Key.enter	Key.enter	n/a
370.659	4.145	741318	prompt	n/a	printing women polo series\n
371.217	0.1505	742434	keystroke_p	p	n/a
371.3825	0.09	742765	keystroke_r	r	n/a
371.5325	0.12	743065	keystroke_i	i	n/a
371.6375	0.12	743275	keystroke_n	n	n/a
371.7725	0.1045	743545	keystroke_t	t	n/a
371.8625	0.0745	743725	keystroke_i	i	n/a
371.967	0.12	743934	keystroke_n	n	n/a
372.102	0.06	744204	keystroke_g	g	n/a
372.207	0.09	744414	keystroke_Key.space	Key.space	n/a
372.312	0.1055	744624	keystroke_w	w	n/a
372.4325	0.075	744865	keystroke_o	o	n/a
372.4775	0.135	744955	keystroke_m	m	n/a
372.5975	0.09	745195	keystroke_e	e	n/a
372.7175	0.075	745435	keystroke_n	n	n/a
372.8975	0.075	745795	keystroke_Key.space	Key.space	n/a
373.1675	0.15	746335	keystroke_p	p	n/a
373.2725	0.12	746545	keystroke_o	o	n/a
373.4675	0.075	746935	keystroke_l	l	n/a
373.6175	0.075	747235	keystroke_o	o	n/a
373.8125	0.105	747625	keystroke_Key.space	Key.space	n/a
373.8875	0.075	747775	keystroke_s	s	n/a
374.0075	0.09	748015	keystroke_e	e	n/a
374.1875	0.075	748375	keystroke_r	r	n/a
374.3225	0.09	748645	keystroke_i	i	n/a
374.4125	0.105	748825	keystroke_e	e	n/a
374.5775	0.12	749155	keystroke_s	s	n/a
374.6675	0.135	749335	keystroke_Key.enter	Key.enter	n/a
374.808	11.636	749616	prompt	n/a	january burlington inspection proposals\n
375.687	0.09	751374	keystroke_j	j	n/a
375.807	0.105	751614	keystroke_a	a	n/a
375.927	0.105	751854	keystroke_n	n	n/a
376.122	0.105	752244	keystroke_u	u	n/a
376.437	0.1355	752874	keystroke_a	a	n/a
376.7825	0.105	753565	keystroke_Key.backspace	Key.backspace	n/a
376.9025	0.075	753805	keystroke_r	r	n/a
377.0675	0.12	754135	keystroke_a	a	n/a
377.3825	0.06	754765	keystroke_Key.backspace	Key.backspace	n/a
377.562	0.06	755124	keystroke_Key.backspace	Key.backspace	n/a
378.192	0.105	756384	keystroke_a	a	n/a
378.417	0.075	756834	keystroke_r	r	n/a
378.522	0.09	757044	keystroke_y	y	n/a
378.747	0.105	757494	keystroke_Key.space	Key.space	n/a
379.287	0.09	758574	keystroke_b	b	n/a
379.692	0.1655	759384	keystroke_u	u	n/a
379.902	0.105	759804	keystroke_r	r	n/a
380.157	0.09	760314	keystroke_l	l	n/a
380.367	0.105	760734	keystroke_i	i	n/a
380.457	0.15	760914	keystroke_n	n	n/a
380.562	0.075	761124	keystroke_g	g	n/a
380.757	0.09	761514	keystroke_t	t	n/a
380.802	0.105	761604	keystroke_o	o	n/a
381.012	0.105	762024	keystroke_n	n	n/a
381.252	0.075	762504	keystroke_Key.space	Key.space	n/a
381.492	0.1355	762984	keystroke_i	i	n/a
381.6425	0.135	763285	keystroke_n	n	n/a
382.1075	0.12	764215	keystroke_s	s	n/a
382.3175	0.165	764635	keystroke_p	p	n/a
382.4375	0.075	764875	keystroke_e	e	n/a
382.6475	0.075	765295	keystroke_c	c	n/a
382.8425	0.09	765685	keystroke_t	t	n/a
382.8725	0.1645	765745	keystroke_i	i	n/a
382.9625	0.1045	765925	keystroke_o	o	n/a
383.172	0.09	766344	keystroke_n	n	n/a
383.352	0.09	766704	keystroke_Key.space	Key.space	n/a
383.592	0.12	767184	keystroke_p	p	n/a
383.667	0.09	767334	keystroke_r	r	n/a
384.8825	0.12	769765	keystroke_o	o	n/a
385.182	0.18	770364	keystroke_p	p	n/a
385.347	0.15	770694	keystroke_o	o	n/a
385.467	0.105	770934	keystroke_s	s	n/a
385.677	0.105	771354	keystroke_a	a	n/a
385.812	0.135	771624	keystroke_l	l	n/a
385.962	0.12	771924	keystroke_s	s	n/a
386.292	0.15	772584	keystroke_Key.enter	Key.enter	n/a
386.4545	7.3395	772909	prompt	n/a	lightweight angola logitech warehouse\n
387.4625	0.105	774925	keystroke_l	l	n/a
387.5825	0.105	775165	keystroke_i	i	n/a
387.7025	0.105	775405	keystroke_g	g	n/a
387.8675	0.105	775735	keystroke_h	h	n/a
387.9425	0.09	775885	keystroke_t	t	n/a
388.1525	0.1345	776305	keystroke_w	w	n/a
388.2425	0.1345	776485	keystroke_e	e	n/a
388.392	0.1055	776784	keystroke_i	i	n/a
388.5125	0.09	777025	keystroke_g	g	n/a
388.6325	0.105	777265	keystroke_h	h	n/a
388.7225	0.09	777445	keystroke_t	t	n/a
388.8575	0.12	777715	keystroke_Key.space	Key.space	n/a
388.9925	0.12	777985	keystroke_a	a	n/a
389.1275	0.12	778255	keystroke_n	n	n/a
389.3825	0.075	778765	keystroke_g	g	n/a
389.4875	0.075	778975	keystroke_o	o	n/a
389.6375	0.105	779275	keystroke_l	l	n/a
389.7575	0.09	779515	keystroke_a	a	n/a
389.8775	0.15	779755	keystroke_Key.space	Key.space	n/a
390.4775	0.105	780955	keystroke_l	l	n/a
390.7025	0.105	781405	keystroke_o	o	n/a
390.8825	0.105	781765	keystroke_g	g	n/a
391.0475	0.105	782095	keystroke_i	i	n/a
391.2725	0.105	782545	keystroke_t	t	n/a
391.3925	0.09	782785	keystroke_e	e	n/a
391.5875	0.12	783175	keystroke_c	c	n/a
391.6925	0.075	783385	keystroke_h	h	n/a
391.9025	0.12	783805	keystroke_Key.space	Key.space	n/a
392.1725	0.105	784345	keystroke_w	w	n/a
392.2325	0.09	784465	keystroke_e	e	n/a
392.6225	0.12	785245	keystroke_Key.backspace	Key.backspace	n/a
392.7275	0.075	785455	keystroke_a	a	n/a
392.8775	0.135	785755	keystroke_r	r	n/a
392.9525	0.12	785905	keystroke_e	e	n/a
393.1175	0.09	786235	keystroke_h	h	n/a
393.3125	0.075	786625	keystroke_o	o	n/a
393.3425	0.105	786685	keystroke_u	u	n/a
393.4325	0.06	786865	keystroke_s	s	n/a
393.5075	0.12	787015	keystroke_e	e	n/a
393.6425	0.15	787285	keystroke_Key.enter	Key.enter	n/a
393.798	8.4865	787596	prompt	n/a	harbor fellowship seminar afghanistan\n
394.8875	0.09	789775	keystroke_h	h	n/a
394.9325	0.105	789865	keystroke_a	a	n/a
395.1125	0.105	790225	keystroke_r	r	n/a
395.1725	0.09	790345	keystroke_b	b	n/a
395.3825	0.09	790765	keystroke_o	o	n/a
395.4875	0.09	790975	keystroke_r	r	n/a
395.6375	0.09	791275	keystroke_Key.space	Key.space	n/a
396.0575	0.09	792115	keystroke_f	f	n/a
396.1625	0.12	792325	keystroke_e	e	n/a
396.3275	0.045	792655	keystroke_l	l	n/a
396.4775	0.075	792955	keystroke_l	l	n/a
396.6575	0.12	793315	keystroke_o	o	n/a
396.6875	0.12	793375	keystroke_w	w	n/a
396.9725	0.15	793945	keystroke_s	s	n/a
397.1375	0.06	794275	keystroke_h	h	n/a
397.3325	0.105	794665	keystroke_i	i	n/a
397.4825	0.09	794965	keystroke_p	p	n/a
397.7215	0.106	795443	keystroke_Key.space	Key.space	n/a
397.9475	0.1045	795895	keystroke_s	s	n/a
398.142	0.105	796284	keystroke_e	e	n/a
398.232	0.12	796464	keystroke_m	m	n/a
398.367	0.09	796734	keystroke_i	i	n/a
398.502	0.09	797004	keystroke_n	n	n/a
398.547	0.075	797094	keystroke_a	a	n/a
398.772	0.045	797544	keystroke_r	r	n/a
398.832	0.1055	797664	keystroke_Key.space	Key.space	n/a
399.177	0.12	798354	keystroke_a	a	n/a
399.6865	0.091	799373	keystroke_f	f	n/a
400.1375	0.075	800275	keystroke_g	g	n/a
400.3315	0.09	800663	keystroke_h	h	n/a
400.4665	0.091	800933	keystroke_a	a	n/a
400.5725	0.075	801145	keystroke_n	n	n/a
400.6925	0.119	801385	keystroke_i	i	n/a
400.7515	0.061	801503	keystroke_s	s	n/a
400.8865	0.09	801773	keystroke_t	t	n/a
401.0815	0.105	802163	keystroke_a	a	n/a
401.1725	0.074	802345	keystroke_n	n	n/a
401.4115	0.0755	802823	keystroke_Key.space	Key.space	n/a
401.8615	0.121	803723	keystroke_Key.backspace	Key.backspace	n/a
402.147	0.1345	804294	keystroke_Key.enter	Key.enter	n/a
402.2945	5.629	804589	prompt	n/a	computing steel helen jane\n
403.0175	0.12	806035	keystroke_c	c	n/a
403.1225	0.149	806245	keystroke_o	o	n/a
403.2275	0.119	806455	keystroke_m	m	n/a
403.437	0.165	806874	keystroke_p	p	n/a
403.617	0.12	807234	keystroke_u	u	n/a
403.707	0.12	807414	keystroke_t	t	n/a
403.9025	0.165	807805	keystroke_i	i	n/a
404.0365	0.136	808073	keystroke_n	n	n/a
404.1575	0.105	808315	keystroke_g	g	n/a
404.3075	0.12	808615	keystroke_Key.space	Key.space	n/a
404.7275	0.09	809455	keystroke_s	s	n/a
404.9075	0.105	809815	keystroke_t	t	n/a
405.0425	0.09	810085	keystroke_e	e	n/a
405.2225	0.089	810445	keystroke_e	e	n/a
405.3725	0.135	810745	keystroke_l	l	n/a
405.6265	0.106	811253	keystroke_Key.space	Key.space	n/a
405.8675	0.1195	811735	keystroke_h	h	n/a
405.972	0.0905	811944	keystroke_e	e	n/a
406.1675	0.105	812335	keystroke_l	l	n/a
406.2875	0.09	812575	keystroke_e	e	n/a
406.3915	0.106	812783	keystroke_n	n	n/a
406.6025	0.09	813205	keystroke_Key.space	Key.space	n/a
406.8575	0.06	813715	keystroke_h	h	n/a
407.1725	0.12	814345	keystroke_Key.backspace	Key.backspace	n/a
407.3975	0.075	814795	keystroke_j	j	n/a
407.4875	0.09	814975	keystroke_a	a	n/a
407.5925	0.074	815185	keystroke_n	n	n/a
407.6965	0.076	815393	keystroke_e	e	n/a
407.7865	0.1355	815573	keystroke_Key.enter	Key.enter	n/a
407.9315	9.3685	815863	prompt	n/a	facilities wish body wanted\n
408.7025	0.0895	817405	keystroke_f	f	n/a
408.8975	0.09	817795	keystroke_a	a	n/a
409.1825	0.015	818365	keystroke_c	c	n/a
409.242	0.105	818484	keystroke_i	i	n/a
409.362	0.09	818724	keystroke_t	t	n/a
409.4975	0.075	818995	keystroke_i	i	n/a
409.6775	0.12	819355	keystroke_l	l	n/a
409.7525	0.165	819505	keystroke_i	i	n/a
409.8425	0.09	819685	keystroke_t	t	n/a
410.2175	0.0895	820435	keystroke_i	i	n/a
410.368	0.089	820736	keystroke_e	e	n/a
410.547	0.12	821094	keystroke_s	s	n/a
410.622	0.12	821244	keystroke_Key.space	Key.space	n/a
411.2675	0.045	822535	keystroke_Key.backspace	Key.backspace	n/a
411.3875	0.06	822775	keystroke_Key.backspace	Key.backspace	n/a
411.5675	0.0595	823135	keystroke_Key.backspace	Key.backspace	n/a
411.732	0.06	823464	keystroke_Key.backspace	Key.backspace	n/a
411.912	0.06	823824	keystroke_Key.backspace	Key.backspace	n/a
412.092	0.06	824184	keystroke_Key.backspace	Key.backspace	n/a
412.272	0.06	824544	keystroke_Key.backspace	Key.backspace	n/a
412.437	0.075	824874	keystroke_Key.backspace	Key.backspace	n/a
412.692	0.06	825384	keystroke_Key.backspace	Key.backspace	n/a
413.427	0.135	826854	keystroke_l	l	n/a
413.578	0.119	827156	keystroke_i	i	n/a
413.712	0.09	827424	keystroke_t	t	n/a
413.817	0.1055	827634	keystroke_i	i	n/a
413.9075	0.09	827815	keystroke_e	e	n/a
414.0875	0.09	828175	keystroke_s	s	n/a
414.1925	0.105	828385	keystroke_Key.space	Key.space	n/a
414.3125	0.1055	828625	keystroke_w	w	n/a
414.492	0.12	828984	keystroke_a	a	n/a
414.837	0.09	829674	keystroke_Key.backspace	Key.backspace	n/a
415.062	0.121	830124	keystroke_i	i	n/a
415.197	0.09	830394	keystroke_s	s	n/a
415.302	0.09	830604	keystroke_h	h	n/a
415.527	0.075	831054	keystroke_Key.space	Key.space	n/a
415.707	0.075	831414	keystroke_b	b	n/a
415.9025	0.09	831805	keystroke_o	o	n/a
416.0225	0.075	832045	keystroke_d	d	n/a
416.1425	0.075	832285	keystroke_y	y	n/a
416.3225	0.12	832645	keystroke_Key.space	Key.space	n/a
416.3825	0.075	832765	keystroke_w	w	n/a
416.5475	0.09	833095	keystroke_a	a	n/a
416.6675	0.12	833335	keystroke_n	n	n/a
416.7725	0.09	833545	keystroke_t	t	n/a
416.8325	0.12	833665	keystroke_e	e	n/a
417.0125	0.1055	834025	keystroke_d	d	n/a
417.147	0.15	834294	keystroke_Key.enter	Key.enter	n/a
417.31	7.0995	834620	prompt	n/a	bird champion lease motorcycles\n
418.0625	0.09	836125	keystroke_b	b	n/a
418.2425	0.12	836485	keystroke_i	i	n/a
418.3325	0.09	836665	keystroke_r	r	n/a
418.5275	0.075	837055	keystroke_d	d	n/a
418.6175	0.105	837235	keystroke_Key.space	Key.space	n/a
418.7375	0.075	837475	keystroke_c	c	n/a
418.8575	0.09	837715	keystroke_h	h	n/a
419.0225	0.12	838045	keystroke_a	a	n/a
419.173	0.074	838346	keystroke_m	m	n/a
419.368	0.105	838736	keystroke_p	p	n/a
419.547	0.135	839094	keystroke_i	i	n/a
419.653	0.09	839306	keystroke_o	o	n/a
419.848	0.089	839696	keystroke_n	n	n/a
420.027	0.09	840054	keystroke_Key.space	Key.space	n/a
420.297	0.135	840594	keystroke_l	l	n/a
420.447	0.105	840894	keystroke_e	e	n/a
420.582	0.135	841164	keystroke_a	a	n/a
420.687	0.09	841374	keystroke_s	s	n/a
420.882	0.106	841764	keystroke_e	e	n/a
421.032	0.12	842064	keystroke_Key.space	Key.space	n/a
421.3175	0.1045	842635	keystroke_m	m	n/a
421.512	0.1505	843024	keystroke_o	o	n/a
422.083	0.105	844166	keystroke_t	t	n/a
422.517	0.106	845034	keystroke_o	o	n/a
422.608	0.09	845216	keystroke_r	r	n/a
422.818	0.105	845636	keystroke_c	c	n/a
422.968	0.0745	845936	keystroke_y	y	n/a
423.6875	0.09	847375	keystroke_c	c	n/a
423.8525	0.09	847705	keystroke_l	l	n/a
423.9125	0.09	847825	keystroke_e	e	n/a
424.0925	0.105	848185	keystroke_s	s	n/a
424.2425	0.165	848485	keystroke_Key.enter	Key.enter	n/a
424.4195	4.3695	848839	prompt	n/a	carrying moment flash knight\n
424.9475	0.09	849895	keystroke_c	c	n/a
425.1275	0.09	850255	keystroke_a	a	n/a
425.3675	0.06	850735	keystroke_r	r	n/a
425.5475	0.06	851095	keystroke_r	r	n/a
425.6225	0.105	851245	keystroke_y	y	n/a
425.7425	0.09	851485	keystroke_i	i	n/a
425.8775	0.105	851755	keystroke_n	n	n/a
425.9975	0.06	851995	keystroke_g	g	n/a
426.1025	0.09	852205	keystroke_Key.space	Key.space	n/a
426.2975	0.06	852595	keystroke_m	m	n/a
426.3275	0.1045	852655	keystroke_o	o	n/a
426.508	0.089	853016	keystroke_m	m	n/a
426.628	0.044	853256	keystroke_e	e	n/a
426.732	0.09	853464	keystroke_n	n	n/a
426.837	0.091	853674	keystroke_t	t	n/a
426.942	0.091	853884	keystroke_Key.space	Key.space	n/a
427.152	0.105	854304	keystroke_f	f	n/a
427.272	0.075	854544	keystroke_l	l	n/a
427.408	0.134	854816	keystroke_a	a	n/a
427.528	0.09	855056	keystroke_s	s	n/a
427.662	0.06	855324	keystroke_h	h	n/a
427.842	0.091	855684	keystroke_Key.space	Key.space	n/a
427.977	0.136	855954	keystroke_k	k	n/a
428.083	0.09	856166	keystroke_n	n	n/a
428.202	0.135	856404	keystroke_i	i	n/a
428.352	0.06	856704	keystroke_g	g	n/a
428.442	0.09	856884	keystroke_h	h	n/a
428.562	0.091	857124	keystroke_t	t	n/a
428.697	0.09	857394	keystroke_Key.enter	Key.enter	n/a
428.7915	5.262	857583	prompt	n/a	closer built survive mention\n
429.537	0.09	859074	keystroke_c	c	n/a
429.612	0.09	859224	keystroke_l	l	n/a
429.807	0.0905	859614	keystroke_o	o	n/a
429.837	0.1205	859674	keystroke_s	s	n/a
430.0025	0.09	860005	keystroke_e	e	n/a
430.1825	0.12	860365	keystroke_r	r	n/a
430.2875	0.105	860575	keystroke_Key.space	Key.space	n/a
430.8875	0.03	861775	keystroke_b	b	n/a
431.1425	0.12	862285	keystroke_u	u	n/a
431.2175	0.105	862435	keystroke_i	i	n/a
431.5175	0.015	863035	keystroke_l	l	n/a
431.5475	0.0745	863095	keystroke_t	t	n/a
431.637	0.135	863274	keystroke_Key.space	Key.space	n/a
431.757	0.075	863514	keystroke_s	s	n/a
431.892	0.075	863784	keystroke_e	e	n/a
432.072	0.06	864144	keystroke_r	r	n/a
432.477	0.075	864954	keystroke_v	v	n/a
432.597	0.09	865194	keystroke_i	i	n/a
432.702	0.135	865404	keystroke_c	c	n/a
432.762	0.135	865524	keystroke_e	e	n/a
432.882	0.075	865764	keystroke_Key.space	Key.space	n/a
433.062	0.105	866124	keystroke_m	m	n/a
433.152	0.075	866304	keystroke_e	e	n/a
433.287	0.09	866574	keystroke_n	n	n/a
433.392	0.1055	866784	keystroke_t	t	n/a
433.5125	0.105	867025	keystroke_i	i	n/a
433.5725	0.075	867145	keystroke_o	o	n/a
433.7225	0.09	867445	keystroke_n	n	n/a
433.947	0.105	867894	keystroke_Key.enter	Key.enter	n/a
434.0565	5.2325	868113	prompt	n/a	mail sleeping greatly vessel\n
434.6075	0.105	869215	keystroke_m	m	n/a
434.7575	0.1355	869515	keystroke_a	a	n/a
434.878	0.12	869756	keystroke_i	i	n/a
435.058	0.09	870116	keystroke_l	l	n/a
435.252	0.091	870504	keystroke_Key.space	Key.space	n/a
435.358	0.12	870716	keystroke_s	s	n/a
435.463	0.075	870926	keystroke_l	l	n/a
435.568	0.074	871136	keystroke_e	e	n/a
435.748	0.075	871496	keystroke_e	e	n/a
435.807	0.091	871614	keystroke_p	p	n/a
436.032	0.1055	872064	keystroke_i	i	n/a
436.092	0.1055	872184	keystroke_n	n	n/a
436.1825	0.075	872365	keystroke_g	g	n/a
436.3175	0.135	872635	keystroke_Key.space	Key.space	n/a
436.677	0.06	873354	keystroke_g	g	n/a
436.872	0.12	873744	keystroke_r	r	n/a
436.917	0.105	873834	keystroke_e	e	n/a
437.112	0.06	874224	keystroke_a	a	n/a
437.277	0.105	874554	keystroke_t	t	n/a
437.352	0.09	874704	keystroke_l	l	n/a
437.547	0.075	875094	keystroke_y	y	n/a
437.772	0.075	875544	keystroke_Key.space	Key.space	n/a
438.057	0.12	876114	keystroke_v	v	n/a
438.192	0.0905	876384	keystroke_e	e	n/a
438.4025	0.075	876805	keystroke_s	s	n/a
438.5975	0.03	877195	keystroke_s	s	n/a
438.7625	0.105	877525	keystroke_e	e	n/a
438.897	0.09	877794	keystroke_l	l	n/a
439.152	0.135	878304	keystroke_Key.enter	Key.enter	n/a
439.292	14.3075	878584	prompt	n/a	online ecuador clinic campaign\n
439.977	0.075	879954	keystroke_o	o	n/a
440.172	0.09	880344	keystroke_n	n	n/a
440.412	0.045	880824	keystroke_o	o	n/a
440.787	0.09	881574	keystroke_Key.backspace	Key.backspace	n/a
440.997	0.135	881994	keystroke_l	l	n/a
441.252	0.09	882504	keystroke_i	i	n/a
441.357	0.105	882714	keystroke_n	n	n/a
441.477	0.09	882954	keystroke_e	e	n/a
441.597	0.12	883194	keystroke_Key.space	Key.space	n/a
441.9125	0.105	883825	keystroke_e	e	n/a
442.5425	0.12	885085	keystroke_c	c	n/a
443.082	0.135	886164	keystroke_u	u	n/a
443.157	0.075	886314	keystroke_d	d	n/a
443.292	0.12	886584	keystroke_a	a	n/a
444.7775	0.09	889555	keystroke_d	d	n/a
444.8975	0.105	889795	keystroke_o	o	n/a
445.0175	0.105	890035	keystroke_r	r	n/a
445.1825	0.09	890365	keystroke_Key.space	Key.space	n/a
445.3625	0.105	890725	keystroke_c	c	n/a
445.4525	0.15	890905	keystroke_l	l	n/a
445.6175	0.0595	891235	keystroke_i	i	n/a
445.9025	0.06	891805	keystroke_Key.backspace	Key.backspace	n/a
446.0825	0.075	892165	keystroke_Key.backspace	Key.backspace	n/a
446.2625	0.075	892525	keystroke_Key.backspace	Key.backspace	n/a
446.4425	0.075	892885	keystroke_Key.backspace	Key.backspace	n/a
446.622	0.075	893244	keystroke_Key.backspace	Key.backspace	n/a
446.802	0.075	893604	keystroke_Key.backspace	Key.backspace	n/a
446.997	0.075	893994	keystroke_Key.backspace	Key.backspace	n/a
447.117	0.12	894234	keystroke_Key.backspace	Key.backspace	n/a
447.552	0.06	895104	keystroke_Key.backspace	Key.backspace	n/a
447.7625	0.0745	895525	keystroke_Key.backspace	Key.backspace	n/a
448.677	0.09	897354	keystroke_u	u	n/a
449.652	0.105	899304	keystroke_a	a	n/a
449.8625	0.075	899725	keystroke_d	d	n/a
449.9375	0.105	899875	keystroke_o	o	n/a
450.0875	0.105	900175	keystroke_r	r	n/a
450.2525	0.09	900505	keystroke_Key.space	Key.space	n/a
450.5375	0.165	901075	keystroke_c	c	n/a
450.6575	0.12	901315	keystroke_l	l	n/a
450.7785	0.089	901557	keystroke_i	i	n/a
450.9725	0.105	901945	keystroke_n	n	n/a
451.1075	0.1055	902215	keystroke_i	i	n/a
451.243	0.075	902486	keystroke_c	c	n/a
451.378	0.135	902756	keystroke_Key.space	Key.space	n/a
452.0075	0.105	904015	keystroke_c	c	n/a
452.2175	0.12	904435	keystroke_a	a	n/a
452.3675	0.09	904735	keystroke_m	m	n/a
452.592	0.12	905184	keystroke_p	p	n/a
452.682	0.12	905364	keystroke_a	a	n/a
453.072	0.075	906144	keystroke_i	i	n/a
453.177	0.105	906354	keystroke_g	g	n/a
453.267	0.075	906534	keystroke_n	n	n/a
453.477	0.12	906954	keystroke_Key.enter	Key.enter	n/a
453.611	7.083	907222	prompt	n/a	enhancing clinic designing syndrome\n
454.197	0.12	908394	keystroke_e	e	n/a
454.392	0.09	908784	keystroke_n	n	n/a
454.662	0.09	909324	keystroke_h	h	n/a
454.767	0.105	909534	keystroke_a	a	n/a
454.887	0.105	909774	keystroke_n	n	n/a
455.022	0.12	910044	keystroke_c	c	n/a
455.127	0.1055	910254	keystroke_i	i	n/a
455.202	0.1205	910404	keystroke_n	n	n/a
455.3375	0.075	910675	keystroke_g	g	n/a
455.4575	0.105	910915	keystroke_Key.space	Key.space	n/a
455.6075	0.1045	911215	keystroke_c	c	n/a
455.713	0.104	911426	keystroke_l	l	n/a
455.802	0.0905	911604	keystroke_i	i	n/a
455.9975	0.12	911995	keystroke_n	n	n/a
456.5375	0.0895	913075	keystroke_i	i	n/a
456.657	0.09	913314	keystroke_c	c	n/a
456.792	0.12	913584	keystroke_Key.space	Key.space	n/a
457.137	0.18	914274	keystroke_d	d	n/a
457.272	0.09	914544	keystroke_e	e	n/a
457.452	0.135	914904	keystroke_s	s	n/a
457.542	0.09	915084	keystroke_i	i	n/a
457.722	0.135	915444	keystroke_n	n	n/a
457.782	0.09	915564	keystroke_g	g	n/a
458.3225	0.045	916645	keystroke_Key.backspace	Key.backspace	n/a
458.4575	0.105	916915	keystroke_Key.backspace	Key.backspace	n/a
458.6825	0.06	917365	keystroke_g	g	n/a
458.7725	0.1195	917545	keystroke_i	i	n/a
458.877	0.165	917754	keystroke_n	n	n/a
459.027	0.135	918054	keystroke_i	i	n/a
459.147	0.105	918294	keystroke_n	n	n/a
459.267	0.0755	918534	keystroke_g	g	n/a
459.3875	0.09	918775	keystroke_Key.space	Key.space	n/a
459.5225	0.09	919045	keystroke_s	s	n/a
459.6275	0.06	919255	keystroke_y	y	n/a
459.7925	0.105	919585	keystroke_n	n	n/a
459.8375	0.09	919675	keystroke_d	d	n/a
460.0325	0.105	920065	keystroke_r	r	n/a
460.0925	0.135	920185	keystroke_o	o	n/a
460.1525	0.135	920305	keystroke_m	m	n/a
460.3025	0.09	920605	keystroke_e	e	n/a
460.5275	0.1645	921055	keystroke_Key.enter	Key.enter	n/a
460.6965	10.753	921393	prompt	n/a	referrals positions christian territories\n
461.712	0.15	923424	keystroke_r	r	n/a
461.877	0.135	923754	keystroke_e	e	n/a
462.2825	0.135	924565	keystroke_f	f	n/a
462.5375	0.12	925075	keystroke_e	e	n/a
463.243	0.06	926486	keystroke_r	r	n/a
463.4075	0.075	926815	keystroke_r	r	n/a
463.5575	0.09	927115	keystroke_a	a	n/a
463.6775	0.15	927355	keystroke_l	l	n/a
463.888	0.119	927776	keystroke_s	s	n/a
464.037	0.075	928074	keystroke_Key.space	Key.space	n/a
464.262	0.195	928524	keystroke_p	p	n/a
464.367	0.121	928734	keystroke_o	o	n/a
464.562	0.166	929124	keystroke_s	s	n/a
464.832	0.09	929664	keystroke_i	i	n/a
464.982	0.09	929964	keystroke_t	t	n/a
465.042	0.121	930084	keystroke_i	i	n/a
465.117	0.105	930234	keystroke_o	o	n/a
465.4025	0.075	930805	keystroke_s	s	n/a
465.7625	0.09	931525	keystroke_Key.backspace	Key.backspace	n/a
465.9725	0.12	931945	keystroke_n	n	n/a
466.1075	0.12	932215	keystroke_s	s	n/a
466.2425	0.135	932485	keystroke_Key.space	Key.space	n/a
466.5275	0.15	933055	keystroke_c	c	n/a
466.8125	0.12	933625	keystroke_h	h	n/a
466.9175	0.09	933835	keystroke_r	r	n/a
467.0975	0.105	934195	keystroke_i	i	n/a
467.2175	0.045	934435	keystroke_s	s	n/a
467.3225	0.09	934645	keystroke_t	t	n/a
467.4275	0.105	934855	keystroke_i	i	n/a
467.5475	0.105	935095	keystroke_a	a	n/a
467.6675	0.09	935335	keystroke_n	n	n/a
467.877	0.121	935754	keystroke_Key.space	Key.space	n/a
468.147	0.105	936294	keystroke_t	t	n/a
469.573	0.12	939146	keystroke_e	e	n/a
470.022	0.09	940044	keystroke_r	r	n/a
470.232	0.09	940464	keystroke_r	r	n/a
470.382	0.135	940764	keystroke_i	i	n/a
470.562	0.09	941124	keystroke_t	t	n/a
470.682	0.105	941364	keystroke_o	o	n/a
470.802	0.075	941604	keystroke_r	r	n/a
470.922	0.12	941844	keystroke_i	i	n/a
470.997	0.075	941994	keystroke_e	e	n/a
471.162	0.105	942324	keystroke_s	s	n/a
471.282	0.165	942564	keystroke_Key.enter	Key.enter	n/a
471.4595	8.45	942919	prompt	n/a	stands televisions occupation expertise\n
472.047	0.105	944094	keystroke_s	s	n/a
472.228	0.089	944456	keystroke_t	t	n/a
472.422	0.09	944844	keystroke_a	a	n/a
472.527	0.12	945054	keystroke_n	n	n/a
472.617	0.135	945234	keystroke_d	d	n/a
472.707	0.12	945414	keystroke_s	s	n/a
472.842	0.12	945684	keystroke_Key.space	Key.space	n/a
473.697	0.09	947394	keystroke_t	t	n/a
473.817	0.1055	947634	keystroke_e	e	n/a
473.9675	0.135	947935	keystroke_l	l	n/a
474.0575	0.09	948115	keystroke_e	e	n/a
474.343	0.075	948686	keystroke_v	v	n/a
474.4325	0.105	948865	keystroke_i	i	n/a
474.5525	0.105	949105	keystroke_s	s	n/a
474.6725	0.09	949345	keystroke_i	i	n/a
474.7175	0.105	949435	keystroke_o	o	n/a
474.9125	0.09	949825	keystroke_n	n	n/a
475.0475	0.105	950095	keystroke_s	s	n/a
475.1375	0.09	950275	keystroke_Key.space	Key.space	n/a
475.3775	0.135	950755	keystroke_o	o	n/a
475.5575	0.09	951115	keystroke_c	c	n/a
475.707	0.105	951414	keystroke_c	c	n/a
475.843	0.105	951686	keystroke_u	u	n/a
476.053	0.15	952106	keystroke_p	p	n/a
476.173	0.105	952346	keystroke_a	a	n/a
476.353	0.105	952706	keystroke_t	t	n/a
476.473	0.12	952946	keystroke_i	i	n/a
476.488	0.135	952976	keystroke_o	o	n/a
476.847	0.105	953694	keystroke_n	n	n/a
477.102	0.105	954204	keystroke_Key.space	Key.space	n/a
477.5675	0.1045	955135	keystroke_e	e	n/a
477.8525	0.15	955705	keystroke_x	x	n/a
478.2125	0.1805	956425	keystroke_p	p	n/a
478.498	0.135	956996	keystroke_e	e	n/a
478.588	0.09	957176	keystroke_r	r	n/a
478.783	0.09	957566	keystroke_t	t	n/a
478.948	0.12	957896	keystroke_i	i	n/a
479.098	0.09	958196	keystroke_s	s	n/a
479.248	0.09	958496	keystroke_e	e	n/a
479.788	0.12	959576	keystroke_Key.enter	Key.enter	n/a
479.9205	8.494	959841	prompt	n/a	changed ruling monroe came\n
480.8225	0.12	961645	keystroke_c	c	n/a
480.9575	0.105	961915	keystroke_h	h	n/a
481.0775	0.1205	962155	keystroke_a	a	n/a
481.183	0.09	962366	keystroke_n	n	n/a
481.393	0.075	962786	keystroke_g	g	n/a
481.438	0.075	962876	keystroke_e	e	n/a
481.648	0.06	963296	keystroke_d	d	n/a
481.753	0.09	963506	keystroke_Key.space	Key.space	n/a
482.203	0.045	964406	keystroke_r	r	n/a
482.262	0.166	964524	keystroke_u	u	n/a
484.0175	0.12	968035	keystroke_l	l	n/a
484.2575	0.105	968515	keystroke_i	i	n/a
484.3925	0.1345	968785	keystroke_n	n	n/a
484.543	0.089	969086	keystroke_g	g	n/a
484.707	0.135	969414	keystroke_Key.space	Key.space	n/a
485.367	0.105	970734	keystroke_m	m	n/a
485.547	0.09	971094	keystroke_o	o	n/a
485.727	0.105	971454	keystroke_n	n	n/a
485.847	0.0755	971694	keystroke_r	r	n/a
485.9675	0.09	971935	keystroke_o	o	n/a
486.5075	0.135	973015	keystroke_e	e	n/a
486.6575	0.105	973315	keystroke_Key.space	Key.space	n/a
486.7775	0.075	973555	keystroke_c	c	n/a
486.9575	0.09	973915	keystroke_a	a	n/a
487.1075	0.09	974215	keystroke_m	m	n/a
487.2425	0.105	974485	keystroke_e	e	n/a
488.247	0.165	976494	keystroke_Key.enter	Key.enter	n/a
488.4245	8.045	976849	prompt	n/a	preservation rocket genome reader\n
489.838	0.105	979676	keystroke_p	p	n/a
490.003	0.15	980006	keystroke_r	r	n/a
490.093	0.105	980186	keystroke_e	e	n/a
490.288	0.105	980576	keystroke_s	s	n/a
490.468	0.105	980936	keystroke_e	e	n/a
490.7225	0.12	981445	keystroke_r	r	n/a
491.1425	0.09	982285	keystroke_v	v	n/a
491.2175	0.06	982435	keystroke_a	a	n/a
491.4125	0.12	982825	keystroke_t	t	n/a
491.5175	0.15	983035	keystroke_i	i	n/a
491.5925	0.1205	983185	keystroke_o	o	n/a
491.8625	0.075	983725	keystroke_n	n	n/a
492.073	0.074	984146	keystroke_Key.space	Key.space	n/a
492.327	0.076	984654	keystroke_r	r	n/a
492.448	0.075	984896	keystroke_o	o	n/a
492.538	0.1195	985076	keystroke_c	c	n/a
492.6725	0.105	985345	keystroke_k	k	n/a
492.7925	0.075	985585	keystroke_e	e	n/a
492.9125	0.12	985825	keystroke_t	t	n/a
493.1525	0.075	986305	keystroke_Key.space	Key.space	n/a
494.457	0.076	988914	keystroke_g	g	n/a
494.653	0.06	989306	keystroke_e	e	n/a
494.728	0.105	989456	keystroke_n	n	n/a
494.937	0.105	989874	keystroke_o	o	n/a
495.027	0.12	990054	keystroke_m	m	n/a
495.148	0.074	990296	keystroke_e	e	n/a
495.297	0.135	990594	keystroke_Key.space	Key.space	n/a
495.417	0.121	990834	keystroke_r	r	n/a
495.478	0.119	990956	keystroke_e	e	n/a
495.717	0.076	991434	keystroke_a	a	n/a
495.883	0.164	991766	keystroke_d	d	n/a
496.017	0.12	992034	keystroke_e	e	n/a
496.138	0.104	992276	keystroke_r	r	n/a
496.362	0.105	992724	keystroke_Key.enter	Key.enter	n/a
496.48	5.104	992960	prompt	n/a	bacteria meant camera ridge\n
497.413	0.1045	994826	keystroke_b	b	n/a
497.5025	0.075	995005	keystroke_a	a	n/a
497.7275	0.06	995455	keystroke_c	c	n/a
497.9675	0.06	995935	keystroke_t	t	n/a
498.132	0.09	996264	keystroke_e	e	n/a
498.207	0.09	996414	keystroke_r	r	n/a
498.312	0.105	996624	keystroke_i	i	n/a
498.447	0.105	996894	keystroke_a	a	n/a
498.597	0.09	997194	keystroke_Key.space	Key.space	n/a
498.8675	0.105	997735	keystroke_m	m	n/a
498.9125	0.09	997825	keystroke_e	e	n/a
499.1075	0.09	998215	keystroke_a	a	n/a
499.2275	0.075	998455	keystroke_n	n	n/a
499.3475	0.075	998695	keystroke_t	t	n/a
499.4675	0.105	998935	keystroke_Key.space	Key.space	n/a
499.5875	0.09	999175	keystroke_c	c	n/a
499.8125	0.0755	999625	keystroke_a	a	n/a
499.933	0.105	999866	keystroke_m	m	n/a
500.023	0.075	1000046	keystroke_e	e	n/a
500.188	0.075	1000376	keystroke_r	r	n/a
500.443	0.03	1000886	keystroke_a	a	n/a
500.458	0.09	1000916	keystroke_Key.space	Key.space	n/a
500.608	0.09	1001216	keystroke_r	r	n/a
500.758	0.12	1001516	keystroke_i	i	n/a
500.938	0.105	1001876	keystroke_d	d	n/a
501.088	0.06	1002176	keystroke_g	g	n/a
501.193	0.09	1002386	keystroke_e	e	n/a
501.433	0.15	1002866	keystroke_Key.enter	Key.enter	n/a
501.5865	5.4575	1003173	prompt	n/a	presents flame readers belgium\n
502.3775	0.165	1004755	keystroke_p	p	n/a
502.4975	0.12	1004995	keystroke_r	r	n/a
502.572	0.105	1005144	keystroke_e	e	n/a
502.7675	0.075	1005535	keystroke_s	s	n/a
502.8575	0.1055	1005715	keystroke_e	e	n/a
503.008	0.09	1006016	keystroke_n	n	n/a
503.113	0.06	1006226	keystroke_t	t	n/a
503.248	0.105	1006496	keystroke_s	s	n/a
503.368	0.15	1006736	keystroke_Key.space	Key.space	n/a
503.533	0.12	1007066	keystroke_f	f	n/a
503.743	0.1045	1007486	keystroke_l	l	n/a
503.9225	0.09	1007845	keystroke_a	a	n/a
504.0575	0.0905	1008115	keystroke_m	m	n/a
504.163	0.06	1008326	keystroke_e	e	n/a
504.2825	0.1055	1008565	keystroke_Key.space	Key.space	n/a
504.478	0.195	1008956	keystroke_r	r	n/a
504.613	0.09	1009226	keystroke_e	e	n/a
504.823	0.075	1009646	keystroke_a	a	n/a
504.973	0.135	1009946	keystroke_d	d	n/a
505.078	0.09	1010156	keystroke_e	e	n/a
505.198	0.105	1010396	keystroke_r	r	n/a
505.333	0.1045	1010666	keystroke_s	s	n/a
505.4525	0.1055	1010905	keystroke_Key.space	Key.space	n/a
505.7825	0.09	1011565	keystroke_b	b	n/a
505.9025	0.09	1011805	keystroke_e	e	n/a
506.0675	0.12	1012135	keystroke_l	l	n/a
506.2775	0.075	1012555	keystroke_g	g	n/a
506.4125	0.045	1012825	keystroke_i	i	n/a
506.5775	0.03	1013155	keystroke_u	u	n/a
506.7275	0.0755	1013455	keystroke_m	m	n/a
506.953	0.09	1013906	keystroke_Key.enter	Key.enter	n/a
507.047	7.2575	1014094	prompt	n/a	heath robbie boston void\n
507.823	0.1045	1015646	keystroke_h	h	n/a
507.8825	0.12	1015765	keystroke_e	e	n/a
507.9425	0.09	1015885	keystroke_a	a	n/a
508.152	0.09	1016304	keystroke_t	t	n/a
508.287	0.09	1016574	keystroke_h	h	n/a
508.5425	0.105	1017085	keystroke_Key.space	Key.space	n/a
509.1575	0.075	1018315	keystroke_r	r	n/a
509.2625	0.09	1018525	keystroke_o	o	n/a
509.5175	0.045	1019035	keystroke_b	b	n/a
509.6675	0.075	1019335	keystroke_b	b	n/a
509.817	0.105	1019634	keystroke_i	i	n/a
509.937	0.075	1019874	keystroke_e	e	n/a
510.072	0.105	1020144	keystroke_Key.space	Key.space	n/a
512.0675	0.075	1024135	keystroke_b	b	n/a
512.3075	0.075	1024615	keystroke_o	o	n/a
512.3375	0.105	1024675	keystroke_s	s	n/a
512.5175	0.09	1025035	keystroke_t	t	n/a
512.5775	0.0905	1025155	keystroke_o	o	n/a
512.758	0.12	1025516	keystroke_n	n	n/a
512.968	0.12	1025936	keystroke_Key.space	Key.space	n/a
513.538	0.09	1027076	keystroke_v	v	n/a
513.613	0.15	1027226	keystroke_o	o	n/a
513.718	0.12	1027436	keystroke_i	i	n/a
513.8525	0.075	1027705	keystroke_d	d	n/a
514.1525	0.15	1028305	keystroke_Key.enter	Key.enter	n/a
514.315	5.959	1028630	prompt	n/a	video provide strand matching\n
515.2625	0.09	1030525	keystroke_v	v	n/a
