onset	duration	sample	value	key	prompt_text
5.3795	9.3355	10759	prompt	n/a	the quick brown fox jumps over a lazy dog\n
6.4475	0	12895	keystroke_t	t	n/a
6.4585	0.091	12917	keystroke_h	h	n/a
6.6235	0.091	13247	keystroke_e	e	n/a
6.7285	0.106	13457	keystroke_Key.space	Key.space	n/a
6.8655	0.089	13731	keystroke_q	q	n/a
7.0005	0.089	14001	keystroke_u	u	n/a
7.5095	0.091	15019	keystroke_i	i	n/a
7.6595	0.09	15319	keystroke_c	c	n/a
7.7505	0.09	15501	keystroke_k	k	n/a
7.8695	0.12	15739	keystroke_Key.space	Key.space	n/a
8.0795	0.09	16159	keystroke_b	b	n/a
8.2295	0.06	16459	keystroke_r	r	n/a
8.2905	0.134	16581	keystroke_o	o	n/a
8.4265	0.089	16853	keystroke_w	w	n/a
8.4995	0.075	16999	keystroke_n	n	n/a
8.665	0.09	17330	keystroke_Key.space	Key.space	n/a
8.785	0.0745	17570	keystroke_f	f	n/a
8.8445	0.09	17689	keystroke_o	o	n/a
9.0395	0.075	18079	keystroke_x	x	n/a
9.2195	0.09	18439	keystroke_Key.space	Key.space	n/a
9.3855	0.089	18771	keystroke_j	j	n/a
9.5805	0.089	19161	keystroke_u	u	n/a
9.8205	0.06	19641	keystroke_m	m	n/a
9.9715	0.104	19943	keystroke_p	p	n/a
10.1065	0.104	20213	keystroke_s	s	n/a
10.1955	0.09	20391	keystroke_Key.space	Key.space	n/a
10.3305	0.075	20661	keystroke_o	o	n/a
10.3905	0.061	20781	keystroke_v	v	n/a
10.5405	0.061	21081	keystroke_e	e	n/a
10.6755	0.12	21351	keystroke_r	r	n/a
10.8405	0.09	21681	keystroke_Key.space	Key.space	n/a
10.9905	0.075	21981	keystroke_a	a	n/a
11.0365	0.074	22073	keystroke_Key.space	Key.space	n/a
11.1705	0.09	22341	keystroke_a	a	n/a
11.2005	0.045	22401	keystroke_l	l	n/a
11.4105	0.03	22821	keystroke_z	z	n/a
11.5155	0.12	23031	keystroke_y	y	n/a
11.7705	0.06	23541	keystroke_Key.space	Key.space	n/a
11.8905	0.09	23781	keystroke_d	d	n/a
11.9655	0.12	23931	keystroke_o	o	n/a
12.3255	0.06	24651	keystroke_Key.backspace	Key.backspace	n/a
12.4605	0.06	24921	keystroke_Key.backspace	Key.backspace	n/a
12.6255	0.03	25251	keystroke_Key.backspace	Key.backspace	n/a
12.7455	0.03	25491	keystroke_Key.backspace	Key.backspace	n/a
12.8655	0.06	25731	keystroke_Key.backspace	Key.backspace	n/a
13.0005	0.06	26001	keystroke_Key.backspace	Key.backspace	n/a
13.1355	0.075	26271	keystroke_Key.backspace	Key.backspace	n/a
13.6755	0.09	27351	keystroke_l	l	n/a
13.7355	0.075	27471	keystroke_a	a	n/a
13.9155	0.075	27831	keystroke_z	z	n/a
13.9755	0.12	27951	keystroke_y	y	n/a
14.1705	0.09	28341	keystroke_Key.space	Key.space	n/a
14.3055	0.06	28611	keystroke_d	d	n/a
14.3505	0.09	28701	keystroke_o	o	n/a
14.4855	0.09	28971	keystroke_g	g	n/a
14.6205	0.09	29241	keystroke_Key.enter	Key.enter	n/a
14.7215	5.3465	29443	prompt	n/a	chronicle valley reaches databases\n
15.2965	0.089	30593	keystroke_c	c	n/a
15.4015	0.089	30803	keystroke_h	h	n/a
15.4755	0.105	30951	keystroke_r	r	n/a
15.611	0.1495	31222	keystroke_o	o	n/a
15.7755	0.09	31551	keystroke_n	n	n/a
15.8805	0.12	31761	keystroke_i	i	n/a
16.0165	0.074	32033	keystroke_c	c	n/a
16.1205	0.075	32241	keystroke_l	l	n/a
16.2115	0.074	32423	keystroke_e	e	n/a
16.3305	0.12	32661	keystroke_Key.space	Key.space	n/a
16.5105	0.076	33021	keystroke_v	v	n/a
16.7055	0.06	33411	keystroke_a	a	n/a
16.8105	0.061	33621	keystroke_l	l	n/a
16.9615	0.044	33923	keystroke_l	l	n/a
17.0655	0.075	34131	keystroke_e	e	n/a
17.2155	0.075	34431	keystroke_y	y	n/a
17.4105	0.09	34821	keystroke_Key.space	Key.space	n/a
17.5025	0.058	35005	keystroke_r	r	n/a
17.6515	0.059	35303	keystroke_e	e	n/a
17.8305	0.105	35661	keystroke_a	a	n/a
17.9955	0.09	35991	keystroke_c	c	n/a
18.1005	0.076	36201	keystroke_h	h	n/a
18.2365	0.074	36473	keystroke_e	e	n/a
18.3865	0.089	36773	keystroke_s	s	n/a
18.4905	0.105	36981	keystroke_Key.space	Key.space	n/a
18.6105	0.105	37221	keystroke_d	d	n/a
18.8065	0.105	37613	keystroke_a	a	n/a
18.8955	0.091	37791	keystroke_t	t	n/a
19.0015	0.044	38003	keystroke_a	a	n/a
19.0765	0.119	38153	keystroke_b	b	n/a
19.1655	0.09	38331	keystroke_a	a	n/a
19.4065	0.089	38813	keystroke_s	s	n/a
19.6005	0.061	39201	keystroke_e	e	n/a
19.8415	0.014	39683	keystroke_s	s	n/a
19.9905	0.075	39981	keystroke_Key.enter	Key.enter	n/a
20.0735	4.5855	40147	prompt	n/a	giants commentary chairs saints\n
20.6805	0.076	41361	keystroke_g	g	n/a
20.7705	0.075	41541	keystroke_i	i	n/a
20.8605	0.105	41721	keystroke_a	a	n/a
20.9665	0.089	41933	keystroke_n	n	n/a
21.0705	0.076	42141	keystroke_t	t	n/a
21.2205	0.09	42441	keystroke_s	s	n/a
21.3555	0.09	42711	keystroke_Key.space	Key.space	n/a
21.4605	0.091	42921	keystroke_c	c	n/a
21.5655	0.09	43131	keystroke_o	o	n/a
21.7465	0.044	43493	keystroke_m	m	n/a
21.8665	0.074	43733	keystroke_m	m	n/a
21.9415	0.119	43883	keystroke_e	e	n/a
22.1205	0.105	44241	keystroke_n	n	n/a
22.2105	0.06	44421	keystroke_t	t	n/a
22.4205	0.076	44841	keystroke_a	a	n/a
22.5555	0.09	45111	keystroke_r	r	n/a
22.6305	0.091	45261	keystroke_y	y	n/a
22.8555	0.075	45711	keystroke_Key.space	Key.space	n/a
22.9605	0.061	45921	keystroke_c	c	n/a
22.9905	0.105	45981	keystroke_h	h	n/a
23.0965	0.075	46193	keystroke_a	a	n/a
23.1855	0.091	46371	keystroke_i	i	n/a
23.2905	0.09	46581	keystroke_r	r	n/a
23.4555	0.09	46911	keystroke_s	s	n/a
23.6055	0.12	47211	keystroke_Key.space	Key.space	n/a
23.7105	0.075	47421	keystroke_s	s	n/a
23.9055	0.076	47811	keystroke_a	a	n/a
23.9955	0.106	47991	keystroke_i	i	n/a
24.0405	0.151	48081	keystroke_n	n	n/a
24.2665	0.09	48533	keystroke_t	t	n/a
24.4765	0.074	48953	keystroke_s	s	n/a
24.5805	0.075	49161	keystroke_Key.enter	Key.enter	n/a
24.6635	4.6755	49327	prompt	n/a	concentration roll legacy nest\n
25.3605	0.075	50721	keystroke_c	c	n/a
25.4505	0.076	50901	keystroke_o	o	n/a
25.4655	0.12	50931	keystroke_n	n	n/a
25.4815	0.074	50963	keystroke_c	c	n/a
25.6005	0.091	51201	keystroke_e	e	n/a
25.6915	0.105	51383	keystroke_n	n	n/a
25.7805	0.135	51561	keystroke_t	t	n/a
25.8855	0.075	51771	keystroke_r	r	n/a
26.0965	0.075	52193	keystroke_a	a	n/a
26.2455	0.105	52491	keystroke_t	t	n/a
26.3355	0.106	52671	keystroke_i	i	n/a
26.5155	0.151	53031	keystroke_o	o	n/a
26.5915	0.119	53183	keystroke_n	n	n/a
26.8905	0.015	53781	keystroke_Key.space	Key.space	n/a
26.9355	0.09	53871	keystroke_r	r	n/a
27.071	0.09	54142	keystroke_o	o	n/a
27.281	0.075	54562	keystroke_l	l	n/a
27.401	0.075	54802	keystroke_l	l	n/a
27.611	0.075	55222	keystroke_Key.space	Key.space	n/a
27.671	0.12	55342	keystroke_l	l	n/a
27.776	0.075	55552	keystroke_e	e	n/a
27.911	0.06	55822	keystroke_g	g	n/a
28.076	0.09	56152	keystroke_a	a	n/a
28.286	0.09	56572	keystroke_c	c	n/a
28.331	0.12	56662	keystroke_y	y	n/a
28.556	0.075	57112	keystroke_Key.space	Key.space	n/a
28.721	0.09	57442	keystroke_n	n	n/a
28.796	0.06	57592	keystroke_e	e	n/a
28.931	0.105	57862	keystroke_s	s	n/a
29.141	0.09	58282	keystroke_t	t	n/a
29.246	0.09	58492	keystroke_Key.enter	Key.enter	n/a
29.3445	7.208	58689	prompt	n/a	qualifications puts jones romantic\n
30.116	0.06	60232	keystroke_q	q	n/a
30.206	0.105	60412	keystroke_u	u	n/a
30.296	0.09	60592	keystroke_a	a	n/a
30.461	0.135	60922	keystroke_l	l	n/a
30.701	0.075	61402	keystroke_i	i	n/a
30.731	0.075	61462	keystroke_f	f	n/a
30.851	0.09	61702	keystroke_i	i	n/a
31.016	0.075	62032	keystroke_c	c	n/a
31.121	0.105	62242	keystroke_a	a	n/a
31.331	0.06	62662	keystroke_t	t	n/a
31.376	0.075	62752	keystroke_i	i	n/a
31.556	0.135	63112	keystroke_o	o	n/a
31.646	0.105	63292	keystroke_n	n	n/a
31.766	0.09	63532	keystroke_s	s	n/a
31.841	0.075	63682	keystroke_Key.space	Key.space	n/a
32.066	0.03	64132	keystroke_p	p	n/a
32.726	0.09	65452	keystroke_u	u	n/a
32.846	0.075	65692	keystroke_t	t	n/a
33.041	0.075	66082	keystroke_s	s	n/a
33.146	0.06	66292	keystroke_Key.space	Key.space	n/a
33.266	0.09	66532	keystroke_j	j	n/a
33.476	0.075	66952	keystroke_o	o	n/a
33.506	0.06	67012	keystroke_i	i	n/a
33.521	0.165	67042	keystroke_n	n	n/a
33.671	0.045	67342	keystroke_e	e	n/a
33.836	0.075	67672	keystroke_s	s	n/a
34.376	0.06	68752	keystroke_Key.backspace	Key.backspace	n/a
34.511	0.06	69022	keystroke_Key.backspace	Key.backspace	n/a
34.646	0.06	69292	keystroke_Key.backspace	Key.backspace	n/a
34.781	0.045	69562	keystroke_Key.backspace	Key.backspace	n/a
35.036	0.09	70072	keystroke_n	n	n/a
35.111	0.075	70222	keystroke_e	e	n/a
35.276	0.09	70552	keystroke_s	s	n/a
35.381	0.06	70762	keystroke_Key.space	Key.space	n/a
35.531	0.09	71062	keystroke_r	r	n/a
35.591	0.135	71182	keystroke_o	o	n/a
35.666	0.12	71332	keystroke_m	m	n/a
35.861	0.09	71722	keystroke_a	a	n/a
35.936	0.09	71872	keystroke_n	n	n/a
36.086	0.075	72172	keystroke_t	t	n/a
36.176	0.105	72352	keystroke_i	i	n/a
36.311	0.12	72622	keystroke_c	c	n/a
36.461	0.09	72922	keystroke_Key.enter	Key.enter	n/a
36.5575	5.696	73115	prompt	n/a	brochure tracked attempt branches\n
37.166	0.09	74332	keystroke_b	b	n/a
37.271	0.09	74542	keystroke_r	r	n/a
37.391	0.09	74782	keystroke_o	o	n/a
37.721	0.075	75442	keystroke_c	c	n/a
37.856	0.075	75712	keystroke_h	h	n/a
37.961	0.12	75922	keystroke_u	u	n/a
38.156	0.15	76312	keystroke_r	r	n/a
38.291	0.09	76582	keystroke_e	e	n/a
38.396	0.12	76792	keystroke_Key.space	Key.space	n/a
38.531	0.135	77062	keystroke_t	t	n/a
38.651	0.075	77302	keystroke_r	r	n/a
38.846	0.105	77692	keystroke_a	a	n/a
39.026	0.09	78052	keystroke_c	c	n/a
39.221	0.12	78442	keystroke_k	k	n/a
39.356	0.075	78712	keystroke_e	e	n/a
39.521	0.06	79042	keystroke_d	d	n/a
39.611	0.09	79222	keystroke_Key.space	Key.space	n/a
39.686	0.105	79372	keystroke_a	a	n/a
39.911	0.075	79822	keystroke_t	t	n/a
40.001	0.135	80002	keystroke_t	t	n/a
40.151	0.12	80302	keystroke_e	e	n/a
40.481	0.09	80962	keystroke_m	m	n/a
40.661	0.06	81322	keystroke_p	p	n/a
40.931	0.075	81862	keystroke_t	t	n/a
41.021	0.075	82042	keystroke_Key.space	Key.space	n/a
41.201	0.075	82402	keystroke_b	b	n/a
41.261	0.045	82522	keystroke_r	r	n/a
41.426	0.105	82852	keystroke_a	a	n/a
41.546	0.075	83092	keystroke_n	n	n/a
41.681	0.09	83362	keystroke_c	c	n/a
41.756	0.105	83512	keystroke_h	h	n/a
41.876	0.09	83752	keystroke_e	e	n/a
42.056	0.075	84112	keystroke_s	s	n/a
42.161	0.09	84322	keystroke_Key.enter	Key.enter	n/a
42.258	6.1455	84516	prompt	n/a	organization develops luther sacrifice\n
42.866	0.09	85732	keystroke_o	o	n/a
42.971	0.06	85942	keystroke_r	r	n/a
43.076	0.075	86152	keystroke_g	g	n/a
43.271	0.06	86542	keystroke_a	a	n/a
43.316	0.09	86632	keystroke_n	n	n/a
43.451	0.075	86902	keystroke_i	i	n/a
43.631	0.06	87262	keystroke_z	z	n/a
43.736	0.12	87472	keystroke_a	a	n/a
43.976	0.09	87952	keystroke_t	t	n/a
44.096	0.075	88192	keystroke_i	i	n/a
44.246	0.165	88492	keystroke_o	o	n/a
44.351	0.09	88702	keystroke_n	n	n/a
44.531	0.105	89062	keystroke_Key.space	Key.space	n/a
44.621	0.045	89242	keystroke_d	d	n/a
44.681	0.105	89362	keystroke_e	e	n/a
44.831	0.075	89662	keystroke_v	v	n/a
44.921	0.075	89842	keystroke_e	e	n/a
45.011	0.075	90022	keystroke_l	l	n/a
45.191	0.075	90382	keystroke_o	o	n/a
45.341	0.06	90682	keystroke_p	p	n/a
45.461	0.09	90922	keystroke_s	s	n/a
45.596	0.075	91192	keystroke_Key.space	Key.space	n/a
45.731	0.09	91462	keystroke_l	l	n/a
45.956	0.075	91912	keystroke_u	u	n/a
46.121	0.075	92242	keystroke_t	t	n/a
46.286	0.075	92572	keystroke_h	h	n/a
46.376	0.075	92752	keystroke_e	e	n/a
46.541	0.075	93082	keystroke_r	r	n/a
46.676	0.105	93352	keystroke_Key.space	Key.space	n/a
46.916	0.075	93832	keystroke_s	s	n/a
47.081	0.09	94162	keystroke_a	a	n/a
47.291	0.105	94582	keystroke_c	c	n/a
47.486	0.09	94972	keystroke_r	r	n/a
47.666	0.09	95332	keystroke_i	i	n/a
47.771	0.075	95542	keystroke_f	f	n/a
47.891	0.075	95782	keystroke_i	i	n/a
48.026	0.06	96052	keystroke_c	c	n/a
48.146	0.105	96292	keystroke_e	e	n/a
48.296	0.105	96592	keystroke_Key.enter	Key.enter	n/a
48.4115	4.9415	96823	prompt	n/a	difference chris aspects talent\n
49.121	0.075	98242	keystroke_d	d	n/a
49.241	0.09	98482	keystroke_i	i	n/a
49.346	0.045	98692	keystroke_f	f	n/a
49.481	0.046	98962	keystroke_f	f	n/a
49.571	0.09	99142	keystroke_e	e	n/a
49.706	0.09	99412	keystroke_r	r	n/a
49.796	0.075	99592	keystroke_e	e	n/a
49.916	0.075	99832	keystroke_n	n	n/a
49.976	0.105	99952	keystroke_c	c	n/a
50.096	0.105	100192	keystroke_e	e	n/a
50.261	0.075	100522	keystroke_Key.space	Key.space	n/a
50.351	0.09	100702	keystroke_c	c	n/a
50.456	0.06	100912	keystroke_h	h	n/a
50.531	0.075	101062	keystroke_r	r	n/a
50.636	0.09	101272	keystroke_i	i	n/a
50.756	0.06	101512	keystroke_s	s	n/a
50.846	0.105	101692	keystroke_Key.space	Key.space	n/a
50.966	0.06	101932	keystroke_a	a	n/a
51.116	0.06	102232	keystroke_s	s	n/a
51.206	0.075	102412	keystroke_p	p	n/a
51.296	0.075	102592	keystroke_e	e	n/a
51.476	0.09	102952	keystroke_c	c	n/a
51.716	0.09	103432	keystroke_t	t	n/a
51.926	0.09	103852	keystroke_s	s	n/a
52.046	0.105	104092	keystroke_Key.space	Key.space	n/a
52.211	0.045	104422	keystroke_t	t	n/a
52.376	0.075	104752	keystroke_a	a	n/a
52.556	0.075	105112	keystroke_l	l	n/a
52.706	0.09	105412	keystroke_e	e	n/a
52.826	0.09	105652	keystroke_n	n	n/a
52.991	0.15	105982	keystroke_t	t	n/a
53.276	0.075	106552	keystroke_Key.enter	Key.enter	n/a
53.358	5.3505	106716	prompt	n/a	exciting computer estimation beef\n
53.981	0.09	107962	keystroke_e	e	n/a
54.251	0.075	108502	keystroke_x	x	n/a
54.431	0.06	108862	keystroke_c	c	n/a
54.551	0.06	109102	keystroke_i	i	n/a
54.626	0.09	109252	keystroke_t	t	n/a
54.701	0.165	109402	keystroke_i	i	n/a
54.821	0.09	109642	keystroke_n	n	n/a
54.881	0.075	109762	keystroke_g	g	n/a
55.016	0.12	110032	keystroke_Key.space	Key.space	n/a
55.166	0.105	110332	keystroke_c	c	n/a
55.271	0.12	110542	keystroke_o	o	n/a
55.451	0.12	110902	keystroke_m	m	n/a
55.646	0.09	111292	keystroke_p	p	n/a
55.856	0.105	111712	keystroke_u	u	n/a
55.976	0.06	111952	keystroke_t	t	n/a
56.111	0.09	112222	keystroke_e	e	n/a
56.246	0.075	112492	keystroke_r	r	n/a
56.381	0.09	112762	keystroke_Key.space	Key.space	n/a
56.486	0.06	112972	keystroke_e	e	n/a
56.681	0.06	113362	keystroke_s	s	n/a
56.876	0.09	113752	keystroke_t	t	n/a
56.966	0.09	113932	keystroke_i	i	n/a
57.146	0.105	114292	keystroke_m	m	n/a
57.206	0.075	114412	keystroke_a	a	n/a
57.386	0.075	114772	keystroke_t	t	n/a
57.446	0.091	114892	keystroke_i	i	n/a
57.611	0.165	115222	keystroke_o	o	n/a
57.731	0.105	115462	keystroke_n	n	n/a
57.911	0.075	115822	keystroke_Key.space	Key.space	n/a
58.061	0.09	116122	keystroke_b	b	n/a
58.166	0.06	116332	keystroke_e	e	n/a
58.331	0.075	116662	keystroke_e	e	n/a
58.481	0.09	116962	keystroke_f	f	n/a
58.631	0.075	117262	keystroke_Key.enter	Key.enter	n/a
58.714	5.303	117428	prompt	n/a	jesse advertise further electro\n
59.396	0.09	118792	keystroke_j	j	n/a
59.516	0.075	119032	keystroke_e	e	n/a
59.711	0.0605	119422	keystroke_s	s	n/a
59.861	0.06	119722	keystroke_s	s	n/a
60.026	0.09	120052	keystroke_e	e	n/a
60.161	0.09	120322	keystroke_Key.space	Key.space	n/a
60.281	0.09	120562	keystroke_a	a	n/a
60.446	0.09	120892	keystroke_d	d	n/a
60.656	0.075	121312	keystroke_v	v	n/a
60.806	0.09	121612	keystroke_e	e	n/a
60.971	0.09	121942	keystroke_r	r	n/a
61.151	0.0745	122302	keystroke_t	t	n/a
61.2555	0.105	122511	keystroke_i	i	n/a
61.4205	0.075	122841	keystroke_s	s	n/a
61.5855	0.075	123171	keystroke_e	e	n/a
61.6905	0.105	123381	keystroke_Key.space	Key.space	n/a
61.8405	0.09	123681	keystroke_f	f	n/a
61.9155	0.091	123831	keystroke_u	u	n/a
61.9905	0.09	123981	keystroke_r	r	n/a
62.1555	0.075	124311	keystroke_t	t	n/a
62.2605	0.12	124521	keystroke_h	h	n/a
62.3655	0.075	124731	keystroke_e	e	n/a
62.5455	0.075	125091	keystroke_r	r	n/a
62.7405	0.09	125481	keystroke_Key.space	Key.space	n/a
62.9205	0.06	125841	keystroke_e	e	n/a
63.0105	0.09	126021	keystroke_l	l	n/a
63.0705	0.09	126141	keystroke_e	e	n/a
63.2355	0.12	126471	keystroke_c	c	n/a
63.5205	0.09	127041	keystroke_t	t	n/a
63.5955	0.105	127191	keystroke_r	r	n/a
63.7155	0.075	127431	keystroke_o	o	n/a
63.9255	0.09	127851	keystroke_Key.enter	Key.enter	n/a
64.0225	5.35	128045	prompt	n/a	refers jordan ears reproductive\n
64.6615	0.134	129323	keystroke_r	r	n/a
64.7655	0.075	129531	keystroke_e	e	n/a
64.9465	0.104	129893	keystroke_f	f	n/a
65.0655	0.09	130131	keystroke_e	e	n/a
65.2305	0.075	130461	keystroke_r	r	n/a
65.4105	0.075	130821	keystroke_s	s	n/a
65.5155	0.09	131031	keystroke_Key.space	Key.space	n/a
65.6355	0.105	131271	keystroke_j	j	n/a
65.8305	0.09	131661	keystroke_o	o	n/a
65.9655	0.075	131931	keystroke_r	r	n/a
66.1905	0.075	132381	keystroke_d	d	n/a
66.2955	0.09	132591	keystroke_a	a	n/a
66.4005	0.09	132801	keystroke_n	n	n/a
66.5805	0.09	133161	keystroke_Key.space	Key.space	n/a
66.6555	0.06	133311	keystroke_e	e	n/a
66.8205	0.09	133641	keystroke_a	a	n/a
67.0605	0.06	134121	keystroke_r	r	n/a
67.2105	0.105	134421	keystroke_s	s	n/a
67.3755	0.09	134751	keystroke_Key.space	Key.space	n/a
67.6455	0.075	135291	keystroke_r	r	n/a
67.7355	0.09	135471	keystroke_e	e	n/a
67.8855	0.09	135771	keystroke_p	p	n/a
68.0055	0.075	136011	keystroke_r	r	n/a
68.1105	0.105	136221	keystroke_o	o	n/a
68.2755	0.075	136551	keystroke_d	d	n/a
68.3805	0.09	136761	keystroke_u	u	n/a
68.4855	0.075	136971	keystroke_c	c	n/a
68.6505	0.105	137301	keystroke_t	t	n/a
68.7405	0.09	137481	keystroke_i	i	n/a
68.8605	0.12	137721	keystroke_v	v	n/a
69.0105	0.075	138021	keystroke_e	e	n/a
69.3105	0.06	138621	keystroke_Key.enter	Key.enter	n/a
69.3765	6.026	138753	prompt	n/a	southeast seek christine solutions\n
69.9855	0.09	139971	keystroke_s	s	n/a
70.0605	0.09	140121	keystroke_o	o	n/a
70.2405	0.09	140481	keystroke_u	u	n/a
70.3155	0.06	140631	keystroke_t	t	n/a
70.4355	0.105	140871	keystroke_h	h	n/a
70.5255	0.06	141051	keystroke_e	e	n/a
70.7205	0.06	141441	keystroke_a	a	n/a
70.8705	0.075	141741	keystroke_s	s	n/a
70.9155	0.105	141831	keystroke_t	t	n/a
71.1555	0.09	142311	keystroke_Key.space	Key.space	n/a
71.3205	0.045	142641	keystroke_s	s	n/a
71.5305	0.045	143061	keystroke_e	e	n/a
71.6655	0.105	143331	keystroke_e	e	n/a
71.7855	0.075	143571	keystroke_k	k	n/a
71.9355	0.15	143871	keystroke_Key.space	Key.space	n/a
72.1905	0.09	144381	keystroke_h	h	n/a
72.6105	0.09	145221	keystroke_Key.backspace	Key.backspace	n/a
72.9405	0.09	145881	keystroke_c	c	n/a
73.0605	0.09	146121	keystroke_h	h	n/a
73.1655	0.06	146331	keystroke_r	r	n/a
73.2855	0.09	146571	keystroke_i	i	n/a
73.3605	0.06	146721	keystroke_s	s	n/a
73.5105	0.075	147021	keystroke_t	t	n/a
73.5705	0.135	147141	keystroke_i	i	n/a
73.6605	0.12	147321	keystroke_n	n	n/a
73.7655	0.075	147531	keystroke_e	e	n/a
73.9005	0.075	147801	keystroke_Key.space	Key.space	n/a
73.9905	0.09	147981	keystroke_s	s	n/a
74.0955	0.09	148191	keystroke_o	o	n/a
74.2905	0.09	148581	keystroke_l	l	n/a
74.5005	0.09	149001	keystroke_u	u	n/a
74.6055	0.075	149211	keystroke_t	t	n/a
74.6955	0.09	149391	keystroke_i	i	n/a
74.9805	0.06	149961	keystroke_o	o	n/a
74.9955	0.105	149991	keystroke_n	n	n/a
75.1155	0.075	150231	keystroke_s	s	n/a
75.3255	0.075	150651	keystroke_Key.enter	Key.enter	n/a
75.407	6.476	150814	prompt	n/a	resist directive prisoner doesn't\n
76.1205	0.135	152241	keystroke_r	r	n/a
76.2255	0.075	152451	keystroke_e	e	n/a
76.4205	0.045	152841	keystroke_s	s	n/a
76.4665	0.074	152933	keystroke_i	i	n/a
76.5255	0.075	153051	keystroke_s	s	n/a
76.7505	0.09	153501	keystroke_t	t	n/a
77.3805	0.09	154761	keystroke_Key.space	Key.space	n/a
77.6355	0.12	155271	keystroke_d	d	n/a
77.8605	0.105	155721	keystroke_i	i	n/a
77.9665	0.104	155933	keystroke_r	r	n/a
78.0555	0.075	156111	keystroke_e	e	n/a
78.2205	0.09	156441	keystroke_c	c	n/a
78.4155	0.09	156831	keystroke_t	t	n/a
78.5205	0.09	157041	keystroke_i	i	n/a
78.6405	0.075	157281	keystroke_v	v	n/a
78.7755	0.09	157551	keystroke_e	e	n/a
78.8805	0.09	157761	keystroke_Key.space	Key.space	n/a
79.1055	0.075	158211	keystroke_p	p	n/a
79.1815	0.074	158363	keystroke_r	r	n/a
79.2855	0.09	158571	keystroke_i	i	n/a
79.3765	0.089	158753	keystroke_s	s	n/a
79.4805	0.15	158961	keystroke_o	o	n/a
79.5255	0.165	159051	keystroke_n	n	n/a
79.6755	0.075	159351	keystroke_e	e	n/a
79.8255	0.075	159651	keystroke_r	r	n/a
79.9455	0.105	159891	keystroke_Key.space	Key.space	n/a
80.0955	0.075	160191	keystroke_d	d	n/a
80.1565	0.104	160313	keystroke_o	o	n/a
80.2305	0.09	160461	keystroke_e	e	n/a
80.3955	0.075	160791	keystroke_s	s	n/a
80.5605	0.105	161121	keystroke_n	n	n/a
80.9505	0.06	161901	keystroke_'	'	n/a
81.0405	0.09	162081	keystroke_t	t	n/a
81.8055	0.075	163611	keystroke_Key.enter	Key.enter	n/a
81.8875	5.2305	163775	prompt	n/a	jacksonville sherman kings meyer\n
82.8255	0.075	165651	keystroke_j	j	n/a
82.9605	0.09	165921	keystroke_a	a	n/a
83.1255	0.075	166251	keystroke_c	c	n/a
83.2155	0.105	166431	keystroke_k	k	n/a
83.3355	0.09	166671	keystroke_s	s	n/a
83.4255	0.165	166851	keystroke_o	o	n/a
83.5605	0.09	167121	keystroke_n	n	n/a
83.7855	0.09	167571	keystroke_v	v	n/a
83.8905	0.105	167781	keystroke_i	i	n/a
84.1155	0.045	168231	keystroke_l	l	n/a
84.3255	0.015	168651	keystroke_l	l	n/a
84.3555	0.075	168711	keystroke_e	e	n/a
84.4455	0.09	168891	keystroke_Key.space	Key.space	n/a
84.5655	0.09	169131	keystroke_s	s	n/a
84.6255	0.09	169251	keystroke_h	h	n/a
84.7455	0.075	169491	keystroke_e	e	n/a
84.8955	0.105	169791	keystroke_r	r	n/a
85.0455	0.105	170091	keystroke_m	m	n/a
85.1955	0.06	170391	keystroke_a	a	n/a
85.2405	0.09	170481	keystroke_n	n	n/a
85.4355	0.075	170871	keystroke_Key.space	Key.space	n/a
85.5705	0.09	171141	keystroke_k	k	n/a
85.7655	0.12	171531	keystroke_i	i	n/a
85.8555	0.135	171711	keystroke_n	n	n/a
85.9755	0.06	171951	keystroke_g	g	n/a
86.1255	0.06	172251	keystroke_s	s	n/a
86.2305	0.075	172461	keystroke_Key.space	Key.space	n/a
86.3805	0.105	172761	keystroke_m	m	n/a
86.5305	0.075	173061	keystroke_e	e	n/a
86.6505	0.075	173301	keystroke_y	y	n/a
86.7105	0.06	173421	keystroke_e	e	n/a
86.8605	0.075	173721	keystroke_r	r	n/a
87.0405	0.075	174081	keystroke_Key.enter	Key.enter	n/a
87.1235	6.5355	174247	prompt	n/a	collaboration joined vice discovered\n
87.8505	0.09	175701	keystroke_c	c	n/a
87.9555	0.09	175911	keystroke_o	o	n/a
88.1655	0.045	176331	keystroke_l	l	n/a
88.2855	0.09	176571	keystroke_l	l	n/a
88.6005	0.105	177201	keystroke_a	a	n/a
88.7955	0.075	177591	keystroke_b	b	n/a
88.9605	0.09	177921	keystroke_o	o	n/a
89.4405	0.09	178881	keystroke_r	r	n/a
89.6505	0.105	179301	keystroke_a	a	n/a
89.8605	0.09	179721	keystroke_t	t	n/a
89.9655	0.09	179931	keystroke_i	i	n/a
90.1455	0.195	180291	keystroke_o	o	n/a
90.2805	0.12	180561	keystroke_n	n	n/a
90.4905	0.09	180981	keystroke_Key.space	Key.space	n/a
90.6405	0.12	181281	keystroke_j	j	n/a
90.9255	0.09	181851	keystroke_o	o	n/a
91.0905	0.12	182181	keystroke_i	i	n/a
91.1805	0.09	182361	keystroke_n	n	n/a
91.2855	0.06	182571	keystroke_e	e	n/a
91.4205	0.075	182841	keystroke_d	d	n/a
91.5705	0.12	183141	keystroke_Key.space	Key.space	n/a
91.7205	0.06	183441	keystroke_v	v	n/a
91.7955	0.105	183591	keystroke_i	i	n/a
91.8855	0.09	183771	keystroke_c	c	n/a
92.0355	0.09	184071	keystroke_e	e	n/a
92.1555	0.09	184311	keystroke_Key.space	Key.space	n/a
92.2755	0.075	184551	keystroke_d	d	n/a
92.3655	0.09	184731	keystroke_i	i	n/a
92.4105	0.075	184821	keystroke_s	s	n/a
92.5905	0.075	185181	keystroke_c	c	n/a
92.7255	0.09	185451	keystroke_o	o	n/a
92.7855	0.075	185571	keystroke_v	v	n/a
92.9505	0.09	185901	keystroke_e	e	n/a
93.1155	0.075	186231	keystroke_r	r	n/a
93.3105	0.075	186621	keystroke_e	e	n/a
93.4605	0.09	186921	keystroke_d	d	n/a
93.5805	0.075	187161	keystroke_Key.enter	Key.enter	n/a
93.665	5.543	187330	prompt	n/a	wants passes trader novelty\n
94.2105	0.075	188421	keystroke_w	w	n/a
94.3605	0.12	188721	keystroke_a	a	n/a
94.4655	0.12	188931	keystroke_n	n	n/a
94.6005	0.06	189201	keystroke_t	t	n/a
94.7655	0.075	189531	keystroke_s	s	n/a
94.8855	0.075	189771	keystroke_Key.space	Key.space	n/a
95.1105	0.045	190221	keystroke_p	p	n/a
95.1705	0.09	190341	keystroke_a	a	n/a
95.4115	0.059	190823	keystroke_s	s	n/a
95.5455	0.075	191091	keystroke_s	s	n/a
95.7555	0.09	191511	keystroke_e	e	n/a
95.9355	0.09	191871	keystroke_s	s	n/a
96.0555	0.09	192111	keystroke_Key.space	Key.space	n/a
96.2355	0.105	192471	keystroke_t	t	n/a
96.3555	0.075	192711	keystroke_r	r	n/a
96.5655	0.09	193131	keystroke_a	a	n/a
96.8355	0.015	193671	keystroke_d	d	n/a
96.8655	0.09	193731	keystroke_e	e	n/a
97.0155	0.075	194031	keystroke_r	r	n/a
97.1055	0.075	194211	keystroke_Key.space	Key.space	n/a
97.2855	0.09	194571	keystroke_n	n	n/a
97.4055	0.105	194811	keystroke_o	o	n/a
97.4955	0.075	194991	keystroke_v	v	n/a
97.5855	0.105	195171	keystroke_e	e	n/a
97.6755	0.09	195351	keystroke_l	l	n/a
98.0355	0.105	196071	keystroke_y	y	n/a
98.4555	0.06	196911	keystroke_Key.backspace	Key.backspace	n/a
98.5455	0.09	197091	keystroke_t	t	n/a
98.7105	0.09	197421	keystroke_y	y	n/a
99.1305	0.075	198261	keystroke_Key.enter	Key.enter	n/a
99.2135	5.7245	198427	prompt	n/a	hear requirement actors greatest\n
99.8655	0.075	199731	keystroke_h	h	n/a
99.9415	0.074	199883	keystroke_e	e	n/a
100.1205	0.075	200241	keystroke_a	a	n/a
100.3005	0.075	200601	keystroke_r	r	n/a
100.6305	0.09	201261	keystroke_Key.space	Key.space	n/a
100.7805	0.105	201561	keystroke_r	r	n/a
100.8705	0.075	201741	keystroke_e	e	n/a
101.0505	0.075	202101	keystroke_q	q	n/a
101.1405	0.075	202281	keystroke_u	u	n/a
101.2755	0.12	202551	keystroke_i	i	n/a
101.3655	0.105	202731	keystroke_r	r	n/a
101.5005	0.105	203001	keystroke_e	e	n/a
101.8005	0.075	203601	keystroke_m	m	n/a
101.9055	0.09	203811	keystroke_e	e	n/a
101.9805	0.105	203961	keystroke_n	n	n/a
102.1015	0.074	204203	keystroke_t	t	n/a
102.2955	0.075	204591	keystroke_Key.space	Key.space	n/a
102.5355	0.075	205071	keystroke_a	a	n/a
102.7155	0.075	205431	keystroke_c	c	n/a
102.8815	0.089	205763	keystroke_t	t	n/a
102.9865	0.089	205973	keystroke_o	o	n/a
103.0905	0.075	206181	keystroke_r	r	n/a
103.2855	0.09	206571	keystroke_s	s	n/a
103.4355	0.105	206871	keystroke_Key.space	Key.space	n/a
103.5855	0.045	207171	keystroke_g	g	n/a
103.7955	0.105	207591	keystroke_r	r	n/a
103.8555	0.09	207711	keystroke_e	e	n/a
104.0505	0.06	208101	keystroke_a	a	n/a
104.2455	0.105	208491	keystroke_t	t	n/a
104.2905	0.105	208581	keystroke_e	e	n/a
104.4855	0.09	208971	keystroke_s	s	n/a
104.6805	0.09	209361	keystroke_t	t	n/a
104.8455	0.09	209691	keystroke_Key.enter	Key.enter	n/a
104.943	5.8	209886	prompt	n/a	respect version sudden disable\n
105.5355	0.12	211071	keystroke_r	r	n/a
105.6255	0.06	211251	keystroke_e	e	n/a
105.7755	0.06	211551	keystroke_s	s	n/a
105.8505	0.09	211701	keystroke_p	p	n/a
105.9555	0.06	211911	keystroke_e	e	n/a
106.1665	0.104	212333	keystroke_c	c	n/a
106.3905	0.105	212781	keystroke_t	t	n/a
106.5405	0.105	213081	keystroke_Key.space	Key.space	n/a
106.7055	0.06	213411	keystroke_v	v	n/a
106.8105	0.075	213621	keystroke_e	e	n/a
106.9755	0.06	213951	keystroke_r	r	n/a
107.1555	0.075	214311	keystroke_s	s	n/a
107.3055	0.075	214611	keystroke_i	i	n/a
107.4705	0.165	214941	keystroke_o	o	n/a
107.5755	0.105	215151	keystroke_n	n	n/a
107.7555	0.105	215511	keystroke_Key.space	Key.space	n/a
107.8615	0.074	215723	keystroke_s	s	n/a
107.9505	0.075	215901	keystroke_u	u	n/a
108.0855	0.03	216171	keystroke_d	d	n/a
108.2055	0.075	216411	keystroke_d	d	n/a
108.3405	0.09	216681	keystroke_e	e	n/a
108.4455	0.06	216891	keystroke_n	n	n/a
108.5955	0.12	217191	keystroke_Key.space	Key.space	n/a
108.7305	0.075	217461	keystroke_d	d	n/a
108.8065	0.104	217613	keystroke_i	i	n/a
108.8655	0.075	217731	keystroke_a	a	n/a
109.7805	0.075	219561	keystroke_Key.backspace	Key.backspace	n/a
109.9155	0.06	219831	keystroke_s	s	n/a
110.1105	0.076	220221	keystroke_a	a	n/a
110.2305	0.09	220461	keystroke_b	b	n/a
110.4105	0.075	220821	keystroke_l	l	n/a
110.5155	0.09	221031	keystroke_e	e	n/a
110.6655	0.075	221331	keystroke_Key.enter	Key.enter	n/a
110.7475	5.545	221495	prompt	n/a	tours reserve mirror rays\n
111.3115	0.104	222623	keystroke_t	t	n/a
111.4305	0.09	222861	keystroke_o	o	n/a
111.6255	0.091	223251	keystroke_u	u	n/a
111.7005	0.06	223401	keystroke_r	r	n/a
111.8955	0.076	223791	keystroke_s	s	n/a
112.0305	0.09	224061	keystroke_Key.space	Key.space	n/a
112.2405	0.03	224481	keystroke_r	r	n/a
113.0655	0.045	226131	keystroke_e	e	n/a
113.2905	0.09	226581	keystroke_s	s	n/a
113.4855	0.09	226971	keystroke_e	e	n/a
113.6505	0.06	227301	keystroke_r	r	n/a
113.8755	0.075	227751	keystroke_v	v	n/a
113.9805	0.09	227961	keystroke_e	e	n/a
114.1005	0.105	228201	keystroke_Key.space	Key.space	n/a
114.2805	0.105	228561	keystroke_m	m	n/a
114.4455	0.105	228891	keystroke_i	i	n/a
114.5655	0.045	229131	keystroke_r	r	n/a
114.6855	0.045	229371	keystroke_r	r	n/a
114.7455	0.09	229491	keystroke_o	o	n/a
115.3155	0.09	230631	keystroke_r	r	n/a
115.5705	0.09	231141	keystroke_Key.space	Key.space	n/a
115.6155	0.076	231231	keystroke_r	r	n/a
115.8105	0.09	231621	keystroke_a	a	n/a
115.9155	0.076	231831	keystroke_y	y	n/a
116.0055	0.105	232011	keystroke_s	s	n/a
116.2155	0.075	232431	keystroke_Key.enter	Key.enter	n/a
116.301	7.792	232602	prompt	n/a	extreme failing restrict cornwall\n
116.8755	0.09	233751	keystroke_e	e	n/a
117.1605	0.106	234321	keystroke_x	x	n/a
117.4455	0.09	234891	keystroke_t	t	n/a
117.6705	0.105	235341	keystroke_r	r	n/a
117.8805	0.075	235761	keystroke_e	e	n/a
118.1055	0.09	236211	keystroke_m	m	n/a
118.1965	0.104	236393	keystroke_e	e	n/a
118.3755	0.09	236751	keystroke_Key.space	Key.space	n/a
118.7355	0.075	237471	keystroke_d	d	n/a
118.8855	0.075	237771	keystroke_a	a	n/a
118.9755	0.06	237951	keystroke_i	i	n/a
119.6805	0.075	239361	keystroke_Key.backspace	Key.backspace	n/a
119.8305	0.075	239661	keystroke_Key.backspace	Key.backspace	n/a
119.9655	0.09	239931	keystroke_Key.backspace	Key.backspace	n/a
120.3405	0.06	240681	keystroke_f	f	n/a
120.4605	0.09	240921	keystroke_a	a	n/a
120.5055	0.09	241011	keystroke_i	i	n/a
120.7305	0.09	241461	keystroke_l	l	n/a
120.9105	0.121	241821	keystroke_i	i	n/a
121.0165	0.104	242033	keystroke_n	n	n/a
121.1055	0.061	242211	keystroke_g	g	n/a
121.2405	0.09	242481	keystroke_Key.space	Key.space	n/a
121.3605	0.09	242721	keystroke_r	r	n/a
121.4205	0.075	242841	keystroke_e	e	n/a
121.6005	0.06	243201	keystroke_s	s	n/a
121.7955	0.105	243591	keystroke_t	t	n/a
121.8855	0.09	243771	keystroke_r	r	n/a
121.9905	0.091	243981	keystroke_i	i	n/a
122.1855	0.075	244371	keystroke_c	c	n/a
122.3805	0.075	244761	keystroke_t	t	n/a
122.5005	0.105	245001	keystroke_Key.space	Key.space	n/a
122.6655	0.09	245331	keystroke_c	c	n/a
122.7405	0.136	245481	keystroke_o	o	n/a
122.8905	0.106	245781	keystroke_r	r	n/a
123.2205	0.105	246441	keystroke_n	n	n/a
123.4455	0.075	246891	keystroke_w	w	n/a
123.6105	0.046	247221	keystroke_a	a	n/a
123.7155	0.06	247431	keystroke_l	l	n/a
123.8655	0.045	247731	keystroke_l	l	n/a
124.0155	0.075	248031	keystroke_Key.enter	Key.enter	n/a
124.099	4.329	248198	prompt	n/a	wiley exclusive dude clips\n
124.6615	0.059	249323	keystroke_w	w	n/a
124.7665	0.105	249533	keystroke_i	i	n/a
124.9905	0.076	249981	keystroke_l	l	n/a
125.0815	0.089	250163	keystroke_e	e	n/a
125.2915	0.06	250583	keystroke_y	y	n/a
125.4405	0.09	250881	keystroke_Key.space	Key.space	n/a
125.5755	0.06	251151	keystroke_e	e	n/a
125.7705	0.075	251541	keystroke_x	x	n/a
125.9505	0.075	251901	keystroke_c	c	n/a
126.0105	0.105	252021	keystroke_l	l	n/a
126.2205	0.075	252441	keystroke_u	u	n/a
126.2805	0.075	252561	keystroke_s	s	n/a
126.3855	0.09	252771	keystroke_i	i	n/a
126.4605	0.12	252921	keystroke_v	v	n/a
126.6255	0.09	253251	keystroke_e	e	n/a
126.8055	0.075	253611	keystroke_Key.space	Key.space	n/a
126.9555	0.061	253911	keystroke_d	d	n/a
127.0305	0.09	254061	keystroke_u	u	n/a
127.1055	0.06	254211	keystroke_d	d	n/a
127.2105	0.106	254421	keystroke_e	e	n/a
127.3755	0.06	254751	keystroke_Key.space	Key.space	n/a
127.4815	0.104	254963	keystroke_c	c	n/a
127.5705	0.106	255141	keystroke_l	l	n/a
127.7805	0.105	255561	keystroke_i	i	n/a
127.9915	0.089	255983	keystroke_p	p	n/a
128.0955	0.075	256191	keystroke_s	s	n/a
128.3355	0.09	256671	keystroke_Key.enter	Key.enter	n/a
128.4335	4.134	256867	prompt	n/a	brush footage relay motels\n
129.1015	0.089	258203	keystroke_b	b	n/a
129.1755	0.09	258351	keystroke_r	r	n/a
129.2955	0.075	258591	keystroke_u	u	n/a
129.4155	0.09	258831	keystroke_s	s	n/a
129.4915	0.119	258983	keystroke_h	h	n/a
129.6855	0.09	259371	keystroke_Key.space	Key.space	n/a
129.8365	0.059	259673	keystroke_f	f	n/a
129.9705	0.06	259941	keystroke_o	o	n/a
130.1055	0.075	260211	keystroke_o	o	n/a
130.1955	0.075	260391	keystroke_t	t	n/a
130.4355	0.09	260871	keystroke_a	a	n/a
130.6005	0.12	261201	keystroke_g	g	n/a
130.7065	0.09	261413	keystroke_e	e	n/a
130.8555	0.105	261711	keystroke_Key.space	Key.space	n/a
130.9765	0.119	261953	keystroke_r	r	n/a
131.0515	0.104	262103	keystroke_e	e	n/a
131.2755	0.075	262551	keystroke_l	l	n/a
131.3805	0.091	262761	keystroke_a	a	n/a
131.5905	0.075	263181	keystroke_y	y	n/a
131.6805	0.105	263361	keystroke_Key.space	Key.space	n/a
131.8605	0.135	263721	keystroke_m	m	n/a
132.0105	0.105	264021	keystroke_o	o	n/a
132.0865	0.119	264173	keystroke_t	t	n/a
132.1605	0.105	264321	keystroke_e	e	n/a
132.2805	0.075	264561	keystroke_l	l	n/a
132.3855	0.105	264771	keystroke_s	s	n/a
132.5055	0.06	265011	keystroke_Key.enter	Key.enter	n/a
132.5725	5.4705	265145	prompt	n/a	regression sing ethical aircraft\n
133.2565	0.105	266513	keystroke_r	r	n/a
133.3465	0.09	266693	keystroke_e	e	n/a
133.5255	0.075	267051	keystroke_g	g	n/a
133.6455	0.075	267291	keystroke_r	r	n/a
133.8415	0.059	267683	keystroke_e	e	n/a
134.0365	0.044	268073	keystroke_s	s	n/a
134.1705	0.045	268341	keystroke_s	s	n/a
134.2455	0.091	268491	keystroke_i	i	n/a
134.3955	0.165	268791	keystroke_o	o	n/a
134.5155	0.09	269031	keystroke_n	n	n/a
134.6955	0.105	269391	keystroke_Key.space	Key.space	n/a
134.8315	0.104	269663	keystroke_s	s	n/a
134.9055	0.121	269811	keystroke_i	i	n/a
134.9505	0.151	269901	keystroke_n	n	n/a
135.0855	0.061	270171	keystroke_g	g	n/a
135.2205	0.105	270441	keystroke_Key.space	Key.space	n/a
135.3115	0.105	270623	keystroke_e	e	n/a
135.5365	0.089	271073	keystroke_t	t	n/a
135.6405	0.075	271281	keystroke_h	h	n/a
135.8365	0.075	271673	keystroke_i	i	n/a
135.9555	0.06	271911	keystroke_c	c	n/a
136.0605	0.09	272121	keystroke_a	a	n/a
136.1365	0.074	272273	keystroke_l	l	n/a
136.2855	0.12	272571	keystroke_Key.space	Key.space	n/a
136.3915	0.074	272783	keystroke_a	a	n/a
136.4965	0.089	272993	keystroke_i	i	n/a
136.6165	0.0895	273233	keystroke_r	r	n/a
136.856	0.09	273712	keystroke_c	c	n/a
137.036	0.075	274072	keystroke_r	r	n/a
137.231	0.075	274462	keystroke_a	a	n/a
137.381	0.09	274762	keystroke_f	f	n/a
137.621	0.09	275242	keystroke_t	t	n/a
137.996	0.045	275992	keystroke_Key.enter	Key.enter	n/a
138.0485	12.851	276097	prompt	n/a	portfolio applicable memorabilia safer\n
143.3685	0.012	286737	keystroke_p	p	n/a
143.4415	0.089	286883	keystroke_o	o	n/a
143.5605	0.105	287121	keystroke_r	r	n/a
143.9055	0.09	287811	keystroke_t	t	n/a
144.2355	0.09	288471	keystroke_f	f	n/a
144.5955	0.09	289191	keystroke_o	o	n/a
144.8205	0.09	289641	keystroke_l	l	n/a
145.0615	0.089	290123	keystroke_i	i	n/a
145.2255	0.091	290451	keystroke_o	o	n/a
145.4505	0.075	290901	keystroke_Key.space	Key.space	n/a
145.5705	0.075	291141	keystroke_a	a	n/a
145.7355	0.075	291471	keystroke_p	p	n/a
145.8705	0.135	291741	keystroke_p	p	n/a
145.9605	0.105	291921	keystroke_l	l	n/a
146.1415	0.119	292283	keystroke_i	i	n/a
146.2615	0.059	292523	keystroke_c	c	n/a
146.4105	0.06	292821	keystroke_a	a	n/a
146.4715	0.089	292943	keystroke_b	b	n/a
146.6805	0.091	293361	keystroke_l	l	n/a
146.8155	0.06	293631	keystroke_e	e	n/a
146.9805	0.075	293961	keystroke_Key.space	Key.space	n/a
147.2055	0.06	294411	keystroke_m	m	n/a
147.3255	0.06	294651	keystroke_e	e	n/a
147.3705	0.12	294741	keystroke_m	m	n/a
147.5655	0.09	295131	keystroke_o	o	n/a
147.7605	0.06	295521	keystroke_r	r	n/a
147.9555	0.075	295911	keystroke_a	a	n/a
148.6755	0.09	297351	keystroke_b	b	n/a
148.8705	0.105	297741	keystroke_i	i	n/a
149.1255	0.09	298251	keystroke_l	l	n/a
149.3205	0.091	298641	keystroke_i	i	n/a
149.4555	0.075	298911	keystroke_a	a	n/a
149.5455	0.12	299091	keystroke_Key.space	Key.space	n/a
149.7105	0.15	299421	keystroke_s	s	n/a
149.8155	0.12	299631	keystroke_a	a	n/a
150.0405	0.09	300081	keystroke_f	f	n/a
150.1755	0.105	300351	keystroke_e	e	n/a
150.3855	0.09	300771	keystroke_r	r	n/a
150.8205	0.075	301641	keystroke_Key.enter	Key.enter	n/a
150.904	4.389	301808	prompt	n/a	raises guitars before close\n
151.5855	0.06	303171	keystroke_r	r	n/a
151.7815	0.074	303563	keystroke_a	a	n/a
151.8405	0.105	303681	keystroke_i	i	n/a
151.9605	0.06	303921	keystroke_s	s	n/a
152.1255	0.03	304251	keystroke_e	e	n/a
152.2605	0.075	304521	keystroke_s	s	n/a
152.3655	0.105	304731	keystroke_Key.space	Key.space	n/a
152.5305	0.075	305061	keystroke_g	g	n/a
152.6205	0.045	305241	keystroke_u	u	n/a
152.7415	0.089	305483	keystroke_i	i	n/a
152.8605	0.06	305721	keystroke_t	t	n/a
153.0405	0.09	306081	keystroke_a	a	n/a
153.2505	0.075	306501	keystroke_r	r	n/a
153.3865	0.104	306773	keystroke_s	s	n/a
153.5055	0.06	307011	keystroke_Key.space	Key.space	n/a
153.6405	0.09	307281	keystroke_b	b	n/a
153.7155	0.076	307431	keystroke_e	e	n/a
153.8805	0.06	307761	keystroke_f	f	n/a
153.9255	0.09	307851	keystroke_o	o	n/a
154.0755	0.105	308151	keystroke_r	r	n/a
154.1955	0.105	308391	keystroke_e	e	n/a
154.3455	0.09	308691	keystroke_Key.space	Key.space	n/a
154.4655	0.09	308931	keystroke_c	c	n/a
154.5855	0.06	309171	keystroke_l	l	n/a
154.7505	0.075	309501	keystroke_o	o	n/a
154.9305	0.045	309861	keystroke_s	s	n/a
155.0655	0.09	310131	keystroke_e	e	n/a
155.2005	0.09	310401	keystroke_Key.enter	Key.enter	n/a
155.2995	5.8125	310599	prompt	n/a	basket concern vids shoulder\n
155.8915	0.089	311783	keystroke_b	b	n/a
155.9955	0.075	311991	keystroke_a	a	n/a
156.1305	0.075	312261	keystroke_s	s	n/a
156.2215	0.09	312443	keystroke_k	k	n/a
156.3255	0.105	312651	keystroke_e	e	n/a
156.5655	0.12	313131	keystroke_t	t	n/a
157.2255	0.09	314451	keystroke_Key.space	Key.space	n/a
157.4355	0.075	314871	keystroke_c	c	n/a
157.4955	0.165	314991	keystroke_o	o	n/a
157.5705	0.15	315141	keystroke_n	n	n/a
157.6155	0.075	315231	keystroke_c	c	n/a
157.7505	0.09	315501	keystroke_e	e	n/a
157.9155	0.075	315831	keystroke_r	r	n/a
158.0355	0.06	316071	keystroke_n	n	n/a
158.2155	0.105	316431	keystroke_Key.space	Key.space	n/a
158.3805	0.045	316761	keystroke_v	v	n/a
158.4405	0.106	316881	keystroke_i	i	n/a
158.6505	0.15	317301	keystroke_d	d	n/a
158.7555	0.075	317511	keystroke_s	s	n/a
158.8905	0.105	317781	keystroke_Key.space	Key.space	n/a
158.9965	0.074	317993	keystroke_s	s	n/a
159.1455	0.135	318291	keystroke_o	o	n/a
159.5505	0.09	319101	keystroke_Key.backspace	Key.backspace	n/a
159.8955	0.09	319791	keystroke_h	h	n/a
160.0765	0.089	320153	keystroke_o	o	n/a
160.2555	0.09	320511	keystroke_u	u	n/a
160.4655	0.075	320931	keystroke_l	l	n/a
160.5855	0.105	321171	keystroke_d	d	n/a
160.7205	0.106	321441	keystroke_e	e	n/a
160.9165	0.074	321833	keystroke_r	r	n/a
161.0205	0.09	322041	keystroke_Key.enter	Key.enter	n/a
161.116	4.618	322232	prompt	n/a	businesses causing cement spin\n
161.7405	0.09	323481	keystroke_b	b	n/a
161.8755	0.106	323751	keystroke_u	u	n/a
161.9955	0.075	323991	keystroke_s	s	n/a
162.0865	0.119	324173	keystroke_i	i	n/a
162.1615	0.119	324323	keystroke_n	n	n/a
162.3255	0.075	324651	keystroke_e	e	n/a
162.5365	0.059	325073	keystroke_s	s	n/a
162.6705	0.075	325341	keystroke_s	s	n/a
162.8655	0.06	325731	keystroke_e	e	n/a
163.0005	0.091	326001	keystroke_s	s	n/a
163.1205	0.105	326241	keystroke_Key.space	Key.space	n/a
163.1955	0.06	326391	keystroke_c	c	n/a
163.3155	0.06	326631	keystroke_a	a	n/a
163.3905	0.076	326781	keystroke_u	u	n/a
163.4955	0.075	326991	keystroke_s	s	n/a
163.6165	0.149	327233	keystroke_i	i	n/a
163.7205	0.121	327441	keystroke_n	n	n/a
163.8255	0.075	327651	keystroke_g	g	n/a
163.9605	0.105	327921	keystroke_Key.space	Key.space	n/a
164.1555	0.09	328311	keystroke_c	c	n/a
164.3655	0.06	328731	keystroke_e	e	n/a
164.4555	0.075	328911	keystroke_m	m	n/a
164.5155	0.09	329031	keystroke_e	e	n/a
164.6205	0.105	329241	keystroke_n	n	n/a
164.7715	0.089	329543	keystroke_t	t	n/a
164.8905	0.105	329781	keystroke_Key.space	Key.space	n/a
165.0405	0.075	330081	keystroke_s	s	n/a
165.1305	0.09	330261	keystroke_p	p	n/a
165.2955	0.165	330591	keystroke_i	i	n/a
165.4155	0.12	330831	keystroke_n	n	n/a
165.6555	0.075	331311	keystroke_Key.enter	Key.enter	n/a
165.739	6.369	331478	prompt	n/a	celtic representative denied consent\n
166.3905	0.076	332781	keystroke_c	c	n/a
166.7655	0.046	333531	keystroke_e	e	n/a
166.8705	0.09	333741	keystroke_l	l	n/a
167.0365	0.089	334073	keystroke_t	t	n/a
167.2015	0.089	334403	keystroke_i	i	n/a
167.3655	0.075	334731	keystroke_c	c	n/a
167.4855	0.105	334971	keystroke_Key.space	Key.space	n/a
167.6505	0.105	335301	keystroke_r	r	n/a
167.7255	0.075	335451	keystroke_e	e	n/a
168.0715	0.089	336143	keystroke_p	p	n/a
168.2365	0.119	336473	keystroke_r	r	n/a
168.3105	0.076	336621	keystroke_e	e	n/a
168.5055	0.061	337011	keystroke_s	s	n/a
168.6555	0.075	337311	keystroke_e	e	n/a
168.7455	0.105	337491	keystroke_n	n	n/a
168.8655	0.06	337731	keystroke_t	t	n/a
169.0155	0.09	338031	keystroke_a	a	n/a
169.2555	0.03	338511	keystroke_t	t	n/a
169.3005	0.075	338601	keystroke_i	i	n/a
169.5255	0.091	339051	keystroke_v	v	n/a
169.6605	0.106	339321	keystroke_e	e	n/a
169.7805	0.09	339561	keystroke_Key.space	Key.space	n/a
169.8855	0.12	339771	keystroke_d	d	n/a
170.0355	0.06	340071	keystroke_e	e	n/a
170.1705	0.091	340341	keystroke_n	n	n/a
170.3055	0.091	340611	keystroke_i	i	n/a
170.3505	0.075	340701	keystroke_e	e	n/a
170.5165	0.075	341033	keystroke_d	d	n/a
170.6505	0.09	341301	keystroke_Key.space	Key.space	n/a
170.8305	0.075	341661	keystroke_c	c	n/a
170.9355	0.166	341871	keystroke_o	o	n/a
171.0555	0.105	342111	keystroke_n	n	n/a
171.1905	0.12	342381	keystroke_s	s	n/a
171.5065	0.12	343013	keystroke_e	e	n/a
171.8055	0.091	343611	keystroke_n	n	n/a
171.9105	0.09	343821	keystroke_t	t	n/a
172.0155	0.09	344031	keystroke_Key.enter	Key.enter	n/a
172.112	8.591	344224	prompt	n/a	talked imaging essex late\n
172.7055	0.075	345411	keystroke_t	t	n/a
172.8855	0.075	345771	keystroke_a	a	n/a
172.9755	0.06	345951	keystroke_l	l	n/a
173.0955	0.12	346191	keystroke_k	k	n/a
173.2005	0.06	346401	keystroke_e	e	n/a
173.3355	0.075	346671	keystroke_d	d	n/a
173.4115	0.089	346823	keystroke_Key.space	Key.space	n/a
173.6055	0.09	347211	keystroke_i	i	n/a
173.8005	0.075	347601	keystroke_m	m	n/a
173.8765	0.089	347753	keystroke_a	a	n/a
174.0405	0.075	348081	keystroke_g	g	n/a
174.1455	0.165	348291	keystroke_i	i	n/a
174.2205	0.075	348441	keystroke_g	g	n/a
174.2805	0.105	348561	keystroke_n	n	n/a
174.4905	0.09	348981	keystroke_Key.space	Key.space	n/a
174.6855	0.06	349371	keystroke_e	e	n/a
175.0455	0.045	350091	keystroke_Key.backspace	Key.backspace	n/a
175.1655	0.075	350331	keystroke_Key.backspace	Key.backspace	n/a
175.3155	0.045	350631	keystroke_Key.backspace	Key.backspace	n/a
175.4355	0.06	350871	keystroke_Key.backspace	Key.backspace	n/a
175.5855	0.06	351171	keystroke_Key.backspace	Key.backspace	n/a
176.2455	0.151	352491	keystroke_i	i	n/a
176.3655	0.121	352731	keystroke_n	n	n/a
176.5005	0.06	353001	keystroke_g	g	n/a
176.8455	0.105	353691	keystroke_Key.space	Key.space	n/a
176.9955	0.09	353991	keystroke_e	e	n/a
177.2205	0.045	354441	keystroke_s	s	n/a
177.3705	0.03	354741	keystroke_s	s	n/a
177.5055	0.06	355011	keystroke_e	e	n/a
177.7465	0.089	355493	keystroke_x	x	n/a
177.8805	0.09	355761	keystroke_Key.space	Key.space	n/a
178.0305	0.105	356061	keystroke_l	l	n/a
178.1505	0.075	356301	keystroke_a	a	n/a
178.5255	0.061	357051	keystroke_t	t	n/a
178.6905	0.06	357381	keystroke_t	t	n/a
178.9005	0.12	357801	keystroke_e	e	n/a
179.7555	0.06	359511	keystroke_Key.backspace	Key.backspace	n/a
179.8755	0.091	359751	keystroke_Key.backspace	Key.backspace	n/a
180.4615	0.089	360923	keystroke_e	e	n/a
180.6255	0.075	361251	keystroke_Key.enter	Key.enter	n/a
180.7095	7.0285	361419	prompt	n/a	putting judicial comp frog\n
181.361	0.089	362722	keystroke_p	p	n/a
181.571	0.044	363142	keystroke_i	i	n/a
181.586	0.044	363172	keystroke_u	u	n/a
181.69	0.03	363380	keystroke_t	t	n/a
181.795	0.06	363590	keystroke_t	t	n/a
181.87	0.1515	363740	keystroke_i	i	n/a
181.9905	0.091	363981	keystroke_n	n	n/a
182.1105	0.061	364221	keystroke_g	g	n/a
182.2455	0.09	364491	keystroke_Key.space	Key.space	n/a
182.6655	0.045	365331	keystroke_Key.backspace	Key.backspace	n/a
182.8005	0.06	365601	keystroke_Key.backspace	Key.backspace	n/a
182.9205	0.075	365841	keystroke_Key.backspace	Key.backspace	n/a
183.0705	0.046	366141	keystroke_Key.backspace	Key.backspace	n/a
183.1905	0.075	366381	keystroke_Key.backspace	Key.backspace	n/a
183.3255	0.06	366651	keystroke_Key.backspace	Key.backspace	n/a
183.4755	0.06	366951	keystroke_Key.backspace	Key.backspace	n/a
183.7005	0.09	367401	keystroke_Key.backspace	Key.backspace	n/a
184.0755	0.091	368151	keystroke_u	u	n/a
184.2105	0.061	368421	keystroke_t	t	n/a
184.3305	0.09	368661	keystroke_t	t	n/a
184.4215	0.119	368843	keystroke_i	i	n/a
184.5105	0.106	369021	keystroke_n	n	n/a
184.6165	0.059	369233	keystroke_g	g	n/a
184.7205	0.105	369441	keystroke_Key.space	Key.space	n/a
184.9015	0.104	369803	keystroke_j	j	n/a
185.0955	0.091	370191	keystroke_u	u	n/a
185.2755	0.045	370551	keystroke_d	d	n/a
185.3805	0.06	370761	keystroke_i	i	n/a
185.4715	0.059	370943	keystroke_c	c	n/a
185.5165	0.089	371033	keystroke_i	i	n/a
185.6515	0.074	371303	keystroke_a	a	n/a
185.7555	0.106	371511	keystroke_l	l	n/a
185.9665	0.074	371933	keystroke_Key.space	Key.space	n/a
186.1915	0.089	372383	keystroke_c	c	n/a
186.2505	0.181	372501	keystroke_o	o	n/a
186.4315	0.15	372863	keystroke_m	m	n/a
186.8065	0.075	373613	keystroke_p	p	n/a
187.0155	0.09	374031	keystroke_Key.space	Key.space	n/a
187.2115	0.074	374423	keystroke_f	f	n/a
187.3305	0.091	374661	keystroke_r	r	n/a
187.4225	0.088	374845	keystroke_o	o	n/a
187.5555	0.076	375111	keystroke_g	g	n/a
187.6605	0.075	375321	keystroke_Key.enter	Key.enter	n/a
187.743	8.574	375486	prompt	n/a	arthritis permanent urban flux\n
188.3205	0.121	376641	keystroke_a	a	n/a
188.5315	0.09	377063	keystroke_r	r	n/a
188.7115	0.105	377423	keystroke_h	h	n/a
188.8005	0.091	377601	keystroke_t	t	n/a
188.9505	0.075	377901	keystroke_r	r	n/a
188.9665	0.09	377933	keystroke_i	i	n/a
189.1465	0.09	378293	keystroke_t	t	n/a
189.2215	0.09	378443	keystroke_i	i	n/a
189.3855	0.09	378771	keystroke_s	s	n/a
189.5055	0.061	379011	keystroke_Key.space	Key.space	n/a
189.6855	0.12	379371	keystroke_p	p	n/a
189.7455	0.075	379491	keystroke_e	e	n/a
189.8815	0.12	379763	keystroke_r	r	n/a
190.016	0.1195	380032	keystroke_m	m	n/a
190.1815	0.105	380363	keystroke_a	a	n/a
190.315	0.061	380630	keystroke_n	n	n/a
190.4815	0.074	380963	keystroke_n	n	n/a
190.495	0.076	380990	keystroke_e	e	n/a
190.691	0.1055	381382	keystroke_t	t	n/a
190.931	0.089	381862	keystroke_Key.space	Key.space	n/a
191.125	0.106	382250	keystroke_u	u	n/a
191.216	0.059	382432	keystroke_r	r	n/a
191.306	0.09	382612	keystroke_b	b	n/a
191.426	0.09	382852	keystroke_a	a	n/a
191.516	0.074	383032	keystroke_n	n	n/a
191.695	0.0755	383390	keystroke_Key.space	Key.space	n/a
193.195	0.045	386390	keystroke_Key.backspace	Key.backspace	n/a
193.33	0.075	386660	keystroke_Key.backspace	Key.backspace	n/a
193.9005	0.089	387801	keystroke_e	e	n/a
194.0355	0.105	388071	keystroke_n	n	n/a
194.1705	0.104	388341	keystroke_t	t	n/a
194.3055	0.104	388611	keystroke_Key.space	Key.space	n/a
194.7995	0.09	389599	keystroke_u	u	n/a
194.9345	0.09	389869	keystroke_r	r	n/a
195.0395	0.075	390079	keystroke_b	b	n/a
195.1745	0.105	390349	keystroke_a	a	n/a
195.2355	0.075	390471	keystroke_n	n	n/a
195.4145	0.076	390829	keystroke_Key.space	Key.space	n/a
195.6705	0.06	391341	keystroke_f	f	n/a
195.7455	0.09	391491	keystroke_l	l	n/a
195.9555	0.075	391911	keystroke_u	u	n/a
196.0445	0.091	392089	keystroke_x	x	n/a
196.2095	0.105	392419	keystroke_Key.enter	Key.enter	n/a
196.326	4.9885	392652	prompt	n/a	rankings teacher throw artists\n
197.3205	0.074	394641	keystroke_r	r	n/a
197.4855	0.075	394971	keystroke_a	a	n/a
197.5455	0.074	395091	keystroke_n	n	n/a
197.6645	0.105	395329	keystroke_k	k	n/a
197.8445	0.15	395689	keystroke_i	i	n/a
197.9495	0.12	395899	keystroke_n	n	n/a
198.0105	0.06	396021	keystroke_g	g	n/a
198.1455	0.09	396291	keystroke_s	s	n/a
198.2495	0.091	396499	keystroke_Key.space	Key.space	n/a
198.3845	0.121	396769	keystroke_t	t	n/a
198.4755	0.089	396951	keystroke_e	e	n/a
198.6705	0.075	397341	keystroke_a	a	n/a
198.8355	0.105	397671	keystroke_c	c	n/a
198.9555	0.089	397911	keystroke_h	h	n/a
199.0305	0.089	398061	keystroke_e	e	n/a
199.1945	0.091	398389	keystroke_r	r	n/a
199.3295	0.075	398659	keystroke_Key.space	Key.space	n/a
199.4355	0.089	398871	keystroke_t	t	n/a
199.5105	0.074	399021	keystroke_h	h	n/a
199.6155	0.09	399231	keystroke_r	r	n/a
199.7195	0.091	399439	keystroke_o	o	n/a
199.8695	0.091	399739	keystroke_w	w	n/a
200.0195	0.075	400039	keystroke_Key.space	Key.space	n/a
200.1105	0.075	400221	keystroke_a	a	n/a
200.2605	0.075	400521	keystroke_r	r	n/a
200.4105	0.075	400821	keystroke_t	t	n/a
200.5455	0.09	401091	keystroke_i	i	n/a
200.6945	0.106	401389	keystroke_s	s	n/a
200.9195	0.075	401839	keystroke_t	t	n/a
201.0255	0.105	402051	keystroke_s	s	n/a
201.2355	0.074	402471	keystroke_Key.enter	Key.enter	n/a
201.32	5.062	402640	prompt	n/a	mariah attacks danish vitamin\n
201.9555	0.135	403911	keystroke_m	m	n/a
202.0455	0.059	404091	keystroke_a	a	n/a
202.1945	0.046	404389	keystroke_r	r	n/a
202.2545	0.06	404509	keystroke_i	i	n/a
202.3305	0.105	404661	keystroke_a	a	n/a
202.4655	0.105	404931	keystroke_h	h	n/a
202.6895	0.09	405379	keystroke_Key.space	Key.space	n/a
202.7645	0.106	405529	keystroke_a	a	n/a
202.9755	0.06	405951	keystroke_t	t	n/a
203.1105	0.059	406221	keystroke_t	t	n/a
203.2905	0.105	406581	keystroke_a	a	n/a
203.5005	0.105	407001	keystroke_c	c	n/a
203.6945	0.061	407389	keystroke_k	k	n/a
203.8005	0.105	407601	keystroke_s	s	n/a
203.9505	0.089	407901	keystroke_Key.space	Key.space	n/a
204.1905	0.074	408381	keystroke_d	d	n/a
204.2955	0.09	408591	keystroke_a	a	n/a
204.3855	0.09	408771	keystroke_n	n	n/a
204.5205	0.09	409041	keystroke_i	i	n/a
204.5945	0.105	409189	keystroke_s	s	n/a
204.7155	0.12	409431	keystroke_h	h	n/a
204.8945	0.105	409789	keystroke_Key.space	Key.space	n/a
205.0155	0.09	410031	keystroke_v	v	n/a
205.1195	0.091	410239	keystroke_i	i	n/a
205.4355	0.089	410871	keystroke_t	t	n/a
205.6605	0.075	411321	keystroke_a	a	n/a
205.7645	0.091	411529	keystroke_m	m	n/a
205.9155	0.134	411831	keystroke_i	i	n/a
206.0205	0.105	412041	keystroke_n	n	n/a
206.3045	0.075	412609	keystroke_Key.enter	Key.enter	n/a
206.3875	5.9045	412775	prompt	n/a	organic linux lord sunrise\n
207.6855	0.09	415371	keystroke_o	o	n/a
207.7905	0.09	415581	keystroke_r	r	n/a
207.9405	0.059	415881	keystroke_g	g	n/a
208.1205	0.09	416241	keystroke_a	a	n/a
208.2115	0.074	416423	keystroke_n	n	n/a
208.3305	0.09	416661	keystroke_i	i	n/a
208.5105	0.059	417021	keystroke_x	x	n/a
209.0195	0.075	418039	keystroke_Key.backspace	Key.backspace	n/a
209.1855	0.045	418371	keystroke_c	c	n/a
209.3045	0.09	418609	keystroke_Key.space	Key.space	n/a
209.5005	0.09	419001	keystroke_l	l	n/a
209.6955	0.149	419391	keystroke_i	i	n/a
209.8305	0.104	419661	keystroke_n	n	n/a
210.0095	0.09	420019	keystroke_u	u	n/a
210.1745	0.105	420349	keystroke_x	x	n/a
210.2945	0.09	420589	keystroke_Key.space	Key.space	n/a
210.475	0.0445	420950	keystroke_l	l	n/a
210.6095	0.09	421219	keystroke_o	o	n/a
210.7295	0.075	421459	keystroke_r	r	n/a
210.8945	0.105	421789	keystroke_d	d	n/a
211.0745	0.075	422149	keystroke_Key.space	Key.space	n/a
211.2695	0.105	422539	keystroke_s	s	n/a
211.3905	0.089	422781	keystroke_u	u	n/a
211.5705	0.089	423141	keystroke_n	n	n/a
211.6745	0.075	423349	keystroke_r	r	n/a
211.7645	0.075	423529	keystroke_i	i	n/a
211.8845	0.09	423769	keystroke_s	s	n/a
212.0645	0.09	424129	keystroke_e	e	n/a
212.1995	0.09	424399	keystroke_Key.enter	Key.enter	n/a
212.2975	4.2245	424595	prompt	n/a	sample spies derby peas\n
212.8895	0.105	425779	keystroke_s	s	n/a
213.0395	0.09	426079	keystroke_a	a	n/a
213.0995	0.075	426199	keystroke_m	m	n/a
213.2505	0.164	426501	keystroke_p	p	n/a
213.3695	0.105	426739	keystroke_l	l	n/a
213.5195	0.075	427039	keystroke_e	e	n/a
213.6695	0.09	427339	keystroke_Key.space	Key.space	n/a
213.7455	0.059	427491	keystroke_s	s	n/a
213.8945	0.075	427789	keystroke_p	p	n/a
214.0905	0.104	428181	keystroke_i	i	n/a
214.2245	0.075	428449	keystroke_e	e	n/a
214.3895	0.105	428779	keystroke_s	s	n/a
214.5245	0.09	429049	keystroke_Key.space	Key.space	n/a
214.6605	0.104	429321	keystroke_d	d	n/a
214.8105	0.104	429621	keystroke_e	e	n/a
214.9895	0.075	429979	keystroke_r	r	n/a
215.0795	0.076	430159	keystroke_b	b	n/a
215.2295	0.105	430459	keystroke_y	y	n/a
215.4695	0.06	430939	keystroke_Key.space	Key.space	n/a
215.83	0.1045	431660	keystroke_p	p	n/a
215.9645	0.061	431929	keystroke_e	e	n/a
216.1295	0.075	432259	keystroke_a	a	n/a
216.2805	0.104	432561	keystroke_s	s	n/a
216.4295	0.09	432859	keystroke_Key.enter	Key.enter	n/a
216.5265	5.9655	433053	prompt	n/a	incidence escape dynamics degrees\n
217.2245	0.135	434449	keystroke_i	i	n/a
217.3895	0.135	434779	keystroke_n	n	n/a
217.5095	0.09	435019	keystroke_c	c	n/a
217.6295	0.09	435259	keystroke_i	i	n/a
217.7345	0.105	435469	keystroke_d	d	n/a
217.8695	0.15	435739	keystroke_e	e	n/a
218.0345	0.076	436069	keystroke_n	n	n/a
218.1395	0.075	436279	keystroke_c	c	n/a
218.1995	0.12	436399	keystroke_e	e	n/a
218.3205	0.089	436641	keystroke_Key.space	Key.space	n/a
218.3495	0.105	436699	keystroke_e	e	n/a
218.5745	0.075	437149	keystroke_s	s	n/a
218.7545	0.075	437509	keystroke_c	c	n/a
218.8745	0.09	437749	keystroke_a	a	n/a
218.9795	0.075	437959	keystroke_p	p	n/a
219.1895	0.12	438379	keystroke_e	e	n/a
219.3695	0.105	438739	keystroke_Key.space	Key.space	n/a
219.5645	0.105	439129	keystroke_d	d	n/a
219.6995	0.105	439399	keystroke_y	y	n/a
219.8795	0.105	439759	keystroke_n	n	n/a
219.9855	0.074	439971	keystroke_a	a	n/a
220.3895	0.09	440779	keystroke_m	m	n/a
220.5395	0.105	441079	keystroke_i	i	n/a
220.6745	0.076	441349	keystroke_c	c	n/a
220.7945	0.09	441589	keystroke_s	s	n/a
220.9145	0.09	441829	keystroke_Key.space	Key.space	n/a
221.2745	0.09	442549	keystroke_d	d	n/a
221.4095	0.121	442819	keystroke_e	e	n/a
221.6345	0.09	443269	keystroke_g	g	n/a
221.7855	0.075	443571	keystroke_r	r	n/a
221.9945	0.075	443989	keystroke_e	e	n/a
222.1295	0.06	444259	keystroke_e	e	n/a
222.2945	0.09	444589	keystroke_s	s	n/a
222.4145	0.075	444829	keystroke_Key.enter	Key.enter	n/a
222.4965	7.735	444993	prompt	n/a	instructor mounted blank telephone\n
223.1505	0.119	446301	keystroke_i	i	n/a
223.2845	0.12	446569	keystroke_n	n	n/a
223.3745	0.06	446749	keystroke_s	s	n/a
223.5245	0.12	447049	keystroke_t	t	n/a
223.6145	0.105	447229	keystroke_r	r	n/a
223.6745	0.09	447349	keystroke_u	u	n/a
223.8545	0.12	447709	keystroke_c	c	n/a
224.0945	0.09	448189	keystroke_t	t	n/a
224.1995	0.09	448399	keystroke_o	o	n/a
224.3045	0.09	448609	keystroke_r	r	n/a
224.4695	0.075	448939	keystroke_Key.space	Key.space	n/a
224.6495	0.09	449299	keystroke_m	m	n/a
224.7845	0.105	449569	keystroke_o	o	n/a
224.9945	0.075	449989	keystroke_u	u	n/a
225.1145	0.135	450229	keystroke_n	n	n/a
225.2655	0.074	450531	keystroke_t	t	n/a
225.4745	0.045	450949	keystroke_e	e	n/a
225.6395	0.075	451279	keystroke_d	d	n/a
225.7295	0.09	451459	keystroke_Key.space	Key.space	n/a
225.9245	0.075	451849	keystroke_b	b	n/a
226.1195	0.091	452239	keystroke_l	l	n/a
226.2545	0.075	452509	keystroke_a	a	n/a
226.3595	0.105	452719	keystroke_n	n	n/a
226.5545	0.106	453109	keystroke_k	k	n/a
226.6445	0.045	453289	keystroke_e	e	n/a
226.7945	0.075	453589	keystroke_d	d	n/a
226.8995	0.09	453799	keystroke_Key.space	Key.space	n/a
227.0945	0.135	454189	keystroke_t	t	n/a
227.7695	0.06	455539	keystroke_Key.backspace	Key.backspace	n/a
227.9045	0.075	455809	keystroke_Key.backspace	Key.backspace	n/a
228.0845	0.045	456169	keystroke_Key.backspace	Key.backspace	n/a
228.2345	0.045	456469	keystroke_Key.backspace	Key.backspace	n/a
228.6995	0.075	457399	keystroke_Key.space	Key.space	n/a
228.8655	0.059	457731	keystroke_t	t	n/a
229.0445	0.061	458089	keystroke_e	e	n/a
229.1195	0.105	458239	keystroke_l	l	n/a
229.2095	0.06	458419	keystroke_e	e	n/a
229.3895	0.075	458779	keystroke_p	p	n/a
229.7055	0.089	459411	keystroke_h	h	n/a
229.8095	0.151	459619	keystroke_o	o	n/a
229.8995	0.12	459799	keystroke_n	n	n/a
229.9745	0.135	459949	keystroke_e	e	n/a
230.1545	0.075	460309	keystroke_Key.enter	Key.enter	n/a
230.237	4.5855	460474	prompt	n/a	marc based which summary\n
230.8445	0.105	461689	keystroke_m	m	n/a
230.9795	0.031	461959	keystroke_a	a	n/a
231.1145	0.075	462229	keystroke_r	r	n/a
231.3855	0.089	462771	keystroke_c	c	n/a
231.4895	0.105	462979	keystroke_Key.space	Key.space	n/a
231.7155	0.059	463431	keystroke_b	b	n/a
231.7605	0.089	463521	keystroke_a	a	n/a
231.9555	0.06	463911	keystroke_s	s	n/a
232.1345	0.046	464269	keystroke_e	e	n/a
232.2995	0.06	464599	keystroke_d	d	n/a
232.4045	0.105	464809	keystroke_Key.space	Key.space	n/a
232.5245	0.106	465049	keystroke_w	w	n/a
232.6445	0.091	465289	keystroke_h	h	n/a
232.8395	0.09	465679	keystroke_i	i	n/a
232.9755	0.059	465951	keystroke_c	c	n/a
233.0505	0.089	466101	keystroke_h	h	n/a
233.2445	0.12	466489	keystroke_Key.space	Key.space	n/a
233.4245	0.075	466849	keystroke_s	s	n/a
233.5145	0.09	467029	keystroke_u	u	n/a
233.7405	0.075	467481	keystroke_m	m	n/a
233.8745	0.076	467749	keystroke_m	m	n/a
233.9345	0.09	467869	keystroke_a	a	n/a
234.1005	0.104	468201	keystroke_r	r	n/a
234.4595	0.075	468919	keystroke_y	y	n/a
234.7295	0.09	469459	keystroke_Key.enter	Key.enter	n/a
234.828	5.214	469656	prompt	n/a	shares ensure scanner convergence\n
235.4495	0.075	470899	keystroke_s	s	n/a
235.5405	0.104	471081	keystroke_h	h	n/a
235.6295	0.09	471259	keystroke_a	a	n/a
235.7945	0.136	471589	keystroke_r	r	n/a
235.9005	0.09	471801	keystroke_e	e	n/a
236.0945	0.075	472189	keystroke_s	s	n/a
236.1845	0.12	472369	keystroke_Key.space	Key.space	n/a
236.3645	0.061	472729	keystroke_e	e	n/a
236.4545	0.091	472909	keystroke_n	n	n/a
236.5455	0.09	473091	keystroke_s	s	n/a
236.6195	0.106	473239	keystroke_u	u	n/a
236.7855	0.119	473571	keystroke_r	r	n/a
236.8605	0.089	473721	keystroke_e	e	n/a
237.0245	0.105	474049	keystroke_Key.space	Key.space	n/a
237.0845	0.091	474169	keystroke_s	s	n/a
237.2795	0.06	474559	keystroke_c	c	n/a
237.3545	0.12	474709	keystroke_a	a	n/a
237.5205	0.044	475041	keystroke_n	n	n/a
237.6405	0.089	475281	keystroke_n	n	n/a
237.7155	0.074	475431	keystroke_e	e	n/a
237.8495	0.09	475699	keystroke_r	r	n/a
237.9845	0.105	475969	keystroke_Key.space	Key.space	n/a
238.1655	0.059	476331	keystroke_c	c	n/a
238.2405	0.164	476481	keystroke_o	o	n/a
238.3155	0.149	476631	keystroke_n	n	n/a
238.3745	0.075	476749	keystroke_v	v	n/a
238.5395	0.061	477079	keystroke_e	e	n/a
238.6745	0.091	477349	keystroke_r	r	n/a
238.8245	0.075	477649	keystroke_g	g	n/a
238.9305	0.105	477861	keystroke_e	e	n/a
239.0795	0.09	478159	keystroke_n	n	n/a
239.5605	0.059	479121	keystroke_c	c	n/a
239.7395	0.091	479479	keystroke_e	e	n/a
239.9495	0.09	479899	keystroke_Key.enter	Key.enter	n/a
240.0455	5.6705	480091	prompt	n/a	boat consumers enterprises challenges\n
240.7155	0.074	481431	keystroke_b	b	n/a
240.8645	0.09	481729	keystroke_o	o	n/a
240.9695	0.075	481939	keystroke_a	a	n/a
241.1505	0.074	482301	keystroke_t	t	n/a
241.2845	0.09	482569	keystroke_Key.space	Key.space	n/a
241.4945	0.075	482989	keystroke_c	c	n/a
241.5545	0.15	483109	keystroke_o	o	n/a
241.6445	0.135	483289	keystroke_n	n	n/a
241.7645	0.06	483529	keystroke_s	s	n/a
241.8855	0.119	483771	keystroke_u	u	n/a
242.1095	0.12	484219	keystroke_m	m	n/a
242.1995	0.076	484399	keystroke_e	e	n/a
242.3805	0.059	484761	keystroke_r	r	n/a
242.5445	0.076	485089	keystroke_s	s	n/a
242.6495	0.09	485299	keystroke_Key.space	Key.space	n/a
242.7555	0.089	485511	keystroke_e	e	n/a
242.8305	0.089	485661	keystroke_n	n	n/a
242.9655	0.074	485931	keystroke_t	t	n/a
243.1155	0.089	486231	keystroke_e	e	n/a
243.2505	0.06	486501	keystroke_r	r	n/a
243.3255	0.074	486651	keystroke_p	p	n/a
243.4145	0.061	486829	keystroke_r	r	n/a
243.5195	0.091	487039	keystroke_i	i	n/a
243.6405	0.09	487281	keystroke_s	s	n/a
243.8495	0.075	487699	keystroke_e	e	n/a
244.0145	0.106	488029	keystroke_s	s	n/a
244.1495	0.075	488299	keystroke_Key.space	Key.space	n/a
244.2695	0.061	488539	keystroke_c	c	n/a
244.3455	0.09	488691	keystroke_h	h	n/a
244.4045	0.075	488809	keystroke_a	a	n/a
244.5995	0.061	489199	keystroke_l	l	n/a
244.7495	0.075	489499	keystroke_l	l	n/a
244.8405	0.089	489681	keystroke_e	e	n/a
244.9605	0.105	489921	keystroke_n	n	n/a
245.0495	0.136	490099	keystroke_g	g	n/a
245.1705	0.1345	490341	keystroke_e	e	n/a
245.425	0.09	490850	keystroke_s	s	n/a
245.635	0.075	491270	keystroke_Key.enter	Key.enter	n/a
245.72	7.1325	491440	prompt	n/a	regularly fingers counseling become\n
246.325	0.105	492650	keystroke_r	r	n/a
246.4	0.105	492800	keystroke_e	e	n/a
246.55	0.09	493100	keystroke_g	g	n/a
246.625	0.09	493250	keystroke_u	u	n/a
247.21	0.075	494420	keystroke_l	l	n/a
247.405	0.09	494810	keystroke_a	a	n/a
247.63	0.105	495260	keystroke_r	r	n/a
248.065	0.075	496130	keystroke_l	l	n/a
248.2	0.09	496400	keystroke_y	y	n/a
248.35	0.105	496700	keystroke_Key.space	Key.space	n/a
248.59	0.045	497180	keystroke_f	f	n/a
248.62	0.105	497240	keystroke_i	i	n/a
248.83	0.105	497660	keystroke_n	n	n/a
248.936	0.059	497872	keystroke_g	g	n/a
249.04	0.09	498080	keystroke_e	e	n/a
249.19	0.075	498380	keystroke_r	r	n/a
249.37	0.075	498740	keystroke_s	s	n/a
249.475	0.06	498950	keystroke_Key.space	Key.space	n/a
249.715	0.075	499430	keystroke_c	c	n/a
249.791	0.089	499582	keystroke_o	o	n/a
250.315	0.09	500630	keystroke_u	u	n/a
250.915	0.105	501830	keystroke_n	n	n/a
251.08	0.075	502160	keystroke_s	s	n/a
251.23	0.105	502460	keystroke_e	e	n/a
251.32	0.105	502640	keystroke_l	l	n/a
251.605	0.15	503210	keystroke_i	i	n/a
251.74	0.12	503480	keystroke_n	n	n/a
251.89	0.06	503780	keystroke_g	g	n/a
251.98	0.06	503960	keystroke_Key.space	Key.space	n/a
252.13	0.09	504260	keystroke_b	b	n/a
252.16	0.075	504320	keystroke_e	e	n/a
252.34	0.105	504680	keystroke_c	c	n/a
252.415	0.135	504830	keystroke_o	o	n/a
252.49	0.15	504980	keystroke_m	m	n/a
252.625	0.105	505250	keystroke_e	e	n/a
252.745	0.105	505490	keystroke_Key.enter	Key.enter	n/a
252.856	6.248	505712	prompt	n/a	herself cleaner passenger represented\n
253.51	0.105	507020	keystroke_h	h	n/a
253.6	0.09	507200	keystroke_e	e	n/a
253.765	0.06	507530	keystroke_r	r	n/a
253.96	0.06	507920	keystroke_s	s	n/a
254.095	0.075	508190	keystroke_e	e	n/a
254.155	0.09	508310	keystroke_l	l	n/a
254.275	0.075	508550	keystroke_f	f	n/a
254.38	0.09	508760	keystroke_Key.space	Key.space	n/a
254.785	0.09	509570	keystroke_c	c	n/a
254.905	0.105	509810	keystroke_l	l	n/a
254.995	0.06	509990	keystroke_e	e	n/a
255.16	0.09	510320	keystroke_a	a	n/a
255.265	0.105	510530	keystroke_n	n	n/a
255.385	0.075	510770	keystroke_e	e	n/a
255.535	0.075	511070	keystroke_r	r	n/a
255.64	0.075	511280	keystroke_Key.space	Key.space	n/a
255.835	0.06	511670	keystroke_p	p	n/a
255.911	0.089	511822	keystroke_a	a	n/a
256.105	0.06	512210	keystroke_s	s	n/a
256.24	0.06	512480	keystroke_s	s	n/a
256.42	0.09	512840	keystroke_e	e	n/a
256.57	0.09	513140	keystroke_n	n	n/a
256.72	0.06	513440	keystroke_g	g	n/a
256.885	0.075	513770	keystroke_e	e	n/a
257.08	0.0755	514160	keystroke_r	r	n/a
257.2305	0.09	514461	keystroke_Key.space	Key.space	n/a
257.4855	0.105	514971	keystroke_r	r	n/a
257.5455	0.12	515091	keystroke_e	e	n/a
257.6355	0.09	515271	keystroke_p	p	n/a
257.7555	0.135	515511	keystroke_r	r	n/a
257.8305	0.075	515661	keystroke_e	e	n/a
258.0255	0.075	516051	keystroke_s	s	n/a
258.1755	0.075	516351	keystroke_e	e	n/a
258.2955	0.075	516591	keystroke_n	n	n/a
258.4155	0.12	516831	keystroke_t	t	n/a
258.5055	0.105	517011	keystroke_e	e	n/a
258.8505	0.105	517701	keystroke_d	d	n/a
258.9855	0.105	517971	keystroke_Key.enter	Key.enter	n/a
259.112	5.112	518224	prompt	n/a	irrigation suse teacher ladder\n
259.9305	0.09	519861	keystroke_i	i	n/a
260.0505	0.075	520101	keystroke_r	r	n/a
260.1705	0.075	520341	keystroke_r	r	n/a
260.2605	0.075	520521	keystroke_i	i	n/a
260.3205	0.045	520641	keystroke_g	g	n/a
260.4555	0.09	520911	keystroke_a	a	n/a
260.6055	0.09	521211	keystroke_t	t	n/a
260.6655	0.09	521331	keystroke_i	i	n/a
260.8305	0.15	521661	keystroke_o	o	n/a
260.9355	0.09	521871	keystroke_n	n	n/a
261.1005	0.135	522201	keystroke_Key.space	Key.space	n/a
261.2505	0.09	522501	keystroke_s	s	n/a
261.3255	0.09	522651	keystroke_u	u	n/a
261.4005	0.06	522801	keystroke_s	s	n/a
261.5655	0.105	523131	keystroke_e	e	n/a
261.6855	0.105	523371	keystroke_Key.space	Key.space	n/a
261.8205	0.135	523641	keystroke_t	t	n/a
261.9405	0.15	523881	keystroke_e	e	n/a
262.2105	0.075	524421	keystroke_a	a	n/a
262.4055	0.075	524811	keystroke_c	c	n/a
262.5105	0.075	525021	keystroke_h	h	n/a
262.6005	0.075	525201	keystroke_e	e	n/a
262.7655	0.09	525531	keystroke_r	r	n/a
262.9005	0.075	525801	keystroke_Key.space	Key.space	n/a
263.2005	0.09	526401	keystroke_l	l	n/a
263.3355	0.075	526671	keystroke_a	a	n/a
263.5155	0.075	527031	keystroke_d	d	n/a
263.6955	0.06	527391	keystroke_d	d	n/a
263.8755	0.06	527751	keystroke_e	e	n/a
263.9955	0.09	527991	keystroke_r	r	n/a
264.1155	0.105	528231	keystroke_Key.enter	Key.enter	n/a
264.228	6.0995	528456	prompt	n/a	resume harvest tribes surprising\n
264.8655	0.09	529731	keystroke_r	r	n/a
265.0605	0.06	530121	keystroke_e	e	n/a
265.2255	0.075	530451	keystroke_s	s	n/a
265.2855	0.09	530571	keystroke_u	u	n/a
265.4955	0.09	530991	keystroke_m	m	n/a
265.6005	0.075	531201	keystroke_e	e	n/a
265.7055	0.105	531411	keystroke_Key.space	Key.space	n/a
265.8705	0.09	531741	keystroke_h	h	n/a
265.8855	0.09	531771	keystroke_a	a	n/a
266.0655	0.06	532131	keystroke_r	r	n/a
266.2605	0.105	532521	keystroke_v	v	n/a
266.3955	0.075	532791	keystroke_e	e	n/a
266.5605	0.075	533121	keystroke_s	s	n/a
266.7255	0.09	533451	keystroke_t	t	n/a
266.8455	0.09	533691	keystroke_Key.space	Key.space	n/a
267.0705	0.105	534141	keystroke_t	t	n/a
267.1755	0.12	534351	keystroke_r	r	n/a
267.2805	0.09	534561	keystroke_i	i	n/a
267.3855	0.09	534771	keystroke_b	b	n/a
267.5505	0.075	535101	keystroke_e	e	n/a
267.7155	0.075	535431	keystroke_s	s	n/a
267.8355	0.075	535671	keystroke_Key.space	Key.space	n/a
267.9705	0.09	535941	keystroke_s	s	n/a
268.0755	0.105	536151	keystroke_u	u	n/a
268.2705	0.09	536541	keystroke_r	r	n/a
268.4205	0.075	536841	keystroke_p	p	n/a
268.4805	0.075	536961	keystroke_r	r	n/a
268.6155	0.12	537231	keystroke_i	i	n/a
268.7205	0.075	537441	keystroke_s	s	n/a
268.9015	0.044	537803	keystroke_e	e	n/a
269.4555	0.09	538911	keystroke_Key.backspace	Key.backspace	n/a
269.8155	0.165	539631	keystroke_i	i	n/a
269.9355	0.135	539871	keystroke_n	n	n/a
270.0855	0.09	540171	keystroke_g	g	n/a
270.2505	0.075	540501	keystroke_Key.enter	Key.enter	n/a
270.332	10.3755	540664	prompt	n/a	kyle drink compact mouth\n
271.0005	0.105	542001	keystroke_h	h	n/a
271.1955	0.09	542391	keystroke_y	y	n/a
271.4955	0.09	542991	keystroke_l	l	n/a
271.6605	0.09	543321	keystroke_e	e	n/a
271.7955	0.09	543591	keystroke_Key.space	Key.space	n/a
272.0205	0.15	544041	keystroke_d	d	n/a
272.2605	0.09	544521	keystroke_r	r	n/a
272.3655	0.12	544731	keystroke_i	i	n/a
272.5005	0.12	545001	keystroke_n	n	n/a
272.6805	0.12	545361	keystroke_k	k	n/a
272.8455	0.105	545691	keystroke_Key.space	Key.space	n/a
273.0255	0.09	546051	keystroke_c	c	n/a
273.0705	0.1945	546141	keystroke_o	o	n/a
273.236	0.104	546472	keystroke_m	m	n/a
273.4	0.09	546800	keystroke_p	p	n/a
273.506	0.089	547012	keystroke_a	a	n/a
273.925	0.481	547850	keystroke_Key.backspace	Key.backspace	n/a
274.54	0.045	549080	keystroke_Key.backspace	Key.backspace	n/a
274.66	0.06	549320	keystroke_Key.backspace	Key.backspace	n/a
274.81	0.06	549620	keystroke_Key.backspace	Key.backspace	n/a
274.945	0.045	549890	keystroke_Key.backspace	Key.backspace	n/a
275.08	0.06	550160	keystroke_Key.backspace	Key.backspace	n/a
275.215	0.06	550430	keystroke_Key.backspace	Key.backspace	n/a
275.38	0.03	550760	keystroke_Key.backspace	Key.backspace	n/a
275.485	0.075	550970	keystroke_Key.backspace	Key.backspace	n/a
275.65	0.045	551300	keystroke_Key.backspace	Key.backspace	n/a
275.8	0.045	551600	keystroke_Key.backspace	Key.backspace	n/a
275.936	0.044	551872	keystroke_Key.backspace	Key.backspace	n/a
276.085	0.06	552170	keystroke_Key.backspace	Key.backspace	n/a
276.22	0.075	552440	keystroke_Key.backspace	Key.backspace	n/a
276.371	0.06	552742	keystroke_Key.backspace	Key.backspace	n/a
276.52	0.06	553040	keystroke_Key.backspace	Key.backspace	n/a
276.655	0.061	553310	keystroke_Key.backspace	Key.backspace	n/a
276.94	0.09	553880	keystroke_k	k	n/a
277.046	0.06	554092	keystroke_y	y	n/a
277.151	0.089	554302	keystroke_l	l	n/a
277.256	0.089	554512	keystroke_e	e	n/a
277.406	0.089	554812	keystroke_Key.space	Key.space	n/a
277.526	0.089	555052	keystroke_d	d	n/a
277.735	0.091	555470	keystroke_r	r	n/a
277.826	0.134	555652	keystroke_i	i	n/a
277.975	0.09	555950	keystroke_n	n	n/a
278.141	0.12	556282	keystroke_k	k	n/a
278.32	0.105	556640	keystroke_Key.space	Key.space	n/a
278.516	0.075	557032	keystroke_c	c	n/a
278.576	0.149	557152	keystroke_o	o	n/a
278.711	0.089	557422	keystroke_m	m	n/a
278.861	0.074	557722	keystroke_p	p	n/a
278.981	0.089	557962	keystroke_a	a	n/a
279.37	0.076	558740	keystroke_c	c	n/a
279.595	0.091	559190	keystroke_t	t	n/a
279.686	0.074	559372	keystroke_Key.space	Key.space	n/a
279.835	0.12	559670	keystroke_m	m	n/a
279.971	0.089	559942	keystroke_o	o	n/a
280.15	0.091	560300	keystroke_u	u	n/a
280.286	0.075	560572	keystroke_t	t	n/a
280.375	0.106	560750	keystroke_h	h	n/a
280.631	0.074	561262	keystroke_Key.enter	Key.enter	n/a
280.7125	6.1	561425	prompt	n/a	upcoming ship organizing edited\n
281.426	0.089	562852	keystroke_u	u	n/a
281.636	0.09	563272	keystroke_p	p	n/a
281.785	0.09	563570	keystroke_c	c	n/a
281.891	0.12	563782	keystroke_o	o	n/a
282.086	0.104	564172	keystroke_m	m	n/a
282.25	0.136	564500	keystroke_i	i	n/a
282.311	0.15	564622	keystroke_n	n	n/a
282.476	0.06	564952	keystroke_g	g	n/a
282.58	0.105	565160	keystroke_Key.space	Key.space	n/a
282.731	0.075	565462	keystroke_s	s	n/a
282.836	0.075	565672	keystroke_h	h	n/a
283.031	0.089	566062	keystroke_i	i	n/a
283.24	0.091	566480	keystroke_p	p	n/a
283.45	0.075	566900	keystroke_Key.space	Key.space	n/a
283.616	0.074	567232	keystroke_o	o	n/a
283.705	0.091	567410	keystroke_r	r	n/a
283.87	0.061	567740	keystroke_g	g	n/a
284.05	0.075	568100	keystroke_a	a	n/a
284.186	0.074	568372	keystroke_n	n	n/a
284.321	0.09	568642	keystroke_i	i	n/a
285.116	0.075	570232	keystroke_z	z	n/a
285.265	0.166	570530	keystroke_i	i	n/a
285.37	0.121	570740	keystroke_n	n	n/a
285.58	0.076	571160	keystroke_g	g	n/a
285.685	0.105	571370	keystroke_Key.space	Key.space	n/a
285.851	0.074	571702	keystroke_e	e	n/a
286.0455	0.0755	572091	keystroke_d	d	n/a
286.1355	0.0895	572271	keystroke_i	i	n/a
286.256	0.074	572512	keystroke_t	t	n/a
286.45	0.061	572900	keystroke_e	e	n/a
286.631	0.075	573262	keystroke_d	d	n/a
286.735	0.076	573470	keystroke_Key.enter	Key.enter	n/a
286.8175	6.82	573635	prompt	n/a	tournaments dayton location beads\n
287.6655	0.074	575331	keystroke_t	t	n/a
287.7555	0.0895	575511	keystroke_o	o	n/a
287.92	0.0905	575840	keystroke_u	u	n/a
287.9955	0.0905	575991	keystroke_r	r	n/a
288.1305	0.0745	576261	keystroke_n	n	n/a
288.221	0.0745	576442	keystroke_a	a	n/a
288.2955	0.1045	576591	keystroke_m	m	n/a
288.4305	0.0895	576861	keystroke_e	e	n/a
288.4895	0.106	576979	keystroke_n	n	n/a
288.64	0.0905	577280	keystroke_t	t	n/a
288.9395	0.091	577879	keystroke_Key.space	Key.space	n/a
289.3455	0.0745	578691	keystroke_Key.backspace	Key.backspace	n/a
289.4355	0.0895	578871	keystroke_s	s	n/a
289.57	0.1355	579140	keystroke_Key.space	Key.space	n/a
289.69	0.075	579380	keystroke_d	d	n/a
289.7945	0.106	579589	keystroke_a	a	n/a
289.8845	0.061	579769	keystroke_u	u	n/a
290.411	0.0735	580822	keystroke_Key.backspace	Key.backspace	n/a
290.696	0.0735	581392	keystroke_y	y	n/a
290.9055	0.0895	581811	keystroke_t	t	n/a
291.0105	0.135	582021	keystroke_o	o	n/a
291.0855	0.1055	582171	keystroke_n	n	n/a
291.3095	0.1055	582619	keystroke_Key.space	Key.space	n/a
291.5505	0.09	583101	keystroke_l	l	n/a
291.7305	0.06	583461	keystroke_o	o	n/a
291.8195	0.0755	583639	keystroke_c	c	n/a
291.9255	0.119	583851	keystroke_a	a	n/a
292.1205	0.104	584241	keystroke_t	t	n/a
292.1805	0.09	584361	keystroke_i	i	n/a
292.3455	0.195	584691	keystroke_o	o	n/a
292.4805	0.105	584961	keystroke_n	n	n/a
292.6605	0.074	585321	keystroke_Key.space	Key.space	n/a
292.8105	0.089	585621	keystroke_b	b	n/a
292.9155	0.075	585831	keystroke_e	e	n/a
293.1105	0.075	586221	keystroke_a	a	n/a
293.3055	0.18	586611	keystroke_d	d	n/a
293.4105	0.105	586821	keystroke_s	s	n/a
293.5455	0.09	587091	keystroke_Key.enter	Key.enter	n/a
293.6485	5.8385	587297	prompt	n/a	pending edges vocabulary faster\n
294.5055	0.09	589011	keystroke_p	p	n/a
294.6405	0.075	589281	keystroke_e	e	n/a
294.7605	0.09	589521	keystroke_n	n	n/a
294.8805	0.09	589761	keystroke_d	d	n/a
294.9995	0.151	589999	keystroke_i	i	n/a
295.1355	0.104	590271	keystroke_n	n	n/a
295.271	0.0595	590542	keystroke_g	g	n/a
295.3745	0.091	590749	keystroke_Key.space	Key.space	n/a
295.5695	0.061	591139	keystroke_e	e	n/a
295.7505	0.105	591501	keystroke_d	d	n/a
295.9455	0.135	591891	keystroke_g	g	n/a
296.0505	0.105	592101	keystroke_e	e	n/a
296.2605	0.075	592521	keystroke_s	s	n/a
296.3655	0.089	592731	keystroke_Key.space	Key.space	n/a
296.6655	0.074	593331	keystroke_v	v	n/a
296.9205	0.09	593841	keystroke_o	o	n/a
297.1305	0.075	594261	keystroke_c	c	n/a
297.3105	0.075	594621	keystroke_a	a	n/a
297.4305	0.105	594861	keystroke_b	b	n/a
297.5795	0.106	595159	keystroke_u	u	n/a
297.7905	0.09	595581	keystroke_l	l	n/a
297.8805	0.075	595761	keystroke_a	a	n/a
298.0455	0.075	596091	keystroke_r	r	n/a
298.1355	0.134	596271	keystroke_y	y	n/a
298.3895	0.106	596779	keystroke_Key.space	Key.space	n/a
298.4505	0.075	596901	keystroke_f	f	n/a
298.5855	0.09	597171	keystroke_a	a	n/a
298.7955	0.09	597591	keystroke_s	s	n/a
299.0055	0.09	598011	keystroke_t	t	n/a
299.1095	0.091	598219	keystroke_e	e	n/a
299.2605	0.075	598521	keystroke_r	r	n/a
299.4105	0.075	598821	keystroke_Key.enter	Key.enter	n/a
299.4915	7.5115	598983	prompt	n/a	milwaukee rachel kenya commented\n
300.2355	0.105	600471	keystroke_m	m	n/a
300.4605	0.105	600921	keystroke_i	i	n/a
300.7155	0.074	601431	keystroke_l	l	n/a
300.9555	0.089	601911	keystroke_w	w	n/a
301.1655	0.075	602331	keystroke_a	a	n/a
301.2555	0.09	602511	keystroke_u	u	n/a
301.4505	0.09	602901	keystroke_k	k	n/a
301.6595	0.03	603319	keystroke_e	e	n/a
301.7805	0.06	603561	keystroke_e	e	n/a
301.8705	0.12	603741	keystroke_Key.space	Key.space	n/a
301.9755	0.075	603951	keystroke_r	r	n/a
302.1855	0.09	604371	keystroke_a	a	n/a
302.4405	0.105	604881	keystroke_c	c	n/a
302.8305	0.075	605661	keystroke_h	h	n/a
303.0555	0.075	606111	keystroke_e	e	n/a
303.1455	0.09	606291	keystroke_l	l	n/a
303.2945	0.121	606589	keystroke_Key.space	Key.space	n/a
303.5055	0.045	607011	keystroke_k	k	n/a
303.5655	0.045	607131	keystroke_k	k	n/a
303.9705	0.09	607941	keystroke_e	e	n/a
304.1505	0.045	608301	keystroke_n	n	n/a
304.4195	0.046	608839	keystroke_Key.backspace	Key.backspace	n/a
304.5405	0.074	609081	keystroke_Key.backspace	Key.backspace	n/a
304.6905	0.045	609381	keystroke_Key.backspace	Key.backspace	n/a
304.9305	0.075	609861	keystroke_e	e	n/a
305.0355	0.105	610071	keystroke_n	n	n/a
305.2605	0.075	610521	keystroke_y	y	n/a
305.4405	0.06	610881	keystroke_a	a	n/a
305.5455	0.09	611091	keystroke_Key.space	Key.space	n/a
305.8005	0.075	611601	keystroke_c	c	n/a
305.9055	0.075	611811	keystroke_o	o	n/a
306.0855	0.075	612171	keystroke_m	m	n/a
306.2205	0.075	612441	keystroke_m	m	n/a
306.2805	0.09	612561	keystroke_e	e	n/a
306.3855	0.075	612771	keystroke_n	n	n/a
306.4905	0.06	612981	keystroke_t	t	n/a
306.6705	0.06	613341	keystroke_e	e	n/a
306.8205	0.09	613641	keystroke_d	d	n/a
306.9255	0.075	613851	keystroke_Key.enter	Key.enter	n/a
307.0075	4.4945	614015	prompt	n/a	surveys canon sole california\n
307.5855	0.075	615171	keystroke_s	s	n/a
307.6755	0.105	615351	keystroke_u	u	n/a
307.7955	0.09	615591	keystroke_r	r	n/a
307.9755	0.06	615951	keystroke_v	v	n/a
308.0805	0.09	616161	keystroke_e	e	n/a
308.1855	0.09	616371	keystroke_y	y	n/a
308.3055	0.105	616611	keystroke_s	s	n/a
308.4555	0.105	616911	keystroke_Key.space	Key.space	n/a
308.6055	0.075	617211	keystroke_c	c	n/a
308.7405	0.09	617481	keystroke_a	a	n/a
308.8755	0.15	617751	keystroke_n	n	n/a
309.1005	0.195	618201	keystroke_o	o	n/a
309.2205	0.12	618441	keystroke_n	n	n/a
309.4305	0.09	618861	keystroke_Key.space	Key.space	n/a
309.5655	0.075	619131	keystroke_s	s	n/a
309.6555	0.075	619311	keystroke_o	o	n/a
309.8355	0.09	619671	keystroke_l	l	n/a
309.9555	0.105	619911	keystroke_e	e	n/a
310.0905	0.09	620181	keystroke_Key.space	Key.space	n/a
310.2105	0.075	620421	keystroke_c	c	n/a
310.3755	0.06	620751	keystroke_a	a	n/a
310.4505	0.09	620901	keystroke_l	l	n/a
310.6305	0.075	621261	keystroke_i	i	n/a
310.7205	0.075	621441	keystroke_f	f	n/a
310.8105	0.105	621621	keystroke_o	o	n/a
310.8855	0.09	621771	keystroke_r	r	n/a
310.9905	0.105	621981	keystroke_n	n	n/a
311.1105	0.09	622221	keystroke_i	i	n/a
311.2305	0.09	622461	keystroke_a	a	n/a
311.4555	0.045	622911	keystroke_Key.enter	Key.enter	n/a
311.506	7.992	623012	prompt	n/a	assessments galaxy certificates lookup\n
312.1155	0.06	624231	keystroke_a	a	n/a
312.3255	0.045	624651	keystroke_s	s	n/a
312.4455	0.075	624891	keystroke_s	s	n/a
312.6405	0.09	625281	keystroke_e	e	n/a
312.8655	0.045	625731	keystroke_s	s	n/a
312.9855	0.09	625971	keystroke_s	s	n/a
313.2705	0.105	626541	keystroke_m	m	n/a
313.3605	0.09	626721	keystroke_e	e	n/a
313.4655	0.09	626931	keystroke_n	n	n/a
313.5705	0.075	627141	keystroke_t	t	n/a
313.7955	0.09	627591	keystroke_s	s	n/a
313.9305	0.09	627861	keystroke_Key.space	Key.space	n/a
314.2155	0.045	628431	keystroke_g	g	n/a
314.3805	0.06	628761	keystroke_a	a	n/a
314.4555	0.09	628911	keystroke_l	l	n/a
314.5155	0.06	629031	keystroke_a	a	n/a
314.6805	0.075	629361	keystroke_z	z	n/a
314.7565	0.149	629513	keystroke_y	y	n/a
315.0705	0.075	630141	keystroke_Key.space	Key.space	n/a
315.2055	0.075	630411	keystroke_c	c	n/a
315.3555	0.09	630711	keystroke_e	e	n/a
315.5505	0.045	631101	keystroke_r	r	n/a
315.6855	0.075	631371	keystroke_t	t	n/a
315.7455	0.09	631491	keystroke_i	i	n/a
315.8805	0.09	631761	keystroke_f	f	n/a
315.9715	0.104	631943	keystroke_i	i	n/a
316.1205	0.06	632241	keystroke_c	c	n/a
316.2105	0.09	632421	keystroke_a	a	n/a
316.4355	0.12	632871	keystroke_t	t	n/a
316.5405	0.135	633081	keystroke_e	e	n/a
316.7805	0.09	633561	keystroke_d	d	n/a
316.8555	0.09	633711	keystroke_Key.space	Key.space	n/a
317.0055	0.105	634011	keystroke_l	l	n/a
317.2455	0.075	634491	keystroke_o	o	n/a
317.3805	0.06	634761	keystroke_o	o	n/a
317.5455	0.075	635091	keystroke_k	k	n/a
317.7405	0.09	635481	keystroke_u	u	n/a
317.9805	0.09	635961	keystroke_p	p	n/a
319.3905	0.105	638781	keystroke_Key.enter	Key.enter	n/a
319.502	9.43	639004	prompt	n/a	gnome kennedy mercedes attack\n
320.1855	0.075	640371	keystroke_g	g	n/a
320.3055	0.12	640611	keystroke_n	n	n/a
320.5155	0.18	641031	keystroke_o	o	n/a
320.6805	0.105	641361	keystroke_m	m	n/a
320.8155	0.075	641631	keystroke_e	e	n/a
320.8755	0.105	641751	keystroke_Key.space	Key.space	n/a
321.0255	0.105	642051	keystroke_k	k	n/a
321.1905	0.06	642381	keystroke_e	e	n/a
321.3405	0.045	642681	keystroke_e	e	n/a
321.4755	0.09	642951	keystroke_n	n	n/a
321.5955	0.09	643191	keystroke_e	e	n/a
321.7905	0.075	643581	keystroke_d	d	n/a
322.0305	0.09	644061	keystroke_y	y	n/a
322.2705	0.075	644541	keystroke_Key.space	Key.space	n/a
322.4205	0.12	644841	keystroke_m	m	n/a
322.4955	0.09	644991	keystroke_e	e	n/a
322.6605	0.075	645321	keystroke_r	r	n/a
323.0205	0.045	646041	keystroke_Key.backspace	Key.backspace	n/a
323.1555	0.06	646311	keystroke_Key.backspace	Key.backspace	n/a
323.3055	0.06	646611	keystroke_Key.backspace	Key.backspace	n/a
323.4705	0.03	646941	keystroke_Key.backspace	Key.backspace	n/a
323.6055	0.045	647211	keystroke_Key.backspace	Key.backspace	n/a
323.7555	0.045	647511	keystroke_Key.backspace	Key.backspace	n/a
324.0855	0.06	648171	keystroke_Key.backspace	Key.backspace	n/a
324.2355	0.06	648471	keystroke_Key.backspace	Key.backspace	n/a
324.4605	0.06	648921	keystroke_Key.backspace	Key.backspace	n/a
324.9555	0.06	649911	keystroke_n	n	n/a
325.1055	0.06	650211	keystroke_n	n	n/a
325.6305	0.06	651261	keystroke_e	e	n/a
325.7955	0.06	651591	keystroke_d	d	n/a
325.8855	0.09	651771	keystroke_y	y	n/a
326.1105	0.075	652221	keystroke_Key.space	Key.space	n/a
326.3055	0.105	652611	keystroke_m	m	n/a
326.4405	0.09	652881	keystroke_e	e	n/a
326.6505	0.09	653301	keystroke_r	r	n/a
326.8605	0.135	653721	keystroke_c	c	n/a
327.0705	0.105	654141	keystroke_e	e	n/a
327.3255	0.09	654651	keystroke_d	d	n/a
327.4455	0.12	654891	keystroke_e	e	n/a
327.6405	0.075	655281	keystroke_s	s	n/a
327.7455	0.105	655491	keystroke_Key.space	Key.space	n/a
327.8055	0.12	655611	keystroke_a	a	n/a
328.0455	0.075	656091	keystroke_t	t	n/a
328.1805	0.06	656361	keystroke_t	t	n/a
328.3455	0.075	656691	keystroke_a	a	n/a
328.5105	0.105	657021	keystroke_c	c	n/a
328.6155	0.105	657231	keystroke_k	k	n/a
328.8405	0.09	657681	keystroke_Key.enter	Key.enter	n/a
328.938	11.679	657876	prompt	n/a	lined biotechnology clinical monitoring\n
329.65	0.12	659300	keystroke_l	l	n/a
329.875	0.09	659750	keystroke_i	i	n/a
329.995	0.12	659990	keystroke_n	n	n/a
330.19	0.105	660380	keystroke_t	t	n/a
330.31	0.09	660620	keystroke_e	e	n/a
330.505	0.06	661010	keystroke_d	d	n/a
330.58	0.09	661160	keystroke_Key.space	Key.space	n/a
330.82	0.09	661640	keystroke_b	b	n/a
331	0.09	662000	keystroke_i	i	n/a
331.375	0.075	662750	keystroke_o	o	n/a
331.78	0.075	663560	keystroke_t	t	n/a
331.945	0.075	663890	keystroke_h	h	n/a
332.08	0.075	664160	keystroke_e	e	n/a
332.395	0.09	664790	keystroke_c	c	n/a
334.15	0.105	668300	keystroke_h	h	n/a
334.405	0.09	668810	keystroke_n	n	n/a
335.2	0.045	670400	keystroke_Key.backspace	Key.backspace	n/a
335.335	0.06	670670	keystroke_Key.backspace	Key.backspace	n/a
335.485	0.06	670970	keystroke_Key.backspace	Key.backspace	n/a
335.635	0.045	671270	keystroke_Key.backspace	Key.backspace	n/a
335.785	0.06	671570	keystroke_Key.backspace	Key.backspace	n/a
336.37	0.075	672740	keystroke_e	e	n/a
336.55	0.09	673100	keystroke_c	c	n/a
336.625	0.105	673250	keystroke_h	h	n/a
336.835	0.09	673670	keystroke_n	n	n/a
336.985	0.12	673970	keystroke_o	o	n/a
337.195	0.135	674390	keystroke_l	l	n/a
337.42	0.09	674840	keystroke_o	o	n/a
337.51	0.135	675020	keystroke_g	g	n/a
337.75	0.09	675500	keystroke_y	y	n/a
337.87	0.09	675740	keystroke_Key.space	Key.space	n/a
338.155	0.015	676310	keystroke_c	c	n/a
338.185	0.06	676370	keystroke_l	l	n/a
338.335	0.135	676670	keystroke_i	i	n/a
338.53	0.09	677060	keystroke_n	n	n/a
338.635	0.09	677270	keystroke_i	i	n/a
338.71	0.06	677420	keystroke_c	c	n/a
338.785	0.135	677570	keystroke_a	a	n/a
338.905	0.09	677810	keystroke_l	l	n/a
339.085	0.075	678170	keystroke_Key.space	Key.space	n/a
339.25	0.105	678500	keystroke_m	m	n/a
339.4	0.21	678800	keystroke_o	o	n/a
339.535	0.135	679070	keystroke_n	n	n/a
339.715	0.12	679430	keystroke_i	i	n/a
339.865	0.105	679730	keystroke_t	t	n/a
339.955	0.09	679910	keystroke_o	o	n/a
340.06	0.12	680120	keystroke_r	r	n/a
340.135	0.15	680270	keystroke_i	i	n/a
340.255	0.09	680510	keystroke_n	n	n/a
340.33	0.075	680660	keystroke_g	g	n/a
340.54	0.075	681080	keystroke_Key.enter	Key.enter	n/a
340.622	5.5905	681244	prompt	n/a	musician venezuela defensive oscar\n
341.38	0.09	682760	keystroke_m	m	n/a
341.575	0.075	683150	keystroke_u	u	n/a
341.665	0.075	683330	keystroke_s	s	n/a
341.755	0.06	683510	keystroke_i	i	n/a
341.83	0.105	683660	keystroke_c	c	n/a
341.905	0.075	683810	keystroke_i	i	n/a
342.04	0.09	684080	keystroke_a	a	n/a
342.145	0.09	684290	keystroke_n	n	n/a
342.34	0.09	684680	keystroke_Key.space	Key.space	n/a
342.505	0.105	685010	keystroke_v	v	n/a
342.715	0.06	685430	keystroke_e	e	n/a
342.805	0.075	685610	keystroke_n	n	n/a
342.865	0.06	685730	keystroke_e	e	n/a
343.18	0.105	686360	keystroke_z	z	n/a
343.375	0.075	686750	keystroke_u	u	n/a
343.525	0.09	687050	keystroke_e	e	n/a
343.705	0.09	687410	keystroke_l	l	n/a
343.84	0.09	687680	keystroke_a	a	n/a
343.96	0.105	687920	keystroke_Key.space	Key.space	n/a
344.11	0.105	688220	keystroke_d	d	n/a
344.26	0.075	688520	keystroke_e	e	n/a
344.395	0.12	688790	keystroke_f	f	n/a
344.5	0.09	689000	keystroke_e	e	n/a
344.65	0.12	689300	keystroke_n	n	n/a
344.785	0.075	689570	keystroke_s	s	n/a
344.875	0.105	689750	keystroke_i	i	n/a
344.965	0.12	689930	keystroke_v	v	n/a
345.1	0.12	690200	keystroke_e	e	n/a
345.235	0.075	690470	keystroke_Key.space	Key.space	n/a
345.475	0.09	690950	keystroke_o	o	n/a
345.55	0.075	691100	keystroke_s	s	n/a
345.685	0.105	691370	keystroke_c	c	n/a
345.82	0.12	691640	keystroke_a	a	n/a
346	0.12	692000	keystroke_r	r	n/a
346.135	0.075	692270	keystroke_Key.enter	Key.enter	n/a
346.218	5.4695	692436	prompt	n/a	blonde carlos relation sleeps\n
346.915	0.09	693830	keystroke_b	b	n/a
347.14	0.09	694280	keystroke_l	l	n/a
347.32	0.135	694640	keystroke_o	o	n/a
347.425	0.12	694850	keystroke_n	n	n/a
347.605	0.09	695210	keystroke_d	d	n/a
347.725	0.105	695450	keystroke_e	e	n/a
347.875	0.105	695750	keystroke_Key.space	Key.space	n/a
348.04	0.045	696080	keystroke_c	c	n/a
348.145	0.075	696290	keystroke_a	a	n/a
348.295	0.09	696590	keystroke_r	r	n/a
348.37	0.075	696740	keystroke_l	l	n/a
348.535	0.105	697070	keystroke_o	o	n/a
348.67	0.09	697340	keystroke_s	s	n/a
348.745	0.12	697490	keystroke_Key.space	Key.space	n/a
348.88	0.105	697760	keystroke_r	r	n/a
348.955	0.06	697910	keystroke_e	e	n/a
349	0.09	698000	keystroke_l	l	n/a
349.105	0.09	698210	keystroke_a	a	n/a
349.3	0.09	698600	keystroke_t	t	n/a
349.345	0.09	698690	keystroke_i	i	n/a
349.51	0.18	699020	keystroke_o	o	n/a
349.63	0.12	699260	keystroke_n	n	n/a
349.825	0.105	699650	keystroke_Key.space	Key.space	n/a
349.975	0.09	699950	keystroke_k	k	n/a
350.485	0.075	700970	keystroke_Key.backspace	Key.backspace	n/a
350.665	0.075	701330	keystroke_s	s	n/a
350.77	0.06	701540	keystroke_l	l	n/a
350.89	0.075	701780	keystroke_e	e	n/a
351.07	0.06	702140	keystroke_e	e	n/a
351.19	0.105	702380	keystroke_p	p	n/a
351.325	0.09	702650	keystroke_s	s	n/a
351.61	0.075	703220	keystroke_Key.enter	Key.enter	n/a
351.699	5.9585	703398	prompt	n/a	gras family legislation associated\n
352.45	0.105	704900	keystroke_g	g	n/a
352.6	0.075	705200	keystroke_r	r	n/a
352.84	0.09	705680	keystroke_a	a	n/a
353.065	0.075	706130	keystroke_s	s	n/a
353.2	0.105	706400	keystroke_Key.space	Key.space	n/a
353.29	0.06	706580	keystroke_f	f	n/a
353.425	0.09	706850	keystroke_a	a	n/a
353.485	0.105	706970	keystroke_m	m	n/a
353.68	0.105	707360	keystroke_i	i	n/a
353.905	0.075	707810	keystroke_l	l	n/a
354.085	0.09	708170	keystroke_y	y	n/a
354.265	0.09	708530	keystroke_Key.space	Key.space	n/a
354.475	0.105	708950	keystroke_l	l	n/a
354.595	0.12	709190	keystroke_e	e	n/a
354.85	0.075	709700	keystroke_g	g	n/a
354.94	0.105	709880	keystroke_i	i	n/a
355.12	0.09	710240	keystroke_s	s	n/a
355.255	0.105	710510	keystroke_l	l	n/a
355.405	0.09	710810	keystroke_a	a	n/a
355.555	0.135	711110	keystroke_t	t	n/a
355.675	0.09	711350	keystroke_i	i	n/a
355.855	0.21	711710	keystroke_o	o	n/a
356.005	0.105	712010	keystroke_n	n	n/a
356.215	0.105	712430	keystroke_Key.space	Key.space	n/a
356.35	0.075	712700	keystroke_a	a	n/a
356.56	0.03	713120	keystroke_s	s	n/a
356.68	0.06	713360	keystroke_s	s	n/a
356.77	0.09	713540	keystroke_o	o	n/a
356.845	0.06	713690	keystroke_c	c	n/a
356.95	0.105	713900	keystroke_i	i	n/a
356.98	0.09	713960	keystroke_a	a	n/a
357.19	0.105	714380	keystroke_t	t	n/a
357.265	0.105	714530	keystroke_e	e	n/a
357.46	0.09	714920	keystroke_d	d	n/a
357.565	0.09	715130	keystroke_Key.enter	Key.enter	n/a
357.664	5.8425	715328	prompt	n/a	essay standing williams forty\n
358.285	0.105	716570	keystroke_e	e	n/a
358.585	0.03	717170	keystroke_s	s	n/a
358.72	0.045	717440	keystroke_s	s	n/a
358.87	0.061	717740	keystroke_a	a	n/a
358.885	0.105	717770	keystroke_y	y	n/a
359.11	0.105	718220	keystroke_Key.space	Key.space	n/a
359.185	0.06	718370	keystroke_s	s	n/a
359.35	0.06	718700	keystroke_t	t	n/a
359.515	0.09	719030	keystroke_a	a	n/a
359.575	0.105	719150	keystroke_n	n	n/a
359.695	0.09	719390	keystroke_d	d	n/a
359.77	0.165	719540	keystroke_i	i	n/a
359.86	0.135	719720	keystroke_n	n	n/a
360.01	0.075	720020	keystroke_g	g	n/a
360.145	0.06	720290	keystroke_Key.space	Key.space	n/a
360.565	0.075	721130	keystroke_w	w	n/a
360.67	0.09	721340	keystroke_i	i	n/a
360.925	0.03	721850	keystroke_l	l	n/a
361.015	0.09	722030	keystroke_l	l	n/a
361.225	0.09	722450	keystroke_i	i	n/a
361.525	0.09	723050	keystroke_a	a	n/a
361.885	0.0745	723770	keystroke_m	m	n/a
362.0345	0.12	724069	keystroke_s	s	n/a
362.1995	0.105	724399	keystroke_Key.space	Key.space	n/a
362.3945	0.075	724789	keystroke_f	f	n/a
362.4845	0.105	724969	keystroke_o	o	n/a
362.6045	0.105	725209	keystroke_r	r	n/a
362.7845	0.135	725569	keystroke_t	t	n/a
363.0545	0.075	726109	keystroke_y	y	n/a
363.4445	0.06	726889	keystroke_Key.enter	Key.enter	n/a
363.5105	6.6715	727021	prompt	n/a	reliance what'll commonly mercedes\n
364.2995	0.06	728599	keystroke_r	r	n/a
364.4645	0.09	728929	keystroke_e	e	n/a
364.5695	0.105	729139	keystroke_l	l	n/a
364.7795	0.09	729559	keystroke_i	i	n/a
364.8245	0.105	729649	keystroke_a	a	n/a
364.9595	0.135	729919	keystroke_n	n	n/a
365.0195	0.12	730039	keystroke_c	c	n/a
365.2145	0.105	730429	keystroke_e	e	n/a
365.3495	0.105	730699	keystroke_Key.space	Key.space	n/a
365.59	0.075	731180	keystroke_w	w	n/a
365.71	0.09	731420	keystroke_h	h	n/a
365.815	0.09	731630	keystroke_a	a	n/a
366.055	0.105	732110	keystroke_t	t	n/a
366.295	0.075	732590	keystroke_'	'	n/a
366.685	0.06	733370	keystroke_l	l	n/a
366.82	0.075	733640	keystroke_l	l	n/a
367.06	0.105	734120	keystroke_Key.space	Key.space	n/a
367.255	0.12	734510	keystroke_c	c	n/a
367.345	0.09	734690	keystroke_o	o	n/a
367.555	0.045	735110	keystroke_m	m	n/a
367.675	0.075	735350	keystroke_m	m	n/a
367.855	0.135	735710	keystroke_o	o	n/a
367.915	0.165	735830	keystroke_n	n	n/a
368.14	0.105	736280	keystroke_l	l	n/a
368.38	0.09	736760	keystroke_y	y	n/a
368.5	0.074	737000	keystroke_Key.space	Key.space	n/a
368.65	0.105	737300	keystroke_m	m	n/a
368.725	0.075	737450	keystroke_e	e	n/a
368.935	0.09	737870	keystroke_r	r	n/a
369.265	0.12	738530	keystroke_c	c	n/a
369.43	0.09	738860	keystroke_e	e	n/a
369.655	0.09	739310	keystroke_d	d	n/a
369.835	0.075	739670	keystroke_e	e	n/a
370.015	0.06	740030	keystroke_s	s	n/a
370.105	0.075	740210	keystroke_Key.enter	Key.enter	n/a
370.1865	8.0355	740373	prompt	n/a	scotland coast plays participant\n
370.75	0.06	741500	keystroke_s	s	n/a
370.96	0.09	741920	keystroke_c	c	n/a
371.17	0.09	742340	keystroke_o	o	n/a
371.275	0.09	742550	keystroke_t	t	n/a
371.425	0.09	742850	keystroke_l	l	n/a
371.59	0.06	743180	keystroke_a	a	n/a
371.68	0.06	743360	keystroke_n	n	n/a
371.785	0.045	743570	keystroke_d	d	n/a
371.95	0.09	743900	keystroke_Key.space	Key.space	n/a
372.085	0.045	744170	keystroke_c	c	n/a
372.145	0.105	744290	keystroke_o	o	n/a
372.325	0.09	744650	keystroke_a	a	n/a
372.55	0.09	745100	keystroke_s	s	n/a
372.805	0.09	745610	keystroke_t	t	n/a
372.91	0.075	745820	keystroke_Key.space	Key.space	n/a
373.12	0.15	746240	keystroke_p	p	n/a
373.24	0.09	746480	keystroke_l	l	n/a
373.375	0.09	746750	keystroke_a	a	n/a
373.57	0.09	747140	keystroke_y	y	n/a
373.72	0.06	747440	keystroke_s	s	n/a
373.855	0.09	747710	keystroke_Key.space	Key.space	n/a
374.08	0.12	748160	keystroke_p	p	n/a
374.185	0.075	748370	keystroke_a	a	n/a
374.38	0.03	748760	keystroke_r	r	n/a
374.5	0.015	749000	keystroke_t	t	n/a
375.37	0.075	750740	keystroke_t	t	n/a
375.58	0.06	751160	keystroke_i	i	n/a
375.94	0.045	751880	keystroke_Key.backspace	Key.backspace	n/a
376.045	0.075	752090	keystroke_Key.backspace	Key.backspace	n/a
376.345	0.075	752690	keystroke_i	i	n/a
376.36	0.06	752720	keystroke_u	u	n/a
376.9	0.09	753800	keystroke_Key.backspace	Key.backspace	n/a
377.305	0.075	754610	keystroke_c	c	n/a
377.425	0.075	754850	keystroke_i	i	n/a
377.635	0.09	755270	keystroke_p	p	n/a
377.755	0.09	755510	keystroke_a	a	n/a
377.86	0.105	755720	keystroke_n	n	n/a
378.025	0.09	756050	keystroke_t	t	n/a
378.13	0.09	756260	keystroke_Key.enter	Key.enter	n/a
378.226	8.006	756452	prompt	n/a	josh nextel migration memorabilia\n
378.985	0.075	757970	keystroke_h	h	n/a
379.12	0.12	758240	keystroke_o	o	n/a
379.6	0.045	759200	keystroke_Key.backspace	Key.backspace	n/a
379.72	0.06	759440	keystroke_Key.backspace	Key.backspace	n/a
379.84	0.09	759680	keystroke_Key.backspace	Key.backspace	n/a
380.17	0.09	760340	keystroke_j	j	n/a
380.305	0.105	760610	keystroke_o	o	n/a
380.44	0.09	760880	keystroke_s	s	n/a
380.545	0.12	761090	keystroke_h	h	n/a
380.815	0.075	761630	keystroke_Key.space	Key.space	n/a
381.1	0.09	762200	keystroke_n	n	n/a
381.235	0.075	762470	keystroke_e	e	n/a
381.595	0.09	763190	keystroke_x	x	n/a
381.91	0.105	763820	keystroke_t	t	n/a
382.045	0.105	764090	keystroke_e	e	n/a
382.165	0.09	764330	keystroke_l	l	n/a
382.315	0.09	764630	keystroke_Key.space	Key.space	n/a
382.48	0.105	764960	keystroke_m	m	n/a
382.63	0.105	765260	keystroke_i	i	n/a
382.75	0.075	765500	keystroke_g	g	n/a
382.855	0.06	765710	keystroke_r	r	n/a
383.035	0.09	766070	keystroke_a	a	n/a
383.185	0.105	766370	keystroke_t	t	n/a
383.275	0.09	766550	keystroke_i	i	n/a
383.44	0.15	766880	keystroke_o	o	n/a
383.545	0.105	767090	keystroke_n	n	n/a
383.755	0.09	767510	keystroke_Key.space	Key.space	n/a
383.995	0.09	767990	keystroke_m	m	n/a
384.355	0.09	768710	keystroke_e	e	n/a
384.52	0.09	769040	keystroke_m	m	n/a
384.7	0.09	769400	keystroke_o	o	n/a
384.865	0.075	769730	keystroke_r	r	n/a
385.09	0.075	770180	keystroke_a	a	n/a
385.195	0.09	770390	keystroke_b	b	n/a
385.405	0.09	770810	keystroke_i	i	n/a
385.645	0.105	771290	keystroke_l	l	n/a
385.87	0.09	771740	keystroke_i	i	n/a
385.975	0.09	771950	keystroke_a	a	n/a
386.14	0.09	772280	keystroke_Key.enter	Key.enter	n/a
386.2375	8.0645	772475	prompt	n/a	creator pharmaceuticals exclusion basic\n
386.89	0.09	773780	keystroke_c	c	n/a
387.145	0.105	774290	keystroke_r	r	n/a
387.205	0.09	774410	keystroke_e	e	n/a
387.4	0.075	774800	keystroke_a	a	n/a
387.595	0.09	775190	keystroke_t	t	n/a
387.64	0.135	775280	keystroke_o	o	n/a
387.76	0.09	775520	keystroke_r	r	n/a
387.895	0.09	775790	keystroke_Key.space	Key.space	n/a
388.105	0.105	776210	keystroke_p	p	n/a
388.345	0.1055	776690	keystroke_h	h	n/a
388.6605	0.1045	777321	keystroke_a	a	n/a
388.9605	0.015	777921	keystroke_r	r	n/a
389.0055	0.075	778011	keystroke_m	m	n/a
389.9055	0.09	779811	keystroke_a	a	n/a
390.2055	0.105	780411	keystroke_c	c	n/a
390.5955	0.12	781191	keystroke_e	e	n/a
390.8355	0.105	781671	keystroke_u	u	n/a
391.0455	0.075	782091	keystroke_t	t	n/a
391.1505	0.105	782301	keystroke_i	i	n/a
391.3305	0.075	782661	keystroke_c	c	n/a
391.4655	0.09	782931	keystroke_a	a	n/a
391.5705	0.075	783141	keystroke_l	l	n/a
391.7055	0.075	783411	keystroke_s	s	n/a
391.8105	0.09	783621	keystroke_Key.space	Key.space	n/a
391.9305	0.09	783861	keystroke_e	e	n/a
392.2005	0.105	784401	keystroke_x	x	n/a
392.3955	0.105	784791	keystroke_c	c	n/a
392.5005	0.105	785001	keystroke_l	l	n/a
392.6955	0.105	785391	keystroke_u	u	n/a
392.7855	0.09	785571	keystroke_s	s	n/a
392.8905	0.0895	785781	keystroke_i	i	n/a
393.0555	0.195	786111	keystroke_o	o	n/a
393.2205	0.0895	786441	keystroke_n	n	n/a
393.4	0.075	786800	keystroke_Key.space	Key.space	n/a
393.58	0.075	787160	keystroke_b	b	n/a
393.6705	0.0745	787341	keystroke_a	a	n/a
393.85	0.09	787700	keystroke_s	s	n/a
393.97	0.0905	787940	keystroke_i	i	n/a
394.09	0.105	788180	keystroke_c	c	n/a
394.2255	0.0745	788451	keystroke_Key.enter	Key.enter	n/a
394.3065	4.511	788613	prompt	n/a	tail given glory retailer\n
395.0655	0.0895	790131	keystroke_t	t	n/a
395.245	0.09	790490	keystroke_a	a	n/a
395.3505	0.0745	790701	keystroke_i	i	n/a
395.545	0.0755	791090	keystroke_l	l	n/a
395.7405	0.09	791481	keystroke_Key.space	Key.space	n/a
395.9805	0.06	791961	keystroke_g	g	n/a
396.055	0.105	792110	keystroke_i	i	n/a
396.1755	0.0745	792351	keystroke_v	v	n/a
396.28	0.1055	792560	keystroke_e	e	n/a
396.3855	0.06	792771	keystroke_n	n	n/a
396.5655	0.09	793131	keystroke_Key.space	Key.space	n/a
396.7455	0.075	793491	keystroke_g	g	n/a
396.8355	0.075	793671	keystroke_l	l	n/a
396.9855	0.075	793971	keystroke_o	o	n/a
397.0455	0.075	794091	keystroke_r	r	n/a
397.2405	0.075	794481	keystroke_y	y	n/a
397.3305	0.105	794661	keystroke_Key.space	Key.space	n/a
397.5105	0.105	795021	keystroke_r	r	n/a
397.6305	0.075	795261	keystroke_e	e	n/a
397.7655	0.075	795531	keystroke_t	t	n/a
397.9605	0.075	795921	keystroke_a	a	n/a
398.0805	0.09	796161	keystroke_i	i	n/a
398.2755	0.0745	796551	keystroke_l	l	n/a
398.3655	0.09	796731	keystroke_e	e	n/a
398.5305	0.09	797061	keystroke_r	r	n/a
398.7555	0.06	797511	keystroke_Key.enter	Key.enter	n/a
398.823	7.8695	797646	prompt	n/a	brunswick ultimately enterprises linear\n
399.5055	0.1045	799011	keystroke_b	b	n/a
399.5955	0.12	799191	keystroke_r	r	n/a
399.7155	0.105	799431	keystroke_u	u	n/a
399.8955	0.075	799791	keystroke_n	n	n/a
400.0755	0.06	800151	keystroke_s	s	n/a
400.3455	0.12	800691	keystroke_w	w	n/a
401.23	0.09	802460	keystroke_i	i	n/a
401.5155	0.0595	803031	keystroke_c	c	n/a
401.68	0.0755	803360	keystroke_k	k	n/a
401.8455	0.1045	803691	keystroke_Key.space	Key.space	n/a
402.055	0.09	804110	keystroke_u	u	n/a
402.28	0.1055	804560	keystroke_l	l	n/a
402.4605	0.0895	804921	keystroke_t	t	n/a
402.5655	0.105	805131	keystroke_i	i	n/a
402.79	0.0755	805580	keystroke_m	m	n/a
402.925	0.105	805850	keystroke_a	a	n/a
403.18	0.0905	806360	keystroke_t	t	n/a
403.255	0.12	806510	keystroke_e	e	n/a
403.3605	0.0895	806721	keystroke_l	l	n/a
403.51	0.105	807020	keystroke_y	y	n/a
403.69	0.105	807380	keystroke_Key.space	Key.space	n/a
403.885	0.1055	807770	keystroke_e	e	n/a
404.005	0.105	808010	keystroke_n	n	n/a
404.155	0.075	808310	keystroke_t	t	n/a
404.2905	0.12	808581	keystroke_e	e	n/a
404.455	0.09	808910	keystroke_r	r	n/a
404.605	0.0905	809210	keystroke_p	p	n/a
404.755	0.09	809510	keystroke_r	r	n/a
404.875	0.105	809750	keystroke_i	i	n/a
405.04	0.06	810080	keystroke_s	s	n/a
405.22	0.0605	810440	keystroke_e	e	n/a
405.3855	0.0595	810771	keystroke_s	s	n/a
405.46	0.075	810920	keystroke_Key.space	Key.space	n/a
405.5955	0.1045	811191	keystroke_l	l	n/a
405.805	0.12	811610	keystroke_i	i	n/a
405.9555	0.1045	811911	keystroke_n	n	n/a
406.045	0.06	812090	keystroke_e	e	n/a
406.195	0.105	812390	keystroke_a	a	n/a
406.42	0.105	812840	keystroke_r	r	n/a
406.6	0.09	813200	keystroke_Key.enter	Key.enter	n/a
406.6975	6.2495	813395	prompt	n/a	inquire technologies latter princess\n
407.32	0.12	814640	keystroke_i	i	n/a
407.455	0.105	814910	keystroke_n	n	n/a
407.65	0.09	815300	keystroke_q	q	n/a
407.755	0.075	815510	keystroke_u	u	n/a
407.92	0.06	815840	keystroke_i	i	n/a
407.995	0.15	815990	keystroke_r	r	n/a
408.115	0.0905	816230	keystroke_e	e	n/a
408.2495	0.106	816499	keystroke_Key.space	Key.space	n/a
408.4595	0.091	816919	keystroke_t	t	n/a
408.5505	0.089	817101	keystroke_e	e	n/a
408.7755	0.09	817551	keystroke_c	c	n/a
408.8505	0.105	817701	keystroke_h	h	n/a
409.0145	0.106	818029	keystroke_n	n	n/a
409.1955	0.105	818391	keystroke_o	o	n/a
409.4055	0.059	818811	keystroke_l	l	n/a
409.5705	0.075	819141	keystroke_o	o	n/a
409.8855	0.105	819771	keystroke_g	g	n/a
410.0205	0.105	820041	keystroke_i	i	n/a
410.1855	0.074	820371	keystroke_e	e	n/a
410.3645	0.091	820729	keystroke_s	s	n/a
410.4395	0.075	820879	keystroke_Key.space	Key.space	n/a
410.5755	0.09	821151	keystroke_l	l	n/a
410.6505	0.075	821301	keystroke_a	a	n/a
410.8755	0.06	821751	keystroke_t	t	n/a
410.9955	0.06	821991	keystroke_t	t	n/a
411.1305	0.135	822261	keystroke_e	e	n/a
411.3255	0.104	822651	keystroke_r	r	n/a
411.4595	0.09	822919	keystroke_Key.space	Key.space	n/a
411.6555	0.09	823311	keystroke_p	p	n/a
411.7295	0.09	823459	keystroke_r	r	n/a
411.8655	0.165	823731	keystroke_i	i	n/a
411.9995	0.105	823999	keystroke_n	n	n/a
412.1355	0.074	824271	keystroke_c	c	n/a
412.2845	0.075	824569	keystroke_e	e	n/a
412.4955	0.06	824991	keystroke_s	s	n/a
412.7055	0.014	825411	keystroke_s	s	n/a
412.885	0.06	825770	keystroke_Key.enter	Key.enter	n/a
412.9515	5.726	825903	prompt	n/a	traveling nationally python buzz\n
413.605	0.09	827210	keystroke_t	t	n/a
413.68	0.09	827360	keystroke_r	r	n/a
413.905	0.09	827810	keystroke_a	a	n/a
414.055	0.12	828110	keystroke_v	v	n/a
414.16	0.1495	828320	keystroke_e	e	n/a
414.5055	0.09	829011	keystroke_l	l	n/a
414.7155	0.134	829431	keystroke_i	i	n/a
414.8355	0.089	829671	keystroke_n	n	n/a
414.9395	0.09	829879	keystroke_g	g	n/a
415.0445	0.045	830089	keystroke_Key.space	Key.space	n/a
415.1805	0.074	830361	keystroke_n	n	n/a
415.2405	0.105	830481	keystroke_a	a	n/a
415.4205	0.105	830841	keystroke_t	t	n/a
415.4805	0.105	830961	keystroke_i	i	n/a
415.6595	0.135	831319	keystroke_o	o	n/a
415.7495	0.135	831499	keystroke_n	n	n/a
415.8705	0.09	831741	keystroke_a	a	n/a
415.9905	0.045	831981	keystroke_l	l	n/a
416.1095	0.091	832219	keystroke_l	l	n/a
416.2455	0.075	832491	keystroke_y	y	n/a
416.3945	0.075	832789	keystroke_Key.space	Key.space	n/a
416.6205	0.09	833241	keystroke_p	p	n/a
416.8305	0.075	833661	keystroke_y	y	n/a
417.0255	0.104	834051	keystroke_t	t	n/a
417.1305	0.105	834261	keystroke_h	h	n/a
417.3405	0.195	834681	keystroke_o	o	n/a
417.5055	0.09	835011	keystroke_n	n	n/a
417.6695	0.06	835339	keystroke_Key.space	Key.space	n/a
417.8355	0.09	835671	keystroke_b	b	n/a
417.9545	0.091	835909	keystroke_u	u	n/a
418.3005	0.06	836601	keystroke_z	z	n/a
418.4345	0.075	836869	keystroke_z	z	n/a
