onset	duration	sample	value	key	prompt_text
6.8295	10.469	13659	prompt	n/a	the quick brown fox jumps over a lazy dog\n
9.291	0.009	18582	keystroke_t	t	n/a
9.345	0.06	18690	keystroke_h	h	n/a
9.45	0.0745	18900	keystroke_e	e	n/a
9.915	0.105	19830	keystroke_Key.space	Key.space	n/a
10.14	0.12	20280	keystroke_q	q	n/a
10.245	0.045	20490	keystroke_u	u	n/a
10.41	0.06	20820	keystroke_i	i	n/a
10.5305	0.09	21061	keystroke_c	c	n/a
10.6355	0.075	21271	keystroke_k	k	n/a
11.2205	0.134	22441	keystroke_Key.space	Key.space	n/a
11.5655	0.06	23131	keystroke_b	b	n/a
11.7755	0.089	23551	keystroke_r	r	n/a
11.8805	0.075	23761	keystroke_o	o	n/a
12.1945	0.106	24389	keystroke_w	w	n/a
12.3295	0.061	24659	keystroke_n	n	n/a
12.5095	0.105	25019	keystroke_Key.space	Key.space	n/a
12.7355	0.09	25471	keystroke_f	f	n/a
12.8405	0.06	25681	keystroke_o	o	n/a
13.1105	0.105	26221	keystroke_x	x	n/a
13.2905	0.075	26581	keystroke_Key.space	Key.space	n/a
13.9205	0.075	27841	keystroke_o	o	n/a
14.0405	0.09	28081	keystroke_v	v	n/a
14.1605	0.15	28321	keystroke_e	e	n/a
14.2505	0.12	28501	keystroke_r	r	n/a
14.3555	0.104	28711	keystroke_Key.space	Key.space	n/a
14.5655	0.135	29131	keystroke_a	a	n/a
14.6845	0.105	29369	keystroke_Key.space	Key.space	n/a
14.9705	0.104	29941	keystroke_l	l	n/a
15.0755	0.074	30151	keystroke_a	a	n/a
15.2855	0.104	30571	keystroke_z	z	n/a
15.3745	0.061	30749	keystroke_y	y	n/a
15.5095	0.105	31019	keystroke_Key.space	Key.space	n/a
16.0205	0.119	32041	keystroke_d	d	n/a
16.1405	0.089	32281	keystroke_o	o	n/a
16.2905	0.059	32581	keystroke_g	g	n/a
17.205	0.09	34410	keystroke_Key.enter	Key.enter	n/a
17.3055	10.1465	34611	prompt	n/a	cohen brad constraint factor\n
18.105	0.06	36210	keystroke_c	c	n/a
18.21	0.12	36420	keystroke_o	o	n/a
18.8395	0.06	37679	keystroke_h	h	n/a
18.9295	0.09	37859	keystroke_e	e	n/a
19.05	0.0755	38100	keystroke_n	n	n/a
19.3355	0.12	38671	keystroke_Key.space	Key.space	n/a
20.31	0.09	40620	keystroke_b	b	n/a
20.445	0.135	40890	keystroke_r	r	n/a
20.52	0.15	41040	keystroke_a	a	n/a
20.94	0.09	41880	keystroke_d	d	n/a
21.045	0.12	42090	keystroke_Key.space	Key.space	n/a
21.33	0.12	42660	keystroke_c	c	n/a
21.435	0.105	42870	keystroke_o	o	n/a
21.541	0.089	43082	keystroke_n	n	n/a
21.6605	0.1345	43321	keystroke_s	s	n/a
21.87	0.0895	43740	keystroke_t	t	n/a
22.0795	0.106	44159	keystroke_r	r	n/a
22.3795	0.181	44759	keystroke_a	a	n/a
22.5745	0.106	45149	keystroke_i	i	n/a
22.6645	0.076	45329	keystroke_n	n	n/a
22.7545	0.091	45509	keystroke_t	t	n/a
22.8895	0.105	45779	keystroke_Key.space	Key.space	n/a
23.61	0.12	47220	keystroke_f	f	n/a
23.715	0.105	47430	keystroke_a	a	n/a
23.895	0.12	47790	keystroke_c	c	n/a
23.94	0.06	47880	keystroke_x	x	n/a
24.03	0.1345	48060	keystroke_o	o	n/a
24.105	0.0745	48210	keystroke_t	t	n/a
25.2295	0.0905	50459	keystroke_Key.backspace	Key.backspace	n/a
25.545	0.12	51090	keystroke_Key.backspace	Key.backspace	n/a
26.025	0.0895	52050	keystroke_Key.backspace	Key.backspace	n/a
26.28	0.075	52560	keystroke_t	t	n/a
26.385	0.15	52770	keystroke_o	o	n/a
26.61	0.09	53220	keystroke_r	r	n/a
27.3445	0.105	54689	keystroke_Key.enter	Key.enter	n/a
27.457	14.081	54914	prompt	n/a	occurrence breaking ladder mines\n
28.1845	0.09	56369	keystroke_c	c	n/a
28.2895	0.105	56579	keystroke_o	o	n/a
29.2795	0.09	58559	keystroke_Key.backspace	Key.backspace	n/a
29.4895	0.09	58979	keystroke_Key.backspace	Key.backspace	n/a
29.7455	0.105	59491	keystroke_o	o	n/a
30.0905	0.09	60181	keystroke_c	c	n/a
30.4355	0.104	60871	keystroke_c	c	n/a
30.5545	0.075	61109	keystroke_u	u	n/a
30.7805	0.089	61561	keystroke_r	r	n/a
31.0805	0.06	62161	keystroke_e	e	n/a
31.2145	0.075	62429	keystroke_e	e	n/a
32.34	0.09	64680	keystroke_Key.backspace	Key.backspace	n/a
33.405	0.09	66810	keystroke_Key.backspace	Key.backspace	n/a
34.005	0.09	68010	keystroke_Key.backspace	Key.backspace	n/a
34.455	0.06	68910	keystroke_r	r	n/a
34.635	0.06	69270	keystroke_r	r	n/a
34.95	0.075	69900	keystroke_e	e	n/a
35.04	0.09	70080	keystroke_n	n	n/a
35.175	0.075	70350	keystroke_c	c	n/a
35.34	0.09	70680	keystroke_e	e	n/a
35.445	0.12	70890	keystroke_Key.space	Key.space	n/a
37.095	0.09	74190	keystroke_b	b	n/a
37.305	0.18	74610	keystroke_r	r	n/a
37.41	0.15	74820	keystroke_e	e	n/a
37.635	0.15	75270	keystroke_a	a	n/a
37.815	0.075	75630	keystroke_k	k	n/a
38.01	0.12	76020	keystroke_i	i	n/a
38.085	0.09	76170	keystroke_n	n	n/a
38.19	0.09	76380	keystroke_g	g	n/a
38.295	0.105	76590	keystroke_Key.space	Key.space	n/a
39.105	0.135	78210	keystroke_l	l	n/a
39.255	0.075	78510	keystroke_a	a	n/a
39.435	0.045	78870	keystroke_d	d	n/a
39.555	0.06	79110	keystroke_d	d	n/a
39.72	0.165	79440	keystroke_e	e	n/a
39.795	0.135	79590	keystroke_r	r	n/a
39.915	0.105	79830	keystroke_Key.space	Key.space	n/a
40.26	0.075	80520	keystroke_m	m	n/a
40.53	0.075	81060	keystroke_i	i	n/a
40.725	0.075	81450	keystroke_n	n	n/a
40.815	0.06	81630	keystroke_e	e	n/a
41.025	0.09	82050	keystroke_s	s	n/a
41.43	0.105	82860	keystroke_Key.enter	Key.enter	n/a
41.543	9.264	83086	prompt	n/a	reporting myspace collectables rates\n
42.255	0.15	84510	keystroke_r	r	n/a
42.36	0.105	84720	keystroke_e	e	n/a
42.57	0.105	85140	keystroke_p	p	n/a
42.765	0.12	85530	keystroke_o	o	n/a
42.855	0.09	85710	keystroke_r	r	n/a
43.065	0.075	86130	keystroke_t	t	n/a
43.17	0.12	86340	keystroke_i	i	n/a
43.23	0.105	86460	keystroke_n	n	n/a
43.336	0.074	86672	keystroke_g	g	n/a
43.425	0.105	86850	keystroke_Key.space	Key.space	n/a
44.236	0.059	88472	keystroke_m	m	n/a
44.46	0.075	88920	keystroke_y	y	n/a
44.73	0.12	89460	keystroke_s	s	n/a
44.835	0.105	89670	keystroke_p	p	n/a
44.985	0.105	89970	keystroke_a	a	n/a
45.195	0.09	90390	keystroke_c	c	n/a
45.39	0.09	90780	keystroke_e	e	n/a
46.02	0.105	92040	keystroke_Key.space	Key.space	n/a
46.26	0.075	92520	keystroke_c	c	n/a
46.35	0.075	92700	keystroke_o	o	n/a
46.56	0.075	93120	keystroke_l	l	n/a
46.71	0.0745	93420	keystroke_l	l	n/a
46.755	0.06	93510	keystroke_e	e	n/a
46.9945	0.21	93989	keystroke_c	c	n/a
47.865	0.105	95730	keystroke_t	t	n/a
48.03	0.12	96060	keystroke_a	a	n/a
48.195	0.06	96390	keystroke_b	b	n/a
48.36	0.0895	96720	keystroke_l	l	n/a
48.4645	0.06	96929	keystroke_e	e	n/a
48.6595	0.135	97319	keystroke_s	s	n/a
48.7645	0.1205	97529	keystroke_Key.space	Key.space	n/a
49.1405	0.134	98281	keystroke_r	r	n/a
49.5745	0.15	99149	keystroke_a	a	n/a
49.7695	0.12	99539	keystroke_t	t	n/a
49.8445	0.1205	99689	keystroke_e	e	n/a
50.16	0.0895	100320	keystroke_s	s	n/a
50.6845	0.12	101369	keystroke_Key.enter	Key.enter	n/a
50.812	6.1605	101624	prompt	n/a	preceding listing wants notice\n
51.4355	0.105	102871	keystroke_p	p	n/a
51.6745	0.135	103349	keystroke_r	r	n/a
51.7495	0.09	103499	keystroke_e	e	n/a
52.0045	0.075	104009	keystroke_c	c	n/a
52.2	0.075	104400	keystroke_e	e	n/a
52.725	0.1045	105450	keystroke_d	d	n/a
52.7995	0.1505	105599	keystroke_i	i	n/a
52.935	0.0595	105870	keystroke_n	n	n/a
53.01	0.1055	106020	keystroke_g	g	n/a
53.085	0.135	106170	keystroke_Key.space	Key.space	n/a
53.2945	0.1205	106589	keystroke_l	l	n/a
53.46	0.1045	106920	keystroke_i	i	n/a
53.5495	0.12	107099	keystroke_s	s	n/a
53.7445	0.105	107489	keystroke_t	t	n/a
53.8345	0.15	107669	keystroke_i	i	n/a
53.9245	0.075	107849	keystroke_n	n	n/a
54.015	0.0895	108030	keystroke_g	g	n/a
54.0895	0.105	108179	keystroke_Key.space	Key.space	n/a
54.3445	0.09	108689	keystroke_w	w	n/a
54.5545	0.165	109109	keystroke_a	a	n/a
54.6895	0.09	109379	keystroke_n	n	n/a
54.7945	0.09	109589	keystroke_t	t	n/a
55.0945	0.09	110189	keystroke_s	s	n/a
55.3495	0.09	110699	keystroke_Key.space	Key.space	n/a
55.9795	0.075	111959	keystroke_n	n	n/a
56.0995	0.105	112199	keystroke_o	o	n/a
56.2195	0.09	112439	keystroke_t	t	n/a
56.3705	0.104	112741	keystroke_i	i	n/a
56.4895	0.06	112979	keystroke_c	c	n/a
56.6695	0.075	113339	keystroke_e	e	n/a
56.8495	0.12	113699	keystroke_Key.enter	Key.enter	n/a
56.9775	27.55	113955	prompt	n/a	exempt organisations can't oasis\n
57.8545	0.075	115709	keystroke_e	e	n/a
58.0945	0.105	116189	keystroke_x	x	n/a
58.3345	0.075	116669	keystroke_e	e	n/a
58.4545	0.106	116909	keystroke_m	m	n/a
58.8445	0.09	117689	keystroke_p	p	n/a
58.9795	0.075	117959	keystroke_t	t	n/a
59.0845	0.12	118169	keystroke_Key.space	Key.space	n/a
59.4295	0.105	118859	keystroke_o	o	n/a
59.5645	0.09	119129	keystroke_r	r	n/a
59.8045	0.09	119609	keystroke_g	g	n/a
59.9395	0.135	119879	keystroke_a	a	n/a
60.2705	0.089	120541	keystroke_n	n	n/a
60.3905	0.119	120781	keystroke_i	i	n/a
60.6155	0.104	121231	keystroke_s	s	n/a
60.7795	0.166	121559	keystroke_a	a	n/a
60.9295	0.121	121859	keystroke_t	t	n/a
61.0195	0.135	122039	keystroke_i	i	n/a
61.1395	0.165	122279	keystroke_o	o	n/a
61.2445	0.09	122489	keystroke_n	n	n/a
61.3195	0.135	122639	keystroke_s	s	n/a
61.4095	0.09	122819	keystroke_Key.space	Key.space	n/a
61.6345	0.121	123269	keystroke_c	c	n/a
61.7695	0.135	123539	keystroke_a	a	n/a
61.9495	0.061	123899	keystroke_n	n	n/a
62.79	0.12	125580	keystroke_Key.backspace	Key.backspace	n/a
63.075	0.12	126150	keystroke_Key.backspace	Key.backspace	n/a
63.36	0.105	126720	keystroke_Key.backspace	Key.backspace	n/a
64.08	0.105	128160	keystroke_Key.backspace	Key.backspace	n/a
64.275	0.105	128550	keystroke_Key.backspace	Key.backspace	n/a
68.193	0.042	136386	keystroke_s	s	n/a
79.173	0.072	158346	keystroke_Key.space	Key.space	n/a
79.425	0.12	158850	keystroke_c	c	n/a
79.515	0.15	159030	keystroke_a	a	n/a
79.635	0.105	159270	keystroke_n	n	n/a
80.355	0.105	160710	keystroke_'	'	n/a
80.445	0.09	160890	keystroke_t	t	n/a
80.58	0.105	161160	keystroke_Key.space	Key.space	n/a
81.405	0.12	162810	keystroke_o	o	n/a
81.66	0.15	163320	keystroke_a	a	n/a
83.52	0.1195	167040	keystroke_s	s	n/a
83.6245	0.106	167249	keystroke_i	i	n/a
83.76	0.1045	167520	keystroke_s	s	n/a
84.435	0.0895	168870	keystroke_Key.enter	Key.enter	n/a
84.533	9.2805	169066	prompt	n/a	cedar comes races solely\n
85.4095	0.09	170819	keystroke_c	c	n/a
85.6195	0.06	171239	keystroke_e	e	n/a
85.8145	0.09	171629	keystroke_d	d	n/a
85.9945	0.166	171989	keystroke_a	a	n/a
86.1145	0.105	172229	keystroke_r	r	n/a
86.1295	0.06	172259	keystroke_e	e	n/a
86.2795	0.105	172559	keystroke_Key.space	Key.space	n/a
86.4745	0.105	172949	keystroke_c	c	n/a
86.5945	0.09	173189	keystroke_o	o	n/a
86.6545	0.105	173309	keystroke_m	m	n/a
86.7295	0.075	173459	keystroke_e	e	n/a
88.4845	0.09	176969	keystroke_Key.backspace	Key.backspace	n/a
88.6945	0.09	177389	keystroke_Key.backspace	Key.backspace	n/a
88.8895	0.09	177779	keystroke_Key.backspace	Key.backspace	n/a
89.0695	0.105	178139	keystroke_Key.backspace	Key.backspace	n/a
89.2645	0.105	178529	keystroke_Key.backspace	Key.backspace	n/a
89.4595	0.075	178919	keystroke_Key.backspace	Key.backspace	n/a
89.8045	0.12	179609	keystroke_Key.space	Key.space	n/a
90.2545	0.106	180509	keystroke_c	c	n/a
90.3755	0.089	180751	keystroke_o	o	n/a
90.4655	0.089	180931	keystroke_m	m	n/a
90.5705	0.089	181141	keystroke_e	e	n/a
90.7805	0.104	181561	keystroke_s	s	n/a
90.9145	0.105	181829	keystroke_Key.space	Key.space	n/a
91.1395	0.12	182279	keystroke_r	r	n/a
91.2445	0.105	182489	keystroke_a	a	n/a
91.4695	0.09	182939	keystroke_c	c	n/a
91.6505	0.075	183301	keystroke_e	e	n/a
91.8445	0.121	183689	keystroke_s	s	n/a
91.9495	0.12	183899	keystroke_Key.space	Key.space	n/a
92.2655	0.029	184531	keystroke_s	s	n/a
92.2805	0.059	184561	keystroke_o	o	n/a
92.4745	0.105	184949	keystroke_l	l	n/a
92.5495	0.09	185099	keystroke_e	e	n/a
92.9255	0.074	185851	keystroke_l	l	n/a
93.1205	0.074	186241	keystroke_y	y	n/a
93.7195	0.09	187439	keystroke_Key.enter	Key.enter	n/a
93.821	5.932	187642	prompt	n/a	export assured areas bargains\n
94.5005	0.06	189001	keystroke_e	e	n/a
94.7095	0.106	189419	keystroke_x	x	n/a
94.8445	0.105	189689	keystroke_p	p	n/a
95.0855	0.104	190171	keystroke_o	o	n/a
95.2195	0.075	190439	keystroke_r	r	n/a
95.3995	0.076	190799	keystroke_t	t	n/a
95.5345	0.09	191069	keystroke_Key.space	Key.space	n/a
95.6995	0.121	191399	keystroke_a	a	n/a
95.9395	0.076	191879	keystroke_s	s	n/a
96.0745	0.105	192149	keystroke_s	s	n/a
96.1945	0.076	192389	keystroke_u	u	n/a
96.3295	0.151	192659	keystroke_r	r	n/a
96.4355	0.119	192871	keystroke_e	e	n/a
96.6605	0.119	193321	keystroke_d	d	n/a
96.7655	0.104	193531	keystroke_Key.space	Key.space	n/a
97.1245	0.135	194249	keystroke_a	a	n/a
97.3645	0.105	194729	keystroke_r	r	n/a
97.4255	0.135	194851	keystroke_e	e	n/a
97.6795	0.12	195359	keystroke_a	a	n/a
97.8905	0.134	195781	keystroke_s	s	n/a
98.0545	0.075	196109	keystroke_Key.space	Key.space	n/a
98.3395	0.016	196679	keystroke_b	b	n/a
98.3845	0.181	196769	keystroke_a	a	n/a
98.5355	0.12	197071	keystroke_r	r	n/a
98.8355	0.105	197671	keystroke_g	g	n/a
98.8655	0.045	197731	keystroke_f	f	n/a
98.9245	0.136	197849	keystroke_a	a	n/a
99.0455	0.134	198091	keystroke_i	i	n/a
99.1195	0.076	198239	keystroke_n	n	n/a
99.3605	0.12	198721	keystroke_s	s	n/a
99.6595	0.09	199319	keystroke_Key.enter	Key.enter	n/a
99.758	12.384	199516	prompt	n/a	testimony trailers fraser ontario\n
100.8155	0.09	201631	keystroke_t	t	n/a
100.9195	0.105	201839	keystroke_e	e	n/a
101.4605	0.119	202921	keystroke_s	s	n/a
101.6705	0.105	203341	keystroke_t	t	n/a
101.8045	0.076	203609	keystroke_i	i	n/a
102.0005	0.074	204001	keystroke_m	m	n/a
102.1055	0.105	204211	keystroke_o	o	n/a
102.2695	0.091	204539	keystroke_n	n	n/a
102.5105	0.06	205021	keystroke_y	y	n/a
102.6295	0.135	205259	keystroke_Key.space	Key.space	n/a
103.1405	0.075	206281	keystroke_t	t	n/a
103.3355	0.09	206671	keystroke_r	r	n/a
103.3795	0.15	206759	keystroke_a	a	n/a
103.5905	0.075	207181	keystroke_i	i	n/a
103.8005	0.09	207601	keystroke_l	l	n/a
103.8605	0.135	207721	keystroke_e	e	n/a
103.9505	0.104	207901	keystroke_r	r	n/a
104.1745	0.136	208349	keystroke_s	s	n/a
104.3245	0.091	208649	keystroke_Key.space	Key.space	n/a
104.5655	0.15	209131	keystroke_f	f	n/a
104.8945	0.151	209789	keystroke_r	r	n/a
105.0305	0.135	210061	keystroke_a	a	n/a
105.2855	0.119	210571	keystroke_s	s	n/a
105.4955	0.165	210991	keystroke_e	e	n/a
105.6005	0.149	211201	keystroke_r	r	n/a
109.4135	0.027	218827	keystroke_Key.space	Key.space	n/a
109.6955	0.105	219391	keystroke_o	o	n/a
110.325	0.105	220650	keystroke_n	n	n/a
110.685	0.105	221370	keystroke_t	t	n/a
111.0005	0.15	222001	keystroke_a	a	n/a
111.225	0.105	222450	keystroke_r	r	n/a
111.345	0.075	222690	keystroke_i	i	n/a
111.5255	0.0895	223051	keystroke_o	o	n/a
112.05	0.09	224100	keystroke_Key.enter	Key.enter	n/a
112.146	6.851	224292	prompt	n/a	child peru groups payday\n
112.92	0.09	225840	keystroke_c	c	n/a
113.0255	0.06	226051	keystroke_h	h	n/a
113.175	0.06	226350	keystroke_i	i	n/a
113.355	0.075	226710	keystroke_l	l	n/a
113.46	0.09	226920	keystroke_d	d	n/a
113.61	0.12	227220	keystroke_Key.space	Key.space	n/a
113.85	0.105	227700	keystroke_p	p	n/a
114.03	0.135	228060	keystroke_e	e	n/a
114.33	0.09	228660	keystroke_r	r	n/a
114.45	0.045	228900	keystroke_u	u	n/a
114.585	0.06	229170	keystroke_Key.space	Key.space	n/a
114.78	0.075	229560	keystroke_g	g	n/a
115.005	0.105	230010	keystroke_r	r	n/a
115.08	0.105	230160	keystroke_o	o	n/a
115.17	0.105	230340	keystroke_u	u	n/a
115.35	0.12	230700	keystroke_p	p	n/a
115.59	0.12	231180	keystroke_s	s	n/a
116.19	0.105	232380	keystroke_Key.space	Key.space	n/a
117.165	0.105	234330	keystroke_p	p	n/a
117.315	0.105	234630	keystroke_a	a	n/a
117.765	0.075	235530	keystroke_y	y	n/a
117.975	0.09	235950	keystroke_d	d	n/a
118.08	0.165	236160	keystroke_a	a	n/a
118.215	0.09	236430	keystroke_y	y	n/a
118.875	0.12	237750	keystroke_Key.enter	Key.enter	n/a
119.002	7.1505	238004	prompt	n/a	introduction decide snap anything\n
119.73	0.075	239460	keystroke_i	i	n/a
119.85	0.105	239700	keystroke_n	n	n/a
120	0.075	240000	keystroke_t	t	n/a
120.36	0.105	240720	keystroke_r	r	n/a
120.45	0.105	240900	keystroke_o	o	n/a
120.6	0.09	241200	keystroke_d	d	n/a
120.675	0.06	241350	keystroke_u	u	n/a
120.84	0.15	241680	keystroke_c	c	n/a
120.975	0.135	241950	keystroke_t	t	n/a
121.08	0.15	242160	keystroke_i	i	n/a
121.2	0.15	242400	keystroke_o	o	n/a
121.29	0.09	242580	keystroke_n	n	n/a
122.01	0.105	244020	keystroke_Key.space	Key.space	n/a
122.205	0.075	244410	keystroke_d	d	n/a
122.385	0.045	244770	keystroke_e	e	n/a
122.58	0.075	245160	keystroke_c	c	n/a
122.67	0.105	245340	keystroke_i	i	n/a
122.76	0.075	245520	keystroke_d	d	n/a
122.94	0.09	245880	keystroke_e	e	n/a
123.105	0.135	246210	keystroke_Key.space	Key.space	n/a
123.51	0.135	247020	keystroke_s	s	n/a
123.676	0.104	247352	keystroke_n	n	n/a
123.795	0.135	247590	keystroke_a	a	n/a
123.915	0.105	247830	keystroke_p	p	n/a
124.08	0.105	248160	keystroke_Key.space	Key.space	n/a
124.29	0.12	248580	keystroke_a	a	n/a
124.38	0.075	248760	keystroke_n	n	n/a
124.875	0.075	249750	keystroke_y	y	n/a
125.115	0.09	250230	keystroke_t	t	n/a
125.19	0.075	250380	keystroke_h	h	n/a
125.295	0.09	250590	keystroke_i	i	n/a
125.445	0.09	250890	keystroke_n	n	n/a
125.76	0.09	251520	keystroke_g	g	n/a
126.06	0.09	252120	keystroke_Key.enter	Key.enter	n/a
126.1575	11.649	252315	prompt	n/a	releases finding everyone cancellation\n
126.945	0.135	253890	keystroke_r	r	n/a
127.005	0.12	254010	keystroke_e	e	n/a
127.17	0.15	254340	keystroke_l	l	n/a
127.305	0.09	254610	keystroke_e	e	n/a
127.515	0.15	255030	keystroke_a	a	n/a
127.77	0.195	255540	keystroke_s	s	n/a
127.95	0.165	255900	keystroke_e	e	n/a
129.195	0.105	258390	keystroke_s	s	n/a
129.45	0.12	258900	keystroke_Key.space	Key.space	n/a
130.23	0.105	260460	keystroke_f	f	n/a
130.35	0.09	260700	keystroke_i	i	n/a
130.53	0.075	261060	keystroke_n	n	n/a
130.665	0.12	261330	keystroke_d	d	n/a
130.755	0.12	261510	keystroke_i	i	n/a
130.83	0.105	261660	keystroke_n	n	n/a
130.905	0.105	261810	keystroke_g	g	n/a
131.025	0.09	262050	keystroke_Key.space	Key.space	n/a
131.25	0.06	262500	keystroke_e	e	n/a
131.52	0.105	263040	keystroke_v	v	n/a
131.715	0.15	263430	keystroke_e	e	n/a
131.82	0.135	263640	keystroke_r	r	n/a
132	0.06	264000	keystroke_y	y	n/a
132.2395	0.09	264479	keystroke_o	o	n/a
132.3445	0.105	264689	keystroke_n	n	n/a
132.4795	0.105	264959	keystroke_e	e	n/a
132.5995	0.09	265199	keystroke_Key.space	Key.space	n/a
132.8395	0.12	265679	keystroke_c	c	n/a
132.9745	0.135	265949	keystroke_a	a	n/a
133.1395	0.09	266279	keystroke_n	n	n/a
133.6795	0.075	267359	keystroke_c	c	n/a
133.8745	0.075	267749	keystroke_e	e	n/a
133.9795	0.105	267959	keystroke_l	l	n/a
134.0995	0.09	268199	keystroke_e	e	n/a
135.4045	0.09	270809	keystroke_Key.backspace	Key.backspace	n/a
135.7195	0.105	271439	keystroke_l	l	n/a
135.8845	0.105	271769	keystroke_a	a	n/a
136.6645	0.12	273329	keystroke_t	t	n/a
136.7695	0.135	273539	keystroke_i	i	n/a
136.8895	0.165	273779	keystroke_o	o	n/a
136.9795	0.105	273959	keystroke_n	n	n/a
137.6995	0.105	275399	keystroke_Key.enter	Key.enter	n/a
137.8105	7.5105	275621	prompt	n/a	cute suppliers greeting funding\n
138.5245	0.105	277049	keystroke_c	c	n/a
138.6445	0.06	277289	keystroke_u	u	n/a
138.8095	0.105	277619	keystroke_t	t	n/a
138.8845	0.12	277769	keystroke_e	e	n/a
139.0345	0.105	278069	keystroke_Key.space	Key.space	n/a
139.2295	0.135	278459	keystroke_s	s	n/a
139.3495	0.075	278699	keystroke_u	u	n/a
139.5595	0.09	279119	keystroke_p	p	n/a
139.7245	0.09	279449	keystroke_p	p	n/a
140.1745	0.09	280349	keystroke_l	l	n/a
140.3545	0.09	280709	keystroke_i	i	n/a
140.5045	0.12	281009	keystroke_e	e	n/a
140.6395	0.12	281279	keystroke_r	r	n/a
141.7645	0.12	283529	keystroke_s	s	n/a
141.9745	0.12	283949	keystroke_Key.space	Key.space	n/a
142.8445	0.09	285689	keystroke_g	g	n/a
143.0545	0.12	286109	keystroke_r	r	n/a
143.2495	0.075	286499	keystroke_e	e	n/a
143.3995	0.105	286799	keystroke_e	e	n/a
143.5795	0.09	287159	keystroke_t	t	n/a
143.6845	0.15	287369	keystroke_i	i	n/a
143.7895	0.09	287579	keystroke_n	n	n/a
143.8495	0.12	287699	keystroke_g	g	n/a
143.9845	0.075	287969	keystroke_Key.space	Key.space	n/a
144.2545	0.09	288509	keystroke_f	f	n/a
144.3455	0.059	288691	keystroke_u	u	n/a
144.5245	0.09	289049	keystroke_n	n	n/a
144.7045	0.09	289409	keystroke_d	d	n/a
144.7795	0.12	289559	keystroke_i	i	n/a
144.8695	0.09	289739	keystroke_n	n	n/a
144.9605	0.089	289921	keystroke_g	g	n/a
145.2445	0.075	290489	keystroke_Key.enter	Key.enter	n/a
145.325	10.6315	290650	prompt	n/a	assumptions track pool arrested\n
146.0245	0.09	292049	keystroke_a	a	n/a
146.2345	0.075	292469	keystroke_s	s	n/a
146.3695	0.105	292739	keystroke_s	s	n/a
146.4445	0.045	292889	keystroke_u	u	n/a
146.6245	0.09	293249	keystroke_m	m	n/a
146.8495	0.075	293699	keystroke_p	p	n/a
147.9595	0.105	295919	keystroke_t	t	n/a
148.0795	0.075	296159	keystroke_i	i	n/a
148.2295	0.15	296459	keystroke_o	o	n/a
148.3345	0.105	296669	keystroke_n	n	n/a
148.4845	0.18	296969	keystroke_s	s	n/a
148.7095	0.09	297419	keystroke_Key.space	Key.space	n/a
148.9195	0.09	297839	keystroke_t	t	n/a
149.0845	0.12	298169	keystroke_r	r	n/a
149.1745	0.135	298349	keystroke_a	a	n/a
149.4745	0.135	298949	keystroke_c	c	n/a
149.6245	0.09	299249	keystroke_k	k	n/a
149.7295	0.09	299459	keystroke_Key.space	Key.space	n/a
150.0445	0.09	300089	keystroke_p	p	n/a
150.2995	0.075	300599	keystroke_o	o	n/a
150.4645	0.045	300929	keystroke_o	o	n/a
150.6295	0.09	301259	keystroke_l	l	n/a
150.7495	0.12	301499	keystroke_Key.space	Key.space	n/a
151.0795	0.135	302159	keystroke_a	a	n/a
151.5595	0.06	303119	keystroke_r	r	n/a
151.7095	0.06	303419	keystroke_r	r	n/a
151.8295	0.165	303659	keystroke_e	e	n/a
151.8445	0.075	303689	keystroke_w	w	n/a
152.1745	0.12	304349	keystroke_s	s	n/a
152.2805	0.1635	304561	keystroke_t	t	n/a
152.3995	0.075	304799	keystroke_e	e	n/a
153.3595	0.075	306719	keystroke_Key.backspace	Key.backspace	n/a
153.5395	0.075	307079	keystroke_Key.backspace	Key.backspace	n/a
153.7795	0.09	307559	keystroke_Key.backspace	Key.backspace	n/a
154.2145	0.075	308429	keystroke_Key.backspace	Key.backspace	n/a
154.3645	0.135	308729	keystroke_s	s	n/a
154.5595	0.135	309119	keystroke_t	t	n/a
154.6195	0.105	309239	keystroke_e	e	n/a
154.8295	0.105	309659	keystroke_d	d	n/a
155.8495	0.105	311699	keystroke_Key.enter	Key.enter	n/a
155.9605	12.4615	311921	prompt	n/a	flags drag anderson liechtenstein\n
157.2745	0.075	314549	keystroke_f	f	n/a
157.4405	0.119	314881	keystroke_l	l	n/a
157.5445	0.135	315089	keystroke_a	a	n/a
157.7845	0.06	315569	keystroke_g	g	n/a
157.9495	0.105	315899	keystroke_s	s	n/a
158.1295	0.12	316259	keystroke_Key.space	Key.space	n/a
158.8795	0.09	317759	keystroke_d	d	n/a
159.0605	0.119	318121	keystroke_r	r	n/a
159.1505	0.119	318301	keystroke_a	a	n/a
159.5095	0.1195	319019	keystroke_g	g	n/a
159.644	0.0905	319288	keystroke_Key.space	Key.space	n/a
160.005	0.119	320010	keystroke_a	a	n/a
160.139	0.091	320278	keystroke_n	n	n/a
160.2445	0.075	320489	keystroke_d	d	n/a
160.4395	0.166	320879	keystroke_e	e	n/a
160.5295	0.12	321059	keystroke_r	r	n/a
160.8	0.1195	321600	keystroke_s	s	n/a
160.8745	0.136	321749	keystroke_o	o	n/a
160.9795	0.075	321959	keystroke_n	n	n/a
161.114	0.09	322228	keystroke_Key.space	Key.space	n/a
161.2945	0.1045	322589	keystroke_l	l	n/a
161.5045	0.1055	323009	keystroke_i	i	n/a
163.893	0.012	327786	keystroke_e	e	n/a
164.219	0.12	328438	keystroke_c	c	n/a
164.324	0.076	328648	keystroke_h	h	n/a
164.7295	0.0745	329459	keystroke_t	t	n/a
164.88	0.105	329760	keystroke_e	e	n/a
166.259	0.075	332518	keystroke_n	n	n/a
166.515	0.119	333030	keystroke_s	s	n/a
166.905	0.165	333810	keystroke_t	t	n/a
167.489	0.091	334978	keystroke_e	e	n/a
167.609	0.12	335218	keystroke_i	i	n/a
167.7	0.089	335400	keystroke_n	n	n/a
168.33	0.089	336660	keystroke_Key.enter	Key.enter	n/a
168.427	13.7795	336854	prompt	n/a	iron continually chronicle lucky\n
169.305	0.089	338610	keystroke_i	i	n/a
169.47	0.105	338940	keystroke_r	r	n/a
169.56	0.12	339120	keystroke_o	o	n/a
169.634	0.121	339268	keystroke_n	n	n/a
169.769	0.105	339538	keystroke_Key.space	Key.space	n/a
170.084	0.12	340168	keystroke_c	c	n/a
170.219	0.136	340438	keystroke_o	o	n/a
170.309	0.121	340618	keystroke_n	n	n/a
171.105	0.09	342210	keystroke_t	t	n/a
171.285	0.089	342570	keystroke_i	i	n/a
171.719	0.076	343438	keystroke_n	n	n/a
171.945	0.06	343890	keystroke_u	u	n/a
171.96	0.029	343920	keystroke_y	y	n/a
172.064	0.121	344128	keystroke_a	a	n/a
172.2	0.06	344400	keystroke_l	l	n/a
172.349	0.061	344698	keystroke_l	l	n/a
172.514	0.06	345028	keystroke_y	y	n/a
172.634	0.135	345268	keystroke_Key.space	Key.space	n/a
172.965	0.09	345930	keystroke_c	c	n/a
174.179	0.106	348358	keystroke_Key.backspace	Key.backspace	n/a
174.374	0.09	348748	keystroke_Key.backspace	Key.backspace	n/a
174.555	0.104	349110	keystroke_Key.backspace	Key.backspace	n/a
174.735	0.105	349470	keystroke_Key.backspace	Key.backspace	n/a
174.914	0.121	349828	keystroke_Key.backspace	Key.backspace	n/a
175.109	0.105	350218	keystroke_Key.backspace	Key.backspace	n/a
175.319	0.105	350638	keystroke_Key.backspace	Key.backspace	n/a
175.74	0.119	351480	keystroke_a	a	n/a
175.935	0.06	351870	keystroke_o	o	n/a
176.999	0.091	353998	keystroke_Key.backspace	Key.backspace	n/a
177.66	0.105	355320	keystroke_l	l	n/a
177.825	0.06	355650	keystroke_l	l	n/a
178.02	0.074	356040	keystroke_y	y	n/a
178.665	0.09	357330	keystroke_Key.space	Key.space	n/a
178.89	0.105	357780	keystroke_c	c	n/a
178.965	0.075	357930	keystroke_h	h	n/a
179.28	0.105	358560	keystroke_r	r	n/a
179.37	0.09	358740	keystroke_o	o	n/a
179.58	0.09	359160	keystroke_n	n	n/a
179.685	0.105	359370	keystroke_i	i	n/a
179.82	0.105	359640	keystroke_c	c	n/a
180.135	0.09	360270	keystroke_l	l	n/a
180.255	0.105	360510	keystroke_e	e	n/a
180.39	0.12	360780	keystroke_Key.space	Key.space	n/a
180.705	0.105	361410	keystroke_l	l	n/a
180.93	0.06	361860	keystroke_u	u	n/a
181.17	0.075	362340	keystroke_c	c	n/a
181.246	0.104	362492	keystroke_k	k	n/a
181.485	0.06	362970	keystroke_y	y	n/a
182.1	0.105	364200	keystroke_Key.enter	Key.enter	n/a
182.217	9.95	364434	prompt	n/a	wells ebooks phenomenon eligibility\n
182.91	0.105	365820	keystroke_w	w	n/a
183.135	0.075	366270	keystroke_e	e	n/a
183.33	0.06	366660	keystroke_l	l	n/a
183.48	0.09	366960	keystroke_l	l	n/a
183.585	0.135	367170	keystroke_s	s	n/a
183.689	0.121	367378	keystroke_Key.space	Key.space	n/a
183.99	0.09	367980	keystroke_e	e	n/a
184.26	0.075	368520	keystroke_b	b	n/a
184.485	0.06	368970	keystroke_o	o	n/a
184.635	0.075	369270	keystroke_o	o	n/a
184.8	0.09	369600	keystroke_k	k	n/a
184.905	0.12	369810	keystroke_s	s	n/a
185.04	0.105	370080	keystroke_Key.space	Key.space	n/a
185.28	0.09	370560	keystroke_p	p	n/a
186.69	0.075	373380	keystroke_h	h	n/a
186.975	0.075	373950	keystroke_e	e	n/a
187.2	0.06	374400	keystroke_n	n	n/a
187.305	0.12	374610	keystroke_o	o	n/a
187.53	0.075	375060	keystroke_m	m	n/a
187.815	0.09	375630	keystroke_e	e	n/a
188.1	0.075	376200	keystroke_n	n	n/a
188.205	0.135	376410	keystroke_o	o	n/a
188.385	0.075	376770	keystroke_n	n	n/a
188.97	0.105	377940	keystroke_Key.space	Key.space	n/a
189.21	0.075	378420	keystroke_e	e	n/a
189.39	0.135	378780	keystroke_l	l	n/a
189.54	0.105	379080	keystroke_i	i	n/a
189.705	0.105	379410	keystroke_g	g	n/a
189.84	0.075	379680	keystroke_i	i	n/a
190.74	0.06	381480	keystroke_b	b	n/a
190.875	0.075	381750	keystroke_i	i	n/a
191.07	0.135	382140	keystroke_l	l	n/a
191.19	0.105	382380	keystroke_i	i	n/a
191.31	0.075	382620	keystroke_t	t	n/a
191.4	0.06	382800	keystroke_y	y	n/a
192.06	0.105	384120	keystroke_Key.enter	Key.enter	n/a
192.172	8.6495	384344	prompt	n/a	fragrance palestine monster brief\n
192.84	0.09	385680	keystroke_f	f	n/a
193.05	0.105	386100	keystroke_r	r	n/a
193.125	0.12	386250	keystroke_a	a	n/a
193.38	0.075	386760	keystroke_g	g	n/a
193.59	0.09	387180	keystroke_r	r	n/a
193.635	0.15	387270	keystroke_a	a	n/a
193.845	0.075	387690	keystroke_n	n	n/a
193.965	0.09	387930	keystroke_c	c	n/a
194.16	0.105	388320	keystroke_e	e	n/a
194.235	0.135	388470	keystroke_Key.space	Key.space	n/a
194.625	0.06	389250	keystroke_p	p	n/a
194.97	0.135	389940	keystroke_a	a	n/a
195.165	0.105	390330	keystroke_l	l	n/a
195.285	0.075	390570	keystroke_e	e	n/a
195.525	0.105	391050	keystroke_s	s	n/a
195.675	0.105	391350	keystroke_t	t	n/a
195.8245	0.12	391649	keystroke_i	i	n/a
195.8995	0.09	391799	keystroke_n	n	n/a
196.0345	0.09	392069	keystroke_e	e	n/a
196.1395	0.105	392279	keystroke_Key.space	Key.space	n/a
197.6395	0.09	395279	keystroke_m	m	n/a
197.7595	0.105	395519	keystroke_o	o	n/a
197.9095	0.09	395819	keystroke_n	n	n/a
198.5545	0.135	397109	keystroke_s	s	n/a
198.7195	0.09	397439	keystroke_t	t	n/a
198.9745	0.18	397949	keystroke_e	e	n/a
199.0795	0.09	398159	keystroke_r	r	n/a
199.1995	0.105	398399	keystroke_Key.space	Key.space	n/a
199.4545	0.075	398909	keystroke_b	b	n/a
199.6345	0.105	399269	keystroke_r	r	n/a
199.7695	0.105	399539	keystroke_i	i	n/a
200.1595	0.09	400319	keystroke_e	e	n/a
200.3695	0.075	400739	keystroke_f	f	n/a
200.7295	0.09	401459	keystroke_Key.enter	Key.enter	n/a
200.8275	8.0635	401655	prompt	n/a	framed rangers candy peripheral\n
201.6595	0.075	403319	keystroke_f	f	n/a
201.8695	0.105	403739	keystroke_r	r	n/a
201.9595	0.12	403919	keystroke_a	a	n/a
202.0945	0.09	404189	keystroke_m	m	n/a
202.1995	0.045	404399	keystroke_e	e	n/a
202.3795	0.105	404759	keystroke_d	d	n/a
202.4695	0.12	404939	keystroke_Key.space	Key.space	n/a
202.7995	0.105	405599	keystroke_r	r	n/a
203.1295	0.12	406259	keystroke_a	a	n/a
203.3095	0.09	406619	keystroke_n	n	n/a
203.4145	0.09	406829	keystroke_g	g	n/a
203.5195	0.18	407039	keystroke_e	e	n/a
203.6545	0.135	407309	keystroke_r	r	n/a
203.9395	0.135	407879	keystroke_s	s	n/a
204.0295	0.15	408059	keystroke_Key.space	Key.space	n/a
204.8845	0.12	409769	keystroke_c	c	n/a
204.9745	0.18	409949	keystroke_a	a	n/a
205.1395	0.09	410279	keystroke_n	n	n/a
205.2595	0.09	410519	keystroke_d	d	n/a
205.4245	0.075	410849	keystroke_y	y	n/a
205.5745	0.105	411149	keystroke_Key.space	Key.space	n/a
205.7845	0.12	411569	keystroke_p	p	n/a
205.9345	0.12	411869	keystroke_e	e	n/a
206.3845	0.09	412769	keystroke_r	r	n/a
206.5195	0.09	413039	keystroke_i	i	n/a
206.8645	0.075	413729	keystroke_p	p	n/a
207.0595	0.09	414119	keystroke_h	h	n/a
207.3295	0.075	414659	keystroke_e	e	n/a
207.5695	0.105	415139	keystroke_r	r	n/a
208.0495	0.075	416099	keystroke_a	a	n/a
208.5145	0.09	417029	keystroke_l	l	n/a
208.8145	0.075	417629	keystroke_Key.enter	Key.enter	n/a
208.8995	10.027	417799	prompt	n/a	helena fifth camcorder possess\n
209.6845	0.075	419369	keystroke_h	h	n/a
209.8045	0.09	419609	keystroke_e	e	n/a
209.9245	0.09	419849	keystroke_l	l	n/a
210.0295	0.075	420059	keystroke_e	e	n/a
210.1795	0.075	420359	keystroke_n	n	n/a
210.3145	0.135	420629	keystroke_a	a	n/a
210.4645	0.12	420929	keystroke_Key.space	Key.space	n/a
211.049	0.075	422098	keystroke_f	f	n/a
211.1255	0.104	422251	keystroke_i	i	n/a
211.2595	0.09	422519	keystroke_f	f	n/a
211.5895	0.0745	423179	keystroke_t	t	n/a
211.679	0.075	423358	keystroke_h	h	n/a
211.8295	0.105	423659	keystroke_e	e	n/a
212.939	0.075	425878	keystroke_Key.backspace	Key.backspace	n/a
213.104	0.1355	426208	keystroke_Key.space	Key.space	n/a
213.389	0.1805	426778	keystroke_c	c	n/a
214.184	0.12	428368	keystroke_a	a	n/a
214.289	0.075	428578	keystroke_m	m	n/a
214.724	0.09	429448	keystroke_Key.space	Key.space	n/a
215.474	0.06	430948	keystroke_Key.backspace	Key.backspace	n/a
215.669	0.12	431338	keystroke_c	c	n/a
215.759	0.12	431518	keystroke_o	o	n/a
215.924	0.105	431848	keystroke_r	r	n/a
216.164	0.075	432328	keystroke_d	d	n/a
216.359	0.09	432718	keystroke_e	e	n/a
216.419	0.09	432838	keystroke_r	r	n/a
216.989	0.135	433978	keystroke_Key.space	Key.space	n/a
217.349	0.09	434698	keystroke_p	p	n/a
217.589	0.09	435178	keystroke_o	o	n/a
217.769	0.106	435538	keystroke_s	s	n/a
217.964	0.105	435928	keystroke_s	s	n/a
218.144	0.075	436288	keystroke_e	e	n/a
218.384	0.06	436768	keystroke_s	s	n/a
218.519	0.106	437038	keystroke_s	s	n/a
218.819	0.105	437638	keystroke_Key.enter	Key.enter	n/a
218.931	8.5005	437862	prompt	n/a	progress nickel vatican marco\n
219.599	0.105	439198	keystroke_p	p	n/a
219.779	0.105	439558	keystroke_r	r	n/a
219.839	0.105	439678	keystroke_o	o	n/a
220.019	0.09	440038	keystroke_g	g	n/a
220.214	0.12	440428	keystroke_r	r	n/a
220.409	0.09	440818	keystroke_e	e	n/a
220.634	0.075	441268	keystroke_s	s	n/a
220.769	0.12	441538	keystroke_s	s	n/a
220.904	0.12	441808	keystroke_Key.space	Key.space	n/a
221.054	0.075	442108	keystroke_n	n	n/a
221.19	0.089	442380	keystroke_i	i	n/a
221.339	0.105	442678	keystroke_c	c	n/a
221.459	0.09	442918	keystroke_k	k	n/a
221.609	0.06	443218	keystroke_e	e	n/a
221.729	0.105	443458	keystroke_l	l	n/a
221.894	0.12	443788	keystroke_Key.space	Key.space	n/a
222.164	0.105	444328	keystroke_v	v	n/a
222.299	0.135	444598	keystroke_a	a	n/a
222.884	0.075	445768	keystroke_t	t	n/a
222.974	0.09	445948	keystroke_i	i	n/a
223.154	0.105	446308	keystroke_c	c	n/a
223.229	0.15	446458	keystroke_a	a	n/a
223.394	0.09	446788	keystroke_n	n	n/a
223.499	0.105	446998	keystroke_Key.space	Key.space	n/a
224.849	0.105	449698	keystroke_m	m	n/a
224.955	0.119	449910	keystroke_a	a	n/a
225.239	0.09	450478	keystroke_c	c	n/a
226.364	0.09	452728	keystroke_Key.backspace	Key.backspace	n/a
226.53	0.134	453060	keystroke_r	r	n/a
227.025	0.12	454050	keystroke_c	c	n/a
227.114	0.136	454228	keystroke_o	o	n/a
227.369	0.06	454738	keystroke_Key.enter	Key.enter	n/a
227.436	7.5865	454872	prompt	n/a	veterans vehicle boating stamps\n
228.21	0.074	456420	keystroke_v	v	n/a
228.375	0.104	456750	keystroke_e	e	n/a
228.629	0.076	457258	keystroke_t	t	n/a
228.735	0.164	457470	keystroke_e	e	n/a
228.944	0.166	457888	keystroke_r	r	n/a
229.094	0.15	458188	keystroke_a	a	n/a
229.23	0.089	458460	keystroke_n	n	n/a
229.335	0.134	458670	keystroke_s	s	n/a
229.484	0.15	458968	keystroke_Key.space	Key.space	n/a
230.024	0.075	460048	keystroke_v	v	n/a
230.159	0.12	460318	keystroke_e	e	n/a
230.324	0.075	460648	keystroke_h	h	n/a
230.504	0.075	461008	keystroke_i	i	n/a
231.179	0.091	462358	keystroke_c	c	n/a
231.419	0.075	462838	keystroke_l	l	n/a
231.644	0.075	463288	keystroke_e	e	n/a
231.794	0.12	463588	keystroke_Key.space	Key.space	n/a
232.049	0.06	464098	keystroke_b	b	n/a
232.184	0.121	464368	keystroke_o	o	n/a
232.364	0.166	464728	keystroke_a	a	n/a
232.62	0.044	465240	keystroke_t	t	n/a
232.694	0.105	465388	keystroke_i	i	n/a
232.754	0.121	465508	keystroke_n	n	n/a
232.859	0.121	465718	keystroke_g	g	n/a
232.964	0.105	465928	keystroke_Key.space	Key.space	n/a
233.339	0.121	466678	keystroke_s	s	n/a
233.534	0.121	467068	keystroke_t	t	n/a
233.639	0.15	467278	keystroke_a	a	n/a
233.745	0.089	467490	keystroke_m	m	n/a
233.999	0.105	467998	keystroke_p	p	n/a
234.75	0.119	469500	keystroke_s	s	n/a
234.899	0.12	469798	keystroke_Key.enter	Key.enter	n/a
235.0265	7.015	470053	prompt	n/a	extraction suspension retained harris\n
235.709	0.061	471418	keystroke_e	e	n/a
235.934	0.09	471868	keystroke_x	x	n/a
236.145	0.089	472290	keystroke_t	t	n/a
236.354	0.121	472708	keystroke_r	r	n/a
236.444	0.105	472888	keystroke_a	a	n/a
236.7	0.105	473400	keystroke_c	c	n/a
236.864	0.12	473728	keystroke_t	t	n/a
237	0.09	474000	keystroke_i	i	n/a
237.12	0.164	474240	keystroke_o	o	n/a
237.194	0.106	474388	keystroke_n	n	n/a
237.344	0.12	474688	keystroke_Key.space	Key.space	n/a
237.69	0.09	475380	keystroke_s	s	n/a
237.764	0.075	475528	keystroke_u	u	n/a
238.005	0.119	476010	keystroke_s	s	n/a
238.17	0.105	476340	keystroke_p	p	n/a
238.454	0.03	476908	keystroke_e	e	n/a
238.575	0.09	477150	keystroke_n	n	n/a
238.74	0.135	477480	keystroke_s	s	n/a
238.859	0.075	477718	keystroke_i	i	n/a
238.994	0.151	477988	keystroke_o	o	n/a
239.084	0.105	478168	keystroke_n	n	n/a
239.219	0.075	478438	keystroke_Key.space	Key.space	n/a
239.505	0.134	479010	keystroke_r	r	n/a
239.565	0.105	479130	keystroke_e	e	n/a
239.775	0.135	479550	keystroke_t	t	n/a
239.939	0.151	479878	keystroke_a	a	n/a
240.059	0.105	480118	keystroke_i	i	n/a
240.134	0.105	480268	keystroke_n	n	n/a
240.225	0.075	480450	keystroke_e	e	n/a
240.42	0.105	480840	keystroke_d	d	n/a
240.509	0.12	481018	keystroke_Key.space	Key.space	n/a
240.689	0.075	481378	keystroke_h	h	n/a
240.795	0.194	481590	keystroke_a	a	n/a
241.034	0.075	482068	keystroke_r	r	n/a
241.185	0.074	482370	keystroke_r	r	n/a
241.305	0.134	482610	keystroke_i	i	n/a
241.454	0.061	482908	keystroke_s	s	n/a
241.934	0.105	483868	keystroke_Key.enter	Key.enter	n/a
242.047	7.7045	484094	prompt	n/a	gamecube tears complaint foul\n
242.79	0.074	485580	keystroke_g	g	n/a
242.909	0.136	485818	keystroke_a	a	n/a
243.06	0.09	486120	keystroke_m	m	n/a
243.18	0.075	486360	keystroke_e	e	n/a
243.449	0.105	486898	keystroke_c	c	n/a
243.645	0.06	487290	keystroke_u	u	n/a
243.9	0.075	487800	keystroke_b	b	n/a
244.05	0.09	488100	keystroke_e	e	n/a
244.184	0.075	488368	keystroke_Key.space	Key.space	n/a
244.38	0.075	488760	keystroke_t	t	n/a
244.529	0.196	489058	keystroke_e	e	n/a
244.709	0.225	489418	keystroke_a	a	n/a
245.25	0.105	490500	keystroke_r	r	n/a
246.345	0.105	492690	keystroke_s	s	n/a
246.495	0.105	492990	keystroke_Key.space	Key.space	n/a
246.87	0.09	493740	keystroke_c	c	n/a
246.945	0.105	493890	keystroke_o	o	n/a
247.064	0.076	494128	keystroke_m	m	n/a
247.245	0.089	494490	keystroke_p	p	n/a
247.47	0.105	494940	keystroke_l	l	n/a
248.085	0.149	496170	keystroke_a	a	n/a
248.175	0.134	496350	keystroke_i	i	n/a
248.28	0.075	496560	keystroke_n	n	n/a
248.4	0.09	496800	keystroke_t	t	n/a
248.505	0.075	497010	keystroke_Key.space	Key.space	n/a
248.729	0.105	497458	keystroke_f	f	n/a
248.82	0.075	497640	keystroke_o	o	n/a
248.88	0.075	497760	keystroke_u	u	n/a
249.089	0.106	498178	keystroke_l	l	n/a
249.645	0.105	499290	keystroke_Key.enter	Key.enter	n/a
249.7565	8.4405	499513	prompt	n/a	proper her pocket rebates\n
250.56	0.09	501120	keystroke_p	p	n/a
251.085	0.09	502170	keystroke_r	r	n/a
251.16	0.089	502320	keystroke_o	o	n/a
251.34	0.135	502680	keystroke_p	p	n/a
251.61	0.135	503220	keystroke_e	e	n/a
251.7	0.119	503400	keystroke_r	r	n/a
251.894	0.121	503788	keystroke_Key.space	Key.space	n/a
252.105	0.075	504210	keystroke_h	h	n/a
252.195	0.105	504390	keystroke_e	e	n/a
252.255	0.12	504510	keystroke_r	r	n/a
252.435	0.074	504870	keystroke_Key.space	Key.space	n/a
252.6	0.12	505200	keystroke_p	p	n/a
252.975	0.06	505950	keystroke_i	i	n/a
253.17	0.09	506340	keystroke_c	c	n/a
253.29	0.09	506580	keystroke_k	k	n/a
254.115	0.075	508230	keystroke_Key.backspace	Key.backspace	n/a
254.295	0.09	508590	keystroke_Key.backspace	Key.backspace	n/a
254.475	0.06	508950	keystroke_Key.backspace	Key.backspace	n/a
254.7	0.09	509400	keystroke_o	o	n/a
254.895	0.09	509790	keystroke_c	c	n/a
255	0.075	510000	keystroke_k	k	n/a
255.12	0.105	510240	keystroke_e	e	n/a
255.24	0.12	510480	keystroke_t	t	n/a
255.525	0.105	511050	keystroke_Key.space	Key.space	n/a
256.2	0.135	512400	keystroke_r	r	n/a
256.29	0.12	512580	keystroke_e	e	n/a
256.56	0.09	513120	keystroke_b	b	n/a
256.815	0.135	513630	keystroke_a	a	n/a
257.025	0.135	514050	keystroke_t	t	n/a
257.115	0.135	514230	keystroke_e	e	n/a
257.4	0.105	514800	keystroke_s	s	n/a
258.0745	0.12	516149	keystroke_Key.enter	Key.enter	n/a
258.202	8.6495	516404	prompt	n/a	blanket commodities defines lane\n
258.99	0.075	517980	keystroke_b	b	n/a
259.2	0.09	518400	keystroke_l	l	n/a
259.29	0.1345	518580	keystroke_a	a	n/a
259.4095	0.09	518819	keystroke_n	n	n/a
259.6945	0.0755	519389	keystroke_k	k	n/a
259.785	0.1195	519570	keystroke_e	e	n/a
259.935	0.1195	519870	keystroke_t	t	n/a
260.0395	0.12	520079	keystroke_Key.space	Key.space	n/a
260.3845	0.1055	520769	keystroke_c	c	n/a
260.5045	0.1355	521009	keystroke_o	o	n/a
261.6595	0.105	523319	keystroke_m	m	n/a
261.8545	0.09	523709	keystroke_m	m	n/a
261.9895	0.135	523979	keystroke_o	o	n/a
262.3045	0.105	524609	keystroke_d	d	n/a
262.4245	0.06	524849	keystroke_i	i	n/a
262.5445	0.105	525089	keystroke_t	t	n/a
262.6645	0.075	525329	keystroke_i	i	n/a
262.7845	0.105	525569	keystroke_e	e	n/a
262.9945	0.12	525989	keystroke_s	s	n/a
263.5645	0.12	527129	keystroke_Key.space	Key.space	n/a
263.9545	0.075	527909	keystroke_d	d	n/a
264.1495	0.06	528299	keystroke_e	e	n/a
264.3895	0.09	528779	keystroke_f	f	n/a
264.5395	0.105	529079	keystroke_i	i	n/a
264.6895	0.09	529379	keystroke_n	n	n/a
264.8095	0.075	529619	keystroke_e	e	n/a
265.0495	0.09	530099	keystroke_s	s	n/a
265.4695	0.09	530939	keystroke_Key.space	Key.space	n/a
265.8895	0.105	531779	keystroke_l	l	n/a
265.9645	0.135	531929	keystroke_a	a	n/a
266.1145	0.075	532229	keystroke_n	n	n/a
266.2045	0.075	532409	keystroke_e	e	n/a
266.7445	0.105	533489	keystroke_Key.enter	Key.enter	n/a
266.857	5.724	533714	prompt	n/a	animal broader diet valuable\n
267.5395	0.135	535079	keystroke_a	a	n/a
267.6445	0.105	535289	keystroke_n	n	n/a
267.7645	0.075	535529	keystroke_i	i	n/a
267.9445	0.045	535889	keystroke_m	m	n/a
268.0195	0.135	536039	keystroke_a	a	n/a
268.1395	0.075	536279	keystroke_l	l	n/a
268.2895	0.105	536579	keystroke_Key.space	Key.space	n/a
268.5295	0.075	537059	keystroke_b	b	n/a
268.7395	0.09	537479	keystroke_r	r	n/a
268.8145	0.105	537629	keystroke_o	o	n/a
268.9345	0.12	537869	keystroke_a	a	n/a
269.1145	0.075	538229	keystroke_d	d	n/a
269.3095	0.09	538619	keystroke_e	e	n/a
269.3545	0.105	538709	keystroke_r	r	n/a
269.5195	0.105	539039	keystroke_Key.space	Key.space	n/a
269.9545	0.105	539909	keystroke_d	d	n/a
270.1045	0.12	540209	keystroke_i	i	n/a
270.3595	0.105	540719	keystroke_e	e	n/a
270.4495	0.105	540899	keystroke_t	t	n/a
270.5845	0.105	541169	keystroke_Key.space	Key.space	n/a
270.8995	0.12	541799	keystroke_v	v	n/a
271.0195	0.15	542039	keystroke_a	a	n/a
271.1845	0.09	542369	keystroke_l	l	n/a
271.3055	0.074	542611	keystroke_u	u	n/a
271.4395	0.135	542879	keystroke_a	a	n/a
271.5895	0.06	543179	keystroke_b	b	n/a
271.7245	0.075	543449	keystroke_l	l	n/a
271.8595	0.06	543719	keystroke_e	e	n/a
272.4745	0.105	544949	keystroke_Key.enter	Key.enter	n/a
272.585	8.832	545170	prompt	n/a	derek specialized companion revenge\n
273.3595	0.06	546719	keystroke_d	d	n/a
273.5245	0.075	547049	keystroke_e	e	n/a
273.6895	0.12	547379	keystroke_r	r	n/a
273.7495	0.12	547499	keystroke_e	e	n/a
273.9595	0.105	547919	keystroke_k	k	n/a
274.1245	0.09	548249	keystroke_Key.space	Key.space	n/a
274.3045	0.12	548609	keystroke_s	s	n/a
274.4545	0.09	548909	keystroke_p	p	n/a
274.5895	0.06	549179	keystroke_e	e	n/a
274.8145	0.12	549629	keystroke_c	c	n/a
274.8895	0.075	549779	keystroke_i	i	n/a
275.0695	0.12	550139	keystroke_a	a	n/a
275.1745	0.09	550349	keystroke_l	l	n/a
275.3245	0.105	550649	keystroke_i	i	n/a
275.5195	0.15	551039	keystroke_z	z	n/a
275.6545	0.075	551309	keystroke_e	e	n/a
275.8495	0.09	551699	keystroke_d	d	n/a
275.9695	0.105	551939	keystroke_Key.space	Key.space	n/a
277.1245	0.105	554249	keystroke_c	c	n/a
277.2895	0.135	554579	keystroke_o	o	n/a
277.4545	0.09	554909	keystroke_m	m	n/a
277.6645	0.09	555329	keystroke_p	p	n/a
277.7845	0.15	555569	keystroke_a	a	n/a
277.9045	0.075	555809	keystroke_n	n	n/a
278.0095	0.15	556019	keystroke_i	i	n/a
278.7145	0.15	557429	keystroke_o	o	n/a
278.8195	0.12	557639	keystroke_n	n	n/a
279.6445	0.06	559289	keystroke_Key.space	Key.space	n/a
279.8395	0.135	559679	keystroke_r	r	n/a
279.9145	0.12	559829	keystroke_e	e	n/a
280.1845	0.105	560369	keystroke_v	v	n/a
280.2595	0.135	560519	keystroke_e	e	n/a
280.4095	0.105	560819	keystroke_n	n	n/a
280.6345	0.105	561269	keystroke_g	g	n/a
280.7245	0.105	561449	keystroke_e	e	n/a
281.2945	0.12	562589	keystroke_Key.enter	Key.enter	n/a
281.4215	7.315	562843	prompt	n/a	acre provides checking decent\n
282.1195	0.06	564239	keystroke_a	a	n/a
282.3145	0.09	564629	keystroke_c	c	n/a
282.6295	0.135	565259	keystroke_r	r	n/a
282.6895	0.135	565379	keystroke_e	e	n/a
282.8245	0.12	565649	keystroke_Key.space	Key.space	n/a
283.0495	0.135	566099	keystroke_p	p	n/a
283.3045	0.105	566609	keystroke_r	r	n/a
283.3945	0.12	566789	keystroke_o	o	n/a
283.7695	0.09	567539	keystroke_v	v	n/a
283.8295	0.075	567659	keystroke_i	i	n/a
284.1745	0.045	568349	keystroke_d	d	n/a
284.2945	0.075	568589	keystroke_e	e	n/a
284.5045	0.135	569009	keystroke_s	s	n/a
284.6545	0.15	569309	keystroke_Key.space	Key.space	n/a
285.3895	0.09	570779	keystroke_c	c	n/a
285.4945	0.09	570989	keystroke_h	h	n/a
285.6145	0.045	571229	keystroke_e	e	n/a
285.8395	0.09	571679	keystroke_c	c	n/a
285.9145	0.075	571829	keystroke_k	k	n/a
286.0945	0.15	572189	keystroke_i	i	n/a
286.1845	0.09	572369	keystroke_n	n	n/a
286.2595	0.106	572519	keystroke_g	g	n/a
286.3195	0.12	572639	keystroke_Key.space	Key.space	n/a
286.7695	0.06	573539	keystroke_d	d	n/a
287.1445	0.09	574289	keystroke_e	e	n/a
287.8195	0.09	575639	keystroke_c	c	n/a
288.0595	0.09	576119	keystroke_e	e	n/a
288.1645	0.105	576329	keystroke_n	n	n/a
288.2845	0.075	576569	keystroke_t	t	n/a
288.6445	0.09	577289	keystroke_Key.enter	Key.enter	n/a
288.742	5.199	577484	prompt	n/a	horror degrees among he'd\n
289.3795	0.06	578759	keystroke_h	h	n/a
289.5145	0.105	579029	keystroke_o	o	n/a
289.6945	0.06	579389	keystroke_r	r	n/a
289.8145	0.075	579629	keystroke_r	r	n/a
289.9045	0.09	579809	keystroke_o	o	n/a
290.0095	0.075	580019	keystroke_r	r	n/a
290.1145	0.1195	580229	keystroke_Key.space	Key.space	n/a
290.369	0.06	580738	keystroke_d	d	n/a
290.534	0.075	581068	keystroke_e	e	n/a
290.73	0.075	581460	keystroke_g	g	n/a
290.94	0.089	581880	keystroke_r	r	n/a
291.15	0.059	582300	keystroke_e	e	n/a
291.299	0.075	582598	keystroke_e	e	n/a
291.51	0.105	583020	keystroke_s	s	n/a
291.674	0.105	583348	keystroke_Key.space	Key.space	n/a
291.854	0.166	583708	keystroke_a	a	n/a
291.989	0.105	583978	keystroke_m	m	n/a
292.139	0.15	584278	keystroke_o	o	n/a
292.304	0.091	584608	keystroke_n	n	n/a
292.485	0.119	584970	keystroke_g	g	n/a
292.619	0.105	585238	keystroke_Key.space	Key.space	n/a
292.784	0.09	585568	keystroke_h	h	n/a
292.964	0.061	585928	keystroke_e	e	n/a
293.399	0.121	586798	keystroke_'	'	n/a
293.565	0.075	587130	keystroke_d	d	n/a
293.894	0.045	587788	keystroke_Key.enter	Key.enter	n/a
293.9465	9.8495	587893	prompt	n/a	innovative managed specify critical\n
294.69	0.075	589380	keystroke_i	i	n/a
294.929	0.06	589858	keystroke_n	n	n/a
295.064	0.061	590128	keystroke_n	n	n/a
295.199	0.09	590398	keystroke_o	o	n/a
296.0995	0.1205	592199	keystroke_v	v	n/a
296.325	0.1645	592650	keystroke_a	a	n/a
296.5345	0.119	593069	keystroke_t	t	n/a
296.6835	0.105	593367	keystroke_i	i	n/a
296.939	0.0905	593878	keystroke_v	v	n/a
297.0145	0.164	594029	keystroke_e	e	n/a
297.1485	0.105	594297	keystroke_Key.space	Key.space	n/a
297.3735	0.0905	594747	keystroke_m	m	n/a
297.4945	0.12	594989	keystroke_a	a	n/a
297.5985	0.091	595197	keystroke_n	n	n/a
298.2585	0.195	596517	keystroke_a	a	n/a
298.4085	0.135	596817	keystroke_g	g	n/a
298.4845	0.149	596969	keystroke_e	e	n/a
298.9635	0.12	597927	keystroke_d	d	n/a
299.0685	0.121	598137	keystroke_Key.space	Key.space	n/a
299.3085	0.136	598617	keystroke_s	s	n/a
299.5045	0.12	599009	keystroke_p	p	n/a
299.6385	0.06	599277	keystroke_e	e	n/a
299.9535	0.091	599907	keystroke_c	c	n/a
300.7645	0.09	601529	keystroke_i	i	n/a
301.0195	0.12	602039	keystroke_f	f	n/a
301.1395	0.075	602279	keystroke_y	y	n/a
301.2745	0.104	602549	keystroke_Key.space	Key.space	n/a
301.4985	0.091	602997	keystroke_c	c	n/a
301.9035	0.121	603807	keystroke_r	r	n/a
302.0535	0.091	604107	keystroke_i	i	n/a
302.2945	0.059	604589	keystroke_t	t	n/a
302.3835	0.0905	604767	keystroke_i	i	n/a
302.699	0.1805	605398	keystroke_c	c	n/a
302.849	0.165	605698	keystroke_a	a	n/a
302.999	0.12	605998	keystroke_l	l	n/a
303.689	0.105	607378	keystroke_Key.enter	Key.enter	n/a
303.8025	12.5935	607605	prompt	n/a	pixels teens richmond flowers\n
304.559	0.09	609118	keystroke_p	p	n/a
304.829	0.09	609658	keystroke_i	i	n/a
305.219	0.135	610438	keystroke_x	x	n/a
305.894	0.09	611788	keystroke_e	e	n/a
306.104	0.105	612208	keystroke_l	l	n/a
306.599	0.135	613198	keystroke_s	s	n/a
306.704	0.12	613408	keystroke_Key.space	Key.space	n/a
306.989	0.105	613978	keystroke_t	t	n/a
307.214	0.075	614428	keystroke_e	e	n/a
307.379	0.075	614758	keystroke_e	e	n/a
307.514	0.105	615028	keystroke_n	n	n/a
307.649	0.135	615298	keystroke_s	s	n/a
307.769	0.105	615538	keystroke_Key.space	Key.space	n/a
308.024	0.105	616048	keystroke_r	r	n/a
308.144	0.06	616288	keystroke_i	i	n/a
308.324	0.135	616648	keystroke_c	c	n/a
308.534	0.075	617068	keystroke_h	h	n/a
309.614	0.06	619228	keystroke_m	m	n/a
309.629	0.03	619258	keystroke_n	n	n/a
309.719	0.165	619438	keystroke_o	o	n/a
310.664	0.09	621328	keystroke_Key.backspace	Key.backspace	n/a
310.814	0.09	621628	keystroke_Key.backspace	Key.backspace	n/a
311.174	0.105	622348	keystroke_o	o	n/a
311.384	0.09	622768	keystroke_m	m	n/a
312.254	0.15	624508	keystroke_Key.backspace	Key.backspace	n/a
312.509	0.105	625018	keystroke_n	n	n/a
312.809	0.105	625618	keystroke_d	d	n/a
313.349	0.135	626698	keystroke_Key.space	Key.space	n/a
313.604	0.12	627208	keystroke_f	f	n/a
314.579	0.075	629158	keystroke_l	l	n/a
314.849	0.075	629698	keystroke_o	o	n/a
315.359	0.12	630718	keystroke_w	w	n/a
315.539	0.195	631078	keystroke_e	e	n/a
315.659	0.15	631318	keystroke_r	r	n/a
315.944	0.105	631888	keystroke_s	s	n/a
316.289	0.105	632578	keystroke_Key.enter	Key.enter	n/a
316.4005	5.3365	632801	prompt	n/a	shell zone data davidson\n
317.039	0.12	634078	keystroke_s	s	n/a
317.144	0.075	634288	keystroke_h	h	n/a
317.234	0.075	634468	keystroke_e	e	n/a
317.384	0.06	634768	keystroke_l	l	n/a
317.549	0.06	635098	keystroke_l	l	n/a
317.639	0.09	635278	keystroke_Key.space	Key.space	n/a
317.864	0.105	635728	keystroke_z	z	n/a
317.939	0.105	635878	keystroke_o	o	n/a
318.074	0.075	636148	keystroke_n	n	n/a
318.194	0.12	636388	keystroke_e	e	n/a
318.329	0.09	636658	keystroke_Key.space	Key.space	n/a
318.524	0.135	637048	keystroke_d	d	n/a
318.644	0.135	637288	keystroke_a	a	n/a
318.794	0.15	637588	keystroke_t	t	n/a
318.929	0.15	637858	keystroke_a	a	n/a
319.109	0.12	638218	keystroke_Key.space	Key.space	n/a
319.334	0.135	638668	keystroke_d	d	n/a
319.455	0.134	638910	keystroke_a	a	n/a
319.634	0.135	639268	keystroke_v	v	n/a
319.784	0.075	639568	keystroke_i	i	n/a
319.919	0.09	639838	keystroke_d	d	n/a
320.069	0.075	640138	keystroke_o	o	n/a
320.9395	0.06	641879	keystroke_Key.backspace	Key.backspace	n/a
321.1345	0.12	642269	keystroke_s	s	n/a
321.2395	0.15	642479	keystroke_o	o	n/a
321.3745	0.09	642749	keystroke_n	n	n/a
321.6445	0.09	643289	keystroke_Key.enter	Key.enter	n/a
321.743	9.4585	643486	prompt	n/a	weekly saturn communication integer\n
322.5295	0.06	645059	keystroke_w	w	n/a
322.7695	0.045	645539	keystroke_e	e	n/a
322.8895	0.09	645779	keystroke_e	e	n/a
323.0245	0.06	646049	keystroke_k	k	n/a
323.1895	0.075	646379	keystroke_l	l	n/a
323.3845	0.06	646769	keystroke_y	y	n/a
323.5195	0.12	647039	keystroke_Key.space	Key.space	n/a
323.9095	0.15	647819	keystroke_s	s	n/a
324.0445	0.18	648089	keystroke_a	a	n/a
324.2095	0.105	648419	keystroke_t	t	n/a
324.3445	0.075	648689	keystroke_u	u	n/a
324.4495	0.105	648899	keystroke_r	r	n/a
324.6145	0.075	649229	keystroke_n	n	n/a
325.1395	0.12	650279	keystroke_Key.space	Key.space	n/a
325.4095	0.09	650819	keystroke_c	c	n/a
325.5145	0.09	651029	keystroke_o	o	n/a
325.9645	0.075	651929	keystroke_m	m	n/a
326.1145	0.075	652229	keystroke_m	m	n/a
326.3695	0.075	652739	keystroke_u	u	n/a
326.8495	0.09	653699	keystroke_n	n	n/a
327.0595	0.075	654119	keystroke_i	i	n/a
327.1945	0.165	654389	keystroke_c	c	n/a
327.3595	0.21	654719	keystroke_a	a	n/a
327.4345	0.165	654869	keystroke_t	t	n/a
327.6895	0.165	655379	keystroke_i	i	n/a
327.8695	0.225	655739	keystroke_o	o	n/a
328.0495	0.105	656099	keystroke_n	n	n/a
328.7245	0.105	657449	keystroke_Key.space	Key.space	n/a
329.6095	0.09	659219	keystroke_i	i	n/a
329.7295	0.105	659459	keystroke_n	n	n/a
329.8645	0.15	659729	keystroke_t	t	n/a
329.9845	0.195	659969	keystroke_e	e	n/a
330.4945	0.105	660989	keystroke_g	g	n/a
330.6895	0.15	661379	keystroke_e	e	n/a
330.7795	0.135	661559	keystroke_r	r	n/a
331.1245	0.075	662249	keystroke_Key.enter	Key.enter	n/a
331.2075	6.054	662415	prompt	n/a	inspired zoom joint undo\n
331.8595	0.15	663719	keystroke_i	i	n/a
331.9795	0.09	663959	keystroke_n	n	n/a
332.1445	0.15	664289	keystroke_s	s	n/a
332.3545	0.075	664709	keystroke_p	p	n/a
332.5795	0.075	665159	keystroke_i	i	n/a
332.6995	0.135	665399	keystroke_r	r	n/a
332.7595	0.135	665519	keystroke_e	e	n/a
333.0295	0.12	666059	keystroke_d	d	n/a
333.1505	0.104	666301	keystroke_Key.space	Key.space	n/a
333.4945	0.135	666989	keystroke_z	z	n/a
333.644	0.1055	667288	keystroke_o	o	n/a
333.8095	0.105	667619	keystroke_o	o	n/a
334.004	0.0905	668008	keystroke_m	m	n/a
334.1245	0.0895	668249	keystroke_Key.space	Key.space	n/a
334.3795	0.075	668759	keystroke_j	j	n/a
334.559	0.0905	669118	keystroke_o	o	n/a
334.694	0.15	669388	keystroke_i	i	n/a
334.814	0.09	669628	keystroke_n	n	n/a
335.594	0.105	671188	keystroke_t	t	n/a
335.729	0.09	671458	keystroke_Key.space	Key.space	n/a
335.984	0.045	671968	keystroke_u	u	n/a
336.569	0.09	673138	keystroke_n	n	n/a
336.764	0.09	673528	keystroke_d	d	n/a
336.884	0.09	673768	keystroke_o	o	n/a
337.169	0.09	674338	keystroke_Key.enter	Key.enter	n/a
337.266	14.0055	674532	prompt	n/a	loads cinema boulevard charter\n
338.144	0.075	676288	keystroke_l	l	n/a
338.354	0.075	676708	keystroke_o	o	n/a
338.474	0.105	676948	keystroke_a	a	n/a
338.669	0.045	677338	keystroke_d	d	n/a
338.834	0.135	677668	keystroke_s	s	n/a
338.984	0.075	677968	keystroke_Key.space	Key.space	n/a
339.224	0.105	678448	keystroke_c	c	n/a
339.299	0.06	678598	keystroke_i	i	n/a
339.479	0.075	678958	keystroke_n	n	n/a
339.555	0.059	679110	keystroke_e	e	n/a
339.794	0.075	679588	keystroke_m	m	n/a
339.914	0.165	679828	keystroke_a	a	n/a
340.049	0.12	680098	keystroke_Key.space	Key.space	n/a
340.424	0.045	680848	keystroke_b	b	n/a
340.439	0.045	680878	keystroke_n	n	n/a
340.589	0.165	681178	keystroke_o	o	n/a
340.739	0.09	681478	keystroke_u	u	n/a
341.084	0.105	682168	keystroke_l	l	n/a
341.234	0.09	682468	keystroke_e	e	n/a
341.504	0.15	683008	keystroke_v	v	n/a
341.669	0.21	683338	keystroke_a	a	n/a
341.864	0.105	683728	keystroke_r	r	n/a
342.119	0.105	684238	keystroke_d	d	n/a
342.449	0.105	684898	keystroke_Key.space	Key.space	n/a
344.174	0.075	688348	keystroke_Key.backspace	Key.backspace	n/a
344.354	0.09	688708	keystroke_Key.backspace	Key.backspace	n/a
344.549	0.09	689098	keystroke_Key.backspace	Key.backspace	n/a
344.729	0.12	689458	keystroke_Key.backspace	Key.backspace	n/a
344.924	0.12	689848	keystroke_Key.backspace	Key.backspace	n/a
345.104	0.12	690208	keystroke_Key.backspace	Key.backspace	n/a
345.299	0.12	690598	keystroke_Key.backspace	Key.backspace	n/a
345.494	0.12	690988	keystroke_Key.backspace	Key.backspace	n/a
345.734	0.09	691468	keystroke_Key.backspace	Key.backspace	n/a
346.034	0.045	692068	keystroke_Key.backspace	Key.backspace	n/a
346.799	0.12	693598	keystroke_o	o	n/a
347.489	0.076	694978	keystroke_u	u	n/a
347.744	0.105	695488	keystroke_l	l	n/a
348.014	0.09	696028	keystroke_e	e	n/a
348.314	0.135	696628	keystroke_v	v	n/a
348.45	0.209	696900	keystroke_a	a	n/a
348.629	0.105	697258	keystroke_r	r	n/a
348.884	0.12	697768	keystroke_d	d	n/a
349.094	0.105	698188	keystroke_Key.space	Key.space	n/a
349.409	0.105	698818	keystroke_c	c	n/a
349.544	0.075	699088	keystroke_h	h	n/a
349.694	0.195	699388	keystroke_a	a	n/a
349.859	0.105	699718	keystroke_r	r	n/a
350.369	0.075	700738	keystroke_t	t	n/a
350.489	0.15	700978	keystroke_e	e	n/a
350.609	0.12	701218	keystroke_r	r	n/a
351.149	0.12	702298	keystroke_Key.enter	Key.enter	n/a
351.276	9.7895	702552	prompt	n/a	signing snow composition baker\n
351.899	0.105	703798	keystroke_s	s	n/a
352.034	0.075	704068	keystroke_i	i	n/a
352.169	0.105	704338	keystroke_g	g	n/a
353.039	0.09	706078	keystroke_n	n	n/a
353.339	0.075	706678	keystroke_i	i	n/a
353.444	0.105	706888	keystroke_n	n	n/a
353.594	0.09	707188	keystroke_g	g	n/a
353.729	0.105	707458	keystroke_Key.space	Key.space	n/a
354.599	0.12	709198	keystroke_s	s	n/a
354.749	0.06	709498	keystroke_n	n	n/a
354.854	0.135	709708	keystroke_o	o	n/a
355.004	0.135	710008	keystroke_w	w	n/a
355.124	0.12	710248	keystroke_Key.space	Key.space	n/a
355.59	0.059	711180	keystroke_s	s	n/a
356.369	0.075	712738	keystroke_Key.backspace	Key.backspace	n/a
356.55	0.089	713100	keystroke_c	c	n/a
356.714	0.121	713428	keystroke_o	o	n/a
357.615	0.089	715230	keystroke_m	m	n/a
357.869	0.09	715738	keystroke_p	p	n/a
358.0935	0.105	716187	keystroke_o	o	n/a
358.3185	0.12	716637	keystroke_s	s	n/a
358.4685	0.06	716937	keystroke_i	i	n/a
358.6035	0.12	717207	keystroke_t	t	n/a
358.7245	0.074	717449	keystroke_i	i	n/a
358.8435	0.165	717687	keystroke_o	o	n/a
358.9635	0.105	717927	keystroke_n	n	n/a
359.1135	0.105	718227	keystroke_Key.space	Key.space	n/a
359.3095	0.059	718619	keystroke_b	b	n/a
359.4435	0.165	718887	keystroke_a	a	n/a
359.6245	0.089	719249	keystroke_k	k	n/a
359.7885	0.225	719577	keystroke_e	e	n/a
359.9835	0.135	719967	keystroke_r	r	n/a
360.9585	0.105	721917	keystroke_Key.enter	Key.enter	n/a
361.07	8.1705	722140	prompt	n/a	reunion cruises resulted careers\n
361.8435	0.18	723687	keystroke_r	r	n/a
361.9485	0.12	723897	keystroke_e	e	n/a
362.2035	0.06	724407	keystroke_u	u	n/a
362.4885	0.06	724977	keystroke_n	n	n/a
362.5785	0.12	725157	keystroke_i	i	n/a
362.7735	0.12	725547	keystroke_o	o	n/a
362.9235	0.09	725847	keystroke_n	n	n/a
363.4035	0.12	726807	keystroke_Key.space	Key.space	n/a
363.7495	0.074	727499	keystroke_c	c	n/a
363.9885	0.15	727977	keystroke_r	r	n/a
364.1395	0.06	728279	keystroke_u	u	n/a
364.3345	0.104	728669	keystroke_i	i	n/a
364.6185	0.15	729237	keystroke_s	s	n/a
364.7235	0.09	729447	keystroke_e	e	n/a
364.9345	0.134	729869	keystroke_s	s	n/a
365.1285	0.15	730257	keystroke_Key.space	Key.space	n/a
365.7735	0.165	731547	keystroke_r	r	n/a
365.8785	0.106	731757	keystroke_e	e	n/a
366.1185	0.121	732237	keystroke_s	s	n/a
366.2535	0.045	732507	keystroke_u	u	n/a
366.4185	0.105	732837	keystroke_l	l	n/a
366.5385	0.15	733077	keystroke_t	t	n/a
366.6435	0.105	733287	keystroke_e	e	n/a
366.8685	0.136	733737	keystroke_d	d	n/a
366.9885	0.105	733977	keystroke_Key.space	Key.space	n/a
367.2595	0.105	734519	keystroke_c	c	n/a
367.4535	0.181	734907	keystroke_a	a	n/a
367.6935	0.105	735387	keystroke_r	r	n/a
367.9485	0.061	735897	keystroke_e	e	n/a
368.1145	0.119	736229	keystroke_e	e	n/a
368.2185	0.105	736437	keystroke_r	r	n/a
368.4735	0.105	736947	keystroke_s	s	n/a
369.1335	0.105	738267	keystroke_Key.enter	Key.enter	n/a
369.245	8.2015	738490	prompt	n/a	nails courier sleeping yacht\n
369.8845	0.09	739769	keystroke_n	n	n/a
370.0645	0.135	740129	keystroke_a	a	n/a
370.1845	0.089	740369	keystroke_i	i	n/a
370.3795	0.105	740759	keystroke_l	l	n/a
370.5145	0.134	741029	keystroke_s	s	n/a
370.6635	0.075	741327	keystroke_Key.space	Key.space	n/a
370.9035	0.12	741807	keystroke_c	c	n/a
370.9935	0.136	741987	keystroke_o	o	n/a
371.1145	0.09	742229	keystroke_u	u	n/a
371.2645	0.134	742529	keystroke_r	r	n/a
371.4285	0.09	742857	keystroke_i	i	n/a
371.5495	0.075	743099	keystroke_e	e	n/a
371.7735	0.061	743547	keystroke_s	s	n/a
372.508	0.091	745016	keystroke_Key.backspace	Key.backspace	n/a
372.734	0.12	745468	keystroke_r	r	n/a
373.018	0.105	746036	keystroke_Key.space	Key.space	n/a
373.739	0.12	747478	keystroke_s	s	n/a
373.919	0.1205	747838	keystroke_l	l	n/a
374.084	0.06	748168	keystroke_e	e	n/a
374.234	0.105	748468	keystroke_e	e	n/a
374.354	0.089	748708	keystroke_p	p	n/a
374.564	0.1355	749128	keystroke_i	i	n/a
374.6695	0.1195	749339	keystroke_n	n	n/a
374.804	0.1195	749608	keystroke_g	g	n/a
374.8785	0.1195	749757	keystroke_Key.space	Key.space	n/a
375.2545	0.075	750509	keystroke_y	y	n/a
375.689	0.12	751378	keystroke_a	a	n/a
376.393	0.121	752786	keystroke_c	c	n/a
376.499	0.09	752998	keystroke_h	h	n/a
376.664	0.12	753328	keystroke_t	t	n/a
377.324	0.12	754648	keystroke_Key.enter	Key.enter	n/a
377.452	10.18	754904	prompt	n/a	standards acceptance gallery luther\n
378.149	0.12	756298	keystroke_s	s	n/a
378.3435	0.12	756687	keystroke_t	t	n/a
378.4335	0.135	756867	keystroke_a	a	n/a
378.5535	0.105	757107	keystroke_n	n	n/a
378.7035	0.15	757407	keystroke_d	d	n/a
378.8385	0.15	757677	keystroke_a	a	n/a
378.9585	0.12	757917	keystroke_r	r	n/a
379.2585	0.135	758517	keystroke_s	s	n/a
380.0985	0.105	760197	keystroke_Key.backspace	Key.backspace	n/a
380.219	0.1945	760438	keystroke_d	d	n/a
380.3835	0.12	760767	keystroke_s	s	n/a
380.9085	0.12	761817	keystroke_Key.space	Key.space	n/a
381.1785	0.09	762357	keystroke_a	a	n/a
381.4185	0.06	762837	keystroke_c	c	n/a
381.5385	0.075	763077	keystroke_c	c	n/a
381.7335	0.12	763467	keystroke_e	e	n/a
381.8545	0.119	763709	keystroke_p	p	n/a
381.9885	0.15	763977	keystroke_t	t	n/a
382.1235	0.15	764247	keystroke_a	a	n/a
382.3035	0.09	764607	keystroke_n	n	n/a
382.4085	0.09	764817	keystroke_c	c	n/a
382.6035	0.135	765207	keystroke_e	e	n/a
382.7235	0.105	765447	keystroke_Key.space	Key.space	n/a
383.2035	0.135	766407	keystroke_g	g	n/a
383.3235	0.165	766647	keystroke_a	a	n/a
383.5335	0.09	767067	keystroke_l	l	n/a
383.6985	0.12	767397	keystroke_l	l	n/a
383.8035	0.195	767607	keystroke_e	e	n/a
383.9535	0.15	767907	keystroke_r	r	n/a
384.1485	0.075	768297	keystroke_y	y	n/a
384.3135	0.105	768627	keystroke_Key.space	Key.space	n/a
384.5385	0.09	769077	keystroke_l	l	n/a
384.7335	0.06	769467	keystroke_u	u	n/a
386.2935	0.105	772587	keystroke_t	t	n/a
386.3835	0.0755	772767	keystroke_h	h	n/a
386.4885	0.15	772977	keystroke_e	e	n/a
386.5785	0.12	773157	keystroke_r	r	n/a
387.5085	0.12	775017	keystroke_Key.enter	Key.enter	n/a
387.6365	6.4745	775273	prompt	n/a	hungry such legend techniques\n
388.2735	0.045	776547	keystroke_h	h	n/a
388.4385	0.045	776877	keystroke_u	u	n/a
388.6335	0.045	777267	keystroke_n	n	n/a
388.7235	0.106	777447	keystroke_g	g	n/a
389.0835	0.135	778167	keystroke_r	r	n/a
389.1735	0.075	778347	keystroke_y	y	n/a
389.6985	0.09	779397	keystroke_Key.space	Key.space	n/a
389.8935	0.12	779787	keystroke_s	s	n/a
389.9685	0.06	779937	keystroke_u	u	n/a
390.1635	0.105	780327	keystroke_c	c	n/a
390.2535	0.075	780507	keystroke_h	h	n/a
390.3585	0.12	780717	keystroke_Key.space	Key.space	n/a
390.4935	0.105	780987	keystroke_l	l	n/a
390.5995	0.089	781199	keystroke_e	e	n/a
390.8245	0.119	781649	keystroke_g	g	n/a
390.8985	0.105	781797	keystroke_e	e	n/a
391.0635	0.075	782127	keystroke_n	n	n/a
391.2435	0.09	782487	keystroke_d	d	n/a
391.6635	0.09	783327	keystroke_Key.space	Key.space	n/a
392.0685	0.121	784137	keystroke_t	t	n/a
392.1735	0.09	784347	keystroke_e	e	n/a
392.4285	0.105	784857	keystroke_c	c	n/a
392.5195	0.059	785039	keystroke_h	h	n/a
392.7295	0.044	785459	keystroke_n	n	n/a
392.8035	0.15	785607	keystroke_i	i	n/a
392.9985	0.165	785997	keystroke_q	q	n/a
393.1495	0.074	786299	keystroke_u	u	n/a
393.2835	0.105	786567	keystroke_e	e	n/a
393.4485	0.135	786897	keystroke_s	s	n/a
394.0035	0.105	788007	keystroke_Key.enter	Key.enter	n/a
394.115	12.116	788230	prompt	n/a	informed metals designed defines\n
394.8735	0.075	789747	keystroke_i	i	n/a
395.0385	0.075	790077	keystroke_n	n	n/a
395.1885	0.09	790377	keystroke_f	f	n/a
395.2635	0.105	790527	keystroke_o	o	n/a
395.3985	0.12	790797	keystroke_r	r	n/a
395.5335	0.075	791067	keystroke_m	m	n/a
395.6385	0.075	791277	keystroke_e	e	n/a
395.8335	0.12	791667	keystroke_d	d	n/a
395.9385	0.12	791877	keystroke_Key.space	Key.space	n/a
396.1185	0.121	792237	keystroke_m	m	n/a
396.2845	0.089	792569	keystroke_t	t	n/a
397.3785	0.075	794757	keystroke_Key.backspace	Key.backspace	n/a
397.5135	0.105	795027	keystroke_e	e	n/a
398.1885	0.121	796377	keystroke_t	t	n/a
398.2785	0.165	796557	keystroke_a	a	n/a
399.1485	0.105	798297	keystroke_;	;	n/a
399.3295	0.119	798659	keystroke_s	s	n/a
400.1985	0.09	800397	keystroke_Key.backspace	Key.backspace	n/a
400.4235	0.075	800847	keystroke_Key.backspace	Key.backspace	n/a
401.4595	0.089	802919	keystroke_l	l	n/a
401.8345	0.15	803669	keystroke_s	s	n/a
402.4335	0.135	804867	keystroke_Key.space	Key.space	n/a
402.7185	0.075	805437	keystroke_d	d	n/a
403.1835	0.075	806367	keystroke_e	e	n/a
403.4235	0.106	806847	keystroke_s	s	n/a
403.5145	0.09	807029	keystroke_i	i	n/a
403.6335	0.106	807267	keystroke_g	g	n/a
403.7545	0.075	807509	keystroke_n	n	n/a
403.8895	0.074	807779	keystroke_e	e	n/a
404.0835	0.12	808167	keystroke_d	d	n/a
404.1885	0.105	808377	keystroke_Key.space	Key.space	n/a
404.3685	0.076	808737	keystroke_d	d	n/a
404.5485	0.076	809097	keystroke_e	e	n/a
404.7885	0.135	809577	keystroke_f	f	n/a
404.9095	0.089	809819	keystroke_i	i	n/a
405.0285	0.09	810057	keystroke_n	n	n/a
405.1045	0.075	810209	keystroke_e	e	n/a
405.9745	0.12	811949	keystroke_s	s	n/a
406.1385	0.09	812277	keystroke_Key.enter	Key.enter	n/a
406.238	11.528	812476	prompt	n/a	jump emphasis shot handles\n
406.9945	0.074	813989	keystroke_j	j	n/a
407.1735	0.046	814347	keystroke_u	u	n/a
407.3985	0.09	814797	keystroke_m	m	n/a
407.6695	0.09	815339	keystroke_p	p	n/a
408.1945	0.104	816389	keystroke_Key.space	Key.space	n/a
408.4795	0.089	816959	keystroke_e	e	n/a
408.5985	0.106	817197	keystroke_m	m	n/a
408.8245	0.045	817649	keystroke_p	p	n/a
409.0185	0.061	818037	keystroke_h	h	n/a
409.0345	0.045	818069	keystroke_j	j	n/a
409.1235	0.12	818247	keystroke_a	a	n/a
409.3795	0.09	818759	keystroke_s	s	n/a
409.4845	0.09	818969	keystroke_i	i	n/a
409.5885	0.121	819177	keystroke_s	s	n/a
410.2345	0.074	820469	keystroke_Key.backspace	Key.backspace	n/a
410.4145	0.09	820829	keystroke_Key.backspace	Key.backspace	n/a
410.6095	0.089	821219	keystroke_Key.backspace	Key.backspace	n/a
410.8345	0.104	821669	keystroke_Key.backspace	Key.backspace	n/a
411.1635	0.09	822327	keystroke_Key.backspace	Key.backspace	n/a
411.4045	0.135	822809	keystroke_a	a	n/a
412.2145	0.12	824429	keystroke_s	s	n/a
412.3795	0.075	824759	keystroke_i	i	n/a
412.4845	0.135	824969	keystroke_s	s	n/a
412.6485	0.106	825297	keystroke_Key.space	Key.space	n/a
412.9345	0.075	825869	keystroke_h	h	n/a
413.0245	0.15	826049	keystroke_o	o	n/a
413.1445	0.135	826289	keystroke_t	t	n/a
413.2485	0.106	826497	keystroke_Key.space	Key.space	n/a
414.0885	0.091	828177	keystroke_Key.backspace	Key.backspace	n/a
414.3135	0.075	828627	keystroke_Key.backspace	Key.backspace	n/a
414.5235	0.075	829047	keystroke_Key.backspace	Key.backspace	n/a
414.7185	0.076	829437	keystroke_Key.backspace	Key.backspace	n/a
414.9895	0.135	829979	keystroke_s	s	n/a
415.2145	0.074	830429	keystroke_h	h	n/a
415.3495	0.105	830699	keystroke_o	o	n/a
415.8435	0.121	831687	keystroke_t	t	n/a
416.0685	0.106	832137	keystroke_Key.space	Key.space	n/a
416.3245	0.075	832649	keystroke_h	h	n/a
416.4595	0.15	832919	keystroke_a	a	n/a
416.5795	0.06	833159	keystroke_n	n	n/a
416.7295	0.09	833459	keystroke_d	d	n/a
416.8795	0.1195	833759	keystroke_l	l	n/a
416.9845	0.075	833969	keystroke_e	e	n/a
417.524	0.105	835048	keystroke_s	s	n/a
417.689	0.0755	835378	keystroke_Key.enter	Key.enter	n/a
417.771	10.5255	835542	prompt	n/a	phrase filter accessibility hans\n
418.469	0.0605	836938	keystroke_p	p	n/a
418.724	0.0755	837448	keystroke_h	h	n/a
418.934	0.15	837868	keystroke_r	r	n/a
419.159	0.1055	838318	keystroke_a	a	n/a
419.369	0.18	838738	keystroke_s	s	n/a
419.5195	0.135	839039	keystroke_e	e	n/a
419.684	0.105	839368	keystroke_Key.space	Key.space	n/a
419.893	0.121	839786	keystroke_f	f	n/a
419.984	0.06	839968	keystroke_i	i	n/a
420.149	0.12	840298	keystroke_l	l	n/a
420.254	0.075	840508	keystroke_t	t	n/a
420.344	0.135	840688	keystroke_e	e	n/a
420.419	0.15	840838	keystroke_r	r	n/a
420.569	0.135	841138	keystroke_Key.space	Key.space	n/a
421.319	0.12	842638	keystroke_a	a	n/a
421.604	0.075	843208	keystroke_c	c	n/a
421.754	0.06	843508	keystroke_c	c	n/a
421.949	0.075	843898	keystroke_e	e	n/a
422.804	0.06	845608	keystroke_s	s	n/a
422.954	0.09	845908	keystroke_s	s	n/a
423.284	0.09	846568	keystroke_i	i	n/a
423.554	0.06	847108	keystroke_b	b	n/a
425.054	0.105	850108	keystroke_i	i	n/a
425.429	0.135	850858	keystroke_l	l	n/a
425.579	0.15	851158	keystroke_i	i	n/a
425.804	0.15	851608	keystroke_t	t	n/a
425.939	0.075	851878	keystroke_y	y	n/a
426.134	0.12	852268	keystroke_Key.space	Key.space	n/a
427.049	0.075	854098	keystroke_h	h	n/a
427.244	0.18	854488	keystroke_a	a	n/a
427.439	0.09	854878	keystroke_n	n	n/a
428.039	0.135	856078	keystroke_s	s	n/a
428.204	0.09	856408	keystroke_Key.enter	Key.enter	n/a
428.302	8.349	856604	prompt	n/a	lose narrative diamonds influenced\n
428.999	0.09	857998	keystroke_l	l	n/a
429.209	0.105	858418	keystroke_o	o	n/a
429.284	0.165	858568	keystroke_s	s	n/a
429.389	0.165	858778	keystroke_e	e	n/a
429.614	0.15	859228	keystroke_Key.space	Key.space	n/a
429.899	0.09	859798	keystroke_n	n	n/a
430.004	0.15	860008	keystroke_a	a	n/a
430.244	0.06	860488	keystroke_r	r	n/a
430.364	0.09	860728	keystroke_r	r	n/a
430.439	0.18	860878	keystroke_a	a	n/a
430.679	0.09	861358	keystroke_t	t	n/a
430.919	0.105	861838	keystroke_i	i	n/a
431.069	0.12	862138	keystroke_v	v	n/a
431.144	0.18	862288	keystroke_e	e	n/a
431.279	0.075	862558	keystroke_Key.space	Key.space	n/a
431.519	0.09	863038	keystroke_d	d	n/a
431.624	0.09	863248	keystroke_i	i	n/a
431.744	0.12	863488	keystroke_a	a	n/a
431.939	0.075	863878	keystroke_m	m	n/a
432.059	0.12	864118	keystroke_o	o	n/a
432.209	0.09	864418	keystroke_n	n	n/a
432.344	0.15	864688	keystroke_d	d	n/a
432.479	0.105	864958	keystroke_s	s	n/a
432.629	0.12	865258	keystroke_Key.space	Key.space	n/a
432.854	0.09	865708	keystroke_i	i	n/a
433.019	0.09	866038	keystroke_n	n	n/a
433.409	0.105	866818	keystroke_f	f	n/a
434.054	0.105	868108	keystroke_l	l	n/a
434.249	0.075	868498	keystroke_u	u	n/a
434.699	0.09	869398	keystroke_e	e	n/a
434.879	0.09	869758	keystroke_n	n	n/a
435.119	0.075	870238	keystroke_c	c	n/a
435.299	0.06	870598	keystroke_e	e	n/a
435.494	0.06	870988	keystroke_d	d	n/a
436.559	0.09	873118	keystroke_Key.enter	Key.enter	n/a
436.6555	9.52	873311	prompt	n/a	today blessed invasion analysts\n
437.429	0.075	874858	keystroke_t	t	n/a
437.519	0.105	875038	keystroke_o	o	n/a
437.684	0.15	875368	keystroke_d	d	n/a
438.224	0.18	876448	keystroke_a	a	n/a
438.329	0.06	876658	keystroke_y	y	n/a
438.464	0.105	876928	keystroke_Key.space	Key.space	n/a
438.764	0.045	877528	keystroke_b	b	n/a
439.604	0.09	879208	keystroke_l	l	n/a
439.709	0.105	879418	keystroke_e	e	n/a
440.114	0.06	880228	keystroke_s	s	n/a
440.264	0.12	880528	keystroke_s	s	n/a
440.414	0.075	880828	keystroke_e	e	n/a
440.684	0.135	881368	keystroke_d	d	n/a
441.164	0.15	882328	keystroke_Key.space	Key.space	n/a
441.509	0.075	883018	keystroke_i	i	n/a
441.749	0.015	883498	keystroke_n	n	n/a
441.884	0.15	883768	keystroke_v	v	n/a
442.019	0.135	884038	keystroke_a	a	n/a
443.039	0.15	886078	keystroke_s	s	n/a
443.114	0.135	886228	keystroke_i	i	n/a
443.234	0.165	886468	keystroke_o	o	n/a
443.324	0.09	886648	keystroke_n	n	n/a
443.849	0.12	887698	keystroke_Key.space	Key.space	n/a
444.449	0.15	888898	keystroke_a	a	n/a
444.629	0.09	889258	keystroke_n	n	n/a
444.75	0.119	889500	keystroke_a	a	n/a
444.959	0.09	889918	keystroke_l	l	n/a
445.124	0.075	890248	keystroke_y	y	n/a
445.409	0.09	890818	keystroke_s	s	n/a
445.499	0.09	890998	keystroke_i	i	n/a
445.604	0.09	891208	keystroke_s	s	n/a
446.084	0.09	892168	keystroke_Key.enter	Key.enter	n/a
446.18	8.6515	892360	prompt	n/a	divorce interactive oakland latino\n
446.8935	0.105	893787	keystroke_d	d	n/a
446.969	0.0895	893938	keystroke_i	i	n/a
447.119	0.12	894238	keystroke_v	v	n/a
447.3735	0.0905	894747	keystroke_o	o	n/a
447.5385	0.15	895077	keystroke_r	r	n/a
447.9885	0.09	895977	keystroke_c	c	n/a
448.199	0.0895	896398	keystroke_e	e	n/a
448.3485	0.12	896697	keystroke_Key.space	Key.space	n/a
448.6485	0.09	897297	keystroke_i	i	n/a
448.7685	0.0905	897537	keystroke_n	n	n/a
448.8735	0.075	897747	keystroke_t	t	n/a
448.9635	0.135	897927	keystroke_e	e	n/a
449.3835	0.135	898767	keystroke_r	r	n/a
449.5785	0.105	899157	keystroke_a	a	n/a
449.8485	0.075	899697	keystroke_c	c	n/a
450.0885	0.06	900177	keystroke_t	t	n/a
450.1635	0.12	900327	keystroke_i	i	n/a
450.2985	0.12	900597	keystroke_v	v	n/a
450.3585	0.135	900717	keystroke_e	e	n/a
450.5085	0.075	901017	keystroke_Key.space	Key.space	n/a
451.1535	0.135	902307	keystroke_o	o	n/a
451.4235	0.12	902847	keystroke_a	a	n/a
451.6635	0.105	903327	keystroke_k	k	n/a
451.9035	0.09	903807	keystroke_l	l	n/a
452.0085	0.12	904017	keystroke_a	a	n/a
452.1135	0.075	904227	keystroke_n	n	n/a
452.2335	0.09	904467	keystroke_d	d	n/a
452.3535	0.12	904707	keystroke_Key.space	Key.space	n/a
452.5635	0.135	905127	keystroke_l	l	n/a
452.7285	0.15	905457	keystroke_a	a	n/a
452.9535	0.15	905907	keystroke_t	t	n/a
453.1485	0.12	906297	keystroke_i	i	n/a
454.2585	0.09	908517	keystroke_n	n	n/a
454.3785	0.135	908757	keystroke_o	o	n/a
454.6935	0.135	909387	keystroke_Key.enter	Key.enter	n/a
454.836	10.345	909672	prompt	n/a	cons furthermore comes logo\n
455.5185	0.12	911037	keystroke_c	c	n/a
455.6245	0.089	911249	keystroke_o	o	n/a
455.7435	0.105	911487	keystroke_n	n	n/a
455.8785	0.135	911757	keystroke_s	s	n/a
456.0145	0.119	912029	keystroke_Key.space	Key.space	n/a
456.4485	0.105	912897	keystroke_f	f	n/a
456.5685	0.075	913137	keystroke_u	u	n/a
457.2285	0.09	914457	keystroke_r	r	n/a
457.4685	0.09	914937	keystroke_t	t	n/a
457.5735	0.075	915147	keystroke_h	h	n/a
457.7085	0.15	915417	keystroke_e	e	n/a
457.8135	0.12	915627	keystroke_r	r	n/a
458.0985	0.075	916197	keystroke_m	m	n/a
458.2035	0.12	916407	keystroke_o	o	n/a
458.4285	0.15	916857	keystroke_r	r	n/a
458.5185	0.12	917037	keystroke_e	e	n/a
461.0415	0.027	922083	keystroke_Key.space	Key.space	n/a
461.6385	0.105	923277	keystroke_c	c	n/a
461.6985	0.136	923397	keystroke_o	o	n/a
461.8185	0.06	923637	keystroke_m	m	n/a
461.8935	0.075	923787	keystroke_e	e	n/a
462.0885	0.15	924177	keystroke_s	s	n/a
462.2235	0.105	924447	keystroke_Key.space	Key.space	n/a
462.5985	0.09	925197	keystroke_l	l	n/a
462.7935	0.165	925587	keystroke_o	o	n/a
463.4535	0.105	926907	keystroke_g	g	n/a
464.4135	0.105	928827	keystroke_o	o	n/a
465.0885	0.09	930177	keystroke_Key.enter	Key.enter	n/a
465.1865	7.419	930373	prompt	n/a	estimates sorts completed broken\n
465.8995	0.074	931799	keystroke_e	e	n/a
466.1835	0.105	932367	keystroke_s	s	n/a
466.3785	0.09	932757	keystroke_t	t	n/a
466.4835	0.076	932967	keystroke_i	i	n/a
466.6785	0.09	933357	keystroke_m	m	n/a
466.7535	0.135	933507	keystroke_a	a	n/a
466.9035	0.105	933807	keystroke_t	t	n/a
466.9635	0.121	933927	keystroke_e	e	n/a
467.2035	0.15	934407	keystroke_s	s	n/a
467.3385	0.1205	934677	keystroke_Key.space	Key.space	n/a
467.999	0.15	935998	keystroke_s	s	n/a
468.134	0.12	936268	keystroke_o	o	n/a
468.209	0.075	936418	keystroke_r	r	n/a
468.359	0.075	936718	keystroke_t	t	n/a
468.524	0.105	937048	keystroke_s	s	n/a
469.019	0.105	938038	keystroke_Key.space	Key.space	n/a
469.304	0.09	938608	keystroke_c	c	n/a
469.409	0.105	938818	keystroke_o	o	n/a
469.469	0.15	938938	keystroke_m	m	n/a
470.024	0.075	940048	keystroke_p	p	n/a
470.204	0.12	940408	keystroke_l	l	n/a
470.339	0.09	940678	keystroke_e	e	n/a
470.534	0.105	941068	keystroke_t	t	n/a
470.624	0.12	941248	keystroke_e	e	n/a
470.894	0.12	941788	keystroke_d	d	n/a
471.014	0.12	942028	keystroke_Key.space	Key.space	n/a
471.284	0.075	942568	keystroke_b	b	n/a
471.464	0.12	942928	keystroke_r	r	n/a
471.539	0.09	943078	keystroke_o	o	n/a
471.734	0.075	943468	keystroke_k	k	n/a
471.794	0.09	943588	keystroke_e	e	n/a
471.929	0.09	943858	keystroke_n	n	n/a
472.499	0.105	944998	keystroke_Key.enter	Key.enter	n/a
472.61	6.731	945220	prompt	n/a	reviews read reward travelers\n
473.264	0.15	946528	keystroke_r	r	n/a
473.354	0.105	946708	keystroke_e	e	n/a
473.579	0.12	947158	keystroke_v	v	n/a
473.684	0.12	947368	keystroke_i	i	n/a
473.789	0.135	947578	keystroke_e	e	n/a
473.894	0.135	947788	keystroke_w	w	n/a
474.299	0.105	948598	keystroke_s	s	n/a
474.419	0.1345	948838	keystroke_Key.space	Key.space	n/a
474.6885	0.12	949377	keystroke_r	r	n/a
474.7485	0.1955	949497	keystroke_e	e	n/a
474.974	0.1795	949948	keystroke_a	a	n/a
475.3785	0.1505	950757	keystroke_d	d	n/a
475.5435	0.12	951087	keystroke_Key.space	Key.space	n/a
475.8285	0.15	951657	keystroke_r	r	n/a
476.0685	0.12	952137	keystroke_e	e	n/a
476.3235	0.09	952647	keystroke_w	w	n/a
476.5485	0.21	953097	keystroke_a	a	n/a
476.7285	0.12	953457	keystroke_r	r	n/a
476.9535	0.105	953907	keystroke_d	d	n/a
477.0885	0.105	954177	keystroke_Key.space	Key.space	n/a
477.2835	0.09	954567	keystroke_t	t	n/a
477.4635	0.105	954927	keystroke_r	r	n/a
477.7785	0.135	955557	keystroke_a	a	n/a
478.1685	0.09	956337	keystroke_v	v	n/a
478.3485	0.105	956697	keystroke_e	e	n/a
478.4985	0.135	956997	keystroke_l	l	n/a
478.6035	0.12	957207	keystroke_e	e	n/a
478.7085	0.105	957417	keystroke_r	r	n/a
478.9785	0.105	957957	keystroke_s	s	n/a
479.2485	0.09	958497	keystroke_Key.enter	Key.enter	n/a
479.3455	7.84	958691	prompt	n/a	britney importantly pilot native\n
480.2085	0.06	960417	keystroke_b	b	n/a
480.4035	0.075	960807	keystroke_r	r	n/a
480.4935	0.075	960987	keystroke_i	i	n/a
480.7335	0.075	961467	keystroke_t	t	n/a
480.9435	0.105	961887	keystroke_n	n	n/a
481.0935	0.105	962187	keystroke_e	e	n/a
481.2435	0.06	962487	keystroke_y	y	n/a
481.3335	0.135	962667	keystroke_Key.space	Key.space	n/a
481.5135	0.105	963027	keystroke_i	i	n/a
481.6785	0.105	963357	keystroke_m	m	n/a
481.8885	0.135	963777	keystroke_p	p	n/a
482.0535	0.135	964107	keystroke_o	o	n/a
482.2485	0.15	964497	keystroke_r	r	n/a
483.7035	0.1205	967407	keystroke_t	t	n/a
483.809	0.149	967618	keystroke_a	a	n/a
483.914	0.12	967828	keystroke_n	n	n/a
484.123	0.106	968246	keystroke_t	t	n/a
484.199	0.104	968398	keystroke_l	l	n/a
484.439	0.06	968878	keystroke_y	y	n/a
484.603	0.135	969206	keystroke_Key.space	Key.space	n/a
484.843	0.12	969686	keystroke_p	p	n/a
485.053	0.075	970106	keystroke_i	i	n/a
485.278	0.061	970556	keystroke_l	l	n/a
485.458	0.075	970916	keystroke_o	o	n/a
485.563	0.121	971126	keystroke_t	t	n/a
485.668	0.09	971336	keystroke_Key.space	Key.space	n/a
485.878	0.075	971756	keystroke_n	n	n/a
485.968	0.09	971936	keystroke_a	a	n/a
486.044	0.119	972088	keystroke_t	t	n/a
486.178	0.075	972356	keystroke_i	i	n/a
486.313	0.135	972626	keystroke_v	v	n/a
486.404	0.135	972808	keystroke_e	e	n/a
487.078	0.105	974156	keystroke_Key.enter	Key.enter	n/a
487.1895	11.8465	974379	prompt	n/a	preferred remain equation items\n
487.904	0.09	975808	keystroke_p	p	n/a
488.069	0.135	976138	keystroke_r	r	n/a
488.144	0.105	976288	keystroke_e	e	n/a
488.398	0.09	976796	keystroke_f	f	n/a
488.639	0.12	977278	keystroke_e	e	n/a
489.058	0.06	978116	keystroke_r	r	n/a
489.223	0.06	978446	keystroke_r	r	n/a
489.359	0.074	978718	keystroke_e	e	n/a
489.569	0.135	979138	keystroke_d	d	n/a
489.673	0.105	979346	keystroke_Key.space	Key.space	n/a
489.869	0.12	979738	keystroke_r	r	n/a
489.929	0.119	979858	keystroke_e	e	n/a
490.124	0.089	980248	keystroke_m	m	n/a
490.274	0.075	980548	keystroke_i	i	n/a
490.333	0.136	980666	keystroke_a	a	n/a
490.513	0.075	981026	keystroke_n	n	n/a
490.678	0.09	981356	keystroke_Key.space	Key.space	n/a
490.979	0.105	981958	keystroke_e	e	n/a
492.358	0.075	984716	keystroke_Key.backspace	Key.backspace	n/a
492.538	0.105	985076	keystroke_Key.backspace	Key.backspace	n/a
492.749	0.089	985498	keystroke_Key.backspace	Key.backspace	n/a
492.958	0.075	985916	keystroke_Key.backspace	Key.backspace	n/a
493.109	0.104	986218	keystroke_Key.backspace	Key.backspace	n/a
493.303	0.136	986606	keystroke_a	a	n/a
493.424	0.045	986848	keystroke_9	9	n/a
493.559	0.089	987118	keystroke_n	n	n/a
494.264	0.104	988528	keystroke_Key.backspace	Key.backspace	n/a
494.443	0.075	988886	keystroke_Key.backspace	Key.backspace	n/a
494.758	0.076	989516	keystroke_i	i	n/a
494.999	0.089	989998	keystroke_n	n	n/a
495.269	0.075	990538	keystroke_Key.space	Key.space	n/a
496.034	0.06	992068	keystroke_e	e	n/a
496.304	0.104	992608	keystroke_q	q	n/a
496.379	0.074	992758	keystroke_u	u	n/a
496.664	0.12	993328	keystroke_a	a	n/a
496.814	0.105	993628	keystroke_t	t	n/a
496.963	0.076	993926	keystroke_i	i	n/a
497.114	0.15	994228	keystroke_o	o	n/a
497.219	0.089	994438	keystroke_n	n	n/a
497.309	0.09	994618	keystroke_Key.space	Key.space	n/a
497.578	0.06	995156	keystroke_i	i	n/a
497.954	0.075	995908	keystroke_t	t	n/a
498.104	0.12	996208	keystroke_e	e	n/a
498.239	0.089	996478	keystroke_m	m	n/a
498.388	0.106	996776	keystroke_s	s	n/a
498.959	0.075	997918	keystroke_Key.enter	Key.enter	n/a
499.04	8.8305	998080	prompt	n/a	doctrine coated peers newark\n
499.694	0.135	999388	keystroke_d	d	n/a
499.814	0.119	999628	keystroke_o	o	n/a
499.979	0.09	999958	keystroke_c	c	n/a
500.234	0.075	1000468	keystroke_t	t	n/a
500.444	0.09	1000888	keystroke_r	r	n/a
500.519	0.075	1001038	keystroke_i	i	n/a
500.669	0.075	1001338	keystroke_n	n	n/a
500.774	0.135	1001548	keystroke_e	e	n/a
500.939	0.105	1001878	keystroke_Key.space	Key.space	n/a
501.299	0.075	1002598	keystroke_c	c	n/a
501.389	0.135	1002778	keystroke_o	o	n/a
501.569	0.165	1003138	keystroke_a	a	n/a
501.704	0.135	1003408	keystroke_t	t	n/a
501.824	0.105	1003648	keystroke_e	e	n/a
502.079	0.12	1004158	keystroke_d	d	n/a
502.214	0.09	1004428	keystroke_Key.space	Key.space	n/a
502.559	0.12	1005118	keystroke_p	p	n/a
502.784	0.06	1005568	keystroke_e	e	n/a
503.084	0.105	1006168	keystroke_e	e	n/a
503.279	0.075	1006558	keystroke_r	r	n/a
503.519	0.09	1007038	keystroke_s	s	n/a
503.699	0.105	1007398	keystroke_Key.space	Key.space	n/a
503.969	0.09	1007938	keystroke_n	n	n/a
504.089	0.075	1008178	keystroke_e	e	n/a
504.359	0.09	1008718	keystroke_w	w	n/a
504.539	0.18	1009078	keystroke_a	a	n/a
504.704	0.09	1009408	keystroke_r	r	n/a
505.019	0.09	1010038	keystroke_d	d	n/a
506.534	0.09	1013068	keystroke_Key.backspace	Key.backspace	n/a
506.939	0.075	1013878	keystroke_k	k	n/a
507.764	0.105	1015528	keystroke_Key.enter	Key.enter	n/a
507.875	10.571	1015750	prompt	n/a	bestsellers posts optimization auckland\n
508.619	0.075	1017238	keystroke_b	b	n/a
508.814	0.09	1017628	keystroke_e	e	n/a
509.114	0.12	1018228	keystroke_s	s	n/a
509.249	0.075	1018498	keystroke_t	t	n/a
509.519	0.105	1019038	keystroke_s	s	n/a
509.699	0.09	1019398	keystroke_e	e	n/a
509.864	0.09	1019728	keystroke_l	l	n/a
510.029	0.09	1020058	keystroke_l	l	n/a
510.104	0.12	1020208	keystroke_e	e	n/a
510.194	0.105	1020388	keystroke_r	r	n/a
510.479	0.075	1020958	keystroke_s	s	n/a
510.599	0.105	1021198	keystroke_Key.space	Key.space	n/a
510.794	0.075	1021588	keystroke_p	p	n/a
510.974	0.135	1021948	keystroke_o	o	n/a
511.229	0.12	1022458	keystroke_s	s	n/a
511.379	0.075	1022758	keystroke_t	t	n/a
511.544	0.105	1023088	keystroke_s	s	n/a
511.694	0.12	1023388	keystroke_Key.space	Key.space	n/a
512.204	0.105	1024408	keystroke_o	o	n/a
512.429	0.09	1024858	keystroke_p	p	n/a
512.879	0.09	1025758	keystroke_t	t	n/a
512.999	0.075	1025998	keystroke_i	i	n/a
513.209	0.075	1026418	keystroke_m	m	n/a
513.374	0.09	1026748	keystroke_i	i	n/a
513.599	0.075	1027198	keystroke_z	z	n/a
513.824	0.09	1027648	keystroke_a	a	n/a
514.784	0.12	1029568	keystroke_t	t	n/a
514.889	0.135	1029778	keystroke_i	i	n/a
514.994	0.195	1029988	keystroke_o	o	n/a
515.084	0.105	1030168	keystroke_n	n	n/a
515.219	0.135	1030438	keystroke_Key.space	Key.space	n/a
515.849	0.135	1031698	keystroke_a	a	n/a
515.985	0.059	1031970	keystroke_u	u	n/a
516.539	0.09	1033078	keystroke_c	c	n/a
516.644	0.09	1033288	keystroke_k	k	n/a
516.854	0.105	1033708	keystroke_l	l	n/a
516.989	0.105	1033978	keystroke_a	a	n/a
517.079	0.09	1034158	keystroke_n	n	n/a
517.199	0.09	1034398	keystroke_d	d	n/a
518.354	0.09	1036708	keystroke_Key.enter	Key.enter	n/a
518.4545	13.6115	1036909	prompt	n/a	georgia company thermal interaction\n
519.209	0.075	1038418	keystroke_g	g	n/a
519.359	0.18	1038718	keystroke_e	e	n/a
519.689	0.12	1039378	keystroke_o	o	n/a
519.824	0.09	1039648	keystroke_r	r	n/a
520.109	0.075	1040218	keystroke_g	g	n/a
520.424	0.09	1040848	keystroke_i	i	n/a
520.559	0.15	1041118	keystroke_a	a	n/a
520.859	0.135	1041718	keystroke_Key.space	Key.space	n/a
521.219	0.105	1042438	keystroke_c	c	n/a
521.339	0.09	1042678	keystroke_o	o	n/a
521.504	0.09	1043008	keystroke_m	m	n/a
521.714	0.09	1043428	keystroke_p	p	n/a
521.864	0.135	1043728	keystroke_a	a	n/a
522.029	0.075	1044058	keystroke_m	m	n/a
522.254	0.045	1044508	keystroke_y	y	n/a
525.992	0.042	1051984	keystroke_Key.backspace	Key.backspace	n/a
526.139	0.09	1052278	keystroke_Key.backspace	Key.backspace	n/a
526.919	0.06	1053838	keystroke_n	n	n/a
527.159	0.045	1054318	keystroke_y	y	n/a
527.804	0.105	1055608	keystroke_Key.space	Key.space	n/a
528.164	0.1345	1056328	keystroke_t	t	n/a
528.3285	0.075	1056657	keystroke_h	h	n/a
528.434	0.12	1056868	keystroke_e	e	n/a
528.734	0.105	1057468	keystroke_r	r	n/a
528.9585	0.0755	1057917	keystroke_m	m	n/a
529.049	0.1195	1058098	keystroke_a	a	n/a
529.1385	0.105	1058277	keystroke_l	l	n/a
529.289	0.12	1058578	keystroke_Key.space	Key.space	n/a
529.5135	0.165	1059027	keystroke_i	i	n/a
529.6035	0.1055	1059207	keystroke_n	n	n/a
529.7235	0.0905	1059447	keystroke_t	t	n/a
529.829	0.15	1059658	keystroke_e	e	n/a
529.9335	0.1205	1059867	keystroke_r	r	n/a
530.4435	0.12	1060887	keystroke_a	a	n/a
530.6685	0.105	1061337	keystroke_c	c	n/a
530.8335	0.105	1061667	keystroke_t	t	n/a
530.9535	0.15	1061907	keystroke_i	i	n/a
531.1335	0.225	1062267	keystroke_o	o	n/a
531.2685	0.15	1062537	keystroke_n	n	n/a
531.9735	0.09	1063947	keystroke_Key.enter	Key.enter	n/a
532.07	7.0305	1064140	prompt	n/a	emissions ballet tender olympic\n
532.7535	0.105	1065507	keystroke_e	e	n/a
532.9635	0.09	1065927	keystroke_m	m	n/a
533.0835	0.09	1066167	keystroke_i	i	n/a
533.2185	0.06	1066437	keystroke_s	s	n/a
533.3685	0.12	1066737	keystroke_s	s	n/a
533.4435	0.105	1066887	keystroke_i	i	n/a
533.5185	0.165	1067037	keystroke_o	o	n/a
533.6385	0.09	1067277	keystroke_n	n	n/a
533.7435	0.135	1067487	keystroke_s	s	n/a
533.8635	0.09	1067727	keystroke_Key.space	Key.space	n/a
533.9985	0.075	1067997	keystroke_b	b	n/a
534.1035	0.165	1068207	keystroke_a	a	n/a
534.2985	0.06	1068597	keystroke_l	l	n/a
534.4485	0.09	1068897	keystroke_l	l	n/a
534.5235	0.105	1069047	keystroke_e	e	n/a
534.6735	0.09	1069347	keystroke_t	t	n/a
534.7935	0.09	1069587	keystroke_Key.space	Key.space	n/a
535.0185	0.06	1070037	keystroke_t	t	n/a
535.1835	0.09	1070367	keystroke_e	e	n/a
535.2885	0.075	1070577	keystroke_n	n	n/a
535.6935	0.075	1071387	keystroke_d	d	n/a
535.8735	0.18	1071747	keystroke_e	e	n/a
535.9635	0.12	1071927	keystroke_r	r	n/a
536.0985	0.105	1072197	keystroke_Key.space	Key.space	n/a
536.3835	0.075	1072767	keystroke_o	o	n/a
536.5795	0.074	1073159	keystroke_l	l	n/a
536.7585	0.045	1073517	keystroke_y	y	n/a
536.9535	0.09	1073907	keystroke_m	m	n/a
537.2535	0.06	1074507	keystroke_p	p	n/a
537.5985	0.105	1075197	keystroke_i	i	n/a
538.2745	0.089	1076549	keystroke_c	c	n/a
538.9935	0.105	1077987	keystroke_Key.enter	Key.enter	n/a
539.1045	7.4075	1078209	prompt	n/a	dodge reservoir decorating redeem\n
539.8935	0.09	1079787	keystroke_d	d	n/a
539.9685	0.105	1079937	keystroke_o	o	n/a
540.1035	0.075	1080207	keystroke_d	d	n/a
540.3585	0.06	1080717	keystroke_g	g	n/a
540.4035	0.12	1080807	keystroke_e	e	n/a
540.5835	0.105	1081167	keystroke_Key.space	Key.space	n/a
540.8085	0.105	1081617	keystroke_r	r	n/a
540.8685	0.105	1081737	keystroke_e	e	n/a
541.1685	0.105	1082337	keystroke_s	s	n/a
541.3785	0.105	1082757	keystroke_e	e	n/a
541.5435	0.135	1083087	keystroke_r	r	n/a
541.9185	0.09	1083837	keystroke_v	v	n/a
542.0385	0.105	1084077	keystroke_o	o	n/a
542.2635	0.12	1084527	keystroke_i	i	n/a
542.4435	0.105	1084887	keystroke_r	r	n/a
542.9535	0.12	1085907	keystroke_Key.space	Key.space	n/a
543.1935	0.06	1086387	keystroke_d	d	n/a
543.3735	0.045	1086747	keystroke_e	e	n/a
543.6135	0.09	1087227	keystroke_c	c	n/a
543.6885	0.12	1087377	keystroke_o	o	n/a
543.9585	0.105	1087917	keystroke_r	r	n/a
544.0785	0.166	1088157	keystroke_a	a	n/a
544.2135	0.105	1088427	keystroke_t	t	n/a
544.3635	0.165	1088727	keystroke_i	i	n/a
544.5135	0.075	1089027	keystroke_n	n	n/a
544.5745	0.149	1089149	keystroke_g	g	n/a
544.6935	0.09	1089387	keystroke_Key.space	Key.space	n/a
544.9335	0.105	1089867	keystroke_r	r	n/a
545.0985	0.09	1090197	keystroke_e	e	n/a
545.3085	0.09	1090617	keystroke_d	d	n/a
545.5635	0.061	1091127	keystroke_e	e	n/a
545.6985	0.075	1091397	keystroke_e	e	n/a
545.8495	0.134	1091699	keystroke_m	m	n/a
546.4185	0.09	1092837	keystroke_Key.enter	Key.enter	n/a
546.5175	9.488	1093035	prompt	n/a	lightning pepper gregory districts\n
547.3035	0.09	1094607	keystroke_l	l	n/a
547.4985	0.075	1094997	keystroke_i	i	n/a
547.6335	0.105	1095267	keystroke_g	g	n/a
547.7235	0.075	1095447	keystroke_h	h	n/a
547.8885	0.105	1095777	keystroke_t	t	n/a
548.0235	0.12	1096047	keystroke_i	i	n/a
548.1745	0.089	1096349	keystroke_n	n	n/a
548.3985	0.15	1096797	keystroke_g	g	n/a
548.7435	0.105	1097487	keystroke_Key.space	Key.space	n/a
549.8235	0.15	1099647	keystroke_p	p	n/a
550.2145	0.134	1100429	keystroke_e	e	n/a
550.5285	0.075	1101057	keystroke_p	p	n/a
550.6935	0.09	1101387	keystroke_p	p	n/a
550.7385	0.136	1101477	keystroke_e	e	n/a
550.8285	0.105	1101657	keystroke_r	r	n/a
551.1135	0.075	1102227	keystroke_Key.space	Key.space	n/a
551.3085	0.075	1102617	keystroke_g	g	n/a
551.7435	0.135	1103487	keystroke_r	r	n/a
551.8185	0.12	1103637	keystroke_e	e	n/a
552.2985	0.091	1104597	keystroke_g	g	n/a
552.3735	0.105	1104747	keystroke_o	o	n/a
552.6285	0.09	1105257	keystroke_r	r	n/a
552.7485	0.06	1105497	keystroke_y	y	n/a
552.8535	0.105	1105707	keystroke_Key.space	Key.space	n/a
553.1235	0.061	1106247	keystroke_d	d	n/a
553.1985	0.076	1106397	keystroke_i	i	n/a
553.3335	0.105	1106667	keystroke_s	s	n/a
553.9335	0.106	1107867	keystroke_t	t	n/a
554.6535	0.09	1109307	keystroke_r	r	n/a
554.7585	0.09	1109517	keystroke_i	i	n/a
554.9085	0.106	1109817	keystroke_c	c	n/a
555.0435	0.105	1110087	keystroke_t	t	n/a
555.1935	0.105	1110387	keystroke_s	s	n/a
555.913	0.0905	1111826	keystroke_Key.enter	Key.enter	n/a
556.0105	10.525	1112021	prompt	n/a	forwarding cameras blame hope\n
556.6785	0.0905	1113357	keystroke_f	f	n/a
556.798	0.12	1113596	keystroke_o	o	n/a
556.889	0.105	1113778	keystroke_r	r	n/a
557.098	0.09	1114196	keystroke_w	w	n/a
557.2785	0.1795	1114557	keystroke_a	a	n/a
557.518	0.1065	1115036	keystroke_r	r	n/a
557.788	0.0905	1115576	keystroke_d	d	n/a
557.864	0.15	1115728	keystroke_i	i	n/a
557.983	0.076	1115966	keystroke_n	n	n/a
558.044	0.12	1116088	keystroke_g	g	n/a
558.133	0.09	1116266	keystroke_Key.space	Key.space	n/a
558.344	0.104	1116688	keystroke_c	c	n/a
558.464	0.15	1116928	keystroke_a	a	n/a
558.629	0.089	1117258	keystroke_m	m	n/a
558.748	0.105	1117496	keystroke_e	e	n/a
558.928	0.136	1117856	keystroke_r	r	n/a
559.048	0.166	1118096	keystroke_a	a	n/a
559.319	0.12	1118638	keystroke_s	s	n/a
559.408	0.106	1118816	keystroke_Key.space	Key.space	n/a
559.633	0.061	1119266	keystroke_b	b	n/a
559.7535	0.1355	1119507	keystroke_a	a	n/a
559.828	0.106	1119656	keystroke_l	l	n/a
560.173	0.075	1120346	keystroke_m	m	n/a
560.294	0.074	1120588	keystroke_e	e	n/a
560.398	0.105	1120796	keystroke_Key.space	Key.space	n/a
560.714	0.089	1121428	keystroke_h	h	n/a
560.849	0.12	1121698	keystroke_o	o	n/a
561.014	0.104	1122028	keystroke_m	m	n/a
561.209	0.089	1122418	keystroke_e	e	n/a
561.853	0.075	1123706	keystroke_Key.backspace	Key.backspace	n/a
562.033	0.075	1124066	keystroke_Key.backspace	Key.backspace	n/a
562.198	0.09	1124396	keystroke_Key.backspace	Key.backspace	n/a
562.378	0.09	1124756	keystroke_Key.backspace	Key.backspace	n/a
562.558	0.09	1125116	keystroke_Key.backspace	Key.backspace	n/a
562.753	0.09	1125506	keystroke_Key.backspace	Key.backspace	n/a
562.949	0.104	1125898	keystroke_Key.backspace	Key.backspace	n/a
563.158	0.12	1126316	keystroke_Key.backspace	Key.backspace	n/a
563.398	0.09	1126796	keystroke_Key.backspace	Key.backspace	n/a
564.224	0.09	1128448	keystroke_l	l	n/a
564.344	0.135	1128688	keystroke_a	a	n/a
564.494	0.089	1128988	keystroke_m	m	n/a
564.674	0.074	1129348	keystroke_e	e	n/a
565.093	0.09	1130186	keystroke_Key.space	Key.space	n/a
565.303	0.061	1130606	keystroke_h	h	n/a
565.423	0.121	1130846	keystroke_o	o	n/a
565.633	0.105	1131266	keystroke_p	p	n/a
565.934	0.09	1131868	keystroke_e	e	n/a
566.428	0.105	1132856	keystroke_Key.enter	Key.enter	n/a
566.5395	7.7965	1133079	prompt	n/a	consumption dollars keywords relate\n
567.253	0.106	1134506	keystroke_c	c	n/a
567.554	0.105	1135108	keystroke_o	o	n/a
567.823	0.076	1135646	keystroke_n	n	n/a
568.048	0.151	1136096	keystroke_s	s	n/a
568.139	0.06	1136278	keystroke_u	u	n/a
568.319	0.09	1136638	keystroke_m	m	n/a
568.514	0.105	1137028	keystroke_p	p	n/a
568.949	0.105	1137898	keystroke_t	t	n/a
569.024	0.075	1138048	keystroke_i	i	n/a
569.159	0.149	1138318	keystroke_o	o	n/a
569.264	0.105	1138528	keystroke_n	n	n/a
569.383	0.105	1138766	keystroke_Key.space	Key.space	n/a
569.594	0.12	1139188	keystroke_d	d	n/a
569.729	0.06	1139458	keystroke_o	o	n/a
569.909	0.075	1139818	keystroke_l	l	n/a
570.059	0.09	1140118	keystroke_l	l	n/a
570.164	0.18	1140328	keystroke_a	a	n/a
570.329	0.105	1140658	keystroke_r	r	n/a
570.599	0.105	1141198	keystroke_s	s	n/a
570.719	0.119	1141438	keystroke_Key.space	Key.space	n/a
571.349	0.09	1142698	keystroke_k	k	n/a
571.454	0.09	1142908	keystroke_e	e	n/a
571.604	0.06	1143208	keystroke_y	y	n/a
571.814	0.12	1143628	keystroke_w	w	n/a
571.903	0.105	1143806	keystroke_o	o	n/a
572.039	0.09	1144078	keystroke_r	r	n/a
572.308	0.091	1144616	keystroke_d	d	n/a
572.458	0.166	1144916	keystroke_s	s	n/a
572.639	0.105	1145278	keystroke_Key.space	Key.space	n/a
572.864	0.135	1145728	keystroke_r	r	n/a
572.923	0.121	1145846	keystroke_e	e	n/a
573.164	0.135	1146328	keystroke_l	l	n/a
573.284	0.135	1146568	keystroke_a	a	n/a
573.464	0.135	1146928	keystroke_t	t	n/a
573.539	0.135	1147078	keystroke_e	e	n/a
574.229	0.105	1148458	keystroke_Key.enter	Key.enter	n/a
574.34	10.916	1148680	prompt	n/a	purchase interest constitution accessed\n
575.099	0.105	1150198	keystroke_p	p	n/a
575.294	0.075	1150588	keystroke_u	u	n/a
575.399	0.09	1150798	keystroke_r	r	n/a
575.909	0.135	1151818	keystroke_c	c	n/a
576.044	0.09	1152088	keystroke_h	h	n/a
576.164	0.105	1152328	keystroke_a	a	n/a
576.269	0.195	1152538	keystroke_s	s	n/a
576.419	0.12	1152838	keystroke_e	e	n/a
576.524	0.105	1153048	keystroke_Key.space	Key.space	n/a
576.734	0.135	1153468	keystroke_i	i	n/a
576.839	0.09	1153678	keystroke_n	n	n/a
576.944	0.18	1153888	keystroke_t	t	n/a
577.304	0.135	1154608	keystroke_e	e	n/a
577.514	0.135	1155028	keystroke_r	r	n/a
577.65	0.119	1155300	keystroke_e	e	n/a
578.114	0.12	1156228	keystroke_s	s	n/a
578.294	0.105	1156588	keystroke_t	t	n/a
578.459	0.12	1156918	keystroke_Key.space	Key.space	n/a
578.789	0.12	1157578	keystroke_c	c	n/a
578.894	0.12	1157788	keystroke_o	o	n/a
579.029	0.09	1158058	keystroke_n	n	n/a
579.164	0.105	1158328	keystroke_s	s	n/a
579.419	0.09	1158838	keystroke_t	t	n/a
579.449	0.09	1158898	keystroke_i	i	n/a
579.689	0.105	1159378	keystroke_t	t	n/a
579.779	0.06	1159558	keystroke_u	u	n/a
579.989	0.09	1159978	keystroke_i	i	n/a
580.139	0.18	1160278	keystroke_o	o	n/a
580.274	0.09	1160548	keystroke_n	n	n/a
580.484	0.105	1160968	keystroke_Key.space	Key.space	n/a
581.279	0.075	1162558	keystroke_Key.backspace	Key.backspace	n/a
581.474	0.075	1162948	keystroke_Key.backspace	Key.backspace	n/a
581.669	0.105	1163338	keystroke_Key.backspace	Key.backspace	n/a
581.894	0.09	1163788	keystroke_Key.backspace	Key.backspace	n/a
582.209	0.09	1164418	keystroke_t	t	n/a
582.344	0.09	1164688	keystroke_i	i	n/a
582.509	0.165	1165018	keystroke_o	o	n/a
582.644	0.09	1165288	keystroke_n	n	n/a
582.914	0.015	1165828	keystroke_Key.space	Key.space	n/a
583.619	0.105	1167238	keystroke_a	a	n/a
583.874	0.075	1167748	keystroke_c	c	n/a
583.994	0.06	1167988	keystroke_c	c	n/a
584.174	0.06	1168348	keystroke_e	e	n/a
584.399	0.075	1168798	keystroke_s	s	n/a
584.534	0.15	1169068	keystroke_s	s	n/a
584.669	0.075	1169338	keystroke_e	e	n/a
584.864	0.09	1169728	keystroke_d	d	n/a
585.179	0.075	1170358	keystroke_Key.enter	Key.enter	n/a
585.26	8.7555	1170520	prompt	n/a	hanging it's flight equilibrium\n
585.914	0.06	1171828	keystroke_h	h	n/a
586.019	0.135	1172038	keystroke_a	a	n/a
586.109	0.075	1172218	keystroke_n	n	n/a
586.244	0.09	1172488	keystroke_g	g	n/a
586.334	0.12	1172668	keystroke_i	i	n/a
586.409	0.12	1172818	keystroke_n	n	n/a
586.514	0.12	1173028	keystroke_g	g	n/a
586.619	0.12	1173238	keystroke_Key.space	Key.space	n/a
586.844	0.09	1173688	keystroke_i	i	n/a
587.219	0.09	1174438	keystroke_t	t	n/a
587.504	0.09	1175008	keystroke_'	'	n/a
587.744	0.12	1175488	keystroke_s	s	n/a
588.029	0.075	1176058	keystroke_Key.space	Key.space	n/a
588.509	0.12	1177018	keystroke_l	l	n/a
589.289	0.075	1178578	keystroke_Key.backspace	Key.backspace	n/a
589.679	0.12	1179358	keystroke_f	f	n/a
589.739	0.15	1179478	keystroke_l	l	n/a
589.874	0.135	1179748	keystroke_i	i	n/a
589.979	0.075	1179958	keystroke_g	g	n/a
590.114	0.075	1180228	keystroke_h	h	n/a
590.219	0.12	1180438	keystroke_t	t	n/a
590.324	0.12	1180648	keystroke_Key.space	Key.space	n/a
590.954	0.075	1181908	keystroke_e	e	n/a
591.149	0.135	1182298	keystroke_q	q	n/a
591.269	0.06	1182538	keystroke_u	u	n/a
591.419	0.09	1182838	keystroke_i	i	n/a
591.974	0.165	1183948	keystroke_l	l	n/a
592.094	0.105	1184188	keystroke_i	i	n/a
592.349	0.075	1184698	keystroke_b	b	n/a
592.7985	0.1055	1185597	keystroke_r	r	n/a
592.889	0.09	1185778	keystroke_i	i	n/a
593.0685	0.0605	1186137	keystroke_u	u	n/a
593.264	0.0745	1186528	keystroke_m	m	n/a
593.9235	0.09	1187847	keystroke_Key.enter	Key.enter	n/a
594.021	6.5195	1188042	prompt	n/a	leslie record prepaid nicole\n
594.6585	0.12	1189317	keystroke_l	l	n/a
594.7635	0.075	1189527	keystroke_e	e	n/a
594.9885	0.1205	1189977	keystroke_s	s	n/a
595.1685	0.105	1190337	keystroke_l	l	n/a
595.3935	0.075	1190787	keystroke_i	i	n/a
595.5735	0.09	1191147	keystroke_e	e	n/a
595.7385	0.105	1191477	keystroke_Key.space	Key.space	n/a
595.9785	0.135	1191957	keystroke_r	r	n/a
596.0535	0.12	1192107	keystroke_e	e	n/a
596.7735	0.09	1193547	keystroke_c	c	n/a
596.8635	0.12	1193727	keystroke_o	o	n/a
596.9985	0.105	1193997	keystroke_r	r	n/a
597.3285	0.075	1194657	keystroke_d	d	n/a
597.4485	0.135	1194897	keystroke_Key.space	Key.space	n/a
597.8085	0.09	1195617	keystroke_p	p	n/a
597.9585	0.165	1195917	keystroke_r	r	n/a
598.0335	0.12	1196067	keystroke_e	e	n/a
598.2285	0.12	1196457	keystroke_p	p	n/a
598.3785	0.135	1196757	keystroke_a	a	n/a
598.5285	0.075	1197057	keystroke_i	i	n/a
598.6635	0.135	1197327	keystroke_d	d	n/a
598.7985	0.12	1197597	keystroke_Key.space	Key.space	n/a
599.0085	0.075	1198017	keystroke_n	n	n/a
599.1435	0.09	1198287	keystroke_i	i	n/a
599.3535	0.12	1198707	keystroke_c	c	n/a
599.6535	0.075	1199307	keystroke_o	o	n/a
599.8935	0.12	1199787	keystroke_l	l	n/a
599.9985	0.09	1199997	keystroke_e	e	n/a
600.4485	0.09	1200897	keystroke_Key.enter	Key.enter	n/a
600.5445	8.0955	1201089	prompt	n/a	wellness realize breakfast pixels\n
601.2885	0.09	1202577	keystroke_w	w	n/a
601.4535	0.105	1202907	keystroke_e	e	n/a
601.6185	0.09	1203237	keystroke_l	l	n/a
601.8135	0.075	1203627	keystroke_l	l	n/a
602.0385	0.06	1204077	keystroke_n	n	n/a
602.1285	0.075	1204257	keystroke_e	e	n/a
602.3385	0.075	1204677	keystroke_s	s	n/a
602.4885	0.12	1204977	keystroke_s	s	n/a
602.6235	0.12	1205247	keystroke_Key.space	Key.space	n/a
602.9385	0.135	1205877	keystroke_r	r	n/a
603.0435	0.135	1206087	keystroke_e	e	n/a
603.2985	0.09	1206597	keystroke_l	l	n/a
604.0935	0.075	1208187	keystroke_Key.backspace	Key.backspace	n/a
604.2735	0.135	1208547	keystroke_a	a	n/a
604.3935	0.105	1208787	keystroke_l	l	n/a
604.5735	0.09	1209147	keystroke_i	i	n/a
604.7685	0.135	1209537	keystroke_z	z	n/a
604.8735	0.12	1209747	keystroke_e	e	n/a
605.1135	0.12	1210227	keystroke_Key.space	Key.space	n/a
605.3235	0.06	1210647	keystroke_b	b	n/a
605.4435	0.165	1210887	keystroke_r	r	n/a
605.5335	0.195	1211067	keystroke_e	e	n/a
605.7135	0.135	1211427	keystroke_a	a	n/a
605.8495	0.104	1211699	keystroke_k	k	n/a
606.0285	0.15	1212057	keystroke_f	f	n/a
606.1635	0.18	1212327	keystroke_a	a	n/a
606.3285	0.225	1212657	keystroke_s	s	n/a
606.5235	0.105	1213047	keystroke_t	t	n/a
606.6735	0.12	1213347	keystroke_Key.space	Key.space	n/a
607.0335	0.09	1214067	keystroke_p	p	n/a
607.2435	0.075	1214487	keystroke_i	i	n/a
607.5885	0.105	1215177	keystroke_x	x	n/a
607.8435	0.09	1215687	keystroke_e	e	n/a
608.0235	0.135	1216047	keystroke_l	l	n/a
608.2335	0.105	1216467	keystroke_s	s	n/a
608.5635	0.075	1217127	keystroke_Key.enter	Key.enter	n/a
608.645	5.8	1217290	prompt	n/a	lets realize month contain\n
609.5385	0.12	1219077	keystroke_l	l	n/a
609.6435	0.12	1219287	keystroke_e	e	n/a
609.8685	0.09	1219737	keystroke_t	t	n/a
610.0635	0.121	1220127	keystroke_s	s	n/a
610.2135	0.15	1220427	keystroke_Key.space	Key.space	n/a
610.4835	0.15	1220967	keystroke_r	r	n/a
610.5285	0.165	1221057	keystroke_e	e	n/a
610.8435	0.135	1221687	keystroke_a	a	n/a
611.2185	0.105	1222437	keystroke_l	l	n/a
611.4135	0.105	1222827	keystroke_i	i	n/a
611.5335	0.135	1223067	keystroke_z	z	n/a
611.6985	0.09	1223397	keystroke_e	e	n/a
611.8485	0.105	1223697	keystroke_Key.space	Key.space	n/a
612.1035	0.09	1224207	keystroke_m	m	n/a
612.2085	0.135	1224417	keystroke_o	o	n/a
612.3735	0.12	1224747	keystroke_n	n	n/a
612.5985	0.105	1225197	keystroke_t	t	n/a
612.7335	0.075	1225467	keystroke_h	h	n/a
612.8835	0.105	1225767	keystroke_Key.space	Key.space	n/a
613.1235	0.105	1226247	keystroke_c	c	n/a
613.2735	0.09	1226547	keystroke_o	o	n/a
613.4685	0.09	1226937	keystroke_n	n	n/a
613.5885	0.135	1227177	keystroke_t	t	n/a
613.6935	0.15	1227387	keystroke_a	a	n/a
613.8285	0.135	1227657	keystroke_i	i	n/a
613.9485	0.09	1227897	keystroke_n	n	n/a
614.3685	0.075	1228737	keystroke_Key.enter	Key.enter	n/a
614.449	8.157	1228898	prompt	n/a	brandon bits situation czech\n
615.1335	0.075	1230267	keystroke_b	b	n/a
615.2685	0.1195	1230537	keystroke_r	r	n/a
615.3585	0.15	1230717	keystroke_a	a	n/a
615.6735	0.09	1231347	keystroke_n	n	n/a
615.9135	0.075	1231827	keystroke_d	d	n/a
615.9735	0.15	1231947	keystroke_o	o	n/a
616.1085	0.09	1232217	keystroke_n	n	n/a
