onset	duration	sample	value	key	prompt_text
3.006	13.919	6012	prompt	n/a	the quick brown fox jumps over a lazy dog\n
5.8375	0.105	11675	keystroke	Key.space	n/a
6.2125	0.12	12425	keystroke	q	n/a
6.3925	0.12	12785	keystroke	u	n/a
6.5275	0.105	13055	keystroke	i	n/a
7.0675	0.06	14135	keystroke	c	n/a
7.1725	0.105	14345	keystroke	k	n/a
7.3225	0.09	14645	keystroke	Key.space	n/a
7.787	0.106	15574	keystroke	b	n/a
8.222	0.0455	16444	keystroke	r	n/a
8.2975	0.105	16595	keystroke	o	n/a
8.3875	0.12	16775	keystroke	w	n/a
8.6275	0.09	17255	keystroke	n	n/a
9.2725	0.075	18545	keystroke	Key.space	n/a
10.4875	0.06	20975	keystroke	f	n/a
10.6225	0.105	21245	keystroke	o	n/a
11.0425	0.135	22085	keystroke	x	n/a
11.208	0.09	22416	keystroke	Key.space	n/a
11.418	0.105	22836	keystroke	j	n/a
11.613	0.12	23226	keystroke	u	n/a
11.838	0.135	23676	keystroke	m	n/a
11.943	0.135	23886	keystroke	p	n/a
12.4375	0.105	24875	keystroke	s	n/a
12.9775	0.15	25955	keystroke	Key.space	n/a
13.2325	0.105	26465	keystroke	o	n/a
13.5025	0.15	27005	keystroke	v	n/a
13.6975	0.18	27395	keystroke	e	n/a
13.7875	0.135	27575	keystroke	r	n/a
13.9225	0.105	27845	keystroke	Key.space	n/a
14.1175	0.105	28235	keystroke	t	n/a
14.2075	0.105	28415	keystroke	h	n/a
14.3275	0.1045	28655	keystroke	e	n/a
14.4025	0.1045	28805	keystroke	Key.space	n/a
14.762	0.12	29524	keystroke	l	n/a
15.002	0.106	30004	keystroke	a	n/a
15.2425	0.1345	30485	keystroke	z	n/a
15.347	0.135	30694	keystroke	y	n/a
15.497	0.15	30994	keystroke	Key.space	n/a
15.932	0.15	31864	keystroke	d	n/a
16.038	0.104	32076	keystroke	o	n/a
16.247	0.135	32494	keystroke	g	n/a
16.8175	0.105	33635	keystroke	Key.enter	n/a
16.929	16.2555	33858	prompt	n/a	zoom exercise agencies albuquerque\n
18.0625	0.12	36125	keystroke	z	n/a
18.3175	0.075	36635	keystroke	o	n/a
18.4975	0.105	36995	keystroke	o	n/a
18.7375	0.135	37475	keystroke	m	n/a
18.9925	0.105	37985	keystroke	Key.space	n/a
19.3825	0.165	38765	keystroke	e	n/a
19.9375	0.36	39875	keystroke	x	n/a
20.3125	0.03	40625	keystroke	e	n/a
20.3275	0.06	40655	keystroke	r	n/a
20.8375	0.15	41675	keystroke	v	n/a
21.1075	0.195	42215	keystroke	i	n/a
21.6475	0.3	43295	keystroke	s	n/a
21.8875	0.165	43775	keystroke	e	n/a
22.5025	0.18	45005	keystroke	Key.space	n/a
23.268	0.135	46536	keystroke	a	n/a
23.493	0.165	46986	keystroke	g	n/a
24.123	0.135	48246	keystroke	e	n/a
24.243	0.03	48486	keystroke	n	n/a
24.573	0.375	49146	keystroke	c	n/a
25.368	0.09	50736	keystroke	i	n/a
25.473	0.015	50946	keystroke	e	n/a
25.503	0.015	51006	keystroke	s	n/a
25.563	0.015	51126	keystroke	Key.space	n/a
25.9075	0.12	51815	keystroke	a	n/a
26.5675	0.06	53135	keystroke	l	n/a
27.2425	0.12	54485	keystroke	b	n/a
28.5175	0.03	57035	keystroke	u	n/a
29.1325	0.09	58265	keystroke	q	n/a
30.1375	0.045	60275	keystroke	u	n/a
30.7675	0.1055	61535	keystroke	e	n/a
30.8575	0.15	61715	keystroke	r	n/a
32.163	0.09	64326	keystroke	q	n/a
32.358	0.12	64716	keystroke	u	n/a
32.613	0.165	65226	keystroke	e	n/a
33.093	0.09	66186	keystroke	Key.enter	n/a
33.1875	11.577	66375	prompt	n/a	greeting creating logical spend\n
34.3975	0.075	68795	keystroke	g	n/a
34.6075	0.15	69215	keystroke	r	n/a
34.6825	0.18	69365	keystroke	e	n/a
35.0575	0.15	70115	keystroke	e	n/a
35.3575	0.3	70715	keystroke	t	n/a
35.6425	0.1205	71285	keystroke	i	n/a
35.748	0.03	71496	keystroke	n	n/a
35.793	0.015	71586	keystroke	g	n/a
35.868	0.075	71736	keystroke	s	n/a
37.113	0.105	74226	keystroke	Key.backspace	n/a
37.353	0.105	74706	keystroke	Key.space	n/a
37.728	0.1045	75456	keystroke	c	n/a
38.2375	0.195	76475	keystroke	r	n/a
38.9425	0.15	77885	keystroke	e	n/a
39.2275	0.18	78455	keystroke	a	n/a
39.4375	0.15	78875	keystroke	t	n/a
39.6175	0.195	79235	keystroke	i	n/a
39.7225	0.225	79445	keystroke	n	n/a
39.9625	0.105	79925	keystroke	g	n/a
40.3525	0.12	80705	keystroke	Key.space	n/a
40.8925	0.09	81785	keystroke	l	n/a
41.1325	0.21	82265	keystroke	o	n/a
41.5825	0.135	83165	keystroke	g	n/a
41.6875	0.15	83375	keystroke	i	n/a
41.9875	0.135	83975	keystroke	c	n/a
42.1075	0.195	84215	keystroke	a	n/a
42.2425	0.12	84485	keystroke	l	n/a
42.5425	0.1055	85085	keystroke	Key.space	n/a
42.767	0.15	85534	keystroke	s	n/a
42.963	0.104	85926	keystroke	p	n/a
43.202	0.091	86404	keystroke	e	n/a
43.428	0.09	86856	keystroke	n	n/a
43.742	0.18	87484	keystroke	d	n/a
44.597	0.165	89194	keystroke	Key.enter	n/a
44.7675	16.317	89535	prompt	n/a	illustrations flash hypothesis derived\n
45.722	0.075	91444	keystroke	i	n/a
46.097	0.075	92194	keystroke	l	n/a
46.247	0.135	92494	keystroke	l	n/a
46.6975	0.1645	93395	keystroke	i	n/a
47.0725	0.1495	94145	keystroke	u	n/a
47.342	0.12	94684	keystroke	s	n/a
47.852	0.15	95704	keystroke	t	n/a
48.092	0.2105	96184	keystroke	r	n/a
48.2725	0.136	96545	keystroke	a	n/a
48.4825	0.1495	96965	keystroke	t	n/a
48.572	0.2405	97144	keystroke	i	n/a
48.722	0.27	97444	keystroke	o	n/a
48.977	0.135	97954	keystroke	n	n/a
49.127	0.165	98254	keystroke	s	n/a
49.502	0.12	99004	keystroke	Key.space	n/a
50.508	0.075	101016	keystroke	f	n/a
50.598	0.06	101196	keystroke	l	n/a
50.703	0.12	101406	keystroke	a	n/a
50.928	0.135	101856	keystroke	s	n/a
51.123	0.105	102246	keystroke	h	n/a
51.318	0.12	102636	keystroke	Key.space	n/a
52.488	0.12	104976	keystroke	h	n/a
53.763	0.15	107526	keystroke	y	n/a
54.6025	0.255	109205	keystroke	p	n/a
54.8575	0.03	109715	keystroke	o	n/a
55.1725	0.18	110345	keystroke	t	n/a
55.3675	0.105	110735	keystroke	h	n/a
55.6375	0.18	111275	keystroke	e	n/a
56.328	0.134	112656	keystroke	s	n/a
56.552	0.015	113104	keystroke	i	n/a
56.582	0.18	113164	keystroke	s	n/a
57.152	0.1055	114304	keystroke	Key.space	n/a
57.677	0.195	115354	keystroke	d	n/a
58.067	0.075	116134	keystroke	r	n/a
58.637	0.09	117274	keystroke	Key.backspace	n/a
58.802	0.15	117604	keystroke	e	n/a
58.892	0.166	117784	keystroke	r	n/a
59.657	0.0905	119314	keystroke	i	n/a
60.092	0.12	120184	keystroke	v	n/a
60.332	0.105	120664	keystroke	e	n/a
60.543	0.149	121086	keystroke	d	n/a
60.977	0.105	121954	keystroke	Key.enter	n/a
61.0875	16.362	122175	prompt	n/a	widescreen commonly boulevard cleared\n
62.2375	0.06	124475	keystroke	w	n/a
62.5675	0.075	125135	keystroke	i	n/a
62.7475	0.12	125495	keystroke	d	n/a
62.9575	0.105	125915	keystroke	e	n/a
63.2425	0.135	126485	keystroke	s	n/a
63.4975	0.18	126995	keystroke	c	n/a
63.7975	0.165	127595	keystroke	r	n/a
64.0975	0.105	128195	keystroke	e	n/a
64.2925	0.12	128585	keystroke	e	n/a
64.6075	0.135	129215	keystroke	n	n/a
64.7875	0.03	129575	keystroke	Key.space	n/a
65.0725	0.225	130145	keystroke	c	n/a
65.1475	0.165	130295	keystroke	o	n/a
65.597	0.1805	131194	keystroke	m	n/a
65.7925	0.015	131585	keystroke	m	n/a
65.9275	0.06	131855	keystroke	m	n/a
66.9775	0.105	133955	keystroke	o	n/a
67.0675	0.09	134135	keystroke	n	n/a
67.2625	0.18	134525	keystroke	l	n/a
67.6075	0.15	135215	keystroke	y	n/a
67.8925	0.135	135785	keystroke	Key.space	n/a
71.705	0.088	143410	keystroke	b	n/a
72.438	0.18	144876	keystroke	o	n/a
72.528	0.15	145056	keystroke	u	n/a
73.128	0.075	146256	keystroke	l	n/a
73.263	0.165	146526	keystroke	e	n/a
73.878	0.165	147756	keystroke	v	n/a
74.118	0.33	148236	keystroke	a	n/a
74.238	0.225	148476	keystroke	r	n/a
74.478	0.2095	148956	keystroke	d	n/a
75.1075	0.12	150215	keystroke	Key.space	n/a
75.4975	0.12	150995	keystroke	c	n/a
75.6925	0.135	151385	keystroke	l	n/a
75.9775	0.165	151955	keystroke	e	n/a
76.0825	0.24	152165	keystroke	a	n/a
76.4425	0.195	152885	keystroke	r	n/a
76.8625	0.105	153725	keystroke	e	n/a
77.0425	0.21	154085	keystroke	d	n/a
77.3125	0.135	154625	keystroke	Key.enter	n/a
77.452	18.7775	154904	prompt	n/a	situated obvious murphy operator\n
78.4975	0.27	156995	keystroke	s	n/a
78.7825	0.255	157565	keystroke	i	n/a
79.0525	0.18	158105	keystroke	t	n/a
79.2925	0.18	158585	keystroke	u	n/a
79.3375	0.12	158675	keystroke	y	n/a
81.453	0.09	162906	keystroke	Key.backspace	n/a
82.923	0.12	165846	keystroke	a	n/a
83.133	0.12	166266	keystroke	t	n/a
83.298	0.104	166596	keystroke	e	n/a
83.538	0.12	167076	keystroke	d	n/a
83.883	0.12	167766	keystroke	Key.space	n/a
84.858	0.1195	169716	keystroke	o	n/a
85.3975	0.105	170795	keystroke	v	n/a
86.3425	0.105	172685	keystroke	Key.backspace	n/a
86.7175	0.135	173435	keystroke	b	n/a
87.5275	0.165	175055	keystroke	v	n/a
87.8275	0.045	175655	keystroke	i	n/a
87.9925	0.15	175985	keystroke	o	n/a
88.0675	0.15	176135	keystroke	u	n/a
88.2175	0.15	176435	keystroke	s	n/a
88.7725	0.135	177545	keystroke	Key.space	n/a
89.2825	0.09	178565	keystroke	m	n/a
89.642	0.135	179284	keystroke	u	n/a
89.852	0.196	179704	keystroke	r	n/a
90.167	0.166	180334	keystroke	p	n/a
90.348	0.12	180696	keystroke	h	n/a
90.587	0.105	181174	keystroke	y	n/a
91.187	0.15	182374	keystroke	Key.space	n/a
91.727	0.15	183454	keystroke	o	n/a
91.8325	0.1345	183665	keystroke	p	n/a
92.087	0.135	184174	keystroke	e	n/a
92.1935	0.1185	184387	keystroke	r	n/a
92.4475	0.1495	184895	keystroke	a	n/a
92.642	0.09	185284	keystroke	t	n/a
92.837	0.135	185674	keystroke	e	n/a
95.1195	0.043	190239	keystroke	Key.backspace	n/a
95.5225	0.075	191045	keystroke	o	n/a
95.6575	0.135	191315	keystroke	r	n/a
96.0925	0.135	192185	keystroke	Key.enter	n/a
96.234	11.5155	192468	prompt	n/a	profile strategic stan safari\n
97.3075	0.135	194615	keystroke	p	n/a
97.6525	0.12	195305	keystroke	r	n/a
97.7875	0.09	195575	keystroke	o	n/a
98.1475	0.27	196295	keystroke	f	n/a
98.2825	0.18	196565	keystroke	i	n/a
98.4775	0.255	196955	keystroke	l	n/a
98.7475	0.045	197495	keystroke	e	n/a
98.9125	0.105	197825	keystroke	Key.space	n/a
99.4375	0.09	198875	keystroke	s	n/a
99.6325	0.105	199265	keystroke	t	n/a
99.8425	0.165	199685	keystroke	r	n/a
99.9775	0.165	199955	keystroke	a	n/a
100.8775	0.151	201755	keystroke	t	n/a
101.5525	0.12	203105	keystroke	e	n/a
102.0025	0.09	204005	keystroke	g	n/a
102.1225	0.105	204245	keystroke	i	n/a
102.3475	0.18	204695	keystroke	c	n/a
102.8125	0.105	205625	keystroke	Key.space	n/a
103.458	0.1195	206916	keystroke	s	n/a
103.6225	0.285	207245	keystroke	t	n/a
104.3125	0.105	208625	keystroke	a	n/a
104.4325	0.135	208865	keystroke	n	n/a
104.6875	0.12	209375	keystroke	Key.space	n/a
105.2875	0.15	210575	keystroke	s	n/a
105.4675	0.12	210935	keystroke	a	n/a
105.9175	0.1955	211835	keystroke	f	n/a
106.113	0.135	212226	keystroke	a	n/a
106.353	0.135	212706	keystroke	r	n/a
106.608	0.09	213216	keystroke	i	n/a
107.613	0.135	215226	keystroke	Key.enter	n/a
107.755	9.924	215510	prompt	n/a	alignment tech usually salem\n
108.903	0.06	217806	keystroke	a	n/a
109.3375	0.135	218675	keystroke	l	n/a
109.6525	0.105	219305	keystroke	i	n/a
111.0175	0.135	222035	keystroke	g	n/a
111.8275	0.12	223655	keystroke	n	n/a
112.2625	0.075	224525	keystroke	m	n/a
112.3525	0.135	224705	keystroke	e	n/a
112.5025	0.3	225005	keystroke	n	n/a
112.7875	0.03	225575	keystroke	t	n/a
112.9975	0.015	225995	keystroke	Key.space	n/a
113.1175	0.135	226235	keystroke	t	n/a
113.2975	0.09	226595	keystroke	e	n/a
113.6125	0.09	227225	keystroke	c	n/a
113.7175	0.12	227435	keystroke	h	n/a
113.8525	0.135	227705	keystroke	Key.space	n/a
114.1975	0.42	228395	keystroke	u	n/a
114.3625	0.315	228725	keystroke	s	n/a
114.8275	0.03	229655	keystroke	u	n/a
114.8425	0.06	229685	keystroke	a	n/a
114.9175	0.015	229835	keystroke	l	n/a
114.9925	0.075	229985	keystroke	l	n/a
115.2175	0.12	230435	keystroke	y	n/a
115.3525	0.1655	230705	keystroke	Key.space	n/a
115.668	0.18	231336	keystroke	s	n/a
115.833	0.165	231666	keystroke	a	n/a
116.058	0.12	232116	keystroke	l	n/a
116.523	0.135	233046	keystroke	e	n/a
116.883	0.15	233766	keystroke	m	n/a
117.573	0.105	235146	keystroke	Key.enter	n/a
117.684	11.95	235368	prompt	n/a	cleanup cases principles nightmare\n
118.5475	0.15	237095	keystroke	c	n/a
118.7425	0.045	237485	keystroke	l	n/a
118.8025	0.195	237605	keystroke	e	n/a
118.9525	0.135	237905	keystroke	a	n/a
119.1475	0.045	238295	keystroke	n	n/a
119.4475	0.15	238895	keystroke	u	n/a
119.6425	0.12	239285	keystroke	p	n/a
119.8225	0.105	239645	keystroke	Key.space	n/a
120.2725	0.21	240545	keystroke	c	n/a
120.4975	0.165	240995	keystroke	a	n/a
120.7075	0.18	241415	keystroke	s	n/a
120.8725	0.165	241745	keystroke	e	n/a
121.0525	0.165	242105	keystroke	s	n/a
121.2925	0.12	242585	keystroke	Key.space	n/a
121.6075	0.105	243215	keystroke	p	n/a
121.9825	0.15	243965	keystroke	r	n/a
122.2375	0.09	244475	keystroke	i	n/a
122.5225	0.105	245045	keystroke	n	n/a
122.9275	0.075	245855	keystroke	c	n/a
123.2875	0.1655	246575	keystroke	i	n/a
123.468	0.27	246936	keystroke	p	n/a
123.753	0.12	247506	keystroke	l	n/a
123.813	0.15	247626	keystroke	e	n/a
124.023	0.135	248046	keystroke	s	n/a
124.248	0.075	248496	keystroke	Key.space	n/a
124.503	0.12	249006	keystroke	n	n/a
124.638	0.135	249276	keystroke	i	n/a
124.788	0.165	249576	keystroke	g	n/a
124.908	0.225	249816	keystroke	h	n/a
125.148	0.09	250296	keystroke	t	n/a
125.553	0.105	251106	keystroke	n	n/a
125.673	0.06	251346	keystroke	a	n/a
126.723	0.09	253446	keystroke	Key.backspace	n/a
126.858	0.12	253716	keystroke	Key.backspace	n/a
127.293	0.015	254586	keystroke	n	n/a
128.043	0.12	256086	keystroke	Key.backspace	n/a
128.253	0.075	256506	keystroke	Key.backspace	n/a
128.733	0.09	257466	keystroke	m	n/a
129.108	0.075	258216	keystroke	a	n/a
129.198	0.18	258396	keystroke	r	n/a
129.288	0.15	258576	keystroke	e	n/a
129.497	0.135	258994	keystroke	Key.enter	n/a
129.6365	9.9425	259273	prompt	n/a	fails tagged token insurance\n
130.803	0.18	261606	keystroke	f	n/a
130.938	0.195	261876	keystroke	a	n/a
131.087	0.076	262174	keystroke	i	n/a
131.222	0.12	262444	keystroke	l	n/a
131.552	0.136	263104	keystroke	s	n/a
131.822	0.076	263644	keystroke	Key.space	n/a
132.543	0.179	265086	keystroke	r	n/a
133.127	0.09	266254	keystroke	Key.backspace	n/a
133.382	0.135	266764	keystroke	t	n/a
133.502	0.135	267004	keystroke	a	n/a
133.847	0.076	267694	keystroke	g	n/a
133.982	0.12	267964	keystroke	g	n/a
134.208	0.059	268416	keystroke	e	n/a
134.4025	0.135	268805	keystroke	d	n/a
134.6125	0.075	269225	keystroke	Key.space	n/a
135.6625	0.135	271325	keystroke	t	n/a
135.7825	0.06	271565	keystroke	o	n/a
136.3225	0.12	272645	keystroke	k	n/a
136.5475	0.12	273095	keystroke	e	n/a
136.6975	0.165	273395	keystroke	n	n/a
136.9825	0.09	273965	keystroke	Key.space	n/a
137.1925	0.225	274385	keystroke	i	n/a
137.3125	0.135	274625	keystroke	n	n/a
137.7175	0.105	275435	keystroke	s	n/a
137.8525	0.15	275705	keystroke	u	n/a
138.1225	0.195	276245	keystroke	r	n/a
138.6025	0.12	277205	keystroke	a	n/a
138.7825	0.165	277565	keystroke	n	n/a
138.9775	0.105	277955	keystroke	c	n/a
139.1875	0.15	278375	keystroke	e	n/a
139.5325	0.045	279065	keystroke	Key.enter	n/a
139.582	10.1225	279164	prompt	n/a	wesley drums regarding tattoo\n
140.3125	0.15	280625	keystroke	w	n/a
140.478	0.1495	280956	keystroke	e	n/a
140.6575	0.15	281315	keystroke	s	n/a
140.7925	0.165	281585	keystroke	l	n/a
141.0475	0.165	282095	keystroke	y	n/a
141.2725	0.045	282545	keystroke	Key.space	n/a
141.6925	0.165	283385	keystroke	d	n/a
141.8425	0.15	283685	keystroke	r	n/a
142.1575	0.165	284315	keystroke	u	n/a
142.4425	0.39	284885	keystroke	m	n/a
142.8775	0.06	285755	keystroke	s	n/a
143.0725	0.09	286145	keystroke	Key.space	n/a
143.3725	0.195	286745	keystroke	r	n/a
143.4775	0.165	286955	keystroke	e	n/a
144.6475	0.15	289295	keystroke	g	n/a
145.7275	0.165	291455	keystroke	a	n/a
145.8175	0.15	291635	keystroke	r	n/a
146.1025	0.18	292205	keystroke	d	n/a
146.3125	0.2105	292625	keystroke	i	n/a
146.3875	0.2105	292775	keystroke	n	n/a
146.583	0.18	293166	keystroke	g	n/a
147.033	0.09	294066	keystroke	Key.space	n/a
147.483	0.135	294966	keystroke	t	n/a
147.633	0.1345	295266	keystroke	a	n/a
148.0075	0.12	296015	keystroke	t	n/a
148.1425	0.09	296285	keystroke	t	n/a
149.1475	0.09	298295	keystroke	o	n/a
149.3125	0.12	298625	keystroke	o	n/a
149.6275	0.075	299255	keystroke	Key.enter	n/a
149.707	15.5675	299414	prompt	n/a	associates collins wesley tripadvisor\n
150.4225	0.165	300845	keystroke	a	n/a
150.7075	0.09	301415	keystroke	s	n/a
150.8575	0.12	301715	keystroke	s	n/a
151.7425	0.045	303485	keystroke	o	n/a
152.3425	0.105	304685	keystroke	c	n/a
152.4625	0.135	304925	keystroke	i	n/a
153.5575	0.12	307115	keystroke	a	n/a
153.8125	0.255	307625	keystroke	t	n/a
154.0825	0.015	308165	keystroke	e	n/a
154.1125	0.18	308225	keystroke	s	n/a
154.4125	0.075	308825	keystroke	Key.space	n/a
154.8775	0.135	309755	keystroke	c	n/a
154.9825	0.165	309965	keystroke	o	n/a
155.673	0.0895	311346	keystroke	l	n/a
155.8075	0.21	311615	keystroke	l	n/a
156.3925	0.09	312785	keystroke	l	n/a
156.888	0.18	313776	keystroke	i	n/a
156.993	0.15	313986	keystroke	n	n/a
157.4275	0.33	314855	keystroke	s	n/a
157.7725	0.015	315545	keystroke	Key.space	n/a
158.0275	0.165	316055	keystroke	w	n/a
158.1775	0.15	316355	keystroke	e	n/a
158.4025	0.165	316805	keystroke	s	n/a
158.8825	0.18	317765	keystroke	l	n/a
159.2575	0.15	318515	keystroke	e	n/a
159.4085	0.134	318817	keystroke	y	n/a
159.6475	0.09	319295	keystroke	Key.space	n/a
161.6275	0.135	323255	keystroke	t	n/a
162.3325	0.15	324665	keystroke	r	n/a
162.4675	0.315	324935	keystroke	i	n/a
162.5875	0.21	325175	keystroke	p	n/a
162.9625	0.12	325925	keystroke	a	n/a
163.2025	0.15	326405	keystroke	d	n/a
163.7275	0.12	327455	keystroke	v	n/a
163.8925	0.18	327785	keystroke	i	n/a
164.3125	0.15	328625	keystroke	s	n/a
164.6275	0.15	329255	keystroke	o	n/a
164.7625	0.18	329525	keystroke	r	n/a
165.1675	0.105	330335	keystroke	Key.enter	n/a
165.2765	11.6225	330553	prompt	n/a	embassy assumes involved kitty\n
166.2475	0.225	332495	keystroke	e	n/a
166.6975	0.135	333395	keystroke	m	n/a
167.3725	0.105	334745	keystroke	b	n/a
167.5375	0.135	335075	keystroke	a	n/a
168.3325	0.075	336665	keystroke	s	n/a
168.5125	0.105	337025	keystroke	s	n/a
168.8425	0.24	337685	keystroke	y	n/a
169.3075	0.105	338615	keystroke	Key.space	n/a
170.1025	0.075	340205	keystroke	a	n/a
170.3275	0.09	340655	keystroke	s	n/a
170.4925	0.105	340985	keystroke	s	n/a
170.7625	0.06	341525	keystroke	y	n/a
170.9575	0.24	341915	keystroke	m	n/a
171.0625	0.36	342125	keystroke	e	n/a
171.4825	0.015	342965	keystroke	s	n/a
171.5725	0.045	343145	keystroke	Key.space	n/a
171.9475	0.165	343895	keystroke	i	n/a
172.0075	0.12	344015	keystroke	n	n/a
172.3975	0.135	344795	keystroke	v	n/a
172.9225	0.105	345845	keystroke	o	n/a
173.2225	0.135	346445	keystroke	l	n/a
173.4925	0.06	346985	keystroke	e	n/a
173.7025	0.24	347405	keystroke	d	n/a
174.0625	0.135	348125	keystroke	Key.space	n/a
174.4825	0.105	348965	keystroke	k	n/a
174.7075	0.09	349415	keystroke	i	n/a
175.0975	0.09	350195	keystroke	t	n/a
175.2775	0.09	350555	keystroke	t	n/a
175.4725	0.12	350945	keystroke	y	n/a
175.7875	0.045	351575	keystroke	'	n/a
176.7925	0.1055	353585	keystroke	Key.enter	n/a
176.902	13.047	353804	prompt	n/a	titanium material editorials online\n
178.172	0.045	356344	keystroke	t	n/a
178.262	0.121	356524	keystroke	i	n/a
178.502	0.18	357004	keystroke	t	n/a
179.897	0.12	359794	keystroke	a	n/a
180.332	0.135	360664	keystroke	n	n/a
181.082	0.105	362164	keystroke	i	n/a
182.447	0.36	364894	keystroke	u	n/a
182.822	0.045	365644	keystroke	m	n/a
182.882	0.09	365764	keystroke	Key.space	n/a
183.317	0.105	366634	keystroke	m	n/a
183.527	0.15	367054	keystroke	a	n/a
184.1875	0.105	368375	keystroke	t	n/a
184.4125	0.15	368825	keystroke	e	n/a
184.5025	0.165	369005	keystroke	r	n/a
184.7575	0.12	369515	keystroke	i	n/a
185.0425	0.12	370085	keystroke	a	n/a
185.1775	0.15	370355	keystroke	l	n/a
185.6125	0.09	371225	keystroke	Key.space	n/a
185.9425	0.21	371885	keystroke	d	n/a
186.1975	0.105	372395	keystroke	i	n/a
186.5875	0.15	373175	keystroke	t	n/a
186.7225	0.18	373445	keystroke	o	n/a
186.9775	0.15	373955	keystroke	r	n/a
187.2175	0.18	374435	keystroke	i	n/a
187.5025	0.135	375005	keystroke	a	n/a
187.7875	0.15	375575	keystroke	l	n/a
187.9825	0.075	375965	keystroke	s	n/a
188.2075	0.09	376415	keystroke	Key.space	n/a
188.5075	0.18	377015	keystroke	o	n/a
188.6275	0.15	377255	keystroke	n	n/a
188.8075	0.195	377615	keystroke	l	n/a
188.9275	0.195	377855	keystroke	i	n/a
189.1675	0.21	378335	keystroke	n	n/a
189.4075	0.15	378815	keystroke	e	n/a
189.8425	0.105	379685	keystroke	Key.enter	n/a
189.9525	10.8265	379905	prompt	n/a	beyond hamilton supplier creatures\n
191.3425	0.27	382685	keystroke	b	n/a
191.8225	0.12	383645	keystroke	e	n/a
191.9275	0.09	383855	keystroke	y	n/a
192.3025	0.195	384605	keystroke	o	n/a
192.3925	0.165	384785	keystroke	n	n/a
192.6475	0.105	385295	keystroke	d	n/a
192.8275	0.135	385655	keystroke	Key.space	n/a
193.8775	0.105	387755	keystroke	h	n/a
194.0875	0.135	388175	keystroke	a	n/a
194.5075	0.075	389015	keystroke	m	n/a
194.7325	0.15	389465	keystroke	i	n/a
194.9125	0.165	389825	keystroke	l	n/a
195.3175	0.135	390635	keystroke	t	n/a
195.4375	0.21	390875	keystroke	o	n/a
195.6025	0.12	391205	keystroke	n	n/a
195.9625	0.1195	391925	keystroke	Key.space	n/a
196.488	0.134	392976	keystroke	s	n/a
196.607	0.105	393214	keystroke	u	n/a
196.832	0.09	393664	keystroke	p	n/a
196.997	0.21	393994	keystroke	p	n/a
197.297	0.435	394594	keystroke	l	n/a
197.852	0.015	395704	keystroke	i	n/a
197.882	0.09	395764	keystroke	e	n/a
197.957	0.135	395914	keystroke	r	n/a
198.122	0.12	396244	keystroke	Key.space	n/a
198.527	0.06	397054	keystroke	c	n/a
198.707	0.3605	397414	keystroke	r	n/a
198.827	0.285	397654	keystroke	e	n/a
199.037	0.135	398074	keystroke	a	n/a
199.382	0.165	398764	keystroke	t	n/a
199.727	0.135	399454	keystroke	u	n/a
199.952	0.21	399904	keystroke	r	n/a
200.057	0.285	400114	keystroke	e	n/a
200.207	0.21	400414	keystroke	s	n/a
200.672	0.105	401344	keystroke	Key.enter	n/a
200.7815	13.5125	401563	prompt	n/a	merge promised twelve pipes\n
202.607	0.105	405214	keystroke	m	n/a
202.877	0.135	405754	keystroke	e	n/a
202.967	0.12	405934	keystroke	r	n/a
203.267	0.18	406534	keystroke	g	n/a
203.462	0.18	406924	keystroke	e	n/a
203.777	0.045	407554	keystroke	Key.space	n/a
205.637	0.06	411274	keystroke	p	n/a
205.907	0.18	411814	keystroke	r	n/a
206.1625	0.2105	412325	keystroke	o	n/a
206.2675	0.1355	412535	keystroke	m	n/a
206.627	0.12	413254	keystroke	i	n/a
206.762	0.21	413524	keystroke	s	n/a
206.912	0.165	413824	keystroke	e	n/a
207.257	0.06	414514	keystroke	d	n/a
208.037	0.09	416074	keystroke	Key.space	n/a
208.682	0.09	417364	keystroke	t	n/a
209.102	0.12	418204	keystroke	w	n/a
209.342	0.165	418684	keystroke	e	n/a
209.537	0.135	419074	keystroke	l	n/a
209.687	0.105	419374	keystroke	e	n/a
210.182	0.2105	420364	keystroke	v	n/a
210.332	0.1655	420664	keystroke	e	n/a
210.8425	0.105	421685	keystroke	Key.space	n/a
211.4575	0.15	422915	keystroke	p	n/a
211.5775	0.255	423155	keystroke	i	n/a
211.7875	0.105	423575	keystroke	p	n/a
211.9075	0.075	423815	keystroke	i	n/a
213.1675	0.075	426335	keystroke	Key.backspace	n/a
213.3475	0.15	426695	keystroke	e	n/a
213.5725	0.165	427145	keystroke	s	n/a
214.2325	0.06	428465	keystroke	Key.enter	n/a
214.297	16.542	428594	prompt	n/a	we'd keep waterproof cartridges\n
215.3275	0.195	430655	keystroke	w	n/a
215.4325	0.15	430865	keystroke	e	n/a
215.8825	0.135	431765	keystroke	'	n/a
216.1825	0.15	432365	keystroke	d	n/a
216.4225	0.12	432845	keystroke	Key.space	n/a
217.3075	0.09	434615	keystroke	k	n/a
217.4875	0.165	434975	keystroke	e	n/a
218.0725	0.045	436145	keystroke	e	n/a
218.2225	0.09	436445	keystroke	p	n/a
218.4775	0.09	436955	keystroke	Key.space	n/a
219.1675	0.075	438335	keystroke	w	n/a
219.3325	0.15	438665	keystroke	a	n/a
219.4675	0.12	438935	keystroke	t	n/a
219.7525	0.135	439505	keystroke	e	n/a
219.8125	0.225	439625	keystroke	r	n/a
220.8175	0.06	441635	keystroke	p	n/a
221.1775	0.195	442355	keystroke	r	n/a
221.3875	0.135	442775	keystroke	o	n/a
221.6875	0.105	443375	keystroke	f	n/a
222.7375	0.09	445475	keystroke	Key.backspace	n/a
223.1575	0.09	446315	keystroke	o	n/a
223.3075	0.135	446615	keystroke	f	n/a
223.6075	0.105	447215	keystroke	Key.space	n/a
224.3725	0.105	448745	keystroke	c	n/a
224.7175	0.2545	449435	keystroke	a	n/a
224.8825	0.135	449765	keystroke	r	n/a
225.1075	0.165	450215	keystroke	t	n/a
228.4405	0.057	456881	keystroke	r	n/a
228.5125	0.105	457025	keystroke	i	n/a
229.2325	0.15	458465	keystroke	d	n/a
229.9375	0.18	459875	keystroke	g	n/a
230.1925	0.12	460385	keystroke	e	n/a
230.3425	0.21	460685	keystroke	s	n/a
230.7325	0.105	461465	keystroke	Key.enter	n/a
230.843	14.1565	461686	prompt	n/a	friendly tucson providing extending\n
231.9775	0.15	463955	keystroke	f	n/a
232.3075	0.105	464615	keystroke	r	n/a
232.4425	0.165	464885	keystroke	i	n/a
232.5925	0.15	465185	keystroke	e	n/a
232.7875	0.12	465575	keystroke	n	n/a
233.0125	0.21	466025	keystroke	d	n/a
233.3875	0.15	466775	keystroke	l	n/a
233.6125	0.165	467225	keystroke	y	n/a
233.7925	0.12	467585	keystroke	Key.space	n/a
234.3025	0.18	468605	keystroke	t	n/a
234.5575	0.15	469115	keystroke	u	n/a
235.6825	0.15	471365	keystroke	c	n/a
237.0925	0.12	474185	keystroke	s	n/a
237.2425	0.105	474485	keystroke	o	n/a
237.9325	0.135	475865	keystroke	n	n/a
238.263	0.09	476526	keystroke	Key.space	n/a
238.698	0.075	477396	keystroke	p	n/a
238.863	0.165	477726	keystroke	r	n/a
239.013	0.105	478026	keystroke	o	n/a
239.598	0.09	479196	keystroke	v	n/a
240.363	0.12	480726	keystroke	i	n/a
240.633	0.135	481266	keystroke	d	n/a
240.753	0.165	481506	keystroke	i	n/a
240.828	0.135	481656	keystroke	n	n/a
241.098	0.21	482196	keystroke	g	n/a
241.458	0.105	482916	keystroke	Key.space	n/a
241.923	0.15	483846	keystroke	e	n/a
242.223	0.135	484446	keystroke	x	n/a
242.943	0.135	485886	keystroke	t	n/a
243.483	0.105	486966	keystroke	e	n/a
243.708	0.15	487416	keystroke	n	n/a
243.873	0.12	487746	keystroke	d	n/a
244.038	0.195	488076	keystroke	i	n/a
244.128	0.165	488256	keystroke	n	n/a
244.233	0.18	488466	keystroke	g	n/a
244.803	0.195	489606	keystroke	Key.enter	n/a
245.0035	6.746	490007	prompt	n/a	techno spot gave mentor\n
246.183	0.09	492366	keystroke	t	n/a
246.378	0.09	492756	keystroke	e	n/a
246.753	0.135	493506	keystroke	c	n/a
246.963	0.21	493926	keystroke	h	n/a
247.188	0.18	494376	keystroke	o	n/a
247.458	0.09	494916	keystroke	Key.space	n/a
248.043	0.15	496086	keystroke	s	n/a
248.178	0.135	496356	keystroke	p	n/a
248.298	0.15	496596	keystroke	o	n/a
248.568	0.135	497136	keystroke	t	n/a
248.793	0.06	497586	keystroke	Key.space	n/a
249.048	0.18	498096	keystroke	g	n/a
249.243	0.15	498486	keystroke	a	n/a
249.468	0.27	498936	keystroke	v	n/a
249.723	0.165	499446	keystroke	e	n/a
249.948	0.105	499896	keystroke	Key.space	n/a
250.413	0.12	500826	keystroke	m	n/a
250.563	0.18	501126	keystroke	e	n/a
250.758	0.1805	501516	keystroke	n	n/a
250.9535	0.165	501907	keystroke	t	n/a
251.193	0.315	502386	keystroke	o	n/a
251.523	0.195	503046	keystroke	r	n/a
251.733	0.015	503466	keystroke	Key.enter	n/a
251.752	12.3725	503504	prompt	n/a	rolling defence indonesian already\n
252.618	0.15	505236	keystroke	r	n/a
252.783	0.165	505566	keystroke	o	n/a
253.533	0.09	507066	keystroke	l	n/a
253.728	0.075	507456	keystroke	l	n/a
253.878	0.075	507756	keystroke	l	n/a
254.163	0.15	508326	keystroke	i	n/a
254.253	0.135	508506	keystroke	n	n/a
254.493	0.18	508986	keystroke	g	n/a
254.688	0.09	509376	keystroke	Key.space	n/a
255.333	0.12	510666	keystroke	d	n/a
255.798	0.15	511596	keystroke	e	n/a
256.248	0.1655	512496	keystroke	f	n/a
256.3835	0.18	512767	keystroke	e	n/a
256.6085	0.15	513217	keystroke	n	n/a
256.8635	0.135	513727	keystroke	c	n/a
257.0885	0.165	514177	keystroke	e	n/a
257.2685	0.12	514537	keystroke	Key.space	n/a
257.5385	0.21	515077	keystroke	i	n/a
257.6885	0.18	515377	keystroke	n	n/a
258.3185	0.09	516637	keystroke	d	n/a
258.5735	0.12	517147	keystroke	o	n/a
259.668	0.15	519336	keystroke	e	n/a
260.898	0.135	521796	keystroke	s	n/a
261.633	0.12	523266	keystroke	i	n/a
261.873	0.15	523746	keystroke	a	n/a
262.008	0.135	524016	keystroke	n	n/a
262.248	0.105	524496	keystroke	Key.space	n/a
262.593	0.135	525186	keystroke	a	n/a
262.683	0.135	525366	keystroke	l	n/a
263.178	0.18	526356	keystroke	r	n/a
263.313	0.195	526626	keystroke	a	n/a
263.553	0.18	527106	keystroke	d	n/a
263.688	0.15	527376	keystroke	y	n/a
264.003	0.12	528006	keystroke	Key.enter	n/a
264.128	11.7415	528256	prompt	n/a	shape translated metallica logo\n
265.023	0.135	530046	keystroke	s	n/a
265.128	0.12	530256	keystroke	h	n/a
265.368	0.15	530736	keystroke	a	n/a
265.518	0.12	531036	keystroke	p	n/a
265.668	0.18	531336	keystroke	e	n/a
265.983	0.09	531966	keystroke	Key.space	n/a
266.418	0.165	532836	keystroke	t	n/a
266.733	0.27	533466	keystroke	r	n/a
267.018	0.225	534036	keystroke	e	n/a
268.488	0.105	536976	keystroke	Key.backspace	n/a
268.758	0.12	537516	keystroke	a	n/a
268.968	0.09	537936	keystroke	n	n/a
269.163	0.105	538326	keystroke	s	n/a
269.493	0.21	538986	keystroke	l	n/a
269.7925	0.225	539585	keystroke	a	n/a
269.8675	0.21	539735	keystroke	t	n/a
270.0925	0.015	540185	keystroke	e	n/a
270.1825	0.195	540365	keystroke	d	n/a
270.4525	0.045	540905	keystroke	Key.space	n/a
271.0525	0.106	542105	keystroke	m	n/a
271.5175	0.105	543035	keystroke	e	n/a
271.6825	0.15	543365	keystroke	t	n/a
271.8475	0.165	543695	keystroke	a	n/a
272.1475	0.12	544295	keystroke	l	n/a
272.8375	0.105	545675	keystroke	l	n/a
273.0625	0.09	546125	keystroke	i	n/a
273.6175	0.2105	547235	keystroke	c	n/a
273.783	0.135	547566	keystroke	a	n/a
274.0525	0.105	548105	keystroke	Key.space	n/a
274.638	0.09	549276	keystroke	l	n/a
274.908	0.105	549816	keystroke	o	n/a
275.343	0.33	550686	keystroke	g	n/a
275.688	0.015	551376	keystroke	o	n/a
275.718	0.15	551436	keystroke	Key.enter	n/a
275.8735	8.021	551747	prompt	n/a	visa troy combine herein\n
277.143	0.09	554286	keystroke	v	n/a
277.458	0.06	554916	keystroke	i	n/a
277.683	0.24	555366	keystroke	s	n/a
277.848	0.15	555696	keystroke	a	n/a
278.013	0.135	556026	keystroke	Key.space	n/a
278.433	0.105	556866	keystroke	t	n/a
279.018	0.09	558036	keystroke	r	n/a
279.093	0.105	558186	keystroke	o	n/a
279.318	0.18	558636	keystroke	y	n/a
279.588	0.045	559176	keystroke	Key.space	n/a
279.9175	0.36	559835	keystroke	c	n/a
280.2025	0.105	560405	keystroke	o	n/a
280.2925	0.03	560585	keystroke	m	n/a
280.9075	0.105	561815	keystroke	b	n/a
281.0575	0.06	562115	keystroke	i	n/a
281.0725	0.15	562145	keystroke	n	n/a
281.3575	0.09	562715	keystroke	e	n/a
281.5375	0.12	563075	keystroke	Key.space	n/a
282.7375	0.135	565475	keystroke	h	n/a
282.9625	0.195	565925	keystroke	e	n/a
283.0825	0.165	566165	keystroke	r	n/a
283.3075	0.225	566615	keystroke	i	n/a
283.3675	0.21	566735	keystroke	n	n/a
283.7875	0.105	567575	keystroke	Key.enter	n/a
283.8965	8.938	567793	prompt	n/a	nuclear networks arabic furthermore\n
284.7925	0.12	569585	keystroke	n	n/a
285.048	0.12	570096	keystroke	u	n/a
285.378	0.12	570756	keystroke	c	n/a
285.499	0.0585	570998	keystroke	l	n/a
285.648	0.255	571296	keystroke	e	n/a
285.768	0.225	571536	keystroke	a	n/a
285.948	0.18	571896	keystroke	r	n/a
286.143	0.105	572286	keystroke	Key.space	n/a
286.383	0.12	572766	keystroke	n	n/a
286.833	0.135	573666	keystroke	e	n/a
287.088	0.105	574176	keystroke	t	n/a
287.433	0.12	574866	keystroke	w	n/a
287.568	0.12	575136	keystroke	o	n/a
287.703	0.15	575406	keystroke	r	n/a
287.868	0.135	575736	keystroke	k	n/a
288.018	0.165	576036	keystroke	s	n/a
288.183	0.075	576366	keystroke	Key.space	n/a
288.408	0.195	576816	keystroke	a	n/a
288.588	0.195	577176	keystroke	r	n/a
288.738	0.18	577476	keystroke	a	n/a
289.323	0.09	578646	keystroke	v	n/a
289.443	0.135	578886	keystroke	i	n/a
289.758	0.165	579516	keystroke	c	n/a
290.058	0.06	580116	keystroke	Key.space	n/a
290.658	0.18	581316	keystroke	f	n/a
290.793	0.15	581586	keystroke	u	n/a
291.063	0.135	582126	keystroke	r	n/a
291.363	0.165	582726	keystroke	t	n/a
291.483	0.15	582966	keystroke	h	n/a
291.618	0.165	583236	keystroke	e	n/a
291.708	0.15	583416	keystroke	r	n/a
291.993	0.15	583986	keystroke	m	n/a
292.128	0.18	584256	keystroke	o	n/a
292.248	0.225	584496	keystroke	r	n/a
292.353	0.21	584706	keystroke	e	n/a
292.773	0.06	585546	keystroke	Key.enter	n/a
292.837	13.0775	585674	prompt	n/a	he've criterion agent automobiles\n
293.883	0.15	587766	keystroke	h	n/a
294.048	0.21	588096	keystroke	e	n/a
294.3625	0.12	588725	keystroke	'	n/a
294.5875	0.165	589175	keystroke	v	n/a
294.8875	0.03	589775	keystroke	e	n/a
294.9325	0.105	589865	keystroke	Key.space	n/a
295.5335	0.105	591067	keystroke	c	n/a
295.6535	0.09	591307	keystroke	i	n/a
296.8835	0.075	593767	keystroke	Key.backspace	n/a
298.7735	0.18	597547	keystroke	r	n/a
299.0135	0.09	598027	keystroke	i	n/a
299.4635	0.135	598927	keystroke	t	n/a
299.6135	0.12	599227	keystroke	e	n/a
299.6585	0.1795	599317	keystroke	r	n/a
300.1975	0.151	600395	keystroke	i	n/a
300.6185	0.239	601237	keystroke	o	n/a
300.7835	0.164	601567	keystroke	n	n/a
301.0975	0.12	602195	keystroke	Key.space	n/a
301.3375	0.165	602675	keystroke	a	n/a
301.5475	0.255	603095	keystroke	g	n/a
301.8035	0.179	603607	keystroke	e	n/a
301.9525	0.15	603905	keystroke	n	n/a
302.2225	0.135	604445	keystroke	t	n/a
302.3875	0.12	604775	keystroke	Key.space	n/a
302.8975	0.105	605795	keystroke	a	n/a
303.1075	0.135	606215	keystroke	u	n/a
303.3325	0.165	606665	keystroke	t	n/a
303.4375	0.195	606875	keystroke	o	n/a
303.768	0.135	607536	keystroke	m	n/a
304.053	0.12	608106	keystroke	o	n/a
304.758	0.12	609516	keystroke	b	n/a
304.983	0.075	609966	keystroke	i	n/a
305.148	0.21	610296	keystroke	l	n/a
305.283	0.21	610566	keystroke	e	n/a
305.478	0.195	610956	keystroke	s	n/a
305.823	0.09	611646	keystroke	Key.enter	n/a
305.9175	10.107	611835	prompt	n/a	dirt installations folding increases\n
306.768	0.1495	613536	keystroke	a	n/a
306.9475	0.12	613895	keystroke	i	n/a
307.0525	0.15	614105	keystroke	r	n/a
307.2775	0.135	614555	keystroke	t	n/a
307.4575	0.12	614915	keystroke	Key.space	n/a
307.9525	0.24	615905	keystroke	i	n/a
308.0725	0.165	616145	keystroke	n	n/a
308.3125	0.195	616625	keystroke	s	n/a
308.4925	0.18	616985	keystroke	t	n/a
308.6575	0.1955	617315	keystroke	i	n/a
308.853	0.15	617706	keystroke	a	n/a
309.063	0.075	618126	keystroke	l	n/a
309.198	0.105	618396	keystroke	l	n/a
309.408	0.195	618816	keystroke	a	n/a
309.528	0.195	619056	keystroke	t	n/a
309.618	0.21	619236	keystroke	i	n/a
309.708	0.21	619416	keystroke	o	n/a
310.008	0.18	620016	keystroke	n	n/a
310.263	0.15	620526	keystroke	s	n/a
311.298	0.105	622596	keystroke	Key.space	n/a
312.123	0.135	624246	keystroke	f	n/a
312.273	0.09	624546	keystroke	o	n/a
312.678	0.12	625356	keystroke	l	n/a
312.828	0.165	625656	keystroke	d	n/a
313.098	0.24	626196	keystroke	i	n/a
313.173	0.21	626346	keystroke	n	n/a
313.278	0.15	626556	keystroke	g	n/a
313.638	0.09	627276	keystroke	Key.space	n/a
313.968	0.135	627936	keystroke	i	n/a
313.983	0.15	627966	keystroke	n	n/a
314.583	0.15	629166	keystroke	c	n/a
314.778	0.315	629556	keystroke	r	n/a
314.913	0.39	629826	keystroke	e	n/a
315.288	0.03	630576	keystroke	a	n/a
315.333	0.225	630666	keystroke	s	n/a
315.438	0.195	630876	keystroke	e	n/a
315.648	0.165	631296	keystroke	s	n/a
315.948	0.075	631896	keystroke	Key.enter	n/a
316.028	10.0915	632056	prompt	n/a	patient satin williams grams\n
316.893	0.12	633786	keystroke	p	n/a
317.508	0.165	635016	keystroke	a	n/a
318.123	0.195	636246	keystroke	t	n/a
318.348	0.195	636696	keystroke	i	n/a
318.843	0.105	637686	keystroke	t	n/a
319.008	0.135	638016	keystroke	e	n/a
319.128	0.135	638256	keystroke	n	n/a
319.278	0.135	638556	keystroke	t	n/a
319.623	0.075	639246	keystroke	Key.space	n/a
320.148	0.135	640296	keystroke	s	n/a
320.463	0.195	640926	keystroke	a	n/a
320.733	0.15	641466	keystroke	t	n/a
320.853	0.21	641706	keystroke	i	n/a
320.958	0.12	641916	keystroke	o	n/a
321.318	0.135	642636	keystroke	n	n/a
321.843	0.09	643686	keystroke	Key.space	n/a
322.563	0.18	645126	keystroke	w	n/a
322.668	0.135	645336	keystroke	i	n/a
322.983	0.075	645966	keystroke	l	n/a
323.133	0.09	646266	keystroke	l	n/a
323.463	0.12	646926	keystroke	i	n/a
323.673	0.15	647346	keystroke	a	n/a
324.108	0.135	648216	keystroke	m	n/a
324.333	0.135	648666	keystroke	s	n/a
324.663	0.105	649326	keystroke	Key.space	n/a
324.918	0.09	649836	keystroke	g	n/a
325.173	0.15	650346	keystroke	r	n/a
325.248	0.195	650496	keystroke	a	n/a
325.518	0.09	651036	keystroke	m	n/a
325.623	0.15	651246	keystroke	s	n/a
326.013	0.105	652026	keystroke	Key.enter	n/a
326.122	14.6525	652244	prompt	n/a	classes animals definitely physicians\n
327.138	0.15	654276	keystroke	c	n/a
327.408	0.075	654816	keystroke	l	n/a
327.603	0.135	655206	keystroke	a	n/a
327.858	0.105	655716	keystroke	s	n/a
328.038	0.165	656076	keystroke	s	n/a
328.248	0.15	656496	keystroke	e	n/a
328.458	0.1345	656916	keystroke	a	n/a
328.818	0.09	657636	keystroke	Key.space	n/a
329.193	0.12	658386	keystroke	a	n/a
329.298	0.12	658596	keystroke	n	n/a
329.493	0.135	658986	keystroke	i	n/a
329.673	0.18	659346	keystroke	m	n/a
330.003	0.015	660006	keystroke	a	n/a
330.123	0.105	660246	keystroke	l	n/a
330.243	0.195	660486	keystroke	s	n/a
330.528	0.045	661056	keystroke	Key.space	n/a
331.398	0.045	662796	keystroke	d	n/a
331.518	0.12	663036	keystroke	f	n/a
332.0135	0.12	664027	keystroke	Key.backspace	n/a
332.418	0.15	664836	keystroke	e	n/a
332.793	0.09	665586	keystroke	f	n/a
333.183	0.12	666366	keystroke	f	n/a
333.438	0.21	666876	keystroke	i	n/a
333.573	0.18	667146	keystroke	n	n/a
333.873	0.12	667746	keystroke	e	n/a
334.188	0.105	668376	keystroke	t	n/a
334.593	0.27	669186	keystroke	l	n/a
334.968	0.21	669936	keystroke	y	n/a
335.358	0.12	670716	keystroke	Key.space	n/a
336.423	0.225	672846	keystroke	p	n/a
336.6925	0.1055	673385	keystroke	h	n/a
337.9675	0.166	675935	keystroke	y	n/a
338.238	0.12	676476	keystroke	s	n/a
338.388	0.12	676776	keystroke	i	n/a
339.093	0.18	678186	keystroke	c	n/a
339.274	0.089	678548	keystroke	i	n/a
339.693	0.09	679386	keystroke	a	n/a
339.828	0.105	679656	keystroke	n	n/a
340.233	0.15	680466	keystroke	s	n/a
340.683	0.09	681366	keystroke	Key.enter	n/a
340.7775	11.907	681555	prompt	n/a	adds championships lives discrete\n
341.628	0.12	683256	keystroke	a	n/a
341.868	0.105	683736	keystroke	d	n/a
342.033	0.165	684066	keystroke	d	n/a
342.243	0.15	684486	keystroke	s	n/a
342.438	0.105	684876	keystroke	Key.space	n/a
342.783	0.165	685566	keystroke	c	n/a
342.933	0.12	685866	keystroke	h	n/a
343.128	0.165	686256	keystroke	a	n/a
343.263	0.15	686526	keystroke	m	n/a
343.383	0.195	686766	keystroke	p	n/a
343.683	0.21	687366	keystroke	i	n/a
344.298	0.21	688596	keystroke	o	n/a
344.523	0.18	689046	keystroke	n	n/a
345.513	0.09	691026	keystroke	s	n/a
345.618	0.09	691236	keystroke	h	n/a
345.723	0.3	691446	keystroke	i	n/a
345.933	0.195	691866	keystroke	p	n/a
346.248	0.18	692496	keystroke	s	n/a
346.833	0.075	693666	keystroke	Key.space	n/a
347.1035	0.15	694207	keystroke	l	n/a
347.2385	0.12	694477	keystroke	i	n/a
347.9885	0.135	695977	keystroke	v	n/a
348.1985	0.3	696397	keystroke	e	n/a
348.3785	0.225	696757	keystroke	s	n/a
349.0385	0.105	698077	keystroke	Key.space	n/a
349.6835	0.135	699367	keystroke	d	n/a
349.8625	0.121	699725	keystroke	i	n/a
350.0425	0.151	700085	keystroke	s	n/a
350.5825	0.15	701165	keystroke	c	n/a
351.2725	0.18	702545	keystroke	r	n/a
351.6325	0.18	703265	keystroke	e	n/a
351.9785	0.119	703957	keystroke	t	n/a
352.1285	0.15	704257	keystroke	e	n/a
352.5925	0.091	705185	keystroke	Key.enter	n/a
352.6885	14.306	705377	prompt	n/a	flashers sailing streaming wednesday\n
353.7325	0.271	707465	keystroke	f	n/a
354.3635	0.044	708727	keystroke	l	n/a
354.5125	0.105	709025	keystroke	a	n/a
354.7375	0.12	709475	keystroke	s	n/a
354.8425	0.15	709685	keystroke	h	n/a
355.6375	0.18	711275	keystroke	e	n/a
355.7575	0.15	711515	keystroke	r	n/a
355.9685	0.194	711937	keystroke	s	n/a
356.2075	0.12	712415	keystroke	Key.space	n/a
356.4925	0.271	712985	keystroke	s	n/a
356.7025	0.21	713405	keystroke	a	n/a
356.9275	0.105	713855	keystroke	i	n/a
357.0475	0.195	714095	keystroke	l	n/a
357.4075	0.24	714815	keystroke	i	n/a
357.4975	0.195	714995	keystroke	n	n/a
357.6625	0.18	715325	keystroke	g	n/a
358.0525	0.105	716105	keystroke	Key.space	n/a
358.4575	0.15	716915	keystroke	s	n/a
358.7885	0.134	717577	keystroke	t	n/a
359.0585	0.239	718117	keystroke	r	n/a
359.1025	0.3	718205	keystroke	e	n/a
360.1225	0.12	720245	keystroke	a	n/a
360.2725	0.18	720545	keystroke	m	n/a
360.5275	0.12	721055	keystroke	s	n/a
361.2625	0.18	722525	keystroke	=	n/a
362.2225	0.105	724445	keystroke	Key.backspace	n/a
362.3725	0.075	724745	keystroke	Key.backspace	n/a
363.2875	0.12	726575	keystroke	i	n/a
363.3475	0.135	726695	keystroke	n	n/a
363.4835	0.135	726967	keystroke	g	n/a
363.8425	0.12	727685	keystroke	Key.space	n/a
364.4725	0.03	728945	keystroke	w	n/a
364.7575	0.09	729515	keystroke	e	n/a
365.0875	0.12	730175	keystroke	d	n/a
365.5225	0.195	731045	keystroke	e	n/a
365.7625	0.015	731525	keystroke	e	n/a
365.7925	0.165	731585	keystroke	s	n/a
366.2875	0.255	732575	keystroke	d	n/a
366.4075	0.15	732815	keystroke	a	n/a
366.5585	0.089	733117	keystroke	y	n/a
366.9025	0.09	733805	keystroke	Key.enter	n/a
366.997	10.8725	733994	prompt	n/a	they poet administration lead\n
367.9075	0.165	735815	keystroke	t	n/a
368.0275	0.135	736055	keystroke	h	n/a
368.2075	0.15	736415	keystroke	e	n/a
368.3275	0.18	736655	keystroke	y	n/a
368.6125	0.09	737225	keystroke	Key.space	n/a
368.8525	0.105	737705	keystroke	p	n/a
368.9425	0.165	737885	keystroke	o	n/a
369.3925	0.135	738785	keystroke	e	n/a
369.7975	0.15	739595	keystroke	t	n/a
370.4725	0.105	740945	keystroke	Key.space	n/a
370.9075	0.12	741815	keystroke	s	n/a
372.2875	0.075	744575	keystroke	Key.backspace	n/a
372.7525	0.105	745505	keystroke	a	n/a
372.9925	0.09	745985	keystroke	d	n/a
373.1725	0.12	746345	keystroke	m	n/a
373.3825	0.165	746765	keystroke	i	n/a
373.5025	0.1205	747005	keystroke	n	n/a
373.668	0.21	747336	keystroke	i	n/a
373.8325	0.1355	747665	keystroke	s	n/a
374.253	0.12	748506	keystroke	t	n/a
374.448	0.18	748896	keystroke	r	n/a
374.598	0.165	749196	keystroke	a	n/a
374.823	0.1505	749646	keystroke	t	n/a
374.9435	0.21	749887	keystroke	i	n/a
375.0185	0.195	750037	keystroke	o	n/a
375.1985	0.135	750397	keystroke	n	n/a
376.2925	0.09	752585	keystroke	Key.space	n/a
376.6985	0.105	753397	keystroke	l	n/a
376.8175	0.09	753635	keystroke	e	n/a
377.2375	0.18	754475	keystroke	a	n/a
377.4925	0.12	754985	keystroke	d	n/a
377.7625	0.105	755525	keystroke	Key.enter	n/a
377.8715	13.048	755743	prompt	n/a	exercise chad proceedings tyler\n
378.6025	0.15	757205	keystroke	e	n/a
378.9325	0.12	757865	keystroke	x	n/a
379.2325	0.27	758465	keystroke	e	n/a
379.3975	0.135	758795	keystroke	r	n/a
379.8625	0.135	759725	keystroke	c	n/a
380.0725	0.075	760145	keystroke	i	n/a
380.1925	0.285	760385	keystroke	s	n/a
380.4025	0.18	760805	keystroke	e	n/a
380.6425	0.105	761285	keystroke	Key.space	n/a
380.9275	0.1355	761855	keystroke	c	n/a
381.0475	0.105	762095	keystroke	h	n/a
381.1975	0.18	762395	keystroke	a	n/a
381.5875	0.195	763175	keystroke	d	n/a
382.0975	0.045	764195	keystroke	Key.space	n/a
382.5325	0.12	765065	keystroke	p	n/a
382.7875	0.18	765575	keystroke	r	n/a
382.9525	0.075	765905	keystroke	o	n/a
384.018	0.15	768036	keystroke	c	n/a
384.513	0.045	769026	keystroke	e	n/a
384.633	0.135	769266	keystroke	e	n/a
384.903	0.12	769806	keystroke	d	n/a
385.008	0.24	770016	keystroke	i	n/a
385.158	0.18	770316	keystroke	n	n/a
385.458	0.12	770916	keystroke	f	n/a
386.388	0.165	772776	keystroke	Key.backspace	n/a
387.408	0.09	774816	keystroke	g	n/a
388.6225	0.12	777245	keystroke	s	n/a
388.9525	0.105	777905	keystroke	Key.space	n/a
389.433	0.165	778866	keystroke	t	n/a
389.643	0.135	779286	keystroke	y	n/a
390.0475	0.0905	780095	keystroke	l	n/a
390.198	0.225	780396	keystroke	e	n/a
390.303	0.21	780606	keystroke	r	n/a
390.828	0.09	781656	keystroke	Key.enter	n/a
390.924	24.6405	781848	prompt	n/a	voyeurweb inserted rugby browsing\n
392.268	0.12	784536	keystroke	v	n/a
392.373	0.135	784746	keystroke	o	n/a
392.868	0.21	785736	keystroke	y	n/a
394.188	0.135	788376	keystroke	r	n/a
394.383	0.015	788766	keystroke	w	n/a
394.413	0.12	788826	keystroke	e	n/a
394.998	0.12	789996	keystroke	Key.backspace	n/a
395.133	0.045	790266	keystroke	Key.backspace	n/a
395.268	0.06	790536	keystroke	Key.backspace	n/a
395.448	0.075	790896	keystroke	Key.backspace	n/a
395.613	0.06	791226	keystroke	Key.backspace	n/a
395.793	0.06	791586	keystroke	Key.backspace	n/a
395.973	0.09	791946	keystroke	Key.backspace	n/a
396.543	0.105	793086	keystroke	Key.backspace	n/a
397.278	0.15	794556	keystroke	r	n/a
398.1185	0.1195	796237	keystroke	Key.backspace	n/a
399.858	0.345	799716	keystroke	u	n/a
400.233	0.105	800466	keystroke	r	n/a
400.353	0.03	800706	keystroke	w	n/a
400.413	0.18	800826	keystroke	e	n/a
401.523	0.12	803046	keystroke	b	n/a
402.018	0.12	804036	keystroke	Key.space	n/a
402.588	0.195	805176	keystroke	i	n/a
402.708	0.12	805416	keystroke	n	n/a
402.888	0.165	805776	keystroke	s	n/a
404.433	0.15	808866	keystroke	e	n/a
404.523	0.18	809046	keystroke	r	n/a
404.793	0.15	809586	keystroke	t	n/a
405.018	0.195	810036	keystroke	e	n/a
405.393	0.195	810786	keystroke	d	n/a
405.753	0.105	811506	keystroke	Key.space	n/a
406.443	0.135	812886	keystroke	r	n/a
406.578	0.21	813156	keystroke	u	n/a
406.848	0.15	813696	keystroke	b	n/a
408.4225	0.0905	816845	keystroke	Key.backspace	n/a
408.828	0.1645	817656	keystroke	g	n/a
409.218	0.135	818436	keystroke	b	n/a
409.338	0.12	818676	keystroke	y	n/a
409.803	0.105	819606	keystroke	Key.space	n/a
411.618	0.09	823236	keystroke	b	n/a
411.9775	0.15	823955	keystroke	r	n/a
412.1725	0.015	824345	keystroke	o	n/a
412.3075	0.195	824615	keystroke	w	n/a
413.988	0.135	827976	keystroke	s	n/a
414.768	0.135	829536	keystroke	i	n/a
414.888	0.03	829776	keystroke	n	n/a
414.993	0.15	829986	keystroke	g	n/a
415.413	0.15	830826	keystroke	Key.enter	n/a
415.575	15.1545	831150	prompt	n/a	type suggested nitrogen wireless\n
416.643	0.105	833286	keystroke	t	n/a
416.823	0.12	833646	keystroke	y	n/a
417.138	0.15	834276	keystroke	p	n/a
417.828	0.15	835656	keystroke	e	n/a
418.3225	0.09	836645	keystroke	Key.space	n/a
418.848	0.135	837696	keystroke	s	n/a
418.998	0.12	837996	keystroke	u	n/a
419.268	0.105	838536	keystroke	g	n/a
419.448	0.135	838896	keystroke	g	n/a
419.673	0.105	839346	keystroke	e	n/a
419.853	0.315	839706	keystroke	s	n/a
420.048	0.18	840096	keystroke	t	n/a
420.288	0.165	840576	keystroke	e	n/a
420.573	0.165	841146	keystroke	d	n/a
420.753	0.105	841506	keystroke	Key.space	n/a
421.833	0.06	843666	keystroke	n	n/a
422.148	0.105	844296	keystroke	i	n/a
422.538	0.045	845076	keystroke	t	n/a
422.703	0.12	845406	keystroke	r	n/a
422.793	0.09	845586	keystroke	o	n/a
423.258	0.135	846516	keystroke	g	n/a
423.468	0.165	846936	keystroke	e	n/a
423.573	0.12	847146	keystroke	n	n/a
423.843	0.075	847686	keystroke	Key.space	n/a
424.548	0.105	849096	keystroke	w	n/a
425.118	0.045	850236	keystroke	i	n/a
425.283	0.195	850566	keystroke	r	n/a
425.358	0.18	850716	keystroke	e	n/a
425.688	0.12	851376	keystroke	l	n/a
425.838	0.165	851676	keystroke	e	n/a
425.883	0.03	851766	keystroke	i	n/a
426.933	0.09	853866	keystroke	Key.backspace	n/a
427.968	0.105	855936	keystroke	s	n/a
428.103	0.135	856206	keystroke	s	n/a
428.328	0.03	856656	keystroke	s	n/a
428.898	0.09	857796	keystroke	Key.backspace	n/a
429.078	0.09	858156	keystroke	Key.backspace	n/a
429.753	0.135	859506	keystroke	s	n/a
430.488	0.24	860976	keystroke	Key.enter	n/a
430.737	15.9375	861474	prompt	n/a	poverty demonstration outreach accredited\n
431.868	0.075	863736	keystroke	p	n/a
432.693	0.09	865386	keystroke	o	n/a
433.098	0.165	866196	keystroke	v	n/a
433.353	0.165	866706	keystroke	e	n/a
433.413	0.135	866826	keystroke	r	n/a
433.668	0.165	867336	keystroke	t	n/a
433.938	0.15	867876	keystroke	y	n/a
434.238	0.075	868476	keystroke	Key.space	n/a
434.808	0.135	869616	keystroke	d	n/a
435.153	0.135	870306	keystroke	e	n/a
435.603	0.135	871206	keystroke	m	n/a
436.503	0.195	873006	keystroke	o	n/a
436.608	0.15	873216	keystroke	n	n/a
437.058	0.15	874116	keystroke	s	n/a
437.478	0.015	874956	keystroke	t	n/a
437.793	0.06	875586	keystroke	r	n/a
437.868	0.12	875736	keystroke	a	n/a
438.213	0.06	876426	keystroke	t	n/a
438.258	0.15	876516	keystroke	i	n/a
438.348	0.105	876696	keystroke	o	n/a
438.498	0.135	876996	keystroke	n	n/a
438.723	0.195	877446	keystroke	Key.space	n/a
439.008	0.24	878016	keystroke	o	n/a
439.068	0.21	878136	keystroke	u	n/a
439.263	0.135	878526	keystroke	t	n/a
439.9225	0.24	879845	keystroke	r	n/a
440.2825	0.165	880565	keystroke	e	n/a
440.5825	0.015	881165	keystroke	a	n/a
440.6125	0.21	881225	keystroke	s	n/a
441.513	0.165	883026	keystroke	Key.backspace	n/a
441.7385	0.0895	883477	keystroke	c	n/a
441.888	0.1945	883776	keystroke	h	n/a
442.368	0.09	884736	keystroke	Key.space	n/a
442.893	0.345	885786	keystroke	a	n/a
443.268	0.06	886536	keystroke	c	n/a
443.418	0.135	886836	keystroke	c	n/a
443.958	0.24	887916	keystroke	r	n/a
444.123	0.195	888246	keystroke	e	n/a
445.008	0.135	890016	keystroke	d	n/a
445.218	0.135	890436	keystroke	i	n/a
445.563	0.15	891126	keystroke	t	n/a
445.7875	0.15	891575	keystroke	e	n/a
446.0575	0.21	892115	keystroke	d	n/a
446.4925	0.18	892985	keystroke	Key.enter	n/a
446.677	14.9675	893354	prompt	n/a	illustrated officer essentially artistic\n
447.3925	0.09	894785	keystroke	i	n/a
448.1875	0.03	896375	keystroke	l	n/a
448.2625	0.15	896525	keystroke	l	n/a
448.4875	0.165	896975	keystroke	u	n/a
450.7555	0.072	901511	keystroke	s	n/a
451.3075	0.135	902615	keystroke	t	n/a
451.5625	0.18	903125	keystroke	r	n/a
451.6975	0.18	903395	keystroke	a	n/a
452.103	0.195	904206	keystroke	t	n/a
452.313	0.15	904626	keystroke	e	n/a
452.613	0.135	905226	keystroke	d	n/a
452.913	0.075	905826	keystroke	Key.space	n/a
453.123	0.075	906246	keystroke	o	n/a
453.558	0.015	907116	keystroke	f	n/a
453.648	0.015	907296	keystroke	f	n/a
454.353	0.09	908706	keystroke	i	n/a
454.533	0.12	909066	keystroke	c	n/a
454.803	0.165	909606	keystroke	e	n/a
454.893	0.15	909786	keystroke	r	n/a
455.103	0.09	910206	keystroke	Key.space	n/a
455.613	0.135	911226	keystroke	e	n/a
455.943	0.09	911886	keystroke	s	n/a
456.123	0.06	912246	keystroke	s	n/a
456.348	0.09	912696	keystroke	e	n/a
456.453	0.195	912906	keystroke	n	n/a
457.008	0.06	914016	keystroke	t	n/a
457.083	0.045	914166	keystroke	i	n/a
457.173	0.165	914346	keystroke	a	n/a
457.383	0.045	914766	keystroke	l	n/a
457.473	0.15	914946	keystroke	l	n/a
457.668	0.195	915336	keystroke	y	n/a
457.848	0.105	915696	keystroke	Key.space	n/a
458.118	0.18	916236	keystroke	a	n/a
458.313	0.21	916626	keystroke	e	n/a
458.568	0.105	917136	keystroke	r	n/a
460.143	0.03	920286	keystroke	t	n/a
460.413	0.06	920826	keystroke	i	n/a
460.548	0.21	921096	keystroke	s	n/a
460.893	0.18	921786	keystroke	t	n/a
461.013	0.12	922026	keystroke	i	n/a
461.283	0.15	922566	keystroke	c	n/a
461.538	0.105	923076	keystroke	Key.enter	n/a
461.651	16.7035	923302	prompt	n/a	invalid advocate cassette restricted\n
462.573	0.21	925146	keystroke	i	n/a
462.753	0.15	925506	keystroke	n	n/a
463.428	0.225	926856	keystroke	v	n/a
463.638	0.225	927276	keystroke	a	n/a
463.848	0.075	927696	keystroke	i	n/a
463.968	0.18	927936	keystroke	l	n/a
464.403	0.135	928806	keystroke	d	n/a
464.733	0.225	929466	keystroke	Key.space	n/a
466.383	0.15	932766	keystroke	a	n/a
466.593	0.165	933186	keystroke	a	n/a
466.968	0.045	933936	keystroke	d	n/a
468.288	0.135	936576	keystroke	v	n/a
468.438	0.09	936876	keystroke	o	n/a
468.918	0.105	937836	keystroke	c	n/a
469.218	0.075	938436	keystroke	a	n/a
469.413	0.21	938826	keystroke	t	n/a
469.608	0.12	939216	keystroke	e	n/a
469.848	0.105	939696	keystroke	Key.space	n/a
470.448	0.195	940896	keystroke	c	n/a
470.703	0.15	941406	keystroke	a	n/a
471.153	0.12	942306	keystroke	d	n/a
471.303	0.135	942606	keystroke	d	n/a
472.428	0.255	944856	keystroke	Key.backspace	n/a
472.788	0.09	945576	keystroke	Key.backspace	n/a
473.133	0.18	946266	keystroke	s	n/a
473.328	0.015	946656	keystroke	s	n/a
473.628	0.15	947256	keystroke	e	n/a
473.898	0.09	947796	keystroke	t	n/a
474.093	0.09	948186	keystroke	t	n/a
474.303	0.15	948606	keystroke	e	n/a
474.528	0.09	949056	keystroke	Key.space	n/a
475.053	0.21	950106	keystroke	r	n/a
475.188	0.165	950376	keystroke	e	n/a
475.488	0.075	950976	keystroke	s	n/a
475.833	0.12	951666	keystroke	t	n/a
476.103	0.135	952206	keystroke	r	n/a
476.328	0.165	952656	keystroke	i	n/a
476.808	0.12	953616	keystroke	c	n/a
477.078	0.1205	954156	keystroke	t	n/a
477.2135	0.15	954427	keystroke	e	n/a
477.4535	0.195	954907	keystroke	d	n/a
477.9335	0.075	955867	keystroke	Key.space	n/a
478.2635	0.09	956527	keystroke	Key.enter	n/a
478.357	15.9125	956714	prompt	n/a	scottish manually jury fixtures\n
479.4185	0.375	958837	keystroke	s	n/a
479.9435	0.06	959887	keystroke	o	n/a
481.1585	0.03	962317	keystroke	Key.backspace	n/a
482.6435	0.135	965287	keystroke	c	n/a
485.193	0.045	970386	keystroke	t	n/a
485.253	0.015	970506	keystroke	t	n/a
485.418	0.015	970836	keystroke	i	n/a
485.478	0.045	970956	keystroke	s	n/a
485.553	0.015	971106	keystroke	h	n/a
486.1535	0.195	972307	keystroke	Key.space	n/a
486.7235	0.135	973447	keystroke	m	n/a
486.8735	0.15	973747	keystroke	a	n/a
487.0085	0.18	974017	keystroke	n	n/a
487.3235	0.165	974647	keystroke	u	n/a
487.5785	0.105	975157	keystroke	a	n/a
487.7585	0.015	975517	keystroke	l	n/a
487.8325	0.135	975665	keystroke	l	n/a
488.0435	0.18	976087	keystroke	y	n/a
488.1935	0.3	976387	keystroke	Key.space	n/a
488.8985	0.119	977797	keystroke	j	n/a
489.1085	0.165	978217	keystroke	u	n/a
489.453	0.21	978906	keystroke	r	n/a
489.753	0.12	979506	keystroke	y	n/a
489.828	0.15	979656	keystroke	Key.space	n/a
490.878	0.12	981756	keystroke	f	n/a
491.028	0.06	982056	keystroke	i	n/a
491.2985	0.1945	982597	keystroke	x	n/a
492.5585	0.1045	985117	keystroke	t	n/a
492.678	0.18	985356	keystroke	u	n/a
492.9035	0.195	985807	keystroke	r	n/a
492.9935	0.21	985987	keystroke	e	n/a
493.3085	0.15	986617	keystroke	s	n/a
494.0885	0.179	988177	keystroke	Key.enter	n/a
494.272	13.0775	988544	prompt	n/a	spare isolation tune negotiation\n
495.123	0.12	990246	keystroke	s	n/a
495.244	0.134	990488	keystroke	p	n/a
495.393	0.135	990786	keystroke	a	n/a
495.708	0.27	991416	keystroke	r	n/a
495.858	0.195	991716	keystroke	e	n/a
496.068	0.105	992136	keystroke	Key.space	n/a
496.593	0.15	993186	keystroke	i	n/a
496.923	0.135	993846	keystroke	s	n/a
497.043	0.12	994086	keystroke	o	n/a
497.493	0.18	994986	keystroke	l	n/a
497.674	0.149	995348	keystroke	a	n/a
497.913	0.18	995826	keystroke	t	n/a
498.018	0.18	996036	keystroke	i	n/a
498.078	0.21	996156	keystroke	o	n/a
498.303	0.135	996606	keystroke	n	n/a
498.513	0.1195	997026	keystroke	Key.space	n/a
498.8125	0.211	997625	keystroke	t	n/a
498.9325	0.21	997865	keystroke	u	n/a
499.2175	0.12	998435	keystroke	n	n/a
499.3975	0.045	998795	keystroke	e	n/a
499.5625	0.09	999125	keystroke	Key.space	n/a
500.193	0.255	1000386	keystroke	n	n/a
500.688	0.15	1001376	keystroke	e	n/a
500.928	0.135	1001856	keystroke	g	n/a
501.078	0.135	1002156	keystroke	o	n/a
501.333	0.12	1002666	keystroke	t	n/a
501.408	0.33	1002816	keystroke	i	n/a
501.528	0.225	1003056	keystroke	o	n/a
503.871	0.117	1007742	keystroke	Key.backspace	n/a
505.713	0.105	1011426	keystroke	a	n/a
505.893	0.1655	1011786	keystroke	t	n/a
505.998	0.21	1011996	keystroke	i	n/a
506.103	0.209	1012206	keystroke	o	n/a
506.327	0.091	1012654	keystroke	n	n/a
506.478	0.134	1012956	keystroke	s	n/a
507.123	0.224	1014246	keystroke	Key.enter	n/a
507.353	9.2515	1014706	prompt	n/a	imaging sheep genetic babies\n
508.173	0.135	1016346	keystroke	i	n/a
508.398	0.135	1016796	keystroke	m	n/a
508.593	0.255	1017186	keystroke	a	n/a
508.863	0.135	1017726	keystroke	g	n/a
509.103	0.195	1018206	keystroke	i	n/a
509.238	0.105	1018476	keystroke	n	n/a
509.358	0.225	1018716	keystroke	g	n/a
509.688	0.09	1019376	keystroke	Key.space	n/a
510.168	0.105	1020336	keystroke	s	n/a
510.258	0.27	1020516	keystroke	h	n/a
510.618	0.06	1021236	keystroke	e	n/a
510.768	0.09	1021536	keystroke	e	n/a
511.098	0.09	1022196	keystroke	p	n/a
511.383	0.105	1022766	keystroke	Key.space	n/a
511.983	0.15	1023966	keystroke	g	n/a
512.193	0.12	1024386	keystroke	n	n/a
512.808	0.15	1025616	keystroke	Key.backspace	n/a
513.138	0.12	1026276	keystroke	e	n/a
513.243	0.18	1026486	keystroke	n	n/a
513.693	0.06	1027386	keystroke	e	n/a
514.083	0.225	1028166	keystroke	t	n/a
514.248	0.075	1028496	keystroke	i	n/a
514.473	0.15	1028946	keystroke	c	n/a
514.668	0.12	1029336	keystroke	Key.space	n/a
515.058	0.165	1030116	keystroke	b	n/a
515.313	0.089	1030626	keystroke	a	n/a
515.418	0.18	1030836	keystroke	b	n/a
515.793	0.165	1031586	keystroke	i	n/a
515.943	0.165	1031886	keystroke	e	n/a
516.168	0.165	1032336	keystroke	s	n/a
516.527	0.076	1033054	keystroke	Key.enter	n/a
516.607	14.4875	1033214	prompt	n/a	admissions cornwall symantec about\n
517.7575	0.151	1035515	keystroke	a	n/a
518.043	0.15	1036086	keystroke	d	n/a
518.358	0.15	1036716	keystroke	m	n/a
518.553	0.15	1037106	keystroke	i	n/a
518.883	0.075	1037766	keystroke	s	n/a
519.033	0.12	1038066	keystroke	s	n/a
519.228	0.285	1038456	keystroke	i	n/a
519.363	0.195	1038726	keystroke	o	n/a
519.618	0.15	1039236	keystroke	n	n/a
520.008	0.105	1040016	keystroke	Key.space	n/a
520.728	0.1195	1041456	keystroke	c	n/a
520.9375	0.06	1041875	keystroke	o	n/a
521.148	0.195	1042296	keystroke	r	n/a
521.283	0.1495	1042566	keystroke	n	n/a
522.258	0.12	1044516	keystroke	w	n/a
522.993	0.09	1045986	keystroke	a	n/a
523.353	0.015	1046706	keystroke	l	n/a
523.428	0.105	1046856	keystroke	l	n/a
523.9375	0.121	1047875	keystroke	Key.space	n/a
524.3285	0.195	1048657	keystroke	s	n/a
524.5385	0.12	1049077	keystroke	y	n/a
524.853	0.105	1049706	keystroke	m	n/a
524.973	0.15	1049946	keystroke	a	n/a
526.098	0.135	1052196	keystroke	n	n/a
526.653	0.21	1053306	keystroke	t	n/a
526.878	0.105	1053756	keystroke	i	n/a
527.643	0.075	1055286	keystroke	Key.backspace	n/a
527.853	0.12	1055706	keystroke	e	n/a
528.123	0.18	1056246	keystroke	c	n/a
528.393	0.105	1056786	keystroke	Key.space	n/a
530.208	0.015	1060416	keystroke	a	n/a
530.253	0.165	1060506	keystroke	b	n/a
530.388	0.225	1060776	keystroke	o	n/a
530.478	0.27	1060956	keystroke	u	n/a
530.643	0.12	1061286	keystroke	t	n/a
530.943	0.15	1061886	keystroke	Key.enter	n/a
531.0965	10.558	1062193	prompt	n/a	mint commitments radios servers\n
531.843	0.135	1063686	keystroke	m	n/a
532.083	0.15	1064166	keystroke	i	n/a
532.143	0.15	1064286	keystroke	n	n/a
532.668	0.165	1065336	keystroke	t	n/a
533.103	0.165	1066206	keystroke	Key.space	n/a
533.613	0.315	1067226	keystroke	c	n/a
533.688	0.255	1067376	keystroke	o	n/a
534.108	0.105	1068216	keystroke	m	n/a
534.258	0.045	1068516	keystroke	m	n/a
534.648	0.12	1069296	keystroke	i	n/a
534.753	0.12	1069506	keystroke	n	n/a
535.0535	0.135	1070107	keystroke	t	n/a
535.5035	0.225	1071007	keystroke	m	n/a
535.7735	0.104	1071547	keystroke	e	n/a
535.9375	0.061	1071875	keystroke	n	n/a
535.9835	0.0595	1071967	keystroke	t	n/a
536.133	0.165	1072266	keystroke	s	n/a
536.358	0.09	1072716	keystroke	Key.space	n/a
536.688	0.165	1073376	keystroke	r	n/a
536.853	0.21	1073706	keystroke	a	n/a
537.243	0.105	1074486	keystroke	d	n/a
537.363	0.165	1074726	keystroke	i	n/a
537.588	0.18	1075176	keystroke	o	n/a
537.783	0.18	1075566	keystroke	s	n/a
538.068	0.105	1076136	keystroke	Key.space	n/a
538.518	0.165	1077036	keystroke	s	n/a
538.653	0.21	1077306	keystroke	e	n/a
538.803	0.18	1077606	keystroke	r	n/a
539.163	0.045	1078326	keystroke	v	n/a
539.358	0.135	1078716	keystroke	e	n/a
539.598	0.12	1079196	keystroke	e	n/a
539.673	0.15	1079346	keystroke	r	n/a
540.273	0.075	1080546	keystroke	Key.backspace	n/a
540.813	0.18	1081626	keystroke	Key.backspace	n/a
541.053	0.135	1082106	keystroke	r	n/a
541.278	0.135	1082556	keystroke	s	n/a
541.548	0.105	1083096	keystroke	Key.enter	n/a
541.6565	12.718	1083313	prompt	n/a	computation billy families junction\n
542.628	0.15	1085256	keystroke	c	n/a
542.748	0.3	1085496	keystroke	o	n/a
542.898	0.135	1085796	keystroke	m	n/a
543.678	0.12	1087356	keystroke	p	n/a
543.843	0.165	1087686	keystroke	u	n/a
544.188	0.15	1088376	keystroke	t	n/a
544.428	0.105	1088856	keystroke	a	n/a
544.578	0.165	1089156	keystroke	t	n/a
544.683	0.21	1089366	keystroke	i	n/a
544.788	0.15	1089576	keystroke	o	n/a
544.968	0.135	1089936	keystroke	n	n/a
545.418	0.105	1090836	keystroke	Key.space	n/a
546.1085	0.1195	1092217	keystroke	b	n/a
546.273	0.12	1092546	keystroke	u	n/a
547.5485	0.105	1095097	keystroke	Key.backspace	n/a
547.9085	0.18	1095817	keystroke	i	n/a
548.1785	0.09	1096357	keystroke	l	n/a
548.3135	0.15	1096627	keystroke	l	n/a
548.8835	0.09	1097767	keystroke	y	n/a
549.1535	0.075	1098307	keystroke	Key.space	n/a
550.1285	0.18	1100257	keystroke	f	n/a
550.2485	0.15	1100497	keystroke	a	n/a
550.4435	0.09	1100887	keystroke	m	n/a
550.6835	0.1045	1101367	keystroke	i	n/a
551.3585	0.09	1102717	keystroke	l	n/a
551.5535	0.059	1103107	keystroke	l	n/a
551.7185	0.09	1103437	keystroke	i	n/a
551.8535	0.21	1103707	keystroke	e	n/a
552.0785	0.09	1104157	keystroke	s	n/a
552.1685	0.134	1104337	keystroke	Key.space	n/a
552.3325	0.136	1104665	keystroke	j	n/a
552.5275	0.151	1105055	keystroke	u	n/a
552.9175	0.165	1105835	keystroke	m	n/a
553.2625	0.136	1106525	keystroke	c	n/a
553.5325	0.181	1107065	keystroke	t	n/a
553.5785	0.27	1107157	keystroke	i	n/a
553.7275	0.256	1107455	keystroke	o	n/a
553.9235	0.105	1107847	keystroke	n	n/a
554.2825	0.09	1108565	keystroke	Key.enter	n/a
554.3785	7.811	1108757	prompt	n/a	marion arms escorts voters\n
555.4835	0.149	1110967	keystroke	m	n/a
555.7825	0.18	1111565	keystroke	a	n/a
555.8875	0.181	1111775	keystroke	r	n/a
556.0825	0.136	1112165	keystroke	i	n/a
556.3375	0.27	1112675	keystroke	o	n/a
556.5175	0.165	1113035	keystroke	n	n/a
556.7875	0.105	1113575	keystroke	Key.space	n/a
556.9825	0.195	1113965	keystroke	a	n/a
557.1025	0.165	1114205	keystroke	r	n/a
557.2825	0.12	1114565	keystroke	m	n/a
557.4325	0.165	1114865	keystroke	s	n/a
557.6125	0.09	1115225	keystroke	Key.space	n/a
558.4375	0.15	1116875	keystroke	e	n/a
558.6475	0.135	1117295	keystroke	s	n/a
559.1125	0.15	1118225	keystroke	c	n/a
559.278	0.0895	1118556	keystroke	o	n/a
559.4275	0.135	1118855	keystroke	r	n/a
559.6375	0.1505	1119275	keystroke	t	n/a
559.848	0.12	1119696	keystroke	s	n/a
560.043	0.075	1120086	keystroke	Key.space	n/a
560.538	0.135	1121076	keystroke	v	n/a
560.688	0.105	1121376	keystroke	o	n/a
560.943	0.135	1121886	keystroke	t	n/a
561.303	0.09	1122606	keystroke	e	n/a
561.378	0.045	1122756	keystroke	r	n/a
561.499	0.209	1122998	keystroke	s	n/a
562.143	0.045	1124286	keystroke	Key.enter	n/a
562.192	13.4675	1124384	prompt	n/a	thong font gather capital\n
563.058	0.15	1126116	keystroke	t	n/a
563.148	0.18	1126296	keystroke	h	n/a
563.343	0.09	1126686	keystroke	i	n/a
563.3585	0.2095	1126717	keystroke	o	n/a
563.523	0.12	1127046	keystroke	n	n/a
565.008	0.06	1130016	keystroke	Key.backspace	n/a
565.128	0.15	1130256	keystroke	Key.backspace	n/a
565.968	0.09	1131936	keystroke	Key.backspace	n/a
566.763	0.135	1133526	keystroke	o	n/a
566.838	0.135	1133676	keystroke	n	n/a
566.988	0.18	1133976	keystroke	g	n/a
567.363	0.1045	1134726	keystroke	Key.space	n/a
568.743	0.15	1137486	keystroke	f	n/a
568.894	0.239	1137788	keystroke	o	n/a
568.983	0.165	1137966	keystroke	n	n/a
569.208	0.135	1138416	keystroke	t	n/a
569.553	0.135	1139106	keystroke	Key.space	n/a
570.573	0.135	1141146	keystroke	g	n/a
570.813	0.105	1141626	keystroke	a	n/a
571.083	0.135	1142166	keystroke	t	n/a
571.263	0.15	1142526	keystroke	h	n/a
571.473	0.195	1142946	keystroke	e	n/a
571.563	0.195	1143126	keystroke	r	n/a
572.193	0.12	1144386	keystroke	Key.space	n/a
572.748	0.12	1145496	keystroke	c	n/a
572.913	0.12	1145826	keystroke	a	n/a
573.078	0.15	1146156	keystroke	p	n/a
574.5935	0.075	1149187	keystroke	i	n/a
574.8485	0.15	1149697	keystroke	t	n/a
575.0585	0.165	1150117	keystroke	a	n/a
575.2085	0.12	1150417	keystroke	l	n/a
575.5085	0.15	1151017	keystroke	Key.enter	n/a
575.663	13.4215	1151326	prompt	n/a	entrepreneurs oaks lesser battle\n
577.4885	0.12	1154977	keystroke	e	n/a
578.103	0.195	1156206	keystroke	n	n/a
578.403	0.165	1156806	keystroke	t	n/a
579.213	0.165	1158426	keystroke	r	n/a
579.528	0.12	1159056	keystroke	e	n/a
580.233	0.135	1160466	keystroke	p	n/a
580.758	0.105	1161516	keystroke	r	n/a
581.298	0.075	1162596	keystroke	e	n/a
582.003	0.165	1164006	keystroke	u	n/a
582.738	0.195	1165476	keystroke	e	n/a
582.948	0.045	1165896	keystroke	n	n/a
583.218	0.21	1166436	keystroke	u	n/a
583.413	0.135	1166826	keystroke	r	n/a
583.533	0.165	1167066	keystroke	e	n/a
583.818	0.21	1167636	keystroke	s	n/a
584.553	0.015	1169106	keystroke	o	n/a
584.643	0.105	1169286	keystroke	a	n/a
584.838	0.105	1169676	keystroke	k	n/a
585.063	0.15	1170126	keystroke	s	n/a
585.288	0.12	1170576	keystroke	Key.space	n/a
585.723	0.09	1171446	keystroke	l	n/a
585.888	0.195	1171776	keystroke	e	n/a
586.263	0.06	1172526	keystroke	s	n/a
586.488	0.0305	1172976	keystroke	s	n/a
586.608	0.165	1173216	keystroke	e	n/a
586.683	0.1655	1173366	keystroke	r	n/a
586.8935	0.105	1173787	keystroke	Key.space	n/a
587.2685	0.0895	1174537	keystroke	b	n/a
587.403	0.1505	1174806	keystroke	a	n/a
587.9735	0.09	1175947	keystroke	t	n/a
588.1235	0.09	1176247	keystroke	t	n/a
588.4685	0.135	1176937	keystroke	l	n/a
588.5585	0.135	1177117	keystroke	e	n/a
589.0685	0.015	1178137	keystroke	Key.enter	n/a
589.0875	20.7425	1178175	prompt	n/a	nested chips polymer you'd\n
589.983	0.105	1179966	keystroke	n	n/a
590.103	0.21	1180206	keystroke	e	n/a
590.373	0.135	1180746	keystroke	s	n/a
590.718	0.15	1181436	keystroke	t	n/a
590.913	0.15	1181826	keystroke	e	n/a
591.033	0.15	1182066	keystroke	r	n/a
592.458	0.09	1184916	keystroke	Key.backspace	n/a
594.1685	0.09	1188337	keystroke	d	n/a
594.2735	0.12	1188547	keystroke	Key.space	n/a
594.6485	0.15	1189297	keystroke	c	n/a
594.7535	0.105	1189507	keystroke	h	n/a
594.9935	0.165	1189987	keystroke	i	n/a
595.1885	0.15	1190377	keystroke	p	n/a
595.5185	0.105	1191037	keystroke	s	n/a
595.8485	0.1495	1191697	keystroke	Key.space	n/a
596.3735	0.345	1192747	keystroke	p	n/a
597.4235	0.15	1194847	keystroke	l	n/a
597.7375	0.016	1195475	keystroke	y	n/a
599.568	0.09	1199136	keystroke	Key.backspace	n/a
599.748	0.105	1199496	keystroke	Key.backspace	n/a
599.913	0.09	1199826	keystroke	Key.backspace	n/a
600.093	0.06	1200186	keystroke	Key.backspace	n/a
600.258	0.06	1200516	keystroke	Key.backspace	n/a
600.438	0.045	1200876	keystroke	Key.backspace	n/a
600.708	0.075	1201416	keystroke	Key.backspace	n/a
601.698	0.06	1203396	keystroke	Key.backspace	n/a
602.868	0.045	1205736	keystroke	l	n/a
604.653	0.09	1209306	keystroke	y	n/a
605.448	0.105	1210896	keystroke	m	n/a
606.2585	0.195	1212517	keystroke	e	n/a
606.3785	0.15	1212757	keystroke	r	n/a
606.7835	0.09	1213567	keystroke	Key.space	n/a
607.5335	0.12	1215067	keystroke	y	n/a
607.6545	0.209	1215309	keystroke	o	n/a
607.7435	0.165	1215487	keystroke	u	n/a
608.2985	0.135	1216597	keystroke	'	n/a
608.8385	0.165	1217677	keystroke	d	n/a
609.7385	0.09	1219477	keystroke	Key.enter	n/a
609.84	7.2795	1219680	prompt	n/a	kill decide could danger\n
610.8935	0.075	1221787	keystroke	k	n/a
611.1335	0.075	1222267	keystroke	i	n/a
611.4935	0.18	1222987	keystroke	l	n/a
611.6885	0.045	1223377	keystroke	l	n/a
612.213	0.06	1224426	keystroke	Key.space	n/a
612.633	0.105	1225266	keystroke	d	n/a
612.828	0.135	1225656	keystroke	e	n/a
613.173	0.135	1226346	keystroke	c	n/a
613.368	0.09	1226736	keystroke	i	n/a
613.623	0.165	1227246	keystroke	d	n/a
613.893	0.15	1227786	keystroke	e	n/a
614.793	0.12	1229586	keystroke	Key.space	n/a
615.228	0.15	1230456	keystroke	d	n/a
615.393	0.15	1230786	keystroke	a	n/a
615.618	0.105	1231236	keystroke	n	n/a
615.9635	0.105	1231927	keystroke	g	n/a
616.1435	0.165	1232287	keystroke	e	n/a
616.2335	0.165	1232467	keystroke	r	n/a
616.9985	0.12	1233997	keystroke	Key.enter	n/a
617.1225	10.017	1234245	prompt	n/a	fewer read tagged distributor\n
618.4535	0.12	1236907	keystroke	f	n/a
618.8435	0.135	1237687	keystroke	e	n/a
618.8885	0.165	1237777	keystroke	w	n/a
619.1585	0.24	1238317	keystroke	e	n/a
619.3235	0.21	1238647	keystroke	r	n/a
619.6835	0.18	1239367	keystroke	Key.space	n/a
620.2085	0.12	1240417	keystroke	r	n/a
620.2685	0.195	1240537	keystroke	e	n/a
620.4485	0.06	1240897	keystroke	a	n/a
620.5685	0.165	1241137	keystroke	d	n/a
620.8835	0.12	1241767	keystroke	Key.space	n/a
621.7085	0.165	1243417	keystroke	t	n/a
621.8885	0.135	1243777	keystroke	a	n/a
622.2035	0.09	1244407	keystroke	g	n/a
622.3385	0.135	1244677	keystroke	g	n/a
622.5485	0.12	1245097	keystroke	e	n/a
622.8635	0.15	1245727	keystroke	d	n/a
623.2685	0.105	1246537	keystroke	Key.space	n/a
623.5985	0.135	1247197	keystroke	d	n/a
623.7185	0.12	1247437	keystroke	i	n/a
623.9285	0.135	1247857	keystroke	s	n/a
624.2435	0.195	1248487	keystroke	t	n/a
624.7085	0.12	1249417	keystroke	r	n/a
624.8435	0.09	1249687	keystroke	i	n/a
625.2785	0.135	1250557	keystroke	b	n/a
625.4285	0.045	1250857	keystroke	u	n/a
625.6685	0.12	1251337	keystroke	t	n/a
625.8335	0.12	1251667	keystroke	o	n/a
626.4635	0.12	1252927	keystroke	r	n/a
626.7035	0.06	1253407	keystroke	Key.space	n/a
627.0635	0.075	1254127	keystroke	Key.enter	n/a
627.143	10.151	1254286	prompt	n/a	great modern patrol postposted\n
628.0385	0.105	1256077	keystroke	g	n/a
628.2485	0.33	1256497	keystroke	r	n/a
628.3835	0.225	1256767	keystroke	e	n/a
628.5635	0.225	1257127	keystroke	a	n/a
628.7135	0.1495	1257427	keystroke	t	n/a
628.9075	0.106	1257815	keystroke	Key.space	n/a
629.1635	0.12	1258327	keystroke	m	n/a
629.3425	0.196	1258685	keystroke	o	n/a
629.7625	0.165	1259525	keystroke	d	n/a
630.0025	0.211	1260005	keystroke	e	n/a
630.1075	0.286	1260215	keystroke	r	n/a
630.3175	0.091	1260635	keystroke	n	n/a
630.5275	0.1955	1261055	keystroke	Key.space	n/a
630.888	0.105	1261776	keystroke	p	n/a
631.098	0.15	1262196	keystroke	a	n/a
631.668	0.135	1263336	keystroke	t	n/a
632.148	0.18	1264296	keystroke	r	n/a
632.403	0.15	1264806	keystroke	o	n/a
632.5675	0.1805	1265135	keystroke	l	n/a
632.853	0.195	1265706	keystroke	Key.space	n/a
633.243	0.255	1266486	keystroke	p	n/a
633.393	0.27	1266786	keystroke	o	n/a
633.873	0.12	1267746	keystroke	s	n/a
634.083	0.12	1268166	keystroke	t	n/a
634.518	0.225	1269036	keystroke	p	n/a
634.653	0.195	1269306	keystroke	o	n/a
636.228	0.15	1272456	keystroke	s	n/a
636.393	0.135	1272786	keystroke	t	n/a
636.573	0.165	1273146	keystroke	e	n/a
636.843	0.195	1273686	keystroke	d	n/a
637.218	0.075	1274436	keystroke	Key.enter	n/a
637.297	11.3075	1274594	prompt	n/a	nicole packet testimonials principal\n
638.253	0.12	1276506	keystroke	n	n/a
638.403	0.15	1276806	keystroke	i	n/a
638.688	0.15	1277376	keystroke	c	n/a
638.9875	0.165	1277975	keystroke	o	n/a
639.2875	0.225	1278575	keystroke	l	n/a
639.6925	0.135	1279385	keystroke	Key.space	n/a
640.2475	0.015	1280495	keystroke	p	n/a
640.3225	0.075	1280645	keystroke	a	n/a
640.5475	0.15	1281095	keystroke	c	n/a
640.6225	0.09	1281245	keystroke	k	n/a
640.8325	0.2555	1281665	keystroke	e	n/a
640.983	0.165	1281966	keystroke	t	n/a
641.148	0.135	1282296	keystroke	Key.space	n/a
641.538	0.135	1283076	keystroke	t	n/a
641.988	0.285	1283976	keystroke	e	n/a
642.348	0.225	1284696	keystroke	s	n/a
642.528	0.18	1285056	keystroke	t	n/a
642.723	0.135	1285446	keystroke	i	n/a
643.023	0.165	1286046	keystroke	m	n/a
643.668	0.15	1287336	keystroke	o	n/a
643.743	0.15	1287486	keystroke	n	n/a
643.968	0.165	1287936	keystroke	i	n/a
644.223	0.195	1288446	keystroke	a	n/a
644.433	0.045	1288866	keystroke	l	n/a
644.718	0.15	1289436	keystroke	s	n/a
644.943	0.105	1289886	keystroke	Key.space	n/a
645.168	0.18	1290336	keystroke	p	n/a
645.543	0.15	1291086	keystroke	r	n/a
645.663	0.195	1291326	keystroke	i	n/a
646.488	0.135	1292976	keystroke	n	n/a
646.773	0.15	1293546	keystroke	c	n/a
646.878	0.12	1293756	keystroke	i	n/a
647.418	0.135	1294836	keystroke	p	n/a
647.613	0.165	1295226	keystroke	a	n/a
647.793	0.165	1295586	keystroke	l	n/a
648.513	0.09	1297026	keystroke	Key.enter	n/a
648.607	12.6125	1297214	prompt	n/a	parish closes desire what'd\n
651.3055	0.028	1302611	keystroke	p	n/a
651.4535	0.24	1302907	keystroke	a	n/a
651.6035	0.18	1303207	keystroke	r	n/a
652.0385	0.12	1304077	keystroke	o	n/a
652.4135	0.135	1304827	keystroke	s	n/a
652.5635	0.045	1305127	keystroke	h	n/a
653.1035	0.135	1306207	keystroke	j	n/a
653.5535	0.135	1307107	keystroke	Key.space	n/a
654.963	0.15	1309926	keystroke	Key.space	n/a
656.463	0.135	1312926	keystroke	c	n/a
656.553	0.105	1313106	keystroke	;	n/a
656.748	0.105	1313496	keystroke	p	n/a
656.913	0.165	1313826	keystroke	s	n/a
657.063	0.18	1314126	keystroke	e	n/a
657.273	0.135	1314546	keystroke	s	n/a
657.588	0.09	1315176	keystroke	Key.space	n/a
658.023	0.045	1316046	keystroke	d	n/a
658.383	0.135	1316766	keystroke	e	n/a
658.533	0.165	1317066	keystroke	s	n/a
659.043	0.12	1318086	keystroke	o	n/a
659.193	0.24	1318386	keystroke	r	n/a
659.313	0.18	1318626	keystroke	e	n/a
659.538	0.12	1319076	keystroke	Key.space	n/a
660.018	0.12	1320036	keystroke	w	n/a
660.153	0.135	1320306	keystroke	j	n/a
660.363	0.315	1320726	keystroke	a	n/a
660.648	0.165	1321296	keystroke	t	n/a
661.068	0.15	1322136	keystroke	Key.enter	n/a
661.2225	13.542	1322445	prompt	n/a	enjoy collection maintain theoretical\n
661.263	0.15	1322526	keystroke	d	n/a
662.4635	0.12	1324927	keystroke	Key.backspace	n/a
663.2135	0.12	1326427	keystroke	e	n/a
663.4085	0.06	1326817	keystroke	n	n/a
664.4435	0.15	1328887	keystroke	j	n/a
664.6385	0.12	1329277	keystroke	o	n/a
664.8035	0.105	1329607	keystroke	y	n/a
665.0135	0.105	1330027	keystroke	Key.space	n/a
665.7335	0.135	1331467	keystroke	c	n/a
665.8085	0.135	1331617	keystroke	o	n/a
666.2135	0.06	1332427	keystroke	l	n/a
666.3635	0.09	1332727	keystroke	l	n/a
666.4685	0.135	1332937	keystroke	e	n/a
666.7685	0.12	1333537	keystroke	c	n/a
666.9935	0.18	1333987	keystroke	t	n/a
667.1285	0.165	1334257	keystroke	i	n/a
667.2185	0.135	1334437	keystroke	o	n/a
667.4435	0.12	1334887	keystroke	n	n/a
668.0135	0.105	1336027	keystroke	Key.space	n/a
668.5685	0.075	1337137	keystroke	c	n/a
669.1385	0.105	1338277	keystroke	Key.backspace	n/a
669.7385	0.09	1339477	keystroke	m	n/a
669.9935	0.15	1339987	keystroke	a	n/a
670.1285	0.15	1340257	keystroke	i	n/a
670.1585	0.135	1340317	keystroke	n	n/a
670.5935	0.135	1341187	keystroke	t	n/a
670.7135	0.12	1341427	keystroke	a	n/a
670.7885	0.195	1341577	keystroke	i	n/a
670.8485	0.15	1341697	keystroke	n	n/a
671.1935	0.09	1342387	keystroke	Key.space	n/a
671.9885	0.135	1343977	keystroke	t	n/a
672.1235	0.12	1344247	keystroke	h	n/a
672.3185	0.24	1344637	keystroke	e	n/a
672.4535	0.12	1344907	keystroke	o	n/a
672.8435	0.12	1345687	keystroke	r	n/a
673.0535	0.15	1346107	keystroke	e	n/a
673.3235	0.135	1346647	keystroke	t	n/a
673.6085	0.12	1347217	keystroke	i	n/a
674.0435	0.165	1348087	keystroke	c	n/a
674.1485	0.18	1348297	keystroke	a	n/a
674.2985	0.075	1348597	keystroke	l	n/a
674.6585	0.105	1349317	keystroke	Key.enter	n/a
674.7685	9.7765	1349537	prompt	n/a	victoria imports office genesis\n
675.7385	0.18	1351477	keystroke	v	n/a
675.8735	0.12	1351747	keystroke	i	n/a
676.3685	0.06	1352737	keystroke	c	n/a
676.5035	0.12	1353007	keystroke	o	n/a
676.6385	0.195	1353277	keystroke	t	n/a
677.5685	0.12	1355137	keystroke	i	n/a
677.8385	0.09	1355677	keystroke	r	n/a
677.8535	0.075	1355707	keystroke	t	n/a
678.0785	0.21	1356157	keystroke	a	n/a
678.9335	0.105	1357867	keystroke	Key.space	n/a
679.3225	0.151	1358645	keystroke	i	n/a
679.5485	0.165	1359097	keystroke	m	n/a
679.6985	0.135	1359397	keystroke	p	n/a
679.8485	0.165	1359697	keystroke	o	n/a
680.0435	0.15	1360087	keystroke	r	n/a
680.2535	0.135	1360507	keystroke	t	n/a
680.4625	0.075	1360925	keystroke	Key.space	n/a
680.6585	0.105	1361317	keystroke	o	n/a
680.8235	0.104	1361647	keystroke	f	n/a
681.0035	0.074	1362007	keystroke	f	n/a
681.1085	0.09	1362217	keystroke	f	n/a
681.5285	0.09	1363057	keystroke	i	n/a
681.7225	0.106	1363445	keystroke	c	n/a
681.9485	0.135	1363897	keystroke	e	n/a
682.0835	0.104	1364167	keystroke	Key.space	n/a
682.4575	0.136	1364915	keystroke	g	n/a
682.6985	0.149	1365397	keystroke	e	n/a
682.8175	0.166	1365635	keystroke	n	n/a
683.2825	0.091	1366565	keystroke	e	n/a
683.6285	0.1195	1367257	keystroke	i	n/a
683.8825	0.12	1367765	keystroke	s	n/a
684.048	0.12	1368096	keystroke	i	n/a
684.153	0.135	1368306	keystroke	s	n/a
684.453	0.09	1368906	keystroke	Key.enter	n/a
684.55	7.15	1369100	prompt	n/a	method championships honor optimum\n
685.383	0.09	1370766	keystroke	m	n/a
685.518	0.165	1371036	keystroke	e	n/a
685.698	0.15	1371396	keystroke	t	n/a
685.833	0.135	1371666	keystroke	h	n/a
686.148	0.18	1372296	keystroke	o	n/a
686.403	0.135	1372806	keystroke	d	n/a
686.613	0.045	1373226	keystroke	Key.space	n/a
686.883	0.165	1373766	keystroke	c	n/a
687.033	0.075	1374066	keystroke	h	n/a
687.153	0.165	1374306	keystroke	a	n/a
687.258	0.135	1374516	keystroke	m	n/a
687.348	0.18	1374696	keystroke	p	n/a
687.618	0.255	1375236	keystroke	i	n/a
687.813	0.24	1375626	keystroke	o	n/a
688.068	0.135	1376136	keystroke	n	n/a
688.608	0.18	1377216	keystroke	s	n/a
688.698	0.15	1377396	keystroke	h	n/a
688.803	0.3605	1377606	keystroke	i	n/a
688.9385	0.165	1377877	keystroke	p	n/a
689.3885	0.015	1378777	keystroke	s	n/a
689.8685	0.12	1379737	keystroke	Key.space	n/a
690.3635	0.135	1380727	keystroke	h	n/a
690.5135	0.075	1381027	keystroke	o	n/a
690.6035	0.075	1381207	keystroke	o	n/a
690.6635	0.12	1381327	keystroke	n	n/a
690.8585	0.15	1381717	keystroke	o	n/a
691.0535	0.165	1382107	keystroke	r	n/a
691.5485	0.15	1383097	keystroke	Key.enter	n/a
691.7045	11.575	1383409	prompt	n/a	joined regional version username\n
692.1185	0.225	1384237	keystroke	o	n/a
692.3885	0.135	1384777	keystroke	p	n/a
694.2485	0.075	1388497	keystroke	Key.backspace	n/a
694.4135	0.045	1388827	keystroke	Key.backspace	n/a
694.5185	0.105	1389037	keystroke	Key.backspace	n/a
695.4935	0.105	1390987	keystroke	j	n/a
695.6285	0.165	1391257	keystroke	o	n/a
695.8835	0.09	1391767	keystroke	i	n/a
696.0335	0.12	1392067	keystroke	n	n/a
696.2885	0.105	1392577	keystroke	e	n/a
696.5285	0.135	1393057	keystroke	d	n/a
697.0835	0.06	1394167	keystroke	Key.space	n/a
697.3835	0.15	1394767	keystroke	r	n/a
697.5035	0.18	1395007	keystroke	e	n/a
697.8035	0.12	1395607	keystroke	g	n/a
697.9685	0.104	1395937	keystroke	i	n/a
698.4325	0.03	1396865	keystroke	i	n/a
698.4475	0.136	1396895	keystroke	o	n/a
698.7335	0.06	1397467	keystroke	n	n/a
698.8835	0.255	1397767	keystroke	a	n/a
699.0185	0.21	1398037	keystroke	l	n/a
699.4385	0.045	1398877	keystroke	Key.space	n/a
700.0535	0.255	1400107	keystroke	v	n/a
700.3235	0.12	1400647	keystroke	e	n/a
700.3835	0.135	1400767	keystroke	r	n/a
700.6685	0.135	1401337	keystroke	s	n/a
700.7285	0.18	1401457	keystroke	i	n/a
700.8485	0.12	1401697	keystroke	o	n/a
700.9985	0.18	1401997	keystroke	n	n/a
701.1935	0.105	1402387	keystroke	Key.space	n/a
701.5835	0.285	1403167	keystroke	u	n/a
701.8835	0.09	1403767	keystroke	s	n/a
701.8985	0.24	1403797	keystroke	e	n/a
702.0935	0.15	1404187	keystroke	r	n/a
702.3635	0.165	1404727	keystroke	n	n/a
702.6035	0.15	1405207	keystroke	a	n/a
702.7835	0.12	1405567	keystroke	m	n/a
702.9335	0.165	1405867	keystroke	e	n/a
703.1585	0.12	1406317	keystroke	Key.enter	n/a
703.2825	12.0875	1406565	prompt	n/a	treo trees norm worship\n
704.1785	0.15	1408357	keystroke	t	n/a
704.4785	0.135	1408957	keystroke	r	n/a
705.453	0.136	1410906	keystroke	e	n/a
705.573	0.135	1411146	keystroke	o	n/a
705.858	0.15	1411716	keystroke	Key.space	n/a
706.323	0.15	1412646	keystroke	t	n/a
706.563	0.15	1413126	keystroke	r	n/a
706.729	0.149	1413458	keystroke	e	n/a
706.953	0.09	1413906	keystroke	e	n/a
707.703	0.09	1415406	keystroke	s	n/a
707.898	0.09	1415796	keystroke	Key.space	n/a
708.843	0.0605	1417686	keystroke	o	n/a
709.893	0.105	1419786	keystroke	Key.backspace	n/a
710.388	0.075	1420776	keystroke	n	n/a
710.538	0.135	1421076	keystroke	o	n/a
710.763	0.12	1421526	keystroke	r	n/a
711.048	0.135	1422096	keystroke	m	n/a
711.453	0.09	1422906	keystroke	Key.space	n/a
711.768	0.135	1423536	keystroke	w	n/a
711.904	0.104	1423808	keystroke	h	n/a
713.0435	0.15	1426087	keystroke	Key.backspace	n/a
713.8085	0.09	1427617	keystroke	o	n/a
713.9135	0.15	1427827	keystroke	r	n/a
714.2435	0.165	1428487	keystroke	s	n/a
714.4235	0.06	1428847	keystroke	h	n/a
714.4385	0.225	1428877	keystroke	i	n/a
714.5885	0.09	1429177	keystroke	p	n/a
715.2035	0.165	1430407	keystroke	Key.enter	n/a
715.3725	12.0875	1430745	prompt	n/a	stuart marriott colors hang\n
716.3885	0.09	1432777	keystroke	c	n/a
716.989	0.105	1433978	keystroke	Key.backspace	n/a
717.724	0.09	1435448	keystroke	s	n/a
718.039	0.105	1436078	keystroke	u	n/a
718.909	0.12	1437818	keystroke	Key.backspace	n/a
719.209	0.12	1438418	keystroke	t	n/a
719.359	0.105	1438718	keystroke	u	n/a
719.959	0.135	1439918	keystroke	a	n/a
720.033	0.165	1440066	keystroke	t	n/a
721.233	0.105	1442466	keystroke	Key.space	n/a
721.713	0.166	1443426	keystroke	m	n/a
722.044	0.149	1444088	keystroke	a	n/a
722.4185	0.0755	1444837	keystroke	r	n/a
722.598	0.09	1445196	keystroke	r	n/a
722.733	0.12	1445466	keystroke	i	n/a
722.988	0.135	1445976	keystroke	o	n/a
723.258	0.106	1446516	keystroke	t	n/a
723.439	0.119	1446878	keystroke	t	n/a
723.723	0.12	1447446	keystroke	Key.space	n/a
724.083	0.121	1448166	keystroke	c	n/a
724.173	0.105	1448346	keystroke	o	n/a
724.458	0.15	1448916	keystroke	l	n/a
724.713	0.15	1449426	keystroke	o	n/a
725.358	0.135	1450716	keystroke	r	n/a
725.583	0.165	1451166	keystroke	s	n/a
725.943	0.12	1451886	keystroke	Key.space	n/a
726.558	0.09	1453116	keystroke	h	n/a
726.768	0.045	1453536	keystroke	a	n/a
726.828	0.045	1453656	keystroke	n	n/a
726.888	0.12	1453776	keystroke	g	n/a
727.383	0.075	1454766	keystroke	Key.enter	n/a
727.463	11.262	1454926	prompt	n/a	pretty abstract white consumers\n
728.223	0.06	1456446	keystroke	p	n/a
728.373	0.21	1456746	keystroke	r	n/a
728.523	0.165	1457046	keystroke	e	n/a
728.778	0.075	1457556	keystroke	t	n/a
728.928	0.105	1457856	keystroke	t	n/a
729.213	0.12	1458426	keystroke	y	n/a
729.408	0.105	1458816	keystroke	Key.space	n/a
729.933	0.285	1459866	keystroke	a	n/a
730.203	0.135	1460406	keystroke	b	n/a
730.833	0.195	1461666	keystroke	s	n/a
730.998	0.165	1461996	keystroke	t	n/a
731.283	0.18	1462566	keystroke	r	n/a
731.568	0.195	1463136	keystroke	a	n/a
731.973	0.121	1463946	keystroke	c	n/a
732.198	0.18	1464396	keystroke	t	n/a
732.453	0.135	1464906	keystroke	Key.space	n/a
732.904	0.12	1465808	keystroke	w	n/a
733.038	0.12	1466076	keystroke	h	n/a
733.204	0.18	1466408	keystroke	i	n/a
733.518	0.15	1467036	keystroke	t	n/a
733.878	0.15	1467756	keystroke	e	n/a
734.238	0.105	1468476	keystroke	Key.space	n/a
735.168	0.105	1470336	keystroke	c	n/a
735.258	0.241	1470516	keystroke	o	n/a
735.378	0.136	1470756	keystroke	n	n/a
735.768	0.151	1471536	keystroke	s	n/a
735.978	0.091	1471956	keystroke	u	n/a
736.353	0.075	1472706	keystroke	m	n/a
737.313	0.15	1474626	keystroke	e	n/a
737.748	0.24	1475496	keystroke	r	n/a
738.093	0.15	1476186	keystroke	s	n/a
738.618	0.105	1477236	keystroke	Key.enter	n/a
738.732	12.5325	1477464	prompt	n/a	bachelor accounting dayton connection\n
739.803	0.15	1479606	keystroke	c	n/a
740.8985	0.12	1481797	keystroke	Key.backspace	n/a
741.3935	0.18	1482787	keystroke	b	n/a
742.144	0.1495	1484288	keystroke	a	n/a
742.414	0.12	1484828	keystroke	c	n/a
742.519	0.075	1485038	keystroke	h	n/a
743.419	0.105	1486838	keystroke	e	n/a
743.524	0.09	1487048	keystroke	l	n/a
743.824	0.15	1487648	keystroke	o	n/a
744.019	0.119	1488038	keystroke	r	n/a
744.183	0.12	1488366	keystroke	Key.space	n/a
744.453	0.12	1488906	keystroke	a	n/a
744.798	0.12	1489596	keystroke	c	n/a
744.933	0.09	1489866	keystroke	c	n/a
745.428	0.18	1490856	keystroke	o	n/a
745.488	0.15	1490976	keystroke	u	n/a
745.758	0.18	1491516	keystroke	n	n/a
745.953	0.18	1491906	keystroke	t	n/a
746.523	0.195	1493046	keystroke	i	n/a
746.613	0.12	1493226	keystroke	n	n/a
746.763	0.15	1493526	keystroke	g	n/a
747.048	0.12	1494096	keystroke	Key.space	n/a
747.498	0.24	1494996	keystroke	d	n/a
747.663	0.24	1495326	keystroke	a	n/a
747.843	0.135	1495686	keystroke	y	n/a
748.383	0.15	1496766	keystroke	t	n/a
748.503	0.21	1497006	keystroke	o	n/a
748.593	0.18	1497186	keystroke	n	n/a
748.878	0.105	1497756	keystroke	Key.space	n/a
749.163	0.1655	1498326	keystroke	c	n/a
749.2535	0.165	1498507	keystroke	o	n/a
749.7635	0.135	1499527	keystroke	n	n/a
749.9735	0.03	1499947	keystroke	n	n/a
749.9885	0.165	1499977	keystroke	e	n/a
750.2885	0.15	1500577	keystroke	c	n/a
750.5435	0.195	1501087	keystroke	t	n/a
750.6635	0.165	1501327	keystroke	i	n/a
750.7235	0.195	1501447	keystroke	o	n/a
750.9035	0.135	1501807	keystroke	n	n/a
751.1285	0.135	1502257	keystroke	Key.enter	n/a
751.267	12.598	1502534	prompt	n/a	cabinet cartridge illustration partners\n
752.0135	0.165	1504027	keystroke	c	n/a
752.2535	0.24	1504507	keystroke	a	n/a
753.3035	0.135	1506607	keystroke	b	n/a
753.6635	0.09	1507327	keystroke	i	n/a
754.3235	0.195	1508647	keystroke	n	n/a
754.4885	0.12	1508977	keystroke	e	n/a
754.6385	0.135	1509277	keystroke	t	n/a
754.8785	0.09	1509757	keystroke	Key.space	n/a
755.2235	0.135	1510447	keystroke	c	n/a
755.4485	0.195	1510897	keystroke	a	n/a
755.6285	0.105	1511257	keystroke	r	n/a
755.8085	0.15	1511617	keystroke	t	n/a
756.2285	0.15	1512457	keystroke	r	n/a
756.4685	0.12	1512937	keystroke	i	n/a
756.709	0.134	1513418	keystroke	d	n/a
756.919	0.15	1513838	keystroke	g	n/a
757.114	0.165	1514228	keystroke	e	n/a
757.338	0.135	1514676	keystroke	Key.space	n/a
757.608	0.165	1515216	keystroke	i	n/a
758.433	0.091	1516866	keystroke	l	n/a
758.599	0.135	1517198	keystroke	l	n/a
758.913	0.165	1517826	keystroke	u	n/a
759.184	0.12	1518368	keystroke	s	n/a
759.439	0.134	1518878	keystroke	t	n/a
759.828	0.225	1519656	keystroke	r	n/a
759.948	0.226	1519896	keystroke	e	n/a
760.189	0.24	1520378	keystroke	a	n/a
760.443	0.151	1520886	keystroke	t	n/a
760.518	0.181	1521036	keystroke	i	n/a
760.594	0.239	1521188	keystroke	o	n/a
760.803	0.136	1521606	keystroke	n	n/a
761.763	0.105	1523526	keystroke	Key.space	n/a
762.108	0.12	1524216	keystroke	p	n/a
762.244	0.179	1524488	keystroke	a	n/a
762.349	0.119	1524698	keystroke	r	n/a
762.558	0.12	1525116	keystroke	t	n/a
763.008	0.165	1526016	keystroke	n	n/a
763.188	0.181	1526376	keystroke	e	n/a
763.308	0.151	1526616	keystroke	r	n/a
763.503	0.18	1527006	keystroke	s	n/a
763.743	0.12	1527486	keystroke	Key.enter	n/a
763.867	15.343	1527734	prompt	n/a	contributing phenomenon gamespot africa\n
765.003	0.12	1530006	keystroke	c	n/a
765.918	0.09	1531836	keystroke	o	n/a
766.158	0.135	1532316	keystroke	n	n/a
766.443	0.12	1532886	keystroke	t	n/a
766.938	0.12	1533876	keystroke	r	n/a
767.044	0.149	1534088	keystroke	i	n/a
767.733	0.06	1535466	keystroke	b	n/a
767.913	0.165	1535826	keystroke	u	n/a
768.393	0.135	1536786	keystroke	t	n/a
768.558	0.18	1537116	keystroke	i	n/a
768.648	0.12	1537296	keystroke	n	n/a
768.783	0.135	1537566	keystroke	g	n/a
769.128	0.12	1538256	keystroke	Key.space	n/a
769.533	0.165	1539066	keystroke	p	n/a
769.713	0.15	1539426	keystroke	h	n/a
770.493	0.18	1540986	keystroke	e	n/a
771.438	0.06	1542876	keystroke	n	n/a
772.173	0.39	1544346	keystroke	o	n/a
772.668	0.135	1545336	keystroke	m	n/a
773.058	0.15	1546116	keystroke	e	n/a
773.193	0.135	1546386	keystroke	n	n/a
773.643	0.15	1547286	keystroke	o	n/a
773.778	0.15	1547556	keystroke	n	n/a
774.243	0.09	1548486	keystroke	Key.space	n/a
774.723	0.165	1549446	keystroke	g	n/a
774.873	0.165	1549746	keystroke	a	n/a
775.128	0.15	1550256	keystroke	m	n/a
775.323	0.15	1550646	keystroke	e	n/a
775.698	0.15	1551396	keystroke	s	n/a
775.849	0.194	1551698	keystroke	p	n/a
775.938	0.165	1551876	keystroke	o	n/a
776.118	0.18	1552236	keystroke	t	n/a
776.403	0.15	1552806	keystroke	Key.space	n/a
776.943	0.1505	1553886	keystroke	a	n/a
777.2435	0.12	1554487	keystroke	f	n/a
777.9485	0.165	1555897	keystroke	r	n/a
778.1885	0.09	1556377	keystroke	i	n/a
778.6835	0.255	1557367	keystroke	c	n/a
778.9085	0.15	1557817	keystroke	a	n/a
779.1035	0.105	1558207	keystroke	Key.enter	n/a
779.212	11.998	1558424	prompt	n/a	cambridge herald medicines monte\n
780.3035	0.09	1560607	keystroke	c	n/a
780.7085	0.21	1561417	keystroke	a	n/a
780.8135	0.12	1561627	keystroke	m	n/a
781.2935	0.105	1562587	keystroke	b	n/a
781.7135	0.1645	1563427	keystroke	r	n/a
781.893	0.135	1563786	keystroke	i	n/a
782.178	0.165	1564356	keystroke	d	n/a
782.508	0.09	1565016	keystroke	g	n/a
782.613	0.165	1565226	keystroke	e	n/a
782.868	0.105	1565736	keystroke	Key.space	n/a
783.228	0.18	1566456	keystroke	h	n/a
783.423	0.12	1566846	keystroke	e	n/a
783.498	0.15	1566996	keystroke	a	n/a
784.158	0.12	1568316	keystroke	Key.backspace	n/a
785.838	0.135	1571676	keystroke	r	n/a
786.153	0.165	1572306	keystroke	a	n/a
786.333	0.15	1572666	keystroke	l	n/a
786.528	0.165	1573056	keystroke	d	n/a
786.738	0.15	1573476	keystroke	Key.space	n/a
787.278	0.165	1574556	keystroke	m	n/a
787.458	0.105	1574916	keystroke	e	n/a
787.698	0.15	1575396	keystroke	d	n/a
787.833	0.1505	1575666	keystroke	i	n/a
788.4185	0.15	1576837	keystroke	c	n/a
788.6135	0.195	1577227	keystroke	i	n/a
788.7635	0.135	1577527	keystroke	n	n/a
788.9735	0.135	1577947	keystroke	e	n/a
789.2135	0.135	1578427	keystroke	s	n/a
789.4235	0.105	1578847	keystroke	Key.space	n/a
789.7535	0.105	1579507	keystroke	m	n/a
789.9635	0.18	1579927	keystroke	o	n/a
790.0985	0.15	1580197	keystroke	n	n/a
790.3085	0.105	1580617	keystroke	t	n/a
790.7435	0.105	1581487	keystroke	e	n/a
791.1185	0.09	1582237	keystroke	Key.enter	n/a
791.2125	14.2325	1582425	prompt	n/a	according toys kits inventory\n
792.1235	0.21	1584247	keystroke	a	n/a
792.6185	0.075	1585237	keystroke	c	n/a
792.7535	0.12	1585507	keystroke	c	n/a
793.0085	0.15	1586017	keystroke	o	n/a
793.218	0.196	1586436	keystroke	r	n/a
793.593	0.135	1587186	keystroke	d	n/a
793.743	0.225	1587486	keystroke	i	n/a
793.819	0.164	1587638	keystroke	n	n/a
793.908	0.151	1587816	keystroke	g	n/a
794.059	0.15	1588118	keystroke	Key.space	n/a
794.374	0.105	1588748	keystroke	t	n/a
794.868	0.166	1589736	keystroke	o	n/a
795.363	0.21	1590726	keystroke	y	n/a
795.618	0.33	1591236	keystroke	s	n/a
795.753	0.21	1591506	keystroke	Key.space	n/a
796.173	0.12	1592346	keystroke	k	n/a
796.474	0.134	1592948	keystroke	t	n/a
797.718	0.135	1595436	keystroke	Key.backspace	n/a
798.108	0.105	1596216	keystroke	o	n/a
798.319	0.029	1596638	keystroke	t	n/a
799.668	0.09	1599336	keystroke	Key.backspace	n/a
800.058	0.12	1600116	keystroke	i	n/a
800.6135	0.0595	1601227	keystroke	Key.backspace	n/a
800.688	0.1055	1601376	keystroke	Key.backspace	n/a
801.5735	0.0745	1603147	keystroke	i	n/a
801.663	0.045	1603326	keystroke	t	n/a
801.768	0.12	1603536	keystroke	s	n/a
801.948	0.1505	1603896	keystroke	Key.space	n/a
802.7585	0.12	1605517	keystroke	i	n/a
802.8185	0.15	1605637	keystroke	n	n/a
803.224	0.12	1606448	keystroke	v	n/a
803.464	0.21	1606928	keystroke	e	n/a
803.614	0.149	1607228	keystroke	r	n/a
804.318	0.09	1608636	keystroke	t	n/a
804.438	0.1505	1608876	keystroke	o	n/a
804.5735	0.18	1609147	keystroke	r	n/a
804.7535	0.225	1609507	keystroke	u	n/a
804.7985	0.105	1609597	keystroke	y	n/a
805.3685	0.075	1610737	keystroke	Key.enter	n/a
805.447	11.1575	1610894	prompt	n/a	cdna commonly strap roads\n
807.3935	0.12	1614787	keystroke	c	n/a
807.7385	0.12	1615477	keystroke	d	n/a
808.0985	0.105	1616197	keystroke	n	n/a
808.2335	0.165	1616467	keystroke	a	n/a
808.4735	0.105	1616947	keystroke	Key.space	n/a
808.8035	0.12	1617607	keystroke	c	n/a
808.8785	0.135	1617757	keystroke	o	n/a
809.0585	0.15	1618117	keystroke	m	n/a
809.4485	0.18	1618897	keystroke	l	n/a
810.8285	0.12	1621657	keystroke	Key.backspace	n/a
812.028	0.12	1624056	keystroke	m	n/a
812.463	0.18	1624926	keystroke	o	n/a
812.568	0.18	1625136	keystroke	n	n/a
812.868	0.21	1625736	keystroke	l	n/a
813.123	0.135	1626246	keystroke	y	n/a
813.318	0.105	1626636	keystroke	Key.space	n/a
813.573	0.135	1627146	keystroke	s	n/a
813.753	0.12	1627506	keystroke	t	n/a
813.963	0.24	1627926	keystroke	r	n/a
814.128	0.2105	1628256	keystroke	a	n/a
814.278	0.18	1628556	keystroke	p	n/a
814.473	0.105	1628946	keystroke	Key.space	n/a
814.863	0.195	1629726	keystroke	r	n/a
815.343	0.12	1630686	keystroke	o	n/a
815.508	0.15	1631016	keystroke	a	n/a
815.778	0.12	1631556	keystroke	d	n/a
816.078	0.165	1632156	keystroke	s	n/a
816.333	0.015	1632666	keystroke	Key.space	n/a
816.543	0.06	1633086	keystroke	Key.enter	n/a
816.6095	10.5555	1633219	prompt	n/a	venue lucky childhood totally\n
817.368	0.135	1634736	keystroke	v	n/a
817.578	0.165	1635156	keystroke	e	n/a
817.728	0.135	1635456	keystroke	n	n/a
818.1785	0.12	1636357	keystroke	u	n/a
818.3885	0.06	1636777	keystroke	r	n/a
819.1685	0.135	1638337	keystroke	Key.backspace	n/a
819.3185	0.1345	1638637	keystroke	e	n/a
819.573	0.09	1639146	keystroke	Key.space	n/a
819.963	0.135	1639926	keystroke	l	n/a
820.308	0.015	1640616	keystroke	u	n/a
820.368	0.165	1640736	keystroke	c	n/a
820.488	0.105	1640976	keystroke	k	n/a
820.683	0.1645	1641366	keystroke	y	n/a
820.8325	0.09	1641665	keystroke	Key.space	n/a
821.1785	0.03	1642357	keystroke	s	n/a
821.598	0.12	1643196	keystroke	Key.backspace	n/a
821.868	0.151	1643736	keystroke	c	n/a
821.973	0.105	1643946	keystroke	h	n/a
822.123	0.255	1644246	keystroke	i	n/a
822.498	0.15	1644996	keystroke	l	n/a
823.188	0.15	1646376	keystroke	d	n/a
823.698	0.12	1647396	keystroke	h	n/a
823.953	0.075	1647906	keystroke	o	n/a
824.043	0.12	1648086	keystroke	o	n/a
824.298	0.09	1648596	keystroke	d	n/a
824.4335	0.06	1648867	keystroke	Key.space	n/a
824.8385	0.105	1649677	keystroke	t	n/a
824.9585	0.09	1649917	keystroke	o	n/a
825.1085	0.165	1650217	keystroke	t	n/a
826.0385	0.15	1652077	keystroke	a	n/a
826.2935	0.09	1652587	keystroke	l	n/a
826.4135	0.135	1652827	keystroke	l	n/a
826.6685	0.12	1653337	keystroke	y	n/a
827.0285	0.135	1654057	keystroke	Key.enter	n/a
827.1675	9.7775	1654335	prompt	n/a	forces composition thread plastics\n
828.0335	0.105	1656067	keystroke	f	n/a
828.589	0.089	1657178	keystroke	o	n/a
828.724	0.18	1657448	keystroke	r	n/a
829.369	0.164	1658738	keystroke	e	n/a
829.623	0.15	1659246	keystroke	s	n/a
829.788	0.105	1659576	keystroke	Key.space	n/a
830.058	0.151	1660116	keystroke	c	n/a
830.133	0.2855	1660266	keystroke	o	n/a
830.3735	0.12	1660747	keystroke	m	n/a
830.464	0.1645	1660928	keystroke	p	n/a
830.8535	0.15	1661707	keystroke	o	n/a
831.0635	0.15	1662127	keystroke	s	n/a
831.4085	0.1655	1662817	keystroke	t	n/a
831.4385	0.2705	1662877	keystroke	i	n/a
831.589	0.18	1663178	keystroke	o	n/a
831.754	0.15	1663508	keystroke	n	n/a
832.038	0.106	1664076	keystroke	Key.space	n/a
832.669	0.15	1665338	keystroke	t	n/a
832.999	0.135	1665998	keystroke	h	n/a
833.374	0.18	1666748	keystroke	r	n/a
833.464	0.225	1666928	keystroke	e	n/a
833.704	0.195	1667408	keystroke	a	n/a
833.884	0.15	1667768	keystroke	d	n/a
834.259	0.119	1668518	keystroke	Key.space	n/a
834.634	0.135	1669268	keystroke	p	n/a
835.008	0.136	1670016	keystroke	l	n/a
835.218	0.105	1670436	keystroke	a	n/a
835.398	0.21	1670796	keystroke	s	n/a
835.819	0.134	1671638	keystroke	t	n/a
835.938	0.105	1671876	keystroke	i	n/a
836.208	0.105	1672416	keystroke	c	n/a
836.403	0.225	1672806	keystroke	e	n/a
836.553	0.18	1673106	keystroke	s	n/a
836.853	0.09	1673706	keystroke	Key.enter	n/a
836.948	12.5515	1673896	prompt	n/a	category distance assignment income\n
837.844	0.149	1675688	keystroke	c	n/a
838.038	0.24	1676076	keystroke	a	n/a
838.264	0.134	1676528	keystroke	t	n/a
838.443	0.15	1676886	keystroke	a	n/a
839.6585	0.135	1679317	keystroke	g	n/a
839.7935	0.105	1679587	keystroke	o	n/a
839.9585	0.21	1679917	keystroke	r	n/a
840.2735	0.09	1680547	keystroke	y	n/a
840.3485	0.12	1680697	keystroke	Key.space	n/a
840.5885	0.15	1681177	keystroke	d	n/a
840.7835	0.09	1681567	keystroke	i	n/a
840.9485	0.24	1681897	keystroke	s	n/a
841.368	0.165	1682736	keystroke	t	n/a
841.578	0.135	1683156	keystroke	a	n/a
841.728	0.12	1683456	keystroke	n	n/a
841.938	0.12	1683876	keystroke	c	n/a
842.253	0.195	1684506	keystroke	e	n/a
842.673	0.135	1685346	keystroke	Key.space	n/a
843.678	0.105	1687356	keystroke	a	n/a
843.918	0.045	1687836	keystroke	d	n/a
844.443	0.105	1688886	keystroke	=	n/a
844.848	0.27	1689696	keystroke	Key.backspace	n/a
845.358	0.12	1690716	keystroke	Key.backspace	n/a
845.778	0.105	1691556	keystroke	s	n/a
845.973	0.165	1691946	keystroke	s	n/a
846.303	0.15	1692606	keystroke	i	n/a
846.618	0.18	1693236	keystroke	g	n/a
846.813	0.105	1693626	keystroke	n	n/a
847.158	0.135	1694316	keystroke	m	n/a
847.308	0.15	1694616	keystroke	e	n/a
847.428	0.135	1694856	keystroke	n	n/a
847.548	0.15	1695096	keystroke	t	n/a
847.9975	0.165	1695995	keystroke	Key.space	n/a
848.2535	0.195	1696507	keystroke	i	n/a
848.3285	0.149	1696657	keystroke	n	n/a
848.7485	0.12	1697497	keystroke	c	n/a
848.8835	0.255	1697767	keystroke	o	n/a
849.0175	0.136	1698035	keystroke	m	n/a
849.1685	0.179	1698337	keystroke	e	n/a
849.3925	0.105	1698785	keystroke	Key.enter	n/a
849.502	11.8475	1699004	prompt	n/a	hiking boating crowd statutes\n
850.2035	0.134	1700407	keystroke	k	n/a
850.4285	0.149	1700857	keystroke	i	n/a
850.6075	0.181	1701215	keystroke	l	n/a
850.8335	0.135	1701667	keystroke	l	n/a
851.4625	0.105	1702925	keystroke	Key.backspace	n/a
851.7335	0.015	1703467	keystroke	Key.backspace	n/a
851.8075	0.06	1703615	keystroke	Key.backspace	n/a
851.9285	0.06	1703857	keystroke	Key.backspace	n/a
852.0625	0.12	1704125	keystroke	Key.backspace	n/a
852.9775	0.06	1705955	keystroke	k	n/a
853.5175	0.165	1707035	keystroke	i	n/a
854.5235	0.059	1709047	keystroke	k	n/a
854.7175	0.15	1709435	keystroke	i	n/a
854.7925	0.15	1709585	keystroke	n	n/a
854.9275	0.12	1709855	keystroke	g	n/a
855.2575	0.15	1710515	keystroke	Key.space	n/a
855.5575	0.181	1711115	keystroke	b	n/a
856.2625	0.15	1712525	keystroke	i	n/a
856.7575	0.18	1713515	keystroke	a	n/a
856.9675	0.195	1713935	keystroke	t	n/a
857.2675	0.09	1714535	keystroke	i	n/a
857.2825	0.105	1714565	keystroke	n	n/a
857.3585	0.1345	1714717	keystroke	g	n/a
857.5075	0.105	1715015	keystroke	Key.space	n/a
857.7625	0.135	1715525	keystroke	c	n/a
858.1225	0.195	1716245	keystroke	r	n/a
858.5275	0.075	1717055	keystroke	e	n/a
858.9325	0.165	1717865	keystroke	o	n/a
859.0675	0.15	1718135	keystroke	w	n/a
859.7125	0.09	1719425	keystroke	Key.space	n/a
859.9375	0.225	1719875	keystroke	s	n/a
860.1475	0.165	1720295	keystroke	t	n/a
860.2975	0.195	1720595	keystroke	a	n/a
860.448	0.1945	1720896	keystroke	t	n/a
860.6725	0.15	1721345	keystroke	u	n/a
860.7625	0.15	1721525	keystroke	e	n/a
861.0025	0.15	1722005	keystroke	s	n/a
861.2425	0.105	1722485	keystroke	Key.enter	n/a
861.3535	9.701	1722707	prompt	n/a	prix info equation heaven\n
862.1275	0.12	1724255	keystroke	p	n/a
862.2625	0.18	1724525	keystroke	r	n/a
862.4275	0.135	1724855	keystroke	i	n/a
862.7725	0.135	1725545	keystroke	x	n/a
862.9525	0.12	1725905	keystroke	Key.space	n/a
863.3125	0.15	1726625	keystroke	i	n/a
863.3875	0.15	1726775	keystroke	n	n/a
863.838	0.105	1727676	keystroke	f	n/a
863.973	0.105	1727946	keystroke	o	n/a
864.318	0.12	1728636	keystroke	Key.space	n/a
864.8725	0.106	1729745	keystroke	w	n/a
866.2675	0.135	1732535	keystroke	Key.backspace	n/a
866.6735	0.1045	1733347	keystroke	e	n/a
867.393	0.105	1734786	keystroke	q	n/a
867.513	0.18	1735026	keystroke	u	n/a
867.873	0.18	1735746	keystroke	a	n/a
868.068	0.165	1736136	keystroke	t	n/a
868.143	0.18	1736286	keystroke	i	n/a
868.218	0.18	1736436	keystroke	o	n/a
868.398	0.165	1736796	keystroke	n	n/a
868.578	0.105	1737156	keystroke	Key.space	n/a
868.818	0.165	1737636	keystroke	h	n/a
869.568	0.21	1739136	keystroke	e	n/a
869.793	0.255	1739586	keystroke	a	n/a
870.183	0.165	1740366	keystroke	v	n/a
870.423	0.135	1740846	keystroke	e	n/a
870.528	0.135	1741056	keystroke	n	n/a
870.948	0.105	1741896	keystroke	Key.enter	n/a
871.0575	11.247	1742115	prompt	n/a	pubs approx desert provinces\n
872.223	0.165	1744446	keystroke	p	n/a
872.538	0.075	1745076	keystroke	u	n/a
873.708	0.1345	1747416	keystroke	b	n/a
873.8875	0.15	1747775	keystroke	s	n/a
874.1875	0.09	1748375	keystroke	Key.space	n/a
874.7275	0.135	1749455	keystroke	a	n/a
874.8775	0.15	1749755	keystroke	p	n/a
875.2675	0.105	1750535	keystroke	r	n/a
875.4175	0.135	1750835	keystroke	o	n/a
875.7475	0.181	1751495	keystroke	x	n/a
875.9425	0.135	1751885	keystroke	Key.space	n/a
876.6025	0.15	1753205	keystroke	d	n/a
876.8725	0.15	1753745	keystroke	e	n/a
877.2325	0.12	1754465	keystroke	s	n/a
877.6675	0.18	1755335	keystroke	e	n/a
877.8025	0.18	1755605	keystroke	r	n/a
878.0425	0.165	1756085	keystroke	t	n/a
878.2975	0.105	1756595	keystroke	Key.space	n/a
878.4925	0.18	1756985	keystroke	p	n/a
878.6875	0.195	1757375	keystroke	r	n/a
878.9275	0.091	1757855	keystroke	i	n/a
879.7975	0.15	1759595	keystroke	Key.backspace	n/a
880.1425	0.15	1760285	keystroke	o	n/a
881.1925	0.015	1762385	keystroke	v	n/a
881.2225	0.06	1762445	keystroke	i	n/a
881.2375	0.075	1762475	keystroke	n	n/a
881.5075	0.1505	1763015	keystroke	c	n/a
881.748	0.225	1763496	keystroke	e	n/a
881.913	0.18	1763826	keystroke	s	n/a
882.198	0.105	1764396	keystroke	Key.enter	n/a
882.308	10.4815	1764616	prompt	n/a	christina mall walks contributors\n
883.158	0.165	1766316	keystroke	c	n/a
883.338	0.135	1766676	keystroke	h	n/a
883.713	0.15	1767426	keystroke	r	n/a
883.878	0.135	1767756	keystroke	i	n/a
883.998	0.165	1767996	keystroke	s	n/a
884.148	0.165	1768296	keystroke	t	n/a
884.298	0.165	1768596	keystroke	i	n/a
884.373	0.18	1768746	keystroke	n	n/a
884.778	0.09	1769556	keystroke	a	n/a
884.973	0.135	1769946	keystroke	Key.space	n/a
885.243	0.12	1770486	keystroke	m	n/a
885.423	0.075	1770846	keystroke	a	n/a
885.528	0.075	1771056	keystroke	l	n/a
885.693	0.105	1771386	keystroke	l	n/a
885.948	0.12	1771896	keystroke	Key.space	n/a
886.263	0.1505	1772526	keystroke	m	n/a
886.4285	0.045	1772857	keystroke	a	n/a
886.8935	0.15	1773787	keystroke	Key.backspace	n/a
887.0585	0.09	1774117	keystroke	Key.backspace	n/a
887.5375	0.105	1775075	keystroke	w	n/a
887.8975	0.15	1775795	keystroke	a	n/a
888.0175	0.12	1776035	keystroke	l	n/a
888.0775	0.18	1776155	keystroke	k	n/a
