onset	duration	sample	value	key	prompt_text
12.5815	0.074	25163	keystroke_a	a	n/a
12.671	0.09	25342	keystroke_l	l	n/a
12.746	0.12	25492	keystroke_a	a	n/a
12.836	0.0745	25672	keystroke_n	n	n/a
12.896	0.1045	25792	keystroke_d	d	n/a
13.016	0.0595	26032	keystroke_u	u	n/a
13.121	0.09	26242	keystroke_Key.tab	Key.tab	n/a
17.876	4.8775	35752	prompt	n/a	the quick brown fox jumps over a lazy dog\n
18.686	0.12	37372	keystroke_t	t	n/a
18.821	0.0895	37642	keystroke_h	h	n/a
18.896	0.12	37792	keystroke_e	e	n/a
18.986	0.1045	37972	keystroke_Key.space	Key.space	n/a
19.061	0.12	38122	keystroke_q	q	n/a
19.151	0.1195	38302	keystroke_u	u	n/a
19.226	0.09	38452	keystroke_i	i	n/a
19.2865	0.134	38573	keystroke_c	c	n/a
19.4065	0.104	38813	keystroke_k	k	n/a
19.466	0.09	38932	keystroke_Key.space	Key.space	n/a
19.556	0.0595	39112	keystroke_b	b	n/a
19.721	0.1195	39442	keystroke_r	r	n/a
19.811	0.0895	39622	keystroke_o	o	n/a
19.886	0.15	39772	keystroke_w	w	n/a
19.991	0.105	39982	keystroke_n	n	n/a
20.081	0.075	40162	keystroke_Key.space	Key.space	n/a
20.141	0.09	40282	keystroke_f	f	n/a
20.216	0.0745	40432	keystroke_o	o	n/a
20.306	0.09	40612	keystroke_x	x	n/a
20.351	0.105	40702	keystroke_Key.space	Key.space	n/a
20.3815	0.0895	40763	keystroke_j	j	n/a
20.531	0.075	41062	keystroke_u	u	n/a
20.711	0.1045	41422	keystroke_m	m	n/a
20.771	0.12	41542	keystroke_p	p	n/a
20.876	0.09	41752	keystroke_s	s	n/a
20.936	0.0895	41872	keystroke_Key.space	Key.space	n/a
21.026	0.075	42052	keystroke_o	o	n/a
21.071	0.105	42142	keystroke_v	v	n/a
21.221	0.135	42442	keystroke_e	e	n/a
21.296	0.1045	42592	keystroke_r	r	n/a
21.371	0.105	42742	keystroke_Key.space	Key.space	n/a
21.431	0.1645	42862	keystroke_a	a	n/a
21.581	0.09	43162	keystroke_Key.space	Key.space	n/a
21.716	0.1045	43432	keystroke_l	l	n/a
21.866	0.12	43732	keystroke_a	a	n/a
22.121	0.15	44242	keystroke_z	z	n/a
22.196	0.09	44392	keystroke_y	y	n/a
22.331	0.0895	44662	keystroke_Key.space	Key.space	n/a
22.406	0.1195	44812	keystroke_d	d	n/a
22.466	0.09	44932	keystroke_o	o	n/a
22.571	0.09	45142	keystroke_g	g	n/a
22.676	0.075	45352	keystroke_Key.enter	Key.enter	n/a
22.762	4.2955	45524	prompt	n/a	macromedia places earthquake covering\n
23.396	0.1195	46792	keystroke_m	m	n/a
23.501	0.0755	47002	keystroke_a	a	n/a
23.636	0.06	47272	keystroke_c	c	n/a
23.771	0.105	47542	keystroke_r	r	n/a
23.861	0.09	47722	keystroke_o	o	n/a
23.921	0.1045	47842	keystroke_m	m	n/a
24.011	0.075	48022	keystroke_e	e	n/a
24.176	0.0745	48352	keystroke_d	d	n/a
24.2215	0.0895	48443	keystroke_i	i	n/a
24.3265	0.1195	48653	keystroke_a	a	n/a
24.401	0.1195	48802	keystroke_Key.space	Key.space	n/a
24.416	0.09	48832	keystroke_p	p	n/a
24.581	0.09	49162	keystroke_l	l	n/a
24.611	0.1045	49222	keystroke_a	a	n/a
24.701	0.075	49402	keystroke_c	c	n/a
24.851	0.12	49702	keystroke_e	e	n/a
24.911	0.105	49822	keystroke_s	s	n/a
24.986	0.09	49972	keystroke_Key.space	Key.space	n/a
25.151	0.135	50302	keystroke_e	e	n/a
25.256	0.12	50512	keystroke_a	a	n/a
25.331	0.1195	50662	keystroke_r	r	n/a
25.496	0.105	50992	keystroke_t	t	n/a
25.571	0.075	51142	keystroke_h	h	n/a
25.661	0.09	51322	keystroke_q	q	n/a
25.766	0.105	51532	keystroke_u	u	n/a
25.856	0.135	51712	keystroke_a	a	n/a
25.9915	0.0745	51983	keystroke_k	k	n/a
26.036	0.135	52072	keystroke_e	e	n/a
26.156	0.075	52312	keystroke_Key.space	Key.space	n/a
26.291	0.0895	52582	keystroke_c	c	n/a
26.366	0.1045	52732	keystroke_o	o	n/a
26.486	0.0595	52972	keystroke_v	v	n/a
26.591	0.1045	53182	keystroke_e	e	n/a
26.651	0.105	53302	keystroke_r	r	n/a
26.726	0.09	53452	keystroke_i	i	n/a
26.756	0.105	53512	keystroke_n	n	n/a
26.846	0.09	53692	keystroke_g	g	n/a
26.981	0.075	53962	keystroke_Key.enter	Key.enter	n/a
27.064	5.1535	54128	prompt	n/a	responded learned strategic yards\n
27.611	0.15	55222	keystroke_r	r	n/a
27.701	0.1045	55402	keystroke_e	e	n/a
27.761	0.105	55522	keystroke_s	s	n/a
27.821	0.12	55642	keystroke_p	p	n/a
27.8815	0.1495	55763	keystroke_o	o	n/a
27.956	0.0895	55912	keystroke_n	n	n/a
28.001	0.075	56002	keystroke_d	d	n/a
28.136	0.075	56272	keystroke_e	e	n/a
28.271	0.105	56542	keystroke_d	d	n/a
28.346	0.105	56692	keystroke_Key.space	Key.space	n/a
28.451	0.075	56902	keystroke_l	l	n/a
28.511	0.12	57022	keystroke_e	e	n/a
28.586	0.12	57172	keystroke_a	a	n/a
28.6465	0.1195	57293	keystroke_r	r	n/a
28.736	0.09	57472	keystroke_n	n	n/a
28.811	0.075	57622	keystroke_e	e	n/a
28.961	0.09	57922	keystroke_d	d	n/a
29.036	0.105	58072	keystroke_Key.space	Key.space	n/a
29.141	0.105	58282	keystroke_s	s	n/a
29.231	0.09	58462	keystroke_t	t	n/a
29.381	0.12	58762	keystroke_r	r	n/a
29.471	0.15	58942	keystroke_a	a	n/a
29.636	0.0745	59272	keystroke_t	t	n/a
29.651	0.045	59302	keystroke_r	r	n/a
29.681	0.12	59362	keystroke_e	e	n/a
29.876	0.135	59752	keystroke_g	g	n/a
30.086	0.075	60172	keystroke_i	i	n/a
30.341	0.06	60682	keystroke_Key.backspace	Key.backspace	n/a
30.506	0.06	61012	keystroke_Key.backspace	Key.backspace	n/a
30.641	0.06	61282	keystroke_Key.backspace	Key.backspace	n/a
30.821	0.06	61642	keystroke_Key.backspace	Key.backspace	n/a
31.211	0.12	62422	keystroke_e	e	n/a
31.316	0.12	62632	keystroke_g	g	n/a
31.361	0.105	62722	keystroke_i	i	n/a
31.511	0.1195	63022	keystroke_c	c	n/a
31.586	0.1205	63172	keystroke_Key.space	Key.space	n/a
31.691	0.06	63382	keystroke_y	y	n/a
31.766	0.105	63532	keystroke_a	a	n/a
31.811	0.105	63622	keystroke_r	r	n/a
31.931	0.12	63862	keystroke_d	d	n/a
32.036	0.0745	64072	keystroke_s	s	n/a
32.141	0.075	64282	keystroke_Key.enter	Key.enter	n/a
32.2235	3.3995	64447	prompt	n/a	case dubai dream throws\n
32.876	0.09	65752	keystroke_c	c	n/a
32.9815	0.1645	65963	keystroke_a	a	n/a
33.0715	0.1945	66143	keystroke_s	s	n/a
33.161	0.12	66322	keystroke_e	e	n/a
33.2665	0.0745	66533	keystroke_Key.space	Key.space	n/a
33.371	0.105	66742	keystroke_d	d	n/a
33.491	0.105	66982	keystroke_u	u	n/a
33.596	0.105	67192	keystroke_b	b	n/a
33.716	0.165	67432	keystroke_a	a	n/a
33.806	0.09	67612	keystroke_i	i	n/a
33.941	0.03	67882	keystroke_Key.space	Key.space	n/a
34.0165	0.0595	68033	keystroke_d	d	n/a
34.151	0.12	68302	keystroke_r	r	n/a
34.226	0.135	68452	keystroke_e	e	n/a
34.331	0.135	68662	keystroke_a	a	n/a
34.406	0.09	68812	keystroke_m	m	n/a
34.5115	0.1345	69023	keystroke_s	s	n/a
34.616	0.075	69232	keystroke_Key.space	Key.space	n/a
34.766	0.045	69532	keystroke_t	t	n/a
34.781	0.105	69562	keystroke_h	h	n/a
34.901	0.09	69802	keystroke_r	r	n/a
34.976	0.09	69952	keystroke_o	o	n/a
35.051	0.06	70102	keystroke_w	w	n/a
35.186	0.135	70372	keystroke_s	s	n/a
35.561	0.06	71122	keystroke_Key.enter	Key.enter	n/a
35.6275	5.4255	71255	prompt	n/a	cordless rebecca provincial examinations\n
36.296	0.075	72592	keystroke_c	c	n/a
36.4315	0.1045	72863	keystroke_o	o	n/a
36.521	0.075	73042	keystroke_r	r	n/a
36.626	0.105	73252	keystroke_d	d	n/a
36.746	0.105	73492	keystroke_l	l	n/a
36.8815	0.0745	73763	keystroke_e	e	n/a
36.971	0.12	73942	keystroke_s	s	n/a
37.151	0.12	74302	keystroke_s	s	n/a
37.2865	0.0595	74573	keystroke_Key.space	Key.space	n/a
37.361	0.09	74722	keystroke_r	r	n/a
37.406	0.09	74812	keystroke_e	e	n/a
37.5715	0.0895	75143	keystroke_b	b	n/a
37.691	0.09	75382	keystroke_e	e	n/a
37.871	0.075	75742	keystroke_c	c	n/a
38.036	0.075	76072	keystroke_c	c	n/a
38.186	0.135	76372	keystroke_a	a	n/a
38.276	0.105	76552	keystroke_Key.space	Key.space	n/a
38.396	0.12	76792	keystroke_p	p	n/a
38.501	0.105	77002	keystroke_r	r	n/a
38.576	0.1055	77152	keystroke_o	o	n/a
38.741	0.06	77482	keystroke_v	v	n/a
39.026	0.12	78052	keystroke_i	i	n/a
39.086	0.105	78172	keystroke_n	n	n/a
39.236	0.105	78472	keystroke_c	c	n/a
39.326	0.09	78652	keystroke_i	i	n/a
39.4315	0.1645	78863	keystroke_a	a	n/a
39.536	0.0895	79072	keystroke_l	l	n/a
39.641	0.075	79282	keystroke_Key.space	Key.space	n/a
39.701	0.075	79402	keystroke_e	e	n/a
39.881	0.075	79762	keystroke_x	x	n/a
39.971	0.1345	79942	keystroke_a	a	n/a
40.046	0.09	80092	keystroke_m	m	n/a
40.166	0.12	80332	keystroke_i	i	n/a
40.242	0.104	80484	keystroke_n	n	n/a
40.361	0.15	80722	keystroke_a	a	n/a
40.451	0.135	80902	keystroke_t	t	n/a
40.571	0.15	81142	keystroke_i	i	n/a
40.631	0.12	81262	keystroke_o	o	n/a
40.6615	0.1195	81323	keystroke_n	n	n/a
40.736	0.105	81472	keystroke_s	s	n/a
40.991	0.06	81982	keystroke_Key.enter	Key.enter	n/a
41.0585	2.874	82117	prompt	n/a	outline however beaver spies\n
41.591	0.105	83182	keystroke_o	o	n/a
41.666	0.09	83332	keystroke_u	u	n/a
41.726	0.12	83452	keystroke_t	t	n/a
41.831	0.105	83662	keystroke_l	l	n/a
41.891	0.09	83782	keystroke_i	i	n/a
41.951	0.105	83902	keystroke_n	n	n/a
41.966	0.12	83932	keystroke_e	e	n/a
42.056	0.12	84112	keystroke_Key.space	Key.space	n/a
42.1615	0.0745	84323	keystroke_h	h	n/a
42.206	0.105	84412	keystroke_o	o	n/a
42.251	0.105	84502	keystroke_w	w	n/a
42.281	0.135	84562	keystroke_e	e	n/a
42.4615	0.0895	84923	keystroke_v	v	n/a
42.5665	0.1345	85133	keystroke_e	e	n/a
42.656	0.105	85312	keystroke_r	r	n/a
42.731	0.0745	85462	keystroke_Key.space	Key.space	n/a
42.851	0.09	85702	keystroke_b	b	n/a
42.986	0.09	85972	keystroke_e	e	n/a
43.061	0.12	86122	keystroke_a	a	n/a
43.136	0.075	86272	keystroke_v	v	n/a
43.256	0.105	86512	keystroke_e	e	n/a
43.316	0.15	86632	keystroke_r	r	n/a
43.391	0.105	86782	keystroke_Key.space	Key.space	n/a
43.481	0.09	86962	keystroke_s	s	n/a
43.556	0.105	87112	keystroke_p	p	n/a
43.631	0.09	87262	keystroke_i	i	n/a
43.676	0.135	87352	keystroke_e	e	n/a
43.766	0.09	87532	keystroke_s	s	n/a
43.8715	0.0595	87743	keystroke_Key.enter	Key.enter	n/a
43.9415	3.696	87883	prompt	n/a	somerset facilities world areas\n
44.5015	0.1045	89003	keystroke_s	s	n/a
44.741	0.105	89482	keystroke_o	o	n/a
44.7865	0.1195	89573	keystroke_m	m	n/a
44.891	0.12	89782	keystroke_e	e	n/a
44.9665	0.1345	89933	keystroke_r	r	n/a
45.086	0.15	90172	keystroke_s	s	n/a
45.1765	0.1195	90353	keystroke_e	e	n/a
45.2515	0.1195	90503	keystroke_t	t	n/a
45.341	0.09	90682	keystroke_Key.space	Key.space	n/a
45.4765	0.1045	90953	keystroke_f	f	n/a
45.551	0.09	91102	keystroke_a	a	n/a
45.731	0.075	91462	keystroke_c	c	n/a
45.791	0.135	91582	keystroke_i	i	n/a
45.9115	0.1345	91823	keystroke_l	l	n/a
46.016	0.09	92032	keystroke_i	i	n/a
46.151	0.135	92302	keystroke_t	t	n/a
46.196	0.075	92392	keystroke_i	i	n/a
46.301	0.135	92602	keystroke_e	e	n/a
46.361	0.105	92722	keystroke_s	s	n/a
46.4515	0.0745	92903	keystroke_Key.space	Key.space	n/a
46.541	0.105	93082	keystroke_w	w	n/a
46.616	0.09	93232	keystroke_o	o	n/a
46.691	0.09	93382	keystroke_r	r	n/a
46.781	0.09	93562	keystroke_l	l	n/a
46.841	0.09	93682	keystroke_d	d	n/a
46.901	0.105	93802	keystroke_Key.space	Key.space	n/a
47.021	0.135	94042	keystroke_a	a	n/a
47.231	0.135	94462	keystroke_r	r	n/a
47.306	0.105	94612	keystroke_e	e	n/a
47.381	0.105	94762	keystroke_a	a	n/a
47.456	0.12	94912	keystroke_s	s	n/a
47.576	0.06	95152	keystroke_Key.enter	Key.enter	n/a
47.642	3.686	95284	prompt	n/a	vitamin user robbie thursday\n
48.236	0.09	96472	keystroke_v	v	n/a
48.371	0.09	96742	keystroke_i	i	n/a
48.491	0.09	96982	keystroke_t	t	n/a
48.596	0.12	97192	keystroke_a	a	n/a
48.641	0.0895	97282	keystroke_m	m	n/a
48.7465	0.1195	97493	keystroke_i	i	n/a
48.806	0.09	97612	keystroke_n	n	n/a
48.896	0.09	97792	keystroke_Key.space	Key.space	n/a
49.001	0.09	98002	keystroke_u	u	n/a
49.076	0.15	98152	keystroke_s	s	n/a
49.151	0.12	98302	keystroke_e	e	n/a
49.2115	0.1045	98423	keystroke_r	r	n/a
49.286	0.09	98572	keystroke_Key.space	Key.space	n/a
49.391	0.105	98782	keystroke_r	r	n/a
49.4815	0.0745	98963	keystroke_o	o	n/a
49.586	0.06	99172	keystroke_b	b	n/a
49.706	0.105	99412	keystroke_b	b	n/a
49.826	0.09	99652	keystroke_i	i	n/a
49.9015	0.1045	99803	keystroke_e	e	n/a
49.961	0.09	99922	keystroke_Key.space	Key.space	n/a
50.066	0.105	100132	keystroke_t	t	n/a
50.081	0.09	100162	keystroke_h	h	n/a
50.6515	0.0895	101303	keystroke_u	u	n/a
50.7265	0.1045	101453	keystroke_r	r	n/a
50.8165	0.1645	101633	keystroke_s	s	n/a
50.9365	0.1195	101873	keystroke_d	d	n/a
51.041	0.135	102082	keystroke_a	a	n/a
51.086	0.075	102172	keystroke_y	y	n/a
51.251	0.0755	102502	keystroke_Key.enter	Key.enter	n/a
51.336	4.1015	102672	prompt	n/a	mathematics friendship documentary adam\n
51.8965	0.1195	103793	keystroke_m	m	n/a
52.001	0.105	104002	keystroke_a	a	n/a
52.0765	0.1195	104153	keystroke_t	t	n/a
52.151	0.075	104302	keystroke_h	h	n/a
52.242	0.104	104484	keystroke_e	e	n/a
52.331	0.075	104662	keystroke_m	m	n/a
52.406	0.105	104812	keystroke_a	a	n/a
52.4675	0.0885	104935	keystroke_t	t	n/a
52.541	0.09	105082	keystroke_i	i	n/a
52.646	0.135	105292	keystroke_c	c	n/a
52.721	0.135	105442	keystroke_s	s	n/a
52.811	0.105	105622	keystroke_Key.space	Key.space	n/a
52.9465	0.0595	105893	keystroke_f	f	n/a
53.111	0.09	106222	keystroke_r	r	n/a
53.171	0.075	106342	keystroke_i	i	n/a
53.246	0.075	106492	keystroke_e	e	n/a
53.336	0.075	106672	keystroke_n	n	n/a
53.396	0.09	106792	keystroke_d	d	n/a
53.516	0.105	107032	keystroke_s	s	n/a
53.576	0.105	107152	keystroke_h	h	n/a
53.651	0.12	107302	keystroke_i	i	n/a
53.711	0.12	107422	keystroke_p	p	n/a
53.8015	0.0745	107603	keystroke_Key.space	Key.space	n/a
53.861	0.09	107722	keystroke_d	d	n/a
53.966	0.0755	107932	keystroke_o	o	n/a
54.0415	0.0895	108083	keystroke_c	c	n/a
54.116	0.0755	108232	keystroke_u	u	n/a
54.281	0.075	108562	keystroke_m	m	n/a
54.386	0.1055	108772	keystroke_e	e	n/a
54.461	0.075	108922	keystroke_n	n	n/a
54.551	0.09	109102	keystroke_t	t	n/a
54.656	0.1355	109312	keystroke_a	a	n/a
54.716	0.135	109432	keystroke_r	r	n/a
54.806	0.09	109612	keystroke_y	y	n/a
54.9115	0.113	109823	keystroke_Key.space	Key.space	n/a
55.0245	0.067	110049	keystroke_a	a	n/a
55.076	0.06	110152	keystroke_d	d	n/a
55.1965	0.0895	110393	keystroke_a	a	n/a
55.2745	0.0565	110549	keystroke_m	m	n/a
55.361	0.075	110722	keystroke_Key.enter	Key.enter	n/a
55.442	3.8655	110884	prompt	n/a	who casinos installed twice\n
56.066	0.09	112132	keystroke_w	w	n/a
56.1265	0.1045	112253	keystroke_h	h	n/a
56.201	0.105	112402	keystroke_o	o	n/a
56.2765	0.0895	112553	keystroke_Key.space	Key.space	n/a
56.4265	0.0745	112853	keystroke_c	c	n/a
56.5315	0.1345	113063	keystroke_a	a	n/a
56.636	0.105	113272	keystroke_s	s	n/a
56.741	0.12	113482	keystroke_i	i	n/a
56.801	0.105	113602	keystroke_n	n	n/a
56.876	0.105	113752	keystroke_o	o	n/a
56.9965	0.0745	113993	keystroke_s	s	n/a
57.041	0.09	114082	keystroke_Key.space	Key.space	n/a
57.1765	0.0745	114353	keystroke_w	w	n/a
57.266	0.09	114532	keystroke_i	i	n/a
57.5515	0.0145	115103	keystroke_Key.backspace	Key.backspace	n/a
57.641	0.09	115282	keystroke_Key.backspace	Key.backspace	n/a
57.866	0.12	115732	keystroke_i	i	n/a
57.911	0.09	115822	keystroke_n	n	n/a
57.971	0.12	115942	keystroke_s	s	n/a
58.074	0.077	116148	keystroke_t	t	n/a
58.121	0.12	116242	keystroke_a	a	n/a
58.196	0.0595	116392	keystroke_l	l	n/a
58.3165	0.0745	116633	keystroke_l	l	n/a
58.3765	0.0745	116753	keystroke_e	e	n/a
58.511	0.105	117022	keystroke_d	d	n/a
58.6015	0.0745	117203	keystroke_Key.space	Key.space	n/a
58.6765	0.1045	117353	keystroke_t	t	n/a
58.7515	0.1195	117503	keystroke_w	w	n/a
58.856	0.075	117712	keystroke_i	i	n/a
58.9765	0.0745	117953	keystroke_c	c	n/a
59.1265	0.0895	118253	keystroke_e	e	n/a
59.2315	0.0745	118463	keystroke_Key.enter	Key.enter	n/a
59.314	4.344	118628	prompt	n/a	cube metres warming bishop\n
59.921	0.105	119842	keystroke_c	c	n/a
60.011	0.0745	120022	keystroke_u	u	n/a
60.101	0.075	120202	keystroke_b	b	n/a
60.221	0.12	120442	keystroke_e	e	n/a
60.311	0.09	120622	keystroke_Key.space	Key.space	n/a
60.386	0.09	120772	keystroke_m	m	n/a
60.461	0.12	120922	keystroke_e	e	n/a
60.566	0.1045	121132	keystroke_t	t	n/a
60.701	0.105	121402	keystroke_e	e	n/a
60.761	0.105	121522	keystroke_r	r	n/a
61.571	0.06	123142	keystroke_Key.backspace	Key.backspace	n/a
61.706	0.09	123412	keystroke_Key.backspace	Key.backspace	n/a
61.826	0.1495	123652	keystroke_r	r	n/a
61.871	0.165	123742	keystroke_e	e	n/a
61.961	0.135	123922	keystroke_s	s	n/a
62.081	0.075	124162	keystroke_Key.space	Key.space	n/a
62.186	0.12	124372	keystroke_w	w	n/a
62.291	0.12	124582	keystroke_a	a	n/a
62.351	0.12	124702	keystroke_r	r	n/a
62.426	0.075	124852	keystroke_m	m	n/a
62.547	0.104	125094	keystroke_i	i	n/a
62.621	0.09	125242	keystroke_n	n	n/a
62.696	0.105	125392	keystroke_g	g	n/a
62.756	0.075	125512	keystroke_Key.space	Key.space	n/a
62.906	0.105	125812	keystroke_b	b	n/a
62.996	0.06	125992	keystroke_i	i	n/a
63.086	0.12	126172	keystroke_s	s	n/a
63.161	0.105	126322	keystroke_h	h	n/a
63.251	0.12	126502	keystroke_o	o	n/a
63.326	0.09	126652	keystroke_p	p	n/a
63.581	0.0745	127162	keystroke_Key.enter	Key.enter	n/a
63.6645	4.058	127329	prompt	n/a	childhood excerpt infant hampshire\n
64.196	0.105	128392	keystroke_c	c	n/a
64.316	0.1195	128632	keystroke_h	h	n/a
64.3915	0.134	128783	keystroke_i	i	n/a
64.451	0.15	128902	keystroke_l	l	n/a
64.586	0.105	129172	keystroke_d	d	n/a
64.676	0.105	129352	keystroke_h	h	n/a
64.796	0.0745	129592	keystroke_o	o	n/a
64.976	0.06	129952	keystroke_o	o	n/a
65.096	0.09	130192	keystroke_d	d	n/a
65.171	0.09	130342	keystroke_Key.space	Key.space	n/a
65.291	0.06	130582	keystroke_e	e	n/a
65.441	0.0895	130882	keystroke_x	x	n/a
65.621	0.0755	131242	keystroke_c	c	n/a
65.786	0.105	131572	keystroke_e	e	n/a
65.846	0.135	131692	keystroke_r	r	n/a
65.966	0.105	131932	keystroke_p	p	n/a
66.0565	0.1045	132113	keystroke_t	t	n/a
66.131	0.09	132262	keystroke_Key.space	Key.space	n/a
66.221	0.12	132442	keystroke_i	i	n/a
66.2815	0.1045	132563	keystroke_n	n	n/a
66.356	0.105	132712	keystroke_f	f	n/a
66.416	0.15	132832	keystroke_a	a	n/a
66.536	0.09	133072	keystroke_n	n	n/a
66.596	0.12	133192	keystroke_t	t	n/a
66.671	0.12	133342	keystroke_Key.space	Key.space	n/a
66.7915	0.0745	133583	keystroke_h	h	n/a
66.896	0.15	133792	keystroke_a	a	n/a
67.016	0.09	134032	keystroke_m	m	n/a
67.166	0.09	134332	keystroke_p	p	n/a
67.271	0.105	134542	keystroke_s	s	n/a
67.3465	0.1045	134693	keystroke_h	h	n/a
67.406	0.09	134812	keystroke_i	i	n/a
67.481	0.1045	134962	keystroke_r	r	n/a
67.541	0.105	135082	keystroke_e	e	n/a
67.661	0.06	135322	keystroke_Key.enter	Key.enter	n/a
67.7285	3.9395	135457	prompt	n/a	href adopt michael promoting\n
68.276	0.075	136552	keystroke_h	h	n/a
68.396	0.12	136792	keystroke_r	r	n/a
68.5315	0.1345	137063	keystroke_e	e	n/a
68.636	0.135	137272	keystroke_f	f	n/a
68.786	0.06	137572	keystroke_Key.space	Key.space	n/a
68.8315	0.1345	137663	keystroke_a	a	n/a
68.951	0.12	137902	keystroke_d	d	n/a
69.056	0.12	138112	keystroke_o	o	n/a
69.131	0.105	138262	keystroke_p	p	n/a
69.191	0.105	138382	keystroke_t	t	n/a
69.266	0.0895	138532	keystroke_Key.space	Key.space	n/a
69.431	0.135	138862	keystroke_m	m	n/a
69.551	0.09	139102	keystroke_i	i	n/a
69.626	0.09	139252	keystroke_c	c	n/a
69.731	0.09	139462	keystroke_h	h	n/a
69.806	0.12	139612	keystroke_a	a	n/a
69.881	0.15	139762	keystroke_e	e	n/a
70.002	0.074	140004	keystroke_l	l	n/a
70.091	0.09	140182	keystroke_Key.space	Key.space	n/a
70.196	0.0895	140392	keystroke_p	p	n/a
70.346	0.1045	140692	keystroke_r	r	n/a
70.421	0.12	140842	keystroke_o	o	n/a
70.556	0.1345	141112	keystroke_m	m	n/a
70.706	0.12	141412	keystroke_o	o	n/a
71.261	0.105	142522	keystroke_t	t	n/a
71.321	0.105	142642	keystroke_i	i	n/a
71.381	0.09	142762	keystroke_n	n	n/a
71.486	0.075	142972	keystroke_g	g	n/a
71.591	0.075	143182	keystroke_Key.enter	Key.enter	n/a
71.675	3.398	143350	prompt	n/a	steam avoid calls notifications\n
72.236	0.12	144472	keystroke_s	s	n/a
72.341	0.135	144682	keystroke_t	t	n/a
72.416	0.1345	144832	keystroke_e	e	n/a
72.506	0.1795	145012	keystroke_a	a	n/a
72.596	0.09	145192	keystroke_m	m	n/a
72.731	0.1045	145462	keystroke_Key.space	Key.space	n/a
72.821	0.165	145642	keystroke_a	a	n/a
72.926	0.105	145852	keystroke_v	v	n/a
73.016	0.105	146032	keystroke_o	o	n/a
73.061	0.15	146122	keystroke_i	i	n/a
73.136	0.09	146272	keystroke_d	d	n/a
73.211	0.06	146422	keystroke_Key.space	Key.space	n/a
73.316	0.09	146632	keystroke_c	c	n/a
73.421	0.18	146842	keystroke_a	a	n/a
73.526	0.06	147052	keystroke_l	l	n/a
73.631	0.09	147262	keystroke_l	l	n/a
73.706	0.12	147412	keystroke_s	s	n/a
73.7815	0.0895	147563	keystroke_Key.space	Key.space	n/a
73.8565	0.0895	147713	keystroke_n	n	n/a
73.916	0.105	147832	keystroke_o	o	n/a
73.991	0.105	147982	keystroke_t	t	n/a
74.126	0.09	148252	keystroke_i	i	n/a
74.171	0.105	148342	keystroke_f	f	n/a
74.291	0.09	148582	keystroke_i	i	n/a
74.3665	0.0745	148733	keystroke_c	c	n/a
74.456	0.18	148912	keystroke_a	a	n/a
74.561	0.12	149122	keystroke_t	t	n/a
74.636	0.18	149272	keystroke_i	i	n/a
74.711	0.12	149422	keystroke_o	o	n/a
74.786	0.09	149572	keystroke_n	n	n/a
74.8315	0.1195	149663	keystroke_s	s	n/a
74.981	0.09	149962	keystroke_Key.enter	Key.enter	n/a
75.0795	4.613	150159	prompt	n/a	finite solely perceived medical\n
75.656	0.12	151312	keystroke_f	f	n/a
75.791	0.105	151582	keystroke_i	i	n/a
75.836	0.12	151672	keystroke_n	n	n/a
75.986	0.105	151972	keystroke_i	i	n/a
76.076	0.135	152152	keystroke_t	t	n/a
76.151	0.105	152302	keystroke_e	e	n/a
76.241	0.075	152482	keystroke_Key.space	Key.space	n/a
76.3315	0.1195	152663	keystroke_s	s	n/a
76.391	0.075	152782	keystroke_o	o	n/a
76.556	0.075	153112	keystroke_l	l	n/a
76.616	0.12	153232	keystroke_e	e	n/a
76.751	0.105	153502	keystroke_l	l	n/a
76.826	0.09	153652	keystroke_y	y	n/a
76.9465	0.0895	153893	keystroke_Key.space	Key.space	n/a
77.0215	0.1045	154043	keystroke_p	p	n/a
77.141	0.105	154282	keystroke_r	r	n/a
77.216	0.09	154432	keystroke_e	e	n/a
77.471	0.06	154942	keystroke_Key.backspace	Key.backspace	n/a
77.606	0.075	155212	keystroke_Key.backspace	Key.backspace	n/a
77.726	0.105	155452	keystroke_e	e	n/a
77.801	0.09	155602	keystroke_r	r	n/a
77.996	0.075	155992	keystroke_c	c	n/a
78.176	0.12	156352	keystroke_e	e	n/a
78.281	0.09	156562	keystroke_i	i	n/a
78.386	0.12	156772	keystroke_v	v	n/a
78.521	0.075	157042	keystroke_e	e	n/a
78.6565	0.1045	157313	keystroke_d	d	n/a
78.746	0.105	157492	keystroke_Key.space	Key.space	n/a
78.8365	0.0745	157673	keystroke_m	m	n/a
78.926	0.075	157852	keystroke_e	e	n/a
79.076	0.09	158152	keystroke_d	d	n/a
79.1815	0.089	158363	keystroke_i	i	n/a
79.256	0.075	158512	keystroke_c	c	n/a
79.361	0.135	158722	keystroke_a	a	n/a
79.436	0.075	158872	keystroke_l	l	n/a
79.601	0.09	159202	keystroke_Key.enter	Key.enter	n/a
79.6985	4.479	159397	prompt	n/a	lakes diamond iran handheld\n
80.291	0.105	160582	keystroke_l	l	n/a
80.3815	0.1345	160763	keystroke_a	a	n/a
80.486	0.0905	160972	keystroke_k	k	n/a
80.531	0.135	161062	keystroke_e	e	n/a
80.606	0.105	161212	keystroke_s	s	n/a
80.681	0.09	161362	keystroke_Key.space	Key.space	n/a
80.801	0.09	161602	keystroke_d	d	n/a
80.906	0.105	161812	keystroke_i	i	n/a
80.981	0.165	161962	keystroke_a	a	n/a
81.101	0.105	162202	keystroke_m	m	n/a
81.281	0.12	162562	keystroke_o	o	n/a
81.386	0.03	162772	keystroke_n	n	n/a
81.746	0.09	163492	keystroke_Key.backspace	Key.backspace	n/a
81.911	0.075	163822	keystroke_Key.backspace	Key.backspace	n/a
82.301	0.09	164602	keystroke_o	o	n/a
82.376	0.075	164752	keystroke_n	n	n/a
82.466	0.135	164932	keystroke_d	d	n/a
82.571	0.105	165142	keystroke_Key.space	Key.space	n/a
82.6765	0.0745	165353	keystroke_i	i	n/a
82.766	0.09	165532	keystroke_r	r	n/a
82.841	0.165	165682	keystroke_a	a	n/a
82.901	0.09	165802	keystroke_n	n	n/a
83.0215	0.0895	166043	keystroke_Key.space	Key.space	n/a
83.1265	0.0745	166253	keystroke_h	h	n/a
83.216	0.12	166432	keystroke_a	a	n/a
83.291	0.075	166582	keystroke_n	n	n/a
83.3965	0.1045	166793	keystroke_d	d	n/a
83.696	0.075	167392	keystroke_h	h	n/a
83.816	0.09	167632	keystroke_e	e	n/a
83.891	0.09	167782	keystroke_l	l	n/a
83.9965	0.0745	167993	keystroke_d	d	n/a
84.101	0.075	168202	keystroke_Key.enter	Key.enter	n/a
84.1835	4.6295	168367	prompt	n/a	dean surprised forwarding lemon\n
84.851	0.06	169702	keystroke_d	d	n/a
85.016	0.09	170032	keystroke_e	e	n/a
85.076	0.165	170152	keystroke_a	a	n/a
85.181	0.09	170362	keystroke_n	n	n/a
85.286	0.075	170572	keystroke_Key.space	Key.space	n/a
85.361	0.12	170722	keystroke_s	s	n/a
85.4815	0.0895	170963	keystroke_u	u	n/a
85.586	0.09	171172	keystroke_r	r	n/a
85.646	0.105	171292	keystroke_p	p	n/a
85.766	0.105	171532	keystroke_r	r	n/a
85.856	0.09	171712	keystroke_i	i	n/a
85.961	0.105	171922	keystroke_s	s	n/a
86.066	0.075	172132	keystroke_e	e	n/a
86.216	0.09	172432	keystroke_d	d	n/a
86.276	0.105	172552	keystroke_Key.space	Key.space	n/a
86.396	0.075	172792	keystroke_f	f	n/a
86.516	0.09	173032	keystroke_o	o	n/a
86.621	0.135	173242	keystroke_r	r	n/a
86.726	0.15	173452	keystroke_w	w	n/a
86.816	0.1495	173632	keystroke_a	a	n/a
86.906	0.09	173812	keystroke_r	r	n/a
87.041	0.12	174082	keystroke_d	d	n/a
87.1465	0.1195	174293	keystroke_i	i	n/a
87.206	0.09	174412	keystroke_n	n	n/a
87.281	0.105	174562	keystroke_g	g	n/a
87.341	0.105	174682	keystroke_Key.space	Key.space	n/a
87.476	0.06	174952	keystroke_h	h	n/a
87.6115	0.1195	175223	keystroke_l	l	n/a
87.896	0.06	175792	keystroke_Key.backspace	Key.backspace	n/a
88.031	0.0745	176062	keystroke_Key.backspace	Key.backspace	n/a
88.256	0.075	176512	keystroke_l	l	n/a
88.316	0.12	176632	keystroke_e	e	n/a
88.391	0.09	176782	keystroke_m	m	n/a
88.496	0.105	176992	keystroke_o	o	n/a
88.571	0.075	177142	keystroke_n	n	n/a
88.736	0.075	177472	keystroke_Key.enter	Key.enter	n/a
88.818	5.499	177636	prompt	n/a	museums conducting eleven perspective\n
89.396	0.075	178792	keystroke_m	m	n/a
89.591	0.0755	179182	keystroke_u	u	n/a
89.711	0.15	179422	keystroke_s	s	n/a
89.846	0.12	179692	keystroke_e	e	n/a
89.9215	0.0895	179843	keystroke_u	u	n/a
90.116	0.09	180232	keystroke_m	m	n/a
90.221	0.09	180442	keystroke_s	s	n/a
90.281	0.09	180562	keystroke_Key.space	Key.space	n/a
90.431	0.09	180862	keystroke_c	c	n/a
90.491	0.105	180982	keystroke_o	o	n/a
90.5365	0.1045	181073	keystroke_n	n	n/a
90.641	0.09	181282	keystroke_d	d	n/a
90.746	0.09	181492	keystroke_u	u	n/a
90.836	0.09	181672	keystroke_c	c	n/a
91.016	0.09	182032	keystroke_t	t	n/a
91.091	0.105	182182	keystroke_i	i	n/a
91.136	0.105	182272	keystroke_n	n	n/a
91.226	0.135	182452	keystroke_g	g	n/a
91.301	0.075	182602	keystroke_Key.space	Key.space	n/a
91.391	0.15	182782	keystroke_e	e	n/a
91.616	0.105	183232	keystroke_l	l	n/a
91.886	0.105	183772	keystroke_e	e	n/a
91.9615	0.1195	183923	keystroke_v	v	n/a
92.096	0.06	184192	keystroke_e	e	n/a
92.216	0.09	184432	keystroke_n	n	n/a
92.546	0.105	185092	keystroke_Key.space	Key.space	n/a
92.846	0.12	185692	keystroke_p	p	n/a
92.981	0.165	185962	keystroke_e	e	n/a
93.101	0.12	186202	keystroke_r	r	n/a
93.206	0.12	186412	keystroke_s	s	n/a
93.311	0.105	186622	keystroke_p	p	n/a
93.431	0.045	186862	keystroke_e	e	n/a
93.596	0.06	187192	keystroke_c	c	n/a
93.746	0.105	187492	keystroke_t	t	n/a
93.866	0.06	187732	keystroke_i	i	n/a
93.956	0.12	187912	keystroke_v	v	n/a
94.031	0.12	188062	keystroke_e	e	n/a
94.256	0.06	188512	keystroke_Key.enter	Key.enter	n/a
94.3285	4.594	188657	prompt	n/a	contributors route boulevard accuracy\n
94.991	0.075	189982	keystroke_c	c	n/a
95.066	0.105	190132	keystroke_o	o	n/a
95.096	0.135	190192	keystroke_n	n	n/a
95.186	0.09	190372	keystroke_t	t	n/a
95.336	0.09	190672	keystroke_r	r	n/a
95.441	0.12	190882	keystroke_i	i	n/a
95.531	0.06	191062	keystroke_b	b	n/a
95.6365	0.0895	191273	keystroke_u	u	n/a
95.711	0.09	191422	keystroke_t	t	n/a
95.831	0.09	191662	keystroke_o	o	n/a
95.876	0.135	191752	keystroke_r	r	n/a
95.951	0.1495	191902	keystroke_s	s	n/a
96.041	0.105	192082	keystroke_Key.space	Key.space	n/a
96.161	0.1195	192322	keystroke_r	r	n/a
96.266	0.075	192532	keystroke_o	o	n/a
96.296	0.105	192592	keystroke_u	u	n/a
96.356	0.12	192712	keystroke_t	t	n/a
96.431	0.105	192862	keystroke_e	e	n/a
96.491	0.105	192982	keystroke_Key.space	Key.space	n/a
96.701	0.09	193402	keystroke_b	b	n/a
96.911	0.075	193822	keystroke_o	o	n/a
96.956	0.075	193912	keystroke_u	u	n/a
97.106	0.105	194212	keystroke_l	l	n/a
97.196	0.12	194392	keystroke_e	e	n/a
97.331	0.0895	194662	keystroke_v	v	n/a
97.466	0.135	194932	keystroke_a	a	n/a
97.556	0.105	195112	keystroke_r	r	n/a
97.676	0.0895	195352	keystroke_d	d	n/a
97.7515	0.0895	195503	keystroke_Key.space	Key.space	n/a
97.9015	0.0895	195803	keystroke_a	a	n/a
98.051	0.045	196102	keystroke_c	c	n/a
98.186	0.09	196372	keystroke_c	c	n/a
98.291	0.105	196582	keystroke_u	u	n/a
98.3815	0.1345	196763	keystroke_r	r	n/a
98.471	0.075	196942	keystroke_a	a	n/a
98.591	0.105	197182	keystroke_c	c	n/a
98.666	0.075	197332	keystroke_y	y	n/a
98.816	0.105	197632	keystroke_Key.enter	Key.enter	n/a
98.928	3.3845	197856	prompt	n/a	performed combo matching lord\n
99.5065	0.1195	199013	keystroke_p	p	n/a
99.581	0.105	199162	keystroke_e	e	n/a
99.656	0.0895	199312	keystroke_r	r	n/a
99.806	0.09	199612	keystroke_f	f	n/a
99.911	0.105	199822	keystroke_o	o	n/a
99.971	0.1195	199942	keystroke_r	r	n/a
100.076	0.09	200152	keystroke_m	m	n/a
100.136	0.075	200272	keystroke_e	e	n/a
100.286	0.09	200572	keystroke_d	d	n/a
100.376	0.09	200752	keystroke_Key.space	Key.space	n/a
100.496	0.09	200992	keystroke_c	c	n/a
100.571	0.105	201142	keystroke_o	o	n/a
100.631	0.105	201262	keystroke_m	m	n/a
100.706	0.0745	201412	keystroke_b	b	n/a
100.826	0.09	201652	keystroke_o	o	n/a
100.946	0.075	201892	keystroke_Key.space	Key.space	n/a
101.036	0.09	202072	keystroke_m	m	n/a
101.141	0.09	202282	keystroke_a	a	n/a
101.171	0.105	202342	keystroke_t	t	n/a
101.381	0.09	202762	keystroke_c	c	n/a
101.426	0.105	202852	keystroke_h	h	n/a
101.516	0.15	203032	keystroke_i	i	n/a
101.606	0.105	203212	keystroke_n	n	n/a
101.651	0.12	203302	keystroke_g	g	n/a
101.741	0.09	203482	keystroke_Key.space	Key.space	n/a
101.786	0.075	203572	keystroke_l	l	n/a
101.921	0.105	203842	keystroke_o	o	n/a
101.996	0.1045	203992	keystroke_r	r	n/a
102.116	0.075	204232	keystroke_d	d	n/a
102.236	0.075	204472	keystroke_Key.enter	Key.enter	n/a
102.3175	7.48	204635	prompt	n/a	beings dealers compiled organisations\n
103.001	0.09	206002	keystroke_b	b	n/a
103.166	0.12	206332	keystroke_e	e	n/a
103.301	0.12	206602	keystroke_i	i	n/a
103.361	0.12	206722	keystroke_n	n	n/a
103.496	0.105	206992	keystroke_g	g	n/a
103.631	0.12	207262	keystroke_s	s	n/a
103.721	0.105	207442	keystroke_Key.space	Key.space	n/a
103.916	0.06	207832	keystroke_d	d	n/a
104.141	0.075	208282	keystroke_e	e	n/a
104.321	0.12	208642	keystroke_a	a	n/a
104.411	0.105	208822	keystroke_l	l	n/a
104.516	0.0895	209032	keystroke_e	e	n/a
104.576	0.12	209152	keystroke_r	r	n/a
104.636	0.135	209272	keystroke_s	s	n/a
104.7265	0.104	209453	keystroke_Key.space	Key.space	n/a
104.891	0.0895	209782	keystroke_c	c	n/a
104.951	0.09	209902	keystroke_o	o	n/a
105.011	0.15	210022	keystroke_m	m	n/a
105.1015	0.119	210203	keystroke_p	p	n/a
105.206	0.195	210412	keystroke_i	i	n/a
105.296	0.135	210592	keystroke_l	l	n/a
105.386	0.075	210772	keystroke_e	e	n/a
105.521	0.105	211042	keystroke_d	d	n/a
105.611	0.09	211222	keystroke_Key.space	Key.space	n/a
105.7765	0.1045	211553	keystroke_o	o	n/a
105.911	0.075	211822	keystroke_r	r	n/a
106.076	0.075	212152	keystroke_g	g	n/a
106.121	0.12	212242	keystroke_a	a	n/a
106.211	0.105	212422	keystroke_n	n	n/a
106.2865	0.1195	212573	keystroke_i	i	n/a
107.171	0.075	214342	keystroke_s	s	n/a
107.276	0.165	214552	keystroke_a	a	n/a
107.411	0.1195	214822	keystroke_t	t	n/a
107.546	0.1495	215092	keystroke_i	i	n/a
107.591	0.1195	215182	keystroke_o	o	n/a
107.741	0.075	215482	keystroke_s	s	n/a
107.936	0.0595	215872	keystroke_Key.backspace	Key.backspace	n/a
108.101	0.09	216202	keystroke_Key.backspace	Key.backspace	n/a
108.251	0.075	216502	keystroke_Key.backspace	Key.backspace	n/a
108.401	0.06	216802	keystroke_Key.backspace	Key.backspace	n/a
108.536	0.0595	217072	keystroke_Key.backspace	Key.backspace	n/a
108.731	0.06	217462	keystroke_Key.backspace	Key.backspace	n/a
108.986	0.1045	217972	keystroke_z	z	n/a
109.196	0.1345	218392	keystroke_a	a	n/a
109.2715	0.1195	218543	keystroke_t	t	n/a
109.346	0.165	218692	keystroke_i	i	n/a
109.406	0.12	218812	keystroke_o	o	n/a
109.481	0.075	218962	keystroke_n	n	n/a
109.541	0.0895	219082	keystroke_s	s	n/a
109.736	0.06	219472	keystroke_Key.enter	Key.enter	n/a
109.803	2.755	219606	prompt	n/a	over roster rules euros\n
110.456	0.0895	220912	keystroke_o	o	n/a
110.531	0.09	221062	keystroke_v	v	n/a
110.681	0.12	221362	keystroke_e	e	n/a
110.741	0.12	221482	keystroke_r	r	n/a
110.8165	0.104	221633	keystroke_Key.space	Key.space	n/a
110.936	0.15	221872	keystroke_r	r	n/a
111.026	0.1045	222052	keystroke_o	o	n/a
111.1015	0.1045	222203	keystroke_s	s	n/a
111.176	0.0895	222352	keystroke_t	t	n/a
111.281	0.12	222562	keystroke_e	e	n/a
111.356	0.09	222712	keystroke_r	r	n/a
111.416	0.12	222832	keystroke_Key.space	Key.space	n/a
111.521	0.12	223042	keystroke_r	r	n/a
111.596	0.105	223192	keystroke_u	u	n/a
111.686	0.105	223372	keystroke_l	l	n/a
111.716	0.15	223432	keystroke_e	e	n/a
111.7915	0.1345	223583	keystroke_s	s	n/a
111.866	0.09	223732	keystroke_Key.space	Key.space	n/a
112.001	0.12	224002	keystroke_e	e	n/a
112.0765	0.104	224153	keystroke_u	u	n/a
112.196	0.1195	224392	keystroke_r	r	n/a
112.256	0.0895	224512	keystroke_o	o	n/a
112.361	0.12	224722	keystroke_s	s	n/a
112.496	0.06	224992	keystroke_Key.enter	Key.enter	n/a
112.5635	3.879	225127	prompt	n/a	executives spring masters sometimes\n
113.171	0.09	226342	keystroke_e	e	n/a
113.3365	0.1045	226673	keystroke_x	x	n/a
113.501	0.075	227002	keystroke_e	e	n/a
113.666	0.09	227332	keystroke_c	c	n/a
113.771	0.09	227542	keystroke_u	u	n/a
113.831	0.09	227662	keystroke_t	t	n/a
113.9665	0.1045	227933	keystroke_i	i	n/a
114.011	0.105	228022	keystroke_v	v	n/a
114.131	0.09	228262	keystroke_e	e	n/a
114.161	0.1195	228322	keystroke_s	s	n/a
114.251	0.09	228502	keystroke_Key.space	Key.space	n/a
114.3715	0.1045	228743	keystroke_s	s	n/a
114.431	0.105	228862	keystroke_p	p	n/a
114.536	0.105	229072	keystroke_r	r	n/a
114.626	0.1045	229252	keystroke_i	i	n/a
114.686	0.09	229372	keystroke_n	n	n/a
114.7165	0.1345	229433	keystroke_g	g	n/a
114.821	0.09	229642	keystroke_Key.space	Key.space	n/a
114.896	0.105	229792	keystroke_m	m	n/a
114.986	0.15	229972	keystroke_a	a	n/a
115.106	0.09	230212	keystroke_s	s	n/a
115.151	0.105	230302	keystroke_t	t	n/a
115.2715	0.1045	230543	keystroke_e	e	n/a
115.361	0.1195	230722	keystroke_r	r	n/a
115.466	0.105	230932	keystroke_s	s	n/a
115.556	0.045	231112	keystroke_Key.space	Key.space	n/a
115.676	0.105	231352	keystroke_s	s	n/a
115.736	0.12	231472	keystroke_o	o	n/a
115.796	0.12	231592	keystroke_m	m	n/a
115.871	0.135	231742	keystroke_e	e	n/a
115.961	0.1195	231922	keystroke_t	t	n/a
116.066	0.105	232132	keystroke_i	i	n/a
116.126	0.1055	232252	keystroke_m	m	n/a
116.156	0.12	232312	keystroke_e	e	n/a
116.2315	0.1045	232463	keystroke_s	s	n/a
116.351	0.09	232702	keystroke_Key.enter	Key.enter	n/a
116.4475	3.925	232895	prompt	n/a	lung astrology compaq nomination\n
117.011	0.105	234022	keystroke_l	l	n/a
117.101	0.09	234202	keystroke_u	u	n/a
117.266	0.105	234532	keystroke_n	n	n/a
117.341	0.1045	234682	keystroke_g	g	n/a
117.431	0.09	234862	keystroke_Key.space	Key.space	n/a
117.491	0.165	234982	keystroke_a	a	n/a
117.566	0.135	235132	keystroke_s	s	n/a
117.671	0.075	235342	keystroke_t	t	n/a
117.821	0.12	235642	keystroke_r	r	n/a
117.881	0.075	235762	keystroke_o	o	n/a
118.031	0.075	236062	keystroke_l	l	n/a
118.181	0.09	236362	keystroke_o	o	n/a
118.286	0.12	236572	keystroke_g	g	n/a
118.346	0.12	236692	keystroke_y	y	n/a
118.481	0.06	236962	keystroke_Key.space	Key.space	n/a
118.571	0.135	237142	keystroke_c	c	n/a
118.646	0.0895	237292	keystroke_o	o	n/a
118.676	0.15	237352	keystroke_m	m	n/a
118.796	0.105	237592	keystroke_p	p	n/a
118.886	0.105	237772	keystroke_a	a	n/a
119.0815	0.119	238163	keystroke_q	q	n/a
119.2165	0.1045	238433	keystroke_Key.space	Key.space	n/a
119.351	0.12	238702	keystroke_n	n	n/a
119.456	0.1045	238912	keystroke_o	o	n/a
119.546	0.15	239092	keystroke_m	m	n/a
119.651	0.135	239302	keystroke_i	i	n/a
119.742	0.104	239484	keystroke_n	n	n/a
119.801	0.1495	239602	keystroke_a	a	n/a
119.891	0.12	239782	keystroke_t	t	n/a
119.9665	0.1645	239933	keystroke_i	i	n/a
120.026	0.1195	240052	keystroke_o	o	n/a
120.086	0.105	240172	keystroke_n	n	n/a
120.266	0.105	240532	keystroke_Key.enter	Key.enter	n/a
120.378	2.9795	240756	prompt	n/a	emperor menu will cams\n
120.986	0.09	241972	keystroke_e	e	n/a
121.061	0.135	242122	keystroke_m	m	n/a
121.181	0.135	242362	keystroke_p	p	n/a
121.331	0.105	242662	keystroke_e	e	n/a
121.391	0.12	242782	keystroke_r	r	n/a
121.526	0.06	243052	keystroke_o	o	n/a
121.571	0.135	243142	keystroke_r	r	n/a
121.6915	0.1045	243383	keystroke_Key.space	Key.space	n/a
121.751	0.12	243502	keystroke_m	m	n/a
121.8865	0.1045	243773	keystroke_e	e	n/a
121.946	0.075	243892	keystroke_n	n	n/a
122.126	0.09	244252	keystroke_u	u	n/a
122.201	0.0745	244402	keystroke_Key.space	Key.space	n/a
122.291	0.105	244582	keystroke_w	w	n/a
122.3665	0.059	244733	keystroke_i	i	n/a
122.501	0.045	245002	keystroke_l	l	n/a
122.606	0.0895	245212	keystroke_l	l	n/a
122.741	0.075	245482	keystroke_Key.space	Key.space	n/a
122.831	0.09	245662	keystroke_c	c	n/a
122.936	0.1345	245872	keystroke_a	a	n/a
123.011	0.075	246022	keystroke_m	m	n/a
123.101	0.135	246202	keystroke_s	s	n/a
123.281	0.075	246562	keystroke_Key.enter	Key.enter	n/a
123.3625	4.0145	246725	prompt	n/a	experience cape kill dominican\n
123.9415	0.104	247883	keystroke_e	e	n/a
124.181	0.09	248362	keystroke_x	x	n/a
124.316	0.09	248632	keystroke_p	p	n/a
124.421	0.12	248842	keystroke_e	e	n/a
124.526	0.135	249052	keystroke_r	r	n/a
124.646	0.075	249292	keystroke_i	i	n/a
124.736	0.0895	249472	keystroke_e	e	n/a
124.841	0.075	249682	keystroke_n	n	n/a
124.931	0.09	249862	keystroke_c	c	n/a
125.081	0.105	250162	keystroke_e	e	n/a
125.171	0.075	250342	keystroke_Key.space	Key.space	n/a
125.291	0.09	250582	keystroke_c	c	n/a
125.411	0.15	250822	keystroke_a	a	n/a
125.501	0.09	251002	keystroke_p	p	n/a
125.6065	0.089	251213	keystroke_e	e	n/a
125.681	0.09	251362	keystroke_Key.space	Key.space	n/a
125.726	0.06	251452	keystroke_k	k	n/a
125.8915	0.0445	251783	keystroke_i	i	n/a
126.026	0.075	252052	keystroke_l	l	n/a
126.161	0.105	252322	keystroke_l	l	n/a
126.281	0.06	252562	keystroke_Key.space	Key.space	n/a
126.356	0.0895	252712	keystroke_d	d	n/a
126.431	0.09	252862	keystroke_o	o	n/a
126.506	0.105	253012	keystroke_m	m	n/a
126.641	0.12	253282	keystroke_i	i	n/a
126.7165	0.1345	253433	keystroke_n	n	n/a
126.836	0.105	253672	keystroke_i	i	n/a
126.956	0.105	253912	keystroke_c	c	n/a
127.076	0.135	254152	keystroke_a	a	n/a
127.1515	0.0745	254303	keystroke_n	n	n/a
127.301	0.0745	254602	keystroke_Key.enter	Key.enter	n/a
127.3825	3.7445	254765	prompt	n/a	gerald subject node freeware\n
127.946	0.09	255892	keystroke_g	g	n/a
128.051	0.1645	256102	keystroke_e	e	n/a
128.201	0.12	256402	keystroke_r	r	n/a
128.351	0.135	256702	keystroke_a	a	n/a
128.441	0.09	256882	keystroke_l	l	n/a
128.546	0.12	257092	keystroke_d	d	n/a
128.651	0.075	257302	keystroke_Key.space	Key.space	n/a
128.771	0.12	257542	keystroke_s	s	n/a
128.876	0.105	257752	keystroke_u	u	n/a
128.9965	0.0895	257993	keystroke_b	b	n/a
129.1015	0.1045	258203	keystroke_j	j	n/a
129.176	0.0895	258352	keystroke_e	e	n/a
129.356	0.091	258712	keystroke_c	c	n/a
129.506	0.135	259012	keystroke_t	t	n/a
129.5965	0.1045	259193	keystroke_Key.space	Key.space	n/a
129.686	0.09	259372	keystroke_n	n	n/a
129.748	0.103	259496	keystroke_o	o	n/a
129.791	0.09	259582	keystroke_d	d	n/a
129.941	0.105	259882	keystroke_e	e	n/a
130.0315	0.1045	260063	keystroke_Key.space	Key.space	n/a
130.121	0.075	260242	keystroke_f	f	n/a
130.271	0.105	260542	keystroke_r	r	n/a
130.316	0.075	260632	keystroke_e	e	n/a
130.466	0.15	260932	keystroke_e	e	n/a
130.616	0.135	261232	keystroke_w	w	n/a
130.691	0.18	261382	keystroke_a	a	n/a
130.796	0.105	261592	keystroke_r	r	n/a
130.856	0.09	261712	keystroke_e	e	n/a
131.036	0.09	262072	keystroke_Key.enter	Key.enter	n/a
131.1325	4.15	262265	prompt	n/a	wellington links pension movement\n
131.6815	0.1195	263363	keystroke_w	w	n/a
131.951	0.105	263902	keystroke_e	e	n/a
132.086	0.09	264172	keystroke_l	l	n/a
132.266	0.075	264532	keystroke_l	l	n/a
132.341	0.15	264682	keystroke_i	i	n/a
132.416	0.12	264832	keystroke_n	n	n/a
132.521	0.06	265042	keystroke_g	g	n/a
132.641	0.1345	265282	keystroke_t	t	n/a
132.7315	0.1045	265463	keystroke_o	o	n/a
132.791	0.105	265582	keystroke_n	n	n/a
132.8965	0.0895	265793	keystroke_Key.space	Key.space	n/a
133.001	0.12	266002	keystroke_l	l	n/a
133.076	0.12	266152	keystroke_i	i	n/a
133.1365	0.0895	266273	keystroke_n	n	n/a
133.2865	0.0895	266573	keystroke_k	k	n/a
133.361	0.09	266722	keystroke_s	s	n/a
133.421	0.105	266842	keystroke_Key.space	Key.space	n/a
133.526	0.105	267052	keystroke_p	p	n/a
133.6015	0.0895	267203	keystroke_e	e	n/a
133.7065	0.1045	267413	keystroke_n	n	n/a
133.7815	0.1045	267563	keystroke_s	s	n/a
133.901	0.15	267802	keystroke_i	i	n/a
133.961	0.135	267922	keystroke_o	o	n/a
134.0215	0.1045	268043	keystroke_n	n	n/a
134.1415	0.1045	268283	keystroke_Key.space	Key.space	n/a
134.216	0.12	268432	keystroke_m	m	n/a
134.306	0.12	268612	keystroke_o	o	n/a
134.396	0.075	268792	keystroke_v	v	n/a
134.456	0.09	268912	keystroke_e	e	n/a
134.576	0.105	269152	keystroke_m	m	n/a
134.636	0.165	269272	keystroke_e	e	n/a
134.7875	0.0735	269575	keystroke_n	n	n/a
134.876	0.09	269752	keystroke_t	t	n/a
135.206	0.075	270412	keystroke_Key.enter	Key.enter	n/a
135.2885	4.389	270577	prompt	n/a	promote represents silk accessed\n
135.896	0.105	271792	keystroke_p	p	n/a
135.986	0.09	271972	keystroke_r	r	n/a
136.076	0.105	272152	keystroke_o	o	n/a
136.1515	0.1345	272303	keystroke_m	m	n/a
136.256	0.105	272512	keystroke_o	o	n/a
136.346	0.135	272692	keystroke_t	t	n/a
136.4365	0.1195	272873	keystroke_e	e	n/a
136.511	0.09	273022	keystroke_Key.space	Key.space	n/a
136.631	0.12	273262	keystroke_r	r	n/a
136.7065	0.1195	273413	keystroke_e	e	n/a
136.841	0.12	273682	keystroke_p	p	n/a
136.976	0.09	273952	keystroke_r	r	n/a
137.036	0.105	274072	keystroke_e	e	n/a
137.111	0.195	274222	keystroke_s	s	n/a
137.231	0.12	274462	keystroke_e	e	n/a
137.3215	0.1045	274643	keystroke_n	n	n/a
137.412	0.134	274824	keystroke_t	t	n/a
137.516	0.09	275032	keystroke_s	s	n/a
137.576	0.09	275152	keystroke_Key.space	Key.space	n/a
137.6965	0.0895	275393	keystroke_s	s	n/a
137.771	0.135	275542	keystroke_i	i	n/a
137.876	0.15	275752	keystroke_l	l	n/a
138.011	0.12	276022	keystroke_k	k	n/a
138.266	0.09	276532	keystroke_Key.space	Key.space	n/a
138.4315	0.1045	276863	keystroke_a	a	n/a
138.596	0.075	277192	keystroke_c	c	n/a
138.7315	0.0745	277463	keystroke_c	c	n/a
138.896	0.06	277792	keystroke_e	e	n/a
139.031	0.075	278062	keystroke_s	s	n/a
139.2115	0.0895	278423	keystroke_s	s	n/a
139.286	0.1045	278572	keystroke_e	e	n/a
139.436	0.09	278872	keystroke_d	d	n/a
139.5865	0.0895	279173	keystroke_Key.enter	Key.enter	n/a
139.683	3.3695	279366	prompt	n/a	ensures manner allowing manual\n
140.186	0.09	280372	keystroke_e	e	n/a
140.291	0.075	280582	keystroke_n	n	n/a
140.366	0.12	280732	keystroke_s	s	n/a
140.501	0.09	281002	keystroke_u	u	n/a
140.5615	0.1645	281123	keystroke_r	r	n/a
140.6215	0.1495	281243	keystroke_e	e	n/a
140.726	0.09	281452	keystroke_s	s	n/a
140.771	0.105	281542	keystroke_Key.space	Key.space	n/a
140.9065	0.0895	281813	keystroke_m	m	n/a
141.0115	0.1345	282023	keystroke_a	a	n/a
141.101	0.06	282202	keystroke_n	n	n/a
141.221	0.09	282442	keystroke_n	n	n/a
141.296	0.12	282592	keystroke_e	e	n/a
141.371	0.09	282742	keystroke_r	r	n/a
141.431	0.075	282862	keystroke_Key.space	Key.space	n/a
141.491	0.15	282982	keystroke_a	a	n/a
141.611	0.06	283222	keystroke_l	l	n/a
141.7315	0.0445	283463	keystroke_l	l	n/a
141.866	0.075	283732	keystroke_o	o	n/a
141.956	0.165	283912	keystroke_w	w	n/a
142.046	0.135	284092	keystroke_i	i	n/a
142.106	0.105	284212	keystroke_n	n	n/a
142.1665	0.1195	284333	keystroke_g	g	n/a
142.2265	0.1345	284453	keystroke_Key.space	Key.space	n/a
142.331	0.075	284662	keystroke_m	m	n/a
142.436	0.12	284872	keystroke_a	a	n/a
142.4965	0.0745	284993	keystroke_n	n	n/a
142.661	0.075	285322	keystroke_u	u	n/a
142.751	0.135	285502	keystroke_a	a	n/a
142.841	0.06	285682	keystroke_l	l	n/a
142.976	0.075	285952	keystroke_Key.enter	Key.enter	n/a
143.058	4.78	286116	prompt	n/a	characterized scottish generators timeline\n
143.741	0.09	287482	keystroke_c	c	n/a
143.8615	0.0895	287723	keystroke_h	h	n/a
143.9225	0.1035	287845	keystroke_a	a	n/a
143.9965	0.1045	287993	keystroke_r	r	n/a
144.0865	0.0895	288173	keystroke_a	a	n/a
144.236	0.09	288472	keystroke_c	c	n/a
144.371	0.12	288742	keystroke_t	t	n/a
144.476	0.12	288952	keystroke_e	e	n/a
144.5515	0.1195	289103	keystroke_r	r	n/a
144.6415	0.0895	289283	keystroke_i	i	n/a
144.731	0.1055	289462	keystroke_z	z	n/a
144.822	0.0745	289644	keystroke_e	e	n/a
144.971	0.09	289942	keystroke_d	d	n/a
145.0465	0.0895	290093	keystroke_Key.space	Key.space	n/a
145.151	0.075	290302	keystroke_s	s	n/a
145.271	0.105	290542	keystroke_c	c	n/a
145.406	0.0905	290812	keystroke_o	o	n/a
145.5115	0.0595	291023	keystroke_t	t	n/a
145.631	0.12	291262	keystroke_t	t	n/a
145.7365	0.0745	291473	keystroke_i	i	n/a
145.796	0.135	291592	keystroke_s	s	n/a
145.9015	0.0745	291803	keystroke_h	h	n/a
145.9615	0.0895	291923	keystroke_Key.space	Key.space	n/a
146.021	0.09	292042	keystroke_g	g	n/a
146.141	0.105	292282	keystroke_e	e	n/a
146.276	0.075	292552	keystroke_n	n	n/a
146.336	0.135	292672	keystroke_e	e	n/a
146.4115	0.0895	292823	keystroke_r	r	n/a
146.4865	0.1345	292973	keystroke_a	a	n/a
146.561	0.105	293122	keystroke_t	t	n/a
146.681	0.105	293362	keystroke_o	o	n/a
146.741	0.15	293482	keystroke_r	r	n/a
146.816	0.15	293632	keystroke_s	s	n/a
146.906	0.105	293812	keystroke_Key.space	Key.space	n/a
146.996	0.12	293992	keystroke_t	t	n/a
147.0865	0.1195	294173	keystroke_i	i	n/a
147.146	0.1205	294292	keystroke_m	m	n/a
147.237	0.119	294474	keystroke_e	e	n/a
147.3865	0.1045	294773	keystroke_l	l	n/a
147.4465	0.1345	294893	keystroke_i	i	n/a
147.506	0.1055	295012	keystroke_n	n	n/a
147.566	0.12	295132	keystroke_e	e	n/a
147.7615	0.0745	295523	keystroke_Key.enter	Key.enter	n/a
147.847	4.9855	295694	prompt	n/a	satisfaction younger according serum\n
148.406	0.09	296812	keystroke_s	s	n/a
148.616	0.135	297232	keystroke_a	a	n/a
148.736	0.105	297472	keystroke_t	t	n/a
148.8865	0.0895	297773	keystroke_i	i	n/a
149.261	0.135	298522	keystroke_s	s	n/a
149.441	0.135	298882	keystroke_f	f	n/a
149.5615	0.0895	299123	keystroke_a	a	n/a
149.7115	0.0745	299423	keystroke_c	c	n/a
149.877	0.119	299754	keystroke_t	t	n/a
149.981	0.135	299962	keystroke_i	i	n/a
150.0265	0.1345	300053	keystroke_o	o	n/a
150.086	0.12	300172	keystroke_n	n	n/a
150.221	0.06	300442	keystroke_Key.space	Key.space	n/a
150.3265	0.0745	300653	keystroke_y	y	n/a
150.446	0.105	300892	keystroke_o	o	n/a
150.506	0.105	301012	keystroke_u	u	n/a
150.686	0.09	301372	keystroke_n	n	n/a
150.791	0.06	301582	keystroke_g	g	n/a
150.9115	0.0895	301823	keystroke_e	e	n/a
150.9715	0.1195	301943	keystroke_r	r	n/a
151.046	0.1205	302092	keystroke_Key.space	Key.space	n/a
151.121	0.09	302242	keystroke_a	a	n/a
151.271	0.075	302542	keystroke_c	c	n/a
151.4515	0.06	302903	keystroke_c	c	n/a
151.601	0.09	303202	keystroke_o	o	n/a
151.662	0.134	303324	keystroke_r	r	n/a
151.781	0.105	303562	keystroke_d	d	n/a
151.871	0.135	303742	keystroke_i	i	n/a
151.946	0.09	303892	keystroke_n	n	n/a
151.9765	0.1195	303953	keystroke_g	g	n/a
152.0515	0.1195	304103	keystroke_Key.space	Key.space	n/a
152.1415	0.1795	304283	keystroke_s	s	n/a
152.231	0.135	304462	keystroke_e	e	n/a
152.3065	0.1495	304613	keystroke_r	r	n/a
152.381	0.09	304762	keystroke_u	u	n/a
152.576	0.06	305152	keystroke_m	m	n/a
152.7565	0.0745	305513	keystroke_Key.enter	Key.enter	n/a
152.838	4.8695	305676	prompt	n/a	blowing optics everywhere promotions\n
153.431	0.105	306862	keystroke_b	b	n/a
153.491	0.075	306982	keystroke_l	l	n/a
153.641	0.09	307282	keystroke_o	o	n/a
153.716	0.135	307432	keystroke_w	w	n/a
153.8515	0.1345	307703	keystroke_i	i	n/a
153.9115	0.1045	307823	keystroke_n	n	n/a
153.971	0.12	307942	keystroke_g	g	n/a
154.0315	0.1195	308063	keystroke_Key.space	Key.space	n/a
154.136	0.12	308272	keystroke_o	o	n/a
154.2265	0.09	308453	keystroke_p	p	n/a
154.317	0.104	308634	keystroke_t	t	n/a
154.406	0.105	308812	keystroke_i	i	n/a
154.541	0.15	309082	keystroke_c	c	n/a
154.6615	0.1345	309323	keystroke_s	s	n/a
154.751	0.106	309502	keystroke_Key.space	Key.space	n/a
154.887	0.104	309774	keystroke_e	e	n/a
155.036	0.12	310072	keystroke_v	v	n/a
155.231	0.1205	310462	keystroke_e	e	n/a
155.2915	0.165	310583	keystroke_r	r	n/a
155.381	0.105	310762	keystroke_y	y	n/a
155.501	0.12	311002	keystroke_w	w	n/a
155.606	0.105	311212	keystroke_h	h	n/a
155.681	0.09	311362	keystroke_e	e	n/a
155.741	0.135	311482	keystroke_r	r	n/a
155.8165	0.1345	311633	keystroke_e	e	n/a
155.891	0.12	311782	keystroke_Key.space	Key.space	n/a
155.9665	0.0895	311933	keystroke_p	p	n/a
156.146	0.09	312292	keystroke_o	o	n/a
156.476	0.06	312952	keystroke_Key.backspace	Key.backspace	n/a
156.6265	0.1195	313253	keystroke_r	r	n/a
156.7315	0.0895	313463	keystroke_o	o	n/a
156.851	0.165	313702	keystroke_m	m	n/a
157.001	0.09	314002	keystroke_o	o	n/a
157.1515	0.1195	314303	keystroke_t	t	n/a
157.2415	0.1795	314483	keystroke_i	i	n/a
157.3165	0.1345	314633	keystroke_o	o	n/a
157.376	0.12	314752	keystroke_n	n	n/a
157.511	0.105	315022	keystroke_s	s	n/a
157.631	0.075	315262	keystroke_Key.enter	Key.enter	n/a
157.7135	3.939	315427	prompt	n/a	below expanded arabic pizza\n
158.261	0.09	316522	keystroke_b	b	n/a
158.4265	0.0895	316853	keystroke_e	e	n/a
158.5015	0.0595	317003	keystroke_l	l	n/a
158.6515	0.0895	317303	keystroke_o	o	n/a
158.6815	0.1345	317363	keystroke_w	w	n/a
158.786	0.09	317572	keystroke_Key.space	Key.space	n/a
158.891	0.06	317782	keystroke_e	e	n/a
159.041	0.12	318082	keystroke_x	x	n/a
159.146	0.09	318292	keystroke_p	p	n/a
159.266	0.12	318532	keystroke_a	a	n/a
159.371	0.09	318742	keystroke_n	n	n/a
159.431	0.075	318862	keystroke_d	d	n/a
159.5815	0.0745	319163	keystroke_e	e	n/a
159.7165	0.1195	319433	keystroke_d	d	n/a
159.8215	0.0895	319643	keystroke_Key.space	Key.space	n/a
159.897	0.104	319794	keystroke_a	a	n/a
159.956	0.12	319912	keystroke_r	r	n/a
160.091	0.135	320182	keystroke_a	a	n/a
160.211	0.12	320422	keystroke_b	b	n/a
160.346	0.1055	320692	keystroke_i	i	n/a
160.436	0.12	320872	keystroke_c	c	n/a
160.5415	0.1045	321083	keystroke_Key.space	Key.space	n/a
160.631	0.075	321262	keystroke_p	p	n/a
160.6915	0.1045	321383	keystroke_i	i	n/a
160.8865	0.0595	321773	keystroke_z	z	n/a
161.021	0.09	322042	keystroke_z	z	n/a
161.2165	0.1045	322433	keystroke_a	a	n/a
161.5915	0.0595	323183	keystroke_Key.enter	Key.enter	n/a
161.6575	5.35	323315	prompt	n/a	corrected take challenging forbes\n
162.2515	0.1045	324503	keystroke_c	c	n/a
162.371	0.06	324742	keystroke_o	o	n/a
162.461	0.045	324922	keystroke_r	r	n/a
162.5815	0.105	325163	keystroke_r	r	n/a
162.656	0.075	325312	keystroke_e	e	n/a
162.8515	0.0445	325703	keystroke_c	c	n/a
162.956	0.12	325912	keystroke_t	t	n/a
163.0465	0.0595	326093	keystroke_e	e	n/a
163.1815	0.1045	326363	keystroke_d	d	n/a
163.286	0.0905	326572	keystroke_Key.space	Key.space	n/a
163.3765	0.1195	326753	keystroke_t	t	n/a
163.481	0.135	326962	keystroke_a	a	n/a
163.541	0.105	327082	keystroke_k	k	n/a
163.6315	0.0895	327263	keystroke_e	e	n/a
163.706	0.075	327412	keystroke_Key.space	Key.space	n/a
163.8265	0.1045	327653	keystroke_c	c	n/a
163.9165	0.0745	327833	keystroke_h	h	n/a
164.006	0.105	328012	keystroke_a	a	n/a
164.096	0.06	328192	keystroke_l	l	n/a
164.2315	0.0745	328463	keystroke_l	l	n/a
164.321	0.105	328642	keystroke_e	e	n/a
164.411	0.12	328822	keystroke_n	n	n/a
164.516	0.075	329032	keystroke_g	g	n/a
164.606	0.12	329212	keystroke_i	i	n/a
164.6665	0.1045	329333	keystroke_n	n	n/a
164.7265	0.1045	329453	keystroke_g	g	n/a
164.801	0.09	329602	keystroke_Key.space	Key.space	n/a
164.922	0.089	329844	keystroke_f	f	n/a
165.0265	0.0745	330053	keystroke_o	o	n/a
165.071	0.09	330142	keystroke_r	r	n/a
165.2665	0.1045	330533	keystroke_b	b	n/a
165.386	0.09	330772	keystroke_e	e	n/a
165.431	0.06	330862	keystroke_r	r	n/a
165.4465	0.1195	330893	keystroke_s	s	n/a
166.211	0.06	332422	keystroke_Key.backspace	Key.backspace	n/a
166.391	0.06	332782	keystroke_Key.backspace	Key.backspace	n/a
166.601	0.075	333202	keystroke_s	s	n/a
166.946	0.06	333892	keystroke_Key.enter	Key.enter	n/a
167.014	4.8385	334028	prompt	n/a	socks bernard democrats chrysler\n
167.636	0.09	335272	keystroke_s	s	n/a
167.711	0.09	335422	keystroke_o	o	n/a
167.831	0.165	335662	keystroke_c	c	n/a
167.921	0.09	335842	keystroke_k	k	n/a
168.026	0.0755	336052	keystroke_s	s	n/a
168.071	0.09	336142	keystroke_Key.space	Key.space	n/a
168.192	0.059	336384	keystroke_b	b	n/a
168.326	0.12	336652	keystroke_e	e	n/a
168.4315	0.0895	336863	keystroke_r	r	n/a
168.581	0.09	337162	keystroke_n	n	n/a
168.671	0.135	337342	keystroke_a	a	n/a
168.731	0.105	337462	keystroke_r	r	n/a
168.8665	0.0895	337733	keystroke_d	d	n/a
168.9415	0.0745	337883	keystroke_Key.space	Key.space	n/a
169.0465	0.0745	338093	keystroke_d	d	n/a
169.1965	0.0745	338393	keystroke_e	e	n/a
169.271	0.105	338542	keystroke_m	m	n/a
169.3465	0.1045	338693	keystroke_o	o	n/a
169.421	0.06	338842	keystroke_c	c	n/a
169.556	0.12	339112	keystroke_r	r	n/a
169.661	0.135	339322	keystroke_a	a	n/a
169.7365	0.12	339473	keystroke_t	t	n/a
169.887	0.149	339774	keystroke_s	s	n/a
170.0215	0.0595	340043	keystroke_Key.space	Key.space	n/a
170.186	0.09	340372	keystroke_c	c	n/a
170.3365	0.0895	340673	keystroke_h	h	n/a
170.471	0.075	340942	keystroke_r	r	n/a
170.577	0.074	341154	keystroke_y	y	n/a
170.681	0.12	341362	keystroke_s	s	n/a
170.8165	0.0895	341633	keystroke_l	l	n/a
170.921	0.105	341842	keystroke_e	e	n/a
170.9965	0.1045	341993	keystroke_r	r	n/a
171.776	0.075	343552	keystroke_Key.enter	Key.enter	n/a
171.857	3.401	343714	prompt	n/a	module corpus drunk moments\n
172.481	0.09	344962	keystroke_m	m	n/a
172.5565	0.0895	345113	keystroke_o	o	n/a
172.6165	0.0895	345233	keystroke_d	d	n/a
172.721	0.06	345442	keystroke_u	u	n/a
172.826	0.09	345652	keystroke_l	l	n/a
172.8565	0.0895	345713	keystroke_e	e	n/a
172.9315	0.0895	345863	keystroke_Key.space	Key.space	n/a
173.0515	0.0895	346103	keystroke_c	c	n/a
173.1565	0.0745	346313	keystroke_o	o	n/a
173.2465	0.0895	346493	keystroke_r	r	n/a
173.321	0.105	346642	keystroke_p	p	n/a
173.3665	0.1045	346733	keystroke_u	u	n/a
173.4415	0.075	346883	keystroke_s	s	n/a
173.486	0.075	346972	keystroke_Key.space	Key.space	n/a
173.5915	0.0745	347183	keystroke_d	d	n/a
173.726	0.135	347452	keystroke_r	r	n/a
173.8765	0.0895	347753	keystroke_u	u	n/a
174.0565	0.0895	348113	keystroke_n	n	n/a
174.131	0.09	348262	keystroke_k	k	n/a
174.2665	0.0895	348533	keystroke_Key.space	Key.space	n/a
174.371	0.105	348742	keystroke_m	m	n/a
174.4315	0.1045	348863	keystroke_o	o	n/a
174.6265	0.1045	349253	keystroke_m	m	n/a
174.776	0.105	349552	keystroke_e	e	n/a
174.8365	0.0745	349673	keystroke_n	n	n/a
174.986	0.086	349972	keystroke_t	t	n/a
175.0315	0.1405	350063	keystroke_s	s	n/a
175.1815	0.0745	350363	keystroke_Key.enter	Key.enter	n/a
175.2655	6.772	350531	prompt	n/a	character evaluating establishment photographer\n
175.886	0.105	351772	keystroke_c	c	n/a
175.9615	0.0745	351923	keystroke_h	h	n/a
176.051	0.1055	352102	keystroke_a	a	n/a
176.111	0.12	352222	keystroke_r	r	n/a
176.2465	0.0745	352493	keystroke_a	a	n/a
176.366	0.09	352732	keystroke_c	c	n/a
176.516	0.12	353032	keystroke_t	t	n/a
176.636	0.12	353272	keystroke_e	e	n/a
176.7265	0.1195	353453	keystroke_r	r	n/a
176.7865	0.1195	353573	keystroke_Key.space	Key.space	n/a
176.9065	0.0895	353813	keystroke_e	e	n/a
177.0415	0.1045	354083	keystroke_v	v	n/a
177.1315	0.1195	354263	keystroke_a	a	n/a
177.236	0.105	354472	keystroke_l	l	n/a
177.2815	0.1195	354563	keystroke_u	u	n/a
177.371	0.15	354742	keystroke_a	a	n/a
177.4915	0.1195	354983	keystroke_t	t	n/a
177.596	0.12	355192	keystroke_i	i	n/a
177.6415	0.12	355283	keystroke_n	n	n/a
177.7315	0.1195	355463	keystroke_g	g	n/a
177.821	0.105	355642	keystroke_Key.space	Key.space	n/a
177.986	0.105	355972	keystroke_e	e	n/a
178.151	0.135	356302	keystroke_s	s	n/a
178.2565	0.1045	356513	keystroke_t	t	n/a
178.376	0.165	356752	keystroke_a	a	n/a
178.496	0.105	356992	keystroke_b	b	n/a
178.586	0.12	357172	keystroke_l	l	n/a
178.661	0.105	357322	keystroke_i	i	n/a
178.7365	0.1345	357473	keystroke_s	s	n/a
178.8265	0.0895	357653	keystroke_h	h	n/a
179.036	0.075	358072	keystroke_m	m	n/a
179.126	0.09	358252	keystroke_e	e	n/a
179.201	0.1055	358402	keystroke_n	n	n/a
179.276	0.105	358552	keystroke_t	t	n/a
179.351	0.105	358702	keystroke_Key.space	Key.space	n/a
179.471	0.105	358942	keystroke_p	p	n/a
179.561	0.09	359122	keystroke_h	h	n/a
179.651	0.105	359302	keystroke_o	o	n/a
179.771	0.12	359542	keystroke_t	t	n/a
179.8615	0.0745	359723	keystroke_o	o	n/a
180.011	0.09	360022	keystroke_g	g	n/a
180.0265	0.0895	360053	keystroke_o	o	n/a
180.401	0.06	360802	keystroke_Key.backspace	Key.backspace	n/a
180.5665	0.0445	361133	keystroke_Key.backspace	Key.backspace	n/a
181.4075	0.0735	362815	keystroke_g	g	n/a
181.5565	0.1045	363113	keystroke_r	r	n/a
181.616	0.165	363232	keystroke_a	a	n/a
181.6915	0.1045	363383	keystroke_p	p	n/a
181.766	0.06	363532	keystroke_h	h	n/a
181.8115	0.0895	363623	keystroke_e	e	n/a
181.871	0.075	363742	keystroke_r	r	n/a
181.9615	0.0745	363923	keystroke_Key.enter	Key.enter	n/a
182.043	6.4145	364086	prompt	n/a	spas breed awful confidentiality\n
182.651	0.09	365302	keystroke_s	s	n/a
182.741	0.09	365482	keystroke_p	p	n/a
182.8165	0.1195	365633	keystroke_a	a	n/a
182.9215	0.09	365843	keystroke_s	s	n/a
182.9815	0.0895	365963	keystroke_Key.space	Key.space	n/a
183.086	0.075	366172	keystroke_b	b	n/a
183.266	0.09	366532	keystroke_r	r	n/a
183.3265	0.0895	366653	keystroke_e	e	n/a
183.476	0.105	366952	keystroke_e	e	n/a
183.686	0.09	367372	keystroke_d	d	n/a
183.7615	0.1045	367523	keystroke_Key.space	Key.space	n/a
183.8965	0.1045	367793	keystroke_a	a	n/a
183.9565	0.0895	367913	keystroke_s	s	n/a
184.1215	0.1645	368243	keystroke_w	w	n/a
184.271	0.105	368542	keystroke_f	f	n/a
184.3165	0.1045	368633	keystroke_u	u	n/a
184.4365	0.0895	368873	keystroke_l	l	n/a
184.6015	0.0445	369203	keystroke_Key.space	Key.space	n/a
184.841	0.06	369682	keystroke_Key.backspace	Key.backspace	n/a
184.991	0.075	369982	keystroke_Key.backspace	Key.backspace	n/a
185.141	0.075	370282	keystroke_Key.backspace	Key.backspace	n/a
185.2915	0.0595	370583	keystroke_Key.backspace	Key.backspace	n/a
185.4565	0.0595	370913	keystroke_Key.backspace	Key.backspace	n/a
185.6815	0.0595	371363	keystroke_Key.backspace	Key.backspace	n/a
186.386	0.135	372772	keystroke_w	w	n/a
186.4915	0.1495	372983	keystroke_f	f	n/a
186.596	0.075	373192	keystroke_u	u	n/a
186.686	0.09	373372	keystroke_l	l	n/a
186.7915	0.1045	373583	keystroke_Key.space	Key.space	n/a
186.9115	0.1345	373823	keystroke_c	c	n/a
187.031	0.105	374062	keystroke_o	o	n/a
187.076	0.12	374152	keystroke_n	n	n/a
187.181	0.12	374362	keystroke_f	f	n/a
187.286	0.09	374572	keystroke_i	i	n/a
187.3615	0.0745	374723	keystroke_d	d	n/a
187.4965	0.1045	374993	keystroke_e	e	n/a
187.586	0.0905	375172	keystroke_n	n	n/a
187.6765	0.1345	375353	keystroke_t	t	n/a
187.7965	0.1195	375593	keystroke_i	i	n/a
187.871	0.15	375742	keystroke_a	a	n/a
187.976	0.12	375952	keystroke_l	l	n/a
188.051	0.105	376102	keystroke_i	i	n/a
188.141	0.1055	376282	keystroke_t	t	n/a
188.231	0.06	376462	keystroke_y	y	n/a
188.3665	0.0895	376733	keystroke_Key.enter	Key.enter	n/a
188.4635	4.284	376927	prompt	n/a	truly suffer minus blowing\n
189.0565	0.0745	378113	keystroke_t	t	n/a
189.2065	0.1195	378413	keystroke_r	r	n/a
189.2965	0.0895	378593	keystroke_u	u	n/a
189.4765	0.0895	378953	keystroke_l	l	n/a
189.5365	0.0905	379073	keystroke_y	y	n/a
189.627	0.104	379254	keystroke_Key.space	Key.space	n/a
189.7015	0.1045	379403	keystroke_s	s	n/a
190.0165	0.1045	380033	keystroke_u	u	n/a
190.136	0.075	380272	keystroke_f	f	n/a
190.301	0.075	380602	keystroke_f	f	n/a
190.3915	0.1345	380783	keystroke_e	e	n/a
190.466	0.15	380932	keystroke_r	r	n/a
190.5415	0.1195	381083	keystroke_Key.space	Key.space	n/a
190.6315	0.0895	381263	keystroke_m	m	n/a
190.751	0.12	381502	keystroke_i	i	n/a
190.8115	0.0895	381623	keystroke_n	n	n/a
191.0065	0.1045	382013	keystroke_u	u	n/a
191.0965	0.1195	382193	keystroke_s	s	n/a
191.1715	0.1045	382343	keystroke_Key.space	Key.space	n/a
191.2915	0.0895	382583	keystroke_b	b	n/a
191.366	0.06	382732	keystroke_l	l	n/a
191.5165	0.0895	383033	keystroke_o	o	n/a
191.591	0.195	383182	keystroke_w	w	n/a
191.7115	0.1195	383423	keystroke_i	i	n/a
191.8465	0.1045	383693	keystroke_g	g	n/a
192.206	0.06	384412	keystroke_Key.backspace	Key.backspace	n/a
192.401	0.075	384802	keystroke_n	n	n/a
192.4765	0.0895	384953	keystroke_g	g	n/a
192.6865	0.0595	385373	keystroke_Key.enter	Key.enter	n/a
192.7525	3.115	385505	prompt	n/a	wages islam dutch python\n
193.451	0.0155	386902	keystroke_w	w	n/a
193.4815	0.1195	386963	keystroke_a	a	n/a
193.541	0.18	387082	keystroke_g	g	n/a
193.631	0.18	387262	keystroke_e	e	n/a
193.706	0.135	387412	keystroke_s	s	n/a
193.796	0.105	387592	keystroke_Key.space	Key.space	n/a
193.931	0.105	387862	keystroke_i	i	n/a
194.006	0.12	388012	keystroke_s	s	n/a
194.141	0.09	388282	keystroke_l	l	n/a
194.216	0.18	388432	keystroke_a	a	n/a
194.3215	0.0895	388643	keystroke_m	m	n/a
194.426	0.075	388852	keystroke_Key.space	Key.space	n/a
194.516	0.105	389032	keystroke_d	d	n/a
194.6365	0.09	389273	keystroke_u	u	n/a
194.711	0.09	389422	keystroke_t	t	n/a
194.9065	0.1345	389813	keystroke_c	c	n/a
194.966	0.09	389932	keystroke_h	h	n/a
195.0715	0.1045	390143	keystroke_Key.space	Key.space	n/a
195.161	0.105	390322	keystroke_p	p	n/a
195.236	0.09	390472	keystroke_y	y	n/a
195.341	0.12	390682	keystroke_t	t	n/a
195.431	0.09	390862	keystroke_h	h	n/a
195.506	0.1355	391012	keystroke_o	o	n/a
195.5965	0.1045	391193	keystroke_n	n	n/a
195.791	0.075	391582	keystroke_Key.enter	Key.enter	n/a
195.8725	5.0055	391745	prompt	n/a	entirely museums digest mercury\n
196.5115	0.1195	393023	keystroke_e	e	n/a
196.6465	0.0895	393293	keystroke_n	n	n/a
196.7215	0.1195	393443	keystroke_t	t	n/a
196.8265	0.0895	393653	keystroke_i	i	n/a
196.931	0.09	393862	keystroke_r	r	n/a
196.9615	0.1195	393923	keystroke_e	e	n/a
197.066	0.105	394132	keystroke_l	l	n/a
197.126	0.105	394252	keystroke_y	y	n/a
197.216	0.105	394432	keystroke_Key.space	Key.space	n/a
197.381	0.09	394762	keystroke_m	m	n/a
197.606	0.075	395212	keystroke_u	u	n/a
197.726	0.15	395452	keystroke_s	s	n/a
197.831	0.105	395662	keystroke_e	e	n/a
197.906	0.105	395812	keystroke_u	u	n/a
198.116	0.075	396232	keystroke_m	m	n/a
198.191	0.12	396382	keystroke_s	s	n/a
198.2815	0.0895	396563	keystroke_Key.space	Key.space	n/a
198.416	0.0905	396832	keystroke_d	d	n/a
198.5215	0.0745	397043	keystroke_i	i	n/a
198.5815	0.1195	397163	keystroke_g	g	n/a
198.671	0.18	397342	keystroke_e	e	n/a
198.746	0.15	397492	keystroke_s	s	n/a
198.821	0.135	397642	keystroke_t	t	n/a
198.9115	0.1045	397823	keystroke_Key.space	Key.space	n/a
198.9715	0.0745	397943	keystroke_m	m	n/a
199.166	0.09	398332	keystroke_u	u	n/a
199.4815	0.1045	398963	keystroke_r	r	n/a
199.766	0.06	399532	keystroke_Key.backspace	Key.backspace	n/a
199.901	0.09	399802	keystroke_Key.backspace	Key.backspace	n/a
200.081	0.105	400162	keystroke_e	e	n/a
200.1565	0.0895	400313	keystroke_r	r	n/a
200.351	0.075	400702	keystroke_c	c	n/a
200.411	0.105	400822	keystroke_u	u	n/a
200.531	0.09	401062	keystroke_r	r	n/a
200.591	0.075	401182	keystroke_y	y	n/a
200.8015	0.0745	401603	keystroke_Key.enter	Key.enter	n/a
200.884	3.219	401768	prompt	n/a	leaf sources anatomy serum\n
201.3865	0.0895	402773	keystroke_l	l	n/a
201.461	0.135	402922	keystroke_e	e	n/a
201.551	0.135	403102	keystroke_a	a	n/a
201.641	0.12	403282	keystroke_f	f	n/a
201.731	0.09	403462	keystroke_Key.space	Key.space	n/a
201.806	0.12	403612	keystroke_s	s	n/a
201.9115	0.0895	403823	keystroke_o	o	n/a
201.9565	0.0895	403913	keystroke_u	u	n/a
202.0015	0.0895	404003	keystroke_r	r	n/a
202.181	0.09	404362	keystroke_c	c	n/a
202.3465	0.1345	404693	keystroke_e	e	n/a
202.4065	0.1045	404813	keystroke_s	s	n/a
202.496	0.09	404992	keystroke_Key.space	Key.space	n/a
202.571	0.135	405142	keystroke_a	a	n/a
202.676	0.105	405352	keystroke_n	n	n/a
202.796	0.12	405592	keystroke_a	a	n/a
202.871	0.135	405742	keystroke_t	t	n/a
202.9615	0.1045	405923	keystroke_o	o	n/a
203.0215	0.0745	406043	keystroke_m	m	n/a
203.231	0.075	406462	keystroke_y	y	n/a
203.3215	0.0895	406643	keystroke_Key.space	Key.space	n/a
203.3965	0.1345	406793	keystroke_s	s	n/a
203.471	0.12	406942	keystroke_e	e	n/a
203.546	0.12	407092	keystroke_r	r	n/a
203.606	0.09	407212	keystroke_u	u	n/a
203.7865	0.0745	407573	keystroke_m	m	n/a
204.0265	0.0745	408053	keystroke_Key.enter	Key.enter	n/a
204.1085	4.074	408217	prompt	n/a	report heat discrete sunglasses\n
204.746	0.135	409492	keystroke_r	r	n/a
204.821	0.1655	409642	keystroke_e	e	n/a
204.9715	0.0895	409943	keystroke_p	p	n/a
205.016	0.165	410032	keystroke_o	o	n/a
205.076	0.09	410152	keystroke_r	r	n/a
205.2415	0.1195	410483	keystroke_t	t	n/a
205.316	0.12	410632	keystroke_Key.space	Key.space	n/a
205.421	0.075	410842	keystroke_h	h	n/a
205.466	0.165	410932	keystroke_e	e	n/a
205.5715	0.1345	411143	keystroke_a	a	n/a
205.616	0.135	411232	keystroke_t	t	n/a
205.7365	0.0595	411473	keystroke_Key.space	Key.space	n/a
205.856	0.1055	411712	keystroke_d	d	n/a
205.946	0.075	411892	keystroke_i	i	n/a
206.051	0.075	412102	keystroke_s	s	n/a
206.231	0.06	412462	keystroke_c	c	n/a
206.381	0.135	412762	keystroke_r	r	n/a
206.4565	0.1495	412913	keystroke_e	e	n/a
206.5915	0.1345	413183	keystroke_t	t	n/a
206.681	0.12	413362	keystroke_e	e	n/a
206.7865	0.0745	413573	keystroke_Key.space	Key.space	n/a
206.9515	0.1195	413903	keystroke_s	s	n/a
207.041	0.075	414082	keystroke_u	u	n/a
207.191	0.09	414382	keystroke_n	n	n/a
207.266	0.105	414532	keystroke_g	g	n/a
207.3715	0.0745	414743	keystroke_l	l	n/a
207.4615	0.0895	414923	keystroke_a	a	n/a
207.5065	0.0895	415013	keystroke_s	s	n/a
207.656	0.15	415312	keystroke_s	s	n/a
207.7915	0.0745	415583	keystroke_e	e	n/a
207.911	0.105	415822	keystroke_s	s	n/a
208.106	0.075	416212	keystroke_Key.enter	Key.enter	n/a
208.189	4.734	416378	prompt	n/a	backup wesley paperback weapon\n
208.7515	0.1045	417503	keystroke_b	b	n/a
208.8415	0.1495	417683	keystroke_a	a	n/a
208.9765	0.1345	417953	keystroke_c	c	n/a
209.066	0.075	418132	keystroke_k	k	n/a
209.231	0.105	418462	keystroke_u	u	n/a
209.291	0.105	418582	keystroke_p	p	n/a
209.4115	0.1195	418823	keystroke_Key.space	Key.space	n/a
209.516	0.135	419032	keystroke_w	w	n/a
209.591	0.12	419182	keystroke_e	e	n/a
209.771	0.105	419542	keystroke_s	s	n/a
209.8615	0.0895	419723	keystroke_l	l	n/a
209.996	0.105	419992	keystroke_e	e	n/a
210.116	0.075	420232	keystroke_y	y	n/a
210.2065	0.1195	420413	keystroke_Key.space	Key.space	n/a
210.3115	0.1045	420623	keystroke_p	p	n/a
210.4015	0.1495	420803	keystroke_a	a	n/a
210.596	0.12	421192	keystroke_p	p	n/a
210.7765	0.1045	421553	keystroke_e	e	n/a
210.8515	0.1045	421703	keystroke_r	r	n/a
211.0615	0.1195	422123	keystroke_b	b	n/a
211.166	0.135	422332	keystroke_a	a	n/a
211.271	0.15	422542	keystroke_c	c	n/a
211.361	0.105	422722	keystroke_k	k	n/a
211.436	0.105	422872	keystroke_Key.space	Key.space	n/a
211.5565	0.1345	423113	keystroke_w	w	n/a
211.6315	0.1345	423263	keystroke_e	e	n/a
211.736	0.15	423472	keystroke_a	a	n/a
211.856	0.1205	423712	keystroke_p	p	n/a
211.916	0.135	423832	keystroke_o	o	n/a
211.9915	0.1045	423983	keystroke_n	n	n/a
212.846	0.075	425692	keystroke_Key.enter	Key.enter	n/a
212.932	3.936	425864	prompt	n/a	recorders trying spatial burden\n
213.461	0.135	426922	keystroke_r	r	n/a
213.5515	0.0745	427103	keystroke_e	e	n/a
213.746	0.075	427492	keystroke_c	c	n/a
213.836	0.0905	427672	keystroke_o	o	n/a
213.9415	0.1045	427883	keystroke_r	r	n/a
214.031	0.09	428062	keystroke_d	d	n/a
214.181	0.12	428362	keystroke_e	e	n/a
214.286	0.135	428572	keystroke_r	r	n/a
214.361	0.12	428722	keystroke_s	s	n/a
214.4365	0.1045	428873	keystroke_Key.space	Key.space	n/a
214.526	0.09	429052	keystroke_t	t	n/a
214.6765	0.1345	429353	keystroke_r	r	n/a
214.7665	0.1045	429533	keystroke_y	y	n/a
214.931	0.135	429862	keystroke_i	i	n/a
215.006	0.105	430012	keystroke_n	n	n/a
215.0515	0.0895	430103	keystroke_g	g	n/a
215.126	0.09	430252	keystroke_Key.space	Key.space	n/a
215.231	0.12	430462	keystroke_s	s	n/a
215.336	0.105	430672	keystroke_p	p	n/a
215.4415	0.1495	430883	keystroke_a	a	n/a
215.546	0.12	431092	keystroke_t	t	n/a
215.636	0.105	431272	keystroke_i	i	n/a
215.756	0.12	431512	keystroke_a	a	n/a
215.8165	0.1045	431633	keystroke_l	l	n/a
215.9065	0.0745	431813	keystroke_Key.space	Key.space	n/a
216.0115	0.0745	432023	keystroke_b	b	n/a
216.1465	0.0745	432293	keystroke_u	u	n/a
216.236	0.09	432472	keystroke_r	r	n/a
216.3715	0.0895	432743	keystroke_d	d	n/a
216.5215	0.1045	433043	keystroke_e	e	n/a
216.596	0.075	433192	keystroke_n	n	n/a
216.7915	0.0745	433583	keystroke_Key.enter	Key.enter	n/a
216.874	13.3435	433748	prompt	n/a	cube entries father assist\n
217.496	0.105	434992	keystroke_c	c	n/a
217.571	0.105	435142	keystroke_u	u	n/a
217.661	0.105	435322	keystroke_b	b	n/a
217.811	0.135	435622	keystroke_e	e	n/a
217.9015	0.1045	435803	keystroke_Key.space	Key.space	n/a
218.0215	0.1495	436043	keystroke_e	e	n/a
218.1265	0.1045	436253	keystroke_n	n	n/a
218.246	0.075	436492	keystroke_t	t	n/a
218.381	0.09	436762	keystroke_i	i	n/a
218.4265	0.1495	436853	keystroke_r	r	n/a
218.4865	0.1795	436973	keystroke_e	e	n/a
218.561	0.15	437122	keystroke_s	s	n/a
218.6515	0.1045	437303	keystroke_Key.space	Key.space	n/a
218.7715	0.1495	437543	keystroke_f	f	n/a
218.876	0.18	437752	keystroke_a	a	n/a
219.0265	0.1195	438053	keystroke_t	t	n/a
219.161	0.09	438322	keystroke_h	h	n/a
219.2215	0.1345	438443	keystroke_e	e	n/a
219.281	0.15	438562	keystroke_r	r	n/a
219.386	0.09	438772	keystroke_Key.space	Key.space	n/a
219.5065	0.1045	439013	keystroke_a	a	n/a
219.626	0.045	439252	keystroke_s	s	n/a
219.791	0.045	439582	keystroke_s	s	n/a
219.896	0.105	439792	keystroke_i	i	n/a
220.0165	0.1045	440033	keystroke_s	s	n/a
220.106	0.105	440212	keystroke_t	t	n/a
220.646	0.075	441292	keystroke_Key.backspace	Key.backspace	n/a
220.796	0.075	441592	keystroke_Key.backspace	Key.backspace	n/a
220.946	0.06	441892	keystroke_Key.backspace	Key.backspace	n/a
221.081	0.075	442162	keystroke_Key.backspace	Key.backspace	n/a
221.246	0.06	442492	keystroke_Key.backspace	Key.backspace	n/a
221.651	0.06	443302	keystroke_Key.backspace	Key.backspace	n/a
222.1165	0.0595	444233	keystroke_Key.backspace	Key.backspace	n/a
222.296	0.045	444592	keystroke_Key.backspace	Key.backspace	n/a
222.731	0.06	445462	keystroke_Key.backspace	Key.backspace	n/a
223.2265	0.0745	446453	keystroke_Key.backspace	Key.backspace	n/a
223.4065	0.0595	446813	keystroke_Key.backspace	Key.backspace	n/a
224.021	0.135	448042	keystroke_a	a	n/a
224.1265	0.0895	448253	keystroke_t	t	n/a
224.201	0.06	448402	keystroke_h	h	n/a
224.321	0.105	448642	keystroke_e	e	n/a
224.4565	0.0745	448913	keystroke_Key.backspace	Key.backspace	n/a
224.651	0.06	449302	keystroke_Key.backspace	Key.backspace	n/a
225.476	0.06	450952	keystroke_h	h	n/a
225.551	0.09	451102	keystroke_e	e	n/a
225.596	0.09	451192	keystroke_r	r	n/a
225.7915	0.0595	451583	keystroke_Key.backspace	Key.backspace	n/a
225.956	0.06	451912	keystroke_Key.backspace	Key.backspace	n/a
226.0915	0.0595	452183	keystroke_Key.backspace	Key.backspace	n/a
226.286	0.03	452572	keystroke_Key.backspace	Key.backspace	n/a
226.736	0.06	453472	keystroke_Key.backspace	Key.backspace	n/a
226.9315	0.0595	453863	keystroke_Key.backspace	Key.backspace	n/a
227.111	0.09	454222	keystroke_Key.backspace	Key.backspace	n/a
227.261	0.075	454522	keystroke_Key.backspace	Key.backspace	n/a
227.411	0.075	454822	keystroke_Key.backspace	Key.backspace	n/a
227.591	0.06	455182	keystroke_Key.backspace	Key.backspace	n/a
227.771	0.045	455542	keystroke_Key.backspace	Key.backspace	n/a
228.116	0.06	456232	keystroke_Key.backspace	Key.backspace	n/a
228.3715	0.1495	456743	keystroke_r	r	n/a
228.5065	0.0595	457013	keystroke_i	i	n/a
228.5815	0.1045	457163	keystroke_e	e	n/a
228.626	0.1215	457252	keystroke_s	s	n/a
228.7165	0.0895	457433	keystroke_Key.space	Key.space	n/a
228.896	0.12	457792	keystroke_f	f	n/a
228.986	0.165	457972	keystroke_a	a	n/a
229.106	0.12	458212	keystroke_t	t	n/a
229.2265	0.0895	458453	keystroke_h	h	n/a
229.301	0.105	458602	keystroke_e	e	n/a
229.3315	0.1345	458663	keystroke_r	r	n/a
229.421	0.105	458842	keystroke_Key.space	Key.space	n/a
229.511	0.12	459022	keystroke_a	a	n/a
229.6165	0.0445	459233	keystroke_s	s	n/a
229.736	0.075	459472	keystroke_s	s	n/a
229.856	0.075	459712	keystroke_i	i	n/a
229.917	0.104	459834	keystroke_s	s	n/a
230.006	0.09	460012	keystroke_t	t	n/a
230.141	0.075	460282	keystroke_Key.enter	Key.enter	n/a
230.225	3.1275	460450	prompt	n/a	radius coin lasting lead\n
230.816	0.06	461632	keystroke_f	f	n/a
231.086	0.075	462172	keystroke_Key.backspace	Key.backspace	n/a
231.221	0.12	462442	keystroke_r	r	n/a
231.311	0.135	462622	keystroke_a	a	n/a
231.4315	0.1195	462863	keystroke_d	d	n/a
231.506	0.105	463012	keystroke_i	i	n/a
231.5815	0.1195	463163	keystroke_u	u	n/a
231.686	0.105	463372	keystroke_s	s	n/a
231.761	0.12	463522	keystroke_Key.space	Key.space	n/a
231.896	0.09	463792	keystroke_c	c	n/a
231.9565	0.1495	463913	keystroke_o	o	n/a
232.046	0.12	464092	keystroke_i	i	n/a
232.121	0.075	464242	keystroke_n	n	n/a
232.226	0.09	464452	keystroke_Key.space	Key.space	n/a
232.301	0.09	464602	keystroke_l	l	n/a
232.376	0.15	464752	keystroke_a	a	n/a
232.466	0.12	464932	keystroke_s	s	n/a
232.556	0.09	465112	keystroke_t	t	n/a
232.6315	0.1045	465263	keystroke_i	i	n/a
232.676	0.09	465352	keystroke_n	n	n/a
232.751	0.12	465502	keystroke_g	g	n/a
232.826	0.105	465652	keystroke_Key.space	Key.space	n/a
232.916	0.09	465832	keystroke_l	l	n/a
232.976	0.12	465952	keystroke_e	e	n/a
233.0665	0.1195	466133	keystroke_a	a	n/a
233.171	0.105	466342	keystroke_d	d	n/a
233.291	0.06	466582	keystroke_Key.enter	Key.enter	n/a
233.359	4.9285	466718	prompt	n/a	organization recently courage reduction\n
233.966	0.105	467932	keystroke_o	o	n/a
234.0565	0.0745	468113	keystroke_r	r	n/a
234.2215	0.0745	468443	keystroke_g	g	n/a
234.266	0.12	468532	keystroke_a	a	n/a
234.3715	0.1045	468743	keystroke_n	n	n/a
234.416	0.105	468832	keystroke_i	i	n/a
234.8215	0.1045	469643	keystroke_z	z	n/a
235.0315	0.1195	470063	keystroke_a	a	n/a
235.091	0.135	470182	keystroke_t	t	n/a
235.1965	0.1645	470393	keystroke_i	i	n/a
235.241	0.135	470482	keystroke_o	o	n/a
235.301	0.12	470602	keystroke_n	n	n/a
235.4795	0.0615	470959	keystroke_Key.space	Key.space	n/a
235.721	0.12	471442	keystroke_r	r	n/a
235.7965	0.0895	471593	keystroke_e	e	n/a
235.961	0.09	471922	keystroke_c	c	n/a
236.141	0.09	472282	keystroke_e	e	n/a
236.2165	0.0895	472433	keystroke_n	n	n/a
236.3065	0.0895	472613	keystroke_t	t	n/a
236.411	0.09	472822	keystroke_l	l	n/a
236.4795	0.0815	472959	keystroke_y	y	n/a
236.546	0.09	473092	keystroke_Key.space	Key.space	n/a
236.651	0.075	473302	keystroke_c	c	n/a
236.726	0.105	473452	keystroke_o	o	n/a
236.7875	0.1035	473575	keystroke_u	u	n/a
236.8615	0.1045	473723	keystroke_r	r	n/a
236.9365	0.1645	473873	keystroke_a	a	n/a
237.0415	0.0895	474083	keystroke_g	g	n/a
237.101	0.105	474202	keystroke_e	e	n/a
237.191	0.075	474382	keystroke_Key.space	Key.space	n/a
237.2815	0.1195	474563	keystroke_r	r	n/a
237.341	0.09	474682	keystroke_e	e	n/a
237.5065	0.0895	475013	keystroke_d	d	n/a
237.611	0.105	475222	keystroke_u	u	n/a
237.7015	0.0595	475403	keystroke_c	c	n/a
237.836	0.105	475672	keystroke_t	t	n/a
237.896	0.183	475792	keystroke_i	i	n/a
237.971	0.12	475942	keystroke_o	o	n/a
238.0465	0.0895	476093	keystroke_n	n	n/a
238.226	0.06	476452	keystroke_Key.enter	Key.enter	n/a
238.2935	4.314	476587	prompt	n/a	coins provinces scheme transit\n
238.901	0.105	477802	keystroke_c	c	n/a
238.976	0.12	477952	keystroke_o	o	n/a
239.0365	0.1195	478073	keystroke_i	i	n/a
239.111	0.09	478222	keystroke_n	n	n/a
239.141	0.12	478282	keystroke_s	s	n/a
239.2315	0.1045	478463	keystroke_Key.space	Key.space	n/a
239.291	0.105	478582	keystroke_p	p	n/a
239.411	0.12	478822	keystroke_r	r	n/a
239.471	0.105	478942	keystroke_o	o	n/a
239.6665	0.1345	479333	keystroke_i	i	n/a
239.741	0.09	479482	keystroke_n	n	n/a
240.026	0.06	480052	keystroke_Key.backspace	Key.backspace	n/a
240.176	0.075	480352	keystroke_Key.backspace	Key.backspace	n/a
240.341	0.105	480682	keystroke_v	v	n/a
240.431	0.105	480862	keystroke_i	i	n/a
240.476	0.09	480952	keystroke_n	n	n/a
240.581	0.075	481162	keystroke_c	c	n/a
240.7465	0.1045	481493	keystroke_e	e	n/a
240.8215	0.1195	481643	keystroke_s	s	n/a
240.911	0.09	481822	keystroke_Key.space	Key.space	n/a
241.031	0.075	482062	keystroke_s	s	n/a
241.196	0.075	482392	keystroke_c	c	n/a
241.286	0.105	482572	keystroke_h	h	n/a
241.376	0.09	482752	keystroke_e	e	n/a
241.526	0.09	483052	keystroke_m	m	n/a
241.571	0.12	483142	keystroke_e	e	n/a
241.676	0.105	483352	keystroke_Key.space	Key.space	n/a
241.796	0.045	483592	keystroke_t	t	n/a
241.9315	0.1345	483863	keystroke_r	r	n/a
241.991	0.15	483982	keystroke_a	a	n/a
242.111	0.09	484222	keystroke_n	n	n/a
242.216	0.12	484432	keystroke_s	s	n/a
242.3515	0.0595	484703	keystroke_i	i	n/a
242.426	0.09	484852	keystroke_t	t	n/a
242.531	0.075	485062	keystroke_Key.enter	Key.enter	n/a
242.6135	3.2945	485227	prompt	n/a	pieces promotes video growth\n
243.1615	0.1345	486323	keystroke_p	p	n/a
243.251	0.105	486502	keystroke_i	i	n/a
243.311	0.09	486622	keystroke_e	e	n/a
243.506	0.06	487012	keystroke_c	c	n/a
243.6715	0.1045	487343	keystroke_e	e	n/a
243.7165	0.1345	487433	keystroke_s	s	n/a
243.791	0.12	487582	keystroke_Key.space	Key.space	n/a
243.881	0.105	487762	keystroke_p	p	n/a
243.9865	0.1195	487973	keystroke_r	r	n/a
244.061	0.105	488122	keystroke_o	o	n/a
244.151	0.12	488302	keystroke_m	m	n/a
244.241	0.105	488482	keystroke_o	o	n/a
244.286	0.12	488572	keystroke_t	t	n/a
244.331	0.135	488662	keystroke_e	e	n/a
244.421	0.09	488842	keystroke_s	s	n/a
244.451	0.09	488902	keystroke_Key.space	Key.space	n/a
244.5865	0.0895	489173	keystroke_v	v	n/a
244.661	0.09	489322	keystroke_i	i	n/a
244.736	0.06	489472	keystroke_d	d	n/a
244.856	0.135	489712	keystroke_e	e	n/a
244.9615	0.0895	489923	keystroke_o	o	n/a
245.051	0.105	490102	keystroke_Key.space	Key.space	n/a
245.141	0.06	490282	keystroke_g	g	n/a
245.291	0.15	490582	keystroke_r	r	n/a
245.396	0.09	490792	keystroke_o	o	n/a
245.471	0.12	490942	keystroke_w	w	n/a
245.576	0.105	491152	keystroke_t	t	n/a
245.666	0.06	491332	keystroke_h	h	n/a
245.831	0.075	491662	keystroke_Key.enter	Key.enter	n/a
245.9165	3.081	491833	prompt	n/a	total maui inquire marcus\n
246.491	0.09	492982	keystroke_t	t	n/a
246.5515	0.0895	493103	keystroke_o	o	n/a
246.6865	0.0745	493373	keystroke_t	t	n/a
246.7315	0.1645	493463	keystroke_a	a	n/a
246.8665	0.1045	493733	keystroke_l	l	n/a
246.9865	0.0445	493973	keystroke_Key.space	Key.space	n/a
247.0465	0.0895	494093	keystroke_m	m	n/a
247.1515	0.1345	494303	keystroke_a	a	n/a
247.2715	0.1345	494543	keystroke_u	u	n/a
247.376	0.105	494752	keystroke_i	i	n/a
247.5125	0.0885	495025	keystroke_Key.space	Key.space	n/a
247.631	0.105	495262	keystroke_i	i	n/a
247.676	0.09	495352	keystroke_n	n	n/a
247.811	0.12	495622	keystroke_q	q	n/a
247.916	0.135	495832	keystroke_u	u	n/a
247.991	0.12	495982	keystroke_i	i	n/a
248.066	0.09	496132	keystroke_r	r	n/a
248.111	0.105	496222	keystroke_e	e	n/a
248.186	0.105	496372	keystroke_Key.space	Key.space	n/a
248.276	0.09	496552	keystroke_m	m	n/a
248.351	0.12	496702	keystroke_a	a	n/a
248.411	0.09	496822	keystroke_r	r	n/a
248.576	0.12	497152	keystroke_c	c	n/a
248.651	0.075	497302	keystroke_u	u	n/a
248.756	0.12	497512	keystroke_s	s	n/a
248.921	0.075	497842	keystroke_Key.enter	Key.enter	n/a
249.0035	5.1245	498007	prompt	n/a	toronto whatever citysearch recently\n
249.656	0.075	499312	keystroke_t	t	n/a
250.031	0.105	500062	keystroke_o	o	n/a
250.181	0.12	500362	keystroke_r	r	n/a
250.301	0.105	500602	keystroke_o	o	n/a
250.3465	0.1045	500693	keystroke_n	n	n/a
250.4365	0.1345	500873	keystroke_t	t	n/a
250.5865	0.0595	501173	keystroke_o	o	n/a
250.646	0.09	501292	keystroke_Key.space	Key.space	n/a
250.7815	0.0895	501563	keystroke_w	w	n/a
250.841	0.06	501682	keystroke_h	h	n/a
251.156	0.12	502312	keystroke_a	a	n/a
251.2315	0.0895	502463	keystroke_t	t	n/a
251.352	0.089	502704	keystroke_e	e	n/a
251.4715	0.1045	502943	keystroke_v	v	n/a
251.6215	0.1195	503243	keystroke_e	e	n/a
251.681	0.12	503362	keystroke_r	r	n/a
251.7715	0.0895	503543	keystroke_Key.space	Key.space	n/a
251.9215	0.0745	503843	keystroke_c	c	n/a
252.0115	0.0895	504023	keystroke_i	i	n/a
252.116	0.105	504232	keystroke_t	t	n/a
252.206	0.075	504412	keystroke_y	y	n/a
252.296	0.135	504592	keystroke_s	s	n/a
252.416	0.105	504832	keystroke_e	e	n/a
252.476	0.15	504952	keystroke_a	a	n/a
252.566	0.09	505132	keystroke_r	r	n/a
252.7615	0.1495	505523	keystroke_c	c	n/a
252.851	0.09	505702	keystroke_h	h	n/a
252.956	0.105	505912	keystroke_Key.space	Key.space	n/a
253.0615	0.1345	506123	keystroke_r	r	n/a
253.151	0.075	506302	keystroke_e	e	n/a
253.316	0.075	506632	keystroke_c	c	n/a
253.481	0.105	506962	keystroke_e	e	n/a
253.556	0.075	507112	keystroke_n	n	n/a
253.6465	0.1045	507293	keystroke_t	t	n/a
253.7365	0.0745	507473	keystroke_l	l	n/a
253.856	0.06	507712	keystroke_y	y	n/a
254.036	0.09	508072	keystroke_Key.enter	Key.enter	n/a
254.1345	2.7375	508269	prompt	n/a	tunnel eating loves utah\n
254.7115	0.1045	509423	keystroke_t	t	n/a
254.8015	0.0895	509603	keystroke_u	u	n/a
254.9665	0.0745	509933	keystroke_n	n	n/a
255.1015	0.0895	510203	keystroke_n	n	n/a
255.206	0.135	510412	keystroke_e	e	n/a
255.296	0.09	510592	keystroke_l	l	n/a
255.371	0.09	510742	keystroke_Key.space	Key.space	n/a
255.446	0.135	510892	keystroke_e	e	n/a
255.5215	0.1345	511043	keystroke_a	a	n/a
255.596	0.105	511192	keystroke_t	t	n/a
255.6865	0.1195	511373	keystroke_i	i	n/a
255.731	0.105	511462	keystroke_n	n	n/a
255.8065	0.1195	511613	keystroke_g	g	n/a
255.866	0.105	511732	keystroke_Key.space	Key.space	n/a
255.941	0.06	511882	keystroke_l	l	n/a
256.0765	0.1045	512153	keystroke_o	o	n/a
256.136	0.12	512272	keystroke_v	v	n/a
256.1665	0.1645	512333	keystroke_e	e	n/a
256.241	0.135	512482	keystroke_s	s	n/a
256.301	0.09	512602	keystroke_Key.space	Key.space	n/a
256.4215	0.0745	512843	keystroke_u	u	n/a
256.466	0.12	512932	keystroke_t	t	n/a
256.571	0.12	513142	keystroke_a	a	n/a
256.631	0.075	513262	keystroke_h	h	n/a
256.7965	0.0745	513593	keystroke_Key.enter	Key.enter	n/a
256.877	3.5355	513754	prompt	n/a	user morning knight discipline\n
257.5615	0.0745	515123	keystroke_u	u	n/a
257.651	0.12	515302	keystroke_s	s	n/a
257.711	0.12	515422	keystroke_e	e	n/a
257.741	0.15	515482	keystroke_r	r	n/a
257.816	0.105	515632	keystroke_Key.space	Key.space	n/a
257.891	0.105	515782	keystroke_m	m	n/a
257.966	0.12	515932	keystroke_o	o	n/a
258.146	0.105	516292	keystroke_r	r	n/a
258.281	0.1205	516562	keystroke_n	n	n/a
258.3865	0.1195	516773	keystroke_i	i	n/a
258.4615	0.1195	516923	keystroke_n	n	n/a
258.566	0.09	517132	keystroke_g	g	n/a
258.6115	0.1195	517223	keystroke_Key.space	Key.space	n/a
258.716	0.09	517432	keystroke_k	k	n/a
258.7765	0.1195	517553	keystroke_n	n	n/a
258.926	0.09	517852	keystroke_i	i	n/a
259.001	0.09	518002	keystroke_g	g	n/a
259.106	0.105	518212	keystroke_h	h	n/a
259.181	0.12	518362	keystroke_t	t	n/a
259.256	0.075	518512	keystroke_Key.space	Key.space	n/a
259.391	0.09	518782	keystroke_d	d	n/a
259.466	0.09	518932	keystroke_i	i	n/a
259.5715	0.0595	519143	keystroke_s	s	n/a
259.691	0.1205	519382	keystroke_c	c	n/a
259.7515	0.1345	519503	keystroke_i	i	n/a
259.8415	0.1045	519683	keystroke_p	p	n/a
260.021	0.12	520042	keystroke_l	l	n/a
260.081	0.135	520162	keystroke_i	i	n/a
260.156	0.09	520312	keystroke_n	n	n/a
260.2015	0.1045	520403	keystroke_e	e	n/a
260.336	0.075	520672	keystroke_Key.enter	Key.enter	n/a
260.4225	4.835	520845	prompt	n/a	hardware sciences bacteria terrorist\n
261.071	0.075	522142	keystroke_h	h	n/a
261.236	0.135	522472	keystroke_a	a	n/a
261.341	0.1055	522682	keystroke_r	r	n/a
261.506	0.12	523012	keystroke_d	d	n/a
261.641	0.105	523282	keystroke_w	w	n/a
261.7015	0.1795	523403	keystroke_a	a	n/a
261.806	0.12	523612	keystroke_r	r	n/a
261.8665	0.1045	523733	keystroke_e	e	n/a
261.9565	0.0895	523913	keystroke_Key.space	Key.space	n/a
262.061	0.09	524122	keystroke_s	s	n/a
262.2415	0.0895	524483	keystroke_c	c	n/a
262.346	0.105	524692	keystroke_i	i	n/a
262.481	0.075	524962	keystroke_e	e	n/a
262.571	0.09	525142	keystroke_n	n	n/a
262.646	0.075	525292	keystroke_c	c	n/a
262.841	0.06	525682	keystroke_e	e	n/a
262.8715	0.1345	525743	keystroke_s	s	n/a
262.991	0.105	525982	keystroke_Key.space	Key.space	n/a
263.1565	0.1045	526313	keystroke_b	b	n/a
263.2765	0.0895	526553	keystroke_a	a	n/a
263.396	0.075	526792	keystroke_c	c	n/a
263.606	0.1205	527212	keystroke_t	t	n/a
263.711	0.135	527422	keystroke_e	e	n/a
263.8165	0.1345	527633	keystroke_r	r	n/a
263.936	0.075	527872	keystroke_i	i	n/a
264.011	0.135	528022	keystroke_a	a	n/a
264.1315	0.0745	528263	keystroke_Key.space	Key.space	n/a
264.221	0.12	528442	keystroke_t	t	n/a
264.3265	0.0745	528653	keystroke_e	e	n/a
264.431	0.09	528862	keystroke_r	r	n/a
264.596	0.075	529192	keystroke_r	r	n/a
264.701	0.105	529402	keystroke_o	o	n/a
264.791	0.135	529582	keystroke_r	r	n/a
264.911	0.075	529822	keystroke_i	i	n/a
264.986	0.12	529972	keystroke_s	s	n/a
265.046	0.105	530092	keystroke_t	t	n/a
265.181	0.075	530362	keystroke_Key.enter	Key.enter	n/a
265.263	4.9	530526	prompt	n/a	academics tricks filters expanded\n
265.781	0.09	531562	keystroke_a	a	n/a
265.9315	0.1045	531863	keystroke_c	c	n/a
266.0965	0.1045	532193	keystroke_a	a	n/a
266.2165	0.0595	532433	keystroke_d	d	n/a
266.441	0.015	532882	keystroke_e	e	n/a
266.471	0.09	532942	keystroke_m	m	n/a
266.531	0.12	533062	keystroke_i	i	n/a
266.606	0.09	533212	keystroke_c	c	n/a
266.7115	0.1195	533423	keystroke_s	s	n/a
266.801	0.105	533602	keystroke_Key.space	Key.space	n/a
266.921	0.09	533842	keystroke_t	t	n/a
267.086	0.105	534172	keystroke_r	r	n/a
267.1765	0.1045	534353	keystroke_i	i	n/a
267.326	0.105	534652	keystroke_c	c	n/a
267.446	0.0905	534892	keystroke_k	k	n/a
267.5215	0.1045	535043	keystroke_s	s	n/a
267.6415	0.0745	535283	keystroke_Key.space	Key.space	n/a
267.731	0.075	535462	keystroke_f	f	n/a
267.821	0.165	535642	keystroke_i	i	n/a
267.926	0.12	535852	keystroke_l	l	n/a
268.046	0.105	536092	keystroke_t	t	n/a
268.181	0.12	536362	keystroke_e	e	n/a
268.256	0.15	536512	keystroke_r	r	n/a
268.3915	0.1045	536783	keystroke_s	s	n/a
268.481	0.075	536962	keystroke_Key.space	Key.space	n/a
268.571	0.075	537142	keystroke_e	e	n/a
268.7515	0.1195	537503	keystroke_x	x	n/a
268.901	0.105	537802	keystroke_p	p	n/a
268.991	0.135	537982	keystroke_a	a	n/a
269.111	0.09	538222	keystroke_n	n	n/a
269.261	0.075	538522	keystroke_d	d	n/a
269.471	0.09	538942	keystroke_e	e	n/a
269.7265	0.0745	539453	keystroke_d	d	n/a
270.0735	0.0875	540147	keystroke_Key.enter	Key.enter	n/a
270.172	3.3355	540344	prompt	n/a	halo pregnant existed using\n
270.686	0.105	541372	keystroke_h	h	n/a
270.806	0.09	541612	keystroke_a	a	n/a
270.911	0.045	541822	keystroke_l	l	n/a
271.046	0.075	542092	keystroke_o	o	n/a
271.151	0.0905	542302	keystroke_Key.space	Key.space	n/a
271.256	0.105	542512	keystroke_p	p	n/a
271.331	0.105	542662	keystroke_r	r	n/a
271.406	0.09	542812	keystroke_e	e	n/a
271.5265	0.1045	543053	keystroke_g	g	n/a
271.6465	0.0745	543293	keystroke_n	n	n/a
271.736	0.135	543472	keystroke_a	a	n/a
271.841	0.09	543682	keystroke_n	n	n/a
271.916	0.105	543832	keystroke_t	t	n/a
271.9915	0.1045	543983	keystroke_Key.space	Key.space	n/a
272.081	0.075	544162	keystroke_e	e	n/a
272.336	0.015	544672	keystroke_x	x	n/a
272.366	0.09	544732	keystroke_i	i	n/a
272.471	0.12	544942	keystroke_s	s	n/a
272.5765	0.1195	545153	keystroke_t	t	n/a
272.6665	0.0745	545333	keystroke_e	e	n/a
272.816	0.105	545632	keystroke_d	d	n/a
272.8915	0.0895	545783	keystroke_Key.space	Key.space	n/a
273.011	0.075	546022	keystroke_u	u	n/a
273.071	0.1205	546142	keystroke_s	s	n/a
273.176	0.12	546352	keystroke_i	i	n/a
273.236	0.09	546472	keystroke_n	n	n/a
273.3115	0.0745	546623	keystroke_g	g	n/a
273.431	0.075	546862	keystroke_Key.enter	Key.enter	n/a
273.5145	4.358	547029	prompt	n/a	representations finest nested coding\n
274.1665	0.1195	548333	keystroke_r	r	n/a
274.2415	0.1195	548483	keystroke_e	e	n/a
274.3765	0.0745	548753	keystroke_p	p	n/a
274.436	0.135	548872	keystroke_r	r	n/a
274.511	0.105	549022	keystroke_e	e	n/a
274.586	0.195	549172	keystroke_s	s	n/a
274.706	0.105	549412	keystroke_e	e	n/a
274.7965	0.1045	549593	keystroke_n	n	n/a
274.886	0.09	549772	keystroke_t	t	n/a
274.961	0.15	549922	keystroke_a	a	n/a
275.0515	0.1195	550103	keystroke_t	t	n/a
275.1415	0.1645	550283	keystroke_i	i	n/a
275.2015	0.1195	550403	keystroke_o	o	n/a
275.246	0.12	550492	keystroke_n	n	n/a
275.336	0.105	550672	keystroke_s	s	n/a
275.4265	0.0895	550853	keystroke_Key.space	Key.space	n/a
275.546	0.075	551092	keystroke_f	f	n/a
275.591	0.12	551182	keystroke_i	i	n/a
275.6515	0.1195	551303	keystroke_n	n	n/a
275.7415	0.1495	551483	keystroke_e	e	n/a
275.801	0.12	551602	keystroke_s	s	n/a
275.876	0.135	551752	keystroke_t	t	n/a
276.011	0.09	552022	keystroke_Key.space	Key.space	n/a
276.221	0.09	552442	keystroke_n	n	n/a
276.2965	0.0895	552593	keystroke_e	e	n/a
276.476	0.135	552952	keystroke_s	s	n/a
276.641	0.105	553282	keystroke_t	t	n/a
276.8665	0.0745	553733	keystroke_e	e	n/a
277.0315	0.1045	554063	keystroke_d	d	n/a
277.121	0.075	554242	keystroke_Key.space	Key.space	n/a
277.2565	0.0745	554513	keystroke_c	c	n/a
277.346	0.09	554692	keystroke_o	o	n/a
277.451	0.09	554902	keystroke_d	d	n/a
277.5565	0.1195	555113	keystroke_i	i	n/a
277.6015	0.1345	555203	keystroke_n	n	n/a
277.6915	0.0595	555383	keystroke_g	g	n/a
277.796	0.075	555592	keystroke_Key.enter	Key.enter	n/a
277.881	3.3815	555762	prompt	n/a	davis grew conferences stand\n
278.426	0.105	556852	keystroke_d	d	n/a
278.546	0.135	557092	keystroke_a	a	n/a
278.6365	0.1045	557273	keystroke_v	v	n/a
278.7565	0.0745	557513	keystroke_i	i	n/a
278.801	0.105	557602	keystroke_s	s	n/a
278.876	0.075	557752	keystroke_Key.space	Key.space	n/a
278.9665	0.0445	557933	keystroke_g	g	n/a
279.101	0.195	558202	keystroke_r	r	n/a
279.1915	0.1345	558383	keystroke_e	e	n/a
279.2665	0.1045	558533	keystroke_w	w	n/a
279.3415	0.1195	558683	keystroke_Key.space	Key.space	n/a
279.521	0.09	559042	keystroke_c	c	n/a
279.6415	0.0595	559283	keystroke_o	o	n/a
279.671	0.105	559342	keystroke_n	n	n/a
279.7465	0.0895	559493	keystroke_f	f	n/a
279.8515	0.1045	559703	keystroke_e	e	n/a
279.941	0.12	559882	keystroke_r	r	n/a
280.031	0.09	560062	keystroke_e	e	n/a
280.106	0.105	560212	keystroke_n	n	n/a
280.2415	0.0895	560483	keystroke_c	c	n/a
280.436	0.09	560872	keystroke_e	e	n/a
280.5115	0.1195	561023	keystroke_s	s	n/a
280.6165	0.0745	561233	keystroke_Key.space	Key.space	n/a
280.721	0.12	561442	keystroke_s	s	n/a
280.8115	0.1195	561623	keystroke_t	t	n/a
280.886	0.105	561772	keystroke_a	a	n/a
280.976	0.075	561952	keystroke_n	n	n/a
281.0665	0.0745	562133	keystroke_d	d	n/a
281.186	0.075	562372	keystroke_Key.enter	Key.enter	n/a
281.268	4.1045	562536	prompt	n/a	uzbekistan fixes relief dancing\n
281.951	0.09	563902	keystroke_u	u	n/a
282.116	0.12	564232	keystroke_z	z	n/a
282.2965	0.0745	564593	keystroke_b	b	n/a
282.461	0.105	564922	keystroke_e	e	n/a
282.551	0.06	565102	keystroke_k	k	n/a
282.716	0.0755	565432	keystroke_i	i	n/a
282.7615	0.1045	565523	keystroke_s	s	n/a
282.8365	0.1195	565673	keystroke_t	t	n/a
282.926	0.135	565852	keystroke_a	a	n/a
283.0015	0.105	566003	keystroke_n	n	n/a
283.121	0.075	566242	keystroke_Key.space	Key.space	n/a
283.2115	0.1045	566423	keystroke_f	f	n/a
283.301	0.06	566602	keystroke_i	i	n/a
283.4065	0.1045	566813	keystroke_x	x	n/a
283.5415	0.1495	567083	keystroke_e	e	n/a
283.6465	0.1045	567293	keystroke_s	s	n/a
283.721	0.105	567442	keystroke_Key.space	Key.space	n/a
283.8415	0.1345	567683	keystroke_r	r	n/a
283.9165	0.1195	567833	keystroke_e	e	n/a
284.066	0.075	568132	keystroke_l	l	n/a
284.111	0.12	568222	keystroke_i	i	n/a
284.171	0.15	568342	keystroke_e	e	n/a
284.291	0.105	568582	keystroke_f	f	n/a
284.411	0.075	568822	keystroke_Key.space	Key.space	n/a
284.636	0.09	569272	keystroke_d	d	n/a
284.7115	0.1195	569423	keystroke_a	a	n/a
284.816	0.09	569632	keystroke_n	n	n/a
284.921	0.105	569842	keystroke_c	c	n/a
285.0115	0.1045	570023	keystroke_i	i	n/a
285.0565	0.0895	570113	keystroke_n	n	n/a
285.1315	0.0895	570263	keystroke_g	g	n/a
285.2965	0.0745	570593	keystroke_Key.enter	Key.enter	n/a
285.3785	4.1345	570757	prompt	n/a	neither customize pills observer\n
286.076	0.135	572152	keystroke_n	n	n/a
286.196	0.075	572392	keystroke_e	e	n/a
286.286	0.09	572572	keystroke_i	i	n/a
286.3765	0.0895	572753	keystroke_t	t	n/a
286.451	0.09	572902	keystroke_h	h	n/a
286.526	0.105	573052	keystroke_e	e	n/a
286.586	0.12	573172	keystroke_r	r	n/a
286.6915	0.0595	573383	keystroke_Key.space	Key.space	n/a
286.8115	0.0745	573623	keystroke_c	c	n/a
286.901	0.105	573802	keystroke_u	u	n/a
286.991	0.105	573982	keystroke_s	s	n/a
287.1265	0.1195	574253	keystroke_t	t	n/a
287.2315	0.09	574463	keystroke_o	o	n/a
287.261	0.135	574522	keystroke_m	m	n/a
287.441	0.12	574882	keystroke_i	i	n/a
287.5465	0.15	575093	keystroke_z	z	n/a
287.621	0.12	575242	keystroke_e	e	n/a
287.726	0.105	575452	keystroke_Key.space	Key.space	n/a
287.8615	0.1195	575723	keystroke_p	p	n/a
287.936	0.09	575872	keystroke_i	i	n/a
288.101	0.075	576202	keystroke_l	l	n/a
288.236	0.105	576472	keystroke_l	l	n/a
288.3265	0.1045	576653	keystroke_s	s	n/a
288.386	0.09	576772	keystroke_Key.space	Key.space	n/a
288.4915	0.0745	576983	keystroke_o	o	n/a
288.5815	0.0745	577163	keystroke_b	b	n/a
288.7315	0.1345	577463	keystroke_s	s	n/a
288.8065	0.1195	577613	keystroke_e	e	n/a
288.8815	0.1195	577763	keystroke_r	r	n/a
289.091	0.075	578182	keystroke_v	v	n/a
289.211	0.12	578422	keystroke_e	e	n/a
289.286	0.105	578572	keystroke_r	r	n/a
289.4365	0.0745	578873	keystroke_Key.enter	Key.enter	n/a
289.519	5.0335	579038	prompt	n/a	testimonials basin division phone\n
290.126	0.18	580252	keystroke_t	t	n/a
290.261	0.195	580522	keystroke_e	e	n/a
290.366	0.105	580732	keystroke_s	s	n/a
290.4415	0.1045	580883	keystroke_t	t	n/a
290.5315	0.1195	581063	keystroke_i	i	n/a
290.6065	0.1345	581213	keystroke_m	m	n/a
290.7565	0.0895	581513	keystroke_o	o	n/a
290.861	0.105	581722	keystroke_n	n	n/a
290.951	0.09	581902	keystroke_i	i	n/a
291.0415	0.1345	582083	keystroke_a	a	n/a
291.1315	0.0895	582263	keystroke_l	l	n/a
291.236	0.105	582472	keystroke_s	s	n/a
291.326	0.075	582652	keystroke_Key.space	Key.space	n/a
291.4165	0.0895	582833	keystroke_b	b	n/a
291.6715	0.1195	583343	keystroke_a	a	n/a
291.7765	0.1195	583553	keystroke_s	s	n/a
291.9415	0.0745	583883	keystroke_i	i	n/a
291.9565	0.09	583913	keystroke_n	n	n/a
292.031	0.09	584062	keystroke_Key.space	Key.space	n/a
292.136	0.135	584272	keystroke_d	d	n/a
292.241	0.0905	584482	keystroke_i	i	n/a
292.3465	0.0895	584693	keystroke_v	v	n/a
292.436	0.09	584872	keystroke_i	i	n/a
292.541	0.135	585082	keystroke_s	s	n/a
292.6615	0.1795	585323	keystroke_i	i	n/a
292.7365	0.1345	585473	keystroke_o	o	n/a
292.811	0.12	585622	keystroke_n	n	n/a
292.931	0.09	585862	keystroke_Key.space	Key.space	n/a
293.036	0.09	586072	keystroke_p	p	n/a
293.081	0.09	586162	keystroke_h	h	n/a
293.216	0.0905	586432	keystroke_o	o	n/a
293.2615	0.1345	586523	keystroke_t	t	n/a
293.381	0.09	586762	keystroke_o	o	n/a
293.7715	0.0595	587543	keystroke_Key.backspace	Key.backspace	n/a
293.9215	0.0595	587843	keystroke_Key.backspace	Key.backspace	n/a
294.251	0.075	588502	keystroke_n	n	n/a
294.3415	0.0895	588683	keystroke_e	e	n/a
294.4915	0.0595	588983	keystroke_Key.enter	Key.enter	n/a
294.558	3.808	589116	prompt	n/a	remain stroke provision helena\n
295.181	0.135	590362	keystroke_r	r	n/a
295.2565	0.1195	590513	keystroke_e	e	n/a
295.3615	0.0745	590723	keystroke_m	m	n/a
295.451	0.165	590902	keystroke_a	a	n/a
295.527	0.104	591054	keystroke_i	i	n/a
295.6015	0.0895	591203	keystroke_n	n	n/a
295.6765	0.1045	591353	keystroke_Key.space	Key.space	n/a
295.7365	0.09	591473	keystroke_s	s	n/a
295.8115	0.075	591623	keystroke_t	t	n/a
295.9465	0.1345	591893	keystroke_r	r	n/a
296.0215	0.1045	592043	keystroke_o	o	n/a
296.081	0.105	592162	keystroke_k	k	n/a
296.156	0.105	592312	keystroke_e	e	n/a
296.22	0.101	592440	keystroke_Key.space	Key.space	n/a
296.3065	0.1195	592613	keystroke_p	p	n/a
296.411	0.09	592822	keystroke_r	r	n/a
296.531	0.09	593062	keystroke_o	o	n/a
296.6515	0.1195	593303	keystroke_v	v	n/a
296.7565	0.0895	593513	keystroke_i	i	n/a
296.9065	0.1195	593813	keystroke_s	s	n/a
296.981	0.15	593962	keystroke_i	i	n/a
297.0265	0.1345	594053	keystroke_o	o	n/a
297.101	0.105	594202	keystroke_n	n	n/a
297.2215	0.1045	594443	keystroke_Key.space	Key.space	n/a
297.311	0.075	594622	keystroke_h	h	n/a
297.4015	0.1045	594803	keystroke_e	e	n/a
297.4915	0.0745	594983	keystroke_l	l	n/a
298.001	0.105	596002	keystroke_e	e	n/a
298.091	0.075	596182	keystroke_n	n	n/a
298.196	0.12	596392	keystroke_a	a	n/a
298.316	0.0465	596632	keystroke_Key.enter	Key.enter	n/a
298.3745	4.173	596749	prompt	n/a	elite temple diabetes vacancies\n
298.9315	0.105	597863	keystroke_e	e	n/a
299.021	0.12	598042	keystroke_l	l	n/a
299.0815	0.1045	598163	keystroke_i	i	n/a
299.156	0.12	598312	keystroke_t	t	n/a
299.231	0.105	598462	keystroke_e	e	n/a
299.306	0.105	598612	keystroke_Key.space	Key.space	n/a
299.3965	0.0895	598793	keystroke_t	t	n/a
299.4415	0.1195	598883	keystroke_e	e	n/a
299.516	0.12	599032	keystroke_m	m	n/a
299.5915	0.0895	599183	keystroke_p	p	n/a
299.7575	0.0735	599515	keystroke_l	l	n/a
299.8465	0.0895	599693	keystroke_e	e	n/a
299.9215	0.0895	599843	keystroke_Key.space	Key.space	n/a
300.0415	0.1045	600083	keystroke_d	d	n/a
300.1465	0.0895	600293	keystroke_i	i	n/a
300.2215	0.1345	600443	keystroke_a	a	n/a
300.3565	0.0895	600713	keystroke_b	b	n/a
300.5215	0.1495	601043	keystroke_e	e	n/a
300.6265	0.1495	601253	keystroke_t	t	n/a
300.7315	0.1645	601463	keystroke_e	e	n/a
300.851	0.105	601702	keystroke_s	s	n/a
300.9715	0.075	601943	keystroke_Key.space	Key.space	n/a
301.301	0.12	602602	keystroke_v	v	n/a
301.436	0.12	602872	keystroke_a	a	n/a
301.6615	0.0895	603323	keystroke_c	c	n/a
301.7815	0.1195	603563	keystroke_a	a	n/a
301.916	0.075	603832	keystroke_n	n	n/a
302.0365	0.0895	604073	keystroke_c	c	n/a
302.1415	0.0745	604283	keystroke_i	i	n/a
302.2615	0.1195	604523	keystroke_e	e	n/a
302.3215	0.1195	604643	keystroke_s	s	n/a
302.4715	0.0745	604943	keystroke_Key.enter	Key.enter	n/a
302.552	3.836	605104	prompt	n/a	untitled ribbon tribe carolina\n
303.1465	0.075	606293	keystroke_u	u	n/a
303.3265	0.0745	606653	keystroke_n	n	n/a
303.4465	0.0895	606893	keystroke_t	t	n/a
303.5215	0.1045	607043	keystroke_i	i	n/a
303.6115	0.1345	607223	keystroke_t	t	n/a
303.731	0.075	607462	keystroke_l	l	n/a
303.7915	0.06	607583	keystroke_e	e	n/a
303.9415	0.0895	607883	keystroke_d	d	n/a
304.031	0.105	608062	keystroke_Key.space	Key.space	n/a
304.1215	0.1045	608243	keystroke_r	r	n/a
304.241	0.105	608482	keystroke_i	i	n/a
304.331	0.06	608662	keystroke_b	b	n/a
304.4965	0.0745	608993	keystroke_b	b	n/a
304.5565	0.0895	609113	keystroke_o	o	n/a
304.601	0.12	609202	keystroke_n	n	n/a
304.706	0.0905	609412	keystroke_Key.space	Key.space	n/a
304.7825	0.0735	609565	keystroke_t	t	n/a
304.9465	0.0895	609893	keystroke_r	r	n/a
305.0215	0.09	610043	keystroke_i	i	n/a
305.1265	0.0595	610253	keystroke_b	b	n/a
305.246	0.09	610492	keystroke_e	e	n/a
305.3215	0.0745	610643	keystroke_Key.space	Key.space	n/a
305.4865	0.0745	610973	keystroke_c	c	n/a
305.5915	0.1345	611183	keystroke_a	a	n/a
305.6665	0.1045	611333	keystroke_r	r	n/a
305.7415	0.0745	611483	keystroke_o	o	n/a
305.9215	0.1195	611843	keystroke_l	l	n/a
305.996	0.135	611992	keystroke_i	i	n/a
306.0865	0.1045	612173	keystroke_n	n	n/a
306.191	0.12	612382	keystroke_a	a	n/a
306.3265	0.0595	612653	keystroke_Key.enter	Key.enter	n/a
306.3935	3.9395	612787	prompt	n/a	wikipedia consider tumor alpine\n
306.9865	0.1045	613973	keystroke_w	w	n/a
307.076	0.075	614152	keystroke_i	i	n/a
307.2415	0.0895	614483	keystroke_k	k	n/a
307.4065	0.1195	614813	keystroke_i	i	n/a
307.496	0.12	614992	keystroke_p	p	n/a
307.601	0.075	615202	keystroke_e	e	n/a
307.8565	0.0295	615713	keystroke_d	d	n/a
307.8715	0.0895	615743	keystroke_i	i	n/a
307.9465	0.1345	615893	keystroke_a	a	n/a
308.051	0.09	616102	keystroke_Key.space	Key.space	n/a
308.1715	0.0745	616343	keystroke_c	c	n/a
308.231	0.09	616462	keystroke_o	o	n/a
308.2615	0.1195	616523	keystroke_n	n	n/a
308.4115	0.0895	616823	keystroke_s	s	n/a
308.516	0.09	617032	keystroke_i	i	n/a
308.6065	0.0595	617213	keystroke_d	d	n/a
308.7415	0.0895	617483	keystroke_e	e	n/a
308.8015	0.1195	617603	keystroke_r	r	n/a
308.876	0.105	617752	keystroke_Key.space	Key.space	n/a
308.996	0.12	617992	keystroke_t	t	n/a
309.0865	0.0745	618173	keystroke_u	u	n/a
309.2515	0.1195	618503	keystroke_m	m	n/a
309.3265	0.1045	618653	keystroke_o	o	n/a
309.4015	0.0895	618803	keystroke_r	r	n/a
309.4765	0.075	618953	keystroke_Key.space	Key.space	n/a
309.566	0.1355	619132	keystroke_a	a	n/a
309.6565	0.0745	619313	keystroke_l	l	n/a
309.822	0.149	619644	keystroke_p	p	n/a
309.9715	0.1345	619943	keystroke_i	i	n/a
310.0465	0.105	620093	keystroke_n	n	n/a
310.1365	0.0895	620273	keystroke_e	e	n/a
310.241	0.09	620482	keystroke_Key.enter	Key.enter	n/a
310.343	4.6545	620686	prompt	n/a	shopper creations transparency mobiles\n
311.1115	0.1045	622223	keystroke_s	s	n/a
311.1415	0.1045	622283	keystroke_h	h	n/a
311.2465	0.1045	622493	keystroke_o	o	n/a
311.3665	0.0745	622733	keystroke_p	p	n/a
311.516	0.12	623032	keystroke_p	p	n/a
