onset	duration	sample	value	key	prompt_text
6.5635	11.527	13127	prompt	n/a	the quick brown fox jumps over a lazy dog\n
8.881	0.001	17762	keystroke_t	t	n/a
8.908	0.075	17816	keystroke_h	h	n/a
9.238	0.06	18476	keystroke_e	e	n/a
9.388	0.09	18776	keystroke_Key.space	Key.space	n/a
10.1825	0.075	20365	keystroke_q	q	n/a
10.3025	0.075	20605	keystroke_u	u	n/a
10.4675	0.061	20935	keystroke_i	i	n/a
10.5435	0.089	21087	keystroke_c	c	n/a
10.6785	0.119	21357	keystroke_k	k	n/a
10.8125	0.075	21625	keystroke_Key.space	Key.space	n/a
10.9625	0.0905	21925	keystroke_b	b	n/a
11.068	0.075	22136	keystroke_r	r	n/a
11.1575	0.0905	22315	keystroke_o	o	n/a
11.308	0.105	22616	keystroke_w	w	n/a
11.458	0.135	22916	keystroke_n	n	n/a
11.578	0.075	23156	keystroke_Key.space	Key.space	n/a
12.2835	0.015	24567	keystroke_f	f	n/a
12.3435	0.0895	24687	keystroke_o	o	n/a
12.598	0.09	25196	keystroke_x	x	n/a
12.748	0.075	25496	keystroke_Key.space	Key.space	n/a
12.883	0.075	25766	keystroke_j	j	n/a
13.033	0.075	26066	keystroke_u	u	n/a
13.153	0.09	26306	keystroke_m	m	n/a
13.408	0.06	26816	keystroke_s	s	n/a
13.498	0.06	26996	keystroke_p	p	n/a
14.383	0.045	28766	keystroke_Key.backspace	Key.backspace	n/a
14.548	0.06	29096	keystroke_Key.backspace	Key.backspace	n/a
14.863	0.075	29726	keystroke_p	p	n/a
14.9985	0.06	29997	keystroke_s	s	n/a
15.1635	0.075	30327	keystroke_Key.space	Key.space	n/a
15.3285	0.09	30657	keystroke_o	o	n/a
15.4635	0.075	30927	keystroke_v	v	n/a
15.6585	0.09	31317	keystroke_e	e	n/a
15.7035	0.105	31407	keystroke_r	r	n/a
15.8535	0.06	31707	keystroke_Key.space	Key.space	n/a
15.9285	0.09	31857	keystroke_a	a	n/a
16.1085	0.075	32217	keystroke_Key.space	Key.space	n/a
16.3785	0.075	32757	keystroke_l	l	n/a
16.4835	0.06	32967	keystroke_a	a	n/a
16.9635	0.06	33927	keystroke_z	z	n/a
17.2635	0.12	34527	keystroke_y	y	n/a
17.3085	0.15	34617	keystroke_Key.space	Key.space	n/a
17.5635	0.075	35127	keystroke_d	d	n/a
17.6535	0.075	35307	keystroke_o	o	n/a
17.7735	0.0895	35547	keystroke_g	g	n/a
18.0135	0.075	36027	keystroke_Key.enter	Key.enter	n/a
18.0975	7.1775	36195	prompt	n/a	phrase wireless breeds surgical\n
19.153	0.0755	38306	keystroke_p	p	n/a
19.3785	0.075	38757	keystroke_h	h	n/a
19.5585	0.075	39117	keystroke_r	r	n/a
19.6785	0.194	39357	keystroke_a	a	n/a
19.8735	0.075	39747	keystroke_s	s	n/a
20.0685	0.06	40137	keystroke_e	e	n/a
20.1875	0.091	40375	keystroke_Key.space	Key.space	n/a
20.3385	0.075	40677	keystroke_w	w	n/a
20.5035	0.0745	41007	keystroke_i	i	n/a
21.0125	0.076	42025	keystroke_r	r	n/a
21.0275	0.106	42055	keystroke_e	e	n/a
21.2385	0.075	42477	keystroke_l	l	n/a
21.3285	0.06	42657	keystroke_e	e	n/a
21.5235	0.06	43047	keystroke_s	s	n/a
21.6585	0.089	43317	keystroke_s	s	n/a
21.853	0.075	43706	keystroke_Key.space	Key.space	n/a
22.2125	0.061	44425	keystroke_b	b	n/a
22.2875	0.075	44575	keystroke_r	r	n/a
22.3335	0.074	44667	keystroke_e	e	n/a
22.4825	0.076	44965	keystroke_e	e	n/a
22.723	0.0755	45446	keystroke_d	d	n/a
22.8735	0.09	45747	keystroke_s	s	n/a
23.0985	0.075	46197	keystroke_Key.space	Key.space	n/a
23.713	0.09	47426	keystroke_s	s	n/a
23.893	0.0605	47786	keystroke_u	u	n/a
24.028	0.045	48056	keystroke_r	r	n/a
24.193	0.06	48386	keystroke_g	g	n/a
24.298	0.075	48596	keystroke_i	i	n/a
24.524	0.059	49048	keystroke_c	c	n/a
24.688	0.075	49376	keystroke_a	a	n/a
24.778	0.0745	49556	keystroke_l	l	n/a
25.198	0.075	50396	keystroke_Key.enter	Key.enter	n/a
25.288	9.3845	50576	prompt	n/a	brighton minute raises genome\n
26.2785	0.045	52557	keystroke_b	b	n/a
26.3685	0.075	52737	keystroke_r	r	n/a
26.4585	0.075	52917	keystroke_i	i	n/a
26.578	0.075	53156	keystroke_g	g	n/a
26.668	0.06	53336	keystroke_h	h	n/a
26.773	0.06	53546	keystroke_t	t	n/a
26.938	0.075	53876	keystroke_o	o	n/a
27.1185	0.15	54237	keystroke_n	n	n/a
27.2835	0.09	54567	keystroke_Key.space	Key.space	n/a
27.5685	0.09	55137	keystroke_m	m	n/a
27.793	0.0595	55586	keystroke_i	i	n/a
27.9425	0.076	55885	keystroke_n	n	n/a
28.1375	0.061	56275	keystroke_u	u	n/a
28.2585	0.045	56517	keystroke_t	t	n/a
28.4075	0.076	56815	keystroke_e	e	n/a
28.6325	0.06	57265	keystroke_Key.space	Key.space	n/a
29.143	0.061	58286	keystroke_r	r	n/a
29.248	0.075	58496	keystroke_a	a	n/a
29.368	0.075	58736	keystroke_i	i	n/a
29.473	0.075	58946	keystroke_s	s	n/a
29.653	0.045	59306	keystroke_e	e	n/a
29.833	0.06	59666	keystroke_s	s	n/a
29.998	0.075	59996	keystroke_Key.space	Key.space	n/a
30.238	0.06	60476	keystroke_s	s	n/a
30.658	0.075	61316	keystroke_e	e	n/a
31.648	0.045	63296	keystroke_Key.backspace	Key.backspace	n/a
31.783	0.075	63566	keystroke_Key.backspace	Key.backspace	n/a
32.488	0.06	64976	keystroke_g	g	n/a
32.653	0.09	65306	keystroke_e	e	n/a
32.9835	0.045	65967	keystroke_n	n	n/a
33.1935	0.06	66387	keystroke_o	o	n/a
33.8985	0.045	67797	keystroke_m	m	n/a
34.0035	0.075	68007	keystroke_e	e	n/a
34.5735	0.09	69147	keystroke_Key.enter	Key.enter	n/a
34.6775	7.3675	69355	prompt	n/a	radical tulsa estate tamil\n
35.548	0.06	71096	keystroke_r	r	n/a
35.668	0.09	71336	keystroke_a	a	n/a
35.818	0.105	71636	keystroke_d	d	n/a
35.953	0.06	71906	keystroke_i	i	n/a
36.088	0.075	72176	keystroke_c	c	n/a
36.238	0.09	72476	keystroke_a	a	n/a
36.373	0.075	72746	keystroke_l	l	n/a
36.628	0.045	73256	keystroke_Key.space	Key.space	n/a
37.288	0.045	74576	keystroke_t	t	n/a
37.393	0.06	74786	keystroke_u	u	n/a
37.588	0.075	75176	keystroke_l	l	n/a
37.693	0.09	75386	keystroke_s	s	n/a
37.9635	0.015	75927	keystroke_a	a	n/a
38.0535	0.075	76107	keystroke_Key.space	Key.space	n/a
38.2335	0.06	76467	keystroke_e	e	n/a
38.4285	0.09	76857	keystroke_s	s	n/a
38.8185	0.045	77637	keystroke_t	t	n/a
38.968	0.075	77936	keystroke_a	a	n/a
39.163	0.075	78326	keystroke_t	t	n/a
39.208	0.09	78416	keystroke_e	e	n/a
39.478	0.09	78956	keystroke_Key.space	Key.space	n/a
39.628	0.0605	79256	keystroke_t	t	n/a
39.7935	0.06	79587	keystroke_a	a	n/a
40.0185	0.06	80037	keystroke_m	m	n/a
40.1685	0.06	80337	keystroke_i	i	n/a
40.3485	0.075	80697	keystroke_l	l	n/a
40.5735	0.075	81147	keystroke_'	'	n/a
41.6835	0.045	83367	keystroke_Key.backspace	Key.backspace	n/a
41.9835	0.06	83967	keystroke_Key.enter	Key.enter	n/a
42.0545	10.168	84109	prompt	n/a	responding program rebound mouse\n
45.5705	0.013	91141	keystroke_r	r	n/a
45.5715	0.072	91143	keystroke_e	e	n/a
45.7785	0.06	91557	keystroke_s	s	n/a
45.9585	0.105	91917	keystroke_p	p	n/a
46.0485	0.105	92097	keystroke_o	o	n/a
46.2885	0.06	92577	keystroke_n	n	n/a
46.4085	0.09	92817	keystroke_d	d	n/a
46.5135	0.045	93027	keystroke_i	i	n/a
46.6185	0.075	93237	keystroke_n	n	n/a
46.7235	0.075	93447	keystroke_g	g	n/a
46.8585	0.075	93717	keystroke_Key.space	Key.space	n/a
47.5335	0.075	95067	keystroke_p	p	n/a
47.7135	0.03	95427	keystroke_r	r	n/a
47.8035	0.06	95607	keystroke_o	o	n/a
47.9985	0.075	95997	keystroke_g	g	n/a
48.0435	0.09	96087	keystroke_r	r	n/a
48.2685	0.075	96537	keystroke_a	a	n/a
48.3885	0.09	96777	keystroke_m	m	n/a
48.6585	0.075	97317	keystroke_Key.space	Key.space	n/a
49.723	0.075	99446	keystroke_r	r	n/a
49.768	0.091	99536	keystroke_e	e	n/a
50.1135	0.06	100227	keystroke_b	b	n/a
50.2935	0.105	100587	keystroke_o	o	n/a
50.3685	0.105	100737	keystroke_u	u	n/a
50.578	0.0605	101156	keystroke_n	n	n/a
50.6685	0.075	101337	keystroke_d	d	n/a
50.8635	0.075	101727	keystroke_Key.space	Key.space	n/a
51.3285	0.075	102657	keystroke_m	m	n/a
51.5235	0.09	103047	keystroke_o	o	n/a
51.5985	0.09	103197	keystroke_u	u	n/a
51.7635	0.0595	103527	keystroke_s	s	n/a
51.9285	0.06	103857	keystroke_e	e	n/a
52.1535	0.06	104307	keystroke_Key.enter	Key.enter	n/a
52.231	13.282	104462	prompt	n/a	occasional samsung directories though\n
53.4135	0.06	106827	keystroke_o	o	n/a
53.5335	0.045	107067	keystroke_c	c	n/a
53.6685	0.075	107337	keystroke_c	c	n/a
53.8185	0.09	107637	keystroke_a	a	n/a
53.9535	0.09	107907	keystroke_s	s	n/a
54.1185	0.075	108237	keystroke_s	s	n/a
54.3135	0.045	108627	keystroke_i	i	n/a
54.5235	0.015	109047	keystroke_o	o	n/a
54.8535	0.045	109707	keystroke_n	n	n/a
55.0035	0.075	110007	keystroke_a	a	n/a
55.1385	0.075	110277	keystroke_l	l	n/a
55.4085	0.0595	110817	keystroke_Key.space	Key.space	n/a
57.178	0.06	114356	keystroke_Key.backspace	Key.backspace	n/a
57.403	0.045	114806	keystroke_Key.backspace	Key.backspace	n/a
57.6135	0.0595	115227	keystroke_Key.backspace	Key.backspace	n/a
57.8385	0.06	115677	keystroke_Key.backspace	Key.backspace	n/a
58.0485	0.06	116097	keystroke_Key.backspace	Key.backspace	n/a
58.288	0.075	116576	keystroke_Key.backspace	Key.backspace	n/a
58.498	0.06	116996	keystroke_Key.backspace	Key.backspace	n/a
59.1135	0.06	118227	keystroke_i	i	n/a
59.2635	0.06	118527	keystroke_o	o	n/a
59.4435	0.075	118887	keystroke_n	n	n/a
59.5635	0.075	119127	keystroke_a	a	n/a
59.6685	0.15	119337	keystroke_l	l	n/a
59.7885	0.105	119577	keystroke_Key.space	Key.space	n/a
60.3135	0.105	120627	keystroke_s	s	n/a
60.4635	0.09	120927	keystroke_a	a	n/a
60.6285	0.06	121257	keystroke_m	m	n/a
60.7185	0.105	121437	keystroke_s	s	n/a
60.9585	0.09	121917	keystroke_u	u	n/a
61.2735	0.075	122547	keystroke_n	n	n/a
61.4085	0.06	122817	keystroke_g	g	n/a
61.544	0.06	123088	keystroke_Key.space	Key.space	n/a
62.444	0.0745	124888	keystroke_d	d	n/a
62.594	0.075	125188	keystroke_i	i	n/a
62.699	0.09	125398	keystroke_r	r	n/a
62.834	0.075	125668	keystroke_e	e	n/a
63.059	0.06	126118	keystroke_c	c	n/a
63.254	0.06	126508	keystroke_t	t	n/a
63.359	0.075	126718	keystroke_o	o	n/a
63.464	0.0895	126928	keystroke_r	r	n/a
63.6135	0.075	127227	keystroke_i	i	n/a
63.7035	0.0895	127407	keystroke_e	e	n/a
64.0635	0.075	128127	keystroke_s	s	n/a
64.2135	0.09	128427	keystroke_Key.space	Key.space	n/a
64.4535	0.075	128907	keystroke_t	t	n/a
64.5885	0.06	129177	keystroke_h	h	n/a
64.7835	0.105	129567	keystroke_o	o	n/a
64.8735	0.09	129747	keystroke_u	u	n/a
64.9785	0.09	129957	keystroke_g	g	n/a
65.0835	0.06	130167	keystroke_h	h	n/a
65.4135	0.09	130827	keystroke_Key.enter	Key.enter	n/a
65.5175	9.206	131035	prompt	n/a	conducting kelly factor commission\n
66.3735	0.075	132747	keystroke_c	c	n/a
66.5085	0.03	133017	keystroke_o	o	n/a
66.6585	0.09	133317	keystroke_n	n	n/a
66.7785	0.075	133557	keystroke_d	d	n/a
66.8835	0.06	133767	keystroke_u	u	n/a
67.0935	0.09	134187	keystroke_c	c	n/a
67.3935	0.06	134787	keystroke_t	t	n/a
67.5135	0.075	135027	keystroke_i	i	n/a
67.7535	0.09	135507	keystroke_n	n	n/a
67.8735	0.12	135747	keystroke_g	g	n/a
68.0235	0.09	136047	keystroke_Key.space	Key.space	n/a
68.8035	0.06	137607	keystroke_k	k	n/a
68.8785	0.06	137757	keystroke_e	e	n/a
69.0435	0.06	138087	keystroke_p	p	n/a
69.4485	0.06	138897	keystroke_Key.backspace	Key.backspace	n/a
69.6885	0.06	139377	keystroke_l	l	n/a
69.8235	0.06	139647	keystroke_l	l	n/a
70.708	0.12	141416	keystroke_y	y	n/a
70.783	0.105	141566	keystroke_Key.space	Key.space	n/a
70.978	0.06	141956	keystroke_f	f	n/a
71.098	0.075	142196	keystroke_a	a	n/a
71.233	0.09	142466	keystroke_c	c	n/a
71.458	0.09	142916	keystroke_t	t	n/a
71.788	0.06	143576	keystroke_o	o	n/a
72.028	0.09	144056	keystroke_r	r	n/a
72.193	0.06	144386	keystroke_Key.space	Key.space	n/a
72.6885	0.075	145377	keystroke_c	c	n/a
72.7785	0.06	145557	keystroke_o	o	n/a
72.9435	0.075	145887	keystroke_m	m	n/a
73.0785	0.09	146157	keystroke_m	m	n/a
73.2735	0.075	146547	keystroke_i	i	n/a
73.4235	0.075	146847	keystroke_s	s	n/a
73.5885	0.075	147177	keystroke_s	s	n/a
73.739	0.0295	147478	keystroke_i	i	n/a
73.9335	0.075	147867	keystroke_o	o	n/a
74.1135	0.09	148227	keystroke_n	n	n/a
74.6235	0.09	149247	keystroke_Key.enter	Key.enter	n/a
74.73	8.1675	149460	prompt	n/a	reactions expressions latino cowboy\n
75.6585	0.09	151317	keystroke_r	r	n/a
75.9885	0.06	151977	keystroke_e	e	n/a
76.1085	0.075	152217	keystroke_a	a	n/a
76.2735	0.09	152547	keystroke_c	c	n/a
76.5285	0.03	153057	keystroke_t	t	n/a
76.6185	0.045	153237	keystroke_i	i	n/a
76.7535	0.045	153507	keystroke_o	o	n/a
76.8735	0.0895	153747	keystroke_n	n	n/a
76.993	0.045	153986	keystroke_s	s	n/a
77.128	0.075	154256	keystroke_Key.space	Key.space	n/a
77.623	0.045	155246	keystroke_e	e	n/a
77.863	0.09	155726	keystroke_x	x	n/a
78.043	0.075	156086	keystroke_p	p	n/a
78.178	0.09	156356	keystroke_r	r	n/a
78.238	0.075	156476	keystroke_e	e	n/a
78.433	0.06	156866	keystroke_s	s	n/a
78.568	0.09	157136	keystroke_s	s	n/a
78.703	0.06	157406	keystroke_i	i	n/a
78.823	0.06	157646	keystroke_o	o	n/a
78.943	0.09	157886	keystroke_n	n	n/a
79.003	0.06	158006	keystroke_s	s	n/a
79.168	0.105	158336	keystroke_Key.space	Key.space	n/a
79.498	0.045	158996	keystroke_l	l	n/a
79.573	0.075	159146	keystroke_a	a	n/a
79.7985	0.0745	159597	keystroke_t	t	n/a
79.888	0.06	159776	keystroke_i	i	n/a
80.008	0.075	160016	keystroke_n	n	n/a
80.4135	0.15	160827	keystroke_o	o	n/a
80.5485	0.105	161097	keystroke_Key.space	Key.space	n/a
81.0735	0.0895	162147	keystroke_c	c	n/a
81.658	0.06	163316	keystroke_o	o	n/a
81.9735	0.075	163947	keystroke_w	w	n/a
82.1985	0.06	164397	keystroke_b	b	n/a
82.3635	0.045	164727	keystroke_o	o	n/a
82.528	0.075	165056	keystroke_y	y	n/a
82.798	0.0905	165596	keystroke_Key.enter	Key.enter	n/a
82.902	8.891	165804	prompt	n/a	dodge originally formal saves\n
83.9385	0.06	167877	keystroke_d	d	n/a
84.1485	0.06	168297	keystroke_d	d	n/a
84.4635	0.075	168927	keystroke_Key.backspace	Key.backspace	n/a
84.6435	0.075	169287	keystroke_o	o	n/a
84.7335	0.09	169467	keystroke_d	d	n/a
85.0635	0.075	170127	keystroke_g	g	n/a
85.438	0.0905	170876	keystroke_e	e	n/a
85.6635	0.075	171327	keystroke_Key.space	Key.space	n/a
85.8585	0.075	171717	keystroke_o	o	n/a
85.9485	0.09	171897	keystroke_r	r	n/a
86.1585	0.06	172317	keystroke_g	g	n/a
86.2785	0.03	172557	keystroke_i	i	n/a
86.5335	0.06	173067	keystroke_Key.backspace	Key.backspace	n/a
87.0135	0.075	174027	keystroke_Key.backspace	Key.backspace	n/a
87.4335	0.0745	174867	keystroke_i	i	n/a
87.553	0.075	175106	keystroke_g	g	n/a
87.688	0.06	175376	keystroke_i	i	n/a
87.958	0.075	175916	keystroke_n	n	n/a
88.063	0.09	176126	keystroke_a	a	n/a
88.198	0.06	176396	keystroke_l	l	n/a
88.333	0.06	176666	keystroke_l	l	n/a
88.573	0.12	177146	keystroke_y	y	n/a
88.723	0.09	177446	keystroke_Key.space	Key.space	n/a
89.053	0.045	178106	keystroke_d	d	n/a
89.338	0.075	178676	keystroke_Key.backspace	Key.backspace	n/a
89.443	0.105	178886	keystroke_f	f	n/a
89.563	0.075	179126	keystroke_o	o	n/a
89.668	0.06	179336	keystroke_r	r	n/a
89.954	0.059	179908	keystroke_m	m	n/a
90.058	0.105	180116	keystroke_a	a	n/a
90.223	0.18	180446	keystroke_l	l	n/a
90.388	0.105	180776	keystroke_Key.space	Key.space	n/a
90.868	0.15	181736	keystroke_s	s	n/a
90.973	0.105	181946	keystroke_a	a	n/a
91.258	0.075	182516	keystroke_v	v	n/a
91.393	0.09	182786	keystroke_e	e	n/a
91.588	0.09	183176	keystroke_s	s	n/a
91.708	0.0755	183416	keystroke_Key.enter	Key.enter	n/a
91.797	7.563	183594	prompt	n/a	realized clark antivirus measure\n
92.8935	0.195	185787	keystroke_r	r	n/a
93.0735	0.03	186147	keystroke_e	e	n/a
93.1185	0.03	186237	keystroke_a	a	n/a
93.2085	0.045	186417	keystroke_l	l	n/a
93.3435	0.075	186687	keystroke_i	i	n/a
93.6285	0.075	187257	keystroke_z	z	n/a
93.8535	0.045	187707	keystroke_e	e	n/a
94.0035	0.12	188007	keystroke_d	d	n/a
94.1835	0.075	188367	keystroke_Key.space	Key.space	n/a
94.4835	0.09	188967	keystroke_c	c	n/a
94.6035	0.075	189207	keystroke_l	l	n/a
94.7085	0.075	189417	keystroke_a	a	n/a
94.9335	0.06	189867	keystroke_r	r	n/a
95.3085	0.165	190617	keystroke_k	k	n/a
95.4435	0.105	190887	keystroke_Key.space	Key.space	n/a
95.6685	0.09	191337	keystroke_a	a	n/a
95.8035	0.075	191607	keystroke_n	n	n/a
96.0135	0.06	192027	keystroke_t	t	n/a
96.0885	0.075	192177	keystroke_i	i	n/a
96.7185	0.06	193437	keystroke_v	v	n/a
96.8385	0.075	193677	keystroke_i	i	n/a
96.9885	0.075	193977	keystroke_r	r	n/a
97.0935	0.09	194187	keystroke_u	u	n/a
97.2285	0.105	194457	keystroke_s	s	n/a
97.3785	0.09	194757	keystroke_Key.space	Key.space	n/a
97.948	0.09	195896	keystroke_m	m	n/a
98.023	0.045	196046	keystroke_e	e	n/a
98.158	0.15	196316	keystroke_a	a	n/a
98.263	0.12	196526	keystroke_s	s	n/a
98.473	0.09	196946	keystroke_u	u	n/a
98.683	0.12	197366	keystroke_r	r	n/a
98.728	0.135	197456	keystroke_e	e	n/a
99.283	0.075	198566	keystroke_Key.enter	Key.enter	n/a
99.363	8.164	198726	prompt	n/a	infringement pike hammer authorities\n
100.243	0.0595	200486	keystroke_i	i	n/a
100.3775	0.075	200755	keystroke_n	n	n/a
100.5875	0.061	201175	keystroke_f	f	n/a
100.7235	0.075	201447	keystroke_r	r	n/a
100.8285	0.075	201657	keystroke_i	i	n/a
101.0385	0.075	202077	keystroke_n	n	n/a
101.1585	0.09	202317	keystroke_g	g	n/a
101.3685	0.075	202737	keystroke_e	e	n/a
101.5185	0.075	203037	keystroke_m	m	n/a
101.6085	0.09	203217	keystroke_e	e	n/a
101.7135	0.06	203427	keystroke_n	n	n/a
101.8185	0.06	203637	keystroke_t	t	n/a
101.9835	0.045	203967	keystroke_Key.space	Key.space	n/a
102.3735	0.06	204747	keystroke_p	p	n/a
102.7185	0.06	205437	keystroke_i	i	n/a
102.8835	0.045	205767	keystroke_k	k	n/a
102.9435	0.075	205887	keystroke_e	e	n/a
103.0635	0.075	206127	keystroke_Key.space	Key.space	n/a
103.2735	0.075	206547	keystroke_h	h	n/a
103.3635	0.075	206727	keystroke_a	a	n/a
103.4985	0.045	206997	keystroke_m	m	n/a
103.6185	0.075	207237	keystroke_m	m	n/a
103.7235	0.09	207447	keystroke_e	e	n/a
103.8885	0.09	207777	keystroke_r	r	n/a
104.0835	0.06	208167	keystroke_Key.space	Key.space	n/a
104.3535	0.074	208707	keystroke_a	a	n/a
104.803	0.045	209606	keystroke_u	u	n/a
105.1625	0.031	210325	keystroke_h	h	n/a
105.5075	0.09	211015	keystroke_Key.backspace	Key.backspace	n/a
105.6285	0.09	211257	keystroke_t	t	n/a
105.7775	0.06	211555	keystroke_h	h	n/a
105.9885	0.045	211977	keystroke_o	o	n/a
106.4375	0.076	212875	keystroke_r	r	n/a
106.5735	0.059	213147	keystroke_i	i	n/a
106.7825	0.075	213565	keystroke_t	t	n/a
106.8725	0.075	213745	keystroke_i	i	n/a
106.9925	0.075	213985	keystroke_e	e	n/a
107.2175	0.09	214435	keystroke_s	s	n/a
107.4425	0.075	214885	keystroke_Key.enter	Key.enter	n/a
107.5315	8.2915	215063	prompt	n/a	lightning isbn farms satisfy\n
108.418	0.06	216836	keystroke_l	l	n/a
108.613	0.06	217226	keystroke_i	i	n/a
108.7335	0.089	217467	keystroke_g	g	n/a
108.8525	0.06	217705	keystroke_h	h	n/a
108.9725	0.061	217945	keystroke_t	t	n/a
109.3775	0.076	218755	keystroke_n	n	n/a
109.5285	0.074	219057	keystroke_i	i	n/a
109.7085	0.044	219417	keystroke_n	n	n/a
109.8125	0.076	219625	keystroke_g	g	n/a
110.0375	0.06	220075	keystroke_Key.space	Key.space	n/a
110.4435	0.075	220887	keystroke_i	i	n/a
110.6235	0.075	221247	keystroke_s	s	n/a
110.9825	0.061	221965	keystroke_b	b	n/a
111.1635	0.134	222327	keystroke_n	n	n/a
111.2675	0.12	222535	keystroke_Key.space	Key.space	n/a
112.0035	0.044	224007	keystroke_f	f	n/a
112.1075	0.105	224215	keystroke_a	a	n/a
112.2575	0.091	224515	keystroke_r	r	n/a
112.3325	0.075	224665	keystroke_m	m	n/a
112.4535	0.119	224907	keystroke_s	s	n/a
112.6335	0.089	225267	keystroke_Key.space	Key.space	n/a
112.9635	0.059	225927	keystroke_s	s	n/a
113.9085	0.105	227817	keystroke_a	a	n/a
114.3885	0.075	228777	keystroke_t	t	n/a
114.5685	0.06	229137	keystroke_i	i	n/a
114.808	0.06	229616	keystroke_s	s	n/a
115.063	0.075	230126	keystroke_f	f	n/a
115.198	0.0755	230396	keystroke_y	y	n/a
115.7525	0.06	231505	keystroke_Key.enter	Key.enter	n/a
115.8275	0.045	231655	keystroke_Key.enter	Key.enter	n/a
115.828	0.0465	231656	prompt	n/a	simplified maximize mainstream education\n
115.877	8.557	231754	prompt	n/a	interaction discs wonderful cool\n
117.9905	0.013	235981	keystroke_i	i	n/a
118.0475	0.09	236095	keystroke_n	n	n/a
118.1525	0.075	236305	keystroke_t	t	n/a
118.2885	0.105	236577	keystroke_e	e	n/a
118.3635	0.105	236727	keystroke_r	r	n/a
118.6475	0.106	237295	keystroke_a	a	n/a
119.578	0.09	239156	keystroke_c	c	n/a
119.8785	0.09	239757	keystroke_t	t	n/a
120.0735	0.045	240147	keystroke_i	i	n/a
120.448	0.075	240896	keystroke_o	o	n/a
120.673	0.12	241346	keystroke_n	n	n/a
120.8085	0.06	241617	keystroke_Key.space	Key.space	n/a
121.0185	0.075	242037	keystroke_d	d	n/a
121.1385	0.075	242277	keystroke_i	i	n/a
121.2285	0.045	242457	keystroke_s	s	n/a
121.3935	0.09	242787	keystroke_c	c	n/a
121.588	0.0905	243176	keystroke_s	s	n/a
121.7685	0.0595	243537	keystroke_Key.space	Key.space	n/a
122.2035	0.075	244407	keystroke_w	w	n/a
122.3085	0.075	244617	keystroke_o	o	n/a
122.5035	0.075	245007	keystroke_n	n	n/a
122.5785	0.12	245157	keystroke_d	d	n/a
122.6685	0.105	245337	keystroke_e	e	n/a
122.8035	0.105	245607	keystroke_r	r	n/a
123.0285	0.075	246057	keystroke_f	f	n/a
123.1925	0.06	246385	keystroke_u	u	n/a
123.4175	0.165	246835	keystroke_l	l	n/a
123.538	0.0895	247076	keystroke_Key.space	Key.space	n/a
123.7625	0.091	247525	keystroke_c	c	n/a
123.8675	0.06	247735	keystroke_o	o	n/a
123.9725	0.06	247945	keystroke_o	o	n/a
124.1375	0.06	248275	keystroke_l	l	n/a
124.3775	0.045	248755	keystroke_Key.enter	Key.enter	n/a
124.4405	13.342	248881	prompt	n/a	registry one museums bouquet\n
125.173	0.09	250346	keystroke_r	r	n/a
125.233	0.1045	250466	keystroke_e	e	n/a
125.9385	0.105	251877	keystroke_g	g	n/a
126.0585	0.045	252117	keystroke_i	i	n/a
126.2685	0.09	252537	keystroke_s	s	n/a
126.5235	0.06	253047	keystroke_t	t	n/a
126.7485	0.075	253497	keystroke_r	r	n/a
127.3635	0.105	254727	keystroke_y	y	n/a
127.4535	0.12	254907	keystroke_Key.space	Key.space	n/a
127.6785	0.075	255357	keystroke_o	o	n/a
127.8435	0.075	255687	keystroke_n	n	n/a
127.9185	0.09	255837	keystroke_e	e	n/a
128.0685	0.075	256137	keystroke_Key.space	Key.space	n/a
128.4435	0.06	256887	keystroke_m	m	n/a
128.6985	0.06	257397	keystroke_u	u	n/a
128.8035	0.075	257607	keystroke_s	s	n/a
128.9835	0.06	257967	keystroke_e	e	n/a
129.2835	0.045	258567	keystroke_u	u	n/a
129.4785	0.075	258957	keystroke_m	m	n/a
129.8235	0.075	259647	keystroke_s	s	n/a
129.9585	0.075	259917	keystroke_Key.space	Key.space	n/a
130.3035	0.075	260607	keystroke_b	b	n/a
130.4835	0.12	260967	keystroke_o	o	n/a
130.5585	0.12	261117	keystroke_u	u	n/a
131.3385	0.075	262677	keystroke_q	q	n/a
132.3735	0.105	264747	keystroke_e	e	n/a
134.1135	0.075	268227	keystroke_Key.backspace	Key.backspace	n/a
134.3835	0.06	268767	keystroke_Key.backspace	Key.backspace	n/a
136.7405	0.028	273481	keystroke_q	q	n/a
136.8885	0.075	273777	keystroke_u	u	n/a
137.1135	0.045	274227	keystroke_e	e	n/a
137.3235	0.06	274647	keystroke_t	t	n/a
137.6985	0.075	275397	keystroke_Key.enter	Key.enter	n/a
137.79	7.027	275580	prompt	n/a	discrimination usual association wide\n
138.8985	0.045	277797	keystroke_d	d	n/a
139.0035	0.06	278007	keystroke_i	i	n/a
139.0785	0.06	278157	keystroke_s	s	n/a
139.2135	0.09	278427	keystroke_c	c	n/a
139.4835	0.06	278967	keystroke_r	r	n/a
139.6785	0.06	279357	keystroke_i	i	n/a
139.8435	0.06	279687	keystroke_m	m	n/a
139.9935	0.06	279987	keystroke_i	i	n/a
140.0985	0.09	280197	keystroke_n	n	n/a
140.2485	0.0745	280497	keystroke_a	a	n/a
140.473	0.06	280946	keystroke_t	t	n/a
140.5485	0.06	281097	keystroke_i	i	n/a
140.6685	0.075	281337	keystroke_o	o	n/a
140.8335	0.195	281667	keystroke_n	n	n/a
140.9835	0.09	281967	keystroke_Key.space	Key.space	n/a
141.3735	0.06	282747	keystroke_u	u	n/a
141.4785	0.06	282957	keystroke_s	s	n/a
141.5985	0.075	283197	keystroke_u	u	n/a
141.6885	0.075	283377	keystroke_a	a	n/a
141.8535	0.165	283707	keystroke_l	l	n/a
142.0035	0.0745	284007	keystroke_Key.space	Key.space	n/a
142.123	0.075	284246	keystroke_a	a	n/a
142.318	0.06	284636	keystroke_s	s	n/a
142.468	0.075	284936	keystroke_s	s	n/a
142.558	0.09	285116	keystroke_o	o	n/a
142.708	0.075	285416	keystroke_c	c	n/a
142.888	0.06	285776	keystroke_i	i	n/a
142.963	0.09	285926	keystroke_a	a	n/a
143.368	0.09	286736	keystroke_t	t	n/a
143.473	0.06	286946	keystroke_i	i	n/a
143.623	0.045	287246	keystroke_o	o	n/a
143.773	0.165	287546	keystroke_n	n	n/a
143.908	0.075	287816	keystroke_Key.space	Key.space	n/a
144.133	0.06	288266	keystroke_w	w	n/a
144.208	0.09	288416	keystroke_i	i	n/a
144.403	0.09	288806	keystroke_d	d	n/a
144.433	0.12	288866	keystroke_e	e	n/a
144.748	0.06	289496	keystroke_Key.enter	Key.enter	n/a
144.8215	11.831	289643	prompt	n/a	puppy factory facility unlock\n
145.513	0.0755	291026	keystroke_p	p	n/a
145.738	0.075	291476	keystroke_u	u	n/a
145.933	0.0605	291866	keystroke_p	p	n/a
146.0535	0.0745	292107	keystroke_p	p	n/a
146.278	0.135	292556	keystroke_y	y	n/a
146.368	0.12	292736	keystroke_Key.space	Key.space	n/a
146.518	0.045	293036	keystroke_f	f	n/a
146.638	0.075	293276	keystroke_a	a	n/a
147.313	0.075	294626	keystroke_c	c	n/a
147.598	0.09	295196	keystroke_t	t	n/a
148.048	0.045	296096	keystroke_o	o	n/a
148.483	0.06	296966	keystroke_r	r	n/a
148.618	0.15	297236	keystroke_y	y	n/a
148.708	0.135	297416	keystroke_Key.space	Key.space	n/a
149.938	0.12	299876	keystroke_f	f	n/a
150.268	0.09	300536	keystroke_a	a	n/a
150.493	0.12	300986	keystroke_c	c	n/a
151.063	0.06	302126	keystroke_i	i	n/a
151.258	0.06	302516	keystroke_l	l	n/a
154.141	0.012	308282	keystroke_i	i	n/a
154.183	0.105	308366	keystroke_t	t	n/a
154.753	0.135	309506	keystroke_y	y	n/a
154.843	0.12	309686	keystroke_Key.space	Key.space	n/a
155.6235	0.074	311247	keystroke_u	u	n/a
155.7885	0.044	311577	keystroke_n	n	n/a
155.9685	0.045	311937	keystroke_l	l	n/a
156.1175	0.075	312235	keystroke_o	o	n/a
156.2225	0.075	312445	keystroke_c	c	n/a
156.3285	0.074	312657	keystroke_k	k	n/a
156.5825	0.06	313165	keystroke_Key.enter	Key.enter	n/a
156.657	7.9	313314	prompt	n/a	caution beverage continually enzyme\n
157.3635	0.059	314727	keystroke_c	c	n/a
157.5125	0.075	315025	keystroke_a	a	n/a
157.6025	0.0755	315205	keystroke_u	u	n/a
157.783	0.09	315566	keystroke_t	t	n/a
158.068	0.075	316136	keystroke_i	i	n/a
158.233	0.075	316466	keystroke_o	o	n/a
158.383	0.195	316766	keystroke_n	n	n/a
158.533	0.09	317066	keystroke_Key.space	Key.space	n/a
158.773	0.075	317546	keystroke_b	b	n/a
158.878	0.06	317756	keystroke_e	e	n/a
159.118	0.075	318236	keystroke_v	v	n/a
159.163	0.135	318326	keystroke_e	e	n/a
159.238	0.12	318476	keystroke_r	r	n/a
159.448	0.075	318896	keystroke_a	a	n/a
159.613	0.045	319226	keystroke_g	g	n/a
159.703	0.09	319406	keystroke_e	e	n/a
159.898	0.045	319796	keystroke_Key.space	Key.space	n/a
160.603	0.045	321206	keystroke_c	c	n/a
160.663	0.075	321326	keystroke_o	o	n/a
160.813	0.075	321626	keystroke_n	n	n/a
160.993	0.06	321986	keystroke_t	t	n/a
161.248	0.06	322496	keystroke_i	i	n/a
161.428	0.075	322856	keystroke_n	n	n/a
161.623	0.045	323246	keystroke_u	u	n/a
161.878	0.09	323756	keystroke_a	a	n/a
162.043	0.06	324086	keystroke_l	l	n/a
162.148	0.075	324296	keystroke_l	l	n/a
162.538	0.12	325076	keystroke_y	y	n/a
162.613	0.105	325226	keystroke_Key.space	Key.space	n/a
162.763	0.075	325526	keystroke_e	e	n/a
162.928	0.045	325856	keystroke_n	n	n/a
163.603	0.06	327206	keystroke_z	z	n/a
163.723	0.075	327446	keystroke_y	y	n/a
164.053	0.075	328106	keystroke_m	m	n/a
164.203	0.075	328406	keystroke_e	e	n/a
164.473	0.075	328946	keystroke_Key.enter	Key.enter	n/a
164.5625	8.8145	329125	prompt	n/a	athletic barriers stockholm besides\n
165.238	0.075	330476	keystroke_a	a	n/a
165.583	0.06	331166	keystroke_t	t	n/a
165.703	0.06	331406	keystroke_h	h	n/a
165.928	0.075	331856	keystroke_l	l	n/a
166.004	0.074	332008	keystroke_e	e	n/a
166.243	0.06	332486	keystroke_t	t	n/a
166.363	0.075	332726	keystroke_i	i	n/a
166.528	0.075	333056	keystroke_c	c	n/a
166.678	0.09	333356	keystroke_Key.space	Key.space	n/a
167.263	0.045	334526	keystroke_b	b	n/a
167.323	0.075	334646	keystroke_a	a	n/a
167.518	0.06	335036	keystroke_r	r	n/a
167.668	0.06	335336	keystroke_r	r	n/a
167.758	0.075	335516	keystroke_i	i	n/a
167.818	0.075	335636	keystroke_e	e	n/a
168.133	0.075	336266	keystroke_r	r	n/a
168.313	0.075	336626	keystroke_s	s	n/a
168.448	0.09	336896	keystroke_Key.space	Key.space	n/a
168.613	0.045	337226	keystroke_s	s	n/a
168.898	0.075	337796	keystroke_t	t	n/a
169.078	0.06	338156	keystroke_o	o	n/a
169.213	0.105	338426	keystroke_c	c	n/a
169.318	0.06	338636	keystroke_k	k	n/a
169.498	0.03	338996	keystroke_l	l	n/a
169.978	0.06	339956	keystroke_Key.backspace	Key.backspace	n/a
170.248	0.06	340496	keystroke_h	h	n/a
170.428	0.06	340856	keystroke_o	o	n/a
170.5625	0.075	341125	keystroke_l	l	n/a
171.043	0.075	342086	keystroke_m	m	n/a
171.328	0.09	342656	keystroke_Key.space	Key.space	n/a
172.123	0.075	344246	keystroke_b	b	n/a
172.213	0.09	344426	keystroke_e	e	n/a
172.423	0.075	344846	keystroke_s	s	n/a
172.573	0.06	345146	keystroke_i	i	n/a
172.708	0.135	345416	keystroke_d	d	n/a
172.783	0.12	345566	keystroke_e	e	n/a
172.993	0.075	345986	keystroke_s	s	n/a
173.308	0.06	346616	keystroke_Key.enter	Key.enter	n/a
173.3815	6.58	346763	prompt	n/a	filled loves angels entrance\n
174.568	0.0745	349136	keystroke_f	f	n/a
174.6725	0.06	349345	keystroke_i	i	n/a
174.8675	0.045	349735	keystroke_l	l	n/a
174.9725	0.09	349945	keystroke_l	l	n/a
175.0475	0.091	350095	keystroke_e	e	n/a
175.1825	0.12	350365	keystroke_d	d	n/a
175.4075	0.0755	350815	keystroke_Key.space	Key.space	n/a
175.588	0.06	351176	keystroke_l	l	n/a
175.738	0.075	351476	keystroke_o	o	n/a
175.933	0.06	351866	keystroke_v	v	n/a
176.143	0.06	352286	keystroke_e	e	n/a
176.353	0.06	352706	keystroke_s	s	n/a
176.473	0.075	352946	keystroke_Key.space	Key.space	n/a
176.563	0.105	353126	keystroke_a	a	n/a
176.743	0.075	353486	keystroke_n	n	n/a
176.908	0.045	353816	keystroke_g	g	n/a
177.043	0.075	354086	keystroke_e	e	n/a
177.178	0.075	354356	keystroke_l	l	n/a
177.373	0.075	354746	keystroke_s	s	n/a
177.5375	0.075	355075	keystroke_Key.space	Key.space	n/a
178.333	0.045	356666	keystroke_e	e	n/a
178.453	0.075	356906	keystroke_n	n	n/a
178.558	0.06	357116	keystroke_t	t	n/a
178.753	0.045	357506	keystroke_r	r	n/a
179.203	0.06	358406	keystroke_a	a	n/a
179.413	0.0455	358826	keystroke_n	n	n/a
179.5625	0.105	359125	keystroke_c	c	n/a
179.6085	0.105	359217	keystroke_e	e	n/a
179.8925	0.06	359785	keystroke_Key.enter	Key.enter	n/a
179.966	9.0265	359932	prompt	n/a	horrible unless finland finished\n
180.8675	0.06	361735	keystroke_h	h	n/a
181.0325	0.075	362065	keystroke_o	o	n/a
181.1525	0.06	362305	keystroke_r	r	n/a
181.3025	0.06	362605	keystroke_r	r	n/a
181.3925	0.075	362785	keystroke_i	i	n/a
181.5285	0.06	363057	keystroke_b	b	n/a
181.6635	0.075	363327	keystroke_l	l	n/a
181.7685	0.09	363537	keystroke_e	e	n/a
181.9325	0.09	363865	keystroke_Key.space	Key.space	n/a
182.2775	0.076	364555	keystroke_u	u	n/a
182.4725	0.046	364945	keystroke_n	n	n/a
182.6375	0.09	365275	keystroke_l	l	n/a
182.7125	0.076	365425	keystroke_e	e	n/a
182.9085	0.059	365817	keystroke_s	s	n/a
183.0575	0.075	366115	keystroke_s	s	n/a
183.2075	0.075	366415	keystroke_Key.space	Key.space	n/a
183.643	0.075	367286	keystroke_f	f	n/a
183.733	0.06	367466	keystroke_i	i	n/a
183.8835	0.0745	367767	keystroke_n	n	n/a
184.108	0.0605	368216	keystroke_l	l	n/a
184.2135	0.06	368427	keystroke_a	a	n/a
184.3485	0.06	368697	keystroke_n	n	n/a
184.4385	0.105	368877	keystroke_d	d	n/a
184.6335	0.06	369267	keystroke_Key.space	Key.space	n/a
185.5185	0.0745	371037	keystroke_Key.backspace	Key.backspace	n/a
185.668	0.075	371336	keystroke_f	f	n/a
185.8035	0.0595	371607	keystroke_i	i	n/a
185.998	0.045	371996	keystroke_n	n	n/a
186.328	0.06	372656	keystroke_Key.backspace	Key.backspace	n/a
186.523	0.06	373046	keystroke_Key.backspace	Key.backspace	n/a
186.703	0.045	373406	keystroke_Key.backspace	Key.backspace	n/a
187.048	0.075	374096	keystroke_Key.space	Key.space	n/a
187.228	0.105	374456	keystroke_f	f	n/a
187.378	0.09	374756	keystroke_i	i	n/a
187.603	0.075	375206	keystroke_n	n	n/a
188.023	0.03	376046	keystroke_i	i	n/a
188.158	0.09	376316	keystroke_s	s	n/a
188.2785	0.075	376557	keystroke_h	h	n/a
188.3835	0.105	376767	keystroke_e	e	n/a
188.4735	0.1345	376947	keystroke_d	d	n/a
188.908	0.075	377816	keystroke_Key.enter	Key.enter	n/a
188.997	9.925	377994	prompt	n/a	radiation equality thermal possession\n
190.048	0.06	380096	keystroke_r	r	n/a
190.168	0.09	380336	keystroke_a	a	n/a
190.348	0.06	380696	keystroke_d	d	n/a
190.438	0.06	380876	keystroke_i	i	n/a
190.528	0.09	381056	keystroke_a	a	n/a
190.753	0.09	381506	keystroke_t	t	n/a
190.858	0.06	381716	keystroke_i	i	n/a
191.263	0.06	382526	keystroke_o	o	n/a
191.473	0.15	382946	keystroke_n	n	n/a
191.624	0.074	383248	keystroke_Key.space	Key.space	n/a
192.598	0.075	385196	keystroke_e	e	n/a
193.063	0.045	386126	keystroke_q	q	n/a
193.123	0.06	386246	keystroke_u	u	n/a
193.288	0.06	386576	keystroke_a	a	n/a
193.408	0.06	386816	keystroke_l	l	n/a
193.588	0.06	387176	keystroke_i	i	n/a
193.768	0.06	387536	keystroke_t	t	n/a
193.858	0.15	387716	keystroke_y	y	n/a
194.053	0.12	388106	keystroke_Key.space	Key.space	n/a
194.728	0.075	389456	keystroke_t	t	n/a
194.833	0.06	389666	keystroke_h	h	n/a
194.908	0.09	389816	keystroke_e	e	n/a
194.968	0.12	389936	keystroke_r	r	n/a
195.163	0.06	390326	keystroke_m	m	n/a
195.268	0.06	390536	keystroke_a	a	n/a
195.388	0.18	390776	keystroke_l	l	n/a
195.538	0.09	391076	keystroke_Key.space	Key.space	n/a
196.513	0.105	393026	keystroke_p	p	n/a
196.619	0.104	393238	keystroke_o	o	n/a
196.738	0.06	393476	keystroke_s	s	n/a
196.918	0.045	393836	keystroke_s	s	n/a
197.218	0.09	394436	keystroke_e	e	n/a
197.398	0.045	394796	keystroke_s	s	n/a
197.548	0.06	395096	keystroke_s	s	n/a
198.253	0.06	396506	keystroke_i	i	n/a
198.388	0.09	396776	keystroke_o	o	n/a
198.598	0.045	397196	keystroke_n	n	n/a
198.853	0.06	397706	keystroke_Key.enter	Key.enter	n/a
198.9265	8.6055	397853	prompt	n/a	kuwait portrait calculated jaguar\n
200.173	0.075	400346	keystroke_k	k	n/a
200.353	0.075	400706	keystroke_u	u	n/a
200.473	0.135	400946	keystroke_w	w	n/a
200.563	0.105	401126	keystroke_a	a	n/a
200.728	0.075	401456	keystroke_i	i	n/a
200.863	0.09	401726	keystroke_t	t	n/a
200.968	0.0895	401936	keystroke_Key.space	Key.space	n/a
201.388	0.03	402776	keystroke_p	p	n/a
201.658	0.075	403316	keystroke_o	o	n/a
201.988	0.06	403976	keystroke_r	r	n/a
202.213	0.09	404426	keystroke_t	t	n/a
202.453	0.045	404906	keystroke_r	r	n/a
202.633	0.09	405266	keystroke_a	a	n/a
202.783	0.045	405566	keystroke_i	i	n/a
202.993	0.09	405986	keystroke_t	t	n/a
203.143	0.06	406286	keystroke_Key.space	Key.space	n/a
203.9375	0.075	407875	keystroke_c	c	n/a
204.1175	0.075	408235	keystroke_a	a	n/a
204.2525	0.06	408505	keystroke_l	l	n/a
204.3875	0.105	408775	keystroke_c	c	n/a
204.5075	0.06	409015	keystroke_u	u	n/a
204.7025	0.075	409405	keystroke_l	l	n/a
204.9125	0.06	409825	keystroke_a	a	n/a
205.1375	0.09	410275	keystroke_t	t	n/a
205.2425	0.075	410485	keystroke_e	e	n/a
205.468	0.06	410936	keystroke_d	d	n/a
205.603	0.075	411206	keystroke_Key.space	Key.space	n/a
206.203	0.06	412406	keystroke_j	j	n/a
206.293	0.09	412586	keystroke_a	a	n/a
206.653	0.06	413306	keystroke_g	g	n/a
206.803	0.09	413606	keystroke_u	u	n/a
207.058	0.045	414116	keystroke_a	a	n/a
207.223	0.075	414446	keystroke_r	r	n/a
207.4625	0.06	414925	keystroke_Key.enter	Key.enter	n/a
207.539	10.418	415078	prompt	n/a	possibilities passage nobody milk\n
209.0235	0.045	418047	keystroke_o	o	n/a
209.4725	0.075	418945	keystroke_Key.backspace	Key.backspace	n/a
210.0425	0.1355	420085	keystroke_p	p	n/a
210.133	0.12	420266	keystroke_o	o	n/a
210.268	0.075	420536	keystroke_s	s	n/a
210.4325	0.075	420865	keystroke_s	s	n/a
210.5825	0.09	421165	keystroke_i	i	n/a
211.0335	0.06	422067	keystroke_b	b	n/a
211.2735	0.06	422547	keystroke_i	i	n/a
211.4535	0.045	422907	keystroke_l	l	n/a
211.588	0.045	423176	keystroke_i	i	n/a
211.753	0.0755	423506	keystroke_t	t	n/a
211.8135	0.075	423627	keystroke_i	i	n/a
211.9635	0.09	423927	keystroke_e	e	n/a
212.1585	0.09	424317	keystroke_s	s	n/a
212.278	0.0905	424556	keystroke_Key.space	Key.space	n/a
212.5935	0.059	425187	keystroke_p	p	n/a
212.6685	0.075	425337	keystroke_a	a	n/a
212.8475	0.075	425695	keystroke_s	s	n/a
213.0275	0.045	426055	keystroke_s	s	n/a
213.0575	0.09	426115	keystroke_a	a	n/a
213.2975	0.076	426595	keystroke_g	g	n/a
213.3735	0.074	426747	keystroke_e	e	n/a
213.568	0.075	427136	keystroke_Key.space	Key.space	n/a
214.003	0.075	428006	keystroke_n	n	n/a
214.1825	0.09	428365	keystroke_o	o	n/a
214.4075	0.06	428815	keystroke_b	b	n/a
214.5725	0.06	429145	keystroke_o	o	n/a
214.7075	0.105	429415	keystroke_d	d	n/a
214.8425	0.135	429685	keystroke_y	y	n/a
214.9175	0.15	429835	keystroke_Key.space	Key.space	n/a
215.2775	0.045	430555	keystroke_l	l	n/a
215.6835	0.06	431367	keystroke_Key.backspace	Key.backspace	n/a
215.9085	0.09	431817	keystroke_m	m	n/a
216.1335	0.06	432267	keystroke_i	i	n/a
216.9135	0.09	433827	keystroke_l	l	n/a
217.1085	0.075	434217	keystroke_k	k	n/a
217.8885	0.059	435777	keystroke_Key.enter	Key.enter	n/a
217.961	11.516	435922	prompt	n/a	accommodations documentary explains status\n
219.0885	0.059	438177	keystroke_a	a	n/a
219.2675	0.075	438535	keystroke_c	c	n/a
219.4175	0.091	438835	keystroke_c	c	n/a
219.5525	0.076	439105	keystroke_o	o	n/a
219.7185	0.074	439437	keystroke_m	m	n/a
220.5275	0.075	441055	keystroke_m	m	n/a
220.7235	0.074	441447	keystroke_o	o	n/a
221.0675	0.075	442135	keystroke_d	d	n/a
221.2175	0.076	442435	keystroke_a	a	n/a
221.4575	0.06	442915	keystroke_t	t	n/a
221.5475	0.061	443095	keystroke_i	i	n/a
221.6825	0.075	443365	keystroke_o	o	n/a
221.8625	0.075	443725	keystroke_n	n	n/a
221.9525	0.076	443905	keystroke_s	s	n/a
222.1175	0.06	444235	keystroke_Key.space	Key.space	n/a
222.5075	0.075	445015	keystroke_d	d	n/a
222.6425	0.09	445285	keystroke_o	o	n/a
222.8375	0.06	445675	keystroke_c	c	n/a
222.9275	0.045	445855	keystroke_u	u	n/a
223.3025	0.075	446605	keystroke_m	m	n/a
223.6475	0.075	447295	keystroke_e	e	n/a
223.843	0.06	447686	keystroke_n	n	n/a
224.068	0.06	448136	keystroke_t	t	n/a
224.308	0.105	448616	keystroke_a	a	n/a
224.518	0.075	449036	keystroke_r	r	n/a
224.668	0.135	449336	keystroke_y	y	n/a
224.743	0.15	449486	keystroke_Key.space	Key.space	n/a
225.328	0.045	450656	keystroke_e	e	n/a
225.553	0.105	451106	keystroke_x	x	n/a
225.688	0.09	451376	keystroke_p	p	n/a
225.928	0.06	451856	keystroke_l	l	n/a
226.663	0.075	453326	keystroke_a	a	n/a
226.843	0.06	453686	keystroke_i	i	n/a
227.083	0.06	454166	keystroke_n	n	n/a
227.173	0.105	454346	keystroke_s	s	n/a
227.383	0.075	454766	keystroke_Key.space	Key.space	n/a
227.578	0.075	455156	keystroke_s	s	n/a
227.803	0.06	455606	keystroke_t	t	n/a
227.968	0.045	455936	keystroke_a	a	n/a
228.148	0.075	456296	keystroke_t	t	n/a
228.238	0.075	456476	keystroke_u	u	n/a
228.343	0.075	456686	keystroke_e	e	n/a
228.763	0.075	457526	keystroke_Key.backspace	Key.backspace	n/a
228.883	0.09	457766	keystroke_s	s	n/a
229.408	0.06	458816	keystroke_Key.enter	Key.enter	n/a
229.4815	8.396	458963	prompt	n/a	latitude warned worldcat insurance\n
230.443	0.0595	460886	keystroke_l	l	n/a
230.518	0.09	461036	keystroke_a	a	n/a
230.788	0.075	461576	keystroke_t	t	n/a
230.983	0.045	461966	keystroke_i	i	n/a
231.178	0.09	462356	keystroke_t	t	n/a
231.418	0.045	462836	keystroke_u	u	n/a
231.688	0.03	463376	keystroke_e	e	n/a
231.9875	0.06	463975	keystroke_Key.backspace	Key.backspace	n/a
232.0625	0.15	464125	keystroke_d	d	n/a
232.1535	0.104	464307	keystroke_e	e	n/a
232.3475	0.075	464695	keystroke_Key.space	Key.space	n/a
232.8875	0.121	465775	keystroke_w	w	n/a
232.9925	0.09	465985	keystroke_a	a	n/a
233.2025	0.06	466405	keystroke_r	r	n/a
233.6975	0.075	467395	keystroke_n	n	n/a
234.208	0.135	468416	keystroke_e	e	n/a
234.268	0.18	468536	keystroke_d	d	n/a
234.508	0.06	469016	keystroke_Key.space	Key.space	n/a
235.048	0.03	470096	keystroke_w	w	n/a
235.138	0.075	470276	keystroke_o	o	n/a
235.258	0.09	470516	keystroke_r	r	n/a
235.363	0.09	470726	keystroke_l	l	n/a
235.468	0.09	470936	keystroke_d	d	n/a
235.663	0.09	471326	keystroke_c	c	n/a
235.813	0.0895	471626	keystroke_a	a	n/a
236.0385	0.06	472077	keystroke_t	t	n/a
236.2035	0.074	472407	keystroke_Key.space	Key.space	n/a
236.488	0.075	472976	keystroke_i	i	n/a
236.668	0.045	473336	keystroke_n	n	n/a
236.788	0.06	473576	keystroke_s	s	n/a
236.908	0.045	473816	keystroke_u	u	n/a
237.028	0.06	474056	keystroke_r	r	n/a
237.163	0.075	474326	keystroke_a	a	n/a
237.358	0.06	474716	keystroke_n	n	n/a
237.4635	0.165	474927	keystroke_c	c	n/a
237.5535	0.119	475107	keystroke_e	e	n/a
237.808	0.06	475616	keystroke_Key.enter	Key.enter	n/a
237.8825	7.112	475765	prompt	n/a	steel vegetation procedure stand\n
238.828	0.075	477656	keystroke_s	s	n/a
239.068	0.06	478136	keystroke_t	t	n/a
239.218	0.045	478436	keystroke_e	e	n/a
239.383	0.06	478766	keystroke_e	e	n/a
239.4875	0.135	478975	keystroke_l	l	n/a
239.6075	0.09	479215	keystroke_Key.space	Key.space	n/a
239.8925	0.075	479785	keystroke_v	v	n/a
240.058	0.0745	480116	keystroke_e	e	n/a
240.2975	0.03	480595	keystroke_g	g	n/a
240.3125	0.075	480625	keystroke_e	e	n/a
240.5225	0.075	481045	keystroke_t	t	n/a
240.6875	0.075	481375	keystroke_a	a	n/a
240.9725	0.09	481945	keystroke_t	t	n/a
241.0935	0.045	482187	keystroke_i	i	n/a
241.2285	0.0745	482457	keystroke_o	o	n/a
241.378	0.1795	482756	keystroke_n	n	n/a
241.5275	0.105	483055	keystroke_Key.space	Key.space	n/a
241.7525	0.075	483505	keystroke_p	p	n/a
241.8725	0.075	483745	keystroke_r	r	n/a
241.9925	0.06	483985	keystroke_o	o	n/a
242.4275	0.075	484855	keystroke_c	c	n/a
242.5625	0.075	485125	keystroke_e	e	n/a
242.7575	0.0755	485515	keystroke_d	d	n/a
242.893	0.075	485786	keystroke_u	u	n/a
243.088	0.105	486176	keystroke_r	r	n/a
243.1785	0.0895	486357	keystroke_e	e	n/a
243.343	0.075	486686	keystroke_Key.space	Key.space	n/a
244.0775	0.075	488155	keystroke_s	s	n/a
244.3325	0.075	488665	keystroke_t	t	n/a
244.4825	0.06	488965	keystroke_a	a	n/a
244.5575	0.075	489115	keystroke_n	n	n/a
244.6925	0.105	489385	keystroke_d	d	n/a
244.9025	0.09	489805	keystroke_Key.enter	Key.enter	n/a
245.0005	7.0825	490001	prompt	n/a	holiday holidays engaged pools\n
245.953	0.06	491906	keystroke_h	h	n/a
246.133	0.06	492266	keystroke_o	o	n/a
246.268	0.075	492536	keystroke_l	l	n/a
246.448	0.06	492896	keystroke_i	i	n/a
246.628	0.12	493256	keystroke_d	d	n/a
246.688	0.105	493376	keystroke_a	a	n/a
246.838	0.1345	493676	keystroke_y	y	n/a
246.9275	0.135	493855	keystroke_Key.space	Key.space	n/a
247.6625	0.105	495325	keystroke_h	h	n/a
247.9325	0.06	495865	keystroke_o	o	n/a
248.0975	0.06	496195	keystroke_l	l	n/a
248.248	0.075	496496	keystroke_i	i	n/a
248.413	0.135	496826	keystroke_d	d	n/a
248.518	0.105	497036	keystroke_a	a	n/a
248.713	0.075	497426	keystroke_y	y	n/a
248.818	0.09	497636	keystroke_s	s	n/a
248.923	0.135	497846	keystroke_Key.space	Key.space	n/a
249.253	0.09	498506	keystroke_e	e	n/a
249.418	0.075	498836	keystroke_n	n	n/a
249.6275	0.06	499255	keystroke_g	g	n/a
249.7925	0.06	499585	keystroke_a	a	n/a
249.9425	0.09	499885	keystroke_g	g	n/a
250.1975	0.09	500395	keystroke_e	e	n/a
250.4075	0.09	500815	keystroke_d	d	n/a
250.6175	0.105	501235	keystroke_Key.space	Key.space	n/a
250.9475	0.0455	501895	keystroke_p	p	n/a
251.203	0.045	502406	keystroke_o	o	n/a
251.308	0.075	502616	keystroke_o	o	n/a
251.488	0.06	502976	keystroke_l	l	n/a
251.623	0.0895	503246	keystroke_s	s	n/a
251.998	0.075	503996	keystroke_Key.enter	Key.enter	n/a
252.0905	7.1235	504181	prompt	n/a	rights hurt filename gift\n
253.4085	0.06	506817	keystroke_r	r	n/a
253.5275	0.06	507055	keystroke_i	i	n/a
253.6335	0.105	507267	keystroke_g	g	n/a
253.7675	0.0755	507535	keystroke_h	h	n/a
254.098	0.09	508196	keystroke_t	t	n/a
254.278	0.075	508556	keystroke_s	s	n/a
254.428	0.09	508856	keystroke_Key.space	Key.space	n/a
254.683	0.075	509366	keystroke_h	h	n/a
254.833	0.09	509666	keystroke_u	u	n/a
254.968	0.045	509936	keystroke_r	r	n/a
255.118	0.075	510236	keystroke_t	t	n/a
255.223	0.105	510446	keystroke_Key.space	Key.space	n/a
255.478	0.105	510956	keystroke_f	f	n/a
256.213	0.06	512426	keystroke_i	i	n/a
256.408	0.0595	512816	keystroke_l	l	n/a
256.4825	0.075	512965	keystroke_e	e	n/a
256.7375	0.06	513475	keystroke_n	n	n/a
256.8275	0.075	513655	keystroke_a	a	n/a
256.9325	0.075	513865	keystroke_m	m	n/a
257.0225	0.105	514045	keystroke_e	e	n/a
257.4125	0.075	514825	keystroke_Key.space	Key.space	n/a
258.2225	0.045	516445	keystroke_g	g	n/a
258.3275	0.075	516655	keystroke_i	i	n/a
258.4325	0.06	516865	keystroke_f	f	n/a
258.8075	0.09	517615	keystroke_t	t	n/a
259.1225	0.09	518245	keystroke_Key.enter	Key.enter	n/a
259.217	8.03	518434	prompt	n/a	clan statute average benefits\n
260.3225	0.3005	520645	keystroke_c	c	n/a
260.638	0.015	521276	keystroke_l	l	n/a
260.668	0.015	521336	keystroke_a	a	n/a
260.698	0.165	521396	keystroke_n	n	n/a
260.803	0.105	521606	keystroke_Key.space	Key.space	n/a
260.968	0.09	521936	keystroke_s	s	n/a
261.193	0.075	522386	keystroke_t	t	n/a
261.253	0.075	522506	keystroke_a	a	n/a
261.373	0.09	522746	keystroke_t	t	n/a
261.658	0.075	523316	keystroke_u	u	n/a
261.778	0.075	523556	keystroke_e	e	n/a
261.958	0.075	523916	keystroke_Key.space	Key.space	n/a
263.083	0.135	526166	keystroke_Key.backspace	Key.backspace	n/a
263.233	0.06	526466	keystroke_Key.backspace	Key.backspace	n/a
263.848	0.06	527696	keystroke_t	t	n/a
263.938	0.09	527876	keystroke_e	e	n/a
264.073	0.105	528146	keystroke_Key.space	Key.space	n/a
264.463	0.075	528926	keystroke_a	a	n/a
264.733	0.075	529466	keystroke_v	v	n/a
264.9275	0.105	529855	keystroke_e	e	n/a
264.9735	0.104	529947	keystroke_r	r	n/a
265.1675	0.076	530335	keystroke_a	a	n/a
265.3175	0.075	530635	keystroke_g	g	n/a
265.3775	0.0905	530755	keystroke_e	e	n/a
265.5275	0.09	531055	keystroke_Key.space	Key.space	n/a
266.0675	0.06	532135	keystroke_b	b	n/a
266.1725	0.03	532345	keystroke_e	e	n/a
266.2625	0.06	532525	keystroke_n	n	n/a
266.3075	0.075	532615	keystroke_e	e	n/a
266.4875	0.075	532975	keystroke_f	f	n/a
266.5925	0.075	533185	keystroke_i	i	n/a
266.7275	0.105	533455	keystroke_t	t	n/a
266.8625	0.105	533725	keystroke_s	s	n/a
267.1775	0.06	534355	keystroke_Key.enter	Key.enter	n/a
267.2515	6.2425	534503	prompt	n/a	happy protect struck parent\n
268.258	0.119	536516	keystroke_h	h	n/a
268.3935	0.014	536787	keystroke_a	a	n/a
268.423	0.044	536846	keystroke_p	p	n/a
268.542	0.045	537084	keystroke_p	p	n/a
268.723	0.135	537446	keystroke_y	y	n/a
268.797	0.135	537594	keystroke_Key.space	Key.space	n/a
269.172	0.09	538344	keystroke_p	p	n/a
269.292	0.076	538584	keystroke_r	r	n/a
269.398	0.089	538796	keystroke_o	o	n/a
270.1925	0.075	540385	keystroke_t	t	n/a
270.3125	0.075	540625	keystroke_e	e	n/a
270.5225	0.075	541045	keystroke_c	c	n/a
270.7035	0.1045	541407	keystroke_t	t	n/a
270.837	0.09	541674	keystroke_Key.space	Key.space	n/a
270.987	0.061	541974	keystroke_s	s	n/a
271.183	0.09	542366	keystroke_t	t	n/a
271.753	0.0595	543506	keystroke_r	r	n/a
271.9475	0.06	543895	keystroke_u	u	n/a
272.052	0.0755	544104	keystroke_c	c	n/a
272.157	0.18	544314	keystroke_k	k	n/a
272.292	0.1055	544584	keystroke_Key.space	Key.space	n/a
272.503	0.075	545006	keystroke_p	p	n/a
272.593	0.075	545186	keystroke_a	a	n/a
272.698	0.12	545396	keystroke_r	r	n/a
272.848	0.0895	545696	keystroke_e	e	n/a
272.9975	0.09	545995	keystroke_n	n	n/a
273.0725	0.09	546145	keystroke_t	t	n/a
273.388	0.1045	546776	keystroke_Key.enter	Key.enter	n/a
273.497	7.9715	546994	prompt	n/a	celebration fold debut recommendation\n
274.438	0.105	548876	keystroke_c	c	n/a
274.513	0.09	549026	keystroke_e	e	n/a
274.678	0.06	549356	keystroke_l	l	n/a
274.753	0.06	549506	keystroke_e	e	n/a
274.9925	0.06	549985	keystroke_b	b	n/a
275.1275	0.075	550255	keystroke_r	r	n/a
275.263	0.0895	550526	keystroke_a	a	n/a
275.4275	0.0755	550855	keystroke_t	t	n/a
275.6225	0.06	551245	keystroke_i	i	n/a
275.7875	0.045	551575	keystroke_o	o	n/a
275.9375	0.195	551875	keystroke_n	n	n/a
276.0575	0.09	552115	keystroke_Key.space	Key.space	n/a
276.4325	0.075	552865	keystroke_f	f	n/a
276.5225	0.075	553045	keystroke_o	o	n/a
276.6875	0.045	553375	keystroke_l	l	n/a
276.7775	0.0895	553555	keystroke_d	d	n/a
276.912	0.06	553824	keystroke_Key.space	Key.space	n/a
277.108	0.1495	554216	keystroke_d	d	n/a
277.2125	0.1205	554425	keystroke_e	e	n/a
277.423	0.06	554846	keystroke_b	b	n/a
277.573	0.075	555146	keystroke_u	u	n/a
277.722	0.1055	555444	keystroke_t	t	n/a
277.8425	0.06	555685	keystroke_Key.space	Key.space	n/a
278.338	0.105	556676	keystroke_r	r	n/a
278.428	0.075	556856	keystroke_e	e	n/a
278.668	0.09	557336	keystroke_c	c	n/a
278.818	0.075	557636	keystroke_o	o	n/a
279.028	0.015	558056	keystroke_m	m	n/a
279.118	0.06	558236	keystroke_m	m	n/a
279.283	0.075	558566	keystroke_e	e	n/a
279.403	0.06	558806	keystroke_n	n	n/a
279.508	0.075	559016	keystroke_t	t	n/a
280.018	0.06	560036	keystroke_Key.backspace	Key.backspace	n/a
280.108	0.12	560216	keystroke_d	d	n/a
280.198	0.09	560396	keystroke_a	a	n/a
280.408	0.09	560816	keystroke_t	t	n/a
280.588	0.06	561176	keystroke_i	i	n/a
280.753	0.045	561506	keystroke_o	o	n/a
280.888	0.09	561776	keystroke_n	n	n/a
281.382	0.075	562764	keystroke_Key.enter	Key.enter	n/a
281.474	6.9605	562948	prompt	n/a	town popularity ringtones salaries\n
282.417	0.0755	564834	keystroke_t	t	n/a
282.5375	0.06	565075	keystroke_o	o	n/a
282.7625	0.09	565525	keystroke_w	w	n/a
282.8975	0.135	565795	keystroke_n	n	n/a
283.0025	0.105	566005	keystroke_Key.space	Key.space	n/a
283.2125	0.06	566425	keystroke_p	p	n/a
283.3775	0.06	566755	keystroke_o	o	n/a
283.5125	0.06	567025	keystroke_p	p	n/a
283.7375	0.06	567475	keystroke_u	u	n/a
283.9175	0.075	567835	keystroke_l	l	n/a
284.0075	0.09	568015	keystroke_a	a	n/a
284.2475	0.09	568495	keystroke_r	r	n/a
284.3675	0.075	568735	keystroke_i	i	n/a
284.5175	0.075	569035	keystroke_t	t	n/a
284.6375	0.12	569275	keystroke_y	y	n/a
284.7275	0.15	569455	keystroke_Key.space	Key.space	n/a
285.403	0.045	570806	keystroke_r	r	n/a
285.463	0.075	570926	keystroke_i	i	n/a
285.643	0.09	571286	keystroke_n	n	n/a
285.718	0.0745	571436	keystroke_g	g	n/a
285.928	0.105	571856	keystroke_t	t	n/a
286.077	0.06	572154	keystroke_o	o	n/a
286.272	0.075	572544	keystroke_n	n	n/a
286.437	0.075	572874	keystroke_e	e	n/a
286.617	0.075	573234	keystroke_s	s	n/a
286.782	0.075	573564	keystroke_Key.space	Key.space	n/a
287.187	0.121	574374	keystroke_s	s	n/a
287.262	0.105	574524	keystroke_a	a	n/a
287.413	0.074	574826	keystroke_l	l	n/a
287.503	0.059	575006	keystroke_a	a	n/a
287.712	0.075	575424	keystroke_r	r	n/a
287.847	0.0755	575694	keystroke_i	i	n/a
287.952	0.075	575904	keystroke_e	e	n/a
288.147	0.075	576294	keystroke_s	s	n/a
288.372	0.06	576744	keystroke_Key.enter	Key.enter	n/a
288.439	6.7305	576878	prompt	n/a	greenhouse single wisdom cache\n
289.2725	0.075	578545	keystroke_g	g	n/a
289.5425	0.015	579085	keystroke_r	r	n/a
289.7225	0.015	579445	keystroke_e	e	n/a
289.813	0.075	579626	keystroke_e	e	n/a
290.008	0.06	580016	keystroke_n	n	n/a
290.263	0.045	580526	keystroke_h	h	n/a
291.118	0.12	582236	keystroke_o	o	n/a
291.208	0.105	582416	keystroke_u	u	n/a
291.328	0.06	582656	keystroke_s	s	n/a
291.523	0.045	583046	keystroke_e	e	n/a
291.628	0.075	583256	keystroke_Key.space	Key.space	n/a
292.018	0.075	584036	keystroke_s	s	n/a
292.138	0.06	584276	keystroke_i	i	n/a
292.273	0.075	584546	keystroke_n	n	n/a
292.393	0.045	584786	keystroke_g	g	n/a
292.528	0.06	585056	keystroke_l	l	n/a
292.558	0.09	585116	keystroke_e	e	n/a
292.723	0.0895	585446	keystroke_Key.space	Key.space	n/a
292.9175	0.075	585835	keystroke_w	w	n/a
293.0075	0.06	586015	keystroke_i	i	n/a
293.1575	0.105	586315	keystroke_s	s	n/a
293.3825	0.09	586765	keystroke_d	d	n/a
293.4875	0.075	586975	keystroke_o	o	n/a
293.6675	0.195	587335	keystroke_m	m	n/a
293.8175	0.135	587635	keystroke_Key.space	Key.space	n/a
294.1775	0.06	588355	keystroke_c	c	n/a
294.2975	0.09	588595	keystroke_a	a	n/a
294.4925	0.09	588985	keystroke_c	c	n/a
294.6125	0.06	589225	keystroke_h	h	n/a
294.7175	0.075	589435	keystroke_e	e	n/a
295.0925	0.075	590185	keystroke_Key.enter	Key.enter	n/a
295.172	7.475	590344	prompt	n/a	october period permissions bones\n
295.9925	0.06	591985	keystroke_o	o	n/a
296.0675	0.045	592135	keystroke_v	v	n/a
296.4575	0.06	592915	keystroke_Key.backspace	Key.backspace	n/a
296.5325	0.105	593065	keystroke_c	c	n/a
296.8625	0.075	593725	keystroke_t	t	n/a
297.0875	0.075	594175	keystroke_o	o	n/a
297.6125	0.06	595225	keystroke_b	b	n/a
297.7025	0.105	595405	keystroke_e	e	n/a
297.7475	0.135	595495	keystroke_r	r	n/a
297.8675	0.09	595735	keystroke_Key.space	Key.space	n/a
298.7975	0.075	597595	keystroke_p	p	n/a
298.9025	0.12	597805	keystroke_e	e	n/a
299.0375	0.045	598075	keystroke_r	r	n/a
299.0975	0.09	598195	keystroke_i	i	n/a
299.2775	0.075	598555	keystroke_o	o	n/a
299.3675	0.12	598735	keystroke_d	d	n/a
299.533	0.075	599066	keystroke_Key.space	Key.space	n/a
299.863	0.06	599726	keystroke_p	p	n/a
299.953	0.12	599906	keystroke_e	e	n/a
300.043	0.105	600086	keystroke_r	r	n/a
300.253	0.075	600506	keystroke_m	m	n/a
300.403	0.06	600806	keystroke_i	i	n/a
300.478	0.0595	600956	keystroke_s	s	n/a
300.643	0.06	601286	keystroke_s	s	n/a
300.7175	0.06	601435	keystroke_i	i	n/a
300.8525	0.06	601705	keystroke_o	o	n/a
301.0175	0.105	602035	keystroke_n	n	n/a
301.1675	0.075	602335	keystroke_s	s	n/a
301.2875	0.09	602575	keystroke_Key.space	Key.space	n/a
301.753	0.06	603506	keystroke_b	b	n/a
301.933	0.044	603866	keystroke_o	o	n/a
302.097	0.06	604194	keystroke_n	n	n/a
302.218	0.075	604436	keystroke_e	e	n/a
302.442	0.075	604884	keystroke_s	s	n/a
302.5625	0.075	605125	keystroke_Key.enter	Key.enter	n/a
302.6515	8.095	605303	prompt	n/a	settled liverpool assume visible\n
303.613	0.06	607226	keystroke_s	s	n/a
303.793	0.0445	607586	keystroke_e	e	n/a
303.9875	0.06	607975	keystroke_t	t	n/a
304.123	0.0745	608246	keystroke_t	t	n/a
304.2275	0.075	608455	keystroke_l	l	n/a
304.3035	0.089	608607	keystroke_e	e	n/a
304.6625	0.09	609325	keystroke_Key.space	Key.space	n/a
305.0525	0.06	610105	keystroke_Key.backspace	Key.backspace	n/a
305.2175	0.105	610435	keystroke_d	d	n/a
305.4125	0.075	610825	keystroke_Key.space	Key.space	n/a
305.622	0.075	611244	keystroke_l	l	n/a
305.802	0.075	611604	keystroke_i	i	n/a
306.298	0.059	612596	keystroke_v	v	n/a
306.462	0.121	612924	keystroke_e	e	n/a
306.522	0.136	613044	keystroke_r	r	n/a
306.972	0.06	613944	keystroke_p	p	n/a
307.137	0.045	614274	keystroke_o	o	n/a
307.272	0.06	614544	keystroke_o	o	n/a
307.437	0.12	614874	keystroke_l	l	n/a
307.587	0.06	615174	keystroke_Key.space	Key.space	n/a
307.872	0.075	615744	keystroke_a	a	n/a
308.0675	0.0745	616135	keystroke_s	s	n/a
308.233	0.074	616466	keystroke_s	s	n/a
308.382	0.075	616764	keystroke_u	u	n/a
308.577	0.06	617154	keystroke_m	m	n/a
308.622	0.105	617244	keystroke_e	e	n/a
308.787	0.045	617574	keystroke_Key.space	Key.space	n/a
309.552	0.06	619104	keystroke_v	v	n/a
309.672	0.06	619344	keystroke_i	i	n/a
309.808	0.09	619616	keystroke_s	s	n/a
309.928	0.06	619856	keystroke_i	i	n/a
310.123	0.045	620246	keystroke_b	b	n/a
310.318	0.075	620636	keystroke_l	l	n/a
310.378	0.09	620756	keystroke_e	e	n/a
310.693	0.045	621386	keystroke_Key.enter	Key.enter	n/a
310.758	9.6935	621516	prompt	n/a	comparison solo manchester wolf\n
311.698	0.074	623396	keystroke_c	c	n/a
311.803	0.149	623606	keystroke_o	o	n/a
311.907	0.105	623814	keystroke_m	m	n/a
312.088	0.074	624176	keystroke_p	p	n/a
312.163	0.075	624326	keystroke_a	a	n/a
312.387	0.06	624774	keystroke_r	r	n/a
312.568	0.075	625136	keystroke_i	i	n/a
312.823	0.075	625646	keystroke_s	s	n/a
312.928	0.059	625856	keystroke_o	o	n/a
313.107	0.151	626214	keystroke_n	n	n/a
313.242	0.106	626484	keystroke_Key.space	Key.space	n/a
313.768	0.0445	627536	keystroke_s	s	n/a
313.8275	0.09	627655	keystroke_o	o	n/a
314.0075	0.045	628015	keystroke_l	l	n/a
314.1125	0.09	628225	keystroke_o	o	n/a
314.2625	0.09	628525	keystroke_Key.space	Key.space	n/a
314.4425	0.105	628885	keystroke_m	m	n/a
314.5625	0.075	629125	keystroke_a	a	n/a
314.6675	0.075	629335	keystroke_n	n	n/a
314.8325	0.105	629665	keystroke_c	c	n/a
314.9825	0.06	629965	keystroke_h	h	n/a
315.1025	0.09	630205	keystroke_e	e	n/a
315.372	0.045	630744	keystroke_s	s	n/a
315.612	0.06	631224	keystroke_t	t	n/a
315.792	0.1055	631584	keystroke_e	e	n/a
315.8525	0.12	631705	keystroke_r	r	n/a
316.0475	0.075	632095	keystroke_Key.space	Key.space	n/a
316.3175	0.09	632635	keystroke_w	w	n/a
316.4525	0.06	632905	keystroke_i	i	n/a
316.6625	0.045	633325	keystroke_l	l	n/a
317.3975	0.075	634795	keystroke_Key.backspace	Key.backspace	n/a
317.6075	0.06	635215	keystroke_Key.backspace	Key.backspace	n/a
318.268	0.045	636536	keystroke_i	i	n/a
319.137	0.045	638274	keystroke_Key.backspace	Key.backspace	n/a
319.603	0.044	639206	keystroke_o	o	n/a
319.768	0.075	639536	keystroke_l	l	n/a
320.172	0.075	640344	keystroke_f	f	n/a
320.382	0.06	640764	keystroke_Key.enter	Key.enter	n/a
320.4565	8.425	640913	prompt	n/a	isn't specialty gathering kate\n
321.2525	0.045	642505	keystroke_i	i	n/a
321.3125	0.105	642625	keystroke_s	s	n/a
321.4775	0.075	642955	keystroke_n	n	n/a
321.9275	0.06	643855	keystroke_'	'	n/a
322.0175	0.09	644035	keystroke_t	t	n/a
322.2725	0.06	644545	keystroke_Key.space	Key.space	n/a
322.5575	0.0905	645115	keystroke_s	s	n/a
322.753	0.075	645506	keystroke_p	p	n/a
322.813	0.105	645626	keystroke_e	e	n/a
323.113	0.06	646226	keystroke_c	c	n/a
323.263	0.06	646526	keystroke_i	i	n/a
324.028	0.074	648056	keystroke_a	a	n/a
324.147	0.091	648294	keystroke_l	l	n/a
324.703	0.059	649406	keystroke_t	t	n/a
324.853	0.119	649706	keystroke_y	y	n/a
324.928	0.119	649856	keystroke_Key.space	Key.space	n/a
325.6175	0.045	651235	keystroke_g	g	n/a
325.6475	0.09	651295	keystroke_a	a	n/a
325.8725	0.0755	651745	keystroke_t	t	n/a
326.023	0.0745	652046	keystroke_h	h	n/a
326.0675	0.1205	652135	keystroke_e	e	n/a
326.1425	0.0905	652285	keystroke_r	r	n/a
326.323	0.0595	652646	keystroke_i	i	n/a
326.4575	0.0905	652915	keystroke_n	n	n/a
326.593	0.075	653186	keystroke_g	g	n/a
326.683	0.105	653366	keystroke_Key.space	Key.space	n/a
327.4625	0.075	654925	keystroke_k	k	n/a
327.5525	0.075	655105	keystroke_a	a	n/a
327.7625	0.075	655525	keystroke_t	t	n/a
327.8675	0.09	655735	keystroke_e	e	n/a
328.7825	0.09	657565	keystroke_Key.enter	Key.enter	n/a
328.8875	9.114	657775	prompt	n/a	famous announce adaptive greensboro\n
329.7575	0.06	659515	keystroke_f	f	n/a
329.8625	0.09	659725	keystroke_a	a	n/a
329.9675	0.06	659935	keystroke_m	m	n/a
330.1175	0.12	660235	keystroke_o	o	n/a
330.2075	0.105	660415	keystroke_u	u	n/a
330.3725	0.0595	660745	keystroke_s	s	n/a
330.462	0.09	660924	keystroke_Key.space	Key.space	n/a
330.702	0.06	661404	keystroke_a	a	n/a
330.852	0.06	661704	keystroke_n	n	n/a
330.987	0.06	661974	keystroke_n	n	n/a
331.167	0.12	662334	keystroke_o	o	n/a
331.242	0.105	662484	keystroke_u	u	n/a
331.467	0.075	662934	keystroke_n	n	n/a
331.602	0.15	663204	keystroke_c	c	n/a
331.722	0.105	663444	keystroke_e	e	n/a
331.902	0.045	663804	keystroke_Key.space	Key.space	n/a
332.292	0.045	664584	keystroke_a	a	n/a
332.652	0.03	665304	keystroke_f	f	n/a
332.967	0.075	665934	keystroke_Key.backspace	Key.backspace	n/a
333.087	0.075	666174	keystroke_d	d	n/a
333.297	0.09	666594	keystroke_a	a	n/a
333.7775	0.06	667555	keystroke_p	p	n/a
334.1525	0.06	668305	keystroke_t	t	n/a
334.2425	0.075	668485	keystroke_i	i	n/a
334.4675	0.045	668935	keystroke_v	v	n/a
334.6175	0.075	669235	keystroke_e	e	n/a
334.7525	0.075	669505	keystroke_Key.space	Key.space	n/a
335.848	0.06	671696	keystroke_g	g	n/a
336.013	0.059	672026	keystroke_r	r	n/a
336.237	0.076	672474	keystroke_e	e	n/a
336.418	0.06	672836	keystroke_e	e	n/a
336.583	0.06	673166	keystroke_n	n	n/a
336.702	0.061	673404	keystroke_s	s	n/a
337.198	0.059	674396	keystroke_b	b	n/a
337.407	0.075	674814	keystroke_o	o	n/a
337.512	0.075	675024	keystroke_r	r	n/a
337.602	0.09	675204	keystroke_o	o	n/a
337.932	0.06	675864	keystroke_Key.enter	Key.enter	n/a
338.0055	6.0035	676011	prompt	n/a	oven sending mysimon trout\n
338.937	0.076	677874	keystroke_o	o	n/a
338.997	0.06	677994	keystroke_v	v	n/a
339.177	0.06	678354	keystroke_e	e	n/a
339.267	0.15	678534	keystroke_n	n	n/a
339.387	0.12	678774	keystroke_Key.space	Key.space	n/a
339.5525	0.0605	679105	keystroke_s	s	n/a
339.748	0.0445	679496	keystroke_e	e	n/a
339.837	0.09	679674	keystroke_n	n	n/a
339.958	0.104	679916	keystroke_d	d	n/a
340.047	0.075	680094	keystroke_i	i	n/a
340.212	0.03	680424	keystroke_n	n	n/a
340.287	0.076	680574	keystroke_g	g	n/a
340.407	0.075	680814	keystroke_Key.space	Key.space	n/a
340.677	0.045	681354	keystroke_m	m	n/a
340.977	0.075	681954	keystroke_y	y	n/a
341.217	0.09	682434	keystroke_s	s	n/a
341.772	0.09	683544	keystroke_i	i	n/a
342.327	0.09	684654	keystroke_m	m	n/a
342.552	0.045	685104	keystroke_o	o	n/a
342.7025	0.15	685405	keystroke_n	n	n/a
342.8525	0.09	685705	keystroke_Key.space	Key.space	n/a
343.1825	0.075	686365	keystroke_t	t	n/a
343.3775	0.06	686755	keystroke_r	r	n/a
343.5125	0.105	687025	keystroke_o	o	n/a
343.5875	0.09	687175	keystroke_u	u	n/a
343.7225	0.075	687445	keystroke_t	t	n/a
343.9325	0.075	687865	keystroke_Key.enter	Key.enter	n/a
344.0115	5.8325	688023	prompt	n/a	cancel changing kept request\n
344.9675	0.06	689935	keystroke_c	c	n/a
345.1325	0.06	690265	keystroke_a	a	n/a
345.2225	0.06	690445	keystroke_n	n	n/a
345.3125	0.135	690625	keystroke_c	c	n/a
345.4025	0.12	690805	keystroke_e	e	n/a
345.5375	0.15	691075	keystroke_l	l	n/a
345.6725	0.09	691345	keystroke_Key.space	Key.space	n/a
345.8975	0.075	691795	keystroke_c	c	n/a
346.0325	0.075	692065	keystroke_h	h	n/a
346.1825	0.075	692365	keystroke_a	a	n/a
346.3025	0.0745	692605	keystroke_n	n	n/a
346.512	0.06	693024	keystroke_g	g	n/a
346.587	0.06	693174	keystroke_i	i	n/a
346.707	0.09	693414	keystroke_n	n	n/a
346.842	0.075	693684	keystroke_g	g	n/a
346.932	0.09	693864	keystroke_Key.space	Key.space	n/a
347.547	0.06	695094	keystroke_k	k	n/a
347.637	0.09	695274	keystroke_e	e	n/a
347.772	0.076	695544	keystroke_p	p	n/a
347.907	0.09	695814	keystroke_t	t	n/a
348.072	0.045	696144	keystroke_Key.space	Key.space	n/a
348.267	0.09	696534	keystroke_r	r	n/a
348.342	0.09	696684	keystroke_e	e	n/a
348.717	0.075	697434	keystroke_q	q	n/a
348.837	0.045	697674	keystroke_u	u	n/a
348.912	0.09	697824	keystroke_e	e	n/a
349.1075	0.0605	698215	keystroke_s	s	n/a
349.5125	0.09	699025	keystroke_t	t	n/a
349.7525	0.09	699505	keystroke_Key.enter	Key.enter	n/a
349.8475	5.921	699695	prompt	n/a	stays tones teachers investigate\n
350.698	0.075	701396	keystroke_s	s	n/a
350.893	0.075	701786	keystroke_t	t	n/a
351.0125	0.1045	702025	keystroke_a	a	n/a
351.283	0.074	702566	keystroke_y	y	n/a
351.432	0.09	702864	keystroke_s	s	n/a
351.537	0.075	703074	keystroke_Key.space	Key.space	n/a
351.717	0.09	703434	keystroke_t	t	n/a
351.822	0.075	703644	keystroke_o	o	n/a
352.017	0.06	704034	keystroke_n	n	n/a
352.078	0.089	704156	keystroke_e	e	n/a
352.287	0.075	704574	keystroke_s	s	n/a
352.422	0.075	704844	keystroke_Key.space	Key.space	n/a
352.572	0.0905	705144	keystroke_t	t	n/a
352.6775	0.09	705355	keystroke_e	e	n/a
352.8575	0.075	705715	keystroke_a	a	n/a
353.0375	0.075	706075	keystroke_c	c	n/a
353.1275	0.06	706255	keystroke_h	h	n/a
353.2325	0.12	706465	keystroke_e	e	n/a
353.2925	0.12	706585	keystroke_r	r	n/a
353.5175	0.09	707035	keystroke_s	s	n/a
353.6525	0.09	707305	keystroke_Key.space	Key.space	n/a
353.9225	0.09	707845	keystroke_i	i	n/a
354.1025	0.075	708205	keystroke_n	n	n/a
354.3125	0.06	708625	keystroke_v	v	n/a
354.4625	0.075	708925	keystroke_e	e	n/a
354.6425	0.075	709285	keystroke_s	s	n/a
354.8375	0.075	709675	keystroke_t	t	n/a
354.9425	0.075	709885	keystroke_i	i	n/a
355.0625	0.075	710125	keystroke_g	g	n/a
355.2425	0.075	710485	keystroke_a	a	n/a
355.4075	0.0895	710815	keystroke_t	t	n/a
355.512	0.105	711024	keystroke_e	e	n/a
355.692	0.075	711384	keystroke_Key.enter	Key.enter	n/a
355.7715	6.3275	711543	prompt	n/a	albania earth worth thumb\n
356.5925	0.06	713185	keystroke_a	a	n/a
356.7275	0.075	713455	keystroke_l	l	n/a
357.012	0.06	714024	keystroke_b	b	n/a
357.1475	0.03	714295	keystroke_a	a	n/a
357.2375	0.06	714475	keystroke_n	n	n/a
357.3425	0.06	714685	keystroke_i	i	n/a
357.7175	0.09	715435	keystroke_a	a	n/a
357.9125	0.06	715825	keystroke_Key.space	Key.space	n/a
358.3925	0.075	716785	keystroke_e	e	n/a
358.5425	0.09	717085	keystroke_a	a	n/a
358.677	0.09	717354	keystroke_r	r	n/a
358.872	0.075	717744	keystroke_t	t	n/a
358.977	0.15	717954	keystroke_h	h	n/a
359.067	0.12	718134	keystroke_Key.space	Key.space	n/a
359.352	0.09	718704	keystroke_w	w	n/a
359.532	0.046	719064	keystroke_o	o	n/a
359.727	0.061	719454	keystroke_t	t	n/a
360.0575	0.075	720115	keystroke_Key.backspace	Key.backspace	n/a
360.1475	0.075	720295	keystroke_r	r	n/a
360.3275	0.075	720655	keystroke_t	t	n/a
360.3725	0.195	720745	keystroke_h	h	n/a
360.5075	0.09	721015	keystroke_Key.space	Key.space	n/a
360.6725	0.075	721345	keystroke_t	t	n/a
360.7625	0.045	721525	keystroke_h	h	n/a
360.9875	0.09	721975	keystroke_u	u	n/a
361.2275	0.06	722455	keystroke_m	m	n/a
361.632	0.075	723264	keystroke_b	b	n/a
362.0375	0.06	724075	keystroke_Key.enter	Key.enter	n/a
362.1025	8.4945	724205	prompt	n/a	accordance therapist drivers receiving\n
362.9225	0.075	725845	keystroke_a	a	n/a
363.1175	0.06	726235	keystroke_c	c	n/a
363.2525	0.09	726505	keystroke_c	c	n/a
363.3575	0.09	726715	keystroke_o	o	n/a
363.582	0.06	727164	keystroke_r	r	n/a
363.777	0.09	727554	keystroke_d	d	n/a
363.837	0.135	727674	keystroke_a	a	n/a
364.032	0.06	728064	keystroke_n	n	n/a
364.1375	0.12	728275	keystroke_c	c	n/a
364.2125	0.12	728425	keystroke_e	e	n/a
364.3925	0.06	728785	keystroke_Key.space	Key.space	n/a
364.6325	0.075	729265	keystroke_t	t	n/a
364.7225	0.075	729445	keystroke_h	h	n/a
364.8125	0.09	729625	keystroke_e	e	n/a
364.8725	0.105	729745	keystroke_r	r	n/a
365.0825	0.06	730165	keystroke_a	a	n/a
365.2475	0.075	730495	keystroke_p	p	n/a
365.458	0.059	730916	keystroke_i	i	n/a
365.5475	0.09	731095	keystroke_s	s	n/a
365.7725	0.09	731545	keystroke_t	t	n/a
365.9225	0.105	731845	keystroke_Key.space	Key.space	n/a
366.7175	0.06	733435	keystroke_d	d	n/a
366.8825	0.075	733765	keystroke_r	r	n/a
367.0025	0.09	734005	keystroke_i	i	n/a
367.1525	0.045	734305	keystroke_v	v	n/a
367.3025	0.12	734605	keystroke_e	e	n/a
367.3925	0.09	734785	keystroke_r	r	n/a
367.6325	0.1645	735265	keystroke_s	s	n/a
367.992	0.105	735984	keystroke_Key.space	Key.space	n/a
368.562	0.06	737124	keystroke_r	r	n/a
368.607	0.03	737214	keystroke_e	e	n/a
369.087	0.06	738174	keystroke_c	c	n/a
369.237	0.09	738474	keystroke_e	e	n/a
369.507	0.075	739014	keystroke_i	i	n/a
369.672	0.09	739344	keystroke_v	v	n/a
369.9425	0.06	739885	keystroke_i	i	n/a
370.0775	0.075	740155	keystroke_n	n	n/a
370.1975	0.105	740395	keystroke_g	g	n/a
370.5425	0.045	741085	keystroke_Key.enter	Key.enter	n/a
370.601	11.4255	741202	prompt	n/a	market bluetooth locked cancelled\n
372.058	0.089	744116	keystroke_m	m	n/a
372.162	0.061	744324	keystroke_a	a	n/a
372.417	0.045	744834	keystroke_r	r	n/a
372.522	0.075	745044	keystroke_k	k	n/a
372.612	0.105	745224	keystroke_e	e	n/a
372.897	0.105	745794	keystroke_t	t	n/a
372.942	0.135	745884	keystroke_Key.space	Key.space	n/a
373.287	0.045	746574	keystroke_b	b	n/a
373.452	0.075	746904	keystroke_l	l	n/a
373.632	0.06	747264	keystroke_u	u	n/a
373.902	0.09	747804	keystroke_e	e	n/a
374.127	0.075	748254	keystroke_t	t	n/a
374.247	0.06	748494	keystroke_o	o	n/a
374.367	0.06	748734	keystroke_o	o	n/a
374.532	0.06	749064	keystroke_t	t	n/a
374.622	0.12	749244	keystroke_h	h	n/a
374.787	0.09	749574	keystroke_Key.space	Key.space	n/a
376.5275	0.045	753055	keystroke_l	l	n/a
376.6625	0.075	753325	keystroke_o	o	n/a
376.813	0.075	753626	keystroke_c	c	n/a
376.933	0.075	753866	keystroke_k	k	n/a
377.023	0.09	754046	keystroke_e	e	n/a
377.158	0.105	754316	keystroke_d	d	n/a
377.323	0.06	754646	keystroke_Key.space	Key.space	n/a
377.488	0.075	754976	keystroke_c	c	n/a
377.682	0.046	755364	keystroke_a	a	n/a
377.787	0.061	755574	keystroke_n	n	n/a
377.923	0.015	755846	keystroke_c	c	n/a
378.103	0.06	756206	keystroke_d	d	n/a
378.402	0.061	756804	keystroke_Key.backspace	Key.backspace	n/a
378.627	0.031	757254	keystroke_Key.backspace	Key.backspace	n/a
378.763	0.105	757526	keystroke_d	d	n/a
378.928	0.089	757856	keystroke_l	l	n/a
379.078	0.0745	758156	keystroke_e	e	n/a
379.5875	0.06	759175	keystroke_Key.backspace	Key.backspace	n/a
379.7975	0.075	759595	keystroke_Key.backspace	Key.backspace	n/a
380.2325	0.06	760465	keystroke_Key.backspace	Key.backspace	n/a
380.5025	0.09	761005	keystroke_c	c	n/a
380.7425	0.06	761485	keystroke_e	e	n/a
381.147	0.045	762294	keystroke_l	l	n/a
381.282	0.06	762564	keystroke_l	l	n/a
381.372	0.06	762744	keystroke_e	e	n/a
381.537	0.105	763074	keystroke_d	d	n/a
381.942	0.075	763884	keystroke_Key.enter	Key.enter	n/a
382.0305	7.263	764061	prompt	n/a	accessible funny updating arab\n
382.917	0.075	765834	keystroke_a	a	n/a
383.157	0.0305	766314	keystroke_c	c	n/a
383.292	0.09	766584	keystroke_c	c	n/a
383.427	0.075	766854	keystroke_e	e	n/a
383.577	0.075	767154	keystroke_s	s	n/a
383.757	0.06	767514	keystroke_s	s	n/a
383.967	0.045	767934	keystroke_i	i	n/a
384.117	0.075	768234	keystroke_b	b	n/a
384.297	0.075	768594	keystroke_l	l	n/a
384.387	0.09	768774	keystroke_e	e	n/a
384.522	0.0905	769044	keystroke_Key.space	Key.space	n/a
384.9575	0.075	769915	keystroke_f	f	n/a
385.0775	0.075	770155	keystroke_u	u	n/a
385.2725	0.03	770545	keystroke_n	n	n/a
385.3625	0.0755	770725	keystroke_n	n	n/a
385.587	0.135	771174	keystroke_y	y	n/a
385.662	0.1355	771324	keystroke_Key.space	Key.space	n/a
386.277	0.06	772554	keystroke_u	u	n/a
386.442	0.09	772884	keystroke_p	p	n/a
386.667	0.105	773334	keystroke_d	d	n/a
386.787	0.09	773574	keystroke_a	a	n/a
387.027	0.06	774054	keystroke_t	t	n/a
387.102	0.06	774204	keystroke_i	i	n/a
387.267	0.06	774534	keystroke_n	n	n/a
387.342	0.09	774684	keystroke_g	g	n/a
387.4625	0.09	774925	keystroke_Key.space	Key.space	n/a
388.078	0.06	776156	keystroke_a	a	n/a
388.288	0.105	776576	keystroke_r	r	n/a
388.408	0.09	776816	keystroke_a	a	n/a
388.7975	0.075	777595	keystroke_b	b	n/a
389.2325	0.06	778465	keystroke_Key.enter	Key.enter	n/a
389.2975	11.029	778595	prompt	n/a	reconstruction rebate microsoft latex\n
390.162	0.06	780324	keystroke_r	r	n/a
390.177	0.105	780354	keystroke_e	e	n/a
390.462	0.09	780924	keystroke_c	c	n/a
390.582	0.06	781164	keystroke_o	o	n/a
390.777	0.075	781554	keystroke_n	n	n/a
390.882	0.075	781764	keystroke_s	s	n/a
391.4075	0.06	782815	keystroke_t	t	n/a
391.587	0.06	783174	keystroke_r	r	n/a
391.767	0.075	783534	keystroke_u	u	n/a
392.022	0.09	784044	keystroke_c	c	n/a
392.322	0.06	784644	keystroke_t	t	n/a
392.412	0.06	784824	keystroke_i	i	n/a
392.547	0.09	785094	keystroke_o	o	n/a
392.7425	0.15	785485	keystroke_n	n	n/a
392.8935	0.089	785787	keystroke_Key.space	Key.space	n/a
393.2225	0.12	786445	keystroke_r	r	n/a
393.3125	0.12	786625	keystroke_e	e	n/a
393.837	0.075	787674	keystroke_b	b	n/a
393.927	0.06	787854	keystroke_a	a	n/a
394.137	0.09	788274	keystroke_t	t	n/a
394.197	0.09	788394	keystroke_e	e	n/a
394.362	0.075	788724	keystroke_Key.space	Key.space	n/a
394.603	0.06	789206	keystroke_m	m	n/a
394.767	0.061	789534	keystroke_i	i	n/a
394.933	0.105	789866	keystroke_c	c	n/a
395.218	0.09	790436	keystroke_r	r	n/a
395.668	0.059	791336	keystroke_o	o	n/a
395.922	0.045	791844	keystroke_s	s	n/a
396.177	0.06	792354	keystroke_o	o	n/a
396.313	0.074	792626	keystroke_f	f	n/a
396.507	0.091	793014	keystroke_t	t	n/a
396.612	0.09	793224	keystroke_Key.space	Key.space	n/a
397.693	0.074	795386	keystroke_l	l	n/a
397.8275	0.105	795655	keystroke_a	a	n/a
398.8625	0.045	797725	keystroke_t	t	n/a
398.9825	0.105	797965	keystroke_e	e	n/a
399.3575	0.075	798715	keystroke_x	x	n/a
400.2575	0.06	800515	keystroke_Key.enter	Key.enter	n/a
400.3305	6.6335	800661	prompt	n/a	firms picks microwave originally\n
401.1725	0.09	802345	keystroke_f	f	n/a
401.3225	0.044	802645	keystroke_i	i	n/a
401.3825	0.075	802765	keystroke_r	r	n/a
401.4875	0.075	802975	keystroke_m	m	n/a
401.5925	0.075	803185	keystroke_s	s	n/a
401.7125	0.075	803425	keystroke_Key.space	Key.space	n/a
401.8475	0.075	803695	keystroke_p	p	n/a
401.968	0.0895	803936	keystroke_i	i	n/a
402.0875	0.105	804175	keystroke_c	c	n/a
402.2075	0.06	804415	keystroke_k	k	n/a
402.402	0.075	804804	keystroke_s	s	n/a
402.537	0.06	805074	keystroke_Key.space	Key.space	n/a
402.718	0.075	805436	keystroke_m	m	n/a
402.898	0.089	805796	keystroke_i	i	n/a
403.062	0.091	806124	keystroke_c	c	n/a
403.467	0.105	806934	keystroke_r	r	n/a
403.617	0.09	807234	keystroke_o	o	n/a
403.872	0.12	807744	keystroke_w	w	n/a
404.007	0.105	808014	keystroke_a	a	n/a
404.292	0.06	808584	keystroke_v	v	n/a
404.457	0.075	808914	keystroke_e	e	n/a
404.667	0.075	809334	keystroke_Key.space	Key.space	n/a
405.252	0.06	810504	keystroke_o	o	n/a
405.417	0.06	810834	keystroke_r	r	n/a
405.672	0.075	811344	keystroke_i	i	n/a
405.822	0.06	811644	keystroke_g	g	n/a
405.897	0.06	811794	keystroke_i	i	n/a
406.062	0.075	812124	keystroke_n	n	n/a
406.152	0.09	812304	keystroke_a	a	n/a
406.272	0.06	812544	keystroke_l	l	n/a
406.422	0.045	812844	keystroke_l	l	n/a
406.602	0.06	813204	keystroke_y	y	n/a
406.902	0.06	813804	keystroke_Key.enter	Key.enter	n/a
406.9695	8.6875	813939	prompt	n/a	range configuration often determination\n
408.387	0.09	816774	keystroke_r	r	n/a
408.8675	0.09	817735	keystroke_a	a	n/a
409.0625	0.06	818125	keystroke_n	n	n/a
409.3325	0.075	818665	keystroke_g	g	n/a
409.3925	0.09	818785	keystroke_e	e	n/a
409.5725	0.075	819145	keystroke_Key.space	Key.space	n/a
410.3375	0.075	820675	keystroke_c	c	n/a
410.4275	0.06	820855	keystroke_o	o	n/a
410.5925	0.075	821185	keystroke_n	n	n/a
410.7125	0.045	821425	keystroke_f	f	n/a
410.7725	0.075	821545	keystroke_i	i	n/a
411.0125	0.06	822025	keystroke_g	g	n/a
411.1025	0.06	822205	keystroke_u	u	n/a
411.2075	0.09	822415	keystroke_r	r	n/a
411.5225	0.06	823045	keystroke_a	a	n/a
411.6875	0.09	823375	keystroke_t	t	n/a
411.7925	0.06	823585	keystroke_i	i	n/a
411.9425	0.06	823885	keystroke_o	o	n/a
412.0925	0.18	824185	keystroke_n	n	n/a
412.2125	0.105	824425	keystroke_Key.space	Key.space	n/a
412.4825	0.06	824965	keystroke_o	o	n/a
412.6625	0.06	825325	keystroke_f	f	n/a
412.8425	0.12	825685	keystroke_t	t	n/a
412.9475	0.105	825895	keystroke_e	e	n/a
413.1125	0.1495	826225	keystroke_n	n	n/a
413.277	0.045	826554	keystroke_Key.space	Key.space	n/a
413.622	0.105	827244	keystroke_d	d	n/a
413.682	0.105	827364	keystroke_e	e	n/a
413.937	0.075	827874	keystroke_t	t	n/a
414.072	0.09	828144	keystroke_e	e	n/a
414.132	0.12	828264	keystroke_r	r	n/a
414.372	0.045	828744	keystroke_m	m	n/a
414.492	0.045	828984	keystroke_i	i	n/a
414.612	0.09	829224	keystroke_n	n	n/a
414.687	0.09	829374	keystroke_a	a	n/a
414.912	0.075	829824	keystroke_t	t	n/a
415.002	0.06	830004	keystroke_i	i	n/a
415.167	0.045	830334	keystroke_o	o	n/a
415.287	0.09	830574	keystroke_n	n	n/a
415.5725	0.075	831145	keystroke_Key.enter	Key.enter	n/a
415.663	7.838	831326	prompt	n/a	collectables surprise events fotos\n
416.3975	0.09	832795	keystroke_c	c	n/a
416.6075	0.09	833215	keystroke_o	o	n/a
416.8475	0.045	833695	keystroke_l	l	n/a
416.9675	0.06	833935	keystroke_l	l	n/a
417.0875	0.06	834175	keystroke_e	e	n/a
417.267	0.105	834534	keystroke_c	c	n/a
417.5225	0.06	835045	keystroke_t	t	n/a
417.6875	0.045	835375	keystroke_a	a	n/a
417.8225	0.045	835645	keystroke_b	b	n/a
417.9875	0.075	835975	keystroke_l	l	n/a
418.0775	0.06	836155	keystroke_e	e	n/a
418.287	0.075	836574	keystroke_s	s	n/a
418.632	0.045	837264	keystroke_Key.space	Key.space	n/a
418.797	0.075	837594	keystroke_s	s	n/a
418.962	0.06	837924	keystroke_u	u	n/a
419.127	0.06	838254	keystroke_r	r	n/a
419.232	0.075	838464	keystroke_p	p	n/a
419.442	0.0445	838884	keystroke_i	i	n/a
419.7575	0.074	839515	keystroke_Key.backspace	Key.backspace	n/a
419.8925	0.09	839785	keystroke_r	r	n/a
420.028	0.0745	840056	keystroke_i	i	n/a
420.2975	0.075	840595	keystroke_s	s	n/a
420.5215	0.046	841043	keystroke_e	e	n/a
420.6425	0.09	841285	keystroke_Key.space	Key.space	n/a
420.9275	0.06	841855	keystroke_e	e	n/a
421.1825	0.03	842365	keystroke_v	v	n/a
421.3025	0.075	842605	keystroke_e	e	n/a
421.4525	0.075	842905	keystroke_n	n	n/a
421.5425	0.06	843085	keystroke_t	t	n/a
421.7225	0.0745	843445	keystroke_s	s	n/a
421.8725	0.075	843745	keystroke_Key.space	Key.space	n/a
422.4275	0.06	844855	keystroke_f	f	n/a
422.5175	0.075	845035	keystroke_o	o	n/a
422.6675	0.075	845335	keystroke_t	t	n/a
422.7575	0.075	845515	keystroke_o	o	n/a
423.1925	0.105	846385	keystroke_s	s	n/a
423.4025	0.09	846805	keystroke_Key.enter	Key.enter	n/a
423.5055	6.499	847011	prompt	n/a	address forbes gene intelligence\n
424.287	0.076	848574	keystroke_a	a	n/a
424.467	0.075	848934	keystroke_d	d	n/a
424.617	0.075	849234	keystroke_d	d	n/a
424.767	0.09	849534	keystroke_r	r	n/a
424.842	0.09	849684	keystroke_e	e	n/a
425.052	0.045	850104	keystroke_s	s	n/a
425.157	0.09	850314	keystroke_s	s	n/a
425.337	0.075	850674	keystroke_Key.space	Key.space	n/a
425.7425	0.0745	851485	keystroke_f	f	n/a
425.847	0.075	851694	keystroke_o	o	n/a
425.967	0.045	851934	keystroke_r	r	n/a
426.147	0.06	852294	keystroke_b	b	n/a
426.222	0.075	852444	keystroke_e	e	n/a
426.462	0.045	852924	keystroke_s	s	n/a
426.582	0.075	853164	keystroke_Key.space	Key.space	n/a
427.3175	0.075	854635	keystroke_g	g	n/a
427.3775	0.09	854755	keystroke_e	e	n/a
427.5275	0.075	855055	keystroke_n	n	n/a
427.5875	0.075	855175	keystroke_e	e	n/a
427.7675	0.045	855535	keystroke_Key.space	Key.space	n/a
427.8875	0.075	855775	keystroke_i	i	n/a
428.0375	0.075	856075	keystroke_n	n	n/a
428.172	0.09	856344	keystroke_t	t	n/a
428.322	0.075	856644	keystroke_e	e	n/a
428.502	0.06	857004	keystroke_l	l	n/a
428.622	0.075	857244	keystroke_l	l	n/a
428.772	0.076	857544	keystroke_i	i	n/a
429.0115	0.061	858023	keystroke_g	g	n/a
429.1475	0.089	858295	keystroke_e	e	n/a
429.2825	0.06	858565	keystroke_n	n	n/a
429.4615	0.135	858923	keystroke_c	c	n/a
429.5525	0.15	859105	keystroke_e	e	n/a
429.9265	0.075	859853	keystroke_Key.enter	Key.enter	n/a
430.008	8.628	860016	prompt	n/a	threatened briefing wrote mainstream\n
431.0675	0.06	862135	keystroke_t	t	n/a
431.1425	0.06	862285	keystroke_h	h	n/a
431.2475	0.105	862495	keystroke_r	r	n/a
431.3225	0.105	862645	keystroke_e	e	n/a
431.6975	0.09	863395	keystroke_a	a	n/a
431.9675	0.075	863935	keystroke_t	t	n/a
432.5675	0.075	865135	keystroke_e	e	n/a
432.7775	0.03	865555	keystroke_n	n	n/a
432.9575	0.18	865915	keystroke_e	e	n/a
433.0775	0.15	866155	keystroke_d	d	n/a
433.2575	0.075	866515	keystroke_Key.space	Key.space	n/a
433.9475	0.045	867895	keystroke_b	b	n/a
434.0225	0.09	868045	keystroke_r	r	n/a
434.2025	0.075	868405	keystroke_i	i	n/a
434.3225	0.09	868645	keystroke_e	e	n/a
434.4875	0.104	868975	keystroke_f	f	n/a
434.6525	0.06	869305	keystroke_i	i	n/a
434.8025	0.075	869605	keystroke_n	n	n/a
434.9225	0.0595	869845	keystroke_g	g	n/a
435.0265	0.09	870053	keystroke_Key.space	Key.space	n/a
435.522	0.06	871044	keystroke_w	w	n/a
435.8065	0.075	871613	keystroke_r	r	n/a
435.9715	0.091	871943	keystroke_o	o	n/a
436.1065	0.06	872213	keystroke_t	t	n/a
436.2565	0.0905	872513	keystroke_e	e	n/a
436.392	0.06	872784	keystroke_Key.space	Key.space	n/a
436.572	0.075	873144	keystroke_m	m	n/a
436.602	0.09	873204	keystroke_a	a	n/a
436.752	0.06	873504	keystroke_i	i	n/a
436.872	0.075	873744	keystroke_n	n	n/a
436.962	0.121	873924	keystroke_s	s	n/a
437.187	0.075	874374	keystroke_t	t	n/a
437.352	0.09	874704	keystroke_r	r	n/a
437.412	0.0905	874824	keystroke_e	e	n/a
437.6525	0.075	875305	keystroke_a	a	n/a
437.7875	0.075	875575	keystroke_m	m	n/a
438.4625	0.165	876925	keystroke_Key.enter	Key.enter	n/a
438.6405	8.036	877281	prompt	n/a	coordinated irish betting recorders\n
439.4525	0.06	878905	keystroke_c	c	n/a
439.5725	0.06	879145	keystroke_o	o	n/a
439.7225	0.045	879445	keystroke_o	o	n/a
439.8575	0.045	879715	keystroke_r	r	n/a
440.2925	0.09	880585	keystroke_d	d	n/a
440.4275	0.06	880855	keystroke_i	i	n/a
440.5625	0.075	881125	keystroke_n	n	n/a
440.6525	0.09	881305	keystroke_a	a	n/a
440.8625	0.09	881725	keystroke_t	t	n/a
440.9225	0.09	881845	keystroke_e	e	n/a
441.1025	0.105	882205	keystroke_d	d	n/a
441.2825	0.0895	882565	keystroke_Key.space	Key.space	n/a
441.672	0.06	883344	keystroke_i	i	n/a
441.927	0.075	883854	keystroke_r	r	n/a
442.032	0.075	884064	keystroke_i	i	n/a
442.227	0.105	884454	keystroke_s	s	n/a
442.347	0.135	884694	keystroke_h	h	n/a
442.452	0.105	884904	keystroke_Key.space	Key.space	n/a
443.082	0.075	886164	keystroke_b	b	n/a
443.142	0.09	886284	keystroke_e	e	n/a
443.337	0.075	886674	keystroke_t	t	n/a
443.502	0.09	887004	keystroke_t	t	n/a
443.577	0.075	887154	keystroke_i	i	n/a
443.757	0.0605	887514	keystroke_n	n	n/a
443.8175	0.075	887635	keystroke_g	g	n/a
443.9675	0.075	887935	keystroke_Key.space	Key.space	n/a
444.852	0.09	889704	keystroke_r	r	n/a
444.897	0.12	889794	keystroke_e	e	n/a
445.302	0.06	890604	keystroke_c	c	n/a
445.407	0.0605	890814	keystroke_o	o	n/a
445.6025	0.075	891205	keystroke_r	r	n/a
445.7825	0.105	891565	keystroke_d	d	n/a
445.8725	0.105	891745	keystroke_e	e	n/a
446.0375	0.09	892075	keystroke_r	r	n/a
446.2475	0.075	892495	keystroke_s	s	n/a
446.6075	0.06	893215	keystroke_Key.enter	Key.enter	n/a
446.681	7.36	893362	prompt	n/a	financial lack platinum creek\n
447.6275	0.0595	895255	keystroke_f	f	n/a
447.702	0.06	895404	keystroke_i	i	n/a
447.8375	0.075	895675	keystroke_n	n	n/a
447.8675	0.09	895735	keystroke_a	a	n/a
448.0025	0.075	896005	keystroke_n	n	n/a
448.1375	0.09	896275	keystroke_c	c	n/a
448.2875	0.06	896575	keystroke_i	i	n/a
448.3775	0.09	896755	keystroke_a	a	n/a
448.5275	0.195	897055	keystroke_l	l	n/a
448.6775	0.075	897355	keystroke_Key.space	Key.space	n/a
448.9025	0.075	897805	keystroke_l	l	n/a
449.0075	0.075	898015	keystroke_a	a	n/a
449.2775	0.105	898555	keystroke_c	c	n/a
449.4275	0.15	898855	keystroke_k	k	n/a
449.5475	0.09	899095	keystroke_Key.space	Key.space	n/a
449.7575	0.045	899515	keystroke_p	p	n/a
449.9225	0.075	899845	keystroke_l	l	n/a
450.0125	0.09	900025	keystroke_a	a	n/a
450.2525	0.06	900505	keystroke_t	t	n/a
451.6475	0.075	903295	keystroke_i	i	n/a
452.0075	0.075	904015	keystroke_n	n	n/a
452.1725	0.06	904345	keystroke_u	u	n/a
452.3825	0.104	904765	keystroke_m	m	n/a
452.5615	0.06	905123	keystroke_Key.space	Key.space	n/a
452.832	0.075	905664	keystroke_c	c	n/a
453.042	0.105	906084	keystroke_r	r	n/a
453.162	0.075	906324	keystroke_e	e	n/a
453.342	0.075	906684	keystroke_e	e	n/a
453.477	0.0905	906954	keystroke_k	k	n/a
453.942	0.09	907884	keystroke_Key.enter	Key.enter	n/a
454.046	9.4005	908092	prompt	n/a	notes scheduled monitoring carolina\n
454.932	0.06	909864	keystroke_n	n	n/a
455.082	0.075	910164	keystroke_o	o	n/a
455.142	0.075	910284	keystroke_t	t	n/a
455.232	0.09	910464	keystroke_e	e	n/a
455.442	0.075	910884	keystroke_s	s	n/a
455.5775	0.074	911155	keystroke_Key.space	Key.space	n/a
455.8165	0.046	911633	keystroke_s	s	n/a
455.9825	0.075	911965	keystroke_c	c	n/a
456.1025	0.06	912205	keystroke_h	h	n/a
456.1915	0.09	912383	keystroke_e	e	n/a
456.3725	0.089	912745	keystroke_d	d	n/a
457.1965	0.06	914393	keystroke_u	u	n/a
457.4365	0.045	914873	keystroke_l	l	n/a
457.4965	0.09	914993	keystroke_e	e	n/a
457.6465	0.091	915293	keystroke_d	d	n/a
457.9765	0.105	915953	keystroke_Key.space	Key.space	n/a
458.8615	0.045	917723	keystroke_m	m	n/a
458.9815	0.075	917963	keystroke_o	o	n/a
459.1465	0.0905	918293	keystroke_n	n	n/a
459.2815	0.09	918563	keystroke_i	i	n/a
460.077	0.075	920154	keystroke_t	t	n/a
460.257	0.06	920514	keystroke_o	o	n/a
460.437	0.105	920874	keystroke_r	r	n/a
460.587	0.06	921174	keystroke_i	i	n/a
460.752	0.06	921504	keystroke_n	n	n/a
460.872	0.0605	921744	keystroke_g	g	n/a
460.9625	0.075	921925	keystroke_Key.space	Key.space	n/a
461.2475	0.075	922495	keystroke_c	c	n/a
461.6375	0.075	923275	keystroke_a	a	n/a
462.0725	0.045	924145	keystroke_r	r	n/a
462.2975	0.06	924595	keystroke_o	o	n/a
462.4625	0.06	924925	keystroke_l	l	n/a
462.6275	0.06	925255	keystroke_i	i	n/a
462.7925	0.06	925585	keystroke_n	n	n/a
463.0175	0.09	926035	keystroke_a	a	n/a
463.3475	0.09	926695	keystroke_Key.enter	Key.enter	n/a
463.4545	15.532	926909	prompt	n/a	suffering sara birmingham literacy\n
464.922	0.09	929844	keystroke_s	s	n/a
465.072	0.045	930144	keystroke_u	u	n/a
465.192	0.06	930384	keystroke_f	f	n/a
465.342	0.06	930684	keystroke_f	f	n/a
465.417	0.12	930834	keystroke_e	e	n/a
465.492	0.105	930984	keystroke_r	r	n/a
466.167	0.03	932334	keystroke_o	o	n/a
466.317	0.045	932634	keystroke_n	n	n/a
466.422	0.075	932844	keystroke_g	g	n/a
466.872	0.06	933744	keystroke_Key.backspace	Key.backspace	n/a
467.052	0.075	934104	keystroke_Key.backspace	Key.backspace	n/a
467.247	0.075	934494	keystroke_Key.backspace	Key.backspace	n/a
467.7575	0.045	935515	keystroke_o	o	n/a
468.1175	0.075	936235	keystroke_Key.backspace	Key.backspace	n/a
468.3725	0.06	936745	keystroke_i	i	n/a
468.5675	0.06	937135	keystroke_n	n	n/a
468.6875	0.06	937375	keystroke_g	g	n/a
468.8075	0.075	937615	keystroke_Key.space	Key.space	n/a
469.602	0.075	939204	keystroke_s	s	n/a
469.617	0.105	939234	keystroke_a	a	n/a
469.872	0.075	939744	keystroke_r	r	n/a
470.157	0.12	940314	keystroke_a	a	n/a
470.397	0.06	940794	keystroke_Key.space	Key.space	n/a
470.622	0.06	941244	keystroke_b	b	n/a
470.727	0.09	941454	keystroke_r	r	n/a
470.922	0.09	941844	keystroke_i	i	n/a
471.672	0.075	943344	keystroke_m	m	n/a
472.707	0.045	945414	keystroke_Key.backspace	Key.backspace	n/a
472.902	0.06	945804	keystroke_Key.backspace	Key.backspace	n/a
473.112	0.0755	946224	keystroke_Key.backspace	Key.backspace	n/a
474.1325	0.045	948265	keystroke_i	i	n/a
474.2825	0.09	948565	keystroke_r	r	n/a
474.537	0.09	949074	keystroke_m	m	n/a
475.3775	0.09	950755	keystroke_i	i	n/a
475.9175	0.075	951835	keystroke_n	n	n/a
476.2175	0.075	952435	keystroke_g	g	n/a
476.4275	0.06	952855	keystroke_h	h	n/a
476.6675	0.075	953335	keystroke_a	a	n/a
476.8175	0.075	953635	keystroke_m	m	n/a
477.1175	0.074	954235	keystroke_Key.space	Key.space	n/a
477.477	0.045	954954	keystroke_l	l	n/a
477.627	0.06	955254	keystroke_i	i	n/a
477.7925	0.0595	955585	keystroke_t	t	n/a
477.942	0.12	955884	keystroke_e	e	n/a
478.017	0.12	956034	keystroke_r	r	n/a
478.197	0.135	956394	keystroke_a	a	n/a
478.437	0.075	956874	keystroke_c	c	n/a
478.527	0.0755	957054	keystroke_y	y	n/a
478.9025	0.075	957805	keystroke_Key.enter	Key.enter	n/a
478.9915	8.725	957983	prompt	n/a	golden islam optical monster\n
480.132	0.075	960264	keystroke_g	g	n/a
480.252	0.06	960504	keystroke_o	o	n/a
480.402	0.075	960804	keystroke_l	l	n/a
480.492	0.09	960984	keystroke_d	d	n/a
481.122	0.045	962244	keystroke_e	e	n/a
481.182	0.105	962364	keystroke_n	n	n/a
481.422	0.075	962844	keystroke_Key.space	Key.space	n/a
481.797	0.06	963594	keystroke_i	i	n/a
482.1575	0.059	964315	keystroke_s	s	n/a
482.3075	0.06	964615	keystroke_l	l	n/a
482.3815	0.075	964763	keystroke_a	a	n/a
482.5615	0.1955	965123	keystroke_m	m	n/a
482.727	0.105	965454	keystroke_Key.space	Key.space	n/a
483.342	0.045	966684	keystroke_o	o	n/a
483.522	0.075	967044	keystroke_p	p	n/a
483.777	0.06	967554	keystroke_t	t	n/a
483.912	0.06	967824	keystroke_i	i	n/a
484.197	0.12	968394	keystroke_c	c	n/a
484.272	0.105	968544	keystroke_a	a	n/a
484.437	0.21	968874	keystroke_l	l	n/a
484.602	0.0905	969204	keystroke_Key.space	Key.space	n/a
484.8415	0.076	969683	keystroke_m	m	n/a
484.9915	0.06	969983	keystroke_o	o	n/a
485.1425	0.074	970285	keystroke_n	n	n/a
485.2025	0.12	970405	keystroke_s	s	n/a
485.457	0.0605	970914	keystroke_t	t	n/a
485.6825	0.075	971365	keystroke_e	e	n/a
485.9525	0.06	971905	keystroke_r	r	n/a
486.3425	0.075	972685	keystroke_\	\	n/a
487.3315	0.075	974663	keystroke_Key.backspace	Key.backspace	n/a
487.6315	0.075	975263	keystroke_Key.enter	Key.enter	n/a
487.721	10.54	975442	prompt	n/a	required biotechnology trust crossing\n
488.937	0.09	977874	keystroke_r	r	n/a
488.997	0.105	977994	keystroke_e	e	n/a
489.267	0.06	978534	keystroke_q	q	n/a
489.387	0.075	978774	keystroke_u	u	n/a
489.552	0.045	979104	keystroke_i	i	n/a
489.657	0.105	979314	keystroke_r	r	n/a
489.717	0.0905	979434	keystroke_e	e	n/a
490.1075	0.105	980215	keystroke_d	d	n/a
490.2575	0.09	980515	keystroke_Key.space	Key.space	n/a
490.6175	0.06	981235	keystroke_b	b	n/a
490.7975	0.045	981595	keystroke_i	i	n/a
490.992	0.045	981984	keystroke_o	o	n/a
491.607	0.09	983214	keystroke_t	t	n/a
491.712	0.09	983424	keystroke_e	e	n/a
492.162	0.1055	984324	keystroke_c	c	n/a
492.387	0.0455	984774	keystroke_h	h	n/a
492.5825	0.06	985165	keystroke_n	n	n/a
492.7325	0.0595	985465	keystroke_i	i	n/a
492.9125	0.0745	985825	keystroke_l	l	n/a
493.062	0.075	986124	keystroke_o	o	n/a
493.6175	0.045	987235	keystroke_Key.backspace	Key.backspace	n/a
493.6775	0.015	987355	keystroke_Key.backspace	Key.backspace	n/a
493.8575	0.075	987715	keystroke_Key.backspace	Key.backspace	n/a
494.5175	0.06	989035	keystroke_o	o	n/a
494.6975	0.03	989395	keystroke_l	l	n/a
494.8475	0.045	989695	keystroke_o	o	n/a
495.0875	0.06	990175	keystroke_g	g	n/a
495.2525	0.12	990505	keystroke_y	y	n/a
495.3575	0.105	990715	keystroke_Key.space	Key.space	n/a
496.0925	0.09	992185	keystroke_t	t	n/a
496.2715	0.045	992543	keystroke_r	r	n/a
496.4225	0.06	992845	keystroke_u	u	n/a
496.4965	0.09	992993	keystroke_s	s	n/a
496.7225	0.074	993445	keystroke_t	t	n/a
496.8415	0.075	993683	keystroke_Key.space	Key.space	n/a
497.0215	0.06	994043	keystroke_c	c	n/a
497.1715	0.075	994343	keystroke_r	r	n/a
497.3075	0.089	994615	keystroke_o	o	n/a
497.4265	0.075	994853	keystroke_s	s	n/a
497.5915	0.061	995183	keystroke_s	s	n/a
497.6675	0.059	995335	keystroke_i	i	n/a
497.7865	0.091	995573	keystroke_n	n	n/a
497.9075	0.1045	995815	keystroke_g	g	n/a
498.1925	0.0595	996385	keystroke_Key.enter	Key.enter	n/a
498.2675	7.9585	996535	prompt	n/a	disability vice moment mercedes\n
499.4525	0.075	998905	keystroke_d	d	n/a
499.5575	0.075	999115	keystroke_i	i	n/a
499.6475	0.075	999295	keystroke_s	s	n/a
499.8575	0.075	999715	keystroke_a	a	n/a
500.2325	0.06	1000465	keystroke_b	b	n/a
500.4125	0.06	1000825	keystroke_i	i	n/a
500.5775	0.06	1001155	keystroke_l	l	n/a
500.7425	0.06	1001485	keystroke_i	i	n/a
500.9825	0.06	1001965	keystroke_t	t	n/a
501.1025	0.135	1002205	keystroke_y	y	n/a
501.2075	0.12	1002415	keystroke_Key.space	Key.space	n/a
501.8515	0.075	1003703	keystroke_v	v	n/a
501.9865	0.061	1003973	keystroke_i	i	n/a
502.0615	0.151	1004123	keystroke_c	c	n/a
502.1525	0.134	1004305	keystroke_e	e	n/a
502.3615	0.076	1004723	keystroke_Key.space	Key.space	n/a
502.5725	0.06	1005145	keystroke_m	m	n/a
502.7225	0.06	1005445	keystroke_o	o	n/a
502.9025	0.0745	1005805	keystroke_m	m	n/a
503.037	0.06	1006074	keystroke_e	e	n/a
503.142	0.075	1006284	keystroke_n	n	n/a
503.232	0.06	1006464	keystroke_t	t	n/a
503.412	0.075	1006824	keystroke_Key.space	Key.space	n/a
503.622	0.06	1007244	keystroke_m	m	n/a
503.697	0.09	1007394	keystroke_e	e	n/a
503.877	0.09	1007754	keystroke_r	r	n/a
504.357	0.1345	1008714	keystroke_c	c	n/a
504.462	0.1205	1008924	keystroke_e	e	n/a
504.6725	0.1195	1009345	keystroke_d	d	n/a
504.793	0.119	1009586	keystroke_e	e	n/a
505.4225	0.0595	1010845	keystroke_s	s	n/a
506.142	0.075	1012284	keystroke_Key.enter	Key.enter	n/a
506.2335	12.278	1012467	prompt	n/a	competitors gays better expenditure\n
507.792	0.09	1015584	keystroke_c	c	n/a
507.912	0.12	1015824	keystroke_o	o	n/a
508.017	0.06	1016034	keystroke_m	m	n/a
508.167	0.06	1016334	keystroke_p	p	n/a
508.2425	0.075	1016485	keystroke_e	e	n/a
508.4375	0.075	1016875	keystroke_t	t	n/a
508.5725	0.075	1017145	keystroke_i	i	n/a
508.6925	0.075	1017385	keystroke_t	t	n/a
508.7825	0.06	1017565	keystroke_i	i	n/a
509.6075	0.075	1019215	keystroke_Key.backspace	Key.backspace	n/a
510.7315	0.06	1021463	keystroke_o	o	n/a
510.8225	0.074	1021645	keystroke_r	r	n/a
510.9865	0.105	1021973	keystroke_s	s	n/a
511.1665	0.09	1022333	keystroke_Key.space	Key.space	n/a
512.022	0.06	1024044	keystroke_g	g	n/a
512.097	0.09	1024194	keystroke_a	a	n/a
512.202	0.075	1024404	keystroke_y	y	n/a
512.322	0.105	1024644	keystroke_s	s	n/a
512.442	0.1045	1024884	keystroke_Key.space	Key.space	n/a
512.9675	0.044	1025935	keystroke_b	b	n/a
513.0275	0.074	1026055	keystroke_e	e	n/a
513.1925	0.075	1026385	keystroke_t	t	n/a
513.3715	0.06	1026743	keystroke_t	t	n/a
513.5065	0.135	1027013	keystroke_e	e	n/a
513.6265	0.09	1027253	keystroke_r	r	n/a
513.7465	0.09	1027493	keystroke_Key.space	Key.space	n/a
513.9265	0.075	1027853	keystroke_e	e	n/a
514.2865	0.09	1028573	keystroke_c	c	n/a
514.7065	0.09	1029413	keystroke_Key.backspace	Key.backspace	n/a
514.8275	0.089	1029655	keystroke_x	x	n/a
514.9765	0.09	1029953	keystroke_o	o	n/a
515.1115	0.075	1030223	keystroke_e	e	n/a
515.7265	0.045	1031453	keystroke_Key.backspace	Key.backspace	n/a
515.9065	0.075	1031813	keystroke_Key.backspace	Key.backspace	n/a
516.5065	0.0755	1033013	keystroke_p	p	n/a
516.642	0.06	1033284	keystroke_e	e	n/a
516.912	0.06	1033824	keystroke_n	n	n/a
517.167	0.075	1034334	keystroke_d	d	n/a
517.452	0.075	1034904	keystroke_i	i	n/a
517.602	0.075	1035204	keystroke_t	t	n/a
517.767	0.075	1035534	keystroke_u	u	n/a
517.887	0.12	1035774	keystroke_r	r	n/a
517.947	0.12	1035894	keystroke_e	e	n/a
518.4275	0.075	1036855	keystroke_Key.enter	Key.enter	n/a
518.516	4.5475	1037032	prompt	n/a	oops information i beyond\n
519.4325	0.06	1038865	keystroke_o	o	n/a
519.5525	0.075	1039105	keystroke_o	o	n/a
519.7175	0.075	1039435	keystroke_p	p	n/a
519.8675	0.075	1039735	keystroke_s	s	n/a
519.9875	0.075	1039975	keystroke_Key.space	Key.space	n/a
520.1225	0.06	1040245	keystroke_i	i	n/a
520.2875	0.075	1040575	keystroke_n	n	n/a
520.3775	0.075	1040755	keystroke_f	f	n/a
520.4975	0.075	1040995	keystroke_o	o	n/a
520.5875	0.075	1041175	keystroke_r	r	n/a
520.6775	0.09	1041355	keystroke_m	m	n/a
520.7975	0.075	1041595	keystroke_a	a	n/a
521.0075	0.09	1042015	keystroke_t	t	n/a
521.0675	0.06	1042135	keystroke_i	i	n/a
521.2325	0.03	1042465	keystroke_o	o	n/a
521.3975	0.12	1042795	keystroke_n	n	n/a
521.4875	0.075	1042975	keystroke_Key.space	Key.space	n/a
521.6225	0.135	1043245	keystroke_i	i	n/a
521.7125	0.15	1043425	keystroke_Key.space	Key.space	n/a
522.0575	0.075	1044115	keystroke_b	b	n/a
522.1775	0.0445	1044355	keystroke_e	e	n/a
522.327	0.075	1044654	keystroke_y	y	n/a
522.507	0.075	1045014	keystroke_o	o	n/a
522.687	0.075	1045374	keystroke_n	n	n/a
522.747	0.105	1045494	keystroke_d	d	n/a
522.972	0.09	1045944	keystroke_Key.enter	Key.enter	n/a
523.0665	9.516	1046133	prompt	n/a	victoria plugins quickly conferencing\n
524.052	0.06	1048104	keystroke_v	v	n/a
524.157	0.06	1048314	keystroke_i	i	n/a
524.262	0.0905	1048524	keystroke_c	c	n/a
524.5325	0.075	1049065	keystroke_t	t	n/a
524.6675	0.075	1049335	keystroke_o	o	n/a
524.7725	0.105	1049545	keystroke_r	r	n/a
524.9075	0.06	1049815	keystroke_i	i	n/a
525.1925	0.09	1050385	keystroke_a	a	n/a
525.3865	0.09	1050773	keystroke_Key.space	Key.space	n/a
526.1675	0.0595	1052335	keystroke_p	p	n/a
526.317	0.06	1052634	keystroke_l	l	n/a
526.527	0.06	1053054	keystroke_u	u	n/a
526.737	0.075	1053474	keystroke_g	g	n/a
526.827	0.075	1053654	keystroke_i	i	n/a
527.067	0.015	1054134	keystroke_n	n	n/a
527.097	0.075	1054194	keystroke_s	s	n/a
527.202	0.09	1054404	keystroke_Key.space	Key.space	n/a
528.0125	0.045	1056025	keystroke_q	q	n/a
528.1925	0.045	1056385	keystroke_u	u	n/a
528.3575	0.015	1056715	keystroke_i	i	n/a
528.3875	0.105	1056775	keystroke_c	c	n/a
528.5075	0.045	1057015	keystroke_k	k	n/a
528.6425	0.06	1057285	keystroke_l	l	n/a
528.8665	0.135	1057733	keystroke_y	y	n/a
528.9565	0.165	1057913	keystroke_Key.space	Key.space	n/a
529.5265	0.06	1059053	keystroke_c	c	n/a
529.5715	0.075	1059143	keystroke_o	o	n/a
529.7665	0.075	1059533	keystroke_n	n	n/a
529.8865	0.06	1059773	keystroke_f	f	n/a
530.0665	0.091	1060133	keystroke_e	e	n/a
530.0965	0.165	1060193	keystroke_r	r	n/a
530.2325	0.104	1060465	keystroke_e	e	n/a
530.5315	0.046	1061063	keystroke_n	n	n/a
530.7115	0.105	1061423	keystroke_c	c	n/a
531.5965	0.075	1063193	keystroke_i	i	n/a
531.777	0.075	1063554	keystroke_n	n	n/a
532.137	0.075	1064274	keystroke_g	g	n/a
532.512	0.06	1065024	keystroke_Key.enter	Key.enter	n/a
532.5885	4.725	1065177	prompt	n/a	match chip draw runs\n
533.3825	0.075	1066765	keystroke_m	m	n/a
533.4725	0.09	1066945	keystroke_a	a	n/a
533.6975	0.075	1067395	keystroke_t	t	n/a
533.8175	0.075	1067635	keystroke_c	c	n/a
533.9075	0.12	1067815	keystroke_h	h	n/a
533.9975	0.0895	1067995	keystroke_Key.space	Key.space	n/a
534.717	0.105	1069434	keystroke_c	c	n/a
534.852	0.06	1069704	keystroke_h	h	n/a
534.987	0.075	1069974	keystroke_i	i	n/a
535.197	0.075	1070394	keystroke_p	p	n/a
535.3775	0.0895	1070755	keystroke_Key.space	Key.space	n/a
535.482	0.06	1070964	keystroke_d	d	n/a
535.662	0.075	1071324	keystroke_r	r	n/a
535.8425	0.0745	1071685	keystroke_a	a	n/a
536.007	0.0905	1072014	keystroke_w	w	n/a
536.1575	0.09	1072315	keystroke_Key.space	Key.space	n/a
536.6075	0.09	1073215	keystroke_r	r	n/a
536.772	0.06	1073544	keystroke_u	u	n/a
536.9525	0.06	1073905	keystroke_n	n	n/a
537.0425	0.0745	1074085	keystroke_s	s	n/a
537.2375	0.075	1074475	keystroke_Key.enter	Key.enter	n/a
537.3165	6.792	1074633	prompt	n/a	holders disclose comparable sent\n
538.3765	0.046	1076753	keystroke_h	h	n/a
538.5275	0.0595	1077055	keystroke_o	o	n/a
538.677	0.075	1077354	keystroke_l	l	n/a
538.737	0.075	1077474	keystroke_d	d	n/a
538.8865	0.105	1077773	keystroke_e	e	n/a
538.9615	0.09	1077923	keystroke_r	r	n/a
539.1115	0.12	1078223	keystroke_s	s	n/a
539.3065	0.09	1078613	keystroke_Key.space	Key.space	n/a
539.487	0.105	1078974	keystroke_d	d	n/a
539.652	0.075	1079304	keystroke_i	i	n/a
539.742	0.09	1079484	keystroke_s	s	n/a
539.9825	0.119	1079965	keystroke_c	c	n/a
540.1165	0.06	1080233	keystroke_l	l	n/a
540.2665	0.075	1080533	keystroke_o	o	n/a
540.3565	0.075	1080713	keystroke_s	s	n/a
540.567	0.03	1081134	keystroke_e	e	n/a
540.672	0.075	1081344	keystroke_Key.space	Key.space	n/a
541.257	0.0745	1082514	keystroke_c	c	n/a
541.3165	0.06	1082633	keystroke_o	o	n/a
541.4665	0.0605	1082933	keystroke_m	m	n/a
541.6465	0.06	1083293	keystroke_p	p	n/a
541.842	0.09	1083684	keystroke_a	a	n/a
542.157	0.12	1084314	keystroke_r	r	n/a
542.232	0.135	1084464	keystroke_a	a	n/a
542.892	0.06	1085784	keystroke_b	b	n/a
543.087	0.075	1086174	keystroke_l	l	n/a
543.147	0.075	1086294	keystroke_e	e	n/a
543.282	0.075	1086564	keystroke_Key.space	Key.space	n/a
543.387	0.06	1086774	keystroke_s	s	n/a
543.552	0.045	1087104	keystroke_e	e	n/a
543.627	0.075	1087254	keystroke_n	n	n/a
543.762	0.1045	1087524	keystroke_t	t	n/a
544.032	0.075	1088064	keystroke_Key.enter	Key.enter	n/a
544.1125	7.551	1088225	prompt	n/a	hollow invited carry appreciate\n
544.962	0.06	1089924	keystroke_h	h	n/a
545.142	0.06	1090284	keystroke_o	o	n/a
545.277	0.06	1090554	keystroke_l	l	n/a
545.367	0.075	1090734	keystroke_l	l	n/a
546.1315	0.06	1092263	keystroke_o	o	n/a
546.2365	0.09	1092473	keystroke_w	w	n/a
546.3565	0.1055	1092713	keystroke_Key.space	Key.space	n/a
546.9725	0.0745	1093945	keystroke_i	i	n/a
547.122	0.0905	1094244	keystroke_n	n	n/a
547.317	0.0605	1094634	keystroke_v	v	n/a
547.4375	0.045	1094875	keystroke_i	i	n/a
547.8275	0.09	1095655	keystroke_t	t	n/a
547.9325	0.12	1095865	keystroke_e	e	n/a
548.172	0.075	1096344	keystroke_d	d	n/a
548.337	0.09	1096674	keystroke_Key.space	Key.space	n/a
548.592	0.075	1097184	keystroke_c	c	n/a
548.787	0.075	1097574	keystroke_a	a	n/a
548.982	0.06	1097964	keystroke_r	r	n/a
549.162	0.06	1098324	keystroke_r	r	n/a
549.3565	0.1505	1098713	keystroke_y	y	n/a
549.4615	0.1205	1098923	keystroke_Key.space	Key.space	n/a
549.6565	0.106	1099313	keystroke_a	a	n/a
549.822	0.06	1099644	keystroke_p	p	n/a
549.957	0.075	1099914	keystroke_p	p	n/a
550.047	0.105	1100094	keystroke_r	r	n/a
550.122	0.105	1100244	keystroke_e	e	n/a
550.377	0.105	1100754	keystroke_c	c	n/a
550.557	0.06	1101114	keystroke_i	i	n/a
550.662	0.09	1101324	keystroke_a	a	n/a
550.902	0.09	1101804	keystroke_t	t	n/a
551.067	0.105	1102134	keystroke_e	e	n/a
551.562	0.09	1103124	keystroke_Key.enter	Key.enter	n/a
551.668	6.735	1103336	prompt	n/a	notebooks exclusive knew stress\n
552.597	0.045	1105194	keystroke_n	n	n/a
552.747	0.075	1105494	keystroke_o	o	n/a
552.807	0.1205	1105614	keystroke_t	t	n/a
552.9125	0.09	1105825	keystroke_e	e	n/a
553.1075	0.074	1106215	keystroke_b	b	n/a
553.2875	0.059	1106575	keystroke_o	o	n/a
553.4215	0.12	1106843	keystroke_o	o	n/a
553.4975	0.1195	1106995	keystroke_k	k	n/a
553.632	0.09	1107264	keystroke_s	s	n/a
553.782	0.0745	1107564	keystroke_Key.space	Key.space	n/a
553.9615	0.045	1107923	keystroke_e	e	n/a
554.2615	0.06	1108523	keystroke_x	x	n/a
554.4265	0.09	1108853	keystroke_c	c	n/a
554.5465	0.075	1109093	keystroke_l	l	n/a
554.7415	0.06	1109483	keystroke_u	u	n/a
554.8315	0.075	1109663	keystroke_s	s	n/a
554.9215	0.091	1109843	keystroke_i	i	n/a
555.1925	0.06	1110385	keystroke_v	v	n/a
555.3425	0.09	1110685	keystroke_e	e	n/a
555.4775	0.105	1110955	keystroke_Key.space	Key.space	n/a
556.107	0.1045	1112214	keystroke_k	k	n/a
556.1665	0.09	1112333	keystroke_n	n	n/a
556.452	0.135	1112904	keystroke_e	e	n/a
556.542	0.09	1113084	keystroke_w	w	n/a
556.677	0.075	1113354	keystroke_Key.space	Key.space	n/a
557.172	0.075	1114344	keystroke_s	s	n/a
557.382	0.105	1114764	keystroke_t	t	n/a
557.607	0.09	1115214	keystroke_r	r	n/a
557.682	0.1045	1115364	keystroke_e	e	n/a
557.9515	0.06	1115903	keystroke_s	s	n/a
558.1015	0.06	1116203	keystroke_s	s	n/a
558.3115	0.09	1116623	keystroke_Key.enter	Key.enter	n/a
558.407	8.974	1116814	prompt	n/a	prevent reasonable 'tis smallest\n
559.167	0.06	1118334	keystroke_p	p	n/a
559.272	0.135	1118544	keystroke_r	r	n/a
559.332	0.135	1118664	keystroke_e	e	n/a
559.632	0.075	1119264	keystroke_v	v	n/a
559.782	0.0895	1119564	keystroke_e	e	n/a
559.9165	0.075	1119833	keystroke_n	n	n/a
560.0065	0.09	1120013	keystroke_t	t	n/a
560.1415	0.09	1120283	keystroke_Key.space	Key.space	n/a
560.4875	0.104	1120975	keystroke_r	r	n/a
560.5625	0.089	1121125	keystroke_e	e	n/a
560.7265	0.15	1121453	keystroke_a	a	n/a
560.8465	0.105	1121693	keystroke_s	s	n/a
561.0865	0.03	1122173	keystroke_o	o	n/a
561.2515	0.06	1122503	keystroke_n	n	n/a
561.3265	0.105	1122653	keystroke_a	a	n/a
561.4915	0.06	1122983	keystroke_b	b	n/a
561.6715	0.06	1123343	keystroke_l	l	n/a
