onset	duration	sample	value	key	prompt_text
10.3605	7.5185	20721	prompt	n/a	the quick brown fox jumps over a lazy dog\n
11.9245	0.012	23849	keystroke_t	t	n/a
11.9515	0.06	23903	keystroke_h	h	n/a
12.0265	0.09	24053	keystroke_e	e	n/a
12.3865	0.12	24773	keystroke_Key.space	Key.space	n/a
12.5215	0.105	25043	keystroke_q	q	n/a
12.6115	0.135	25223	keystroke_u	u	n/a
12.6865	0.135	25373	keystroke_i	i	n/a
12.7765	0.09	25553	keystroke_c	c	n/a
12.9265	0.12	25853	keystroke_k	k	n/a
13.0615	0.075	26123	keystroke_Key.space	Key.space	n/a
13.2115	0.09	26423	keystroke_b	b	n/a
13.2865	0.075	26573	keystroke_r	r	n/a
13.3765	0.105	26753	keystroke_o	o	n/a
13.4365	0.105	26873	keystroke_w	w	n/a
13.5565	0.136	27113	keystroke_n	n	n/a
13.6465	0.105	27293	keystroke_Key.space	Key.space	n/a
13.8565	0.0605	27713	keystroke_f	f	n/a
13.932	0.105	27864	keystroke_o	o	n/a
14.067	0.135	28134	keystroke_x	x	n/a
14.217	0.075	28434	keystroke_Key.space	Key.space	n/a
15.072	0.075	30144	keystroke_j	j	n/a
15.252	0.06	30504	keystroke_u	u	n/a
15.4315	0.1205	30863	keystroke_m	m	n/a
15.537	0.12	31074	keystroke_p	p	n/a
15.642	0.12	31284	keystroke_s	s	n/a
15.776	0.105	31552	keystroke_Key.space	Key.space	n/a
15.867	0.179	31734	keystroke_o	o	n/a
16.061	0.076	32122	keystroke_v	v	n/a
16.2115	0.0895	32423	keystroke_e	e	n/a
16.286	0.076	32572	keystroke_r	r	n/a
16.391	0.0605	32782	keystroke_Key.space	Key.space	n/a
16.481	0.12	32962	keystroke_a	a	n/a
16.571	0.09	33142	keystroke_Key.space	Key.space	n/a
16.736	0.12	33472	keystroke_l	l	n/a
16.841	0.105	33682	keystroke_a	a	n/a
17.051	0.121	34102	keystroke_z	z	n/a
17.201	0.03	34402	keystroke_y	y	n/a
17.291	0.105	34582	keystroke_Key.space	Key.space	n/a
17.457	0.09	34914	keystroke_d	d	n/a
17.562	0.089	35124	keystroke_o	o	n/a
17.622	0.09	35244	keystroke_g	g	n/a
17.817	0.059	35634	keystroke_Key.enter	Key.enter	n/a
17.885	5.1985	35770	prompt	n/a	neither practical rwanda never\n
18.567	0.075	37134	keystroke_n	n	n/a
18.657	0.0595	37314	keystroke_e	e	n/a
18.7615	0.09	37523	keystroke_i	i	n/a
18.8665	0.0605	37733	keystroke_t	t	n/a
18.956	0.09	37912	keystroke_h	h	n/a
19.017	0.105	38034	keystroke_e	e	n/a
19.091	0.076	38182	keystroke_r	r	n/a
19.196	0.106	38392	keystroke_Key.space	Key.space	n/a
19.347	0.15	38694	keystroke_p	p	n/a
19.452	0.089	38904	keystroke_r	r	n/a
19.557	0.075	39114	keystroke_a	a	n/a
19.677	0.075	39354	keystroke_c	c	n/a
19.931	0.0605	39862	keystroke_t	t	n/a
20.0365	0.105	40073	keystroke_i	i	n/a
20.2765	0.1205	40553	keystroke_c	c	n/a
20.3515	0.105	40703	keystroke_a	a	n/a
20.442	0.1045	40884	keystroke_l	l	n/a
20.5615	0.075	41123	keystroke_Key.space	Key.space	n/a
20.892	0.075	41784	keystroke_r	r	n/a
21.327	0.105	42654	keystroke_w	w	n/a
21.8365	0.09	43673	keystroke_a	a	n/a
21.9865	0.105	43973	keystroke_n	n	n/a
22.1365	0.1205	44273	keystroke_d	d	n/a
22.212	0.12	44424	keystroke_a	a	n/a
22.392	0.075	44784	keystroke_Key.space	Key.space	n/a
22.512	0.105	45024	keystroke_n	n	n/a
22.587	0.075	45174	keystroke_e	e	n/a
22.722	0.075	45444	keystroke_v	v	n/a
22.767	0.105	45534	keystroke_e	e	n/a
22.827	0.105	45654	keystroke_r	r	n/a
22.977	0.105	45954	keystroke_Key.enter	Key.enter	n/a
23.089	4.359	46178	prompt	n/a	rate vendor easy resolved\n
23.682	0.105	47364	keystroke_r	r	n/a
23.757	0.09	47514	keystroke_a	a	n/a
23.877	0.105	47754	keystroke_t	t	n/a
23.952	0.12	47904	keystroke_e	e	n/a
24.117	0.09	48234	keystroke_Key.space	Key.space	n/a
24.297	0.105	48594	keystroke_r	r	n/a
24.656	0.076	49312	keystroke_Key.backspace	Key.backspace	n/a
24.747	0.089	49494	keystroke_v	v	n/a
24.792	0.12	49584	keystroke_e	e	n/a
24.882	0.104	49764	keystroke_n	n	n/a
25.061	0.105	50122	keystroke_d	d	n/a
25.182	0.075	50364	keystroke_o	o	n/a
25.242	0.09	50484	keystroke_r	r	n/a
25.376	0.106	50752	keystroke_Key.space	Key.space	n/a
25.557	0.105	51114	keystroke_e	e	n/a
25.677	0.12	51354	keystroke_a	a	n/a
25.782	0.1345	51564	keystroke_s	s	n/a
25.9315	0.09	51863	keystroke_y	y	n/a
26.1565	0.0905	52313	keystroke_Key.space	Key.space	n/a
26.532	0.075	53064	keystroke_r	r	n/a
26.562	0.105	53124	keystroke_e	e	n/a
26.772	0.105	53544	keystroke_s	s	n/a
26.862	0.09	53724	keystroke_o	o	n/a
27.012	0.105	54024	keystroke_l	l	n/a
27.042	0.105	54084	keystroke_v	v	n/a
27.102	0.075	54204	keystroke_e	e	n/a
27.2815	0.075	54563	keystroke_d	d	n/a
27.3715	0.0755	54743	keystroke_Key.enter	Key.enter	n/a
27.451	5.3975	54902	prompt	n/a	finest armenia sure sewing\n
28.167	0.09	56334	keystroke_f	f	n/a
28.242	0.12	56484	keystroke_i	i	n/a
28.317	0.1045	56634	keystroke_n	n	n/a
28.5265	0.12	57053	keystroke_e	e	n/a
28.6165	0.135	57233	keystroke_s	s	n/a
28.7365	0.12	57473	keystroke_t	t	n/a
28.8715	0.0905	57743	keystroke_Key.space	Key.space	n/a
28.992	0.105	57984	keystroke_a	a	n/a
29.052	0.105	58104	keystroke_r	r	n/a
29.442	0.105	58884	keystroke_m	m	n/a
29.562	0.075	59124	keystroke_e	e	n/a
30.087	0.09	60174	keystroke_n	n	n/a
30.267	0.105	60534	keystroke_i	i	n/a
30.387	0.105	60774	keystroke_a	a	n/a
30.537	0.105	61074	keystroke_Key.space	Key.space	n/a
30.807	0.06	61614	keystroke_s	s	n/a
30.882	0.075	61764	keystroke_u	u	n/a
30.942	0.105	61884	keystroke_r	r	n/a
31.002	0.12	62004	keystroke_e	e	n/a
31.107	0.09	62214	keystroke_Key.space	Key.space	n/a
31.332	0.075	62664	keystroke_s	s	n/a
31.512	0.075	63024	keystroke_w	w	n/a
31.557	0.09	63114	keystroke_e	e	n/a
32.022	0.06	64044	keystroke_Key.backspace	Key.backspace	n/a
32.172	0.045	64344	keystroke_Key.backspace	Key.backspace	n/a
32.187	0.12	64374	keystroke_e	e	n/a
32.262	0.12	64524	keystroke_w	w	n/a
32.412	0.135	64824	keystroke_i	i	n/a
32.457	0.12	64914	keystroke_n	n	n/a
32.592	0.0745	65184	keystroke_g	g	n/a
32.7265	0.12	65453	keystroke_Key.enter	Key.enter	n/a
32.852	5.6665	65704	prompt	n/a	frontier fragrances horn grams\n
33.537	0.06	67074	keystroke_f	f	n/a
33.642	0.06	67284	keystroke_o	o	n/a
33.672	0.06	67344	keystroke_r	r	n/a
34.1365	0.045	68273	keystroke_Key.backspace	Key.backspace	n/a
34.2715	0.045	68543	keystroke_Key.backspace	Key.backspace	n/a
34.3765	0.075	68753	keystroke_r	r	n/a
34.4815	0.09	68963	keystroke_o	o	n/a
34.5265	0.09	69053	keystroke_n	n	n/a
34.7365	0.06	69473	keystroke_t	t	n/a
34.8115	0.105	69623	keystroke_i	i	n/a
34.9315	0.075	69863	keystroke_e	e	n/a
35.2615	0.09	70523	keystroke_r	r	n/a
35.442	0.09	70884	keystroke_Key.space	Key.space	n/a
35.652	0.06	71304	keystroke_f	f	n/a
35.787	0.09	71574	keystroke_r	r	n/a
35.862	0.105	71724	keystroke_a	a	n/a
36.177	0.06	72354	keystroke_g	g	n/a
36.327	0.09	72654	keystroke_r	r	n/a
36.402	0.075	72804	keystroke_a	a	n/a
36.477	0.09	72954	keystroke_n	n	n/a
36.612	0.105	73224	keystroke_c	c	n/a
36.702	0.135	73404	keystroke_e	e	n/a
36.792	0.165	73584	keystroke_s	s	n/a
36.987	0.09	73974	keystroke_Key.space	Key.space	n/a
37.197	0.105	74394	keystroke_h	h	n/a
37.257	0.1345	74514	keystroke_o	o	n/a
37.377	0.1055	74754	keystroke_r	r	n/a
37.4975	0.119	74995	keystroke_n	n	n/a
37.6315	0.105	75263	keystroke_Key.space	Key.space	n/a
37.8875	0.075	75775	keystroke_g	g	n/a
38.0675	0.0895	76135	keystroke_r	r	n/a
38.127	0.105	76254	keystroke_a	a	n/a
38.217	0.105	76434	keystroke_m	m	n/a
38.307	0.105	76614	keystroke_s	s	n/a
38.427	0.09	76854	keystroke_Key.enter	Key.enter	n/a
38.5225	5.651	77045	prompt	n/a	vista tray comparing panasonic\n
39.2665	0.075	78533	keystroke_v	v	n/a
39.3565	0.0905	78713	keystroke_i	i	n/a
39.4175	0.1045	78835	keystroke_s	s	n/a
39.717	0.105	79434	keystroke_t	t	n/a
39.807	0.12	79614	keystroke_a	a	n/a
39.987	0.09	79974	keystroke_Key.space	Key.space	n/a
40.257	0.075	80514	keystroke_t	t	n/a
40.422	0.09	80844	keystroke_r	r	n/a
40.497	0.075	80994	keystroke_a	a	n/a
40.992	0.09	81984	keystroke_y	y	n/a
41.097	0.12	82194	keystroke_Key.space	Key.space	n/a
41.352	0.09	82704	keystroke_c	c	n/a
41.412	0.09	82824	keystroke_o	o	n/a
41.457	0.1195	82914	keystroke_m	m	n/a
41.7115	0.121	83423	keystroke_p	p	n/a
41.8465	0.09	83693	keystroke_a	a	n/a
42.177	0.075	84354	keystroke_r	r	n/a
42.327	0.135	84654	keystroke_i	i	n/a
42.387	0.135	84774	keystroke_n	n	n/a
42.537	0.075	85074	keystroke_g	g	n/a
42.837	0.075	85674	keystroke_Key.space	Key.space	n/a
42.987	0.09	85974	keystroke_p	p	n/a
43.092	0.06	86184	keystroke_a	a	n/a
43.182	0.09	86364	keystroke_n	n	n/a
43.257	0.09	86514	keystroke_a	a	n/a
43.602	0.075	87204	keystroke_s	s	n/a
43.647	0.09	87294	keystroke_o	o	n/a
43.677	0.105	87354	keystroke_n	n	n/a
43.887	0.09	87774	keystroke_i	i	n/a
43.977	0.0745	87954	keystroke_c	c	n/a
44.0815	0.09	88163	keystroke_Key.enter	Key.enter	n/a
44.1765	5.8325	88353	prompt	n/a	hiring who'd presently delaware\n
44.8465	0.0755	89693	keystroke_h	h	n/a
44.907	0.135	89814	keystroke_i	i	n/a
45.072	0.075	90144	keystroke_r	r	n/a
45.492	0.09	90984	keystroke_i	i	n/a
45.537	0.12	91074	keystroke_n	n	n/a
45.672	0.075	91344	keystroke_g	g	n/a
45.792	0.105	91584	keystroke_Key.space	Key.space	n/a
46.062	0.075	92124	keystroke_w	w	n/a
46.107	0.105	92214	keystroke_h	h	n/a
46.167	0.1345	92334	keystroke_o	o	n/a
46.3025	0.164	92605	keystroke_'	'	n/a
46.4515	0.105	92903	keystroke_d	d	n/a
46.6315	0.105	93263	keystroke_Key.space	Key.space	n/a
46.8715	0.12	93743	keystroke_p	p	n/a
46.9615	0.106	93923	keystroke_r	r	n/a
47.0065	0.076	94013	keystroke_e	e	n/a
47.6365	0.105	95273	keystroke_s	s	n/a
47.6965	0.105	95393	keystroke_e	e	n/a
47.8615	0.09	95723	keystroke_n	n	n/a
47.9965	0.075	95993	keystroke_t	t	n/a
48.192	0.105	96384	keystroke_l	l	n/a
48.312	0.06	96624	keystroke_y	y	n/a
48.432	0.105	96864	keystroke_Key.space	Key.space	n/a
48.657	0.045	97314	keystroke_d	d	n/a
48.792	0.06	97584	keystroke_e	e	n/a
48.867	0.1345	97734	keystroke_l	l	n/a
48.9865	0.09	97973	keystroke_a	a	n/a
49.407	0.075	98814	keystroke_w	w	n/a
49.497	0.135	98994	keystroke_a	a	n/a
49.617	0.135	99234	keystroke_r	r	n/a
49.722	0.09	99444	keystroke_e	e	n/a
49.917	0.09	99834	keystroke_Key.enter	Key.enter	n/a
50.014	6.0095	100028	prompt	n/a	sustainable famous photograph pockets\n
50.652	0.075	101304	keystroke_s	s	n/a
50.742	0.075	101484	keystroke_u	u	n/a
50.802	0.105	101604	keystroke_s	s	n/a
51.042	0.0745	102084	keystroke_t	t	n/a
51.132	0.12	102264	keystroke_a	a	n/a
51.237	0.105	102474	keystroke_i	i	n/a
51.312	0.0905	102624	keystroke_n	n	n/a
51.6575	0.105	103315	keystroke_a	a	n/a
51.7475	0.09	103495	keystroke_b	b	n/a
51.8525	0.15	103705	keystroke_l	l	n/a
51.9875	0.09	103975	keystroke_e	e	n/a
52.0925	0.105	104185	keystroke_Key.space	Key.space	n/a
52.2725	0.09	104545	keystroke_f	f	n/a
52.3325	0.12	104665	keystroke_a	a	n/a
52.4075	0.075	104815	keystroke_m	m	n/a
52.5275	0.15	105055	keystroke_o	o	n/a
52.6175	0.135	105235	keystroke_u	u	n/a
52.7675	0.089	105535	keystroke_s	s	n/a
52.8725	0.09	105745	keystroke_Key.space	Key.space	n/a
53.097	0.075	106194	keystroke_p	p	n/a
53.127	0.105	106254	keystroke_h	h	n/a
53.277	0.1205	106554	keystroke_o	o	n/a
53.5175	0.075	107035	keystroke_t	t	n/a
53.5925	0.12	107185	keystroke_o	o	n/a
54.0125	0.059	108025	keystroke_g	g	n/a
54.1615	0.091	108323	keystroke_r	r	n/a
54.2225	0.105	108445	keystroke_a	a	n/a
54.2975	0.135	108595	keystroke_p	p	n/a
54.3715	0.15	108743	keystroke_h	h	n/a
54.6565	0.075	109313	keystroke_Key.space	Key.space	n/a
55.0175	0.09	110035	keystroke_p	p	n/a
55.0775	0.105	110155	keystroke_o	o	n/a
55.1965	0.076	110393	keystroke_c	c	n/a
55.3025	0.1045	110605	keystroke_k	k	n/a
55.3775	0.0895	110755	keystroke_e	e	n/a
55.452	0.135	110904	keystroke_t	t	n/a
55.557	0.12	111114	keystroke_s	s	n/a
55.9325	0.089	111865	keystroke_Key.enter	Key.enter	n/a
56.029	5.71	112058	prompt	n/a	updates athletes brokers chase\n
56.7265	0.12	113453	keystroke_u	u	n/a
56.7875	0.134	113575	keystroke_p	p	n/a
56.9665	0.091	113933	keystroke_d	d	n/a
57.2525	0.105	114505	keystroke_a	a	n/a
57.3725	0.135	114745	keystroke_t	t	n/a
57.4325	0.165	114865	keystroke_e	e	n/a
57.7025	0.134	115405	keystroke_s	s	n/a
58.0165	0.09	116033	keystroke_Key.space	Key.space	n/a
58.1975	0.09	116395	keystroke_a	a	n/a
58.4525	0.075	116905	keystroke_t	t	n/a
58.5415	0.076	117083	keystroke_h	h	n/a
58.8125	0.119	117625	keystroke_l	l	n/a
58.9625	0.059	117925	keystroke_e	e	n/a
59.2465	0.091	118493	keystroke_t	t	n/a
59.3075	0.1645	118615	keystroke_e	e	n/a
59.442	0.165	118884	keystroke_s	s	n/a
59.712	0.09	119424	keystroke_Key.space	Key.space	n/a
59.9525	0.06	119905	keystroke_b	b	n/a
60.0415	0.075	120083	keystroke_r	r	n/a
60.1015	0.09	120203	keystroke_o	o	n/a
60.2965	0.105	120593	keystroke_k	k	n/a
60.4165	0.075	120833	keystroke_e	e	n/a
60.4475	0.104	120895	keystroke_r	r	n/a
60.6115	0.135	121223	keystroke_s	s	n/a
60.7915	0.09	121583	keystroke_Key.space	Key.space	n/a
61.1065	0.105	122213	keystroke_c	c	n/a
61.1965	0.0905	122393	keystroke_h	h	n/a
61.287	0.09	122574	keystroke_a	a	n/a
61.332	0.135	122664	keystroke_s	s	n/a
61.407	0.12	122814	keystroke_e	e	n/a
61.647	0.09	123294	keystroke_Key.enter	Key.enter	n/a
61.7505	6.273	123501	prompt	n/a	embedded device principle appliances\n
62.382	0.075	124764	keystroke_e	e	n/a
62.472	0.09	124944	keystroke_m	m	n/a
62.682	0.0905	125364	keystroke_b	b	n/a
62.7865	0.075	125573	keystroke_e	e	n/a
63.0415	0.075	126083	keystroke_d	d	n/a
63.2215	0.075	126443	keystroke_d	d	n/a
63.387	0.06	126774	keystroke_e	e	n/a
63.522	0.12	127044	keystroke_d	d	n/a
63.657	0.105	127314	keystroke_Key.space	Key.space	n/a
63.807	0.045	127614	keystroke_d	d	n/a
63.927	0.0755	127854	keystroke_e	e	n/a
64.1375	0.09	128275	keystroke_v	v	n/a
64.2575	0.0745	128515	keystroke_i	i	n/a
64.632	0.135	129264	keystroke_c	c	n/a
64.692	0.135	129384	keystroke_e	e	n/a
64.857	0.1205	129714	keystroke_Key.space	Key.space	n/a
65.1125	0.09	130225	keystroke_p	p	n/a
65.2175	0.06	130435	keystroke_r	r	n/a
65.2925	0.1195	130585	keystroke_i	i	n/a
65.3675	0.1045	130735	keystroke_n	n	n/a
65.607	0.105	131214	keystroke_c	c	n/a
65.697	0.09	131394	keystroke_i	i	n/a
65.952	0.1205	131904	keystroke_p	p	n/a
66.0275	0.12	132055	keystroke_l	l	n/a
66.1325	0.105	132265	keystroke_e	e	n/a
66.2975	0.105	132595	keystroke_Key.space	Key.space	n/a
66.5375	0.075	133075	keystroke_a	a	n/a
66.5675	0.075	133135	keystroke_p	p	n/a
66.717	0.075	133434	keystroke_p	p	n/a
66.912	0.135	133824	keystroke_l	l	n/a
66.987	0.12	133974	keystroke_i	i	n/a
67.362	0.075	134724	keystroke_a	a	n/a
67.422	0.105	134844	keystroke_n	n	n/a
67.542	0.15	135084	keystroke_c	c	n/a
67.647	0.165	135294	keystroke_e	e	n/a
67.722	0.15	135444	keystroke_s	s	n/a
67.932	0.09	135864	keystroke_Key.enter	Key.enter	n/a
68.027	4.4815	136054	prompt	n/a	string dates char absolutely\n
68.6515	0.09	137303	keystroke_s	s	n/a
68.8315	0.06	137663	keystroke_t	t	n/a
68.952	0.1045	137904	keystroke_r	r	n/a
69.0415	0.105	138083	keystroke_i	i	n/a
69.0865	0.12	138173	keystroke_n	n	n/a
69.2215	0.06	138443	keystroke_g	g	n/a
69.3715	0.09	138743	keystroke_Key.space	Key.space	n/a
69.5065	0.09	139013	keystroke_d	d	n/a
69.6265	0.12	139253	keystroke_a	a	n/a
69.7315	0.135	139463	keystroke_t	t	n/a
69.8215	0.195	139643	keystroke_e	e	n/a
69.9115	0.135	139823	keystroke_s	s	n/a
70.1365	0.075	140273	keystroke_Key.space	Key.space	n/a
70.3615	0.075	140723	keystroke_c	c	n/a
70.4515	0.09	140903	keystroke_h	h	n/a
70.5265	0.1055	141053	keystroke_a	a	n/a
70.587	0.12	141174	keystroke_r	r	n/a
70.8115	0.06	141623	keystroke_Key.space	Key.space	n/a
71.0065	0.06	142013	keystroke_a	a	n/a
71.0515	0.075	142103	keystroke_b	b	n/a
71.2465	0.075	142493	keystroke_s	s	n/a
71.3065	0.1055	142613	keystroke_o	o	n/a
71.502	0.15	143004	keystroke_l	l	n/a
71.637	0.105	143274	keystroke_u	u	n/a
71.757	0.12	143514	keystroke_t	t	n/a
71.817	0.105	143634	keystroke_e	e	n/a
71.907	0.135	143814	keystroke_l	l	n/a
72.027	0.075	144054	keystroke_y	y	n/a
72.417	0.09	144834	keystroke_Key.enter	Key.enter	n/a
72.5125	5.336	145025	prompt	n/a	excluding isaac money feeling\n
73.182	0.06	146364	keystroke_e	e	n/a
73.407	0.09	146814	keystroke_x	x	n/a
73.6315	0.09	147263	keystroke_c	c	n/a
73.7365	0.09	147473	keystroke_l	l	n/a
73.7515	0.12	147503	keystroke_u	u	n/a
73.9765	0.09	147953	keystroke_d	d	n/a
74.0515	0.135	148103	keystroke_i	i	n/a
74.1115	0.12	148223	keystroke_n	n	n/a
74.2165	0.105	148433	keystroke_g	g	n/a
74.3665	0.09	148733	keystroke_Key.space	Key.space	n/a
74.5915	0.09	149183	keystroke_i	i	n/a
74.7115	0.075	149423	keystroke_s	s	n/a
74.8465	0.091	149693	keystroke_s	s	n/a
75.5075	0.075	151015	keystroke_Key.backspace	Key.backspace	n/a
75.6125	0.075	151225	keystroke_a	a	n/a
75.7625	0.119	151525	keystroke_a	a	n/a
75.9125	0.104	151825	keystroke_c	c	n/a
76.0465	0.076	152093	keystroke_Key.space	Key.space	n/a
76.2875	0.059	152575	keystroke_m	m	n/a
76.3615	0.091	152723	keystroke_o	o	n/a
76.4225	0.09	152845	keystroke_n	n	n/a
76.6615	0.06	153323	keystroke_e	e	n/a
76.7665	0.091	153533	keystroke_y	y	n/a
76.9615	0.075	153923	keystroke_Key.space	Key.space	n/a
77.1265	0.06	154253	keystroke_f	f	n/a
77.2315	0.06	154463	keystroke_e	e	n/a
77.3665	0.076	154733	keystroke_e	e	n/a
77.4115	0.105	154823	keystroke_l	l	n/a
77.4715	0.106	154943	keystroke_i	i	n/a
77.4875	0.119	154975	keystroke_n	n	n/a
77.6225	0.074	155245	keystroke_g	g	n/a
77.7565	0.09	155513	keystroke_Key.enter	Key.enter	n/a
77.851	7.7525	155702	prompt	n/a	javascript accepting westminster value\n
78.5225	0.09	157045	keystroke_j	j	n/a
78.6275	0.105	157255	keystroke_a	a	n/a
78.8665	0.091	157733	keystroke_v	v	n/a
78.9725	0.12	157945	keystroke_a	a	n/a
79.3625	0.089	158725	keystroke_s	s	n/a
79.4065	0.09	158813	keystroke_c	c	n/a
79.6165	0.075	159233	keystroke_r	r	n/a
79.6765	0.121	159353	keystroke_i	i	n/a
79.7365	0.12	159473	keystroke_p	p	n/a
79.8725	0.074	159745	keystroke_t	t	n/a
80.0515	0.075	160103	keystroke_Key.space	Key.space	n/a
80.5765	0.105	161153	keystroke_a	a	n/a
80.6375	0.059	161275	keystroke_c	c	n/a
80.7565	0.075	161513	keystroke_c	c	n/a
80.9815	0.076	161963	keystroke_e	e	n/a
81.0715	0.076	162143	keystroke_p	p	n/a
81.2215	0.09	162443	keystroke_t	t	n/a
81.2965	0.136	162593	keystroke_i	i	n/a
81.3715	0.105	162743	keystroke_n	n	n/a
81.4915	0.075	162983	keystroke_g	g	n/a
81.6415	0.09	163283	keystroke_Key.space	Key.space	n/a
81.9865	0.12	163973	keystroke_w	w	n/a
82.0615	0.075	164123	keystroke_e	e	n/a
82.2565	0.105	164513	keystroke_s	s	n/a
82.5865	0.075	165173	keystroke_t	t	n/a
83.202	0.105	166404	keystroke_m	m	n/a
83.307	0.1495	166614	keystroke_i	i	n/a
83.3965	0.165	166793	keystroke_n	n	n/a
83.6965	0.075	167393	keystroke_t	t	n/a
84.087	0.075	168174	keystroke_Key.backspace	Key.backspace	n/a
84.177	0.075	168354	keystroke_s	s	n/a
84.342	0.06	168684	keystroke_t	t	n/a
84.4625	0.104	168925	keystroke_e	e	n/a
84.5215	0.06	169043	keystroke_r	r	n/a
84.7165	0.09	169433	keystroke_Key.space	Key.space	n/a
84.9865	0.075	169973	keystroke_v	v	n/a
85.0165	0.12	170033	keystroke_a	a	n/a
85.1065	0.1655	170213	keystroke_l	l	n/a
85.2565	0.1205	170513	keystroke_u	u	n/a
85.3925	0.075	170785	keystroke_e	e	n/a
85.4975	0.105	170995	keystroke_Key.enter	Key.enter	n/a
85.606	8.4575	171212	prompt	n/a	paypal iraqi priority promoting\n
86.3515	0.091	172703	keystroke_p	p	n/a
86.4425	0.104	172885	keystroke_a	a	n/a
86.7265	0.06	173453	keystroke_u	u	n/a
87.192	0.06	174384	keystroke_Key.backspace	Key.backspace	n/a
87.4465	0.075	174893	keystroke_y	y	n/a
87.6725	0.0895	175345	keystroke_l	l	n/a
88.0315	0.075	176063	keystroke_Key.backspace	Key.backspace	n/a
88.2715	0.09	176543	keystroke_p	p	n/a
88.3765	0.09	176753	keystroke_a	a	n/a
88.4815	0.105	176963	keystroke_l	l	n/a
88.797	0.075	177594	keystroke_Key.space	Key.space	n/a
89.187	0.09	178374	keystroke_i	i	n/a
89.367	0.0755	178734	keystroke_r	r	n/a
89.5175	0.105	179035	keystroke_a	a	n/a
89.9825	0.075	179965	keystroke_q	q	n/a
90.1175	0.12	180235	keystroke_i	i	n/a
90.4925	0.105	180985	keystroke_Key.space	Key.space	n/a
90.7175	0.075	181435	keystroke_p	p	n/a
90.8375	0.06	181675	keystroke_r	r	n/a
90.8985	0.104	181797	keystroke_i	i	n/a
91.1975	0.1045	182395	keystroke_o	o	n/a
91.527	0.075	183054	keystroke_r	r	n/a
91.722	0.09	183444	keystroke_i	i	n/a
91.857	0.09	183714	keystroke_t	t	n/a
91.962	0.105	183924	keystroke_y	y	n/a
92.082	0.12	184164	keystroke_Key.space	Key.space	n/a
92.277	0.105	184554	keystroke_p	p	n/a
92.397	0.075	184794	keystroke_r	r	n/a
92.473	0.104	184946	keystroke_o	o	n/a
92.7425	0.09	185485	keystroke_m	m	n/a
92.8625	0.135	185725	keystroke_i	i	n/a
93.2525	0.045	186505	keystroke_Key.backspace	Key.backspace	n/a
93.447	0.09	186894	keystroke_o	o	n/a
93.627	0.06	187254	keystroke_t	t	n/a
93.672	0.135	187344	keystroke_i	i	n/a
93.717	0.105	187434	keystroke_n	n	n/a
93.852	0.09	187704	keystroke_g	g	n/a
93.957	0.105	187914	keystroke_Key.enter	Key.enter	n/a
94.067	6.5065	188134	prompt	n/a	contribute lancaster revisions briefly\n
94.7065	0.105	189413	keystroke_c	c	n/a
94.7965	0.075	189593	keystroke_o	o	n/a
94.8265	0.09	189653	keystroke_n	n	n/a
95.0365	0.075	190073	keystroke_t	t	n/a
95.0665	0.12	190133	keystroke_r	r	n/a
95.1715	0.1055	190343	keystroke_i	i	n/a
95.412	0.105	190824	keystroke_b	b	n/a
95.472	0.15	190944	keystroke_u	u	n/a
95.577	0.105	191154	keystroke_t	t	n/a
95.607	0.135	191214	keystroke_e	e	n/a
95.787	0.09	191574	keystroke_Key.space	Key.space	n/a
96.192	0.09	192384	keystroke_l	l	n/a
96.297	0.105	192594	keystroke_a	a	n/a
96.387	0.105	192774	keystroke_n	n	n/a
96.642	0.0745	193284	keystroke_c	c	n/a
96.7315	0.1055	193463	keystroke_a	a	n/a
96.8215	0.0905	193643	keystroke_s	s	n/a
97.017	0.09	194034	keystroke_t	t	n/a
97.152	0.105	194304	keystroke_e	e	n/a
97.212	0.09	194424	keystroke_r	r	n/a
97.332	0.09	194664	keystroke_Key.space	Key.space	n/a
97.542	0.075	195084	keystroke_r	r	n/a
97.587	0.075	195174	keystroke_e	e	n/a
97.797	0.045	195594	keystroke_v	v	n/a
97.872	0.075	195744	keystroke_i	i	n/a
97.992	0.0905	195984	keystroke_s	s	n/a
98.0825	0.15	196165	keystroke_i	i	n/a
98.1725	0.09	196345	keystroke_o	o	n/a
98.2175	0.165	196435	keystroke_n	n	n/a
98.3525	0.105	196705	keystroke_s	s	n/a
98.5925	0.09	197185	keystroke_Key.space	Key.space	n/a
99.0875	0.075	198175	keystroke_b	b	n/a
99.2075	0.075	198415	keystroke_r	r	n/a
99.2835	0.134	198567	keystroke_i	i	n/a
99.822	0.06	199644	keystroke_e	e	n/a
100.0475	0.09	200095	keystroke_f	f	n/a
100.2425	0.1345	200485	keystroke_l	l	n/a
100.362	0.09	200724	keystroke_y	y	n/a
100.4825	0.0895	200965	keystroke_Key.enter	Key.enter	n/a
100.5775	5.2015	201155	prompt	n/a	lyric williams captured called\n
101.232	0.09	202464	keystroke_l	l	n/a
101.383	0.1045	202766	keystroke_y	y	n/a
101.5175	0.075	203035	keystroke_r	r	n/a
101.6525	0.12	203305	keystroke_i	i	n/a
101.7875	0.09	203575	keystroke_c	c	n/a
101.9525	0.075	203905	keystroke_Key.space	Key.space	n/a
102.2525	0.105	204505	keystroke_w	w	n/a
102.3425	0.075	204685	keystroke_i	i	n/a
102.3725	0.0895	204745	keystroke_l	l	n/a
102.537	0.075	205074	keystroke_l	l	n/a
102.672	0.045	205344	keystroke_a	a	n/a
102.687	0.09	205374	keystroke_i	i	n/a
103.107	0.045	206214	keystroke_Key.backspace	Key.backspace	n/a
103.227	0.045	206454	keystroke_Key.backspace	Key.backspace	n/a
103.392	0.075	206784	keystroke_i	i	n/a
103.497	0.0755	206994	keystroke_a	a	n/a
103.5875	0.105	207175	keystroke_m	m	n/a
103.7075	0.09	207415	keystroke_s	s	n/a
103.8275	0.09	207655	keystroke_Key.space	Key.space	n/a
103.9475	0.135	207895	keystroke_c	c	n/a
104.0525	0.12	208105	keystroke_a	a	n/a
104.1275	0.12	208255	keystroke_p	p	n/a
104.4125	0.075	208825	keystroke_t	t	n/a
104.5025	0.09	209005	keystroke_u	u	n/a
104.5775	0.12	209155	keystroke_r	r	n/a
104.6375	0.09	209275	keystroke_e	e	n/a
104.8025	0.09	209605	keystroke_d	d	n/a
104.9375	0.105	209875	keystroke_Key.space	Key.space	n/a
105.1175	0.12	210235	keystroke_c	c	n/a
105.1925	0.105	210385	keystroke_a	a	n/a
105.2525	0.06	210505	keystroke_l	l	n/a
105.3875	0.0895	210775	keystroke_l	l	n/a
105.462	0.045	210924	keystroke_e	e	n/a
105.597	0.09	211194	keystroke_d	d	n/a
105.702	0.075	211404	keystroke_Key.enter	Key.enter	n/a
105.781	6.7175	211562	prompt	n/a	significant upon restructuring marks\n
106.6175	0.09	213235	keystroke_s	s	n/a
106.6775	0.09	213355	keystroke_i	i	n/a
106.8275	0.09	213655	keystroke_g	g	n/a
106.9625	0.12	213925	keystroke_n	n	n/a
107.0675	0.15	214135	keystroke_i	i	n/a
107.3375	0.075	214675	keystroke_f	f	n/a
107.4275	0.105	214855	keystroke_i	i	n/a
107.5475	0.1495	215095	keystroke_c	c	n/a
107.652	0.105	215304	keystroke_a	a	n/a
107.787	0.12	215574	keystroke_n	n	n/a
107.937	0.105	215874	keystroke_t	t	n/a
108.072	0.09	216144	keystroke_Key.space	Key.space	n/a
108.297	0.135	216594	keystroke_u	u	n/a
108.372	0.12	216744	keystroke_p	p	n/a
108.597	0.105	217194	keystroke_o	o	n/a
108.642	0.15	217284	keystroke_n	n	n/a
108.852	0.105	217704	keystroke_Key.space	Key.space	n/a
109.1525	0.075	218305	keystroke_r	r	n/a
109.1975	0.09	218395	keystroke_e	e	n/a
109.3925	0.1045	218785	keystroke_s	s	n/a
109.662	0.045	219324	keystroke_t	t	n/a
109.812	0.075	219624	keystroke_r	r	n/a
109.872	0.09	219744	keystroke_u	u	n/a
110.037	0.09	220074	keystroke_c	c	n/a
110.7275	0.06	221455	keystroke_t	t	n/a
110.8025	0.075	221605	keystroke_u	u	n/a
110.8925	0.06	221785	keystroke_r	r	n/a
111.3875	0.1195	222775	keystroke_i	i	n/a
111.432	0.135	222864	keystroke_n	n	n/a
111.552	0.09	223104	keystroke_g	g	n/a
111.732	0.075	223464	keystroke_Key.space	Key.space	n/a
111.972	0.09	223944	keystroke_m	m	n/a
112.047	0.105	224094	keystroke_a	a	n/a
112.092	0.075	224184	keystroke_r	r	n/a
112.1975	0.105	224395	keystroke_k	k	n/a
112.2875	0.09	224575	keystroke_s	s	n/a
112.4075	0.09	224815	keystroke_Key.enter	Key.enter	n/a
112.5035	5.125	225007	prompt	n/a	sparc theater unto juan\n
113.127	0.075	226254	keystroke_s	s	n/a
113.187	0.105	226374	keystroke_p	p	n/a
113.307	0.1055	226614	keystroke_a	a	n/a
113.4875	0.1195	226975	keystroke_c	c	n/a
113.877	0.06	227754	keystroke_Key.backspace	Key.backspace	n/a
113.952	0.06	227904	keystroke_r	r	n/a
114.177	0.06	228354	keystroke_c	c	n/a
114.267	0.09	228534	keystroke_Key.space	Key.space	n/a
114.612	0.075	229224	keystroke_t	t	n/a
114.732	0.09	229464	keystroke_h	h	n/a
114.837	0.075	229674	keystroke_e	e	n/a
115.152	0.09	230304	keystroke_a	a	n/a
115.377	0.075	230754	keystroke_t	t	n/a
115.722	0.09	231444	keystroke_e	e	n/a
115.767	0.105	231534	keystroke_r	r	n/a
116.067	0.105	232134	keystroke_Key.space	Key.space	n/a
116.442	0.12	232884	keystroke_u	u	n/a
116.502	0.075	233004	keystroke_n	n	n/a
116.622	0.09	233244	keystroke_t	t	n/a
116.697	0.1205	233394	keystroke_o	o	n/a
116.8015	0.09	233603	keystroke_Key.space	Key.space	n/a
117.0415	0.06	234083	keystroke_j	j	n/a
117.1765	0.09	234353	keystroke_u	u	n/a
117.2825	0.09	234565	keystroke_a	a	n/a
117.3865	0.076	234773	keystroke_n	n	n/a
117.5525	0.075	235105	keystroke_Key.enter	Key.enter	n/a
117.6375	4.491	235275	prompt	n/a	varying cents dressing wings\n
118.3775	0.075	236755	keystroke_v	v	n/a
118.4975	0.105	236995	keystroke_a	a	n/a
118.5875	0.104	237175	keystroke_r	r	n/a
118.7065	0.076	237413	keystroke_y	y	n/a
118.8575	0.15	237715	keystroke_i	i	n/a
118.9475	0.134	237895	keystroke_n	n	n/a
119.0525	0.075	238105	keystroke_g	g	n/a
119.1565	0.105	238313	keystroke_Key.space	Key.space	n/a
119.3065	0.136	238613	keystroke_c	c	n/a
119.3825	0.089	238765	keystroke_e	e	n/a
119.4425	0.135	238885	keystroke_n	n	n/a
119.6525	0.105	239305	keystroke_t	t	n/a
119.7125	0.134	239425	keystroke_s	s	n/a
119.8615	0.0905	239723	keystroke_Key.space	Key.space	n/a
120.087	0.09	240174	keystroke_d	d	n/a
120.222	0.1205	240444	keystroke_r	r	n/a
120.297	0.105	240594	keystroke_e	e	n/a
120.357	0.105	240714	keystroke_s	s	n/a
120.9575	0.0745	241915	keystroke_s	s	n/a
121.122	0.1205	242244	keystroke_i	i	n/a
121.1825	0.135	242365	keystroke_n	n	n/a
121.2725	0.105	242545	keystroke_g	g	n/a
121.4225	0.09	242845	keystroke_Key.space	Key.space	n/a
121.6775	0.09	243355	keystroke_w	w	n/a
121.7375	0.09	243475	keystroke_i	i	n/a
121.7525	0.135	243505	keystroke_n	n	n/a
121.8725	0.12	243745	keystroke_g	g	n/a
121.9325	0.12	243865	keystroke_s	s	n/a
122.0375	0.09	244075	keystroke_Key.enter	Key.enter	n/a
122.1325	10.3315	244265	prompt	n/a	gary maui quantitative olympus\n
123.102	0.06	246204	keystroke_g	g	n/a
123.222	0.105	246444	keystroke_a	a	n/a
123.283	0.1045	246566	keystroke_r	r	n/a
123.4175	0.09	246835	keystroke_y	y	n/a
123.5525	0.105	247105	keystroke_Key.space	Key.space	n/a
123.8975	0.09	247795	keystroke_m	m	n/a
124.0625	0.09	248125	keystroke_a	a	n/a
124.1975	0.09	248395	keystroke_u	u	n/a
124.4975	0.105	248995	keystroke_i	i	n/a
124.7375	0.09	249475	keystroke_Key.space	Key.space	n/a
125.2175	0.06	250435	keystroke_g	g	n/a
125.9375	0.075	251875	keystroke_Key.backspace	Key.backspace	n/a
126.1025	0.09	252205	keystroke_q	q	n/a
126.2075	0.075	252415	keystroke_u	u	n/a
126.3125	0.12	252625	keystroke_a	a	n/a
126.4025	0.09	252805	keystroke_n	n	n/a
126.6275	0.075	253255	keystroke_t	t	n/a
126.7925	0.09	253585	keystroke_a	a	n/a
127.0475	0.075	254095	keystroke_t	t	n/a
127.1975	0.09	254395	keystroke_i	i	n/a
127.7075	0.09	255415	keystroke_Key.backspace	Key.backspace	n/a
128.5775	0.06	257155	keystroke_Key.backspace	Key.backspace	n/a
128.7275	0.09	257455	keystroke_Key.backspace	Key.backspace	n/a
129.312	0.09	258624	keystroke_i	i	n/a
129.5675	0.075	259135	keystroke_t	t	n/a
129.7925	0.09	259585	keystroke_a	a	n/a
130.047	0.075	260094	keystroke_t	t	n/a
130.182	0.105	260364	keystroke_i	i	n/a
130.302	0.135	260604	keystroke_v	v	n/a
130.392	0.12	260784	keystroke_e	e	n/a
130.482	0.105	260964	keystroke_Key.space	Key.space	n/a
130.722	0.09	261444	keystroke_o	o	n/a
131.277	0.09	262554	keystroke_l	l	n/a
131.5325	0.075	263065	keystroke_y	y	n/a
131.8625	0.075	263725	keystroke_m	m	n/a
132.0575	0.105	264115	keystroke_p	p	n/a
132.1025	0.105	264205	keystroke_u	u	n/a
132.2525	0.09	264505	keystroke_s	s	n/a
132.3575	0.105	264715	keystroke_Key.enter	Key.enter	n/a
132.4665	8.0225	264933	prompt	n/a	elections mistress cultural stewart\n
133.1825	0.075	266365	keystroke_e	e	n/a
133.2725	0.105	266545	keystroke_l	l	n/a
133.3925	0.075	266785	keystroke_e	e	n/a
133.5575	0.09	267115	keystroke_c	c	n/a
133.7975	0.105	267595	keystroke_t	t	n/a
133.8725	0.135	267745	keystroke_i	i	n/a
133.9925	0.12	267985	keystroke_o	o	n/a
134.0525	0.165	268105	keystroke_n	n	n/a
134.2175	0.105	268435	keystroke_s	s	n/a
134.3525	0.075	268705	keystroke_Key.space	Key.space	n/a
134.6825	0.075	269365	keystroke_p	p	n/a
135.117	0.06	270234	keystroke_Key.backspace	Key.backspace	n/a
135.297	0.075	270594	keystroke_m	m	n/a
135.342	0.135	270684	keystroke_i	i	n/a
135.417	0.09	270834	keystroke_s	s	n/a
136.002	0.075	272004	keystroke_t	t	n/a
136.182	0.105	272364	keystroke_r	r	n/a
136.242	0.105	272484	keystroke_e	e	n/a
136.317	0.06	272634	keystroke_s	s	n/a
136.452	0.12	272904	keystroke_s	s	n/a
136.602	0.09	273204	keystroke_Key.space	Key.space	n/a
136.8425	0.135	273685	keystroke_c	c	n/a
136.9175	0.12	273835	keystroke_u	u	n/a
136.9925	0.135	273985	keystroke_l	l	n/a
137.6075	0.06	275215	keystroke_t	t	n/a
137.6525	0.03	275305	keystroke_u	u	n/a
137.6975	0.015	275395	keystroke_r	r	n/a
137.8475	0.09	275695	keystroke_a	a	n/a
137.9525	0.09	275905	keystroke_l	l	n/a
138.0875	0.09	276175	keystroke_Key.space	Key.space	n/a
138.4025	0.105	276805	keystroke_s	s	n/a
138.6425	0.06	277285	keystroke_t	t	n/a
138.7625	0.105	277525	keystroke_e	e	n/a
138.8075	0.105	277615	keystroke_r	r	n/a
139.3625	0.0745	278725	keystroke_Key.backspace	Key.backspace	n/a
139.467	0.075	278934	keystroke_w	w	n/a
139.782	0.105	279564	keystroke_a	a	n/a
139.842	0.105	279684	keystroke_r	r	n/a
140.052	0.09	280104	keystroke_t	t	n/a
140.3975	0.09	280795	keystroke_Key.enter	Key.enter	n/a
140.4955	9.098	280991	prompt	n/a	everybody eastern analyze merely\n
141.0425	0.075	282085	keystroke_e	e	n/a
141.2375	0.075	282475	keystroke_v	v	n/a
141.4025	0.075	282805	keystroke_e	e	n/a
141.4475	0.09	282895	keystroke_r	r	n/a
141.5525	0.075	283105	keystroke_y	y	n/a
141.852	0.09	283704	keystroke_b	b	n/a
141.943	0.074	283886	keystroke_o	o	n/a
142.077	0.09	284154	keystroke_d	d	n/a
142.182	0.09	284364	keystroke_y	y	n/a
142.287	0.1205	284574	keystroke_Key.space	Key.space	n/a
142.4225	0.075	284845	keystroke_e	e	n/a
142.5125	0.135	285025	keystroke_a	a	n/a
142.6175	0.12	285235	keystroke_s	s	n/a
142.8275	0.09	285655	keystroke_t	t	n/a
142.9325	0.135	285865	keystroke_e	e	n/a
143.0225	0.09	286045	keystroke_r	r	n/a
143.1575	0.09	286315	keystroke_Key.space	Key.space	n/a
143.7725	0.06	287545	keystroke_Key.backspace	Key.backspace	n/a
143.9675	0.1195	287935	keystroke_n	n	n/a
144.0575	0.1045	288115	keystroke_Key.space	Key.space	n/a
144.297	0.09	288594	keystroke_a	a	n/a
144.402	0.1055	288804	keystroke_n	n	n/a
144.5225	0.09	289045	keystroke_a	a	n/a
146.3975	0.075	292795	keystroke_l	l	n/a
146.6075	0.09	293215	keystroke_y	y	n/a
146.847	0.105	293694	keystroke_z	z	n/a
147.2825	0.0445	294565	keystroke_e	e	n/a
147.357	0.091	294714	keystroke_Key.space	Key.space	n/a
147.688	0.03	295376	keystroke_p	p	n/a
148.048	0.06	296096	keystroke_Key.backspace	Key.backspace	n/a
148.453	0.0895	296906	keystroke_m	m	n/a
148.5725	0.09	297145	keystroke_e	e	n/a
148.6175	0.12	297235	keystroke_r	r	n/a
148.7525	0.06	297505	keystroke_e	e	n/a
149.232	0.106	298464	keystroke_l	l	n/a
149.353	0.059	298706	keystroke_y	y	n/a
149.517	0.075	299034	keystroke_Key.enter	Key.enter	n/a
149.597	7.257	299194	prompt	n/a	oecd gibraltar wait canyon\n
150.3275	0.105	300655	keystroke_o	o	n/a
150.5525	0.09	301105	keystroke_e	e	n/a
150.8075	0.09	301615	keystroke_c	c	n/a
151.0325	0.09	302065	keystroke_d	d	n/a
151.1825	0.09	302365	keystroke_Key.space	Key.space	n/a
152.4575	0.075	304915	keystroke_g	g	n/a
152.8175	0.105	305635	keystroke_i	i	n/a
153.1025	0.09	306205	keystroke_b	b	n/a
153.3425	0.105	306685	keystroke_r	r	n/a
153.4475	0.12	306895	keystroke_a	a	n/a
154.0325	0.09	308065	keystroke_l	l	n/a
154.3025	0.075	308605	keystroke_t	t	n/a
154.4825	0.105	308965	keystroke_a	a	n/a
154.5425	0.105	309085	keystroke_r	r	n/a
154.6925	0.09	309385	keystroke_Key.space	Key.space	n/a
155.0675	0.12	310135	keystroke_w	w	n/a
155.1425	0.09	310285	keystroke_a	a	n/a
155.2175	0.105	310435	keystroke_i	i	n/a
155.3375	0.1055	310675	keystroke_t	t	n/a
155.637	0.09	311274	keystroke_Key.space	Key.space	n/a
155.893	0.104	311786	keystroke_c	c	n/a
155.952	0.105	311904	keystroke_a	a	n/a
156.028	0.09	312056	keystroke_n	n	n/a
156.342	0.106	312684	keystroke_y	y	n/a
156.432	0.091	312864	keystroke_o	o	n/a
156.612	0.09	313224	keystroke_n	n	n/a
156.762	0.09	313524	keystroke_Key.enter	Key.enter	n/a
156.8575	4.7515	313715	prompt	n/a	rick isle back candidate\n
157.707	0.075	315414	keystroke_r	r	n/a
157.768	0.075	315536	keystroke_i	i	n/a
157.872	0.0905	315744	keystroke_c	c	n/a
157.9475	0.09	315895	keystroke_k	k	n/a
158.0825	0.075	316165	keystroke_Key.space	Key.space	n/a
158.2175	0.135	316435	keystroke_i	i	n/a
158.3225	0.075	316645	keystroke_l	l	n/a
158.7125	0.09	317425	keystroke_Key.backspace	Key.backspace	n/a
158.8475	0.0745	317695	keystroke_s	s	n/a
158.952	0.12	317904	keystroke_l	l	n/a
159.102	0.075	318204	keystroke_e	e	n/a
159.192	0.045	318384	keystroke_Key.space	Key.space	n/a
159.327	0.09	318654	keystroke_b	b	n/a
159.432	0.0905	318864	keystroke_a	a	n/a
159.4625	0.135	318925	keystroke_c	c	n/a
159.5825	0.105	319165	keystroke_k	k	n/a
159.7025	0.105	319405	keystroke_Key.space	Key.space	n/a
160.1825	0.105	320365	keystroke_c	c	n/a
160.4675	0.075	320935	keystroke_a	a	n/a
160.5435	0.089	321087	keystroke_n	n	n/a
160.6925	0.0905	321385	keystroke_d	d	n/a
160.798	0.075	321596	keystroke_i	i	n/a
161.007	0.105	322014	keystroke_d	d	n/a
161.172	0.12	322344	keystroke_a	a	n/a
161.262	0.151	322524	keystroke_t	t	n/a
161.338	0.12	322676	keystroke_e	e	n/a
161.472	0.135	322944	keystroke_Key.enter	Key.enter	n/a
161.6115	0.148	323223	prompt	n/a	cents token are passport\n
161.652	0.105	323304	keystroke_Key.enter	Key.enter	n/a
161.765	6.339	323530	prompt	n/a	fixed gzip highly he'll\n
163.0475	0.09	326095	keystroke_f	f	n/a
163.1375	0.09	326275	keystroke_i	i	n/a
163.257	0.106	326514	keystroke_x	x	n/a
163.512	0.06	327024	keystroke_e	e	n/a
163.647	0.105	327294	keystroke_d	d	n/a
163.767	0.105	327534	keystroke_Key.space	Key.space	n/a
165.057	0.06	330114	keystroke_g	g	n/a
165.2675	0.09	330535	keystroke_z	z	n/a
165.4025	0.105	330805	keystroke_i	i	n/a
165.4775	0.12	330955	keystroke_p	p	n/a
165.823	0.105	331646	keystroke_Key.space	Key.space	n/a
166.3925	0.1195	332785	keystroke_h	h	n/a
166.467	0.12	332934	keystroke_i	i	n/a
166.572	0.105	333144	keystroke_g	g	n/a
166.662	0.12	333324	keystroke_h	h	n/a
166.917	0.105	333834	keystroke_l	l	n/a
167.007	0.105	334014	keystroke_y	y	n/a
167.127	0.075	334254	keystroke_Key.space	Key.space	n/a
167.337	0.0755	334674	keystroke_h	h	n/a
167.3975	0.09	334795	keystroke_e	e	n/a
167.5025	0.0905	335005	keystroke_'	'	n/a
167.668	0.075	335336	keystroke_l	l	n/a
167.803	0.105	335606	keystroke_l	l	n/a
168.013	0.09	336026	keystroke_Key.enter	Key.enter	n/a
168.107	6.762	336214	prompt	n/a	modems reef malpractice comedy\n
168.883	0.0895	337766	keystroke_m	m	n/a
168.943	0.1195	337886	keystroke_o	o	n/a
169.1075	0.06	338215	keystroke_d	d	n/a
169.2725	0.075	338545	keystroke_e	e	n/a
169.3625	0.135	338725	keystroke_m	m	n/a
169.6775	0.12	339355	keystroke_s	s	n/a
169.8575	0.105	339715	keystroke_Key.space	Key.space	n/a
170.1125	0.105	340225	keystroke_r	r	n/a
170.1425	0.09	340285	keystroke_e	e	n/a
170.397	0.045	340794	keystroke_f	f	n/a
170.847	0.06	341694	keystroke_Key.backspace	Key.backspace	n/a
170.892	0.09	341784	keystroke_e	e	n/a
171.103	0.089	342206	keystroke_f	f	n/a
171.237	0.105	342474	keystroke_Key.space	Key.space	n/a
171.627	0.075	343254	keystroke_m	m	n/a
171.717	0.075	343434	keystroke_a	a	n/a
171.807	0.12	343614	keystroke_l	l	n/a
172.227	0.09	344454	keystroke_p	p	n/a
172.302	0.075	344604	keystroke_r	r	n/a
172.407	0.12	344814	keystroke_a	a	n/a
172.692	0.09	345384	keystroke_c	c	n/a
172.962	0.06	345924	keystroke_t	t	n/a
173.0525	0.12	346105	keystroke_i	i	n/a
173.2025	0.06	346405	keystroke_v	v	n/a
173.562	0.09	347124	keystroke_Key.backspace	Key.backspace	n/a
173.637	0.12	347274	keystroke_c	c	n/a
173.697	0.12	347394	keystroke_e	e	n/a
173.847	0.105	347694	keystroke_Key.space	Key.space	n/a
174.042	0.075	348084	keystroke_c	c	n/a
174.072	0.12	348144	keystroke_o	o	n/a
174.118	0.119	348236	keystroke_m	m	n/a
174.297	0.075	348594	keystroke_e	e	n/a
174.462	0.09	348924	keystroke_d	d	n/a
174.567	0.075	349134	keystroke_y	y	n/a
174.747	0.12	349494	keystroke_Key.enter	Key.enter	n/a
174.874	8.005	349748	prompt	n/a	successfully installations farmers aluminum\n
175.5725	0.075	351145	keystroke_s	s	n/a
175.6475	0.075	351295	keystroke_u	u	n/a
175.7375	0.0895	351475	keystroke_s	s	n/a
176.0975	0.06	352195	keystroke_Key.backspace	Key.backspace	n/a
176.1425	0.075	352285	keystroke_c	c	n/a
176.7125	0.075	353425	keystroke_c	c	n/a
176.8925	0.06	353785	keystroke_e	e	n/a
177.0875	0.0445	354175	keystroke_s	s	n/a
177.208	0.074	354416	keystroke_s	s	n/a
177.3875	0.09	354775	keystroke_f	f	n/a
177.4325	0.105	354865	keystroke_u	u	n/a
177.5075	0.075	355015	keystroke_l	l	n/a
177.6575	0.105	355315	keystroke_l	l	n/a
177.7775	0.075	355555	keystroke_y	y	n/a
177.8825	0.105	355765	keystroke_Key.space	Key.space	n/a
178.1075	0.12	356215	keystroke_i	i	n/a
178.1225	0.165	356245	keystroke_n	n	n/a
178.3025	0.105	356605	keystroke_s	s	n/a
178.3925	0.075	356785	keystroke_t	t	n/a
178.4975	0.12	356995	keystroke_a	a	n/a
178.6025	0.12	357205	keystroke_l	l	n/a
178.8275	0.09	357655	keystroke_l	l	n/a
179.0825	0.09	358165	keystroke_a	a	n/a
179.278	0.074	358556	keystroke_t	t	n/a
179.322	0.165	358644	keystroke_i	i	n/a
179.382	0.09	358764	keystroke_o	o	n/a
179.427	0.18	358854	keystroke_n	n	n/a
179.577	0.12	359154	keystroke_s	s	n/a
179.772	0.09	359544	keystroke_Key.space	Key.space	n/a
179.937	0.075	359874	keystroke_f	f	n/a
180.072	0.09	360144	keystroke_a	a	n/a
180.102	0.12	360204	keystroke_r	r	n/a
180.192	0.09	360384	keystroke_m	m	n/a
180.372	0.075	360744	keystroke_e	e	n/a
180.402	0.09	360804	keystroke_r	r	n/a
180.582	0.09	361164	keystroke_s	s	n/a
180.717	0.09	361434	keystroke_Key.space	Key.space	n/a
180.912	0.105	361824	keystroke_a	a	n/a
180.987	0.105	361974	keystroke_l	l	n/a
181.3025	0.1195	362605	keystroke_u	u	n/a
181.827	0.09	363654	keystroke_m	m	n/a
182.037	0.12	364074	keystroke_i	i	n/a
182.127	0.105	364254	keystroke_n	n	n/a
182.397	0.105	364794	keystroke_u	u	n/a
182.6075	0.105	365215	keystroke_m	m	n/a
182.7575	0.12	365515	keystroke_Key.enter	Key.enter	n/a
182.883	7.946	365766	prompt	n/a	vehicles pleasure cast montgomery\n
183.792	0.075	367584	keystroke_e	e	n/a
184.122	0.0605	368244	keystroke_Key.backspace	Key.backspace	n/a
184.197	0.105	368394	keystroke_v	v	n/a
184.2425	0.1195	368485	keystroke_e	e	n/a
184.542	0.105	369084	keystroke_h	h	n/a
184.617	0.135	369234	keystroke_i	i	n/a
184.782	0.09	369564	keystroke_c	c	n/a
184.902	0.1355	369804	keystroke_l	l	n/a
185.022	0.105	370044	keystroke_e	e	n/a
185.082	0.1355	370164	keystroke_s	s	n/a
185.247	0.12	370494	keystroke_Key.space	Key.space	n/a
185.457	0.09	370914	keystroke_p	p	n/a
185.577	0.135	371154	keystroke_l	l	n/a
185.697	0.105	371394	keystroke_e	e	n/a
185.7725	0.1645	371545	keystroke_a	a	n/a
186.237	0.0905	372474	keystroke_s	s	n/a
186.3425	0.09	372685	keystroke_u	u	n/a
186.4475	0.12	372895	keystroke_r	r	n/a
186.4925	0.105	372985	keystroke_e	e	n/a
186.6275	0.105	373255	keystroke_Key.space	Key.space	n/a
186.897	0.12	373794	keystroke_c	c	n/a
186.957	0.12	373914	keystroke_a	a	n/a
187.0475	0.18	374095	keystroke_s	s	n/a
187.1975	0.105	374395	keystroke_t	t	n/a
187.557	0.09	375114	keystroke_Key.space	Key.space	n/a
188.038	0.06	376076	keystroke_c	c	n/a
188.338	0.075	376676	keystroke_Key.backspace	Key.backspace	n/a
188.563	0.075	377126	keystroke_m	m	n/a
188.608	0.12	377216	keystroke_o	o	n/a
188.713	0.1045	377426	keystroke_n	n	n/a
189.3875	0.075	378775	keystroke_t	t	n/a
189.6725	0.075	379345	keystroke_g	g	n/a
189.7775	0.09	379555	keystroke_o	o	n/a
190.0475	0.09	380095	keystroke_m	m	n/a
190.2125	0.09	380425	keystroke_e	e	n/a
190.2575	0.12	380515	keystroke_r	r	n/a
190.4975	0.105	380995	keystroke_y	y	n/a
190.7375	0.09	381475	keystroke_Key.enter	Key.enter	n/a
190.833	4.136	381666	prompt	n/a	acids painful annex dublin\n
191.6075	0.09	383215	keystroke_a	a	n/a
191.6525	0.075	383305	keystroke_c	c	n/a
191.8475	0.105	383695	keystroke_i	i	n/a
191.9535	0.134	383907	keystroke_d	d	n/a
192.0125	0.135	384025	keystroke_s	s	n/a
192.1625	0.075	384325	keystroke_Key.space	Key.space	n/a
192.2825	0.09	384565	keystroke_p	p	n/a
192.3875	0.105	384775	keystroke_a	a	n/a
192.4935	0.089	384987	keystroke_i	i	n/a
192.5225	0.105	385045	keystroke_n	n	n/a
192.8225	0.105	385645	keystroke_f	f	n/a
192.9125	0.1205	385825	keystroke_u	u	n/a
192.9725	0.135	385945	keystroke_l	l	n/a
193.1225	0.09	386245	keystroke_Key.space	Key.space	n/a
193.2725	0.09	386545	keystroke_a	a	n/a
193.3475	0.045	386695	keystroke_n	n	n/a
193.4825	0.09	386965	keystroke_n	n	n/a
193.5575	0.06	387115	keystroke_e	e	n/a
193.7375	0.12	387475	keystroke_x	x	n/a
193.8875	0.06	387775	keystroke_Key.space	Key.space	n/a
194.0975	0.0755	388195	keystroke_d	d	n/a
194.158	0.075	388316	keystroke_u	u	n/a
194.278	0.12	388556	keystroke_b	b	n/a
194.533	0.135	389066	keystroke_l	l	n/a
194.593	0.15	389186	keystroke_i	i	n/a
194.683	0.09	389366	keystroke_n	n	n/a
194.818	0.1495	389636	keystroke_Key.enter	Key.enter	n/a
194.9755	4.2535	389951	prompt	n/a	pete algebra pets shore\n
195.5675	0.105	391135	keystroke_p	p	n/a
195.6575	0.09	391315	keystroke_e	e	n/a
195.8525	0.12	391705	keystroke_t	t	n/a
195.9275	0.12	391855	keystroke_e	e	n/a
196.0925	0.075	392185	keystroke_Key.space	Key.space	n/a
196.3025	0.09	392605	keystroke_a	a	n/a
196.3475	0.09	392695	keystroke_l	l	n/a
196.7975	0.09	393595	keystroke_g	g	n/a
196.8725	0.09	393745	keystroke_e	e	n/a
197.1725	0.105	394345	keystroke_b	b	n/a
197.2925	0.12	394585	keystroke_r	r	n/a
197.3675	0.105	394735	keystroke_a	a	n/a
197.5175	0.09	395035	keystroke_Key.space	Key.space	n/a
197.7275	0.09	395455	keystroke_p	p	n/a
197.8325	0.09	395665	keystroke_e	e	n/a
197.9375	0.06	395875	keystroke_t	t	n/a
198.1475	0.135	396295	keystroke_s	s	n/a
198.4775	0.075	396955	keystroke_Key.space	Key.space	n/a
198.6725	0.075	397345	keystroke_s	s	n/a
198.7625	0.09	397525	keystroke_h	h	n/a
198.8375	0.09	397675	keystroke_o	o	n/a
198.8975	0.1345	397795	keystroke_r	r	n/a
198.972	0.12	397944	keystroke_e	e	n/a
199.137	0.0905	398274	keystroke_Key.enter	Key.enter	n/a
199.2365	7.5675	398473	prompt	n/a	continued complaints daniel governor\n
199.8575	0.12	399715	keystroke_c	c	n/a
199.9325	0.09	399865	keystroke_o	o	n/a
199.9625	0.09	399925	keystroke_n	n	n/a
200.1875	0.075	400375	keystroke_t	t	n/a
200.2775	0.0745	400555	keystroke_i	i	n/a
200.307	0.09	400614	keystroke_n	n	n/a
200.562	0.1055	401124	keystroke_u	u	n/a
200.637	0.075	401274	keystroke_e	e	n/a
200.802	0.09	401604	keystroke_d	d	n/a
200.922	0.09	401844	keystroke_Key.space	Key.space	n/a
201.102	0.105	402204	keystroke_c	c	n/a
201.177	0.105	402354	keystroke_o	o	n/a
201.222	0.09	402444	keystroke_m	m	n/a
201.357	0.0905	402714	keystroke_p	p	n/a
201.4025	0.105	402805	keystroke_l	l	n/a
201.5225	0.105	403045	keystroke_a	a	n/a
201.6425	0.09	403285	keystroke_i	i	n/a
201.6725	0.1655	403345	keystroke_n	n	n/a
201.823	0.15	403646	keystroke_t	t	n/a
201.912	0.151	403824	keystroke_s	s	n/a
202.152	0.061	404304	keystroke_Key.space	Key.space	n/a
202.423	0.045	404846	keystroke_d	d	n/a
202.5875	0.045	405175	keystroke_e	e	n/a
202.6175	0.105	405235	keystroke_n	n	n/a
203.068	0.06	406136	keystroke_Key.backspace	Key.backspace	n/a
203.188	0.045	406376	keystroke_Key.backspace	Key.backspace	n/a
203.278	0.1045	406556	keystroke_a	a	n/a
203.353	0.089	406706	keystroke_n	n	n/a
203.577	0.06	407154	keystroke_i	i	n/a
203.592	0.03	407184	keystroke_e	e	n/a
203.922	0.06	407844	keystroke_Key.backspace	Key.backspace	n/a
204.057	0.045	408114	keystroke_Key.backspace	Key.backspace	n/a
204.5225	0.09	409045	keystroke_i	i	n/a
204.6575	0.06	409315	keystroke_e	e	n/a
204.7925	0.105	409585	keystroke_l	l	n/a
205.1975	0.09	410395	keystroke_Key.space	Key.space	n/a
205.392	0.09	410784	keystroke_g	g	n/a
205.483	0.074	410966	keystroke_o	o	n/a
205.587	0.06	411174	keystroke_v	v	n/a
205.722	0.0905	411444	keystroke_e	e	n/a
205.7675	0.105	411535	keystroke_r	r	n/a
206.3525	0.105	412705	keystroke_n	n	n/a
206.4575	0.12	412915	keystroke_o	o	n/a
206.5625	0.075	413125	keystroke_r	r	n/a
206.6975	0.105	413395	keystroke_Key.enter	Key.enter	n/a
206.808	6.131	413616	prompt	n/a	medium sides barn appropriations\n
207.493	0.09	414986	keystroke_m	m	n/a
207.568	0.0595	415136	keystroke_e	e	n/a
207.7775	0.075	415555	keystroke_d	d	n/a
207.8225	0.105	415645	keystroke_i	i	n/a
208.1075	0.09	416215	keystroke_u	u	n/a
208.3325	0.12	416665	keystroke_m	m	n/a
208.4675	0.1055	416935	keystroke_Key.space	Key.space	n/a
208.723	0.105	417446	keystroke_s	s	n/a
208.813	0.09	417626	keystroke_i	i	n/a
208.933	0.075	417866	keystroke_d	d	n/a
209.083	0.12	418166	keystroke_e	e	n/a
209.173	0.1195	418346	keystroke_s	s	n/a
209.2925	0.075	418585	keystroke_Key.space	Key.space	n/a
209.4725	0.09	418945	keystroke_b	b	n/a
209.5325	0.105	419065	keystroke_a	a	n/a
209.5775	0.12	419155	keystroke_r	r	n/a
209.6825	0.135	419365	keystroke_n	n	n/a
209.8025	0.15	419605	keystroke_Key.space	Key.space	n/a
210.3125	0.075	420625	keystroke_a	a	n/a
210.3275	0.045	420655	keystroke_p	p	n/a
210.4475	0.12	420895	keystroke_p	p	n/a
211.0025	0.075	422005	keystroke_r	r	n/a
211.0785	0.104	422157	keystroke_o	o	n/a
211.632	0.09	423264	keystroke_p	p	n/a
211.737	0.091	423474	keystroke_r	r	n/a
211.902	0.091	423804	keystroke_i	i	n/a
212.247	0.075	424494	keystroke_a	a	n/a
212.443	0.089	424886	keystroke_t	t	n/a
212.487	0.1505	424974	keystroke_i	i	n/a
212.5625	0.09	425125	keystroke_o	o	n/a
212.6075	0.135	425215	keystroke_n	n	n/a
212.7125	0.105	425425	keystroke_s	s	n/a
212.8325	0.105	425665	keystroke_Key.enter	Key.enter	n/a
212.942	7.287	425884	prompt	n/a	punch ever cholesterol catalogue\n
213.748	0.12	427496	keystroke_p	p	n/a
213.8525	0.105	427705	keystroke_u	u	n/a
214.197	0.09	428394	keystroke_c	c	n/a
214.302	0.106	428604	keystroke_h	h	n/a
214.707	0.06	429414	keystroke_Key.backspace	Key.backspace	n/a
214.842	0.045	429684	keystroke_Key.backspace	Key.backspace	n/a
215.037	0.076	430074	keystroke_n	n	n/a
215.158	0.09	430316	keystroke_c	c	n/a
215.233	0.089	430466	keystroke_h	h	n/a
215.367	0.1055	430734	keystroke_Key.space	Key.space	n/a
215.5325	0.06	431065	keystroke_e	e	n/a
215.6975	0.075	431395	keystroke_v	v	n/a
215.8625	0.105	431725	keystroke_e	e	n/a
215.9225	0.105	431845	keystroke_r	r	n/a
216.0725	0.09	432145	keystroke_Key.space	Key.space	n/a
216.2075	0.105	432415	keystroke_c	c	n/a
216.2675	0.09	432535	keystroke_h	h	n/a
216.3275	0.1045	432655	keystroke_o	o	n/a
216.492	0.12	432984	keystroke_l	l	n/a
216.688	0.06	433376	keystroke_e	e	n/a
216.853	0.09	433706	keystroke_s	s	n/a
217.093	0.075	434186	keystroke_t	t	n/a
217.408	0.075	434816	keystroke_e	e	n/a
217.438	0.09	434876	keystroke_r	r	n/a
217.6625	0.1055	435325	keystroke_o	o	n/a
217.813	0.1045	435626	keystroke_l	l	n/a
217.978	0.1045	435956	keystroke_Key.space	Key.space	n/a
218.1875	0.105	436375	keystroke_c	c	n/a
218.2775	0.105	436555	keystroke_a	a	n/a
218.6075	0.075	437215	keystroke_t	t	n/a
218.7875	0.105	437575	keystroke_a	a	n/a
219.0425	0.06	438085	keystroke_l	l	n/a
219.162	0.106	438324	keystroke_o	o	n/a
219.463	0.075	438926	keystroke_g	g	n/a
219.553	0.105	439106	keystroke_u	u	n/a
219.687	0.075	439374	keystroke_e	e	n/a
220.153	0.075	440306	keystroke_Key.enter	Key.enter	n/a
220.2335	5.2305	440467	prompt	n/a	church maternity series learn\n
220.9025	0.09	441805	keystroke_c	c	n/a
220.9775	0.105	441955	keystroke_h	h	n/a
221.0375	0.135	442075	keystroke_u	u	n/a
221.1425	0.09	442285	keystroke_r	r	n/a
221.4125	0.1195	442825	keystroke_c	c	n/a
221.5025	0.1345	443005	keystroke_h	h	n/a
221.622	0.12	443244	keystroke_Key.space	Key.space	n/a
221.8925	0.105	443785	keystroke_m	m	n/a
221.9525	0.105	443905	keystroke_a	a	n/a
222.178	0.06	444356	keystroke_t	t	n/a
222.298	0.075	444596	keystroke_e	e	n/a
222.343	0.09	444686	keystroke_r	r	n/a
222.598	0.09	445196	keystroke_n	n	n/a
222.673	0.105	445346	keystroke_i	i	n/a
222.838	0.09	445676	keystroke_t	t	n/a
222.988	0.089	445976	keystroke_y	y	n/a
223.107	0.12	446214	keystroke_Key.space	Key.space	n/a
223.498	0.12	446996	keystroke_s	s	n/a
223.602	0.09	447204	keystroke_e	e	n/a
223.632	0.121	447264	keystroke_r	r	n/a
223.948	0.105	447896	keystroke_i	i	n/a
224.067	0.12	448134	keystroke_e	e	n/a
224.142	0.105	448284	keystroke_s	s	n/a
224.292	0.09	448584	keystroke_Key.space	Key.space	n/a
224.533	0.104	449066	keystroke_l	l	n/a
224.712	0.135	449424	keystroke_e	e	n/a
224.788	0.119	449576	keystroke_a	a	n/a
224.862	0.121	449724	keystroke_r	r	n/a
224.937	0.106	449874	keystroke_n	n	n/a
225.357	0.106	450714	keystroke_Key.enter	Key.enter	n/a
225.467	5.4725	450934	prompt	n/a	terms cork retailers fixes\n
226.378	0.045	452756	keystroke_t	t	n/a
226.498	0.075	452996	keystroke_e	e	n/a
226.528	0.075	453056	keystroke_r	r	n/a
226.663	0.105	453326	keystroke_m	m	n/a
226.783	0.105	453566	keystroke_s	s	n/a
226.918	0.09	453836	keystroke_Key.space	Key.space	n/a
227.068	0.075	454136	keystroke_f	f	n/a
227.383	0.075	454766	keystroke_Key.backspace	Key.backspace	n/a
227.473	0.075	454946	keystroke_c	c	n/a
227.593	0.09	455186	keystroke_o	o	n/a
227.698	0.075	455396	keystroke_r	r	n/a
227.803	0.165	455606	keystroke_m	m	n/a
228.238	0.075	456476	keystroke_Key.backspace	Key.backspace	n/a
228.463	0.135	456926	keystroke_k	k	n/a
228.613	0.12	457226	keystroke_Key.space	Key.space	n/a
228.958	0.09	457916	keystroke_r	r	n/a
229.018	0.09	458036	keystroke_e	e	n/a
229.2275	0.075	458455	keystroke_t	t	n/a
229.3035	0.119	458607	keystroke_a	a	n/a
229.4075	0.105	458815	keystroke_i	i	n/a
229.4675	0.135	458935	keystroke_l	l	n/a
229.6625	0.09	459325	keystroke_e	e	n/a
229.7075	0.075	459415	keystroke_r	r	n/a
229.8725	0.105	459745	keystroke_s	s	n/a
230.0075	0.09	460015	keystroke_Key.space	Key.space	n/a
230.2475	0.0605	460495	keystroke_f	f	n/a
230.338	0.105	460676	keystroke_i	i	n/a
230.458	0.105	460916	keystroke_x	x	n/a
230.668	0.12	461336	keystroke_e	e	n/a
230.743	0.12	461486	keystroke_s	s	n/a
230.848	0.09	461696	keystroke_Key.enter	Key.enter	n/a
230.942	6.522	461884	prompt	n/a	spears apart thriller prague\n
231.718	0.105	463436	keystroke_s	s	n/a
231.823	0.075	463646	keystroke_p	p	n/a
231.943	0.075	463886	keystroke_e	e	n/a
231.988	0.105	463976	keystroke_a	a	n/a
232.198	0.12	464396	keystroke_r	r	n/a
232.288	0.12	464576	keystroke_s	s	n/a
232.483	0.12	464966	keystroke_Key.space	Key.space	n/a
232.903	0.09	465806	keystroke_a	a	n/a
233.008	0.105	466016	keystroke_p	p	n/a
233.143	0.09	466286	keystroke_r	r	n/a
233.338	0.075	466676	keystroke_t	t	n/a
233.773	0.06	467546	keystroke_Key.backspace	Key.backspace	n/a
233.923	0.06	467846	keystroke_Key.backspace	Key.backspace	n/a
233.938	0.105	467876	keystroke_a	a	n/a
234.013	0.09	468026	keystroke_r	r	n/a
234.208	0.075	468416	keystroke_t	t	n/a
234.358	0.0745	468716	keystroke_Key.space	Key.space	n/a
234.8975	0.09	469795	keystroke_t	t	n/a
234.9725	0.165	469945	keystroke_h	h	n/a
235.0625	0.09	470125	keystroke_i	i	n/a
235.1225	0.06	470245	keystroke_r	r	n/a
235.4075	0.06	470815	keystroke_Key.backspace	Key.backspace	n/a
235.5425	0.075	471085	keystroke_Key.backspace	Key.backspace	n/a
235.6325	0.105	471265	keystroke_r	r	n/a
235.768	0.105	471536	keystroke_i	i	n/a
235.828	0.09	471656	keystroke_l	l	n/a
235.993	0.105	471986	keystroke_l	l	n/a
236.128	0.09	472256	keystroke_e	e	n/a
236.173	0.12	472346	keystroke_r	r	n/a
236.308	0.105	472616	keystroke_Key.space	Key.space	n/a
236.533	0.105	473066	keystroke_p	p	n/a
236.623	0.105	473246	keystroke_r	r	n/a
236.713	0.105	473426	keystroke_a	a	n/a
236.998	0.075	473996	keystroke_g	g	n/a
237.1175	0.075	474235	keystroke_u	u	n/a
237.2075	0.075	474415	keystroke_e	e	n/a
237.3875	0.075	474775	keystroke_Key.enter	Key.enter	n/a
237.469	8.3355	474938	prompt	n/a	actively guyana worldcat trail\n
238.1825	0.105	476365	keystroke_a	a	n/a
238.2275	0.105	476455	keystroke_c	c	n/a
238.5425	0.06	477085	keystroke_t	t	n/a
238.6025	0.105	477205	keystroke_i	i	n/a
238.7375	0.09	477475	keystroke_v	v	n/a
238.7825	0.135	477565	keystroke_e	e	n/a
238.9025	0.12	477805	keystroke_l	l	n/a
239.0975	0.12	478195	keystroke_y	y	n/a
239.3975	0.105	478795	keystroke_Key.space	Key.space	n/a
239.9975	0.075	479995	keystroke_g	g	n/a
240.2075	0.06	480415	keystroke_u	u	n/a
240.9275	0.075	481855	keystroke_y	y	n/a
241.0325	0.09	482065	keystroke_a	a	n/a
241.1375	0.091	482275	keystroke_n	n	n/a
241.2285	0.104	482457	keystroke_a	a	n/a
241.633	0.075	483266	keystroke_Key.space	Key.space	n/a
242.083	0.075	484166	keystroke_c	c	n/a
242.143	0.105	484286	keystroke_o	o	n/a
242.263	0.075	484526	keystroke_r	r	n/a
242.863	0.06	485726	keystroke_Key.backspace	Key.backspace	n/a
242.998	0.075	485996	keystroke_Key.backspace	Key.backspace	n/a
243.358	0.0595	486716	keystroke_Key.backspace	Key.backspace	n/a
243.6275	0.075	487255	keystroke_w	w	n/a
243.6735	0.104	487347	keystroke_o	o	n/a
243.7925	0.076	487585	keystroke_r	r	n/a
243.8685	0.105	487737	keystroke_l	l	n/a
243.9585	0.089	487917	keystroke_d	d	n/a
244.2725	0.105	488545	keystroke_c	c	n/a
244.3335	0.105	488667	keystroke_a	a	n/a
244.558	0.0605	489116	keystroke_t	t	n/a
244.828	0.12	489656	keystroke_Key.space	Key.space	n/a
245.113	0.075	490226	keystroke_t	t	n/a
245.2785	0.104	490557	keystroke_r	r	n/a
245.3525	0.1355	490705	keystroke_a	a	n/a
245.398	0.105	490796	keystroke_i	i	n/a
245.458	0.12	490916	keystroke_l	l	n/a
245.713	0.09	491426	keystroke_Key.enter	Key.enter	n/a
245.8155	7.669	491631	prompt	n/a	encourage events sympathy examples\n
247.738	0.09	495476	keystroke_e	e	n/a
247.843	0.105	495686	keystroke_n	n	n/a
248.0675	0.105	496135	keystroke_c	c	n/a
248.1275	0.075	496255	keystroke_o	o	n/a
248.1875	0.09	496375	keystroke_u	u	n/a
248.2925	0.06	496585	keystroke_r	r	n/a
248.6835	0.1045	497367	keystroke_a	a	n/a
249.103	0.1045	498206	keystroke_g	g	n/a
249.1475	0.12	498295	keystroke_e	e	n/a
249.2825	0.1055	498565	keystroke_Key.space	Key.space	n/a
249.493	0.06	498986	keystroke_e	e	n/a
249.658	0.105	499316	keystroke_v	v	n/a
249.703	0.105	499406	keystroke_e	e	n/a
249.8225	0.105	499645	keystroke_n	n	n/a
249.9725	0.12	499945	keystroke_t	t	n/a
250.0475	0.15	500095	keystroke_s	s	n/a
250.2125	0.075	500425	keystroke_Key.space	Key.space	n/a
250.3625	0.12	500725	keystroke_s	s	n/a
250.4375	0.09	500875	keystroke_y	y	n/a
250.6625	0.105	501325	keystroke_m	m	n/a
250.9025	0.105	501805	keystroke_p	p	n/a
251.0225	0.075	502045	keystroke_a	a	n/a
251.2625	0.075	502525	keystroke_t	t	n/a
251.3525	0.09	502705	keystroke_h	h	n/a
251.5475	0.075	503095	keystroke_y	y	n/a
251.6675	0.105	503335	keystroke_Key.space	Key.space	n/a
252.3425	0.225	504685	keystroke_e	e	n/a
252.5825	0.015	505165	keystroke_x	x	n/a
252.6725	0.09	505345	keystroke_a	a	n/a
252.9275	0.075	505855	keystroke_m	m	n/a
253.0625	0.12	506125	keystroke_p	p	n/a
253.1225	0.135	506245	keystroke_l	l	n/a
253.2125	0.12	506425	keystroke_e	e	n/a
253.2875	0.12	506575	keystroke_s	s	n/a
253.3925	0.0905	506785	keystroke_Key.enter	Key.enter	n/a
253.487	10.7975	506974	prompt	n/a	superintendent organisation desire opportunity\n
254.143	0.105	508286	keystroke_s	s	n/a
254.278	0.075	508556	keystroke_u	u	n/a
254.518	0.105	509036	keystroke_p	p	n/a
254.578	0.09	509156	keystroke_e	e	n/a
254.638	0.09	509276	keystroke_r	r	n/a
254.9525	0.135	509905	keystroke_i	i	n/a
255.0125	0.135	510025	keystroke_n	n	n/a
255.253	0.0895	510506	keystroke_d	d	n/a
255.5375	0.076	511075	keystroke_e	e	n/a
255.6285	0.104	511257	keystroke_n	n	n/a
256.648	0.06	513296	keystroke_Key.backspace	Key.backspace	n/a
256.783	0.075	513566	keystroke_Key.backspace	Key.backspace	n/a
256.963	0.075	513926	keystroke_Key.backspace	Key.backspace	n/a
257.4575	0.1055	514915	keystroke_t	t	n/a
257.5475	0.0905	515095	keystroke_e	e	n/a
257.668	0.1055	515336	keystroke_n	n	n/a
257.8185	0.09	515637	keystroke_d	d	n/a
257.9835	0.09	515967	keystroke_e	e	n/a
258.0885	0.105	516177	keystroke_n	n	n/a
258.2235	0.074	516447	keystroke_t	t	n/a
258.3575	0.091	516715	keystroke_Key.space	Key.space	n/a
258.5835	0.104	517167	keystroke_o	o	n/a
258.7035	0.059	517407	keystroke_r	r	n/a
258.9135	0.074	517827	keystroke_g	g	n/a
259.0035	0.09	518007	keystroke_a	a	n/a
259.0935	0.09	518187	keystroke_n	n	n/a
259.3325	0.105	518665	keystroke_i	i	n/a
260.053	0.09	520106	keystroke_s	s	n/a
260.278	0.09	520556	keystroke_a	a	n/a
260.518	0.075	521036	keystroke_t	t	n/a
260.563	0.135	521126	keystroke_i	i	n/a
260.638	0.09	521276	keystroke_o	o	n/a
260.683	0.1795	521366	keystroke_n	n	n/a
260.8775	0.105	521755	keystroke_Key.space	Key.space	n/a
261.2225	0.105	522445	keystroke_s	s	n/a
261.5975	0.075	523195	keystroke_Key.backspace	Key.backspace	n/a
261.7025	0.075	523405	keystroke_d	d	n/a
261.8975	0.06	523795	keystroke_e	e	n/a
262.0925	0.075	524185	keystroke_s	s	n/a
262.1825	0.09	524365	keystroke_i	i	n/a
262.2875	0.12	524575	keystroke_r	r	n/a
262.3325	0.105	524665	keystroke_e	e	n/a
262.4525	0.075	524905	keystroke_Key.space	Key.space	n/a
262.6175	0.09	525235	keystroke_o	o	n/a
262.8125	0.06	525625	keystroke_p	p	n/a
262.9325	0.075	525865	keystroke_p	p	n/a
263.1275	0.105	526255	keystroke_o	o	n/a
263.3375	0.0755	526675	keystroke_r	r	n/a
263.578	0.06	527156	keystroke_t	t	n/a
263.608	0.105	527216	keystroke_u	u	n/a
263.653	0.09	527306	keystroke_n	n	n/a
263.788	0.12	527576	keystroke_i	i	n/a
263.938	0.075	527876	keystroke_t	t	n/a
264.028	0.075	528056	keystroke_y	y	n/a
264.163	0.12	528326	keystroke_Key.enter	Key.enter	n/a
264.2885	4.106	528577	prompt	n/a	clearly watson alan dealer\n
265.0775	0.09	530155	keystroke_c	c	n/a
265.1825	0.135	530365	keystroke_l	l	n/a
265.2875	0.105	530575	keystroke_e	e	n/a
265.3325	0.105	530665	keystroke_a	a	n/a
265.3625	0.135	530725	keystroke_r	r	n/a
265.6025	0.105	531205	keystroke_l	l	n/a
265.7225	0.0755	531445	keystroke_y	y	n/a
265.843	0.12	531686	keystroke_Key.space	Key.space	n/a
266.083	0.09	532166	keystroke_w	w	n/a
266.128	0.135	532256	keystroke_a	a	n/a
266.368	0.075	532736	keystroke_t	t	n/a
266.638	0.12	533276	keystroke_s	s	n/a
266.713	0.105	533426	keystroke_o	o	n/a
266.773	0.12	533546	keystroke_n	n	n/a
266.938	0.09	533876	keystroke_Key.space	Key.space	n/a
267.1775	0.09	534355	keystroke_a	a	n/a
267.2375	0.09	534475	keystroke_l	l	n/a
267.3425	0.075	534685	keystroke_a	a	n/a
267.3875	0.12	534775	keystroke_n	n	n/a
267.5975	0.06	535195	keystroke_Key.space	Key.space	n/a
267.7625	0.06	535525	keystroke_d	d	n/a
267.9275	0.06	535855	keystroke_e	e	n/a
267.9425	0.12	535885	keystroke_a	a	n/a
268.0775	0.105	536155	keystroke_l	l	n/a
268.1675	0.075	536335	keystroke_e	e	n/a
268.1975	0.09	536395	keystroke_r	r	n/a
268.3175	0.075	536635	keystroke_Key.enter	Key.enter	n/a
268.398	4.4065	536796	prompt	n/a	hist clothing undertaken said\n
269.0975	0.105	538195	keystroke_h	h	n/a
269.1575	0.105	538315	keystroke_i	i	n/a
269.2475	0.075	538495	keystroke_s	s	n/a
269.4275	0.075	538855	keystroke_t	t	n/a
269.5625	0.09	539125	keystroke_Key.space	Key.space	n/a
269.7575	0.105	539515	keystroke_c	c	n/a
269.8175	0.075	539635	keystroke_l	l	n/a
269.953	0.1345	539906	keystroke_o	o	n/a
270.4475	0.075	540895	keystroke_t	t	n/a
270.4925	0.105	540985	keystroke_h	h	n/a
270.553	0.1495	541106	keystroke_i	i	n/a
270.6575	0.1205	541315	keystroke_n	n	n/a
270.748	0.0895	541496	keystroke_g	g	n/a
270.868	0.0745	541736	keystroke_Key.space	Key.space	n/a
271.0475	0.105	542095	keystroke_u	u	n/a
271.1075	0.1205	542215	keystroke_n	n	n/a
271.198	0.06	542396	keystroke_d	d	n/a
271.333	0.0755	542666	keystroke_e	e	n/a
271.378	0.0905	542756	keystroke_r	r	n/a
271.618	0.09	543236	keystroke_t	t	n/a
271.678	0.0905	543356	keystroke_a	a	n/a
271.7835	0.105	543567	keystroke_k	k	n/a
271.9185	0.09	543837	keystroke_e	e	n/a
271.9935	0.105	543987	keystroke_n	n	n/a
272.1285	0.0895	544257	keystroke_Key.space	Key.space	n/a
272.398	0.09	544796	keystroke_s	s	n/a
272.458	0.075	544916	keystroke_a	a	n/a
272.518	0.075	545036	keystroke_i	i	n/a
272.638	0.0905	545276	keystroke_d	d	n/a
272.7135	0.0895	545427	keystroke_Key.enter	Key.enter	n/a
272.808	8.7715	545616	prompt	n/a	joining clock tuning pennsylvania\n
273.553	0.105	547106	keystroke_j	j	n/a
273.628	0.09	547256	keystroke_o	o	n/a
273.958	0.105	547916	keystroke_i	i	n/a
274.003	0.105	548006	keystroke_n	n	n/a
274.513	0.09	549026	keystroke_i	i	n/a
274.5435	0.1345	549087	keystroke_n	n	n/a
274.6635	0.0745	549327	keystroke_g	g	n/a
274.768	0.105	549536	keystroke_Key.space	Key.space	n/a
274.9785	0.0595	549957	keystroke_c	c	n/a
275.0085	0.06	550017	keystroke_l	l	n/a
275.1435	0.0745	550287	keystroke_o	o	n/a
275.2635	0.075	550527	keystroke_c	c	n/a
275.3225	0.09	550645	keystroke_k	k	n/a
275.5775	0.09	551155	keystroke_Key.space	Key.space	n/a
276.1935	0.0745	552387	keystroke_t	t	n/a
276.2385	0.1045	552477	keystroke_u	u	n/a
276.403	0.09	552806	keystroke_r	r	n/a
277.2425	0.075	554485	keystroke_Key.backspace	Key.backspace	n/a
277.5575	0.075	555115	keystroke_n	n	n/a
277.6475	0.09	555295	keystroke_i	i	n/a
277.7085	0.104	555417	keystroke_n	n	n/a
277.8275	0.06	555655	keystroke_g	g	n/a
277.9925	0.105	555985	keystroke_Key.space	Key.space	n/a
278.7575	0.075	557515	keystroke_p	p	n/a
278.8485	0.059	557697	keystroke_e	e	n/a
278.9375	0.06	557875	keystroke_n	n	n/a
279.0725	0.09	558145	keystroke_n	n	n/a
279.5085	0.089	559017	keystroke_s	s	n/a
279.6425	0.09	559285	keystroke_y	y	n/a
280.1825	0.106	560365	keystroke_l	l	n/a
280.5435	0.104	561087	keystroke_v	v	n/a
280.6625	0.12	561325	keystroke_a	a	n/a
280.8275	0.09	561655	keystroke_n	n	n/a
281.0685	0.089	562137	keystroke_i	i	n/a
281.2325	0.06	562465	keystroke_a	a	n/a
281.4875	0.09	562975	keystroke_Key.enter	Key.enter	n/a
281.5835	6.236	563167	prompt	n/a	knowing baseline everybody stored\n
282.493	0.12	564986	keystroke_k	k	n/a
283.273	0.075	566546	keystroke_n	n	n/a
283.303	0.105	566606	keystroke_o	o	n/a
283.453	0.09	566906	keystroke_w	w	n/a
283.768	0.1045	567536	keystroke_i	i	n/a
283.813	0.1195	567626	keystroke_n	n	n/a
283.9475	0.075	567895	keystroke_g	g	n/a
284.0975	0.09	568195	keystroke_Key.space	Key.space	n/a
284.3375	0.09	568675	keystroke_b	b	n/a
284.4425	0.105	568885	keystroke_a	a	n/a
284.4875	0.106	568975	keystroke_s	s	n/a
284.7275	0.075	569455	keystroke_e	e	n/a
285.0275	0.105	570055	keystroke_l	l	n/a
285.0875	0.12	570175	keystroke_i	i	n/a
285.1475	0.135	570295	keystroke_n	n	n/a
285.2685	0.074	570537	keystroke_e	e	n/a
285.403	0.09	570806	keystroke_Key.space	Key.space	n/a
285.553	0.075	571106	keystroke_e	e	n/a
285.763	0.06	571526	keystroke_v	v	n/a
285.898	0.09	571796	keystroke_e	e	n/a
285.958	0.075	571916	keystroke_r	r	n/a
286.093	0.06	572186	keystroke_y	y	n/a
286.4825	0.09	572965	keystroke_b	b	n/a
286.5875	0.06	573175	keystroke_o	o	n/a
286.6625	0.09	573325	keystroke_d	d	n/a
286.7825	0.09	573565	keystroke_y	y	n/a
286.9025	0.075	573805	keystroke_Key.space	Key.space	n/a
286.9925	0.09	573985	keystroke_s	s	n/a
287.2175	0.045	574435	keystroke_t	t	n/a
287.3375	0.105	574675	keystroke_o	o	n/a
287.3975	0.105	574795	keystroke_r	r	n/a
287.4725	0.06	574945	keystroke_e	e	n/a
287.623	0.075	575246	keystroke_d	d	n/a
287.728	0.09	575456	keystroke_Key.enter	Key.enter	n/a
287.822	5.8625	575644	prompt	n/a	islands football moore leon\n
288.598	0.09	577196	keystroke_i	i	n/a
288.853	0.0745	577706	keystroke_s	s	n/a
289.0625	0.075	578125	keystroke_l	l	n/a
289.1525	0.075	578305	keystroke_a	a	n/a
289.2725	0.075	578545	keystroke_n	n	n/a
289.3325	0.1205	578665	keystroke_d	d	n/a
289.408	0.135	578816	keystroke_s	s	n/a
289.528	0.105	579056	keystroke_Key.space	Key.space	n/a
289.828	0.075	579656	keystroke_f	f	n/a
289.888	0.075	579776	keystroke_o	o	n/a
290.023	0.105	580046	keystroke_o	o	n/a
290.143	0.06	580286	keystroke_t	t	n/a
290.338	0.075	580676	keystroke_b	b	n/a
290.443	0.09	580886	keystroke_a	a	n/a
290.518	0.075	581036	keystroke_l	l	n/a
290.653	0.105	581306	keystroke_l	l	n/a
290.818	0.06	581636	keystroke_s	s	n/a
291.178	0.075	582356	keystroke_Key.backspace	Key.backspace	n/a
291.433	0.075	582866	keystroke_Key.space	Key.space	n/a
291.748	0.105	583496	keystroke_m	m	n/a
291.808	0.09	583616	keystroke_o	o	n/a
291.958	0.105	583916	keystroke_o	o	n/a
292.078	0.09	584156	keystroke_e	e	n/a
292.4375	0.06	584875	keystroke_Key.backspace	Key.backspace	n/a
292.4825	0.12	584965	keystroke_r	r	n/a
292.5575	0.09	585115	keystroke_e	e	n/a
292.7075	0.075	585415	keystroke_Key.space	Key.space	n/a
292.8575	0.1205	585715	keystroke_l	l	n/a
292.948	0.105	585896	keystroke_e	e	n/a
293.218	0.105	586436	keystroke_o	o	n/a
293.293	0.1205	586586	keystroke_n	n	n/a
293.5935	0.09	587187	keystroke_Key.enter	Key.enter	n/a
293.7	4.9945	587400	prompt	n/a	remain patrick packaging dinner\n
294.4775	0.106	588955	keystroke_r	r	n/a
294.5385	0.105	589077	keystroke_e	e	n/a
294.6735	0.06	589347	keystroke_m	m	n/a
294.7925	0.1205	589585	keystroke_a	a	n/a
294.883	0.09	589766	keystroke_i	i	n/a
294.943	0.12	589886	keystroke_n	n	n/a
295.093	0.105	590186	keystroke_Key.space	Key.space	n/a
295.258	0.105	590516	keystroke_p	p	n/a
295.348	0.09	590696	keystroke_a	a	n/a
295.633	0.06	591266	keystroke_t	t	n/a
295.7835	0.06	591567	keystroke_r	r	n/a
295.8735	0.075	591747	keystroke_i	i	n/a
295.9785	0.075	591957	keystroke_c	c	n/a
296.0685	0.09	592137	keystroke_k	k	n/a
296.2025	0.09	592405	keystroke_Key.space	Key.space	n/a
296.3385	0.09	592677	keystroke_p	p	n/a
296.3985	0.12	592797	keystroke_a	a	n/a
296.4585	0.105	592917	keystroke_c	c	n/a
296.5785	0.09	593157	keystroke_k	k	n/a
296.7885	0.09	593577	keystroke_a	a	n/a
297.0735	0.03	594147	keystroke_g	g	n/a
297.5075	0.105	595015	keystroke_i	i	n/a
297.5375	0.12	595075	keystroke_n	n	n/a
297.7035	0.074	595407	keystroke_g	g	n/a
297.9575	0.105	595915	keystroke_Key.space	Key.space	n/a
298.1075	0.075	596215	keystroke_d	d	n/a
298.2275	0.046	596455	keystroke_i	i	n/a
298.2425	0.045	596485	keystroke_n	n	n/a
298.3625	0.0905	596725	keystroke_n	n	n/a
298.468	0.075	596936	keystroke_e	e	n/a
298.498	0.09	596996	keystroke_r	r	n/a
298.588	0.105	597176	keystroke_Key.enter	Key.enter	n/a
298.6995	5.65	597399	prompt	n/a	stupid unlikely interim arrived\n
299.338	0.1195	598676	keystroke_s	s	n/a
299.4425	0.105	598885	keystroke_t	t	n/a
299.5025	0.09	599005	keystroke_u	u	n/a
299.5625	0.135	599125	keystroke_p	p	n/a
299.6675	0.105	599335	keystroke_i	i	n/a
299.8025	0.0905	599605	keystroke_d	d	n/a
300.313	0.12	600626	keystroke_Key.space	Key.space	n/a
300.703	0.09	601406	keystroke_u	u	n/a
300.748	0.105	601496	keystroke_n	n	n/a
301.003	0.12	602006	keystroke_l	l	n/a
301.078	0.09	602156	keystroke_i	i	n/a
301.243	0.0905	602486	keystroke_k	k	n/a
301.3335	0.105	602667	keystroke_e	e	n/a
301.4235	0.105	602847	keystroke_l	l	n/a
301.5585	0.0745	603117	keystroke_y	y	n/a
301.693	0.105	603386	keystroke_Key.space	Key.space	n/a
302.113	0.105	604226	keystroke_i	i	n/a
302.158	0.12	604316	keystroke_n	n	n/a
302.428	0.06	604856	keystroke_t	t	n/a
302.5475	0.105	605095	keystroke_e	e	n/a
302.5925	0.075	605185	keystroke_r	r	n/a
302.9075	0.105	605815	keystroke_i	i	n/a
303.1025	0.135	606205	keystroke_m	m	n/a
303.2225	0.105	606445	keystroke_Key.space	Key.space	n/a
303.4475	0.09	606895	keystroke_a	a	n/a
303.6125	0.075	607225	keystroke_r	r	n/a
303.7475	0.06	607495	keystroke_r	r	n/a
303.8675	0.0905	607735	keystroke_i	i	n/a
303.958	0.075	607916	keystroke_v	v	n/a
304.003	0.075	608006	keystroke_e	e	n/a
304.168	0.09	608336	keystroke_d	d	n/a
304.273	0.075	608546	keystroke_Key.enter	Key.enter	n/a
304.3575	6.862	608715	prompt	n/a	urge complicated miami organizational\n
305.113	0.06	610226	keystroke_u	u	n/a
305.188	0.0895	610376	keystroke_r	r	n/a
305.413	0.135	610826	keystroke_g	g	n/a
305.488	0.105	610976	keystroke_e	e	n/a
305.608	0.09	611216	keystroke_Key.space	Key.space	n/a
305.953	0.09	611906	keystroke_c	c	n/a
306.013	0.09	612026	keystroke_o	o	n/a
306.028	0.12	612056	keystroke_m	m	n/a
306.208	0.0895	612416	keystroke_p	p	n/a
306.253	0.0745	612506	keystroke_l	l	n/a
306.4175	0.135	612835	keystroke_i	i	n/a
306.5975	0.09	613195	keystroke_c	c	n/a
306.6575	0.105	613315	keystroke_a	a	n/a
306.8825	0.06	613765	keystroke_t	t	n/a
306.9125	0.06	613825	keystroke_e	e	n/a
307.0475	0.09	614095	keystroke_d	d	n/a
307.1825	0.09	614365	keystroke_Key.space	Key.space	n/a
307.4985	0.09	614997	keystroke_m	m	n/a
307.5585	0.135	615117	keystroke_i	i	n/a
307.8285	0.09	615657	keystroke_a	a	n/a
307.9485	0.075	615897	keystroke_m	m	n/a
308.0835	0.105	616167	keystroke_i	i	n/a
308.4585	0.09	616917	keystroke_Key.space	Key.space	n/a
308.6535	0.105	617307	keystroke_o	o	n/a
308.7585	0.075	617517	keystroke_r	r	n/a
309.0135	0.09	618027	keystroke_a	a	n/a
309.0735	0.075	618147	keystroke_n	n	n/a
309.3735	0.06	618747	keystroke_Key.backspace	Key.backspace	n/a
309.4785	0.06	618957	keystroke_Key.backspace	Key.backspace	n/a
309.5535	0.075	619107	keystroke_g	g	n/a
309.5985	0.105	619197	keystroke_a	a	n/a
309.6885	0.09	619377	keystroke_n	n	n/a
309.8835	0.105	619767	keystroke_i	i	n/a
310.0335	0.075	620067	keystroke_z	z	n/a
310.198	0.09	620396	keystroke_a	a	n/a
310.423	0.06	620846	keystroke_t	t	n/a
310.438	0.135	620876	keystroke_i	i	n/a
310.543	0.12	621086	keystroke_o	o	n/a
310.558	0.135	621116	keystroke_n	n	n/a
310.888	0.09	621776	keystroke_a	a	n/a
310.963	0.075	621926	keystroke_l	l	n/a
311.113	0.105	622226	keystroke_Key.enter	Key.enter	n/a
311.2225	11.427	622445	prompt	n/a	geneva obesity porsche genealogy\n
312.028	0.1055	624056	keystroke_g	g	n/a
312.1035	0.06	624207	keystroke_e	e	n/a
312.1635	0.105	624327	keystroke_n	n	n/a
312.2835	0.075	624567	keystroke_e	e	n/a
312.8235	0.12	625647	keystroke_v	v	n/a
312.9135	0.105	625827	keystroke_a	a	n/a
313.0335	0.105	626067	keystroke_Key.space	Key.space	n/a
313.7085	0.075	627417	keystroke_o	o	n/a
313.8585	0.105	627717	keystroke_b	b	n/a
314.0235	0.075	628047	keystroke_e	e	n/a
314.2485	0.09	628497	keystroke_s	s	n/a
314.3385	0.09	628677	keystroke_i	i	n/a
314.4885	0.09	628977	keystroke_t	t	n/a
314.6085	0.09	629217	keystroke_y	y	n/a
314.7285	0.105	629457	keystroke_Key.space	Key.space	n/a
314.9685	0.09	629937	keystroke_p	p	n/a
315.1035	0.075	630207	keystroke_r	r	n/a
315.1635	0.105	630327	keystroke_o	o	n/a
315.568	0.075	631136	keystroke_c	c	n/a
315.943	0.06	631886	keystroke_Key.backspace	Key.backspace	n/a
316.063	0.075	632126	keystroke_Key.backspace	Key.backspace	n/a
316.198	0.06	632396	keystroke_Key.backspace	Key.backspace	n/a
316.408	0.075	632816	keystroke_o	o	n/a
316.498	0.06	632996	keystroke_r	r	n/a
317.158	0.135	634316	keystroke_s	s	n/a
317.278	0.105	634556	keystroke_c	c	n/a
317.518	0.12	635036	keystroke_h	h	n/a
317.623	0.075	635246	keystroke_e	e	n/a
317.758	0.09	635516	keystroke_Key.space	Key.space	n/a
318.148	0.105	636296	keystroke_g	g	n/a
318.298	0.06	636596	keystroke_e	e	n/a
319.078	0.12	638156	keystroke_n	n	n/a
319.348	0.09	638696	keystroke_e	e	n/a
319.528	0.12	639056	keystroke_a	a	n/a
319.8135	0.09	639627	keystroke_l	l	n/a
319.9935	0.105	639987	keystroke_o	o	n/a
320.488	0.0605	640976	keystroke_Key.backspace	Key.backspace	n/a
320.6075	0.091	641215	keystroke_Key.backspace	Key.backspace	n/a
322.0185	0.074	644037	keystroke_l	l	n/a
322.1385	0.089	644277	keystroke_o	o	n/a
322.3025	0.075	644605	keystroke_g	g	n/a
322.3785	0.075	644757	keystroke_y	y	n/a
322.5125	0.135	645025	keystroke_Key.enter	Key.enter	n/a
322.6525	4.812	645305	prompt	n/a	egyptian borders alloy sight\n
323.3075	0.0755	646615	keystroke_e	e	n/a
323.503	0.075	647006	keystroke_g	g	n/a
323.698	0.09	647396	keystroke_y	y	n/a
323.983	0.105	647966	keystroke_p	p	n/a
324.388	0.075	648776	keystroke_t	t	n/a
324.448	0.075	648896	keystroke_i	i	n/a
324.643	0.09	649286	keystroke_a	a	n/a
324.718	0.105	649436	keystroke_n	n	n/a
324.883	0.075	649766	keystroke_Key.space	Key.space	n/a
325.078	0.09	650156	keystroke_b	b	n/a
325.153	0.12	650306	keystroke_o	o	n/a
325.228	0.09	650456	keystroke_r	r	n/a
325.393	0.075	650786	keystroke_d	d	n/a
325.543	0.09	651086	keystroke_e	e	n/a
325.588	0.075	651176	keystroke_r	r	n/a
325.7385	0.12	651477	keystroke_s	s	n/a
325.9785	0.09	651957	keystroke_Key.space	Key.space	n/a
326.143	0.105	652286	keystroke_a	a	n/a
326.203	0.06	652406	keystroke_l	l	n/a
326.323	0.075	652646	keystroke_l	l	n/a
326.488	0.075	652976	keystroke_o	o	n/a
326.578	0.12	653156	keystroke_y	y	n/a
326.713	0.12	653426	keystroke_Key.space	Key.space	n/a
326.893	0.06	653786	keystroke_s	s	n/a
326.938	0.105	653876	keystroke_i	i	n/a
327.043	0.075	654086	keystroke_g	g	n/a
327.103	0.0905	654206	keystroke_h	h	n/a
327.2235	0.0745	654447	keystroke_t	t	n/a
327.358	0.1045	654716	keystroke_Key.enter	Key.enter	n/a
327.47	4.9895	654940	prompt	n/a	databases cups flex rocket\n
328.093	0.105	656186	keystroke_d	d	n/a
328.1535	0.1345	656307	keystroke_a	a	n/a
328.573	0.09	657146	keystroke_t	t	n/a
328.693	0.12	657386	keystroke_a	a	n/a
329.008	0.1055	658016	keystroke_b	b	n/a
329.0975	0.121	658195	keystroke_a	a	n/a
329.1875	0.105	658375	keystroke_s	s	n/a
329.2625	0.12	658525	keystroke_e	e	n/a
329.4275	0.091	658855	keystroke_d	d	n/a
329.5775	0.09	659155	keystroke_Key.space	Key.space	n/a
329.8475	0.09	659695	keystroke_c	c	n/a
329.9075	0.135	659815	keystroke_u	u	n/a
329.9825	0.135	659965	keystroke_p	p	n/a
330.0885	0.089	660177	keystroke_s	s	n/a
330.2975	0.075	660595	keystroke_Key.space	Key.space	n/a
331.1075	0.046	662215	keystroke_f	f	n/a
331.1375	0.1215	662275	keystroke_l	l	n/a
331.228	0.06	662456	keystroke_e	e	n/a
331.3935	0.0895	662787	keystroke_x	x	n/a
331.543	0.105	663086	keystroke_Key.space	Key.space	n/a
331.873	0.075	663746	keystroke_r	r	n/a
331.933	0.075	663866	keystroke_o	o	n/a
332.053	0.06	664106	keystroke_c	c	n/a
332.098	0.12	664196	keystroke_k	k	n/a
332.203	0.105	664406	keystroke_e	e	n/a
332.263	0.06	664526	keystroke_t	t	n/a
332.368	0.09	664736	keystroke_Key.enter	Key.enter	n/a
332.4645	5.935	664929	prompt	n/a	learning tourism inherited deviation\n
333.058	0.12	666116	keystroke_l	l	n/a
333.148	0.105	666296	keystroke_e	e	n/a
333.208	0.12	666416	keystroke_a	a	n/a
333.268	0.09	666536	keystroke_r	r	n/a
333.373	0.105	666746	keystroke_n	n	n/a
333.493	0.135	666986	keystroke_i	i	n/a
333.568	0.135	667136	keystroke_n	n	n/a
333.688	0.075	667376	keystroke_g	g	n/a
333.9135	0.105	667827	keystroke_Key.space	Key.space	n/a
334.1985	0.075	668397	keystroke_t	t	n/a
334.2585	0.075	668517	keystroke_o	o	n/a
334.2885	0.12	668577	keystroke_u	u	n/a
334.4835	0.105	668967	keystroke_r	r	n/a
334.7985	0.09	669597	keystroke_i	i	n/a
334.9635	0.1045	669927	keystroke_s	s	n/a
335.083	0.09	670166	keystroke_m	m	n/a
335.188	0.12	670376	keystroke_Key.space	Key.space	n/a
335.383	0.12	670766	keystroke_i	i	n/a
335.443	0.12	670886	keystroke_n	n	n/a
335.683	0.09	671366	keystroke_h	h	n/a
335.758	0.09	671516	keystroke_e	e	n/a
335.803	0.09	671606	keystroke_r	r	n/a
335.983	0.105	671966	keystroke_i	i	n/a
336.073	0.09	672146	keystroke_t	t	n/a
336.133	0.06	672266	keystroke_e	e	n/a
336.298	0.075	672596	keystroke_d	d	n/a
336.403	0.09	672806	keystroke_Key.space	Key.space	n/a
336.688	0.09	673376	keystroke_e	e	n/a
337.033	0.09	674066	keystroke_Key.backspace	Key.backspace	n/a
337.108	0.06	674216	keystroke_d	d	n/a
337.258	0.06	674516	keystroke_e	e	n/a
337.4835	0.075	674967	keystroke_v	v	n/a
337.5435	0.09	675087	keystroke_i	i	n/a
337.7375	0.076	675475	keystroke_a	a	n/a
337.933	0.0745	675866	keystroke_t	t	n/a
337.9785	0.089	675957	keystroke_i	i	n/a
338.0225	0.105	676045	keystroke_o	o	n/a
338.0825	0.12	676165	keystroke_n	n	n/a
338.2775	0.12	676555	keystroke_Key.enter	Key.enter	n/a
338.4045	7.345	676809	prompt	n/a	trusts mental releases friend\n
339.0875	0.075	678175	keystroke_t	t	n/a
339.1785	0.09	678357	keystroke_u	u	n/a
339.2375	0.09	678475	keystroke_r	r	n/a
339.568	0.06	679136	keystroke_Key.backspace	Key.backspace	n/a
339.673	0.075	679346	keystroke_Key.backspace	Key.backspace	n/a
339.778	0.0905	679556	keystroke_r	r	n/a
339.883	0.09	679766	keystroke_u	u	n/a
340.018	0.12	680036	keystroke_t	t	n/a
340.168	0.135	680336	keystroke_s	s	n/a
340.423	0.075	680846	keystroke_Key.space	Key.space	n/a
340.993	0.0605	681986	keystroke_Key.backspace	Key.backspace	n/a
341.143	0.075	682286	keystroke_Key.backspace	Key.backspace	n/a
341.308	0.06	682616	keystroke_Key.backspace	Key.backspace	n/a
341.698	0.075	683396	keystroke_s	s	n/a
341.728	0.105	683456	keystroke_t	t	n/a
341.848	0.12	683696	keystroke_s	s	n/a
342.1185	0.075	684237	keystroke_Key.space	Key.space	n/a
342.3285	0.09	684657	keystroke_m	m	n/a
342.4035	0.09	684807	keystroke_e	e	n/a
342.5085	0.075	685017	keystroke_n	n	n/a
342.6135	0.09	685227	keystroke_t	t	n/a
342.6885	0.12	685377	keystroke_a	a	n/a
342.7785	0.12	685557	keystroke_l	l	n/a
342.8835	0.09	685767	keystroke_Key.space	Key.space	n/a
343.0935	0.09	686187	keystroke_r	r	n/a
343.1535	0.075	686307	keystroke_e	e	n/a
343.2585	0.09	686517	keystroke_l	l	n/a
343.3785	0.105	686757	keystroke_e	e	n/a
343.4985	0.12	686997	keystroke_a	a	n/a
343.6335	0.105	687267	keystroke_s	s	n/a
343.6935	0.09	687387	keystroke_e	e	n/a
343.8735	0.09	687747	keystroke_d	d	n/a
344.3835	0.045	688767	keystroke_Key.backspace	Key.backspace	n/a
344.4585	0.075	688917	keystroke_s	s	n/a
344.6235	0.075	689247	keystroke_Key.space	Key.space	n/a
344.9835	0.12	689967	keystroke_f	f	n/a
345.0735	0.09	690147	keystroke_r	r	n/a
345.1485	0.075	690297	keystroke_i	i	n/a
345.2235	0.075	690447	keystroke_e	e	n/a
345.3135	0.09	690627	keystroke_n	n	n/a
345.4335	0.015	690867	keystroke_d	d	n/a
345.673	0.075	691346	keystroke_Key.enter	Key.enter	n/a
345.752	6.313	691504	prompt	n/a	phenomenon events bloom endorsed\n
346.423	0.105	692846	keystroke_p	p	n/a
346.498	0.09	692996	keystroke_h	h	n/a
346.603	0.075	693206	keystroke_e	e	n/a
346.693	0.105	693386	keystroke_n	n	n/a
347.053	0.105	694106	keystroke_o	o	n/a
347.4435	0.09	694887	keystroke_m	m	n/a
347.8185	0.09	695637	keystroke_e	e	n/a
347.894	0.0895	695788	keystroke_n	n	n/a
348.103	0.075	696206	keystroke_o	o	n/a
348.148	0.105	696296	keystroke_n	n	n/a
348.328	0.06	696656	keystroke_Key.space	Key.space	n/a
348.689	0.059	697378	keystroke_e	e	n/a
348.838	0.1205	697676	keystroke_v	v	n/a
348.883	0.1205	697766	keystroke_e	e	n/a
348.9735	0.105	697947	keystroke_n	n	n/a
349.1235	0.135	698247	keystroke_t	t	n/a
349.2135	0.135	698427	keystroke_s	s	n/a
349.3035	0.09	698607	keystroke_Key.space	Key.space	n/a
349.5735	0.09	699147	keystroke_b	b	n/a
349.6335	0.09	699267	keystroke_l	l	n/a
349.7985	0.075	699597	keystroke_o	o	n/a
349.9335	0.075	699867	keystroke_o	o	n/a
350.1285	0.105	700257	keystroke_m	m	n/a
350.2635	0.105	700527	keystroke_Key.space	Key.space	n/a
350.578	0.075	701156	keystroke_e	e	n/a
350.623	0.105	701246	keystroke_n	n	n/a
351.028	0.075	702056	keystroke_d	d	n/a
351.088	0.09	702176	keystroke_o	o	n/a
351.223	0.045	702446	keystroke_r	r	n/a
351.553	0.1055	703106	keystroke_s	s	n/a
351.6285	0.075	703257	keystroke_e	e	n/a
351.7785	0.09	703557	keystroke_d	d	n/a
351.9735	0.09	703947	keystroke_Key.enter	Key.enter	n/a
352.0755	5.929	704151	prompt	n/a	slideshow complicated dana session\n
353.0835	0.075	706167	keystroke_s	s	n/a
353.1735	0.105	706347	keystroke_l	l	n/a
353.2485	0.12	706497	keystroke_i	i	n/a
353.3835	0.0745	706767	keystroke_d	d	n/a
353.563	0.045	707126	keystroke_e	e	n/a
353.893	0.06	707786	keystroke_s	s	n/a
353.968	0.09	707936	keystroke_h	h	n/a
353.998	0.12	707996	keystroke_o	o	n/a
354.103	0.09	708206	keystroke_w	w	n/a
354.208	0.105	708416	keystroke_Key.space	Key.space	n/a
354.373	0.105	708746	keystroke_c	c	n/a
354.448	0.09	708896	keystroke_o	o	n/a
354.493	0.09	708986	keystroke_m	m	n/a
354.628	0.09	709256	keystroke_p	p	n/a
354.673	0.12	709346	keystroke_l	l	n/a
354.883	0.12	709766	keystroke_i	i	n/a
355.018	0.12	710036	keystroke_c	c	n/a
355.108	0.09	710216	keystroke_a	a	n/a
355.288	0.06	710576	keystroke_t	t	n/a
355.333	0.0605	710666	keystroke_e	e	n/a
355.4835	0.075	710967	keystroke_d	d	n/a
355.573	0.09	711146	keystroke_Key.space	Key.space	n/a
355.7835	0.12	711567	keystroke_d	d	n/a
355.8435	0.075	711687	keystroke_a	a	n/a
355.9335	0.105	711867	keystroke_n	n	n/a
356.0085	0.075	712017	keystroke_d	d	n/a
356.6685	0.075	713337	keystroke_Key.backspace	Key.backspace	n/a
356.8035	0.075	713607	keystroke_a	a	n/a
356.8935	0.09	713787	keystroke_Key.space	Key.space	n/a
357.0135	0.15	714027	keystroke_s	s	n/a
357.1335	0.09	714267	keystroke_e	e	n/a
357.4035	0.06	714807	keystroke_s	s	n/a
357.5535	0.075	715107	keystroke_s	s	n/a
357.6135	0.135	715227	keystroke_i	i	n/a
357.6735	0.105	715347	keystroke_o	o	n/a
357.7335	0.105	715467	keystroke_n	n	n/a
357.9135	0.09	715827	keystroke_Key.enter	Key.enter	n/a
358.007	8.233	716014	prompt	n/a	pharmaceuticals calculate celebrate united\n
358.7235	0.1045	717447	keystroke_p	p	n/a
358.7835	0.135	717567	keystroke_h	h	n/a
358.9635	0.12	717927	keystroke_a	a	n/a
359.0385	0.105	718077	keystroke_r	r	n/a
359.413	0.105	718826	keystroke_m	m	n/a
359.818	0.09	719636	keystroke_a	a	n/a
360.163	0.09	720326	keystroke_c	c	n/a
360.433	0.0745	720866	keystroke_e	e	n/a
360.553	0.0905	721106	keystroke_u	u	n/a
360.9735	0.09	721947	keystroke_t	t	n/a
361.0485	0.09	722097	keystroke_i	i	n/a
361.2285	0.15	722457	keystroke_c	c	n/a
361.3185	0.105	722637	keystroke_a	a	n/a
361.4085	0.105	722817	keystroke_l	l	n/a
361.5285	0.105	723057	keystroke_s	s	n/a
361.8135	0.105	723627	keystroke_Key.space	Key.space	n/a
362.1435	0.105	724287	keystroke_c	c	n/a
362.2035	0.09	724407	keystroke_a	a	n/a
362.2635	0.105	724527	keystroke_l	l	n/a
362.4885	0.1055	724977	keystroke_c	c	n/a
362.563	0.09	725126	keystroke_u	u	n/a
362.788	0.121	725576	keystroke_l	l	n/a
362.864	0.105	725728	keystroke_a	a	n/a
362.938	0.105	725876	keystroke_t	t	n/a
363.013	0.105	726026	keystroke_e	e	n/a
363.223	0.075	726446	keystroke_Key.space	Key.space	n/a
363.374	0.119	726748	keystroke_c	c	n/a
363.463	0.105	726926	keystroke_e	e	n/a
363.583	0.09	727166	keystroke_l	l	n/a
363.659	0.09	727318	keystroke_e	e	n/a
363.794	0.09	727588	keystroke_b	b	n/a
363.898	0.106	727796	keystroke_r	r	n/a
364.093	0.135	728186	keystroke_a	a	n/a
364.243	0.09	728486	keystroke_t	t	n/a
364.303	0.09	728606	keystroke_e	e	n/a
364.483	0.075	728966	keystroke_Key.space	Key.space	n/a
364.768	0.09	729536	keystroke_n	n	n/a
365.143	0.09	730286	keystroke_Key.backspace	Key.backspace	n/a
365.4885	0.105	730977	keystroke_u	u	n/a
365.5335	0.075	731067	keystroke_n	n	n/a
365.7135	0.135	731427	keystroke_i	i	n/a
365.8335	0.12	731667	keystroke_t	t	n/a
365.9085	0.06	731817	keystroke_e	e	n/a
366.0435	0.12	732087	keystroke_d	d	n/a
366.1485	0.09	732297	keystroke_Key.enter	Key.enter	n/a
366.243	6.0265	732486	prompt	n/a	robots frontpage doug graduates\n
366.899	0.089	733798	keystroke_r	r	n/a
366.943	0.105	733886	keystroke_o	o	n/a
367.018	0.075	734036	keystroke_b	b	n/a
367.274	0.074	734548	keystroke_t	t	n/a
367.588	0.06	735176	keystroke_Key.backspace	Key.backspace	n/a
367.798	0.09	735596	keystroke_o	o	n/a
367.873	0.1355	735746	keystroke_t	t	n/a
367.948	0.1355	735896	keystroke_s	s	n/a
368.0385	0.09	736077	keystroke_Key.space	Key.space	n/a
368.3385	0.045	736677	keystroke_f	f	n/a
368.4885	0.06	736977	keystroke_r	r	n/a
368.5785	0.09	737157	keystroke_o	o	n/a
368.6085	0.12	737217	keystroke_n	n	n/a
368.7435	0.06	737487	keystroke_t	t	n/a
369.4635	0.075	738927	keystroke_p	p	n/a
369.5235	0.105	739047	keystroke_a	a	n/a
369.6435	0.15	739287	keystroke_g	g	n/a
369.7035	0.135	739407	keystroke_e	e	n/a
369.8535	0.105	739707	keystroke_Key.space	Key.space	n/a
370.0935	0.09	740187	keystroke_d	d	n/a
370.1385	0.075	740277	keystroke_o	o	n/a
370.1685	0.12	740337	keystroke_u	u	n/a
370.3035	0.09	740607	keystroke_g	g	n/a
370.738	0.12	741476	keystroke_Key.space	Key.space	n/a
371.008	0.06	742016	keystroke_g	g	n/a
371.143	0.075	742286	keystroke_r	r	n/a
371.203	0.075	742406	keystroke_a	a	n/a
371.533	0.09	743066	keystroke_d	d	n/a
371.638	0.105	743276	keystroke_u	u	n/a
371.758	0.12	743516	keystroke_a	a	n/a
371.833	0.12	743666	keystroke_t	t	n/a
371.893	0.12	743786	keystroke_e	e	n/a
371.998	0.135	743996	keystroke_s	s	n/a
372.163	0.105	744326	keystroke_Key.enter	Key.enter	n/a
372.2725	5.8625	744545	prompt	n/a	email revolution bank partition\n
372.913	0.075	745826	keystroke_d	d	n/a
373.2585	0.06	746517	keystroke_Key.backspace	Key.backspace	n/a
373.4085	0.06	746817	keystroke_e	e	n/a
373.4685	0.075	746937	keystroke_m	m	n/a
373.5885	0.09	747177	keystroke_a	a	n/a
373.6635	0.12	747327	keystroke_i	i	n/a
373.7235	0.15	747447	keystroke_l	l	n/a
374.0235	0.105	748047	keystroke_Key.space	Key.space	n/a
374.2635	0.0745	748527	keystroke_r	r	n/a
374.308	0.075	748616	keystroke_e	e	n/a
374.593	0.09	749186	keystroke_v	v	n/a
374.668	0.075	749336	keystroke_o	o	n/a
374.848	0.15	749696	keystroke_l	l	n/a
374.953	0.12	749906	keystroke_u	u	n/a
375.148	0.09	750296	keystroke_t	t	n/a
375.223	0.15	750446	keystroke_i	i	n/a
375.298	0.12	750596	keystroke_o	o	n/a
375.343	0.15	750686	keystroke_n	n	n/a
375.508	0.1055	751016	keystroke_Key.space	Key.space	n/a
375.718	0.09	751436	keystroke_b	b	n/a
375.823	0.075	751646	keystroke_a	a	n/a
375.899	0.104	751798	keystroke_n	n	n/a
375.943	0.135	751886	keystroke_k	k	n/a
376.093	0.105	752186	keystroke_Key.space	Key.space	n/a
376.258	0.105	752516	keystroke_p	p	n/a
376.333	0.09	752666	keystroke_a	a	n/a
376.378	0.09	752756	keystroke_r	r	n/a
376.603	0.075	753206	keystroke_i	i	n/a
376.693	0.045	753386	keystroke_t	t	n/a
376.963	0.06	753926	keystroke_Key.backspace	Key.backspace	n/a
377.098	0.09	754196	keystroke_Key.backspace	Key.backspace	n/a
377.323	0.075	754646	keystroke_t	t	n/a
377.383	0.06	754766	keystroke_i	i	n/a
377.593	0.105	755186	keystroke_t	t	n/a
377.653	0.12	755306	keystroke_i	i	n/a
377.743	0.09	755486	keystroke_o	o	n/a
377.788	0.12	755576	keystroke_n	n	n/a
378.058	0.075	756116	keystroke_Key.enter	Key.enter	n/a
378.1375	5.2025	756275	prompt	n/a	harrison four practice rhode\n
379.633	0.09	759266	keystroke_h	h	n/a
379.708	0.12	759416	keystroke_a	a	n/a
379.783	0.06	759566	keystroke_r	r	n/a
379.948	0.045	759896	keystroke_r	r	n/a
380.098	0.09	760196	keystroke_i	i	n/a
380.323	0.09	760646	keystroke_s	s	n/a
380.398	0.09	760796	keystroke_o	o	n/a
380.443	0.135	760886	keystroke_n	n	n/a
380.593	0.0905	761186	keystroke_Key.space	Key.space	n/a
380.9535	0.09	761907	keystroke_f	f	n/a
381.0135	0.09	762027	keystroke_o	o	n/a
381.0435	0.105	762087	keystroke_u	u	n/a
381.1635	0.075	762327	keystroke_r	r	n/a
381.2535	0.09	762507	keystroke_Key.space	Key.space	n/a
381.388	0.105	762776	keystroke_p	p	n/a
381.463	0.09	762926	keystroke_r	r	n/a
381.538	0.0755	763076	keystroke_a	a	n/a
381.674	0.09	763348	keystroke_c	c	n/a
381.9885	0.06	763977	keystroke_t	t	n/a
382.0785	0.105	764157	keystroke_i	i	n/a
382.1985	0.105	764397	keystroke_c	c	n/a
382.2735	0.0895	764547	keystroke_e	e	n/a
382.378	0.06	764756	keystroke_Key.space	Key.space	n/a
382.603	0.075	765206	keystroke_r	r	n/a
382.663	0.105	765326	keystroke_h	h	n/a
382.723	0.135	765446	keystroke_o	o	n/a
382.9935	0.075	765987	keystroke_d	d	n/a
383.1435	0.09	766287	keystroke_e	e	n/a
383.2485	0.09	766497	keystroke_Key.enter	Key.enter	n/a
383.343	6.387	766686	prompt	n/a	difficult entire playlist investor\n
384.0435	0.075	768087	keystroke_d	d	n/a
384.1035	0.09	768207	keystroke_i	i	n/a
384.2685	0.075	768537	keystroke_f	f	n/a
384.4335	0.075	768867	keystroke_f	f	n/a
384.8085	0.09	769617	keystroke_i	i	n/a
385.0185	0.09	770037	keystroke_c	c	n/a
385.1085	0.105	770217	keystroke_u	u	n/a
385.1685	0.165	770337	keystroke_l	l	n/a
385.3185	0.0895	770637	keystroke_t	t	n/a
385.438	0.105	770876	keystroke_Key.space	Key.space	n/a
385.6935	0.0895	771387	keystroke_e	e	n/a
385.753	0.09	771506	keystroke_n	n	n/a
385.918	0.075	771836	keystroke_t	t	n/a
385.978	0.09	771956	keystroke_i	i	n/a
386.083	0.12	772166	keystroke_r	r	n/a
386.128	0.12	772256	keystroke_e	e	n/a
386.308	0.12	772616	keystroke_Key.space	Key.space	n/a
386.9535	0.09	773907	keystroke_p	p	n/a
386.9835	0.12	773967	keystroke_l	l	n/a
387.0885	0.105	774177	keystroke_a	a	n/a
387.3585	0.075	774717	keystroke_y	y	n/a
387.6735	0.105	775347	keystroke_l	l	n/a
387.7035	0.15	775407	keystroke_i	i	n/a
387.8235	0.135	775647	keystroke_s	s	n/a
387.8835	0.12	775767	keystroke_t	t	n/a
388.0185	0.135	776037	keystroke_Key.space	Key.space	n/a
388.4385	0.12	776877	keystroke_i	i	n/a
388.4835	0.165	776967	keystroke_n	n	n/a
388.6335	0.06	777267	keystroke_v	v	n/a
388.7535	0.09	777507	keystroke_e	e	n/a
389.0235	0.075	778047	keystroke_s	s	n/a
389.2635	0.045	778527	keystroke_t	t	n/a
389.3385	0.09	778677	keystroke_o	o	n/a
389.4135	0.075	778827	keystroke_r	r	n/a
389.6235	0.105	779247	keystroke_Key.enter	Key.enter	n/a
389.733	5.337	779466	prompt	n/a	her blast proposals foods\n
390.388	0.09	780776	keystroke_h	h	n/a
390.463	0.09	780926	keystroke_e	e	n/a
390.508	0.09	781016	keystroke_r	r	n/a
390.628	0.0755	781256	keystroke_Key.space	Key.space	n/a
391.0185	0.09	782037	keystroke_b	b	n/a
391.0935	0.12	782187	keystroke_l	l	n/a
391.1685	0.105	782337	keystroke_a	a	n/a
391.2285	0.2095	782457	keystroke_s	s	n/a
391.3635	0.0295	782727	keystroke_e	e	n/a
391.618	0.09	783236	keystroke_t	t	n/a
391.978	0.06	783956	keystroke_Key.backspace	Key.backspace	n/a
392.113	0.09	784226	keystroke_Key.backspace	Key.backspace	n/a
392.308	0.075	784616	keystroke_t	t	n/a
392.458	0.09	784916	keystroke_Key.space	Key.space	n/a
392.833	0.075	785666	keystroke_p	p	n/a
392.893	0.075	785786	keystroke_r	r	n/a
392.983	0.105	785966	keystroke_o	o	n/a
393.358	0.105	786716	keystroke_p	p	n/a
393.523	0.105	787046	keystroke_o	o	n/a
393.868	0.0605	787736	keystroke_s	s	n/a
394.0035	0.1195	788007	keystroke_a	a	n/a
394.138	0.09	788276	keystroke_l	l	n/a
394.213	0.105	788426	keystroke_s	s	n/a
394.348	0.075	788696	keystroke_Key.space	Key.space	n/a
394.543	0.075	789086	keystroke_f	f	n/a
394.588	0.06	789176	keystroke_o	o	n/a
394.7385	0.0895	789477	keystroke_o	o	n/a
394.813	0.12	789626	keystroke_d	d	n/a
394.8735	0.1195	789747	keystroke_s	s	n/a
394.978	0.09	789956	keystroke_Key.enter	Key.enter	n/a
395.0725	6.8525	790145	prompt	n/a	valve specific ecuador avoiding\n
395.744	0.0895	791488	keystroke_v	v	n/a
395.7885	0.105	791577	keystroke_a	a	n/a
395.8635	0.12	791727	keystroke_l	l	n/a
396.0285	0.15	792057	keystroke_v	v	n/a
396.3135	0.09	792627	keystroke_e	e	n/a
396.4635	0.1195	792927	keystroke_Key.space	Key.space	n/a
396.778	0.075	793556	keystroke_s	s	n/a
396.854	0.089	793708	keystroke_p	p	n/a
396.958	0.0605	793916	keystroke_e	e	n/a
397.1685	0.0895	794337	keystroke_c	c	n/a
397.243	0.09	794486	keystroke_i	i	n/a
397.5285	0.075	795057	keystroke_f	f	n/a
397.5885	0.09	795177	keystroke_i	i	n/a
397.7385	0.09	795477	keystroke_c	c	n/a
397.9485	0.12	795897	keystroke_Key.space	Key.space	n/a
398.2785	0.075	796557	keystroke_e	e	n/a
398.6385	0.075	797277	keystroke_c	c	n/a
399.8535	0.12	799707	keystroke_u	u	n/a
400.0185	0.12	800037	keystroke_a	a	n/a
400.3335	0.09	800667	keystroke_d	d	n/a
400.4235	0.0895	800847	keystroke_o	o	n/a
400.483	0.105	800966	keystroke_r	r	n/a
400.618	0.105	801236	keystroke_Key.space	Key.space	n/a
400.8435	0.075	801687	keystroke_a	a	n/a
401.0985	0.06	802197	keystroke_v	v	n/a
401.1735	0.09	802347	keystroke_o	o	n/a
401.2185	0.135	802437	keystroke_i	i	n/a
401.3385	0.09	802677	keystroke_d	d	n/a
401.5485	0.12	803097	keystroke_i	i	n/a
401.5935	0.12	803187	keystroke_n	n	n/a
401.6835	0.09	803367	keystroke_g	g	n/a
401.8185	0.105	803637	keystroke_Key.enter	Key.enter	n/a
401.9295	6.2355	803859	prompt	n/a	noise innovative debut checked\n
402.583	0.105	805166	keystroke_n	n	n/a
402.643	0.09	805286	keystroke_o	o	n/a
402.734	0.134	805468	keystroke_i	i	n/a
402.883	0.105	805766	keystroke_s	s	n/a
402.928	0.135	805856	keystroke_e	e	n/a
403.153	0.105	806306	keystroke_Key.space	Key.space	n/a
403.423	0.061	806846	keystroke_i	i	n/a
403.438	0.061	806876	keystroke_n	n	n/a
403.5735	0.0755	807147	keystroke_n	n	n/a
403.7085	0.135	807417	keystroke_o	o	n/a
403.8585	0.0605	807717	keystroke_v	v	n/a
403.979	0.105	807958	keystroke_a	a	n/a
404.189	0.12	808378	keystroke_t	t	n/a
404.264	0.09	808528	keystroke_e	e	n/a
404.459	0.015	808918	keystroke_d	d	n/a
404.729	0.0445	809458	keystroke_Key.backspace	Key.backspace	n/a
404.8335	0.09	809667	keystroke_Key.backspace	Key.backspace	n/a
405.1335	0.105	810267	keystroke_i	i	n/a
405.2235	0.105	810447	keystroke_v	v	n/a
405.2685	0.12	810537	keystroke_e	e	n/a
405.4035	0.09	810807	keystroke_Key.space	Key.space	n/a
405.779	0.06	811558	keystroke_d	d	n/a
406.139	0.06	812278	keystroke_e	e	n/a
406.379	0.135	812758	keystroke_b	b	n/a
406.484	0.15	812968	keystroke_u	u	n/a
406.619	0.075	813238	keystroke_t	t	n/a
406.724	0.105	813448	keystroke_Key.space	Key.space	n/a
407.024	0.06	814048	keystroke_c	c	n/a
407.084	0.075	814168	keystroke_h	h	n/a
407.174	0.12	814348	keystroke_e	e	n/a
407.264	0.045	814528	keystroke_c	c	n/a
407.279	0.105	814558	keystroke_k	k	n/a
407.429	0.06	814858	keystroke_e	e	n/a
407.8785	0.075	815757	keystroke_d	d	n/a
408.0735	0.09	816147	keystroke_Key.enter	Key.enter	n/a
408.168	5.412	816336	prompt	n/a	participating bend regime findlaw\n
408.7485	0.105	817497	keystroke_p	p	n/a
408.8535	0.09	817707	keystroke_a	a	n/a
408.9135	0.075	817827	keystroke_r	r	n/a
409.1085	0.075	818217	keystroke_t	t	n/a
409.1685	0.105	818337	keystroke_i	i	n/a
409.4535	0.075	818907	keystroke_c	c	n/a
409.5135	0.09	819027	keystroke_i	i	n/a
409.8135	0.105	819627	keystroke_p	p	n/a
409.9035	0.09	819807	keystroke_a	a	n/a
410.0985	0.06	820197	keystroke_t	t	n/a
410.1435	0.12	820287	keystroke_i	i	n/a
410.2035	0.12	820407	keystroke_n	n	n/a
410.3385	0.105	820677	keystroke_g	g	n/a
410.4285	0.075	820857	keystroke_Key.space	Key.space	n/a
410.5635	0.105	821127	keystroke_b	b	n/a
410.6385	0.075	821277	keystroke_e	e	n/a
410.7585	0.09	821517	keystroke_n	n	n/a
410.8185	0.09	821637	keystroke_d	d	n/a
410.9535	0.075	821907	keystroke_Key.space	Key.space	n/a
411.1335	0.105	822267	keystroke_r	r	n/a
411.1935	0.09	822387	keystroke_e	e	n/a
411.4335	0.09	822867	keystroke_g	g	n/a
411.5385	0.135	823077	keystroke_i	i	n/a
411.6135	0.12	823227	keystroke_m	m	n/a
411.7935	0.06	823587	keystroke_e	e	n/a
411.9885	0.09	823977	keystroke_Key.space	Key.space	n/a
412.3785	0.0445	824757	keystroke_f	f	n/a
412.439	0.119	824878	keystroke_i	i	n/a
412.483	0.15	824966	keystroke_n	n	n/a
412.618	0.075	825236	keystroke_d	d	n/a
412.933	0.105	825866	keystroke_l	l	n/a
413.023	0.135	826046	keystroke_a	a	n/a
413.128	0.135	826256	keystroke_w	w	n/a
413.488	0.09	826976	keystroke_Key.enter	Key.enter	n/a
413.583	7.512	827166	prompt	n/a	dentists closest search scenes\n
414.163	0.075	828326	keystroke_d	d	n/a
414.328	0.09	828656	keystroke_e	e	n/a
414.403	0.09	828806	keystroke_n	n	n/a
414.673	0.075	829346	keystroke_t	t	n/a
414.763	0.076	829526	keystroke_i	i	n/a
414.928	0.165	829856	keystroke_t	t	n/a
415.064	0.149	830128	keystroke_s	s	n/a
415.243	0.045	830486	keystroke_t	t	n/a
415.468	0.06	830936	keystroke_Key.backspace	Key.backspace	n/a
415.603	0.06	831206	keystroke_Key.backspace	Key.backspace	n/a
415.7385	0.12	831477	keystroke_Key.backspace	Key.backspace	n/a
415.8135	0.09	831627	keystroke_s	s	n/a
415.8735	0.12	831747	keystroke_t	t	n/a
415.9785	0.09	831957	keystroke_s	s	n/a
416.3535	0.105	832707	keystroke_Key.space	Key.space	n/a
416.7135	0.075	833427	keystroke_c	c	n/a
416.7735	0.06	833547	keystroke_l	l	n/a
416.8935	0.105	833787	keystroke_o	o	n/a
416.9685	0.18	833937	keystroke_s	s	n/a
417.0435	0.165	834087	keystroke_e	e	n/a
417.1635	0.09	834327	keystroke_t	t	n/a
417.2985	0.1195	834597	keystroke_s	s	n/a
417.643	0.045	835286	keystroke_Key.backspace	Key.backspace	n/a
417.778	0.06	835556	keystroke_Key.backspace	Key.backspace	n/a
417.853	0.09	835706	keystroke_s	s	n/a
417.883	0.075	835766	keystroke_t	t	n/a
418.003	0.09	836006	keystroke_Key.space	Key.space	n/a
418.873	0.09	837746	keystroke_s	s	n/a
419.068	0.12	838136	keystroke_e	e	n/a
419.158	0.12	838316	keystroke_a	a	n/a
419.293	0.075	838586	keystroke_r	r	n/a
419.534	0.09	839068	keystroke_c	c	n/a
419.609	0.12	839218	keystroke_h	h	n/a
419.744	0.12	839488	keystroke_Key.space	Key.space	n/a
420.029	0.105	840058	keystroke_s	s	n/a
420.119	0.075	840238	keystroke_c	c	n/a
420.299	0.075	840598	keystroke_e	e	n/a
420.389	0.09	840778	keystroke_n	n	n/a
420.494	0.09	840988	keystroke_e	e	n/a
420.9285	0.075	841857	keystroke_s	s	n/a
421.0035	0.09	842007	keystroke_Key.enter	Key.enter	n/a
421.098	7.677	842196	prompt	n/a	controversial delegation mounting ethical\n
421.874	0.09	843748	keystroke_c	c	n/a
421.934	0.105	843868	keystroke_o	o	n/a
421.979	0.105	843958	keystroke_n	n	n/a
422.189	0.105	844378	keystroke_t	t	n/a
422.249	0.09	844498	keystroke_r	r	n/a
422.324	0.09	844648	keystroke_o	o	n/a
422.924	0.075	845848	keystroke_v	v	n/a
423.119	0.075	846238	keystroke_e	e	n/a
423.179	0.06	846358	keystroke_r	r	n/a
423.359	0.105	846718	keystroke_s	s	n/a
423.449	0.075	846898	keystroke_i	i	n/a
423.554	0.12	847108	keystroke_a	a	n/a
423.703	0.091	847406	keystroke_l	l	n/a
423.898	0.105	847796	keystroke_Key.space	Key.space	n/a
424.094	0.059	848188	keystroke_d	d	n/a
424.229	0.075	848458	keystroke_e	e	n/a
424.319	0.074	848638	keystroke_l	l	n/a
424.379	0.105	848758	keystroke_e	e	n/a
424.799	0.09	849598	keystroke_g	g	n/a
424.873	0.091	849746	keystroke_a	a	n/a
425.084	0.075	850168	keystroke_t	t	n/a
425.114	0.149	850228	keystroke_i	i	n/a
425.234	0.105	850468	keystroke_o	o	n/a
425.234	0.1645	850468	keystroke_n	n	n/a
425.3835	0.09	850767	keystroke_Key.space	Key.space	n/a
425.5935	0.105	851187	keystroke_o	o	n/a
426.013	0.061	852026	keystroke_Key.backspace	Key.backspace	n/a
426.238	0.075	852476	keystroke_m	m	n/a
426.328	0.15	852656	keystroke_o	o	n/a
426.449	0.075	852898	keystroke_u	u	n/a
426.659	0.075	853318	keystroke_n	n	n/a
426.899	0.075	853798	keystroke_t	t	n/a
427.034	0.105	854068	keystroke_i	i	n/a
427.0935	0.105	854187	keystroke_n	n	n/a
427.2285	0.0905	854457	keystroke_g	g	n/a
427.454	0.1195	854908	keystroke_Key.space	Key.space	n/a
427.7385	0.075	855477	keystroke_e	e	n/a
428.0085	0.06	856017	keystroke_t	t	n/a
428.0535	0.105	856107	keystroke_h	h	n/a
428.1135	0.15	856227	keystroke_i	i	n/a
428.3385	0.12	856677	keystroke_c	c	n/a
428.3985	0.12	856797	keystroke_a	a	n/a
428.4735	0.09	856947	keystroke_l	l	n/a
428.6835	0.09	857367	keystroke_Key.enter	Key.enter	n/a
428.7775	5.0825	857555	prompt	n/a	bought enabled or lithuania\n
429.3735	0.09	858747	keystroke_b	b	n/a
429.4935	0.12	858987	keystroke_o	o	n/a
429.5685	0.09	859137	keystroke_u	u	n/a
429.6735	0.075	859347	keystroke_g	g	n/a
429.7785	0.09	859557	keystroke_h	h	n/a
429.8535	0.075	859707	keystroke_t	t	n/a
429.9435	0.105	859887	keystroke_Key.space	Key.space	n/a
430.0785	0.075	860157	keystroke_e	e	n/a
430.1385	0.105	860277	keystroke_n	n	n/a
430.3485	0.09	860697	keystroke_a	a	n/a
430.5435	0.105	861087	keystroke_b	b	n/a
430.6335	0.1045	861267	keystroke_l	l	n/a
430.723	0.12	861446	keystroke_e	e	n/a
430.813	0.06	861626	keystroke_s	s	n/a
431.173	0.075	862346	keystroke_Key.backspace	Key.backspace	n/a
431.293	0.09	862586	keystroke_d	d	n/a
431.443	0.075	862886	keystroke_Key.space	Key.space	n/a
431.6685	0.1045	863337	keystroke_o	o	n/a
431.8035	0.09	863607	keystroke_r	r	n/a
431.923	0.105	863846	keystroke_Key.space	Key.space	n/a
432.1635	0.12	864327	keystroke_l	l	n/a
432.2385	0.12	864477	keystroke_i	i	n/a
432.5085	0.09	865017	keystroke_t	t	n/a
432.584	0.1345	865168	keystroke_h	h	n/a
432.7035	0.12	865407	keystroke_u	u	n/a
433.2285	0.105	866457	keystroke_a	a	n/a
433.424	0.105	866848	keystroke_n	n	n/a
433.499	0.135	866998	keystroke_i	i	n/a
433.604	0.105	867208	keystroke_a	a	n/a
433.754	0.105	867508	keystroke_Key.enter	Key.enter	n/a
433.864	7.406	867728	prompt	n/a	queensland aboriginal directions stewart\n
434.729	0.105	869458	keystroke_q	q	n/a
434.819	0.09	869638	keystroke_u	u	n/a
434.954	0.045	869908	keystroke_e	e	n/a
