onset	duration	sample	value	key	prompt_text
4.7465	10.557	9493	prompt	n/a	the quick brown fox jumps over a lazy dog\n
6.017	0.028	12034	keystroke_t	t	n/a
6.06	0.1815	12120	keystroke_h	h	n/a
6.1955	0.091	12391	keystroke_e	e	n/a
6.3615	0.135	12723	keystroke_Key.space	Key.space	n/a
6.5115	0.09	13023	keystroke_q	q	n/a
6.6165	0.15	13233	keystroke_u	u	n/a
6.7365	0.135	13473	keystroke_i	i	n/a
6.8865	0.1195	13773	keystroke_c	c	n/a
7.636	0.03	15272	keystroke_Key.space	Key.space	n/a
8.1315	0.075	16263	keystroke_Key.backspace	Key.backspace	n/a
8.5215	0.135	17043	keystroke_k	k	n/a
8.8815	0.09	17763	keystroke_Key.space	Key.space	n/a
9.0315	0.135	18063	keystroke_b	b	n/a
9.1515	0.105	18303	keystroke_r	r	n/a
9.2865	0.12	18573	keystroke_o	o	n/a
9.6165	0.12	19233	keystroke_w	w	n/a
9.7515	0.15	19503	keystroke_n	n	n/a
9.9615	0.1055	19923	keystroke_Key.space	Key.space	n/a
10.1115	0.105	20223	keystroke_f	f	n/a
10.2615	0.135	20523	keystroke_o	o	n/a
10.5315	0.075	21063	keystroke_Key.space	Key.space	n/a
10.9365	0.1195	21873	keystroke_Key.backspace	Key.backspace	n/a
11.071	0.105	22142	keystroke_x	x	n/a
11.191	0.1205	22382	keystroke_Key.space	Key.space	n/a
11.4165	0.105	22833	keystroke_j	j	n/a
11.6415	0.105	23283	keystroke_u	u	n/a
11.881	0.105	23762	keystroke_m	m	n/a
12.166	0.135	24332	keystroke_p	p	n/a
12.4215	0.105	24843	keystroke_s	s	n/a
12.6315	0.09	25263	keystroke_Key.space	Key.space	n/a
12.7515	0.135	25503	keystroke_o	o	n/a
12.8265	0.12	25653	keystroke_v	v	n/a
13.0515	0.105	26103	keystroke_e	e	n/a
13.1115	0.12	26223	keystroke_r	r	n/a
13.2915	0.075	26583	keystroke_Key.space	Key.space	n/a
13.3815	0.09	26763	keystroke_a	a	n/a
13.5015	0.12	27003	keystroke_Key.space	Key.space	n/a
13.6515	0.165	27303	keystroke_l	l	n/a
13.7865	0.075	27573	keystroke_a	a	n/a
13.9815	0.105	27963	keystroke_z	z	n/a
14.2215	0.105	28443	keystroke_y	y	n/a
14.3565	0.135	28713	keystroke_Key.space	Key.space	n/a
14.5215	0.105	29043	keystroke_d	d	n/a
14.8815	0.135	29763	keystroke_o	o	n/a
15.0015	0.12	30003	keystroke_g	g	n/a
15.2265	0.075	30453	keystroke_Key.enter	Key.enter	n/a
15.308	5.32	30616	prompt	n/a	advert wanna seattle wind\n
16.1415	0.1355	32283	keystroke_a	a	n/a
16.307	0.045	32614	keystroke_d	d	n/a
16.501	0.09	33002	keystroke_v	v	n/a
16.727	0.09	33454	keystroke_e	e	n/a
16.771	0.12	33542	keystroke_r	r	n/a
17.011	0.045	34022	keystroke_t	t	n/a
17.176	0.12	34352	keystroke_Key.space	Key.space	n/a
17.356	0.136	34712	keystroke_w	w	n/a
17.522	0.12	35044	keystroke_a	a	n/a
17.672	0.0745	35344	keystroke_n	n	n/a
17.837	0.12	35674	keystroke_n	n	n/a
17.927	0.135	35854	keystroke_a	a	n/a
18.091	0.105	36182	keystroke_Key.space	Key.space	n/a
18.301	0.135	36602	keystroke_s	s	n/a
18.511	0.106	37022	keystroke_e	e	n/a
18.752	0.045	37504	keystroke_a	a	n/a
18.872	0.105	37744	keystroke_t	t	n/a
19.187	0.09	38374	keystroke_t	t	n/a
19.307	0.15	38614	keystroke_l	l	n/a
19.427	0.12	38854	keystroke_e	e	n/a
19.532	0.135	39064	keystroke_Key.space	Key.space	n/a
19.652	0.12	39304	keystroke_w	w	n/a
19.757	0.135	39514	keystroke_i	i	n/a
19.862	0.135	39724	keystroke_n	n	n/a
19.967	0.12	39934	keystroke_d	d	n/a
20.5515	0.075	41103	keystroke_Key.enter	Key.enter	n/a
20.631	7.2725	41262	prompt	n/a	starting sections reproductive lance\n
21.2115	0.135	42423	keystroke_s	s	n/a
21.5865	0.105	43173	keystroke_t	t	n/a
21.782	0.1945	43564	keystroke_a	a	n/a
22.0215	0.09	44043	keystroke_r	r	n/a
22.1865	0.09	44373	keystroke_t	t	n/a
22.2915	0.135	44583	keystroke_i	i	n/a
22.3815	0.18	44763	keystroke_n	n	n/a
22.4715	0.09	44943	keystroke_g	g	n/a
22.5915	0.165	45183	keystroke_Key.space	Key.space	n/a
22.7115	0.1655	45423	keystroke_s	s	n/a
22.862	0.09	45724	keystroke_e	e	n/a
23.087	0.09	46174	keystroke_c	c	n/a
23.2965	0.12	46593	keystroke_t	t	n/a
23.4015	0.135	46803	keystroke_i	i	n/a
23.5065	0.1645	47013	keystroke_o	o	n/a
23.566	0.226	47132	keystroke_n	n	n/a
23.716	0.12	47432	keystroke_s	s	n/a
23.821	0.15	47642	keystroke_Key.space	Key.space	n/a
24.031	0.12	48062	keystroke_r	r	n/a
24.106	0.151	48212	keystroke_e	e	n/a
24.3765	0.12	48753	keystroke_p	p	n/a
24.542	0.1645	49084	keystroke_o	o	n/a
24.9765	0.09	49953	keystroke_Key.backspace	Key.backspace	n/a
25.0815	0.105	50163	keystroke_r	r	n/a
25.2465	0.165	50493	keystroke_o	o	n/a
25.3515	0.12	50703	keystroke_d	d	n/a
25.5315	0.12	51063	keystroke_u	u	n/a
25.6215	0.09	51243	keystroke_c	c	n/a
25.8465	0.09	51693	keystroke_t	t	n/a
25.9515	0.15	51903	keystroke_i	i	n/a
26.1165	0.06	52233	keystroke_v	v	n/a
26.2815	0.1055	52563	keystroke_e	e	n/a
26.416	0.135	52832	keystroke_Key.space	Key.space	n/a
26.627	0.135	53254	keystroke_l	l	n/a
26.686	0.106	53372	keystroke_a	a	n/a
26.852	0.15	53704	keystroke_n	n	n/a
27.4515	0.09	54903	keystroke_c	c	n/a
27.587	0.12	55174	keystroke_e	e	n/a
27.8115	0.09	55623	keystroke_Key.enter	Key.enter	n/a
27.9065	6.642	55813	prompt	n/a	related conservative goods consoles\n
28.5915	0.1355	57183	keystroke_r	r	n/a
28.6965	0.1205	57393	keystroke_e	e	n/a
28.937	0.1345	57874	keystroke_l	l	n/a
29.012	0.0745	58024	keystroke_a	a	n/a
29.1915	0.075	58383	keystroke_t	t	n/a
29.2665	0.12	58533	keystroke_e	e	n/a
29.5215	0.105	59043	keystroke_d	d	n/a
29.6415	0.105	59283	keystroke_Key.space	Key.space	n/a
29.807	0.15	59614	keystroke_c	c	n/a
29.972	0.1495	59944	keystroke_o	o	n/a
30.0765	0.165	60153	keystroke_n	n	n/a
30.2265	0.12	60453	keystroke_s	s	n/a
30.3315	0.165	60663	keystroke_e	e	n/a
30.4665	0.12	60933	keystroke_r	r	n/a
30.7665	0.105	61533	keystroke_v	v	n/a
30.9915	0.075	61983	keystroke_a	a	n/a
31.1415	0.105	62283	keystroke_t	t	n/a
31.2475	0.149	62495	keystroke_i	i	n/a
31.4265	0.105	62853	keystroke_v	v	n/a
31.6065	0.075	63213	keystroke_e	e	n/a
31.7415	0.09	63483	keystroke_Key.space	Key.space	n/a
32.0115	0.12	64023	keystroke_g	g	n/a
32.1765	0.06	64353	keystroke_o	o	n/a
32.3265	0.12	64653	keystroke_o	o	n/a
32.4015	0.09	64803	keystroke_d	d	n/a
32.6715	0.105	65343	keystroke_s	s	n/a
32.882	0.135	65764	keystroke_Key.space	Key.space	n/a
33.122	0.12	66244	keystroke_c	c	n/a
33.212	0.15	66424	keystroke_o	o	n/a
33.317	0.15	66634	keystroke_n	n	n/a
33.512	0.105	67024	keystroke_s	s	n/a
33.602	0.06	67204	keystroke_o	o	n/a
33.797	0.134	67594	keystroke_l	l	n/a
33.947	0.165	67894	keystroke_e	e	n/a
34.2165	0.09	68433	keystroke_s	s	n/a
34.4565	0.09	68913	keystroke_Key.enter	Key.enter	n/a
34.5515	4.962	69103	prompt	n/a	outcome automatic front brings\n
35.1465	0.12	70293	keystroke_o	o	n/a
35.2815	0.135	70563	keystroke_u	u	n/a
35.4015	0.075	70803	keystroke_t	t	n/a
35.672	0.12	71344	keystroke_c	c	n/a
35.7315	0.1505	71463	keystroke_o	o	n/a
35.807	0.21	71614	keystroke_m	m	n/a
35.942	0.105	71884	keystroke_e	e	n/a
36.062	0.15	72124	keystroke_Key.space	Key.space	n/a
36.197	0.12	72394	keystroke_a	a	n/a
36.437	0.105	72874	keystroke_u	u	n/a
36.587	0.12	73174	keystroke_t	t	n/a
36.722	0.105	73444	keystroke_o	o	n/a
36.9015	0.15	73803	keystroke_m	m	n/a
37.0365	0.09	74073	keystroke_a	a	n/a
37.2015	0.105	74403	keystroke_t	t	n/a
37.3215	0.135	74643	keystroke_i	i	n/a
37.4865	0.105	74973	keystroke_c	c	n/a
37.6065	0.12	75213	keystroke_Key.space	Key.space	n/a
37.7115	0.1205	75423	keystroke_f	f	n/a
37.937	0.105	75874	keystroke_r	r	n/a
38.042	0.15	76084	keystroke_o	o	n/a
38.117	0.21	76234	keystroke_n	n	n/a
38.252	0.09	76504	keystroke_t	t	n/a
38.372	0.1345	76744	keystroke_Key.space	Key.space	n/a
38.582	0.1345	77164	keystroke_b	b	n/a
38.7015	0.075	77403	keystroke_r	r	n/a
38.897	0.105	77794	keystroke_i	i	n/a
38.972	0.15	77944	keystroke_n	n	n/a
39.047	0.105	78094	keystroke_g	g	n/a
39.182	0.15	78364	keystroke_s	s	n/a
39.422	0.09	78844	keystroke_Key.enter	Key.enter	n/a
39.5165	5.817	79033	prompt	n/a	state providing values engineer\n
40.067	0.09	80134	keystroke_s	s	n/a
40.172	0.12	80344	keystroke_t	t	n/a
40.3365	0.135	80673	keystroke_a	a	n/a
40.4565	0.12	80913	keystroke_t	t	n/a
40.6065	0.15	81213	keystroke_e	e	n/a
40.802	0.105	81604	keystroke_Key.space	Key.space	n/a
40.952	0.12	81904	keystroke_p	p	n/a
41.0565	0.105	82113	keystroke_r	r	n/a
41.1765	0.12	82353	keystroke_o	o	n/a
41.3415	0.045	82683	keystroke_d	d	n/a
41.7315	0.06	83463	keystroke_Key.backspace	Key.backspace	n/a
41.852	0.0895	83704	keystroke_v	v	n/a
41.9865	0.12	83973	keystroke_i	i	n/a
42.0765	0.09	84153	keystroke_d	d	n/a
42.4965	0.15	84993	keystroke_i	i	n/a
42.5865	0.18	85173	keystroke_n	n	n/a
42.7365	0.105	85473	keystroke_g	g	n/a
42.8415	0.1205	85683	keystroke_Key.space	Key.space	n/a
42.977	0.105	85954	keystroke_v	v	n/a
43.2015	0.105	86403	keystroke_a	a	n/a
43.2615	0.09	86523	keystroke_l	l	n/a
43.4565	0.1205	86913	keystroke_u	u	n/a
43.547	0.165	87094	keystroke_e	e	n/a
43.667	0.12	87334	keystroke_s	s	n/a
43.802	0.09	87604	keystroke_Key.space	Key.space	n/a
43.877	0.12	87754	keystroke_e	e	n/a
44.042	0.12	88084	keystroke_n	n	n/a
44.147	0.105	88294	keystroke_g	g	n/a
44.282	0.135	88564	keystroke_i	i	n/a
44.507	0.105	89014	keystroke_n	n	n/a
44.747	0.09	89494	keystroke_e	e	n/a
44.897	0.1495	89794	keystroke_e	e	n/a
44.9865	0.15	89973	keystroke_r	r	n/a
45.2565	0.075	90513	keystroke_Key.enter	Key.enter	n/a
45.3375	7.0305	90675	prompt	n/a	themes bound elementary plymouth\n
45.8865	0.12	91773	keystroke_t	t	n/a
46.1265	0.1205	92253	keystroke_h	h	n/a
46.2015	0.1055	92403	keystroke_e	e	n/a
46.397	0.18	92794	keystroke_m	m	n/a
46.487	0.105	92974	keystroke_e	e	n/a
46.697	0.135	93394	keystroke_s	s	n/a
46.817	0.12	93634	keystroke_Key.space	Key.space	n/a
47.072	0.105	94144	keystroke_b	b	n/a
47.237	0.195	94474	keystroke_o	o	n/a
47.372	0.18	94744	keystroke_u	u	n/a
47.492	0.195	94984	keystroke_n	n	n/a
47.672	0.1195	95344	keystroke_d	d	n/a
47.7765	0.135	95553	keystroke_Key.space	Key.space	n/a
47.9715	0.105	95943	keystroke_e	e	n/a
48.1365	0.135	96273	keystroke_l	l	n/a
48.2565	0.105	96513	keystroke_e	e	n/a
48.5415	0.1355	97083	keystroke_m	m	n/a
48.962	0.06	97924	keystroke_n	n	n/a
49.322	0.06	98644	keystroke_Key.backspace	Key.backspace	n/a
49.397	0.105	98794	keystroke_e	e	n/a
49.607	0.09	99214	keystroke_n	n	n/a
49.667	0.09	99334	keystroke_t	t	n/a
49.877	0.195	99754	keystroke_a	a	n/a
49.997	0.105	99994	keystroke_r	r	n/a
50.222	0.075	100444	keystroke_y	y	n/a
50.372	0.12	100744	keystroke_Key.space	Key.space	n/a
50.537	0.105	101074	keystroke_p	p	n/a
50.762	0.135	101524	keystroke_l	l	n/a
51.092	0.09	102184	keystroke_y	y	n/a
51.422	0.165	102844	keystroke_m	m	n/a
51.602	0.15	103204	keystroke_o	o	n/a
51.812	0.1195	103624	keystroke_u	u	n/a
51.9765	0.06	103953	keystroke_t	t	n/a
52.0065	0.135	104013	keystroke_h	h	n/a
52.307	0.06	104614	keystroke_Key.enter	Key.enter	n/a
52.373	6.7905	104746	prompt	n/a	bras walt resolutions vacuum\n
52.982	0.135	105964	keystroke_b	b	n/a
53.102	0.105	106204	keystroke_r	r	n/a
53.267	0.135	106534	keystroke_a	a	n/a
53.5065	0.075	107013	keystroke_s	s	n/a
53.6115	0.105	107223	keystroke_Key.space	Key.space	n/a
53.7315	0.165	107463	keystroke_w	w	n/a
53.8515	0.135	107703	keystroke_a	a	n/a
54.0315	0.135	108063	keystroke_l	l	n/a
54.2415	0.12	108483	keystroke_t	t	n/a
54.4365	0.105	108873	keystroke_Key.space	Key.space	n/a
54.5865	0.1355	109173	keystroke_r	r	n/a
54.692	0.195	109384	keystroke_e	e	n/a
54.902	0.165	109804	keystroke_s	s	n/a
55.187	0.09	110374	keystroke_o	o	n/a
55.397	0.105	110794	keystroke_l	l	n/a
55.697	0.135	111394	keystroke_u	u	n/a
55.816	0.076	111632	keystroke_t	t	n/a
56.297	0.135	112594	keystroke_i	i	n/a
56.417	0.15	112834	keystroke_o	o	n/a
56.507	0.18	113014	keystroke_n	n	n/a
56.597	0.15	113194	keystroke_s	s	n/a
56.7315	0.1505	113463	keystroke_Key.space	Key.space	n/a
56.9715	0.105	113943	keystroke_v	v	n/a
57.2865	0.1055	114573	keystroke_a	a	n/a
57.527	0.0745	115054	keystroke_c	c	n/a
57.7065	0.1055	115413	keystroke_c	c	n/a
58.1265	0.075	116253	keystroke_Key.backspace	Key.backspace	n/a
58.4275	0.059	116855	keystroke_u	u	n/a
58.5615	0.09	117123	keystroke_u	u	n/a
58.7865	0.1205	117573	keystroke_m	m	n/a
59.087	0.075	118174	keystroke_Key.enter	Key.enter	n/a
59.1665	7.437	118333	prompt	n/a	consortium gauge escape croatia\n
59.762	0.12	119524	keystroke_c	c	n/a
59.822	0.15	119644	keystroke_o	o	n/a
59.912	0.1655	119824	keystroke_n	n	n/a
60.0625	0.09	120125	keystroke_s	s	n/a
60.1975	0.135	120395	keystroke_o	o	n/a
60.3175	0.09	120635	keystroke_r	r	n/a
60.5125	0.135	121025	keystroke_t	t	n/a
60.6925	0.06	121385	keystroke_u	u	n/a
61.0215	0.075	122043	keystroke_Key.backspace	Key.backspace	n/a
61.2775	0.089	122555	keystroke_i	i	n/a
61.4715	0.075	122943	keystroke_u	u	n/a
61.7115	0.1355	123423	keystroke_m	m	n/a
61.832	0.12	123664	keystroke_Key.space	Key.space	n/a
61.967	0.12	123934	keystroke_g	g	n/a
62.237	0.09	124474	keystroke_a	a	n/a
62.312	0.105	124624	keystroke_u	u	n/a
62.462	0.105	124924	keystroke_g	g	n/a
62.687	0.1495	125374	keystroke_e	e	n/a
62.8665	0.135	125733	keystroke_Key.space	Key.space	n/a
63.0165	0.165	126033	keystroke_e	e	n/a
63.1215	0.165	126243	keystroke_s	s	n/a
63.4065	0.105	126813	keystroke_c	c	n/a
63.557	0.1045	127114	keystroke_a	a	n/a
63.6915	0.135	127383	keystroke_p	p	n/a
63.8275	0.119	127655	keystroke_e	e	n/a
64.0365	0.1205	128073	keystroke_Key.space	Key.space	n/a
64.262	0.135	128524	keystroke_c	c	n/a
64.5315	0.1055	129063	keystroke_r	r	n/a
64.652	0.1345	129304	keystroke_o	o	n/a
64.8315	0.12	129663	keystroke_a	a	n/a
65.927	0.09	131854	keystroke_t	t	n/a
66.167	0.105	132334	keystroke_i	i	n/a
66.257	0.12	132514	keystroke_a	a	n/a
66.512	0.09	133024	keystroke_Key.enter	Key.enter	n/a
66.6065	9.2365	133213	prompt	n/a	stakeholders testimonials coaches country\n
67.187	0.12	134374	keystroke_s	s	n/a
67.412	0.09	134824	keystroke_t	t	n/a
67.517	0.1945	135034	keystroke_a	a	n/a
67.6515	0.075	135303	keystroke_t	t	n/a
68.027	0.1195	136054	keystroke_k	k	n/a
68.222	0.045	136444	keystroke_e	e	n/a
68.462	0.059	136924	keystroke_Key.backspace	Key.backspace	n/a
68.611	0.0905	137222	keystroke_Key.backspace	Key.backspace	n/a
68.7765	0.06	137553	keystroke_Key.backspace	Key.backspace	n/a
69.0165	0.12	138033	keystroke_k	k	n/a
69.1515	0.1055	138303	keystroke_e	e	n/a
69.317	0.15	138634	keystroke_Key.space	Key.space	n/a
69.7965	0.06	139593	keystroke_Key.backspace	Key.backspace	n/a
70.0525	0.119	140105	keystroke_h	h	n/a
70.1865	0.09	140373	keystroke_o	o	n/a
70.3975	0.1185	140795	keystroke_l	l	n/a
70.4275	0.119	140855	keystroke_d	d	n/a
70.6825	0.149	141365	keystroke_e	e	n/a
70.7865	0.165	141573	keystroke_r	r	n/a
70.9365	0.12	141873	keystroke_s	s	n/a
71.0715	0.12	142143	keystroke_Key.space	Key.space	n/a
71.2065	0.15	142413	keystroke_t	t	n/a
71.3415	0.21	142683	keystroke_e	e	n/a
71.5365	0.18	143073	keystroke_s	s	n/a
71.7015	0.135	143403	keystroke_t	t	n/a
71.8665	0.105	143733	keystroke_i	i	n/a
72.1065	0.15	144213	keystroke_m	m	n/a
72.2865	0.1655	144573	keystroke_o	o	n/a
72.377	0.165	144754	keystroke_n	n	n/a
72.572	0.135	145144	keystroke_i	i	n/a
72.692	0.15	145384	keystroke_a	a	n/a
72.857	0.18	145714	keystroke_l	l	n/a
72.977	0.15	145954	keystroke_s	s	n/a
73.127	0.12	146254	keystroke_Key.space	Key.space	n/a
73.322	0.12	146644	keystroke_c	c	n/a
73.427	0.12	146854	keystroke_o	o	n/a
73.847	0.1195	147694	keystroke_a	a	n/a
74.1015	0.105	148203	keystroke_c	c	n/a
74.2215	0.105	148443	keystroke_h	h	n/a
74.3415	0.135	148683	keystroke_e	e	n/a
74.4015	0.135	148803	keystroke_s	s	n/a
74.5515	0.105	149103	keystroke_Key.space	Key.space	n/a
74.7165	0.135	149433	keystroke_c	c	n/a
74.8215	0.135	149643	keystroke_o	o	n/a
74.9415	0.12	149883	keystroke_u	u	n/a
75.0015	0.18	150003	keystroke_n	n	n/a
75.1065	0.09	150213	keystroke_t	t	n/a
75.3015	0.09	150603	keystroke_r	r	n/a
75.5115	0.12	151023	keystroke_y	y	n/a
75.7515	0.09	151503	keystroke_Key.enter	Key.enter	n/a
75.846	7.317	151692	prompt	n/a	basically especially permanent peeing\n
76.532	0.12	153064	keystroke_b	b	n/a
76.622	0.105	153244	keystroke_a	a	n/a
76.817	0.105	153634	keystroke_s	s	n/a
76.907	0.12	153814	keystroke_i	i	n/a
77.042	0.135	154084	keystroke_c	c	n/a
77.192	0.12	154384	keystroke_a	a	n/a
77.282	0.12	154564	keystroke_l	l	n/a
77.4915	0.1045	154983	keystroke_l	l	n/a
77.5665	0.121	155133	keystroke_y	y	n/a
77.7765	0.09	155553	keystroke_Key.space	Key.space	n/a
77.8965	0.165	155793	keystroke_e	e	n/a
78.0165	0.15	156033	keystroke_s	s	n/a
78.1815	0.1055	156363	keystroke_p	p	n/a
78.407	0.105	156814	keystroke_c	c	n/a
78.7815	0.105	157563	keystroke_Key.backspace	Key.backspace	n/a
79.1115	0.09	158223	keystroke_e	e	n/a
79.3215	0.15	158643	keystroke_c	c	n/a
79.4565	0.12	158913	keystroke_i	i	n/a
79.6365	0.12	159273	keystroke_a	a	n/a
79.7715	0.105	159543	keystroke_l	l	n/a
79.9515	0.135	159903	keystroke_l	l	n/a
80.0715	0.105	160143	keystroke_y	y	n/a
80.2515	0.1195	160503	keystroke_Key.space	Key.space	n/a
80.582	0.12	161164	keystroke_p	p	n/a
80.672	0.21	161344	keystroke_e	e	n/a
80.852	0.135	161704	keystroke_r	r	n/a
81.047	0.135	162094	keystroke_m	m	n/a
81.167	0.105	162334	keystroke_a	a	n/a
81.317	0.12	162634	keystroke_n	n	n/a
81.602	0.105	163204	keystroke_e	e	n/a
81.7515	0.12	163503	keystroke_n	n	n/a
81.8565	0.105	163713	keystroke_t	t	n/a
82.0065	0.12	164013	keystroke_Key.space	Key.space	n/a
82.2015	0.1205	164403	keystroke_p	p	n/a
82.352	0.105	164704	keystroke_e	e	n/a
82.532	0.09	165064	keystroke_e	e	n/a
82.607	0.12	165214	keystroke_i	i	n/a
82.697	0.165	165394	keystroke_n	n	n/a
82.802	0.105	165604	keystroke_g	g	n/a
83.072	0.09	166144	keystroke_Key.enter	Key.enter	n/a
83.1665	8.3815	166333	prompt	n/a	specialties sphere picking bowling\n
83.7015	0.0905	167403	keystroke_s	s	n/a
83.822	0.12	167644	keystroke_p	p	n/a
83.957	0.09	167914	keystroke_e	e	n/a
84.197	0.1045	168394	keystroke_c	c	n/a
84.272	0.1045	168544	keystroke_i	i	n/a
84.5265	0.1355	169053	keystroke_a	a	n/a
84.692	0.18	169384	keystroke_l	l	n/a
84.857	0.105	169714	keystroke_i	i	n/a
85.382	0.075	170764	keystroke_Key.backspace	Key.backspace	n/a
85.472	0.105	170944	keystroke_t	t	n/a
85.697	0.0745	171394	keystroke_i	i	n/a
85.8915	0.135	171783	keystroke_e	e	n/a
85.9815	0.165	171963	keystroke_s	s	n/a
86.1765	0.1355	172353	keystroke_Key.space	Key.space	n/a
86.3715	0.105	172743	keystroke_s	s	n/a
86.6715	0.1355	173343	keystroke_p	p	n/a
86.927	0.1345	173854	keystroke_h	h	n/a
87.0765	0.0755	174153	keystroke_e	e	n/a
87.4515	0.135	174903	keystroke_r	r	n/a
87.5565	0.12	175113	keystroke_e	e	n/a
87.7365	0.0755	175473	keystroke_Key.space	Key.space	n/a
87.857	0.12	175714	keystroke_p	p	n/a
88.052	0.12	176104	keystroke_c	c	n/a
88.187	0.105	176374	keystroke_i	i	n/a
88.547	0.06	177094	keystroke_Key.backspace	Key.backspace	n/a
88.697	0.06	177394	keystroke_Key.backspace	Key.backspace	n/a
88.937	0.075	177874	keystroke_i	i	n/a
88.967	0.135	177934	keystroke_c	c	n/a
89.132	0.12	178264	keystroke_k	k	n/a
89.447	0.135	178894	keystroke_i	i	n/a
89.567	0.15	179134	keystroke_n	n	n/a
89.717	0.1045	179434	keystroke_g	g	n/a
89.7915	0.12	179583	keystroke_Key.space	Key.space	n/a
89.9565	0.1355	179913	keystroke_b	b	n/a
90.347	0.09	180694	keystroke_o	o	n/a
90.512	0.09	181024	keystroke_w	w	n/a
90.617	0.09	181234	keystroke_l	l	n/a
90.962	0.12	181924	keystroke_i	i	n/a
91.127	0.12	182254	keystroke_n	n	n/a
91.262	0.12	182524	keystroke_g	g	n/a
91.457	0.09	182914	keystroke_Key.enter	Key.enter	n/a
91.551	10.497	183102	prompt	n/a	patents declaration museum advertisements\n
92.207	0.105	184414	keystroke_p	p	n/a
92.522	0.09	185044	keystroke_a	a	n/a
92.702	0.0895	185404	keystroke_t	t	n/a
92.8965	0.09	185793	keystroke_e	e	n/a
93.0015	0.12	186003	keystroke_n	n	n/a
93.1525	0.089	186305	keystroke_t	t	n/a
93.2265	0.15	186453	keystroke_s	s	n/a
93.4515	0.12	186903	keystroke_Key.space	Key.space	n/a
93.5565	0.09	187113	keystroke_d	d	n/a
93.7665	0.09	187533	keystroke_e	e	n/a
94.1115	0.12	188223	keystroke_c	c	n/a
94.2765	0.12	188553	keystroke_l	l	n/a
94.3975	0.104	188795	keystroke_a	a	n/a
94.6515	0.06	189303	keystroke_t	t	n/a
95.2815	0.06	190563	keystroke_Key.backspace	Key.backspace	n/a
95.3715	0.075	190743	keystroke_r	r	n/a
95.612	0.12	191224	keystroke_a	a	n/a
95.7615	0.075	191523	keystroke_t	t	n/a
95.8665	0.12	191733	keystroke_i	i	n/a
96.1665	0.06	192333	keystroke_i	i	n/a
96.2415	0.195	192483	keystroke_o	o	n/a
96.4215	0.165	192843	keystroke_n	n	n/a
96.8715	0.06	193743	keystroke_Key.backspace	Key.backspace	n/a
97.0365	0.045	194073	keystroke_Key.backspace	Key.backspace	n/a
97.1715	0.09	194343	keystroke_Key.backspace	Key.backspace	n/a
97.4565	0.12	194913	keystroke_o	o	n/a
97.6215	0.1505	195243	keystroke_n	n	n/a
97.7415	0.1355	195483	keystroke_Key.space	Key.space	n/a
97.967	0.135	195934	keystroke_m	m	n/a
98.252	0.105	196504	keystroke_s	s	n/a
98.327	0.075	196654	keystroke_u	u	n/a
98.642	0.06	197284	keystroke_Key.backspace	Key.backspace	n/a
98.777	0.075	197554	keystroke_Key.backspace	Key.backspace	n/a
99.047	0.09	198094	keystroke_u	u	n/a
99.122	0.105	198244	keystroke_s	s	n/a
99.317	0.135	198634	keystroke_e	e	n/a
99.437	0.075	198874	keystroke_u	u	n/a
99.662	0.1345	199324	keystroke_m	m	n/a
99.8115	0.1205	199623	keystroke_Key.space	Key.space	n/a
99.9165	0.195	199833	keystroke_a	a	n/a
100.0965	0.06	200193	keystroke_d	d	n/a
100.2765	0.105	200553	keystroke_v	v	n/a
100.4565	0.135	200913	keystroke_e	e	n/a
100.6065	0.09	201213	keystroke_r	r	n/a
100.7865	0.105	201573	keystroke_t	t	n/a
100.8765	0.1055	201753	keystroke_i	i	n/a
101.0415	0.135	202083	keystroke_s	s	n/a
101.117	0.1195	202234	keystroke_e	e	n/a
101.282	0.1345	202564	keystroke_m	m	n/a
101.402	0.075	202804	keystroke_e	e	n/a
101.5065	0.12	203013	keystroke_n	n	n/a
101.6115	0.0755	203223	keystroke_t	t	n/a
101.777	0.105	203554	keystroke_s	s	n/a
101.972	0.0745	203944	keystroke_Key.enter	Key.enter	n/a
102.052	6.536	204104	prompt	n/a	calculator hanging decisions odds\n
102.692	0.165	205384	keystroke_c	c	n/a
102.8715	0.1205	205743	keystroke_a	a	n/a
103.007	0.105	206014	keystroke_l	l	n/a
103.2915	0.12	206583	keystroke_c	c	n/a
103.4265	0.09	206853	keystroke_u	u	n/a
103.6365	0.1205	207273	keystroke_l	l	n/a
103.967	0.15	207934	keystroke_a	a	n/a
104.132	0.09	208264	keystroke_t	t	n/a
104.297	0.105	208594	keystroke_o	o	n/a
104.417	0.09	208834	keystroke_r	r	n/a
104.672	0.12	209344	keystroke_Key.space	Key.space	n/a
104.912	0.105	209824	keystroke_h	h	n/a
104.972	0.1045	209944	keystroke_a	a	n/a
105.1365	0.12	210273	keystroke_n	n	n/a
105.2415	0.09	210483	keystroke_g	g	n/a
105.3765	0.12	210753	keystroke_i	i	n/a
105.4365	0.195	210873	keystroke_n	n	n/a
105.5715	0.09	211143	keystroke_g	g	n/a
105.7065	0.12	211413	keystroke_Key.space	Key.space	n/a
105.7965	0.09	211593	keystroke_d	d	n/a
105.9765	0.09	211953	keystroke_e	e	n/a
106.307	0.1045	212614	keystroke_c	c	n/a
106.4565	0.135	212913	keystroke_i	i	n/a
106.5765	0.135	213153	keystroke_s	s	n/a
106.6965	0.12	213393	keystroke_i	i	n/a
106.7865	0.165	213573	keystroke_o	o	n/a
106.8765	0.165	213753	keystroke_n	n	n/a
106.9965	0.12	213993	keystroke_s	s	n/a
107.1315	0.135	214263	keystroke_Key.space	Key.space	n/a
107.2815	0.045	214563	keystroke_a	a	n/a
107.5815	0.075	215163	keystroke_Key.backspace	Key.backspace	n/a
107.8515	0.09	215703	keystroke_o	o	n/a
107.9115	0.09	215823	keystroke_d	d	n/a
108.0915	0.12	216183	keystroke_d	d	n/a
108.226	0.12	216452	keystroke_s	s	n/a
108.496	0.09	216992	keystroke_Key.enter	Key.enter	n/a
108.591	4.9775	217182	prompt	n/a	holder enters causing declare\n
109.157	0.135	218314	keystroke_h	h	n/a
109.322	0.105	218644	keystroke_o	o	n/a
109.547	0.135	219094	keystroke_l	l	n/a
109.637	0.075	219274	keystroke_d	d	n/a
109.847	0.15	219694	keystroke_e	e	n/a
109.937	0.12	219874	keystroke_r	r	n/a
110.072	0.105	220144	keystroke_Key.space	Key.space	n/a
110.192	0.1195	220384	keystroke_e	e	n/a
110.3265	0.15	220653	keystroke_n	n	n/a
110.4315	0.09	220863	keystroke_t	t	n/a
110.6115	0.135	221223	keystroke_e	e	n/a
110.7165	0.135	221433	keystroke_r	r	n/a
110.8815	0.18	221763	keystroke_s	s	n/a
111.1065	0.15	222213	keystroke_Key.space	Key.space	n/a
111.3315	0.105	222663	keystroke_c	c	n/a
111.4815	0.12	222963	keystroke_a	a	n/a
111.6165	0.09	223233	keystroke_u	u	n/a
111.7215	0.1205	223443	keystroke_s	s	n/a
111.856	0.136	223712	keystroke_i	i	n/a
111.961	0.195	223922	keystroke_n	n	n/a
112.066	0.121	224132	keystroke_g	g	n/a
112.187	0.1345	224374	keystroke_Key.space	Key.space	n/a
112.3065	0.105	224613	keystroke_d	d	n/a
112.5015	0.09	225003	keystroke_e	e	n/a
112.7415	0.105	225483	keystroke_c	c	n/a
112.8615	0.135	225723	keystroke_l	l	n/a
112.9215	0.165	225843	keystroke_a	a	n/a
113.0565	0.135	226113	keystroke_r	r	n/a
113.236	0.121	226472	keystroke_e	e	n/a
113.476	0.091	226952	keystroke_Key.enter	Key.enter	n/a
113.5725	5.9355	227145	prompt	n/a	defeat constraint assault going\n
114.152	0.0745	228304	keystroke_d	d	n/a
114.3315	0.0895	228663	keystroke_e	e	n/a
114.617	0.12	229234	keystroke_f	f	n/a
114.797	0.09	229594	keystroke_e	e	n/a
114.992	0.105	229984	keystroke_a	a	n/a
115.172	0.12	230344	keystroke_t	t	n/a
115.382	0.12	230764	keystroke_Key.space	Key.space	n/a
115.532	0.15	231064	keystroke_c	c	n/a
115.712	0.135	231424	keystroke_o	o	n/a
115.817	0.149	231634	keystroke_n	n	n/a
115.952	0.09	231904	keystroke_s	s	n/a
116.176	0.091	232352	keystroke_t	t	n/a
116.462	0.09	232924	keystroke_r	r	n/a
116.597	0.195	233194	keystroke_a	a	n/a
116.807	0.12	233614	keystroke_i	i	n/a
116.927	0.15	233854	keystroke_n	n	n/a
117.062	0.105	234124	keystroke_t	t	n/a
117.212	0.134	234424	keystroke_Key.space	Key.space	n/a
117.481	0.106	234962	keystroke_a	a	n/a
117.691	0.0765	235382	keystroke_s	s	n/a
117.8565	0.09	235713	keystroke_s	s	n/a
118.0825	0.104	236165	keystroke_a	a	n/a
118.1715	0.12	236343	keystroke_u	u	n/a
118.4265	0.15	236853	keystroke_l	l	n/a
118.4865	0.12	236973	keystroke_t	t	n/a
118.6365	0.1505	237273	keystroke_Key.space	Key.space	n/a
118.802	0.105	237604	keystroke_g	g	n/a
118.892	0.15	237784	keystroke_o	o	n/a
119.012	0.12	238024	keystroke_i	i	n/a
119.072	0.15	238144	keystroke_n	n	n/a
119.177	0.105	238354	keystroke_g	g	n/a
119.432	0.0745	238864	keystroke_Key.enter	Key.enter	n/a
119.511	3.732	239022	prompt	n/a	formerly continental ribbon collect\n
120.1515	0.09	240303	keystroke_f	f	n/a
120.2715	0.09	240543	keystroke_o	o	n/a
120.3765	0.12	240753	keystroke_r	r	n/a
120.5415	0.18	241083	keystroke_m	m	n/a
120.6915	0.165	241383	keystroke_e	e	n/a
120.7965	0.12	241593	keystroke_r	r	n/a
120.9765	0.165	241953	keystroke_l	l	n/a
121.1265	0.12	242253	keystroke_y	y	n/a
121.2915	0.135	242583	keystroke_Key.space	Key.space	n/a
121.4715	0.12	242943	keystroke_c	c	n/a
121.5765	0.105	243153	keystroke_o	o	n/a
121.6515	0.1345	243303	keystroke_n	n	n/a
121.802	0.105	243604	keystroke_t	t	n/a
121.877	0.15	243754	keystroke_i	i	n/a
121.982	0.15	243964	keystroke_n	n	n/a
122.267	0.105	244534	keystroke_e	e	n/a
122.387	0.135	244774	keystroke_n	n	n/a
122.507	0.105	245014	keystroke_t	t	n/a
122.7465	0.15	245493	keystroke_a	a	n/a
122.8815	0.09	245763	keystroke_l	l	n/a
123.1515	0.09	246303	keystroke_Key.enter	Key.enter	n/a
123.246	8.2325	246492	prompt	n/a	excellent caribbean protected technician\n
124.1415	0.075	248283	keystroke_e	e	n/a
124.3515	0.1205	248703	keystroke_x	x	n/a
124.577	0.165	249154	keystroke_c	c	n/a
124.727	0.105	249454	keystroke_e	e	n/a
124.892	0.09	249784	keystroke_l	l	n/a
125.057	0.105	250114	keystroke_l	l	n/a
125.132	0.105	250264	keystroke_e	e	n/a
125.297	0.165	250594	keystroke_n	n	n/a
125.447	0.0895	250894	keystroke_g	g	n/a
125.822	0.075	251644	keystroke_Key.backspace	Key.backspace	n/a
125.912	0.105	251824	keystroke_t	t	n/a
126.182	0.12	252364	keystroke_Key.space	Key.space	n/a
126.467	0.09	252934	keystroke_c	c	n/a
126.572	0.18	253144	keystroke_a	a	n/a
126.722	0.105	253444	keystroke_r	r	n/a
126.9615	0.09	253923	keystroke_i	i	n/a
127.1415	0.09	254283	keystroke_b	b	n/a
127.3065	0.135	254613	keystroke_b	b	n/a
127.3965	0.09	254793	keystroke_e	e	n/a
127.6065	0.1355	255213	keystroke_a	a	n/a
127.727	0.15	255454	keystroke_n	n	n/a
127.892	0.105	255784	keystroke_Key.space	Key.space	n/a
128.012	0.15	256024	keystroke_p	p	n/a
128.117	0.105	256234	keystroke_r	r	n/a
128.237	0.15	256474	keystroke_o	o	n/a
128.357	0.09	256714	keystroke_t	t	n/a
128.537	0.075	257074	keystroke_e	e	n/a
128.852	0.12	257704	keystroke_c	c	n/a
129.107	0.09	258214	keystroke_t	t	n/a
129.287	0.075	258574	keystroke_e	e	n/a
129.482	0.0895	258964	keystroke_d	d	n/a
129.5865	0.135	259173	keystroke_Key.space	Key.space	n/a
129.7665	0.105	259533	keystroke_t	t	n/a
129.9165	0.09	259833	keystroke_e	e	n/a
130.1265	0.165	260253	keystroke_c	c	n/a
130.2615	0.09	260523	keystroke_h	h	n/a
130.4865	0.09	260973	keystroke_n	n	n/a
130.6215	0.12	261243	keystroke_i	i	n/a
130.7565	0.12	261513	keystroke_c	c	n/a
130.8465	0.1055	261693	keystroke_i	i	n/a
130.997	0.135	261994	keystroke_a	a	n/a
131.132	0.105	262264	keystroke_n	n	n/a
131.387	0.09	262774	keystroke_Key.enter	Key.enter	n/a
131.481	7.2575	262962	prompt	n/a	advocate oecd clinics succeed\n
132.197	0.1495	264394	keystroke_a	a	n/a
132.6165	0.105	265233	keystroke_d	d	n/a
132.9625	0.104	265925	keystroke_v	v	n/a
133.0515	0.105	266103	keystroke_o	o	n/a
133.2315	0.106	266463	keystroke_c	c	n/a
133.4265	0.06	266853	keystroke_a	a	n/a
133.5775	0.119	267155	keystroke_t	t	n/a
133.6675	0.15	267335	keystroke_e	e	n/a
133.8315	0.105	267663	keystroke_Key.space	Key.space	n/a
133.9815	0.15	267963	keystroke_o	o	n/a
134.2365	0.06	268473	keystroke_c	c	n/a
134.5515	0.105	269103	keystroke_Key.backspace	Key.backspace	n/a
134.6415	0.075	269283	keystroke_e	e	n/a
134.8515	0.09	269703	keystroke_c	c	n/a
135.032	0.12	270064	keystroke_d	d	n/a
135.212	0.15	270424	keystroke_Key.space	Key.space	n/a
135.422	0.12	270844	keystroke_c	c	n/a
135.557	0.165	271114	keystroke_l	l	n/a
135.722	0.135	271444	keystroke_i	i	n/a
135.842	0.15	271684	keystroke_n	n	n/a
135.977	0.165	271954	keystroke_i	i	n/a
136.262	0.075	272524	keystroke_c	c	n/a
136.591	0.121	273182	keystroke_s	s	n/a
136.786	0.135	273572	keystroke_Key.space	Key.space	n/a
137.072	0.105	274144	keystroke_s	s	n/a
137.146	0.12	274292	keystroke_u	u	n/a
137.282	0.075	274564	keystroke_d	d	n/a
137.626	0.076	275252	keystroke_Key.backspace	Key.backspace	n/a
137.717	0.0895	275434	keystroke_c	c	n/a
137.9265	0.075	275853	keystroke_c	c	n/a
138.0615	0.09	276123	keystroke_e	e	n/a
138.2415	0.0755	276483	keystroke_e	e	n/a
138.407	0.12	276814	keystroke_d	d	n/a
138.632	0.105	277264	keystroke_Key.enter	Key.enter	n/a
138.7425	6.3105	277485	prompt	n/a	leather machines aggregate lanka\n
139.3965	0.1495	278793	keystroke_l	l	n/a
139.4265	0.1045	278853	keystroke_e	e	n/a
139.621	0.15	279242	keystroke_a	a	n/a
139.711	0.1055	279422	keystroke_t	t	n/a
139.8475	0.1185	279695	keystroke_h	h	n/a
139.951	0.15	279902	keystroke_e	e	n/a
140.027	0.134	280054	keystroke_r	r	n/a
140.131	0.105	280262	keystroke_Key.space	Key.space	n/a
140.3265	0.12	280653	keystroke_m	m	n/a
140.3865	0.12	280773	keystroke_a	a	n/a
140.5965	0.135	281193	keystroke_c	c	n/a
140.6865	0.105	281373	keystroke_h	h	n/a
140.7765	0.15	281553	keystroke_i	i	n/a
140.8965	0.165	281793	keystroke_n	n	n/a
140.9415	0.21	281883	keystroke_e	e	n/a
141.1365	0.12	282273	keystroke_s	s	n/a
141.4065	0.135	282813	keystroke_Key.space	Key.space	n/a
142.0815	0.105	284163	keystroke_a	a	n/a
142.3965	0.09	284793	keystroke_g	g	n/a
142.5915	0.09	285183	keystroke_g	g	n/a
142.8315	0.135	285663	keystroke_r	r	n/a
143.0265	0.12	286053	keystroke_e	e	n/a
143.2965	0.09	286593	keystroke_g	g	n/a
143.4615	0.12	286923	keystroke_a	a	n/a
143.6265	0.105	287253	keystroke_t	t	n/a
143.777	0.135	287554	keystroke_e	e	n/a
143.897	0.12	287794	keystroke_Key.space	Key.space	n/a
144.047	0.15	288094	keystroke_l	l	n/a
144.182	0.1045	288364	keystroke_a	a	n/a
144.3165	0.12	288633	keystroke_n	n	n/a
144.602	0.1195	289204	keystroke_k	k	n/a
144.7815	0.09	289563	keystroke_a	a	n/a
144.9765	0.075	289953	keystroke_Key.enter	Key.enter	n/a
145.056	5.952	290112	prompt	n/a	jury upgrades bill requirement\n
145.7415	0.09	291483	keystroke_j	j	n/a
145.937	0.12	291874	keystroke_u	u	n/a
146.042	0.075	292084	keystroke_r	r	n/a
146.267	0.1195	292534	keystroke_y	y	n/a
146.4465	0.09	292893	keystroke_Key.space	Key.space	n/a
146.6565	0.105	293313	keystroke_u	u	n/a
146.927	0.1045	293854	keystroke_p	p	n/a
147.0465	0.09	294093	keystroke_g	g	n/a
147.2565	0.105	294513	keystroke_r	r	n/a
147.4065	0.12	294813	keystroke_a	a	n/a
147.6165	0.09	295233	keystroke_d	d	n/a
147.872	0.075	295744	keystroke_e	e	n/a
147.932	0.165	295864	keystroke_s	s	n/a
148.142	0.105	296284	keystroke_Key.space	Key.space	n/a
148.352	0.105	296704	keystroke_b	b	n/a
148.547	0.09	297094	keystroke_i	i	n/a
148.756	0.091	297512	keystroke_l	l	n/a
148.921	0.136	297842	keystroke_l	l	n/a
149.042	0.15	298084	keystroke_Key.space	Key.space	n/a
149.207	0.09	298414	keystroke_r	r	n/a
149.357	0.09	298714	keystroke_e	e	n/a
149.5675	0.09	299135	keystroke_q	q	n/a
149.6875	0.104	299375	keystroke_u	u	n/a
149.7465	0.12	299493	keystroke_i	i	n/a
149.8965	0.135	299793	keystroke_r	r	n/a
150.2115	0.075	300423	keystroke_e	e	n/a
150.3465	0.12	300693	keystroke_m	m	n/a
150.4525	0.119	300905	keystroke_e	e	n/a
150.5575	0.134	301115	keystroke_n	n	n/a
150.6775	0.1185	301355	keystroke_t	t	n/a
150.931	0.075	301862	keystroke_Key.enter	Key.enter	n/a
151.0115	5.9365	302023	prompt	n/a	decades tours productive nikon\n
151.5465	0.09	303093	keystroke_d	d	n/a
151.7415	0.075	303483	keystroke_e	e	n/a
151.9665	0.105	303933	keystroke_c	c	n/a
152.0865	0.12	304173	keystroke_a	a	n/a
152.3115	0.09	304623	keystroke_d	d	n/a
152.5065	0.1805	305013	keystroke_e	e	n/a
152.657	0.1495	305314	keystroke_s	s	n/a
152.8215	0.12	305643	keystroke_Key.space	Key.space	n/a
152.9565	0.105	305913	keystroke_t	t	n/a
153.1215	0.15	306243	keystroke_o	o	n/a
153.2565	0.135	306513	keystroke_u	u	n/a
153.3765	0.09	306753	keystroke_r	r	n/a
153.6015	0.1505	307203	keystroke_s	s	n/a
153.767	0.1045	307534	keystroke_Key.space	Key.space	n/a
153.9915	0.1195	307983	keystroke_p	p	n/a
154.0665	0.0905	308133	keystroke_r	r	n/a
154.171	0.1205	308342	keystroke_o	o	n/a
154.3065	0.1205	308613	keystroke_d	d	n/a
154.5015	0.1055	309003	keystroke_u	u	n/a
154.592	0.12	309184	keystroke_c	c	n/a
154.847	0.0895	309694	keystroke_t	t	n/a
155.0115	0.105	310023	keystroke_i	i	n/a
155.1775	0.089	310355	keystroke_v	v	n/a
155.3565	0.135	310713	keystroke_e	e	n/a
155.5665	0.12	311133	keystroke_Key.space	Key.space	n/a
155.8815	0.15	311763	keystroke_n	n	n/a
156.0615	0.1045	312123	keystroke_i	i	n/a
156.287	0.105	312574	keystroke_k	k	n/a
156.452	0.18	312904	keystroke_o	o	n/a
156.572	0.12	313144	keystroke_n	n	n/a
156.8565	0.09	313713	keystroke_Key.enter	Key.enter	n/a
156.951	7.002	313902	prompt	n/a	wallpaper four accepting kurt\n
157.5015	0.12	315003	keystroke_w	w	n/a
157.6815	0.15	315363	keystroke_a	a	n/a
157.8015	0.075	315603	keystroke_l	l	n/a
157.9665	0.09	315933	keystroke_l	l	n/a
158.2065	0.105	316413	keystroke_p	p	n/a
158.3415	0.12	316683	keystroke_a	a	n/a
158.4765	0.105	316953	keystroke_p	p	n/a
158.5665	0.195	317133	keystroke_e	e	n/a
158.7165	0.15	317433	keystroke_r	r	n/a
158.8965	0.12	317793	keystroke_Key.space	Key.space	n/a
159.0015	0.105	318003	keystroke_f	f	n/a
159.1075	0.194	318215	keystroke_o	o	n/a
159.2715	0.09	318543	keystroke_r	r	n/a
159.3465	0.12	318693	keystroke_u	u	n/a
159.887	0.06	319774	keystroke_Key.backspace	Key.backspace	n/a
160.037	0.045	320074	keystroke_Key.backspace	Key.backspace	n/a
160.277	0.135	320554	keystroke_u	u	n/a
160.337	0.105	320674	keystroke_r	r	n/a
160.502	0.105	321004	keystroke_Key.space	Key.space	n/a
160.592	0.12	321184	keystroke_a	a	n/a
160.787	0.09	321574	keystroke_c	c	n/a
160.9665	0.075	321933	keystroke_c	c	n/a
161.4165	0.045	322833	keystroke_p	p	n/a
161.4915	0.06	322983	keystroke_e	e	n/a
161.7765	0.075	323553	keystroke_Key.backspace	Key.backspace	n/a
161.9265	0.06	323853	keystroke_Key.backspace	Key.backspace	n/a
162.0165	0.105	324033	keystroke_e	e	n/a
162.2115	0.06	324423	keystroke_p	p	n/a
162.287	0.0895	324574	keystroke_t	t	n/a
162.4665	0.15	324933	keystroke_i	i	n/a
162.5865	0.15	325173	keystroke_n	n	n/a
162.7215	0.105	325443	keystroke_g	g	n/a
162.8565	0.1355	325713	keystroke_Key.space	Key.space	n/a
163.1565	0.12	326313	keystroke_k	k	n/a
163.3815	0.12	326763	keystroke_u	u	n/a
163.457	0.0895	326914	keystroke_r	r	n/a
163.6515	0.105	327303	keystroke_t	t	n/a
163.8765	0.075	327753	keystroke_Key.enter	Key.enter	n/a
163.9555	8.0825	327911	prompt	n/a	spectrum line fixtures markers\n
164.6115	0.15	329223	keystroke_s	s	n/a
164.7915	0.105	329583	keystroke_p	p	n/a
164.9115	0.105	329823	keystroke_e	e	n/a
165.1515	0.12	330303	keystroke_c	c	n/a
165.2565	0.09	330513	keystroke_i	i	n/a
165.5265	0.075	331053	keystroke_t	t	n/a
165.7215	0.12	331443	keystroke_r	r	n/a
165.8415	0.075	331683	keystroke_u	u	n/a
166.1715	0.09	332343	keystroke_m	m	n/a
166.3515	0.105	332703	keystroke_Key.space	Key.space	n/a
166.5615	0.195	333123	keystroke_l	l	n/a
166.7415	0.15	333483	keystroke_i	i	n/a
166.8465	0.1805	333693	keystroke_n	n	n/a
167.042	0.105	334084	keystroke_e	e	n/a
167.177	0.135	334354	keystroke_Key.space	Key.space	n/a
167.612	0.105	335224	keystroke_f	f	n/a
167.972	0.09	335944	keystroke_e	e	n/a
168.391	0.076	336782	keystroke_Key.backspace	Key.backspace	n/a
168.646	0.121	337292	keystroke_i	i	n/a
168.901	0.076	337802	keystroke_c	c	n/a
169.2615	0.09	338523	keystroke_Key.backspace	Key.backspace	n/a
169.3665	0.1055	338733	keystroke_x	x	n/a
169.7115	0.105	339423	keystroke_t	t	n/a
169.8915	0.12	339783	keystroke_u	u	n/a
170.0125	0.119	340025	keystroke_r	r	n/a
170.1465	0.105	340293	keystroke_e	e	n/a
170.5365	0.105	341073	keystroke_s	s	n/a
170.6865	0.12	341373	keystroke_Key.space	Key.space	n/a
171.0015	0.135	342003	keystroke_m	m	n/a
171.1065	0.12	342213	keystroke_a	a	n/a
171.2275	0.104	342455	keystroke_r	r	n/a
171.3165	0.135	342633	keystroke_k	k	n/a
171.4525	0.164	342905	keystroke_e	e	n/a
171.5265	0.15	343053	keystroke_r	r	n/a
171.7215	0.1355	343443	keystroke_s	s	n/a
171.977	0.06	343954	keystroke_Key.enter	Key.enter	n/a
172.041	6.852	344082	prompt	n/a	agriculture lakes lewis younger\n
172.8765	0.075	345753	keystroke_a	a	n/a
173.0865	0.075	346173	keystroke_r	r	n/a
173.4015	0.09	346803	keystroke_Key.backspace	Key.backspace	n/a
173.5075	0.089	347015	keystroke_g	g	n/a
173.7615	0.105	347523	keystroke_r	r	n/a
173.8815	0.105	347763	keystroke_i	i	n/a
174.0765	0.135	348153	keystroke_c	c	n/a
174.1965	0.0905	348393	keystroke_u	u	n/a
174.422	0.12	348844	keystroke_l	l	n/a
174.6165	0.105	349233	keystroke_t	t	n/a
174.7965	0.12	349593	keystroke_u	u	n/a
174.9315	0.1505	349863	keystroke_r	r	n/a
175.097	0.104	350194	keystroke_e	e	n/a
175.246	0.09	350492	keystroke_Key.space	Key.space	n/a
175.382	0.135	350764	keystroke_l	l	n/a
175.471	0.105	350942	keystroke_a	a	n/a
175.592	0.164	351184	keystroke_k	k	n/a
175.742	0.15	351484	keystroke_e	e	n/a
175.801	0.1805	351602	keystroke_s	s	n/a
175.9515	0.12	351903	keystroke_Key.space	Key.space	n/a
176.1315	0.136	352263	keystroke_l	l	n/a
176.4765	0.15	352953	keystroke_e	e	n/a
176.9575	0.104	353915	keystroke_w	w	n/a
177.1225	0.134	354245	keystroke_i	i	n/a
177.2575	0.1345	354515	keystroke_s	s	n/a
177.407	0.12	354814	keystroke_Key.space	Key.space	n/a
177.617	0.1195	355234	keystroke_y	y	n/a
177.7515	0.15	355503	keystroke_o	o	n/a
177.8865	0.105	355773	keystroke_u	u	n/a
177.9315	0.195	355863	keystroke_n	n	n/a
178.0965	0.09	356193	keystroke_g	g	n/a
178.3215	0.12	356643	keystroke_e	e	n/a
178.5015	0.135	357003	keystroke_r	r	n/a
178.8165	0.075	357633	keystroke_Key.enter	Key.enter	n/a
178.896	4.437	357792	prompt	n/a	lycos math normal parts\n
179.552	0.135	359104	keystroke_l	l	n/a
179.672	0.1045	359344	keystroke_y	y	n/a
180.1665	0.12	360333	keystroke_c	c	n/a
180.2715	0.135	360543	keystroke_o	o	n/a
180.4215	0.136	360843	keystroke_s	s	n/a
180.5115	0.12	361023	keystroke_Key.space	Key.space	n/a
180.6925	0.18	361385	keystroke_m	m	n/a
180.8115	0.091	361623	keystroke_a	a	n/a
180.9615	0.136	361923	keystroke_t	t	n/a
181.0815	0.15	362163	keystroke_h	h	n/a
181.246	0.1205	362492	keystroke_Key.space	Key.space	n/a
181.4565	0.165	362913	keystroke_n	n	n/a
181.6365	0.09	363273	keystroke_o	o	n/a
181.7115	0.135	363423	keystroke_r	r	n/a
181.9065	0.12	363813	keystroke_m	m	n/a
182.0415	0.135	364083	keystroke_a	a	n/a
182.1615	0.15	364323	keystroke_l	l	n/a
182.3265	0.135	364653	keystroke_Key.space	Key.space	n/a
182.4765	0.12	364953	keystroke_p	p	n/a
182.5665	0.135	365133	keystroke_a	a	n/a
182.6715	0.075	365343	keystroke_r	r	n/a
182.8215	0.12	365643	keystroke_t	t	n/a
183.0465	0.105	366093	keystroke_s	s	n/a
183.2565	0.075	366513	keystroke_Key.enter	Key.enter	n/a
183.336	12.5375	366672	prompt	n/a	macromedia bedroom inns supervision\n
184.142	0.105	368284	keystroke_m	m	n/a
184.217	0.105	368434	keystroke_a	a	n/a
184.382	0.09	368764	keystroke_r	r	n/a
184.6665	0.12	369333	keystroke_c	c	n/a
185.2515	0.135	370503	keystroke_o	o	n/a
187.5335	0.028	375067	keystroke_Key.backspace	Key.backspace	n/a
187.6815	0.06	375363	keystroke_Key.backspace	Key.backspace	n/a
187.8465	0.06	375693	keystroke_Key.backspace	Key.backspace	n/a
188.1615	0.105	376323	keystroke_c	c	n/a
188.402	0.12	376804	keystroke_r	r	n/a
188.5665	0.135	377133	keystroke_o	o	n/a
188.6865	0.18	377373	keystroke_m	m	n/a
189.1515	0.075	378303	keystroke_e	e	n/a
189.3465	0.09	378693	keystroke_d	d	n/a
189.4065	0.135	378813	keystroke_i	i	n/a
189.557	0.12	379114	keystroke_a	a	n/a
189.662	0.1195	379324	keystroke_Key.space	Key.space	n/a
189.8115	0.15	379623	keystroke_b	b	n/a
189.9165	0.105	379833	keystroke_e	e	n/a
190.1425	0.074	380285	keystroke_d	d	n/a
190.3515	0.105	380703	keystroke_r	r	n/a
190.6515	0.03	381303	keystroke_r	r	n/a
190.6665	0.105	381333	keystroke_o	o	n/a
191.1465	0.06	382293	keystroke_Key.backspace	Key.backspace	n/a
191.7015	0.0895	383403	keystroke_Key.backspace	Key.backspace	n/a
191.972	0.105	383944	keystroke_o	o	n/a
192.137	0.12	384274	keystroke_o	o	n/a
192.287	0.18	384574	keystroke_m	m	n/a
192.781	0.1205	385562	keystroke_Key.space	Key.space	n/a
192.9165	0.18	385833	keystroke_i	i	n/a
193.112	0.0905	386224	keystroke_n	n	n/a
193.2765	0.1355	386553	keystroke_n	n	n/a
193.442	0.135	386884	keystroke_s	s	n/a
193.5465	0.1355	387093	keystroke_Key.space	Key.space	n/a
193.712	0.105	387424	keystroke_s	s	n/a
193.847	0.075	387694	keystroke_p	p	n/a
194.177	0.06	388354	keystroke_Key.backspace	Key.backspace	n/a
194.402	0.15	388804	keystroke_u	u	n/a
194.522	0.165	389044	keystroke_p	p	n/a
194.657	0.15	389314	keystroke_e	e	n/a
194.747	0.09	389494	keystroke_r	r	n/a
194.987	0.105	389974	keystroke_v	v	n/a
195.047	0.105	390094	keystroke_i	i	n/a
195.182	0.1495	390364	keystroke_s	s	n/a
195.2865	0.135	390573	keystroke_i	i	n/a
195.3915	0.165	390783	keystroke_o	o	n/a
195.4965	0.12	390993	keystroke_n	n	n/a
195.782	0.09	391564	keystroke_Key.enter	Key.enter	n/a
195.8765	8.1115	391753	prompt	n/a	weren't agreements missed gabriel\n
196.487	0.12	392974	keystroke_w	w	n/a
196.697	0.06	393394	keystroke_e	e	n/a
197.027	0.09	394054	keystroke_r	r	n/a
197.162	0.135	394324	keystroke_e	e	n/a
197.447	0.06	394894	keystroke_n	n	n/a
197.867	0.15	395734	keystroke_/	/	n/a
198.122	0.105	396244	keystroke_t	t	n/a
198.512	0.0745	397024	keystroke_Key.backspace	Key.backspace	n/a
198.6765	0.045	397353	keystroke_Key.backspace	Key.backspace	n/a
199.2615	0.075	398523	keystroke_'	'	n/a
199.3215	0.12	398643	keystroke_t	t	n/a
199.5465	0.12	399093	keystroke_Key.space	Key.space	n/a
199.8765	0.075	399753	keystroke_a	a	n/a
200.0265	0.075	400053	keystroke_g	g	n/a
200.2965	0.105	400593	keystroke_r	r	n/a
200.3565	0.1355	400713	keystroke_e	e	n/a
200.627	0.105	401254	keystroke_e	e	n/a
200.807	0.135	401614	keystroke_m	m	n/a
200.897	0.12	401794	keystroke_e	e	n/a
201.062	0.12	402124	keystroke_n	n	n/a
201.137	0.105	402274	keystroke_t	t	n/a
201.257	0.15	402514	keystroke_s	s	n/a
201.377	0.135	402754	keystroke_Key.space	Key.space	n/a
201.542	0.135	403084	keystroke_m	m	n/a
201.797	0.12	403594	keystroke_i	i	n/a
201.887	0.105	403774	keystroke_s	s	n/a
202.082	0.105	404164	keystroke_s	s	n/a
202.217	0.09	404434	keystroke_e	e	n/a
202.397	0.12	404794	keystroke_d	d	n/a
202.547	0.105	405094	keystroke_Key.space	Key.space	n/a
202.667	0.075	405334	keystroke_g	g	n/a
202.862	0.105	405724	keystroke_a	a	n/a
202.907	0.105	405814	keystroke_b	b	n/a
203.147	0.105	406294	keystroke_r	r	n/a
203.252	0.09	406504	keystroke_i	i	n/a
203.402	0.12	406804	keystroke_e	e	n/a
203.627	0.09	407254	keystroke_l	l	n/a
203.927	0.059	407854	keystroke_Key.enter	Key.enter	n/a
203.991	5.2025	407982	prompt	n/a	truly gather finances centres\n
204.647	0.089	409294	keystroke_t	t	n/a
204.826	0.105	409652	keystroke_r	r	n/a
204.917	0.104	409834	keystroke_u	u	n/a
205.157	0.134	410314	keystroke_l	l	n/a
205.261	0.1065	410522	keystroke_y	y	n/a
205.411	0.1355	410822	keystroke_Key.space	Key.space	n/a
205.562	0.075	411124	keystroke_g	g	n/a
205.787	0.105	411574	keystroke_a	a	n/a
205.9365	0.105	411873	keystroke_t	t	n/a
206.0865	0.135	412173	keystroke_h	h	n/a
206.2065	0.135	412413	keystroke_e	e	n/a
206.2965	0.12	412593	keystroke_r	r	n/a
206.4315	0.105	412863	keystroke_Key.space	Key.space	n/a
206.5815	0.12	413163	keystroke_f	f	n/a
206.7165	0.105	413433	keystroke_i	i	n/a
206.7765	0.135	413553	keystroke_n	n	n/a
206.9865	0.135	413973	keystroke_a	a	n/a
207.1815	0.12	414363	keystroke_n	n	n/a
207.2865	0.165	414573	keystroke_c	c	n/a
207.4365	0.18	414873	keystroke_e	e	n/a
207.5565	0.135	415113	keystroke_s	s	n/a
207.7065	0.135	415413	keystroke_Key.space	Key.space	n/a
207.9015	0.165	415803	keystroke_c	c	n/a
208.1115	0.105	416223	keystroke_e	e	n/a
208.2765	0.12	416553	keystroke_n	n	n/a
208.3665	0.105	416733	keystroke_t	t	n/a
208.5915	0.105	417183	keystroke_r	r	n/a
208.7565	0.21	417513	keystroke_e	e	n/a
208.9215	0.15	417843	keystroke_s	s	n/a
209.0865	0.105	418173	keystroke_Key.enter	Key.enter	n/a
209.1975	6.461	418395	prompt	n/a	experiencing on mandatory you'd\n
209.747	0.075	419494	keystroke_e	e	n/a
209.957	0.1345	419914	keystroke_x	x	n/a
210.0765	0.091	420153	keystroke_p	p	n/a
210.2115	0.09	420423	keystroke_e	e	n/a
210.5565	0.12	421113	keystroke_r	r	n/a
210.7065	0.12	421413	keystroke_i	i	n/a
210.8715	0.09	421743	keystroke_e	e	n/a
211.0065	0.135	422013	keystroke_n	n	n/a
211.1715	0.105	422343	keystroke_c	c	n/a
211.382	0.135	422764	keystroke_i	i	n/a
211.472	0.18	422944	keystroke_n	n	n/a
211.592	0.105	423184	keystroke_g	g	n/a
211.682	0.12	423364	keystroke_Key.space	Key.space	n/a
211.817	0.165	423634	keystroke_o	o	n/a
211.937	0.135	423874	keystroke_n	n	n/a
212.042	0.135	424084	keystroke_Key.space	Key.space	n/a
212.192	0.18	424384	keystroke_m	m	n/a
212.312	0.12	424624	keystroke_a	a	n/a
212.417	0.135	424834	keystroke_n	n	n/a
212.582	0.12	425164	keystroke_d	d	n/a
213.1965	0.075	426393	keystroke_a	a	n/a
213.3615	0.09	426723	keystroke_t	t	n/a
213.4525	0.134	426905	keystroke_o	o	n/a
213.5715	0.075	427143	keystroke_r	r	n/a
213.752	0.09	427504	keystroke_y	y	n/a
213.857	0.12	427714	keystroke_Key.space	Key.space	n/a
214.157	0.105	428314	keystroke_y	y	n/a
214.277	0.135	428554	keystroke_o	o	n/a
214.352	0.105	428704	keystroke_u	u	n/a
214.637	0.135	429274	keystroke_'	'	n/a
214.802	0.12	429604	keystroke_d	d	n/a
214.967	0.105	429934	keystroke_Key.space	Key.space	n/a
215.582	0.075	431164	keystroke_Key.enter	Key.enter	n/a
215.661	6.462	431322	prompt	n/a	beans machine conclusion statements\n
216.347	0.12	432694	keystroke_b	b	n/a
216.437	0.075	432874	keystroke_e	e	n/a
216.602	0.1045	433204	keystroke_a	a	n/a
216.708	0.119	433416	keystroke_n	n	n/a
216.812	0.135	433624	keystroke_s	s	n/a
216.932	0.12	433864	keystroke_Key.space	Key.space	n/a
217.082	0.165	434164	keystroke_m	m	n/a
217.187	0.09	434374	keystroke_a	a	n/a
217.367	0.12	434734	keystroke_c	c	n/a
217.442	0.12	434884	keystroke_h	h	n/a
217.562	0.135	435124	keystroke_i	i	n/a
217.652	0.18	435304	keystroke_n	n	n/a
217.757	0.09	435514	keystroke_e	e	n/a
217.877	0.135	435754	keystroke_Key.space	Key.space	n/a
218.012	0.03	436024	keystroke_s	s	n/a
218.3415	0.0745	436683	keystroke_Key.backspace	Key.backspace	n/a
218.492	0.1205	436984	keystroke_c	c	n/a
218.6125	0.18	437225	keystroke_o	o	n/a
218.747	0.1495	437494	keystroke_n	n	n/a
218.912	0.12	437824	keystroke_c	c	n/a
219.032	0.0755	438064	keystroke_u	u	n/a
219.376	0.076	438752	keystroke_Key.backspace	Key.backspace	n/a
219.6165	0.1355	439233	keystroke_l	l	n/a
219.857	0.0895	439714	keystroke_u	u	n/a
219.9015	0.135	439803	keystroke_s	s	n/a
220.0815	0.195	440163	keystroke_i	i	n/a
220.2615	0.165	440523	keystroke_o	o	n/a
220.3515	0.165	440703	keystroke_n	n	n/a
220.4715	0.165	440943	keystroke_Key.space	Key.space	n/a
220.6965	0.09	441393	keystroke_s	s	n/a
220.8015	0.1205	441603	keystroke_t	t	n/a
220.937	0.15	441874	keystroke_a	a	n/a
221.042	0.12	442084	keystroke_t	t	n/a
221.192	0.12	442384	keystroke_e	e	n/a
221.312	0.135	442624	keystroke_m	m	n/a
221.432	0.105	442864	keystroke_e	e	n/a
221.567	0.12	443134	keystroke_n	n	n/a
221.642	0.105	443284	keystroke_t	t	n/a
221.8365	0.135	443673	keystroke_s	s	n/a
222.0465	0.075	444093	keystroke_Key.enter	Key.enter	n/a
222.1255	6.2525	444251	prompt	n/a	unless launch aboriginal gloves\n
222.6765	0.12	445353	keystroke_u	u	n/a
222.8565	0.135	445713	keystroke_n	n	n/a
223.0965	0.15	446193	keystroke_l	l	n/a
223.1865	0.15	446373	keystroke_e	e	n/a
223.3065	0.12	446613	keystroke_s	s	n/a
223.5015	0.105	447003	keystroke_s	s	n/a
223.6515	0.1655	447303	keystroke_Key.space	Key.space	n/a
223.8315	0.1345	447663	keystroke_l	l	n/a
223.936	0.12	447872	keystroke_a	a	n/a
224.072	0.12	448144	keystroke_u	u	n/a
224.222	0.165	448444	keystroke_n	n	n/a
224.402	0.12	448804	keystroke_c	c	n/a
224.492	0.135	448984	keystroke_h	h	n/a
224.627	0.134	449254	keystroke_Key.space	Key.space	n/a
224.7915	0.1205	449583	keystroke_a	a	n/a
224.882	0.135	449764	keystroke_b	b	n/a
225.062	0.179	450124	keystroke_o	o	n/a
225.1815	0.1045	450363	keystroke_r	r	n/a
225.421	0.135	450842	keystroke_d	d	n/a
225.7815	0.075	451563	keystroke_Key.backspace	Key.backspace	n/a
226.0525	0.104	452105	keystroke_i	i	n/a
226.1865	0.075	452373	keystroke_g	g	n/a
226.2765	0.135	452553	keystroke_i	i	n/a
226.3815	0.135	452763	keystroke_n	n	n/a
226.5465	0.105	453093	keystroke_a	a	n/a
226.6365	0.165	453273	keystroke_l	l	n/a
226.7715	0.15	453543	keystroke_Key.space	Key.space	n/a
226.9365	0.09	453873	keystroke_g	g	n/a
227.1165	0.105	454233	keystroke_l	l	n/a
227.7915	0.135	455583	keystroke_o	o	n/a
227.8965	0.09	455793	keystroke_v	v	n/a
228.0165	0.18	456033	keystroke_e	e	n/a
228.1215	0.18	456243	keystroke_s	s	n/a
228.3025	0.074	456605	keystroke_Key.enter	Key.enter	n/a
228.3815	9.7165	456763	prompt	n/a	precipitation wall shirt phantom\n
228.9765	0.1205	457953	keystroke_p	p	n/a
229.112	0.135	458224	keystroke_r	r	n/a
229.247	0.105	458494	keystroke_e	e	n/a
229.697	0.105	459394	keystroke_c	c	n/a
229.937	0.105	459874	keystroke_i	i	n/a
230.222	0.105	460444	keystroke_p	p	n/a
230.642	0.12	461284	keystroke_i	i	n/a
230.777	0.09	461554	keystroke_t	t	n/a
231.002	0.135	462004	keystroke_a	a	n/a
231.182	0.135	462364	keystroke_t	t	n/a
231.257	0.15	462514	keystroke_i	i	n/a
231.347	0.15	462694	keystroke_o	o	n/a
231.422	0.165	462844	keystroke_n	n	n/a
231.527	0.195	463054	keystroke_Key.space	Key.space	n/a
231.632	0.1195	463264	keystroke_w	w	n/a
231.7515	0.045	463503	keystroke_i	i	n/a
232.1865	0.105	464373	keystroke_a	a	n/a
232.4115	0.075	464823	keystroke_Key.backspace	Key.backspace	n/a
232.5765	0.06	465153	keystroke_Key.backspace	Key.backspace	n/a
232.6825	0.149	465365	keystroke_a	a	n/a
232.8465	0.091	465693	keystroke_l	l	n/a
233.0115	0.135	466023	keystroke_l	l	n/a
233.161	0.12	466322	keystroke_Key.space	Key.space	n/a
233.2665	0.1505	466533	keystroke_s	s	n/a
233.402	0.105	466804	keystroke_h	h	n/a
233.687	0.12	467374	keystroke_i	i	n/a
233.821	0.075	467642	keystroke_r	r	n/a
234.031	0.12	468062	keystroke_t	t	n/a
234.286	0.106	468572	keystroke_Key.space	Key.space	n/a
234.7515	0.105	469503	keystroke_p	p	n/a
234.9465	0.18	469893	keystroke_h	h	n/a
235.1115	0.135	470223	keystroke_a	a	n/a
235.4115	0.09	470823	keystroke_t	t	n/a
236.0865	0.0755	472173	keystroke_Key.backspace	Key.backspace	n/a
236.3415	0.135	472683	keystroke_n	n	n/a
236.4915	0.106	472983	keystroke_t	t	n/a
236.6265	0.12	473253	keystroke_o	o	n/a
236.9115	0.076	473823	keystroke_m	m	n/a
237.0165	0.06	474033	keystroke_m	m	n/a
237.4965	0.0895	474993	keystroke_Key.backspace	Key.backspace	n/a
238.0215	0.075	476043	keystroke_Key.enter	Key.enter	n/a
238.101	6.3425	476202	prompt	n/a	interfaces trustee proc numerical\n
238.742	0.12	477484	keystroke_i	i	n/a
238.817	0.195	477634	keystroke_n	n	n/a
238.982	0.09	477964	keystroke_t	t	n/a
239.132	0.195	478264	keystroke_e	e	n/a
239.237	0.12	478474	keystroke_r	r	n/a
239.492	0.105	478984	keystroke_f	f	n/a
239.642	0.105	479284	keystroke_a	a	n/a
239.8515	0.1505	479703	keystroke_c	c	n/a
239.9415	0.2105	479883	keystroke_e	e	n/a
240.062	0.165	480124	keystroke_s	s	n/a
240.212	0.12	480424	keystroke_Key.space	Key.space	n/a
240.392	0.09	480784	keystroke_t	t	n/a
240.587	0.105	481174	keystroke_r	r	n/a
240.677	0.15	481354	keystroke_u	u	n/a
240.902	0.12	481804	keystroke_s	s	n/a
241.082	0.135	482164	keystroke_t	t	n/a
241.232	0.1195	482464	keystroke_e	e	n/a
241.4115	0.12	482823	keystroke_e	e	n/a
241.5615	0.105	483123	keystroke_Key.space	Key.space	n/a
241.6815	0.1205	483363	keystroke_p	p	n/a
241.772	0.09	483544	keystroke_r	r	n/a
241.892	0.165	483784	keystroke_o	o	n/a
242.042	0.12	484084	keystroke_c	c	n/a
242.237	0.15	484474	keystroke_Key.space	Key.space	n/a
242.552	0.105	485104	keystroke_n	n	n/a
242.7165	0.1055	485433	keystroke_u	u	n/a
242.971	0.1205	485942	keystroke_m	m	n/a
243.242	0.104	486484	keystroke_e	e	n/a
243.301	0.136	486602	keystroke_r	r	n/a
243.6015	0.1195	487203	keystroke_i	i	n/a
243.8565	0.12	487713	keystroke_c	c	n/a
244.0365	0.1505	488073	keystroke_a	a	n/a
244.097	0.105	488194	keystroke_l	l	n/a
244.367	0.075	488734	keystroke_Key.enter	Key.enter	n/a
244.447	5.576	488894	prompt	n/a	steady hero kelly gloves\n
245.0275	0.075	490055	keystroke_s	s	n/a
245.2065	0.105	490413	keystroke_t	t	n/a
245.3715	0.0905	490743	keystroke_e	e	n/a
245.582	0.12	491164	keystroke_a	a	n/a
245.627	0.135	491254	keystroke_d	d	n/a
245.927	0.075	491854	keystroke_y	y	n/a
246.017	0.105	492034	keystroke_Key.space	Key.space	n/a
246.137	0.15	492274	keystroke_h	h	n/a
246.257	0.075	492514	keystroke_e	e	n/a
246.572	0.135	493144	keystroke_r	r	n/a
246.737	0.1195	493474	keystroke_o	o	n/a
246.9015	0.12	493803	keystroke_Key.space	Key.space	n/a
247.0815	0.15	494163	keystroke_k	k	n/a
247.1865	0.136	494373	keystroke_e	e	n/a
247.3675	0.074	494735	keystroke_l	l	n/a
247.5165	0.105	495033	keystroke_l	l	n/a
247.6065	0.135	495213	keystroke_y	y	n/a
247.7265	0.15	495453	keystroke_Key.space	Key.space	n/a
247.9515	0.09	495903	keystroke_g	g	n/a
248.1015	0.1055	496203	keystroke_o	o	n/a
248.6865	0.075	497373	keystroke_Key.backspace	Key.backspace	n/a
248.9415	0.15	497883	keystroke_l	l	n/a
249.1065	0.15	498213	keystroke_o	o	n/a
249.1965	0.09	498393	keystroke_v	v	n/a
249.4365	0.12	498873	keystroke_e	e	n/a
249.4665	0.15	498933	keystroke_s	s	n/a
249.932	0.089	499864	keystroke_Key.enter	Key.enter	n/a
250.026	6.417	500052	prompt	n/a	john coalition reported downtown\n
250.6515	0.135	501303	keystroke_j	j	n/a
251.132	0.15	502264	keystroke_o	o	n/a
251.342	0.09	502684	keystroke_h	h	n/a
251.567	0.09	503134	keystroke_n	n	n/a
251.657	0.135	503314	keystroke_Key.space	Key.space	n/a
251.777	0.105	503554	keystroke_c	c	n/a
251.912	0.135	503824	keystroke_o	o	n/a
252.062	0.12	504124	keystroke_a	a	n/a
252.2275	0.194	504455	keystroke_l	l	n/a
252.4065	0.12	504813	keystroke_i	i	n/a
252.5425	0.135	505085	keystroke_t	t	n/a
252.6465	0.21	505293	keystroke_i	i	n/a
252.7825	0.194	505565	keystroke_o	o	n/a
252.8425	0.21	505685	keystroke_n	n	n/a
253.0215	0.15	506043	keystroke_Key.space	Key.space	n/a
253.1865	0.105	506373	keystroke_r	r	n/a
253.2625	0.165	506525	keystroke_e	e	n/a
253.3965	0.135	506793	keystroke_p	p	n/a
253.4865	0.2105	506973	keystroke_o	o	n/a
253.6075	0.0745	507215	keystroke_r	r	n/a
253.772	0.09	507544	keystroke_t	t	n/a
253.937	0.09	507874	keystroke_e	e	n/a
254.147	0.09	508294	keystroke_d	d	n/a
254.252	0.12	508504	keystroke_Key.space	Key.space	n/a
254.357	0.09	508714	keystroke_d	d	n/a
254.492	0.135	508984	keystroke_o	o	n/a
254.612	0.135	509224	keystroke_w	w	n/a
254.717	0.1195	509434	keystroke_n	n	n/a
254.8965	0.135	509793	keystroke_l	l	n/a
255.197	0.105	510394	keystroke_t	t	n/a
255.467	0.06	510934	keystroke_Key.backspace	Key.backspace	n/a
255.602	0.075	511204	keystroke_Key.backspace	Key.backspace	n/a
255.722	0.075	511444	keystroke_t	t	n/a
255.857	0.135	511714	keystroke_o	o	n/a
256.007	0.105	512014	keystroke_w	w	n/a
256.082	0.12	512164	keystroke_n	n	n/a
256.3815	0.06	512763	keystroke_Key.enter	Key.enter	n/a
256.4455	5.4125	512891	prompt	n/a	paid previews residence decade\n
257.0565	0.09	514113	keystroke_p	p	n/a
257.1165	0.105	514233	keystroke_a	a	n/a
257.3265	0.12	514653	keystroke_i	i	n/a
257.4315	0.135	514863	keystroke_d	d	n/a
257.5515	0.15	515103	keystroke_Key.space	Key.space	n/a
257.8065	0.135	515613	keystroke_p	p	n/a
257.9265	0.15	515853	keystroke_r	r	n/a
258.0915	0.105	516183	keystroke_e	e	n/a
258.3165	0.105	516633	keystroke_v	v	n/a
258.4365	0.15	516873	keystroke_i	i	n/a
258.5415	0.2105	517083	keystroke_e	e	n/a
258.7065	0.1055	517413	keystroke_w	w	n/a
258.962	0.075	517924	keystroke_s	s	n/a
259.067	0.12	518134	keystroke_Key.space	Key.space	n/a
259.262	0.105	518524	keystroke_r	r	n/a
259.322	0.225	518644	keystroke_e	e	n/a
259.487	0.12	518974	keystroke_s	s	n/a
259.622	0.1195	519244	keystroke_i	i	n/a
259.7715	0.105	519543	keystroke_d	d	n/a
259.9665	0.135	519933	keystroke_e	e	n/a
260.0565	0.12	520113	keystroke_n	n	n/a
260.2965	0.15	520593	keystroke_c	c	n/a
260.4315	0.09	520863	keystroke_e	e	n/a
260.5365	0.12	521073	keystroke_Key.space	Key.space	n/a
260.6265	0.105	521253	keystroke_d	d	n/a
260.8365	0.075	521673	keystroke_e	e	n/a
261.0315	0.105	522063	keystroke_c	c	n/a
261.1665	0.105	522333	keystroke_a	a	n/a
261.3765	0.105	522753	keystroke_d	d	n/a
261.5865	0.105	523173	keystroke_e	e	n/a
261.7665	0.09	523533	keystroke_Key.enter	Key.enter	n/a
261.8605	5.578	523721	prompt	n/a	accurately anne gregory volvo\n
262.4125	0.119	524825	keystroke_a	a	n/a
262.6365	0.091	525273	keystroke_c	c	n/a
262.8025	0.105	525605	keystroke_c	c	n/a
262.8925	0.105	525785	keystroke_u	u	n/a
263.0275	0.09	526055	keystroke_r	r	n/a
263.2375	0.105	526475	keystroke_a	a	n/a
263.4165	0.121	526833	keystroke_t	t	n/a
263.6425	0.104	527285	keystroke_e	e	n/a
263.7765	0.12	527553	keystroke_l	l	n/a
263.9115	0.105	527823	keystroke_y	y	n/a
264.0615	0.135	528123	keystroke_Key.space	Key.space	n/a
264.2265	0.12	528453	keystroke_a	a	n/a
264.3315	0.075	528663	keystroke_n	n	n/a
264.4965	0.1055	528993	keystroke_n	n	n/a
264.617	0.12	529234	keystroke_e	e	n/a
264.797	0.1495	529594	keystroke_Key.space	Key.space	n/a
264.9615	0.075	529923	keystroke_g	g	n/a
265.1715	0.165	530343	keystroke_r	r	n/a
265.3215	0.105	530643	keystroke_e	e	n/a
265.5615	0.12	531123	keystroke_g	g	n/a
265.757	0.1195	531514	keystroke_o	o	n/a
265.862	0.105	531724	keystroke_r	r	n/a
266.087	0.09	532174	keystroke_y	y	n/a
266.222	0.105	532444	keystroke_Key.space	Key.space	n/a
266.402	0.12	532804	keystroke_v	v	n/a
266.507	0.09	533014	keystroke_o	o	n/a
266.732	0.12	533464	keystroke_l	l	n/a
266.822	0.105	533644	keystroke_v	v	n/a
267.077	0.105	534154	keystroke_o	o	n/a
267.3615	0.075	534723	keystroke_Key.enter	Key.enter	n/a
267.4425	4.3005	534885	prompt	n/a	girl wait chorus dates\n
268.097	0.09	536194	keystroke_g	g	n/a
268.352	0.105	536704	keystroke_r	r	n/a
268.472	0.15	536944	keystroke_i	i	n/a
268.757	0.135	537514	keystroke_l	l	n/a
268.922	0.135	537844	keystroke_Key.space	Key.space	n/a
269.072	0.15	538144	keystroke_w	w	n/a
269.192	0.12	538384	keystroke_a	a	n/a
269.297	0.12	538594	keystroke_i	i	n/a
269.432	0.09	538864	keystroke_t	t	n/a
269.552	0.105	539104	keystroke_Key.space	Key.space	n/a
269.717	0.135	539434	keystroke_c	c	n/a
269.807	0.105	539614	keystroke_h	h	n/a
269.957	0.135	539914	keystroke_o	o	n/a
270.107	0.105	540214	keystroke_r	r	n/a
270.347	0.12	540694	keystroke_u	u	n/a
270.482	0.135	540964	keystroke_s	s	n/a
270.632	0.12	541264	keystroke_Key.space	Key.space	n/a
270.902	0.105	541804	keystroke_d	d	n/a
271.112	0.09	542224	keystroke_a	a	n/a
271.262	0.1195	542524	keystroke_t	t	n/a
271.322	0.2245	542644	keystroke_e	e	n/a
271.4715	0.1505	542943	keystroke_s	s	n/a
271.652	0.09	543304	keystroke_Key.enter	Key.enter	n/a
271.746	6.732	543492	prompt	n/a	packing indian latin midi\n
273.4665	0.12	546933	keystroke_p	p	n/a
273.5715	0.09	547143	keystroke_a	a	n/a
273.7215	0.15	547443	keystroke_c	c	n/a
273.7825	0.105	547565	keystroke_k	k	n/a
273.9925	0.134	547985	keystroke_i	i	n/a
274.0815	0.211	548163	keystroke_n	n	n/a
274.2325	0.089	548465	keystroke_g	g	n/a
274.3065	0.15	548613	keystroke_Key.space	Key.space	n/a
274.4415	0.166	548883	keystroke_i	i	n/a
274.5765	0.15	549153	keystroke_n	n	n/a
274.7425	0.119	549485	keystroke_d	d	n/a
274.8465	0.12	549693	keystroke_i	i	n/a
274.997	0.1345	549994	keystroke_a	a	n/a
275.1165	0.151	550233	keystroke_n	n	n/a
275.2815	0.135	550563	keystroke_Key.space	Key.space	n/a
275.4765	0.151	550953	keystroke_l	l	n/a
275.5965	0.09	551193	keystroke_a	a	n/a
275.8065	0.12	551613	keystroke_t	t	n/a
275.9115	0.12	551823	keystroke_i	i	n/a
276.0015	0.135	552003	keystroke_n	n	n/a
276.1065	0.135	552213	keystroke_Key.space	Key.space	n/a
276.2865	0.12	552573	keystroke_m	m	n/a
276.5265	0.12	553053	keystroke_i	i	n/a
276.5865	0.105	553173	keystroke_d	d	n/a
276.827	0.105	553654	keystroke_e	e	n/a
277.202	0.09	554404	keystroke_Key.backspace	Key.backspace	n/a
277.4415	0.12	554883	keystroke_o	o	n/a
277.922	0.06	555844	keystroke_Key.backspace	Key.backspace	n/a
278.1165	0.12	556233	keystroke_i	i	n/a
278.4165	0.06	556833	keystroke_Key.enter	Key.enter	n/a
278.4825	7.406	556965	prompt	n/a	seattle ceremony contacting uncle\n
279.0925	0.119	558185	keystroke_s	s	n/a
279.332	0.105	558664	keystroke_e	e	n/a
279.512	0.1345	559024	keystroke_a	a	n/a
279.6915	0.1055	559383	keystroke_t	t	n/a
279.977	0.09	559954	keystroke_t	t	n/a
280.187	0.15	560374	keystroke_l	l	n/a
280.292	0.09	560584	keystroke_e	e	n/a
280.412	0.1195	560824	keystroke_Key.space	Key.space	n/a
280.5465	0.09	561093	keystroke_c	c	n/a
280.6515	0.18	561303	keystroke_e	e	n/a
280.8015	0.1355	561603	keystroke_r	r	n/a
280.982	0.12	561964	keystroke_m	m	n/a
281.4615	0.075	562923	keystroke_Key.backspace	Key.backspace	n/a
281.5665	0.135	563133	keystroke_e	e	n/a
281.7615	0.135	563523	keystroke_m	m	n/a
281.9115	0.1505	563823	keystroke_o	o	n/a
282.002	0.18	564004	keystroke_n	n	n/a
282.167	0.105	564334	keystroke_y	y	n/a
282.362	0.135	564724	keystroke_Key.space	Key.space	n/a
282.767	0.105	565534	keystroke_c	c	n/a
282.902	0.06	565804	keystroke_o	o	n/a
282.917	0.195	565834	keystroke_n	n	n/a
283.142	0.09	566284	keystroke_t	t	n/a
283.862	0.135	567724	keystroke_a	a	n/a
284.117	0.09	568234	keystroke_c	c	n/a
284.342	0.105	568684	keystroke_t	t	n/a
284.417	0.135	568834	keystroke_i	i	n/a
284.507	0.195	569014	keystroke_n	n	n/a
284.642	0.105	569284	keystroke_g	g	n/a
284.732	0.165	569464	keystroke_Key.space	Key.space	n/a
284.882	0.105	569764	keystroke_u	u	n/a
285.047	0.12	570094	keystroke_n	n	n/a
285.347	0.12	570694	keystroke_c	c	n/a
285.452	0.12	570904	keystroke_l	l	n/a
285.557	0.12	571114	keystroke_e	e	n/a
285.782	0.105	571564	keystroke_Key.enter	Key.enter	n/a
285.891	7.4225	571782	prompt	n/a	ozone whatever academy lauderdale\n
286.667	0.105	573334	keystroke_o	o	n/a
286.787	0.165	573574	keystroke_z	z	n/a
286.967	0.165	573934	keystroke_o	o	n/a
287.252	0.18	574504	keystroke_n	n	n/a
287.372	0.105	574744	keystroke_e	e	n/a
287.462	0.165	574924	keystroke_Key.space	Key.space	n/a
287.7025	0.104	575405	keystroke_w	w	n/a
287.7765	0.135	575553	keystroke_h	h	n/a
287.9415	0.166	575883	keystroke_a	a	n/a
288.0915	0.091	576183	keystroke_t	t	n/a
288.3625	0.015	576725	keystroke_e	e	n/a
288.5125	0.075	577025	keystroke_v	v	n/a
288.6925	0.135	577385	keystroke_e	e	n/a
288.7675	0.134	577535	keystroke_r	r	n/a
288.9315	0.121	577863	keystroke_Key.space	Key.space	n/a
289.0375	0.105	578075	keystroke_a	a	n/a
289.2615	0.105	578523	keystroke_c	c	n/a
289.4865	0.106	578973	keystroke_a	a	n/a
289.6665	0.1205	579333	keystroke_d	d	n/a
290.012	0.09	580024	keystroke_e	e	n/a
290.057	0.165	580114	keystroke_m	m	n/a
290.372	0.09	580744	keystroke_y	y	n/a
290.702	0.105	581404	keystroke_Key.space	Key.space	n/a
290.897	0.135	581794	keystroke_l	l	n/a
291.002	0.105	582004	keystroke_a	a	n/a
291.197	0.12	582394	keystroke_u	u	n/a
291.392	0.09	582784	keystroke_d	d	n/a
291.617	0.18	583234	keystroke_e	e	n/a
291.767	0.135	583534	keystroke_r	r	n/a
292.037	0.12	584074	keystroke_a	a	n/a
292.457	0.105	584914	keystroke_Key.backspace	Key.backspace	n/a
292.532	0.09	585064	keystroke_d	d	n/a
292.727	0.12	585454	keystroke_a	a	n/a
292.862	0.135	585724	keystroke_l	l	n/a
293.012	0.12	586024	keystroke_e	e	n/a
293.222	0.09	586444	keystroke_Key.enter	Key.enter	n/a
293.3165	7.812	586633	prompt	n/a	california extras moderator grades\n
293.9415	0.12	587883	keystroke_c	c	n/a
294.1065	0.15	588213	keystroke_a	a	n/a
294.2115	0.105	588423	keystroke_l	l	n/a
294.3465	0.15	588693	keystroke_i	i	n/a
294.4515	0.0905	588903	keystroke_f	f	n/a
294.677	0.105	589354	keystroke_o	o	n/a
294.902	0.09	589804	keystroke_n	n	n/a
295.067	0.12	590134	keystroke_i	i	n/a
295.188	0.119	590376	keystroke_a	a	n/a
295.322	0.105	590644	keystroke_Key.space	Key.space	n/a
295.547	0.075	591094	keystroke_e	e	n/a
295.757	0.09	591514	keystroke_x	x	n/a
295.967	0.0905	591934	keystroke_t	t	n/a
296.1625	0.105	592325	keystroke_r	r	n/a
296.282	0.15	592564	keystroke_a	a	n/a
297.047	0.12	594094	keystroke_n	n	n/a
297.6915	0.09	595383	keystroke_Key.backspace	Key.backspace	n/a
297.8275	0.134	595655	keystroke_s	s	n/a
297.9915	0.12	595983	keystroke_Key.space	Key.space	n/a
298.2325	0.195	596465	keystroke_m	m	n/a
298.4125	0.135	596825	keystroke_o	o	n/a
298.6365	0.105	597273	keystroke_d	d	n/a
298.8765	0.12	597753	keystroke_e	e	n/a
298.9515	0.1505	597903	keystroke_r	r	n/a
299.117	0.18	598234	keystroke_a	a	n/a
299.252	0.12	598504	keystroke_t	t	n/a
299.387	0.12	598774	keystroke_o	o	n/a
299.477	0.135	598954	keystroke_r	r	n/a
299.7315	0.105	599463	keystroke_Key.space	Key.space	n/a
299.942	0.09	599884	keystroke_g	g	n/a
300.137	0.105	600274	keystroke_r	r	n/a
300.272	0.135	600544	keystroke_a	a	n/a
300.482	0.105	600964	keystroke_d	d	n/a
300.692	0.165	601384	keystroke_e	e	n/a
300.812	0.135	601624	keystroke_s	s	n/a
301.037	0.09	602074	keystroke_Key.enter	Key.enter	n/a
301.131	5.1725	602262	prompt	n/a	research roger band featured\n
301.7575	0.149	603515	keystroke_r	r	n/a
301.8625	0.209	603725	keystroke_e	e	n/a
302.0565	0.1805	604113	keystroke_s	s	n/a
302.177	0.1205	604354	keystroke_e	e	n/a
302.3725	0.195	604745	keystroke_a	a	n/a
302.507	0.105	605014	keystroke_r	r	n/a
302.792	0.105	605584	keystroke_c	c	n/a
302.852	0.135	605704	keystroke_h	h	n/a
302.972	0.135	605944	keystroke_Key.space	Key.space	n/a
303.122	0.0905	606244	keystroke_r	r	n/a
303.242	0.135	606484	keystroke_o	o	n/a
303.3925	0.0595	606785	keystroke_g	g	n/a
303.572	0.15	607144	keystroke_e	e	n/a
303.662	0.135	607324	keystroke_r	r	n/a
303.842	0.1495	607684	keystroke_Key.space	Key.space	n/a
304.1425	0.12	608285	keystroke_b	b	n/a
304.3075	0.105	608615	keystroke_a	a	n/a
304.3975	0.135	608795	keystroke_n	n	n/a
304.5175	0.15	609035	keystroke_d	d	n/a
304.6825	0.105	609365	keystroke_Key.space	Key.space	n/a
304.8025	0.12	609605	keystroke_f	f	n/a
304.9075	0.12	609815	keystroke_e	e	n/a
305.1775	0.075	610355	keystroke_a	a	n/a
305.3875	0.09	610775	keystroke_t	t	n/a
305.4925	0.105	610985	keystroke_u	u	n/a
305.6125	0.135	611225	keystroke_r	r	n/a
305.7175	0.1195	611435	keystroke_e	e	n/a
305.957	0.12	611914	keystroke_d	d	n/a
306.227	0.075	612454	keystroke_Key.enter	Key.enter	n/a
306.3065	6.987	612613	prompt	n/a	interfaces participant acceptable varies\n
306.947	0.09	613894	keystroke_i	i	n/a
307.082	0.15	614164	keystroke_n	n	n/a
307.217	0.105	614434	keystroke_t	t	n/a
307.337	0.195	614674	keystroke_e	e	n/a
307.457	0.12	614914	keystroke_r	r	n/a
307.697	0.105	615394	keystroke_f	f	n/a
307.847	0.12	615694	keystroke_a	a	n/a
308.072	0.165	616144	keystroke_c	c	n/a
308.222	0.165	616444	keystroke_e	e	n/a
308.327	0.1505	616654	keystroke_s	s	n/a
308.4925	0.075	616985	keystroke_Key.space	Key.space	n/a
308.5975	0.15	617195	keystroke_p	p	n/a
308.7175	0.135	617435	keystroke_a	a	n/a
308.8225	0.09	617645	keystroke_r	r	n/a
309.0475	0.105	618095	keystroke_t	t	n/a
309.1675	0.09	618335	keystroke_i	i	n/a
309.542	0.135	619084	keystroke_c	c	n/a
309.662	0.09	619324	keystroke_i	i	n/a
309.872	0.09	619744	keystroke_p	p	n/a
309.947	0.09	619894	keystroke_a	a	n/a
310.127	0.135	620254	keystroke_n	n	n/a
310.247	0.12	620494	keystroke_t	t	n/a
310.352	0.12	620704	keystroke_Key.space	Key.space	n/a
310.5325	0.1345	621065	keystroke_a	a	n/a
310.772	0.075	621544	keystroke_c	c	n/a
310.9215	0.09	621843	keystroke_c	c	n/a
311.0415	0.135	622083	keystroke_e	e	n/a
311.2065	0.09	622413	keystroke_p	p	n/a
311.3115	0.075	622623	keystroke_t	t	n/a
311.5065	0.105	623013	keystroke_a	a	n/a
311.6715	0.105	623343	keystroke_b	b	n/a
311.9115	0.135	623823	keystroke_l	l	n/a
311.9865	0.09	623973	keystroke_e	e	n/a
312.1215	0.15	624243	keystroke_Key.space	Key.space	n/a
312.2875	0.104	624575	keystroke_v	v	n/a
312.4975	0.15	624995	keystroke_a	a	n/a
312.6175	0.12	625235	keystroke_r	r	n/a
312.7825	0.105	625565	keystroke_i	i	n/a
312.8575	0.195	625715	keystroke_e	e	n/a
312.9775	0.135	625955	keystroke_s	s	n/a
313.2175	0.075	626435	keystroke_Key.enter	Key.enter	n/a
313.296	7.1975	626592	prompt	n/a	laboratories fell wellness vitamins\n
313.892	0.12	627784	keystroke_l	l	n/a
313.997	0.135	627994	keystroke_a	a	n/a
314.147	0.09	628294	keystroke_b	b	n/a
314.357	0.09	628714	keystroke_o	o	n/a
314.432	0.09	628864	keystroke_r	r	n/a
314.732	0.09	629464	keystroke_a	a	n/a
314.942	0.09	629884	keystroke_t	t	n/a
315.107	0.12	630214	keystroke_o	o	n/a
315.302	0.09	630604	keystroke_r	r	n/a
315.407	0.15	630814	keystroke_i	i	n/a
315.542	0.165	631084	keystroke_e	e	n/a
315.647	0.12	631294	keystroke_s	s	n/a
315.737	0.105	631474	keystroke_Key.space	Key.space	n/a
315.887	0.135	631774	keystroke_f	f	n/a
315.977	0.105	631954	keystroke_e	e	n/a
316.202	0.105	632404	keystroke_e	e	n/a
316.907	0.075	633814	keystroke_Key.backspace	Key.backspace	n/a
317.162	0.105	634324	keystroke_l	l	n/a
317.312	0.135	634624	keystroke_l	l	n/a
317.432	0.15	634864	keystroke_Key.space	Key.space	n/a
317.537	0.1655	635074	keystroke_w	w	n/a
317.627	0.1645	635254	keystroke_e	e	n/a
317.7325	0.105	635465	keystroke_l	l	n/a
318.0015	0.106	636003	keystroke_l	l	n/a
318.2415	0.106	636483	keystroke_n	n	n/a
318.3775	0.149	636755	keystroke_e	e	n/a
318.5115	0.091	637023	keystroke_s	s	n/a
318.6775	0.105	637355	keystroke_s	s	n/a
318.7975	0.09	637595	keystroke_Key.space	Key.space	n/a
318.9325	0.119	637865	keystroke_v	v	n/a
319.0215	0.135	638043	keystroke_i	i	n/a
319.2015	0.075	638403	keystroke_t	t	n/a
319.3815	0.12	638763	keystroke_a	a	n/a
319.6215	0.09	639243	keystroke_m	m	n/a
319.847	0.12	639694	keystroke_i	i	n/a
319.982	0.15	639964	keystroke_n	n	n/a
320.2065	0.12	640413	keystroke_s	s	n/a
320.417	0.075	640834	keystroke_Key.enter	Key.enter	n/a
320.4955	6.538	640991	prompt	n/a	jordan creations karen transcript\n
321.212	0.165	642424	keystroke_j	j	n/a
321.362	0.105	642724	keystroke_o	o	n/a
321.527	0.075	643054	keystroke_r	r	n/a
321.722	0.0895	643444	keystroke_d	d	n/a
321.9465	0.15	643893	keystroke_a	a	n/a
322.0815	0.12	644163	keystroke_n	n	n/a
322.1865	0.15	644373	keystroke_Key.space	Key.space	n/a
322.3215	0.105	644643	keystroke_c	c	n/a
322.5915	0.12	645183	keystroke_r	r	n/a
322.6815	0.09	645363	keystroke_e	e	n/a
322.8615	0.105	645723	keystroke_a	a	n/a
323.0865	0.1055	646173	keystroke_t	t	n/a
323.2525	0.1195	646505	keystroke_i	i	n/a
323.447	0.1505	646894	keystroke_o	o	n/a
323.5675	0.18	647135	keystroke_n	n	n/a
323.7925	0.135	647585	keystroke_s	s	n/a
323.9425	0.105	647885	keystroke_Key.space	Key.space	n/a
324.1975	0.12	648395	keystroke_k	k	n/a
324.3325	0.105	648665	keystroke_a	a	n/a
324.4675	0.134	648935	keystroke_r	r	n/a
324.6315	0.105	649263	keystroke_e	e	n/a
324.7815	0.12	649563	keystroke_n	n	n/a
324.9025	0.149	649805	keystroke_Key.space	Key.space	n/a
325.0365	0.105	650073	keystroke_t	t	n/a
325.2465	0.106	650493	keystroke_r	r	n/a
325.3665	0.135	650733	keystroke_a	a	n/a
325.5025	0.134	651005	keystroke_n	n	n/a
325.6215	0.105	651243	keystroke_s	s	n/a
325.8465	0.12	651693	keystroke_c	c	n/a
326.1915	0.09	652383	keystroke_r	r	n/a
326.4615	0.09	652923	keystroke_i	i	n/a
326.672	0.105	653344	keystroke_p	p	n/a
326.792	0.09	653584	keystroke_t	t	n/a
326.957	0.075	653914	keystroke_Key.enter	Key.enter	n/a
327.036	4.7525	654072	prompt	n/a	can smtp king magical\n
327.662	0.165	655324	keystroke_c	c	n/a
327.857	0.105	655714	keystroke_a	a	n/a
327.932	0.15	655864	keystroke_n	n	n/a
328.067	0.135	656134	keystroke_Key.space	Key.space	n/a
328.217	0.105	656434	keystroke_s	s	n/a
328.367	0.12	656734	keystroke_m	m	n/a
328.712	0.105	657424	keystroke_p	p	n/a
329.042	0.09	658084	keystroke_Key.backspace	Key.backspace	n/a
329.117	0.12	658234	keystroke_t	t	n/a
329.312	0.15	658624	keystroke_p	p	n/a
329.492	0.12	658984	keystroke_Key.space	Key.space	n/a
329.687	0.1195	659374	keystroke_k	k	n/a
329.9115	0.1055	659823	keystroke_i	i	n/a
329.987	0.21	659974	keystroke_n	n	n/a
330.182	0.105	660364	keystroke_g	g	n/a
330.302	0.12	660604	keystroke_Key.space	Key.space	n/a
330.542	0.1355	661084	keystroke_m	m	n/a
330.6165	0.105	661233	keystroke_a	a	n/a
330.8275	0.089	661655	keystroke_g	g	n/a
330.9315	0.106	661863	keystroke_i	i	n/a
331.1715	0.105	662343	keystroke_c	c	n/a
331.337	0.12	662674	keystroke_a	a	n/a
331.427	0.105	662854	keystroke_l	l	n/a
331.697	0.09	663394	keystroke_Key.enter	Key.enter	n/a
331.791	9.2525	663582	prompt	n/a	savings minor evaluate hartford\n
332.3415	0.06	664683	keystroke_s	s	n/a
332.5065	0.075	665013	keystroke_a	a	n/a
332.702	0.0895	665404	keystroke_v	v	n/a
332.762	0.1345	665524	keystroke_i	i	n/a
332.8815	0.1505	665763	keystroke_n	n	n/a
333.047	0.0445	666094	keystroke_g	g	n/a
333.107	0.135	666214	keystroke_s	s	n/a
333.302	0.1205	666604	keystroke_Key.space	Key.space	n/a
333.6775	0.135	667355	keystroke_m	m	n/a
333.9775	0.105	667955	keystroke_i	i	n/a
334.0825	0.135	668165	keystroke_n	n	n/a
334.4415	0.121	668883	keystroke_o	o	n/a
334.5025	0.12	669005	keystroke_r	r	n/a
334.7115	0.136	669423	keystroke_Key.space	Key.space	n/a
334.8615	0.09	669723	keystroke_e	e	n/a
335.0865	0.091	670173	keystroke_v	v	n/a
335.2665	0.135	670533	keystroke_a	a	n/a
335.3865	0.06	670773	keystroke_l	l	n/a
335.5515	0.105	671103	keystroke_u	u	n/a
335.7175	0.0595	671435	keystroke_a	a	n/a
335.807	0.15	671614	keystroke_l	l	n/a
336.092	0.105	672184	keystroke_t	t	n/a
336.302	0.12	672604	keystroke_e	e	n/a
336.527	0.105	673054	keystroke_Key.space	Key.space	n/a
336.887	0.1195	673774	keystroke_h	h	n/a
337.4115	0.075	674823	keystroke_Key.backspace	Key.backspace	n/a
337.5915	0.06	675183	keystroke_Key.backspace	Key.backspace	n/a
337.7415	0.06	675483	keystroke_Key.backspace	Key.backspace	n/a
337.8915	0.1205	675783	keystroke_Key.backspace	Key.backspace	n/a
338.162	0.09	676324	keystroke_Key.backspace	Key.backspace	n/a
338.9725	0.105	677945	keystroke_t	t	n/a
339.1825	0.105	678365	keystroke_e	e	n/a
339.3175	0.105	678635	keystroke_Key.space	Key.space	n/a
339.4515	0.1505	678903	keystroke_h	h	n/a
339.587	0.09	679174	keystroke_a	a	n/a
339.767	0.105	679534	keystroke_r	r	n/a
340.037	0.09	680074	keystroke_t	t	n/a
340.292	0.075	680584	keystroke_f	f	n/a
340.382	0.105	680764	keystroke_o	o	n/a
340.547	0.1045	681094	keystroke_r	r	n/a
340.7715	0.135	681543	keystroke_d	d	n/a
340.9665	0.075	681933	keystroke_Key.enter	Key.enter	n/a
341.046	6.582	682092	prompt	n/a	notifications performances meant bold\n
341.6865	0.21	683373	keystroke_n	n	n/a
341.9115	0.105	683823	keystroke_o	o	n/a
342.0315	0.09	684063	keystroke_t	t	n/a
342.1515	0.105	684303	keystroke_i	i	n/a
342.2865	0.09	684573	keystroke_f	f	n/a
342.3915	0.105	684783	keystroke_i	i	n/a
342.5415	0.105	685083	keystroke_c	c	n/a
342.6765	0.105	685353	keystroke_a	a	n/a
342.8415	0.105	685683	keystroke_t	t	n/a
342.9315	0.06	685863	keystroke_i	i	n/a
343.0065	0.135	686013	keystroke_o	o	n/a
343.0515	0.18	686103	keystroke_n	n	n/a
343.2015	0.12	686403	keystroke_s	s	n/a
343.3515	0.15	686703	keystroke_Key.space	Key.space	n/a
343.6065	0.135	687213	keystroke_p	p	n/a
343.712	0.1345	687424	keystroke_e	e	n/a
343.8015	0.1055	687603	keystroke_r	r	n/a
344.012	0.105	688024	keystroke_f	f	n/a
344.1015	0.105	688203	keystroke_o	o	n/a
344.252	0.105	688504	keystroke_r	r	n/a
344.417	0.105	688834	keystroke_m	m	n/a
344.5065	0.12	689013	keystroke_a	a	n/a
344.6415	0.1205	689283	keystroke_n	n	n/a
344.732	0.1645	689464	keystroke_c	c	n/a
344.8365	0.195	689673	keystroke_e	e	n/a
344.9565	0.165	689913	keystroke_s	s	n/a
345.1065	0.12	690213	keystroke_Key.space	Key.space	n/a
345.2715	0.18	690543	keystroke_m	m	n/a
345.3615	0.105	690723	keystroke_e	e	n/a
345.5715	0.1055	691143	keystroke_a	a	n/a
345.6015	0.1205	691203	keystroke_n	n	n/a
345.842	0.09	691684	keystroke_t	t	n/a
346.3665	0.12	692733	keystroke_Key.space	Key.space	n/a
346.8315	0.105	693663	keystroke_b	b	n/a
347.0265	0.091	694053	keystroke_o	o	n/a
347.2225	0.105	694445	keystroke_l	l	n/a
347.2965	0.151	694593	keystroke_d	d	n/a
347.5375	0.0895	695075	keystroke_Key.enter	Key.enter	n/a
347.6315	5.937	695263	prompt	n/a	creatures rain toolbox destroyed\n
348.242	0.105	696484	keystroke_c	c	n/a
348.512	0.105	697024	keystroke_r	r	n/a
348.557	0.12	697114	keystroke_e	e	n/a
348.737	0.135	697474	keystroke_a	a	n/a
348.902	0.09	697804	keystroke_t	t	n/a
349.007	0.135	698014	keystroke_u	u	n/a
349.127	0.12	698254	keystroke_r	r	n/a
349.202	0.18	698404	keystroke_e	e	n/a
349.307	0.165	698614	keystroke_s	s	n/a
349.442	0.12	698884	keystroke_Key.space	Key.space	n/a
349.607	0.105	699214	keystroke_r	r	n/a
349.727	0.1645	699454	keystroke_a	a	n/a
349.8765	0.135	699753	keystroke_i	i	n/a
349.9665	0.165	699933	keystroke_n	n	n/a
350.1015	0.165	700203	keystroke_Key.space	Key.space	n/a
350.2965	0.105	700593	keystroke_t	t	n/a
350.4315	0.09	700863	keystroke_o	o	n/a
350.6265	0.06	701253	keystroke_o	o	n/a
350.8215	0.09	701643	keystroke_l	l	n/a
350.9865	0.165	701973	keystroke_b	b	n/a
351.1665	0.135	702333	keystroke_o	o	n/a
351.2715	0.135	702543	keystroke_x	x	n/a
351.3915	0.15	702783	keystroke_Key.space	Key.space	n/a
351.6015	0.135	703203	keystroke_d	d	n/a
351.9775	0.119	703955	keystroke_e	e	n/a
352.1565	0.12	704313	keystroke_s	s	n/a
352.3515	0.12	704703	keystroke_t	t	n/a
352.5465	0.105	705093	keystroke_r	r	n/a
352.682	0.12	705364	keystroke_o	o	n/a
352.772	0.105	705544	keystroke_y	y	n/a
352.997	0.075	705994	keystroke_e	e	n/a
353.207	0.09	706414	keystroke_d	d	n/a
353.477	0.09	706954	keystroke_Key.enter	Key.enter	n/a
353.5725	5.9055	707145	prompt	n/a	evanescence hanging another slim\n
354.1215	0.105	708243	keystroke_e	e	n/a
354.3765	0.105	708753	keystroke_v	v	n/a
354.5715	0.1205	709143	keystroke_a	a	n/a
354.662	0.12	709324	keystroke_n	n	n/a
355.1115	0.15	710223	keystroke_e	e	n/a
355.5025	0.09	711005	keystroke_s	s	n/a
355.802	0.105	711604	keystroke_c	c	n/a
356.027	0.09	712054	keystroke_e	e	n/a
356.192	0.105	712384	keystroke_n	n	n/a
356.312	0.195	712624	keystroke_c	c	n/a
356.492	0.075	712984	keystroke_e	e	n/a
356.612	0.105	713224	keystroke_Key.space	Key.space	n/a
356.777	0.12	713554	keystroke_h	h	n/a
356.882	0.105	713764	keystroke_a	a	n/a
357.032	0.105	714064	keystroke_n	n	n/a
357.182	0.12	714364	keystroke_g	g	n/a
357.272	0.12	714544	keystroke_i	i	n/a
357.362	0.195	714724	keystroke_n	n	n/a
357.512	0.105	715024	keystroke_g	g	n/a
357.602	0.1195	715204	keystroke_Key.space	Key.space	n/a
357.7525	0.119	715505	keystroke_a	a	n/a
357.8125	0.165	715625	keystroke_n	n	n/a
357.9915	0.136	715983	keystroke_o	o	n/a
358.1115	0.106	716223	keystroke_t	t	n/a
358.2315	0.15	716463	keystroke_h	h	n/a
358.3665	0.136	716733	keystroke_e	e	n/a
358.4565	0.135	716913	keystroke_r	r	n/a
358.6065	0.12	717213	keystroke_Key.space	Key.space	n/a
358.7415	0.165	717483	keystroke_s	s	n/a
358.8915	0.18	717783	keystroke_l	l	n/a
359.0115	0.15	718023	keystroke_i	i	n/a
359.1315	0.135	718263	keystroke_m	m	n/a
359.3865	0.09	718773	keystroke_Key.enter	Key.enter	n/a
359.481	8.3825	718962	prompt	n/a	philadelphia winner tractor composite\n
360.1215	0.105	720243	keystroke_p	p	n/a
360.3465	0.105	720693	keystroke_h	h	n/a
360.5565	0.15	721113	keystroke_i	i	n/a
360.7075	0.149	721415	keystroke_l	l	n/a
360.8715	0.09	721743	keystroke_a	a	n/a
361.067	0.12	722134	keystroke_d	d	n/a
361.322	0.09	722644	keystroke_e	e	n/a
361.472	0.09	722944	keystroke_p	p	n/a
361.802	0.135	723604	keystroke_l	l	n/a
362.177	0.06	724354	keystroke_Key.backspace	Key.backspace	n/a
362.312	0.06	724624	keystroke_Key.backspace	Key.backspace	n/a
362.537	0.12	725074	keystroke_l	l	n/a
362.7915	0.12	725583	keystroke_p	p	n/a
363.2565	0.12	726513	keystroke_h	h	n/a
363.4815	0.165	726963	keystroke_i	i	n/a
363.6015	0.12	727203	keystroke_a	a	n/a
363.7365	0.091	727473	keystroke_Key.space	Key.space	n/a
363.8565	0.12	727713	keystroke_w	w	n/a
363.9465	0.105	727893	keystroke_i	i	n/a
364.0065	0.105	728013	keystroke_n	n	n/a
364.1715	0.135	728343	keystroke_n	n	n/a
364.3215	0.165	728643	keystroke_e	e	n/a
364.4115	0.15	728823	keystroke_r	r	n/a
364.5765	0.135	729153	keystroke_Key.space	Key.space	n/a
364.7415	0.09	729483	keystroke_t	t	n/a
364.937	0.105	729874	keystroke_r	r	n/a
365.0265	0.12	730053	keystroke_a	a	n/a
365.2665	0.105	730533	keystroke_c	c	n/a
365.5515	0.09	731103	keystroke_t	t	n/a
365.7925	0.105	731585	keystroke_o	o	n/a
365.8815	0.12	731763	keystroke_r	r	n/a
366.0615	0.12	732123	keystroke_Key.space	Key.space	n/a
366.3765	0.12	732753	keystroke_c	c	n/a
366.4825	0.134	732965	keystroke_o	o	n/a
366.5865	0.1805	733173	keystroke_m	m	n/a
366.782	0.105	733564	keystroke_p	p	n/a
366.977	0.105	733954	keystroke_o	o	n/a
367.157	0.15	734314	keystroke_s	s	n/a
367.292	0.12	734584	keystroke_i	i	n/a
367.427	0.15	734854	keystroke_t	t	n/a
367.547	0.15	735094	keystroke_e	e	n/a
367.787	0.075	735574	keystroke_Key.enter	Key.enter	n/a
367.8665	6.2215	735733	prompt	n/a	italiano cables cedar appeared\n
368.5815	0.1055	737163	keystroke_i	i	n/a
368.7915	0.09	737583	keystroke_t	t	n/a
368.9565	0.165	737913	keystroke_a	a	n/a
369.107	0.1195	738214	keystroke_l	l	n/a
369.377	0.1045	738754	keystroke_i	i	n/a
369.6015	0.105	739203	keystroke_a	a	n/a
369.7215	0.1055	739443	keystroke_n	n	n/a
369.917	0.15	739834	keystroke_o	o	n/a
370.052	0.135	740104	keystroke_Key.space	Key.space	n/a
370.352	0.165	740704	keystroke_c	c	n/a
370.532	0.09	741064	keystroke_a	a	n/a
370.562	0.09	741124	keystroke_b	b	n/a
370.772	0.1355	741544	keystroke_l	l	n/a
370.9225	0.165	741845	keystroke_e	e	n/a
371.0125	0.135	742025	keystroke_s	s	n/a
371.1325	0.09	742265	keystroke_Key.space	Key.space	n/a
371.2975	0.1345	742595	keystroke_c	c	n/a
371.447	0.075	742894	keystroke_e	e	n/a
371.657	0.06	743314	keystroke_d	d	n/a
371.837	0.165	743674	keystroke_a	a	n/a
371.942	0.135	743884	keystroke_r	r	n/a
372.1065	0.105	744213	keystroke_Key.space	Key.space	n/a
372.3025	0.119	744605	keystroke_a	a	n/a
372.6175	0.09	745235	keystroke_p	p	n/a
372.7975	0.12	745595	keystroke_p	p	n/a
372.8725	0.09	745745	keystroke_e	e	n/a
373.0675	0.164	746135	keystroke_a	a	n/a
373.1565	0.106	746313	keystroke_r	r	n/a
373.5765	0.076	747153	keystroke_e	e	n/a
373.787	0.105	747574	keystroke_d	d	n/a
373.982	0.105	747964	keystroke_Key.enter	Key.enter	n/a
374.0915	4.9165	748183	prompt	n/a	trips paint turns shipping\n
374.777	0.09	749554	keystroke_t	t	n/a
374.957	0.135	749914	keystroke_r	r	n/a
375.272	0.135	750544	keystroke_i	i	n/a
375.437	0.165	750874	keystroke_p	p	n/a
375.572	0.12	751144	keystroke_s	s	n/a
375.692	0.135	751384	keystroke_Key.space	Key.space	n/a
376.097	0.135	752194	keystroke_p	p	n/a
376.247	0.135	752494	keystroke_a	a	n/a
376.382	0.12	752764	keystroke_i	i	n/a
376.472	0.195	752944	keystroke_n	n	n/a
376.622	0.105	753244	keystroke_t	t	n/a
376.817	0.105	753634	keystroke_Key.space	Key.space	n/a
376.937	0.105	753874	keystroke_t	t	n/a
377.147	0.09	754294	keystroke_u	u	n/a
377.222	0.12	754444	keystroke_r	r	n/a
377.372	0.135	754744	keystroke_n	n	n/a
377.552	0.1195	755104	keystroke_s	s	n/a
377.6565	0.105	755313	keystroke_Key.space	Key.space	n/a
377.8215	0.12	755643	keystroke_s	s	n/a
377.8815	0.12	755763	keystroke_h	h	n/a
377.9715	0.105	755943	keystroke_i	i	n/a
378.1815	0.1205	756363	keystroke_p	p	n/a
378.362	0.105	756724	keystroke_p	p	n/a
378.497	0.135	756994	keystroke_i	i	n/a
378.6015	0.1505	757203	keystroke_n	n	n/a
378.692	0.09	757384	keystroke_g	g	n/a
378.932	0.075	757864	keystroke_Key.enter	Key.enter	n/a
379.0115	5.832	758023	prompt	n/a	crossing dont roughly corresponding\n
379.6215	0.1355	759243	keystroke_c	c	n/a
379.922	0.105	759844	keystroke_r	r	n/a
380.042	0.1045	760084	keystroke_o	o	n/a
380.1765	0.075	760353	keystroke_s	s	n/a
380.3565	0.105	760713	keystroke_s	s	n/a
380.4465	0.12	760893	keystroke_i	i	n/a
380.5365	0.165	761073	keystroke_n	n	n/a
380.6715	0.075	761343	keystroke_g	g	n/a
380.7315	0.12	761463	keystroke_Key.space	Key.space	n/a
380.8815	0.18	761763	keystroke_d	d	n/a
381.0465	0.12	762093	keystroke_o	o	n/a
381.1065	0.2105	762213	keystroke_n	n	n/a
381.2565	0.1055	762513	keystroke_t	t	n/a
381.377	0.135	762754	keystroke_Key.space	Key.space	n/a
381.542	0.12	763084	keystroke_r	r	n/a
381.692	0.1195	763384	keystroke_o	o	n/a
381.7665	0.105	763533	keystroke_u	u	n/a
382.0365	0.105	764073	keystroke_g	g	n/a
382.1565	0.12	764313	keystroke_h	h	n/a
382.3665	0.165	764733	keystroke_l	l	n/a
382.4715	0.105	764943	keystroke_y	y	n/a
382.6215	0.15	765243	keystroke_Key.space	Key.space	n/a
382.8315	0.12	765663	keystroke_c	c	n/a
382.9365	0.105	765873	keystroke_o	o	n/a
383.0865	0.091	766173	keystroke_r	r	n/a
383.2525	0.105	766505	keystroke_r	r	n/a
383.3725	0.135	766745	keystroke_e	e	n/a
383.5675	0.135	767135	keystroke_s	s	n/a
383.7175	0.12	767435	keystroke_p	p	n/a
383.8215	0.106	767643	keystroke_o	o	n/a
384.0475	0.149	768095	keystroke_n	n	n/a
384.2265	0.12	768453	keystroke_d	d	n/a
384.3315	0.12	768663	keystroke_i	i	n/a
384.3925	0.134	768785	keystroke_n	n	n/a
384.5565	0.106	769113	keystroke_g	g	n/a
384.7515	0.09	769503	keystroke_Key.enter	Key.enter	n/a
384.8465	5.892	769693	prompt	n/a	overseas yarn farms scripts\n
385.532	0.1055	771064	keystroke_o	o	n/a
385.622	0.045	771244	keystroke_w	w	n/a
385.9825	0.0745	771965	keystroke_Key.backspace	Key.backspace	n/a
386.0725	0.1045	772145	keystroke_v	v	n/a
386.267	0.1505	772534	keystroke_e	e	n/a
386.3725	0.12	772745	keystroke_r	r	n/a
386.5825	0.165	773165	keystroke_s	s	n/a
386.7175	0.09	773435	keystroke_e	e	n/a
386.9275	0.105	773855	keystroke_a	a	n/a
387.1525	0.089	774305	keystroke_s	s	n/a
387.2275	0.135	774455	keystroke_Key.space	Key.space	n/a
387.3775	0.09	774755	keystroke_y	y	n/a
387.5425	0.195	775085	keystroke_a	a	n/a
387.6775	0.15	775355	keystroke_r	r	n/a
387.8425	0.12	775685	keystroke_n	n	n/a
387.9775	0.12	775955	keystroke_Key.space	Key.space	n/a
388.1425	0.12	776285	keystroke_f	f	n/a
388.637	0.135	777274	keystroke_a	a	n/a
388.847	0.12	777694	keystroke_r	r	n/a
388.952	0.15	777904	keystroke_m	m	n/a
389.087	0.15	778174	keystroke_s	s	n/a
389.222	0.15	778444	keystroke_Key.space	Key.space	n/a
389.522	0.135	779044	keystroke_s	s	n/a
389.7475	0.105	779495	keystroke_c	c	n/a
389.9725	0.1045	779945	keystroke_r	r	n/a
390.0475	0.0895	780095	keystroke_i	i	n/a
390.242	0.105	780484	keystroke_p	p	n/a
390.362	0.12	780724	keystroke_t	t	n/a
390.527	0.1355	781054	keystroke_s	s	n/a
390.6775	0.06	781355	keystroke_Key.enter	Key.enter	n/a
390.7415	5.9215	781483	prompt	n/a	wesley horse sagem contains\n
391.337	0.24	782674	keystroke_w	w	n/a
391.517	0.075	783034	keystroke_e	e	n/a
391.982	0.0305	783964	keystroke_Key.backspace	Key.backspace	n/a
392.597	0.1355	785194	keystroke_e	e	n/a
392.7775	0.12	785555	keystroke_s	s	n/a
392.9875	0.165	785975	keystroke_l	l	n/a
393.1825	0.105	786365	keystroke_e	e	n/a
393.3925	0.135	786785	keystroke_y	y	n/a
393.5125	0.105	787025	keystroke_Key.space	Key.space	n/a
393.7225	0.12	787445	keystroke_h	h	n/a
393.8575	0.134	787715	keystroke_o	o	n/a
393.9465	0.1055	787893	keystroke_r	r	n/a
394.112	0.21	788224	keystroke_s	s	n/a
394.262	0.12	788524	keystroke_e	e	n/a
394.397	0.135	788794	keystroke_Key.space	Key.space	n/a
394.562	0.105	789124	keystroke_s	s	n/a
394.772	0.09	789544	keystroke_a	a	n/a
394.967	0.075	789934	keystroke_g	g	n/a
395.087	0.135	790174	keystroke_e	e	n/a
395.237	0.15	790474	keystroke_m	m	n/a
395.387	0.15	790774	keystroke_Key.space	Key.space	n/a
395.522	0.165	791044	keystroke_c	c	n/a
395.642	0.135	791284	keystroke_o	o	n/a
395.717	0.165	791434	keystroke_n	n	n/a
395.897	0.075	791794	keystroke_t	t	n/a
396.0465	0.1205	792093	keystroke_a	a	n/a
396.107	0.12	792214	keystroke_i	i	n/a
396.182	0.135	792364	keystroke_n	n	n/a
396.332	0.12	792664	keystroke_s	s	n/a
396.587	0.075	793174	keystroke_Key.enter	Key.enter	n/a
396.6655	7.258	793331	prompt	n/a	houston surface meetings afterwards\n
397.322	0.12	794644	keystroke_h	h	n/a
397.457	0.18	794914	keystroke_o	o	n/a
397.577	0.105	795154	keystroke_u	u	n/a
397.697	0.09	795394	keystroke_s	s	n/a
397.877	0.18	795754	keystroke_t	t	n/a
398.027	0.135	796054	keystroke_o	o	n/a
398.1175	0.1635	796235	keystroke_n	n	n/a
398.2525	0.134	796505	keystroke_Key.space	Key.space	n/a
398.537	0.1505	797074	keystroke_s	s	n/a
398.6725	0.105	797345	keystroke_u	u	n/a
398.8525	0.12	797705	keystroke_r	r	n/a
399.242	0.0895	798484	keystroke_f	f	n/a
399.3765	0.1505	798753	keystroke_a	a	n/a
399.632	0.15	799264	keystroke_c	c	n/a
399.737	0.135	799474	keystroke_e	e	n/a
399.842	0.135	799684	keystroke_Key.space	Key.space	n/a
400.022	0.165	800044	keystroke_m	m	n/a
400.142	0.075	800284	keystroke_e	e	n/a
400.307	0.12	800614	keystroke_e	e	n/a
400.532	0.06	801064	keystroke_e	e	n/a
400.907	0.075	801814	keystroke_Key.backspace	Key.backspace	n/a
401.012	0.09	802024	keystroke_t	t	n/a
401.192	0.135	802384	keystroke_i	i	n/a
401.282	0.18	802564	keystroke_n	n	n/a
401.417	0.12	802834	keystroke_g	g	n/a
401.612	0.12	803224	keystroke_s	s	n/a
401.687	0.1205	803374	keystroke_Key.space	Key.space	n/a
402.0025	0.164	804005	keystroke_a	a	n/a
402.1525	0.089	804305	keystroke_f	f	n/a
402.3775	0.09	804755	keystroke_t	t	n/a
402.4975	0.21	804995	keystroke_e	e	n/a
402.6925	0.135	805385	keystroke_r	r	n/a
403.0225	0.15	806045	keystroke_w	w	n/a
403.1575	0.15	806315	keystroke_a	a	n/a
403.3075	0.09	806615	keystroke_r	r	n/a
403.5175	0.1645	807035	keystroke_d	d	n/a
403.667	0.1345	807334	keystroke_s	s	n/a
403.8465	0.075	807693	keystroke_Key.enter	Key.enter	n/a
403.9265	6.552	807853	prompt	n/a	workforce johnston chubby http\n
404.5515	0.165	809103	keystroke_w	w	n/a
404.8065	0.121	809613	keystroke_o	o	n/a
404.912	0.1195	809824	keystroke_r	r	n/a
405.0465	0.15	810093	keystroke_k	k	n/a
405.3465	0.09	810693	keystroke_f	f	n/a
405.4665	0.12	810933	keystroke_o	o	n/a
405.797	0.105	811594	keystroke_r	r	n/a
406.067	0.15	812134	keystroke_c	c	n/a
406.232	0.1045	812464	keystroke_e	e	n/a
406.3515	0.121	812703	keystroke_Key.space	Key.space	n/a
406.5925	0.15	813185	keystroke_j	j	n/a
406.7715	0.181	813543	keystroke_o	o	n/a
406.8775	0.135	813755	keystroke_h	h	n/a
407.2075	0.135	814415	keystroke_n	n	n/a
407.4475	0.135	814895	keystroke_s	s	n/a
407.5975	0.165	815195	keystroke_t	t	n/a
407.7475	0.15	815495	keystroke_o	o	n/a
407.8075	0.21	815615	keystroke_n	n	n/a
408.0025	0.179	816005	keystroke_Key.space	Key.space	n/a
408.2415	0.135	816483	keystroke_c	c	n/a
408.3175	0.164	816635	keystroke_h	h	n/a
408.4515	0.135	816903	keystroke_u	u	n/a
408.6475	0.134	817295	keystroke_b	b	n/a
408.8565	0.106	817713	keystroke_b	b	n/a
409.0215	0.105	818043	keystroke_y	y	n/a
409.2015	0.105	818403	keystroke_Key.space	Key.space	n/a
409.5165	0.121	819033	keystroke_h	h	n/a
409.8325	0.104	819665	keystroke_t	t	n/a
410.0275	0.119	820055	keystroke_t	t	n/a
410.1615	0.075	820323	keystroke_p	p	n/a
410.4015	0.075	820803	keystroke_Key.enter	Key.enter	n/a
410.4815	8.4865	820963	prompt	n/a	discussions vermont softball experiment\n
411.1815	0.105	822363	keystroke_d	d	n/a
411.3165	0.12	822633	keystroke_i	i	n/a
411.407	0.135	822814	keystroke_s	s	n/a
411.587	0.15	823174	keystroke_c	c	n/a
411.707	0.105	823414	keystroke_u	u	n/a
411.842	0.12	823684	keystroke_s	s	n/a
412.052	0.09	824104	keystroke_s	s	n/a
412.157	0.12	824314	keystroke_i	i	n/a
412.247	0.1795	824494	keystroke_o	o	n/a
412.4715	0.195	824943	keystroke_n	n	n/a
412.8015	0.135	825603	keystroke_s	s	n/a
413.0115	0.0905	826023	keystroke_Key.space	Key.space	n/a
413.117	0.075	826234	keystroke_v	v	n/a
413.252	0.165	826504	keystroke_e	e	n/a
413.372	0.12	826744	keystroke_r	r	n/a
413.552	0.135	827104	keystroke_m	m	n/a
413.688	0.1785	827376	keystroke_o	o	n/a
413.8215	0.18	827643	keystroke_n	n	n/a
414.1065	0.136	828213	keystroke_t	t	n/a
414.3015	0.12	828603	keystroke_Key.space	Key.space	n/a
414.4515	0.1205	828903	keystroke_s	s	n/a
414.677	0.15	829354	keystroke_o	o	n/a
414.797	0.105	829594	keystroke_f	f	n/a
415.022	0.09	830044	keystroke_t	t	n/a
415.232	0.12	830464	keystroke_b	b	n/a
415.337	0.15	830674	keystroke_a	a	n/a
415.472	0.105	830944	keystroke_l	l	n/a
415.652	0.1795	831304	keystroke_l	l	n/a
415.8325	0.134	831665	keystroke_Key.space	Key.space	n/a
415.9515	0.075	831903	keystroke_e	e	n/a
416.1765	0.12	832353	keystroke_x	x	n/a
416.2975	0.104	832595	keystroke_p	p	n/a
416.4465	0.195	832893	keystroke_e	e	n/a
416.5815	0.15	833163	keystroke_r	r	n/a
416.7465	0.12	833493	keystroke_i	i	n/a
416.9425	0.104	833885	keystroke_e	e	n/a
417.0615	0.12	834123	keystroke_m	m	n/a
417.3165	0.105	834633	keystroke_n	n	n/a
417.7675	0.06	835535	keystroke_Key.backspace	Key.backspace	n/a
417.9175	0.075	835835	keystroke_Key.backspace	Key.backspace	n/a
418.067	0.06	836134	keystroke_Key.backspace	Key.backspace	n/a
418.307	0.135	836614	keystroke_m	m	n/a
418.442	0.105	836884	keystroke_e	e	n/a
418.562	0.1205	837124	keystroke_n	n	n/a
418.667	0.1205	837334	keystroke_t	t	n/a
418.8775	0.089	837755	keystroke_Key.enter	Key.enter	n/a
418.971	6.1025	837942	prompt	n/a	origin endless siemens differences\n
419.5215	0.121	839043	keystroke_o	o	n/a
419.6575	0.075	839315	keystroke_r	r	n/a
419.7625	0.119	839525	keystroke_i	i	n/a
419.8965	0.105	839793	keystroke_g	g	n/a
419.9865	0.121	839973	keystroke_i	i	n/a
420.0475	0.179	840095	keystroke_n	n	n/a
420.2565	0.15	840513	keystroke_Key.space	Key.space	n/a
420.4515	0.12	840903	keystroke_e	e	n/a
420.5415	0.15	841083	keystroke_n	n	n/a
420.7365	0.12	841473	keystroke_d	d	n/a
420.8875	0.134	841775	keystroke_l	l	n/a
421.0365	0.181	842073	keystroke_e	e	n/a
421.1415	0.1505	842283	keystroke_s	s	n/a
421.382	0.105	842764	keystroke_s	s	n/a
421.472	0.105	842944	keystroke_Key.space	Key.space	n/a
421.742	0.135	843484	keystroke_i	i	n/a
422.147	0.075	844294	keystroke_Key.backspace	Key.backspace	n/a
422.267	0.135	844534	keystroke_s	s	n/a
422.417	0.105	844834	keystroke_i	i	n/a
422.567	0.135	845134	keystroke_e	e	n/a
422.732	0.105	845464	keystroke_m	m	n/a
422.852	0.1055	845704	keystroke_e	e	n/a
422.9725	0.1195	845945	keystroke_n	n	n/a
423.107	0.135	846214	keystroke_s	s	n/a
423.2575	0.1045	846515	keystroke_Key.space	Key.space	n/a
423.377	0.135	846754	keystroke_d	d	n/a
423.482	0.135	846964	keystroke_i	i	n/a
423.647	0.075	847294	keystroke_f	f	n/a
423.812	0.0905	847624	keystroke_f	f	n/a
423.9625	0.149	847925	keystroke_e	e	n/a
424.0815	0.166	848163	keystroke_r	r	n/a
424.2315	0.105	848463	keystroke_e	e	n/a
424.3225	0.134	848645	keystroke_n	n	n/a
424.4415	0.18	848883	keystroke_c	c	n/a
424.6365	0.151	849273	keystroke_e	e	n/a
424.7125	0.165	849425	keystroke_s	s	n/a
424.9825	0.089	849965	keystroke_Key.enter	Key.enter	n/a
425.0775	8.381	850155	prompt	n/a	approximate holland hindu surveillance\n
425.7015	0.0605	851403	keystroke_a	a	n/a
425.777	0.075	851554	keystroke_p	p	n/a
426.332	0.075	852664	keystroke_p	p	n/a
426.587	0.075	853174	keystroke_r	r	n/a
426.677	0.105	853354	keystroke_o	o	n/a
426.962	0.1645	853924	keystroke_x	x	n/a
427.1565	0.075	854313	keystroke_i	i	n/a
427.3815	0.136	854763	keystroke_m	m	n/a
427.8315	0.105	855663	keystroke_a	a	n/a
428.0115	0.165	856023	keystroke_t	t	n/a
428.1315	0.135	856263	keystroke_e	e	n/a
428.2515	0.135	856503	keystroke_Key.space	Key.space	n/a
428.4165	0.136	856833	keystroke_h	h	n/a
428.5375	0.119	857075	keystroke_o	o	n/a
428.7915	0.105	857583	keystroke_l	l	n/a
429.0465	0.12	858093	keystroke_l	l	n/a
429.3465	0.12	858693	keystroke_a	a	n/a
429.4515	0.15	858903	keystroke_n	n	n/a
429.5865	0.135	859173	keystroke_d	d	n/a
429.7065	0.135	859413	keystroke_Key.space	Key.space	n/a
429.9165	0.135	859833	keystroke_h	h	n/a
430.0365	0.15	860073	keystroke_i	i	n/a
430.1715	0.18	860343	keystroke_n	n	n/a
430.2915	0.135	860583	keystroke_d	d	n/a
430.5765	0.12	861153	keystroke_u	u	n/a
430.8015	0.105	861603	keystroke_Key.space	Key.space	n/a
431.0115	0.12	862023	keystroke_s	s	n/a
431.2965	0.105	862593	keystroke_u	u	n/a
431.4165	0.09	862833	keystroke_r	r	n/a
431.6865	0.1055	863373	keystroke_v	v	n/a
432.1215	0.1055	864243	keystroke_e	e	n/a
432.332	0.09	864664	keystroke_i	i	n/a
432.557	0.06	865114	keystroke_l	l	n/a
432.692	0.09	865384	keystroke_l	l	n/a
432.782	0.105	865564	keystroke_a	a	n/a
432.872	0.18	865744	keystroke_n	n	n/a
433.037	0.135	866074	keystroke_c	c	n/a
433.187	0.105	866374	keystroke_e	e	n/a
433.382	0.075	866764	keystroke_Key.enter	Key.enter	n/a
433.4615	5.157	866923	prompt	n/a	pull explain hindu approved\n
434.1315	0.09	868263	keystroke_p	p	n/a
434.3115	0.105	868623	keystroke_u	u	n/a
434.5215	0.09	869043	keystroke_l	l	n/a
434.6865	0.135	869373	keystroke_l	l	n/a
434.8515	0.1205	869703	keystroke_Key.space	Key.space	n/a
434.972	0.06	869944	keystroke_e	e	n/a
435.197	0.105	870394	keystroke_x	x	n/a
435.272	0.09	870544	keystroke_p	p	n/a
435.767	0.12	871534	keystroke_l	l	n/a
435.947	0.135	871894	keystroke_a	a	n/a
436.067	0.135	872134	keystroke_i	i	n/a
436.157	0.1655	872314	keystroke_n	n	n/a
436.2925	0.15	872585	keystroke_Key.space	Key.space	n/a
436.4575	0.15	872915	keystroke_h	h	n/a
436.5925	0.18	873185	keystroke_i	i	n/a
436.7425	0.18	873485	keystroke_n	n	n/a
436.9075	0.12	873815	keystroke_d	d	n/a
437.087	0.135	874174	keystroke_u	u	n/a
437.297	0.12	874594	keystroke_Key.space	Key.space	n/a
437.447	0.165	874894	keystroke_a	a	n/a
437.582	0.06	875164	keystroke_p	p	n/a
437.717	0.105	875434	keystroke_p	p	n/a
437.807	0.075	875614	keystroke_r	r	n/a
437.897	0.18	875794	keystroke_o	o	n/a
438.062	0.09	876124	keystroke_v	v	n/a
438.197	0.075	876394	keystroke_e	e	n/a
438.392	0.12	876784	keystroke_d	d	n/a
438.557	0.06	877114	keystroke_Key.enter	Key.enter	n/a
438.6225	7.271	877245	prompt	n/a	intersection infectious receiving solar\n
439.1725	0.075	878345	keystroke_i	i	n/a
439.2925	0.18	878585	keystroke_n	n	n/a
439.4125	0.12	878825	keystroke_t	t	n/a
439.5775	0.179	879155	keystroke_e	e	n/a
439.6975	0.149	879395	keystroke_r	r	n/a
439.9215	0.225	879843	keystroke_s	s	n/a
440.0725	0.119	880145	keystroke_e	e	n/a
440.4315	0.12	880863	keystroke_c	c	n/a
440.7015	0.105	881403	keystroke_t	t	n/a
440.7765	0.1505	881553	keystroke_i	i	n/a
440.897	0.135	881794	keystroke_o	o	n/a
440.942	0.21	881884	keystroke_n	n	n/a
441.137	0.15	882274	keystroke_Key.space	Key.space	n/a
441.287	0.165	882574	keystroke_i	i	n/a
441.422	0.21	882844	keystroke_n	n	n/a
441.617	0.1355	883234	keystroke_f	f	n/a
441.7825	0.135	883565	keystroke_e	e	n/a
442.0225	0.1645	884045	keystroke_c	c	n/a
442.337	0.12	884674	keystroke_t	t	n/a
442.547	0.135	885094	keystroke_i	i	n/a
442.697	0.15	885394	keystroke_o	o	n/a
442.817	0.15	885634	keystroke_u	u	n/a
443.057	0.1195	886114	keystroke_s	s	n/a
443.2215	0.12	886443	keystroke_Key.space	Key.space	n/a
443.4915	0.135	886983	keystroke_r	r	n/a
443.6115	0.12	887223	keystroke_e	e	n/a
443.8215	0.181	887643	keystroke_c	c	n/a
443.9875	0.105	887975	keystroke_e	e	n/a
444.2125	0.12	888425	keystroke_i	i	n/a
444.3475	0.135	888695	keystroke_v	v	n/a
444.4375	0.165	888875	keystroke_i	i	n/a
444.5575	0.18	889115	keystroke_n	n	n/a
444.7075	0.12	889415	keystroke_g	g	n/a
444.7825	0.165	889565	keystroke_Key.space	Key.space	n/a
444.9625	0.15	889925	keystroke_s	s	n/a
445.0825	0.09	890165	keystroke_o	o	n/a
445.2925	0.135	890585	keystroke_l	l	n/a
445.3825	0.12	890765	keystroke_a	a	n/a
445.5775	0.12	891155	keystroke_r	r	n/a
445.802	0.09	891604	keystroke_Key.enter	Key.enter	n/a
445.896	6.4175	891792	prompt	n/a	cables pastor brandon vatican\n
446.477	0.135	892954	keystroke_c	c	n/a
446.627	0.12	893254	keystroke_a	a	n/a
446.748	0.089	893496	keystroke_b	b	n/a
446.957	0.165	893914	keystroke_l	l	n/a
447.032	0.15	894064	keystroke_e	e	n/a
447.152	0.135	894304	keystroke_s	s	n/a
447.257	0.1345	894514	keystroke_Key.space	Key.space	n/a
447.4065	0.12	894813	keystroke_p	p	n/a
447.5115	0.106	895023	keystroke_a	a	n/a
447.7075	0.074	895415	keystroke_s	s	n/a
447.8715	0.105	895743	keystroke_t	t	n/a
448.0065	0.15	896013	keystroke_o	o	n/a
448.1115	0.12	896223	keystroke_r	r	n/a
448.2765	0.105	896553	keystroke_Key.space	Key.space	n/a
448.4715	0.135	896943	keystroke_b	b	n/a
448.6965	0.15	897393	keystroke_a	a	n/a
449.0265	0.06	898053	keystroke_r	r	n/a
449.3115	0.075	898623	keystroke_Key.backspace	Key.backspace	n/a
449.4615	0.045	898923	keystroke_Key.backspace	Key.backspace	n/a
449.5515	0.09	899103	keystroke_r	r	n/a
449.762	0.105	899524	keystroke_a	a	n/a
449.822	0.12	899644	keystroke_n	n	n/a
449.987	0.12	899974	keystroke_d	d	n/a
450.122	0.18	900244	keystroke_o	o	n/a
