onset	duration	sample	value	key	prompt_text
1.4455	16.5555	2891	prompt	n/a	the quick brown fox jumps over a lazy dog\n
4.0655	0.028	8131	keystroke_t	t	n/a
4.0795	0.075	8159	keystroke_h	h	n/a
4.1985	0.1355	8397	keystroke_e	e	n/a
4.349	0.09	8698	keystroke_Key.space	Key.space	n/a
5.099	0.09	10198	keystroke_q	q	n/a
5.3985	0.105	10797	keystroke_u	u	n/a
5.443	0.121	10886	keystroke_i	i	n/a
5.593	0.0905	11186	keystroke_c	c	n/a
5.714	0.09	11428	keystroke_k	k	n/a
5.8485	0.1055	11697	keystroke_Key.space	Key.space	n/a
6.149	0.075	12298	keystroke_v	v	n/a
6.734	0.045	13468	keystroke_=	=	n/a
7.2885	0.0865	14577	keystroke_Key.backspace	Key.backspace	n/a
7.4355	0.105	14871	keystroke_Key.backspace	Key.backspace	n/a
7.75	0.091	15500	keystroke_b	b	n/a
8.4275	0.1055	16855	keystroke_r	r	n/a
8.6225	0.105	17245	keystroke_i	i	n/a
8.698	0.1045	17396	keystroke_w	w	n/a
9.508	0.075	19016	keystroke_Key.backspace	Key.backspace	n/a
10.0025	0.1205	20005	keystroke_Key.backspace	Key.backspace	n/a
10.6325	0.0905	21265	keystroke_o	o	n/a
10.7375	0.1205	21475	keystroke_w	w	n/a
10.8875	0.09	21775	keystroke_n	n	n/a
11.022	0.1055	22044	keystroke_Key.space	Key.space	n/a
11.307	0.1055	22614	keystroke_f	f	n/a
11.5625	0.0905	23125	keystroke_o	o	n/a
11.638	0.15	23276	keystroke_x	x	n/a
11.847	0.0905	23694	keystroke_Key.space	Key.space	n/a
12.448	0.09	24896	keystroke_j	j	n/a
12.4925	0.1205	24985	keystroke_u	u	n/a
12.7175	0.1505	25435	keystroke_m	m	n/a
12.8825	0.1355	25765	keystroke_o	o	n/a
13.0775	0.09	26155	keystroke_s	s	n/a
13.5275	0.0905	27055	keystroke_Key.backspace	Key.backspace	n/a
13.6775	0.1045	27355	keystroke_Key.backspace	Key.backspace	n/a
14.172	0.0905	28344	keystroke_p	p	n/a
14.218	0.165	28436	keystroke_s	s	n/a
14.3675	0.105	28735	keystroke_Key.space	Key.space	n/a
14.727	0.12	29454	keystroke_o	o	n/a
14.8775	0.1205	29755	keystroke_v	v	n/a
15.058	0.179	30116	keystroke_e	e	n/a
15.163	0.12	30326	keystroke_r	r	n/a
15.268	0.105	30536	keystroke_Key.space	Key.space	n/a
15.374	0.164	30748	keystroke_a	a	n/a
15.5075	0.135	31015	keystroke_Key.space	Key.space	n/a
16.017	0.091	32034	keystroke_l	l	n/a
16.123	0.105	32246	keystroke_a	a	n/a
16.348	0.105	32696	keystroke_z	z	n/a
16.933	0.09	33866	keystroke_y	y	n/a
17.053	0.12	34106	keystroke_Key.space	Key.space	n/a
17.263	0.135	34526	keystroke_d	d	n/a
17.503	0.12	35006	keystroke_o	o	n/a
17.698	0.105	35396	keystroke_g	g	n/a
17.8775	0.1205	35755	keystroke_Key.enter	Key.enter	n/a
18.0075	14.5425	36015	prompt	n/a	arbitrary investor glasgow freeware\n
18.838	0.15	37676	keystroke_a	a	n/a
19.378	0.105	38756	keystroke_r	r	n/a
21.3575	0.1205	42715	keystroke_b	b	n/a
21.4475	0.135	42895	keystroke_i	i	n/a
22.498	0.0895	44996	keystroke_t	t	n/a
22.888	0.1495	45776	keystroke_r	r	n/a
23.368	0.105	46736	keystroke_a	a	n/a
24.073	0.12	48146	keystroke_r	r	n/a
24.163	0.09	48326	keystroke_y	y	n/a
24.4025	0.105	48805	keystroke_Key.space	Key.space	n/a
24.943	0.15	49886	keystroke_i	i	n/a
25.0775	0.0605	50155	keystroke_n	n	n/a
25.288	0.1045	50576	keystroke_v	v	n/a
25.438	0.165	50876	keystroke_e	e	n/a
25.738	0.135	51476	keystroke_s	s	n/a
25.993	0.0895	51986	keystroke_t	t	n/a
26.323	0.1195	52646	keystroke_o	o	n/a
26.4275	0.0905	52855	keystroke_r	r	n/a
26.743	0.12	53486	keystroke_Key.space	Key.space	n/a
27.807	0.09	55614	keystroke_g	g	n/a
27.9425	0.105	55885	keystroke_l	l	n/a
28.078	0.15	56156	keystroke_a	a	n/a
28.3775	0.1205	56755	keystroke_s	s	n/a
29.248	0.09	58496	keystroke_g	g	n/a
29.3225	0.1055	58645	keystroke_o	o	n/a
29.4585	0.134	58917	keystroke_w	w	n/a
29.6375	0.15	59275	keystroke_Key.space	Key.space	n/a
30.3275	0.165	60655	keystroke_f	f	n/a
30.478	0.105	60956	keystroke_r	r	n/a
30.523	0.1345	61046	keystroke_e	e	n/a
30.898	0.105	61796	keystroke_e	e	n/a
31.2575	0.1805	62515	keystroke_w	w	n/a
31.3475	0.1355	62695	keystroke_a	a	n/a
31.5875	0.1355	63175	keystroke_r	r	n/a
31.663	0.135	63326	keystroke_e	e	n/a
32.3675	0.1805	64735	keystroke_Key.enter	Key.enter	n/a
32.555	10.8255	65110	prompt	n/a	whats characteristic stan proteins\n
33.7175	0.12	67435	keystroke_w	w	n/a
33.8225	0.09	67645	keystroke_h	h	n/a
33.9275	0.105	67855	keystroke_a	a	n/a
34.093	0.12	68186	keystroke_t	t	n/a
34.243	0.12	68486	keystroke_s	s	n/a
34.4225	0.135	68845	keystroke_Key.space	Key.space	n/a
34.813	0.1045	69626	keystroke_c	c	n/a
34.9475	0.105	69895	keystroke_h	h	n/a
35.0085	0.1195	70017	keystroke_a	a	n/a
35.293	0.105	70586	keystroke_r	r	n/a
35.4275	0.105	70855	keystroke_a	a	n/a
35.863	0.0745	71726	keystroke_c	c	n/a
36.223	0.105	72446	keystroke_t	t	n/a
36.448	0.18	72896	keystroke_e	e	n/a
36.5525	0.12	73105	keystroke_r	r	n/a
37.0325	0.105	74065	keystroke_i	i	n/a
37.587	0.106	75174	keystroke_s	s	n/a
37.947	0.09	75894	keystroke_t	t	n/a
38.0675	0.1045	76135	keystroke_i	i	n/a
39.0725	0.105	78145	keystroke_c	c	n/a
39.313	0.1195	78626	keystroke_Key.space	Key.space	n/a
39.973	0.15	79946	keystroke_s	s	n/a
40.137	0.106	80274	keystroke_t	t	n/a
40.317	0.076	80634	keystroke_a	a	n/a
40.422	0.12	80844	keystroke_n	n	n/a
40.5275	0.1195	81055	keystroke_Key.space	Key.space	n/a
40.8725	0.135	81745	keystroke_p	p	n/a
40.9925	0.12	81985	keystroke_r	r	n/a
41.0975	0.1055	82195	keystroke_o	o	n/a
41.338	0.1345	82676	keystroke_p	p	n/a
41.4575	0.1055	82915	keystroke_e	e	n/a
41.653	0.105	83306	keystroke_r	r	n/a
41.877	0.1065	83754	keystroke_t	t	n/a
41.9975	0.12	83995	keystroke_i	i	n/a
42.613	0.1655	85226	keystroke_e	e	n/a
42.703	0.12	85406	keystroke_s	s	n/a
43.243	0.135	86486	keystroke_Key.enter	Key.enter	n/a
43.3855	7.7935	86771	prompt	n/a	fully rings furniture peace\n
44.5035	0.104	89007	keystroke_f	f	n/a
44.743	0.0895	89486	keystroke_u	u	n/a
45.193	0.045	90386	keystroke_l	l	n/a
45.328	0.09	90656	keystroke_l	l	n/a
45.568	0.12	91136	keystroke_y	y	n/a
45.808	0.12	91616	keystroke_Key.space	Key.space	n/a
46.363	0.1045	92726	keystroke_r	r	n/a
46.5725	0.105	93145	keystroke_i	i	n/a
46.7975	0.06	93595	keystroke_n	n	n/a
46.8875	0.105	93775	keystroke_g	g	n/a
47.0075	0.1205	94015	keystroke_s	s	n/a
47.263	0.12	94526	keystroke_Key.space	Key.space	n/a
47.8925	0.0895	95785	keystroke_f	f	n/a
48.0125	0.1055	96025	keystroke_u	u	n/a
48.133	0.0895	96266	keystroke_r	r	n/a
48.403	0.1955	96806	keystroke_n	n	n/a
48.568	0.1205	97136	keystroke_i	i	n/a
48.732	0.121	97464	keystroke_t	t	n/a
48.973	0.1345	97946	keystroke_u	u	n/a
49.0925	0.1505	98185	keystroke_r	r	n/a
49.198	0.12	98396	keystroke_e	e	n/a
49.5725	0.1055	99145	keystroke_Key.space	Key.space	n/a
49.933	0.12	99866	keystroke_p	p	n/a
50.0075	0.1055	100015	keystroke_e	e	n/a
50.098	0.105	100196	keystroke_a	a	n/a
50.308	0.09	100616	keystroke_c	c	n/a
50.383	0.12	100766	keystroke_e	e	n/a
51.027	0.1505	102054	keystroke_Key.enter	Key.enter	n/a
51.1825	12.494	102365	prompt	n/a	previews organisms junction michigan\n
52.348	0.1055	104696	keystroke_p	p	n/a
52.423	0.12	104846	keystroke_r	r	n/a
52.483	0.1195	104966	keystroke_e	e	n/a
52.783	0.09	105566	keystroke_v	v	n/a
53.0235	0.09	106047	keystroke_i	i	n/a
53.2775	0.15	106555	keystroke_e	e	n/a
53.3825	0.15	106765	keystroke_w	w	n/a
53.7575	0.0905	107515	keystroke_s	s	n/a
54.418	0.1045	108836	keystroke_Key.space	Key.space	n/a
55.7075	0.105	111415	keystroke_o	o	n/a
55.7975	0.1205	111595	keystroke_r	r	n/a
56.0825	0.09	112165	keystroke_g	g	n/a
56.2775	0.06	112555	keystroke_a	a	n/a
56.428	0.1945	112856	keystroke_n	n	n/a
56.5925	0.166	113185	keystroke_i	i	n/a
56.833	0.135	113666	keystroke_s	s	n/a
56.983	0.105	113966	keystroke_m	m	n/a
57.2825	0.091	114565	keystroke_s	s	n/a
57.943	0.1045	115886	keystroke_Key.space	Key.space	n/a
58.258	0.12	116516	keystroke_j	j	n/a
58.3325	0.12	116665	keystroke_u	u	n/a
58.843	0.119	117686	keystroke_n	n	n/a
59.0825	0.12	118165	keystroke_c	c	n/a
59.473	0.06	118946	keystroke_c	c	n/a
60.102	0.1215	120204	keystroke_Key.backspace	Key.backspace	n/a
60.7925	0.1045	121585	keystroke_t	t	n/a
60.853	0.1495	121706	keystroke_i	i	n/a
60.943	0.135	121886	keystroke_o	o	n/a
61.063	0.119	122126	keystroke_n	n	n/a
61.663	0.134	123326	keystroke_Key.space	Key.space	n/a
62.2625	0.1495	124525	keystroke_m	m	n/a
62.368	0.149	124736	keystroke_i	i	n/a
62.6075	0.12	125215	keystroke_c	c	n/a
62.7125	0.1045	125425	keystroke_h	h	n/a
62.9075	0.12	125815	keystroke_i	i	n/a
63.0875	0.09	126175	keystroke_g	g	n/a
63.2525	0.105	126505	keystroke_a	a	n/a
63.328	0.09	126656	keystroke_n	n	n/a
63.583	0.09	127166	keystroke_Key.enter	Key.enter	n/a
63.681	15.098	127362	prompt	n/a	vinyl emissions exhibit orbit\n
64.6925	0.075	129385	keystroke_v	v	n/a
65.0225	0.1055	130045	keystroke_y	y	n/a
65.233	0.15	130466	keystroke_n	n	n/a
65.353	0.135	130706	keystroke_i	i	n/a
65.728	0.105	131456	keystroke_l	l	n/a
66.0275	0.1205	132055	keystroke_Key.space	Key.space	n/a
66.493	0.135	132986	keystroke_e	e	n/a
66.568	0.1945	133136	keystroke_m	m	n/a
66.7475	0.1355	133495	keystroke_i	i	n/a
66.9275	0.045	133855	keystroke_s	s	n/a
67.077	0.121	134154	keystroke_s	s	n/a
67.198	0.15	134396	keystroke_o	o	n/a
67.333	0.15	134666	keystroke_i	i	n/a
67.828	0.12	135656	keystroke_Key.backspace	Key.backspace	n/a
69.538	0.075	139076	keystroke_Key.backspace	Key.backspace	n/a
69.7025	0.0595	139405	keystroke_Key.backspace	Key.backspace	n/a
69.852	0.091	139704	keystroke_Key.backspace	Key.backspace	n/a
70.9175	0.09	141835	keystroke_i	i	n/a
71.6075	0.105	143215	keystroke_n	n	n/a
71.878	0.0895	143756	keystroke_y	y	n/a
72.718	0.09	145436	keystroke_l	l	n/a
72.853	0.1495	145706	keystroke_Key.space	Key.space	n/a
73.138	0.135	146276	keystroke_e	e	n/a
73.197	0.1805	146394	keystroke_m	m	n/a
73.363	0.1495	146726	keystroke_i	i	n/a
73.978	0.075	147956	keystroke_s	s	n/a
74.128	0.135	148256	keystroke_s	s	n/a
74.3375	0.181	148675	keystroke_i	i	n/a
74.4125	0.1655	148825	keystroke_o	o	n/a
74.548	0.1195	149096	keystroke_n	n	n/a
74.713	0.135	149426	keystroke_s	s	n/a
75.0725	0.1205	150145	keystroke_Key.space	Key.space	n/a
75.8075	0.0755	151615	keystroke_e	e	n/a
76.048	0.119	152096	keystroke_x	x	n/a
76.3335	0.119	152667	keystroke_h	h	n/a
76.4975	0.12	152995	keystroke_i	i	n/a
76.6475	0.105	153295	keystroke_b	b	n/a
76.723	0.1195	153446	keystroke_i	i	n/a
76.918	0.135	153836	keystroke_t	t	n/a
77.322	0.12	154644	keystroke_Key.space	Key.space	n/a
77.683	0.1045	155366	keystroke_o	o	n/a
77.7885	0.1495	155577	keystroke_r	r	n/a
78.1635	0.09	156327	keystroke_b	b	n/a
78.3575	0.12	156715	keystroke_i	i	n/a
78.4475	0.105	156895	keystroke_t	t	n/a
78.673	0.105	157346	keystroke_Key.enter	Key.enter	n/a
78.79	9.4395	157580	prompt	n/a	abortion progress sound compression\n
79.4675	0.0905	158935	keystroke_a	a	n/a
79.8125	0.1205	159625	keystroke_b	b	n/a
80.112	0.12	160224	keystroke_o	o	n/a
80.203	0.119	160406	keystroke_r	r	n/a
80.4575	0.1205	160915	keystroke_t	t	n/a
80.563	0.1645	161126	keystroke_i	i	n/a
80.6225	0.18	161245	keystroke_o	o	n/a
80.7575	0.1355	161515	keystroke_n	n	n/a
81.0125	0.1505	162025	keystroke_Key.space	Key.space	n/a
81.5375	0.075	163075	keystroke_p	p	n/a
81.6275	0.06	163255	keystroke_r	r	n/a
82.917	0.106	165834	keystroke_o	o	n/a
83.113	0.089	166226	keystroke_g	g	n/a
83.353	0.1795	166706	keystroke_r	r	n/a
83.458	0.1195	166916	keystroke_e	e	n/a
83.6835	0.104	167367	keystroke_s	s	n/a
83.8625	0.1055	167725	keystroke_s	s	n/a
83.998	0.1345	167996	keystroke_Key.space	Key.space	n/a
84.493	0.1195	168986	keystroke_s	s	n/a
84.703	0.135	169406	keystroke_o	o	n/a
84.9575	0.135	169915	keystroke_u	u	n/a
85.0475	0.106	170095	keystroke_n	n	n/a
85.108	0.1195	170216	keystroke_d	d	n/a
85.2875	0.15	170575	keystroke_Key.space	Key.space	n/a
85.932	0.1055	171864	keystroke_c	c	n/a
86.4125	0.21	172825	keystroke_o	o	n/a
86.5625	0.1205	173125	keystroke_m	m	n/a
86.758	0.12	173516	keystroke_p	p	n/a
86.983	0.12	173966	keystroke_r	r	n/a
87.058	0.12	174116	keystroke_e	e	n/a
87.193	0.105	174386	keystroke_s	s	n/a
87.372	0.106	174744	keystroke_s	s	n/a
87.5375	0.2255	175075	keystroke_i	i	n/a
87.612	0.196	175224	keystroke_o	o	n/a
87.7475	0.1355	175495	keystroke_n	n	n/a
88.138	0.0895	176276	keystroke_Key.enter	Key.enter	n/a
88.2335	10.061	176467	prompt	n/a	student upper hungarian greensboro\n
88.933	0.1495	177866	keystroke_s	s	n/a
89.1875	0.105	178375	keystroke_t	t	n/a
89.4425	0.1205	178885	keystroke_u	u	n/a
89.533	0.105	179066	keystroke_d	d	n/a
89.683	0.1345	179366	keystroke_e	e	n/a
89.7875	0.1195	179575	keystroke_n	n	n/a
89.922	0.12	179844	keystroke_t	t	n/a
90.0575	0.1495	180115	keystroke_Key.space	Key.space	n/a
90.9425	0.1655	181885	keystroke_u	u	n/a
91.2425	0.09	182485	keystroke_p	p	n/a
91.408	0.1345	182816	keystroke_p	p	n/a
91.498	0.195	182996	keystroke_e	e	n/a
91.5875	0.135	183175	keystroke_r	r	n/a
91.7525	0.135	183505	keystroke_Key.space	Key.space	n/a
92.338	0.135	184676	keystroke_h	h	n/a
92.398	0.135	184796	keystroke_u	u	n/a
92.578	0.135	185156	keystroke_n	n	n/a
92.773	0.089	185546	keystroke_g	g	n/a
92.953	0.089	185906	keystroke_a	a	n/a
93.1175	0.135	186235	keystroke_r	r	n/a
93.3425	0.12	186685	keystroke_i	i	n/a
93.4775	0.12	186955	keystroke_a	a	n/a
93.658	0.1195	187316	keystroke_n	n	n/a
93.8675	0.105	187735	keystroke_Key.space	Key.space	n/a
94.827	0.1505	189654	keystroke_g	g	n/a
94.9625	0.135	189925	keystroke_r	r	n/a
95.023	0.1045	190046	keystroke_e	e	n/a
95.247	0.1215	190494	keystroke_e	e	n/a
96.088	0.1195	192176	keystroke_n	n	n/a
96.418	0.1045	192836	keystroke_s	s	n/a
97.182	0.091	194364	keystroke_b	b	n/a
97.438	0.1195	194876	keystroke_o	o	n/a
97.603	0.1195	195206	keystroke_r	r	n/a
97.693	0.105	195386	keystroke_o	o	n/a
98.173	0.12	196346	keystroke_Key.enter	Key.enter	n/a
98.299	10.375	196598	prompt	n/a	governing proved breeds demanding\n
99.328	0.1045	198656	keystroke_g	g	n/a
99.493	0.12	198986	keystroke_o	o	n/a
99.6275	0.09	199255	keystroke_r	r	n/a
100.212	0.1355	200424	keystroke_Key.backspace	Key.backspace	n/a
100.3025	0.1055	200605	keystroke_v	v	n/a
100.4675	0.1495	200935	keystroke_e	e	n/a
100.572	0.1355	201144	keystroke_r	r	n/a
101.128	0.135	202256	keystroke_n	n	n/a
101.278	0.1795	202556	keystroke_i	i	n/a
101.398	0.135	202796	keystroke_n	n	n/a
101.6075	0.1055	203215	keystroke_g	g	n/a
101.802	0.1205	203604	keystroke_Key.space	Key.space	n/a
102.433	0.105	204866	keystroke_p	p	n/a
102.5075	0.1055	205015	keystroke_r	r	n/a
102.6425	0.135	205285	keystroke_o	o	n/a
102.7925	0.105	205585	keystroke_v	v	n/a
102.973	0.1345	205946	keystroke_e	e	n/a
103.2125	0.135	206425	keystroke_d	d	n/a
103.5725	0.1345	207145	keystroke_Key.space	Key.space	n/a
104.532	0.09	209064	keystroke_b	b	n/a
104.6375	0.1045	209275	keystroke_r	r	n/a
104.697	0.1055	209394	keystroke_e	e	n/a
105.0275	0.105	210055	keystroke_e	e	n/a
105.2675	0.18	210535	keystroke_d	d	n/a
105.4775	0.1355	210955	keystroke_s	s	n/a
105.7025	0.1345	211405	keystroke_Key.space	Key.space	n/a
106.0625	0.0745	212125	keystroke_d	d	n/a
106.2125	0.1205	212425	keystroke_e	e	n/a
106.3175	0.0905	212635	keystroke_m	m	n/a
106.453	0.089	212906	keystroke_a	a	n/a
106.588	0.1195	213176	keystroke_n	n	n/a
106.7525	0.1055	213505	keystroke_d	d	n/a
106.963	0.2095	213926	keystroke_i	i	n/a
107.083	0.1195	214166	keystroke_n	n	n/a
107.2625	0.105	214525	keystroke_d	d	n/a
108.1475	0.12	216295	keystroke_Key.backspace	Key.backspace	n/a
108.1925	0.12	216385	keystroke_g	g	n/a
108.553	0.1195	217106	keystroke_Key.enter	Key.enter	n/a
108.678	7.301	217356	prompt	n/a	mood focused rope applied\n
109.6325	0.1655	219265	keystroke_m	m	n/a
109.7375	0.1205	219475	keystroke_o	o	n/a
109.9175	0.135	219835	keystroke_o	o	n/a
110.0675	0.1495	220135	keystroke_d	d	n/a
110.2025	0.15	220405	keystroke_Key.space	Key.space	n/a
110.6075	0.12	221215	keystroke_f	f	n/a
110.8775	0.105	221755	keystroke_o	o	n/a
111.1325	0.1205	222265	keystroke_c	c	n/a
111.238	0.1495	222476	keystroke_u	u	n/a
111.7175	0.165	223435	keystroke_s	s	n/a
111.7925	0.12	223585	keystroke_e	e	n/a
111.9875	0.12	223975	keystroke_d	d	n/a
112.2125	0.12	224425	keystroke_Key.space	Key.space	n/a
113.023	0.1345	226046	keystroke_r	r	n/a
113.128	0.1045	226256	keystroke_o	o	n/a
113.3225	0.1205	226645	keystroke_p	p	n/a
113.3825	0.15	226765	keystroke_e	e	n/a
113.667	0.091	227334	keystroke_d	d	n/a
114.0425	0.135	228085	keystroke_Key.backspace	Key.backspace	n/a
114.1625	0.165	228325	keystroke_Key.space	Key.space	n/a
114.8225	0.09	229645	keystroke_a	a	n/a
114.987	0.1055	229974	keystroke_p	p	n/a
115.1375	0.1345	230275	keystroke_p	p	n/a
115.243	0.1345	230486	keystroke_l	l	n/a
115.4675	0.12	230935	keystroke_i	i	n/a
115.5425	0.1355	231085	keystroke_e	e	n/a
115.723	0.105	231446	keystroke_d	d	n/a
115.843	0.1335	231686	keystroke_Key.enter	Key.enter	n/a
115.983	9.2515	231966	prompt	n/a	applicant celebs timeline desk\n
116.578	0.1195	233156	keystroke_a	a	n/a
116.757	0.0905	233514	keystroke_p	p	n/a
116.9075	0.1645	233815	keystroke_p	p	n/a
117.192	0.0905	234384	keystroke_l	l	n/a
117.358	0.1495	234716	keystroke_i	i	n/a
117.5225	0.135	235045	keystroke_c	c	n/a
117.6725	0.09	235345	keystroke_a	a	n/a
117.8375	0.12	235675	keystroke_n	n	n/a
117.9875	0.1055	235975	keystroke_t	t	n/a
118.228	0.1195	236456	keystroke_Key.space	Key.space	n/a
118.5575	0.105	237115	keystroke_c	c	n/a
118.7675	0.1205	237535	keystroke_e	e	n/a
118.9015	0.1055	237803	keystroke_l	l	n/a
119.022	0.09	238044	keystroke_e	e	n/a
119.622	0.1055	239244	keystroke_b	b	n/a
119.6975	0.1495	239395	keystroke_s	s	n/a
119.833	0.1645	239666	keystroke_Key.space	Key.space	n/a
120.418	0.09	240836	keystroke_t	t	n/a
120.4775	0.1655	240955	keystroke_i	i	n/a
120.612	0.136	241224	keystroke_m	m	n/a
120.762	0.106	241524	keystroke_e	e	n/a
120.972	0.105	241944	keystroke_l	l	n/a
121.2125	0.2245	242425	keystroke_i	i	n/a
121.362	0.1355	242724	keystroke_n	n	n/a
121.4825	0.0745	242965	keystroke_g	g	n/a
121.932	0.1055	243864	keystroke_Key.backspace	Key.backspace	n/a
122.0525	0.1355	244105	keystroke_e	e	n/a
122.1725	0.09	244345	keystroke_Key.space	Key.space	n/a
122.742	0.12	245484	keystroke_Key.backspace	Key.backspace	n/a
123.253	0.089	246506	keystroke_d	d	n/a
123.4175	0.1205	246835	keystroke_e	e	n/a
123.8075	0.0895	247615	keystroke_Key.backspace	Key.backspace	n/a
123.943	0.1495	247886	keystroke_Key.backspace	Key.backspace	n/a
124.152	0.105	248304	keystroke_Key.space	Key.space	n/a
124.273	0.0895	248546	keystroke_d	d	n/a
124.4525	0.1355	248905	keystroke_e	e	n/a
124.5725	0.135	249145	keystroke_s	s	n/a
124.903	0.104	249806	keystroke_k	k	n/a
125.112	0.121	250224	keystroke_Key.enter	Key.enter	n/a
125.2395	6.894	250479	prompt	n/a	lamp modular response keyword\n
126.208	0.1195	252416	keystroke_l	l	n/a
126.2975	0.1045	252595	keystroke_a	a	n/a
126.3875	0.165	252775	keystroke_m	m	n/a
126.4775	0.1655	252955	keystroke_p	p	n/a
126.778	0.1195	253556	keystroke_Key.space	Key.space	n/a
127.228	0.1345	254456	keystroke_m	m	n/a
127.5125	0.1055	255025	keystroke_o	o	n/a
127.8575	0.105	255715	keystroke_d	d	n/a
127.932	0.1055	255864	keystroke_u	u	n/a
128.1425	0.1345	256285	keystroke_l	l	n/a
128.233	0.1495	256466	keystroke_a	a	n/a
128.3975	0.1205	256795	keystroke_r	r	n/a
128.593	0.134	257186	keystroke_Key.space	Key.space	n/a
128.847	0.1055	257694	keystroke_r	r	n/a
128.9225	0.105	257845	keystroke_e	e	n/a
129.0425	0.15	258085	keystroke_s	s	n/a
129.1775	0.15	258355	keystroke_p	p	n/a
129.4625	0.12	258925	keystroke_o	o	n/a
129.687	0.1355	259374	keystroke_n	n	n/a
129.7915	0.196	259583	keystroke_s	s	n/a
129.8975	0.12	259795	keystroke_e	e	n/a
130.1675	0.105	260335	keystroke_Key.space	Key.space	n/a
130.5425	0.135	261085	keystroke_k	k	n/a
130.6325	0.09	261265	keystroke_e	e	n/a
130.948	0.09	261896	keystroke_y	y	n/a
131.173	0.09	262346	keystroke_w	w	n/a
131.278	0.15	262556	keystroke_o	o	n/a
131.473	0.135	262946	keystroke_r	r	n/a
131.728	0.104	263456	keystroke_d	d	n/a
131.997	0.1355	263994	keystroke_Key.enter	Key.enter	n/a
132.1375	12.2525	264275	prompt	n/a	armenia restructuring kelly practical\n
132.7175	0.135	265435	keystroke_a	a	n/a
132.8975	0.1045	265795	keystroke_r	r	n/a
133.137	0.135	266274	keystroke_m	m	n/a
133.3175	0.12	266635	keystroke_e	e	n/a
133.558	0.149	267116	keystroke_n	n	n/a
133.693	0.1495	267386	keystroke_i	i	n/a
133.8875	0.12	267775	keystroke_a	a	n/a
134.1425	0.1655	268285	keystroke_Key.space	Key.space	n/a
134.5625	0.1505	269125	keystroke_r	r	n/a
134.683	0.135	269366	keystroke_e	e	n/a
135.013	0.105	270026	keystroke_s	s	n/a
136.273	0.1195	272546	keystroke_t	t	n/a
136.513	0.1195	273026	keystroke_r	r	n/a
138.4325	0.12	276865	keystroke_u	u	n/a
138.5375	0.12	277075	keystroke_c	c	n/a
138.8225	0.12	277645	keystroke_t	t	n/a
139.512	0.121	279024	keystroke_u	u	n/a
139.7525	0.1205	279505	keystroke_r	r	n/a
139.888	0.1495	279776	keystroke_i	i	n/a
140.0825	0.09	280165	keystroke_n	n	n/a
140.1875	0.0755	280375	keystroke_g	g	n/a
140.382	0.135	280764	keystroke_Key.space	Key.space	n/a
141.0875	0.105	282175	keystroke_k	k	n/a
141.1775	0.105	282355	keystroke_e	e	n/a
141.2975	0.09	282595	keystroke_l	l	n/a
141.448	0.135	282896	keystroke_l	l	n/a
141.584	0.119	283168	keystroke_y	y	n/a
141.852	0.1055	283704	keystroke_Key.space	Key.space	n/a
142.2425	0.135	284485	keystroke_p	p	n/a
142.318	0.1045	284636	keystroke_r	r	n/a
142.4075	0.1205	284815	keystroke_a	a	n/a
142.933	0.0745	285866	keystroke_c	c	n/a
143.172	0.1205	286344	keystroke_t	t	n/a
143.323	0.1345	286646	keystroke_i	i	n/a
143.548	0.074	287096	keystroke_c	c	n/a
143.6675	0.0905	287335	keystroke_a	a	n/a
143.8325	0.06	287665	keystroke_l	l	n/a
144.3125	0.075	288625	keystroke_Key.enter	Key.enter	n/a
144.3955	9.0835	288791	prompt	n/a	vacuum house slave picture\n
145.108	0.1045	290216	keystroke_c	c	n/a
145.6775	0.0895	291355	keystroke_Key.backspace	Key.backspace	n/a
145.8875	0.075	291775	keystroke_v	v	n/a
146.0225	0.135	292045	keystroke_a	a	n/a
146.3675	0.12	292735	keystroke_c	c	n/a
146.6525	0.1055	293305	keystroke_u	u	n/a
146.8175	0.135	293635	keystroke_u	u	n/a
146.9675	0.135	293935	keystroke_m	m	n/a
147.2225	0.105	294445	keystroke_Key.space	Key.space	n/a
147.6125	0.1055	295225	keystroke_h	h	n/a
147.7775	0.1205	295555	keystroke_o	o	n/a
148.0325	0.105	296065	keystroke_u	u	n/a
148.1075	0.1355	296215	keystroke_s	s	n/a
148.152	0.1805	296304	keystroke_e	e	n/a
148.348	0.1195	296696	keystroke_Key.space	Key.space	n/a
148.768	0.1195	297536	keystroke_s	s	n/a
148.903	0.09	297806	keystroke_l	l	n/a
148.978	0.075	297956	keystroke_a	a	n/a
149.1735	0.059	298347	keystroke_v	v	n/a
149.2625	0.1505	298525	keystroke_e	e	n/a
149.488	0.1345	298976	keystroke_Key.space	Key.space	n/a
149.7735	0.104	299547	keystroke_p	p	n/a
149.9975	0.135	299995	keystroke_i	i	n/a
150.118	0.0895	300236	keystroke_r	r	n/a
150.5675	0.0895	301135	keystroke_Key.backspace	Key.backspace	n/a
150.613	0.12	301226	keystroke_c	c	n/a
151.3175	0.105	302635	keystroke_t	t	n/a
151.5275	0.105	303055	keystroke_u	u	n/a
151.5575	0.12	303115	keystroke_r	r	n/a
151.6475	0.135	303295	keystroke_e	e	n/a
152.217	0.135	304434	keystroke_\	\	n/a
153.178	0.074	306356	keystroke_Key.backspace	Key.backspace	n/a
153.4325	0.045	306865	keystroke_Key.enter	Key.enter	n/a
153.4845	15.115	306969	prompt	n/a	he'll sandwich network play\n
154.7675	0.09	309535	keystroke_h	h	n/a
155.2025	0.12	310405	keystroke_e	e	n/a
155.427	0.106	310854	keystroke_;	;	n/a
156.223	0.09	312446	keystroke_Key.backspace	Key.backspace	n/a
157.4825	0.1205	314965	keystroke_;	;	n/a
157.8425	0.105	315685	keystroke_l	l	n/a
157.9925	0.135	315985	keystroke_l	l	n/a
158.3825	0.0905	316765	keystroke_Key.backspace	Key.backspace	n/a
158.5325	0.1955	317065	keystroke_Key.backspace	Key.backspace	n/a
158.9075	0.12	317815	keystroke_Key.backspace	Key.backspace	n/a
159.5225	0.1355	319045	keystroke_'	'	n/a
159.823	0.0895	319646	keystroke_l	l	n/a
159.9725	0.12	319945	keystroke_l	l	n/a
160.3025	0.1805	320605	keystroke_Key.space	Key.space	n/a
160.7375	0.0755	321475	keystroke_s	s	n/a
160.8725	0.105	321745	keystroke_a	a	n/a
160.9625	0.12	321925	keystroke_n	n	n/a
161.0975	0.12	322195	keystroke_d	d	n/a
161.5475	0.12	323095	keystroke_w	w	n/a
161.833	0.12	323666	keystroke_i	i	n/a
161.998	0.1195	323996	keystroke_c	c	n/a
162.1475	0.075	324295	keystroke_h	h	n/a
162.5375	0.135	325075	keystroke_Key.space	Key.space	n/a
162.9725	0.12	325945	keystroke_n	n	n/a
163.0475	0.1205	326095	keystroke_e	e	n/a
163.123	0.135	326246	keystroke_w	w	n/a
163.423	0.1055	326846	keystroke_t	t	n/a
163.8875	0.1045	327775	keystroke_o	o	n/a
164.097	0.106	328194	keystroke_w	w	n/a
165.148	0.09	330296	keystroke_Key.backspace	Key.backspace	n/a
165.298	0.09	330596	keystroke_Key.backspace	Key.backspace	n/a
165.448	0.105	330896	keystroke_Key.backspace	Key.backspace	n/a
165.6725	0.12	331345	keystroke_Key.backspace	Key.backspace	n/a
166.3025	0.09	332605	keystroke_t	t	n/a
166.4525	0.135	332905	keystroke_w	w	n/a
166.6025	0.1205	333205	keystroke_o	o	n/a
166.708	0.15	333416	keystroke_r	r	n/a
166.843	0.1345	333686	keystroke_k	k	n/a
167.277	0.1355	334554	keystroke_Key.space	Key.space	n/a
167.6375	0.18	335275	keystroke_p	p	n/a
167.7725	0.1205	335545	keystroke_l	l	n/a
167.8325	0.12	335665	keystroke_a	a	n/a
168.1175	0.1055	336235	keystroke_y	y	n/a
168.4775	0.12	336955	keystroke_Key.enter	Key.enter	n/a
168.6055	10.8695	337211	prompt	n/a	europe forth individually carefully\n
169.8125	0.1355	339625	keystroke_e	e	n/a
169.8725	0.12	339745	keystroke_u	u	n/a
170.338	0.1195	340676	keystroke_r	r	n/a
170.443	0.104	340886	keystroke_o	o	n/a
170.6235	0.119	341247	keystroke_p	p	n/a
170.7275	0.1355	341455	keystroke_e	e	n/a
170.9225	0.1355	341845	keystroke_Key.space	Key.space	n/a
171.417	0.1055	342834	keystroke_f	f	n/a
171.582	0.1205	343164	keystroke_o	o	n/a
171.687	0.121	343374	keystroke_r	r	n/a
171.9275	0.1195	343855	keystroke_t	t	n/a
172.017	0.12	344034	keystroke_h	h	n/a
172.3025	0.135	344605	keystroke_Key.space	Key.space	n/a
172.887	0.1505	345774	keystroke_i	i	n/a
172.9625	0.1355	345925	keystroke_n	n	n/a
173.4275	0.135	346855	keystroke_d	d	n/a
173.5175	0.165	347035	keystroke_i	i	n/a
174.0575	0.12	348115	keystroke_v	v	n/a
174.133	0.1195	348266	keystroke_i	i	n/a
174.928	0.09	349856	keystroke_d	d	n/a
175.1375	0.09	350275	keystroke_u	u	n/a
175.273	0.1195	350546	keystroke_a	a	n/a
175.4075	0.1355	350815	keystroke_l	l	n/a
175.587	0.136	351174	keystroke_l	l	n/a
176.0675	0.1055	352135	keystroke_y	y	n/a
176.7275	0.12	353455	keystroke_Key.space	Key.space	n/a
176.938	0.1195	353876	keystroke_c	c	n/a
177.102	0.1355	354204	keystroke_a	a	n/a
177.3875	0.12	354775	keystroke_r	r	n/a
177.4625	0.1355	354925	keystroke_e	e	n/a
177.883	0.1345	355766	keystroke_f	f	n/a
178.1225	0.105	356245	keystroke_u	u	n/a
178.3625	0.12	356725	keystroke_l	l	n/a
178.5275	0.105	357055	keystroke_l	l	n/a
178.6475	0.09	357295	keystroke_y	y	n/a
179.3375	0.1355	358675	keystroke_Key.enter	Key.enter	n/a
179.479	9.97	358958	prompt	n/a	bureau leaving ireland computers\n
180.6725	0.165	361345	keystroke_b	b	n/a
180.7775	0.1655	361555	keystroke_u	u	n/a
181.0325	0.225	362065	keystroke_r	r	n/a
181.5125	0.1345	363025	keystroke_e	e	n/a
181.677	0.1355	363354	keystroke_a	a	n/a
182.322	0.1055	364644	keystroke_u	u	n/a
182.5475	0.15	365095	keystroke_Key.space	Key.space	n/a
183.1925	0.1345	366385	keystroke_l	l	n/a
183.252	0.1205	366504	keystroke_e	e	n/a
183.358	0.1195	366716	keystroke_a	a	n/a
183.6275	0.105	367255	keystroke_v	v	n/a
183.702	0.106	367404	keystroke_i	i	n/a
183.8525	0.135	367705	keystroke_n	n	n/a
183.9425	0.1205	367885	keystroke_f	f	n/a
184.2125	0.1205	368425	keystroke_Key.space	Key.space	n/a
184.947	0.06	369894	keystroke_Key.backspace	Key.backspace	n/a
185.082	0.12	370164	keystroke_Key.backspace	Key.backspace	n/a
185.1725	0.12	370345	keystroke_g	g	n/a
185.4275	0.12	370855	keystroke_Key.space	Key.space	n/a
186.0425	0.12	372085	keystroke_i	i	n/a
186.1175	0.135	372235	keystroke_r	r	n/a
186.2075	0.135	372415	keystroke_e	e	n/a
186.522	0.135	373044	keystroke_l	l	n/a
186.612	0.1055	373224	keystroke_a	a	n/a
186.9275	0.135	373855	keystroke_n	n	n/a
187.0175	0.15	374035	keystroke_d	d	n/a
187.1375	0.24	374275	keystroke_Key.space	Key.space	n/a
187.7075	0.105	375415	keystroke_c	c	n/a
187.9625	0.1055	375925	keystroke_o	o	n/a
188.1275	0.1355	376255	keystroke_m	m	n/a
188.337	0.15	376674	keystroke_p	p	n/a
188.6075	0.1505	377215	keystroke_u	u	n/a
188.7275	0.105	377455	keystroke_t	t	n/a
188.8925	0.15	377785	keystroke_e	e	n/a
188.952	0.1355	377904	keystroke_r	r	n/a
189.1325	0.1195	378265	keystroke_s	s	n/a
189.312	0.1355	378624	keystroke_Key.enter	Key.enter	n/a
189.457	6.8475	378914	prompt	n/a	status housing room eric\n
190.1675	0.12	380335	keystroke_s	s	n/a
190.3475	0.1205	380695	keystroke_t	t	n/a
190.528	0.089	381056	keystroke_a	a	n/a
190.708	0.1195	381416	keystroke_t	t	n/a
190.947	0.15	381894	keystroke_u	u	n/a
191.1125	0.12	382225	keystroke_s	s	n/a
191.292	0.1505	382584	keystroke_Key.space	Key.space	n/a
192.163	0.1195	384326	keystroke_h	h	n/a
192.268	0.0745	384536	keystroke_i	i	n/a
192.7015	0.105	385403	keystroke_Key.backspace	Key.backspace	n/a
192.958	0.089	385916	keystroke_o	o	n/a
193.2125	0.15	386425	keystroke_u	u	n/a
193.3025	0.165	386605	keystroke_s	s	n/a
193.512	0.1205	387024	keystroke_i	i	n/a
193.7075	0.12	387415	keystroke_n	n	n/a
193.798	0.0895	387596	keystroke_g	g	n/a
194.3675	0.135	388735	keystroke_Key.space	Key.space	n/a
194.5325	0.135	389065	keystroke_r	r	n/a
194.6525	0.075	389305	keystroke_o	o	n/a
194.7875	0.12	389575	keystroke_o	o	n/a
194.9525	0.1355	389905	keystroke_m	m	n/a
195.1025	0.1345	390205	keystroke_Key.space	Key.space	n/a
195.3575	0.1355	390715	keystroke_e	e	n/a
195.6425	0.0895	391285	keystroke_r	r	n/a
195.807	0.136	391614	keystroke_i	i	n/a
195.928	0.0895	391856	keystroke_c	c	n/a
196.152	0.1505	392304	keystroke_Key.enter	Key.enter	n/a
196.309	6.941	392618	prompt	n/a	lopez shows champagne malawi\n
197.1425	0.1355	394285	keystroke_l	l	n/a
197.202	0.151	394404	keystroke_o	o	n/a
197.428	0.179	394856	keystroke_p	p	n/a
197.577	0.165	395154	keystroke_e	e	n/a
197.817	0.1205	395634	keystroke_z	z	n/a
198.0875	0.149	396175	keystroke_Key.space	Key.space	n/a
198.4625	0.135	396925	keystroke_s	s	n/a
198.718	0.1195	397436	keystroke_h	h	n/a
198.7925	0.1205	397585	keystroke_o	o	n/a
198.928	0.12	397856	keystroke_w	w	n/a
199.153	0.09	398306	keystroke_s	s	n/a
199.317	0.1505	398634	keystroke_Key.space	Key.space	n/a
199.723	0.1045	399446	keystroke_c	c	n/a
199.8875	0.075	399775	keystroke_h	h	n/a
199.9775	0.105	399955	keystroke_a	a	n/a
200.187	0.1355	400374	keystroke_m	m	n/a
200.6525	0.1205	401305	keystroke_p	p	n/a
200.7275	0.1055	401455	keystroke_a	a	n/a
200.998	0.105	401996	keystroke_g	g	n/a
201.118	0.1045	402236	keystroke_n	n	n/a
201.2075	0.1645	402415	keystroke_e	e	n/a
201.5375	0.1345	403075	keystroke_Key.space	Key.space	n/a
202.0175	0.09	404035	keystroke_m	m	n/a
202.0775	0.135	404155	keystroke_a	a	n/a
202.244	0.1485	404488	keystroke_l	l	n/a
202.348	0.1345	404696	keystroke_a	a	n/a
202.6475	0.1495	405295	keystroke_w	w	n/a
202.783	0.1195	405566	keystroke_i	i	n/a
203.1125	0.135	406225	keystroke_Key.enter	Key.enter	n/a
203.256	7.7175	406512	prompt	n/a	anti capable loaded anonymous\n
203.8775	0.12	407755	keystroke_a	a	n/a
204.133	0.1195	408266	keystroke_n	n	n/a
204.418	0.12	408836	keystroke_t	t	n/a
204.508	0.12	409016	keystroke_i	i	n/a
204.642	0.1205	409284	keystroke_Key.space	Key.space	n/a
205.0475	0.09	410095	keystroke_c	c	n/a
205.198	0.06	410396	keystroke_a	a	n/a
205.4075	0.12	410815	keystroke_p	p	n/a
205.5125	0.105	411025	keystroke_a	a	n/a
205.8425	0.09	411685	keystroke_b	b	n/a
206.113	0.1345	412226	keystroke_l	l	n/a
206.2625	0.1355	412525	keystroke_e	e	n/a
206.3675	0.1495	412735	keystroke_Key.space	Key.space	n/a
206.697	0.1505	413394	keystroke_l	l	n/a
206.8175	0.165	413635	keystroke_o	o	n/a
206.953	0.1195	413906	keystroke_a	a	n/a
207.0575	0.15	414115	keystroke_d	d	n/a
207.3275	0.1055	414655	keystroke_e	e	n/a
207.5225	0.135	415045	keystroke_d	d	n/a
207.672	0.1505	415344	keystroke_Key.space	Key.space	n/a
207.9725	0.09	415945	keystroke_a	a	n/a
208.2725	0.2255	416545	keystroke_n	n	n/a
208.543	0.1045	417086	keystroke_o	o	n/a
208.7825	0.165	417565	keystroke_n	n	n/a
209.3675	0.12	418735	keystroke_y	y	n/a
209.5175	0.2405	419035	keystroke_m	m	n/a
209.667	0.1955	419334	keystroke_o	o	n/a
210.1475	0.1205	420295	keystroke_u	u	n/a
210.1925	0.1655	420385	keystroke_s	s	n/a
210.8525	0.1195	421705	keystroke_Key.enter	Key.enter	n/a
210.9775	14.337	421955	prompt	n/a	groove disorder appliances reed\n
211.8275	0.12	423655	keystroke_g	g	n/a
211.962	0.1205	423924	keystroke_o	o	n/a
212.0675	0.09	424135	keystroke_r	r	n/a
212.248	0.1045	424496	keystroke_r	r	n/a
212.8025	0.0445	425605	keystroke_Key.backspace	Key.backspace	n/a
212.923	0.0595	425846	keystroke_Key.backspace	Key.backspace	n/a
213.0575	0.0755	426115	keystroke_Key.backspace	Key.backspace	n/a
213.1925	0.0305	426385	keystroke_Key.backspace	Key.backspace	n/a
213.9875	0.0755	427975	keystroke_g	g	n/a
214.093	0.0895	428186	keystroke_o	o	n/a
214.2125	0.09	428425	keystroke_r	r	n/a
214.3925	0.075	428785	keystroke_r	r	n/a
214.7525	0.0895	429505	keystroke_Key.backspace	Key.backspace	n/a
214.9175	0.045	429835	keystroke_Key.backspace	Key.backspace	n/a
215.022	0.12	430044	keystroke_Key.backspace	Key.backspace	n/a
215.6225	0.1195	431245	keystroke_r	r	n/a
215.7425	0.0755	431485	keystroke_o	o	n/a
215.892	0.1205	431784	keystroke_o	o	n/a
216.0425	0.09	432085	keystroke_v	v	n/a
216.1925	0.12	432385	keystroke_e	e	n/a
216.9725	0.135	433945	keystroke_Key.space	Key.space	n/a
217.2125	0.12	434425	keystroke_d	d	n/a
217.2875	0.135	434575	keystroke_i	i	n/a
217.452	0.1505	434904	keystroke_s	s	n/a
218.0825	0.105	436165	keystroke_o	o	n/a
218.2325	0.09	436465	keystroke_s	s	n/a
218.802	0.1055	437604	keystroke_Key.backspace	Key.backspace	n/a
218.893	0.12	437786	keystroke_r	r	n/a
219.072	0.105	438144	keystroke_r	r	n/a
219.492	0.1655	438984	keystroke_d	d	n/a
219.627	0.09	439254	keystroke_e	e	n/a
219.8825	0.0755	439765	keystroke_Key.backspace	Key.backspace	n/a
220.032	0.075	440064	keystroke_Key.backspace	Key.backspace	n/a
220.182	0.091	440364	keystroke_Key.backspace	Key.backspace	n/a
220.5725	0.105	441145	keystroke_d	d	n/a
220.7375	0.105	441475	keystroke_e	e	n/a
220.9775	0.09	441955	keystroke_r	r	n/a
221.5775	0.09	443155	keystroke_Key.space	Key.space	n/a
221.877	0.121	443754	keystroke_a	a	n/a
222.043	0.0895	444086	keystroke_p	p	n/a
222.1925	0.0905	444385	keystroke_p	p	n/a
222.298	0.1645	444596	keystroke_l	l	n/a
222.5225	0.1645	445045	keystroke_i	i	n/a
222.6725	0.1355	445345	keystroke_a	a	n/a
222.898	0.1345	445796	keystroke_n	n	n/a
223.048	0.1045	446096	keystroke_c	c	n/a
223.1675	0.135	446335	keystroke_e	e	n/a
223.8875	0.135	447775	keystroke_s	s	n/a
224.0815	0.12	448163	keystroke_Key.space	Key.space	n/a
224.248	0.119	448496	keystroke_r	r	n/a
224.3525	0.195	448705	keystroke_e	e	n/a
224.9075	0.0895	449815	keystroke_e	e	n/a
225.1025	0.0595	450205	keystroke_d	d	n/a
225.193	0.1195	450386	keystroke_Key.enter	Key.enter	n/a
225.3205	6.789	450641	prompt	n/a	flavor proc phys guide\n
226.333	0.074	452666	keystroke_f	f	n/a
226.468	0.1195	452936	keystroke_l	l	n/a
226.9325	0.105	453865	keystroke_a	a	n/a
227.608	0.0895	455216	keystroke_v	v	n/a
227.6825	0.1055	455365	keystroke_o	o	n/a
227.8175	0.1195	455635	keystroke_r	r	n/a
227.9525	0.135	455905	keystroke_Key.space	Key.space	n/a
228.493	0.119	456986	keystroke_p	p	n/a
228.763	0.1195	457526	keystroke_r	r	n/a
228.8225	0.1355	457645	keystroke_o	o	n/a
228.987	0.136	457974	keystroke_c	c	n/a
229.182	0.1205	458364	keystroke_Key.space	Key.space	n/a
230.1125	0.1195	460225	keystroke_p	p	n/a
230.233	0.0895	460466	keystroke_h	h	n/a
230.4125	0.0905	460825	keystroke_y	y	n/a
230.6225	0.12	461245	keystroke_s	s	n/a
230.8025	0.15	461605	keystroke_Key.space	Key.space	n/a
231.463	0.0895	462926	keystroke_g	g	n/a
231.5375	0.15	463075	keystroke_u	u	n/a
231.6125	0.1205	463225	keystroke_i	i	n/a
231.6725	0.075	463345	keystroke_d	d	n/a
231.853	0.1045	463706	keystroke_e	e	n/a
231.9725	0.135	463945	keystroke_Key.enter	Key.enter	n/a
232.1145	10.286	464229	prompt	n/a	penguin quality elephant noon\n
233.1125	0.135	466225	keystroke_p	p	n/a
233.2175	0.09	466435	keystroke_e	e	n/a
234.1625	0.21	468325	keystroke_n	n	n/a
234.2675	0.12	468535	keystroke_g	g	n/a
234.658	0.2245	469316	keystroke_i	i	n/a
234.688	0.149	469376	keystroke_u	u	n/a
234.762	0.135	469524	keystroke_o	o	n/a
235.242	0.0755	470484	keystroke_Key.backspace	Key.backspace	n/a
235.3775	0.105	470755	keystroke_Key.backspace	Key.backspace	n/a
235.5425	0.12	471085	keystroke_Key.backspace	Key.backspace	n/a
236.1875	0.15	472375	keystroke_u	u	n/a
236.2475	0.15	472495	keystroke_i	i	n/a
236.3825	0.135	472765	keystroke_n	n	n/a
236.8325	0.15	473665	keystroke_Key.space	Key.space	n/a
237.2825	0.12	474565	keystroke_q	q	n/a
237.4035	0.1035	474807	keystroke_u	u	n/a
237.5225	0.15	475045	keystroke_a	a	n/a
237.658	0.1195	475316	keystroke_l	l	n/a
237.8675	0.03	475735	keystroke_o	o	n/a
237.8825	0.1055	475765	keystroke_i	i	n/a
238.303	0.075	476606	keystroke_t	t	n/a
238.4525	0.1355	476905	keystroke_y	y	n/a
238.887	0.1355	477774	keystroke_Key.space	Key.space	n/a
239.293	0.1195	478586	keystroke_e	e	n/a
239.3675	0.1655	478735	keystroke_l	l	n/a
239.4875	0.135	478975	keystroke_e	e	n/a
239.6525	0.1505	479305	keystroke_p	p	n/a
240.193	0.09	480386	keystroke_h	h	n/a
240.3125	0.0895	480625	keystroke_a	a	n/a
240.508	0.135	481016	keystroke_n	n	n/a
240.687	0.106	481374	keystroke_t	t	n/a
240.942	0.12	481884	keystroke_Key.space	Key.space	n/a
241.393	0.105	482786	keystroke_n	n	n/a
241.588	0.09	483176	keystroke_o	o	n/a
241.738	0.1345	483476	keystroke_o	o	n/a
241.9325	0.1205	483865	keystroke_n	n	n/a
242.277	0.1205	484554	keystroke_Key.enter	Key.enter	n/a
242.405	11.2295	484810	prompt	n/a	attacks vienna transexual joins\n
243.1625	0.165	486325	keystroke_a	a	n/a
243.4025	0.09	486805	keystroke_t	t	n/a
243.5675	0.0745	487135	keystroke_t	t	n/a
243.703	0.1345	487406	keystroke_a	a	n/a
243.9275	0.135	487855	keystroke_k	k	n/a
244.078	0.1195	488156	keystroke_c	c	n/a
244.5275	0.06	489055	keystroke_Key.backspace	Key.backspace	n/a
244.6775	0.075	489355	keystroke_Key.backspace	Key.backspace	n/a
244.798	0.1345	489596	keystroke_c	c	n/a
244.9175	0.15	489835	keystroke_k	k	n/a
245.038	0.1195	490076	keystroke_s	s	n/a
245.293	0.1495	490586	keystroke_Key.space	Key.space	n/a
245.9525	0.09	491905	keystroke_v	v	n/a
246.103	0.1345	492206	keystroke_i	i	n/a
246.2075	0.15	492415	keystroke_e	e	n/a
246.3875	0.0905	492775	keystroke_n	n	n/a
246.5375	0.1355	493075	keystroke_n	n	n/a
246.6575	0.135	493315	keystroke_a	a	n/a
246.8075	0.18	493615	keystroke_Key.space	Key.space	n/a
247.4075	0.1355	494815	keystroke_t	t	n/a
247.498	0.09	494996	keystroke_r	r	n/a
247.9325	0.09	495865	keystroke_a	a	n/a
248.503	0.104	497006	keystroke_n	n	n/a
248.5625	0.105	497125	keystroke_s	s	n/a
248.967	0.0755	497934	keystroke_s	s	n/a
249.373	0.119	498746	keystroke_e	e	n/a
249.8375	0.0445	499675	keystroke_Key.backspace	Key.backspace	n/a
250.002	0.105	500004	keystroke_Key.backspace	Key.backspace	n/a
250.407	0.1355	500814	keystroke_e	e	n/a
251.083	0.0895	502166	keystroke_x	x	n/a
251.562	0.0905	503124	keystroke_u	u	n/a
251.622	0.105	503244	keystroke_a	a	n/a
251.7575	0.15	503515	keystroke_l	l	n/a
251.9675	0.12	503935	keystroke_Key.space	Key.space	n/a
252.6725	0.165	505345	keystroke_j	j	n/a
252.762	0.1805	505524	keystroke_o	o	n/a
252.9125	0.179	505825	keystroke_i	i	n/a
253.1075	0.1355	506215	keystroke_n	n	n/a
253.258	0.135	506516	keystroke_s	s	n/a
253.5425	0.09	507085	keystroke_Key.enter	Key.enter	n/a
253.64	18.9845	507280	prompt	n/a	cameron pregnancy employee citysearch\n
254.6375	0.0745	509275	keystroke_c	c	n/a
254.7275	0.1195	509455	keystroke_a	a	n/a
254.8325	0.1195	509665	keystroke_m	m	n/a
255.0125	0.1055	510025	keystroke_e	e	n/a
255.178	0.149	510356	keystroke_r	r	n/a
255.6425	0.1345	511285	keystroke_o	o	n/a
255.8675	0.135	511735	keystroke_n	n	n/a
256.0325	0.165	512065	keystroke_Key.space	Key.space	n/a
256.588	0.1045	513176	keystroke_p	p	n/a
256.8425	0.135	513685	keystroke_r	r	n/a
256.9325	0.105	513865	keystroke_e	e	n/a
257.248	0.0895	514496	keystroke_g	g	n/a
257.3525	0.105	514705	keystroke_n	n	n/a
257.518	0.09	515036	keystroke_a	a	n/a
257.592	0.121	515184	keystroke_n	n	n/a
257.938	0.12	515876	keystroke_c	c	n/a
258.328	0.12	516656	keystroke_y	y	n/a
258.6425	0.1345	517285	keystroke_Key.space	Key.space	n/a
259.227	0.106	518454	keystroke_e	e	n/a
259.3775	0.1505	518755	keystroke_m	m	n/a
259.9475	0.18	519895	keystroke_p	p	n/a
260.1575	0.1655	520315	keystroke_l	l	n/a
260.3075	0.1205	520615	keystroke_o	o	n/a
260.9825	0.12	521965	keystroke_y	y	n/a
261.1475	0.0595	522295	keystroke_e	e	n/a
261.297	0.1655	522594	keystroke_e	e	n/a
261.6125	0.15	523225	keystroke_Key.space	Key.space	n/a
262.0175	0.135	524035	keystroke_c	c	n/a
262.3025	0.12	524605	keystroke_i	i	n/a
262.7225	0.135	525445	keystroke_t	t	n/a
262.8425	0.12	525685	keystroke_i	i	n/a
263.607	0.1355	527214	keystroke_Key.backspace	Key.backspace	n/a
263.833	0.119	527666	keystroke_y	y	n/a
264.7025	0.15	529405	keystroke_s	s	n/a
264.8075	0.1345	529615	keystroke_e	e	n/a
264.988	0.105	529976	keystroke_a	a	n/a
265.9625	0.0755	531925	keystroke_t	t	n/a
266.5025	0.105	533005	keystroke_Key.backspace	Key.backspace	n/a
266.5775	0.105	533155	keystroke_r	r	n/a
266.7875	0.105	533575	keystroke_c	c	n/a
266.9975	0.12	533995	keystroke_g	g	n/a
267.5075	0.1195	535015	keystroke_Key.backspace	Key.backspace	n/a
267.598	0.135	535196	keystroke_h	h	n/a
268.1525	0.06	536305	keystroke_\	\	n/a
269.2925	0.0605	538585	keystroke_\	\	n/a
270.3275	0.06	540655	keystroke_Key.backspace	Key.backspace	n/a
270.4625	0.045	540925	keystroke_Key.backspace	Key.backspace	n/a
270.553	0.059	541106	keystroke_Key.backspace	Key.backspace	n/a
272.428	0.1195	544856	keystroke_h	h	n/a
272.4875	0.1345	544975	keystroke_Key.enter	Key.enter	n/a
272.629	7.6605	545258	prompt	n/a	somerset measuring moms console\n
273.6425	0.105	547285	keystroke_s	s	n/a
273.6725	0.1355	547345	keystroke_o	o	n/a
273.8225	0.1055	547645	keystroke_m	m	n/a
273.898	0.1195	547796	keystroke_e	e	n/a
274.0925	0.1055	548185	keystroke_r	r	n/a
274.213	0.225	548426	keystroke_s	s	n/a
274.363	0.1495	548726	keystroke_e	e	n/a
274.6175	0.105	549235	keystroke_t	t	n/a
275.232	0.1205	550464	keystroke_Key.space	Key.space	n/a
275.6075	0.135	551215	keystroke_m	m	n/a
275.682	0.136	551364	keystroke_e	e	n/a
275.8325	0.12	551665	keystroke_a	a	n/a
275.9075	0.18	551815	keystroke_s	s	n/a
276.5375	0.15	553075	keystroke_u	u	n/a
276.7325	0.1355	553465	keystroke_r	r	n/a
276.913	0.149	553826	keystroke_i	i	n/a
277.122	0.136	554244	keystroke_n	n	n/a
277.2275	0.12	554455	keystroke_g	g	n/a
277.3925	0.165	554785	keystroke_Key.space	Key.space	n/a
278.0075	0.1655	556015	keystroke_m	m	n/a
278.144	0.269	556288	keystroke_o	o	n/a
278.247	0.195	556494	keystroke_m	m	n/a
278.427	0.196	556854	keystroke_s	s	n/a
278.607	0.1655	557214	keystroke_Key.space	Key.space	n/a
278.953	0.149	557906	keystroke_c	c	n/a
279.057	0.136	558114	keystroke_o	o	n/a
279.282	0.136	558564	keystroke_n	n	n/a
279.4775	0.135	558955	keystroke_s	s	n/a
279.583	0.12	559166	keystroke_o	o	n/a
279.7925	0.12	559585	keystroke_l	l	n/a
279.9275	0.1205	559855	keystroke_e	e	n/a
280.168	0.12	560336	keystroke_Key.enter	Key.enter	n/a
280.2965	6.6675	560593	prompt	n/a	creek foto picked started\n
281.0825	0.0905	562165	keystroke_c	c	n/a
281.292	0.1055	562584	keystroke_r	r	n/a
281.3525	0.075	562705	keystroke_e	e	n/a
281.5175	0.1205	563035	keystroke_e	e	n/a
281.6825	0.135	563365	keystroke_k	k	n/a
282.253	0.1195	564506	keystroke_Key.space	Key.space	n/a
282.5675	0.12	565135	keystroke_f	f	n/a
282.6725	0.105	565345	keystroke_o	o	n/a
282.852	0.135	565704	keystroke_o	o	n/a
282.942	0.1205	565884	keystroke_t	t	n/a
283.2715	0.06	566543	keystroke_Key.backspace	Key.backspace	n/a
283.407	0.1055	566814	keystroke_Key.backspace	Key.backspace	n/a
283.6475	0.1055	567295	keystroke_t	t	n/a
283.7075	0.15	567415	keystroke_o	o	n/a
283.9325	0.119	567865	keystroke_Key.space	Key.space	n/a
284.3085	0.134	568617	keystroke_p	p	n/a
284.5775	0.135	569155	keystroke_i	i	n/a
284.7275	0.105	569455	keystroke_c	c	n/a
284.8475	0.15	569695	keystroke_k	k	n/a
284.9525	0.12	569905	keystroke_e	e	n/a
285.1625	0.12	570325	keystroke_d	d	n/a
285.3275	0.12	570655	keystroke_Key.space	Key.space	n/a
285.6275	0.12	571255	keystroke_s	s	n/a
285.762	0.105	571524	keystroke_t	t	n/a
285.957	0.105	571914	keystroke_a	a	n/a
286.078	0.1195	572156	keystroke_r	r	n/a
286.2575	0.0745	572515	keystroke_t	t	n/a
286.3625	0.1345	572725	keystroke_e	e	n/a
286.603	0.12	573206	keystroke_d	d	n/a
286.8425	0.12	573685	keystroke_Key.enter	Key.enter	n/a
286.975	7.7145	573950	prompt	n/a	camcorder right cheque combo\n
287.683	0.119	575366	keystroke_c	c	n/a
287.817	0.1055	575634	keystroke_a	a	n/a
287.9675	0.1345	575935	keystroke_m	m	n/a
288.3725	0.1355	576745	keystroke_c	c	n/a
288.4775	0.135	576955	keystroke_o	o	n/a
288.658	0.1345	577316	keystroke_r	r	n/a
289.0625	0.075	578125	keystroke_d	d	n/a
289.2425	0.075	578485	keystroke_e	e	n/a
289.377	0.15	578754	keystroke_r	r	n/a
289.692	0.1355	579384	keystroke_Key.space	Key.space	n/a
290.113	0.134	580226	keystroke_r	r	n/a
290.203	0.149	580406	keystroke_i	i	n/a
290.412	0.1055	580824	keystroke_g	g	n/a
290.5325	0.1645	581065	keystroke_h	h	n/a
290.622	0.12	581244	keystroke_t	t	n/a
290.7725	0.15	581545	keystroke_Key.space	Key.space	n/a
291.1925	0.12	582385	keystroke_c	c	n/a
291.5675	0.12	583135	keystroke_h	h	n/a
292.0325	0.15	584065	keystroke_e	e	n/a
292.452	0.1655	584904	keystroke_q	q	n/a
292.647	0.1355	585294	keystroke_u	u	n/a
292.737	0.1805	585474	keystroke_e	e	n/a
293.3525	0.134	586705	keystroke_Key.space	Key.space	n/a
293.5925	0.1195	587185	keystroke_c	c	n/a
293.682	0.1205	587364	keystroke_o	o	n/a
293.908	0.135	587816	keystroke_m	m	n/a
294.2225	0.105	588445	keystroke_b	b	n/a
294.2825	0.135	588565	keystroke_o	o	n/a
294.5825	0.1045	589165	keystroke_Key.enter	Key.enter	n/a
294.695	8.289	589390	prompt	n/a	are covers respiratory strategy\n
295.272	0.105	590544	keystroke_a	a	n/a
295.452	0.1205	590904	keystroke_r	r	n/a
295.4975	0.15	590995	keystroke_e	e	n/a
295.6325	0.135	591265	keystroke_Key.space	Key.space	n/a
295.902	0.1205	591804	keystroke_c	c	n/a
296.007	0.1505	592014	keystroke_o	o	n/a
296.1875	0.0905	592375	keystroke_v	v	n/a
296.3375	0.165	592675	keystroke_e	e	n/a
296.4425	0.165	592885	keystroke_r	r	n/a
296.6525	0.15	593305	keystroke_s	s	n/a
296.8925	0.1195	593785	keystroke_Key.space	Key.space	n/a
297.1475	0.12	594295	keystroke_r	r	n/a
297.208	0.134	594416	keystroke_e	e	n/a
297.3575	0.1645	594715	keystroke_s	s	n/a
297.793	0.135	595586	keystroke_p	p	n/a
298.032	0.1655	596064	keystroke_i	i	n/a
298.392	0.15	596784	keystroke_r	r	n/a
298.5725	0.03	597145	keystroke_a	a	n/a
298.9465	0.1505	597893	keystroke_t	t	n/a
299.083	0.1485	598166	keystroke_o	o	n/a
299.9975	0.135	599995	keystroke_r	r	n/a
300.0575	0.12	600115	keystroke_y	y	n/a
300.4015	0.136	600803	keystroke_Key.space	Key.space	n/a
300.6725	0.165	601345	keystroke_s	s	n/a
300.8675	0.105	601735	keystroke_t	t	n/a
301.0775	0.12	602155	keystroke_r	r	n/a
301.2425	0.0755	602485	keystroke_a	a	n/a
301.7825	0.105	603565	keystroke_t	t	n/a
301.858	0.1195	603716	keystroke_e	e	n/a
302.2925	0.105	604585	keystroke_g	g	n/a
302.5325	0.1055	605065	keystroke_y	y	n/a
302.8625	0.1195	605725	keystroke_Key.enter	Key.enter	n/a
302.9875	12.866	605975	prompt	n/a	reporting acdbentity memo modified\n
303.7925	0.1205	607585	keystroke_r	r	n/a
303.8525	0.135	607705	keystroke_e	e	n/a
304.1075	0.12	608215	keystroke_p	p	n/a
304.317	0.1205	608634	keystroke_o	o	n/a
304.783	0.135	609566	keystroke_r	r	n/a
304.977	0.1505	609954	keystroke_t	t	n/a
305.1125	0.12	610225	keystroke_i	i	n/a
305.3385	0.1335	610677	keystroke_n	n	n/a
305.397	0.1505	610794	keystroke_g	g	n/a
305.5925	0.165	611185	keystroke_Key.space	Key.space	n/a
306.012	0.1055	612024	keystroke_a	a	n/a
306.2975	0.0895	612595	keystroke_c	c	n/a
306.9125	0.105	613825	keystroke_b	b	n/a
307.512	0.15	615024	keystroke_e	e	n/a
308.233	0.0595	616466	keystroke_Key.backspace	Key.backspace	n/a
308.398	0.0595	616796	keystroke_Key.backspace	Key.backspace	n/a
308.668	0.149	617336	keystroke_d	d	n/a
308.862	0.1655	617724	keystroke_Key.space	Key.space	n/a
309.6275	0.105	619255	keystroke_Key.backspace	Key.backspace	n/a
310.588	0.0895	621176	keystroke_b	b	n/a
310.6625	0.1195	621325	keystroke_e	e	n/a
310.783	0.135	621566	keystroke_n	n	n/a
311.038	0.0895	622076	keystroke_t	t	n/a
312.118	0.089	624236	keystroke_i	i	n/a
312.223	0.09	624446	keystroke_t	t	n/a
312.388	0.1195	624776	keystroke_y	y	n/a
312.912	0.1205	625824	keystroke_Key.space	Key.space	n/a
313.3775	0.09	626755	keystroke_m	m	n/a
313.4525	0.105	626905	keystroke_e	e	n/a
313.543	0.2395	627086	keystroke_m	m	n/a
313.7375	0.15	627475	keystroke_o	o	n/a
313.9635	0.119	627927	keystroke_Key.space	Key.space	n/a
314.278	0.1495	628556	keystroke_m	m	n/a
314.3825	0.195	628765	keystroke_o	o	n/a
314.5625	0.135	629125	keystroke_d	d	n/a
314.6675	0.135	629335	keystroke_i	i	n/a
314.968	0.119	629936	keystroke_f	f	n/a
315.0125	0.1355	630025	keystroke_i	i	n/a
315.343	0.09	630686	keystroke_e	e	n/a
315.522	0.12	631044	keystroke_d	d	n/a
315.7025	0.149	631405	keystroke_Key.enter	Key.enter	n/a
315.858	7.631	631716	prompt	n/a	ages collecting finnish cohen\n
316.528	0.135	633056	keystroke_a	a	n/a
316.933	0.045	633866	keystroke_g	g	n/a
317.0075	0.1805	634015	keystroke_e	e	n/a
317.113	0.1645	634226	keystroke_s	s	n/a
317.3825	0.135	634765	keystroke_Key.space	Key.space	n/a
317.6525	0.12	635305	keystroke_c	c	n/a
317.7875	0.0755	635575	keystroke_o	o	n/a
317.982	0.076	635964	keystroke_l	l	n/a
318.1325	0.15	636265	keystroke_l	l	n/a
318.2075	0.12	636415	keystroke_e	e	n/a
318.3725	0.12	636745	keystroke_c	c	n/a
318.6425	0.09	637285	keystroke_t	t	n/a
318.7925	0.1355	637585	keystroke_i	i	n/a
319.0025	0.12	638005	keystroke_n	n	n/a
319.0925	0.09	638185	keystroke_g	g	n/a
319.2575	0.1645	638515	keystroke_Key.space	Key.space	n/a
320.2475	0.1355	640495	keystroke_f	f	n/a
320.3375	0.1055	640675	keystroke_i	i	n/a
320.518	0.075	641036	keystroke_n	n	n/a
320.653	0.15	641306	keystroke_n	n	n/a
320.818	0.1495	641636	keystroke_i	i	n/a
321.298	0.1495	642596	keystroke_s	s	n/a
321.3725	0.12	642745	keystroke_h	h	n/a
321.5375	0.135	643075	keystroke_Key.space	Key.space	n/a
321.8075	0.135	643615	keystroke_c	c	n/a
321.9575	0.12	643915	keystroke_o	o	n/a
322.168	0.104	644336	keystroke_g	g	n/a
322.588	0.15	645176	keystroke_Key.backspace	Key.backspace	n/a
322.6025	0.1495	645205	keystroke_h	h	n/a
322.768	0.1345	645536	keystroke_e	e	n/a
323.022	0.1355	646044	keystroke_n	n	n/a
323.3675	0.12	646735	keystroke_Key.enter	Key.enter	n/a
323.4915	8.7125	646983	prompt	n/a	relates simulations over assessment\n
324.3575	0.105	648715	keystroke_r	r	n/a
324.402	0.106	648804	keystroke_e	e	n/a
324.643	0.12	649286	keystroke_l	l	n/a
324.718	0.12	649436	keystroke_a	a	n/a
324.972	0.105	649944	keystroke_t	t	n/a
325.1225	0.18	650245	keystroke_e	e	n/a
325.2425	0.1655	650485	keystroke_s	s	n/a
325.4975	0.1195	650995	keystroke_Key.space	Key.space	n/a
325.7525	0.1205	651505	keystroke_s	s	n/a
325.993	0.15	651986	keystroke_i	i	n/a
326.2475	0.12	652495	keystroke_m	m	n/a
326.5025	0.105	653005	keystroke_u	u	n/a
327.043	0.1345	654086	keystroke_l	l	n/a
327.1325	0.12	654265	keystroke_a	a	n/a
327.4775	0.105	654955	keystroke_t	t	n/a
327.658	0.1495	655316	keystroke_i	i	n/a
327.733	0.1495	655466	keystroke_o	o	n/a
327.8675	0.15	655735	keystroke_n	n	n/a
327.988	0.165	655976	keystroke_s	s	n/a
328.422	0.1505	656844	keystroke_Key.space	Key.space	n/a
328.7075	0.1195	657415	keystroke_o	o	n/a
328.783	0.1195	657566	keystroke_v	v	n/a
328.962	0.211	657924	keystroke_e	e	n/a
329.0675	0.18	658135	keystroke_r	r	n/a
329.2625	0.12	658525	keystroke_Key.space	Key.space	n/a
329.4875	0.18	658975	keystroke_a	a	n/a
329.607	0.075	659214	keystroke_s	s	n/a
329.788	0.1945	659576	keystroke_s	s	n/a
329.952	0.1205	659904	keystroke_e	e	n/a
330.1325	0.15	660265	keystroke_s	s	n/a
331.1375	0.12	662275	keystroke_s	s	n/a
331.4525	0.0755	662905	keystroke_m	m	n/a
331.542	0.0905	663084	keystroke_e	e	n/a
331.617	0.1355	663234	keystroke_n	n	n/a
331.7825	0.106	663565	keystroke_t	t	n/a
332.0975	0.105	664195	keystroke_Key.enter	Key.enter	n/a
332.2095	8.7995	664419	prompt	n/a	felt carrier navigate packet\n
333.2225	0.0595	666445	keystroke_f	f	n/a
333.2675	0.15	666535	keystroke_e	e	n/a
333.4325	0.12	666865	keystroke_l	l	n/a
333.613	0.105	667226	keystroke_t	t	n/a
333.7325	0.1205	667465	keystroke_Key.space	Key.space	n/a
333.972	0.076	667944	keystroke_c	c	n/a
334.062	0.1055	668124	keystroke_a	a	n/a
334.242	0.12	668484	keystroke_r	r	n/a
334.452	0.121	668904	keystroke_r	r	n/a
334.588	0.1495	669176	keystroke_i	i	n/a
334.798	0.134	669596	keystroke_e	e	n/a
334.962	0.1505	669924	keystroke_s	s	n/a
335.4425	0.09	670885	keystroke_Key.backspace	Key.backspace	n/a
335.4725	0.105	670945	keystroke_r	r	n/a
335.7125	0.135	671425	keystroke_Key.space	Key.space	n/a
336.4625	0.12	672925	keystroke_n	n	n/a
336.5075	0.1055	673015	keystroke_a	a	n/a
336.7925	0.1205	673585	keystroke_v	v	n/a
336.928	0.0895	673856	keystroke_i	i	n/a
336.9435	0.044	673887	keystroke_o	o	n/a
337.2725	0.0905	674545	keystroke_g	g	n/a
337.4675	0.09	674935	keystroke_a	a	n/a
337.827	0.0755	675654	keystroke_Key.backspace	Key.backspace	n/a
337.977	0.0755	675954	keystroke_Key.backspace	Key.backspace	n/a
338.1125	0.09	676225	keystroke_Key.backspace	Key.backspace	n/a
338.2325	0.0605	676465	keystroke_g	g	n/a
338.3525	0.135	676705	keystroke_a	a	n/a
338.6075	0.105	677215	keystroke_t	t	n/a
338.6975	0.1505	677395	keystroke_e	e	n/a
339.2075	0.09	678415	keystroke_Key.space	Key.space	n/a
339.7175	0.06	679435	keystroke_p	p	n/a
339.7625	0.03	679525	keystroke_a	a	n/a
339.8375	0.105	679675	keystroke_c	c	n/a
339.8975	0.135	679795	keystroke_k	k	n/a
340.0475	0.15	680095	keystroke_e	e	n/a
340.1525	0.105	680305	keystroke_r	r	n/a
340.572	0.1055	681144	keystroke_Key.backspace	Key.backspace	n/a
340.632	0.1205	681264	keystroke_t	t	n/a
340.9175	0.09	681835	keystroke_Key.enter	Key.enter	n/a
341.014	8.02	682028	prompt	n/a	costumes strikes dice blake\n
341.8925	0.105	683785	keystroke_c	c	n/a
342.0125	0.12	684025	keystroke_o	o	n/a
342.1775	0.165	684355	keystroke_s	s	n/a
342.4325	0.105	684865	keystroke_t	t	n/a
342.5075	0.12	685015	keystroke_u	u	n/a
342.7015	0.151	685403	keystroke_m	m	n/a
342.7925	0.105	685585	keystroke_e	e	n/a
342.9125	0.135	685825	keystroke_s	s	n/a
343.0925	0.1495	686185	keystroke_Key.space	Key.space	n/a
343.4675	0.1205	686935	keystroke_s	s	n/a
343.6475	0.1195	687295	keystroke_t	t	n/a
343.858	0.1045	687716	keystroke_r	r	n/a
343.9475	0.135	687895	keystroke_i	i	n/a
344.202	0.1505	688404	keystroke_k	k	n/a
344.3225	0.1055	688645	keystroke_e	e	n/a
344.5025	0.1495	689005	keystroke_s	s	n/a
344.697	0.1505	689394	keystroke_Key.space	Key.space	n/a
344.967	0.1205	689934	keystroke_d	d	n/a
345.1025	0.12	690205	keystroke_i	i	n/a
345.268	0.09	690536	keystroke_c	c	n/a
345.328	0.134	690656	keystroke_e	e	n/a
345.552	0.136	691104	keystroke_Key.space	Key.space	n/a
346.4525	0.09	692905	keystroke_b	b	n/a
346.6475	0.075	693295	keystroke_l	l	n/a
346.7375	0.0905	693475	keystroke_a	a	n/a
346.933	0.1045	693866	keystroke_c	c	n/a
346.963	0.089	693926	keystroke_k	k	n/a
347.6675	0.075	695335	keystroke_Key.backspace	Key.backspace	n/a
347.8175	0.09	695635	keystroke_Key.backspace	Key.backspace	n/a
348.5085	0.1195	697017	keystroke_k	k	n/a
348.583	0.105	697166	keystroke_e	e	n/a
348.9275	0.105	697855	keystroke_Key.enter	Key.enter	n/a
349.039	5.4855	698078	prompt	n/a	thats lease ruled march\n
350.0375	0.09	700075	keystroke_t	t	n/a
350.1575	0.105	700315	keystroke_h	h	n/a
350.2025	0.075	700405	keystroke_a	a	n/a
350.3525	0.06	700705	keystroke_t	t	n/a
350.4575	0.18	700915	keystroke_s	s	n/a
350.6675	0.15	701335	keystroke_Key.space	Key.space	n/a
351.1475	0.135	702295	keystroke_l	l	n/a
351.193	0.1045	702386	keystroke_e	e	n/a
351.298	0.1795	702596	keystroke_a	a	n/a
351.373	0.179	702746	keystroke_s	s	n/a
351.5075	0.1645	703015	keystroke_e	e	n/a
351.687	0.121	703374	keystroke_Key.space	Key.space	n/a
352.077	0.136	704154	keystroke_r	r	n/a
352.2575	0.1055	704515	keystroke_u	u	n/a
352.4825	0.1495	704965	keystroke_l	l	n/a
352.572	0.1055	705144	keystroke_e	e	n/a
352.7825	0.12	705565	keystroke_d	d	n/a
352.873	0.1495	705746	keystroke_Key.space	Key.space	n/a
353.2325	0.1645	706465	keystroke_m	m	n/a
353.322	0.165	706644	keystroke_a	a	n/a
353.6825	0.1195	707365	keystroke_r	r	n/a
353.908	0.12	707816	keystroke_c	c	n/a
353.998	0.12	707996	keystroke_h	h	n/a
354.388	0.134	708776	keystroke_Key.enter	Key.enter	n/a
354.53	9.549	709060	prompt	n/a	hammer indirect sunset gary\n
355.1075	0.074	710215	keystroke_Key.space	Key.space	n/a
356.8025	0.1345	713605	keystroke_Key.backspace	Key.backspace	n/a
357.2525	0.12	714505	keystroke_h	h	n/a
357.343	0.1045	714686	keystroke_a	a	n/a
357.538	0.0745	715076	keystroke_m	m	n/a
357.658	0.149	715316	keystroke_m	m	n/a
357.7925	0.105	715585	keystroke_e	e	n/a
357.988	0.105	715976	keystroke_r	r	n/a
358.2725	0.12	716545	keystroke_Key.space	Key.space	n/a
358.738	0.1795	717476	keystroke_i	i	n/a
358.8725	0.12	717745	keystroke_n	n	n/a
359.2475	0.105	718495	keystroke_d	d	n/a
359.3225	0.135	718645	keystroke_i	i	n/a
359.7875	0.105	719575	keystroke_r	r	n/a
359.862	0.1055	719724	keystroke_e	e	n/a
360.0575	0.105	720115	keystroke_c	c	n/a
360.283	0.1045	720566	keystroke_t	t	n/a
360.957	0.1205	721914	keystroke_Key.space	Key.space	n/a
361.1825	0.165	722365	keystroke_s	s	n/a
361.3325	0.165	722665	keystroke_u	u	n/a
361.4225	0.1045	722845	keystroke_n	n	n/a
361.5725	0.195	723145	keystroke_s	s	n/a
361.8425	0.12	723685	keystroke_e	e	n/a
362.0375	0.135	724075	keystroke_t	t	n/a
362.3975	0.1045	724795	keystroke_Key.space	Key.space	n/a
362.9225	0.075	725845	keystroke_g	g	n/a
363.0725	0.075	726145	keystroke_a	a	n/a
363.1625	0.15	726325	keystroke_r	r	n/a
363.448	0.1345	726896	keystroke_y	y	n/a
363.928	0.149	727856	keystroke_Key.enter	Key.enter	n/a
364.084	7.855	728168	prompt	n/a	required kenny socks translate\n
364.9475	0.1045	729895	keystroke_r	r	n/a
365.0075	0.1205	730015	keystroke_e	e	n/a
365.2025	0.15	730405	keystroke_q	q	n/a
365.3375	0.1645	730675	keystroke_u	u	n/a
365.3825	0.15	730765	keystroke_i	i	n/a
365.5175	0.12	731035	keystroke_r	r	n/a
365.607	0.121	731214	keystroke_e	e	n/a
365.832	0.12	731664	keystroke_d	d	n/a
366.027	0.1355	732054	keystroke_Key.space	Key.space	n/a
366.793	0.12	733586	keystroke_k	k	n/a
366.882	0.136	733764	keystroke_e	e	n/a
367.138	0.06	734276	keystroke_n	n	n/a
367.257	0.136	734514	keystroke_n	n	n/a
367.542	0.09	735084	keystroke_y	y	n/a
367.8575	0.12	735715	keystroke_Key.space	Key.space	n/a
368.502	0.1505	737004	keystroke_s	s	n/a
368.667	0.105	737334	keystroke_o	o	n/a
368.7875	0.1495	737575	keystroke_c	c	n/a
368.907	0.1355	737814	keystroke_k	k	n/a
369.1625	0.165	738325	keystroke_s	s	n/a
369.3875	0.1495	738775	keystroke_Key.space	Key.space	n/a
370.0025	0.15	740005	keystroke_t	t	n/a
370.1075	0.12	740215	keystroke_r	r	n/a
370.317	0.1205	740634	keystroke_a	a	n/a
370.497	0.105	740994	keystroke_n	n	n/a
370.617	0.0905	741234	keystroke_s	s	n/a
370.8125	0.15	741625	keystroke_l	l	n/a
370.9025	0.15	741805	keystroke_a	a	n/a
371.2325	0.1205	742465	keystroke_t	t	n/a
371.443	0.119	742886	keystroke_e	e	n/a
371.7875	0.15	743575	keystroke_Key.enter	Key.enter	n/a
371.9465	8.677	743893	prompt	n/a	signature sometimes baking victoria\n
372.778	0.12	745556	keystroke_s	s	n/a
372.928	0.12	745856	keystroke_i	i	n/a
373.1525	0.12	746305	keystroke_g	g	n/a
373.3775	0.1195	746755	keystroke_n	n	n/a
373.482	0.106	746964	keystroke_a	a	n/a
373.7375	0.1055	747475	keystroke_t	t	n/a
373.9475	0.12	747895	keystroke_u	u	n/a
374.0375	0.1345	748075	keystroke_r	r	n/a
374.1275	0.1345	748255	keystroke_e	e	n/a
374.6065	0.106	749213	keystroke_Key.space	Key.space	n/a
374.8625	0.135	749725	keystroke_s	s	n/a
375.0125	0.104	750025	keystroke_o	o	n/a
375.1775	0.12	750355	keystroke_m	m	n/a
375.2525	0.105	750505	keystroke_e	e	n/a
375.5075	0.12	751015	keystroke_t	t	n/a
375.6125	0.134	751225	keystroke_i	i	n/a
375.7775	0.15	751555	keystroke_m	m	n/a
375.9425	0.1645	751885	keystroke_e	e	n/a
376.092	0.1505	752184	keystroke_s	s	n/a
376.287	0.1355	752574	keystroke_Key.space	Key.space	n/a
376.797	0.09	753594	keystroke_b	b	n/a
376.842	0.09	753684	keystroke_a	a	n/a
377.1875	0.12	754375	keystroke_k	k	n/a
377.3975	0.18	754795	keystroke_i	i	n/a
377.4875	0.1345	754975	keystroke_n	n	n/a
377.5625	0.1045	755125	keystroke_g	g	n/a
378.4175	0.1195	756835	keystroke_Key.space	Key.space	n/a
378.9875	0.1045	757975	keystroke_v	v	n/a
379.0775	0.1045	758155	keystroke_i	i	n/a
379.212	0.075	758424	keystroke_c	c	n/a
379.482	0.1055	758964	keystroke_t	t	n/a
379.7075	0.135	759415	keystroke_o	o	n/a
379.8435	0.119	759687	keystroke_r	r	n/a
379.992	0.1205	759984	keystroke_i	i	n/a
380.1725	0.135	760345	keystroke_a	a	n/a
380.5015	0.12	761003	keystroke_Key.enter	Key.enter	n/a
380.629	8.095	761258	prompt	n/a	temperatures helena none watched\n
381.417	0.0895	762834	keystroke_t	t	n/a
381.4915	0.1055	762983	keystroke_e	e	n/a
381.657	0.105	763314	keystroke_m	m	n/a
381.927	0.15	763854	keystroke_p	p	n/a
382.032	0.1195	764064	keystroke_e	e	n/a
382.258	0.1345	764516	keystroke_r	r	n/a
382.378	0.0295	764756	keystroke_e	e	n/a
382.482	0.135	764964	keystroke_a	a	n/a
382.7375	0.12	765475	keystroke_t	t	n/a
382.977	0.135	765954	keystroke_u	u	n/a
383.0825	0.105	766165	keystroke_r	r	n/a
383.142	0.1355	766284	keystroke_e	e	n/a
383.5325	0.105	767065	keystroke_s	s	n/a
384.0125	0.1345	768025	keystroke_Key.space	Key.space	n/a
384.9425	0.09	769885	keystroke_h	h	n/a
385.0475	0.1195	770095	keystroke_e	e	n/a
385.228	0.1045	770456	keystroke_l	l	n/a
385.2725	0.1355	770545	keystroke_e	e	n/a
385.4975	0.105	770995	keystroke_n	n	n/a
385.5875	0.1205	771175	keystroke_a	a	n/a
386.1125	0.1195	772225	keystroke_Key.space	Key.space	n/a
386.5325	0.105	773065	keystroke_n	n	n/a
386.6075	0.165	773215	keystroke_o	o	n/a
386.7125	0.15	773425	keystroke_n	n	n/a
386.8475	0.135	773695	keystroke_e	e	n/a
387.0275	0.15	774055	keystroke_Key.space	Key.space	n/a
387.3575	0.165	774715	keystroke_w	w	n/a
387.448	0.1345	774896	keystroke_a	a	n/a
387.7175	0.135	775435	keystroke_t	t	n/a
387.987	0.135	775974	keystroke_c	c	n/a
388.137	0.105	776274	keystroke_h	h	n/a
388.197	0.1205	776394	keystroke_e	e	n/a
388.3925	0.1495	776785	keystroke_d	d	n/a
388.5715	0.1505	777143	keystroke_Key.enter	Key.enter	n/a
388.728	9.671	777456	prompt	n/a	restrictions lawn engagement four\n
389.547	0.12	779094	keystroke_r	r	n/a
389.607	0.106	779214	keystroke_e	e	n/a
389.7275	0.165	779455	keystroke_s	s	n/a
390.0275	0.12	780055	keystroke_t	t	n/a
390.4925	0.1345	780985	keystroke_r	r	n/a
390.5825	0.18	781165	keystroke_i	i	n/a
390.852	0.12	781704	keystroke_c	c	n/a
391.302	0.1205	782604	keystroke_t	t	n/a
391.437	0.12	782874	keystroke_i	i	n/a
391.4975	0.1495	782995	keystroke_o	o	n/a
391.617	0.1355	783234	keystroke_n	n	n/a
391.932	0.1205	783864	keystroke_s	s	n/a
392.1725	0.1345	784345	keystroke_Key.space	Key.space	n/a
392.6975	0.135	785395	keystroke_l	l	n/a
392.7715	0.1805	785543	keystroke_a	a	n/a
392.8765	0.1505	785753	keystroke_w	w	n/a
393.0875	0.105	786175	keystroke_n	n	n/a
393.2675	0.135	786535	keystroke_Key.space	Key.space	n/a
393.973	0.1045	787946	keystroke_e	e	n/a
394.1225	0.1195	788245	keystroke_n	n	n/a
394.422	0.0905	788844	keystroke_g	g	n/a
394.5875	0.09	789175	keystroke_a	a	n/a
395.0675	0.1045	790135	keystroke_g	g	n/a
395.142	0.135	790284	keystroke_e	e	n/a
395.5625	0.105	791125	keystroke_m	m	n/a
395.637	0.1055	791274	keystroke_e	e	n/a
395.7575	0.1345	791515	keystroke_n	n	n/a
395.9225	0.149	791845	keystroke_t	t	n/a
396.237	0.1055	792474	keystroke_Key.space	Key.space	n/a
396.6125	0.12	793225	keystroke_f	f	n/a
396.7615	0.1055	793523	keystroke_o	o	n/a
397.0625	0.18	794125	keystroke_u	u	n/a
397.2275	0.12	794455	keystroke_t	t	n/a
397.9315	0.1355	795863	keystroke_Key.backspace	Key.backspace	n/a
398.022	0.1355	796044	keystroke_r	r	n/a
398.2765	0.121	796553	keystroke_Key.enter	Key.enter	n/a
398.404	8.14	796808	prompt	n/a	willing thereby angela activated\n
399.147	0.105	798294	keystroke_w	w	n/a
399.282	0.12	798564	keystroke_i	i	n/a
399.492	0.1055	798984	keystroke_l	l	n/a
399.657	0.0905	799314	keystroke_l	l	n/a
399.852	0.195	799704	keystroke_i	i	n/a
399.958	0.1495	799916	keystroke_n	n	n/a
400.0025	0.1195	800005	keystroke_g	g	n/a
400.2575	0.1345	800515	keystroke_Key.space	Key.space	n/a
400.7375	0.1195	801475	keystroke_t	t	n/a
400.9025	0.135	801805	keystroke_h	h	n/a
400.9915	0.151	801983	keystroke_e	e	n/a
401.157	0.1505	802314	keystroke_r	r	n/a
401.277	0.1355	802554	keystroke_e	e	n/a
401.9375	0.105	803875	keystroke_b	b	n/a
402.0575	0.12	804115	keystroke_y	y	n/a
402.792	0.1205	805584	keystroke_Key.space	Key.space	n/a
403.0475	0.135	806095	keystroke_a	a	n/a
403.2275	0.12	806455	keystroke_n	n	n/a
403.4525	0.0895	806905	keystroke_g	g	n/a
403.8275	0.1195	807655	keystroke_e	e	n/a
403.962	0.1055	807924	keystroke_l	l	n/a
404.0675	0.1045	808135	keystroke_a	a	n/a
404.472	0.12	808944	keystroke_Key.space	Key.space	n/a
404.622	0.15	809244	keystroke_a	a	n/a
404.8165	0.1205	809633	keystroke_c	c	n/a
405.087	0.09	810174	keystroke_t	t	n/a
405.192	0.0895	810384	keystroke_i	i	n/a
405.4025	0.06	810805	keystroke_v	v	n/a
405.5825	0.1195	811165	keystroke_a	a	n/a
405.867	0.0905	811734	keystroke_t	t	n/a
405.958	0.149	811916	keystroke_e	e	n/a
406.1675	0.1195	812335	keystroke_d	d	n/a
406.422	0.12	812844	keystroke_Key.enter	Key.enter	n/a
406.548	19.587	813096	prompt	n/a	bangkok ticket raymond francisco\n
407.712	0.0905	815424	keystroke_b	b	n/a
407.7415	0.106	815483	keystroke_a	a	n/a
409.5575	0.1045	819115	keystroke_n	n	n/a
409.587	0.1355	819174	keystroke_k	k	n/a
411.8235	0.043	823647	keystroke_Key.backspace	Key.backspace	n/a
412.887	0.135	825774	keystroke_g	g	n/a
413.037	0.105	826074	keystroke_k	k	n/a
413.2465	0.046	826493	keystroke_k	k	n/a
414.4775	0.0145	828955	keystroke_l	l	n/a
414.5515	0.046	829103	keystroke_o	o	n/a
415.527	0.075	831054	keystroke_Key.backspace	Key.backspace	n/a
415.6925	0.105	831385	keystroke_Key.backspace	Key.backspace	n/a
416.187	0.135	832374	keystroke_Key.backspace	Key.backspace	n/a
416.683	0.134	833366	keystroke_o	o	n/a
416.742	0.135	833484	keystroke_k	k	n/a
417.7915	0.1205	835583	keystroke_Key.space	Key.space	n/a
418.2425	0.105	836485	keystroke_t	t	n/a
418.3325	0.09	836665	keystroke_i	i	n/a
418.438	0.104	836876	keystroke_c	c	n/a
418.557	0.091	837114	keystroke_j	j	n/a
418.6325	0.1645	837265	keystroke_e	e	n/a
418.947	0.12	837894	keystroke_t	t	n/a
419.1725	0.0745	838345	keystroke_Key.backspace	Key.backspace	n/a
419.3225	0.075	838645	keystroke_Key.backspace	Key.backspace	n/a
419.4715	0.105	838943	keystroke_Key.backspace	Key.backspace	n/a
420.117	0.1205	840234	keystroke_k	k	n/a
420.2225	0.03	840445	keystroke_e	e	n/a
420.3725	0.1195	840745	keystroke_t	t	n/a
420.912	0.1195	841824	keystroke_Key.space	Key.space	n/a
421.092	0.105	842184	keystroke_r	r	n/a
421.2125	0.119	842425	keystroke_a	a	n/a
421.7375	0.1045	843475	keystroke_y	y	n/a
421.917	0.12	843834	keystroke_m	m	n/a
422.0225	0.1645	844045	keystroke_o	o	n/a
422.172	0.1205	844344	keystroke_n	n	n/a
422.2625	0.135	844525	keystroke_d	d	n/a
422.502	0.1655	845004	keystroke_Key.space	Key.space	n/a
423.7775	0.0445	847555	keystroke_f	f	n/a
423.972	0.09	847944	keystroke_r	r	n/a
424.1075	0.0745	848215	keystroke_a	a	n/a
424.242	0.12	848484	keystroke_n	n	n/a
424.768	0.134	849536	keystroke_c	c	n/a
424.887	0.135	849774	keystroke_i	i	n/a
425.187	0.1505	850374	keystroke_s	s	n/a
425.502	0.105	851004	keystroke_c	c	n/a
425.6375	0.1195	851275	keystroke_o	o	n/a
426.027	0.105	852054	keystroke_Key.enter	Key.enter	n/a
426.1385	18.161	852277	prompt	n/a	institutes chronicle institutes genuine\n
427.153	0.164	854306	keystroke_i	i	n/a
427.242	0.1055	854484	keystroke_n	n	n/a
427.2725	0.1495	854545	keystroke_s	s	n/a
427.482	0.1505	854964	keystroke_t	t	n/a
428.4275	0.1205	856855	keystroke_i	i	n/a
429.1025	0.1195	858205	keystroke_t	t	n/a
429.207	0.12	858414	keystroke_u	u	n/a
429.297	0.1505	858594	keystroke_e	e	n/a
429.387	0.1505	858774	keystroke_s	s	n/a
430.482	0.075	860964	keystroke_Key.backspace	Key.backspace	n/a
430.632	0.0745	861264	keystroke_Key.backspace	Key.backspace	n/a
431.7575	0.12	863515	keystroke_t	t	n/a
431.8625	0.15	863725	keystroke_e	e	n/a
431.9975	0.134	863995	keystroke_s	s	n/a
432.7765	0.1205	865553	keystroke_Key.space	Key.space	n/a
433.0625	0.1055	866125	keystroke_c	c	n/a
433.303	0.089	866606	keystroke_h	h	n/a
433.528	0.1345	867056	keystroke_r	r	n/a
433.617	0.135	867234	keystroke_o	o	n/a
433.9165	0.136	867833	keystroke_n	n	n/a
434.0375	0.1345	868075	keystroke_i	i	n/a
434.202	0.12	868404	keystroke_c	c	n/a
434.923	0.119	869846	keystroke_l	l	n/a
435.012	0.165	870024	keystroke_e	e	n/a
435.387	0.12	870774	keystroke_Key.space	Key.space	n/a
435.747	0.1505	871494	keystroke_i	i	n/a
435.8525	0.104	871705	keystroke_n	n	n/a
435.9425	0.165	871885	keystroke_s	s	n/a
436.1375	0.12	872275	keystroke_t	t	n/a
436.302	0.12	872604	keystroke_i	i	n/a
436.408	0.074	872816	keystroke_r	r	n/a
438.764	0.013	877528	keystroke_Key.backspace	Key.backspace	n/a
439.437	0.1055	878874	keystroke_t	t	n/a
439.5575	0.1045	879115	keystroke_u	u	n/a
439.7375	0.0745	879475	keystroke_t	t	n/a
440.0075	0.18	880015	keystroke_e	e	n/a
440.2175	0.165	880435	keystroke_s	s	n/a
440.517	0.135	881034	keystroke_Key.space	Key.space	n/a
441.012	0.075	882024	keystroke_g	g	n/a
441.102	0.1355	882204	keystroke_e	e	n/a
441.5225	0.166	883045	keystroke_n	n	n/a
441.8225	0.15	883645	keystroke_u	u	n/a
441.9275	0.06	883855	keystroke_i	i	n/a
442.0325	0.15	884065	keystroke_n	n	n/a
442.168	0.1045	884336	keystroke_e	e	n/a
442.962	0.1205	885924	keystroke_\	\	n/a
443.999	0.088	887998	keystroke_Key.backspace	Key.backspace	n/a
444.252	0.045	888504	keystroke_Key.enter	Key.enter	n/a
444.3035	11.441	888607	prompt	n/a	narrative respective thumb foreign\n
445.5735	0.1035	891147	keystroke_n	n	n/a
445.6175	0.105	891235	keystroke_a	a	n/a
445.812	0.0755	891624	keystroke_r	r	n/a
445.9775	0.09	891955	keystroke_r	r	n/a
446.0525	0.12	892105	keystroke_a	a	n/a
446.2775	0.105	892555	keystroke_t	t	n/a
446.3975	0.134	892795	keystroke_i	i	n/a
446.503	0.0895	893006	keystroke_v	v	n/a
446.6075	0.12	893215	keystroke_e	e	n/a
447.2075	0.12	894415	keystroke_Key.space	Key.space	n/a
447.522	0.1055	895044	keystroke_r	r	n/a
447.5675	0.1195	895135	keystroke_e	e	n/a
447.733	0.149	895466	keystroke_s	s	n/a
448.0175	0.135	896035	keystroke_p	p	n/a
448.2875	0.1355	896575	keystroke_e	e	n/a
448.5425	0.105	897085	keystroke_c	c	n/a
448.8275	0.105	897655	keystroke_t	t	n/a
448.9475	0.135	897895	keystroke_i	i	n/a
449.128	0.0445	898256	keystroke_v	v	n/a
449.1425	0.1345	898285	keystroke_e	e	n/a
449.517	0.1505	899034	keystroke_Key.space	Key.space	n/a
449.907	0.1205	899814	keystroke_t	t	n/a
450.2075	0.105	900415	keystroke_h	h	n/a
450.3725	0.18	900745	keystroke_u	u	n/a
450.5375	0.135	901075	keystroke_m	m	n/a
450.8825	0.089	901765	keystroke_d	d	n/a
451.1825	0.12	902365	keystroke_Key.backspace	Key.backspace	n/a
451.2725	0.09	902545	keystroke_b	b	n/a
452.052	0.1505	904104	keystroke_Key.space	Key.space	n/a
452.5925	0.1045	905185	keystroke_f	f	n/a
452.683	0.134	905366	keystroke_o	o	n/a
452.877	0.0745	905754	keystroke_r	r	n/a
453.058	0.059	906116	keystroke_r	r	n/a
453.103	0.12	906206	keystroke_e	e	n/a
453.927	0.075	907854	keystroke_Key.backspace	Key.backspace	n/a
454.0765	0.151	908153	keystroke_Key.backspace	Key.backspace	n/a
454.1375	0.1355	908275	keystroke_e	e	n/a
455.052	0.091	910104	keystroke_i	i	n/a
455.2325	0.075	910465	keystroke_g	g	n/a
455.2925	0.1205	910585	keystroke_n	n	n/a
455.6225	0.12	911245	keystroke_Key.enter	Key.enter	n/a
455.748	10.316	911496	prompt	n/a	contrast postposted sells thumbs\n
456.6125	0.15	913225	keystroke_c	c	n/a
456.7475	0.1045	913495	keystroke_o	o	n/a
456.9575	0.15	913915	keystroke_n	n	n/a
457.1385	0.104	914277	keystroke_s	s	n/a
457.647	0.1355	915294	keystroke_Key.backspace	Key.backspace	n/a
457.722	0.136	915444	keystroke_t	t	n/a
458.067	0.121	916134	keystroke_r	r	n/a
458.2325	0.0745	916465	keystroke_a	a	n/a
458.4275	0.1195	916855	keystroke_s	s	n/a
458.652	0.106	917304	keystroke_t	t	n/a
459.057	0.12	918114	keystroke_Key.space	Key.space	n/a
459.5375	0.105	919075	keystroke_p	p	n/a
459.7175	0.0895	919435	keystroke_r	r	n/a
460.2575	0.0895	920515	keystroke_Key.backspace	Key.backspace	n/a
460.647	0.1355	921294	keystroke_o	o	n/a
460.7525	0.12	921505	keystroke_s	s	n/a
461.248	0.1045	922496	keystroke_t	t	n/a
461.8625	0.0755	923725	keystroke_p	p	n/a
462.0135	0.1335	924027	keystroke_o	o	n/a
462.2675	0.1345	924535	keystroke_n	n	n/a
462.3275	0.09	924655	keystroke_e	e	n/a
462.492	0.1505	924984	keystroke_d	d	n/a
462.672	0.1805	925344	keystroke_Key.space	Key.space	n/a
463.2875	0.135	926575	keystroke_s	s	n/a
463.3625	0.105	926725	keystroke_e	e	n/a
463.5285	0.089	927057	keystroke_l	l	n/a
463.6775	0.15	927355	keystroke_l	l	n/a
463.7675	0.105	927535	keystroke_s	s	n/a
464.0825	0.12	928165	keystroke_Key.space	Key.space	n/a
464.3225	0.1195	928645	keystroke_t	t	n/a
464.517	0.135	929034	keystroke_h	h	n/a
464.742	0.1355	929484	keystroke_u	u	n/a
465.6125	0.1045	931225	keystroke_m	m	n/a
465.6425	0.1195	931285	keystroke_s	s	n/a
465.9125	0.149	931825	keystroke_Key.enter	Key.enter	n/a
466.068	8.472	932136	prompt	n/a	cite icon sync murder\n
467.3075	0.1045	934615	keystroke_c	c	n/a
467.4275	0.105	934855	keystroke_i	i	n/a
467.6075	0.12	935215	keystroke_t	t	n/a
467.7125	0.1495	935425	keystroke_e	e	n/a
468.027	0.1055	936054	keystroke_Key.space	Key.space	n/a
468.5975	0.09	937195	keystroke_i	i	n/a
469.0325	0.105	938065	keystroke_c	c	n/a
469.1525	0.045	938305	keystroke_i	i	n/a
470.0975	0.09	940195	keystroke_Key.backspace	Key.backspace	n/a
471.1775	0.15	942355	keystroke_o	o	n/a
471.2375	0.135	942475	keystroke_n	n	n/a
471.8675	0.135	943735	keystroke_Key.space	Key.space	n/a
472.0925	0.135	944185	keystroke_s	s	n/a
472.3775	0.105	944755	keystroke_y	y	n/a
472.4675	0.12	944935	keystroke_n	n	n/a
472.6175	0.135	945235	keystroke_c	c	n/a
472.917	0.135	945834	keystroke_Key.space	Key.space	n/a
473.427	0.1055	946854	keystroke_m	m	n/a
473.5925	0.1195	947185	keystroke_u	u	n/a
473.6825	0.105	947365	keystroke_r	r	n/a
473.892	0.0905	947784	keystroke_d	d	n/a
473.9975	0.2105	947995	keystroke_e	e	n/a
474.133	0.12	948266	keystroke_r	r	n/a
474.387	0.15	948774	keystroke_Key.enter	Key.enter	n/a
474.5435	7.091	949087	prompt	n/a	value worried hired finance\n
475.5125	0.105	951025	keystroke_v	v	n/a
475.7225	0.0295	951445	keystroke_a	a	n/a
475.767	0.12	951534	keystroke_l	l	n/a
476.1125	0.12	952225	keystroke_u	u	n/a
476.1725	0.09	952345	keystroke_e	e	n/a
476.5025	0.15	953005	keystroke_Key.space	Key.space	n/a
476.8325	0.1195	953665	keystroke_w	w	n/a
476.937	0.136	953874	keystroke_o	o	n/a
477.088	0.0745	954176	keystroke_r	r	n/a
477.2375	0.105	954475	keystroke_r	r	n/a
477.3575	0.135	954715	keystroke_i	i	n/a
477.4625	0.135	954925	keystroke_e	e	n/a
477.672	0.18	955344	keystroke_d	d	n/a
477.9125	0.1195	955825	keystroke_Key.space	Key.space	n/a
478.3775	0.1195	956755	keystroke_h	h	n/a
478.5275	0.12	957055	keystroke_i	i	n/a
478.722	0.181	957444	keystroke_r	r	n/a
478.888	0.135	957776	keystroke_e	e	n/a
479.142	0.136	958284	keystroke_d	d	n/a
479.4725	0.135	958945	keystroke_Key.space	Key.space	n/a
480.342	0.1055	960684	keystroke_f	f	n/a
480.4325	0.075	960865	keystroke_i	i	n/a
480.5985	0.1035	961197	keystroke_n	n	n/a
480.673	0.0745	961346	keystroke_a	a	n/a
480.883	0.135	961766	keystroke_n	n	n/a
481.019	0.1485	962038	keystroke_c	c	n/a
481.153	0.1495	962306	keystroke_e	e	n/a
481.4675	0.1655	962935	keystroke_Key.enter	Key.enter	n/a
481.642	11.3175	963284	prompt	n/a	christianity boundary colon connected\n
482.4875	0.15	964975	keystroke_c	c	n/a
482.7425	0.105	965485	keystroke_h	h	n/a
482.8625	0.1215	965725	keystroke_r	r	n/a
483.1175	0.1345	966235	keystroke_i	i	n/a
483.2975	0.165	966595	keystroke_s	s	n/a
483.508	0.134	967016	keystroke_t	t	n/a
483.657	0.1505	967314	keystroke_i	i	n/a
484.0325	0.12	968065	keystroke_a	a	n/a
484.197	0.1355	968394	keystroke_n	n	n/a
484.9025	0.1045	969805	keystroke_i	i	n/a
485.0675	0.105	970135	keystroke_t	t	n/a
485.2325	0.135	970465	keystroke_y	y	n/a
485.667	0.1355	971334	keystroke_Key.space	Key.space	n/a
486.2525	0.1055	972505	keystroke_b	b	n/a
486.3425	0.075	972685	keystroke_o	o	n/a
486.747	0.1655	973494	keystroke_u	u	n/a
487.6325	0.12	975265	keystroke_n	n	n/a
487.753	0.1345	975506	keystroke_d	d	n/a
487.9175	0.15	975835	keystroke_a	a	n/a
488.2325	0.1045	976465	keystroke_r	r	n/a
488.5785	0.119	977157	keystroke_y	y	n/a
489.2675	0.105	978535	keystroke_Key.space	Key.space	n/a
489.4925	0.1355	978985	keystroke_c	c	n/a
489.5825	0.135	979165	keystroke_o	o	n/a
489.748	0.164	979496	keystroke_l	l	n/a
489.882	0.1655	979764	keystroke_o	o	n/a
490.1375	0.1205	980275	keystroke_n	n	n/a
490.4975	0.15	980995	keystroke_Key.space	Key.space	n/a
490.933	0.105	981866	keystroke_c	c	n/a
491.008	0.089	982016	keystroke_o	o	n/a
491.2175	0.09	982435	keystroke_n	n	n/a
491.352	0.1505	982704	keystroke_n	n	n/a
491.4425	0.1055	982885	keystroke_e	e	n/a
491.667	0.091	983334	keystroke_c	c	n/a
491.8775	0.105	983755	keystroke_t	t	n/a
491.9835	0.134	983967	keystroke_e	e	n/a
492.178	0.179	984356	keystroke_d	d	n/a
492.7325	0.225	985465	keystroke_Key.enter	Key.enter	n/a
492.9635	8.051	985927	prompt	n/a	decades recently more daughters\n
494.2025	0.09	988405	keystroke_d	d	n/a
494.3825	0.105	988765	keystroke_e	e	n/a
494.6075	0.105	989215	keystroke_c	c	n/a
494.7275	0.15	989455	keystroke_a	a	n/a
494.9375	0.1045	989875	keystroke_d	d	n/a
495.118	0.12	990236	keystroke_e	e	n/a
495.252	0.1355	990504	keystroke_s	s	n/a
495.4775	0.1045	990955	keystroke_Key.space	Key.space	n/a
495.703	0.0895	991406	keystroke_r	r	n/a
495.763	0.1195	991526	keystroke_e	e	n/a
495.957	0.1205	991914	keystroke_c	c	n/a
496.198	0.1345	992396	keystroke_e	e	n/a
496.498	0.12	992996	keystroke_n	n	n/a
496.663	0.105	993326	keystroke_t	t	n/a
497.1425	0.12	994285	keystroke_l	l	n/a
497.4125	0.105	994825	keystroke_y	y	n/a
497.8775	0.15	995755	keystroke_Key.space	Key.space	n/a
498.238	0.1495	996476	keystroke_m	m	n/a
498.3425	0.165	996685	keystroke_o	o	n/a
498.3575	0.105	996715	keystroke_r	r	n/a
498.4175	0.195	996835	keystroke_e	e	n/a
498.5825	0.12	997165	keystroke_Key.space	Key.space	n/a
498.9725	0.135	997945	keystroke_d	d	n/a
499.0625	0.104	998125	keystroke_a	a	n/a
499.377	0.105	998754	keystroke_u	u	n/a
499.558	0.1195	999116	keystroke_g	g	n/a
499.662	0.165	999324	keystroke_h	h	n/a
499.798	0.149	999596	keystroke_t	t	n/a
500.038	0.1495	1000076	keystroke_e	e	n/a
500.3225	0.1495	1000645	keystroke_r	r	n/a
500.5175	0.15	1001035	keystroke_s	s	n/a
500.8625	0.1495	1001725	keystroke_Key.enter	Key.enter	n/a
501.018	8.711	1002036	prompt	n/a	particle syracuse depth rico\n
502.0625	0.135	1004125	keystroke_p	p	n/a
502.1075	0.12	1004215	keystroke_a	a	n/a
502.2875	0.15	1004575	keystroke_r	r	n/a
502.497	0.12	1004994	keystroke_t	t	n/a
502.6775	0.1205	1005355	keystroke_i	i	n/a
502.8125	0.0905	1005625	keystroke_c	c	n/a
503.143	0.105	1006286	keystroke_l	l	n/a
503.292	0.1055	1006584	keystroke_e	e	n/a
504.237	0.135	1008474	keystroke_Key.space	Key.space	n/a
504.8375	0.135	1009675	keystroke_s	s	n/a
504.9875	0.135	1009975	keystroke_y	y	n/a
505.1075	0.105	1010215	keystroke_r	r	n/a
505.2135	0.1335	1010427	keystroke_a	a	n/a
505.7375	0.12	1011475	keystroke_c	c	n/a
505.889	0.089	1011778	keystroke_u	u	n/a
505.963	0.1645	1011926	keystroke_s	s	n/a
506.067	0.1205	1012134	keystroke_e	e	n/a
506.292	0.15	1012584	keystroke_Key.space	Key.space	n/a
506.5775	0.1055	1013155	keystroke_d	d	n/a
506.7575	0.1355	1013515	keystroke_e	e	n/a
506.998	0.045	1013996	keystroke_p	p	n/a
507.7025	0.1055	1015405	keystroke_t	t	n/a
507.793	0.1195	1015586	keystroke_h	h	n/a
508.5725	0.135	1017145	keystroke_Key.space	Key.space	n/a
508.9025	0.1355	1017805	keystroke_r	r	n/a
508.9775	0.105	1017955	keystroke_i	i	n/a
509.1875	0.135	1018375	keystroke_c	c	n/a
509.3375	0.09	1018675	keystroke_o	o	n/a
509.6075	0.12	1019215	keystroke_Key.enter	Key.enter	n/a
509.733	9.7765	1019466	prompt	n/a	bleeding tree belong dreams\n
510.8975	0.06	1021795	keystroke_b	b	n/a
510.988	0.0895	1021976	keystroke_l	l	n/a
511.0925	0.09	1022185	keystroke_e	e	n/a
511.2725	0.105	1022545	keystroke_e	e	n/a
511.4675	0.135	1022935	keystroke_d	d	n/a
511.723	0.1195	1023446	keystroke_i	i	n/a
511.858	0.135	1023716	keystroke_n	n	n/a
511.933	0.1045	1023866	keystroke_g	g	n/a
512.1725	0.135	1024345	keystroke_Key.space	Key.space	n/a
512.7275	0.135	1025455	keystroke_t	t	n/a
512.8775	0.09	1025755	keystroke_e	e	n/a
513.3875	0.105	1026775	keystroke_Key.backspace	Key.backspace	n/a
513.4325	0.15	1026865	keystroke_r	r	n/a
513.5225	0.27	1027045	keystroke_e	e	n/a
514.0025	0.1045	1028005	keystroke_e	e	n/a
514.227	0.1205	1028454	keystroke_Key.space	Key.space	n/a
514.7535	0.015	1029507	keystroke_v	v	n/a
515.3675	0.0895	1030735	keystroke_Key.backspace	Key.backspace	n/a
515.517	0.09	1031034	keystroke_e	e	n/a
515.9075	0.105	1031815	keystroke_Key.backspace	Key.backspace	n/a
515.9825	0.12	1031965	keystroke_b	b	n/a
516.1175	0.136	1032235	keystroke_e	e	n/a
516.5975	0.1195	1033195	keystroke_l	l	n/a
516.778	0.1495	1033556	keystroke_o	o	n/a
517.017	0.1355	1034034	keystroke_n	n	n/a
517.0775	0.09	1034155	keystroke_g	g	n/a
517.3625	0.1195	1034725	keystroke_Key.space	Key.space	n/a
517.8585	0.104	1035717	keystroke_d	d	n/a
518.0675	0.135	1036135	keystroke_r	r	n/a
518.1425	0.15	1036285	keystroke_e	e	n/a
518.3975	0.12	1036795	keystroke_a	a	n/a
518.698	0.089	1037396	keystroke_m	m	n/a
518.818	0.134	1037636	keystroke_s	s	n/a
519.3275	0.18	1038655	keystroke_Key.enter	Key.enter	n/a
519.5135	7.2875	1039027	prompt	n/a	cost nine according rates\n
520.393	0.1045	1040786	keystroke_c	c	n/a
520.558	0.1195	1041116	keystroke_o	o	n/a
520.6025	0.1495	1041205	keystroke_s	s	n/a
520.738	0.134	1041476	keystroke_t	t	n/a
520.962	0.1355	1041924	keystroke_Key.space	Key.space	n/a
521.5475	0.1055	1043095	keystroke_n	n	n/a
521.638	0.15	1043276	keystroke_i	i	n/a
521.743	0.135	1043486	keystroke_n	n	n/a
521.863	0.135	1043726	keystroke_e	e	n/a
521.982	0.15	1043964	keystroke_Key.space	Key.space	n/a
522.613	0.134	1045226	keystroke_a	a	n/a
523.0025	0.03	1046005	keystroke_c	c	n/a
523.708	0.1045	1047416	keystroke_c	c	n/a
523.8425	0.105	1047685	keystroke_o	o	n/a
523.9925	0.1195	1047985	keystroke_r	r	n/a
524.6675	0.075	1049335	keystroke_d	d	n/a
524.7575	0.21	1049515	keystroke_i	i	n/a
524.9525	0.1205	1049905	keystroke_n	n	n/a
525.043	0.105	1050086	keystroke_g	g	n/a
525.612	0.136	1051224	keystroke_Key.space	Key.space	n/a
525.927	0.09	1051854	keystroke_r	r	n/a
526.0325	0.1045	1052065	keystroke_a	a	n/a
526.213	0.09	1052426	keystroke_t	t	n/a
526.272	0.1505	1052544	keystroke_e	e	n/a
526.3775	0.1645	1052755	keystroke_s	s	n/a
526.6625	0.1355	1053325	keystroke_Key.enter	Key.enter	n/a
526.8095	13.3695	1053619	prompt	n/a	listed understanding jersey bibliographic\n
527.7125	0.105	1055425	keystroke_l	l	n/a
527.908	0.1495	1055816	keystroke_i	i	n/a
527.9825	0.165	1055965	keystroke_s	s	n/a
528.1325	0.1195	1056265	keystroke_t	t	n/a
528.2825	0.1355	1056565	keystroke_e	e	n/a
528.478	0.15	1056956	keystroke_d	d	n/a
528.672	0.106	1057344	keystroke_Key.space	Key.space	n/a
529.077	0.165	1058154	keystroke_u	u	n/a
529.167	0.09	1058334	keystroke_n	n	n/a
529.722	0.0155	1059444	keystroke_d	d	n/a
529.8425	0.075	1059685	keystroke_e	e	n/a
530.0075	0.12	1060015	keystroke_r	r	n/a
530.3075	0.12	1060615	keystroke_s	s	n/a
530.4585	0.104	1060917	keystroke_t	t	n/a
530.6375	0.106	1061275	keystroke_a	a	n/a
530.8175	0.135	1061635	keystroke_n	n	n/a
530.9825	0.1195	1061965	keystroke_d	d	n/a
531.2825	0.18	1062565	keystroke_i	i	n/a
531.4775	0.1205	1062955	keystroke_n	n	n/a
531.5525	0.09	1063105	keystroke_g	g	n/a
531.8075	0.1515	1063615	keystroke_Key.space	Key.space	n/a
532.827	0.1355	1065654	keystroke_j	j	n/a
532.903	0.164	1065806	keystroke_e	e	n/a
532.992	0.12	1065984	keystroke_r	r	n/a
533.217	0.1365	1066434	keystroke_s	s	n/a
533.3975	0.1495	1066795	keystroke_e	e	n/a
533.8175	0.12	1067635	keystroke_y	y	n/a
534.7775	0.135	1069555	keystroke_Key.space	Key.space	n/a
535.617	0.1055	1071234	keystroke_b	b	n/a
535.693	0.1345	1071386	keystroke_i	i	n/a
535.812	0.1505	1071624	keystroke_b	b	n/a
536.0075	0.15	1072015	keystroke_l	l	n/a
536.7275	0.21	1073455	keystroke_i	i	n/a
536.8175	0.165	1073635	keystroke_o	o	n/a
538.077	0.135	1076154	keystroke_g	g	n/a
538.243	0.1345	1076486	keystroke_r	r	n/a
538.467	0.105	1076934	keystroke_a	a	n/a
539.187	0.12	1078374	keystroke_p	p	n/a
539.487	0.0905	1078974	keystroke_h	h	n/a
539.592	0.09	1079184	keystroke_i	i	n/a
539.697	0.1205	1079394	keystroke_c	c	n/a
540.0275	0.1495	1080055	keystroke_Key.enter	Key.enter	n/a
540.1825	10.0465	1080365	prompt	n/a	rebates affairs duplicate monster\n
540.8225	0.105	1081645	keystroke_r	r	n/a
540.8665	0.1355	1081733	keystroke_e	e	n/a
541.2415	0.09	1082483	keystroke_b	b	n/a
541.287	0.0595	1082574	keystroke_a	a	n/a
541.482	0.0605	1082964	keystroke_t	t	n/a
541.5275	0.1645	1083055	keystroke_e	e	n/a
541.677	0.18	1083354	keystroke_s	s	n/a
541.947	0.1355	1083894	keystroke_Key.space	Key.space	n/a
542.337	0.09	1084674	keystroke_a	a	n/a
542.6375	0.0595	1085275	keystroke_f	f	n/a
542.802	0.075	1085604	keystroke_f	f	n/a
542.922	0.105	1085844	keystroke_a	a	n/a
543.178	0.134	1086356	keystroke_i	i	n/a
543.3425	0.12	1086685	keystroke_r	r	n/a
543.5075	0.165	1087015	keystroke_s	s	n/a
543.777	0.1505	1087554	keystroke_Key.space	Key.space	n/a
545.052	0.181	1090104	keystroke_d	d	n/a
545.247	0.09	1090494	keystroke_u	u	n/a
545.6675	0.09	1091335	keystroke_p	p	n/a
545.8475	0.09	1091695	keystroke_l	l	n/a
545.9975	0.165	1091995	keystroke_i	i	n/a
546.0725	0.105	1092145	keystroke_c	c	n/a
546.1925	0.075	1092385	keystroke_a	a	n/a
546.3875	0.104	1092775	keystroke_t	t	n/a
546.4765	0.151	1092953	keystroke_e	e	n/a
546.867	0.135	1093734	keystroke_Key.space	Key.space	n/a
547.4225	0.135	1094845	keystroke_m	m	n/a
547.5125	0.18	1095025	keystroke_o	o	n/a
547.7075	0.135	1095415	keystroke_n	n	n/a
547.9915	0.151	1095983	keystroke_s	s	n/a
548.1565	0.135	1096313	keystroke_t	t	n/a
548.2615	0.09	1096523	keystroke_r	r	n/a
548.3225	0.104	1096645	keystroke_e	e	n/a
549.192	0.0745	1098384	keystroke_Key.backspace	Key.backspace	n/a
549.3415	0.09	1098683	keystroke_Key.backspace	Key.backspace	n/a
549.507	0.1525	1099014	keystroke_e	e	n/a
549.582	0.1505	1099164	keystroke_r	r	n/a
550.122	0.1045	1100244	keystroke_Key.enter	Key.enter	n/a
550.236	14.033	1100472	prompt	n/a	encourage test azerbaijan rentals\n
551.4725	0.1205	1102945	keystroke_e	e	n/a
551.7125	0.135	1103425	keystroke_c	c	n/a
552.732	0.135	1105464	keystroke_Key.backspace	Key.backspace	n/a
552.837	0.12	1105674	keystroke_n	n	n/a
553.363	0.134	1106726	keystroke_c	c	n/a
553.4675	0.119	1106935	keystroke_o	o	n/a
553.722	0.106	1107444	keystroke_u	u	n/a
553.812	0.211	1107624	keystroke_r	r	n/a
554.067	0.1655	1108134	keystroke_a	a	n/a
554.4275	0.1345	1108855	keystroke_g	g	n/a
554.5175	0.135	1109035	keystroke_e	e	n/a
555.222	0.0895	1110444	keystroke_Key.space	Key.space	n/a
555.687	0.12	1111374	keystroke_t	t	n/a
555.867	0.0455	1111734	keystroke_e	e	n/a
555.8825	0.045	1111765	keystroke_r	r	n/a
555.898	0.149	1111796	keystroke_s	s	n/a
556.017	0.1505	1112034	keystroke_t	t	n/a
556.9175	0.09	1113835	keystroke_Key.backspace	Key.backspace	n/a
557.0825	0.06	1114165	keystroke_Key.backspace	Key.backspace	n/a
557.2325	0.06	1114465	keystroke_Key.backspace	Key.backspace	n/a
557.6975	0.1195	1115395	keystroke_s	s	n/a
557.772	0.1355	1115544	keystroke_t	t	n/a
558.012	0.135	1116024	keystroke_Key.space	Key.space	n/a
558.793	0.104	1117586	keystroke_a	a	n/a
558.987	0.105	1117974	keystroke_z	z	n/a
559.212	0.1505	1118424	keystroke_e	e	n/a
559.3025	0.135	1118605	keystroke_r	r	n/a
560.2025	0.12	1120405	keystroke_b	b	n/a
560.3075	0.105	1120615	keystroke_a	a	n/a
560.5325	0.1495	1121065	keystroke_i	i	n/a
561.3725	0.105	1122745	keystroke_j	j	n/a
561.4175	0.075	1122835	keystroke_a	a	n/a
561.5825	0.135	1123165	keystroke_n	n	n/a
562.3175	0.12	1124635	keystroke_Key.space	Key.space	n/a
562.497	0.12	1124994	keystroke_r	r	n/a
562.542	0.15	1125084	keystroke_e	e	n/a
562.722	0.135	1125444	keystroke_n	n	n/a
562.8875	0.09	1125775	keystroke_t	t	n/a
563.0675	0.0895	1126135	keystroke_a	a	n/a
563.292	0.15	1126584	keystroke_l	l	n/a
563.412	0.1195	1126824	keystroke_s	s	n/a
564.1475	0.12	1128295	keystroke_Key.enter	Key.enter	n/a
564.275	14.109	1128550	prompt	n/a	fair prairie marriage isolated\n
565.2575	0.09	1130515	keystroke_f	f	n/a
565.3775	0.105	1130755	keystroke_a	a	n/a
565.5125	0.135	1131025	keystroke_i	i	n/a
565.632	0.1055	1131264	keystroke_r	r	n/a
566.352	0.12	1132704	keystroke_Key.space	Key.space	n/a
566.6825	0.12	1133365	keystroke_p	p	n/a
566.772	0.0905	1133544	keystroke_r	r	n/a
566.8775	0.105	1133755	keystroke_a	a	n/a
566.9975	0.15	1133995	keystroke_i	i	n/a
567.1175	0.12	1134235	keystroke_r	r	n/a
568.1375	0.0895	1136275	keystroke_i	i	n/a
568.2725	0.105	1136545	keystroke_e	e	n/a
569.8325	0.0445	1139665	keystroke_Key.space	Key.space	n/a
571.3175	0.1195	1142635	keystroke_m	m	n/a
571.3925	0.12	1142785	keystroke_a	a	n/a
572.8925	0.105	1145785	keystroke_r	r	n/a
573.012	0.1205	1146024	keystroke_i	i	n/a
573.1325	0.1195	1146265	keystroke_a	a	n/a
573.627	0.0605	1147254	keystroke_Key.backspace	Key.backspace	n/a
574.3915	0.09	1148783	keystroke_r	r	n/a
574.9925	0.045	1149985	keystroke_Key.backspace	Key.backspace	n/a
575.0825	0.12	1150165	keystroke_Key.backspace	Key.backspace	n/a
575.2625	0.135	1150525	keystroke_r	r	n/a
575.817	0.12	1151634	keystroke_i	i	n/a
575.862	0.1055	1151724	keystroke_a	a	n/a
576.072	0.09	1152144	keystroke_g	g	n/a
576.1475	0.1355	1152295	keystroke_e	e	n/a
576.6725	0.12	1153345	keystroke_Key.space	Key.space	n/a
577.0775	0.12	1154155	keystroke_i	i	n/a
577.1225	0.135	1154245	keystroke_s	s	n/a
577.287	0.1205	1154574	keystroke_l	l	n/a
577.4825	0.15	1154965	keystroke_o	o	n/a
577.572	0.1055	1155144	keystroke_a	a	n/a
577.7225	0.1195	1155445	keystroke_t	t	n/a
577.843	0.1345	1155686	keystroke_e	e	n/a
578.0375	0.15	1156075	keystroke_d	d	n/a
578.247	0.135	1156494	keystroke_Key.enter	Key.enter	n/a
578.3885	11.4705	1156777	prompt	n/a	population devon signal parliament\n
579.358	0.09	1158716	keystroke_p	p	n/a
579.537	0.0755	1159074	keystroke_o	o	n/a
579.6875	0.12	1159375	keystroke_p	p	n/a
580.122	0.09	1160244	keystroke_u	u	n/a
580.348	0.1495	1160696	keystroke_l	l	n/a
580.4225	0.105	1160845	keystroke_a	a	n/a
580.6775	0.12	1161355	keystroke_t	t	n/a
580.8875	0.165	1161775	keystroke_i	i	n/a
580.9625	0.18	1161925	keystroke_o	o	n/a
581.083	0.1645	1162166	keystroke_n	n	n/a
581.337	0.151	1162674	keystroke_Key.space	Key.space	n/a
581.8775	0.105	1163755	keystroke_d	d	n/a
582.0725	0.09	1164145	keystroke_e	e	n/a
582.4775	0.12	1164955	keystroke_o	o	n/a
582.927	0.1055	1165854	keystroke_Key.backspace	Key.backspace	n/a
583.1075	0.135	1166215	keystroke_v	v	n/a
583.287	0.12	1166574	keystroke_o	o	n/a
583.6175	0.1195	1167235	keystroke_n	n	n/a
583.857	0.1205	1167714	keystroke_Key.space	Key.space	n/a
584.203	0.1495	1168406	keystroke_s	s	n/a
584.5475	0.105	1169095	keystroke_i	i	n/a
584.6675	0.105	1169335	keystroke_g	g	n/a
584.788	0.104	1169576	keystroke_n	n	n/a
584.908	0.1195	1169816	keystroke_a	a	n/a
585.073	0.15	1170146	keystroke_l	l	n/a
585.522	0.1205	1171044	keystroke_Key.space	Key.space	n/a
586.017	0.0905	1172034	keystroke_p	p	n/a
586.077	0.1505	1172154	keystroke_a	a	n/a
586.4375	0.09	1172875	keystroke_r	r	n/a
586.588	0.15	1173176	keystroke_l	l	n/a
586.7075	0.1045	1173415	keystroke_a	a	n/a
587.128	0.089	1174256	keystroke_i	i	n/a
587.5475	0.06	1175095	keystroke_Key.backspace	Key.backspace	n/a
587.682	0.1205	1175364	keystroke_Key.backspace	Key.backspace	n/a
588.3425	0.1355	1176685	keystroke_i	i	n/a
588.418	0.1195	1176836	keystroke_a	a	n/a
588.523	0.1345	1177046	keystroke_m	m	n/a
588.717	0.1055	1177434	keystroke_e	e	n/a
588.777	0.1355	1177554	keystroke_n	n	n/a
589.287	0.1205	1178574	keystroke_t	t	n/a
589.7225	0.135	1179445	keystroke_Key.enter	Key.enter	n/a
589.8675	7.5095	1179735	prompt	n/a	driving energy geographical suffering\n
590.5475	0.09	1181095	keystroke_d	d	n/a
590.7275	0.12	1181455	keystroke_r	r	n/a
590.8175	0.15	1181635	keystroke_i	i	n/a
591.552	0.105	1183104	keystroke_v	v	n/a
591.6425	0.21	1183285	keystroke_i	i	n/a
591.7625	0.15	1183525	keystroke_n	n	n/a
591.8375	0.12	1183675	keystroke_g	g	n/a
592.0175	0.1205	1184035	keystroke_Key.space	Key.space	n/a
592.2725	0.1205	1184545	keystroke_e	e	n/a
592.438	0.134	1184876	keystroke_n	n	n/a
592.602	0.226	1185204	keystroke_e	e	n/a
592.797	0.1505	1185594	keystroke_r	r	n/a
593.053	0.0895	1186106	keystroke_g	g	n/a
593.2475	0.09	1186495	keystroke_y	y	n/a
593.622	0.1355	1187244	keystroke_Key.space	Key.space	n/a
594.3425	0.075	1188685	keystroke_g	g	n/a
594.4625	0.1355	1188925	keystroke_e	e	n/a
594.6725	0.12	1189345	keystroke_o	o	n/a
595.0775	0.0895	1190155	keystroke_g	g	n/a
595.3025	0.1055	1190605	keystroke_r	r	n/a
595.467	0.076	1190934	keystroke_a	a	n/a
595.8725	0.1055	1191745	keystroke_p	p	n/a
596.1725	0.09	1192345	keystroke_h	h	n/a
596.2475	0.121	1192495	keystroke_i	i	n/a
596.4125	0.105	1192825	keystroke_c	c	n/a
596.5475	0.1195	1193095	keystroke_a	a	n/a
596.7725	0.12	1193545	keystroke_l	l	n/a
597.2525	0.1205	1194505	keystroke_Key.enter	Key.enter	n/a
597.385	12.8465	1194770	prompt	n/a	beginners syracuse twenty louis\n
598.5275	0.03	1197055	keystroke_b	b	n/a
598.5585	0.074	1197117	keystroke_e	e	n/a
598.8875	0.105	1197775	keystroke_g	g	n/a
599.413	0.1195	1198826	keystroke_i	i	n/a
599.683	0.0745	1199366	keystroke_n	n	n/a
599.8175	0.12	1199635	keystroke_n	n	n/a
599.9075	0.12	1199815	keystroke_e	e	n/a
600.328	0.135	1200656	keystroke_r	r	n/a
600.507	0.136	1201014	keystroke_s	s	n/a
600.703	0.1195	1201406	keystroke_Key.space	Key.space	n/a
601.078	0.12	1202156	keystroke_s	s	n/a
601.5725	0.135	1203145	keystroke_y	y	n/a
601.7085	0.104	1203417	keystroke_r	r	n/a
601.8575	0.1195	1203715	keystroke_a	a	n/a
602.143	0.0595	1204286	keystroke_c	c	n/a
602.1875	0.06	1204375	keystroke_e	e	n/a
602.7125	0.135	1205425	keystroke_Key.backspace	Key.backspace	n/a
603.298	0.1195	1206596	keystroke_u	u	n/a
603.3425	0.135	1206685	keystroke_s	s	n/a
603.4325	0.15	1206865	keystroke_e	e	n/a
603.643	0.1345	1207286	keystroke_Key.space	Key.space	n/a
604.0175	0.136	1208035	keystroke_t	t	n/a
604.393	0.1495	1208786	keystroke_w	w	n/a
604.6925	0.12	1209385	keystroke_e	e	n/a
605.128	0.1045	1210256	keystroke_n	n	n/a
605.878	0.0905	1211756	keystroke_t	t	n/a
606.0275	0.105	1212055	keystroke_y	y	n/a
606.283	0.1195	1212566	keystroke_Key.space	Key.space	n/a
606.7775	0.12	1213555	keystroke_l	l	n/a
608.1125	0.225	1216225	keystroke_o	o	n/a
608.1875	0.165	1216375	keystroke_i	i	n/a
608.6075	0.0895	1217215	keystroke_Key.backspace	Key.backspace	n/a
609.463	0.18	1218926	keystroke_u	u	n/a
609.552	0.1655	1219104	keystroke_i	i	n/a
609.777	0.1805	1219554	keystroke_s	s	n/a
610.107	0.12	1220214	keystroke_Key.enter	Key.enter	n/a
610.235	9.8945	1220470	prompt	n/a	employ navigator awarded atom\n
611.0225	0.135	1222045	keystroke_e	e	n/a
611.1125	0.135	1222225	keystroke_m	m	n/a
611.3675	0.135	1222735	keystroke_p	p	n/a
611.548	0.15	1223096	keystroke_l	l	n/a
611.772	0.15	1223544	keystroke_o	o	n/a
612.1935	0.104	1224387	keystroke_y	y	n/a
612.4325	0.135	1224865	keystroke_Key.space	Key.space	n/a
613.3625	0.105	1226725	keystroke_b	b	n/a
613.618	0.104	1227236	keystroke_Key.backspace	Key.backspace	n/a
613.752	0.0905	1227504	keystroke_n	n	n/a
614.382	0.105	1228764	keystroke_a	a	n/a
614.6225	0.105	1229245	keystroke_v	v	n/a
615.3575	0.135	1230715	keystroke_i	i	n/a
615.5225	0.09	1231045	keystroke_g	g	n/a
615.6725	0.075	1231345	keystroke_a	a	n/a
615.8225	0.1205	1231645	keystroke_t	t	n/a
615.957	0.151	1231914	keystroke_o	o	n/a
616.048	0.12	1232096	keystroke_r	r	n/a
616.738	0.119	1233476	keystroke_Key.space	Key.space	n/a
616.9775	0.1495	1233955	keystroke_a	a	n/a
617.1125	0.165	1234225	keystroke_w	w	n/a
617.2475	0.195	1234495	keystroke_a	a	n/a
617.6225	0.12	1235245	keystroke_r	r	n/a
617.8625	0.075	1235725	keystroke_d	d	n/a
618.0425	0.105	1236085	keystroke_e	e	n/a
618.2375	0.1505	1236475	keystroke_d	d	n/a
618.4175	0.165	1236835	keystroke_Key.space	Key.space	n/a
618.883	0.1345	1237766	keystroke_a	a	n/a
619.1675	0.105	1238335	keystroke_t	t	n/a
619.258	0.1045	1238516	keystroke_o	o	n/a
619.452	0.15	1238904	keystroke_m	m	n/a
620.0075	0.1195	1240015	keystroke_Key.enter	Key.enter	n/a
620.136	14.6775	1240272	prompt	n/a	bottles disputes warriors trader\n
621.0875	0.105	1242175	keystroke_b	b	n/a
621.3575	0.0895	1242715	keystroke_o	o	n/a
621.478	0.075	1242956	keystroke_t	t	n/a
621.6425	0.1355	1243285	keystroke_t	t	n/a
621.793	0.1345	1243586	keystroke_l	l	n/a
621.867	0.15	1243734	keystroke_e	e	n/a
622.0325	0.1505	1244065	keystroke_s	s	n/a
623.2325	0.135	1246465	keystroke_Key.space	Key.space	n/a
623.4425	0.1645	1246885	keystroke_d	d	n/a
623.683	0.0895	1247366	keystroke_i	i	n/a
623.757	0.1205	1247514	keystroke_s	s	n/a
623.953	0.1495	1247906	keystroke_p	p	n/a
624.342	0.121	1248684	keystroke_u	u	n/a
624.464	0.104	1248928	keystroke_t	t	n/a
624.583	0.15	1249166	keystroke_e	e	n/a
624.688	0.18	1249376	keystroke_s	s	n/a
624.9875	0.12	1249975	keystroke_Key.space	Key.space	n/a
625.4825	0.105	1250965	keystroke_w	w	n/a
625.528	0.1645	1251056	keystroke_a	a	n/a
626.337	0.0905	1252674	keystroke_r	r	n/a
626.548	0.1205	1253096	keystroke_r	r	n/a
628.5425	0.195	1257085	keystroke_i	i	n/a
628.6025	0.18	1257205	keystroke_o	o	n/a
628.6775	0.149	1257355	keystroke_s	s	n/a
628.9475	0.1355	1257895	keystroke_Key.space	Key.space	n/a
630.882	0.046	1261764	keystroke_r	r	n/a
631.7825	0.045	1263565	keystroke_Key.backspace	Key.backspace	n/a
631.9025	0.075	1263805	keystroke_Key.backspace	Key.backspace	n/a
632.052	0.061	1264104	keystroke_Key.backspace	Key.backspace	n/a
632.8175	0.12	1265635	keystroke_r	r	n/a
632.922	0.1655	1265844	keystroke_s	s	n/a
633.073	0.149	1266146	keystroke_Key.space	Key.space	n/a
633.7325	0.12	1267465	keystroke_t	t	n/a
633.8075	0.15	1267615	keystroke_r	r	n/a
634.0325	0.119	1268065	keystroke_a	a	n/a
634.1375	0.1345	1268275	keystroke_d	d	n/a
634.377	0.136	1268754	keystroke_e	e	n/a
634.572	0.121	1269144	keystroke_r	r	n/a
634.663	0.149	1269326	keystroke_Key.enter	Key.enter	n/a
634.8165	8.2175	1269633	prompt	n/a	charles counts possess need\n
635.5475	0.12	1271095	keystroke_c	c	n/a
635.7275	0.105	1271455	keystroke_h	h	n/a
635.8175	0.1065	1271635	keystroke_r	r	n/a
635.938	0.12	1271876	keystroke_a	a	n/a
636.2525	0.075	1272505	keystroke_Key.backspace	Key.backspace	n/a
636.402	0.1205	1272804	keystroke_Key.backspace	Key.backspace	n/a
636.853	0.134	1273706	keystroke_a	a	n/a
636.972	0.1055	1273944	keystroke_r	r	n/a
637.4375	0.165	1274875	keystroke_l	l	n/a
637.5125	0.105	1275025	keystroke_e	e	n/a
637.5875	0.135	1275175	keystroke_s	s	n/a
637.7525	0.12	1275505	keystroke_Key.space	Key.space	n/a
638.0975	0.12	1276195	keystroke_c	c	n/a
638.2475	0.075	1276495	keystroke_o	o	n/a
638.5325	0.2095	1277065	keystroke_u	u	n/a
638.6525	0.135	1277305	keystroke_n	n	n/a
638.6825	0.135	1277365	keystroke_t	t	n/a
638.8025	0.18	1277605	keystroke_s	s	n/a
638.9675	0.1495	1277935	keystroke_Key.space	Key.space	n/a
639.658	0.104	1279316	keystroke_p	p	n/a
639.8225	0.135	1279645	keystroke_o	o	n/a
640.6475	0.135	1281295	keystroke_s	s	n/a
640.887	0.0755	1281774	keystroke_s	s	n/a
641.2025	0.15	1282405	keystroke_e	e	n/a
641.5025	0.075	1283005	keystroke_s	s	n/a
641.6825	0.105	1283365	keystroke_s	s	n/a
641.8175	0.135	1283635	keystroke_Key.space	Key.space	n/a
642.4325	0.1045	1284865	keystroke_n	n	n/a
642.5225	0.045	1285045	keystroke_e	e	n/a
642.6425	0.1195	1285285	keystroke_e	e	n/a
642.837	0.1055	1285674	keystroke_d	d	n/a
642.9275	0.1045	1285855	keystroke_Key.enter	Key.enter	n/a
643.037	11.907	1286074	prompt	n/a	elect changelog mistakes luxembourg\n
643.917	0.0905	1287834	keystroke_e	e	n/a
644.052	0.1355	1288104	keystroke_l	l	n/a
644.1125	0.105	1288225	keystroke_e	e	n/a
644.3225	0.09	1288645	keystroke_c	c	n/a
644.518	0.1045	1289036	keystroke_t	t	n/a
644.7725	0.12	1289545	keystroke_Key.space	Key.space	n/a
645.177	0.12	1290354	keystroke_c	c	n/a
645.298	0.089	1290596	keystroke_h	h	n/a
645.342	0.0905	1290684	keystroke_a	a	n/a
645.4925	0.15	1290985	keystroke_n	n	n/a
645.7325	0.1195	1291465	keystroke_g	g	n/a
645.853	0.1195	1291706	keystroke_e	e	n/a
646.122	0.075	1292244	keystroke_l	l	n/a
646.287	0.135	1292574	keystroke_o	o	n/a
646.377	0.09	1292754	keystroke_d	d	n/a
646.708	0.059	1293416	keystroke_g	g	n/a
646.827	0.15	1293654	keystroke_Key.backspace	Key.backspace	n/a
647.098	0.0895	1294196	keystroke_Key.backspace	Key.backspace	n/a
647.2325	0.105	1294465	keystroke_g	g	n/a
647.4275	0.104	1294855	keystroke_Key.space	Key.space	n/a
648.387	0.1355	1296774	keystroke_m	m	n/a
648.462	0.1355	1296924	keystroke_i	i	n/a
648.523	0.149	1297046	keystroke_s	s	n/a
648.7025	0.12	1297405	keystroke_t	t	n/a
648.8825	0.105	1297765	keystroke_a	a	n/a
649.137	0.15	1298274	keystroke_k	k	n/a
649.2425	0.1195	1298485	keystroke_e	e	n/a
649.392	0.15	1298784	keystroke_s	s	n/a
649.6315	0.121	1299263	keystroke_Key.space	Key.space	n/a
650.1275	0.135	1300255	keystroke_l	l	n/a
650.772	0.1505	1301544	keystroke_u	u	n/a
651.0425	0.0895	1302085	keystroke_x	x	n/a
651.177	0.1355	1302354	keystroke_e	e	n/a
651.2975	0.135	1302595	keystroke_m	m	n/a
651.6575	0.105	1303315	keystroke_b	b	n/a
652.8125	0.09	1305625	keystroke_o	o	n/a
