onset	duration	sample	value	key	prompt_text
7.165	8.858	14330	prompt	n/a	the quick brown fox jumps over a lazy dog\n
8.7325	0.013	17465	keystroke_t	t	n/a
8.8055	0.09	17611	keystroke_h	h	n/a
8.9405	0.105	17881	keystroke_e	e	n/a
9.0605	0.12	18121	keystroke_Key.space	Key.space	n/a
9.1955	0.12	18391	keystroke_q	q	n/a
9.3305	0.1055	18661	keystroke_u	u	n/a
9.391	0.105	18782	keystroke_i	i	n/a
9.556	0.105	19112	keystroke_c	c	n/a
9.646	0.165	19292	keystroke_k	k	n/a
9.766	0.06	19532	keystroke_Key.space	Key.space	n/a
9.871	0.09	19742	keystroke_b	b	n/a
9.976	0.104	19952	keystroke_r	r	n/a
10.11	0.0905	20220	keystroke_o	o	n/a
10.1705	0.1355	20341	keystroke_w	w	n/a
10.291	0.12	20582	keystroke_n	n	n/a
10.381	0.12	20762	keystroke_Key.space	Key.space	n/a
10.591	0.105	21182	keystroke_d	d	n/a
10.741	0.105	21482	keystroke_o	o	n/a
11.161	0.03	22322	keystroke_Key.backspace	Key.backspace	n/a
11.281	0.06	22562	keystroke_Key.backspace	Key.backspace	n/a
11.536	0.06	23072	keystroke_f	f	n/a
11.656	0.12	23312	keystroke_o	o	n/a
11.821	0.075	23642	keystroke_x	x	n/a
11.881	0.105	23762	keystroke_Key.space	Key.space	n/a
12.001	0.075	24002	keystroke_j	j	n/a
12.151	0.06	24302	keystroke_u	u	n/a
12.316	0.135	24632	keystroke_m	m	n/a
12.436	0.165	24872	keystroke_p	p	n/a
12.661	0.135	25322	keystroke_s	s	n/a
12.811	0.105	25622	keystroke_Key.space	Key.space	n/a
13.006	0.09	26012	keystroke_o	o	n/a
13.081	0.06	26162	keystroke_v	v	n/a
13.276	0.149	26552	keystroke_e	e	n/a
13.366	0.15	26732	keystroke_r	r	n/a
13.455	0.105	26910	keystroke_Key.space	Key.space	n/a
13.576	0.1045	27152	keystroke_a	a	n/a
13.6655	0.06	27331	keystroke_Key.space	Key.space	n/a
13.801	0.12	27602	keystroke_l	l	n/a
13.891	0.06	27782	keystroke_a	a	n/a
14.101	0.12	28202	keystroke_z	z	n/a
14.236	0.089	28472	keystroke_y	y	n/a
14.31	0.0905	28620	keystroke_Key.space	Key.space	n/a
14.865	0.03	29730	keystroke_g	g	n/a
15.1505	0.09	30301	keystroke_Key.backspace	Key.backspace	n/a
15.3305	0.075	30661	keystroke_d	d	n/a
15.4355	0.1055	30871	keystroke_o	o	n/a
15.556	0.06	31112	keystroke_g	g	n/a
15.975	0.046	31950	keystroke_Key.enter	Key.enter	n/a
16.0345	6.498	32069	prompt	n/a	kinda aruba known resources\n
16.741	0.06	33482	keystroke_k	k	n/a
16.921	0.135	33842	keystroke_i	i	n/a
17.011	0.12	34022	keystroke_n	n	n/a
17.131	0.15	34262	keystroke_d	d	n/a
17.236	0.12	34472	keystroke_a	a	n/a
17.311	0.105	34622	keystroke_Key.space	Key.space	n/a
17.461	0.105	34922	keystroke_a	a	n/a
17.626	0.105	35252	keystroke_r	r	n/a
17.731	0.21	35462	keystroke_u	u	n/a
17.866	0.12	35732	keystroke_b	b	n/a
18.046	0.09	36092	keystroke_a	a	n/a
18.166	0.06	36332	keystroke_Key.space	Key.space	n/a
19.711	0.21	39422	keystroke_k	k	n/a
19.831	0.21	39662	keystroke_n	n	n/a
19.966	0.18	39932	keystroke_o	o	n/a
20.161	0.104	40322	keystroke_w	w	n/a
20.356	0.195	40712	keystroke_n	n	n/a
20.505	0.12	41010	keystroke_Key.space	Key.space	n/a
20.911	0.179	41822	keystroke_r	r	n/a
21	0.21	42000	keystroke_e	e	n/a
21.136	0.149	42272	keystroke_s	s	n/a
21.255	0.1655	42510	keystroke_o	o	n/a
21.376	0.1945	42752	keystroke_u	u	n/a
21.5255	0.09	43051	keystroke_r	r	n/a
21.78	0.12	43560	keystroke_c	c	n/a
22.021	0.18	44042	keystroke_e	e	n/a
22.141	0.1205	44282	keystroke_s	s	n/a
22.471	0.06	44942	keystroke_Key.enter	Key.enter	n/a
22.535	7.294	45070	prompt	n/a	learn george wine calculators\n
23.251	0.12	46502	keystroke_l	l	n/a
23.386	0.315	46772	keystroke_e	e	n/a
23.491	0.285	46982	keystroke_a	a	n/a
23.791	0.12	47582	keystroke_r	r	n/a
23.926	0.18	47852	keystroke_n	n	n/a
24.046	0.105	48092	keystroke_Key.space	Key.space	n/a
25.231	0.165	50462	keystroke_g	g	n/a
25.336	0.105	50672	keystroke_e	e	n/a
25.456	0.135	50912	keystroke_o	o	n/a
25.546	0.18	51092	keystroke_r	r	n/a
25.651	0.21	51302	keystroke_g	g	n/a
25.786	0.12	51572	keystroke_e	e	n/a
25.921	0.075	51842	keystroke_Key.space	Key.space	n/a
26.026	0.105	52052	keystroke_w	w	n/a
26.101	0.165	52202	keystroke_i	i	n/a
26.191	0.15	52382	keystroke_n	n	n/a
26.386	0.075	52772	keystroke_e	e	n/a
26.536	0.06	53072	keystroke_Key.space	Key.space	n/a
27.1205	0.12	54241	keystroke_c	c	n/a
27.2255	0.09	54451	keystroke_a	a	n/a
27.3305	0.075	54661	keystroke_l	l	n/a
27.5255	0.06	55051	keystroke_u	u	n/a
28.2	0.076	56400	keystroke_Key.backspace	Key.backspace	n/a
28.366	0.105	56732	keystroke_c	c	n/a
28.501	0.135	57002	keystroke_u	u	n/a
28.741	0.12	57482	keystroke_l	l	n/a
28.816	0.09	57632	keystroke_a	a	n/a
29.0255	0.09	58051	keystroke_t	t	n/a
29.1455	0.12	58291	keystroke_o	o	n/a
29.2805	0.21	58561	keystroke_r	r	n/a
29.4005	0.136	58801	keystroke_s	s	n/a
29.7605	0.06	59521	keystroke_Key.enter	Key.enter	n/a
29.837	4.2155	59674	prompt	n/a	former moss katie location\n
30.4655	0.12	60931	keystroke_f	f	n/a
30.5705	0.09	61141	keystroke_o	o	n/a
30.7055	0.06	61411	keystroke_r	r	n/a
30.7665	0.074	61533	keystroke_m	m	n/a
30.8555	0.195	61711	keystroke_e	e	n/a
30.9905	0.15	61981	keystroke_r	r	n/a
31.1105	0.105	62221	keystroke_Key.space	Key.space	n/a
31.2755	0.18	62551	keystroke_m	m	n/a
31.411	0.1345	62822	keystroke_o	o	n/a
31.5155	0.09	63031	keystroke_s	s	n/a
31.6805	0.12	63361	keystroke_s	s	n/a
31.7555	0.09	63511	keystroke_Key.space	Key.space	n/a
31.8755	0.12	63751	keystroke_k	k	n/a
31.9355	0.105	63871	keystroke_a	a	n/a
32.1755	0.09	64351	keystroke_t	t	n/a
32.2805	0.135	64561	keystroke_i	i	n/a
32.4165	0.089	64833	keystroke_e	e	n/a
32.5955	0.045	65191	keystroke_Key.space	Key.space	n/a
32.7455	0.09	65491	keystroke_l	l	n/a
32.9255	0.12	65851	keystroke_o	o	n/a
33.0155	0.15	66031	keystroke_c	c	n/a
33.1055	0.12	66211	keystroke_a	a	n/a
33.391	0.12	66782	keystroke_t	t	n/a
33.481	0.3	66962	keystroke_i	i	n/a
33.601	0.195	67202	keystroke_o	o	n/a
33.766	0.12	67532	keystroke_n	n	n/a
33.961	0.09	67922	keystroke_Key.enter	Key.enter	n/a
34.055	8.21	68110	prompt	n/a	core statutory appointment consultation\n
34.786	0.045	69572	keystroke_c	c	n/a
34.906	0.09	69812	keystroke_o	o	n/a
35.026	0.165	70052	keystroke_r	r	n/a
35.101	0.164	70202	keystroke_e	e	n/a
35.236	0.135	70472	keystroke_Key.space	Key.space	n/a
35.341	0.135	70682	keystroke_s	s	n/a
35.506	0.12	71012	keystroke_t	t	n/a
35.686	0.09	71372	keystroke_a	a	n/a
35.851	0.09	71702	keystroke_t	t	n/a
36.0005	0.135	72001	keystroke_u	u	n/a
37.006	0.09	74012	keystroke_t	t	n/a
37.156	0.1045	74312	keystroke_o	o	n/a
37.366	0.105	74732	keystroke_r	r	n/a
37.516	0.09	75032	keystroke_y	y	n/a
37.9355	0.075	75871	keystroke_Key.space	Key.space	n/a
38.266	0.15	76532	keystroke_a	a	n/a
38.431	0.015	76862	keystroke_p	p	n/a
38.506	0.1645	77012	keystroke_p	p	n/a
38.611	0.12	77222	keystroke_o	o	n/a
38.836	0.135	77672	keystroke_i	i	n/a
38.926	0.135	77852	keystroke_n	n	n/a
39.046	0.105	78092	keystroke_t	t	n/a
39.181	0.09	78362	keystroke_m	m	n/a
39.286	0.075	78572	keystroke_e	e	n/a
39.436	0.015	78872	keystroke_n	n	n/a
39.466	0.105	78932	keystroke_t	t	n/a
39.556	0.12	79112	keystroke_Key.space	Key.space	n/a
39.9305	0.1805	79861	keystroke_c	c	n/a
40.126	0.1645	80252	keystroke_o	o	n/a
40.216	0.1195	80432	keystroke_n	n	n/a
40.3505	0.105	80701	keystroke_s	s	n/a
40.4705	0.075	80941	keystroke_u	u	n/a
40.6505	0.105	81301	keystroke_l	l	n/a
40.9355	0.09	81871	keystroke_t	t	n/a
41.1605	0.075	82321	keystroke_a	a	n/a
41.3555	0.09	82711	keystroke_t	t	n/a
41.4605	0.165	82921	keystroke_i	i	n/a
41.5355	0.21	83071	keystroke_o	o	n/a
41.6405	0.12	83281	keystroke_n	n	n/a
42.1655	0.09	84331	keystroke_Key.enter	Key.enter	n/a
42.27	9.684	84540	prompt	n/a	chamber racks affordable citation\n
42.9755	0.09	85951	keystroke_c	c	n/a
43.0665	0.059	86133	keystroke_h	h	n/a
43.1705	0.09	86341	keystroke_a	a	n/a
43.3055	0.045	86611	keystroke_m	m	n/a
43.5155	0.06	87031	keystroke_v	v	n/a
43.6205	0.225	87241	keystroke_e	e	n/a
43.8305	0.09	87661	keystroke_r	r	n/a
43.9055	0.105	87811	keystroke_Key.space	Key.space	n/a
43.9955	0.12	87991	keystroke_r	r	n/a
44.1005	0.105	88201	keystroke_a	a	n/a
44.506	0.03	89012	keystroke_Key.backspace	Key.backspace	n/a
44.656	0.06	89312	keystroke_Key.backspace	Key.backspace	n/a
44.791	0.06	89582	keystroke_Key.backspace	Key.backspace	n/a
44.941	0.06	89882	keystroke_Key.backspace	Key.backspace	n/a
45.091	0.075	90182	keystroke_Key.backspace	Key.backspace	n/a
45.271	0.06	90542	keystroke_Key.backspace	Key.backspace	n/a
45.886	0.075	91772	keystroke_b	b	n/a
46.021	0.15	92042	keystroke_e	e	n/a
46.081	0.135	92162	keystroke_r	r	n/a
46.231	0.1795	92462	keystroke_Key.space	Key.space	n/a
46.3955	0.045	92791	keystroke_r	r	n/a
46.4555	0.06	92911	keystroke_a	a	n/a
46.8305	0.09	93661	keystroke_c	c	n/a
47.0705	0.105	94141	keystroke_k	k	n/a
47.1605	0.12	94321	keystroke_s	s	n/a
47.2955	0.09	94591	keystroke_Key.space	Key.space	n/a
47.4305	0.105	94861	keystroke_a	a	n/a
48.1505	0.03	96301	keystroke_d	d	n/a
48.496	0.075	96992	keystroke_Key.backspace	Key.backspace	n/a
48.676	0.045	97352	keystroke_f	f	n/a
48.796	0.09	97592	keystroke_f	f	n/a
48.931	0.12	97862	keystroke_o	o	n/a
49.021	0.105	98042	keystroke_r	r	n/a
49.291	0.195	98582	keystroke_d	d	n/a
49.411	0.15	98822	keystroke_a	a	n/a
49.861	0.075	99722	keystroke_b	b	n/a
49.876	0.15	99752	keystroke_l	l	n/a
50.101	0.09	100202	keystroke_e	e	n/a
50.206	0.075	100412	keystroke_Key.space	Key.space	n/a
50.431	0.09	100862	keystroke_c	c	n/a
50.596	0.06	101192	keystroke_i	i	n/a
50.746	0.09	101492	keystroke_t	t	n/a
50.9415	0.089	101883	keystroke_a	a	n/a
51.1655	0.075	102331	keystroke_t	t	n/a
51.2555	0.18	102511	keystroke_i	i	n/a
51.3455	0.15	102691	keystroke_o	o	n/a
51.4365	0.149	102873	keystroke_n	n	n/a
51.8555	0.09	103711	keystroke_Key.enter	Key.enter	n/a
51.958	5.5995	103916	prompt	n/a	herb fork types complications\n
52.8455	0.09	105691	keystroke_h	h	n/a
52.9655	0.165	105931	keystroke_e	e	n/a
53.0855	0.135	106171	keystroke_r	r	n/a
53.1755	0.15	106351	keystroke_b	b	n/a
53.2655	0.135	106531	keystroke_Key.space	Key.space	n/a
53.4155	0.06	106831	keystroke_f	f	n/a
53.4765	0.089	106953	keystroke_o	o	n/a
53.5805	0.15	107161	keystroke_r	r	n/a
53.8805	0.15	107761	keystroke_k	k	n/a
53.9855	0.105	107971	keystroke_Key.space	Key.space	n/a
54.3155	0.075	108631	keystroke_t	t	n/a
54.5105	0.06	109021	keystroke_y	y	n/a
54.6155	0.045	109231	keystroke_p	p	n/a
54.9605	0.195	109921	keystroke_e	e	n/a
55.0955	0.135	110191	keystroke_s	s	n/a
55.3205	0.12	110641	keystroke_Key.space	Key.space	n/a
55.5905	0.15	111181	keystroke_c	c	n/a
55.6955	0.21	111391	keystroke_o	o	n/a
55.8605	0.165	111721	keystroke_m	m	n/a
55.9805	0.195	111961	keystroke_p	p	n/a
56.1155	0.135	112231	keystroke_l	l	n/a
56.371	0.09	112742	keystroke_i	i	n/a
56.431	0.18	112862	keystroke_c	c	n/a
56.566	0.06	113132	keystroke_a	a	n/a
56.821	0.135	113642	keystroke_t	t	n/a
56.941	0.225	113882	keystroke_i	i	n/a
57.046	0.195	114092	keystroke_o	o	n/a
57.181	0.12	114362	keystroke_n	n	n/a
57.316	0.105	114632	keystroke_s	s	n/a
57.466	0.09	114932	keystroke_Key.enter	Key.enter	n/a
57.563	5.3495	115126	prompt	n/a	blake i've component several\n
58.2605	0.195	116521	keystroke_b	b	n/a
58.4105	0.165	116821	keystroke_l	l	n/a
58.5155	0.195	117031	keystroke_a	a	n/a
58.7255	0.045	117451	keystroke_k	k	n/a
58.7555	0.12	117511	keystroke_e	e	n/a
58.8605	0.09	117721	keystroke_Key.space	Key.space	n/a
58.9955	0.12	117991	keystroke_i	i	n/a
59.1005	0.135	118201	keystroke_'	'	n/a
59.2205	0.18	118441	keystroke_v	v	n/a
59.3555	0.12	118711	keystroke_e	e	n/a
59.5505	0.06	119101	keystroke_Key.space	Key.space	n/a
59.8655	0.135	119731	keystroke_c	c	n/a
59.9405	0.12	119881	keystroke_o	o	n/a
60.0155	0.15	120031	keystroke_m	m	n/a
60.1205	0.195	120241	keystroke_p	p	n/a
60.2405	0.21	120481	keystroke_o	o	n/a
60.4355	0.12	120871	keystroke_n	n	n/a
60.5405	0.075	121081	keystroke_e	e	n/a
60.6455	0.135	121291	keystroke_n	n	n/a
60.8405	0.105	121681	keystroke_t	t	n/a
60.9605	0.15	121921	keystroke_Key.space	Key.space	n/a
61.0955	0.15	122191	keystroke_s	s	n/a
61.2305	0.135	122461	keystroke_e	e	n/a
61.4855	0.15	122971	keystroke_v	v	n/a
61.5755	0.195	123151	keystroke_e	e	n/a
61.7105	0.135	123421	keystroke_r	r	n/a
61.9505	0.12	123901	keystroke_a	a	n/a
62.1305	0.105	124261	keystroke_l	l	n/a
62.7905	0.12	125581	keystroke_Key.enter	Key.enter	n/a
62.916	8.568	125832	prompt	n/a	biological understanding surgery potter\n
63.8255	0.12	127651	keystroke_b	b	n/a
64.4555	0.15	128911	keystroke_i	i	n/a
64.5305	0.105	129061	keystroke_o	o	n/a
64.9505	0.06	129901	keystroke_l	l	n/a
65.1305	0.075	130261	keystroke_o	o	n/a
65.2505	0.09	130501	keystroke_g	g	n/a
65.3555	0.06	130711	keystroke_i	i	n/a
65.5205	0.165	131041	keystroke_c	c	n/a
65.6105	0.165	131221	keystroke_a	a	n/a
65.6705	0.18	131341	keystroke_l	l	n/a
65.7905	0.075	131581	keystroke_Key.space	Key.space	n/a
65.9255	0.135	131851	keystroke_u	u	n/a
66.0155	0.135	132031	keystroke_n	n	n/a
66.0905	0.09	132181	keystroke_d	d	n/a
66.331	0.1495	132662	keystroke_e	e	n/a
66.4205	0.135	132841	keystroke_r	r	n/a
66.5855	0.105	133171	keystroke_s	s	n/a
66.7355	0.075	133471	keystroke_t	t	n/a
66.8855	0.105	133771	keystroke_a	a	n/a
67.0055	0.075	134011	keystroke_n	n	n/a
67.0655	0.12	134131	keystroke_d	d	n/a
67.2005	0.135	134401	keystroke_i	i	n/a
67.2605	0.1505	134521	keystroke_n	n	n/a
67.426	0.09	134852	keystroke_g	g	n/a
67.531	0.1195	135062	keystroke_Key.space	Key.space	n/a
67.8755	0.09	135751	keystroke_s	s	n/a
67.9505	0.12	135901	keystroke_u	u	n/a
68.9255	0.0905	137851	keystroke_r	r	n/a
69.091	0.105	138182	keystroke_g	g	n/a
69.181	0.1945	138362	keystroke_e	e	n/a
69.3005	0.135	138601	keystroke_r	r	n/a
69.4655	0.18	138931	keystroke_y	y	n/a
69.5855	0.135	139171	keystroke_Key.space	Key.space	n/a
70.1855	0.195	140371	keystroke_p	p	n/a
70.3055	0.225	140611	keystroke_o	o	n/a
70.5455	0.075	141091	keystroke_t	t	n/a
70.6805	0.075	141361	keystroke_t	t	n/a
70.8455	0.15	141691	keystroke_e	e	n/a
70.9355	0.12	141871	keystroke_r	r	n/a
71.4005	0.075	142801	keystroke_Key.enter	Key.enter	n/a
71.488	6.851	142976	prompt	n/a	who'll meyer planes 'twas\n
72.1805	0.12	144361	keystroke_w	w	n/a
72.316	0.165	144632	keystroke_h	h	n/a
72.466	0.045	144932	keystroke_o	o	n/a
72.766	0.1045	145532	keystroke_'	'	n/a
73.0055	0.045	146011	keystroke_l	l	n/a
73.1405	0.105	146281	keystroke_l	l	n/a
73.2305	0.09	146461	keystroke_Key.space	Key.space	n/a
73.3955	0.105	146791	keystroke_m	m	n/a
73.5305	0.09	147061	keystroke_e	e	n/a
73.6655	0.165	147331	keystroke_y	y	n/a
73.8455	0.165	147691	keystroke_e	e	n/a
74.0255	0.0895	148051	keystroke_r	r	n/a
74.145	0.105	148290	keystroke_Key.space	Key.space	n/a
74.386	0.15	148772	keystroke_p	p	n/a
74.475	0.121	148950	keystroke_l	l	n/a
74.64	0.0455	149280	keystroke_a	a	n/a
74.7305	0.1205	149461	keystroke_n	n	n/a
74.851	0.2095	149702	keystroke_e	e	n/a
75.4205	0.09	150841	keystroke_s	s	n/a
75.7505	0.105	151501	keystroke_Key.space	Key.space	n/a
75.9905	0.09	151981	keystroke_t	t	n/a
76.7255	0.075	153451	keystroke_Key.backspace	Key.backspace	n/a
77.056	0.09	154112	keystroke_'	'	n/a
77.251	0.135	154502	keystroke_t	t	n/a
77.386	0.15	154772	keystroke_w	w	n/a
77.491	0.195	154982	keystroke_a	a	n/a
77.656	0.12	155312	keystroke_s	s	n/a
78.241	0.09	156482	keystroke_Key.enter	Key.enter	n/a
78.3425	6.05	156685	prompt	n/a	turned quiet indicating containing\n
79.0215	0.12	158043	keystroke_t	t	n/a
79.3355	0.105	158671	keystroke_u	u	n/a
79.5005	0.105	159001	keystroke_r	r	n/a
79.6205	0.105	159241	keystroke_n	n	n/a
79.7105	0.1195	159421	keystroke_e	e	n/a
79.89	0.105	159780	keystroke_d	d	n/a
79.996	0.1045	159992	keystroke_Key.space	Key.space	n/a
80.4905	0.106	160981	keystroke_q	q	n/a
80.6105	0.165	161221	keystroke_u	u	n/a
80.7155	0.151	161431	keystroke_i	i	n/a
81.0155	0.195	162031	keystroke_e	e	n/a
81.1355	0.166	162271	keystroke_t	t	n/a
81.2855	0.09	162571	keystroke_Key.space	Key.space	n/a
81.5555	0.27	163111	keystroke_i	i	n/a
81.6455	0.195	163291	keystroke_n	n	n/a
81.9155	0.075	163831	keystroke_d	d	n/a
82.0205	0.1055	164041	keystroke_i	i	n/a
82.156	0.15	164312	keystroke_c	c	n/a
82.246	0.18	164492	keystroke_a	a	n/a
82.546	0.09	165092	keystroke_t	t	n/a
82.651	0.15	165302	keystroke_i	i	n/a
82.756	0.12	165512	keystroke_n	n	n/a
82.861	0.105	165722	keystroke_g	g	n/a
82.981	0.06	165962	keystroke_Key.space	Key.space	n/a
83.161	0.135	166322	keystroke_c	c	n/a
83.281	0.18	166562	keystroke_o	o	n/a
83.401	0.105	166802	keystroke_n	n	n/a
83.521	0.135	167042	keystroke_t	t	n/a
83.641	0.15	167282	keystroke_a	a	n/a
83.746	0.12	167492	keystroke_i	i	n/a
83.851	0.12	167702	keystroke_n	n	n/a
83.972	0.119	167944	keystroke_i	i	n/a
84.046	0.12	168092	keystroke_n	n	n/a
84.151	0.105	168302	keystroke_g	g	n/a
84.286	0.105	168572	keystroke_Key.enter	Key.enter	n/a
84.3975	5.44	168795	prompt	n/a	jason lowest assumes albania\n
84.946	0.105	169892	keystroke_j	j	n/a
85.036	0.165	170072	keystroke_a	a	n/a
85.126	0.165	170252	keystroke_s	s	n/a
85.246	0.15	170492	keystroke_o	o	n/a
85.321	0.135	170642	keystroke_n	n	n/a
85.411	0.105	170822	keystroke_Key.space	Key.space	n/a
85.576	0.075	171152	keystroke_l	l	n/a
85.741	0.105	171482	keystroke_o	o	n/a
85.771	0.15	171542	keystroke_w	w	n/a
85.861	0.135	171722	keystroke_e	e	n/a
86.056	0.15	172112	keystroke_s	s	n/a
86.251	0.09	172502	keystroke_t	t	n/a
86.356	0.1045	172712	keystroke_Key.space	Key.space	n/a
86.5655	0.09	173131	keystroke_a	a	n/a
86.7455	0.075	173491	keystroke_s	s	n/a
86.8805	0.075	173761	keystroke_s	s	n/a
86.9405	0.12	173881	keystroke_u	u	n/a
87.2105	0.105	174421	keystroke_m	m	n/a
87.3005	0.18	174601	keystroke_e	e	n/a
87.4205	0.12	174841	keystroke_s	s	n/a
87.5555	0.09	175111	keystroke_Key.space	Key.space	n/a
87.6755	0.135	175351	keystroke_a	a	n/a
87.8405	0.09	175681	keystroke_b	b	n/a
88.2305	0.075	176461	keystroke_Key.backspace	Key.backspace	n/a
88.6505	0.075	177301	keystroke_l	l	n/a
88.9205	0.06	177841	keystroke_b	b	n/a
89.0255	0.0905	178051	keystroke_a	a	n/a
89.1455	0.135	178291	keystroke_n	n	n/a
89.2355	0.165	178471	keystroke_i	i	n/a
89.3855	0.075	178771	keystroke_a	a	n/a
89.7755	0.06	179551	keystroke_Key.enter	Key.enter	n/a
89.844	4.5835	179688	prompt	n/a	young tier subsection autos\n
90.571	0.135	181142	keystroke_y	y	n/a
90.676	0.21	181352	keystroke_o	o	n/a
90.796	0.195	181592	keystroke_u	u	n/a
90.916	0.165	181832	keystroke_n	n	n/a
91.066	0.09	182132	keystroke_g	g	n/a
91.171	0.1045	182342	keystroke_Key.space	Key.space	n/a
91.3355	0.075	182671	keystroke_t	t	n/a
91.3955	0.1355	182791	keystroke_i	i	n/a
91.501	0.2245	183002	keystroke_e	e	n/a
91.606	0.1495	183212	keystroke_r	r	n/a
91.8155	0.0605	183631	keystroke_Key.space	Key.space	n/a
91.891	0.12	183782	keystroke_s	s	n/a
92.012	0.149	184024	keystroke_u	u	n/a
92.101	0.135	184202	keystroke_b	b	n/a
92.281	0.135	184562	keystroke_s	s	n/a
92.356	0.105	184712	keystroke_e	e	n/a
92.611	0.075	185222	keystroke_c	c	n/a
92.881	0.075	185762	keystroke_t	t	n/a
92.986	0.165	185972	keystroke_i	i	n/a
93.106	0.15	186212	keystroke_o	o	n/a
93.166	0.18	186332	keystroke_n	n	n/a
93.271	0.09	186542	keystroke_Key.space	Key.space	n/a
93.331	0.105	186662	keystroke_a	a	n/a
93.466	0.075	186932	keystroke_u	u	n/a
93.586	0.075	187172	keystroke_t	t	n/a
93.751	0.09	187502	keystroke_o	o	n/a
93.961	0.12	187922	keystroke_s	s	n/a
94.306	0.12	188612	keystroke_Key.enter	Key.enter	n/a
94.4305	7.5115	188861	prompt	n/a	shore harder bond hats\n
95.011	0.105	190022	keystroke_s	s	n/a
95.131	0.105	190262	keystroke_h	h	n/a
95.206	0.105	190412	keystroke_o	o	n/a
95.251	0.15	190502	keystroke_r	r	n/a
95.356	0.105	190712	keystroke_e	e	n/a
95.416	0.105	190832	keystroke_Key.space	Key.space	n/a
95.581	0.12	191162	keystroke_h	h	n/a
95.581	0.135	191162	keystroke_a	a	n/a
95.731	0.06	191462	keystroke_r	r	n/a
95.956	0.075	191912	keystroke_d	d	n/a
96.166	0.15	192332	keystroke_e	e	n/a
96.241	0.135	192482	keystroke_r	r	n/a
96.346	0.15	192692	keystroke_Key.space	Key.space	n/a
96.511	0.09	193022	keystroke_b	b	n/a
96.586	0.18	193172	keystroke_o	o	n/a
96.706	0.135	193412	keystroke_n	n	n/a
96.856	0.135	193712	keystroke_d	d	n/a
97.351	0.06	194702	keystroke_Key.backspace	Key.backspace	n/a
97.516	0.045	195032	keystroke_Key.backspace	Key.backspace	n/a
97.681	0.045	195362	keystroke_Key.backspace	Key.backspace	n/a
97.831	0.075	195662	keystroke_Key.backspace	Key.backspace	n/a
97.996	0.075	195992	keystroke_Key.backspace	Key.backspace	n/a
98.1755	0.0605	196351	keystroke_Key.backspace	Key.backspace	n/a
98.326	0.075	196652	keystroke_Key.backspace	Key.backspace	n/a
98.491	0.06	196982	keystroke_Key.backspace	Key.backspace	n/a
98.716	0.015	197432	keystroke_Key.backspace	Key.backspace	n/a
98.836	0.06	197672	keystroke_Key.backspace	Key.backspace	n/a
99.031	0.045	198062	keystroke_Key.backspace	Key.backspace	n/a
99.7505	0.09	199501	keystroke_h	h	n/a
99.8255	0.105	199651	keystroke_a	a	n/a
99.9905	0.075	199981	keystroke_r	r	n/a
100.1855	0.1055	200371	keystroke_d	d	n/a
100.411	0.135	200822	keystroke_e	e	n/a
100.486	0.12	200972	keystroke_r	r	n/a
100.621	0.06	201242	keystroke_Key.space	Key.space	n/a
100.771	0.09	201542	keystroke_b	b	n/a
100.846	0.1805	201692	keystroke_o	o	n/a
100.9665	0.12	201933	keystroke_n	n	n/a
101.0715	0.089	202143	keystroke_d	d	n/a
101.1765	0.075	202353	keystroke_Key.space	Key.space	n/a
101.2815	0.105	202563	keystroke_h	h	n/a
101.2965	0.075	202593	keystroke_a	a	n/a
101.5355	0.166	203071	keystroke_t	t	n/a
101.6565	0.104	203313	keystroke_s	s	n/a
101.881	0.0605	203762	keystroke_Key.enter	Key.enter	n/a
101.946	7.309	203892	prompt	n/a	consolidation extreme desktop serving\n
102.541	0.105	205082	keystroke_c	c	n/a
102.616	0.165	205232	keystroke_o	o	n/a
102.691	0.09	205382	keystroke_n	n	n/a
102.796	0.12	205592	keystroke_s	s	n/a
102.901	0.09	205802	keystroke_o	o	n/a
103.051	0.09	206102	keystroke_l	l	n/a
103.216	0.12	206432	keystroke_i	i	n/a
103.276	0.135	206552	keystroke_d	d	n/a
103.351	0.105	206702	keystroke_a	a	n/a
103.561	0.09	207122	keystroke_t	t	n/a
103.621	0.165	207242	keystroke_i	i	n/a
103.726	0.135	207452	keystroke_o	o	n/a
103.801	0.135	207602	keystroke_n	n	n/a
103.891	0.09	207782	keystroke_Key.space	Key.space	n/a
103.906	0.105	207812	keystroke_e	e	n/a
104.146	0.09	208292	keystroke_x	x	n/a
104.506	0.135	209012	keystroke_t	t	n/a
104.581	0.15	209162	keystroke_r	r	n/a
104.671	0.105	209342	keystroke_e	e	n/a
104.776	0.09	209552	keystroke_m	m	n/a
104.881	0.105	209762	keystroke_e	e	n/a
104.971	0.075	209942	keystroke_m	m	n/a
105.151	0.09	210302	keystroke_Key.space	Key.space	n/a
105.346	0.18	210692	keystroke_d	d	n/a
105.466	0.09	210932	keystroke_e	e	n/a
105.736	0.06	211472	keystroke_Key.backspace	Key.backspace	n/a
105.901	0.06	211802	keystroke_Key.backspace	Key.backspace	n/a
106.051	0.03	212102	keystroke_Key.backspace	Key.backspace	n/a
106.171	0.06	212342	keystroke_Key.backspace	Key.backspace	n/a
106.3815	0.105	212763	keystroke_Key.space	Key.space	n/a
106.6365	0.135	213273	keystroke_d	d	n/a
106.7115	0.195	213423	keystroke_e	e	n/a
106.8765	0.12	213753	keystroke_s	s	n/a
107.0115	0.045	214023	keystroke_k	k	n/a
107.1465	0.105	214293	keystroke_t	t	n/a
107.2215	0.165	214443	keystroke_o	o	n/a
107.3265	0.15	214653	keystroke_p	p	n/a
107.4315	0.12	214863	keystroke_Key.space	Key.space	n/a
107.7465	0.105	215493	keystroke_s	s	n/a
108.1815	0.1645	216363	keystroke_e	e	n/a
108.286	0.12	216572	keystroke_r	r	n/a
108.601	0.09	217202	keystroke_v	v	n/a
108.676	0.135	217352	keystroke_i	i	n/a
108.751	0.12	217502	keystroke_n	n	n/a
108.856	0.0745	217712	keystroke_g	g	n/a
109.186	0.06	218372	keystroke_Key.enter	Key.enter	n/a
109.2615	7.2675	218523	prompt	n/a	germany missouri we'd've luther\n
110.0565	0.134	220113	keystroke_g	g	n/a
110.1455	0.135	220291	keystroke_e	e	n/a
110.3105	0.105	220621	keystroke_r	r	n/a
110.4615	0.074	220923	keystroke_m	m	n/a
110.5655	0.06	221131	keystroke_a	a	n/a
110.6405	0.105	221281	keystroke_n	n	n/a
110.8355	0.075	221671	keystroke_y	y	n/a
110.9115	0.104	221823	keystroke_Key.space	Key.space	n/a
111.0905	0.12	222181	keystroke_m	m	n/a
111.1805	0.135	222361	keystroke_i	i	n/a
111.3005	0.09	222601	keystroke_s	s	n/a
111.4805	0.075	222961	keystroke_s	s	n/a
111.6755	0.195	223351	keystroke_o	o	n/a
112.0355	0.09	224071	keystroke_u	u	n/a
112.2755	0.135	224551	keystroke_r	r	n/a
112.4555	0.105	224911	keystroke_i	i	n/a
112.5305	0.09	225061	keystroke_Key.space	Key.space	n/a
113.1605	0.12	226321	keystroke_w	w	n/a
113.4005	0.105	226801	keystroke_e	e	n/a
113.5355	0.135	227071	keystroke_'	'	n/a
113.7605	0.105	227521	keystroke_d	d	n/a
114.0155	0.135	228031	keystroke_'	'	n/a
114.3155	0.165	228631	keystroke_v	v	n/a
114.4205	0.15	228841	keystroke_e	e	n/a
114.7805	0.09	229561	keystroke_Key.space	Key.space	n/a
115.2005	0.06	230401	keystroke_l	l	n/a
115.3805	0.09	230761	keystroke_u	u	n/a
115.4855	0.09	230971	keystroke_t	t	n/a
115.6205	0.105	231241	keystroke_h	h	n/a
115.7105	0.105	231421	keystroke_e	e	n/a
115.7855	0.105	231571	keystroke_r	r	n/a
116.3855	0.135	232771	keystroke_Key.enter	Key.enter	n/a
116.5335	8.3505	233067	prompt	n/a	madness allowed eyed isolated\n
117.3305	0.12	234661	keystroke_m	m	n/a
117.4055	0.15	234811	keystroke_a	a	n/a
117.5255	0.12	235051	keystroke_d	d	n/a
117.6605	0.12	235321	keystroke_n	n	n/a
117.7955	0.12	235591	keystroke_e	e	n/a
117.9305	0.075	235861	keystroke_s	s	n/a
118.0955	0.075	236191	keystroke_s	s	n/a
118.1855	0.09	236371	keystroke_Key.space	Key.space	n/a
118.3055	0.09	236611	keystroke_a	a	n/a
118.4105	0.045	236821	keystroke_l	l	n/a
118.5455	0.06	237091	keystroke_l	l	n/a
118.7555	0.12	237511	keystroke_o	o	n/a
118.8305	0.165	237661	keystroke_w	w	n/a
118.921	0.1345	237842	keystroke_e	e	n/a
119.176	0.075	238352	keystroke_d	d	n/a
119.266	0.09	238532	keystroke_Key.space	Key.space	n/a
119.491	0.09	238982	keystroke_e	e	n/a
119.626	0.15	239252	keystroke_u	u	n/a
119.701	0.1795	239402	keystroke_e	e	n/a
119.9705	0.1355	239941	keystroke_d	d	n/a
120.091	0.075	240182	keystroke_Key.space	Key.space	n/a
120.5105	0.045	241021	keystroke_Key.backspace	Key.backspace	n/a
120.6605	0.06	241321	keystroke_Key.backspace	Key.backspace	n/a
120.8105	0.045	241621	keystroke_Key.backspace	Key.backspace	n/a
120.9455	0.075	241891	keystroke_Key.backspace	Key.backspace	n/a
121.6505	0.09	243301	keystroke_y	y	n/a
122.0405	0.075	244081	keystroke_e	e	n/a
122.3855	0.12	244771	keystroke_d	d	n/a
122.4905	0.09	244981	keystroke_Key.space	Key.space	n/a
122.9405	0.09	245881	keystroke_i	i	n/a
123.1055	0.015	246211	keystroke_s	s	n/a
123.1355	0.0605	246271	keystroke_o	o	n/a
123.301	0.075	246602	keystroke_l	l	n/a
123.391	0.075	246782	keystroke_a	a	n/a
123.6165	0.1945	247233	keystroke_t	t	n/a
123.6765	0.1495	247353	keystroke_e	e	n/a
123.991	0.0295	247982	keystroke_d	d	n/a
124.8305	0.045	249661	keystroke_Key.enter	Key.enter	n/a
124.888	3.8295	249776	prompt	n/a	lesser call ones pros\n
125.446	0.12	250892	keystroke_l	l	n/a
125.551	0.12	251102	keystroke_e	e	n/a
125.656	0.09	251312	keystroke_s	s	n/a
125.821	0.18	251642	keystroke_s	s	n/a
125.956	0.165	251912	keystroke_e	e	n/a
126.061	0.12	252122	keystroke_r	r	n/a
126.166	0.09	252332	keystroke_Key.space	Key.space	n/a
126.376	0.1195	252752	keystroke_c	c	n/a
126.4505	0.1205	252901	keystroke_a	a	n/a
126.541	0.06	253082	keystroke_l	l	n/a
126.691	0.12	253382	keystroke_l	l	n/a
126.766	0.12	253532	keystroke_Key.space	Key.space	n/a
126.931	0.195	253862	keystroke_o	o	n/a
127.066	0.135	254132	keystroke_n	n	n/a
127.171	0.18	254342	keystroke_e	e	n/a
127.261	0.18	254522	keystroke_s	s	n/a
127.486	0.12	254972	keystroke_Key.space	Key.space	n/a
127.636	0.135	255272	keystroke_p	p	n/a
127.786	0.135	255572	keystroke_r	r	n/a
127.876	0.105	255752	keystroke_o	o	n/a
128.296	0.09	256592	keystroke_s	s	n/a
128.626	0.09	257252	keystroke_Key.enter	Key.enter	n/a
128.722	8.252	257444	prompt	n/a	booth below yeast advocacy\n
129.376	0.09	258752	keystroke_b	b	n/a
129.451	0.09	258902	keystroke_o	o	n/a
129.646	0.105	259292	keystroke_o	o	n/a
129.766	0.075	259532	keystroke_t	t	n/a
129.856	0.09	259712	keystroke_h	h	n/a
129.916	0.075	259832	keystroke_Key.space	Key.space	n/a
130.081	0.075	260162	keystroke_b	b	n/a
130.171	0.1045	260342	keystroke_e	e	n/a
130.3355	0.045	260671	keystroke_l	l	n/a
130.4855	0.075	260971	keystroke_o	o	n/a
130.5755	0.105	261151	keystroke_w	w	n/a
130.6955	0.09	261391	keystroke_Key.space	Key.space	n/a
130.8605	0.06	261721	keystroke_y	y	n/a
130.8755	0.196	261751	keystroke_e	e	n/a
130.9815	0.164	261963	keystroke_a	a	n/a
131.1755	0.105	262351	keystroke_r	r	n/a
131.5365	0.104	263073	keystroke_Key.backspace	Key.backspace	n/a
131.6265	0.165	263253	keystroke_s	s	n/a
131.7615	0.12	263523	keystroke_t	t	n/a
131.8965	0.12	263793	keystroke_Key.space	Key.space	n/a
132.1215	0.1045	264243	keystroke_a	a	n/a
132.241	0.12	264482	keystroke_d	d	n/a
132.511	0.15	265022	keystroke_b	b	n/a
132.661	0.15	265322	keystroke_o	o	n/a
133.021	0.045	266042	keystroke_Key.backspace	Key.backspace	n/a
133.231	0.015	266462	keystroke_Key.backspace	Key.backspace	n/a
133.801	0.165	267602	keystroke_v	v	n/a
133.921	0.15	267842	keystroke_o	o	n/a
134.026	0.195	268052	keystroke_c	c	n/a
134.116	0.1945	268232	keystroke_a	a	n/a
134.2365	0.149	268473	keystroke_s	s	n/a
134.4605	0.075	268921	keystroke_y	y	n/a
135.196	0.075	270392	keystroke_Key.backspace	Key.backspace	n/a
135.346	0.06	270692	keystroke_Key.backspace	Key.backspace	n/a
136.036	0.15	272072	keystroke_c	c	n/a
136.381	0.12	272762	keystroke_y	y	n/a
136.891	0.075	273782	keystroke_Key.enter	Key.enter	n/a
136.978	9.521	273956	prompt	n/a	earning francisco parts theft\n
137.626	0.195	275252	keystroke_e	e	n/a
137.776	0.135	275552	keystroke_a	a	n/a
137.866	0.135	275732	keystroke_r	r	n/a
137.986	0.09	275972	keystroke_n	n	n/a
138.046	0.15	276092	keystroke_i	i	n/a
138.151	0.1345	276302	keystroke_n	n	n/a
138.256	0.1045	276512	keystroke_g	g	n/a
138.3755	0.105	276751	keystroke_Key.space	Key.space	n/a
139.0655	0.105	278131	keystroke_f	f	n/a
139.3055	0.18	278611	keystroke_r	r	n/a
139.3955	0.165	278791	keystroke_a	a	n/a
139.7405	0.12	279481	keystroke_n	n	n/a
140.0105	0.09	280021	keystroke_c	c	n/a
140.4305	0.135	280861	keystroke_s	s	n/a
141.1955	0.09	282391	keystroke_Key.backspace	Key.backspace	n/a
141.5855	0.06	283171	keystroke_s	s	n/a
141.9455	0.105	283891	keystroke_Key.backspace	Key.backspace	n/a
142.5755	0.075	285151	keystroke_i	i	n/a
142.6355	0.195	285271	keystroke_s	s	n/a
142.7555	0.165	285511	keystroke_c	c	n/a
142.9355	0.135	285871	keystroke_o	o	n/a
143.0255	0.105	286051	keystroke_Key.space	Key.space	n/a
144.1055	0.12	288211	keystroke_p	p	n/a
144.1955	0.09	288391	keystroke_a	a	n/a
144.3605	0.075	288721	keystroke_r	r	n/a
144.5405	0.21	289081	keystroke_t	t	n/a
144.6305	0.15	289261	keystroke_s	s	n/a
144.7955	0.135	289591	keystroke_Key.space	Key.space	n/a
144.9155	0.075	289831	keystroke_t	t	n/a
144.9755	0.105	289951	keystroke_h	h	n/a
145.0655	0.075	290131	keystroke_e	e	n/a
145.3655	0.105	290731	keystroke_d	d	n/a
145.6805	0.21	291361	keystroke_Key.backspace	Key.backspace	n/a
145.8305	0.075	291661	keystroke_f	f	n/a
146.0255	0.075	292051	keystroke_t	t	n/a
146.476	0.015	292952	keystroke_Key.enter	Key.enter	n/a
146.503	6.4845	293006	prompt	n/a	routes organization quantities land\n
147.331	0.12	294662	keystroke_r	r	n/a
147.436	0.165	294872	keystroke_o	o	n/a
147.541	0.2395	295082	keystroke_u	u	n/a
147.631	0.2395	295262	keystroke_t	t	n/a
147.7955	0.195	295591	keystroke_e	e	n/a
147.8715	0.179	295743	keystroke_s	s	n/a
148.0355	0.075	296071	keystroke_Key.space	Key.space	n/a
148.1255	0.136	296251	keystroke_o	o	n/a
148.2155	0.105	296431	keystroke_r	r	n/a
148.4705	0.165	296941	keystroke_g	g	n/a
148.5755	0.105	297151	keystroke_a	a	n/a
148.6955	0.135	297391	keystroke_n	n	n/a
148.7855	0.15	297571	keystroke_i	i	n/a
148.921	0.1045	297842	keystroke_z	z	n/a
149.2055	0.105	298411	keystroke_a	a	n/a
149.4305	0.105	298861	keystroke_t	t	n/a
149.5205	0.18	299041	keystroke_i	i	n/a
149.6405	0.24	299281	keystroke_o	o	n/a
149.7905	0.12	299581	keystroke_n	n	n/a
149.8955	0.06	299791	keystroke_Key.space	Key.space	n/a
150.1355	0.165	300271	keystroke_q	q	n/a
150.3905	0.12	300781	keystroke_u	u	n/a
150.4655	0.12	300931	keystroke_a	a	n/a
150.8555	0.12	301711	keystroke_n	n	n/a
151.1405	0.135	302281	keystroke_t	t	n/a
151.2905	0.105	302581	keystroke_i	i	n/a
151.4405	0.09	302881	keystroke_t	t	n/a
151.5605	0.15	303121	keystroke_i	i	n/a
151.8005	0.15	303601	keystroke_e	e	n/a
151.8905	0.135	303781	keystroke_s	s	n/a
152.1905	0.015	304381	keystroke_Key.space	Key.space	n/a
152.2805	0.165	304561	keystroke_l	l	n/a
152.4605	0.045	304921	keystroke_a	a	n/a
152.4905	0.105	304981	keystroke_n	n	n/a
152.5805	0.06	305161	keystroke_d	d	n/a
152.8805	0.105	305761	keystroke_Key.enter	Key.enter	n/a
152.9895	11.1345	305979	prompt	n/a	jesse hungarian they suddenly\n
153.9155	0.12	307831	keystroke_j	j	n/a
154.0055	0.18	308011	keystroke_e	e	n/a
154.1105	0.12	308221	keystroke_s	s	n/a
154.3355	0.225	308671	keystroke_s	s	n/a
154.4405	0.195	308881	keystroke_e	e	n/a
155.0705	0.0905	310141	keystroke_Key.space	Key.space	n/a
155.7455	0.1055	311491	keystroke_h	h	n/a
156.4065	0.119	312813	keystroke_u	u	n/a
156.8255	0.091	313651	keystroke_n	n	n/a
157.306	0.12	314612	keystroke_g	g	n/a
157.5155	0.105	315031	keystroke_a	a	n/a
157.7405	0.075	315481	keystroke_r	r	n/a
157.8455	0.105	315691	keystroke_i	i	n/a
157.9355	0.105	315871	keystroke_a	a	n/a
158.1005	0.1055	316201	keystroke_n	n	n/a
158.1755	0.1055	316351	keystroke_Key.space	Key.space	n/a
160.036	0.1355	320072	keystroke_t	t	n/a
160.1565	0.045	320313	keystroke_h	h	n/a
160.276	0.06	320552	keystroke_e	e	n/a
160.321	0.165	320642	keystroke_y	y	n/a
160.441	0.06	320882	keystroke_Key.space	Key.space	n/a
160.516	0.06	321032	keystroke_s	s	n/a
160.591	0.12	321182	keystroke_u	u	n/a
160.801	0.06	321602	keystroke_d	d	n/a
160.996	0.1945	321992	keystroke_d	d	n/a
161.1305	0.15	322261	keystroke_e	e	n/a
161.3105	0.165	322621	keystroke_n	n	n/a
161.4015	0.089	322803	keystroke_t	t	n/a
161.7755	0.015	323551	keystroke_Key.backspace	Key.backspace	n/a
162.0455	0.06	324091	keystroke_k	k	n/a
162.1505	0.0755	324301	keystroke_y	y	n/a
162.526	0.075	325052	keystroke_Key.backspace	Key.backspace	n/a
162.661	0.075	325322	keystroke_Key.backspace	Key.backspace	n/a
163.261	0.09	326522	keystroke_l	l	n/a
163.456	0.075	326912	keystroke_y	y	n/a
164.0405	0.075	328081	keystroke_Key.enter	Key.enter	n/a
164.128	9.0115	328256	prompt	n/a	brick superintendent philadelphia choir\n
164.896	0.075	329792	keystroke_b	b	n/a
164.956	0.09	329912	keystroke_r	r	n/a
165.076	0.09	330152	keystroke_i	i	n/a
165.226	0.12	330452	keystroke_c	c	n/a
165.316	0.105	330632	keystroke_k	k	n/a
165.406	0.09	330812	keystroke_Key.space	Key.space	n/a
165.511	0.09	331022	keystroke_s	s	n/a
165.616	0.165	331232	keystroke_u	u	n/a
165.736	0.12	331472	keystroke_p	p	n/a
165.826	0.12	331652	keystroke_e	e	n/a
165.901	0.12	331802	keystroke_r	r	n/a
166.141	0.135	332282	keystroke_i	i	n/a
166.231	0.1195	332462	keystroke_n	n	n/a
167.0265	0.165	334053	keystroke_t	t	n/a
167.1165	0.1495	334233	keystroke_e	e	n/a
167.296	0.105	334592	keystroke_n	n	n/a
167.446	0.15	334892	keystroke_d	d	n/a
167.521	0.15	335042	keystroke_e	e	n/a
167.791	0.075	335582	keystroke_n	n	n/a
167.851	0.075	335702	keystroke_t	t	n/a
167.881	0.06	335762	keystroke_Key.space	Key.space	n/a
167.971	0.1955	335942	keystroke_p	p	n/a
168.181	0.1345	336362	keystroke_h	h	n/a
168.256	0.1205	336512	keystroke_i	i	n/a
168.5255	0.075	337051	keystroke_l	l	n/a
168.6155	0.106	337231	keystroke_a	a	n/a
168.9755	0.136	337951	keystroke_d	d	n/a
169.0655	0.121	338131	keystroke_e	e	n/a
169.2305	0.12	338461	keystroke_l	l	n/a
169.3655	0.105	338731	keystroke_p	p	n/a
169.651	0.18	339302	keystroke_h	h	n/a
169.711	0.18	339422	keystroke_i	i	n/a
169.876	0.06	339752	keystroke_a	a	n/a
170.026	0.1345	340052	keystroke_Key.space	Key.space	n/a
171.061	0.15	342122	keystroke_c	c	n/a
171.136	0.225	342272	keystroke_h	h	n/a
171.271	0.195	342542	keystroke_o	o	n/a
171.376	0.15	342752	keystroke_i	i	n/a
171.511	0.09	343022	keystroke_r	r	n/a
173.041	0.09	346082	keystroke_Key.enter	Key.enter	n/a
173.143	5.2095	346286	prompt	n/a	frank tried twice science\n
173.881	0.06	347762	keystroke_f	f	n/a
174.016	0.105	348032	keystroke_r	r	n/a
174.166	0.135	348332	keystroke_a	a	n/a
174.286	0.105	348572	keystroke_n	n	n/a
174.361	0.18	348722	keystroke_k	k	n/a
174.526	0.075	349052	keystroke_Key.space	Key.space	n/a
174.646	0.075	349292	keystroke_t	t	n/a
175.231	0.105	350462	keystroke_r	r	n/a
175.456	0.15	350912	keystroke_i	i	n/a
175.561	0.09	351122	keystroke_e	e	n/a
175.861	0.015	351722	keystroke_d	d	n/a
175.891	0.09	351782	keystroke_Key.space	Key.space	n/a
176.116	0.195	352232	keystroke_t	t	n/a
176.251	0.2095	352502	keystroke_w	w	n/a
176.3855	0.135	352771	keystroke_i	i	n/a
176.5355	0.135	353071	keystroke_c	c	n/a
176.7455	0.105	353491	keystroke_e	e	n/a
176.8655	0.0905	353731	keystroke_Key.space	Key.space	n/a
177.211	0.105	354422	keystroke_s	s	n/a
177.406	0.09	354812	keystroke_c	c	n/a
177.511	0.09	355022	keystroke_i	i	n/a
177.646	0.135	355292	keystroke_e	e	n/a
177.782	0.044	355564	keystroke_n	n	n/a
177.811	0.21	355622	keystroke_c	c	n/a
177.961	0.105	355922	keystroke_e	e	n/a
178.276	0.075	356552	keystroke_Key.enter	Key.enter	n/a
178.356	9.0495	356712	prompt	n/a	pearl writers cadillac samsung\n
178.9215	0.1645	357843	keystroke_p	p	n/a
178.981	0.255	357962	keystroke_e	e	n/a
179.146	0.24	358292	keystroke_a	a	n/a
179.296	0.12	358592	keystroke_r	r	n/a
179.401	0.12	358802	keystroke_l	l	n/a
179.491	0.12	358982	keystroke_Key.space	Key.space	n/a
179.566	0.285	359132	keystroke_w	w	n/a
179.671	0.195	359342	keystroke_r	r	n/a
179.911	0.06	359822	keystroke_i	i	n/a
179.926	0.09	359852	keystroke_t	t	n/a
180.031	0.18	360062	keystroke_e	e	n/a
180.136	0.21	360272	keystroke_r	r	n/a
180.316	0.135	360632	keystroke_s	s	n/a
180.421	0.12	360842	keystroke_Key.space	Key.space	n/a
180.676	0.105	361352	keystroke_c	c	n/a
180.736	0.12	361472	keystroke_a	a	n/a
180.946	0.075	361892	keystroke_d	d	n/a
181.036	0.06	362072	keystroke_i	i	n/a
181.246	0.075	362492	keystroke_l	l	n/a
181.396	0.075	362792	keystroke_l	l	n/a
181.486	0.195	362972	keystroke_a	a	n/a
181.621	0.18	363242	keystroke_c	c	n/a
181.891	0.12	363782	keystroke_Key.space	Key.space	n/a
182.176	0.135	364352	keystroke_s	s	n/a
182.296	0.165	364592	keystroke_a	a	n/a
182.476	0.06	364952	keystroke_m	m	n/a
182.656	0.12	365312	keystroke_s	s	n/a
182.806	0.15	365612	keystroke_u	u	n/a
182.911	0.12	365822	keystroke_n	n	n/a
183.016	0.105	366032	keystroke_g	g	n/a
187.338	0.058	374676	keystroke_Key.enter	Key.enter	n/a
187.41	9.5795	374820	prompt	n/a	insects loving omissions vancouver\n
188.281	0.12	376562	keystroke_i	i	n/a
188.371	0.1945	376742	keystroke_n	n	n/a
188.491	0.225	376982	keystroke_s	s	n/a
188.6415	0.135	377283	keystroke_e	e	n/a
188.9115	0.075	377823	keystroke_c	c	n/a
189.0015	0.105	378003	keystroke_t	t	n/a
189.1365	0.105	378273	keystroke_s	s	n/a
189.2115	0.06	378423	keystroke_Key.space	Key.space	n/a
189.3465	0.09	378693	keystroke_l	l	n/a
189.5415	0.09	379083	keystroke_o	o	n/a
189.6465	0.15	379293	keystroke_v	v	n/a
189.8415	0.06	379683	keystroke_i	i	n/a
189.8565	0.1345	379713	keystroke_n	n	n/a
189.9465	0.1045	379893	keystroke_g	g	n/a
190.066	0.09	380132	keystroke_Key.space	Key.space	n/a
190.4105	0.09	380821	keystroke_o	o	n/a
190.5605	0.165	381121	keystroke_m	m	n/a
190.7105	0.09	381421	keystroke_i	i	n/a
190.8155	0.09	381631	keystroke_s	s	n/a
190.9955	0.165	381991	keystroke_s	s	n/a
191.0555	0.195	382111	keystroke_i	i	n/a
191.1755	0.15	382351	keystroke_o	o	n/a
191.2655	0.105	382531	keystroke_n	n	n/a
191.3405	0.09	382681	keystroke_s	s	n/a
191.4455	0.12	382891	keystroke_Key.space	Key.space	n/a
191.5665	0.134	383133	keystroke_v	v	n/a
191.6555	0.1355	383311	keystroke_a	a	n/a
191.7755	0.135	383551	keystroke_n	n	n/a
191.9255	0.03	383851	keystroke_v	v	n/a
191.9405	0.15	383881	keystroke_o	o	n/a
192.0305	0.165	384061	keystroke_u	u	n/a
192.2265	0.15	384453	keystroke_v	v	n/a
192.5265	0.165	385053	keystroke_e	e	n/a
193.021	0.075	386042	keystroke_r	r	n/a
193.726	0.075	387452	keystroke_Key.backspace	Key.backspace	n/a
193.8755	0.075	387751	keystroke_Key.backspace	Key.backspace	n/a
194.0405	0.075	388081	keystroke_Key.backspace	Key.backspace	n/a
194.1755	0.0755	388351	keystroke_Key.backspace	Key.backspace	n/a
194.3415	0.075	388683	keystroke_Key.backspace	Key.backspace	n/a
194.5815	0.045	389163	keystroke_Key.backspace	Key.backspace	n/a
195.4965	0.06	390993	keystroke_c	c	n/a
195.7815	0.045	391563	keystroke_o	o	n/a
195.9165	0.12	391833	keystroke_u	u	n/a
196.0815	0.075	392163	keystroke_v	v	n/a
196.306	0.135	392612	keystroke_e	e	n/a
196.411	0.09	392822	keystroke_r	r	n/a
196.891	0.09	393782	keystroke_Key.enter	Key.enter	n/a
196.9945	8.815	393989	prompt	n/a	curious agencies uzbekistan served\n
197.626	0.135	395252	keystroke_c	c	n/a
197.836	0.09	395672	keystroke_u	u	n/a
197.956	0.135	395912	keystroke_r	r	n/a
198.076	0.15	396152	keystroke_i	i	n/a
198.151	0.1945	396302	keystroke_o	o	n/a
198.286	0.2105	396572	keystroke_u	u	n/a
198.4805	0.03	396961	keystroke_s	s	n/a
198.5255	0.105	397051	keystroke_Key.space	Key.space	n/a
198.9765	0.104	397953	keystroke_a	a	n/a
199.4115	0.149	398823	keystroke_g	g	n/a
199.4865	0.134	398973	keystroke_e	e	n/a
199.6815	0.18	399363	keystroke_n	n	n/a
199.8755	0.091	399751	keystroke_c	c	n/a
199.9805	0.09	399961	keystroke_i	i	n/a
200.1755	0.195	400351	keystroke_e	e	n/a
200.2655	0.15	400531	keystroke_s	s	n/a
200.4005	0.075	400801	keystroke_Key.space	Key.space	n/a
200.6115	0.134	401223	keystroke_u	u	n/a
200.7915	0.1195	401583	keystroke_z	z	n/a
201.136	0.075	402272	keystroke_b	b	n/a
201.256	0.12	402512	keystroke_e	e	n/a
201.466	0.075	402932	keystroke_k	k	n/a
201.646	0.165	403292	keystroke_i	i	n/a
201.766	0.09	403532	keystroke_s	s	n/a
201.976	0.06	403952	keystroke_t	t	n/a
202.141	0.135	404282	keystroke_a	a	n/a
202.291	0.1955	404582	keystroke_n	n	n/a
202.426	0.1055	404852	keystroke_Key.space	Key.space	n/a
203.0265	0.165	406053	keystroke_s	s	n/a
203.1315	0.15	406263	keystroke_e	e	n/a
203.2215	0.12	406443	keystroke_r	r	n/a
203.5365	0.105	407073	keystroke_v	v	n/a
203.7915	0.06	407583	keystroke_e	e	n/a
203.9715	0.06	407943	keystroke_d	d	n/a
205.726	0.075	411452	keystroke_Key.enter	Key.enter	n/a
205.819	7.2135	411638	prompt	n/a	africa shoppers representations chelsea\n
206.4605	0.196	412921	keystroke_a	a	n/a
206.6115	0.134	413223	keystroke_f	f	n/a
206.8205	0.105	413641	keystroke_r	r	n/a
206.9555	0.165	413911	keystroke_i	i	n/a
207.0765	0.179	414153	keystroke_c	c	n/a
207.1955	0.135	414391	keystroke_a	a	n/a
207.3455	0.105	414691	keystroke_Key.space	Key.space	n/a
207.6605	0.12	415321	keystroke_s	s	n/a
208.0205	0.105	416041	keystroke_h	h	n/a
208.0965	0.09	416193	keystroke_o	o	n/a
208.3055	0.06	416611	keystroke_p	p	n/a
208.4255	0.105	416851	keystroke_p	p	n/a
208.4855	0.195	416971	keystroke_e	e	n/a
208.5615	0.224	417123	keystroke_r	r	n/a
208.6955	0.135	417391	keystroke_s	s	n/a
208.8155	0.09	417631	keystroke_Key.space	Key.space	n/a
208.9655	0.195	417931	keystroke_r	r	n/a
209.3415	0.0745	418683	keystroke_e	e	n/a
209.761	0.105	419522	keystroke_p	p	n/a
209.806	0.165	419612	keystroke_r	r	n/a
209.911	0.1355	419822	keystroke_e	e	n/a
210.1365	0.165	420273	keystroke_s	s	n/a
210.2415	0.1345	420483	keystroke_e	e	n/a
210.406	0.15	420812	keystroke_n	n	n/a
210.481	0.1645	420962	keystroke_t	t	n/a
210.6305	0.075	421261	keystroke_a	a	n/a
210.6905	0.135	421381	keystroke_t	t	n/a
210.7955	0.2255	421591	keystroke_i	i	n/a
210.916	0.225	421832	keystroke_o	o	n/a
211.051	0.12	422102	keystroke_n	n	n/a
211.156	0.105	422312	keystroke_s	s	n/a
211.291	0.105	422582	keystroke_Key.space	Key.space	n/a
211.531	0.12	423062	keystroke_c	c	n/a
211.666	0.1795	423332	keystroke_h	h	n/a
211.8605	0.105	423721	keystroke_e	e	n/a
212.026	0.105	424052	keystroke_l	l	n/a
212.146	0.195	424292	keystroke_s	s	n/a
212.4755	0.075	424951	keystroke_e	e	n/a
212.686	0.09	425372	keystroke_a	a	n/a
212.956	0.075	425912	keystroke_Key.enter	Key.enter	n/a
213.0365	5.831	426073	prompt	n/a	campaign what'll gras base\n
213.6315	0.15	427263	keystroke_c	c	n/a
213.7215	0.24	427443	keystroke_a	a	n/a
213.8415	0.1795	427683	keystroke_m	m	n/a
214.006	0.0455	428012	keystroke_p	p	n/a
214.036	0.1505	428072	keystroke_a	a	n/a
214.1715	0.135	428343	keystroke_i	i	n/a
214.3665	0.21	428733	keystroke_g	g	n/a
214.5615	0.09	429123	keystroke_n	n	n/a
214.6365	0.105	429273	keystroke_Key.space	Key.space	n/a
214.8315	0.0895	429663	keystroke_w	w	n/a
215.0415	0.12	430083	keystroke_h	h	n/a
215.1015	0.075	430203	keystroke_a	a	n/a
215.3115	0.075	430623	keystroke_t	t	n/a
215.5515	0.12	431103	keystroke_'	'	n/a
215.926	0.015	431852	keystroke_l	l	n/a
215.986	0.135	431972	keystroke_l	l	n/a
216.136	0.09	432272	keystroke_Key.space	Key.space	n/a
216.436	0.18	432872	keystroke_f	f	n/a
216.661	0.015	433322	keystroke_e	e	n/a
216.961	0.045	433922	keystroke_Key.backspace	Key.backspace	n/a
217.096	0.06	434192	keystroke_Key.backspace	Key.backspace	n/a
217.1405	0.1355	434281	keystroke_g	g	n/a
217.216	0.12	434432	keystroke_r	r	n/a
217.487	0.164	434974	keystroke_a	a	n/a
217.591	0.135	435182	keystroke_s	s	n/a
217.8005	0.06	435601	keystroke_Key.space	Key.space	n/a
217.9505	0.061	435901	keystroke_b	b	n/a
218.2215	0.135	436443	keystroke_a	a	n/a
218.3265	0.12	436653	keystroke_s	s	n/a
218.6105	0.091	437221	keystroke_e	e	n/a
218.8065	0.06	437613	keystroke_Key.enter	Key.enter	n/a
218.8705	5.337	437741	prompt	n/a	lesson not other introductory\n
219.4215	0.135	438843	keystroke_l	l	n/a
219.5415	0.104	439083	keystroke_e	e	n/a
219.6315	0.105	439263	keystroke_s	s	n/a
219.841	0.105	439682	keystroke_s	s	n/a
219.961	0.15	439922	keystroke_o	o	n/a
220.021	0.1955	440042	keystroke_n	n	n/a
220.1715	0.0895	440343	keystroke_Key.space	Key.space	n/a
220.306	0.135	440612	keystroke_n	n	n/a
220.396	0.3	440792	keystroke_o	o	n/a
220.516	0.21	441032	keystroke_t	t	n/a
220.711	0.03	441422	keystroke_Key.space	Key.space	n/a
220.756	0.03	441512	keystroke_t	t	n/a
220.861	0.09	441722	keystroke_o	o	n/a
221.131	0.06	442262	keystroke_Key.backspace	Key.backspace	n/a
221.251	0.075	442502	keystroke_Key.backspace	Key.backspace	n/a
221.461	0.09	442922	keystroke_o	o	n/a
221.581	0.105	443162	keystroke_t	t	n/a
221.701	0.075	443402	keystroke_h	h	n/a
221.881	0.075	443762	keystroke_e	e	n/a
221.896	0.135	443792	keystroke_r	r	n/a
221.971	0.075	443942	keystroke_Key.space	Key.space	n/a
222.091	0.1355	444182	keystroke_i	i	n/a
222.166	0.1195	444332	keystroke_n	n	n/a
222.6455	0.15	445291	keystroke_t	t	n/a
222.7515	0.105	445503	keystroke_r	r	n/a
222.9015	0.104	445803	keystroke_o	o	n/a
223.0955	0.09	446191	keystroke_d	d	n/a
223.2465	0.104	446493	keystroke_u	u	n/a
223.3205	0.06	446641	keystroke_c	c	n/a
223.5455	0.075	447091	keystroke_t	t	n/a
223.6365	0.074	447273	keystroke_o	o	n/a
223.7255	0.15	447451	keystroke_r	r	n/a
223.8915	0.059	447783	keystroke_y	y	n/a
224.1605	0.045	448321	keystroke_Key.enter	Key.enter	n/a
224.21	7.609	448420	prompt	n/a	using conditioning voip process\n
224.896	0.075	449792	keystroke_u	u	n/a
224.986	0.105	449972	keystroke_s	s	n/a
225.092	0.134	450184	keystroke_i	i	n/a
225.181	0.105	450362	keystroke_n	n	n/a
225.2715	0.0595	450543	keystroke_g	g	n/a
225.361	0.09	450722	keystroke_Key.space	Key.space	n/a
225.496	0.075	450992	keystroke_c	c	n/a
225.781	0.1945	451562	keystroke_o	o	n/a
225.9605	0.045	451921	keystroke_n	n	n/a
225.9905	0.075	451981	keystroke_d	d	n/a
226.0805	0.0755	452161	keystroke_i	i	n/a
226.231	0.1195	452462	keystroke_t	t	n/a
226.3215	0.209	452643	keystroke_i	i	n/a
226.4405	0.225	452881	keystroke_o	o	n/a
226.5755	0.135	453151	keystroke_n	n	n/a
226.8755	0.165	453751	keystroke_i	i	n/a
226.9655	0.15	453931	keystroke_n	n	n/a
227.1615	0.104	454323	keystroke_g	g	n/a
227.2805	0.105	454561	keystroke_Key.space	Key.space	n/a
227.7755	0.09	455551	keystroke_v	v	n/a
227.8505	0.15	455701	keystroke_o	o	n/a
227.9705	0.165	455941	keystroke_p	p	n/a
228.541	0.075	457082	keystroke_Key.backspace	Key.backspace	n/a
228.931	0.105	457862	keystroke_u	u	n/a
229.591	0.06	459182	keystroke_Key.backspace	Key.backspace	n/a
229.876	0.15	459752	keystroke_i	i	n/a
229.951	0.195	459902	keystroke_p	p	n/a
230.131	0.03	460262	keystroke_Key.space	Key.space	n/a
230.221	0.135	460442	keystroke_p	p	n/a
230.371	0.075	460742	keystroke_r	r	n/a
230.491	0.105	460982	keystroke_o	o	n/a
230.611	0.09	461222	keystroke_c	c	n/a
230.776	0.1055	461552	keystroke_e	e	n/a
230.9705	0.075	461941	keystroke_s	s	n/a
231.1505	0.075	462301	keystroke_s	s	n/a
231.6005	0.21	463201	keystroke_Key.enter	Key.enter	n/a
231.832	5.5005	463664	prompt	n/a	remarkable lanka members diary\n
232.5155	0.15	465031	keystroke_r	r	n/a
232.5605	0.15	465121	keystroke_e	e	n/a
232.7405	0.045	465481	keystroke_m	m	n/a
232.7865	0.119	465573	keystroke_a	a	n/a
232.951	0.1045	465902	keystroke_r	r	n/a
232.966	0.1345	465932	keystroke_k	k	n/a
233.776	0.105	467552	keystroke_a	a	n/a
233.911	0.15	467822	keystroke_b	b	n/a
233.986	0.15	467972	keystroke_l	l	n/a
234.137	0.1335	468274	keystroke_e	e	n/a
234.301	0.105	468602	keystroke_Key.space	Key.space	n/a
234.466	0.09	468932	keystroke_l	l	n/a
234.526	0.15	469052	keystroke_a	a	n/a
234.691	0.1045	469382	keystroke_n	n	n/a
234.7805	0.135	469561	keystroke_k	k	n/a
234.9005	0.1205	469801	keystroke_a	a	n/a
235.036	0.09	470072	keystroke_Key.space	Key.space	n/a
235.216	0.075	470432	keystroke_m	m	n/a
235.292	0.074	470584	keystroke_e	e	n/a
235.381	0.105	470762	keystroke_m	m	n/a
235.591	0.09	471182	keystroke_b	b	n/a
235.666	0.165	471332	keystroke_e	e	n/a
235.816	0.18	471632	keystroke_r	r	n/a
235.966	0.1205	471932	keystroke_s	s	n/a
236.326	0.1355	472652	keystroke_Key.space	Key.space	n/a
236.5365	0.105	473073	keystroke_d	d	n/a
236.6265	0.09	473253	keystroke_i	i	n/a
236.7015	0.135	473403	keystroke_a	a	n/a
236.8665	0.1045	473733	keystroke_r	r	n/a
237.031	0.09	474062	keystroke_y	y	n/a
237.256	0.075	474512	keystroke_Key.enter	Key.enter	n/a
237.3355	7.3985	474671	prompt	n/a	forced litigation hand italic\n
238.036	0.09	476072	keystroke_f	f	n/a
238.141	0.09	476282	keystroke_o	o	n/a
238.216	0.075	476432	keystroke_r	r	n/a
238.441	0.06	476882	keystroke_c	c	n/a
238.591	0.09	477182	keystroke_e	e	n/a
238.726	0.045	477452	keystroke_Key.space	Key.space	n/a
238.846	0.09	477692	keystroke_l	l	n/a
239.041	0.06	478082	keystroke_i	i	n/a
240.001	0.075	480002	keystroke_t	t	n/a
240.241	0.15	480482	keystroke_i	i	n/a
240.4805	0.135	480961	keystroke_g	g	n/a
240.5705	0.1355	481141	keystroke_a	a	n/a
240.812	0.089	481624	keystroke_t	t	n/a
240.916	0.2255	481832	keystroke_i	i	n/a
241.0365	0.195	482073	keystroke_o	o	n/a
241.1265	0.195	482253	keystroke_n	n	n/a
241.2465	0.12	482493	keystroke_Key.space	Key.space	n/a
241.4265	0.09	482853	keystroke_h	h	n/a
241.4865	0.09	482973	keystroke_a	a	n/a
241.6215	0.09	483243	keystroke_n	n	n/a
241.6815	0.1645	483363	keystroke_d	d	n/a
241.891	0.015	483782	keystroke_Key.space	Key.space	n/a
241.936	0.1055	483872	keystroke_i	i	n/a
242.1165	0.075	484233	keystroke_t	t	n/a
242.2815	0.105	484563	keystroke_a	a	n/a
242.4015	0.075	484803	keystroke_l	l	n/a
242.5365	0.105	485073	keystroke_i	i	n/a
242.6115	0.135	485223	keystroke_z	z	n/a
243.0465	0.09	486093	keystroke_Key.backspace	Key.backspace	n/a
243.2565	0.165	486513	keystroke_x	x	n/a
243.7065	0.09	487413	keystroke_Key.backspace	Key.backspace	n/a
244.0065	0.06	488013	keystroke_c	c	n/a
244.6365	0.09	489273	keystroke_Key.enter	Key.enter	n/a
244.738	6.44	489476	prompt	n/a	potter mime pierre brilliant\n
245.3265	0.06	490653	keystroke_p	p	n/a
246.1515	0.075	492303	keystroke_o	o	n/a
246.2715	0.06	492543	keystroke_t	t	n/a
246.4365	0.12	492873	keystroke_t	t	n/a
246.5115	0.165	493023	keystroke_e	e	n/a
246.6315	0.12	493263	keystroke_r	r	n/a
246.6915	0.12	493383	keystroke_Key.space	Key.space	n/a
246.8115	0.105	493623	keystroke_m	m	n/a
246.8865	0.18	493773	keystroke_i	i	n/a
246.9915	0.15	493983	keystroke_m	m	n/a
247.1565	0.12	494313	keystroke_e	e	n/a
247.3065	0.09	494613	keystroke_Key.space	Key.space	n/a
247.5765	0.12	495153	keystroke_p	p	n/a
247.8465	0.06	495693	keystroke_i	i	n/a
247.8915	0.15	495783	keystroke_e	e	n/a
247.9965	0.135	495993	keystroke_r	r	n/a
248.236	0.24	496472	keystroke_r	r	n/a
248.386	0.135	496772	keystroke_e	e	n/a
248.506	0.09	497012	keystroke_Key.space	Key.space	n/a
248.731	0.09	497462	keystroke_b	b	n/a
249.166	0.12	498332	keystroke_r	r	n/a
249.271	0.06	498542	keystroke_i	i	n/a
250.096	0.075	500192	keystroke_l	l	n/a
250.231	0.105	500462	keystroke_l	l	n/a
250.441	0.105	500882	keystroke_i	i	n/a
250.561	0.105	501122	keystroke_a	a	n/a
250.696	0.09	501392	keystroke_n	n	n/a
250.876	0.09	501752	keystroke_t	t	n/a
251.0865	0.09	502173	keystroke_Key.enter	Key.enter	n/a
251.184	4.3585	502368	prompt	n/a	versions lifetime get problem\n
251.8815	0.015	503763	keystroke_v	v	n/a
252.0165	0.15	504033	keystroke_e	e	n/a
252.1065	0.2245	504213	keystroke_r	r	n/a
252.2115	0.1795	504423	keystroke_s	s	n/a
252.331	0.255	504662	keystroke_i	i	n/a
252.436	0.225	504872	keystroke_o	o	n/a
252.571	0.15	505142	keystroke_n	n	n/a
252.676	0.105	505352	keystroke_s	s	n/a
252.766	0.105	505532	keystroke_Key.space	Key.space	n/a
252.901	0.105	505802	keystroke_l	l	n/a
253.0665	0.135	506133	keystroke_i	i	n/a
253.1565	0.1495	506313	keystroke_f	f	n/a
253.261	0.09	506522	keystroke_e	e	n/a
253.456	0.0905	506912	keystroke_t	t	n/a
253.531	0.135	507062	keystroke_i	i	n/a
253.636	0.105	507272	keystroke_m	m	n/a
253.696	0.165	507392	keystroke_e	e	n/a
253.876	0.045	507752	keystroke_Key.space	Key.space	n/a
253.906	0.12	507812	keystroke_g	g	n/a
253.996	0.18	507992	keystroke_e	e	n/a
254.131	0.135	508262	keystroke_t	t	n/a
254.251	0.09	508502	keystroke_Key.space	Key.space	n/a
254.401	0.06	508802	keystroke_p	p	n/a
254.566	0.075	509132	keystroke_r	r	n/a
254.701	0.06	509402	keystroke_o	o	n/a
254.836	0.0905	509672	keystroke_b	b	n/a
254.956	0.135	509912	keystroke_l	l	n/a
255.121	0.09	510242	keystroke_e	e	n/a
255.241	0.0755	510482	keystroke_m	m	n/a
255.481	0.06	510962	keystroke_Key.enter	Key.enter	n/a
255.5455	7.774	511091	prompt	n/a	pennsylvania doctors read stainless\n
256.246	0.1055	512492	keystroke_p	p	n/a
256.3965	0.09	512793	keystroke_e	e	n/a
256.5165	0.195	513033	keystroke_n	n	n/a
256.7265	0.015	513453	keystroke_n	n	n/a
256.7565	0.105	513513	keystroke_s	s	n/a
256.8765	0.06	513753	keystroke_y	y	n/a
257.1015	0.105	514203	keystroke_l	l	n/a
257.2215	0.075	514443	keystroke_v	v	n/a
257.4015	0.09	514803	keystroke_a	a	n/a
257.5065	0.135	515013	keystroke_n	n	n/a
257.5965	0.18	515193	keystroke_i	i	n/a
257.8965	0.015	515793	keystroke_a	a	n/a
257.9415	0.105	515883	keystroke_Key.space	Key.space	n/a
258.2115	0.0895	516423	keystroke_d	d	n/a
258.361	0.09	516722	keystroke_o	o	n/a
258.526	0.015	517052	keystroke_c	c	n/a
258.976	0.12	517952	keystroke_t	t	n/a
259.141	0.09	518282	keystroke_o	o	n/a
259.426	0.135	518852	keystroke_r	r	n/a
259.681	0.15	519362	keystroke_s	s	n/a
259.786	0.12	519572	keystroke_Key.space	Key.space	n/a
260.026	0.12	520052	keystroke_r	r	n/a
260.086	0.165	520172	keystroke_e	e	n/a
260.296	0.18	520592	keystroke_a	a	n/a
260.446	0.12	520892	keystroke_d	d	n/a
260.611	0.075	521222	keystroke_Key.space	Key.space	n/a
260.701	0.105	521402	keystroke_s	s	n/a
261.046	0.075	522092	keystroke_t	t	n/a
261.211	0.12	522422	keystroke_a	a	n/a
261.301	0.18	522602	keystroke_i	i	n/a
261.406	0.135	522812	keystroke_n	n	n/a
261.661	0.135	523322	keystroke_l	l	n/a
261.781	0.135	523562	keystroke_e	e	n/a
261.871	0.12	523742	keystroke_s	s	n/a
262.081	0.09	524162	keystroke_s	s	n/a
263.251	0.06	526502	keystroke_Key.enter	Key.enter	n/a
263.327	4.591	526654	prompt	n/a	enjoy horror revision moved\n
263.941	0.105	527882	keystroke_e	e	n/a
264.031	0.06	528062	keystroke_n	n	n/a
264.211	0.3	528422	keystroke_j	j	n/a
264.301	0.225	528602	keystroke_o	o	n/a
264.616	0.105	529232	keystroke_y	y	n/a
264.781	0.105	529562	keystroke_Key.space	Key.space	n/a
265.021	0.12	530042	keystroke_h	h	n/a
265.096	0.15	530192	keystroke_o	o	n/a
265.231	0.075	530462	keystroke_r	r	n/a
265.396	0.075	530792	keystroke_r	r	n/a
265.456	0.09	530912	keystroke_o	o	n/a
265.576	0.06	531152	keystroke_r	r	n/a
265.666	0.075	531332	keystroke_Key.space	Key.space	n/a
266.116	0.105	532232	keystroke_r	r	n/a
266.206	0.075	532412	keystroke_e	e	n/a
266.386	0.135	532772	keystroke_v	v	n/a
266.491	0.105	532982	keystroke_i	i	n/a
266.641	0.06	533282	keystroke_s	s	n/a
266.686	0.165	533372	keystroke_i	i	n/a
266.806	0.225	533612	keystroke_o	o	n/a
266.941	0.12	533882	keystroke_n	n	n/a
267.001	0.105	534002	keystroke_Key.space	Key.space	n/a
267.151	0.135	534302	keystroke_m	m	n/a
267.271	0.18	534542	keystroke_o	o	n/a
267.331	0.135	534662	keystroke_v	v	n/a
267.436	0.09	534872	keystroke_e	e	n/a
267.676	0.135	535352	keystroke_d	d	n/a
267.841	0.075	535682	keystroke_Key.enter	Key.enter	n/a
267.9205	6.6195	535841	prompt	n/a	constraints portions planners separately\n
268.591	0.165	537182	keystroke_c	c	n/a
268.711	0.165	537422	keystroke_o	o	n/a
268.801	0.105	537602	keystroke_n	n	n/a
268.891	0.075	537782	keystroke_s	s	n/a
269.086	0.105	538172	keystroke_t	t	n/a
269.146	0.12	538292	keystroke_r	r	n/a
269.371	0.105	538742	keystroke_a	a	n/a
269.461	0.195	538922	keystroke_i	i	n/a
269.566	0.21	539132	keystroke_n	n	n/a
269.791	0.09	539582	keystroke_t	t	n/a
269.806	0.15	539612	keystroke_s	s	n/a
269.971	0.15	539942	keystroke_Key.space	Key.space	n/a
270.136	0.18	540272	keystroke_p	p	n/a
270.256	0.165	540512	keystroke_o	o	n/a
270.436	0.09	540872	keystroke_r	r	n/a
270.676	0.165	541352	keystroke_t	t	n/a
270.826	0.135	541652	keystroke_i	i	n/a
270.871	0.195	541742	keystroke_o	o	n/a
270.976	0.135	541952	keystroke_n	n	n/a
271.126	0.105	542252	keystroke_s	s	n/a
271.276	0.06	542552	keystroke_Key.space	Key.space	n/a
271.486	0.09	542972	keystroke_p	p	n/a
271.696	0.105	543392	keystroke_l	l	n/a
271.891	0.075	543782	keystroke_a	a	n/a
271.981	0.015	543962	keystroke_n	n	n/a
272.041	0.09	544082	keystroke_n	n	n/a
272.101	0.255	544202	keystroke_e	e	n/a
272.206	0.21	544412	keystroke_r	r	n/a
272.326	0.135	544652	keystroke_s	s	n/a
272.491	0.105	544982	keystroke_Key.space	Key.space	n/a
272.611	0.165	545222	keystroke_s	s	n/a
272.731	0.18	545462	keystroke_e	e	n/a
273.001	0.105	546002	keystroke_p	p	n/a
273.121	0.09	546242	keystroke_a	a	n/a
273.301	0.165	546602	keystroke_r	r	n/a
273.391	0.12	546782	keystroke_a	a	n/a
273.616	0.195	547232	keystroke_t	t	n/a
273.691	0.135	547382	keystroke_e	e	n/a
273.916	0.12	547832	keystroke_l	l	n/a
273.976	0.12	547952	keystroke_y	y	n/a
274.5165	0.015	549033	keystroke_Key.enter	Key.enter	n/a
274.5455	7.3075	549091	prompt	n/a	allah reveal adrian utilities\n
275.087	0.1045	550174	keystroke_a	a	n/a
275.2215	0.06	550443	keystroke_l	l	n/a
275.3555	0.0755	550711	keystroke_l	l	n/a
275.402	0.1345	550804	keystroke_a	a	n/a
275.5655	0.151	551131	keystroke_h	h	n/a
275.6705	0.21	551341	keystroke_Key.space	Key.space	n/a
275.8955	0.105	551791	keystroke_r	r	n/a
275.9565	0.134	551913	keystroke_e	e	n/a
276.3455	0.18	552691	keystroke_v	v	n/a
276.4655	0.12	552931	keystroke_e	e	n/a
276.7665	0.135	553533	keystroke_a	a	n/a
276.9155	0.151	553831	keystroke_l	l	n/a
277.0515	0.09	554103	keystroke_Key.space	Key.space	n/a
277.231	0.1205	554462	keystroke_a	a	n/a
277.3365	0.135	554673	keystroke_d	d	n/a
277.6215	0.105	555243	keystroke_r	r	n/a
277.7715	0.09	555543	keystroke_i	i	n/a
277.9065	0.135	555813	keystroke_a	a	n/a
278.0565	0.12	556113	keystroke_n	n	n/a
278.1465	0.0745	556293	keystroke_Key.space	Key.space	n/a
278.341	0.12	556682	keystroke_u	u	n/a
278.821	0.06	557642	keystroke_t	t	n/a
279.076	0.105	558152	keystroke_i	i	n/a
279.916	0.015	559832	keystroke_l	l	n/a
280.3055	0.121	560611	keystroke_i	i	n/a
280.5465	0.105	561093	keystroke_t	t	n/a
280.6965	0.105	561393	keystroke_i	i	n/a
280.7715	0.21	561543	keystroke_e	e	n/a
280.9215	0.135	561843	keystroke_s	s	n/a
281.776	0.075	563552	keystroke_Key.enter	Key.enter	n/a
281.857	8.223	563714	prompt	n/a	situation numbers composition virginia\n
282.631	0.09	565262	keystroke_s	s	n/a
282.796	0.105	565592	keystroke_i	i	n/a
282.916	0.09	565832	keystroke_t	t	n/a
283.021	0.06	566042	keystroke_u	u	n/a
283.082	0.119	566164	keystroke_a	a	n/a
283.246	0.12	566492	keystroke_t	t	n/a
283.381	0.135	566762	keystroke_i	i	n/a
283.456	0.21	566912	keystroke_o	o	n/a
283.561	0.165	567122	keystroke_n	n	n/a
283.681	0.135	567362	keystroke_Key.space	Key.space	n/a
283.831	0.09	567662	keystroke_n	n	n/a
283.891	0.105	567782	keystroke_u	u	n/a
284.116	0.075	568232	keystroke_m	m	n/a
284.341	0.0595	568682	keystroke_b	b	n/a
284.4155	0.241	568831	keystroke_e	e	n/a
284.537	0.1785	569074	keystroke_r	r	n/a
284.6405	0.1655	569281	keystroke_s	s	n/a
284.926	0.135	569852	keystroke_Key.space	Key.space	n/a
285.151	0.105	570302	keystroke_c	c	n/a
285.196	0.15	570392	keystroke_o	o	n/a
285.286	0.12	570572	keystroke_m	m	n/a
285.391	0.18	570782	keystroke_p	p	n/a
285.481	0.12	570962	keystroke_o	o	n/a
285.586	0.09	571172	keystroke_s	s	n/a
285.706	0.075	571412	keystroke_i	i	n/a
285.826	0.12	571652	keystroke_t	t	n/a
285.886	0.255	571772	keystroke_i	i	n/a
285.991	0.24	571982	keystroke_o	o	n/a
286.126	0.15	572252	keystroke_n	n	n/a
286.216	0.135	572432	keystroke_Key.space	Key.space	n/a
286.396	0.1045	572792	keystroke_v	v	n/a
286.5605	0.09	573121	keystroke_i	i	n/a
286.6365	0.1045	573273	keystroke_r	r	n/a
286.817	0.119	573634	keystroke_g	g	n/a
286.906	0.12	573812	keystroke_i	i	n/a
286.981	0.165	573962	keystroke_n	n	n/a
287.131	0.18	574262	keystroke_i	i	n/a
287.236	0.09	574472	keystroke_n	n	n/a
287.312	0.074	574624	keystroke_a	a	n/a
287.776	0.1045	575552	keystroke_Key.backspace	Key.backspace	n/a
288.0155	0.1065	576031	keystroke_a	a	n/a
288.4665	0.06	576933	keystroke_Key.backspace	Key.backspace	n/a
288.6465	0.06	577293	keystroke_Key.backspace	Key.backspace	n/a
289.3965	0.15	578793	keystroke_a	a	n/a
290.0265	0.045	580053	keystroke_Key.enter	Key.enter	n/a
290.0835	7.369	580167	prompt	n/a	ball spending camps helped\n
290.7915	0.045	581583	keystroke_a	a	n/a
291.4065	0.045	582813	keystroke_Key.backspace	Key.backspace	n/a
292.216	0.0605	584432	keystroke_Key.backspace	Key.backspace	n/a
292.3965	0.135	584793	keystroke_b	b	n/a
292.4715	0.135	584943	keystroke_a	a	n/a
292.6815	0.075	585363	keystroke_l	l	n/a
292.8315	0.135	585663	keystroke_l	l	n/a
292.9515	0.12	585903	keystroke_Key.space	Key.space	n/a
293.1015	0.075	586203	keystroke_s	s	n/a
293.1905	0.106	586381	keystroke_p	p	n/a
293.3115	0.075	586623	keystroke_e	e	n/a
293.4015	0.09	586803	keystroke_n	n	n/a
293.4915	0.12	586983	keystroke_d	d	n/a
293.5965	0.135	587193	keystroke_i	i	n/a
293.6565	0.255	587313	keystroke_n	n	n/a
293.9265	0.015	587853	keystroke_g	g	n/a
293.9565	0.105	587913	keystroke_Key.space	Key.space	n/a
294.1515	0.165	588303	keystroke_c	c	n/a
294.2865	0.1345	588573	keystroke_a	a	n/a
294.4655	0.181	588931	keystroke_m	m	n/a
294.6315	0.09	589263	keystroke_p	p	n/a
294.7365	0.105	589473	keystroke_s	s	n/a
294.8265	0.1045	589653	keystroke_Key.space	Key.space	n/a
294.991	0.075	589982	keystroke_h	h	n/a
295.111	0.06	590222	keystroke_e	e	n/a
295.246	0.105	590492	keystroke_l	l	n/a
295.366	0.045	590732	keystroke_p	p	n/a
295.367	0.059	590734	keystroke_[	[	n/a
295.456	0.015	590912	keystroke_p	p	n/a
295.936	0.06	591872	keystroke_Key.backspace	Key.backspace	n/a
296.071	0.09	592142	keystroke_Key.backspace	Key.backspace	n/a
296.206	0.0905	592412	keystroke_e	e	n/a
296.446	0.015	592892	keystroke_d	d	n/a
297.361	0.09	594722	keystroke_Key.enter	Key.enter	n/a
297.456	5.727	594912	prompt	n/a	publication scales statement twiki\n
298.186	0.195	596372	keystroke_p	p	n/a
298.411	0.105	596822	keystroke_u	u	n/a
298.561	0.075	597122	keystroke_b	b	n/a
298.666	0.075	597332	keystroke_l	l	n/a
298.816	0.121	597632	keystroke_i	i	n/a
298.921	0.1655	597842	keystroke_c	c	n/a
298.997	0.15	597994	keystroke_a	a	n/a
299.252	0.105	598504	keystroke_t	t	n/a
299.342	0.18	598684	keystroke_i	i	n/a
299.447	0.195	598894	keystroke_o	o	n/a
299.537	0.24	599074	keystroke_n	n	n/a
299.656	0.135	599312	keystroke_Key.space	Key.space	n/a
299.8365	0.1205	599673	keystroke_s	s	n/a
299.942	0.18	599884	keystroke_c	c	n/a
300.047	0.135	600094	keystroke_a	a	n/a
300.212	0.18	600424	keystroke_l	l	n/a
300.332	0.135	600664	keystroke_e	e	n/a
300.437	0.09	600874	keystroke_s	s	n/a
300.542	0.09	601084	keystroke_Key.space	Key.space	n/a
300.617	0.105	601234	keystroke_s	s	n/a
300.782	0.104	601564	keystroke_t	t	n/a
300.9165	0.0905	601833	keystroke_a	a	n/a
301.022	0.21	602044	keystroke_t	t	n/a
301.201	0.135	602402	keystroke_e	e	n/a
301.651	0.075	603302	keystroke_m	m	n/a
301.742	0.089	603484	keystroke_e	e	n/a
301.846	0.106	603692	keystroke_n	n	n/a
301.922	0.104	603844	keystroke_t	t	n/a
302.101	0.09	604202	keystroke_Key.space	Key.space	n/a
302.252	0.149	604504	keystroke_t	t	n/a
302.341	0.15	604682	keystroke_w	w	n/a
302.506	0.06	605012	keystroke_i	i	n/a
302.671	0.06	605342	keystroke_k	k	n/a
302.836	0.045	605672	keystroke_i	i	n/a
303.091	0.09	606182	keystroke_Key.enter	Key.enter	n/a
303.185	7.2345	606370	prompt	n/a	ratio moon bacon fantastic\n
303.827	0.164	607654	keystroke_r	r	n/a
303.931	0.105	607862	keystroke_a	a	n/a
304.141	0.105	608282	keystroke_t	t	n/a
304.231	0.195	608462	keystroke_i	i	n/a
304.306	0.24	608612	keystroke_o	o	n/a
304.411	0.15	608822	keystroke_n	n	n/a
304.531	0.045	609062	keystroke_Key.space	Key.space	n/a
304.621	0.135	609242	keystroke_m	m	n/a
304.741	0.105	609482	keystroke_o	o	n/a
304.981	0.121	609962	keystroke_o	o	n/a
305.671	0.075	611342	keystroke_Key.backspace	Key.backspace	n/a
305.881	0.03	611762	keystroke_Key.backspace	Key.backspace	n/a
306.031	0.045	612062	keystroke_Key.backspace	Key.backspace	n/a
306.181	0.075	612362	keystroke_Key.backspace	Key.backspace	n/a
306.346	0.06	612692	keystroke_Key.backspace	Key.backspace	n/a
306.676	0.12	613352	keystroke_Key.space	Key.space	n/a
306.812	0.074	613624	keystroke_m	m	n/a
306.856	0.09	613712	keystroke_o	o	n/a
307.021	0.165	614042	keystroke_o	o	n/a
307.141	0.165	614282	keystroke_n	n	n/a
307.276	0.105	614552	keystroke_Key.space	Key.space	n/a
307.576	0.15	615152	keystroke_b	b	n/a
307.651	0.21	615302	keystroke_a	a	n/a
307.801	0.15	615602	keystroke_c	c	n/a
307.921	0.18	615842	keystroke_o	o	n/a
308.041	0.135	616082	keystroke_n	n	n/a
308.326	0.135	616652	keystroke_Key.space	Key.space	n/a
308.881	0.165	617762	keystroke_f	f	n/a
309.001	0.12	618002	keystroke_a	a	n/a
309.196	0.09	618392	keystroke_n	n	n/a
309.286	0.15	618572	keystroke_t	t	n/a
309.421	0.18	618842	keystroke_a	a	n/a
309.5565	0.1195	619113	keystroke_s	s	n/a
309.736	0.105	619472	keystroke_t	t	n/a
309.871	0.09	619742	keystroke_i	i	n/a
310.051	0.06	620102	keystroke_c	c	n/a
310.3215	0.09	620643	keystroke_Key.enter	Key.enter	n/a
310.4235	4.0545	620847	prompt	n/a	fork culture well tracking\n
311.1165	0.105	622233	keystroke_f	f	n/a
311.2365	0.075	622473	keystroke_o	o	n/a
311.3265	0.105	622653	keystroke_r	r	n/a
311.4765	0.15	622953	keystroke_k	k	n/a
311.5815	0.12	623163	keystroke_Key.space	Key.space	n/a
311.9115	0.03	623823	keystroke_c	c	n/a
311.9265	0.075	623853	keystroke_u	u	n/a
312.0615	0.105	624123	keystroke_l	l	n/a
312.2115	0.075	624423	keystroke_t	t	n/a
312.3015	0.09	624603	keystroke_u	u	n/a
312.4065	0.195	624813	keystroke_r	r	n/a
312.5265	0.12	625053	keystroke_e	e	n/a
312.661	0.0455	625322	keystroke_Key.space	Key.space	n/a
312.7065	0.165	625413	keystroke_w	w	n/a
312.8265	0.12	625653	keystroke_e	e	n/a
312.9615	0.03	625923	keystroke_l	l	n/a
313.0815	0.12	626163	keystroke_l	l	n/a
313.1715	0.15	626343	keystroke_Key.space	Key.space	n/a
313.3365	0.12	626673	keystroke_t	t	n/a
313.3965	0.12	626793	keystroke_r	r	n/a
313.6065	0.225	627213	keystroke_a	a	n/a
313.7265	0.165	627453	keystroke_c	c	n/a
313.8765	0.045	627753	keystroke_k	k	n/a
313.9965	0.135	627993	keystroke_i	i	n/a
314.0715	0.135	628143	keystroke_n	n	n/a
314.1915	0.09	628383	keystroke_g	g	n/a
314.4015	0.075	628803	keystroke_Key.enter	Key.enter	n/a
314.4805	6.852	628961	prompt	n/a	resource symptoms attractions rebel\n
315.2565	0.06	630513	keystroke_r	r	n/a
315.3015	0.075	630603	keystroke_e	e	n/a
315.3315	0.12	630663	keystroke_s	s	n/a
315.3915	0.165	630783	keystroke_o	o	n/a
315.4965	0.195	630993	keystroke_u	u	n/a
315.6465	0.135	631293	keystroke_r	r	n/a
315.9615	0.045	631923	keystroke_c	c	n/a
316.1865	0.1045	632373	keystroke_e	e	n/a
316.292	0.089	632584	keystroke_Key.space	Key.space	n/a
316.382	0.179	632764	keystroke_s	s	n/a
316.576	0.015	633152	keystroke_y	y	n/a
316.726	0.075	633452	keystroke_m	m	n/a
317.071	0.165	634142	keystroke_p	p	n/a
317.191	0.105	634382	keystroke_o	o	n/a
317.566	0.075	635132	keystroke_Key.backspace	Key.backspace	n/a
317.776	0.06	635552	keystroke_t	t	n/a
317.821	0.15	635642	keystroke_o	o	n/a
317.911	0.15	635822	keystroke_m	m	n/a
318.196	0.0905	636392	keystroke_s	s	n/a
318.3465	0.105	636693	keystroke_Key.space	Key.space	n/a
318.5565	0.12	637113	keystroke_a	a	n/a
318.781	0.045	637562	keystroke_t	t	n/a
318.8865	0.135	637773	keystroke_t	t	n/a
318.9765	0.12	637953	keystroke_r	r	n/a
319.186	0.3155	638372	keystroke_a	a	n/a
319.4265	0.15	638853	keystroke_c	c	n/a
319.816	0.105	639632	keystroke_t	t	n/a
319.906	0.225	639812	keystroke_i	i	n/a
320.041	0.1805	640082	keystroke_o	o	n/a
320.146	0.1205	640292	keystroke_n	n	n/a
320.2515	0.09	640503	keystroke_s	s	n/a
320.416	0.045	640832	keystroke_Key.space	Key.space	n/a
320.536	0.1355	641072	keystroke_r	r	n/a
320.611	0.1205	641222	keystroke_e	e	n/a
320.7465	0.06	641493	keystroke_b	b	n/a
320.8365	0.075	641673	keystroke_e	e	n/a
320.9715	0.06	641943	keystroke_l	l	n/a
321.2865	0.045	642573	keystroke_Key.enter	Key.enter	n/a
321.335	5.428	642670	prompt	n/a	font taxi nation delaware\n
322.261	0.105	644522	keystroke_f	f	n/a
322.367	0.194	644734	keystroke_o	o	n/a
322.441	0.1505	644882	keystroke_n	n	n/a
322.606	0.09	645212	keystroke_t	t	n/a
322.741	0.06	645482	keystroke_Key.space	Key.space	n/a
322.906	0.1055	645812	keystroke_t	t	n/a
323.1315	0.105	646263	keystroke_a	a	n/a
323.4165	0.06	646833	keystroke_x	x	n/a
324.0315	0.12	648063	keystroke_i	i	n/a
324.1215	0.105	648243	keystroke_Key.space	Key.space	n/a
324.2865	0.12	648573	keystroke_n	n	n/a
324.3015	0.075	648603	keystroke_a	a	n/a
324.4515	0.12	648903	keystroke_t	t	n/a
324.5415	0.21	649083	keystroke_i	i	n/a
324.6615	0.165	649323	keystroke_o	o	n/a
324.7665	0.135	649533	keystroke_n	n	n/a
324.8415	0.12	649683	keystroke_Key.space	Key.space	n/a
325.1115	0.18	650223	keystroke_d	d	n/a
325.2165	0.135	650433	keystroke_e	e	n/a
325.4415	0.09	650883	keystroke_l	l	n/a
325.5015	0.105	651003	keystroke_a	a	n/a
325.8615	0.135	651723	keystroke_w	w	n/a
325.9365	0.12	651873	keystroke_a	a	n/a
326.2365	0.195	652473	keystroke_r	r	n/a
326.3265	0.12	652653	keystroke_e	e	n/a
326.7165	0.045	653433	keystroke_Key.enter	Key.enter	n/a
326.7655	8	653531	prompt	n/a	skip desperate wholesale involvement\n
327.4065	0.105	654813	keystroke_s	s	n/a
327.4815	0.075	654963	keystroke_k	k	n/a
327.6465	0.15	655293	keystroke_i	i	n/a
327.7365	0.135	655473	keystroke_p	p	n/a
327.8115	0.15	655623	keystroke_Key.space	Key.space	n/a
328.1865	0.21	656373	keystroke_d	d	n/a
328.2765	0.21	656553	keystroke_e	e	n/a
328.4115	0.15	656823	keystroke_s	s	n/a
328.6065	0.105	657213	keystroke_p	p	n/a
328.6815	0.165	657363	keystroke_e	e	n/a
328.7865	0.15	657573	keystroke_r	r	n/a
328.9515	0.09	657903	keystroke_a	a	n/a
329.1465	0.15	658293	keystroke_t	t	n/a
329.2215	0.105	658443	keystroke_e	e	n/a
329.6715	0.075	659343	keystroke_Key.space	Key.space	n/a
329.9415	0.075	659883	keystroke_w	w	n/a
330.0315	0.135	660063	keystroke_h	h	n/a
330.1215	0.105	660243	keystroke_o	o	n/a
330.3165	0.105	660633	keystroke_l	l	n/a
330.4965	0.165	660993	keystroke_e	e	n/a
330.8715	0.18	661743	keystroke_s	s	n/a
330.9465	0.15	661893	keystroke_a	a	n/a
331.1415	0.09	662283	keystroke_l	l	n/a
331.2465	0.09	662493	keystroke_e	e	n/a
331.4715	0.15	662943	keystroke_Key.space	Key.space	n/a
331.7265	0.18	663453	keystroke_i	i	n/a
331.8015	0.18	663603	keystroke_n	n	n/a
332.0565	0.105	664113	keystroke_v	v	n/a
332.2215	0.075	664443	keystroke_o	o	n/a
332.7465	0.09	665493	keystroke_l	l	n/a
332.8965	0.2405	665793	keystroke_v	v	n/a
333.0315	0.1355	666063	keystroke_e	e	n/a
333.257	0.075	666514	keystroke_m	m	n/a
333.317	0.105	666634	keystroke_e	e	n/a
333.437	0.075	666874	keystroke_n	n	n/a
333.587	0.045	667174	keystroke_t	t	n/a
334.682	0.075	669364	keystroke_Key.enter	Key.enter	n/a
334.7695	5.253	669539	prompt	n/a	greenhouse male racial powell\n
335.5965	0.18	671193	keystroke_f	f	n/a
335.956	0.09	671912	keystroke_Key.backspace	Key.backspace	n/a
336.047	0.164	672094	keystroke_g	g	n/a
336.121	0.15	672242	keystroke_r	r	n/a
336.226	0.135	672452	keystroke_e	e	n/a
336.481	0.105	672962	keystroke_e	e	n/a
336.661	0.075	673322	keystroke_n	n	n/a
336.886	0.12	673772	keystroke_h	h	n/a
336.976	0.21	673952	keystroke_o	o	n/a
337.096	0.135	674192	keystroke_u	u	n/a
337.141	0.1505	674282	keystroke_s	s	n/a
337.232	0.134	674464	keystroke_e	e	n/a
337.336	0.0905	674672	keystroke_Key.space	Key.space	n/a
337.486	0.105	674972	keystroke_m	m	n/a
337.606	0.12	675212	keystroke_a	a	n/a
337.711	0.105	675422	keystroke_l	l	n/a
337.861	0.06	675722	keystroke_e	e	n/a
337.891	0.09	675782	keystroke_Key.space	Key.space	n/a
338.071	0.135	676142	keystroke_r	r	n/a
338.161	0.12	676322	keystroke_a	a	n/a
338.357	0.119	676714	keystroke_c	c	n/a
338.461	0.075	676922	keystroke_i	i	n/a
338.581	0.09	677162	keystroke_a	a	n/a
338.656	0.09	677312	keystroke_l	l	n/a
338.731	0.12	677462	keystroke_Key.space	Key.space	n/a
338.912	0.149	677824	keystroke_p	p	n/a
339.001	0.1805	678002	keystroke_o	o	n/a
339.076	0.1505	678152	keystroke_w	w	n/a
339.1665	0.105	678333	keystroke_e	e	n/a
339.5115	0.075	679023	keystroke_l	l	n/a
339.646	0.135	679292	keystroke_l	l	n/a
339.946	0.075	679892	keystroke_Key.enter	Key.enter	n/a
340.0275	6.1605	680055	prompt	n/a	disc bookmark nomination academic\n
340.681	0.09	681362	keystroke_d	d	n/a
340.786	0.09	681572	keystroke_i	i	n/a
340.861	0.24	681722	keystroke_s	s	n/a
341.086	0.105	682172	keystroke_c	c	n/a
341.206	0.1055	682412	keystroke_Key.space	Key.space	n/a
341.5365	0.09	683073	keystroke_b	b	n/a
341.6415	0.12	683283	keystroke_o	o	n/a
341.776	0.1505	683552	keystroke_o	o	n/a
341.8665	0.12	683733	keystroke_k	k	n/a
341.9415	0.105	683883	keystroke_Key.space	Key.space	n/a
342.3465	0.075	684693	keystroke_Key.backspace	Key.backspace	n/a
342.5865	0.1655	685173	keystroke_m	m	n/a
342.677	0.24	685354	keystroke_a	a	n/a
342.827	0.165	685654	keystroke_r	r	n/a
342.962	0.15	685924	keystroke_k	k	n/a
343.052	0.105	686104	keystroke_Key.space	Key.space	n/a
343.292	0.135	686584	keystroke_n	n	n/a
343.367	0.12	686734	keystroke_o	o	n/a
343.547	0.165	687094	keystroke_m	m	n/a
343.682	0.165	687364	keystroke_i	i	n/a
343.862	0.12	687724	keystroke_n	n	n/a
343.997	0.09	687994	keystroke_a	a	n/a
344.177	0.1345	688354	keystroke_t	t	n/a
344.2665	0.165	688533	keystroke_i	i	n/a
344.3715	0.18	688743	keystroke_o	o	n/a
344.4765	0.165	688953	keystroke_n	n	n/a
344.5965	0.135	689193	keystroke_Key.space	Key.space	n/a
344.6865	0.12	689373	keystroke_a	a	n/a
344.8965	0.165	689793	keystroke_c	c	n/a
345.0015	0.135	690003	keystroke_a	a	n/a
345.1965	0.21	690393	keystroke_d	d	n/a
345.3165	0.12	690633	keystroke_e	e	n/a
345.4215	0.12	690843	keystroke_m	m	n/a
345.5115	0.15	691023	keystroke_i	i	n/a
345.6465	0.1345	691293	keystroke_c	c	n/a
346.0965	0.09	692193	keystroke_Key.enter	Key.enter	n/a
346.191	7.152	692382	prompt	n/a	strategic chronicles scales frontier\n
346.757	0.06	693514	keystroke_s	s	n/a
347.057	0.165	694114	keystroke_t	t	n/a
347.147	0.135	694294	keystroke_r	r	n/a
347.387	0.105	694774	keystroke_a	a	n/a
347.882	0.0895	695764	keystroke_t	t	n/a
347.9415	0.09	695883	keystroke_e	e	n/a
348.167	0.075	696334	keystroke_g	g	n/a
348.3615	0.105	696723	keystroke_i	i	n/a
348.4815	0.06	696963	keystroke_c	c	n/a
348.5565	0.09	697113	keystroke_Key.space	Key.space	n/a
348.9315	0.12	697863	keystroke_c	c	n/a
349.0215	0.105	698043	keystroke_h	h	n/a
349.1865	0.105	698373	keystroke_r	r	n/a
349.2615	0.105	698523	keystroke_o	o	n/a
349.3675	0.119	698735	keystroke_n	n	n/a
349.771	0.121	699542	keystroke_i	i	n/a
350.012	0.03	700024	keystroke_c	c	n/a
350.342	0.09	700684	keystroke_l	l	n/a
350.447	0.165	700894	keystroke_e	e	n/a
350.537	0.165	701074	keystroke_s	s	n/a
350.657	0.09	701314	keystroke_Key.space	Key.space	n/a
350.777	0.089	701554	keystroke_s	s	n/a
351.062	0.135	702124	keystroke_c	c	n/a
351.122	0.134	702244	keystroke_a	a	n/a
351.317	0.074	702634	keystroke_l	l	n/a
351.407	0.179	702814	keystroke_e	e	n/a
351.497	0.149	702994	keystroke_s	s	n/a
351.887	0.119	703774	keystroke_Key.space	Key.space	n/a
352.051	0.12	704102	keystroke_f	f	n/a
352.112	0.134	704224	keystroke_r	r	n/a
352.231	0.225	704462	keystroke_o	o	n/a
352.337	0.104	704674	keystroke_n	n	n/a
352.5165	0.06	705033	keystroke_t	t	n/a
352.5615	0.12	705123	keystroke_i	i	n/a
352.6665	0.195	705333	keystroke_e	e	n/a
352.7715	0.12	705543	keystroke_r	r	n/a
353.2815	0.06	706563	keystroke_Key.enter	Key.enter	n/a
353.3465	5.5765	706693	prompt	n/a	partner foods vertex node\n
354.0165	0.03	708033	keystroke_p	p	n/a
354.0315	0.09	708063	keystroke_a	a	n/a
354.0915	0.045	708183	keystroke_p	p	n/a
354.8715	0.075	709743	keystroke_Key.backspace	Key.backspace	n/a
354.9765	0.09	709953	keystroke_r	r	n/a
355.1715	0.09	710343	keystroke_t	t	n/a
355.3215	0.09	710643	keystroke_n	n	n/a
355.4565	0.12	710913	keystroke_e	e	n/a
355.5465	0.105	711093	keystroke_r	r	n/a
355.6665	0.0755	711333	keystroke_Key.space	Key.space	n/a
355.787	0.12	711574	keystroke_f	f	n/a
355.892	0.06	711784	keystroke_o	o	n/a
356.042	0.09	712084	keystroke_o	o	n/a
356.117	0.135	712234	keystroke_d	d	n/a
356.177	0.12	712354	keystroke_s	s	n/a
356.387	0.075	712774	keystroke_Key.space	Key.space	n/a
356.807	0.165	713614	keystroke_v	v	n/a
357.062	0.24	714124	keystroke_e	e	n/a
357.227	0.15	714454	keystroke_r	r	n/a
357.452	0.15	714904	keystroke_t	t	n/a
357.557	0.1045	715114	keystroke_e	e	n/a
357.8115	0.135	715623	keystroke_x	x	n/a
357.9765	0.09	715953	keystroke_Key.space	Key.space	n/a
358.1115	0.135	716223	keystroke_n	n	n/a
358.2015	0.12	716403	keystroke_o	o	n/a
358.4865	0.12	716973	keystroke_d	d	n/a
358.7115	0.075	717423	keystroke_e	e	n/a
358.8765	0.045	717753	keystroke_Key.enter	Key.enter	n/a
358.927	6.7675	717854	prompt	n/a	conf village tokyo article\n
359.582	0.21	719164	keystroke_c	c	n/a
359.687	0.21	719374	keystroke_o	o	n/a
359.837	0.18	719674	keystroke_n	n	n/a
360.047	0.09	720094	keystroke_f	f	n/a
360.167	0.12	720334	keystroke_Key.space	Key.space	n/a
360.841	0.09	721682	keystroke_v	v	n/a
360.947	0.059	721894	keystroke_i	i	n/a
361.141	0.061	722282	keystroke_l	l	n/a
361.216	0.12	722432	keystroke_l	l	n/a
361.936	0.06	723872	keystroke_a	a	n/a
362.131	0.165	724262	keystroke_g	g	n/a
362.221	0.165	724442	keystroke_e	e	n/a
362.401	0.075	724802	keystroke_Key.space	Key.space	n/a
362.567	0.089	725134	keystroke_t	t	n/a
362.686	0.075	725372	keystroke_o	o	n/a
362.881	0.105	725762	keystroke_k	k	n/a
363.241	0.15	726482	keystroke_y	y	n/a
363.331	0.165	726662	keystroke_o	o	n/a
363.436	0.12	726872	keystroke_Key.space	Key.space	n/a
363.736	0.09	727472	keystroke_a	a	n/a
363.886	0.09	727772	keystroke_r	r	n/a
364.082	0.059	728164	keystroke_t	t	n/a
364.277	0.014	728554	keystroke_i	i	n/a
364.322	0.104	728644	keystroke_c	c	n/a
364.442	0.1195	728884	keystroke_l	l	n/a
364.5765	0.075	729153	keystroke_e	e	n/a
365.6115	0.075	731223	keystroke_Key.enter	Key.enter	n/a
365.703	8.152	731406	prompt	n/a	behavioral tune zones invasion\n
366.6315	0.075	733263	keystroke_b	b	n/a
366.7365	0.0905	733473	keystroke_e	e	n/a
366.842	0.09	733684	keystroke_h	h	n/a
366.917	0.105	733834	keystroke_a	a	n/a
367.082	0.09	734164	keystroke_v	v	n/a
367.202	0.2095	734404	keystroke_i	i	n/a
367.3215	0.12	734643	keystroke_o	o	n/a
369.452	0.12	738904	keystroke_r	r	n/a
369.707	0.105	739414	keystroke_a	a	n/a
369.872	0.12	739744	keystroke_l	l	n/a
369.977	0.105	739954	keystroke_Key.space	Key.space	n/a
370.7115	0.06	741423	keystroke_t	t	n/a
370.7565	0.135	741513	keystroke_u	u	n/a
370.8465	0.15	741693	keystroke_n	n	n/a
370.8765	0.105	741753	keystroke_e	e	n/a
371.0115	0.105	742023	keystroke_Key.space	Key.space	n/a
371.1315	0.105	742263	keystroke_z	z	n/a
371.2215	0.165	742443	keystroke_o	o	n/a
371.3115	0.135	742623	keystroke_n	n	n/a
371.4015	0.18	742803	keystroke_e	e	n/a
371.5365	0.12	743073	keystroke_s	s	n/a
372.1215	0.1045	744243	keystroke_Key.space	Key.space	n/a
372.241	0.135	744482	keystroke_i	i	n/a
372.316	0.15	744632	keystroke_n	n	n/a
372.481	0.165	744962	keystroke_v	v	n/a
372.556	0.195	745112	keystroke_a	a	n/a
372.706	0.135	745412	keystroke_s	s	n/a
372.886	0.105	745772	keystroke_i	i	n/a
372.961	0.18	745922	keystroke_o	o	n/a
373.051	0.105	746102	keystroke_n	n	n/a
373.816	0.03	747632	keystroke_Key.enter	Key.enter	n/a
373.86	6.018	747720	prompt	n/a	oklahoma exceptional pulled vista\n
374.612	0.165	749224	keystroke_o	o	n/a
374.762	0.105	749524	keystroke_k	k	n/a
374.957	0.105	749914	keystroke_l	l	n/a
375.077	0.09	750154	keystroke_a	a	n/a
375.377	0.1045	750754	keystroke_h	h	n/a
375.4515	0.21	750903	keystroke_o	o	n/a
375.6465	0.18	751293	keystroke_m	m	n/a
375.8415	0.075	751683	keystroke_a	a	n/a
375.9315	0.075	751863	keystroke_Key.space	Key.space	n/a
376.0665	0.075	752133	keystroke_e	e	n/a
376.2915	0.09	752583	keystroke_x	x	n/a
376.5165	0.105	753033	keystroke_c	c	n/a
376.6965	0.06	753393	keystroke_e	e	n/a
376.7715	0.075	753543	keystroke_p	p	n/a
376.8765	0.09	753753	keystroke_t	t	n/a
376.9515	0.165	753903	keystroke_i	i	n/a
377.0715	0.135	754143	keystroke_o	o	n/a
377.1765	0.12	754353	keystroke_n	n	n/a
377.3115	0.105	754623	keystroke_a	a	n/a
377.4315	0.105	754863	keystroke_l	l	n/a
377.5515	0.09	755103	keystroke_Key.space	Key.space	n/a
377.8365	0.06	755673	keystroke_p	p	n/a
377.9115	0.045	755823	keystroke_u	u	n/a
378.2115	0.045	756423	keystroke_l	l	n/a
378.3765	0.045	756753	keystroke_l	l	n/a
378.4365	0.06	756873	keystroke_e	e	n/a
378.6015	0.09	757203	keystroke_d	d	n/a
378.7065	0.09	757413	keystroke_Key.space	Key.space	n/a
378.8565	0.075	757713	keystroke_v	v	n/a
378.9165	0.09	757833	keystroke_i	i	n/a
379.0215	0.09	758043	keystroke_s	s	n/a
379.2465	0.075	758493	keystroke_t	t	n/a
379.4415	0.09	758883	keystroke_a	a	n/a
379.7565	0.12	759513	keystroke_Key.enter	Key.enter	n/a
379.8805	4.6325	759761	prompt	n/a	what hawk velvet fleet\n
380.4165	0.105	760833	keystroke_w	w	n/a
380.5225	0.089	761045	keystroke_h	h	n/a
380.5965	0.105	761193	keystroke_a	a	n/a
380.7765	0.09	761553	keystroke_t	t	n/a
380.8665	0.075	761733	keystroke_Key.space	Key.space	n/a
381.1065	0.12	762213	keystroke_h	h	n/a
381.1815	0.09	762363	keystroke_a	a	n/a
381.3615	0.12	762723	keystroke_w	w	n/a
381.5265	0.135	763053	keystroke_k	k	n/a
381.6165	0.165	763233	keystroke_Key.space	Key.space	n/a
381.931	0.1055	763862	keystroke_v	v	n/a
382.2915	0.12	764583	keystroke_e	e	n/a
382.5165	0.09	765033	keystroke_l	l	n/a
382.7265	0.15	765453	keystroke_v	v	n/a
382.8315	0.12	765663	keystroke_e	e	n/a
383.0865	0.12	766173	keystroke_t	t	n/a
383.2965	0.12	766593	keystroke_Key.space	Key.space	n/a
383.5365	0.135	767073	keystroke_f	f	n/a
383.7315	0.21	767463	keystroke_l	l	n/a
383.8965	0.1195	767793	keystroke_e	e	n/a
384.031	0.1955	768062	keystroke_e	e	n/a
384.1965	0.12	768393	keystroke_t	t	n/a
384.4515	0.06	768903	keystroke_Key.enter	Key.enter	n/a
384.5165	6.1165	769033	prompt	n/a	heath weights hampton donors\n
385.2465	0.105	770493	keystroke_h	h	n/a
385.3365	0.21	770673	keystroke_e	e	n/a
385.4565	0.165	770913	keystroke_a	a	n/a
386.2215	0.135	772443	keystroke_t	t	n/a
386.4315	0.06	772863	keystroke_h	h	n/a
386.4465	0.12	772893	keystroke_Key.space	Key.space	n/a
387.1215	0.15	774243	keystroke_w	w	n/a
387.2565	0.09	774513	keystroke_e	e	n/a
387.3765	0.075	774753	keystroke_i	i	n/a
387.4815	0.135	774963	keystroke_g	g	n/a
387.6315	0.0445	775263	keystroke_h	h	n/a
387.721	0.165	775442	keystroke_t	t	n/a
387.796	0.18	775592	keystroke_s	s	n/a
387.961	0.075	775922	keystroke_Key.space	Key.space	n/a
388.066	0.12	776132	keystroke_h	h	n/a
388.201	0.09	776402	keystroke_a	a	n/a
388.321	0.18	776642	keystroke_m	m	n/a
388.426	0.105	776852	keystroke_p	p	n/a
388.576	0.09	777152	keystroke_t	t	n/a
388.681	0.165	777362	keystroke_o	o	n/a
388.816	0.165	777632	keystroke_n	n	n/a
388.936	0.105	777872	keystroke_Key.space	Key.space	n/a
389.101	0.12	778202	keystroke_d	d	n/a
389.191	0.105	778382	keystroke_o	o	n/a
389.281	0.15	778562	keystroke_n	n	n/a
389.386	0.165	778772	keystroke_o	o	n/a
389.731	0.06	779462	keystroke_t	t	n/a
390.092	0.06	780184	keystroke_Key.backspace	Key.backspace	n/a
390.137	0.18	780274	keystroke_r	r	n/a
390.242	0.119	780484	keystroke_s	s	n/a
390.5565	0.075	781113	keystroke_Key.enter	Key.enter	n/a
390.6355	5.0225	781271	prompt	n/a	remote possibilities bald lets\n
391.2465	0.135	782493	keystroke_r	r	n/a
391.3065	0.135	782613	keystroke_e	e	n/a
391.4265	0.12	782853	keystroke_m	m	n/a
391.501	0.15	783002	keystroke_o	o	n/a
392.102	0.1045	784204	keystroke_t	t	n/a
392.1315	0.135	784263	keystroke_e	e	n/a
392.2365	0.105	784473	keystroke_Key.space	Key.space	n/a
392.3715	0.2095	784743	keystroke_p	p	n/a
392.4765	0.1345	784953	keystroke_o	o	n/a
392.641	0.075	785282	keystroke_s	s	n/a
392.7915	0.12	785583	keystroke_s	s	n/a
392.8515	0.135	785703	keystroke_i	i	n/a
392.9565	0.165	785913	keystroke_b	b	n/a
393.092	0.15	786184	keystroke_i	i	n/a
393.242	0.18	786484	keystroke_l	l	n/a
393.377	0.15	786754	keystroke_i	i	n/a
393.632	0.134	787264	keystroke_t	t	n/a
393.782	0.09	787564	keystroke_i	i	n/a
393.887	0.18	787774	keystroke_e	e	n/a
394.037	0.12	788074	keystroke_s	s	n/a
394.142	0.075	788284	keystroke_Key.space	Key.space	n/a
394.277	0.09	788554	keystroke_b	b	n/a
394.382	0.09	788764	keystroke_a	a	n/a
394.501	0.105	789002	keystroke_l	l	n/a
394.621	0.105	789242	keystroke_d	d	n/a
394.741	0.09	789482	keystroke_Key.space	Key.space	n/a
394.892	0.074	789784	keystroke_l	l	n/a
394.981	0.12	789962	keystroke_e	e	n/a
395.161	0.165	790322	keystroke_t	t	n/a
395.311	0.075	790622	keystroke_s	s	n/a
395.596	0.06	791192	keystroke_Key.enter	Key.enter	n/a
395.661	5.742	791322	prompt	n/a	reality amounts ongoing developmental\n
396.331	0.12	792662	keystroke_r	r	n/a
396.406	0.225	792812	keystroke_e	e	n/a
396.541	0.15	793082	keystroke_a	a	n/a
396.646	0.135	793292	keystroke_l	l	n/a
396.751	0.15	793502	keystroke_i	i	n/a
396.871	0.105	793742	keystroke_t	t	n/a
397.006	0.12	794012	keystroke_y	y	n/a
397.066	0.135	794132	keystroke_Key.space	Key.space	n/a
397.202	0.059	794404	keystroke_a	a	n/a
397.291	0.165	794582	keystroke_m	m	n/a
397.396	0.24	794792	keystroke_o	o	n/a
397.546	0.255	795092	keystroke_u	u	n/a
397.681	0.21	795362	keystroke_n	n	n/a
397.876	0.09	795752	keystroke_t	t	n/a
397.981	0.12	795962	keystroke_s	s	n/a
398.146	0.06	796292	keystroke_Key.space	Key.space	n/a
398.311	0.18	796622	keystroke_o	o	n/a
398.476	0.061	796952	keystroke_n	n	n/a
398.641	0.105	797282	keystroke_g	g	n/a
398.731	0.15	797462	keystroke_o	o	n/a
398.836	0.18	797672	keystroke_i	i	n/a
398.9265	0.1795	797853	keystroke_n	n	n/a
399.076	0.09	798152	keystroke_g	g	n/a
399.181	0.105	798362	keystroke_Key.space	Key.space	n/a
399.346	0.135	798692	keystroke_d	d	n/a
399.421	0.12	798842	keystroke_e	e	n/a
399.676	0.135	799352	keystroke_v	v	n/a
399.796	0.075	799592	keystroke_e	e	n/a
399.9165	0.0895	799833	keystroke_l	l	n/a
400.126	0.1355	800252	keystroke_o	o	n/a
400.2165	0.105	800433	keystroke_p	p	n/a
400.4115	0.09	800823	keystroke_m	m	n/a
400.5165	0.09	801033	keystroke_e	e	n/a
400.6215	0.105	801243	keystroke_n	n	n/a
400.7415	0.075	801483	keystroke_t	t	n/a
400.8765	0.0905	801753	keystroke_a	a	n/a
401.042	0.045	802084	keystroke_l	l	n/a
401.387	0.015	802774	keystroke_Key.enter	Key.enter	n/a
401.407	9.3025	802814	prompt	n/a	semiconductor oregon forces schemes\n
402.002	0.21	804004	keystroke_s	s	n/a
402.122	0.1345	804244	keystroke_e	e	n/a
402.2715	0.21	804543	keystroke_m	m	n/a
402.3915	0.135	804783	keystroke_i	i	n/a
402.7065	0.09	805413	keystroke_c	c	n/a
402.8115	0.1505	805623	keystroke_o	o	n/a
402.8715	0.1045	805743	keystroke_n	n	n/a
403.051	0.105	806102	keystroke_d	d	n/a
403.321	0.105	806642	keystroke_u	u	n/a
403.441	0.075	806882	keystroke_c	c	n/a
403.726	0.06	807452	keystroke_t	t	n/a
403.847	0.104	807694	keystroke_o	o	n/a
403.952	0.089	807904	keystroke_r	r	n/a
404.446	0.105	808892	keystroke_Key.space	Key.space	n/a
404.686	0.045	809372	keystroke_o	o	n/a
404.701	0.135	809402	keystroke_r	r	n/a
404.777	0.119	809554	keystroke_e	e	n/a
406.5915	0.12	813183	keystroke_g	g	n/a
406.727	0.1645	813454	keystroke_o	o	n/a
406.8315	0.135	813663	keystroke_n	n	n/a
406.9365	0.12	813873	keystroke_Key.space	Key.space	n/a
407.2665	0.105	814533	keystroke_f	f	n/a
407.4015	0.105	814803	keystroke_o	o	n/a
407.4915	0.06	814983	keystroke_r	r	n/a
407.7765	0.165	815553	keystroke_c	c	n/a
408.047	0.179	816094	keystroke_e	e	n/a
408.167	0.1345	816334	keystroke_s	s	n/a
409.0665	0.12	818133	keystroke_Key.space	Key.space	n/a
409.2015	0.105	818403	keystroke_s	s	n/a
409.4265	0.1495	818853	keystroke_c	c	n/a
409.651	0.075	819302	keystroke_h	h	n/a
409.846	0.045	819692	keystroke_e	e	n/a
409.921	0.06	819842	keystroke_m	m	n/a
409.996	0.195	819992	keystroke_e	e	n/a
410.146	0.12	820292	keystroke_s	s	n/a
410.596	0.105	821192	keystroke_Key.enter	Key.enter	n/a
410.7135	8.141	821427	prompt	n/a	innovative selections details pays\n
411.257	0.12	822514	keystroke_i	i	n/a
411.332	0.09	822664	keystroke_n	n	n/a
411.512	0.12	823024	keystroke_n	n	n/a
411.617	0.15	823234	keystroke_o	o	n/a
412.112	0.135	824224	keystroke_v	v	n/a
412.202	0.12	824404	keystroke_a	a	n/a
412.5015	0.015	825003	keystroke_t	t	n/a
412.592	0.15	825184	keystroke_i	i	n/a
412.772	0.225	825544	keystroke_v	v	n/a
412.907	0.15	825814	keystroke_e	e	n/a
413.042	0.12	826084	keystroke_Key.space	Key.space	n/a
413.192	0.18	826384	keystroke_s	s	n/a
413.327	0.105	826654	keystroke_e	e	n/a
413.477	0.0595	826954	keystroke_l	l	n/a
413.522	0.0895	827044	keystroke_e	e	n/a
413.7465	0.075	827493	keystroke_v	v	n/a
413.9415	0.09	827883	keystroke_t	t	n/a
414.0165	0.21	828033	keystroke_i	i	n/a
414.1515	0.165	828303	keystroke_o	o	n/a
414.2415	0.105	828483	keystroke_n	n	n/a
414.5265	0.075	829053	keystroke_Key.backspace	Key.backspace	n/a
414.6915	0.06	829383	keystroke_Key.backspace	Key.backspace	n/a
414.8565	0.06	829713	keystroke_Key.backspace	Key.backspace	n/a
415.0215	0.06	830043	keystroke_Key.backspace	Key.backspace	n/a
415.5165	0.06	831033	keystroke_Key.backspace	Key.backspace	n/a
415.7865	0.075	831573	keystroke_c	c	n/a
416.0415	0.09	832083	keystroke_t	t	n/a
416.1465	0.18	832293	keystroke_i	i	n/a
416.2515	0.225	832503	keystroke_o	o	n/a
416.3565	0.135	832713	keystroke_n	n	n/a
416.5065	0.075	833013	keystroke_s	s	n/a
416.6115	0.09	833223	keystroke_Key.space	Key.space	n/a
416.8815	0.24	833763	keystroke_d	d	n/a
417.0165	0.165	834033	keystroke_e	e	n/a
417.2715	0.075	834543	keystroke_t	t	n/a
417.4515	0.12	834903	keystroke_a	a	n/a
417.5865	0.0455	835173	keystroke_i	i	n/a
417.721	0.105	835442	keystroke_l	l	n/a
417.841	0.075	835682	keystroke_s	s	n/a
417.917	0.104	835834	keystroke_Key.space	Key.space	n/a
418.036	0.12	836072	keystroke_p	p	n/a
418.157	0.119	836314	keystroke_a	a	n/a
418.336	0.09	836672	keystroke_y	y	n/a
418.516	0.06	837032	keystroke_s	s	n/a
418.786	0.06	837572	keystroke_Key.enter	Key.enter	n/a
418.8585	6.77	837717	prompt	n/a	jackets sensors soul informative\n
419.6715	0.06	839343	keystroke_h	h	n/a
420.016	0.075	840032	keystroke_Key.backspace	Key.backspace	n/a
420.271	0.075	840542	keystroke_j	j	n/a
420.361	0.151	840722	keystroke_a	a	n/a
420.436	0.151	840872	keystroke_c	c	n/a
420.602	0.09	841204	keystroke_k	k	n/a
420.842	0.15	841684	keystroke_e	e	n/a
420.962	0.225	841924	keystroke_t	t	n/a
421.097	0.15	842194	keystroke_s	s	n/a
421.232	0.09	842464	keystroke_Key.space	Key.space	n/a
421.352	0.15	842704	keystroke_s	s	n/a
421.457	0.12	842914	keystroke_e	e	n/a
421.592	0.1195	843184	keystroke_n	n	n/a
421.697	0.15	843394	keystroke_o	o	n/a
421.727	0.15	843454	keystroke_s	s	n/a
422.162	0.06	844324	keystroke_Key.backspace	Key.backspace	n/a
422.312	0.06	844624	keystroke_Key.backspace	Key.backspace	n/a
422.462	0.135	844924	keystroke_s	s	n/a
422.582	0.105	845164	keystroke_o	o	n/a
422.702	0.165	845404	keystroke_r	r	n/a
422.792	0.165	845584	keystroke_s	s	n/a
423.017	0.06	846034	keystroke_Key.space	Key.space	n/a
423.167	0.15	846334	keystroke_s	s	n/a
423.242	0.12	846484	keystroke_o	o	n/a
423.332	0.075	846664	keystroke_u	u	n/a
423.512	0.165	847024	keystroke_l	l	n/a
423.767	0.075	847534	keystroke_Key.space	Key.space	n/a
423.947	0.105	847894	keystroke_i	i	n/a
424.037	0.12	848074	keystroke_n	n	n/a
424.202	0.09	848404	keystroke_f	f	n/a
424.322	0.045	848644	keystroke_o	o	n/a
424.382	0.09	848764	keystroke_r	r	n/a
424.457	0.09	848914	keystroke_m	m	n/a
424.727	0.075	849454	keystroke_a	a	n/a
424.907	0.09	849814	keystroke_t	t	n/a
425.012	0.105	850024	keystroke_i	i	n/a
425.237	0.09	850474	keystroke_v	v	n/a
425.432	0.12	850864	keystroke_e	e	n/a
425.567	0.06	851134	keystroke_Key.enter	Key.enter	n/a
425.631	8.089	851262	prompt	n/a	cards microphone bloggers it'd\n
426.2565	0.12	852513	keystroke_c	c	n/a
426.3015	0.135	852603	keystroke_a	a	n/a
426.5715	0.06	853143	keystroke_r	r	n/a
426.7515	0.15	853503	keystroke_d	d	n/a
426.8565	0.105	853713	keystroke_s	s	n/a
426.9465	0.09	853893	keystroke_Key.space	Key.space	n/a
427.0515	0.135	854103	keystroke_m	m	n/a
427.1265	0.18	854253	keystroke_i	i	n/a
427.2915	0.06	854583	keystroke_c	c	n/a
427.4715	0.09	854943	keystroke_r	r	n/a
427.7565	0.165	855513	keystroke_o	o	n/a
428.0265	0.09	856053	keystroke_p	p	n/a
428.237	0.105	856474	keystroke_h	h	n/a
428.476	0.12	856952	keystroke_o	o	n/a
428.671	0.105	857342	keystroke_b	b	n/a
428.836	0.091	857672	keystroke_e	e	n/a
429.226	0.045	858452	keystroke_Key.backspace	Key.backspace	n/a
429.436	0.015	858872	keystroke_Key.backspace	Key.backspace	n/a
429.557	0.104	859114	keystroke_n	n	n/a
429.691	0.105	859382	keystroke_e	e	n/a
429.826	0.1505	859652	keystroke_Key.space	Key.space	n/a
430.187	0.105	860374	keystroke_v	v	n/a
430.772	0.074	861544	keystroke_Key.backspace	Key.backspace	n/a
431.0115	0.105	862023	keystroke_b	b	n/a
431.1015	0.075	862203	keystroke_l	l	n/a
431.267	0.0745	862534	keystroke_o	o	n/a
431.3565	0.075	862713	keystroke_g	g	n/a
431.4615	0.06	862923	keystroke_g	g	n/a
432.0015	0.165	864003	keystroke_e	e	n/a
432.1065	0.1795	864213	keystroke_r	r	n/a
432.271	0.24	864542	keystroke_s	s	n/a
432.406	0.12	864812	keystroke_Key.space	Key.space	n/a
432.572	0.119	865144	keystroke_i	i	n/a
432.751	0.105	865502	keystroke_t	t	n/a
432.901	0.105	865802	keystroke_'	'	n/a
433.171	0.105	866342	keystroke_d	d	n/a
433.606	0.105	867212	keystroke_Key.enter	Key.enter	n/a
433.7305	5.4575	867461	prompt	n/a	byte drunk wanted platinum\n
434.566	0.165	869132	keystroke_b	b	n/a
434.656	0.165	869312	keystroke_y	y	n/a
434.836	0.15	869672	keystroke_t	t	n/a
434.926	0.15	869852	keystroke_e	e	n/a
435.091	0.075	870182	keystroke_Key.space	Key.space	n/a
435.211	0.105	870422	keystroke_d	d	n/a
435.406	0.09	870812	keystroke_r	r	n/a
435.481	0.1205	870962	keystroke_u	u	n/a
435.5865	0.2695	871173	keystroke_n	n	n/a
435.7815	0.1795	871563	keystroke_k	k	n/a
435.946	0.105	871892	keystroke_Key.space	Key.space	n/a
436.171	0.211	872342	keystroke_w	w	n/a
436.322	0.105	872644	keystroke_a	a	n/a
436.532	0.105	873064	keystroke_n	n	n/a
436.607	0.15	873214	keystroke_t	t	n/a
436.712	0.105	873424	keystroke_e	e	n/a
436.937	0.135	873874	keystroke_d	d	n/a
437.057	0.075	874114	keystroke_Key.space	Key.space	n/a
437.177	0.165	874354	keystroke_p	p	n/a
437.297	0.18	874594	keystroke_l	l	n/a
437.492	0.06	874984	keystroke_a	a	n/a
437.777	0.09	875554	keystroke_t	t	n/a
437.957	0.0895	875914	keystroke_i	i	n/a
438.0615	0.1355	876123	keystroke_n	n	n/a
438.152	0.105	876304	keystroke_u	u	n/a
438.4215	0.09	876843	keystroke_m	m	n/a
439.0665	0.12	878133	keystroke_Key.enter	Key.enter	n/a
439.1905	5.4275	878381	prompt	n/a	ladies studying lightweight pepper\n
439.876	0.105	879752	keystroke_l	l	n/a
439.996	0.1805	879992	keystroke_a	a	n/a
440.1165	0.15	880233	keystroke_d	d	n/a
440.3115	0.09	880623	keystroke_i	i	n/a
440.3865	0.18	880773	keystroke_e	e	n/a
440.5065	0.12	881013	keystroke_s	s	n/a
440.6275	0.089	881255	keystroke_Key.space	Key.space	n/a
440.7465	0.09	881493	keystroke_s	s	n/a
440.972	0.075	881944	keystroke_t	t	n/a
441.092	0.105	882184	keystroke_u	u	n/a
441.242	0.12	882484	keystroke_d	d	n/a
441.346	0.091	882692	keystroke_y	y	n/a
441.497	0.18	882994	keystroke_i	i	n/a
441.571	0.166	883142	keystroke_n	n	n/a
441.707	0.075	883414	keystroke_g	g	n/a
441.797	0.12	883594	keystroke_Key.space	Key.space	n/a
441.977	0.06	883954	keystroke_l	l	n/a
442.082	0.104	884164	keystroke_i	i	n/a
442.171	0.091	884342	keystroke_g	g	n/a
442.277	0.074	884554	keystroke_h	h	n/a
442.367	0.075	884734	keystroke_t	t	n/a
442.607	0.15	885214	keystroke_w	w	n/a
442.697	0.105	885394	keystroke_e	e	n/a
442.847	0.075	885694	keystroke_i	i	n/a
442.937	0.105	885874	keystroke_g	g	n/a
443.057	0.075	886114	keystroke_h	h	n/a
443.146	0.091	886292	keystroke_t	t	n/a
443.221	0.06	886442	keystroke_Key.space	Key.space	n/a
443.342	0.0895	886684	keystroke_p	p	n/a
443.7315	0.15	887463	keystroke_e	e	n/a
443.9415	0.045	887883	keystroke_p	p	n/a
444.0315	0.09	888063	keystroke_p	p	n/a
444.1365	0.105	888273	keystroke_e	e	n/a
444.2265	0.12	888453	keystroke_r	r	n/a
444.5415	0.075	889083	keystroke_Key.enter	Key.enter	n/a
444.6205	6.5525	889241	prompt	n/a	cabinets nano input reviewed\n
445.2765	0.21	890553	keystroke_c	c	n/a
445.3965	0.195	890793	keystroke_a	a	n/a
445.6365	0.045	891273	keystroke_b	b	n/a
445.7715	0.105	891543	keystroke_i	i	n/a
445.8915	0.12	891783	keystroke_n	n	n/a
446.0265	0.18	892053	keystroke_e	e	n/a
446.701	0.12	893402	keystroke_t	t	n/a
446.866	0.12	893732	keystroke_s	s	n/a
447.001	0.075	894002	keystroke_Key.space	Key.space	n/a
447.166	0.105	894332	keystroke_n	n	n/a
447.272	0.029	894544	keystroke_o	o	n/a
447.601	0.0605	895202	keystroke_Key.backspace	Key.backspace	n/a
447.826	0.03	895652	keystroke_a	a	n/a
447.931	0.12	895862	keystroke_n	n	n/a
448.006	0.15	896012	keystroke_o	o	n/a
448.171	0.1505	896342	keystroke_Key.space	Key.space	n/a
448.4265	0.075	896853	keystroke_i	i	n/a
448.5915	0.075	897183	keystroke_n	n	n/a
448.8015	0.075	897603	keystroke_p	p	n/a
449.0715	0.15	898143	keystroke_u	u	n/a
449.1765	0.105	898353	keystroke_t	t	n/a
449.3115	0.09	898623	keystroke_Key.space	Key.space	n/a
449.5365	0.15	899073	keystroke_r	r	n/a
449.6415	0.105	899283	keystroke_e	e	n/a
449.8965	0.105	899793	keystroke_v	v	n/a
450.0315	0.09	900063	keystroke_i	i	n/a
450.2265	0.165	900453	keystroke_e	e	n/a
450.3765	0.075	900753	keystroke_w	w	n/a
450.5115	0.12	901023	keystroke_e	e	n/a
450.7665	0.075	901533	keystroke_d	d	n/a
451.1115	0.06	902223	keystroke_Key.enter	Key.enter	n/a
451.1755	7.925	902351	prompt	n/a	convenient mustn't strategic members\n
451.9365	0.105	903873	keystroke_c	c	n/a
452.0565	0.18	904113	keystroke_o	o	n/a
452.1765	0.105	904353	keystroke_n	n	n/a
452.3265	0.105	904653	keystroke_v	v	n/a
453.1215	0.105	906243	keystroke_e	e	n/a
453.3015	0.135	906603	keystroke_n	n	n/a
453.3915	0.15	906783	keystroke_i	i	n/a
453.5115	0.12	907023	keystroke_e	e	n/a
453.6465	0.135	907293	keystroke_n	n	n/a
453.7965	0.075	907593	keystroke_t	t	n/a
453.8565	0.105	907713	keystroke_Key.space	Key.space	n/a
454.0215	0.075	908043	keystroke_m	m	n/a
454.2015	0.105	908403	keystroke_u	u	n/a
454.2765	0.105	908553	keystroke_s	s	n/a
454.5315	0.045	909063	keystroke_t	t	n/a
454.5615	0.12	909123	keystroke_n	n	n/a
454.7715	0.12	909543	keystroke_'	'	n/a
455.7915	0.135	911583	keystroke_t	t	n/a
456.0315	0.12	912063	keystroke_Key.space	Key.space	n/a
456.4065	0.03	912813	keystroke_s	s	n/a
456.7815	0.105	913563	keystroke_t	t	n/a
456.8265	0.105	913653	keystroke_r	r	n/a
457.0965	0.075	914193	keystroke_a	a	n/a
457.2915	0.15	914583	keystroke_t	t	n/a
457.4115	0.09	914823	keystroke_e	e	n/a
457.5915	0.075	915183	keystroke_g	g	n/a
457.7115	0.165	915423	keystroke_i	i	n/a
457.8915	0.06	915783	keystroke_c	c	n/a
457.9365	0.045	915873	keystroke_Key.space	Key.space	n/a
458.0865	0.06	916173	keystroke_m	m	n/a
458.1315	0.12	916263	keystroke_e	e	n/a
458.2365	0.075	916473	keystroke_m	m	n/a
458.4765	0.06	916953	keystroke_b	b	n/a
458.5225	0.224	917045	keystroke_e	e	n/a
458.6265	0.255	917253	keystroke_r	r	n/a
458.7915	0.165	917583	keystroke_s	s	n/a
458.9865	0.105	917973	keystroke_Key.enter	Key.enter	n/a
459.1055	4.2775	918211	prompt	n/a	late examination mature rick\n
459.7215	0.225	919443	keystroke_l	l	n/a
459.7965	0.105	919593	keystroke_a	a	n/a
460.0065	0.15	920013	keystroke_t	t	n/a
460.0815	0.135	920163	keystroke_e	e	n/a
460.232	0.105	920464	keystroke_Key.space	Key.space	n/a
460.322	0.075	920644	keystroke_e	e	n/a
460.637	0.045	921274	keystroke_x	x	n/a
460.742	0.105	921484	keystroke_a	a	n/a
460.892	0.12	921784	keystroke_m	m	n/a
460.997	0.195	921994	keystroke_i	i	n/a
461.117	0.12	922234	keystroke_n	n	n/a
461.206	0.106	922412	keystroke_a	a	n/a
461.402	0.105	922804	keystroke_t	t	n/a
461.477	0.225	922954	keystroke_i	i	n/a
461.597	0.165	923194	keystroke_o	o	n/a
461.657	0.135	923314	keystroke_n	n	n/a
461.732	0.12	923464	keystroke_Key.space	Key.space	n/a
461.942	0.09	923884	keystroke_m	m	n/a
462.017	0.03	924034	keystroke_a	a	n/a
462.137	0.074	924274	keystroke_t	t	n/a
462.226	0.106	924452	keystroke_u	u	n/a
462.317	0.165	924634	keystroke_r	r	n/a
462.407	0.135	924814	keystroke_e	e	n/a
462.527	0.119	925054	keystroke_Key.space	Key.space	n/a
462.677	0.149	925354	keystroke_r	r	n/a
462.871	0.091	925742	keystroke_i	i	n/a
463.037	0.105	926074	keystroke_c	c	n/a
463.127	0.075	926254	keystroke_k	k	n/a
