onset	duration	sample	value	key	prompt_text
1.5835	0.496	3167	keystroke_Key.ctrl_l	Key.ctrl_l	n/a
1.9785	11.688	3957	prompt	n/a	the quick brown fox jumps over a lazy dog\n
4.964	0.057	9928	keystroke_t	t	n/a
5.035	0.075	10070	keystroke_h	h	n/a
5.096	0.089	10192	keystroke_e	e	n/a
5.26	0.105	10520	keystroke_Key.space	Key.space	n/a
5.485	0.09	10970	keystroke_q	q	n/a
6.1175	0.104	12235	keystroke_u	u	n/a
6.313	0.09	12626	keystroke_i	i	n/a
6.463	0.09	12926	keystroke_c	c	n/a
6.583	0.09	13166	keystroke_k	k	n/a
6.823	0.12	13646	keystroke_Key.space	Key.space	n/a
7.183	0.075	14366	keystroke_b	b	n/a
7.273	0.1055	14546	keystroke_r	r	n/a
7.4385	0.09	14877	keystroke_o	o	n/a
7.5435	0.075	15087	keystroke_w	w	n/a
7.6635	0.12	15327	keystroke_n	n	n/a
7.7975	0.135	15595	keystroke_Key.space	Key.space	n/a
8.0985	0.09	16197	keystroke_f	f	n/a
8.2335	0.089	16467	keystroke_o	o	n/a
8.3385	0.089	16677	keystroke_x	x	n/a
8.4575	0.1205	16915	keystroke_Key.space	Key.space	n/a
8.923	0.09	17846	keystroke_j	j	n/a
9.148	0.091	18296	keystroke_u	u	n/a
9.403	0.135	18806	keystroke_m	m	n/a
9.658	0.12	19316	keystroke_p	p	n/a
9.898	0.09	19796	keystroke_s	s	n/a
10.123	0.09	20246	keystroke_Key.space	Key.space	n/a
10.603	0.075	21206	keystroke_o	o	n/a
10.693	0.09	21386	keystroke_v	v	n/a
10.858	0.106	21716	keystroke_e	e	n/a
10.948	0.105	21896	keystroke_r	r	n/a
11.038	0.105	22076	keystroke_Key.space	Key.space	n/a
11.1735	0.1045	22347	keystroke_a	a	n/a
11.279	0.119	22558	keystroke_Key.space	Key.space	n/a
11.638	0.075	23276	keystroke_l	l	n/a
11.773	0.105	23546	keystroke_a	a	n/a
11.9985	0.0905	23997	keystroke_z	z	n/a
12.119	0.09	24238	keystroke_y	y	n/a
12.328	0.09	24656	keystroke_Key.space	Key.space	n/a
12.5235	0.105	25047	keystroke_d	d	n/a
12.6585	0.075	25317	keystroke_o	o	n/a
12.7935	0.075	25587	keystroke_g	g	n/a
13.574	0.089	27148	keystroke_Key.enter	Key.enter	n/a
13.672	7.644	27344	prompt	n/a	goods actions millennium mere\n
14.969	0.075	29938	keystroke_g	g	n/a
15.088	0.061	30176	keystroke_o	o	n/a
15.224	0.0745	30448	keystroke_o	o	n/a
15.3145	0.074	30629	keystroke_d	d	n/a
15.4635	0.075	30927	keystroke_s	s	n/a
15.5835	0.105	31167	keystroke_Key.space	Key.space	n/a
15.8385	0.165	31677	keystroke_a	a	n/a
16.064	0.105	32128	keystroke_c	c	n/a
16.379	0.075	32758	keystroke_t	t	n/a
16.619	0.134	33238	keystroke_i	i	n/a
16.769	0.12	33538	keystroke_o	o	n/a
16.873	0.105	33746	keystroke_n	n	n/a
16.994	0.09	33988	keystroke_s	s	n/a
17.249	0.12	34498	keystroke_Key.space	Key.space	n/a
17.518	0.091	35036	keystroke_m	m	n/a
17.714	0.075	35428	keystroke_i	i	n/a
17.954	0.075	35908	keystroke_l	l	n/a
18.104	0.09	36208	keystroke_l	l	n/a
18.298	0.105	36596	keystroke_e	e	n/a
18.568	0.06	37136	keystroke_n	n	n/a
18.733	0.09	37466	keystroke_n	n	n/a
19.319	0.089	38638	keystroke_i	i	n/a
19.5585	0.0745	39117	keystroke_u	u	n/a
19.813	0.106	39626	keystroke_m	m	n/a
19.948	0.121	39896	keystroke_Key.space	Key.space	n/a
20.218	0.075	40436	keystroke_m	m	n/a
20.354	0.104	40708	keystroke_e	e	n/a
20.533	0.09	41066	keystroke_r	r	n/a
20.608	0.105	41216	keystroke_e	e	n/a
21.223	0.09	42446	keystroke_Key.enter	Key.enter	n/a
21.322	6.114	42644	prompt	n/a	nano burst rated combine\n
22.0035	0.075	44007	keystroke_n	n	n/a
22.1235	0.09	44247	keystroke_a	a	n/a
22.2435	0.09	44487	keystroke_n	n	n/a
22.3935	0.09	44787	keystroke_o	o	n/a
22.5885	0.09	45177	keystroke_Key.space	Key.space	n/a
22.7835	0.06	45567	keystroke_b	b	n/a
23.0085	0.06	46017	keystroke_u	u	n/a
23.1285	0.075	46257	keystroke_r	r	n/a
23.3385	0.135	46677	keystroke_s	s	n/a
23.4585	0.075	46917	keystroke_t	t	n/a
23.6685	0.105	47337	keystroke_Key.space	Key.space	n/a
24.4935	0.105	48987	keystroke_r	r	n/a
24.7035	0.21	49407	keystroke_a	a	n/a
24.8685	0.09	49737	keystroke_t	t	n/a
25.0185	0.09	50037	keystroke_e	e	n/a
25.2135	0.09	50427	keystroke_d	d	n/a
25.4835	0.12	50967	keystroke_Key.space	Key.space	n/a
25.6935	0.09	51387	keystroke_c	c	n/a
25.8285	0.09	51657	keystroke_o	o	n/a
26.0985	0.075	52197	keystroke_m	m	n/a
26.3235	0.06	52647	keystroke_b	b	n/a
26.4585	0.09	52917	keystroke_i	i	n/a
26.6685	0.075	53337	keystroke_n	n	n/a
26.7885	0.075	53577	keystroke_e	e	n/a
27.3435	0.09	54687	keystroke_Key.enter	Key.enter	n/a
27.442	8.723	54884	prompt	n/a	differential you're network damages\n
28.1835	0.09	56367	keystroke_d	d	n/a
28.3185	0.075	56637	keystroke_i	i	n/a
28.4235	0.06	56847	keystroke_f	f	n/a
28.5735	0.075	57147	keystroke_f	f	n/a
28.7985	0.165	57597	keystroke_e	e	n/a
28.9785	0.12	57957	keystroke_r	r	n/a
29.3685	0.075	58737	keystroke_e	e	n/a
29.6985	0.09	59397	keystroke_n	n	n/a
29.9085	0.06	59817	keystroke_t	t	n/a
29.9985	0.06	59997	keystroke_i	i	n/a
30.1185	0.12	60237	keystroke_a	a	n/a
30.2535	0.075	60507	keystroke_l	l	n/a
30.5235	0.09	61047	keystroke_Key.space	Key.space	n/a
31.3635	0.105	62727	keystroke_y	y	n/a
31.5885	0.105	63177	keystroke_o	o	n/a
31.6635	0.105	63327	keystroke_u	u	n/a
32.0535	0.075	64107	keystroke_'	'	n/a
32.1585	0.105	64317	keystroke_r	r	n/a
32.2485	0.06	64497	keystroke_e	e	n/a
32.638	0.105	65276	keystroke_Key.space	Key.space	n/a
33.043	0.06	66086	keystroke_n	n	n/a
33.118	0.12	66236	keystroke_e	e	n/a
33.253	0.075	66506	keystroke_t	t	n/a
33.613	0.09	67226	keystroke_w	w	n/a
33.763	0.105	67526	keystroke_o	o	n/a
33.838	0.09	67676	keystroke_r	r	n/a
34.003	0.075	68006	keystroke_k	k	n/a
34.378	0.075	68756	keystroke_Key.space	Key.space	n/a
34.618	0.075	69236	keystroke_d	d	n/a
34.768	0.12	69536	keystroke_a	a	n/a
34.948	0.075	69896	keystroke_m	m	n/a
35.053	0.165	70106	keystroke_a	a	n/a
35.203	0.09	70406	keystroke_g	g	n/a
35.353	0.075	70706	keystroke_e	e	n/a
35.503	0.105	71006	keystroke_s	s	n/a
36.058	0.105	72116	keystroke_Key.enter	Key.enter	n/a
36.169	7.8415	72338	prompt	n/a	to declared carb sagem\n
36.988	0.06	73976	keystroke_o	o	n/a
37.933	0.09	75866	keystroke_Key.backspace	Key.backspace	n/a
38.338	0.045	76676	keystroke_t	t	n/a
38.473	0.075	76946	keystroke_o	o	n/a
38.983	0.12	77966	keystroke_Key.space	Key.space	n/a
39.253	0.06	78506	keystroke_d	d	n/a
39.403	0.09	78806	keystroke_e	e	n/a
39.628	0.09	79256	keystroke_c	c	n/a
39.793	0.09	79586	keystroke_l	l	n/a
39.913	0.18	79826	keystroke_a	a	n/a
40.063	0.12	80126	keystroke_r	r	n/a
40.168	0.09	80336	keystroke_e	e	n/a
40.348	0.075	80696	keystroke_d	d	n/a
40.813	0.105	81626	keystroke_Key.space	Key.space	n/a
41.203	0.105	82406	keystroke_c	c	n/a
41.473	0.18	82946	keystroke_a	a	n/a
41.608	0.09	83216	keystroke_r	r	n/a
42.163	0.06	84326	keystroke_b	b	n/a
42.433	0.075	84866	keystroke_Key.space	Key.space	n/a
42.598	0.075	85196	keystroke_s	s	n/a
42.733	0.15	85466	keystroke_a	a	n/a
42.958	0.06	85916	keystroke_g	g	n/a
43.153	0.09	86306	keystroke_e	e	n/a
43.348	0.09	86696	keystroke_m	m	n/a
43.933	0.075	87866	keystroke_Key.enter	Key.enter	n/a
44.0145	8.9965	88029	prompt	n/a	studied long investing montana\n
44.728	0.06	89456	keystroke_s	s	n/a
44.893	0.105	89786	keystroke_u	u	n/a
45.043	0.06	90086	keystroke_t	t	n/a
45.928	0.09	91856	keystroke_Key.backspace	Key.backspace	n/a
46.153	0.075	92306	keystroke_Key.backspace	Key.backspace	n/a
46.558	0.09	93116	keystroke_t	t	n/a
46.693	0.09	93386	keystroke_u	u	n/a
46.903	0.075	93806	keystroke_d	d	n/a
46.993	0.06	93986	keystroke_i	i	n/a
47.113	0.06	94226	keystroke_e	e	n/a
47.263	0.075	94526	keystroke_d	d	n/a
47.608	0.12	95216	keystroke_Key.space	Key.space	n/a
48.103	0.09	96206	keystroke_l	l	n/a
48.283	0.09	96566	keystroke_o	o	n/a
48.418	0.09	96836	keystroke_n	n	n/a
48.493	0.09	96986	keystroke_g	g	n/a
48.658	0.105	97316	keystroke_Key.space	Key.space	n/a
49.063	0.105	98126	keystroke_i	i	n/a
49.213	0.075	98426	keystroke_n	n	n/a
49.318	0.105	98636	keystroke_v	v	n/a
49.558	0.09	99116	keystroke_e	e	n/a
49.753	0.195	99506	keystroke_s	s	n/a
49.933	0.09	99866	keystroke_t	t	n/a
50.083	0.075	100166	keystroke_i	i	n/a
50.218	0.09	100436	keystroke_n	n	n/a
50.278	0.075	100556	keystroke_g	g	n/a
50.758	0.12	101516	keystroke_Key.space	Key.space	n/a
51.238	0.105	102476	keystroke_m	m	n/a
51.448	0.075	102896	keystroke_o	o	n/a
51.583	0.06	103166	keystroke_n	n	n/a
51.793	0.09	103586	keystroke_t	t	n/a
51.988	0.105	103976	keystroke_a	a	n/a
52.213	0.06	104426	keystroke_n	n	n/a
52.333	0.09	104666	keystroke_a	a	n/a
52.903	0.105	105806	keystroke_Key.enter	Key.enter	n/a
53.0165	10.0445	106033	prompt	n/a	carb kinds necessarily library\n
53.623	0.105	107246	keystroke_c	c	n/a
53.833	0.15	107666	keystroke_a	a	n/a
53.953	0.105	107906	keystroke_r	r	n/a
54.148	0.06	108296	keystroke_b	b	n/a
54.763	0.105	109526	keystroke_Key.space	Key.space	n/a
55.003	0.09	110006	keystroke_k	k	n/a
55.198	0.075	110396	keystroke_i	i	n/a
55.303	0.06	110606	keystroke_n	n	n/a
55.483	0.09	110966	keystroke_s	s	n/a
56.623	0.09	113246	keystroke_Key.backspace	Key.backspace	n/a
57.313	0.075	114626	keystroke_d	d	n/a
57.478	0.105	114956	keystroke_s	s	n/a
57.733	0.12	115466	keystroke_Key.space	Key.space	n/a
58.258	0.075	116516	keystroke_n	n	n/a
58.348	0.09	116696	keystroke_e	e	n/a
58.588	0.105	117176	keystroke_c	c	n/a
58.768	0.075	117536	keystroke_e	e	n/a
58.963	0.075	117926	keystroke_s	s	n/a
59.128	0.09	118256	keystroke_s	s	n/a
59.293	0.18	118586	keystroke_a	a	n/a
59.428	0.09	118856	keystroke_r	r	n/a
59.593	0.075	119186	keystroke_i	i	n/a
59.818	0.12	119636	keystroke_l	l	n/a
59.968	0.09	119936	keystroke_y	y	n/a
60.463	0.09	120926	keystroke_Key.space	Key.space	n/a
61.048	0.09	122096	keystroke_l	l	n/a
61.168	0.105	122336	keystroke_i	i	n/a
61.693	0.075	123386	keystroke_b	b	n/a
61.873	0.075	123746	keystroke_r	r	n/a
62.098	0.135	124196	keystroke_a	a	n/a
62.188	0.09	124376	keystroke_r	r	n/a
62.323	0.09	124646	keystroke_y	y	n/a
62.953	0.105	125906	keystroke_Key.enter	Key.enter	n/a
63.0685	10.1625	126137	prompt	n/a	solution forge alabama israel\n
63.673	0.09	127346	keystroke_s	s	n/a
63.778	0.09	127556	keystroke_o	o	n/a
64.063	0.105	128126	keystroke_l	l	n/a
64.198	0.075	128396	keystroke_u	u	n/a
64.378	0.075	128756	keystroke_t	t	n/a
64.439	0.089	128878	keystroke_i	i	n/a
64.543	0.09	129086	keystroke_o	o	n/a
64.618	0.12	129236	keystroke_n	n	n/a
65.068	0.12	130136	keystroke_Key.space	Key.space	n/a
65.263	0.075	130526	keystroke_f	f	n/a
65.383	0.09	130766	keystroke_o	o	n/a
65.488	0.075	130976	keystroke_r	r	n/a
65.713	0.105	131426	keystroke_g	g	n/a
65.863	0.09	131726	keystroke_e	e	n/a
66.538	0.09	133076	keystroke_Key.space	Key.space	n/a
66.688	0.135	133376	keystroke_a	a	n/a
66.988	0.06	133976	keystroke_l	l	n/a
67.063	0.12	134126	keystroke_a	a	n/a
67.858	0.075	135716	keystroke_b	b	n/a
67.948	0.105	135896	keystroke_a	a	n/a
68.383	0.075	136766	keystroke_m	m	n/a
68.473	0.105	136946	keystroke_a	a	n/a
68.923	0.075	137846	keystroke_Key.space	Key.space	n/a
71.146	0.012	142292	keystroke_i	i	n/a
71.173	0.09	142346	keystroke_s	s	n/a
71.489	0.089	142978	keystroke_r	r	n/a
71.668	0.09	143336	keystroke_a	a	n/a
71.923	0.075	143846	keystroke_e	e	n/a
72.028	0.075	144056	keystroke_l	l	n/a
73.108	0.12	146216	keystroke_Key.enter	Key.enter	n/a
73.2365	8.139	146473	prompt	n/a	rewards ecommerce regulated goods\n
73.918	0.135	147836	keystroke_r	r	n/a
74.023	0.135	148046	keystroke_e	e	n/a
74.338	0.105	148676	keystroke_w	w	n/a
74.564	0.149	149128	keystroke_a	a	n/a
74.668	0.105	149336	keystroke_r	r	n/a
74.863	0.075	149726	keystroke_d	d	n/a
75.028	0.09	150056	keystroke_s	s	n/a
75.478	0.105	150956	keystroke_Key.space	Key.space	n/a
75.913	0.091	151826	keystroke_e	e	n/a
76.183	0.075	152366	keystroke_c	c	n/a
76.513	0.106	153026	keystroke_o	o	n/a
76.753	0.075	153506	keystroke_m	m	n/a
76.903	0.075	153806	keystroke_m	m	n/a
77.038	0.15	154076	keystroke_e	e	n/a
77.173	0.076	154346	keystroke_r	r	n/a
77.398	0.151	154796	keystroke_c	c	n/a
77.503	0.105	155006	keystroke_e	e	n/a
78.043	0.075	156086	keystroke_Key.space	Key.space	n/a
78.284	0.119	156568	keystroke_r	r	n/a
78.373	0.09	156746	keystroke_e	e	n/a
78.583	0.09	157166	keystroke_g	g	n/a
78.733	0.06	157466	keystroke_u	u	n/a
78.958	0.075	157916	keystroke_l	l	n/a
79.063	0.165	158126	keystroke_a	a	n/a
79.198	0.09	158396	keystroke_t	t	n/a
79.348	0.075	158696	keystroke_e	e	n/a
79.528	0.075	159056	keystroke_d	d	n/a
79.738	0.09	159476	keystroke_Key.space	Key.space	n/a
80.008	0.075	160016	keystroke_g	g	n/a
80.128	0.06	160256	keystroke_o	o	n/a
80.263	0.075	160526	keystroke_o	o	n/a
80.353	0.075	160706	keystroke_d	d	n/a
80.518	0.09	161036	keystroke_s	s	n/a
81.283	0.09	162566	keystroke_Key.enter	Key.enter	n/a
81.3805	7.765	162761	prompt	n/a	banned occur chase calcium\n
82.198	0.045	164396	keystroke_b	b	n/a
82.288	0.105	164576	keystroke_a	a	n/a
82.438	0.06	164876	keystroke_n	n	n/a
82.573	0.075	165146	keystroke_n	n	n/a
82.753	0.06	165506	keystroke_e	e	n/a
82.918	0.075	165836	keystroke_d	d	n/a
83.203	0.135	166406	keystroke_Key.space	Key.space	n/a
83.818	0.091	167636	keystroke_o	o	n/a
84.013	0.06	168026	keystroke_c	c	n/a
84.164	0.089	168328	keystroke_c	c	n/a
84.418	0.091	168836	keystroke_u	u	n/a
84.478	0.09	168956	keystroke_r	r	n/a
85.003	0.12	170006	keystroke_Key.space	Key.space	n/a
85.228	0.09	170456	keystroke_c	c	n/a
85.349	0.075	170698	keystroke_h	h	n/a
85.498	0.15	170996	keystroke_a	a	n/a
85.618	0.15	171236	keystroke_s	s	n/a
85.723	0.105	171446	keystroke_e	e	n/a
85.993	0.09	171986	keystroke_Key.space	Key.space	n/a
86.353	0.15	172706	keystroke_c	c	n/a
86.473	0.12	172946	keystroke_a	a	n/a
87.433	0.09	174866	keystroke_l	l	n/a
87.719	0.089	175438	keystroke_c	c	n/a
87.869	0.104	175738	keystroke_i	i	n/a
88.108	0.076	176216	keystroke_u	u	n/a
88.348	0.09	176696	keystroke_m	m	n/a
89.053	0.09	178106	keystroke_Key.enter	Key.enter	n/a
89.1515	10.03	178303	prompt	n/a	continually loops episodes consistency\n
89.833	0.076	179666	keystroke_c	c	n/a
89.999	0.089	179998	keystroke_o	o	n/a
90.223	0.06	180446	keystroke_n	n	n/a
90.373	0.075	180746	keystroke_t	t	n/a
90.778	0.09	181556	keystroke_i	i	n/a
91.049	0.074	182098	keystroke_n	n	n/a
91.709	0.089	183418	keystroke_u	u	n/a
91.964	0.134	183928	keystroke_a	a	n/a
92.114	0.045	184228	keystroke_l	l	n/a
92.248	0.12	184496	keystroke_l	l	n/a
92.428	0.075	184856	keystroke_y	y	n/a
92.848	0.15	185696	keystroke_Key.space	Key.space	n/a
93.224	0.06	186448	keystroke_l	l	n/a
93.418	0.061	186836	keystroke_o	o	n/a
93.553	0.105	187106	keystroke_o	o	n/a
93.703	0.121	187406	keystroke_p	p	n/a
93.853	0.09	187706	keystroke_s	s	n/a
94.109	0.134	188218	keystroke_Key.space	Key.space	n/a
94.559	0.075	189118	keystroke_e	e	n/a
94.814	0.12	189628	keystroke_p	p	n/a
94.993	0.076	189986	keystroke_i	i	n/a
95.368	0.135	190736	keystroke_s	s	n/a
95.489	0.075	190978	keystroke_o	o	n/a
95.594	0.074	191188	keystroke_d	d	n/a
95.773	0.075	191546	keystroke_e	e	n/a
95.998	0.105	191996	keystroke_s	s	n/a
96.358	0.12	192716	keystroke_Key.space	Key.space	n/a
96.764	0.074	193528	keystroke_c	c	n/a
96.944	0.075	193888	keystroke_o	o	n/a
97.063	0.09	194126	keystroke_n	n	n/a
97.274	0.104	194548	keystroke_s	s	n/a
97.394	0.045	194788	keystroke_i	i	n/a
97.498	0.106	194996	keystroke_s	s	n/a
97.708	0.09	195416	keystroke_t	t	n/a
97.844	0.12	195688	keystroke_e	e	n/a
98.099	0.074	196198	keystroke_n	n	n/a
98.188	0.09	196376	keystroke_c	c	n/a
98.369	0.089	196738	keystroke_y	y	n/a
99.059	0.119	198118	keystroke_Key.enter	Key.enter	n/a
99.187	9.8325	198374	prompt	n/a	ma'am mirrors testing recently\n
99.944	0.074	199888	keystroke_m	m	n/a
100.109	0.075	200218	keystroke_a	a	n/a
100.349	0.119	200698	keystroke_'	'	n/a
100.769	0.105	201538	keystroke_a	a	n/a
100.859	0.089	201718	keystroke_m	m	n/a
101.278	0.09	202556	keystroke_Key.space	Key.space	n/a
101.504	0.075	203008	keystroke_m	m	n/a
101.684	0.0745	203368	keystroke_i	i	n/a
101.7725	0.046	203545	keystroke_r	r	n/a
101.923	0.091	203846	keystroke_r	r	n/a
102.0585	0.075	204117	keystroke_o	o	n/a
102.1485	0.075	204297	keystroke_w	w	n/a
102.3585	0.09	204717	keystroke_s	s	n/a
103.4385	0.075	206877	keystroke_Key.backspace	Key.backspace	n/a
103.708	0.075	207416	keystroke_Key.backspace	Key.backspace	n/a
103.993	0.075	207986	keystroke_r	r	n/a
104.203	0.09	208406	keystroke_s	s	n/a
104.533	0.105	209066	keystroke_Key.space	Key.space	n/a
105.703	0.075	211406	keystroke_t	t	n/a
105.883	0.09	211766	keystroke_e	e	n/a
106.063	0.135	212126	keystroke_s	s	n/a
106.168	0.09	212336	keystroke_t	t	n/a
106.348	0.075	212696	keystroke_i	i	n/a
106.453	0.0605	212906	keystroke_n	n	n/a
106.5135	0.089	213027	keystroke_g	g	n/a
106.8575	0.105	213715	keystroke_Key.space	Key.space	n/a
107.2775	0.105	214555	keystroke_r	r	n/a
107.3675	0.105	214735	keystroke_e	e	n/a
107.5925	0.15	215185	keystroke_c	c	n/a
107.7275	0.105	215455	keystroke_e	e	n/a
107.8635	0.059	215727	keystroke_n	n	n/a
107.9525	0.09	215905	keystroke_t	t	n/a
108.1025	0.136	216205	keystroke_l	l	n/a
108.2525	0.09	216505	keystroke_y	y	n/a
108.8975	0.12	217795	keystroke_Key.enter	Key.enter	n/a
109.0245	9.956	218049	prompt	n/a	while strict welfare rogers\n
109.6325	0.075	219265	keystroke_w	w	n/a
109.7675	0.075	219535	keystroke_h	h	n/a
110.3675	0.075	220735	keystroke_i	i	n/a
110.5935	0.0885	221187	keystroke_l	l	n/a
110.667	0.075	221334	keystroke_e	e	n/a
110.832	0.106	221664	keystroke_Key.space	Key.space	n/a
111.057	0.09	222114	keystroke_s	s	n/a
111.207	0.06	222414	keystroke_t	t	n/a
111.387	0.091	222774	keystroke_r	r	n/a
111.538	0.089	223076	keystroke_i	i	n/a
111.732	0.09	223464	keystroke_c	c	n/a
112.363	0.074	224726	keystroke_t	t	n/a
112.738	0.104	225476	keystroke_Key.space	Key.space	n/a
113.727	0.075	227454	keystroke_w	w	n/a
113.907	0.076	227814	keystroke_e	e	n/a
114.042	0.09	228084	keystroke_l	l	n/a
114.207	0.105	228414	keystroke_f	f	n/a
114.418	0.164	228836	keystroke_a	a	n/a
114.627	0.12	229254	keystroke_r	r	n/a
114.703	0.105	229406	keystroke_e	e	n/a
115.167	0.12	230334	keystroke_Key.space	Key.space	n/a
115.527	0.106	231054	keystroke_r	r	n/a
115.618	0.059	231236	keystroke_e	e	n/a
116.802	0.105	233604	keystroke_Key.backspace	Key.backspace	n/a
117.102	0.091	234204	keystroke_o	o	n/a
117.298	0.06	234596	keystroke_g	g	n/a
117.477	0.076	234954	keystroke_e	e	n/a
117.583	0.105	235166	keystroke_r	r	n/a
117.927	0.076	235854	keystroke_s	s	n/a
118.872	0.105	237744	keystroke_Key.enter	Key.enter	n/a
118.9875	7.223	237975	prompt	n/a	absent searches happy utilize\n
119.698	0.089	239396	keystroke_a	a	n/a
119.923	0.06	239846	keystroke_b	b	n/a
120.162	0.09	240324	keystroke_s	s	n/a
120.238	0.089	240476	keystroke_e	e	n/a
120.373	0.06	240746	keystroke_n	n	n/a
120.448	0.09	240896	keystroke_t	t	n/a
120.672	0.12	241344	keystroke_Key.space	Key.space	n/a
121.033	0.135	242066	keystroke_s	s	n/a
121.152	0.106	242304	keystroke_e	e	n/a
121.588	0.165	243176	keystroke_a	a	n/a
121.707	0.061	243414	keystroke_r	r	n/a
121.932	0.076	243864	keystroke_c	c	n/a
122.067	0.075	244134	keystroke_h	h	n/a
122.172	0.076	244344	keystroke_e	e	n/a
122.352	0.09	244704	keystroke_s	s	n/a
122.637	0.105	245274	keystroke_Key.space	Key.space	n/a
122.968	0.06	245936	keystroke_h	h	n/a
123.073	0.12	246146	keystroke_a	a	n/a
123.222	0.091	246444	keystroke_p	p	n/a
123.373	0.135	246746	keystroke_p	p	n/a
123.793	0.075	247586	keystroke_y	y	n/a
124.167	0.105	248334	keystroke_Key.space	Key.space	n/a
124.648	0.029	249296	keystroke_u	u	n/a
124.843	0.015	249686	keystroke_t	t	n/a
124.888	0.045	249776	keystroke_i	i	n/a
125.068	0.06	250136	keystroke_l	l	n/a
125.172	0.091	250344	keystroke_i	i	n/a
125.338	0.165	250676	keystroke_z	z	n/a
125.487	0.075	250974	keystroke_e	e	n/a
126.103	0.105	252206	keystroke_Key.enter	Key.enter	n/a
126.216	8.064	252432	prompt	n/a	jokes immigrants when compromise\n
126.883	0.075	253766	keystroke_j	j	n/a
127.003	0.105	254006	keystroke_o	o	n/a
127.258	0.075	254516	keystroke_k	k	n/a
127.378	0.06	254756	keystroke_e	e	n/a
127.528	0.09	255056	keystroke_s	s	n/a
127.872	0.12	255744	keystroke_Key.space	Key.space	n/a
128.278	0.075	256556	keystroke_i	i	n/a
128.518	0.06	257036	keystroke_m	m	n/a
128.638	0.09	257276	keystroke_m	m	n/a
128.863	0.06	257726	keystroke_i	i	n/a
128.997	0.045	257994	keystroke_g	g	n/a
129.192	0.076	258384	keystroke_r	r	n/a
129.358	0.09	258716	keystroke_a	a	n/a
129.523	0.075	259046	keystroke_n	n	n/a
129.628	0.105	259256	keystroke_t	t	n/a
130.108	0.105	260216	keystroke_s	s	n/a
130.333	0.09	260666	keystroke_Key.space	Key.space	n/a
130.558	0.09	261116	keystroke_w	w	n/a
130.663	0.06	261326	keystroke_h	h	n/a
130.783	0.075	261566	keystroke_e	e	n/a
130.903	0.075	261806	keystroke_n	n	n/a
131.217	0.105	262434	keystroke_Key.space	Key.space	n/a
131.547	0.091	263094	keystroke_c	c	n/a
131.668	0.074	263336	keystroke_o	o	n/a
131.878	0.089	263756	keystroke_m	m	n/a
132.028	0.105	264056	keystroke_p	p	n/a
132.103	0.09	264206	keystroke_r	r	n/a
132.913	0.09	265826	keystroke_o	o	n/a
133.168	0.075	266336	keystroke_m	m	n/a
133.378	0.074	266756	keystroke_i	i	n/a
133.483	0.105	266966	keystroke_s	s	n/a
133.558	0.075	267116	keystroke_e	e	n/a
134.188	0.09	268376	keystroke_Key.enter	Key.enter	n/a
134.286	9.6845	268572	prompt	n/a	qualifications easily where've company\n
135.223	0.105	270446	keystroke_q	q	n/a
135.433	0.075	270866	keystroke_u	u	n/a
135.598	0.089	271196	keystroke_a	a	n/a
135.778	0.044	271556	keystroke_l	l	n/a
135.898	0.06	271796	keystroke_i	i	n/a
136.003	0.075	272006	keystroke_f	f	n/a
136.123	0.06	272246	keystroke_i	i	n/a
136.258	0.12	272516	keystroke_c	c	n/a
136.408	0.12	272816	keystroke_a	a	n/a
136.678	0.059	273356	keystroke_t	t	n/a
136.768	0.06	273536	keystroke_i	i	n/a
136.843	0.105	273686	keystroke_o	o	n/a
136.918	0.12	273836	keystroke_n	n	n/a
137.023	0.075	274046	keystroke_s	s	n/a
137.503	0.119	275006	keystroke_Key.space	Key.space	n/a
138.013	0.09	276026	keystroke_e	e	n/a
138.298	0.135	276596	keystroke_a	a	n/a
138.583	0.12	277166	keystroke_s	s	n/a
138.688	0.06	277376	keystroke_i	i	n/a
138.853	0.12	277706	keystroke_l	l	n/a
139.003	0.075	278006	keystroke_y	y	n/a
139.423	0.09	278846	keystroke_Key.space	Key.space	n/a
139.753	0.09	279506	keystroke_w	w	n/a
139.963	0.06	279926	keystroke_h	h	n/a
140.248	0.09	280496	keystroke_e	e	n/a
140.353	0.105	280706	keystroke_r	r	n/a
140.428	0.105	280856	keystroke_e	e	n/a
141.388	0.105	282776	keystroke_'	'	n/a
141.568	0.165	283136	keystroke_v	v	n/a
141.703	0.105	283406	keystroke_e	e	n/a
142.123	0.12	284246	keystroke_Key.space	Key.space	n/a
142.393	0.105	284786	keystroke_c	c	n/a
142.528	0.09	285056	keystroke_o	o	n/a
142.723	0.12	285446	keystroke_m	m	n/a
142.888	0.12	285776	keystroke_p	p	n/a
143.038	0.105	286076	keystroke_a	a	n/a
143.113	0.075	286226	keystroke_n	n	n/a
143.293	0.09	286586	keystroke_y	y	n/a
143.863	0.105	287726	keystroke_Key.enter	Key.enter	n/a
143.9765	8.7085	287953	prompt	n/a	help designing greek dean\n
144.643	0.06	289286	keystroke_h	h	n/a
144.748	0.075	289496	keystroke_e	e	n/a
145.123	0.12	290246	keystroke_l	l	n/a
145.408	0.015	290816	keystroke_p	p	n/a
145.663	0.075	291326	keystroke_Key.space	Key.space	n/a
145.948	0.06	291896	keystroke_d	d	n/a
146.128	0.06	292256	keystroke_e	e	n/a
146.278	0.105	292556	keystroke_s	s	n/a
146.398	0.09	292796	keystroke_i	i	n/a
146.533	0.075	293066	keystroke_g	g	n/a
146.668	0.075	293336	keystroke_n	n	n/a
146.893	0.045	293786	keystroke_i	i	n/a
146.953	0.09	293906	keystroke_n	n	n/a
147.044	0.059	294088	keystroke_g	g	n/a
147.433	0.105	294866	keystroke_Key.space	Key.space	n/a
147.943	0.06	295886	keystroke_g	g	n/a
148.468	0.09	296936	keystroke_r	r	n/a
148.693	0.075	297386	keystroke_e	e	n/a
148.873	0.075	297746	keystroke_e	e	n/a
149.023	0.075	298046	keystroke_k	k	n/a
149.503	0.06	299006	keystroke_d	d	n/a
150.883	0.09	301766	keystroke_Key.backspace	Key.backspace	n/a
151.288	0.09	302576	keystroke_Key.space	Key.space	n/a
151.558	0.06	303116	keystroke_d	d	n/a
151.723	0.075	303446	keystroke_e	e	n/a
151.873	0.12	303746	keystroke_a	a	n/a
151.978	0.105	303956	keystroke_n	n	n/a
152.593	0.09	305186	keystroke_Key.enter	Key.enter	n/a
152.691	13.824	305382	prompt	n/a	audi investigation reynolds personally\n
153.493	0.135	306986	keystroke_a	a	n/a
153.733	0.075	307466	keystroke_u	u	n/a
153.883	0.105	307766	keystroke_d	d	n/a
154.018	0.075	308036	keystroke_i	i	n/a
154.318	0.09	308636	keystroke_Key.space	Key.space	n/a
154.693	0.075	309386	keystroke_i	i	n/a
154.828	0.06	309656	keystroke_n	n	n/a
154.993	0.09	309986	keystroke_v	v	n/a
155.188	0.105	310376	keystroke_e	e	n/a
155.413	0.15	310826	keystroke_s	s	n/a
155.533	0.075	311066	keystroke_t	t	n/a
155.863	0.09	311726	keystroke_i	i	n/a
156.043	0.09	312086	keystroke_g	g	n/a
156.178	0.12	312356	keystroke_a	a	n/a
156.343	0.045	312686	keystroke_t	t	n/a
156.373	0.105	312746	keystroke_e	e	n/a
157.108	0.105	314216	keystroke_Key.space	Key.space	n/a
158.353	0.075	316706	keystroke_Key.backspace	Key.backspace	n/a
158.518	0.06	317036	keystroke_Key.backspace	Key.backspace	n/a
158.953	0.09	317906	keystroke_i	i	n/a
159.058	0.12	318116	keystroke_o	o	n/a
159.118	0.135	318236	keystroke_n	n	n/a
159.433	0.105	318866	keystroke_Key.space	Key.space	n/a
159.883	0.105	319766	keystroke_r	r	n/a
159.958	0.105	319916	keystroke_e	e	n/a
160.318	0.075	320636	keystroke_y	y	n/a
160.6475	0.075	321295	keystroke_o	o	n/a
161.7275	0.09	323455	keystroke_Key.backspace	Key.backspace	n/a
162.4475	0.09	324895	keystroke_n	n	n/a
162.6125	0.0905	325225	keystroke_o	o	n/a
162.8375	0.105	325675	keystroke_l	l	n/a
162.958	0.0445	325916	keystroke_d	d	n/a
163.0475	0.105	326095	keystroke_s	s	n/a
163.558	0.0895	327116	keystroke_Key.space	Key.space	n/a
163.9325	0.09	327865	keystroke_p	p	n/a
163.993	0.1195	327986	keystroke_e	e	n/a
164.098	0.1045	328196	keystroke_r	r	n/a
164.9525	0.12	329905	keystroke_s	s	n/a
165.0575	0.075	330115	keystroke_o	o	n/a
165.2075	0.075	330415	keystroke_n	n	n/a
165.3275	0.105	330655	keystroke_a	a	n/a
165.4775	0.075	330955	keystroke_l	l	n/a
165.5975	0.165	331195	keystroke_l	l	n/a
165.7635	0.1045	331527	keystroke_y	y	n/a
166.4075	0.105	332815	keystroke_Key.enter	Key.enter	n/a
166.519	8.0965	333038	prompt	n/a	ideas skip yeast it'll\n
167.2625	0.045	334525	keystroke_d	d	n/a
168.1475	0.105	336295	keystroke_Key.backspace	Key.backspace	n/a
168.5385	0.059	337077	keystroke_i	i	n/a
168.9725	0.075	337945	keystroke_d	d	n/a
169.1825	0.09	338365	keystroke_e	e	n/a
169.3475	0.15	338695	keystroke_a	a	n/a
169.4525	0.12	338905	keystroke_s	s	n/a
169.9775	0.105	339955	keystroke_Key.space	Key.space	n/a
170.2475	0.105	340495	keystroke_s	s	n/a
170.3675	0.075	340735	keystroke_k	k	n/a
170.5325	0.12	341065	keystroke_i	i	n/a
170.6825	0.105	341365	keystroke_p	p	n/a
170.8775	0.12	341755	keystroke_Key.space	Key.space	n/a
171.2825	0.06	342565	keystroke_y	y	n/a
171.4625	0.105	342925	keystroke_e	e	n/a
171.6425	0.105	343285	keystroke_a	a	n/a
171.8075	0.18	343615	keystroke_s	s	n/a
171.9725	0.045	343945	keystroke_t	t	n/a
172.2725	0.075	344545	keystroke_Key.space	Key.space	n/a
172.4975	0.06	344995	keystroke_i	i	n/a
172.9325	0.075	345865	keystroke_t	t	n/a
173.2325	0.105	346465	keystroke_'	'	n/a
173.7275	0.06	347455	keystroke_l	l	n/a
173.9075	0.06	347815	keystroke_l	l	n/a
174.5225	0.0905	349045	keystroke_Key.enter	Key.enter	n/a
174.624	10.2655	349248	prompt	n/a	estimated tears egypt canberra\n
175.3775	0.075	350755	keystroke_e	e	n/a
175.5585	0.104	351117	keystroke_s	s	n/a
175.6925	0.075	351385	keystroke_t	t	n/a
175.8125	0.06	351625	keystroke_i	i	n/a
176.0375	0.09	352075	keystroke_m	m	n/a
176.1125	0.135	352225	keystroke_a	a	n/a
176.2325	0.105	352465	keystroke_t	t	n/a
176.3225	0.09	352645	keystroke_e	e	n/a
176.4875	0.105	352975	keystroke_d	d	n/a
176.8325	0.105	353665	keystroke_Key.space	Key.space	n/a
177.3125	0.09	354625	keystroke_e	e	n/a
178.1225	0.12	356245	keystroke_Key.backspace	Key.backspace	n/a
178.3775	0.09	356755	keystroke_t	t	n/a
178.5125	0.105	357025	keystroke_e	e	n/a
178.6775	0.15	357355	keystroke_a	a	n/a
178.7975	0.075	357595	keystroke_r	r	n/a
179.0525	0.015	358105	keystroke_t	t	n/a
179.7575	0.105	359515	keystroke_Key.backspace	Key.backspace	n/a
179.9225	0.09	359845	keystroke_s	s	n/a
180.3425	0.12	360685	keystroke_Key.space	Key.space	n/a
180.6725	0.09	361345	keystroke_e	e	n/a
181.1975	0.075	362395	keystroke_g	g	n/a
181.8425	0.09	363685	keystroke_y	y	n/a
182.0525	0.09	364105	keystroke_p	p	n/a
182.1275	0.075	364255	keystroke_t	t	n/a
182.4725	0.09	364945	keystroke_Key.space	Key.space	n/a
182.8325	0.105	365665	keystroke_c	c	n/a
182.9525	0.12	365905	keystroke_a	a	n/a
183.1625	0.06	366325	keystroke_n	n	n/a
183.4785	0.059	366957	keystroke_b	b	n/a
183.5825	0.075	367165	keystroke_e	e	n/a
183.7475	0.06	367495	keystroke_r	r	n/a
183.8825	0.09	367765	keystroke_r	r	n/a
184.0475	0.105	368095	keystroke_a	a	n/a
184.7525	0.135	369505	keystroke_Key.enter	Key.enter	n/a
184.894	5.276	369788	prompt	n/a	susan diana rica chad\n
185.5325	0.09	371065	keystroke_s	s	n/a
185.7725	0.06	371545	keystroke_u	u	n/a
185.8775	0.075	371755	keystroke_s	s	n/a
186.0125	0.09	372025	keystroke_a	a	n/a
186.1175	0.075	372235	keystroke_n	n	n/a
186.3125	0.075	372625	keystroke_Key.space	Key.space	n/a
186.4625	0.09	372925	keystroke_d	d	n/a
186.5675	0.075	373135	keystroke_i	i	n/a
186.7025	0.09	373405	keystroke_a	a	n/a
186.8085	0.059	373617	keystroke_n	n	n/a
186.8825	0.12	373765	keystroke_a	a	n/a
187.0775	0.09	374155	keystroke_Key.space	Key.space	n/a
187.4825	0.105	374965	keystroke_r	r	n/a
187.6025	0.09	375205	keystroke_i	i	n/a
187.7225	0.135	375445	keystroke_c	c	n/a
187.8425	0.12	375685	keystroke_a	a	n/a
188.0825	0.075	376165	keystroke_Key.space	Key.space	n/a
188.2625	0.105	376525	keystroke_c	c	n/a
188.3825	0.075	376765	keystroke_h	h	n/a
188.4725	0.12	376945	keystroke_a	a	n/a
188.5475	0.105	377095	keystroke_d	d	n/a
190.0775	0.09	380155	keystroke_Key.enter	Key.enter	n/a
190.175	5.695	380350	prompt	n/a	textbooks she hearings cakes\n
190.8585	0.089	381717	keystroke_t	t	n/a
190.9775	0.075	381955	keystroke_e	e	n/a
191.1575	0.09	382315	keystroke_x	x	n/a
191.3225	0.09	382645	keystroke_t	t	n/a
191.5775	0.06	383155	keystroke_b	b	n/a
191.7725	0.075	383545	keystroke_o	o	n/a
191.9075	0.075	383815	keystroke_o	o	n/a
192.0425	0.09	384085	keystroke_k	k	n/a
192.1475	0.075	384295	keystroke_s	s	n/a
192.2825	0.12	384565	keystroke_Key.space	Key.space	n/a
192.4625	0.09	384925	keystroke_s	s	n/a
192.5675	0.06	385135	keystroke_h	h	n/a
192.6575	0.075	385315	keystroke_e	e	n/a
192.8075	0.105	385615	keystroke_Key.space	Key.space	n/a
193.0185	0.059	386037	keystroke_h	h	n/a
193.1075	0.12	386215	keystroke_e	e	n/a
193.2125	0.135	386425	keystroke_a	a	n/a
193.3175	0.075	386635	keystroke_r	r	n/a
193.3935	0.059	386787	keystroke_i	i	n/a
193.4975	0.075	386995	keystroke_n	n	n/a
193.5425	0.09	387085	keystroke_g	g	n/a
194.2175	0.075	388435	keystroke_s	s	n/a
194.3825	0.105	388765	keystroke_Key.space	Key.space	n/a
194.6525	0.09	389305	keystroke_c	c	n/a
194.8035	0.089	389607	keystroke_a	a	n/a
194.9675	0.076	389935	keystroke_k	k	n/a
195.0575	0.06	390115	keystroke_e	e	n/a
195.2075	0.09	390415	keystroke_s	s	n/a
195.7625	0.105	391525	keystroke_Key.enter	Key.enter	n/a
195.8745	8.9215	391749	prompt	n/a	sailing negotiation jeep cooler\n
196.4225	0.09	392845	keystroke_s	s	n/a
196.6325	0.105	393265	keystroke_a	a	n/a
196.7975	0.076	393595	keystroke_i	i	n/a
196.9925	0.075	393985	keystroke_l	l	n/a
197.0985	0.074	394197	keystroke_i	i	n/a
197.2485	0.089	394497	keystroke_n	n	n/a
197.3225	0.076	394645	keystroke_g	g	n/a
197.8325	0.09	395665	keystroke_Key.space	Key.space	n/a
198.0735	0.074	396147	keystroke_n	n	n/a
198.1325	0.09	396265	keystroke_e	e	n/a
198.3425	0.09	396685	keystroke_g	g	n/a
198.4475	0.075	396895	keystroke_o	o	n/a
198.6875	0.09	397375	keystroke_t	t	n/a
198.8975	0.06	397795	keystroke_i	i	n/a
199.2875	0.09	398575	keystroke_a	a	n/a
199.4835	0.089	398967	keystroke_t	t	n/a
199.5425	0.12	399085	keystroke_i	i	n/a
199.6775	0.09	399355	keystroke_o	o	n/a
199.7235	0.104	399447	keystroke_n	n	n/a
200.1575	0.105	400315	keystroke_Key.space	Key.space	n/a
200.8025	0.061	401605	keystroke_e	e	n/a
201.6425	0.12	403285	keystroke_Key.backspace	Key.backspace	n/a
202.0785	0.089	404157	keystroke_j	j	n/a
202.1835	0.074	404367	keystroke_e	e	n/a
202.3485	0.074	404697	keystroke_e	e	n/a
202.4825	0.076	404965	keystroke_p	p	n/a
203.1575	0.12	406315	keystroke_Key.space	Key.space	n/a
203.3675	0.075	406735	keystroke_c	c	n/a
203.5175	0.09	407035	keystroke_o	o	n/a
203.6985	0.074	407397	keystroke_o	o	n/a
203.9375	0.075	407875	keystroke_l	l	n/a
204.0285	0.09	408057	keystroke_e	e	n/a
204.1035	0.119	408207	keystroke_r	r	n/a
204.7035	0.089	409407	keystroke_Key.enter	Key.enter	n/a
204.8015	6.878	409603	prompt	n/a	household perfume sunny pocket\n
205.513	0.074	411026	keystroke_h	h	n/a
205.677	0.09	411354	keystroke_o	o	n/a
205.782	0.075	411564	keystroke_u	u	n/a
205.842	0.105	411684	keystroke_s	s	n/a
205.933	0.104	411866	keystroke_e	e	n/a
206.203	0.044	412406	keystroke_h	h	n/a
206.307	0.06	412614	keystroke_o	o	n/a
206.503	0.074	413006	keystroke_l	l	n/a
206.592	0.076	413184	keystroke_d	d	n/a
206.892	0.09	413784	keystroke_Key.space	Key.space	n/a
207.357	0.091	414714	keystroke_p	p	n/a
207.433	0.059	414866	keystroke_e	e	n/a
207.508	0.105	415016	keystroke_r	r	n/a
207.717	0.091	415434	keystroke_f	f	n/a
207.867	0.075	415734	keystroke_u	u	n/a
208.153	0.075	416306	keystroke_m	m	n/a
208.273	0.059	416546	keystroke_e	e	n/a
208.662	0.09	417324	keystroke_Key.space	Key.space	n/a
208.812	0.106	417624	keystroke_s	s	n/a
208.932	0.06	417864	keystroke_u	u	n/a
209.173	0.044	418346	keystroke_n	n	n/a
209.263	0.089	418526	keystroke_n	n	n/a
209.503	0.059	419006	keystroke_y	y	n/a
209.787	0.105	419574	keystroke_Key.space	Key.space	n/a
210.148	0.09	420296	keystroke_p	p	n/a
210.448	0.06	420896	keystroke_o	o	n/a
210.552	0.076	421104	keystroke_c	c	n/a
210.807	0.06	421614	keystroke_k	k	n/a
210.882	0.12	421764	keystroke_e	e	n/a
211.017	0.091	422034	keystroke_t	t	n/a
211.587	0.091	423174	keystroke_Key.enter	Key.enter	n/a
211.6945	7.0805	423389	prompt	n/a	setup respectively mouse bugs\n
212.263	0.119	424526	keystroke_s	s	n/a
212.367	0.135	424734	keystroke_e	e	n/a
212.488	0.09	424976	keystroke_t	t	n/a
212.998	0.15	425996	keystroke_u	u	n/a
213.118	0.119	426236	keystroke_p	p	n/a
213.357	0.121	426714	keystroke_Key.space	Key.space	n/a
213.628	0.134	427256	keystroke_r	r	n/a
213.748	0.059	427496	keystroke_e	e	n/a
213.883	0.104	427766	keystroke_s	s	n/a
214.048	0.12	428096	keystroke_p	p	n/a
214.153	0.059	428306	keystroke_e	e	n/a
214.302	0.076	428604	keystroke_c	c	n/a
214.543	0.014	429086	keystroke_t	t	n/a
214.602	0.076	429204	keystroke_i	i	n/a
214.679	0.134	429358	keystroke_v	v	n/a
214.828	0.104	429656	keystroke_e	e	n/a
215.503	0.149	431006	keystroke_l	l	n/a
215.682	0.076	431364	keystroke_y	y	n/a
216.087	0.091	432174	keystroke_Key.space	Key.space	n/a
216.837	0.075	433674	keystroke_m	m	n/a
217.033	0.075	434066	keystroke_o	o	n/a
217.137	0.091	434274	keystroke_u	u	n/a
217.242	0.121	434484	keystroke_s	s	n/a
217.332	0.091	434664	keystroke_e	e	n/a
217.497	0.076	434994	keystroke_Key.space	Key.space	n/a
217.693	0.06	435386	keystroke_b	b	n/a
217.887	0.061	435774	keystroke_u	u	n/a
217.978	0.09	435956	keystroke_g	g	n/a
218.128	0.104	436256	keystroke_s	s	n/a
218.667	0.106	437334	keystroke_Key.enter	Key.enter	n/a
218.781	8.214	437562	prompt	n/a	money cause still dispatched\n
219.433	0.12	438866	keystroke_m	m	n/a
219.688	0.09	439376	keystroke_o	o	n/a
219.913	0.06	439826	keystroke_n	n	n/a
220.003	0.074	440006	keystroke_e	e	n/a
220.183	0.059	440366	keystroke_y	y	n/a
223.036	0.041	446072	keystroke_Key.space	Key.space	n/a
223.167	0.076	446334	keystroke_c	c	n/a
223.363	0.135	446726	keystroke_a	a	n/a
223.483	0.06	446966	keystroke_u	u	n/a
223.573	0.134	447146	keystroke_s	s	n/a
223.678	0.09	447356	keystroke_e	e	n/a
223.887	0.12	447774	keystroke_Key.space	Key.space	n/a
224.068	0.165	448136	keystroke_s	s	n/a
224.188	0.105	448376	keystroke_t	t	n/a
224.338	0.075	448676	keystroke_i	i	n/a
224.548	0.045	449096	keystroke_l	l	n/a
224.683	0.09	449366	keystroke_l	l	n/a
224.817	0.106	449634	keystroke_Key.space	Key.space	n/a
224.953	0.105	449906	keystroke_d	d	n/a
225.208	0.074	450416	keystroke_i	i	n/a
225.312	0.076	450624	keystroke_s	s	n/a
225.568	0.09	451136	keystroke_p	p	n/a
225.673	0.194	451346	keystroke_a	a	n/a
225.823	0.06	451646	keystroke_t	t	n/a
226.033	0.075	452066	keystroke_c	c	n/a
226.153	0.075	452306	keystroke_h	h	n/a
226.243	0.06	452486	keystroke_e	e	n/a
226.378	0.105	452756	keystroke_d	d	n/a
226.903	0.089	453806	keystroke_Key.enter	Key.enter	n/a
226.9995	8.44	453999	prompt	n/a	analog porsche alaska convenience\n
227.668	0.12	455336	keystroke_a	a	n/a
228.043	0.075	456086	keystroke_n	n	n/a
228.163	0.089	456326	keystroke_a	a	n/a
228.298	0.075	456596	keystroke_l	l	n/a
228.493	0.06	456986	keystroke_o	o	n/a
228.568	0.06	457136	keystroke_g	g	n/a
228.853	0.105	457706	keystroke_Key.space	Key.space	n/a
229.168	0.12	458336	keystroke_p	p	n/a
229.393	0.075	458786	keystroke_o	o	n/a
229.483	0.075	458966	keystroke_r	r	n/a
229.888	0.075	459776	keystroke_s	s	n/a
230.053	0.075	460106	keystroke_c	c	n/a
230.158	0.075	460316	keystroke_h	h	n/a
230.234	0.074	460468	keystroke_e	e	n/a
230.412	0.091	460824	keystroke_Key.space	Key.space	n/a
230.548	0.105	461096	keystroke_a	a	n/a
230.698	0.06	461396	keystroke_l	l	n/a
230.818	0.105	461636	keystroke_a	a	n/a
230.953	0.12	461906	keystroke_s	s	n/a
231.238	0.075	462476	keystroke_k	k	n/a
231.328	0.105	462656	keystroke_a	a	n/a
231.613	0.09	463226	keystroke_Key.space	Key.space	n/a
233.398	0.075	466796	keystroke_c	c	n/a
233.518	0.09	467036	keystroke_o	o	n/a
233.668	0.075	467336	keystroke_n	n	n/a
233.788	0.105	467576	keystroke_v	v	n/a
233.968	0.075	467936	keystroke_e	e	n/a
234.103	0.09	468206	keystroke_n	n	n/a
234.223	0.09	468446	keystroke_i	i	n/a
234.403	0.06	468806	keystroke_e	e	n/a
234.628	0.015	469256	keystroke_n	n	n/a
234.643	0.09	469286	keystroke_c	c	n/a
234.718	0.09	469436	keystroke_e	e	n/a
235.348	0.09	470696	keystroke_Key.enter	Key.enter	n/a
235.4435	9.657	470887	prompt	n/a	bite watch minister assess\n
236.158	0.03	472316	keystroke_h	h	n/a
236.293	0.06	472586	keystroke_i	i	n/a
236.368	0.105	472736	keystroke_t	t	n/a
236.488	0.075	472976	keystroke_e	e	n/a
236.788	0.09	473576	keystroke_Key.space	Key.space	n/a
237.9425	0.0605	475885	keystroke_Key.backspace	Key.backspace	n/a
238.198	0.015	476396	keystroke_Key.backspace	Key.backspace	n/a
238.258	0.0895	476516	keystroke_Key.backspace	Key.backspace	n/a
238.4225	0.09	476845	keystroke_Key.backspace	Key.backspace	n/a
238.7825	0.12	477565	keystroke_Key.backspace	Key.backspace	n/a
239.3975	0.06	478795	keystroke_b	b	n/a
239.5325	0.06	479065	keystroke_i	i	n/a
239.6525	0.09	479305	keystroke_t	t	n/a
239.7575	0.105	479515	keystroke_e	e	n/a
240.0575	0.12	480115	keystroke_Key.space	Key.space	n/a
240.3125	0.09	480625	keystroke_w	w	n/a
240.4925	0.195	480985	keystroke_a	a	n/a
240.6725	0.06	481345	keystroke_t	t	n/a
240.8675	0.09	481735	keystroke_c	c	n/a
241.0175	0.06	482035	keystroke_h	h	n/a
241.3625	0.105	482725	keystroke_Key.space	Key.space	n/a
241.6475	0.06	483295	keystroke_m	m	n/a
241.7975	0.06	483595	keystroke_i	i	n/a
241.933	0.0745	483866	keystroke_n	n	n/a
242.2325	0.0605	484465	keystroke_i	i	n/a
242.3375	0.09	484675	keystroke_s	s	n/a
242.5925	0.075	485185	keystroke_t	t	n/a
242.7275	0.105	485455	keystroke_e	e	n/a
242.8025	0.09	485605	keystroke_r	r	n/a
243.0125	0.1055	486025	keystroke_Key.space	Key.space	n/a
243.1625	0.12	486325	keystroke_a	a	n/a
243.373	0.06	486746	keystroke_s	s	n/a
243.508	0.0895	487016	keystroke_s	s	n/a
243.643	0.075	487286	keystroke_e	e	n/a
243.8375	0.0905	487675	keystroke_s	s	n/a
243.988	0.1045	487976	keystroke_s	s	n/a
245.0075	0.09	490015	keystroke_Key.enter	Key.enter	n/a
245.106	8.0645	490212	prompt	n/a	being layout owner regulatory\n
245.8025	0.06	491605	keystroke_b	b	n/a
245.8775	0.06	491755	keystroke_e	e	n/a
246.0875	0.06	492175	keystroke_i	i	n/a
246.1925	0.075	492385	keystroke_n	n	n/a
246.2975	0.075	492595	keystroke_g	g	n/a
246.6425	0.12	493285	keystroke_Key.space	Key.space	n/a
247.0475	0.06	494095	keystroke_l	l	n/a
247.1225	0.105	494245	keystroke_a	a	n/a
247.2575	0.09	494515	keystroke_y	y	n/a
247.6175	0.075	495235	keystroke_u	u	n/a
247.7525	0.075	495505	keystroke_t	t	n/a
248.5175	0.105	497035	keystroke_Key.backspace	Key.backspace	n/a
249.1925	0.09	498385	keystroke_Key.backspace	Key.backspace	n/a
249.7025	0.075	499405	keystroke_o	o	n/a
249.8225	0.06	499645	keystroke_u	u	n/a
249.8975	0.06	499795	keystroke_t	t	n/a
250.152	0.105	500304	keystroke_Key.space	Key.space	n/a
250.377	0.075	500754	keystroke_o	o	n/a
250.467	0.105	500934	keystroke_w	w	n/a
250.618	0.074	501236	keystroke_n	n	n/a
250.707	0.106	501414	keystroke_e	e	n/a
250.797	0.106	501594	keystroke_r	r	n/a
251.067	0.075	502134	keystroke_Key.space	Key.space	n/a
251.292	0.106	502584	keystroke_r	r	n/a
251.382	0.091	502764	keystroke_e	e	n/a
251.547	0.09	503094	keystroke_g	g	n/a
251.653	0.059	503306	keystroke_u	u	n/a
251.862	0.12	503724	keystroke_l	l	n/a
251.9075	0.1345	503815	keystroke_a	a	n/a
252.162	0.075	504324	keystroke_t	t	n/a
252.222	0.075	504444	keystroke_o	o	n/a
252.342	0.09	504684	keystroke_r	r	n/a
252.448	0.059	504896	keystroke_y	y	n/a
253.062	0.105	506124	keystroke_Key.enter	Key.enter	n/a
253.1765	7.0875	506353	prompt	n/a	included taking asus loved\n
253.888	0.059	507776	keystroke_i	i	n/a
254.008	0.074	508016	keystroke_n	n	n/a
254.142	0.09	508284	keystroke_c	c	n/a
254.247	0.106	508494	keystroke_l	l	n/a
254.487	0.09	508974	keystroke_u	u	n/a
254.608	0.074	509216	keystroke_d	d	n/a
254.818	0.059	509636	keystroke_e	e	n/a
254.967	0.09	509934	keystroke_d	d	n/a
255.402	0.105	510804	keystroke_Key.space	Key.space	n/a
255.762	0.045	511524	keystroke_t	t	n/a
255.868	0.09	511736	keystroke_a	a	n/a
256.798	0.089	513596	keystroke_k	k	n/a
257.083	0.074	514166	keystroke_i	i	n/a
257.217	0.075	514434	keystroke_n	n	n/a
257.353	0.075	514706	keystroke_g	g	n/a
257.652	0.105	515304	keystroke_Key.space	Key.space	n/a
257.938	0.09	515876	keystroke_a	a	n/a
258.118	0.075	516236	keystroke_s	s	n/a
258.358	0.06	516716	keystroke_u	u	n/a
258.447	0.09	516894	keystroke_s	s	n/a
258.687	0.105	517374	keystroke_Key.space	Key.space	n/a
258.913	0.029	517826	keystroke_l	l	n/a
259.048	0.075	518096	keystroke_o	o	n/a
259.107	0.075	518214	keystroke_v	v	n/a
259.272	0.06	518544	keystroke_e	e	n/a
259.437	0.075	518874	keystroke_d	d	n/a
260.157	0.105	520314	keystroke_Key.enter	Key.enter	n/a
260.2725	9.4875	520545	prompt	n/a	must terrorism pushing affiliate\n
260.983	0.074	521966	keystroke_m	m	n/a
261.177	0.06	522354	keystroke_u	u	n/a
261.282	0.136	522564	keystroke_s	s	n/a
261.387	0.106	522774	keystroke_t	t	n/a
261.642	0.12	523284	keystroke_Key.space	Key.space	n/a
262.152	0.075	524304	keystroke_t	t	n/a
262.302	0.105	524604	keystroke_e	e	n/a
262.528	0.06	525056	keystroke_r	r	n/a
262.662	0.09	525324	keystroke_r	r	n/a
263.097	0.076	526194	keystroke_o	o	n/a
263.232	0.091	526464	keystroke_r	r	n/a
263.368	0.045	526736	keystroke_i	i	n/a
263.472	0.091	526944	keystroke_s	s	n/a
263.593	0.09	527186	keystroke_m	m	n/a
263.892	0.106	527784	keystroke_Key.space	Key.space	n/a
264.132	0.135	528264	keystroke_p	p	n/a
264.328	0.074	528656	keystroke_u	u	n/a
264.508	0.105	529016	keystroke_s	s	n/a
264.598	0.075	529196	keystroke_h	h	n/a
264.807	0.075	529614	keystroke_i	i	n/a
264.913	0.074	529826	keystroke_n	n	n/a
265.018	0.074	530036	keystroke_g	g	n/a
265.197	0.105	530394	keystroke_Key.space	Key.space	n/a
265.497	0.121	530994	keystroke_a	a	n/a
265.737	0.076	531474	keystroke_f	f	n/a
265.873	0.104	531746	keystroke_f	f	n/a
266.262	0.091	532524	keystroke_i	i	n/a
266.622	0.046	533244	keystroke_l	l	n/a
266.698	0.09	533396	keystroke_i	i	n/a
266.862	0.166	533724	keystroke_a	a	n/a
267.013	0.074	534026	keystroke_t	t	n/a
267.357	0.061	534714	keystroke_e	e	n/a
267.897	0.105	535794	keystroke_Key.space	Key.space	n/a
269.082	0.075	538164	keystroke_Key.backspace	Key.backspace	n/a
269.698	0.06	539396	keystroke_Key.enter	Key.enter	n/a
269.766	12.338	539532	prompt	n/a	equivalent atlantic arabic beam\n
270.388	0.075	540776	keystroke_e	e	n/a
270.627	0.091	541254	keystroke_q	q	n/a
271.513	0.075	543026	keystroke_u	u	n/a
272.262	0.091	544524	keystroke_i	i	n/a
272.533	0.105	545066	keystroke_v	v	n/a
272.713	0.105	545426	keystroke_a	a	n/a
272.848	0.074	545696	keystroke_l	l	n/a
272.968	0.06	545936	keystroke_e	e	n/a
273.043	0.075	546086	keystroke_n	n	n/a
273.133	0.06	546266	keystroke_t	t	n/a
273.568	0.12	547136	keystroke_Key.space	Key.space	n/a
273.928	0.134	547856	keystroke_a	a	n/a
274.198	0.075	548396	keystroke_t	t	n/a
274.453	0.09	548906	keystroke_l	l	n/a
274.573	0.12	549146	keystroke_a	a	n/a
274.678	0.075	549356	keystroke_n	n	n/a
274.813	0.06	549626	keystroke_t	t	n/a
275.038	0.074	550076	keystroke_i	i	n/a
275.128	0.09	550256	keystroke_c	c	n/a
275.353	0.104	550706	keystroke_Key.space	Key.space	n/a
275.833	0.18	551666	keystroke_a	a	n/a
278.446	0.027	556892	keystroke_r	r	n/a
278.518	0.105	557036	keystroke_a	a	n/a
278.728	0.06	557456	keystroke_b	b	n/a
278.923	0.045	557846	keystroke_i	i	n/a
278.998	0.105	557996	keystroke_c	c	n/a
279.357	0.091	558714	keystroke_Key.space	Key.space	n/a
281.068	0.045	562136	keystroke_b	b	n/a
281.158	0.06	562316	keystroke_e	e	n/a
281.323	0.105	562646	keystroke_a	a	n/a
281.443	0.06	562886	keystroke_m	m	n/a
282.013	0.089	564026	keystroke_Key.enter	Key.enter	n/a
282.11	7.4805	564220	prompt	n/a	situation oasis bunch transit\n
282.718	0.105	565436	keystroke_s	s	n/a
282.853	0.045	565706	keystroke_i	i	n/a
283.018	0.075	566036	keystroke_t	t	n/a
283.138	0.045	566276	keystroke_u	u	n/a
283.303	0.135	566606	keystroke_a	a	n/a
283.423	0.075	566846	keystroke_t	t	n/a
283.453	0.075	566906	keystroke_i	i	n/a
283.558	0.105	567116	keystroke_o	o	n/a
283.618	0.12	567236	keystroke_n	n	n/a
284.443	0.135	568886	keystroke_Key.space	Key.space	n/a
285.013	0.06	570026	keystroke_o	o	n/a
285.163	0.09	570326	keystroke_a	a	n/a
285.433	0.075	570866	keystroke_s	s	n/a
285.823	0.06	571646	keystroke_i	i	n/a
285.883	0.105	571766	keystroke_s	s	n/a
286.408	0.105	572816	keystroke_Key.space	Key.space	n/a
286.678	0.045	573356	keystroke_b	b	n/a
286.888	0.045	573776	keystroke_u	u	n/a
287.113	0.06	574226	keystroke_n	n	n/a
287.203	0.105	574406	keystroke_c	c	n/a
287.323	0.06	574646	keystroke_h	h	n/a
287.668	0.12	575336	keystroke_Key.space	Key.space	n/a
288.073	0.075	576146	keystroke_t	t	n/a
288.238	0.075	576476	keystroke_r	r	n/a
288.388	0.105	576776	keystroke_a	a	n/a
288.5075	0.0605	577015	keystroke_n	n	n/a
288.6575	0.0755	577315	keystroke_s	s	n/a
288.748	0.0745	577496	keystroke_i	i	n/a
288.8375	0.075	577675	keystroke_t	t	n/a
289.4825	0.105	578965	keystroke_Key.enter	Key.enter	n/a
289.5955	8.139	579191	prompt	n/a	newsletters baghdad definitely predict\n
290.3825	0.06	580765	keystroke_n	n	n/a
290.5025	0.15	581005	keystroke_e	e	n/a
290.6225	0.12	581245	keystroke_w	w	n/a
290.848	0.0895	581696	keystroke_s	s	n/a
291.1925	0.075	582385	keystroke_l	l	n/a
291.2825	0.09	582565	keystroke_e	e	n/a
291.4325	0.045	582865	keystroke_t	t	n/a
291.5675	0.09	583135	keystroke_t	t	n/a
291.6875	0.105	583375	keystroke_e	e	n/a
291.7625	0.09	583525	keystroke_r	r	n/a
292.0925	0.105	584185	keystroke_Key.space	Key.space	n/a
292.3475	0.06	584695	keystroke_b	b	n/a
292.4675	0.135	584935	keystroke_a	a	n/a
292.8725	0.075	585745	keystroke_g	g	n/a
293.0675	0.03	586135	keystroke_h	h	n/a
293.3075	0.09	586615	keystroke_d	d	n/a
293.4125	0.135	586825	keystroke_a	a	n/a
293.5175	0.09	587035	keystroke_d	d	n/a
294.2675	0.09	588535	keystroke_Key.space	Key.space	n/a
294.3425	0.06	588685	keystroke_d	d	n/a
294.4925	0.075	588985	keystroke_e	e	n/a
294.6425	0.09	589285	keystroke_f	f	n/a
294.7475	0.075	589495	keystroke_i	i	n/a
294.9275	0.09	589855	keystroke_n	n	n/a
295.0325	0.06	590065	keystroke_i	i	n/a
295.1075	0.105	590215	keystroke_t	t	n/a
295.1975	0.09	590395	keystroke_e	e	n/a
295.3175	0.135	590635	keystroke_l	l	n/a
295.4825	0.075	590965	keystroke_y	y	n/a
296.0975	0.105	592195	keystroke_Key.space	Key.space	n/a
296.2925	0.105	592585	keystroke_p	p	n/a
296.3525	0.12	592705	keystroke_r	r	n/a
296.4275	0.09	592855	keystroke_e	e	n/a
296.6375	0.06	593275	keystroke_d	d	n/a
296.7125	0.06	593425	keystroke_i	i	n/a
296.7875	0.075	593575	keystroke_c	c	n/a
296.9675	0.075	593935	keystroke_t	t	n/a
297.6125	0.12	595225	keystroke_Key.enter	Key.enter	n/a
297.7395	5.651	595479	prompt	n/a	begin looked inclusive weak\n
298.4525	0.09	596905	keystroke_b	b	n/a
298.5275	0.075	597055	keystroke_e	e	n/a
298.6925	0.09	597385	keystroke_g	g	n/a
298.7975	0.075	597595	keystroke_i	i	n/a
298.9025	0.06	597805	keystroke_n	n	n/a
299.2025	0.09	598405	keystroke_Key.space	Key.space	n/a
299.3975	0.075	598795	keystroke_l	l	n/a
299.6225	0.06	599245	keystroke_o	o	n/a
299.7575	0.075	599515	keystroke_o	o	n/a
299.8775	0.09	599755	keystroke_k	k	n/a
300.0125	0.075	600025	keystroke_e	e	n/a
300.1475	0.09	600295	keystroke_d	d	n/a
300.3425	0.105	600685	keystroke_Key.space	Key.space	n/a
300.5375	0.075	601075	keystroke_i	i	n/a
300.6425	0.075	601285	keystroke_n	n	n/a
300.7625	0.12	601525	keystroke_c	c	n/a
300.8675	0.12	601735	keystroke_l	l	n/a
300.9725	0.105	601945	keystroke_u	u	n/a
301.2125	0.03	602425	keystroke_s	s	n/a
301.5575	0.075	603115	keystroke_i	i	n/a
301.6475	0.12	603295	keystroke_v	v	n/a
301.7825	0.075	603565	keystroke_e	e	n/a
302.0375	0.09	604075	keystroke_Key.space	Key.space	n/a
302.2475	0.105	604495	keystroke_w	w	n/a
302.3675	0.075	604735	keystroke_e	e	n/a
302.5025	0.12	605005	keystroke_a	a	n/a
302.6525	0.075	605305	keystroke_k	k	n/a
303.2675	0.12	606535	keystroke_Key.enter	Key.enter	n/a
303.3965	6.533	606793	prompt	n/a	boxing movement healing weapons\n
304.1975	0.075	608395	keystroke_b	b	n/a
304.3175	0.105	608635	keystroke_o	o	n/a
304.4825	0.075	608965	keystroke_x	x	n/a
304.6625	0.06	609325	keystroke_i	i	n/a
304.7675	0.06	609535	keystroke_n	n	n/a
304.8425	0.075	609685	keystroke_g	g	n/a
305.3075	0.12	610615	keystroke_Key.space	Key.space	n/a
305.6225	0.09	611245	keystroke_m	m	n/a
305.7575	0.075	611515	keystroke_o	o	n/a
305.8475	0.06	611695	keystroke_v	v	n/a
305.9375	0.105	611875	keystroke_e	e	n/a
306.2525	0.06	612505	keystroke_m	m	n/a
306.2975	0.075	612595	keystroke_e	e	n/a
306.4325	0.06	612865	keystroke_n	n	n/a
306.5075	0.075	613015	keystroke_t	t	n/a
307.0175	0.105	614035	keystroke_Key.space	Key.space	n/a
307.2425	0.075	614485	keystroke_h	h	n/a
307.3025	0.075	614605	keystroke_e	e	n/a
307.4525	0.12	614905	keystroke_a	a	n/a
307.5575	0.075	615115	keystroke_l	l	n/a
307.7375	0.075	615475	keystroke_i	i	n/a
307.8425	0.06	615685	keystroke_n	n	n/a
307.9035	0.089	615807	keystroke_g	g	n/a
308.1125	0.075	616225	keystroke_Key.space	Key.space	n/a
308.4125	0.12	616825	keystroke_w	w	n/a
308.5025	0.105	617005	keystroke_e	e	n/a
308.6525	0.12	617305	keystroke_a	a	n/a
308.8925	0.09	617785	keystroke_p	p	n/a
309.0425	0.075	618085	keystroke_o	o	n/a
309.1625	0.09	618325	keystroke_n	n	n/a
309.2225	0.09	618445	keystroke_s	s	n/a
309.8225	0.105	619645	keystroke_Key.enter	Key.enter	n/a
309.9345	12.61	619869	prompt	n/a	holmes increased palm ivory\n
310.6625	0.075	621325	keystroke_h	h	n/a
310.8575	0.075	621715	keystroke_o	o	n/a
311.0825	0.045	622165	keystroke_m	m	n/a
311.2325	0.075	622465	keystroke_e	e	n/a
311.3975	0.105	622795	keystroke_s	s	n/a
312.2525	0.09	624505	keystroke_Key.backspace	Key.backspace	n/a
312.4775	0.09	624955	keystroke_Key.backspace	Key.backspace	n/a
313.1675	0.075	626335	keystroke_l	l	n/a
313.3925	0.075	626785	keystroke_m	m	n/a
313.4825	0.045	626965	keystroke_e	e	n/a
313.6175	0.09	627235	keystroke_s	s	n/a
314.3675	0.09	628735	keystroke_Key.backspace	Key.backspace	n/a
314.5625	0.12	629125	keystroke_Key.backspace	Key.backspace	n/a
314.7725	0.12	629545	keystroke_Key.backspace	Key.backspace	n/a
314.9675	0.12	629935	keystroke_Key.backspace	Key.backspace	n/a
315.5675	0.105	631135	keystroke_Key.backspace	Key.backspace	n/a
316.1675	0.09	632335	keystroke_l	l	n/a
316.7975	0.09	633595	keystroke_m	m	n/a
316.9325	0.06	633865	keystroke_e	e	n/a
317.0675	0.105	634135	keystroke_s	s	n/a
317.5775	0.105	635155	keystroke_Key.space	Key.space	n/a
317.8775	0.06	635755	keystroke_i	i	n/a
317.9975	0.075	635995	keystroke_n	n	n/a
318.3875	0.075	636775	keystroke_c	c	n/a
318.6275	0.225	637255	keystroke_r	r	n/a
318.8075	0.135	637615	keystroke_e	e	n/a
319.0025	0.18	638005	keystroke_a	a	n/a
319.1675	0.18	638335	keystroke_s	s	n/a
319.3175	0.075	638635	keystroke_e	e	n/a
319.4375	0.105	638875	keystroke_d	d	n/a
319.8725	0.105	639745	keystroke_Key.space	Key.space	n/a
320.3825	0.09	640765	keystroke_p	p	n/a
320.5025	0.135	641005	keystroke_a	a	n/a
320.6385	0.074	641277	keystroke_l	l	n/a
320.8025	0.09	641605	keystroke_m	m	n/a
320.9675	0.09	641935	keystroke_Key.space	Key.space	n/a
321.3125	0.06	642625	keystroke_i	i	n/a
321.4325	0.105	642865	keystroke_v	v	n/a
321.6275	0.09	643255	keystroke_o	o	n/a
321.7475	0.075	643495	keystroke_r	r	n/a
321.8375	0.075	643675	keystroke_y	y	n/a
322.4525	0.09	644905	keystroke_Key.enter	Key.enter	n/a
322.5495	8.9645	645099	prompt	n/a	terrorists probe signatures sofa\n
323.3535	0.059	646707	keystroke_e	e	n/a
324.1625	0.105	648325	keystroke_Key.backspace	Key.backspace	n/a
324.477	0.105	648954	keystroke_t	t	n/a
324.657	0.105	649314	keystroke_e	e	n/a
324.867	0.075	649734	keystroke_r	r	n/a
325.017	0.09	650034	keystroke_r	r	n/a
325.122	0.075	650244	keystroke_o	o	n/a
325.302	0.09	650604	keystroke_r	r	n/a
325.407	0.075	650814	keystroke_i	i	n/a
325.483	0.104	650966	keystroke_s	s	n/a
325.557	0.105	651114	keystroke_t	t	n/a
325.812	0.075	651624	keystroke_s	s	n/a
326.367	0.105	652734	keystroke_Key.space	Key.space	n/a
326.967	0.12	653934	keystroke_p	p	n/a
327.042	0.075	654084	keystroke_r	r	n/a
327.192	0.075	654384	keystroke_o	o	n/a
327.327	0.075	654654	keystroke_b	b	n/a
327.417	0.075	654834	keystroke_e	e	n/a
327.762	0.105	655524	keystroke_Key.space	Key.space	n/a
328.077	0.09	656154	keystroke_s	s	n/a
328.152	0.075	656304	keystroke_i	i	n/a
328.272	0.09	656544	keystroke_g	g	n/a
328.482	0.06	656964	keystroke_n	n	n/a
328.557	0.15	657114	keystroke_a	a	n/a
328.677	0.075	657354	keystroke_t	t	n/a
328.782	0.075	657564	keystroke_u	u	n/a
328.858	0.119	657716	keystroke_r	r	n/a
328.947	0.09	657894	keystroke_e	e	n/a
329.322	0.075	658644	keystroke_s	s	n/a
329.607	0.135	659214	keystroke_Key.space	Key.space	n/a
329.982	0.09	659964	keystroke_s	s	n/a
330.087	0.06	660174	keystroke_o	o	n/a
330.177	0.105	660354	keystroke_f	f	n/a
330.267	0.12	660534	keystroke_a	a	n/a
331.407	0.105	662814	keystroke_Key.enter	Key.enter	n/a
331.518	7.8415	663036	prompt	n/a	symantec lingerie felt phantom\n
332.172	0.105	664344	keystroke_s	s	n/a
332.337	0.09	664674	keystroke_y	y	n/a
332.652	0.09	665304	keystroke_m	m	n/a
332.877	0.105	665754	keystroke_a	a	n/a
332.922	0.075	665844	keystroke_n	n	n/a
333.057	0.09	666114	keystroke_t	t	n/a
333.192	0.09	666384	keystroke_e	e	n/a
333.342	0.09	666684	keystroke_c	c	n/a
333.672	0.12	667344	keystroke_Key.space	Key.space	n/a
334.047	0.075	668094	keystroke_l	l	n/a
334.227	0.06	668454	keystroke_i	i	n/a
334.317	0.075	668634	keystroke_n	n	n/a
334.647	0.075	669294	keystroke_g	g	n/a
334.752	0.09	669504	keystroke_e	e	n/a
334.902	0.105	669804	keystroke_r	r	n/a
335.022	0.075	670044	keystroke_i	i	n/a
335.082	0.075	670164	keystroke_e	e	n/a
335.547	0.105	671094	keystroke_Key.space	Key.space	n/a
335.892	0.09	671784	keystroke_f	f	n/a
336.028	0.104	672056	keystroke_e	e	n/a
336.237	0.09	672474	keystroke_l	l	n/a
336.297	0.09	672594	keystroke_t	t	n/a
336.822	0.12	673644	keystroke_Key.space	Key.space	n/a
337.287	0.12	674574	keystroke_p	p	n/a
337.422	0.09	674844	keystroke_h	h	n/a
337.527	0.075	675054	keystroke_a	a	n/a
337.752	0.06	675504	keystroke_n	n	n/a
337.902	0.06	675804	keystroke_t	t	n/a
338.037	0.075	676074	keystroke_o	o	n/a
338.577	0.06	677154	keystroke_m	m	n/a
339.267	0.09	678534	keystroke_Key.enter	Key.enter	n/a
339.365	11.139	678730	prompt	n/a	address needs comply bread\n
339.987	0.105	679974	keystroke_a	a	n/a
340.152	0.075	680304	keystroke_d	d	n/a
340.317	0.06	680634	keystroke_d	d	n/a
340.422	0.135	680844	keystroke_r	r	n/a
340.527	0.09	681054	keystroke_e	e	n/a
340.707	0.06	681414	keystroke_s	s	n/a
340.857	0.09	681714	keystroke_s	s	n/a
341.232	0.06	682464	keystroke_n	n	n/a
342.147	0.105	684294	keystroke_Key.backspace	Key.backspace	n/a
342.432	0.12	684864	keystroke_Key.space	Key.space	n/a
342.672	0.075	685344	keystroke_n	n	n/a
342.792	0.06	685584	keystroke_e	e	n/a
342.942	0.06	685884	keystroke_e	e	n/a
343.092	0.09	686184	keystroke_d	d	n/a
343.243	0.089	686486	keystroke_s	s	n/a
343.482	0.105	686964	keystroke_Key.space	Key.space	n/a
343.7975	0.105	687595	keystroke_c	c	n/a
343.9175	0.09	687835	keystroke_o	o	n/a
344.1125	0.105	688225	keystroke_m	m	n/a
344.2775	0.12	688555	keystroke_p	p	n/a
344.4425	0.12	688885	keystroke_l	l	n/a
344.5775	0.09	689155	keystroke_y	y	n/a
344.7725	0.12	689545	keystroke_Key.space	Key.space	n/a
345.0725	0.045	690145	keystroke_h	h	n/a
345.2225	0.12	690445	keystroke_r	r	n/a
345.3275	0.105	690655	keystroke_e	e	n/a
345.4625	0.165	690925	keystroke_a	a	n/a
345.5825	0.12	691165	keystroke_d	d	n/a
346.2725	0.105	692545	keystroke_Key.backspace	Key.backspace	n/a
346.4525	0.105	692905	keystroke_Key.backspace	Key.backspace	n/a
346.6475	0.09	693295	keystroke_Key.backspace	Key.backspace	n/a
346.8125	0.09	693625	keystroke_Key.backspace	Key.backspace	n/a
346.9625	0.105	693925	keystroke_Key.backspace	Key.backspace	n/a
347.5775	0.06	695155	keystroke_b	b	n/a
347.7425	0.12	695485	keystroke_r	r	n/a
347.8175	0.105	695635	keystroke_e	e	n/a
347.9375	0.135	695875	keystroke_a	a	n/a
348.0425	0.105	696085	keystroke_d	d	n/a
350.4605	0.042	700921	keystroke_Key.enter	Key.enter	n/a
350.5105	15.7295	701021	prompt	n/a	museums victim faced damage\n
351.1925	0.03	702385	keystroke_n	n	n/a
352.0475	0.12	704095	keystroke_Key.backspace	Key.backspace	n/a
352.5425	0.09	705085	keystroke_m	m	n/a
352.6925	0.075	705385	keystroke_u	u	n/a
352.8425	0.105	705685	keystroke_s	s	n/a
352.977	0.06	705954	keystroke_u	u	n/a
353.112	0.075	706224	keystroke_e	e	n/a
353.382	0.09	706764	keystroke_m	m	n/a
353.5025	0.09	707005	keystroke_s	s	n/a
353.757	0.105	707514	keystroke_Key.space	Key.space	n/a
354.312	0.09	708624	keystroke_v	v	n/a
354.492	0.0755	708984	keystroke_i	i	n/a
354.582	0.075	709164	keystroke_c	c	n/a
354.822	0.06	709644	keystroke_t	t	n/a
354.927	0.075	709854	keystroke_i	i	n/a
356.802	0.09	713604	keystroke_Key.backspace	Key.backspace	n/a
356.997	0.105	713994	keystroke_Key.backspace	Key.backspace	n/a
357.177	0.105	714354	keystroke_Key.backspace	Key.backspace	n/a
358.077	0.015	716154	keystroke_Key.backspace	Key.backspace	n/a
358.167	0.09	716334	keystroke_Key.backspace	Key.backspace	n/a
358.347	0.09	716694	keystroke_Key.backspace	Key.backspace	n/a
358.542	0.075	717084	keystroke_Key.backspace	Key.backspace	n/a
358.707	0.06	717414	keystroke_Key.backspace	Key.backspace	n/a
359.337	0.105	718674	keystroke_s	s	n/a
359.427	0.075	718854	keystroke_e	e	n/a
360.522	0.09	721044	keystroke_u	u	n/a
360.762	0.075	721524	keystroke_m	m	n/a
360.867	0.105	721734	keystroke_s	s	n/a
361.317	0.135	722634	keystroke_Key.space	Key.space	n/a
361.617	0.09	723234	keystroke_v	v	n/a
361.722	0.075	723444	keystroke_i	i	n/a
361.827	0.09	723654	keystroke_c	c	n/a
362.052	0.075	724104	keystroke_t	t	n/a
362.142	0.06	724284	keystroke_i	i	n/a
362.352	0.075	724704	keystroke_m	m	n/a
362.937	0.105	725874	keystroke_Key.space	Key.space	n/a
363.192	0.135	726384	keystroke_f	f	n/a
363.342	0.225	726684	keystroke_a	a	n/a
363.492	0.165	726984	keystroke_c	c	n/a
363.657	0.09	727314	keystroke_e	e	n/a
363.822	0.09	727644	keystroke_d	d	n/a
364.122	0.105	728244	keystroke_Key.space	Key.space	n/a
364.482	0.165	728964	keystroke_d	d	n/a
364.617	0.105	729234	keystroke_a	a	n/a
364.737	0.105	729474	keystroke_m	m	n/a
364.857	0.135	729714	keystroke_a	a	n/a
364.962	0.12	729924	keystroke_g	g	n/a
365.052	0.105	730104	keystroke_e	e	n/a
366.132	0.105	732264	keystroke_Key.enter	Key.enter	n/a
366.2475	7.7925	732495	prompt	n/a	entries niagara pike thomson\n
367.017	0.09	734034	keystroke_e	e	n/a
367.122	0.075	734244	keystroke_n	n	n/a
367.317	0.075	734634	keystroke_t	t	n/a
367.692	0.075	735384	keystroke_r	r	n/a
368.367	0.06	736734	keystroke_i	i	n/a
368.472	0.06	736944	keystroke_e	e	n/a
368.607	0.105	737214	keystroke_s	s	n/a
368.892	0.12	737784	keystroke_Key.space	Key.space	n/a
369.567	0.075	739134	keystroke_n	n	n/a
369.762	0.09	739524	keystroke_i	i	n/a
369.837	0.12	739674	keystroke_a	a	n/a
370.017	0.075	740034	keystroke_g	g	n/a
370.137	0.1045	740274	keystroke_a	a	n/a
370.2875	0.075	740575	keystroke_r	r	n/a
370.3625	0.104	740725	keystroke_a	a	n/a
370.8865	0.105	741773	keystroke_Key.space	Key.space	n/a
371.2765	0.12	742553	keystroke_p	p	n/a
371.4575	0.089	742915	keystroke_i	i	n/a
371.6975	0.059	743395	keystroke_k	k	n/a
371.7715	0.061	743543	keystroke_e	e	n/a
372.0865	0.09	744173	keystroke_Key.space	Key.space	n/a
372.4925	0.074	744985	keystroke_t	t	n/a
372.6415	0.045	745283	keystroke_h	h	n/a
372.8825	0.075	745765	keystroke_o	o	n/a
373.0625	0.075	746125	keystroke_m	m	n/a
373.1665	0.106	746333	keystroke_s	s	n/a
373.2575	0.075	746515	keystroke_o	o	n/a
373.3475	0.089	746695	keystroke_n	n	n/a
373.9475	0.089	747895	keystroke_Key.enter	Key.enter	n/a
374.0445	10.735	748089	prompt	n/a	displays capture on sitting\n
374.6375	0.089	749275	keystroke_d	d	n/a
374.8615	0.091	749723	keystroke_i	i	n/a
374.9215	0.12	749843	keystroke_s	s	n/a
375.1015	0.105	750203	keystroke_p	p	n/a
375.3125	0.075	750625	keystroke_l	l	n/a
375.4015	0.106	750803	keystroke_a	a	n/a
375.5075	0.06	751015	keystroke_y	y	n/a
375.7175	0.09	751435	keystroke_s	s	n/a
376.0315	0.09	752063	keystroke_Key.space	Key.space	n/a
376.5265	0.136	753053	keystroke_c	c	n/a
376.6475	0.119	753295	keystroke_a	a	n/a
376.7965	0.106	753593	keystroke_p	p	n/a
376.9325	0.059	753865	keystroke_t	t	n/a
377.0515	0.061	754103	keystroke_u	u	n/a
377.1275	0.119	754255	keystroke_r	r	n/a
377.2015	0.106	754403	keystroke_e	e	n/a
377.7565	0.09	755513	keystroke_Key.space	Key.space	n/a
378.0575	0.075	756115	keystroke_o	o	n/a
378.1625	0.089	756325	keystroke_n	n	n/a
378.3415	0.105	756683	keystroke_Key.space	Key.space	n/a
378.7175	0.09	757435	keystroke_s	s	n/a
378.8225	0.06	757645	keystroke_i	i	n/a
379.0625	0.09	758125	keystroke_t	t	n/a
379.2425	0.075	758485	keystroke_i	i	n/a
379.3475	0.075	758695	keystroke_n	n	n/a
379.3925	0.075	758785	keystroke_g	g	n/a
382.0655	0.011	764131	keystroke_Key.backspace	Key.backspace	n/a
382.1975	0.029	764395	keystroke_Key.backspace	Key.backspace	n/a
382.3315	0.075	764663	keystroke_Key.backspace	Key.backspace	n/a
383.4125	0.089	766825	keystroke_t	t	n/a
383.5475	0.075	767095	keystroke_i	i	n/a
383.6675	0.089	767335	keystroke_n	n	n/a
383.7425	0.075	767485	keystroke_g	g	n/a
384.6875	0.089	769375	keystroke_Key.enter	Key.enter	n/a
384.784	9.7315	769568	prompt	n/a	significance willing sometimes lamb\n
385.5575	0.09	771115	keystroke_s	s	n/a
385.6625	0.045	771325	keystroke_i	i	n/a
385.7675	0.075	771535	keystroke_g	g	n/a
386.217	0.06	772434	keystroke_n	n	n/a
386.292	0.09	772584	keystroke_i	i	n/a
386.772	0.09	773544	keystroke_f	f	n/a
386.877	0.075	773754	keystroke_i	i	n/a
387.057	0.12	774114	keystroke_c	c	n/a
387.162	0.135	774324	keystroke_a	a	n/a
387.267	0.075	774534	keystroke_n	n	n/a
387.462	0.135	774924	keystroke_c	c	n/a
387.582	0.09	775164	keystroke_e	e	n/a
387.882	0.12	775764	keystroke_Key.space	Key.space	n/a
388.242	0.075	776484	keystroke_w	w	n/a
388.332	0.06	776664	keystroke_i	i	n/a
388.557	0.06	777114	keystroke_l	l	n/a
388.707	0.06	777414	keystroke_l	l	n/a
388.857	0.075	777714	keystroke_i	i	n/a
388.947	0.075	777894	keystroke_n	n	n/a
389.007	0.09	778014	keystroke_g	g	n/a
389.247	0.105	778494	keystroke_Key.space	Key.space	n/a
389.502	0.105	779004	keystroke_s	s	n/a
389.637	0.075	779274	keystroke_o	o	n/a
389.847	0.06	779694	keystroke_m	m	n/a
389.892	0.075	779784	keystroke_e	e	n/a
390.582	0.075	781164	keystroke_t	t	n/a
390.672	0.09	781344	keystroke_i	i	n/a
390.913	0.089	781826	keystroke_m	m	n/a
390.987	0.06	781974	keystroke_e	e	n/a
391.152	0.09	782304	keystroke_s	s	n/a
391.347	0.09	782694	keystroke_Key.space	Key.space	n/a
391.812	0.075	783624	keystroke_l	l	n/a
391.932	0.12	783864	keystroke_a	a	n/a
392.097	0.06	784194	keystroke_b	b	n/a
393.042	0.09	786084	keystroke_Key.backspace	Key.backspace	n/a
393.477	0.06	786954	keystroke_m	m	n/a
393.612	0.075	787224	keystroke_b	b	n/a
394.437	0.076	788874	keystroke_Key.enter	Key.enter	n/a
394.52	10.5095	789040	prompt	n/a	quotations movements packed compression\n
395.292	0.09	790584	keystroke_q	q	n/a
395.397	0.075	790794	keystroke_u	u	n/a
395.697	0.09	791394	keystroke_o	o	n/a
396.102	0.09	792204	keystroke_t	t	n/a
396.267	0.105	792534	keystroke_a	a	n/a
396.477	0.045	792954	keystroke_t	t	n/a
396.537	0.12	793074	keystroke_i	i	n/a
396.642	0.12	793284	keystroke_o	o	n/a
396.732	0.09	793464	keystroke_n	n	n/a
396.807	0.075	793614	keystroke_s	s	n/a
397.062	0.075	794124	keystroke_Key.space	Key.space	n/a
397.317	0.105	794634	keystroke_m	m	n/a
397.467	0.076	794934	keystroke_o	o	n/a
397.527	0.105	795054	keystroke_v	v	n/a
397.647	0.105	795294	keystroke_e	e	n/a
397.932	0.06	795864	keystroke_m	m	n/a
397.977	0.075	795954	keystroke_e	e	n/a
398.097	0.06	796194	keystroke_n	n	n/a
398.172	0.075	796344	keystroke_t	t	n/a
398.322	0.09	796644	keystroke_s	s	n/a
399.027	0.09	798054	keystroke_Key.space	Key.space	n/a
399.283	0.074	798566	keystroke_p	p	n/a
399.372	0.15	798744	keystroke_a	a	n/a
399.462	0.12	798924	keystroke_c	c	n/a
399.597	0.06	799194	keystroke_k	k	n/a
399.687	0.076	799374	keystroke_e	e	n/a
399.837	0.09	799674	keystroke_d	d	n/a
400.512	0.12	801024	keystroke_Key.space	Key.space	n/a
400.707	0.09	801414	keystroke_c	c	n/a
400.812	0.075	801624	keystroke_o	o	n/a
400.962	0.12	801924	keystroke_m	m	n/a
401.143	0.074	802286	keystroke_p	p	n/a
401.232	0.12	802464	keystroke_r	r	n/a
401.322	0.09	802644	keystroke_e	e	n/a
401.502	0.075	803004	keystroke_s	s	n/a
401.652	0.105	803304	keystroke_s	s	n/a
401.832	0.105	803664	keystroke_i	i	n/a
401.938	0.089	803876	keystroke_o	o	n/a
401.997	0.12	803994	keystroke_n	n	n/a
404.97	0.057	809940	keystroke_Key.enter	Key.enter	n/a
405.034	9.145	810068	prompt	n/a	gaps portsmouth crash breaking\n
405.687	0.075	811374	keystroke_g	g	n/a
405.822	0.09	811644	keystroke_a	a	n/a
405.942	0.09	811884	keystroke_p	p	n/a
406.077	0.06	812154	keystroke_s	s	n/a
406.257	0.105	812514	keystroke_Key.space	Key.space	n/a
406.752	0.09	813504	keystroke_p	p	n/a
406.932	0.06	813864	keystroke_o	o	n/a
407.022	0.06	814044	keystroke_r	r	n/a
407.337	0.045	814674	keystroke_t	t	n/a
409.303	0.089	818606	keystroke_s	s	n/a
409.572	0.091	819144	keystroke_m	m	n/a
409.752	0.09	819504	keystroke_o	o	n/a
409.857	0.091	819714	keystroke_u	u	n/a
410.052	0.06	820104	keystroke_t	t	n/a
410.157	0.06	820314	keystroke_h	h	n/a
410.472	0.09	820944	keystroke_Key.space	Key.space	n/a
410.817	0.091	821634	keystroke_c	c	n/a
411.027	0.106	822054	keystroke_r	r	n/a
411.222	0.211	822444	keystroke_a	a	n/a
411.402	0.12	822804	keystroke_s	s	n/a
411.567	0.076	823134	keystroke_h	h	n/a
411.867	0.105	823734	keystroke_Key.space	Key.space	n/a
412.377	0.06	824754	keystroke_b	b	n/a
412.452	0.15	824904	keystroke_r	r	n/a
412.573	0.135	825146	keystroke_e	e	n/a
412.737	0.121	825474	keystroke_a	a	n/a
412.888	0.089	825776	keystroke_k	k	n/a
413.097	0.075	826194	keystroke_i	i	n/a
413.202	0.091	826404	keystroke_n	n	n/a
413.277	0.06	826554	keystroke_g	g	n/a
414.072	0.105	828144	keystroke_Key.enter	Key.enter	n/a
414.1835	13.856	828367	prompt	n/a	pennsylvania turn hospitality introduced\n
414.897	0.105	829794	keystroke_p	p	n/a
415.003	0.074	830006	keystroke_e	e	n/a
415.197	0.06	830394	keystroke_n	n	n/a
415.333	0.089	830666	keystroke_n	n	n/a
416.847	0.106	833694	keystroke_s	s	n/a
417.013	0.059	834026	keystroke_y	y	n/a
417.253	0.074	834506	keystroke_l	l	n/a
417.478	0.089	834956	keystroke_v	v	n/a
417.612	0.12	835224	keystroke_a	a	n/a
417.762	0.105	835524	keystroke_n	n	n/a
417.913	0.074	835826	keystroke_i	i	n/a
418.002	0.075	836004	keystroke_a	a	n/a
418.212	0.105	836424	keystroke_Key.space	Key.space	n/a
422.371	0.012	844742	keystroke_t	t	n/a
422.488	0.045	844976	keystroke_u	u	n/a
422.577	0.046	845154	keystroke_r	r	n/a
422.743	0.06	845486	keystroke_n	n	n/a
423.268	0.119	846536	keystroke_Key.space	Key.space	n/a
423.567	0.061	847134	keystroke_h	h	n/a
423.9265	0.061	847853	keystroke_o	o	n/a
424.0475	0.075	848095	keystroke_s	s	n/a
424.318	0.0595	848636	keystroke_p	p	n/a
424.4215	0.076	848843	keystroke_i	i	n/a
424.5575	0.075	849115	keystroke_t	t	n/a
424.6775	0.119	849355	keystroke_a	a	n/a
424.7825	0.135	849565	keystroke_l	l	n/a
424.8865	0.091	849773	keystroke_i	i	n/a
424.9925	0.045	849985	keystroke_t	t	n/a
425.0825	0.09	850165	keystroke_y	y	n/a
425.6665	0.12	851333	keystroke_Key.space	Key.space	n/a
426.0275	0.075	852055	keystroke_i	i	n/a
426.1475	0.074	852295	keystroke_n	n	n/a
426.2825	0.015	852565	keystroke_t	t	n/a
426.4175	0.06	852835	keystroke_r	r	n/a
426.5065	0.076	853013	keystroke_o	o	n/a
426.6125	0.06	853225	keystroke_d	d	n/a
426.7325	0.075	853465	keystroke_u	u	n/a
426.7915	0.12	853583	keystroke_c	c	n/a
426.8965	0.075	853793	keystroke_e	e	n/a
427.0475	0.09	854095	keystroke_d	d	n/a
427.9325	0.105	855865	keystroke_Key.enter	Key.enter	n/a
428.045	6.5945	856090	prompt	n/a	workplace adapter buzz raising\n
428.6965	0.076	857393	keystroke_w	w	n/a
428.8325	0.045	857665	keystroke_o	o	n/a
428.8925	0.075	857785	keystroke_r	r	n/a
429.0275	0.074	858055	keystroke_k	k	n/a
429.2965	0.105	858593	keystroke_p	p	n/a
429.5375	0.075	859075	keystroke_l	l	n/a
429.6265	0.136	859253	keystroke_a	a	n/a
429.6875	0.165	859375	keystroke_c	c	n/a
429.8075	0.105	859615	keystroke_e	e	n/a
430.0165	0.091	860033	keystroke_Key.space	Key.space	n/a
430.2875	0.075	860575	keystroke_a	a	n/a
430.3165	0.105	860633	keystroke_d	d	n/a
430.6175	0.12	861235	keystroke_a	a	n/a
430.7225	0.105	861445	keystroke_p	p	n/a
430.9315	0.06	861863	keystroke_t	t	n/a
431.0375	0.105	862075	keystroke_e	e	n/a
431.1125	0.105	862225	keystroke_r	r	n/a
431.3815	0.091	862763	keystroke_Key.space	Key.space	n/a
431.6075	0.06	863215	keystroke_b	b	n/a
431.8025	0.06	863605	keystroke_u	u	n/a
431.9825	0.045	863965	keystroke_z	z	n/a
432.1175	0.075	864235	keystroke_z	z	n/a
432.3715	0.106	864743	keystroke_Key.space	Key.space	n/a
432.6125	0.09	865225	keystroke_r	r	n/a
433.3475	0.105	866695	keystroke_a	a	n/a
433.4675	0.074	866935	keystroke_i	i	n/a
433.5575	0.09	867115	keystroke_s	s	n/a
433.7515	0.076	867503	keystroke_i	i	n/a
433.8565	0.091	867713	keystroke_n	n	n/a
433.9625	0.045	867925	keystroke_g	g	n/a
434.5625	0.074	869125	keystroke_Key.enter	Key.enter	n/a
434.6435	7.5555	869287	prompt	n/a	relative proteins indicates hosted\n
435.4025	0.105	870805	keystroke_r	r	n/a
435.4925	0.06	870985	keystroke_e	e	n/a
435.7025	0.09	871405	keystroke_l	l	n/a
435.8225	0.15	871645	keystroke_a	a	n/a
435.9425	0.09	871885	keystroke_t	t	n/a
436.1075	0.075	872215	keystroke_i	i	n/a
436.1975	0.135	872395	keystroke_v	v	n/a
436.3175	0.09	872635	keystroke_e	e	n/a
436.6765	0.106	873353	keystroke_Key.space	Key.space	n/a
437.0825	0.09	874165	keystroke_p	p	n/a
437.2025	0.075	874405	keystroke_r	r	n/a
437.3375	0.075	874675	keystroke_o	o	n/a
437.5475	0.06	875095	keystroke_t	t	n/a
437.6525	0.09	875305	keystroke_e	e	n/a
437.8625	0.075	875725	keystroke_i	i	n/a
438.0425	0.06	876085	keystroke_n	n	n/a
438.1175	0.075	876235	keystroke_s	s	n/a
438.5975	0.12	877195	keystroke_Key.space	Key.space	n/a
438.8975	0.06	877795	keystroke_i	i	n/a
438.9725	0.075	877945	keystroke_n	n	n/a
439.1825	0.09	878365	keystroke_d	d	n/a
439.3625	0.075	878725	keystroke_i	i	n/a
439.5125	0.12	879025	keystroke_c	c	n/a
439.6775	0.15	879355	keystroke_a	a	n/a
439.7975	0.105	879595	keystroke_t	t	n/a
439.9175	0.06	879835	keystroke_e	e	n/a
440.0525	0.075	880105	keystroke_s	s	n/a
440.3525	0.105	880705	keystroke_Key.space	Key.space	n/a
440.8475	0.075	881695	keystroke_h	h	n/a
440.9675	0.045	881935	keystroke_o	o	n/a
441.0725	0.135	882145	keystroke_s	s	n/a
441.1925	0.09	882385	keystroke_t	t	n/a
441.3275	0.075	882655	keystroke_e	e	n/a
441.5075	0.06	883015	keystroke_d	d	n/a
442.1375	0.06	884275	keystroke_Key.enter	Key.enter	n/a
442.2035	7.046	884407	prompt	n/a	titans slowly explained gamma\n
443.0225	0.075	886045	keystroke_t	t	n/a
443.1125	0.06	886225	keystroke_i	i	n/a
443.4725	0.075	886945	keystroke_t	t	n/a
443.6975	0.09	887395	keystroke_a	a	n/a
443.8175	0.06	887635	keystroke_n	n	n/a
443.9375	0.09	887875	keystroke_s	s	n/a
444.2075	0.09	888415	keystroke_Key.space	Key.space	n/a
444.4925	0.075	888985	keystroke_s	s	n/a
444.5975	0.06	889195	keystroke_l	l	n/a
444.7925	0.075	889585	keystroke_o	o	n/a
444.8975	0.075	889795	keystroke_w	w	n/a
445.4075	0.09	890815	keystroke_l	l	n/a
445.5275	0.075	891055	keystroke_y	y	n/a
446.3975	0.12	892795	keystroke_Key.space	Key.space	n/a
446.6525	0.045	893305	keystroke_e	e	n/a
446.8325	0.03	893665	keystroke_x	x	n/a
446.9975	0.105	893995	keystroke_p	p	n/a
447.1625	0.075	894325	keystroke_l	l	n/a
447.2825	0.105	894565	keystroke_a	a	n/a
447.3725	0.06	894745	keystroke_i	i	n/a
447.4775	0.06	894955	keystroke_n	n	n/a
447.5375	0.06	895075	keystroke_e	e	n/a
447.6725	0.09	895345	keystroke_d	d	n/a
447.9275	0.105	895855	keystroke_Key.space	Key.space	n/a
448.1825	0.075	896365	keystroke_g	g	n/a
448.3625	0.09	896725	keystroke_a	a	n/a
448.4825	0.06	896965	keystroke_m	m	n/a
448.5875	0.09	897175	keystroke_m	m	n/a
448.7075	0.105	897415	keystroke_a	a	n/a
449.1725	0.075	898345	keystroke_Key.enter	Key.enter	n/a
449.265	12.5095	898530	prompt	n/a	pointing pierce kirk noticed\n
450.0125	0.12	900025	keystroke_p	p	n/a
450.1925	0.135	900385	keystroke_o	o	n/a
450.3125	0.09	900625	keystroke_i	i	n/a
450.4175	0.09	900835	keystroke_n	n	n/a
450.5225	0.075	901045	keystroke_t	t	n/a
450.6425	0.06	901285	keystroke_i	i	n/a
450.7325	0.075	901465	keystroke_n	n	n/a
450.7925	0.075	901585	keystroke_g	g	n/a
451.0625	0.09	902125	keystroke_Key.space	Key.space	n/a
451.3175	0.09	902635	keystroke_p	p	n/a
451.5425	0.075	903085	keystroke_i	i	n/a
451.6475	0.135	903295	keystroke_e	e	n/a
451.7375	0.075	903475	keystroke_r	r	n/a
452.0075	0.12	904015	keystroke_c	c	n/a
452.0825	0.09	904165	keystroke_e	e	n/a
452.3225	0.12	904645	keystroke_Key.space	Key.space	n/a
452.5175	0.09	905035	keystroke_k	k	n/a
452.6825	0.075	905365	keystroke_i	i	n/a
452.9225	0.09	905845	keystroke_r	r	n/a
453.0725	0.075	906145	keystroke_k	k	n/a
453.3575	0.09	906715	keystroke_Key.space	Key.space	n/a
453.5525	0.09	907105	keystroke_n	n	n/a
453.6435	0.059	907287	keystroke_o	o	n/a
453.7625	0.075	907525	keystroke_t	t	n/a
453.8525	0.06	907705	keystroke_i	i	n/a
453.9725	0.15	907945	keystroke_c	c	n/a
454.1075	0.075	908215	keystroke_e	e	n/a
454.3025	0.045	908605	keystroke_s	s	n/a
456.0575	0.12	912115	keystroke_Key.backspace	Key.backspace	n/a
456.2975	0.09	912595	keystroke_d	d	n/a
461.7305	0.042	923461	keystroke_Key.enter	Key.enter	n/a
461.779	10.2555	923558	prompt	n/a	application hospitality findings lycos\n
462.3575	0.105	924715	keystroke_a	a	n/a
462.4775	0.06	924955	keystroke_p	p	n/a
462.6425	0.1045	925285	keystroke_p	p	n/a
463.197	0.075	926394	keystroke_l	l	n/a
463.317	0.075	926634	keystroke_i	i	n/a
463.512	0.09	927024	keystroke_c	c	n/a
463.632	0.165	927264	keystroke_a	a	n/a
463.842	0.075	927684	keystroke_t	t	n/a
463.887	0.075	927774	keystroke_i	i	n/a
463.947	0.135	927894	keystroke_o	o	n/a
464.052	0.105	928104	keystroke_n	n	n/a
464.502	0.09	929004	keystroke_Key.space	Key.space	n/a
464.862	0.09	929724	keystroke_h	h	n/a
464.982	0.075	929964	keystroke_o	o	n/a
465.087	0.105	930174	keystroke_s	s	n/a
466.0325	0.1045	932065	keystroke_p	p	n/a
466.182	0.09	932364	keystroke_i	i	n/a
466.347	0.075	932694	keystroke_t	t	n/a
466.467	0.12	932934	keystroke_a	a	n/a
466.572	0.075	933144	keystroke_l	l	n/a
466.677	0.12	933354	keystroke_i	i	n/a
466.767	0.06	933534	keystroke_t	t	n/a
466.857	0.075	933714	keystroke_y	y	n/a
467.172	0.105	934344	keystroke_Key.space	Key.space	n/a
467.532	0.09	935064	keystroke_f	f	n/a
467.667	0.075	935334	keystroke_i	i	n/a
467.787	0.075	935574	keystroke_n	n	n/a
467.877	0.09	935754	keystroke_d	d	n/a
468.027	0.06	936054	keystroke_i	i	n/a
468.102	0.09	936204	keystroke_n	n	n/a
468.177	0.075	936354	keystroke_g	g	n/a
468.522	0.09	937044	keystroke_s	s	n/a
468.717	0.105	937434	keystroke_Key.space	Key.space	n/a
469.032	0.06	938064	keystroke_y	y	n/a
469.272	0.045	938544	keystroke_c	c	n/a
470.082	0.075	940164	keystroke_Key.backspace	Key.backspace	n/a
470.232	0.09	940464	keystroke_Key.backspace	Key.backspace	n/a
470.607	0.105	941214	keystroke_l	l	n/a
470.772	0.075	941544	keystroke_y	y	n/a
470.922	0.075	941844	keystroke_c	c	n/a
471.042	0.045	942084	keystroke_o	o	n/a
471.177	0.075	942354	keystroke_s	s	n/a
471.942	0.09	943884	keystroke_Key.enter	Key.enter	n/a
472.041	4.973	944082	prompt	n/a	laid temple account fallen\n
472.827	0.06	945654	keystroke_l	l	n/a
472.888	0.104	945776	keystroke_a	a	n/a
473.037	0.06	946074	keystroke_i	i	n/a
473.127	0.075	946254	keystroke_d	d	n/a
473.262	0.09	946524	keystroke_Key.space	Key.space	n/a
473.442	0.09	946884	keystroke_t	t	n/a
473.577	0.105	947154	keystroke_e	e	n/a
473.727	0.105	947454	keystroke_m	m	n/a
473.922	0.105	947844	keystroke_p	p	n/a
474.132	0.075	948264	keystroke_l	l	n/a
474.192	0.06	948384	keystroke_e	e	n/a
474.372	0.09	948744	keystroke_Key.space	Key.space	n/a
474.492	0.12	948984	keystroke_a	a	n/a
474.687	0.075	949374	keystroke_c	c	n/a
474.837	0.075	949674	keystroke_c	c	n/a
474.987	0.105	949974	keystroke_o	o	n/a
475.107	0.075	950214	keystroke_u	u	n/a
475.317	0.06	950634	keystroke_n	n	n/a
475.378	0.074	950756	keystroke_t	t	n/a
475.527	0.075	951054	keystroke_Key.space	Key.space	n/a
475.647	0.12	951294	keystroke_f	f	n/a
475.752	0.105	951504	keystroke_a	a	n/a
475.887	0.06	951774	keystroke_l	l	n/a
476.022	0.105	952044	keystroke_l	l	n/a
476.142	0.045	952284	keystroke_e	e	n/a
476.232	0.075	952464	keystroke_n	n	n/a
476.907	0.105	953814	keystroke_Key.enter	Key.enter	n/a
477.018	6.866	954036	prompt	n/a	player sufficient exist sorted\n
477.897	0.075	955794	keystroke_p	p	n/a
478.167	0.06	956334	keystroke_l	l	n/a
478.242	0.135	956484	keystroke_a	a	n/a
478.392	0.045	956784	keystroke_y	y	n/a
478.512	0.09	957024	keystroke_e	e	n/a
478.797	0.075	957594	keystroke_r	r	n/a
479.172	0.12	958344	keystroke_Key.space	Key.space	n/a
479.622	0.09	959244	keystroke_s	s	n/a
479.742	0.06	959484	keystroke_u	u	n/a
479.862	0.075	959724	keystroke_f	f	n/a
480.012	0.09	960024	keystroke_f	f	n/a
480.087	0.06	960174	keystroke_i	i	n/a
480.267	0.06	960534	keystroke_c	c	n/a
480.372	0.075	960744	keystroke_i	i	n/a
480.477	0.075	960954	keystroke_e	e	n/a
480.597	0.06	961194	keystroke_n	n	n/a
480.672	0.075	961344	keystroke_t	t	n/a
481.062	0.105	962124	keystroke_Key.space	Key.space	n/a
481.557	0.06	963114	keystroke_e	e	n/a
481.7215	0.0755	963443	keystroke_x	x	n/a
481.8565	0.0755	963713	keystroke_i	i	n/a
481.9915	0.135	963983	keystroke_s	s	n/a
482.0965	0.09	964193	keystroke_t	t	n/a
482.3965	0.105	964793	keystroke_Key.space	Key.space	n/a
482.6065	0.09	965213	keystroke_s	s	n/a
482.7115	0.06	965423	keystroke_o	o	n/a
482.8315	0.06	965663	keystroke_r	r	n/a
482.9815	0.09	965963	keystroke_t	t	n/a
483.147	0.075	966294	keystroke_e	e	n/a
483.312	0.0745	966624	keystroke_d	d	n/a
483.777	0.105	967554	keystroke_Key.enter	Key.enter	n/a
483.8895	6.04	967779	prompt	n/a	computer rule looked peripheral\n
484.5115	0.0905	969023	keystroke_c	c	n/a
484.617	0.0745	969234	keystroke_o	o	n/a
484.8115	0.105	969623	keystroke_m	m	n/a
485.0065	0.12	970013	keystroke_p	p	n/a
485.1565	0.075	970313	keystroke_u	u	n/a
485.3065	0.09	970613	keystroke_t	t	n/a
485.4415	0.09	970883	keystroke_e	e	n/a
485.5165	0.09	971033	keystroke_r	r	n/a
485.7415	0.0755	971483	keystroke_Key.space	Key.space	n/a
485.892	0.0895	971784	keystroke_r	r	n/a
486.0115	0.076	972023	keystroke_u	u	n/a
486.222	0.0745	972444	keystroke_l	l	n/a
486.2665	0.075	972533	keystroke_e	e	n/a
486.522	0.1045	973044	keystroke_Key.space	Key.space	n/a
486.7465	0.061	973493	keystroke_l	l	n/a
486.9415	0.06	973883	keystroke_o	o	n/a
487.077	0.0895	974154	keystroke_o	o	n/a
487.2265	0.075	974453	keystroke_k	k	n/a
487.3165	0.075	974633	keystroke_e	e	n/a
487.4665	0.09	974933	keystroke_d	d	n/a
487.6165	0.09	975233	keystroke_Key.space	Key.space	n/a
487.8715	0.105	975743	keystroke_p	p	n/a
487.9915	0.12	975983	keystroke_e	e	n/a
488.0965	0.1055	976193	keystroke_r	r	n/a
488.292	0.06	976584	keystroke_i	i	n/a
488.562	0.075	977124	keystroke_p	p	n/a
488.682	0.075	977364	keystroke_h	h	n/a
488.802	0.105	977604	keystroke_e	e	n/a
488.892	0.09	977784	keystroke_r	r	n/a
489.102	0.075	978204	keystroke_a	a	n/a
489.207	0.06	978414	keystroke_l	l	n/a
489.837	0.09	979674	keystroke_Key.enter	Key.enter	n/a
489.936	8.0185	979872	prompt	n/a	classes feels cube cookies\n
490.497	0.105	980994	keystroke_c	c	n/a
490.782	0.075	981564	keystroke_l	l	n/a
490.872	0.075	981744	keystroke_a	a	n/a
491.097	0.015	982194	keystroke_s	s	n/a
491.157	0.075	982314	keystroke_s	s	n/a
491.262	0.09	982524	keystroke_e	e	n/a
491.472	0.03	982944	keystroke_s	s	n/a
491.622	0.075	983244	keystroke_Key.space	Key.space	n/a
492.162	0.06	984324	keystroke_f	f	n/a
492.342	0.06	984684	keystroke_e	e	n/a
492.507	0.06	985014	keystroke_e	e	n/a
492.672	0.075	985344	keystroke_l	l	n/a
493.212	0.075	986424	keystroke_s	s	n/a
493.782	0.075	987564	keystroke_Key.space	Key.space	n/a
494.067	0.075	988134	keystroke_u	u	n/a
494.862	0.09	989724	keystroke_Key.backspace	Key.backspace	n/a
495.162	0.09	990324	keystroke_c	c	n/a
495.312	0.075	990624	keystroke_u	u	n/a
495.552	0.06	991104	keystroke_b	b	n/a
495.642	0.06	991284	keystroke_e	e	n/a
496.167	0.09	992334	keystroke_Key.space	Key.space	n/a
496.317	0.09	992634	keystroke_c	c	n/a
496.422	0.045	992844	keystroke_o	o	n/a
496.557	0.075	993114	keystroke_o	o	n/a
496.752	0.06	993504	keystroke_k	k	n/a
496.932	0.06	993864	keystroke_i	i	n/a
497.022	0.06	994044	keystroke_e	e	n/a
497.292	0.075	994584	keystroke_s	s	n/a
497.847	0.105	995694	keystroke_Key.enter	Key.enter	n/a
497.9595	7.63	995919	prompt	n/a	there're father officers targeted\n
498.627	0.075	997254	keystroke_t	t	n/a
498.732	0.075	997464	keystroke_h	h	n/a
498.822	0.105	997644	keystroke_e	e	n/a
498.912	0.105	997824	keystroke_r	r	n/a
498.987	0.09	997974	keystroke_e	e	n/a
499.842	0.09	999684	keystroke_'	'	n/a
499.962	0.105	999924	keystroke_r	r	n/a
500.037	0.09	1000074	keystroke_e	e	n/a
500.472	0.12	1000944	keystroke_Key.space	Key.space	n/a
500.742	0.09	1001484	keystroke_f	f	n/a
500.952	0.135	1001904	keystroke_a	a	n/a
501.147	0.075	1002294	keystroke_t	t	n/a
501.297	0.075	1002594	keystroke_h	h	n/a
501.402	0.09	1002804	keystroke_e	e	n/a
501.477	0.075	1002954	keystroke_r	r	n/a
502.167	0.09	1004334	keystroke_Key.space	Key.space	n/a
502.527	0.075	1005054	keystroke_o	o	n/a
502.617	0.075	1005234	keystroke_f	f	n/a
502.737	0.09	1005474	keystroke_f	f	n/a
502.842	0.06	1005684	keystroke_i	i	n/a
502.947	0.105	1005894	keystroke_c	c	n/a
503.082	0.105	1006164	keystroke_e	e	n/a
503.172	0.075	1006344	keystroke_r	r	n/a
503.337	0.075	1006674	keystroke_s	s	n/a
503.697	0.105	1007394	keystroke_Key.space	Key.space	n/a
503.892	0.06	1007784	keystroke_t	t	n/a
504.012	0.15	1008024	keystroke_a	a	n/a
504.087	0.09	1008174	keystroke_r	r	n/a
504.297	0.09	1008594	keystroke_g	g	n/a
504.417	0.135	1008834	keystroke_e	e	n/a
504.537	0.09	1009074	keystroke_t	t	n/a
504.762	0.06	1009524	keystroke_e	e	n/a
504.912	0.075	1009824	keystroke_d	d	n/a
505.512	0.075	1011024	keystroke_Key.enter	Key.enter	n/a
505.595	6.369	1011190	prompt	n/a	adjust quarters wish jamaica\n
506.307	0.075	1012614	keystroke_a	a	n/a
506.472	0.075	1012944	keystroke_d	d	n/a
506.682	0.06	1013364	keystroke_j	j	n/a
506.862	0.075	1013724	keystroke_u	u	n/a
506.922	0.12	1013844	keystroke_s	s	n/a
507.027	0.09	1014054	keystroke_t	t	n/a
507.282	0.12	1014564	keystroke_Key.space	Key.space	n/a
507.597	0.075	1015194	keystroke_q	q	n/a
507.732	0.075	1015464	keystroke_u	u	n/a
507.867	0.165	1015734	keystroke_a	a	n/a
507.987	0.06	1015974	keystroke_r	r	n/a
508.167	0.075	1016334	keystroke_t	t	n/a
508.302	0.09	1016604	keystroke_e	e	n/a
508.377	0.09	1016754	keystroke_r	r	n/a
508.557	0.105	1017114	keystroke_s	s	n/a
509.232	0.075	1018464	keystroke_Key.space	Key.space	n/a
509.367	0.09	1018734	keystroke_w	w	n/a
509.442	0.075	1018884	keystroke_i	i	n/a
509.577	0.105	1019154	keystroke_s	s	n/a
509.667	0.06	1019334	keystroke_h	h	n/a
509.952	0.075	1019904	keystroke_Key.space	Key.space	n/a
510.297	0.06	1020594	keystroke_j	j	n/a
510.387	0.105	1020774	keystroke_a	a	n/a
510.582	0.075	1021164	keystroke_m	m	n/a
510.942	0.105	1021884	keystroke_a	a	n/a
511.032	0.06	1022064	keystroke_i	i	n/a
511.182	0.075	1022364	keystroke_c	c	n/a
511.272	0.09	1022544	keystroke_a	a	n/a
511.872	0.09	1023744	keystroke_Key.enter	Key.enter	n/a
511.9685	8.1105	1023937	prompt	n/a	retail cabinets urls genealogy\n
512.562	0.09	1025124	keystroke_r	r	n/a
512.622	0.105	1025244	keystroke_e	e	n/a
512.787	0.09	1025574	keystroke_t	t	n/a
512.937	0.105	1025874	keystroke_a	a	n/a
513.087	0.045	1026174	keystroke_i	i	n/a
513.252	0.06	1026504	keystroke_l	l	n/a
513.537	0.06	1027074	keystroke_Key.space	Key.space	n/a
513.747	0.135	1027494	keystroke_c	c	n/a
513.867	0.12	1027734	keystroke_a	a	n/a
514.182	0.06	1028364	keystroke_b	b	n/a
514.332	0.06	1028664	keystroke_i	i	n/a
514.512	0.045	1029024	keystroke_n	n	n/a
514.602	0.09	1029204	keystroke_e	e	n/a
514.707	0.09	1029414	keystroke_t	t	n/a
514.857	0.09	1029714	keystroke_s	s	n/a
515.082	0.075	1030164	keystroke_Key.space	Key.space	n/a
515.322	0.06	1030644	keystroke_u	u	n/a
515.442	0.075	1030884	keystroke_r	r	n/a
515.592	0.075	1031184	keystroke_l	l	n/a
515.832	0.075	1031664	keystroke_s	s	n/a
516.267	0.09	1032534	keystroke_Key.space	Key.space	n/a
516.447	0.105	1032894	keystroke_g	g	n/a
516.882	0.105	1033764	keystroke_e	e	n/a
518.202	0.075	1036404	keystroke_n	n	n/a
518.307	0.075	1036614	keystroke_e	e	n/a
518.427	0.12	1036854	keystroke_a	a	n/a
518.622	0.075	1037244	keystroke_l	l	n/a
518.802	0.075	1037604	keystroke_o	o	n/a
518.892	0.06	1037784	keystroke_g	g	n/a
519.012	0.075	1038024	keystroke_y	y	n/a
520.002	0.075	1040004	keystroke_Key.enter	Key.enter	n/a
520.084	12.071	1040168	prompt	n/a	owned revisions hospitals practitioners\n
520.827	0.06	1041654	keystroke_o	o	n/a
520.917	0.105	1041834	keystroke_w	w	n/a
521.232	0.06	1042464	keystroke_n	n	n/a
521.397	0.06	1042794	keystroke_e	e	n/a
521.577	0.06	1043154	keystroke_d	d	n/a
521.862	0.09	1043724	keystroke_Key.space	Key.space	n/a
522.012	0.135	1044024	keystroke_r	r	n/a
522.102	0.09	1044204	keystroke_e	e	n/a
522.312	0.075	1044624	keystroke_f	f	n/a
522.417	0.075	1044834	keystroke_i	i	n/a
522.597	0.075	1045194	keystroke_s	s	n/a
522.687	0.12	1045374	keystroke_i	i	n/a
522.837	0.105	1045674	keystroke_o	o	n/a
522.927	0.075	1045854	keystroke_n	n	n/a
523.692	0.075	1047384	keystroke_Key.backspace	Key.backspace	n/a
523.872	0.105	1047744	keystroke_Key.backspace	Key.backspace	n/a
524.067	0.09	1048134	keystroke_Key.backspace	Key.backspace	n/a
524.247	0.075	1048494	keystroke_Key.backspace	Key.backspace	n/a
524.427	0.09	1048854	keystroke_Key.backspace	Key.backspace	n/a
524.592	0.09	1049184	keystroke_Key.backspace	Key.backspace	n/a
525.462	0.09	1050924	keystroke_v	v	n/a
525.582	0.075	1051164	keystroke_i	i	n/a
525.732	0.105	1051464	keystroke_s	s	n/a
525.822	0.12	1051644	keystroke_i	i	n/a
525.957	0.105	1051914	keystroke_o	o	n/a
526.032	0.105	1052064	keystroke_n	n	n/a
526.122	0.09	1052244	keystroke_s	s	n/a
526.932	0.09	1053864	keystroke_Key.space	Key.space	n/a
527.202	0.105	1054404	keystroke_h	h	n/a
527.337	0.105	1054674	keystroke_o	o	n/a
527.502	0.075	1055004	keystroke_s	s	n/a
527.712	0.09	1055424	keystroke_p	p	n/a
528.192	0.06	1056384	keystroke_i	i	n/a
528.282	0.075	1056564	keystroke_t	t	n/a
528.432	0.09	1056864	keystroke_a	a	n/a
528.537	0.09	1057074	keystroke_l	l	n/a
528.792	0.075	1057584	keystroke_s	s	n/a
529.242	0.12	1058484	keystroke_Key.space	Key.space	n/a
529.962	0.09	1059924	keystroke_p	p	n/a
530.127	0.09	1060254	keystroke_r	r	n/a
530.292	0.135	1060584	keystroke_a	a	n/a
530.412	0.09	1060824	keystroke_c	c	n/a
530.637	0.075	1061274	keystroke_t	t	n/a
530.727	0.06	1061454	keystroke_i	i	n/a
530.892	0.075	1061784	keystroke_t	t	n/a
530.968	0.104	1061936	keystroke_i	i	n/a
531.102	0.105	1062204	keystroke_o	o	n/a
531.192	0.09	1062384	keystroke_n	n	n/a
531.237	0.09	1062474	keystroke_e	e	n/a
531.312	0.09	1062624	keystroke_r	r	n/a
531.462	0.09	1062924	keystroke_s	s	n/a
532.062	0.0895	1064124	keystroke_Key.enter	Key.enter	n/a
532.16	7.539	1064320	prompt	n/a	bandwidth sheep specialist strength\n
532.8575	0.059	1065715	keystroke_b	b	n/a
532.9625	0.135	1065925	keystroke_a	a	n/a
533.0815	0.076	1066163	keystroke_n	n	n/a
533.1725	0.075	1066345	keystroke_d	d	n/a
533.3825	0.075	1066765	keystroke_w	w	n/a
533.5325	0.059	1067065	keystroke_i	i	n/a
533.6375	0.075	1067275	keystroke_d	d	n/a
533.9075	0.059	1067815	keystroke_t	t	n/a
533.9975	0.075	1067995	keystroke_h	h	n/a
534.6275	0.075	1069255	keystroke_Key.space	Key.space	n/a
534.7475	0.089	1069495	keystroke_s	s	n/a
534.8525	0.045	1069705	keystroke_h	h	n/a
534.9575	0.075	1069915	keystroke_e	e	n/a
535.1225	0.06	1070245	keystroke_e	e	n/a
535.2575	0.075	1070515	keystroke_p	p	n/a
535.4075	0.089	1070815	keystroke_Key.space	Key.space	n/a
535.7675	0.105	1071535	keystroke_s	s	n/a
535.9175	0.075	1071835	keystroke_p	p	n/a
536.0215	0.076	1072043	keystroke_e	e	n/a
536.2175	0.09	1072435	keystroke_c	c	n/a
536.5475	0.075	1073095	keystroke_i	i	n/a
536.7125	0.105	1073425	keystroke_a	a	n/a
536.8325	0.045	1073665	keystroke_l	l	n/a
536.9525	0.09	1073905	keystroke_i	i	n/a
537.1475	0.09	1074295	keystroke_s	s	n/a
537.3275	0.075	1074655	keystroke_t	t	n/a
537.6725	0.075	1075345	keystroke_Key.space	Key.space	n/a
537.9575	0.09	1075915	keystroke_s	s	n/a
538.0775	0.09	1076155	keystroke_t	t	n/a
538.3025	0.135	1076605	keystroke_r	r	n/a
538.4225	0.0895	1076845	keystroke_e	e	n/a
538.572	0.075	1077144	keystroke_n	n	n/a
538.707	0.075	1077414	keystroke_g	g	n/a
538.917	0.06	1077834	keystroke_t	t	n/a
539.022	0.06	1078044	keystroke_h	h	n/a
539.607	0.089	1079214	keystroke_Key.enter	Key.enter	n/a
539.7035	15.9865	1079407	prompt	n/a	purchased needn't museum reprints\n
540.387	0.12	1080774	keystroke_p	p	n/a
540.522	0.09	1081044	keystroke_u	u	n/a
540.597	0.075	1081194	keystroke_r	r	n/a
540.867	0.075	1081734	keystroke_c	c	n/a
540.957	0.06	1081914	keystroke_h	h	n/a
541.122	0.1205	1082244	keystroke_a	a	n/a
541.257	0.12	1082514	keystroke_s	s	n/a
541.347	0.09	1082694	keystroke_e	e	n/a
541.511	0.091	1083022	keystroke_d	d	n/a
542.457	0.09	1084914	keystroke_Key.space	Key.space	n/a
543.057	0.075	1086114	keystroke_n	n	n/a
543.237	0.075	1086474	keystroke_e	e	n/a
543.372	0.075	1086744	keystroke_e	e	n/a
543.5525	0.0745	1087105	keystroke_d	d	n/a
544.842	0.09	1089684	keystroke_d	d	n/a
545.112	0.09	1090224	keystroke_n	n	n/a
545.952	0.09	1091904	keystroke_Key.backspace	Key.backspace	n/a
546.117	0.105	1092234	keystroke_Key.backspace	Key.backspace	n/a
546.777	0.105	1093554	keystroke_n	n	n/a
547.167	0.12	1094334	keystroke_'	'	n/a
547.272	0.075	1094544	keystroke_t	t	n/a
547.722	0.12	1095444	keystroke_Key.space	Key.space	n/a
548.262	0.09	1096524	keystroke_m	m	n/a
548.457	0.03	1096914	keystroke_u	u	n/a
548.682	0.09	1097364	keystroke_s	s	n/a
548.757	0.09	1097514	keystroke_e	e	n/a
548.982	0.075	1097964	keystroke_u	u	n/a
549.222	0.075	1098444	keystroke_m	m	n/a
549.957	0.12	1099914	keystroke_Key.space	Key.space	n/a
550.152	0.12	1100304	keystroke_r	r	n/a
550.227	0.09	1100454	keystroke_e	e	n/a
550.422	0.09	1100844	keystroke_p	p	n/a
550.767	0.075	1101534	keystroke_r	r	n/a
550.902	0.075	1101804	keystroke_i	i	n/a
550.917	0.045	1101834	keystroke_u	u	n/a
551.067	0.045	1102134	keystroke_n	n	n/a
551.157	0.075	1102314	keystroke_t	t	n/a
551.427	0.075	1102854	keystroke_s	s	n/a
552.147	0.09	1104294	keystroke_Key.backspace	Key.backspace	n/a
552.432	0.015	1104864	keystroke_Key.backspace	Key.backspace	n/a
552.522	0.075	1105044	keystroke_Key.backspace	Key.backspace	n/a
552.702	0.075	1105404	keystroke_Key.backspace	Key.backspace	n/a
552.852	0.09	1105704	keystroke_Key.backspace	Key.backspace	n/a
554.307	0.105	1108614	keystroke_i	i	n/a
554.487	0.09	1108974	keystroke_n	n	n/a
554.592	0.06	1109184	keystroke_t	t	n/a
554.772	0.075	1109544	keystroke_s	s	n/a
555.597	0.09	1111194	keystroke_Key.enter	Key.enter	n/a
555.696	8.7075	1111392	prompt	n/a	worship horrible occupied budgets\n
556.302	0.09	1112604	keystroke_w	w	n/a
556.422	0.075	1112844	keystroke_o	o	n/a
556.512	0.075	1113024	keystroke_r	r	n/a
556.722	0.075	1113444	keystroke_s	s	n/a
556.857	0.06	1113714	keystroke_h	h	n/a
557.097	0.09	1114194	keystroke_i	i	n/a
557.217	0.105	1114434	keystroke_p	p	n/a
557.457	0.105	1114914	keystroke_Key.space	Key.space	n/a
557.817	0.045	1115634	keystroke_h	h	n/a
558.027	0.045	1116054	keystroke_o	o	n/a
558.102	0.045	1116204	keystroke_r	r	n/a
558.252	0.06	1116504	keystroke_r	r	n/a
558.357	0.06	1116714	keystroke_i	i	n/a
558.507	0.075	1117014	keystroke_b	b	n/a
558.717	0.06	1117434	keystroke_l	l	n/a
558.792	0.06	1117584	keystroke_e	e	n/a
559.107	0.09	1118214	keystroke_Key.space	Key.space	n/a
559.437	0.075	1118874	keystroke_o	o	n/a
559.557	0.06	1119114	keystroke_c	c	n/a
559.707	0.045	1119414	keystroke_c	c	n/a
559.872	0.06	1119744	keystroke_u	u	n/a
560.067	0.09	1120134	keystroke_p	p	n/a
560.217	0.075	1120434	keystroke_i	i	n/a
560.262	0.06	1120524	keystroke_e	e	n/a
560.442	0.06	1120884	keystroke_d	d	n/a
560.592	0.06	1121184	keystroke_Key.space	Key.space	n/a
560.772	0.06	1121544	keystroke_b	b	n/a
561.072	0.09	1122144	keystroke_d	d	n/a
562.392	0.105	1124784	keystroke_Key.backspace	Key.backspace	n/a
562.842	0.075	1125684	keystroke_u	u	n/a
563.007	0.075	1126014	keystroke_d	d	n/a
563.187	0.09	1126374	keystroke_g	g	n/a
563.367	0.105	1126734	keystroke_e	e	n/a
563.487	0.09	1126974	keystroke_t	t	n/a
563.727	0.045	1127454	keystroke_s	s	n/a
564.327	0.075	1128654	keystroke_Key.enter	Key.enter	n/a
564.411	7.5525	1128822	prompt	n/a	wanted counted lets addresses\n
565.032	0.06	1130064	keystroke_w	w	n/a
565.332	0.06	1130664	keystroke_n	n	n/a
565.437	0.045	1130874	keystroke_t	t	n/a
566.142	0.09	1132284	keystroke_Key.backspace	Key.backspace	n/a
566.337	0.075	1132674	keystroke_Key.backspace	Key.backspace	n/a
566.637	0.09	1133274	keystroke_a	a	n/a
566.787	0.075	1133574	keystroke_n	n	n/a
566.922	0.075	1133844	keystroke_t	t	n/a
567.042	0.06	1134084	keystroke_e	e	n/a
567.2075	0.0895	1134415	keystroke_d	d	n/a
567.522	0.09	1135044	keystroke_Key.space	Key.space	n/a
568.047	0.075	1136094	keystroke_c	c	n/a
568.242	0.09	1136484	keystroke_o	o	n/a
568.377	0.075	1136754	keystroke_u	u	n/a
568.587	0.075	1137174	keystroke_n	n	n/a
568.677	0.09	1137354	keystroke_t	t	n/a
568.827	0.075	1137654	keystroke_e	e	n/a
568.992	0.075	1137984	keystroke_d	d	n/a
569.172	0.105	1138344	keystroke_Key.space	Key.space	n/a
569.487	0.075	1138974	keystroke_l	l	n/a
569.577	0.105	1139154	keystroke_e	e	n/a
569.697	0.09	1139394	keystroke_t	t	n/a
569.847	0.075	1139694	keystroke_s	s	n/a
569.967	0.105	1139934	keystroke_Key.space	Key.space	n/a
570.162	0.09	1140324	keystroke_a	a	n/a
570.342	0.03	1140684	keystroke_d	d	n/a
570.462	0.09	1140924	keystroke_d	d	n/a
570.612	0.15	1141224	keystroke_r	r	n/a
570.732	0.075	1141464	keystroke_e	e	n/a
570.927	0.045	1141854	keystroke_s	s	n/a
571.047	0.075	1142094	keystroke_s	s	n/a
571.182	0.06	1142364	keystroke_e	e	n/a
571.317	0.105	1142634	keystroke_s	s	n/a
571.872	0.09	1143744	keystroke_Key.enter	Key.enter	n/a
571.968	6.2815	1143936	prompt	n/a	chen swedish surface trans\n
572.562	0.09	1145124	keystroke_c	c	n/a
572.712	0.075	1145424	keystroke_h	h	n/a
572.817	0.06	1145634	keystroke_e	e	n/a
572.967	0.09	1145934	keystroke_n	n	n/a
573.147	0.105	1146294	keystroke_Key.space	Key.space	n/a
573.372	0.06	1146744	keystroke_s	s	n/a
573.567	0.12	1147134	keystroke_w	w	n/a
573.672	0.075	1147344	keystroke_e	e	n/a
573.867	0.075	1147734	keystroke_d	d	n/a
574.362	0.09	1148724	keystroke_i	i	n/a
574.572	0.09	1149144	keystroke_s	s	n/a
574.692	0.045	1149384	keystroke_h	h	n/a
574.962	0.09	1149924	keystroke_Key.space	Key.space	n/a
575.232	0.06	1150464	keystroke_s	s	n/a
575.442	0.015	1150884	keystroke_u	u	n/a
575.472	0.075	1150944	keystroke_r	r	n/a
576.192	0.06	1152384	keystroke_f	f	n/a
576.387	0.165	1152774	keystroke_a	a	n/a
576.537	0.15	1153074	keystroke_c	c	n/a
576.672	0.09	1153344	keystroke_e	e	n/a
576.852	0.105	1153704	keystroke_Key.space	Key.space	n/a
577.017	0.045	1154034	keystroke_t	t	n/a
577.167	0.045	1154334	keystroke_r	r	n/a
577.317	0.075	1154634	keystroke_a	a	n/a
577.422	0.06	1154844	keystroke_n	n	n/a
577.527	0.075	1155054	keystroke_s	s	n/a
578.172	0.075	1156344	keystroke_Key.enter	Key.enter	n/a
578.2545	13.5105	1156509	prompt	n/a	passwords music hostels continent\n
578.922	0.105	1157844	keystroke_p	p	n/a
579.0115	0.075	1158023	keystroke_a	a	n/a
579.1915	0.046	1158383	keystroke_s	s	n/a
579.3265	0.0605	1158653	keystroke_s	s	n/a
579.5215	0.06	1159043	keystroke_w	w	n/a
579.6715	0.075	1159343	keystroke_o	o	n/a
579.7615	0.06	1159523	keystroke_r	r	n/a
579.9265	0.075	1159853	keystroke_d	d	n/a
580.1065	0.075	1160213	keystroke_s	s	n/a
580.2565	0.09	1160513	keystroke_Key.space	Key.space	n/a
580.617	0.0595	1161234	keystroke_u	u	n/a
581.4265	0.09	1162853	keystroke_Key.backspace	Key.backspace	n/a
581.9665	0.09	1163933	keystroke_m	m	n/a
582.2215	0.06	1164443	keystroke_u	u	n/a
582.4015	0.12	1164803	keystroke_s	s	n/a
582.5515	0.075	1165103	keystroke_i	i	n/a
582.6865	0.045	1165373	keystroke_c	c	n/a
583.5715	0.09	1167143	keystroke_Key.space	Key.space	n/a
583.7965	0.06	1167593	keystroke_h	h	n/a
584.6365	0.06	1169273	keystroke_o	o	n/a
584.7865	0.075	1169573	keystroke_s	s	n/a
584.9815	0.075	1169963	keystroke_t	t	n/a
585.2065	0.075	1170413	keystroke_e	e	n/a
585.3565	0.09	1170713	keystroke_l	l	n/a
585.5515	0.075	1171103	keystroke_s	s	n/a
587.216	0.12	1174432	keystroke_Key.space	Key.space	n/a
587.502	0.09	1175004	keystroke_c	c	n/a
587.652	0.075	1175304	keystroke_o	o	n/a
587.787	0.09	1175574	keystroke_n	n	n/a
587.922	0.075	1175844	keystroke_t	t	n/a
588.042	0.06	1176084	keystroke_i	i	n/a
588.476	0.076	1176952	keystroke_n	n	n/a
589.362	0.12	1178724	keystroke_e	e	n/a
589.887	0.074	1179774	keystroke_n	n	n/a
590.112	0.06	1180224	keystroke_t	t	n/a
591.687	0.075	1183374	keystroke_Key.enter	Key.enter	n/a
591.772	9.6065	1183544	prompt	n/a	gazette alias slightly flash\n
592.437	0.105	1184874	keystroke_g	g	n/a
592.587	0.089	1185174	keystroke_a	a	n/a
593.247	0.09	1186494	keystroke_z	z	n/a
593.517	0.059	1187034	keystroke_e	e	n/a
593.787	0.075	1187574	keystroke_l	l	n/a
593.952	0.075	1187904	keystroke_l	l	n/a
595.047	0.045	1190094	keystroke_Key.backspace	Key.backspace	n/a
595.182	0.09	1190364	keystroke_Key.backspace	Key.backspace	n/a
595.527	0.045	1191054	keystroke_t	t	n/a
595.692	0.075	1191384	keystroke_t	t	n/a
595.827	0.09	1191654	keystroke_e	e	n/a
596.277	0.12	1192554	keystroke_Key.space	Key.space	n/a
596.682	0.09	1193364	keystroke_a	a	n/a
596.952	0.09	1193904	keystroke_l	l	n/a
597.162	0.075	1194324	keystroke_i	i	n/a
597.357	0.09	1194714	keystroke_a	a	n/a
597.462	0.105	1194924	keystroke_s	s	n/a
597.762	0.09	1195524	keystroke_Key.space	Key.space	n/a
598.032	0.015	1196064	keystroke_s	s	n/a
598.062	0.06	1196124	keystroke_l	l	n/a
598.242	0.075	1196484	keystroke_i	i	n/a
598.347	0.06	1196694	keystroke_g	g	n/a
598.452	0.06	1196904	keystroke_h	h	n/a
598.572	0.045	1197144	keystroke_t	t	n/a
598.797	0.12	1197594	keystroke_l	l	n/a
598.947	0.075	1197894	keystroke_y	y	n/a
599.217	0.09	1198434	keystroke_Key.space	Key.space	n/a
599.547	0.09	1199094	keystroke_f	f	n/a
599.877	0.075	1199754	keystroke_l	l	n/a
600.0565	0.091	1200113	keystroke_a	a	n/a
600.2215	0.09	1200443	keystroke_s	s	n/a
600.3265	0.06	1200653	keystroke_h	h	n/a
601.2865	0.09	1202573	keystroke_Key.enter	Key.enter	n/a
601.384	9.7	1202768	prompt	n/a	caribbean chaos zinc slip\n
602.0815	0.09	1204163	keystroke_c	c	n/a
602.5475	0.149	1205095	keystroke_a	a	n/a
602.7565	0.075	1205513	keystroke_r	r	n/a
602.9065	0.075	1205813	keystroke_i	i	n/a
603.1915	0.06	1206383	keystroke_b	b	n/a
603.3715	0.06	1206743	keystroke_b	b	n/a
603.4765	0.075	1206953	keystroke_e	e	n/a
603.6565	0.09	1207313	keystroke_a	a	n/a
603.7315	0.075	1207463	keystroke_n	n	n/a
603.9865	0.105	1207973	keystroke_Key.space	Key.space	n/a
604.1365	0.09	1208273	keystroke_c	c	n/a
604.2865	0.045	1208573	keystroke_h	h	n/a
604.4515	0.12	1208903	keystroke_a	a	n/a
605.4725	0.074	1210945	keystroke_o	o	n/a
605.5915	0.06	1211183	keystroke_s	s	n/a
606.0115	0.09	1212023	keystroke_Key.space	Key.space	n/a
606.2515	0.06	1212503	keystroke_i	i	n/a
606.3865	0.06	1212773	keystroke_n	n	n/a
606.4615	0.075	1212923	keystroke_c	c	n/a
606.6565	0.09	1213313	keystroke_Key.space	Key.space	n/a
607.9765	0.075	1215953	keystroke_Key.backspace	Key.backspace	n/a
608.1715	0.09	1216343	keystroke_Key.backspace	Key.backspace	n/a
608.3665	0.075	1216733	keystroke_Key.backspace	Key.backspace	n/a
608.5165	0.075	1217033	keystroke_Key.backspace	Key.backspace	n/a
608.7575	0.089	1217515	keystroke_z	z	n/a
608.8765	0.09	1217753	keystroke_i	i	n/a
609.0425	0.089	1218085	keystroke_n	n	n/a
609.3575	0.059	1218715	keystroke_c	c	n/a
609.5665	0.075	1219133	keystroke_Key.space	Key.space	n/a
609.9415	0.12	1219883	keystroke_s	s	n/a
610.1075	0.104	1220215	keystroke_l	l	n/a
610.2565	0.136	1220513	keystroke_i	i	n/a
610.4065	0.105	1220813	keystroke_p	p	n/a
610.9915	0.09	1221983	keystroke_Key.enter	Key.enter	n/a
611.0895	8.3195	1222179	prompt	n/a	camel necessary blink norway\n
611.9365	0.075	1223873	keystroke_c	c	n/a
