onset	duration	sample	value	key	prompt_text
2.762	18.982	5524	prompt	n/a	the quick brown fox jumps over a lazy dog\n
5.0135	0.016	10027	keystroke_t	t	n/a
5.0575	0.1035	10115	keystroke_h	h	n/a
5.145	0.1065	10290	keystroke_e	e	n/a
5.2675	0.073	10535	keystroke_Key.space	Key.space	n/a
5.478	0.1195	10956	keystroke_q	q	n/a
5.577	0.082	11154	keystroke_u	u	n/a
5.733	0.1045	11466	keystroke_i	i	n/a
5.928	0.1195	11856	keystroke_c	c	n/a
6.0625	0.089	12125	keystroke_k	k	n/a
6.197	0.105	12394	keystroke_Key.space	Key.space	n/a
6.4805	0.0905	12961	keystroke_b	b	n/a
6.675	0.0895	13350	keystroke_r	r	n/a
6.7795	0.12	13559	keystroke_o	o	n/a
6.959	0.09	13918	keystroke_w	w	n/a
7.0945	0.0745	14189	keystroke_n	n	n/a
7.228	0.0905	14456	keystroke_Key.space	Key.space	n/a
7.534	0.101	15068	keystroke_f	f	n/a
7.665	0.0895	15330	keystroke_o	o	n/a
8.0455	0.082	16091	keystroke_Key.space	Key.space	n/a
8.558	0.03	17116	keystroke_Key.backspace	Key.backspace	n/a
9.249	0.1195	18498	keystroke_x	x	n/a
9.7275	0.0895	19455	keystroke_Key.space	Key.space	n/a
9.9965	0.06	19993	keystroke_j	j	n/a
10.1615	0.0595	20323	keystroke_u	u	n/a
10.341	0.0745	20682	keystroke_n	n	n/a
10.507	0.0895	21014	keystroke_o	o	n/a
10.7015	0.0895	21403	keystroke_s	s	n/a
10.806	0.075	21612	keystroke_Key.space	Key.space	n/a
10.9725	0.0895	21945	keystroke_i	i	n/a
11.5565	0.1195	23113	keystroke_v	v	n/a
13.611	0.0895	27222	keystroke_Key.backspace	Key.backspace	n/a
13.8205	0.0745	27641	keystroke_Key.backspace	Key.backspace	n/a
14.1665	0.0745	28333	keystroke_Key.backspace	Key.backspace	n/a
14.316	0.0895	28632	keystroke_Key.backspace	Key.backspace	n/a
14.4655	0.106	28931	keystroke_Key.backspace	Key.backspace	n/a
14.616	0.075	29232	keystroke_Key.backspace	Key.backspace	n/a
15.562	0.029	31124	keystroke_m	m	n/a
15.8155	0.06	31631	keystroke_p	p	n/a
16.026	0.0745	32052	keystroke_s	s	n/a
17.5845	0.151	35169	keystroke_Key.space	Key.space	n/a
17.7655	0.1045	35531	keystroke_o	o	n/a
17.96	0.1345	35920	keystroke_v	v	n/a
18.14	0.1795	36280	keystroke_e	e	n/a
18.275	0.1195	36550	keystroke_r	r	n/a
18.4095	0.09	36819	keystroke_Key.space	Key.space	n/a
18.559	0.1065	37118	keystroke_a	a	n/a
18.6505	0.09	37301	keystroke_Key.space	Key.space	n/a
18.7565	0.1045	37513	keystroke_l	l	n/a
18.905	0.09	37810	keystroke_a	a	n/a
19.1305	0.1645	38261	keystroke_z	z	n/a
19.31	0.1055	38620	keystroke_y	y	n/a
19.3845	0.135	38769	keystroke_Key.space	Key.space	n/a
19.625	0.1345	39250	keystroke_d	d	n/a
19.7	0.0895	39400	keystroke_o	o	n/a
19.9095	0.1045	39819	keystroke_g	g	n/a
20.074	0.0765	40148	keystroke_Key.space	Key.space	n/a
21.6355	0.105	43271	keystroke_Key.enter	Key.enter	n/a
21.749	10.837	43498	prompt	n/a	frank advocacy thanks shell\n
22.88	0.105	45760	keystroke_f	f	n/a
23.1045	0.09	46209	keystroke_r	r	n/a
23.256	0.1495	46512	keystroke_a	a	n/a
23.3905	0.075	46781	keystroke_n	n	n/a
23.525	0.09	47050	keystroke_k	k	n/a
23.69	0.1055	47380	keystroke_Key.space	Key.space	n/a
23.8555	0.1045	47711	keystroke_a	a	n/a
24.035	0.105	48070	keystroke_d	d	n/a
24.2905	0.09	48581	keystroke_v	v	n/a
24.3955	0.0895	48791	keystroke_o	o	n/a
24.605	0.1195	49210	keystroke_c	c	n/a
24.7855	0.12	49571	keystroke_a	a	n/a
25.055	0.105	50110	keystroke_c	c	n/a
25.2505	0.1195	50501	keystroke_y	y	n/a
25.355	0.12	50710	keystroke_Key.space	Key.space	n/a
25.6095	0.105	51219	keystroke_t	t	n/a
25.6995	0.076	51399	keystroke_h	h	n/a
25.8805	0.1045	51761	keystroke_a	a	n/a
25.9555	0.0745	51911	keystroke_n	n	n/a
26.105	0.045	52210	keystroke_j	j	n/a
26.2545	0.106	52509	keystroke_s	s	n/a
26.7495	0.091	53499	keystroke_=	=	n/a
28.4595	0.0895	56919	keystroke_Key.backspace	Key.backspace	n/a
28.759	0.105	57518	keystroke_Key.backspace	Key.backspace	n/a
29.2235	0.121	58447	keystroke_Key.backspace	Key.backspace	n/a
30.154	0.1055	60308	keystroke_k	k	n/a
30.3195	0.09	60639	keystroke_s	s	n/a
30.709	0.1205	61418	keystroke_Key.space	Key.space	n/a
30.9495	0.1195	61899	keystroke_s	s	n/a
31.099	0.09	62198	keystroke_h	h	n/a
31.234	0.075	62468	keystroke_e	e	n/a
31.37	0.06	62740	keystroke_l	l	n/a
31.4895	0.075	62979	keystroke_l	l	n/a
31.7445	0.0905	63489	keystroke_'	'	n/a
32.5245	0.06	65049	keystroke_Key.enter	Key.enter	n/a
32.5905	10.406	65181	prompt	n/a	aruba conversion novels specify\n
33.5745	0.1195	67149	keystroke_a	a	n/a
33.814	0.0905	67628	keystroke_r	r	n/a
33.9495	0.06	67899	keystroke_u	u	n/a
34.129	0.09	68258	keystroke_b	b	n/a
34.309	0.1205	68618	keystroke_a	a	n/a
34.4895	0.09	68979	keystroke_Key.space	Key.space	n/a
34.699	0.105	69398	keystroke_c	c	n/a
34.819	0.0605	69638	keystroke_o	o	n/a
35.014	0.06	70028	keystroke_n	n	n/a
35.5555	0.1335	71111	keystroke_v	v	n/a
35.809	0.24	71618	keystroke_e	e	n/a
35.9595	0.1345	71919	keystroke_r	r	n/a
36.319	0.0895	72638	keystroke_s	s	n/a
36.5895	0.075	73179	keystroke_i	i	n/a
36.754	0.075	73508	keystroke_o	o	n/a
36.919	0.0755	73838	keystroke_n	n	n/a
37.0545	0.105	74109	keystroke_Key.space	Key.space	n/a
37.204	0.105	74408	keystroke_n	n	n/a
37.339	0.09	74678	keystroke_o	o	n/a
37.564	0.075	75128	keystroke_v	v	n/a
37.7285	0.09	75457	keystroke_e	e	n/a
37.8335	0.09	75667	keystroke_l	l	n/a
38.194	0.105	76388	keystroke_s	s	n/a
38.3585	0.075	76717	keystroke_Key.space	Key.space	n/a
38.719	0.1045	77438	keystroke_s	s	n/a
38.9135	0.061	77827	keystroke_p	p	n/a
38.989	0.09	77978	keystroke_e	e	n/a
39.304	0.1345	78608	keystroke_c	c	n/a
39.544	0.075	79088	keystroke_i	i	n/a
39.7985	0.09	79597	keystroke_f	f	n/a
39.9185	0.09	79837	keystroke_y	y	n/a
40.324	0.1045	80648	keystroke_'	'	n/a
41.988	0.0905	83976	keystroke_Key.backspace	Key.backspace	n/a
42.9185	0.075	85837	keystroke_Key.enter	Key.enter	n/a
43.002	7.058	86004	prompt	n/a	prepared systems nails sudan\n
45.5465	0.027	91093	keystroke_p	p	n/a
45.634	0.135	91268	keystroke_r	r	n/a
45.724	0.135	91448	keystroke_e	e	n/a
45.9635	0.075	91927	keystroke_p	p	n/a
46.0835	0.1505	92167	keystroke_a	a	n/a
46.249	0.12	92498	keystroke_r	r	n/a
46.354	0.1045	92708	keystroke_e	e	n/a
46.5485	0.106	93097	keystroke_d	d	n/a
46.684	0.0895	93368	keystroke_Key.space	Key.space	n/a
46.9385	0.105	93877	keystroke_s	s	n/a
47.0885	0.0915	94177	keystroke_y	y	n/a
47.2085	0.15	94417	keystroke_s	s	n/a
47.4335	0.135	94867	keystroke_t	t	n/a
47.5535	0.1045	95107	keystroke_e	e	n/a
47.688	0.1055	95376	keystroke_m	m	n/a
47.8685	0.0895	95737	keystroke_s	s	n/a
48.003	0.075	96006	keystroke_Key.space	Key.space	n/a
48.198	0.0905	96396	keystroke_n	n	n/a
48.3635	0.105	96727	keystroke_a	a	n/a
48.4385	0.06	96877	keystroke_i	i	n/a
48.588	0.09	97176	keystroke_l	l	n/a
48.7685	0.075	97537	keystroke_s	s	n/a
48.8585	0.045	97717	keystroke_Key.space	Key.space	n/a
49.008	0.12	98016	keystroke_s	s	n/a
49.083	0.09	98166	keystroke_u	u	n/a
49.443	0.105	98886	keystroke_d	d	n/a
49.608	0.135	99216	keystroke_a	a	n/a
49.7575	0.0755	99515	keystroke_n	n	n/a
49.983	0.075	99966	keystroke_Key.enter	Key.enter	n/a
50.07	10.491	100140	prompt	n/a	efficiency cruises coast james\n
51.438	0.0745	102876	keystroke_e	e	n/a
51.6775	0.06	103355	keystroke_f	f	n/a
51.7825	0.0905	103565	keystroke_f	f	n/a
51.918	0.075	103836	keystroke_i	i	n/a
52.7425	0.091	105485	keystroke_c	c	n/a
52.8485	0.089	105697	keystroke_i	i	n/a
52.9985	0.105	105997	keystroke_e	e	n/a
53.1185	0.0605	106237	keystroke_n	n	n/a
53.2985	0.1055	106597	keystroke_c	c	n/a
53.5375	0.106	107075	keystroke_y	y	n/a
53.6125	0.12	107225	keystroke_Key.space	Key.space	n/a
53.839	0.135	107678	keystroke_c	c	n/a
54.0485	0.105	108097	keystroke_r	r	n/a
54.1685	0.075	108337	keystroke_u	u	n/a
56.406	0.0275	112812	keystroke_i	i	n/a
56.583	0.09	113166	keystroke_s	s	n/a
56.748	0.09	113496	keystroke_e	e	n/a
56.913	0.1205	113826	keystroke_s	s	n/a
57.0485	0.0885	114097	keystroke_Key.space	Key.space	n/a
57.213	0.12	114426	keystroke_c	c	n/a
57.288	0.09	114576	keystroke_o	o	n/a
57.438	0.1355	114876	keystroke_a	a	n/a
57.6185	0.12	115237	keystroke_s	s	n/a
57.9035	0.0905	115807	keystroke_t	t	n/a
58.024	0.09	116048	keystroke_Key.space	Key.space	n/a
58.294	0.0895	116588	keystroke_j	j	n/a
58.4435	0.1355	116887	keystroke_a	a	n/a
58.564	0.0745	117128	keystroke_m	m	n/a
58.6835	0.075	117367	keystroke_e	e	n/a
58.863	0.091	117726	keystroke_s	s	n/a
58.998	0.09	117996	keystroke_'	'	n/a
60.213	0.06	120426	keystroke_Key.backspace	Key.backspace	n/a
60.453	0.1055	120906	keystroke_Key.enter	Key.enter	n/a
60.567	11.244	121134	prompt	n/a	source owners negotiations unusual\n
61.579	0.104	123158	keystroke_s	s	n/a
61.788	0.12	123576	keystroke_o	o	n/a
61.968	0.12	123936	keystroke_u	u	n/a
62.133	0.105	124266	keystroke_r	r	n/a
62.374	0.0885	124748	keystroke_c	c	n/a
62.5675	0.12	125135	keystroke_e	e	n/a
62.6885	0.089	125377	keystroke_Key.space	Key.space	n/a
62.8525	0.075	125705	keystroke_o	o	n/a
62.9725	0.1205	125945	keystroke_w	w	n/a
63.198	0.06	126396	keystroke_n	n	n/a
63.378	0.24	126756	keystroke_e	e	n/a
63.544	0.105	127088	keystroke_r	r	n/a
64.3075	0.075	128615	keystroke_s	s	n/a
64.4575	0.09	128915	keystroke_Key.space	Key.space	n/a
64.7125	0.075	129425	keystroke_n	n	n/a
65.058	0.1045	130116	keystroke_e	e	n/a
65.3125	0.075	130625	keystroke_g	g	n/a
65.4025	0.076	130805	keystroke_o	o	n/a
65.7335	0.119	131467	keystroke_t	t	n/a
65.8375	0.06	131675	keystroke_i	i	n/a
66.0035	0.1045	132007	keystroke_a	a	n/a
66.243	0.09	132486	keystroke_t	t	n/a
66.348	0.076	132696	keystroke_i	i	n/a
66.5285	0.0755	133057	keystroke_o	o	n/a
66.678	0.075	133356	keystroke_n	n	n/a
66.828	0.105	133656	keystroke_s	s	n/a
66.934	0.074	133868	keystroke_Key.space	Key.space	n/a
67.188	0.06	134376	keystroke_u	u	n/a
67.323	0.105	134646	keystroke_s	s	n/a
68.688	0.045	137376	keystroke_Key.backspace	Key.backspace	n/a
68.823	0.06	137646	keystroke_Key.backspace	Key.backspace	n/a
69.168	0.075	138336	keystroke_u	u	n/a
69.393	0.015	138786	keystroke_n	n	n/a
70.833	0.09	141666	keystroke_u	u	n/a
71.0575	0.106	142115	keystroke_s	s	n/a
71.1485	0.075	142297	keystroke_u	u	n/a
71.327	0.106	142654	keystroke_a	a	n/a
71.417	0.09	142834	keystroke_l	l	n/a
71.7325	0.075	143465	keystroke_Key.enter	Key.enter	n/a
71.817	8.019	143634	prompt	n/a	islam tourism an discs\n
72.858	0.09	145716	keystroke_i	i	n/a
73.024	0.134	146048	keystroke_s	s	n/a
73.2185	0.105	146437	keystroke_l	l	n/a
73.3685	0.105	146737	keystroke_a	a	n/a
73.4885	0.09	146977	keystroke_m	m	n/a
73.6235	0.105	147247	keystroke_Key.space	Key.space	n/a
73.8935	0.105	147787	keystroke_t	t	n/a
74.0735	0.21	148147	keystroke_o	o	n/a
74.2235	0.12	148447	keystroke_u	u	n/a
74.4635	0.135	148927	keystroke_r	r	n/a
74.5835	0.075	149167	keystroke_i	i	n/a
74.7785	0.09	149557	keystroke_s	s	n/a
74.9135	0.15	149827	keystroke_m	m	n/a
75.1085	0.075	150217	keystroke_Key.space	Key.space	n/a
75.304	0.0895	150608	keystroke_a	a	n/a
75.634	0.1345	151268	keystroke_n	n	n/a
75.7235	0.15	151447	keystroke_Key.space	Key.space	n/a
76.0695	0.119	152139	keystroke_d	d	n/a
76.1735	0.06	152347	keystroke_i	i	n/a
76.3685	0.105	152737	keystroke_s	s	n/a
76.6235	0.09	153247	keystroke_c	c	n/a
76.8185	0.09	153637	keystroke_s	s	n/a
77.0885	0.075	154177	keystroke_'	'	n/a
77.7785	0.0905	155557	keystroke_=	=	n/a
78.289	0.06	156578	keystroke_Key.backspace	Key.backspace	n/a
78.544	0.06	157088	keystroke_Key.backspace	Key.backspace	n/a
78.694	0.06	157388	keystroke_Key.backspace	Key.backspace	n/a
79.3985	0.09	158797	keystroke_s	s	n/a
79.7435	0.09	159487	keystroke_Key.enter	Key.enter	n/a
79.844	18.532	159688	prompt	n/a	withdrawal explains myers concept\n
80.7335	0.075	161467	keystroke_w	w	n/a
80.8835	0.075	161767	keystroke_i	i	n/a
81.0935	0.105	162187	keystroke_t	t	n/a
81.1835	0.075	162367	keystroke_h	h	n/a
81.4385	0.12	162877	keystroke_d	d	n/a
81.664	0.1795	163328	keystroke_a	a	n/a
81.979	0.12	163958	keystroke_r	r	n/a
82.234	0.0895	164468	keystroke_w	w	n/a
83.014	0.0745	166028	keystroke_=	=	n/a
83.6285	0.075	167257	keystroke_Key.backspace	Key.backspace	n/a
83.8085	0.075	167617	keystroke_Key.backspace	Key.backspace	n/a
83.9735	0.075	167947	keystroke_Key.backspace	Key.backspace	n/a
84.1235	0.06	168247	keystroke_Key.backspace	Key.backspace	n/a
84.588	0.1065	169176	keystroke_r	r	n/a
84.8135	0.06	169627	keystroke_Key.caps_lock	Key.caps_lock	n/a
85.3385	0.12	170677	keystroke_a	a	n/a
86.164	0.12	172328	keystroke_Key.caps_lock	Key.caps_lock	n/a
86.9885	0.105	173977	keystroke_Key.backspace	Key.backspace	n/a
87.5435	0.105	175087	keystroke_a	a	n/a
87.7685	0.09	175537	keystroke_w	w	n/a
88.068	0.12	176136	keystroke_l	l	n/a
88.7885	0.12	177577	keystroke_Key.space	Key.space	n/a
88.9385	0.1045	177877	keystroke_e	e	n/a
89.208	0.1505	178416	keystroke_x	x	n/a
89.4035	0.09	178807	keystroke_p	p	n/a
89.6435	0.09	179287	keystroke_l	l	n/a
89.8085	0.075	179617	keystroke_i	i	n/a
90.0185	0.075	180037	keystroke_a	a	n/a
90.1085	0.075	180217	keystroke_n	n	n/a
90.3035	0.12	180607	keystroke_s	s	n/a
93.6965	0	187393	keystroke_Key.backspace	Key.backspace	n/a
93.8285	0.03	187657	keystroke_Key.backspace	Key.backspace	n/a
93.9635	0.075	187927	keystroke_Key.backspace	Key.backspace	n/a
94.1285	0.09	188257	keystroke_Key.backspace	Key.backspace	n/a
94.7135	0.12	189427	keystroke_a	a	n/a
94.8785	0.075	189757	keystroke_i	i	n/a
95.073	0.06	190146	keystroke_n	n	n/a
95.208	0.105	190416	keystroke_s	s	n/a
95.733	0.105	191466	keystroke_Key.space	Key.space	n/a
95.928	0.09	191856	keystroke_m	m	n/a
96.2435	0.075	192487	keystroke_y	y	n/a
96.4085	0.195	192817	keystroke_e	e	n/a
96.5735	0.105	193147	keystroke_r	r	n/a
96.7995	0.104	193599	keystroke_s	s	n/a
96.8885	0.075	193777	keystroke_Key.space	Key.space	n/a
97.0535	0.12	194107	keystroke_c	c	n/a
97.1585	0.06	194317	keystroke_o	o	n/a
97.2935	0.09	194587	keystroke_n	n	n/a
97.4285	0.12	194857	keystroke_c	c	n/a
97.6535	0.12	195307	keystroke_e	e	n/a
97.7885	0.09	195577	keystroke_p	p	n/a
98.0285	0.105	196057	keystroke_t	t	n/a
98.2985	0.075	196597	keystroke_Key.enter	Key.enter	n/a
98.3825	7.839	196765	prompt	n/a	salem editors addiction commissioner\n
99.168	0.076	198336	keystroke_s	s	n/a
99.333	0.12	198666	keystroke_a	a	n/a
99.468	0.12	198936	keystroke_l	l	n/a
99.6785	0.076	199357	keystroke_e	e	n/a
99.7685	0.09	199537	keystroke_m	m	n/a
99.9335	0.075	199867	keystroke_Key.space	Key.space	n/a
100.0235	0.09	200047	keystroke_e	e	n/a
100.2335	0.105	200467	keystroke_d	d	n/a
100.3235	0.06	200647	keystroke_i	i	n/a
100.6535	0.091	201307	keystroke_t	t	n/a
100.7285	0.09	201457	keystroke_o	o	n/a
100.8635	0.075	201727	keystroke_r	r	n/a
101.0745	0.1045	202149	keystroke_s	s	n/a
101.194	0.075	202388	keystroke_Key.space	Key.space	n/a
101.344	0.105	202688	keystroke_a	a	n/a
101.554	0.06	203108	keystroke_d	d	n/a
101.674	0.09	203348	keystroke_d	d	n/a
101.7945	0.075	203589	keystroke_i	i	n/a
102.424	0.105	204848	keystroke_c	c	n/a
102.724	0.1055	205448	keystroke_t	t	n/a
102.8745	0.075	205749	keystroke_i	i	n/a
103.0395	0.075	206079	keystroke_o	o	n/a
103.2345	0.06	206469	keystroke_n	n	n/a
103.4145	0.06	206829	keystroke_Key.space	Key.space	n/a
103.8345	0.105	207669	keystroke_c	c	n/a
103.9245	0.075	207849	keystroke_o	o	n/a
104.1495	0.045	208299	keystroke_m	m	n/a
104.284	0.06	208568	keystroke_m	m	n/a
104.464	0.06	208928	keystroke_i	i	n/a
104.614	0.06	209228	keystroke_s	s	n/a
104.749	0.09	209498	keystroke_s	s	n/a
104.929	0.06	209858	keystroke_i	i	n/a
105.364	0.075	210728	keystroke_o	o	n/a
105.574	0.06	211148	keystroke_n	n	n/a
105.769	0.18	211538	keystroke_e	e	n/a
105.904	0.15	211808	keystroke_r	r	n/a
106.114	0.105	212228	keystroke_Key.enter	Key.enter	n/a
106.227	8.0195	212454	prompt	n/a	editions expo infants exhibition\n
106.9695	0.09	213939	keystroke_e	e	n/a
107.2095	0.135	214419	keystroke_d	d	n/a
107.3445	0.075	214689	keystroke_i	i	n/a
107.5695	0.105	215139	keystroke_t	t	n/a
107.6895	0.06	215379	keystroke_i	i	n/a
107.8245	0.09	215649	keystroke_o	o	n/a
108.0195	0.06	216039	keystroke_n	n	n/a
108.1395	0.12	216279	keystroke_s	s	n/a
108.2895	0.09	216579	keystroke_Key.space	Key.space	n/a
108.544	0.09	217088	keystroke_e	e	n/a
108.784	0.1355	217568	keystroke_x	x	n/a
108.9795	0.075	217959	keystroke_p	p	n/a
109.2195	0.075	218439	keystroke_o	o	n/a
109.474	0.06	218948	keystroke_Key.space	Key.space	n/a
110.0445	0.06	220089	keystroke_i	i	n/a
110.2095	0.075	220419	keystroke_n	n	n/a
110.494	0.015	220988	keystroke_f	f	n/a
110.525	0.134	221050	keystroke_a	a	n/a
110.644	0.075	221288	keystroke_n	n	n/a
110.824	0.105	221648	keystroke_t	t	n/a
111.049	0.105	222098	keystroke_s	s	n/a
111.139	0.075	222278	keystroke_Key.space	Key.space	n/a
111.274	0.0895	222548	keystroke_e	e	n/a
111.529	0.15	223058	keystroke_x	x	n/a
111.739	0.12	223478	keystroke_h	h	n/a
112.624	0.09	225248	keystroke_i	i	n/a
112.8795	0.105	225759	keystroke_b	b	n/a
113.0145	0.06	226029	keystroke_i	i	n/a
113.3745	0.09	226749	keystroke_t	t	n/a
113.4795	0.075	226959	keystroke_i	i	n/a
113.7045	0.09	227409	keystroke_o	o	n/a
113.9295	0.015	227859	keystroke_n	n	n/a
114.1695	0.075	228339	keystroke_Key.enter	Key.enter	n/a
114.251	7.93	228502	prompt	n/a	stockholm admissions reservation laptops\n
115.2195	0.09	230439	keystroke_s	s	n/a
115.4445	0.09	230889	keystroke_t	t	n/a
115.5495	0.0895	231099	keystroke_o	o	n/a
115.744	0.09	231488	keystroke_c	c	n/a
115.849	0.06	231698	keystroke_k	k	n/a
116.0595	0.0745	232119	keystroke_h	h	n/a
116.194	0.09	232388	keystroke_o	o	n/a
116.374	0.06	232748	keystroke_l	l	n/a
116.584	0.1055	233168	keystroke_m	m	n/a
116.7645	0.075	233529	keystroke_Key.space	Key.space	n/a
117.094	0.09	234188	keystroke_a	a	n/a
117.274	0.09	234548	keystroke_d	d	n/a
117.394	0.09	234788	keystroke_m	m	n/a
117.529	0.075	235058	keystroke_i	i	n/a
117.6495	0.075	235299	keystroke_s	s	n/a
117.7995	0.105	235599	keystroke_s	s	n/a
118.0695	0.105	236139	keystroke_i	i	n/a
118.279	0.075	236558	keystroke_o	o	n/a
118.4595	0.075	236919	keystroke_n	n	n/a
118.6095	0.105	237219	keystroke_s	s	n/a
118.7295	0.06	237459	keystroke_Key.space	Key.space	n/a
118.9845	0.09	237969	keystroke_r	r	n/a
119.0445	0.15	238089	keystroke_e	e	n/a
119.2995	0.18	238599	keystroke_s	s	n/a
119.4945	0.165	238989	keystroke_e	e	n/a
119.6145	0.105	239229	keystroke_r	r	n/a
119.8395	0.105	239679	keystroke_v	v	n/a
119.9745	0.195	239949	keystroke_a	a	n/a
120.2445	0.1045	240489	keystroke_t	t	n/a
120.304	0.39	240608	keystroke_i	i	n/a
120.424	0.271	240848	keystroke_o	o	n/a
120.589	0.165	241178	keystroke_n	n	n/a
120.709	0.105	241418	keystroke_Key.space	Key.space	n/a
120.874	0.12	241748	keystroke_l	l	n/a
121.069	0.1355	242138	keystroke_a	a	n/a
121.2195	0.075	242439	keystroke_p	p	n/a
121.49	0.104	242980	keystroke_t	t	n/a
121.5795	0.0905	243159	keystroke_o	o	n/a
121.7595	0.0745	243519	keystroke_p	p	n/a
121.909	0.105	243818	keystroke_s	s	n/a
122.104	0.075	244208	keystroke_Key.enter	Key.enter	n/a
122.186	6.355	244372	prompt	n/a	senior tenant those trailer\n
122.929	0.06	245858	keystroke_s	s	n/a
123.334	0.105	246668	keystroke_e	e	n/a
123.529	0.06	247058	keystroke_n	n	n/a
123.664	0.075	247328	keystroke_i	i	n/a
123.784	0.105	247568	keystroke_o	o	n/a
123.965	0.105	247930	keystroke_r	r	n/a
124.099	0.09	248198	keystroke_Key.space	Key.space	n/a
125	0.089	250000	keystroke_t	t	n/a
125.15	0.104	250300	keystroke_e	e	n/a
125.299	0.09	250598	keystroke_n	n	n/a
125.464	0.106	250928	keystroke_a	a	n/a
125.584	0.06	251168	keystroke_n	n	n/a
125.9885	0.12	251977	keystroke_t	t	n/a
126.139	0.105	252278	keystroke_Key.space	Key.space	n/a
126.5	0.104	253000	keystroke_t	t	n/a
126.62	0.089	253240	keystroke_h	h	n/a
126.724	0.105	253448	keystroke_o	o	n/a
126.859	0.195	253718	keystroke_s	s	n/a
127.039	0.136	254078	keystroke_e	e	n/a
127.175	0.074	254350	keystroke_Key.space	Key.space	n/a
127.369	0.076	254738	keystroke_t	t	n/a
127.549	0.105	255098	keystroke_r	r	n/a
127.699	0.121	255398	keystroke_a	a	n/a
127.834	0.075	255668	keystroke_i	i	n/a
127.9985	0.075	255997	keystroke_l	l	n/a
128.1785	0.1505	256357	keystroke_e	e	n/a
128.284	0.105	256568	keystroke_r	r	n/a
128.449	0.09	256898	keystroke_Key.enter	Key.enter	n/a
128.5455	9.3415	257091	prompt	n/a	honolulu globe clinton jeffrey\n
129.379	0.075	258758	keystroke_h	h	n/a
129.4985	0.1055	258997	keystroke_o	o	n/a
129.679	0.091	259358	keystroke_n	n	n/a
129.814	0.076	259628	keystroke_o	o	n/a
130.0535	0.135	260107	keystroke_l	l	n/a
130.3085	0.075	260617	keystroke_u	u	n/a
130.5645	0.164	261129	keystroke_l	l	n/a
130.8635	0.09	261727	keystroke_u	u	n/a
131.1185	0.09	262237	keystroke_Key.space	Key.space	n/a
131.5395	0.075	263079	keystroke_g	g	n/a
131.6145	0.074	263229	keystroke_l	l	n/a
131.809	0.0605	263618	keystroke_o	o	n/a
131.974	0.0745	263948	keystroke_b	b	n/a
132.2435	0.076	264487	keystroke_e	e	n/a
132.3635	0.06	264727	keystroke_Key.space	Key.space	n/a
132.6335	0.136	265267	keystroke_c	c	n/a
132.7535	0.076	265507	keystroke_l	l	n/a
132.9035	0.0765	265807	keystroke_i	i	n/a
133.0535	0.091	266107	keystroke_n	n	n/a
133.2035	0.105	266407	keystroke_t	t	n/a
133.325	0.134	266650	keystroke_o	o	n/a
133.519	0.1195	267038	keystroke_Key.space	Key.space	n/a
134.6895	0.059	269379	keystroke_Key.backspace	Key.backspace	n/a
135.0485	0.045	270097	keystroke_n	n	n/a
135.244	0.075	270488	keystroke_Key.space	Key.space	n/a
135.439	0.075	270878	keystroke_j	j	n/a
135.574	0.105	271148	keystroke_e	e	n/a
135.859	0.075	271718	keystroke_f	f	n/a
135.994	0.09	271988	keystroke_f	f	n/a
137.074	0.105	274148	keystroke_r	r	n/a
137.254	0.12	274508	keystroke_e	e	n/a
137.524	0.105	275048	keystroke_y	y	n/a
137.779	0.105	275558	keystroke_Key.enter	Key.enter	n/a
137.893	6.353	275786	prompt	n/a	remains outlet sentences watched\n
139.024	0.12	278048	keystroke_r	r	n/a
139.129	0.165	278258	keystroke_e	e	n/a
139.309	0.06	278618	keystroke_m	m	n/a
139.444	0.135	278888	keystroke_a	a	n/a
139.504	0.06	279008	keystroke_i	i	n/a
139.699	0.03	279398	keystroke_n	n	n/a
139.774	0.105	279548	keystroke_s	s	n/a
139.849	0.12	279698	keystroke_Key.space	Key.space	n/a
140.014	0.165	280028	keystroke_o	o	n/a
140.134	0.105	280268	keystroke_u	u	n/a
140.2985	0.1055	280597	keystroke_t	t	n/a
140.434	0.09	280868	keystroke_l	l	n/a
140.599	0.135	281198	keystroke_e	e	n/a
140.854	0.105	281708	keystroke_t	t	n/a
140.944	0.09	281888	keystroke_Key.space	Key.space	n/a
141.094	0.135	282188	keystroke_s	s	n/a
141.289	0.105	282578	keystroke_e	e	n/a
141.395	0.074	282790	keystroke_n	n	n/a
141.559	0.1055	283118	keystroke_t	t	n/a
141.7995	0.09	283599	keystroke_e	e	n/a
141.9045	0.06	283809	keystroke_n	n	n/a
142.0845	0.09	284169	keystroke_c	c	n/a
142.2795	0.09	284559	keystroke_e	e	n/a
142.459	0.12	284918	keystroke_s	s	n/a
142.594	0.075	285188	keystroke_Key.space	Key.space	n/a
142.7895	0.12	285579	keystroke_w	w	n/a
143.014	0.15	286028	keystroke_a	a	n/a
143.299	0.075	286598	keystroke_t	t	n/a
143.539	0.12	287078	keystroke_c	c	n/a
143.644	0.09	287288	keystroke_h	h	n/a
143.794	0.075	287588	keystroke_e	e	n/a
143.989	0.06	287978	keystroke_d	d	n/a
144.154	0.09	288308	keystroke_Key.enter	Key.enter	n/a
144.2505	11.9815	288501	prompt	n/a	happens precisely thinking adding\n
145.024	0.075	290048	keystroke_h	h	n/a
145.159	0.12	290318	keystroke_a	a	n/a
145.309	0.045	290618	keystroke_p	p	n/a
145.4595	0.0595	290919	keystroke_p	p	n/a
145.549	0.09	291098	keystroke_e	e	n/a
145.7445	0.06	291489	keystroke_n	n	n/a
145.8495	0.12	291699	keystroke_s	s	n/a
145.984	0.075	291968	keystroke_Key.space	Key.space	n/a
146.119	0.09	292238	keystroke_p	p	n/a
146.284	0.09	292568	keystroke_r	r	n/a
146.449	0.1205	292898	keystroke_e	e	n/a
146.6895	0.135	293379	keystroke_c	c	n/a
146.8095	0.075	293619	keystroke_i	i	n/a
147.7845	0.12	295569	keystroke_e	e	n/a
148.069	0.135	296138	keystroke_l	l	n/a
148.429	0.09	296858	keystroke_y	y	n/a
148.564	0.12	297128	keystroke_Key.space	Key.space	n/a
149.3445	0.015	298689	keystroke_=	=	n/a
149.4495	0.06	298899	keystroke_=	=	n/a
149.8095	0.075	299619	keystroke_Key.backspace	Key.backspace	n/a
149.9895	0.075	299979	keystroke_Key.backspace	Key.backspace	n/a
150.1545	0.075	300309	keystroke_Key.backspace	Key.backspace	n/a
150.3345	0.075	300669	keystroke_Key.backspace	Key.backspace	n/a
150.5145	0.0895	301029	keystroke_Key.backspace	Key.backspace	n/a
150.694	0.09	301388	keystroke_Key.backspace	Key.backspace	n/a
150.9345	0.075	301869	keystroke_Key.backspace	Key.backspace	n/a
152.2395	0.06	304479	keystroke_i	i	n/a
152.3745	0.12	304749	keystroke_s	s	n/a
152.6445	0.09	305289	keystroke_e	e	n/a
152.7795	0.12	305559	keystroke_l	l	n/a
153.0945	0.09	306189	keystroke_y	y	n/a
153.2145	0.135	306429	keystroke_Key.space	Key.space	n/a
153.4395	0.12	306879	keystroke_t	t	n/a
153.4995	0.075	306999	keystroke_h	h	n/a
153.6495	0.135	307299	keystroke_i	i	n/a
153.7545	0.075	307509	keystroke_n	n	n/a
154.3995	0.09	308799	keystroke_k	k	n/a
154.564	0.0605	309128	keystroke_i	i	n/a
154.6995	0.09	309399	keystroke_n	n	n/a
154.8345	0.12	309669	keystroke_g	g	n/a
154.9395	0.09	309879	keystroke_Key.space	Key.space	n/a
155.1345	0.09	310269	keystroke_a	a	n/a
155.3295	0.061	310659	keystroke_d	d	n/a
155.4645	0.1195	310929	keystroke_d	d	n/a
155.599	0.075	311198	keystroke_i	i	n/a
155.7195	0.09	311439	keystroke_n	n	n/a
155.8695	0.09	311739	keystroke_g	g	n/a
156.124	0.1055	312248	keystroke_Key.enter	Key.enter	n/a
156.2375	6.9395	312475	prompt	n/a	will cheapest industries females\n
157.1295	0.09	314259	keystroke_w	w	n/a
157.2345	0.06	314469	keystroke_i	i	n/a
157.4155	0.059	314831	keystroke_l	l	n/a
157.549	0.12	315098	keystroke_l	l	n/a
157.654	0.1205	315308	keystroke_Key.space	Key.space	n/a
157.8345	0.135	315669	keystroke_c	c	n/a
157.9095	0.09	315819	keystroke_h	h	n/a
158.089	0.105	316178	keystroke_e	e	n/a
158.4345	0.09	316869	keystroke_a	a	n/a
158.599	0.09	317198	keystroke_p	p	n/a
158.764	0.075	317528	keystroke_e	e	n/a
158.929	0.15	317858	keystroke_s	s	n/a
159.199	0.105	318398	keystroke_t	t	n/a
159.289	0.09	318578	keystroke_Key.space	Key.space	n/a
159.439	0.0755	318878	keystroke_i	i	n/a
159.604	0.075	319208	keystroke_n	n	n/a
159.889	0.1205	319778	keystroke_d	d	n/a
160.0395	0.075	320079	keystroke_u	u	n/a
160.1745	0.12	320349	keystroke_s	s	n/a
160.4295	0.075	320859	keystroke_t	t	n/a
160.5795	0.105	321159	keystroke_r	r	n/a
160.6995	0.06	321399	keystroke_i	i	n/a
160.8045	0.075	321609	keystroke_e	e	n/a
161.0445	0.12	322089	keystroke_s	s	n/a
161.1795	0.075	322359	keystroke_Key.space	Key.space	n/a
161.9145	0.105	323829	keystroke_f	f	n/a
162.0495	0.12	324099	keystroke_e	e	n/a
162.1845	0.0895	324369	keystroke_m	m	n/a
162.3345	0.106	324669	keystroke_a	a	n/a
162.5745	0.105	325149	keystroke_l	l	n/a
162.7545	0.075	325509	keystroke_e	e	n/a
162.9345	0.12	325869	keystroke_s	s	n/a
163.0995	0.075	326199	keystroke_Key.enter	Key.enter	n/a
163.1835	7.6125	326367	prompt	n/a	bleeding fisheries finger pizza\n
164.1945	0.075	328389	keystroke_b	b	n/a
164.3145	0.09	328629	keystroke_l	l	n/a
164.5545	0.06	329109	keystroke_e	e	n/a
164.6895	0.06	329379	keystroke_e	e	n/a
164.8845	0.105	329769	keystroke_d	d	n/a
165.0045	0.045	330009	keystroke_i	i	n/a
165.155	0.045	330310	keystroke_n	n	n/a
165.23	0.0895	330460	keystroke_g	g	n/a
165.3345	0.09	330669	keystroke_Key.space	Key.space	n/a
165.9795	0.1055	331959	keystroke_f	f	n/a
166.13	0.075	332260	keystroke_i	i	n/a
166.3395	0.105	332679	keystroke_s	s	n/a
166.4895	0.06	332979	keystroke_h	h	n/a
166.8045	0.135	333609	keystroke_e	e	n/a
167.2705	0.074	334541	keystroke_r	r	n/a
167.3895	0.075	334779	keystroke_i	i	n/a
167.5995	0.105	335199	keystroke_e	e	n/a
167.8395	0.105	335679	keystroke_s	s	n/a
167.9745	0.075	335949	keystroke_Key.space	Key.space	n/a
168.5145	0.105	337029	keystroke_f	f	n/a
168.6045	0.075	337209	keystroke_i	i	n/a
168.799	0.075	337598	keystroke_n	n	n/a
169.1905	0.1185	338381	keystroke_g	g	n/a
169.354	0.1805	338708	keystroke_e	e	n/a
169.4605	0.119	338921	keystroke_r	r	n/a
169.5945	0.075	339189	keystroke_Key.space	Key.space	n/a
169.759	0.061	339518	keystroke_p	p	n/a
169.894	0.09	339788	keystroke_i	i	n/a
170.15	0.104	340300	keystroke_z	z	n/a
170.315	0.104	340630	keystroke_z	z	n/a
170.539	0.105	341078	keystroke_a	a	n/a
170.704	0.09	341408	keystroke_Key.enter	Key.enter	n/a
170.8005	6.762	341601	prompt	n/a	buried reporter push functionality\n
171.665	0.104	343330	keystroke_b	b	n/a
171.784	0.09	343568	keystroke_u	u	n/a
171.995	0.089	343990	keystroke_r	r	n/a
172.069	0.075	344138	keystroke_i	i	n/a
172.219	0.09	344438	keystroke_e	e	n/a
172.444	0.106	344888	keystroke_d	d	n/a
172.564	0.075	345128	keystroke_Key.space	Key.space	n/a
172.774	0.15	345548	keystroke_r	r	n/a
172.909	0.136	345818	keystroke_e	e	n/a
173.134	0.075	346268	keystroke_p	p	n/a
173.284	0.09	346568	keystroke_o	o	n/a
173.42	0.104	346840	keystroke_r	r	n/a
173.644	0.151	347288	keystroke_t	t	n/a
173.8245	0.2095	347649	keystroke_e	e	n/a
173.944	0.135	347888	keystroke_r	r	n/a
174.064	0.09	348128	keystroke_Key.space	Key.space	n/a
174.2745	0.0755	348549	keystroke_p	p	n/a
174.424	0.075	348848	keystroke_u	u	n/a
174.545	0.105	349090	keystroke_s	s	n/a
174.679	0.165	349358	keystroke_h	h	n/a
174.829	0.105	349658	keystroke_Key.space	Key.space	n/a
175.144	0.12	350288	keystroke_f	f	n/a
175.34	0.06	350680	keystroke_u	u	n/a
175.534	0.076	351068	keystroke_n	n	n/a
175.744	0.075	351488	keystroke_t	t	n/a
175.834	0.076	351668	keystroke_i	i	n/a
175.9855	0.075	351971	keystroke_o	o	n/a
176.1345	0.09	352269	keystroke_n	n	n/a
176.3295	0.1055	352659	keystroke_a	a	n/a
176.554	0.1665	353108	keystroke_l	l	n/a
176.869	0.09	353738	keystroke_i	i	n/a
177.1245	0.091	354249	keystroke_t	t	n/a
177.2295	0.06	354459	keystroke_y	y	n/a
177.4705	0.089	354941	keystroke_Key.enter	Key.enter	n/a
177.571	5.6015	355142	prompt	n/a	chan edwards syntax bingo\n
178.3105	0.119	356621	keystroke_c	c	n/a
178.4005	0.059	356801	keystroke_h	h	n/a
178.5355	0.105	357071	keystroke_a	a	n/a
178.6545	0.075	357309	keystroke_n	n	n/a
178.7895	0.06	357579	keystroke_Key.space	Key.space	n/a
178.9245	0.075	357849	keystroke_e	e	n/a
179.1195	0.121	358239	keystroke_d	d	n/a
179.3155	0.104	358631	keystroke_w	w	n/a
179.5095	0.166	359019	keystroke_a	a	n/a
179.6155	0.12	359231	keystroke_r	r	n/a
179.8405	0.105	359681	keystroke_d	d	n/a
179.9905	0.134	359981	keystroke_s	s	n/a
180.1545	0.09	360309	keystroke_Key.space	Key.space	n/a
180.3205	0.134	360641	keystroke_s	s	n/a
180.5005	0.059	361001	keystroke_y	y	n/a
180.7095	0.09	361419	keystroke_n	n	n/a
180.9045	0.105	361809	keystroke_t	t	n/a
181.0995	0.12	362199	keystroke_a	a	n/a
181.3705	0.134	362741	keystroke_x	x	n/a
181.5495	0.075	363099	keystroke_Key.space	Key.space	n/a
181.865	0.1045	363730	keystroke_b	b	n/a
182.0295	0.075	364059	keystroke_i	i	n/a
182.2105	0.089	364421	keystroke_n	n	n/a
182.5995	0.105	365199	keystroke_g	g	n/a
182.7355	0.075	365471	keystroke_o	o	n/a
183.079	0.091	366158	keystroke_Key.enter	Key.enter	n/a
183.177	13.6745	366354	prompt	n/a	antigua disclosure perth broad\n
184.7295	0.12	369459	keystroke_a	a	n/a
184.8795	0.075	369759	keystroke_n	n	n/a
185.074	0.136	370148	keystroke_t	t	n/a
185.195	0.0595	370390	keystroke_i	i	n/a
185.3745	0.091	370749	keystroke_g	g	n/a
185.4795	0.075	370959	keystroke_u	u	n/a
185.6295	0.136	371259	keystroke_a	a	n/a
185.7795	0.105	371559	keystroke_Key.space	Key.space	n/a
185.9905	0.119	371981	keystroke_d	d	n/a
186.0945	0.075	372189	keystroke_i	i	n/a
186.2605	0.089	372521	keystroke_s	s	n/a
186.4855	0.119	372971	keystroke_c	c	n/a
186.8455	0.089	373691	keystroke_o	o	n/a
187.0405	0.075	374081	keystroke_l	l	n/a
187.2495	0.061	374499	keystroke_u	u	n/a
187.3995	0.121	374799	keystroke_s	s	n/a
187.6695	0.075	375339	keystroke_u	u	n/a
187.9245	0.105	375849	keystroke_r	r	n/a
187.9855	0.18	375971	keystroke_e	e	n/a
189.004	0.075	378008	keystroke_Key.backspace	Key.backspace	n/a
189.1845	0.06	378369	keystroke_Key.backspace	Key.backspace	n/a
189.3355	0.059	378671	keystroke_Key.backspace	Key.backspace	n/a
189.4995	0.06	378999	keystroke_Key.backspace	Key.backspace	n/a
189.6795	0.075	379359	keystroke_Key.backspace	Key.backspace	n/a
191.0145	0.075	382029	keystroke_Key.backspace	Key.backspace	n/a
191.2245	0.045	382449	keystroke_Key.backspace	Key.backspace	n/a
191.5545	0.091	383109	keystroke_l	l	n/a
191.7655	0.075	383531	keystroke_o	o	n/a
191.9295	0.1495	383859	keystroke_s	s	n/a
192.065	0.0755	384130	keystroke_u	u	n/a
192.2455	0.135	384491	keystroke_r	r	n/a
192.3655	0.15	384731	keystroke_e	e	n/a
192.5295	0.09	385059	keystroke_Key.space	Key.space	n/a
192.8155	0.06	385631	keystroke_p	p	n/a
192.9345	0.211	385869	keystroke_e	e	n/a
193.0995	0.121	386199	keystroke_r	r	n/a
193.4295	0.091	386859	keystroke_c	c	n/a
194.1195	0.09	388239	keystroke_Key.backspace	Key.backspace	n/a
194.825	0.105	389650	keystroke_t	t	n/a
195.0945	0.06	390189	keystroke_h	h	n/a
195.2895	0.12	390579	keystroke_Key.space	Key.space	n/a
195.694	0.076	391388	keystroke_b	b	n/a
195.889	0.106	391778	keystroke_r	r	n/a
195.995	0.074	391990	keystroke_o	o	n/a
196.145	0.104	392290	keystroke_a	a	n/a
196.324	0.106	392648	keystroke_d	d	n/a
196.519	0.045	393038	keystroke_Key.space	Key.space	n/a
196.7595	0.09	393519	keystroke_Key.enter	Key.enter	n/a
196.856	7.7365	393712	prompt	n/a	newbie nose contacts aggregate\n
197.615	0.0755	395230	keystroke_n	n	n/a
197.9455	0.1785	395891	keystroke_e	e	n/a
198.065	0.165	396130	keystroke_w	w	n/a
198.4845	0.09	396969	keystroke_b	b	n/a
198.5905	0.074	397181	keystroke_i	i	n/a
198.7245	0.091	397449	keystroke_e	e	n/a
198.8595	0.075	397719	keystroke_Key.space	Key.space	n/a
199.1155	0.075	398231	keystroke_n	n	n/a
199.2355	0.089	398471	keystroke_o	o	n/a
199.4455	0.15	398891	keystroke_s	s	n/a
199.6695	0.121	399339	keystroke_e	e	n/a
199.8495	0.091	399699	keystroke_Key.space	Key.space	n/a
200.2545	0.061	400509	keystroke_e	e	n/a
200.7345	0.0755	401469	keystroke_Key.backspace	Key.backspace	n/a
200.945	0.1195	401890	keystroke_c	c	n/a
201.1095	0.075	402219	keystroke_o	o	n/a
201.29	0.075	402580	keystroke_n	n	n/a
201.53	0.105	403060	keystroke_t	t	n/a
201.74	0.15	403480	keystroke_a	a	n/a
201.965	0.1195	403930	keystroke_c	c	n/a
202.2195	0.075	404439	keystroke_t	t	n/a
202.4295	0.105	404859	keystroke_s	s	n/a
202.595	0.09	405190	keystroke_Key.space	Key.space	n/a
202.835	0.105	405670	keystroke_a	a	n/a
203.15	0.075	406300	keystroke_g	g	n/a
203.315	0.06	406630	keystroke_g	g	n/a
203.48	0.1355	406960	keystroke_r	r	n/a
203.6005	0.105	407201	keystroke_e	e	n/a
203.8555	0.09	407711	keystroke_g	g	n/a
203.9905	0.21	407981	keystroke_a	a	n/a
204.1705	0.15	408341	keystroke_t	t	n/a
204.3055	0.105	408611	keystroke_e	e	n/a
204.5005	0.09	409001	keystroke_Key.enter	Key.enter	n/a
204.598	6.849	409196	prompt	n/a	instant dealing positions theft\n
205.3105	0.075	410621	keystroke_i	i	n/a
205.4755	0.075	410951	keystroke_n	n	n/a
205.5955	0.12	411191	keystroke_s	s	n/a
205.8055	0.105	411611	keystroke_t	t	n/a
205.9705	0.135	411941	keystroke_a	a	n/a
206.1205	0.06	412241	keystroke_n	n	n/a
206.2855	0.09	412571	keystroke_t	t	n/a
206.4205	0.09	412841	keystroke_Key.space	Key.space	n/a
206.6005	0.075	413201	keystroke_d	d	n/a
206.7955	0.09	413591	keystroke_e	e	n/a
206.9455	0.105	413891	keystroke_a	a	n/a
207.2305	0.09	414461	keystroke_l	l	n/a
207.4105	0.06	414821	keystroke_i	i	n/a
207.5455	0.06	415091	keystroke_n	n	n/a
207.6505	0.105	415301	keystroke_g	g	n/a
207.8005	0.045	415601	keystroke_Key.space	Key.space	n/a
208.2205	0.06	416441	keystroke_p	p	n/a
208.3855	0.075	416771	keystroke_o	o	n/a
208.5205	0.105	417041	keystroke_s	s	n/a
208.6105	0.045	417221	keystroke_i	i	n/a
208.7755	0.105	417551	keystroke_t	t	n/a
208.8505	0.255	417701	keystroke_i	i	n/a
208.9555	0.195	417911	keystroke_o	o	n/a
209.0455	0.135	418091	keystroke_n	n	n/a
209.3155	0.135	418631	keystroke_s	s	n/a
209.4355	0.09	418871	keystroke_Key.space	Key.space	n/a
209.8255	0.105	419651	keystroke_t	t	n/a
209.9155	0.075	419831	keystroke_h	h	n/a
210.0955	0.1045	420191	keystroke_e	e	n/a
210.845	0.1205	421690	keystroke_f	f	n/a
211.0705	0.105	422141	keystroke_t	t	n/a
211.3105	0.135	422621	keystroke_Key.enter	Key.enter	n/a
211.454	6.9235	422908	prompt	n/a	save boating hispanic protected\n
212.6305	0.12	425261	keystroke_s	s	n/a
212.8255	0.21	425651	keystroke_a	a	n/a
213.0205	0.1795	426041	keystroke_v	v	n/a
213.1405	0.1345	426281	keystroke_e	e	n/a
213.4405	0.105	426881	keystroke_Key.space	Key.space	n/a
213.7105	0.12	427421	keystroke_b	b	n/a
213.8155	0.075	427631	keystroke_o	o	n/a
213.9205	0.135	427841	keystroke_a	a	n/a
214.2655	0.075	428531	keystroke_t	t	n/a
214.3555	0.06	428711	keystroke_i	i	n/a
214.5055	0.075	429011	keystroke_n	n	n/a
214.6105	0.106	429221	keystroke_g	g	n/a
214.7005	0.075	429401	keystroke_Key.space	Key.space	n/a
214.9255	0.09	429851	keystroke_h	h	n/a
215.1055	0.09	430211	keystroke_i	i	n/a
215.3755	0.105	430751	keystroke_s	s	n/a
215.5105	0.09	431021	keystroke_p	p	n/a
215.8115	0.104	431623	keystroke_a	a	n/a
215.9455	0.075	431891	keystroke_n	n	n/a
216.0955	0.06	432191	keystroke_i	i	n/a
216.2605	0.1345	432521	keystroke_c	c	n/a
216.41	0.075	432820	keystroke_Key.space	Key.space	n/a
216.605	0.0755	433210	keystroke_p	p	n/a
216.815	0.09	433630	keystroke_r	r	n/a
216.905	0.075	433810	keystroke_o	o	n/a
217.115	0.12	434230	keystroke_t	t	n/a
217.265	0.105	434530	keystroke_e	e	n/a
217.475	0.105	434950	keystroke_c	c	n/a
217.685	0.075	435370	keystroke_t	t	n/a
217.76	0.315	435520	keystroke_i	i	n/a
217.85	0.21	435700	keystroke_o	o	n/a
217.985	0.165	435970	keystroke_n	n	n/a
218.27	0.105	436540	keystroke_Key.enter	Key.enter	n/a
218.385	6.8475	436770	prompt	n/a	bargains flex antigua there'd\n
219.1105	0.105	438221	keystroke_b	b	n/a
219.2605	0.1345	438521	keystroke_a	a	n/a
219.485	0.075	438970	keystroke_r	r	n/a
219.695	0.075	439390	keystroke_g	g	n/a
220.49	0.135	440980	keystroke_a	a	n/a
220.61	0.06	441220	keystroke_i	i	n/a
220.79	0.06	441580	keystroke_n	n	n/a
220.925	0.12	441850	keystroke_s	s	n/a
221.06	0.075	442120	keystroke_Key.space	Key.space	n/a
221.18	0.1355	442360	keystroke_f	f	n/a
221.375	0.09	442750	keystroke_l	l	n/a
221.54	0.09	443080	keystroke_e	e	n/a
221.765	0.1205	443530	keystroke_x	x	n/a
221.9005	0.0895	443801	keystroke_Key.space	Key.space	n/a
222.065	0.1655	444130	keystroke_a	a	n/a
222.2005	0.06	444401	keystroke_n	n	n/a
222.3805	0.075	444761	keystroke_t	t	n/a
222.4705	0.075	444941	keystroke_i	i	n/a
222.6805	0.09	445361	keystroke_g	g	n/a
222.7855	0.075	445571	keystroke_u	u	n/a
222.9355	0.1345	445871	keystroke_a	a	n/a
223.085	0.105	446170	keystroke_Key.space	Key.space	n/a
223.3105	0.075	446621	keystroke_t	t	n/a
223.4005	0.0745	446801	keystroke_h	h	n/a
223.565	0.15	447130	keystroke_e	e	n/a
223.731	0.134	447462	keystroke_r	r	n/a
223.835	0.12	447670	keystroke_e	e	n/a
224	0.12	448000	keystroke_'	'	n/a
224.45	0.105	448900	keystroke_d	d	n/a
224.75	0.09	449500	keystroke_Key.space	Key.space	n/a
225.155	0.075	450310	keystroke_Key.enter	Key.enter	n/a
225.2375	7.798	450475	prompt	n/a	habitat cialis patients reverse\n
226.07	0.0905	452140	keystroke_h	h	n/a
226.205	0.105	452410	keystroke_a	a	n/a
226.4605	0.075	452921	keystroke_b	b	n/a
226.5655	0.075	453131	keystroke_i	i	n/a
226.8355	0.105	453671	keystroke_t	t	n/a
227.0005	0.21	454001	keystroke_a	a	n/a
227.2115	0.089	454423	keystroke_t	t	n/a
227.3605	0.06	454721	keystroke_Key.space	Key.space	n/a
227.8705	0.105	455741	keystroke_c	c	n/a
227.9905	0.075	455981	keystroke_i	i	n/a
228.186	0.074	456372	keystroke_a	a	n/a
228.4105	0.09	456821	keystroke_l	l	n/a
228.575	0.06	457150	keystroke_i	i	n/a
228.725	0.15	457450	keystroke_s	s	n/a
228.89	0.0455	457780	keystroke_Key.space	Key.space	n/a
229.8205	0.075	459641	keystroke_p	p	n/a
229.9255	0.12	459851	keystroke_a	a	n/a
230.165	0.105	460330	keystroke_t	t	n/a
230.255	0.075	460510	keystroke_i	i	n/a
230.39	0.12	460780	keystroke_e	e	n/a
230.511	0.104	461022	keystroke_n	n	n/a
230.75	0.09	461500	keystroke_t	t	n/a
230.93	0.12	461860	keystroke_s	s	n/a
231.545	0.09	463090	keystroke_Key.space	Key.space	n/a
231.77	0.15	463540	keystroke_r	r	n/a
231.905	0.135	463810	keystroke_e	e	n/a
232.145	0.09	464290	keystroke_v	v	n/a
232.2505	0.1955	464501	keystroke_e	e	n/a
232.386	0.12	464772	keystroke_r	r	n/a
232.5815	0.135	465163	keystroke_s	s	n/a
232.7315	0.1205	465463	keystroke_e	e	n/a
232.9425	0.0905	465885	keystroke_Key.enter	Key.enter	n/a
233.0405	6.445	466081	prompt	n/a	justin exactly pressed marathon\n
233.905	0.075	467810	keystroke_j	j	n/a
234.0855	0.06	468171	keystroke_u	u	n/a
234.191	0.135	468382	keystroke_s	s	n/a
234.386	0.1205	468772	keystroke_t	t	n/a
234.4765	0.1655	468953	keystroke_i	i	n/a
234.597	0.1805	469194	keystroke_n	n	n/a
234.7625	0.135	469525	keystroke_Key.space	Key.space	n/a
234.9275	0.1205	469855	keystroke_e	e	n/a
235.1535	0.09	470307	keystroke_x	x	n/a
235.3335	0.1355	470667	keystroke_a	a	n/a
235.559	0.1055	471118	keystroke_c	c	n/a
235.8295	0.0905	471659	keystroke_t	t	n/a
235.98	0.0905	471960	keystroke_l	l	n/a
236.221	0.12	472442	keystroke_y	y	n/a
236.311	0.12	472622	keystroke_Key.space	Key.space	n/a
236.461	0.0905	472922	keystroke_p	p	n/a
236.612	0.105	473224	keystroke_r	r	n/a
236.687	0.15	473374	keystroke_e	e	n/a
236.9275	0.075	473855	keystroke_s	s	n/a
237.063	0.09	474126	keystroke_s	s	n/a
237.2285	0.075	474457	keystroke_e	e	n/a
237.4085	0.1205	474817	keystroke_d	d	n/a
237.544	0.06	475088	keystroke_Key.space	Key.space	n/a
237.89	0.075	475780	keystroke_m	m	n/a
238.01	0.1205	476020	keystroke_a	a	n/a
238.251	0.1205	476502	keystroke_r	r	n/a
238.416	0.1505	476832	keystroke_a	a	n/a
238.702	0.0905	477404	keystroke_t	t	n/a
238.777	0.0905	477554	keystroke_h	h	n/a
238.8825	0.12	477765	keystroke_o	o	n/a
239.063	0.09	478126	keystroke_n	n	n/a
239.2135	0.105	478427	keystroke_Key.space	Key.space	n/a
239.4085	0.0755	478817	keystroke_Key.enter	Key.enter	n/a
239.491	9.803	478982	prompt	n/a	submit copyright neither super\n
240.1305	0.1055	480261	keystroke_s	s	n/a
240.296	0.075	480592	keystroke_u	u	n/a
240.4915	0.105	480983	keystroke_b	b	n/a
240.6265	0.1205	481253	keystroke_m	m	n/a
240.777	0.0605	481554	keystroke_i	i	n/a
240.9725	0.0905	481945	keystroke_t	t	n/a
241.078	0.06	482156	keystroke_Key.space	Key.space	n/a
241.3635	0.1205	482727	keystroke_o	o	n/a
241.589	0.0755	483178	keystroke_p	p	n/a
242.296	0.045	484592	keystroke_Key.backspace	Key.backspace	n/a
242.4765	0.075	484953	keystroke_Key.backspace	Key.backspace	n/a
242.762	0.1205	485524	keystroke_c	c	n/a
242.8975	0.105	485795	keystroke_o	o	n/a
243.153	0.1055	486306	keystroke_p	p	n/a
243.394	0.0595	486788	keystroke_y	y	n/a
244.1755	0.0905	488351	keystroke_r	r	n/a
244.267	0.074	488534	keystroke_i	i	n/a
244.386	0.0905	488772	keystroke_g	g	n/a
244.4915	0.06	488983	keystroke_h	h	n/a
244.5815	0.0905	489163	keystroke_t	t	n/a
244.732	0.0905	489464	keystroke_Key.space	Key.space	n/a
244.9575	0.075	489915	keystroke_n	n	n/a
245.153	0.1055	490306	keystroke_e	e	n/a
245.2735	0.075	490547	keystroke_i	i	n/a
245.499	0.09	490998	keystroke_t	t	n/a
245.574	0.0605	491148	keystroke_h	h	n/a
245.7545	0.1805	491509	keystroke_e	e	n/a
245.845	0.1505	491690	keystroke_r	r	n/a
246.01	0.0905	492020	keystroke_Key.space	Key.space	n/a
246.1755	0.1205	492351	keystroke_s	s	n/a
246.281	0.075	492562	keystroke_u	u	n/a
246.386	0.1055	492772	keystroke_p	p	n/a
246.5065	0.1805	493013	keystroke_e	e	n/a
246.642	0.105	493284	keystroke_r	r	n/a
246.762	0.1055	493524	keystroke_Key.space	Key.space	n/a
249.2915	0.001	498583	keystroke_Key.enter	Key.enter	n/a
249.298	9.1655	498596	prompt	n/a	looksmart keys hazards trans\n
250.8375	0.075	501675	keystroke_l	l	n/a
251.034	0.044	502068	keystroke_o	o	n/a
251.138	0.0755	502276	keystroke_o	o	n/a
251.3035	0.06	502607	keystroke_k	k	n/a
251.454	0.1505	502908	keystroke_s	s	n/a
252.1005	0.105	504201	keystroke_m	m	n/a
252.296	0.1355	504592	keystroke_a	a	n/a
252.5065	0.1055	505013	keystroke_r	r	n/a
252.732	0.075	505464	keystroke_t	t	n/a
252.8375	0.09	505675	keystroke_Key.space	Key.space	n/a
253.033	0.12	506066	keystroke_k	k	n/a
253.2735	0.105	506547	keystroke_e	e	n/a
253.514	0.06	507028	keystroke_y	y	n/a
253.6645	0.15	507329	keystroke_s	s	n/a
253.7995	0.0755	507599	keystroke_Key.space	Key.space	n/a
254.4315	0.075	508863	keystroke_h	h	n/a
254.5215	0.09	509043	keystroke_a	a	n/a
255.078	0.075	510156	keystroke_a	a	n/a
255.7695	0.075	511539	keystroke_Key.backspace	Key.backspace	n/a
256.0855	0.12	512171	keystroke_z	z	n/a
256.371	0.1355	512742	keystroke_a	a	n/a
256.6115	0.0905	513223	keystroke_r	r	n/a
256.837	0.1205	513674	keystroke_d	d	n/a
257.0175	0.1355	514035	keystroke_s	s	n/a
257.123	0.105	514246	keystroke_Key.space	Key.space	n/a
257.3635	0.1205	514727	keystroke_t	t	n/a
257.7255	0.119	515451	keystroke_r	r	n/a
257.905	0.15	515810	keystroke_a	a	n/a
258.04	0.0615	516080	keystroke_n	n	n/a
258.1755	0.09	516351	keystroke_s	s	n/a
258.371	0.0905	516742	keystroke_Key.enter	Key.enter	n/a
258.4705	7.8725	516941	prompt	n/a	disturbed institutions sent whereas\n
259.138	0.105	518276	keystroke_d	d	n/a
259.3635	0.06	518727	keystroke_i	i	n/a
259.514	0.135	519028	keystroke_s	s	n/a
259.7845	0.075	519569	keystroke_t	t	n/a
259.8745	0.0455	519749	keystroke_u	u	n/a
259.995	0.105	519990	keystroke_r	r	n/a
260.491	0.0905	520982	keystroke_b	b	n/a
260.6865	0.06	521373	keystroke_e	e	n/a
260.867	0.1055	521734	keystroke_d	d	n/a
260.9875	0.105	521975	keystroke_Key.space	Key.space	n/a
261.198	0.075	522396	keystroke_i	i	n/a
261.3785	0.075	522757	keystroke_n	n	n/a
261.4845	0.1495	522969	keystroke_s	s	n/a
261.8155	0.104	523631	keystroke_t	t	n/a
262.2955	0.09	524591	keystroke_i	i	n/a
262.6715	0.091	525343	keystroke_t	t	n/a
262.8065	0.0755	525613	keystroke_u	u	n/a
263.1675	0.0755	526335	keystroke_t	t	n/a
263.2285	0.285	526457	keystroke_i	i	n/a
263.333	0.2115	526666	keystroke_o	o	n/a
263.4385	0.15	526877	keystroke_n	n	n/a
263.664	0.121	527328	keystroke_s	s	n/a
263.769	0.09	527538	keystroke_Key.space	Key.space	n/a
264.0405	0.135	528081	keystroke_s	s	n/a
264.2355	0.1355	528471	keystroke_e	e	n/a
264.341	0.1055	528682	keystroke_n	n	n/a
264.5065	0.12	529013	keystroke_t	t	n/a
264.6115	0.0905	529223	keystroke_Key.space	Key.space	n/a
264.927	0.151	529854	keystroke_w	w	n/a
265.258	0.015	530516	keystroke_h	h	n/a
265.318	0.166	530636	keystroke_e	e	n/a
265.4385	0.1505	530877	keystroke_r	r	n/a
265.634	0.015	531268	keystroke_e	e	n/a
265.7995	0.105	531599	keystroke_a	a	n/a
265.9945	0.0755	531989	keystroke_s	s	n/a
266.2655	0.075	532531	keystroke_Key.enter	Key.enter	n/a
266.348	5.6925	532696	prompt	n/a	highest kill cdna tender\n
267.1225	0.06	534245	keystroke_h	h	n/a
267.273	0.075	534546	keystroke_i	i	n/a
267.393	0.1055	534786	keystroke_g	g	n/a
267.4835	0.075	534967	keystroke_h	h	n/a
267.9945	0.1055	535989	keystroke_e	e	n/a
268.175	0.1205	536350	keystroke_s	s	n/a
268.3705	0.105	536741	keystroke_t	t	n/a
268.4905	0.0755	536981	keystroke_Key.space	Key.space	n/a
268.626	0.0905	537252	keystroke_k	k	n/a
268.7915	0.075	537583	keystroke_i	i	n/a
268.9715	0.0605	537943	keystroke_l	l	n/a
269.1225	0.075	538245	keystroke_l	l	n/a
269.2125	0.12	538425	keystroke_Key.space	Key.space	n/a
269.573	0.1055	539146	keystroke_c	c	n/a
269.844	0.09	539688	keystroke_d	d	n/a
270.0845	0.075	540169	keystroke_n	n	n/a
270.265	0.105	540530	keystroke_a	a	n/a
270.37	0.1055	540740	keystroke_Key.space	Key.space	n/a
270.671	0.075	541342	keystroke_t	t	n/a
271.197	0.0755	542394	keystroke_e	e	n/a
271.2875	0.075	542575	keystroke_n	n	n/a
271.4525	0.105	542905	keystroke_d	d	n/a
271.633	0.1805	543266	keystroke_e	e	n/a
271.7685	0.135	543537	keystroke_r	r	n/a
271.9335	0.1055	543867	keystroke_Key.enter	Key.enter	n/a
272.0505	8.4235	544101	prompt	n/a	committees it's finger exclusively\n
272.7005	0.1655	545401	keystroke_c	c	n/a
272.851	0.045	545702	keystroke_o	o	n/a
273.031	0.06	546062	keystroke_m	m	n/a
273.1515	0.09	546303	keystroke_m	m	n/a
273.317	0.09	546634	keystroke_i	i	n/a
273.5875	0.06	547175	keystroke_t	t	n/a
273.693	0.105	547386	keystroke_t	t	n/a
274.159	0.195	548318	keystroke_e	e	n/a
275.181	0.0905	550362	keystroke_e	e	n/a
275.4215	0.12	550843	keystroke_s	s	n/a
275.5865	0.106	551173	keystroke_Key.space	Key.space	n/a
275.7975	0.09	551595	keystroke_i	i	n/a
275.9775	0.1055	551955	keystroke_t	t	n/a
276.2035	0.21	552407	keystroke_'	'	n/a
276.474	0.105	552948	keystroke_s	s	n/a
276.624	0.0905	553248	keystroke_Key.space	Key.space	n/a
276.8795	0.0905	553759	keystroke_f	f	n/a
276.925	0.06	553850	keystroke_i	i	n/a
277.09	0.0605	554180	keystroke_n	n	n/a
277.2255	0.1055	554451	keystroke_g	g	n/a
277.346	0.225	554692	keystroke_e	e	n/a
277.481	0.135	554962	keystroke_r	r	n/a
277.601	0.0905	555202	keystroke_Key.space	Key.space	n/a
277.7665	0.105	555533	keystroke_e	e	n/a
278.022	0.1355	556044	keystroke_x	x	n/a
278.3985	0.1055	556797	keystroke_c	c	n/a
278.518	0.0905	557036	keystroke_l	l	n/a
278.7135	0.03	557427	keystroke_u	u	n/a
278.8185	0.1205	557637	keystroke_s	s	n/a
278.924	0.06	557848	keystroke_i	i	n/a
279.5105	0.0895	559021	keystroke_v	v	n/a
279.6755	0.105	559351	keystroke_e	e	n/a
279.7955	0.0905	559591	keystroke_l	l	n/a
280.066	0.1055	560132	keystroke_y	y	n/a
280.382	0.09	560764	keystroke_Key.enter	Key.enter	n/a
280.479	5.9075	560958	prompt	n/a	principle songs wyoming tiger\n
281.1485	0.075	562297	keystroke_p	p	n/a
281.284	0.12	562568	keystroke_r	r	n/a
281.374	0.075	562748	keystroke_i	i	n/a
281.599	0.1065	563198	keystroke_c	c	n/a
281.7195	0.06	563439	keystroke_i	i	n/a
281.93	0.075	563860	keystroke_p	p	n/a
282.1255	0.09	564251	keystroke_l	l	n/a
282.2605	0.121	564521	keystroke_e	e	n/a
282.3955	0.06	564791	keystroke_Key.space	Key.space	n/a
282.6055	0.0905	565211	keystroke_s	s	n/a
282.726	0.06	565452	keystroke_o	o	n/a
282.891	0.075	565782	keystroke_n	n	n/a
283.0415	0.09	566083	keystroke_g	g	n/a
283.191	0.1355	566382	keystroke_s	s	n/a
283.3415	0.075	566683	keystroke_Key.space	Key.space	n/a
283.5665	0.105	567133	keystroke_w	w	n/a
283.777	0.0755	567554	keystroke_y	y	n/a
283.9715	0.15	567943	keystroke_o	o	n/a
284.1525	0.103	568305	keystroke_m	m	n/a
284.3315	0.059	568663	keystroke_i	i	n/a
284.466	0.075	568932	keystroke_n	n	n/a
284.586	0.105	569172	keystroke_g	g	n/a
284.721	0.059	569442	keystroke_Key.space	Key.space	n/a
285.4855	0.075	570971	keystroke_t	t	n/a
285.5765	0.075	571153	keystroke_i	i	n/a
285.8	0.12	571600	keystroke_g	g	n/a
285.951	0.1945	571902	keystroke_e	e	n/a
286.0405	0.165	572081	keystroke_r	r	n/a
286.28	0.105	572560	keystroke_Key.enter	Key.enter	n/a
286.392	9.4415	572784	prompt	n/a	consists november photography suspect\n
287.225	0.1195	574450	keystroke_c	c	n/a
287.2995	0.076	574599	keystroke_o	o	n/a
287.4645	0.075	574929	keystroke_n	n	n/a
287.6295	0.0905	575259	keystroke_s	s	n/a
287.735	0.059	575470	keystroke_i	i	n/a
287.839	0.1205	575678	keystroke_s	s	n/a
288.0495	0.09	576099	keystroke_t	t	n/a
288.2595	0.15	576519	keystroke_s	s	n/a
288.4395	0.09	576879	keystroke_Key.space	Key.space	n/a
288.6945	0.0745	577389	keystroke_n	n	n/a
288.859	0.09	577718	keystroke_o	o	n/a
289.069	0.1355	578138	keystroke_v	v	n/a
289.339	0.091	578678	keystroke_e	e	n/a
289.489	0.0755	578978	keystroke_m	m	n/a
289.8185	0.1055	579637	keystroke_b	b	n/a
289.939	0.285	579878	keystroke_e	e	n/a
290.134	0.135	580268	keystroke_r	r	n/a
290.254	0.1195	580508	keystroke_Key.space	Key.space	n/a
290.3895	0.089	580779	keystroke_p	p	n/a
290.6735	0.0305	581347	keystroke_h	h	n/a
290.764	0.089	581528	keystroke_o	o	n/a
291.004	0.089	582008	keystroke_t	t	n/a
291.078	0.0905	582156	keystroke_o	o	n/a
291.363	0.075	582726	keystroke_g	g	n/a
291.543	0.1065	583086	keystroke_r	r	n/a
292.789	0.1045	585578	keystroke_a	a	n/a
292.9375	0.075	585875	keystroke_p	p	n/a
293.5085	0.134	587017	keystroke_h	h	n/a
293.8225	0.089	587645	keystroke_y	y	n/a
294.0465	0.1055	588093	keystroke_Key.space	Key.space	n/a
294.376	0.0905	588752	keystroke_s	s	n/a
294.5115	0.06	589023	keystroke_u	u	n/a
294.5865	0.165	589173	keystroke_s	s	n/a
294.7665	0.091	589533	keystroke_p	p	n/a
294.9175	0.089	589835	keystroke_e	e	n/a
295.1265	0.135	590253	keystroke_c	c	n/a
295.3975	0.089	590795	keystroke_t	t	n/a
295.5015	0.09	591003	keystroke_Key.space	Key.space	n/a
295.7565	0.075	591513	keystroke_Key.enter	Key.enter	n/a
295.839	6.2475	591678	prompt	n/a	lock motorola cialis halifax\n
296.6725	0.075	593345	keystroke_l	l	n/a
296.8665	0.0735	593733	keystroke_o	o	n/a
297.0155	0.136	594031	keystroke_c	c	n/a
297.1655	0.165	594331	keystroke_k	k	n/a
297.3005	0.1195	594601	keystroke_Key.space	Key.space	n/a
297.54	0.1365	595080	keystroke_m	m	n/a
297.63	0.1055	595260	keystroke_o	o	n/a
297.8265	0.1035	595653	keystroke_t	t	n/a
297.9155	0.0745	595831	keystroke_o	o	n/a
298.425	0.0895	596850	keystroke_r	r	n/a
298.5295	0.1055	597059	keystroke_o	o	n/a
298.801	0.1195	597602	keystroke_l	l	n/a
298.9795	0.136	597959	keystroke_a	a	n/a
299.1295	0.075	598259	keystroke_Key.space	Key.space	n/a
299.489	0.1205	598978	keystroke_c	c	n/a
299.5955	0.059	599191	keystroke_i	i	n/a
299.7155	0.105	599431	keystroke_a	a	n/a
299.8795	0.091	599759	keystroke_l	l	n/a
300.0005	0.075	600001	keystroke_i	i	n/a
300.1645	0.12	600329	keystroke_s	s	n/a
300.3145	0.06	600629	keystroke_Key.space	Key.space	n/a
300.524	0.076	601048	keystroke_h	h	n/a
300.659	0.1365	601318	keystroke_a	a	n/a
300.7795	0.121	601559	keystroke_l	l	n/a
300.8845	0.09	601769	keystroke_i	i	n/a
301.0945	0.135	602189	keystroke_f	f	n/a
301.41	0.09	602820	keystroke_a	a	n/a
301.7395	0.134	603479	keystroke_x	x	n/a
302.0085	0.075	604017	keystroke_Key.enter	Key.enter	n/a
302.0925	5.9315	604185	prompt	n/a	each inches discounted scripting\n
302.9095	0.105	605819	keystroke_e	e	n/a
303.059	0.1355	606118	keystroke_a	a	n/a
303.2995	0.12	606599	keystroke_c	c	n/a
303.4205	0.119	606841	keystroke_h	h	n/a
303.5085	0.1495	607017	keystroke_Key.space	Key.space	n/a
303.659	0.15	607318	keystroke_i	i	n/a
303.779	0.119	607558	keystroke_n	n	n/a
303.944	0.1495	607888	keystroke_c	c	n/a
304.0785	0.075	608157	keystroke_h	h	n/a
304.1985	0.104	608397	keystroke_e	e	n/a
304.364	0.15	608728	keystroke_s	s	n/a
304.499	0.0735	608998	keystroke_Key.space	Key.space	n/a
304.6635	0.135	609327	keystroke_d	d	n/a
304.8135	0.075	609627	keystroke_i	i	n/a
304.9635	0.0895	609927	keystroke_s	s	n/a
305.1725	0.121	610345	keystroke_c	c	n/a
305.2775	0.151	610555	keystroke_o	o	n/a
305.3975	0.061	610795	keystroke_u	u	n/a
305.5775	0.0615	611155	keystroke_n	n	n/a
305.7275	0.106	611455	keystroke_t	t	n/a
305.9225	0.091	611845	keystroke_e	e	n/a
306.1335	0.0895	612267	keystroke_d	d	n/a
306.252	0.105	612504	keystroke_Key.space	Key.space	n/a
306.463	0.12	612926	keystroke_s	s	n/a
306.6865	0.1365	613373	keystroke_c	c	n/a
306.913	0.119	613826	keystroke_r	r	n/a
306.988	0.075	613976	keystroke_i	i	n/a
307.1675	0.0595	614335	keystroke_p	p	n/a
307.347	0.09	614694	keystroke_t	t	n/a
307.452	0.045	614904	keystroke_i	i	n/a
307.572	0.0755	615144	keystroke_n	n	n/a
307.6915	0.0755	615383	keystroke_g	g	n/a
307.797	0.045	615594	keystroke_Key.space	Key.space	n/a
307.947	0.075	615894	keystroke_Key.enter	Key.enter	n/a
308.0285	6.3835	616057	prompt	n/a	literature springer economies nuts\n
308.712	0.1045	617424	keystroke_l	l	n/a
308.8915	0.075	617783	keystroke_i	i	n/a
309.102	0.105	618204	keystroke_t	t	n/a
309.222	0.1945	618444	keystroke_e	e	n/a
309.3415	0.12	618683	keystroke_r	r	n/a
309.5365	0.12	619073	keystroke_a	a	n/a
309.7165	0.09	619433	keystroke_t	t	n/a
309.7915	0.075	619583	keystroke_u	u	n/a
309.9265	0.12	619853	keystroke_r	r	n/a
310.0165	0.15	620033	keystroke_e	e	n/a
310.1815	0.0895	620363	keystroke_Key.space	Key.space	n/a
310.316	0.12	620632	keystroke_s	s	n/a
310.376	0.075	620752	keystroke_p	p	n/a
310.586	0.105	621172	keystroke_r	r	n/a
310.676	0.06	621352	keystroke_i	i	n/a
310.826	0.075	621652	keystroke_n	n	n/a
310.946	0.15	621892	keystroke_g	g	n/a
311.081	0.225	622162	keystroke_e	e	n/a
311.231	0.1195	622462	keystroke_r	r	n/a
311.3355	0.09	622671	keystroke_Key.space	Key.space	n/a
311.651	0.09	623302	keystroke_e	e	n/a
311.905	0.09	623810	keystroke_c	c	n/a
312.0255	0.075	624051	keystroke_o	o	n/a
312.2955	0.0745	624591	keystroke_n	n	n/a
312.46	0.06	624920	keystroke_o	o	n/a
312.625	0.075	625250	keystroke_m	m	n/a
312.775	0.06	625550	keystroke_i	i	n/a
312.895	0.105	625790	keystroke_c	c	n/a
313.075	0.12	626150	keystroke_s	s	n/a
313.225	0.075	626450	keystroke_Key.space	Key.space	n/a
313.4945	0.0905	626989	keystroke_n	n	n/a
313.69	0.06	627380	keystroke_u	u	n/a
313.8395	0.105	627679	keystroke_t	t	n/a
314.005	0.195	628010	keystroke_s	s	n/a
314.125	0.09	628250	keystroke_Key.space	Key.space	n/a
314.335	0.0745	628670	keystroke_Key.enter	Key.enter	n/a
314.4155	5.9485	628831	prompt	n/a	susan coating cells freight\n
315.039	0.09	630078	keystroke_s	s	n/a
315.174	0.075	630348	keystroke_u	u	n/a
315.294	0.12	630588	keystroke_s	s	n/a
315.504	0.15	631008	keystroke_a	a	n/a
315.669	0.105	631338	keystroke_n	n	n/a
315.789	0.09	631578	keystroke_Key.space	Key.space	n/a
316.0435	0.12	632087	keystroke_c	c	n/a
316.1335	0.075	632267	keystroke_o	o	n/a
316.2535	0.1205	632507	keystroke_a	a	n/a
316.5235	0.09	633047	keystroke_t	t	n/a
316.5985	0.105	633197	keystroke_i	i	n/a
316.7185	0.09	633437	keystroke_n	n	n/a
316.8385	0.105	633677	keystroke_g	g	n/a
316.9585	0.045	633917	keystroke_Key.space	Key.space	n/a
317.0935	0.09	634187	keystroke_c	c	n/a
317.2885	0.09	634577	keystroke_e	e	n/a
317.4095	0.0595	634819	keystroke_l	l	n/a
317.543	0.075	635086	keystroke_l	l	n/a
317.648	0.135	635296	keystroke_s	s	n/a
317.768	0.06	635536	keystroke_Key.space	Key.space	n/a
317.9625	0.12	635925	keystroke_f	f	n/a
318.443	0.1045	636886	keystroke_r	r	n/a
319.402	0.1195	638804	keystroke_e	e	n/a
319.5365	0.075	639073	keystroke_i	i	n/a
319.7765	0.075	639553	keystroke_g	g	n/a
319.8365	0.075	639673	keystroke_h	h	n/a
320.002	0.09	640004	keystroke_t	t	n/a
320.287	0.075	640574	keystroke_Key.enter	Key.enter	n/a
320.369	10.9545	640738	prompt	n/a	reducing idle certain inches\n
321.0965	0.09	642193	keystroke_d	d	n/a
321.531	0.106	643062	keystroke_=	=	n/a
322.461	0.0595	644922	keystroke_Key.backspace	Key.backspace	n/a
322.5955	0.075	645191	keystroke_Key.backspace	Key.backspace	n/a
322.7755	0.135	645551	keystroke_r	r	n/a
322.8805	0.1195	645761	keystroke_e	e	n/a
323.106	0.1195	646212	keystroke_d	d	n/a
323.21	0.0755	646420	keystroke_u	u	n/a
323.3615	0.1185	646723	keystroke_c	c	n/a
323.63	0.09	647260	keystroke_t	t	n/a
323.69	0.15	647380	keystroke_i	i	n/a
323.795	0.12	647590	keystroke_n	n	n/a
323.96	0.075	647920	keystroke_g	g	n/a
324.065	0.06	648130	keystroke_Key.space	Key.space	n/a
324.71	0.03	649420	keystroke_=	=	n/a
325.0095	0.06	650019	keystroke_Key.backspace	Key.backspace	n/a
325.1445	0.075	650289	keystroke_Key.backspace	Key.backspace	n/a
325.2945	0.06	650589	keystroke_Key.backspace	Key.backspace	n/a
325.4295	0.06	650859	keystroke_Key.backspace	Key.backspace	n/a
325.579	0.0455	651158	keystroke_Key.backspace	Key.backspace	n/a
325.684	0.0605	651368	keystroke_Key.backspace	Key.backspace	n/a
326.435	0.059	652870	keystroke_i	i	n/a
326.5835	0.0905	653167	keystroke_n	n	n/a
326.734	0.105	653468	keystroke_g	g	n/a
326.869	0.075	653738	keystroke_Key.space	Key.space	n/a
327.2135	0.075	654427	keystroke_i	i	n/a
327.394	0.0895	654788	keystroke_d	d	n/a
327.5135	0.075	655027	keystroke_l	l	n/a
327.6635	0.12	655327	keystroke_e	e	n/a
327.8135	0.0605	655627	keystroke_Key.space	Key.space	n/a
328.2785	0.09	656557	keystroke_c	c	n/a
328.4735	0.1945	656947	keystroke_e	e	n/a
328.6075	0.1205	657215	keystroke_r	r	n/a
328.818	0.075	657636	keystroke_t	t	n/a
328.998	0.1195	657996	keystroke_a	a	n/a
329.0725	0.18	658145	keystroke_i	i	n/a
329.2075	0.135	658415	keystroke_n	n	n/a
329.3125	0.15	658625	keystroke_Key.space	Key.space	n/a
329.4325	0.1345	658865	keystroke_i	i	n/a
329.552	0.075	659104	keystroke_n	n	n/a
329.702	0.105	659404	keystroke_c	c	n/a
330.542	0.0595	661084	keystroke_h	h	n/a
330.7215	0.09	661443	keystroke_e	e	n/a
330.9165	0.1195	661833	keystroke_s	s	n/a
331.051	0.0455	662102	keystroke_Key.space	Key.space	n/a
331.246	0.0755	662492	keystroke_Key.enter	Key.enter	n/a
331.328	5.364	662656	prompt	n/a	acts observe sierra ghana\n
331.9365	0.105	663873	keystroke_a	a	n/a
332.146	0.12	664292	keystroke_c	c	n/a
332.3715	0.1045	664743	keystroke_t	t	n/a
332.5515	0.1195	665103	keystroke_s	s	n/a
332.701	0.09	665402	keystroke_Key.space	Key.space	n/a
332.881	0.0765	665762	keystroke_o	o	n/a
333.1065	0.089	666213	keystroke_b	b	n/a
333.3305	0.135	666661	keystroke_s	s	n/a
333.5105	0.225	667021	keystroke_e	e	n/a
333.6755	0.12	667351	keystroke_r	r	n/a
333.9305	0.12	667861	keystroke_v	v	n/a
334.0655	0.1645	668131	keystroke_e	e	n/a
334.26	0.09	668520	keystroke_Key.space	Key.space	n/a
334.425	0.12	668850	keystroke_s	s	n/a
334.575	0.076	669150	keystroke_i	i	n/a
334.74	0.135	669480	keystroke_e	e	n/a
334.995	0.075	669990	keystroke_r	r	n/a
335.13	0.09	670260	keystroke_r	r	n/a
335.34	0.105	670680	keystroke_a	a	n/a
335.46	0.06	670920	keystroke_Key.space	Key.space	n/a
335.835	0.09	671670	keystroke_g	g	n/a
336.03	0.075	672060	keystroke_h	h	n/a
336.21	0.1045	672420	keystroke_a	a	n/a
336.2995	0.09	672599	keystroke_n	n	n/a
336.4495	0.105	672899	keystroke_a	a	n/a
336.6145	0.075	673229	keystroke_Key.enter	Key.enter	n/a
336.6955	6.8035	673391	prompt	n/a	planets rand genuine website\n
337.529	0.075	675058	keystroke_p	p	n/a
337.694	0.1495	675388	keystroke_l	l	n/a
337.8745	0.135	675749	keystroke_a	a	n/a
337.9935	0.09	675987	keystroke_n	n	n/a
338.429	0.134	676858	keystroke_e	e	n/a
338.623	0.09	677246	keystroke_t	t	n/a
338.803	0.135	677606	keystroke_s	s	n/a
338.953	0.09	677906	keystroke_Key.space	Key.space	n/a
339.163	0.09	678326	keystroke_r	r	n/a
339.329	0.104	678658	keystroke_a	a	n/a
339.448	0.06	678896	keystroke_n	n	n/a
339.568	0.12	679136	keystroke_d	d	n/a
339.718	0.06	679436	keystroke_Key.space	Key.space	n/a
340.0625	0.091	680125	keystroke_g	g	n/a
340.1675	0.136	680335	keystroke_e	e	n/a
340.3325	0.09	680665	keystroke_n	n	n/a
340.5875	0.075	681175	keystroke_u	u	n/a
340.7535	0.0885	681507	keystroke_i	i	n/a
340.977	0.075	681954	keystroke_n	n	n/a
341.142	0.12	682284	keystroke_e	e	n/a
341.337	0.075	682674	keystroke_Key.space	Key.space	n/a
341.682	0.165	683364	keystroke_w	w	n/a
341.832	0.12	683664	keystroke_e	e	n/a
342.147	0.09	684294	keystroke_b	b	n/a
342.777	0.1045	685554	keystroke_s	s	n/a
342.8665	0.0755	685733	keystroke_i	i	n/a
343.0465	0.135	686093	keystroke_t	t	n/a
343.167	0.15	686334	keystroke_e	e	n/a
343.4065	0.09	686813	keystroke_Key.enter	Key.enter	n/a
343.5045	5.811	687009	prompt	n/a	garcia clerk hanging negative\n
344.3805	0.09	688761	keystroke_g	g	n/a
344.5155	0.165	689031	keystroke_a	a	n/a
344.6955	0.075	689391	keystroke_r	r	n/a
344.9505	0.105	689901	keystroke_c	c	n/a
345.0405	0.075	690081	keystroke_i	i	n/a
345.1605	0.15	690321	keystroke_a	a	n/a
345.2955	0.09	690591	keystroke_Key.space	Key.space	n/a
345.8655	0.105	691731	keystroke_c	c	n/a
345.9715	0.074	691943	keystroke_l	l	n/a
346.1055	0.18	692211	keystroke_e	e	n/a
346.2405	0.1495	692481	keystroke_r	r	n/a
346.405	0.18	692810	keystroke_k	k	n/a
346.51	0.12	693020	keystroke_Key.space	Key.space	n/a
346.75	0.06	693500	keystroke_h	h	n/a
346.8545	0.135	693709	keystroke_a	a	n/a
346.9595	0.09	693919	keystroke_n	n	n/a
347.1695	0.075	694339	keystroke_g	g	n/a
347.2745	0.06	694549	keystroke_i	i	n/a
347.4245	0.075	694849	keystroke_n	n	n/a
347.5445	0.105	695089	keystroke_g	g	n/a
347.6495	0.075	695299	keystroke_Key.space	Key.space	n/a
347.7995	0.09	695599	keystroke_n	n	n/a
347.9045	0.1045	695809	keystroke_e	e	n/a
348.219	0.075	696438	keystroke_g	g	n/a
348.399	0.135	696798	keystroke_a	a	n/a
348.684	0.06	697368	keystroke_t	t	n/a
348.759	0.06	697518	keystroke_i	i	n/a
348.894	0.1945	697788	keystroke_v	v	n/a
349.0285	0.165	698057	keystroke_e	e	n/a
349.2385	0.075	698477	keystroke_Key.enter	Key.enter	n/a
349.3235	7.084	698647	prompt	n/a	translator streets carry ebay\n
350.0785	0.075	700157	keystroke_t	t	n/a
350.2585	0.12	700517	keystroke_r	r	n/a
350.4085	0.1495	700817	keystroke_a	a	n/a
350.543	0.06	701086	keystroke_n	n	n/a
350.753	0.135	701506	keystroke_s	s	n/a
351.0525	0.09	702105	keystroke_l	l	n/a
351.2325	0.12	702465	keystroke_a	a	n/a
351.8185	0.074	703637	keystroke_t	t	n/a
351.8935	0.074	703787	keystroke_o	o	n/a
352.0125	0.105	704025	keystroke_r	r	n/a
352.1325	0.09	704265	keystroke_Key.space	Key.space	n/a
352.3875	0.1045	704775	keystroke_s	s	n/a
352.627	0.075	705254	keystroke_t	t	n/a
352.837	0.06	705674	keystroke_r	r	n/a
353.392	0.075	706784	keystroke_e	e	n/a
353.588	0.089	707176	keystroke_e	e	n/a
353.917	0.0895	707834	keystroke_t	t	n/a
354.1265	0.105	708253	keystroke_s	s	n/a
354.2765	0.09	708553	keystroke_Key.space	Key.space	n/a
354.4865	0.12	708973	keystroke_c	c	n/a
354.6215	0.165	709243	keystroke_a	a	n/a
354.9365	0.075	709873	keystroke_r	r	n/a
355.071	0.105	710142	keystroke_r	r	n/a
355.221	0.12	710442	keystroke_y	y	n/a
355.311	0.105	710622	keystroke_Key.space	Key.space	n/a
355.431	0.105	710862	keystroke_e	e	n/a
355.686	0.1045	711372	keystroke_b	b	n/a
355.8205	0.15	711641	keystroke_a	a	n/a
356.0155	0.12	712031	keystroke_y	y	n/a
356.1055	0.105	712211	keystroke_Key.space	Key.space	n/a
356.3155	0.09	712631	keystroke_Key.enter	Key.enter	n/a
356.412	5.469	712824	prompt	n/a	approx disorder no block\n
357.0655	0.1195	714131	keystroke_a	a	n/a
357.335	0.03	714670	keystroke_p	p	n/a
357.44	0.075	714880	keystroke_p	p	n/a
357.6045	0.09	715209	keystroke_r	r	n/a
357.6345	0.105	715269	keystroke_o	o	n/a
357.9195	0.12	715839	keystroke_x	x	n/a
358.0845	0.09	716169	keystroke_Key.space	Key.space	n/a
358.2945	0.15	716589	keystroke_d	d	n/a
358.4145	0.075	716829	keystroke_i	i	n/a
358.5795	0.119	717159	keystroke_s	s	n/a
359.0285	0.075	718057	keystroke_o	o	n/a
359.2535	0.105	718507	keystroke_r	r	n/a
359.4635	0.105	718927	keystroke_d	d	n/a
359.6435	0.225	719287	keystroke_e	e	n/a
359.7785	0.15	719557	keystroke_r	r	n/a
359.9435	0.075	719887	keystroke_Key.space	Key.space	n/a
360.483	0.09	720966	keystroke_n	n	n/a
360.618	0.15	721236	keystroke_o	o	n/a
360.739	0.104	721478	keystroke_Key.space	Key.space	n/a
360.933	0.105	721866	keystroke_b	b	n/a
361.023	0.045	722046	keystroke_l	l	n/a
361.173	0.075	722346	keystroke_o	o	n/a
361.323	0.1045	722646	keystroke_c	c	n/a
361.398	0.1795	722796	keystroke_k	k	n/a
361.5625	0.06	723125	keystroke_Key.space	Key.space	n/a
361.8025	0.075	723605	keystroke_Key.enter	Key.enter	n/a
361.887	11.1775	723774	prompt	n/a	scout worlds preston trial\n
362.538	0.104	725076	keystroke_s	s	n/a
362.777	0.12	725554	keystroke_c	c	n/a
362.912	0.165	725824	keystroke_o	o	n/a
363.032	0.09	726064	keystroke_u	u	n/a
363.6465	0.105	727293	keystroke_t	t	n/a
364.396	0.09	728792	keystroke_Key.space	Key.space	n/a
364.576	0.105	729152	keystroke_w	w	n/a
364.696	0.075	729392	keystroke_o	o	n/a
364.846	0.105	729692	keystroke_r	r	n/a
364.936	0.075	729872	keystroke_l	l	n/a
365.4155	0.09	730831	keystroke_d	d	n/a
365.5655	0.12	731131	keystroke_s	s	n/a
365.7305	0.075	731461	keystroke_Key.space	Key.space	n/a
366.0005	0.075	732001	keystroke_p	p	n/a
366.0605	0.21	732121	keystroke_e	e	n/a
366.2105	0.135	732421	keystroke_r	r	n/a
366.4205	0.15	732841	keystroke_s	s	n/a
366.675	0.12	733350	keystroke_t	t	n/a
366.78	0.18	733560	keystroke_o	o	n/a
366.87	0.165	733740	keystroke_n	n	n/a
366.975	0.1195	733950	keystroke_Key.space	Key.space	n/a
367.2145	0.075	734429	keystroke_t	t	n/a
367.4095	0.03	734819	keystroke_r	r	n/a
368.564	0.0595	737128	keystroke_Key.backspace	Key.backspace	n/a
368.7885	0.06	737577	keystroke_Key.backspace	Key.backspace	n/a
368.9535	0.045	737907	keystroke_Key.backspace	Key.backspace	n/a
369.1335	0.045	738267	keystroke_Key.backspace	Key.backspace	n/a
369.2835	0.06	738567	keystroke_Key.backspace	Key.backspace	n/a
369.4335	0.075	738867	keystroke_Key.backspace	Key.backspace	n/a
369.6135	0.075	739227	keystroke_Key.backspace	Key.backspace	n/a
369.7935	0.105	739587	keystroke_Key.backspace	Key.backspace	n/a
370.2435	0.075	740487	keystroke_Key.backspace	Key.backspace	n/a
370.5735	0.1345	741147	keystroke_r	r	n/a
370.739	0.134	741478	keystroke_e	e	n/a
370.918	0.165	741836	keystroke_s	s	n/a
371.2335	0.089	742467	keystroke_t	t	n/a
371.3385	0.075	742677	keystroke_o	o	n/a
371.5035	0.135	743007	keystroke_n	n	n/a
371.6535	0.09	743307	keystroke_Key.space	Key.space	n/a
371.8785	0.09	743757	keystroke_t	t	n/a
372.0885	0.105	744177	keystroke_r	r	n/a
372.2085	0.0745	744417	keystroke_i	i	n/a
372.403	0.12	744806	keystroke_a	a	n/a
372.598	0.105	745196	keystroke_l	l	n/a
372.763	0.075	745526	keystroke_Key.space	Key.space	n/a
372.973	0.089	745946	keystroke_Key.enter	Key.enter	n/a
373.07	13.55	746140	prompt	n/a	particle projection agriculture counsel\n
373.8425	0.0745	747685	keystroke_p	p	n/a
373.947	0.135	747894	keystroke_a	a	n/a
374.142	0.09	748284	keystroke_r	r	n/a
374.322	0.105	748644	keystroke_t	t	n/a
374.442	0.06	748884	keystroke_i	i	n/a
374.637	0.09	749274	keystroke_c	c	n/a
374.712	0.09	749424	keystroke_l	l	n/a
374.892	0.12	749784	keystroke_e	e	n/a
374.996	0.061	749992	keystroke_Key.space	Key.space	n/a
375.117	0.075	750234	keystroke_p	p	n/a
375.2665	0.12	750533	keystroke_r	r	n/a
375.3565	0.089	750713	keystroke_o	o	n/a
375.5815	0.06	751163	keystroke_f	f	n/a
375.6715	0.075	751343	keystroke_j	j	n/a
376.1365	0.075	752273	keystroke_Key.backspace	Key.backspace	n/a
376.301	0.075	752602	keystroke_Key.backspace	Key.backspace	n/a
377.0055	0.075	754011	keystroke_j	j	n/a
377.1255	0.09	754251	keystroke_e	e	n/a
377.3355	0.12	754671	keystroke_c	c	n/a
377.5605	0.105	755121	keystroke_t	t	n/a
377.6055	0.3295	755211	keystroke_i	i	n/a
377.7255	0.2245	755451	keystroke_o	o	n/a
377.98	0.12	755960	keystroke_Key.space	Key.space	n/a
378.145	0.135	756290	keystroke_a	a	n/a
378.385	0.075	756770	keystroke_g	g	n/a
378.535	0.105	757070	keystroke_r	r	n/a
378.64	0.09	757280	keystroke_i	i	n/a
378.85	0.1045	757700	keystroke_c	c	n/a
378.9545	0.06	757909	keystroke_u	u	n/a
379.1045	0.09	758209	keystroke_l	l	n/a
379.3895	0.0905	758779	keystroke_t	t	n/a
379.494	0.061	758988	keystroke_u	u	n/a
379.6	0.12	759200	keystroke_r	r	n/a
379.959	0.0905	759918	keystroke_Key.backspace	Key.backspace	n/a
380.1245	0.075	760249	keystroke_Key.backspace	Key.backspace	n/a
380.2895	0.029	760579	keystroke_Key.backspace	Key.backspace	n/a
380.5445	0.045	761089	keystroke_Key.backspace	Key.backspace	n/a
380.6645	0.06	761329	keystroke_Key.backspace	Key.backspace	n/a
380.8145	0.06	761629	keystroke_Key.backspace	Key.backspace	n/a
380.9795	0.059	761959	keystroke_Key.backspace	Key.backspace	n/a
381.1435	0.076	762287	keystroke_Key.backspace	Key.backspace	n/a
381.3245	0.075	762649	keystroke_Key.backspace	Key.backspace	n/a
381.519	0.075	763038	keystroke_Key.backspace	Key.backspace	n/a
381.699	0.075	763398	keystroke_Key.backspace	Key.backspace	n/a
381.879	0.09	763758	keystroke_Key.backspace	Key.backspace	n/a
382.6285	0.06	765257	keystroke_o	o	n/a
382.7935	0.075	765587	keystroke_n	n	n/a
382.9585	0.09	765917	keystroke_Key.space	Key.space	n/a
383.2135	0.105	766427	keystroke_a	a	n/a
383.5295	0.089	767059	keystroke_g	g	n/a
383.693	0.12	767386	keystroke_r	r	n/a
383.798	0.075	767596	keystroke_i	i	n/a
383.993	0.135	767986	keystroke_c	c	n/a
384.143	0.06	768286	keystroke_u	u	n/a
384.278	0.09	768556	keystroke_l	l	n/a
384.518	0.0745	769036	keystroke_t	t	n/a
384.6225	0.075	769245	keystroke_u	u	n/a
384.7425	0.135	769485	keystroke_r	r	n/a
384.8625	0.15	769725	keystroke_e	e	n/a
385.0575	0.075	770115	keystroke_Key.space	Key.space	n/a
385.2525	0.12	770505	keystroke_c	c	n/a
385.3425	0.15	770685	keystroke_o	o	n/a
385.4475	0.09	770895	keystroke_u	u	n/a
385.672	0.075	771344	keystroke_n	n	n/a
385.957	0.09	771914	keystroke_s	s	n/a
386.152	0.12	772304	keystroke_e	e	n/a
386.272	0.075	772544	keystroke_l	l	n/a
386.527	0.09	773054	keystroke_Key.enter	Key.enter	n/a
386.6245	9.1855	773249	prompt	n/a	manufactured difficulty places enclosed\n
387.3515	0.03	774703	keystroke_m	m	n/a
387.8915	0.135	775783	keystroke_a	a	n/a
388.0115	0.06	776023	keystroke_n	n	n/a
388.2365	0.075	776473	keystroke_u	u	n/a
388.4165	0.1345	776833	keystroke_f	f	n/a
388.5965	0.1345	777193	keystroke_a	a	n/a
389.031	0.135	778062	keystroke_c	c	n/a
389.286	0.105	778572	keystroke_t	t	n/a
389.376	0.075	778752	keystroke_u	u	n/a
389.496	0.1495	778992	keystroke_r	r	n/a
389.631	0.1345	779262	keystroke_e	e	n/a
389.8705	0.105	779741	keystroke_d	d	n/a
390.0055	0.06	780011	keystroke_Key.space	Key.space	n/a
390.425	0.12	780850	keystroke_d	d	n/a
390.56	0.075	781120	keystroke_i	i	n/a
390.77	0.075	781540	keystroke_f	f	n/a
390.905	0.105	781810	keystroke_f	f	n/a
391.01	0.09	782020	keystroke_i	i	n/a
391.22	0.12	782440	keystroke_c	c	n/a
391.37	0.0745	782740	keystroke_u	u	n/a
391.5795	0.09	783159	keystroke_l	l	n/a
392.0895	0.105	784179	keystroke_t	t	n/a
392.2245	0.09	784449	keystroke_y	y	n/a
392.3595	0.09	784719	keystroke_Key.space	Key.space	n/a
393.139	0.06	786278	keystroke_p	p	n/a
393.304	0.09	786608	keystroke_l	l	n/a
393.439	0.09	786878	keystroke_a	a	n/a
393.604	0.105	787208	keystroke_c	c	n/a
393.8135	0.09	787627	keystroke_e	e	n/a
394.0385	0.12	788077	keystroke_s	s	n/a
394.1885	0.0595	788377	keystroke_Key.space	Key.space	n/a
394.458	0.135	788916	keystroke_e	e	n/a
394.608	0.075	789216	keystroke_n	n	n/a
394.758	0.135	789516	keystroke_c	c	n/a
394.878	0.06	789756	keystroke_l	l	n/a
395.043	0.06	790086	keystroke_o	o	n/a
395.118	0.12	790236	keystroke_s	s	n/a
395.268	0.09	790536	keystroke_e	e	n/a
395.433	0.135	790866	keystroke_d	d	n/a
395.538	0.075	791076	keystroke_Key.space	Key.space	n/a
395.733	0.075	791466	keystroke_Key.enter	Key.enter	n/a
395.8145	7.9275	791629	prompt	n/a	chances relevance obligation earthquake\n
396.4375	0.135	792875	keystroke_c	c	n/a
396.6025	0.06	793205	keystroke_h	h	n/a
396.7225	0.105	793445	keystroke_a	a	n/a
396.8275	0.06	793655	keystroke_n	n	n/a
396.9475	0.09	793895	keystroke_c	c	n/a
397.1275	0.0895	794255	keystroke_e	e	n/a
397.292	0.135	794584	keystroke_s	s	n/a
397.412	0.09	794824	keystroke_Key.space	Key.space	n/a
397.637	0.1055	795274	keystroke_r	r	n/a
397.6975	0.165	795395	keystroke_e	e	n/a
397.9825	0.105	795965	keystroke_l	l	n/a
398.162	0.105	796324	keystroke_e	e	n/a
398.387	0.135	796774	keystroke_v	v	n/a
398.537	0.12	797074	keystroke_a	a	n/a
398.642	0.075	797284	keystroke_n	n	n/a
398.792	0.105	797584	keystroke_c	c	n/a
398.987	0.1045	797974	keystroke_e	e	n/a
399.1055	0.091	798211	keystroke_Key.space	Key.space	n/a
399.2565	0.075	798513	keystroke_o	o	n/a
399.4065	0.09	798813	keystroke_b	b	n/a
399.5115	0.09	799023	keystroke_l	l	n/a
399.6615	0.075	799323	keystroke_i	i	n/a
399.9465	0.105	799893	keystroke_g	g	n/a
400.0965	0.165	800193	keystroke_a	a	n/a
400.801	0.105	801602	keystroke_t	t	n/a
400.891	0.33	801782	keystroke_i	i	n/a
401.011	0.24	802022	keystroke_o	o	n/a
401.146	0.195	802292	keystroke_n	n	n/a
401.31	0.121	802620	keystroke_Key.space	Key.space	n/a
401.566	0.12	803132	keystroke_e	e	n/a
401.881	0.1195	803762	keystroke_a	a	n/a
402.0755	0.09	804151	keystroke_r	r	n/a
402.2855	0.075	804571	keystroke_t	t	n/a
402.3605	0.075	804721	keystroke_h	h	n/a
402.6	0.09	805200	keystroke_q	q	n/a
402.735	0.075	805470	keystroke_u	u	n/a
402.915	0.15	805830	keystroke_a	a	n/a
403.23	0.105	806460	keystroke_k	k	n/a
403.41	0.105	806820	keystroke_e	e	n/a
403.65	0.09	807300	keystroke_Key.enter	Key.enter	n/a
403.747	6.1725	807494	prompt	n/a	bugs wallet protocol channel\n
404.5195	0.105	809039	keystroke_b	b	n/a
404.6395	0.075	809279	keystroke_u	u	n/a
404.8795	0.105	809759	keystroke_g	g	n/a
405.0745	0.12	810149	keystroke_s	s	n/a
405.2245	0.045	810449	keystroke_Key.space	Key.space	n/a
405.4195	0.1045	810839	keystroke_w	w	n/a
405.629	0.15	811258	keystroke_a	a	n/a
405.764	0.06	811528	keystroke_l	l	n/a
405.914	0.075	811828	keystroke_l	l	n/a
406.004	0.135	812008	keystroke_e	e	n/a
406.274	0.09	812548	keystroke_t	t	n/a
406.409	0.09	812818	keystroke_Key.space	Key.space	n/a
406.8135	0.045	813627	keystroke_p	p	n/a
407.1435	0.12	814287	keystroke_r	r	n/a
407.2335	0.09	814467	keystroke_o	o	n/a
407.4735	0.09	814947	keystroke_t	t	n/a
407.5485	0.075	815097	keystroke_o	o	n/a
407.788	0.105	815576	keystroke_c	c	n/a
407.908	0.06	815816	keystroke_o	o	n/a
408.088	0.165	816176	keystroke_l	l	n/a
408.223	0.09	816446	keystroke_Key.space	Key.space	n/a
408.418	0.12	816836	keystroke_c	c	n/a
408.523	0.045	817046	keystroke_h	h	n/a
408.628	0.165	817256	keystroke_a	a	n/a
408.808	0.045	817616	keystroke_n	n	n/a
408.913	0.075	817826	keystroke_n	n	n/a
409.3925	0.09	818785	keystroke_e	e	n/a
409.5425	0.09	819085	keystroke_l	l	n/a
409.8575	0.06	819715	keystroke_Key.enter	Key.enter	n/a
409.9245	7.147	819849	prompt	n/a	might've artwork test postal\n
410.832	0.075	821664	keystroke_m	m	n/a
410.997	0.075	821994	keystroke_i	i	n/a
411.2365	0.1055	822473	keystroke_g	g	n/a
411.327	0.0895	822654	keystroke_h	h	n/a
411.477	0.0895	822954	keystroke_t	t	n/a
411.7765	0.165	823553	keystroke_'	'	n/a
412.1365	0.12	824273	keystroke_v	v	n/a
412.3165	0.135	824633	keystroke_e	e	n/a
412.4965	0.075	824993	keystroke_Key.space	Key.space	n/a
412.7215	0.12	825443	keystroke_a	a	n/a
412.9015	0.105	825803	keystroke_r	r	n/a
413.156	0.105	826312	keystroke_t	t	n/a
413.546	0.105	827092	keystroke_w	w	n/a
413.651	0.075	827302	keystroke_o	o	n/a
413.816	0.105	827632	keystroke_r	r	n/a
413.936	0.12	827872	keystroke_k	k	n/a
414.116	0.09	828232	keystroke_Key.space	Key.space	n/a
414.356	0.12	828712	keystroke_t	t	n/a
414.521	0.15	829042	keystroke_e	e	n/a
414.701	0.165	829402	keystroke_s	s	n/a
414.9855	0.12	829971	keystroke_t	t	n/a
415.2105	0.075	830421	keystroke_Key.space	Key.space	n/a
415.5405	0.06	831081	keystroke_p	p	n/a
415.8105	0.0895	831621	keystroke_o	o	n/a
416.17	0.12	832340	keystroke_s	s	n/a
416.4095	0.105	832819	keystroke_t	t	n/a
416.6045	0.12	833209	keystroke_a	a	n/a
416.7095	0.09	833419	keystroke_l	l	n/a
416.9945	0.075	833989	keystroke_Key.enter	Key.enter	n/a
417.0765	5.453	834153	prompt	n/a	legend ground knowing filtering\n
417.7745	0.075	835549	keystroke_l	l	n/a
417.879	0.1205	835758	keystroke_e	e	n/a
418.1495	0.075	836299	keystroke_g	g	n/a
418.2995	0.105	836599	keystroke_e	e	n/a
418.4045	0.075	836809	keystroke_n	n	n/a
418.5545	0.105	837109	keystroke_d	d	n/a
418.704	0.075	837408	keystroke_Key.space	Key.space	n/a
418.944	0.075	837888	keystroke_g	g	n/a
419.124	0.09	838248	keystroke_r	r	n/a
419.229	0.135	838458	keystroke_o	o	n/a
419.304	0.09	838608	keystroke_u	u	n/a
419.499	0.075	838998	keystroke_n	n	n/a
419.604	0.12	839208	keystroke_d	d	n/a
419.709	0.075	839418	keystroke_Key.space	Key.space	n/a
419.844	0.075	839688	keystroke_k	k	n/a
419.994	0.105	839988	keystroke_n	n	n/a
420.1	0.059	840200	keystroke_o	o	n/a
420.219	0.1195	840438	keystroke_w	w	n/a
420.3085	0.045	840617	keystroke_i	i	n/a
420.4585	0.06	840917	keystroke_n	n	n/a
420.5485	0.075	841097	keystroke_g	g	n/a
420.6535	0.06	841307	keystroke_Key.space	Key.space	n/a
420.8335	0.12	841667	keystroke_f	f	n/a
420.9385	0.06	841877	keystroke_i	i	n/a
421.1035	0.06	842207	keystroke_l	l	n/a
421.2685	0.0895	842537	keystroke_t	t	n/a
421.3735	0.2095	842747	keystroke_e	e	n/a
421.493	0.135	842986	keystroke_r	r	n/a
421.568	0.195	843136	keystroke_i	i	n/a
421.718	0.121	843436	keystroke_n	n	n/a
421.898	0.1045	843796	keystroke_g	g	n/a
422.4375	0.09	844875	keystroke_Key.enter	Key.enter	n/a
422.534	11.0755	845068	prompt	n/a	dream biodiversity procedures negotiation\n
423.262	0.135	846524	keystroke_d	d	n/a
423.472	0.135	846944	keystroke_r	r	n/a
423.592	0.15	847184	keystroke_e	e	n/a
423.802	0.135	847604	keystroke_a	a	n/a
423.922	0.15	847844	keystroke_m	m	n/a
424.027	0.12	848054	keystroke_Key.space	Key.space	n/a
424.342	0.0895	848684	keystroke_b	b	n/a
424.4615	0.06	848923	keystroke_i	i	n/a
424.9715	0.09	849943	keystroke_o	o	n/a
425.9905	0.06	851981	keystroke_d	d	n/a
426.2905	0.076	852581	keystroke_i	i	n/a
426.4715	0.119	852943	keystroke_v	v	n/a
426.6215	0.209	853243	keystroke_e	e	n/a
426.7705	0.106	853541	keystroke_r	r	n/a
426.965	0.121	853930	keystroke_s	s	n/a
427.071	0.074	854142	keystroke_i	i	n/a
427.236	0.104	854472	keystroke_t	t	n/a
427.325	0.12	854650	keystroke_y	y	n/a
427.415	0.165	854830	keystroke_Key.space	Key.space	n/a
427.535	0.106	855070	keystroke_p	p	n/a
427.7	0.106	855400	keystroke_r	r	n/a
427.775	0.106	855550	keystroke_o	o	n/a
427.97	0.1045	855940	keystroke_c	c	n/a
428.165	0.0745	856330	keystroke_e	e	n/a
428.4195	0.15	856839	keystroke_d	d	n/a
428.4945	0.076	856989	keystroke_u	u	n/a
428.6895	0.12	857379	keystroke_r	r	n/a
428.7805	0.15	857561	keystroke_e	e	n/a
429.0495	0.091	858099	keystroke_s	s	n/a
429.1545	0.06	858309	keystroke_Key.space	Key.space	n/a
429.3805	0.0745	858761	keystroke_n	n	n/a
429.605	0.105	859210	keystroke_e	e	n/a
429.844	0.091	859688	keystroke_g	g	n/a
429.92	0.09	859840	keystroke_o	o	n/a
430.264	0.09	860528	keystroke_t	t	n/a
430.339	0.121	860678	keystroke_i	i	n/a
432.334	0.104	864668	keystroke_a	a	n/a
432.663	0.091	865326	keystroke_t	t	n/a
432.754	0.0885	865508	keystroke_i	i	n/a
432.888	0.1355	865776	keystroke_o	o	n/a
433.0385	0.119	866077	keystroke_n	n	n/a
433.5175	0.09	867035	keystroke_Key.enter	Key.enter	n/a
433.6135	9.7885	867227	prompt	n/a	brief stuff translate worcester\n
434.328	0.075	868656	keystroke_b	b	n/a
434.523	0.09	869046	keystroke_r	r	n/a
434.628	0.059	869256	keystroke_i	i	n/a
434.793	0.045	869586	keystroke_e	e	n/a
435.9625	0.09	871925	keystroke_f	f	n/a
436.1415	0.09	872283	keystroke_Key.space	Key.space	n/a
436.382	0.09	872764	keystroke_s	s	n/a
436.607	0.09	873214	keystroke_t	t	n/a
436.727	0.075	873454	keystroke_u	u	n/a
436.922	0.075	873844	keystroke_f	f	n/a
437.087	0.104	874174	keystroke_f	f	n/a
437.207	0.09	874414	keystroke_Key.space	Key.space	n/a
437.5215	0.044	875043	keystroke_s	s	n/a
437.9855	0.075	875971	keystroke_Key.backspace	Key.backspace	n/a
438.5265	0.105	877053	keystroke_t	t	n/a
438.7365	0.105	877473	keystroke_r	r	n/a
439.2615	0.105	878523	keystroke_a	a	n/a
439.3815	0.06	878763	keystroke_n	n	n/a
439.4865	0.105	878973	keystroke_s	s	n/a
439.8765	0.09	879753	keystroke_l	l	n/a
440.041	0.105	880082	keystroke_a	a	n/a
440.386	0.12	880772	keystroke_t	t	n/a
440.596	0.044	881192	keystroke_e	e	n/a
440.641	0.09	881282	keystroke_Key.space	Key.space	n/a
441.496	0.09	882992	keystroke_w	w	n/a
441.571	0.075	883142	keystroke_o	o	n/a
441.7355	0.075	883471	keystroke_r	r	n/a
442.0055	0.12	884011	keystroke_c	c	n/a
442.0955	0.06	884191	keystroke_h	h	n/a
442.2155	0.105	884431	keystroke_e	e	n/a
442.3955	0.12	884791	keystroke_s	s	n/a
442.725	0.09	885450	keystroke_t	t	n/a
442.86	0.225	885720	keystroke_e	e	n/a
443.025	0.09	886050	keystroke_r	r	n/a
443.31	0.09	886620	keystroke_Key.enter	Key.enter	n/a
443.41	7.2495	886820	prompt	n/a	reform concept hungry breeding\n
444.4045	0.09	888809	keystroke_e	e	n/a
444.8995	0.075	889799	keystroke_Key.backspace	Key.backspace	n/a
445.424	0.1045	890848	keystroke_r	r	n/a
445.5735	0.12	891147	keystroke_e	e	n/a
445.8285	0.12	891657	keystroke_f	f	n/a
445.9335	0.075	891867	keystroke_o	o	n/a
446.0535	0.12	892107	keystroke_r	r	n/a
446.1585	0.166	892317	keystroke_m	m	n/a
446.2935	0.105	892587	keystroke_Key.space	Key.space	n/a
446.5035	0.12	893007	keystroke_c	c	n/a
446.5635	0.0895	893127	keystroke_o	o	n/a
446.698	0.12	893396	keystroke_n	n	n/a
446.878	0.09	893756	keystroke_c	c	n/a
447.073	0.135	894146	keystroke_e	e	n/a
447.223	0.075	894446	keystroke_p	p	n/a
447.418	0.09	894836	keystroke_t	t	n/a
447.523	0.075	895046	keystroke_Key.space	Key.space	n/a
447.7325	0.091	895465	keystroke_h	h	n/a
447.8975	0.075	895795	keystroke_u	u	n/a
448.0925	0.075	896185	keystroke_n	n	n/a
448.2875	0.106	896575	keystroke_g	g	n/a
448.4975	0.105	896995	keystroke_r	r	n/a
448.6625	0.1195	897325	keystroke_y	y	n/a
448.767	0.105	897534	keystroke_Key.space	Key.space	n/a
449.218	0.074	898436	keystroke_b	b	n/a
449.367	0.09	898734	keystroke_l	l	n/a
449.532	0.09	899064	keystroke_e	e	n/a
449.742	0.09	899484	keystroke_e	e	n/a
449.937	0.135	899874	keystroke_d	d	n/a
450.042	0.075	900084	keystroke_i	i	n/a
450.192	0.06	900384	keystroke_n	n	n/a
450.2965	0.0905	900593	keystroke_g	g	n/a
450.402	0.09	900804	keystroke_Key.space	Key.space	n/a
450.582	0.0745	901164	keystroke_Key.enter	Key.enter	n/a
450.664	16.25	901328	prompt	n/a	principal circus radical india\n
451.3175	0.074	902635	keystroke_p	p	n/a
451.4215	0.12	902843	keystroke_r	r	n/a
451.5265	0.076	903053	keystroke_i	i	n/a
451.7515	0.12	903503	keystroke_c	c	n/a
451.8865	0.045	903773	keystroke_i	i	n/a
452.1425	0.0585	904285	keystroke_p	p	n/a
452.516	0.12	905032	keystroke_a	a	n/a
452.606	0.12	905212	keystroke_l	l	n/a
452.771	0.09	905542	keystroke_Key.space	Key.space	n/a
453.011	0.1345	906022	keystroke_c	c	n/a
453.131	0.0905	906262	keystroke_i	i	n/a
453.3555	0.0915	906711	keystroke_r	r	n/a
453.6105	0.105	907221	keystroke_c	c	n/a
453.7455	0.06	907491	keystroke_u	u	n/a
453.9105	0.09	907821	keystroke_l	l	n/a
454.0765	0.119	908153	keystroke_s	s	n/a
454.2255	0.06	908451	keystroke_Key.space	Key.space	n/a
455.125	0.075	910250	keystroke_=	=	n/a
455.3655	0.09	910731	keystroke_=	=	n/a
456.265	0.06	912530	keystroke_Key.backspace	Key.backspace	n/a
456.445	0.045	912890	keystroke_Key.backspace	Key.backspace	n/a
456.625	0.03	913250	keystroke_Key.backspace	Key.backspace	n/a
456.76	0.045	913520	keystroke_Key.backspace	Key.backspace	n/a
456.9845	0.015	913969	keystroke_Key.backspace	Key.backspace	n/a
457.0595	0.075	914119	keystroke_Key.backspace	Key.backspace	n/a
457.2395	0.06	914479	keystroke_Key.backspace	Key.backspace	n/a
457.3895	0.0595	914779	keystroke_Key.backspace	Key.backspace	n/a
457.554	0.045	915108	keystroke_Key.backspace	Key.backspace	n/a
457.689	0.06	915378	keystroke_Key.backspace	Key.backspace	n/a
457.839	0.075	915678	keystroke_Key.backspace	Key.backspace	n/a
458.004	0.09	916008	keystroke_Key.backspace	Key.backspace	n/a
458.169	0.075	916338	keystroke_Key.backspace	Key.backspace	n/a
458.334	0.075	916668	keystroke_Key.backspace	Key.backspace	n/a
458.499	0.075	916998	keystroke_Key.backspace	Key.backspace	n/a
458.649	0.09	917298	keystroke_Key.backspace	Key.backspace	n/a
459.3835	0.075	918767	keystroke_n	n	n/a
459.5485	0.12	919097	keystroke_c	c	n/a
459.6385	0.09	919277	keystroke_i	i	n/a
459.968	0.075	919936	keystroke_p	p	n/a
460.178	0.105	920356	keystroke_l	l	n/a
460.628	0.12	921256	keystroke_a	a	n/a
461.078	0.09	922156	keystroke_l	l	n/a
461.723	0.045	923446	keystroke_Key.backspace	Key.backspace	n/a
461.858	0.09	923716	keystroke_Key.backspace	Key.backspace	n/a
462.023	0.075	924046	keystroke_Key.backspace	Key.backspace	n/a
462.338	0.105	924676	keystroke_a	a	n/a
462.428	0.12	924856	keystroke_l	l	n/a
462.683	0.06	925366	keystroke_Key.space	Key.space	n/a
463.493	0.1195	926986	keystroke_c	c	n/a
463.5825	0.09	927165	keystroke_i	i	n/a
463.7775	0.09	927555	keystroke_r	r	n/a
464.0325	0.105	928065	keystroke_c	c	n/a
464.1225	0.09	928245	keystroke_u	u	n/a
464.2725	0.105	928545	keystroke_s	s	n/a
464.3925	0.105	928785	keystroke_Key.space	Key.space	n/a
464.6025	0.12	929205	keystroke_r	r	n/a
464.827	0.15	929654	keystroke_a	a	n/a
465.1275	0.09	930255	keystroke_d	d	n/a
465.218	0.074	930436	keystroke_i	i	n/a
465.412	0.105	930824	keystroke_c	c	n/a
465.607	0.135	931214	keystroke_a	a	n/a
465.727	0.15	931454	keystroke_l	l	n/a
465.832	0.12	931664	keystroke_Key.space	Key.space	n/a
466.012	0.105	932024	keystroke_i	i	n/a
466.207	0.075	932414	keystroke_n	n	n/a
466.372	0.1345	932744	keystroke_d	d	n/a
466.4915	0.06	932983	keystroke_i	i	n/a
466.6565	0.12	933313	keystroke_a	a	n/a
466.8065	0.105	933613	keystroke_Key.enter	Key.enter	n/a
466.919	7.8525	933838	prompt	n/a	feeds instructional scotland tested\n
467.766	0.105	935532	keystroke_f	f	n/a
467.991	0.075	935982	keystroke_e	e	n/a
468.111	0.09	936222	keystroke_e	e	n/a
468.321	0.135	936642	keystroke_d	d	n/a
468.516	0.12	937032	keystroke_s	s	n/a
468.666	0.105	937332	keystroke_Key.space	Key.space	n/a
468.876	0.09	937752	keystroke_i	i	n/a
469.086	0.06	938172	keystroke_n	n	n/a
469.206	0.1195	938412	keystroke_s	s	n/a
469.4605	0.09	938921	keystroke_t	t	n/a
469.7755	0.105	939551	keystroke_r	r	n/a
469.8955	0.075	939791	keystroke_u	u	n/a
470.0905	0.12	940181	keystroke_c	c	n/a
470.3305	0.1045	940661	keystroke_t	t	n/a
470.465	0.075	940930	keystroke_i	i	n/a
470.645	0.09	941290	keystroke_o	o	n/a
470.8105	0.09	941621	keystroke_n	n	n/a
471.0205	0.15	942041	keystroke_a	a	n/a
471.1555	0.1495	942311	keystroke_l	l	n/a
471.29	0.105	942580	keystroke_Key.space	Key.space	n/a
471.455	0.105	942910	keystroke_s	s	n/a
471.65	0.135	943300	keystroke_c	c	n/a
471.8	0.09	943600	keystroke_o	o	n/a
472.34	0.09	944680	keystroke_t	t	n/a
472.58	0.09	945160	keystroke_l	l	n/a
472.745	0.12	945490	keystroke_a	a	n/a
472.85	0.0745	945700	keystroke_n	n	n/a
472.9695	0.12	945939	keystroke_d	d	n/a
473.1045	0.075	946209	keystroke_Key.space	Key.space	n/a
473.419	0.105	946838	keystroke_t	t	n/a
473.569	0.151	947138	keystroke_e	e	n/a
473.78	0.18	947560	keystroke_s	s	n/a
473.99	0.134	947980	keystroke_t	t	n/a
474.139	0.1205	948278	keystroke_e	e	n/a
474.3485	0.105	948697	keystroke_d	d	n/a
474.6935	0.075	949387	keystroke_Key.enter	Key.enter	n/a
474.7775	7.8525	949555	prompt	n/a	preview journalist pending presence\n
475.4285	0.075	950857	keystroke_p	p	n/a
475.5635	0.165	951127	keystroke_r	r	n/a
475.9235	0.105	951847	keystroke_e	e	n/a
476.523	0.136	953046	keystroke_v	v	n/a
476.644	0.059	953288	keystroke_i	i	n/a
476.764	0.134	953528	keystroke_e	e	n/a
476.839	0.134	953678	keystroke_w	w	n/a
477.063	0.06	954126	keystroke_Key.space	Key.space	n/a
477.618	0.105	955236	keystroke_j	j	n/a
477.783	0.135	955566	keystroke_o	o	n/a
477.874	0.104	955748	keystroke_u	u	n/a
478.053	0.136	956106	keystroke_r	r	n/a
478.173	0.075	956346	keystroke_n	n	n/a
478.3675	0.121	956735	keystroke_a	a	n/a
478.5025	0.075	957005	keystroke_l	l	n/a
478.6225	0.076	957245	keystroke_i	i	n/a
478.7725	0.12	957545	keystroke_s	s	n/a
478.9975	0.1355	957995	keystroke_t	t	n/a
479.117	0.09	958234	keystroke_Key.space	Key.space	n/a
479.253	0.089	958506	keystroke_p	p	n/a
479.463	0.12	958926	keystroke_e	e	n/a
479.688	0.074	959376	keystroke_n	n	n/a
480.123	0.119	960246	keystroke_d	d	n/a
480.228	0.06	960456	keystroke_i	i	n/a
480.393	0.06	960786	keystroke_n	n	n/a
480.483	0.105	960966	keystroke_g	g	n/a
480.602	0.09	961204	keystroke_Key.space	Key.space	n/a
480.708	0.089	961416	keystroke_p	p	n/a
481.307	0.12	962614	keystroke_r	r	n/a
481.472	0.12	962944	keystroke_e	e	n/a
481.6825	0.089	963365	keystroke_s	s	n/a
481.833	0.1045	963666	keystroke_e	e	n/a
481.9525	0.059	963905	keystroke_n	n	n/a
482.0715	0.12	964143	keystroke_c	c	n/a
482.3125	0.09	964625	keystroke_e	e	n/a
482.5375	0.089	965075	keystroke_Key.enter	Key.enter	n/a
482.636	5.706	965272	prompt	n/a	mass computed mike worse\n
483.376	0.091	966752	keystroke_m	m	n/a
483.511	0.1215	967022	keystroke_a	a	n/a
483.721	0.061	967442	keystroke_s	s	n/a
483.871	0.091	967742	keystroke_s	s	n/a
484.021	0.09	968042	keystroke_Key.space	Key.space	n/a
484.291	0.121	968582	keystroke_c	c	n/a
484.367	0.089	968734	keystroke_o	o	n/a
484.547	0.09	969094	keystroke_m	m	n/a
484.711	0.105	969422	keystroke_p	p	n/a
484.862	0.074	969724	keystroke_u	u	n/a
485.116	0.1195	970232	keystroke_t	t	n/a
485.267	0.1785	970534	keystroke_e	e	n/a
485.3865	0.134	970773	keystroke_r	r	n/a
485.5805	0.06	971161	keystroke_Key.space	Key.space	n/a
485.9865	0.06	971973	keystroke_m	m	n/a
486.1205	0.075	972241	keystroke_i	i	n/a
486.3015	0.09	972603	keystroke_k	k	n/a
486.4365	0.12	972873	keystroke_e	e	n/a
486.585	0.06	973170	keystroke_Key.space	Key.space	n/a
486.885	0.09	973770	keystroke_w	w	n/a
486.961	0.075	973922	keystroke_o	o	n/a
487.125	0.106	974250	keystroke_r	r	n/a
487.306	0.164	974612	keystroke_s	s	n/a
487.5	0.12	975000	keystroke_e	e	n/a
487.635	0.06	975270	keystroke_Key.space	Key.space	n/a
488.265	0.075	976530	keystroke_Key.enter	Key.enter	n/a
488.347	11.512	976694	prompt	n/a	holders defendant unexpected malawi\n
490.4435	0.001	980887	keystroke_h	h	n/a
490.4855	0.09	980971	keystroke_o	o	n/a
490.6805	0.06	981361	keystroke_l	l	n/a
490.7995	0.121	981599	keystroke_d	d	n/a
491.0105	0.1785	982021	keystroke_e	e	n/a
491.144	0.121	982288	keystroke_r	r	n/a
491.385	0.089	982770	keystroke_s	s	n/a
491.504	0.076	983008	keystroke_Key.space	Key.space	n/a
491.9095	0.104	983819	keystroke_d	d	n/a
492.6295	0.105	985259	keystroke_e	e	n/a
493.1385	0.0905	986277	keystroke_f	f	n/a
493.274	0.135	986548	keystroke_e	e	n/a
493.394	0.075	986788	keystroke_n	n	n/a
493.634	0.1195	987268	keystroke_d	d	n/a
494.2185	0.105	988437	keystroke_a	a	n/a
494.3085	0.06	988617	keystroke_n	n	n/a
494.5035	0.105	989007	keystroke_t	t	n/a
494.6385	0.075	989277	keystroke_Key.space	Key.space	n/a
494.8035	0.1195	989607	keystroke_e	e	n/a
496.123	0.06	992246	keystroke_Key.backspace	Key.backspace	n/a
496.528	0.06	993056	keystroke_u	u	n/a
496.723	0.075	993446	keystroke_n	n	n/a
496.918	0.075	993836	keystroke_e	e	n/a
497.143	0.135	994286	keystroke_x	x	n/a
497.248	0.09	994496	keystroke_p	p	n/a
497.428	0.09	994856	keystroke_e	e	n/a
497.6225	0.105	995245	keystroke_c	c	n/a
497.8325	0.12	995665	keystroke_t	t	n/a
498.0125	0.075	996025	keystroke_e	e	n/a
498.1925	0.105	996385	keystroke_d	d	n/a
498.3275	0.0755	996655	keystroke_Key.space	Key.space	n/a
498.478	0.09	996956	keystroke_m	m	n/a
498.643	0.12	997286	keystroke_a	a	n/a
498.7635	0.089	997527	keystroke_l	l	n/a
498.9875	0.135	997975	keystroke_a	a	n/a
499.1975	0.09	998395	keystroke_w	w	n/a
499.3475	0.09	998695	keystroke_i	i	n/a
499.6175	0.105	999235	keystroke_Key.space	Key.space	n/a
499.782	0.075	999564	keystroke_Key.enter	Key.enter	n/a
499.863	10.6595	999726	prompt	n/a	harvard principal australian maintained\n
500.742	0.0895	1001484	keystroke_h	h	n/a
500.8475	0.134	1001695	keystroke_a	a	n/a
501.0265	0.105	1002053	keystroke_r	r	n/a
501.2665	0.135	1002533	keystroke_v	v	n/a
501.5965	0.105	1003193	keystroke_r	r	n/a
502.5565	0.09	1005113	keystroke_Key.backspace	Key.backspace	n/a
502.9165	0.135	1005833	keystroke_a	a	n/a
503.186	0.0755	1006372	keystroke_r	r	n/a
503.396	0.105	1006792	keystroke_d	d	n/a
503.516	0.075	1007032	keystroke_Key.space	Key.space	n/a
503.951	0.075	1007902	keystroke_p	p	n/a
504.056	0.12	1008112	keystroke_r	r	n/a
504.161	0.09	1008322	keystroke_i	i	n/a
504.371	0.09	1008742	keystroke_c	c	n/a
504.476	0.075	1008952	keystroke_i	i	n/a
504.686	0.075	1009372	keystroke_p	p	n/a
504.941	0.105	1009882	keystroke_a	a	n/a
505.031	0.121	1010062	keystroke_l	l	n/a
505.181	0.1045	1010362	keystroke_Key.space	Key.space	n/a
505.677	0.134	1011354	keystroke_a	a	n/a
505.826	0.0595	1011652	keystroke_u	u	n/a
506.006	0.15	1012012	keystroke_s	s	n/a
506.276	0.0745	1012552	keystroke_t	t	n/a
506.4405	0.12	1012881	keystroke_r	r	n/a
506.6205	0.15	1013241	keystroke_a	a	n/a
506.8005	0.09	1013601	keystroke_l	l	n/a
506.9505	0.075	1013901	keystroke_i	i	n/a
507.1305	0.15	1014261	keystroke_a	a	n/a
507.2355	0.09	1014471	keystroke_n	n	n/a
507.4005	0.075	1014801	keystroke_Key.space	Key.space	n/a
508.0155	0.09	1016031	keystroke_m	m	n/a
508.1955	0.151	1016391	keystroke_a	a	n/a
508.3005	0.06	1016601	keystroke_i	i	n/a
509.2	0.075	1018400	keystroke_n	n	n/a
509.47	0.105	1018940	keystroke_t	t	n/a
509.635	0.165	1019270	keystroke_a	a	n/a
509.77	0.075	1019540	keystroke_i	i	n/a
509.92	0.06	1019840	keystroke_n	n	n/a
510.026	0.089	1020052	keystroke_e	e	n/a
510.22	0.105	1020440	keystroke_d	d	n/a
510.445	0.075	1020890	keystroke_Key.enter	Key.enter	n/a
510.528	5.6775	1021056	prompt	n/a	program steve russian adrian\n
511.2245	0.06	1022449	keystroke_p	p	n/a
511.3595	0.09	1022719	keystroke_r	r	n/a
511.4645	0.075	1022929	keystroke_o	o	n/a
511.6595	0.075	1023319	keystroke_g	g	n/a
511.8245	0.076	1023649	keystroke_r	r	n/a
511.9895	0.15	1023979	keystroke_a	a	n/a
512.1255	0.15	1024251	keystroke_m	m	n/a
512.2295	0.12	1024459	keystroke_Key.space	Key.space	n/a
512.3795	0.12	1024759	keystroke_s	s	n/a
512.5745	0.105	1025149	keystroke_t	t	n/a
512.7555	0.1035	1025511	keystroke_e	e	n/a
512.964	0.1205	1025928	keystroke_v	v	n/a
513.069	0.1655	1026138	keystroke_e	e	n/a
513.249	0.09	1026498	keystroke_Key.space	Key.space	n/a
513.609	0.12	1027218	keystroke_r	r	n/a
513.714	0.061	1027428	keystroke_u	u	n/a
513.879	0.09	1027758	keystroke_s	s	n/a
514.044	0.09	1028088	keystroke_s	s	n/a
514.179	0.0895	1028358	keystroke_i	i	n/a
514.5835	0.135	1029167	keystroke_a	a	n/a
514.7045	0.134	1029409	keystroke_n	n	n/a
514.8235	0.09	1029647	keystroke_Key.space	Key.space	n/a
514.9885	0.136	1029977	keystroke_a	a	n/a
515.1995	0.134	1030399	keystroke_d	d	n/a
515.4085	0.12	1030817	keystroke_r	r	n/a
515.5135	0.075	1031027	keystroke_i	i	n/a
515.6785	0.121	1031357	keystroke_a	a	n/a
515.7835	0.091	1031567	keystroke_n	n	n/a
516.1135	0.09	1032227	keystroke_Key.enter	Key.enter	n/a
516.211	5.9945	1032422	prompt	n/a	blvd illness shops finally\n
517.433	0.09	1034866	keystroke_b	b	n/a
517.613	0.091	1035226	keystroke_l	l	n/a
517.853	0.105	1035706	keystroke_v	v	n/a
518.169	0.1185	1036338	keystroke_d	d	n/a
518.3625	0.105	1036725	keystroke_Key.space	Key.space	n/a
518.6175	0.0755	1037235	keystroke_i	i	n/a
518.8125	0.045	1037625	keystroke_l	l	n/a
518.9485	0.044	1037897	keystroke_l	l	n/a
519.0835	0.074	1038167	keystroke_n	n	n/a
519.2025	0.091	1038405	keystroke_e	e	n/a
519.3825	0.075	1038765	keystroke_s	s	n/a
519.5175	0.12	1039035	keystroke_s	s	n/a
519.6385	0.089	1039277	keystroke_Key.space	Key.space	n/a
519.7875	0.12	1039575	keystroke_s	s	n/a
519.9225	0.075	1039845	keystroke_h	h	n/a
520.1025	0.1205	1040205	keystroke_o	o	n/a
520.312	0.061	1040624	keystroke_p	p	n/a
520.462	0.12	1040924	keystroke_s	s	n/a
520.642	0.06	1041284	keystroke_Key.space	Key.space	n/a
520.898	0.12	1041796	keystroke_f	f	n/a
520.957	0.09	1041914	keystroke_i	i	n/a
521.167	0.075	1042334	keystroke_n	n	n/a
521.348	0.104	1042696	keystroke_a	a	n/a
521.437	0.045	1042874	keystroke_l	l	n/a
521.587	0.075	1043174	keystroke_l	l	n/a
521.782	0.121	1043564	keystroke_y	y	n/a
521.903	0.104	1043806	keystroke_Key.space	Key.space	n/a
522.112	0.09	1044224	keystroke_Key.enter	Key.enter	n/a
522.21	7.5075	1044420	prompt	n/a	rise circulation observations shipments\n
523.1615	0.106	1046323	keystroke_r	r	n/a
523.2515	0.076	1046503	keystroke_i	i	n/a
523.3565	0.135	1046713	keystroke_s	s	n/a
523.5215	0.15	1047043	keystroke_e	e	n/a
523.6865	0.075	1047373	keystroke_Key.space	Key.space	n/a
523.8675	0.134	1047735	keystroke_c	c	n/a
523.9725	0.075	1047945	keystroke_i	i	n/a
524.1365	0.09	1048273	keystroke_r	r	n/a
524.3765	0.105	1048753	keystroke_c	c	n/a
524.5565	0.061	1049113	keystroke_u	u	n/a
524.706	0.075	1049412	keystroke_l	l	n/a
524.901	0.18	1049802	keystroke_a	a	n/a
525.126	0.106	1050252	keystroke_t	t	n/a
525.217	0.3	1050434	keystroke_i	i	n/a
525.322	0.209	1050644	keystroke_o	o	n/a
525.427	0.165	1050854	keystroke_n	n	n/a
525.546	0.105	1051092	keystroke_Key.space	Key.space	n/a
525.697	0.089	1051394	keystroke_o	o	n/a
525.906	0.105	1051812	keystroke_b	b	n/a
526.267	0.164	1052534	keystroke_s	s	n/a
526.402	0.2245	1052804	keystroke_e	e	n/a
526.5505	0.105	1053101	keystroke_r	r	n/a
526.7915	0.134	1053583	keystroke_v	v	n/a
526.9705	0.18	1053941	keystroke_a	a	n/a
527.1805	0.09	1054361	keystroke_t	t	n/a
527.2555	0.255	1054511	keystroke_i	i	n/a
527.3605	0.195	1054721	keystroke_o	o	n/a
527.4365	0.165	1054873	keystroke_n	n	n/a
527.6305	0.121	1055261	keystroke_s	s	n/a
527.7655	0.06	1055531	keystroke_Key.space	Key.space	n/a
527.9465	0.104	1055893	keystroke_s	s	n/a
528.0665	0.075	1056133	keystroke_h	h	n/a
528.2165	0.09	1056433	keystroke_i	i	n/a
528.4415	0.044	1056883	keystroke_p	p	n/a
528.6665	0.059	1057333	keystroke_m	m	n/a
528.7865	0.1345	1057573	keystroke_e	e	n/a
528.891	0.075	1057782	keystroke_n	n	n/a
529.026	0.104	1058052	keystroke_t	t	n/a
529.25	0.105	1058500	keystroke_s	s	n/a
529.626	0.089	1059252	keystroke_Key.enter	Key.enter	n/a
529.7225	12.502	1059445	prompt	n/a	converter catalogue edit acquisition\n
530.721	0.165	1061442	keystroke_c	c	n/a
530.871	0.03	1061742	keystroke_o	o	n/a
530.976	0.074	1061952	keystroke_n	n	n/a
531.096	0.134	1062192	keystroke_v	v	n/a
531.26	0.27	1062520	keystroke_e	e	n/a
531.455	0.136	1062910	keystroke_r	r	n/a
531.8	0.121	1063600	keystroke_t	t	n/a
532.1295	0.106	1064259	keystroke_r	r	n/a
533.0905	0.075	1066181	keystroke_Key.backspace	Key.backspace	n/a
533.2245	0.225	1066449	keystroke_e	e	n/a
533.3905	0.15	1066781	keystroke_r	r	n/a
533.5545	0.09	1067109	keystroke_Key.space	Key.space	n/a
534.559	0.12	1069118	keystroke_c	c	n/a
534.754	0.136	1069508	keystroke_a	a	n/a
534.965	0.12	1069930	keystroke_t	t	n/a
535.174	0.105	1070348	keystroke_a	a	n/a
535.265	0.075	1070530	keystroke_l	l	n/a
535.534	0.136	1071068	keystroke_o	o	n/a
535.849	0.075	1071698	keystroke_u	u	n/a
536.434	0.09	1072868	keystroke_Key.backspace	Key.backspace	n/a
536.734	0.106	1073468	keystroke_g	g	n/a
536.87	0.09	1073740	keystroke_u	u	n/a
537.02	0.1035	1074040	keystroke_e	e	n/a
537.1535	0.075	1074307	keystroke_Key.space	Key.space	n/a
537.8895	0.075	1075779	keystroke_e	e	n/a
538.1145	0.119	1076229	keystroke_d	d	n/a
538.2345	0.075	1076469	keystroke_i	i	n/a
538.4285	0.091	1076857	keystroke_t	t	n/a
538.5345	0.089	1077069	keystroke_Key.space	Key.space	n/a
539.2085	0.1205	1078417	keystroke_a	a	n/a
539.494	0.104	1078988	keystroke_c	c	n/a
539.734	0.105	1079468	keystroke_q	q	n/a
539.853	0.075	1079706	keystroke_u	u	n/a
540.004	0.09	1080008	keystroke_i	i	n/a
540.9335	0.1195	1081867	keystroke_s	s	n/a
541.068	0.09	1082136	keystroke_i	i	n/a
541.368	0.105	1082736	keystroke_t	t	n/a
541.458	0.09	1082916	keystroke_i	i	n/a
541.638	0.09	1083276	keystroke_o	o	n/a
541.833	0.075	1083666	keystroke_n	n	n/a
542.133	0.09	1084266	keystroke_Key.enter	Key.enter	n/a
542.232	6.3525	1084464	prompt	n/a	brand wilderness herein vids\n
542.958	0.075	1085916	keystroke_b	b	n/a
543.183	0.09	1086366	keystroke_r	r	n/a
543.333	0.12	1086666	keystroke_a	a	n/a
543.483	0.045	1086966	keystroke_n	n	n/a
543.603	0.105	1087206	keystroke_d	d	n/a
543.723	0.075	1087446	keystroke_Key.space	Key.space	n/a
