onset	duration	sample	value	key	prompt_text
8.579	6.949	17158	prompt	n/a	the quick brown fox jumps over a lazy dog\n
9.6925	0.043	19385	keystroke_t	t	n/a
9.7805	0.12	19561	keystroke_h	h	n/a
9.9605	0.09	19921	keystroke_e	e	n/a
10.0645	0.09	20129	keystroke_Key.space	Key.space	n/a
10.3055	0.12	20611	keystroke_q	q	n/a
10.4555	0.09	20911	keystroke_u	u	n/a
10.6355	0.1045	21271	keystroke_i	i	n/a
10.77	0.12	21540	keystroke_c	c	n/a
10.845	0.105	21690	keystroke_k	k	n/a
11.01	0.105	22020	keystroke_Key.space	Key.space	n/a
11.13	0.105	22260	keystroke_b	b	n/a
11.25	0.09	22500	keystroke_r	r	n/a
11.37	0.09	22740	keystroke_o	o	n/a
11.49	0.09	22980	keystroke_w	w	n/a
11.61	0.09	23220	keystroke_n	n	n/a
11.73	0.105	23460	keystroke_Key.space	Key.space	n/a
11.91	0.09	23820	keystroke_f	f	n/a
12.015	0.075	24030	keystroke_o	o	n/a
12.12	0.1055	24240	keystroke_x	x	n/a
12.2405	0.105	24481	keystroke_Key.space	Key.space	n/a
12.4805	0.09	24961	keystroke_j	j	n/a
12.66	0.076	25320	keystroke_u	u	n/a
12.8255	0.1045	25651	keystroke_m	m	n/a
12.99	0.09	25980	keystroke_p	p	n/a
13.11	0.075	26220	keystroke_s	s	n/a
13.215	0.09	26430	keystroke_Key.space	Key.space	n/a
13.395	0.0905	26790	keystroke_o	o	n/a
13.4855	0.0595	26971	keystroke_v	v	n/a
13.575	0.105	27150	keystroke_e	e	n/a
13.635	0.105	27270	keystroke_r	r	n/a
13.845	0.0755	27690	keystroke_Key.space	Key.space	n/a
14.0105	0.075	28021	keystroke_a	a	n/a
14.1895	0.075	28379	keystroke_Key.space	Key.space	n/a
14.3405	0.105	28681	keystroke_l	l	n/a
14.4905	0.075	28981	keystroke_a	a	n/a
14.6705	0.105	29341	keystroke_z	z	n/a
14.7755	0.075	29551	keystroke_y	y	n/a
14.8805	0.105	29761	keystroke_Key.space	Key.space	n/a
15.0155	0.12	30031	keystroke_d	d	n/a
15.1505	0.09	30301	keystroke_o	o	n/a
15.2705	0.075	30541	keystroke_g	g	n/a
15.4655	0.06	30931	keystroke_Key.enter	Key.enter	n/a
15.5335	7.0285	31067	prompt	n/a	brief pointer university developers\n
16.3205	0.06	32641	keystroke_b	b	n/a
16.4855	0.105	32971	keystroke_r	r	n/a
16.6055	0.09	33211	keystroke_i	i	n/a
16.7405	0.105	33481	keystroke_e	e	n/a
17.3105	0.09	34621	keystroke_f	f	n/a
17.4745	0.1055	34949	keystroke_Key.space	Key.space	n/a
17.64	0.15	35280	keystroke_p	p	n/a
17.91	0.09	35820	keystroke_o	o	n/a
18.18	0.105	36360	keystroke_i	i	n/a
18.24	0.12	36480	keystroke_n	n	n/a
18.345	0.045	36690	keystroke_t	t	n/a
18.435	0.12	36870	keystroke_e	e	n/a
18.525	0.075	37050	keystroke_r	r	n/a
18.63	0.09	37260	keystroke_Key.space	Key.space	n/a
18.975	0.075	37950	keystroke_u	u	n/a
19.035	0.12	38070	keystroke_n	n	n/a
19.185	0.09	38370	keystroke_i	i	n/a
19.38	0.075	38760	keystroke_v	v	n/a
19.545	0.075	39090	keystroke_e	e	n/a
19.575	0.09	39150	keystroke_r	r	n/a
19.785	0.105	39570	keystroke_s	s	n/a
19.905	0.0755	39810	keystroke_i	i	n/a
20.0255	0.0895	40051	keystroke_t	t	n/a
20.13	0.09	40260	keystroke_y	y	n/a
20.265	0.12	40530	keystroke_Key.space	Key.space	n/a
20.76	0.09	41520	keystroke_d	d	n/a
20.835	0.09	41670	keystroke_e	e	n/a
21.045	0.06	42090	keystroke_v	v	n/a
21.165	0.09	42330	keystroke_e	e	n/a
21.345	0.12	42690	keystroke_l	l	n/a
21.795	0.15	43590	keystroke_o	o	n/a
21.9	0.12	43800	keystroke_p	p	n/a
22.05	0.12	44100	keystroke_e	e	n/a
22.14	0.075	44280	keystroke_r	r	n/a
22.335	0.09	44670	keystroke_s	s	n/a
22.455	0.105	44910	keystroke_Key.enter	Key.enter	n/a
22.5665	6.8065	45133	prompt	n/a	asylum how'll selections stroke\n
23.115	0.09	46230	keystroke_a	a	n/a
23.31	0.09	46620	keystroke_s	s	n/a
23.595	0.105	47190	keystroke_l	l	n/a
24.24	0.03	48480	keystroke_Key.backspace	Key.backspace	n/a
24.33	0.075	48660	keystroke_y	y	n/a
24.6	0.06	49200	keystroke_l	l	n/a
24.87	0.075	49740	keystroke_u	u	n/a
25.05	0.105	50100	keystroke_m	m	n/a
25.215	0.09	50430	keystroke_Key.space	Key.space	n/a
25.545	0.105	51090	keystroke_h	h	n/a
25.62	0.09	51240	keystroke_o	o	n/a
25.74	0.09	51480	keystroke_w	w	n/a
26.34	0.075	52680	keystroke_'	'	n/a
26.76	0.09	53520	keystroke_l	l	n/a
26.9395	0.061	53879	keystroke_l	l	n/a
27.1345	0.076	54269	keystroke_Key.space	Key.space	n/a
27.2845	0.091	54569	keystroke_s	s	n/a
27.4805	0.075	54961	keystroke_e	e	n/a
27.5555	0.075	55111	keystroke_l	l	n/a
27.6755	0.089	55351	keystroke_e	e	n/a
27.7505	0.09	55501	keystroke_c	c	n/a
27.9305	0.075	55861	keystroke_t	t	n/a
28.0195	0.061	56039	keystroke_i	i	n/a
28.0955	0.12	56191	keystroke_o	o	n/a
28.1705	0.089	56341	keystroke_n	n	n/a
28.2295	0.091	56459	keystroke_s	s	n/a
28.3505	0.105	56701	keystroke_Key.space	Key.space	n/a
28.6955	0.089	57391	keystroke_s	s	n/a
28.8005	0.044	57601	keystroke_t	t	n/a
28.9195	0.106	57839	keystroke_r	r	n/a
28.9955	0.105	57991	keystroke_o	o	n/a
29.0555	0.105	58111	keystroke_k	k	n/a
29.1305	0.075	58261	keystroke_e	e	n/a
29.2945	0.075	58589	keystroke_Key.enter	Key.enter	n/a
29.379	5.438	58758	prompt	n/a	regulatory cattle calling lucy\n
29.9705	0.105	59941	keystroke_r	r	n/a
30.0295	0.09	60059	keystroke_e	e	n/a
30.1805	0.089	60361	keystroke_g	g	n/a
30.2555	0.104	60511	keystroke_u	u	n/a
30.3145	0.105	60629	keystroke_l	l	n/a
30.4045	0.105	60809	keystroke_a	a	n/a
30.5255	0.06	61051	keystroke_r	r	n/a
30.945	0.075	61890	keystroke_Key.backspace	Key.backspace	n/a
31.035	0.075	62070	keystroke_t	t	n/a
31.2	0.105	62400	keystroke_o	o	n/a
31.425	0.06	62850	keystroke_r	r	n/a
31.545	0.075	63090	keystroke_y	y	n/a
31.71	0.12	63420	keystroke_Key.space	Key.space	n/a
32.025	0.075	64050	keystroke_c	c	n/a
32.16	0.09	64320	keystroke_a	a	n/a
32.34	0.045	64680	keystroke_t	t	n/a
32.475	0.045	64950	keystroke_t	t	n/a
32.64	0.09	65280	keystroke_l	l	n/a
32.76	0.09	65520	keystroke_e	e	n/a
32.88	0.105	65760	keystroke_Key.space	Key.space	n/a
33.21	0.09	66420	keystroke_c	c	n/a
33.36	0.105	66720	keystroke_a	a	n/a
33.435	0.075	66870	keystroke_l	l	n/a
33.555	0.09	67110	keystroke_l	l	n/a
33.765	0.075	67530	keystroke_i	i	n/a
33.81	0.105	67620	keystroke_n	n	n/a
33.855	0.075	67710	keystroke_g	g	n/a
33.945	0.105	67890	keystroke_Key.space	Key.space	n/a
34.155	0.12	68310	keystroke_l	l	n/a
34.29	0.105	68580	keystroke_u	u	n/a
34.44	0.12	68880	keystroke_c	c	n/a
34.545	0.075	69090	keystroke_y	y	n/a
34.755	0.06	69510	keystroke_Key.enter	Key.enter	n/a
34.8215	6.686	69643	prompt	n/a	filename lexington slip graduates\n
35.4455	0.03	70891	keystroke_f	f	n/a
35.7755	0.105	71551	keystroke_i	i	n/a
35.8955	0.09	71791	keystroke_l	l	n/a
36.0005	0.09	72001	keystroke_e	e	n/a
36.2255	0.09	72451	keystroke_n	n	n/a
36.3305	0.09	72661	keystroke_a	a	n/a
36.4205	0.09	72841	keystroke_m	m	n/a
36.5405	0.075	73081	keystroke_e	e	n/a
36.6445	0.09	73289	keystroke_Key.space	Key.space	n/a
36.8995	0.105	73799	keystroke_l	l	n/a
37.2005	0.06	74401	keystroke_e	e	n/a
37.3795	0.105	74759	keystroke_x	x	n/a
37.7395	0.12	75479	keystroke_i	i	n/a
37.7995	0.09	75599	keystroke_n	n	n/a
37.9195	0.075	75839	keystroke_g	g	n/a
38.5045	0.09	77009	keystroke_t	t	n/a
38.655	0.105	77310	keystroke_o	o	n/a
38.685	0.105	77370	keystroke_n	n	n/a
38.805	0.135	77610	keystroke_Key.space	Key.space	n/a
39.076	0.104	78152	keystroke_s	s	n/a
39.165	0.09	78330	keystroke_l	l	n/a
39.225	0.135	78450	keystroke_i	i	n/a
39.375	0.09	78750	keystroke_p	p	n/a
39.57	0.1045	79140	keystroke_Key.space	Key.space	n/a
40.1855	0.075	80371	keystroke_g	g	n/a
40.3805	0.075	80761	keystroke_r	r	n/a
40.5155	0.089	81031	keystroke_a	a	n/a
40.6355	0.1045	81271	keystroke_d	d	n/a
40.71	0.12	81420	keystroke_u	u	n/a
40.845	0.09	81690	keystroke_a	a	n/a
40.995	0.075	81990	keystroke_t	t	n/a
41.055	0.075	82110	keystroke_e	e	n/a
41.265	0.075	82530	keystroke_s	s	n/a
41.49	0.015	82980	keystroke_Key.enter	Key.enter	n/a
41.513	6.9555	83026	prompt	n/a	half nudist exploring protocol\n
42.06	0.09	84120	keystroke_h	h	n/a
42.135	0.06	84270	keystroke_a	a	n/a
42.255	0.09	84510	keystroke_l	l	n/a
42.405	0.09	84810	keystroke_f	f	n/a
42.525	0.09	85050	keystroke_Key.space	Key.space	n/a
42.735	0.09	85470	keystroke_n	n	n/a
42.87	0.045	85740	keystroke_i	i	n/a
42.885	0.015	85770	keystroke_u	u	n/a
42.945	0.105	85890	keystroke_d	d	n/a
43.245	0.03	86490	keystroke_Key.backspace	Key.backspace	n/a
43.35	0.09	86700	keystroke_Key.backspace	Key.backspace	n/a
43.5	0.09	87000	keystroke_Key.backspace	Key.backspace	n/a
43.965	0.075	87930	keystroke_u	u	n/a
44.145	0.105	88290	keystroke_d	d	n/a
44.205	0.15	88410	keystroke_i	i	n/a
44.58	0.075	89160	keystroke_s	s	n/a
44.67	0.06	89340	keystroke_t	t	n/a
44.79	0.09	89580	keystroke_Key.space	Key.space	n/a
45.09	0.045	90180	keystroke_e	e	n/a
45.255	0.09	90510	keystroke_x	x	n/a
45.3	0.12	90600	keystroke_p	p	n/a
45.375	0.06	90750	keystroke_l	l	n/a
45.525	0.075	91050	keystroke_o	o	n/a
45.615	0.09	91230	keystroke_r	r	n/a
45.9	0.12	91800	keystroke_i	i	n/a
45.96	0.09	91920	keystroke_n	n	n/a
46.065	0.06	92130	keystroke_g	g	n/a
46.17	0.105	92340	keystroke_Key.space	Key.space	n/a
46.44	0.12	92880	keystroke_p	p	n/a
46.59	0.075	93180	keystroke_r	r	n/a
46.68	0.09	93360	keystroke_o	o	n/a
47.13	0.075	94260	keystroke_t	t	n/a
47.415	0.075	94830	keystroke_o	o	n/a
47.775	0.12	95550	keystroke_c	c	n/a
47.91	0.075	95820	keystroke_o	o	n/a
48.09	0.135	96180	keystroke_l	l	n/a
48.39	0.075	96780	keystroke_Key.enter	Key.enter	n/a
48.475	10.567	96950	prompt	n/a	harmony equality winter creativity\n
49.23	0.09	98460	keystroke_h	h	n/a
49.35	0.105	98700	keystroke_a	a	n/a
49.47	0.075	98940	keystroke_r	r	n/a
49.53	0.105	99060	keystroke_m	m	n/a
49.68	0.12	99360	keystroke_o	o	n/a
49.755	0.105	99510	keystroke_n	n	n/a
49.89	0.09	99780	keystroke_y	y	n/a
50.055	0.105	100110	keystroke_Key.space	Key.space	n/a
50.49	0.09	100980	keystroke_e	e	n/a
50.82	0.075	101640	keystroke_q	q	n/a
50.955	0.075	101910	keystroke_u	u	n/a
51.18	0.09	102360	keystroke_a	a	n/a
51.375	0.15	102750	keystroke_l	l	n/a
51.48	0.12	102960	keystroke_i	i	n/a
51.645	0.075	103290	keystroke_t	t	n/a
51.735	0.075	103470	keystroke_y	y	n/a
51.9	0.12	103800	keystroke_Key.space	Key.space	n/a
52.32	0.09	104640	keystroke_q	q	n/a
52.425	0.105	104850	keystroke_i	i	n/a
52.47	0.105	104940	keystroke_n	n	n/a
52.59	0.09	105180	keystroke_t	t	n/a
52.71	0.09	105420	keystroke_e	e	n/a
52.995	0.045	105990	keystroke_Key.backspace	Key.backspace	n/a
53.145	0.045	106290	keystroke_Key.backspace	Key.backspace	n/a
53.295	0.045	106590	keystroke_Key.backspace	Key.backspace	n/a
53.43	0.09	106860	keystroke_Key.backspace	Key.backspace	n/a
53.61	0.06	107220	keystroke_Key.backspace	Key.backspace	n/a
53.85	0.105	107700	keystroke_q	q	n/a
54	0.105	108000	keystroke_i	i	n/a
54.045	0.12	108090	keystroke_n	n	n/a
54.15	0.045	108300	keystroke_t	t	n/a
54.405	0.045	108810	keystroke_Key.backspace	Key.backspace	n/a
54.54	0.03	109080	keystroke_Key.backspace	Key.backspace	n/a
54.675	0.06	109350	keystroke_Key.backspace	Key.backspace	n/a
55.005	0.09	110010	keystroke_Key.backspace	Key.backspace	n/a
55.56	0.045	111120	keystroke_q	q	n/a
55.845	0.045	111690	keystroke_Key.backspace	Key.backspace	n/a
56.19	0.075	112380	keystroke_w	w	n/a
56.28	0.105	112560	keystroke_i	i	n/a
56.34	0.09	112680	keystroke_n	n	n/a
56.535	0.105	113070	keystroke_t	t	n/a
56.6995	0.09	113399	keystroke_e	e	n/a
56.7595	0.09	113519	keystroke_r	r	n/a
56.8645	0.0755	113729	keystroke_Key.space	Key.space	n/a
57.6	0.075	115200	keystroke_c	c	n/a
57.78	0.09	115560	keystroke_r	r	n/a
57.84	0.09	115680	keystroke_e	e	n/a
58.065	0.09	116130	keystroke_a	a	n/a
58.245	0.075	116490	keystroke_t	t	n/a
58.41	0.075	116820	keystroke_i	i	n/a
58.47	0.105	116940	keystroke_v	v	n/a
58.59	0.075	117180	keystroke_i	i	n/a
58.71	0.075	117420	keystroke_t	t	n/a
58.8	0.06	117600	keystroke_y	y	n/a
58.98	0.06	117960	keystroke_Key.enter	Key.enter	n/a
59.051	8.751	118102	prompt	n/a	husband bibliographic marijuana floating\n
59.715	0.105	119430	keystroke_h	h	n/a
60.045	0.12	120090	keystroke_u	u	n/a
60.15	0.09	120300	keystroke_s	s	n/a
60.525	0.075	121050	keystroke_b	b	n/a
60.601	0.089	121202	keystroke_a	a	n/a
60.72	0.105	121440	keystroke_n	n	n/a
60.945	0.09	121890	keystroke_d	d	n/a
61.125	0.105	122250	keystroke_Key.space	Key.space	n/a
61.5	0.06	123000	keystroke_b	b	n/a
61.575	0.12	123150	keystroke_i	i	n/a
61.86	0.09	123720	keystroke_b	b	n/a
62.055	0.15	124110	keystroke_l	l	n/a
62.175	0.031	124350	keystroke_i	i	n/a
62.7145	0.106	125429	keystroke_o	o	n/a
63.4655	0.074	126931	keystroke_g	g	n/a
63.6155	0.089	127231	keystroke_r	r	n/a
63.7205	0.105	127441	keystroke_a	a	n/a
63.8405	0.105	127681	keystroke_p	p	n/a
64.0355	0.09	128071	keystroke_h	h	n/a
64.0805	0.104	128161	keystroke_i	i	n/a
64.2005	0.105	128401	keystroke_c	c	n/a
64.3795	0.075	128759	keystroke_Key.space	Key.space	n/a
64.92	0.135	129840	keystroke_m	m	n/a
65.07	0.06	130140	keystroke_a	a	n/a
65.16	0.06	130320	keystroke_r	r	n/a
65.295	0.105	130590	keystroke_i	i	n/a
65.55	0.09	131100	keystroke_j	j	n/a
65.73	0.09	131460	keystroke_u	u	n/a
65.865	0.09	131730	keystroke_a	a	n/a
65.985	0.09	131970	keystroke_n	n	n/a
66.255	0.06	132510	keystroke_a	a	n/a
66.39	0.105	132780	keystroke_Key.space	Key.space	n/a
66.855	0.075	133710	keystroke_f	f	n/a
66.885	0.105	133770	keystroke_l	l	n/a
67.08	0.09	134160	keystroke_o	o	n/a
67.155	0.075	134310	keystroke_a	a	n/a
67.29	0.075	134580	keystroke_t	t	n/a
67.41	0.09	134820	keystroke_i	i	n/a
67.455	0.105	134910	keystroke_n	n	n/a
67.561	0.059	135122	keystroke_g	g	n/a
67.725	0.075	135450	keystroke_Key.enter	Key.enter	n/a
67.8085	5.3935	135617	prompt	n/a	prediction lease attacks dist\n
68.475	0.135	136950	keystroke_p	p	n/a
68.58	0.09	137160	keystroke_r	r	n/a
68.97	0.12	137940	keystroke_e	e	n/a
69.03	0.105	138060	keystroke_d	d	n/a
69.45	0.09	138900	keystroke_i	i	n/a
69.555	0.105	139110	keystroke_c	c	n/a
69.765	0.06	139530	keystroke_t	t	n/a
69.855	0.09	139710	keystroke_i	i	n/a
69.975	0.135	139950	keystroke_o	o	n/a
70.05	0.105	140100	keystroke_n	n	n/a
70.2	0.135	140400	keystroke_Key.space	Key.space	n/a
70.395	0.105	140790	keystroke_l	l	n/a
70.635	0.075	141270	keystroke_e	e	n/a
70.815	0.091	141630	keystroke_a	a	n/a
70.875	0.105	141750	keystroke_s	s	n/a
71.085	0.06	142170	keystroke_e	e	n/a
71.25	0.105	142500	keystroke_Key.space	Key.space	n/a
71.505	0.09	143010	keystroke_a	a	n/a
71.67	0.06	143340	keystroke_t	t	n/a
71.775	0.075	143550	keystroke_t	t	n/a
71.91	0.09	143820	keystroke_a	a	n/a
72.076	0.104	144152	keystroke_c	c	n/a
72.195	0.105	144390	keystroke_k	k	n/a
72.301	0.089	144602	keystroke_s	s	n/a
72.45	0.09	144900	keystroke_Key.space	Key.space	n/a
72.615	0.09	145230	keystroke_d	d	n/a
72.735	0.09	145470	keystroke_i	i	n/a
72.81	0.075	145620	keystroke_s	s	n/a
72.915	0.075	145830	keystroke_t	t	n/a
73.125	0.075	146250	keystroke_Key.enter	Key.enter	n/a
73.207	6.1295	146414	prompt	n/a	prayers saturn scout defining\n
73.83	0.106	147660	keystroke_p	p	n/a
74.055	0.105	148110	keystroke_r	r	n/a
74.22	0.105	148440	keystroke_a	a	n/a
74.475	0.105	148950	keystroke_y	y	n/a
74.625	0.09	149250	keystroke_e	e	n/a
74.67	0.12	149340	keystroke_r	r	n/a
74.835	0.105	149670	keystroke_s	s	n/a
74.97	0.09	149940	keystroke_Key.space	Key.space	n/a
75.615	0.135	151230	keystroke_s	s	n/a
75.72	0.09	151440	keystroke_t	t	n/a
76.125	0.09	152250	keystroke_Key.backspace	Key.backspace	n/a
76.2	0.06	152400	keystroke_a	a	n/a
76.335	0.075	152670	keystroke_t	t	n/a
76.471	0.074	152942	keystroke_u	u	n/a
76.65	0.09	153300	keystroke_r	r	n/a
76.755	0.075	153510	keystroke_n	n	n/a
76.92	0.12	153840	keystroke_Key.space	Key.space	n/a
77.31	0.09	154620	keystroke_s	s	n/a
77.43	0.09	154860	keystroke_c	c	n/a
77.505	0.12	155010	keystroke_o	o	n/a
77.55	0.09	155100	keystroke_u	u	n/a
77.67	0.06	155340	keystroke_t	t	n/a
77.79	0.105	155580	keystroke_Key.space	Key.space	n/a
78.135	0.091	156270	keystroke_d	d	n/a
78.255	0.06	156510	keystroke_e	e	n/a
78.346	0.089	156692	keystroke_f	f	n/a
78.571	0.119	157142	keystroke_i	i	n/a
78.631	0.119	157262	keystroke_n	n	n/a
78.975	0.105	157950	keystroke_i	i	n/a
79.035	0.091	158070	keystroke_n	n	n/a
79.11	0.075	158220	keystroke_g	g	n/a
79.245	0.09	158490	keystroke_Key.enter	Key.enter	n/a
79.3425	8.0195	158685	prompt	n/a	surge publisher savings conferences\n
79.846	0.089	159692	keystroke_s	s	n/a
80.1	0.076	160200	keystroke_y	y	n/a
80.221	0.0885	160442	keystroke_r	r	n/a
80.4295	0.075	160859	keystroke_g	g	n/a
80.4905	0.089	160981	keystroke_e	e	n/a
80.6395	0.105	161279	keystroke_Key.space	Key.space	n/a
80.9405	0.089	161881	keystroke_Key.backspace	Key.backspace	n/a
81.1495	0.045	162299	keystroke_Key.backspace	Key.backspace	n/a
81.2995	0.045	162599	keystroke_Key.backspace	Key.backspace	n/a
81.4205	0.074	162841	keystroke_Key.backspace	Key.backspace	n/a
81.5995	0.06	163199	keystroke_Key.backspace	Key.backspace	n/a
82.1245	0.09	164249	keystroke_u	u	n/a
82.2445	0.09	164489	keystroke_r	r	n/a
82.4395	0.075	164879	keystroke_g	g	n/a
82.4995	0.105	164999	keystroke_e	e	n/a
82.6195	0.105	165239	keystroke_Key.space	Key.space	n/a
83.1145	0.106	166229	keystroke_p	p	n/a
83.4595	0.075	166919	keystroke_u	u	n/a
83.6095	0.091	167219	keystroke_b	b	n/a
83.7595	0.12	167519	keystroke_l	l	n/a
83.8205	0.089	167641	keystroke_i	i	n/a
83.9545	0.09	167909	keystroke_s	s	n/a
84.0595	0.091	168119	keystroke_h	h	n/a
84.1945	0.09	168389	keystroke_e	e	n/a
84.2695	0.06	168539	keystroke_r	r	n/a
84.4495	0.09	168899	keystroke_Key.space	Key.space	n/a
84.781	0.074	169562	keystroke_s	s	n/a
84.96	0.061	169920	keystroke_a	a	n/a
85.14	0.06	170280	keystroke_v	v	n/a
85.215	0.121	170430	keystroke_i	i	n/a
85.275	0.091	170550	keystroke_n	n	n/a
85.35	0.076	170700	keystroke_g	g	n/a
85.471	0.105	170942	keystroke_s	s	n/a
85.62	0.105	171240	keystroke_Key.space	Key.space	n/a
86.0105	0.104	172021	keystroke_c	c	n/a
86.0705	0.1345	172141	keystroke_o	o	n/a
86.1295	0.091	172259	keystroke_n	n	n/a
86.2655	0.089	172531	keystroke_f	f	n/a
86.4145	0.105	172829	keystroke_e	e	n/a
86.4755	0.104	172951	keystroke_r	r	n/a
86.6255	0.089	173251	keystroke_e	e	n/a
86.8195	0.091	173639	keystroke_n	n	n/a
86.9115	0.103	173823	keystroke_c	c	n/a
86.9855	0.074	173971	keystroke_e	e	n/a
87.1345	0.105	174269	keystroke_s	s	n/a
87.2545	0.105	174509	keystroke_Key.enter	Key.enter	n/a
87.367	5.8155	174734	prompt	n/a	creations navy card elliott\n
87.8855	0.074	175771	keystroke_c	c	n/a
88.0645	0.075	176129	keystroke_r	r	n/a
88.1095	0.075	176219	keystroke_e	e	n/a
88.3055	0.074	176611	keystroke_a	a	n/a
88.4695	0.03	176939	keystroke_t	t	n/a
88.8145	0.12	177629	keystroke_i	i	n/a
89.0555	0.119	178111	keystroke_o	o	n/a
89.115	0.106	178230	keystroke_n	n	n/a
89.2045	0.105	178409	keystroke_s	s	n/a
89.325	0.075	178650	keystroke_Key.space	Key.space	n/a
89.476	0.104	178952	keystroke_n	n	n/a
89.6405	0.09	179281	keystroke_a	a	n/a
90.1055	0.105	180211	keystroke_v	v	n/a
90.2115	0.089	180423	keystroke_y	y	n/a
90.3605	0.105	180721	keystroke_Key.space	Key.space	n/a
90.751	0.074	181502	keystroke_c	c	n/a
90.9	0.105	181800	keystroke_a	a	n/a
90.99	0.075	181980	keystroke_r	r	n/a
91.17	0.075	182340	keystroke_d	d	n/a
91.29	0.09	182580	keystroke_Key.space	Key.space	n/a
91.635	0.075	183270	keystroke_e	e	n/a
91.74	0.06	183480	keystroke_l	l	n/a
91.875	0.12	183750	keystroke_l	l	n/a
91.95	0.12	183900	keystroke_i	i	n/a
92.52	0.09	185040	keystroke_o	o	n/a
92.595	0.09	185190	keystroke_t	t	n/a
92.9255	0.06	185851	keystroke_t	t	n/a
93.1055	0.075	186211	keystroke_Key.enter	Key.enter	n/a
93.188	7.374	186376	prompt	n/a	overhead clinic increasingly humidity\n
93.7205	0.105	187441	keystroke_o	o	n/a
93.8405	0.06	187681	keystroke_v	v	n/a
93.9455	0.135	187891	keystroke_e	e	n/a
94.0505	0.06	188101	keystroke_r	r	n/a
94.1555	0.09	188311	keystroke_h	h	n/a
94.2155	0.105	188431	keystroke_e	e	n/a
94.4105	0.09	188821	keystroke_a	a	n/a
94.4855	0.105	188971	keystroke_d	d	n/a
94.6355	0.105	189271	keystroke_Key.space	Key.space	n/a
94.9805	0.09	189961	keystroke_c	c	n/a
95.0405	0.135	190081	keystroke_l	l	n/a
95.1155	0.09	190231	keystroke_i	i	n/a
95.2955	0.105	190591	keystroke_n	n	n/a
95.3705	0.105	190741	keystroke_i	i	n/a
95.4605	0.12	190921	keystroke_c	c	n/a
95.6705	0.105	191341	keystroke_Key.space	Key.space	n/a
96.2405	0.105	192481	keystroke_i	i	n/a
96.2855	0.09	192571	keystroke_n	n	n/a
96.3605	0.075	192721	keystroke_c	c	n/a
96.5405	0.09	193081	keystroke_r	r	n/a
96.6155	0.075	193231	keystroke_e	e	n/a
96.7955	0.075	193591	keystroke_a	a	n/a
96.9905	0.09	193981	keystroke_s	s	n/a
97.1405	0.105	194281	keystroke_i	i	n/a
97.2015	0.089	194403	keystroke_n	n	n/a
97.3055	0.091	194611	keystroke_f	f	n/a
97.8155	0.045	195631	keystroke_Key.backspace	Key.backspace	n/a
98.0705	0.09	196141	keystroke_g	g	n/a
98.3705	0.105	196741	keystroke_l	l	n/a
98.5205	0.09	197041	keystroke_y	y	n/a
98.6705	0.105	197341	keystroke_Key.space	Key.space	n/a
98.9855	0.12	197971	keystroke_h	h	n/a
99.1355	0.105	198271	keystroke_u	u	n/a
99.2555	0.135	198511	keystroke_m	m	n/a
99.6605	0.09	199321	keystroke_i	i	n/a
99.8255	0.12	199651	keystroke_d	d	n/a
99.9755	0.135	199951	keystroke_i	i	n/a
100.1705	0.09	200341	keystroke_t	t	n/a
100.3055	0.06	200611	keystroke_y	y	n/a
100.4855	0.075	200971	keystroke_Key.enter	Key.enter	n/a
100.5665	10.8265	201133	prompt	n/a	internationally everyone's passenger bandwidth\n
101.131	0.06	202262	keystroke_i	i	n/a
101.31	0.075	202620	keystroke_n	n	n/a
101.416	0.089	202832	keystroke_t	t	n/a
101.881	0.059	203762	keystroke_e	e	n/a
101.926	0.09	203852	keystroke_r	r	n/a
102.3	0.105	204600	keystroke_n	n	n/a
102.42	0.105	204840	keystroke_a	a	n/a
102.556	0.074	205112	keystroke_t	t	n/a
102.6	0.106	205200	keystroke_i	i	n/a
102.72	0.09	205440	keystroke_o	o	n/a
102.781	0.104	205562	keystroke_n	n	n/a
102.915	0.121	205830	keystroke_a	a	n/a
103.021	0.059	206042	keystroke_l	l	n/a
103.155	0.105	206310	keystroke_l	l	n/a
103.321	0.044	206642	keystroke_y	y	n/a
103.5	0.09	207000	keystroke_Key.space	Key.space	n/a
103.801	0.06	207602	keystroke_c	c	n/a
104.16	0.045	208320	keystroke_Key.backspace	Key.backspace	n/a
104.221	0.09	208442	keystroke_e	e	n/a
104.371	0.089	208742	keystroke_v	v	n/a
104.476	0.135	208952	keystroke_e	e	n/a
104.551	0.104	209102	keystroke_r	r	n/a
104.701	0.09	209402	keystroke_y	y	n/a
104.91	0.12	209820	keystroke_o	o	n/a
104.986	0.105	209972	keystroke_n	n	n/a
105.826	0.059	211652	keystroke_e	e	n/a
105.991	0.09	211982	keystroke_'	'	n/a
106.096	0.12	212192	keystroke_s	s	n/a
106.335	0.121	212670	keystroke_Key.space	Key.space	n/a
106.966	0.105	213932	keystroke_p	p	n/a
107.086	0.09	214172	keystroke_a	a	n/a
107.131	0.105	214262	keystroke_s	s	n/a
107.311	0.075	214622	keystroke_s	s	n/a
107.551	0.059	215102	keystroke_e	e	n/a
107.626	0.09	215252	keystroke_n	n	n/a
107.761	0.045	215522	keystroke_g	g	n/a
107.851	0.105	215702	keystroke_e	e	n/a
107.911	0.09	215822	keystroke_r	r	n/a
108.075	0.105	216150	keystroke_Key.space	Key.space	n/a
108.736	0.105	217472	keystroke_b	b	n/a
108.826	0.09	217652	keystroke_a	a	n/a
108.946	0.105	217892	keystroke_n	n	n/a
109.036	0.105	218072	keystroke_d	d	n/a
109.456	0.105	218912	keystroke_i	i	n/a
109.756	0.045	219512	keystroke_Key.backspace	Key.backspace	n/a
109.786	0.09	219572	keystroke_w	w	n/a
109.936	0.105	219872	keystroke_i	i	n/a
110.086	0.105	220172	keystroke_f	f	n/a
110.356	0.06	220712	keystroke_t	t	n/a
110.596	0.045	221192	keystroke_Key.backspace	Key.backspace	n/a
110.716	0.089	221432	keystroke_Key.backspace	Key.backspace	n/a
110.791	0.12	221582	keystroke_d	d	n/a
111.046	0.06	222092	keystroke_t	t	n/a
111.121	0.075	222242	keystroke_h	h	n/a
111.301	0.09	222602	keystroke_Key.enter	Key.enter	n/a
111.3995	5.183	222799	prompt	n/a	dial fork nutritional medicare\n
111.916	0.105	223832	keystroke_d	d	n/a
111.961	0.105	223922	keystroke_i	i	n/a
112.141	0.105	224282	keystroke_a	a	n/a
112.231	0.09	224462	keystroke_l	l	n/a
112.411	0.105	224822	keystroke_Key.space	Key.space	n/a
112.636	0.075	225272	keystroke_f	f	n/a
112.726	0.075	225452	keystroke_o	o	n/a
112.816	0.075	225632	keystroke_r	r	n/a
112.906	0.12	225812	keystroke_k	k	n/a
113.056	0.12	226112	keystroke_Key.space	Key.space	n/a
113.236	0.135	226472	keystroke_n	n	n/a
113.386	0.09	226772	keystroke_u	u	n/a
113.536	0.075	227072	keystroke_t	t	n/a
113.731	0.09	227462	keystroke_r	r	n/a
113.851	0.09	227702	keystroke_i	i	n/a
114.121	0.06	228242	keystroke_t	t	n/a
114.196	0.075	228392	keystroke_i	i	n/a
114.286	0.105	228572	keystroke_o	o	n/a
114.346	0.105	228692	keystroke_n	n	n/a
114.511	0.12	229022	keystroke_a	a	n/a
114.646	0.075	229292	keystroke_l	l	n/a
114.795	0.121	229590	keystroke_Key.space	Key.space	n/a
115.336	0.12	230672	keystroke_m	m	n/a
115.486	0.12	230972	keystroke_e	e	n/a
115.591	0.105	231182	keystroke_d	d	n/a
115.666	0.09	231332	keystroke_i	i	n/a
115.816	0.09	231632	keystroke_c	c	n/a
115.996	0.075	231992	keystroke_a	a	n/a
116.116	0.12	232232	keystroke_r	r	n/a
116.221	0.105	232442	keystroke_e	e	n/a
116.506	0.075	233012	keystroke_Key.enter	Key.enter	n/a
116.5875	10.6605	233175	prompt	n/a	deficit numerical journey pulse\n
117.061	0.105	234122	keystroke_d	d	n/a
117.256	0.09	234512	keystroke_e	e	n/a
117.331	0.09	234662	keystroke_f	f	n/a
117.496	0.09	234992	keystroke_i	i	n/a
117.7065	0.075	235413	keystroke_c	c	n/a
117.8415	0.09	235683	keystroke_i	i	n/a
117.9755	0.076	235951	keystroke_t	t	n/a
118.1105	0.12	236221	keystroke_Key.space	Key.space	n/a
118.3665	0.105	236733	keystroke_n	n	n/a
118.4865	0.12	236973	keystroke_u	u	n/a
118.6365	0.15	237273	keystroke_m	m	n/a
119.1305	0.106	238261	keystroke_e	e	n/a
119.2215	0.075	238443	keystroke_r	r	n/a
119.4615	0.105	238923	keystroke_i	i	n/a
119.6565	0.105	239313	keystroke_c	c	n/a
119.8365	0.105	239673	keystroke_a	a	n/a
119.9565	0.06	239913	keystroke_l	l	n/a
120.1805	0.12	240361	keystroke_Key.space	Key.space	n/a
120.946	0.0895	241892	keystroke_h	h	n/a
121.1255	0.12	242251	keystroke_o	o	n/a
121.1705	0.09	242341	keystroke_u	u	n/a
121.4555	0.06	242911	keystroke_Key.backspace	Key.backspace	n/a
121.6055	0.075	243211	keystroke_Key.backspace	Key.backspace	n/a
121.7405	0.105	243481	keystroke_Key.backspace	Key.backspace	n/a
122.2815	0.089	244563	keystroke_j	j	n/a
122.4155	0.105	244831	keystroke_o	o	n/a
122.4755	0.091	244951	keystroke_u	u	n/a
122.6555	0.09	245311	keystroke_n	n	n/a
122.8055	0.076	245611	keystroke_r	r	n/a
123.3455	0.06	246691	keystroke_Key.backspace	Key.backspace	n/a
123.4955	0.06	246991	keystroke_Key.backspace	Key.backspace	n/a
123.5565	0.075	247113	keystroke_r	r	n/a
123.6605	0.106	247321	keystroke_n	n	n/a
123.8115	0.104	247623	keystroke_e	e	n/a
123.9305	0.076	247861	keystroke_y	y	n/a
124.0955	0.12	248191	keystroke_Key.space	Key.space	n/a
124.4715	0.059	248943	keystroke_l	l	n/a
124.8455	0.075	249691	keystroke_Key.backspace	Key.backspace	n/a
125.0715	0.119	250143	keystroke_o	o	n/a
125.1455	0.12	250291	keystroke_u	u	n/a
125.3265	0.044	250653	keystroke_l	l	n/a
125.6405	0.06	251281	keystroke_Key.backspace	Key.backspace	n/a
125.7605	0.06	251521	keystroke_Key.backspace	Key.backspace	n/a
125.8965	0.074	251793	keystroke_Key.backspace	Key.backspace	n/a
126.4215	0.074	252843	keystroke_p	p	n/a
126.6155	0.1355	253231	keystroke_u	u	n/a
126.751	0.09	253502	keystroke_l	l	n/a
126.856	0.075	253712	keystroke_s	s	n/a
127.036	0.075	254072	keystroke_e	e	n/a
127.141	0.105	254282	keystroke_Key.enter	Key.enter	n/a
127.254	7.8535	254508	prompt	n/a	conducted week handled categories\n
127.906	0.09	255812	keystroke_c	c	n/a
127.966	0.135	255932	keystroke_o	o	n/a
128.041	0.09	256082	keystroke_u	u	n/a
128.251	0.09	256502	keystroke_n	n	n/a
128.566	0.06	257132	keystroke_Key.backspace	Key.backspace	n/a
128.7015	0.075	257403	keystroke_Key.backspace	Key.backspace	n/a
128.8365	0.12	257673	keystroke_n	n	n/a
128.9415	0.105	257883	keystroke_d	d	n/a
129.1065	0.09	258213	keystroke_u	u	n/a
129.2115	0.105	258423	keystroke_c	c	n/a
129.4065	0.075	258813	keystroke_t	t	n/a
129.5715	0.12	259143	keystroke_e	e	n/a
129.6765	0.06	259353	keystroke_d	d	n/a
129.7665	0.09	259533	keystroke_Key.space	Key.space	n/a
130.0065	0.09	260013	keystroke_w	w	n/a
130.0665	0.075	260133	keystroke_e	e	n/a
130.2315	0.045	260463	keystroke_e	e	n/a
130.3065	0.105	260613	keystroke_k	k	n/a
130.771	0.12	261542	keystroke_Key.space	Key.space	n/a
131.116	0.075	262232	keystroke_h	h	n/a
131.221	0.105	262442	keystroke_a	a	n/a
131.341	0.105	262682	keystroke_n	n	n/a
131.461	0.06	262922	keystroke_d	d	n/a
131.641	0.075	263282	keystroke_l	l	n/a
131.971	0.09	263942	keystroke_e	e	n/a
132.016	0.105	264032	keystroke_d	d	n/a
132.151	0.105	264302	keystroke_Key.space	Key.space	n/a
133.291	0.105	266582	keystroke_c	c	n/a
133.486	0.09	266972	keystroke_a	a	n/a
133.771	0.09	267542	keystroke_t	t	n/a
133.846	0.105	267692	keystroke_e	e	n/a
134.266	0.12	268532	keystroke_g	g	n/a
134.431	0.105	268862	keystroke_o	o	n/a
134.521	0.09	269042	keystroke_r	r	n/a
134.671	0.09	269342	keystroke_i	i	n/a
134.762	0.059	269524	keystroke_e	e	n/a
134.911	0.075	269822	keystroke_s	s	n/a
135.031	0.075	270062	keystroke_Key.enter	Key.enter	n/a
135.115	6.938	270230	prompt	n/a	jersey platforms options regulatory\n
135.976	0.12	271952	keystroke_e	e	n/a
136.306	0.045	272612	keystroke_Key.backspace	Key.backspace	n/a
136.397	0.134	272794	keystroke_j	j	n/a
136.561	0.09	273122	keystroke_e	e	n/a
136.816	0.075	273632	keystroke_r	r	n/a
137.026	0.075	274052	keystroke_s	s	n/a
137.206	0.06	274412	keystroke_e	e	n/a
137.281	0.09	274562	keystroke_y	y	n/a
137.446	0.105	274892	keystroke_Key.space	Key.space	n/a
137.716	0.135	275432	keystroke_p	p	n/a
137.791	0.106	275582	keystroke_l	l	n/a
137.911	0.106	275822	keystroke_a	a	n/a
138.091	0.075	276182	keystroke_t	t	n/a
138.301	0.06	276602	keystroke_f	f	n/a
138.376	0.105	276752	keystroke_o	o	n/a
138.482	0.074	276964	keystroke_r	r	n/a
138.586	0.105	277172	keystroke_m	m	n/a
138.676	0.09	277352	keystroke_s	s	n/a
138.781	0.1055	277562	keystroke_Key.space	Key.space	n/a
139.2465	0.135	278493	keystroke_o	o	n/a
139.3665	0.105	278733	keystroke_p	p	n/a
139.4865	0.09	278973	keystroke_t	t	n/a
139.5615	0.075	279123	keystroke_i	i	n/a
139.6665	0.12	279333	keystroke_o	o	n/a
139.7265	0.09	279453	keystroke_n	n	n/a
139.8015	0.09	279603	keystroke_s	s	n/a
139.9365	0.105	279873	keystroke_Key.space	Key.space	n/a
140.3265	0.105	280653	keystroke_r	r	n/a
140.4915	0.09	280983	keystroke_e	e	n/a
140.6715	0.06	281343	keystroke_g	g	n/a
140.7165	0.135	281433	keystroke_u	u	n/a
140.8065	0.09	281613	keystroke_l	l	n/a
140.9115	0.105	281823	keystroke_a	a	n/a
141.2865	0.075	282573	keystroke_t	t	n/a
141.4065	0.12	282813	keystroke_o	o	n/a
141.5715	0.09	283143	keystroke_r	r	n/a
141.7515	0.075	283503	keystroke_y	y	n/a
141.9915	0.06	283983	keystroke_Key.enter	Key.enter	n/a
142.059	7.2395	284118	prompt	n/a	continued disks identifier beverages\n
142.5615	0.12	285123	keystroke_c	c	n/a
142.8465	0.15	285693	keystroke_o	o	n/a
143.0115	0.105	286023	keystroke_n	n	n/a
143.2365	0.06	286473	keystroke_t	t	n/a
143.3565	0.105	286713	keystroke_i	i	n/a
143.4315	0.105	286863	keystroke_n	n	n/a
143.5815	0.09	287163	keystroke_u	u	n/a
143.6865	0.12	287373	keystroke_e	e	n/a
143.7465	0.12	287493	keystroke_d	d	n/a
143.8815	0.075	287763	keystroke_Key.space	Key.space	n/a
144.3915	0.09	288783	keystroke_d	d	n/a
144.4665	0.075	288933	keystroke_i	i	n/a
144.5565	0.09	289113	keystroke_s	s	n/a
144.6615	0.09	289323	keystroke_k	k	n/a
144.7965	0.09	289593	keystroke_s	s	n/a
144.9915	0.105	289983	keystroke_Key.space	Key.space	n/a
145.2915	0.12	290583	keystroke_i	i	n/a
145.6365	0.09	291273	keystroke_d	d	n/a
145.7565	0.075	291513	keystroke_e	e	n/a
145.8615	0.105	291723	keystroke_n	n	n/a
146.1615	0.075	292323	keystroke_t	t	n/a
146.3115	0.09	292623	keystroke_i	i	n/a
146.4915	0.09	292983	keystroke_f	f	n/a
146.7315	0.075	293463	keystroke_i	i	n/a
146.9115	0.09	293823	keystroke_e	e	n/a
147.0165	0.075	294033	keystroke_r	r	n/a
147.1965	0.105	294393	keystroke_Key.space	Key.space	n/a
147.7515	0.09	295503	keystroke_b	b	n/a
147.7965	0.09	295593	keystroke_e	e	n/a
147.9915	0.06	295983	keystroke_v	v	n/a
148.0965	0.105	296193	keystroke_e	e	n/a
148.1715	0.09	296343	keystroke_r	r	n/a
148.5015	0.075	297003	keystroke_a	a	n/a
148.6515	0.075	297303	keystroke_g	g	n/a
148.7415	0.045	297483	keystroke_e	e	n/a
148.8915	0.09	297783	keystroke_s	s	n/a
149.1915	0.105	298383	keystroke_Key.enter	Key.enter	n/a
149.307	6.862	298614	prompt	n/a	discover locally chile concerts\n
149.9115	0.09	299823	keystroke_d	d	n/a
149.9715	0.09	299943	keystroke_i	i	n/a
150.0765	0.075	300153	keystroke_s	s	n/a
150.1965	0.105	300393	keystroke_c	c	n/a
150.3615	0.09	300723	keystroke_o	o	n/a
150.5115	0.06	301023	keystroke_v	v	n/a
150.6165	0.09	301233	keystroke_e	e	n/a
150.6765	0.075	301353	keystroke_r	r	n/a
150.8265	0.09	301653	keystroke_Key.space	Key.space	n/a
151.4415	0.09	302883	keystroke_l	l	n/a
151.6215	0.075	303243	keystroke_o	o	n/a
151.6815	0.09	303363	keystroke_c	c	n/a
151.8165	0.09	303633	keystroke_a	a	n/a
151.8915	0.03	303783	keystroke_l	l	n/a
152.1015	0.015	304203	keystroke_l	l	n/a
152.1315	0.06	304263	keystroke_y	y	n/a
152.2965	0.105	304593	keystroke_Key.space	Key.space	n/a
152.7015	0.09	305403	keystroke_c	c	n/a
152.8065	0.09	305613	keystroke_h	h	n/a
153.0015	0.105	306003	keystroke_i	i	n/a
153.0765	0.105	306153	keystroke_l	l	n/a
153.1965	0.075	306393	keystroke_e	e	n/a
153.3465	0.105	306693	keystroke_Key.space	Key.space	n/a
153.6015	0.075	307203	keystroke_a	a	n/a
153.8565	0.06	307713	keystroke_Key.backspace	Key.backspace	n/a
153.9465	0.09	307893	keystroke_c	c	n/a
154.0515	0.09	308103	keystroke_i	i	n/a
154.0965	0.12	308193	keystroke_n	n	n/a
154.4865	0.045	308973	keystroke_Key.backspace	Key.backspace	n/a
154.6215	0.06	309243	keystroke_Key.backspace	Key.backspace	n/a
154.8165	0.1055	309633	keystroke_o	o	n/a
154.8765	0.105	309753	keystroke_n	n	n/a
154.9515	0.105	309903	keystroke_c	c	n/a
155.1165	0.135	310233	keystroke_e	e	n/a
155.2815	0.09	310563	keystroke_n	n	n/a
155.5965	0.075	311193	keystroke_Key.backspace	Key.backspace	n/a
155.6865	0.09	311373	keystroke_r	r	n/a
155.8665	0.075	311733	keystroke_t	t	n/a
155.9565	0.09	311913	keystroke_s	s	n/a
156.0915	0.075	312183	keystroke_Key.enter	Key.enter	n/a
156.1735	7.03	312347	prompt	n/a	trivia hopkins josh disclosure\n
156.826	0.045	313652	keystroke_t	t	n/a
156.961	0.105	313922	keystroke_r	r	n/a
157.051	0.09	314102	keystroke_i	i	n/a
157.186	0.075	314372	keystroke_v	v	n/a
157.231	0.105	314462	keystroke_i	i	n/a
157.426	0.105	314852	keystroke_a	a	n/a
157.576	0.105	315152	keystroke_Key.space	Key.space	n/a
158.056	0.075	316112	keystroke_h	h	n/a
158.281	0.15	316562	keystroke_o	o	n/a
158.371	0.105	316742	keystroke_p	p	n/a
159.076	0.091	318152	keystroke_k	k	n/a
159.211	0.135	318422	keystroke_i	i	n/a
159.302	0.105	318604	keystroke_n	n	n/a
159.391	0.106	318782	keystroke_s	s	n/a
159.526	0.09	319052	keystroke_Key.space	Key.space	n/a
159.857	0.119	319714	keystroke_j	j	n/a
159.961	0.105	319922	keystroke_o	o	n/a
160.111	0.09	320222	keystroke_s	s	n/a
160.216	0.075	320432	keystroke_h	h	n/a
160.411	0.105	320822	keystroke_Key.space	Key.space	n/a
160.6965	0.105	321393	keystroke_d	d	n/a
160.8465	0.12	321693	keystroke_i	i	n/a
161.1015	0.105	322203	keystroke_s	s	n/a
161.3265	0.12	322653	keystroke_c	c	n/a
161.4615	0.075	322923	keystroke_l	l	n/a
161.6415	0.105	323283	keystroke_o	o	n/a
161.7015	0.09	323403	keystroke_u	u	n/a
161.8665	0.09	323733	keystroke_s	s	n/a
162.3165	0.045	324633	keystroke_Key.backspace	Key.backspace	n/a
162.4365	0.09	324873	keystroke_Key.backspace	Key.backspace	n/a
162.5565	0.105	325113	keystroke_s	s	n/a
162.7065	0.09	325413	keystroke_u	u	n/a
162.8865	0.105	325773	keystroke_r	r	n/a
162.9765	0.075	325953	keystroke_e	e	n/a
163.1115	0.09	326223	keystroke_Key.enter	Key.enter	n/a
163.209	7.2545	326418	prompt	n/a	combinations disposal could've daddy\n
163.8015	0.12	327603	keystroke_c	c	n/a
164.0265	0.165	328053	keystroke_o	o	n/a
164.3115	0.105	328623	keystroke_m	m	n/a
164.5365	0.075	329073	keystroke_b	b	n/a
164.6715	0.135	329343	keystroke_i	i	n/a
164.7615	0.135	329523	keystroke_n	n	n/a
164.9415	0.105	329883	keystroke_a	a	n/a
165.0615	0.09	330123	keystroke_t	t	n/a
165.1365	0.09	330273	keystroke_i	i	n/a
165.3015	0.12	330603	keystroke_o	o	n/a
165.3765	0.09	330753	keystroke_n	n	n/a
165.4815	0.075	330963	keystroke_s	s	n/a
165.5865	0.09	331173	keystroke_Key.space	Key.space	n/a
165.7515	0.09	331503	keystroke_d	d	n/a
165.8565	0.09	331713	keystroke_i	i	n/a
165.9765	0.09	331953	keystroke_s	s	n/a
166.0965	0.12	332193	keystroke_p	p	n/a
166.1415	0.135	332283	keystroke_l	l	n/a
166.4415	0.105	332883	keystroke_Key.backspace	Key.backspace	n/a
166.6215	0.105	333243	keystroke_o	o	n/a
166.7565	0.09	333513	keystroke_s	s	n/a
166.9665	0.09	333933	keystroke_a	a	n/a
167.0715	0.09	334143	keystroke_l	l	n/a
167.2515	0.09	334503	keystroke_Key.space	Key.space	n/a
167.5965	0.045	335193	keystroke_c	c	n/a
167.6425	0.104	335285	keystroke_o	o	n/a
167.7165	0.075	335433	keystroke_u	u	n/a
167.8515	0.075	335703	keystroke_l	l	n/a
167.9415	0.105	335883	keystroke_d	d	n/a
168.5865	0.105	337173	keystroke_'	'	n/a
168.7815	0.0745	337563	keystroke_v	v	n/a
168.932	0.06	337864	keystroke_e	e	n/a
169.186	0.09	338372	keystroke_Key.space	Key.space	n/a
169.471	0.061	338942	keystroke_d	d	n/a
169.712	0.104	339424	keystroke_a	a	n/a
169.831	0.09	339662	keystroke_d	d	n/a
170.011	0.075	340022	keystroke_d	d	n/a
170.146	0.105	340292	keystroke_y	y	n/a
170.401	0.06	340802	keystroke_Key.enter	Key.enter	n/a
170.47	7.478	340940	prompt	n/a	arthritis connectivity trails organisms\n
170.972	0.09	341944	keystroke_a	a	n/a
171.122	0.09	342244	keystroke_r	r	n/a
171.302	0.075	342604	keystroke_t	t	n/a
171.362	0.104	342724	keystroke_h	h	n/a
171.931	0.076	343862	keystroke_r	r	n/a
172.051	0.09	344102	keystroke_i	i	n/a
172.201	0.076	344402	keystroke_t	t	n/a
172.292	0.06	344584	keystroke_i	i	n/a
172.381	0.091	344762	keystroke_s	s	n/a
172.516	0.105	345032	keystroke_Key.space	Key.space	n/a
173.026	0.091	346052	keystroke_c	c	n/a
173.101	0.09	346202	keystroke_o	o	n/a
173.162	0.075	346324	keystroke_n	n	n/a
173.281	0.075	346562	keystroke_n	n	n/a
173.402	0.09	346804	keystroke_e	e	n/a
173.462	0.104	346924	keystroke_c	c	n/a
173.672	0.075	347344	keystroke_t	t	n/a
173.762	0.089	347524	keystroke_i	i	n/a
173.912	0.075	347824	keystroke_v	v	n/a
174.436	0.09	348872	keystroke_i	i	n/a
174.496	0.09	348992	keystroke_t	t	n/a
174.676	0.075	349352	keystroke_y	y	n/a
174.826	0.135	349652	keystroke_Key.space	Key.space	n/a
175.201	0.075	350402	keystroke_t	t	n/a
175.351	0.105	350702	keystroke_r	r	n/a
175.501	0.105	351002	keystroke_a	a	n/a
175.561	0.135	351122	keystroke_i	i	n/a
175.636	0.09	351272	keystroke_l	l	n/a
175.786	0.06	351572	keystroke_s	s	n/a
175.966	0.09	351932	keystroke_Key.space	Key.space	n/a
176.311	0.105	352622	keystroke_o	o	n/a
176.431	0.075	352862	keystroke_r	r	n/a
176.641	0.045	353282	keystroke_g	g	n/a
176.806	0.075	353612	keystroke_a	a	n/a
177.091	0.105	354182	keystroke_n	n	n/a
177.226	0.12	354452	keystroke_i	i	n/a
177.406	0.09	354812	keystroke_s	s	n/a
177.511	0.09	355022	keystroke_m	m	n/a
177.691	0.06	355382	keystroke_s	s	n/a
177.871	0.075	355742	keystroke_Key.enter	Key.enter	n/a
177.953	6.895	355906	prompt	n/a	mainstream herb casual readily\n
178.666	0.105	357332	keystroke_m	m	n/a
178.801	0.105	357602	keystroke_a	a	n/a
178.921	0.105	357842	keystroke_i	i	n/a
178.981	0.09	357962	keystroke_n	n	n/a
179.431	0.09	358862	keystroke_s	s	n/a
179.536	0.09	359072	keystroke_t	t	n/a
179.686	0.135	359372	keystroke_r	r	n/a
179.776	0.105	359552	keystroke_e	e	n/a
180.016	0.09	360032	keystroke_a	a	n/a
180.122	0.104	360244	keystroke_m	m	n/a
180.361	0.1205	360722	keystroke_Key.space	Key.space	n/a
180.646	0.075	361292	keystroke_h	h	n/a
180.737	0.105	361474	keystroke_e	e	n/a
180.811	0.09	361622	keystroke_r	r	n/a
180.871	0.075	361742	keystroke_b	b	n/a
181.171	0.06	362342	keystroke_Key.space	Key.space	n/a
181.381	0.105	362762	keystroke_c	c	n/a
181.546	0.105	363092	keystroke_a	a	n/a
181.576	0.135	363152	keystroke_s	s	n/a
181.696	0.105	363392	keystroke_u	u	n/a
181.816	0.105	363632	keystroke_a	a	n/a
181.951	0.091	363902	keystroke_l	l	n/a
182.221	0.0905	364442	keystroke_Key.space	Key.space	n/a
182.491	0.105	364982	keystroke_r	r	n/a
182.566	0.1505	365132	keystroke_e	e	n/a
182.7015	0.12	365403	keystroke_d	d	n/a
183.0765	0.09	366153	keystroke_Key.backspace	Key.backspace	n/a
183.1365	0.09	366273	keystroke_a	a	n/a
183.2115	0.105	366423	keystroke_d	d	n/a
183.3165	0.135	366633	keystroke_i	i	n/a
183.4525	0.074	366905	keystroke_l	l	n/a
184.3515	0.135	368703	keystroke_y	y	n/a
184.757	0.09	369514	keystroke_Key.enter	Key.enter	n/a
184.8525	5.381	369705	prompt	n/a	seen polish moms wayne\n
185.417	0.075	370834	keystroke_s	s	n/a
185.582	0.075	371164	keystroke_e	e	n/a
185.717	0.075	371434	keystroke_e	e	n/a
185.807	0.09	371614	keystroke_n	n	n/a
186.017	0.12	372034	keystroke_Key.space	Key.space	n/a
186.257	0.165	372514	keystroke_p	p	n/a
186.407	0.045	372814	keystroke_o	o	n/a
186.7515	0.075	373503	keystroke_Key.backspace	Key.backspace	n/a
187.0215	0.105	374043	keystroke_o	o	n/a
187.2315	0.105	374463	keystroke_l	l	n/a
187.4715	0.09	374943	keystroke_i	i	n/a
187.6065	0.12	375213	keystroke_s	s	n/a
187.7415	0.075	375483	keystroke_h	h	n/a
187.9515	0.09	375903	keystroke_Key.space	Key.space	n/a
188.2815	0.12	376563	keystroke_m	m	n/a
188.4615	0.12	376923	keystroke_o	o	n/a
188.5215	0.1055	377043	keystroke_m	m	n/a
188.762	0.12	377524	keystroke_s	s	n/a
188.957	0.075	377914	keystroke_Key.space	Key.space	n/a
189.212	0.075	378424	keystroke_w	w	n/a
189.392	0.06	378784	keystroke_a	a	n/a
189.557	0.045	379114	keystroke_y	y	n/a
189.632	0.09	379264	keystroke_n	n	n/a
189.992	0.075	379984	keystroke_e	e	n/a
190.157	0.074	380314	keystroke_Key.enter	Key.enter	n/a
190.2385	12.055	380477	prompt	n/a	checklist essays entrepreneur edgar\n
190.7865	0.12	381573	keystroke_c	c	n/a
191.0265	0.075	382053	keystroke_h	h	n/a
191.1465	0.09	382293	keystroke_c	c	n/a
191.3715	0.075	382743	keystroke_e	e	n/a
191.5065	0.015	383013	keystroke_k	k	n/a
191.5365	0.015	383073	keystroke_k	k	n/a
191.7165	0.06	383433	keystroke_Key.backspace	Key.backspace	n/a
191.8665	0.06	383733	keystroke_Key.backspace	Key.backspace	n/a
191.9865	0.09	383973	keystroke_Key.backspace	Key.backspace	n/a
192.0915	0.105	384183	keystroke_e	e	n/a
192.2715	0.075	384543	keystroke_c	c	n/a
192.4515	0.165	384903	keystroke_Key.backspace	Key.backspace	n/a
192.6915	0.135	385383	keystroke_Key.backspace	Key.backspace	n/a
193.0965	0.105	386193	keystroke_Key.backspace	Key.backspace	n/a
193.2765	0.12	386553	keystroke_e	e	n/a
193.3665	0.105	386733	keystroke_c	c	n/a
193.5165	0.075	387033	keystroke_h	h	n/a
193.9365	0.09	387873	keystroke_Key.backspace	Key.backspace	n/a
194.0415	0.09	388083	keystroke_k	k	n/a
194.3565	0.12	388713	keystroke_l	l	n/a
194.4015	0.105	388803	keystroke_i	i	n/a
194.5215	0.09	389043	keystroke_s	s	n/a
194.5965	0.075	389193	keystroke_t	t	n/a
194.7315	0.105	389463	keystroke_Key.space	Key.space	n/a
194.8815	0.075	389763	keystroke_e	e	n/a
195.0615	0.06	390123	keystroke_s	s	n/a
195.1965	0.06	390393	keystroke_s	s	n/a
195.3615	0.06	390723	keystroke_a	a	n/a
195.4225	0.074	390845	keystroke_y	y	n/a
195.5415	0.075	391083	keystroke_s	s	n/a
195.6465	0.12	391293	keystroke_Key.space	Key.space	n/a
196.1265	0.09	392253	keystroke_d	d	n/a
196.3515	0.06	392703	keystroke_Key.backspace	Key.backspace	n/a
196.4265	0.09	392853	keystroke_e	e	n/a
196.5315	0.12	393063	keystroke_n	n	n/a
196.6665	0.06	393333	keystroke_t	t	n/a
198.032	0.105	396064	keystroke_r	r	n/a
198.092	0.09	396184	keystroke_e	e	n/a
198.242	0.09	396484	keystroke_p	p	n/a
199.232	0.105	398464	keystroke_r	r	n/a
199.322	0.09	398644	keystroke_e	e	n/a
199.487	0.105	398974	keystroke_n	n	n/a
199.922	0.09	399844	keystroke_u	u	n/a
200.027	0.12	400054	keystroke_e	e	n/a
200.162	0.09	400324	keystroke_r	r	n/a
200.296	0.105	400592	keystroke_Key.space	Key.space	n/a
201.077	0.12	402154	keystroke_e	e	n/a
201.317	0.09	402634	keystroke_d	d	n/a
201.512	0.075	403024	keystroke_g	g	n/a
201.602	0.015	403204	keystroke_e	e	n/a
201.872	0.104	403744	keystroke_Key.backspace	Key.backspace	n/a
201.992	0.09	403984	keystroke_a	a	n/a
202.067	0.09	404134	keystroke_r	r	n/a
202.217	0.075	404434	keystroke_Key.enter	Key.enter	n/a
202.299	4.21	404598	prompt	n/a	rand choosing moss belkin\n
203.057	0.045	406114	keystroke_r	r	n/a
203.192	0.09	406384	keystroke_a	a	n/a
203.267	0.075	406534	keystroke_n	n	n/a
203.357	0.09	406714	keystroke_d	d	n/a
203.477	0.06	406954	keystroke_Key.space	Key.space	n/a
203.717	0.105	407434	keystroke_c	c	n/a
203.807	0.075	407614	keystroke_h	h	n/a
203.927	0.075	407854	keystroke_o	o	n/a
204.062	0.09	408124	keystroke_o	o	n/a
204.182	0.105	408364	keystroke_s	s	n/a
204.302	0.09	408604	keystroke_i	i	n/a
204.332	0.105	408664	keystroke_n	n	n/a
204.452	0.06	408904	keystroke_g	g	n/a
204.542	0.075	409084	keystroke_Key.space	Key.space	n/a
204.707	0.105	409414	keystroke_m	m	n/a
204.797	0.0895	409594	keystroke_o	o	n/a
204.8265	0.075	409653	keystroke_s	s	n/a
204.9915	0.075	409983	keystroke_s	s	n/a
205.1865	0.105	410373	keystroke_Key.space	Key.space	n/a
205.4865	0.09	410973	keystroke_b	b	n/a
205.5915	0.09	411183	keystroke_e	e	n/a
205.6965	0.09	411393	keystroke_l	l	n/a
205.9215	0.12	411843	keystroke_k	k	n/a
206.1465	0.09	412293	keystroke_i	i	n/a
206.2065	0.075	412413	keystroke_n	n	n/a
206.4315	0.075	412863	keystroke_Key.enter	Key.enter	n/a
206.5145	8.3785	413029	prompt	n/a	murder wallet upgrades purchases\n
207.0615	0.12	414123	keystroke_m	m	n/a
207.3015	0.105	414603	keystroke_u	u	n/a
207.3925	0.089	414785	keystroke_r	r	n/a
207.6015	0.075	415203	keystroke_d	d	n/a
207.6915	0.12	415383	keystroke_e	e	n/a
207.7665	0.09	415533	keystroke_r	r	n/a
207.8715	0.075	415743	keystroke_Key.space	Key.space	n/a
208.0065	0.075	416013	keystroke_w	w	n/a
208.1265	0.045	416253	keystroke_l	l	n/a
208.4565	0.045	416913	keystroke_Key.backspace	Key.backspace	n/a
208.4865	0.091	416973	keystroke_a	a	n/a
208.6375	0.059	417275	keystroke_l	l	n/a
208.7715	0.105	417543	keystroke_l	l	n/a
208.8615	0.09	417723	keystroke_e	e	n/a
209.0865	0.09	418173	keystroke_Key.space	Key.space	n/a
209.3715	0.075	418743	keystroke_Key.backspace	Key.backspace	n/a
209.4315	0.09	418863	keystroke_t	t	n/a
209.5815	0.135	419163	keystroke_Key.space	Key.space	n/a
210.0315	0.06	420063	keystroke_u	u	n/a
210.1365	0.09	420273	keystroke_p	p	n/a
210.4365	0.06	420873	keystroke_r	r	n/a
210.676	0.075	421352	keystroke_Key.backspace	Key.backspace	n/a
210.722	0.075	421444	keystroke_f	f	n/a
210.886	0.076	421772	keystroke_r	r	n/a
210.991	0.121	421982	keystroke_a	a	n/a
211.321	0.046	422642	keystroke_Key.backspace	Key.backspace	n/a
211.456	0.045	422912	keystroke_Key.backspace	Key.backspace	n/a
211.576	0.075	423152	keystroke_Key.backspace	Key.backspace	n/a
211.667	0.045	423334	keystroke_g	g	n/a
212.042	0.09	424084	keystroke_r	r	n/a
212.192	0.104	424384	keystroke_a	a	n/a
212.372	0.12	424744	keystroke_d	d	n/a
212.477	0.075	424954	keystroke_e	e	n/a
212.6415	0.09	425283	keystroke_s	s	n/a
212.7615	0.075	425523	keystroke_Key.space	Key.space	n/a
213.4065	0.12	426813	keystroke_p	p	n/a
213.5415	0.105	427083	keystroke_u	u	n/a
213.6615	0.075	427323	keystroke_r	r	n/a
213.9015	0.09	427803	keystroke_c	c	n/a
214.0365	0.12	428073	keystroke_h	h	n/a
214.1715	0.105	428343	keystroke_a	a	n/a
214.2315	0.105	428463	keystroke_s	s	n/a
214.4565	0.06	428913	keystroke_e	e	n/a
214.6365	0.06	429273	keystroke_s	s	n/a
214.7865	0.105	429573	keystroke_Key.enter	Key.enter	n/a
214.8995	6.894	429799	prompt	n/a	transformation mouth metallic charlie\n
215.5065	0.075	431013	keystroke_t	t	n/a
215.6875	0.059	431375	keystroke_r	r	n/a
215.8065	0.12	431613	keystroke_a	a	n/a
215.9415	0.075	431883	keystroke_n	n	n/a
216.1515	0.06	432303	keystroke_s	s	n/a
216.3915	0.06	432783	keystroke_f	f	n/a
216.812	0.105	433624	keystroke_o	o	n/a
216.872	0.1045	433744	keystroke_m	m	n/a
216.9925	0.044	433985	keystroke_r	r	n/a
217.2765	0.045	434553	keystroke_Key.backspace	Key.backspace	n/a
217.3815	0.075	434763	keystroke_Key.backspace	Key.backspace	n/a
217.4715	0.075	434943	keystroke_r	r	n/a
217.5625	0.089	435125	keystroke_m	m	n/a
217.6815	0.105	435363	keystroke_a	a	n/a
217.8315	0.076	435663	keystroke_t	t	n/a
217.9215	0.09	435843	keystroke_i	i	n/a
218.0565	0.12	436113	keystroke_o	o	n/a
218.1175	0.089	436235	keystroke_n	n	n/a
218.2665	0.105	436533	keystroke_Key.space	Key.space	n/a
218.4625	0.089	436925	keystroke_m	m	n/a
218.6275	0.089	437255	keystroke_o	o	n/a
218.6565	0.09	437313	keystroke_u	u	n/a
218.8965	0.075	437793	keystroke_t	t	n/a
218.9865	0.09	437973	keystroke_h	h	n/a
219.1065	0.105	438213	keystroke_Key.space	Key.space	n/a
219.4665	0.09	438933	keystroke_m	m	n/a
219.5415	0.105	439083	keystroke_e	e	n/a
219.6915	0.075	439383	keystroke_t	t	n/a
219.8715	0.09	439743	keystroke_a	a	n/a
219.9765	0.045	439953	keystroke_l	l	n/a
220.0965	0.075	440193	keystroke_l	l	n/a
220.3365	0.105	440673	keystroke_i	i	n/a
220.4265	0.0755	440853	keystroke_c	c	n/a
220.606	0.0755	441212	keystroke_Key.space	Key.space	n/a
220.9065	0.105	441813	keystroke_c	c	n/a
220.9965	0.075	441993	keystroke_h	h	n/a
221.1165	0.06	442233	keystroke_a	a	n/a
221.1915	0.076	442383	keystroke_r	r	n/a
221.2965	0.106	442593	keystroke_l	l	n/a
221.3415	0.105	442683	keystroke_i	i	n/a
221.4625	0.075	442925	keystroke_e	e	n/a
221.7165	0.075	443433	keystroke_Key.enter	Key.enter	n/a
221.801	6.3685	443602	prompt	n/a	entitled centuries frozen golden\n
222.3765	0.075	444753	keystroke_e	e	n/a
222.4665	0.09	444933	keystroke_n	n	n/a
222.6015	0.09	445203	keystroke_t	t	n/a
222.7215	0.091	445443	keystroke_i	i	n/a
222.7965	0.075	445593	keystroke_t	t	n/a
223.0365	0.09	446073	keystroke_l	l	n/a
223.2025	0.104	446405	keystroke_e	e	n/a
223.2615	0.09	446523	keystroke_d	d	n/a
223.4115	0.09	446823	keystroke_Key.space	Key.space	n/a
223.6525	0.09	447305	keystroke_c	c	n/a
223.8015	0.105	447603	keystroke_e	e	n/a
223.9515	0.09	447903	keystroke_n	n	n/a
224.1165	0.091	448233	keystroke_t	t	n/a
224.2665	0.105	448533	keystroke_u	u	n/a
224.4015	0.105	448803	keystroke_r	r	n/a
224.4925	0.089	448985	keystroke_e	e	n/a
224.8215	0.09	449643	keystroke_Key.backspace	Key.backspace	n/a
224.9275	0.075	449855	keystroke_i	i	n/a
224.9725	0.09	449945	keystroke_e	e	n/a
225.1525	0.089	450305	keystroke_s	s	n/a
225.2565	0.105	450513	keystroke_Key.space	Key.space	n/a
225.7825	0.09	451565	keystroke_f	f	n/a
225.9475	0.09	451895	keystroke_o	o	n/a
226.0225	0.074	452045	keystroke_r	r	n/a
226.2765	0.045	452553	keystroke_Key.backspace	Key.backspace	n/a
226.3965	0.06	452793	keystroke_Key.backspace	Key.backspace	n/a
226.4425	0.09	452885	keystroke_r	r	n/a
226.5775	0.089	453155	keystroke_o	o	n/a
226.6965	0.091	453393	keystroke_z	z	n/a
226.9065	0.076	453813	keystroke_e	e	n/a
226.9965	0.076	453993	keystroke_n	n	n/a
227.0865	0.105	454173	keystroke_Key.space	Key.space	n/a
227.3275	0.044	454655	keystroke_g	g	n/a
227.3725	0.06	454745	keystroke_o	o	n/a
227.5075	0.105	455015	keystroke_l	l	n/a
227.6275	0.075	455255	keystroke_d	d	n/a
227.7325	0.12	455465	keystroke_e	e	n/a
227.8675	0.09	455735	keystroke_n	n	n/a
228.0925	0.075	456185	keystroke_Key.enter	Key.enter	n/a
228.177	4.237	456354	prompt	n/a	starter tions backing nova\n
228.6775	0.09	457355	keystroke_s	s	n/a
228.7825	0.074	457565	keystroke_t	t	n/a
228.9175	0.105	457835	keystroke_a	a	n/a
228.9915	0.091	457983	keystroke_r	r	n/a
229.1565	0.091	458313	keystroke_t	t	n/a
229.3375	0.105	458675	keystroke_e	e	n/a
229.4125	0.075	458825	keystroke_r	r	n/a
229.5915	0.09	459183	keystroke_Key.space	Key.space	n/a
230.0275	0.06	460055	keystroke_t	t	n/a
230.1025	0.09	460205	keystroke_i	i	n/a
230.1925	0.15	460385	keystroke_o	o	n/a
230.2825	0.089	460565	keystroke_n	n	n/a
230.3575	0.105	460715	keystroke_s	s	n/a
230.5075	0.105	461015	keystroke_Key.space	Key.space	n/a
230.9125	0.089	461825	keystroke_b	b	n/a
230.9875	0.075	461975	keystroke_a	a	n/a
231.1225	0.105	462245	keystroke_c	c	n/a
231.1975	0.12	462395	keystroke_k	k	n/a
231.3925	0.134	462785	keystroke_i	i	n/a
231.4525	0.105	462905	keystroke_n	n	n/a
231.5725	0.06	463145	keystroke_g	g	n/a
231.6625	0.105	463325	keystroke_Key.space	Key.space	n/a
231.8725	0.09	463745	keystroke_n	n	n/a
231.9775	0.09	463955	keystroke_o	o	n/a
232.0525	0.075	464105	keystroke_v	v	n/a
232.2175	0.09	464435	keystroke_a	a	n/a
232.3225	0.089	464645	keystroke_Key.enter	Key.enter	n/a
232.4205	5.453	464841	prompt	n/a	hood amplifier compile looking\n
233.0125	0.105	466025	keystroke_h	h	n/a
233.1925	0.075	466385	keystroke_o	o	n/a
233.3575	0.06	466715	keystroke_o	o	n/a
233.4325	0.089	466865	keystroke_d	d	n/a
233.5665	0.105	467133	keystroke_Key.space	Key.space	n/a
233.7775	0.09	467555	keystroke_a	a	n/a
233.8525	0.105	467705	keystroke_m	m	n/a
234.0475	0.105	468095	keystroke_p	p	n/a
234.0925	0.12	468185	keystroke_l	l	n/a
234.3175	0.0735	468635	keystroke_i	i	n/a
234.407	0.1055	468814	keystroke_f	f	n/a
234.5275	0.105	469055	keystroke_i	i	n/a
234.6175	0.12	469235	keystroke_e	e	n/a
234.7225	0.075	469445	keystroke_r	r	n/a
234.8575	0.074	469715	keystroke_Key.space	Key.space	n/a
235.2775	0.09	470555	keystroke_c	c	n/a
235.3525	0.15	470705	keystroke_o	o	n/a
235.4425	0.135	470885	keystroke_m	m	n/a
236.0125	0.09	472025	keystroke_p	p	n/a
236.0875	0.12	472175	keystroke_i	i	n/a
236.2525	0.09	472505	keystroke_l	l	n/a
236.3725	0.075	472745	keystroke_e	e	n/a
236.5525	0.074	473105	keystroke_Key.space	Key.space	n/a
236.8375	0.09	473675	keystroke_l	l	n/a
237.0475	0.074	474095	keystroke_o	o	n/a
237.2125	0.105	474425	keystroke_o	o	n/a
237.2875	0.105	474575	keystroke_k	k	n/a
237.4975	0.09	474995	keystroke_i	i	n/a
237.5725	0.075	475145	keystroke_n	n	n/a
237.6625	0.09	475325	keystroke_g	g	n/a
237.7975	0.075	475595	keystroke_Key.enter	Key.enter	n/a
237.881	5.243	475762	prompt	n/a	chuck returning badge obvious\n
238.4125	0.089	476825	keystroke_c	c	n/a
238.4875	0.09	476975	keystroke_h	h	n/a
238.6825	0.075	477365	keystroke_u	u	n/a
238.7725	0.12	477545	keystroke_c	c	n/a
238.9375	0.0445	477875	keystroke_k	k	n/a
239.0425	0.105	478085	keystroke_Key.space	Key.space	n/a
239.2825	0.09	478565	keystroke_r	r	n/a
239.4925	0.09	478985	keystroke_e	e	n/a
239.6575	0.0895	479315	keystroke_t	t	n/a
239.7625	0.1045	479525	keystroke_u	u	n/a
239.912	0.0755	479824	keystroke_r	r	n/a
240.0025	0.0895	480005	keystroke_n	n	n/a
240.197	0.0905	480394	keystroke_i	i	n/a
240.257	0.075	480514	keystroke_n	n	n/a
240.347	0.0605	480694	keystroke_g	g	n/a
240.4375	0.105	480875	keystroke_Key.space	Key.space	n/a
240.707	0.09	481414	keystroke_b	b	n/a
240.782	0.105	481564	keystroke_a	a	n/a
240.962	0.09	481924	keystroke_d	d	n/a
241.187	0.075	482374	keystroke_g	g	n/a
241.232	0.075	482464	keystroke_e	e	n/a
241.367	0.09	482734	keystroke_Key.space	Key.space	n/a
241.817	0.075	483634	keystroke_o	o	n/a
241.937	0.045	483874	keystroke_b	b	n/a
242.417	0.075	484834	keystroke_v	v	n/a
242.537	0.105	485074	keystroke_i	i	n/a
242.672	0.15	485344	keystroke_o	o	n/a
242.777	0.09	485554	keystroke_u	u	n/a
242.852	0.09	485704	keystroke_s	s	n/a
243.032	0.09	486064	keystroke_Key.enter	Key.enter	n/a
243.1315	6.428	486263	prompt	n/a	material hands threats character\n
243.662	0.09	487324	keystroke_m	m	n/a
243.752	0.075	487504	keystroke_e	e	n/a
243.842	0.105	487684	keystroke_t	t	n/a
244.232	0.045	488464	keystroke_Key.backspace	Key.backspace	n/a
244.352	0.09	488704	keystroke_Key.backspace	Key.backspace	n/a
244.427	0.09	488854	keystroke_a	a	n/a
244.562	0.06	489124	keystroke_t	t	n/a
244.682	0.105	489364	keystroke_e	e	n/a
244.742	0.105	489484	keystroke_r	r	n/a
244.907	0.105	489814	keystroke_i	i	n/a
245.057	0.105	490114	keystroke_a	a	n/a
245.132	0.09	490264	keystroke_l	l	n/a
245.282	0.135	490564	keystroke_Key.space	Key.space	n/a
245.507	0.075	491014	keystroke_h	h	n/a
245.567	0.105	491134	keystroke_a	a	n/a
245.687	0.105	491374	keystroke_n	n	n/a
245.747	0.135	491494	keystroke_d	d	n/a
245.852	0.09	491704	keystroke_s	s	n/a
246.017	0.09	492034	keystroke_Key.space	Key.space	n/a
246.452	0.075	492904	keystroke_t	t	n/a
246.557	0.09	493114	keystroke_h	h	n/a
246.662	0.09	493324	keystroke_r	r	n/a
246.737	0.075	493474	keystroke_e	e	n/a
246.947	0.075	493894	keystroke_a	a	n/a
247.172	0.06	494344	keystroke_s	s	n/a
247.547	0.09	495094	keystroke_Key.backspace	Key.backspace	n/a
247.847	0.075	495694	keystroke_t	t	n/a
247.892	0.105	495784	keystroke_s	s	n/a
248.102	0.105	496204	keystroke_Key.space	Key.space	n/a
248.432	0.12	496864	keystroke_c	c	n/a
248.537	0.075	497074	keystroke_h	h	n/a
248.627	0.105	497254	keystroke_a	a	n/a
248.717	0.075	497434	keystroke_r	r	n/a
248.822	0.075	497644	keystroke_a	a	n/a
248.957	0.105	497914	keystroke_c	c	n/a
249.167	0.06	498334	keystroke_t	t	n/a
249.257	0.105	498514	keystroke_e	e	n/a
249.317	0.09	498634	keystroke_r	r	n/a
249.482	0.075	498964	keystroke_Key.enter	Key.enter	n/a
249.5645	11.274	499129	prompt	n/a	wordpress metropolitan catch evaluating\n
250.067	0.09	500134	keystroke_w	w	n/a
250.157	0.09	500314	keystroke_o	o	n/a
250.277	0.075	500554	keystroke_r	r	n/a
250.442	0.09	500884	keystroke_d	d	n/a
250.607	0.105	501214	keystroke_p	p	n/a
250.697	0.06	501394	keystroke_e	e	n/a
250.742	0.12	501484	keystroke_r	r	n/a
251.207	0.045	502414	keystroke_Key.backspace	Key.backspace	n/a
251.312	0.09	502624	keystroke_Key.backspace	Key.backspace	n/a
251.372	0.105	502744	keystroke_r	r	n/a
251.462	0.06	502924	keystroke_e	e	n/a
251.612	0.06	503224	keystroke_s	s	n/a
251.747	0.06	503494	keystroke_s	s	n/a
251.852	0.12	503704	keystroke_Key.space	Key.space	n/a
252.257	0.09	504514	keystroke_m	m	n/a
252.362	0.105	504724	keystroke_a	a	n/a
252.617	0.075	505234	keystroke_Key.backspace	Key.backspace	n/a
252.737	0.06	505474	keystroke_e	e	n/a
252.782	0.075	505564	keystroke_t	t	n/a
253.127	0.09	506254	keystroke_r	r	n/a
253.232	0.09	506464	keystroke_o	o	n/a
253.517	0.105	507034	keystroke_p	p	n/a
253.592	0.09	507184	keystroke_o	o	n/a
253.757	0.075	507514	keystroke_l	l	n/a
253.952	0.075	507904	keystroke_i	i	n/a
254.072	0.09	508144	keystroke_t	t	n/a
254.177	0.09	508354	keystroke_i	i	n/a
254.312	0.105	508624	keystroke_o	o	n/a
254.357	0.105	508714	keystroke_n	n	n/a
254.867	0.06	509734	keystroke_Key.backspace	Key.backspace	n/a
254.987	0.09	509974	keystroke_Key.backspace	Key.backspace	n/a
255.167	0.075	510334	keystroke_a	a	n/a
255.302	0.09	510604	keystroke_n	n	n/a
255.482	0.09	510964	keystroke_Key.space	Key.space	n/a
256.682	0.075	513364	keystroke_c	c	n/a
256.802	0.09	513604	keystroke_a	a	n/a
256.907	0.09	513814	keystroke_t	t	n/a
257.147	0.09	514294	keystroke_c	c	n/a
257.238	0.089	514476	keystroke_h	h	n/a
257.342	0.09	514684	keystroke_Key.space	Key.space	n/a
257.507	0.12	515014	keystroke_e	e	n/a
257.732	0.09	515464	keystroke_v	v	n/a
258.302	0.105	516604	keystroke_a	a	n/a
259.172	0.105	518344	keystroke_l	l	n/a
259.307	0.105	518614	keystroke_u	u	n/a
259.607	0.075	519214	keystroke_t	t	n/a
260.102	0.105	520204	keystroke_Key.backspace	Key.backspace	n/a
260.192	0.09	520384	keystroke_a	a	n/a
260.297	0.075	520594	keystroke_t	t	n/a
260.417	0.12	520834	keystroke_i	i	n/a
260.492	0.075	520984	keystroke_n	n	n/a
260.582	0.075	521164	keystroke_g	g	n/a
260.762	0.075	521524	keystroke_Key.enter	Key.enter	n/a
260.8435	6.026	521687	prompt	n/a	patches instruction qualities ottawa\n
261.377	0.135	522754	keystroke_p	p	n/a
261.497	0.06	522994	keystroke_a	a	n/a
261.587	0.075	523174	keystroke_t	t	n/a
261.782	0.09	523564	keystroke_c	c	n/a
261.887	0.105	523774	keystroke_h	h	n/a
261.962	0.06	523924	keystroke_e	e	n/a
262.112	0.09	524224	keystroke_s	s	n/a
262.232	0.09	524464	keystroke_Key.space	Key.space	n/a
262.562	0.075	525124	keystroke_i	i	n/a
262.592	0.105	525184	keystroke_n	n	n/a
262.877	0.09	525754	keystroke_s	s	n/a
262.982	0.045	525964	keystroke_t	t	n/a
263.117	0.075	526234	keystroke_r	r	n/a
263.207	0.09	526414	keystroke_u	u	n/a
263.312	0.076	526624	keystroke_c	c	n/a
263.477	0.075	526954	keystroke_t	t	n/a
263.537	0.075	527074	keystroke_i	i	n/a
263.627	0.135	527254	keystroke_o	o	n/a
263.702	0.105	527404	keystroke_n	n	n/a
263.867	0.12	527734	keystroke_Key.space	Key.space	n/a
264.257	0.105	528514	keystroke_q	q	n/a
264.377	0.075	528754	keystroke_u	u	n/a
264.497	0.105	528994	keystroke_a	a	n/a
264.677	0.135	529354	keystroke_l	l	n/a
264.782	0.105	529564	keystroke_i	i	n/a
264.932	0.105	529864	keystroke_t	t	n/a
265.262	0.135	530524	keystroke_i	i	n/a
265.382	0.075	530764	keystroke_e	e	n/a
265.547	0.09	531094	keystroke_s	s	n/a
265.652	0.09	531304	keystroke_Key.space	Key.space	n/a
265.967	0.09	531934	keystroke_o	o	n/a
266.072	0.045	532144	keystroke_t	t	n/a
266.192	0.09	532384	keystroke_t	t	n/a
266.342	0.075	532684	keystroke_a	a	n/a
266.507	0.06	533014	keystroke_w	w	n/a
266.672	0.09	533344	keystroke_a	a	n/a
266.792	0.075	533584	keystroke_Key.enter	Key.enter	n/a
266.874	5.1395	533748	prompt	n/a	seekers curve focused isolation\n
267.422	0.075	534844	keystroke_s	s	n/a
267.587	0.03	535174	keystroke_e	e	n/a
267.692	0.06	535384	keystroke_e	e	n/a
267.812	0.105	535624	keystroke_k	k	n/a
267.962	0.105	535924	keystroke_e	e	n/a
268.037	0.105	536074	keystroke_r	r	n/a
268.187	0.09	536374	keystroke_s	s	n/a
268.322	0.105	536644	keystroke_Key.space	Key.space	n/a
268.697	0.075	537394	keystroke_c	c	n/a
268.787	0.09	537574	keystroke_u	u	n/a
268.892	0.06	537784	keystroke_r	r	n/a
269.072	0.075	538144	keystroke_v	v	n/a
269.177	0.105	538354	keystroke_e	e	n/a
269.372	0.075	538744	keystroke_Key.space	Key.space	n/a
269.672	0.075	539344	keystroke_f	f	n/a
269.762	0.09	539524	keystroke_o	o	n/a
269.867	0.105	539734	keystroke_c	c	n/a
269.988	0.089	539976	keystroke_u	u	n/a
270.092	0.09	540184	keystroke_s	s	n/a
270.317	0.09	540634	keystroke_e	e	n/a
270.362	0.105	540724	keystroke_d	d	n/a
270.482	0.075	540964	keystroke_Key.space	Key.space	n/a
270.722	0.105	541444	keystroke_i	i	n/a
270.947	0.09	541894	keystroke_s	s	n/a
271.052	0.075	542104	keystroke_o	o	n/a
271.247	0.091	542494	keystroke_l	l	n/a
271.382	0.09	542764	keystroke_a	a	n/a
271.517	0.075	543034	keystroke_t	t	n/a
271.577	0.076	543154	keystroke_i	i	n/a
271.653	0.135	543306	keystroke_o	o	n/a
271.742	0.105	543484	keystroke_n	n	n/a
271.937	0.0745	543874	keystroke_Key.enter	Key.enter	n/a
272.0185	6.415	544037	prompt	n/a	denver commissioner toner we'd\n
272.702	0.135	545404	keystroke_d	d	n/a
272.822	0.105	545644	keystroke_e	e	n/a
272.972	0.105	545944	keystroke_n	n	n/a
273.122	0.075	546244	keystroke_v	v	n/a
273.212	0.135	546424	keystroke_e	e	n/a
273.317	0.09	546634	keystroke_r	r	n/a
273.467	0.09	546934	keystroke_Key.space	Key.space	n/a
273.902	0.09	547804	keystroke_c	c	n/a
273.947	0.135	547894	keystroke_o	o	n/a
274.0965	0.0605	548193	keystroke_m	m	n/a
274.232	0.075	548464	keystroke_m	m	n/a
274.427	0.0745	548854	keystroke_i	i	n/a
274.5315	0.0755	549063	keystroke_s	s	n/a
274.667	0.075	549334	keystroke_s	s	n/a
274.757	0.075	549514	keystroke_i	i	n/a
274.862	0.12	549724	keystroke_o	o	n/a
274.922	0.12	549844	keystroke_n	n	n/a
275.342	0.075	550684	keystroke_e	e	n/a
275.387	0.09	550774	keystroke_r	r	n/a
275.537	0.09	551074	keystroke_Key.space	Key.space	n/a
275.807	0.06	551614	keystroke_t	t	n/a
275.852	0.105	551704	keystroke_o	o	n/a
275.897	0.09	551794	keystroke_n	n	n/a
276.062	0.09	552124	keystroke_r	r	n/a
276.077	0.015	552154	keystroke_e	e	n/a
276.482	0.0455	552964	keystroke_Key.backspace	Key.backspace	n/a
276.6025	0.074	553205	keystroke_Key.backspace	Key.backspace	n/a
276.7225	0.09	553445	keystroke_e	e	n/a
276.7825	0.09	553565	keystroke_r	r	n/a
277.0215	0.09	554043	keystroke_Key.space	Key.space	n/a
277.3225	0.089	554645	keystroke_w	w	n/a
277.6975	0.075	555395	keystroke_e	e	n/a
277.8925	0.074	555785	keystroke_'	'	n/a
277.9975	0.075	555995	keystroke_d	d	n/a
278.3425	0.09	556685	keystroke_Key.enter	Key.enter	n/a
278.4385	5.125	556877	prompt	n/a	community carb wire guyana\n
278.9725	0.104	557945	keystroke_c	c	n/a
279.3175	0.119	558635	keystroke_o	o	n/a
279.5415	0.105	559083	keystroke_m	m	n/a
279.7065	0.091	559413	keystroke_m	m	n/a
279.9175	0.089	559835	keystroke_u	u	n/a
280.1125	0.105	560225	keystroke_n	n	n/a
280.2325	0.09	560465	keystroke_i	i	n/a
280.3515	0.076	560703	keystroke_t	t	n/a
280.4415	0.075	560883	keystroke_y	y	n/a
280.5315	0.105	561063	keystroke_Key.space	Key.space	n/a
280.7275	0.075	561455	keystroke_c	c	n/a
280.8475	0.105	561695	keystroke_a	a	n/a
280.9665	0.061	561933	keystroke_r	r	n/a
281.0425	0.06	562085	keystroke_b	b	n/a
281.1765	0.09	562353	keystroke_Key.space	Key.space	n/a
281.3725	0.09	562745	keystroke_w	w	n/a
281.4775	0.09	562955	keystroke_i	i	n/a
281.5825	0.105	563165	keystroke_r	r	n/a
281.6715	0.061	563343	keystroke_e	e	n/a
281.7765	0.105	563553	keystroke_Key.space	Key.space	n/a
282.5725	0.06	565145	keystroke_g	g	n/a
282.8115	0.016	565623	keystroke_u	u	n/a
282.9025	0.06	565805	keystroke_y	y	n/a
283.0965	0.075	566193	keystroke_a	a	n/a
283.1865	0.061	566373	keystroke_n	n	n/a
283.2625	0.075	566525	keystroke_a	a	n/a
283.4715	0.09	566943	keystroke_Key.enter	Key.enter	n/a
283.569	5.635	567138	prompt	n/a	desktops downloads varies fiber\n
284.1475	0.119	568295	keystroke_d	d	n/a
284.2675	0.06	568535	keystroke_e	e	n/a
284.4165	0.091	568833	keystroke_s	s	n/a
284.4925	0.089	568985	keystroke_k	k	n/a
284.7925	0.09	569585	keystroke_t	t	n/a
284.8665	0.105	569733	keystroke_o	o	n/a
284.9265	0.09	569853	keystroke_p	p	n/a
284.9865	0.106	569973	keystroke_s	s	n/a
285.1515	0.106	570303	keystroke_Key.space	Key.space	n/a
285.6465	0.091	571293	keystroke_d	d	n/a
285.7525	0.105	571505	keystroke_o	o	n/a
285.8415	0.075	571683	keystroke_w	w	n/a
285.9325	0.089	571865	keystroke_n	n	n/a
286.1275	0.059	572255	keystroke_l	l	n/a
286.2915	0.091	572583	keystroke_o	o	n/a
286.3675	0.075	572735	keystroke_a	a	n/a
286.5175	0.135	573035	keystroke_d	d	n/a
286.6365	0.091	573273	keystroke_s	s	n/a
286.7275	0.105	573455	keystroke_Key.space	Key.space	n/a
287.0425	0.06	574085	keystroke_v	v	n/a
287.2075	0.075	574415	keystroke_a	a	n/a
287.2975	0.074	574595	keystroke_r	r	n/a
287.4025	0.12	574805	keystroke_i	i	n/a
287.5375	0.075	575075	keystroke_e	e	n/a
287.7175	0.075	575435	keystroke_s	s	n/a
288.3465	0.09	576693	keystroke_Key.space	Key.space	n/a
288.6175	0.075	577235	keystroke_f	f	n/a
288.7075	0.105	577415	keystroke_i	i	n/a
288.7825	0.12	577565	keystroke_b	b	n/a
288.9175	0.09	577835	keystroke_e	e	n/a
289.1415	0.061	578283	keystroke_Key.enter	Key.enter	n/a
289.213	6.067	578426	prompt	n/a	class supporters controversial hour\n
289.9825	0.105	579965	keystroke_c	c	n/a
290.1025	0.075	580205	keystroke_l	l	n/a
290.2375	0.06	580475	keystroke_a	a	n/a
290.2525	0.089	580505	keystroke_s	s	n/a
290.4025	0.089	580805	keystroke_s	s	n/a
290.5975	0.09	581195	keystroke_Key.space	Key.space	n/a
290.8965	0.076	581793	keystroke_s	s	n/a
291.0025	0.075	582005	keystroke_u	u	n/a
291.1675	0.075	582335	keystroke_p	p	n/a
291.3625	0.105	582725	keystroke_p	p	n/a
291.4075	0.105	582815	keystroke_o	o	n/a
291.5275	0.045	583055	keystroke_r	r	n/a
291.7225	0.075	583445	keystroke_t	t	n/a
291.9175	0.09	583835	keystroke_e	e	n/a
291.9775	0.09	583955	keystroke_r	r	n/a
292.1725	0.09	584345	keystroke_s	s	n/a
292.2775	0.075	584555	keystroke_Key.space	Key.space	n/a
292.6225	0.105	585245	keystroke_c	c	n/a
292.7425	0.105	585485	keystroke_o	o	n/a
292.7725	0.105	585545	keystroke_n	n	n/a
292.9075	0.075	585815	keystroke_t	t	n/a
293.0725	0.075	586145	keystroke_r	r	n/a
293.1775	0.09	586355	keystroke_o	o	n/a
293.3275	0.09	586655	keystroke_v	v	n/a
293.4625	0.105	586925	keystroke_e	e	n/a
293.5225	0.105	587045	keystroke_r	r	n/a
293.8225	0.03	587645	keystroke_s	s	n/a
294.0025	0.09	588005	keystroke_i	i	n/a
294.1075	0.105	588215	keystroke_a	a	n/a
294.2275	0.06	588455	keystroke_l	l	n/a
294.4075	0.105	588815	keystroke_Key.space	Key.space	n/a
294.7825	0.0595	589565	keystroke_h	h	n/a
294.887	0.135	589774	keystroke_o	o	n/a
294.947	0.105	589894	keystroke_u	u	n/a
295.007	0.09	590014	keystroke_r	r	n/a
295.172	0.105	590344	keystroke_Key.enter	Key.enter	n/a
295.2855	6.1735	590571	prompt	n/a	leeds holland generous yarn\n
295.862	0.075	591724	keystroke_l	l	n/a
295.952	0.06	591904	keystroke_e	e	n/a
296.087	0.12	592174	keystroke_e	e	n/a
296.192	0.12	592384	keystroke_d	d	n/a
296.357	0.075	592714	keystroke_s	s	n/a
296.522	0.075	593044	keystroke_Key.space	Key.space	n/a
296.822	0.075	593644	keystroke_h	h	n/a
297.347	0.075	594694	keystroke_o	o	n/a
297.542	0.045	595084	keystroke_l	l	n/a
297.647	0.09	595294	keystroke_l	l	n/a
297.752	0.105	595504	keystroke_a	a	n/a
297.887	0.105	595774	keystroke_n	n	n/a
298.022	0.105	596044	keystroke_d	d	n/a
298.187	0.12	596374	keystroke_Key.space	Key.space	n/a
298.727	0.06	597454	keystroke_g	g	n/a
298.892	0.09	597784	keystroke_e	e	n/a
298.997	0.105	597994	keystroke_n	n	n/a
299.087	0.105	598174	keystroke_e	e	n/a
299.147	0.09	598294	keystroke_r	r	n/a
299.447	0.135	598894	keystroke_o	o	n/a
299.507	0.105	599014	keystroke_u	u	n/a
299.597	0.105	599194	keystroke_s	s	n/a
299.762	0.09	599524	keystroke_Key.space	Key.space	n/a
300.002	0.12	600004	keystroke_t	t	n/a
300.257	0.075	600514	keystroke_a	a	n/a
300.482	0.075	600964	keystroke_Key.backspace	Key.backspace	n/a
300.6325	0.09	601265	keystroke_Key.backspace	Key.backspace	n/a
300.7075	0.09	601415	keystroke_y	y	n/a
300.9025	0.105	601805	keystroke_a	a	n/a
301.0225	0.09	602045	keystroke_r	r	n/a
301.1425	0.075	602285	keystroke_n	n	n/a
301.3825	0.075	602765	keystroke_Key.enter	Key.enter	n/a
301.463	5.5615	602926	prompt	n/a	answer beverages rays application\n
302.0275	0.09	604055	keystroke_a	a	n/a
302.1625	0.09	604325	keystroke_n	n	n/a
302.2225	0.075	604445	keystroke_s	s	n/a
302.4025	0.09	604805	keystroke_w	w	n/a
302.4475	0.105	604895	keystroke_e	e	n/a
302.6575	0.075	605315	keystroke_r	r	n/a
302.7775	0.075	605555	keystroke_Key.space	Key.space	n/a
303.0025	0.09	606005	keystroke_b	b	n/a
303.3025	0.089	606605	keystroke_e	e	n/a
303.5275	0.075	607055	keystroke_v	v	n/a
303.6325	0.12	607265	keystroke_e	e	n/a
303.7075	0.09	607415	keystroke_r	r	n/a
303.9475	0.075	607895	keystroke_a	a	n/a
304.0975	0.06	608195	keystroke_g	g	n/a
304.1425	0.075	608285	keystroke_e	e	n/a
304.3225	0.09	608645	keystroke_s	s	n/a
304.4265	0.076	608853	keystroke_Key.space	Key.space	n/a
304.6975	0.074	609395	keystroke_r	r	n/a
304.8315	0.105	609663	keystroke_a	a	n/a
304.9815	0.1055	609963	keystroke_y	y	n/a
305.103	0.089	610206	keystroke_s	s	n/a
305.297	0.075	610594	keystroke_Key.space	Key.space	n/a
305.658	0.089	611316	keystroke_a	a	n/a
305.732	0.105	611464	keystroke_p	p	n/a
305.897	0.12	611794	keystroke_p	p	n/a
306.002	0.075	612004	keystroke_l	l	n/a
306.182	0.09	612364	keystroke_i	i	n/a
306.257	0.06	612514	keystroke_c	c	n/a
306.377	0.09	612754	keystroke_a	a	n/a
306.497	0.06	612994	keystroke_t	t	n/a
306.573	0.074	613146	keystroke_i	i	n/a
306.662	0.135	613324	keystroke_o	o	n/a
306.737	0.09	613474	keystroke_n	n	n/a
306.932	0.09	613864	keystroke_Key.enter	Key.enter	n/a
307.0305	6.939	614061	prompt	n/a	sacramento text bandwidth cent\n
307.562	0.09	615124	keystroke_s	s	n/a
307.817	0.09	615634	keystroke_a	a	n/a
308.012	0.075	616024	keystroke_c	c	n/a
308.222	0.075	616444	keystroke_r	r	n/a
308.477	0.09	616954	keystroke_o	o	n/a
308.7925	0.075	617585	keystroke_Key.backspace	Key.backspace	n/a
308.8825	0.09	617765	keystroke_a	a	n/a
309.1375	0.105	618275	keystroke_m	m	n/a
309.3325	0.089	618665	keystroke_e	e	n/a
309.4375	0.074	618875	keystroke_n	n	n/a
309.5415	0.075	619083	keystroke_t	t	n/a
309.6475	0.09	619295	keystroke_o	o	n/a
309.7375	0.105	619475	keystroke_Key.space	Key.space	n/a
310.0675	0.075	620135	keystroke_t	t	n/a
310.2025	0.09	620405	keystroke_e	e	n/a
310.4425	0.045	620885	keystroke_x	x	n/a
310.5325	0.075	621065	keystroke_t	t	n/a
310.697	0.075	621394	keystroke_Key.space	Key.space	n/a
311.237	0.09	622474	keystroke_b	b	n/a
311.297	0.09	622594	keystroke_a	a	n/a
311.522	0.12	623044	keystroke_d	d	n/a
311.942	0.06	623884	keystroke_Key.backspace	Key.backspace	n/a
312.062	0.105	624124	keystroke_n	n	n/a
312.152	0.075	624304	keystroke_d	d	n/a
312.317	0.105	624634	keystroke_w	w	n/a
312.437	0.075	624874	keystroke_i	i	n/a
312.752	0.105	625504	keystroke_d	d	n/a
312.977	0.045	625954	keystroke_t	t	n/a
313.052	0.09	626104	keystroke_h	h	n/a
313.217	0.09	626434	keystroke_Key.space	Key.space	n/a
313.442	0.09	626884	keystroke_c	c	n/a
313.547	0.06	627094	keystroke_e	e	n/a
313.637	0.09	627274	keystroke_n	n	n/a
313.742	0.06	627484	keystroke_t	t	n/a
313.892	0.075	627784	keystroke_Key.enter	Key.enter	n/a
313.975	8.3495	627950	prompt	n/a	ceremony antenna eminem mailing\n
314.447	0.09	628894	keystroke_c	c	n/a
314.552	0.075	629104	keystroke_e	e	n/a
314.897	0.09	629794	keystroke_r	r	n/a
315.003	0.089	630006	keystroke_e	e	n/a
315.152	0.105	630304	keystroke_m	m	n/a
315.422	0.09	630844	keystroke_o	o	n/a
315.467	0.09	630934	keystroke_n	n	n/a
315.647	0.03	631294	keystroke_y	y	n/a
315.797	0.09	631594	keystroke_Key.space	Key.space	n/a
316.232	0.105	632464	keystroke_a	a	n/a
316.322	0.09	632644	keystroke_n	n	n/a
316.502	0.075	633004	keystroke_t	t	n/a
316.667	0.06	633334	keystroke_e	e	n/a
316.802	0.075	633604	keystroke_e	e	n/a
316.892	0.06	633784	keystroke_n	n	n/a
317.192	0.075	634384	keystroke_Key.backspace	Key.backspace	n/a
317.342	0.075	634684	keystroke_Key.backspace	Key.backspace	n/a
317.567	0.06	635134	keystroke_n	n	n/a
317.672	0.09	635344	keystroke_n	n	n/a
317.777	0.105	635554	keystroke_a	a	n/a
317.883	0.089	635766	keystroke_Key.space	Key.space	n/a
318.287	0.075	636574	keystroke_e	e	n/a
318.392	0.075	636784	keystroke_n	n	n/a
318.677	0.075	637354	keystroke_Key.backspace	Key.backspace	n/a
318.872	0.075	637744	keystroke_m	m	n/a
319.083	0.134	638166	keystroke_i	i	n/a
319.187	0.105	638374	keystroke_n	n	n/a
319.772	0.075	639544	keystroke_e	e	n/a
320.072	0.105	640144	keystroke_m	m	n/a
320.387	0.09	640774	keystroke_Key.space	Key.space	n/a
321.137	0.105	642274	keystroke_m	m	n/a
321.317	0.105	642634	keystroke_a	a	n/a
321.407	0.105	642814	keystroke_i	i	n/a
321.707	0.09	643414	keystroke_l	l	n/a
321.917	0.12	643834	keystroke_i	i	n/a
321.977	0.076	643954	keystroke_n	n	n/a
322.067	0.09	644134	keystroke_g	g	n/a
322.232	0.09	644464	keystroke_Key.enter	Key.enter	n/a
322.3285	8.8005	644657	prompt	n/a	gateway consultants standard tears\n
322.862	0.075	645724	keystroke_g	g	n/a
323.087	0.06	646174	keystroke_a	a	n/a
323.192	0.06	646384	keystroke_t	t	n/a
323.403	0.059	646806	keystroke_e	e	n/a
323.777	0.09	647554	keystroke_w	w	n/a
323.957	0.075	647914	keystroke_a	a	n/a
324.017	0.06	648034	keystroke_y	y	n/a
324.692	0.105	649384	keystroke_Key.space	Key.space	n/a
324.842	0.1055	649684	keystroke_c	c	n/a
324.9475	0.09	649895	keystroke_o	o	n/a
324.9925	0.09	649985	keystroke_n	n	n/a
325.2025	0.075	650405	keystroke_s	s	n/a
325.3225	0.12	650645	keystroke_u	u	n/a
325.4275	0.09	650855	keystroke_l	l	n/a
325.6075	0.09	651215	keystroke_t	t	n/a
325.8475	0.12	651695	keystroke_a	a	n/a
326.0125	0.09	652025	keystroke_n	n	n/a
326.1175	0.06	652235	keystroke_t	t	n/a
326.2075	0.09	652415	keystroke_s	s	n/a
326.4025	0.09	652805	keystroke_Key.space	Key.space	n/a
326.7775	0.09	653555	keystroke_c	c	n/a
327.0175	0.09	654035	keystroke_Key.backspace	Key.backspace	n/a
327.0925	0.09	654185	keystroke_s	s	n/a
327.1835	0.059	654367	keystroke_t	t	n/a
327.3025	0.105	654605	keystroke_a	a	n/a
327.3925	0.12	654785	keystroke_r	r	n/a
328.1725	0.06	656345	keystroke_Key.backspace	Key.backspace	n/a
328.3975	0.09	656795	keystroke_n	n	n/a
328.5175	0.105	657035	keystroke_d	d	n/a
329.1475	0.12	658295	keystroke_a	a	n/a
329.2825	0.09	658565	keystroke_r	r	n/a
329.5075	0.12	659015	keystroke_d	d	n/a
329.9125	0.09	659825	keystroke_Key.space	Key.space	n/a
330.2275	0.105	660455	keystroke_t	t	n/a
330.3475	0.105	660695	keystroke_e	e	n/a
330.5575	0.075	661115	keystroke_a	a	n/a
330.6475	0.09	661295	keystroke_r	r	n/a
330.7825	0.075	661565	keystroke_s	s	n/a
331.0825	0.044	662165	keystroke_Key.enter	Key.enter	n/a
331.1345	9.8045	662269	prompt	n/a	experimental toolbox nuclear gazette\n
331.8165	0.075	663633	keystroke_e	e	n/a
332.0125	0.09	664025	keystroke_x	x	n/a
332.1175	0.12	664235	keystroke_o	o	n/a
332.987	0.09	665974	keystroke_Key.backspace	Key.backspace	n/a
333.272	0.03	666544	keystroke_p	p	n/a
333.332	0.045	666664	keystroke_p	p	n/a
333.557	0.121	667114	keystroke_e	e	n/a
333.602	0.06	667204	keystroke_r	r	n/a
333.812	0.06	667624	keystroke_Key.backspace	Key.backspace	n/a
333.962	0.06	667924	keystroke_Key.backspace	Key.backspace	n/a
334.097	0.075	668194	keystroke_Key.backspace	Key.backspace	n/a
334.217	0.076	668434	keystroke_e	e	n/a
334.262	0.09	668524	keystroke_r	r	n/a
334.472	0.12	668944	keystroke_i	i	n/a
334.637	0.105	669274	keystroke_m	m	n/a
334.862	0.0905	669724	keystroke_e	e	n/a
334.997	0.09	669994	keystroke_n	n	n/a
335.1925	0.09	670385	keystroke_t	t	n/a
335.387	0.075	670774	keystroke_a	a	n/a
335.597	0.105	671194	keystroke_l	l	n/a
335.717	0.135	671434	keystroke_Key.space	Key.space	n/a
336.077	0.075	672154	keystroke_t	t	n/a
336.1375	0.0745	672275	keystroke_o	o	n/a
336.287	0.075	672574	keystroke_o	o	n/a
336.467	0.0455	672934	keystroke_l	l	n/a
336.752	0.061	673504	keystroke_b	b	n/a
336.963	0.089	673926	keystroke_o	o	n/a
337.023	0.105	674046	keystroke_x	x	n/a
337.172	0.09	674344	keystroke_Key.space	Key.space	n/a
337.367	0.061	674734	keystroke_n	n	n/a
337.533	0.09	675066	keystroke_u	u	n/a
337.638	0.09	675276	keystroke_c	c	n/a
337.878	0.075	675756	keystroke_l	l	n/a
337.938	0.09	675876	keystroke_e	e	n/a
338.118	0.089	676236	keystroke_a	a	n/a
338.237	0.076	676474	keystroke_r	r	n/a
338.342	0.09	676684	keystroke_Key.space	Key.space	n/a
338.642	0.075	677284	keystroke_g	g	n/a
338.837	0.075	677674	keystroke_a	a	n/a
339.032	0.075	678064	keystroke_z	z	n/a
339.632	0.09	679264	keystroke_e	e	n/a
339.707	0.06	679414	keystroke_r	r	n/a
340.307	0.06	680614	keystroke_Key.backspace	Key.backspace	n/a
340.428	0.074	680856	keystroke_t	t	n/a
340.577	0.076	681154	keystroke_t	t	n/a
340.6975	0.09	681395	keystroke_e	e	n/a
340.8475	0.09	681695	keystroke_Key.enter	Key.enter	n/a
340.9455	6.0245	681891	prompt	n/a	who melissa retro parties\n
341.5675	0.075	683135	keystroke_w	w	n/a
341.8675	0.105	683735	keystroke_h	h	n/a
342.3475	0.12	684695	keystroke_o	o	n/a
342.5725	0.075	685145	keystroke_Key.space	Key.space	n/a
342.7825	0.075	685565	keystroke_m	m	n/a
342.9025	0.09	685805	keystroke_e	e	n/a
343.0225	0.09	686045	keystroke_i	i	n/a
343.3825	0.03	686765	keystroke_Key.backspace	Key.backspace	n/a
343.5775	0.105	687155	keystroke_l	l	n/a
343.6375	0.12	687275	keystroke_i	i	n/a
344.0275	0.045	688055	keystroke_s	s	n/a
344.1475	0.06	688295	keystroke_s	s	n/a
344.3125	0.09	688625	keystroke_a	a	n/a
344.4325	0.075	688865	keystroke_Key.space	Key.space	n/a
344.8375	0.15	689675	keystroke_r	r	n/a
344.9725	0.105	689945	keystroke_e	e	n/a
345.1075	0.075	690215	keystroke_t	t	n/a
345.2875	0.09	690575	keystroke_r	r	n/a
345.3925	0.075	690785	keystroke_o	o	n/a
345.5425	0.105	691085	keystroke_Key.space	Key.space	n/a
345.9325	0.105	691865	keystroke_p	p	n/a
346.0225	0.09	692045	keystroke_a	a	n/a
346.1275	0.06	692255	keystroke_r	r	n/a
346.2925	0.06	692585	keystroke_t	t	n/a
346.3975	0.105	692795	keystroke_i	i	n/a
346.4875	0.075	692975	keystroke_e	e	n/a
346.6675	0.075	693335	keystroke_s	s	n/a
346.8925	0.075	693785	keystroke_Key.enter	Key.enter	n/a
346.976	5.5285	693952	prompt	n/a	numbers warren charges fixtures\n
347.5225	0.105	695045	keystroke_n	n	n/a
347.6725	0.075	695345	keystroke_u	u	n/a
347.7625	0.12	695525	keystroke_m	m	n/a
348.0025	0.09	696005	keystroke_b	b	n/a
348.0625	0.09	696125	keystroke_e	e	n/a
348.1375	0.105	696275	keystroke_r	r	n/a
348.2875	0.09	696575	keystroke_s	s	n/a
348.3775	0.12	696755	keystroke_Key.space	Key.space	n/a
348.5425	0.075	697085	keystroke_w	w	n/a
348.7975	0.09	697595	keystroke_a	a	n/a
348.9475	0.075	697895	keystroke_r	r	n/a
349.0825	0.06	698165	keystroke_r	r	n/a
349.2175	0.075	698435	keystroke_e	e	n/a
349.3375	0.09	698675	keystroke_n	n	n/a
349.4425	0.105	698885	keystroke_Key.space	Key.space	n/a
349.7425	0.09	699485	keystroke_c	c	n/a
350.1025	0.105	700205	keystroke_h	h	n/a
350.1775	0.105	700355	keystroke_a	a	n/a
350.2975	0.09	700595	keystroke_r	r	n/a
350.4925	0.06	700985	keystroke_g	g	n/a
350.5375	0.06	701075	keystroke_e	e	n/a
350.7025	0.09	701405	keystroke_s	s	n/a
350.8075	0.06	701615	keystroke_Key.space	Key.space	n/a
351.0775	0.075	702155	keystroke_f	f	n/a
351.1825	0.075	702365	keystroke_i	i	n/a
351.2875	0.075	702575	keystroke_x	x	n/a
351.4675	0.075	702935	keystroke_u	u	n/a
351.7675	0.09	703535	keystroke_Key.backspace	Key.backspace	n/a
351.8425	0.075	703685	keystroke_t	t	n/a
351.9325	0.105	703865	keystroke_u	u	n/a
352.0075	0.105	704015	keystroke_r	r	n/a
352.0975	0.075	704195	keystroke_e	e	n/a
352.2775	0.105	704555	keystroke_s	s	n/a
352.4275	0.075	704855	keystroke_Key.enter	Key.enter	n/a
352.51	6.6245	705020	prompt	n/a	manufacturer python glasgow risk\n
353.1475	0.09	706295	keystroke_m	m	n/a
353.2225	0.09	706445	keystroke_a	a	n/a
353.3575	0.105	706715	keystroke_n	n	n/a
353.4775	0.09	706955	keystroke_u	u	n/a
353.8225	0.075	707645	keystroke_f	f	n/a
353.9575	0.075	707915	keystroke_a	a	n/a
354.0775	0.09	708155	keystroke_c	c	n/a
354.2725	0.06	708545	keystroke_t	t	n/a
354.3775	0.09	708755	keystroke_u	u	n/a
354.6175	0.06	709235	keystroke_r	r	n/a
354.9025	0.09	709805	keystroke_e	e	n/a
354.9625	0.09	709925	keystroke_r	r	n/a
355.1275	0.12	710255	keystroke_Key.space	Key.space	n/a
355.5625	0.15	711125	keystroke_p	p	n/a
355.9225	0.06	711845	keystroke_t	t	n/a
356.2375	0.06	712475	keystroke_Key.backspace	Key.backspace	n/a
356.2525	0.075	712505	keystroke_y	y	n/a
356.4325	0.105	712865	keystroke_t	t	n/a
356.5225	0.12	713045	keystroke_h	h	n/a
356.6575	0.12	713315	keystroke_o	o	n/a
356.7475	0.09	713495	keystroke_n	n	n/a
356.9275	0.135	713855	keystroke_Key.space	Key.space	n/a
357.2425	0.075	714485	keystroke_g	g	n/a
357.3775	0.09	714755	keystroke_l	l	n/a
357.4375	0.09	714875	keystroke_a	a	n/a
357.4975	0.12	714995	keystroke_s	s	n/a
358.0825	0.075	716165	keystroke_g	g	n/a
358.1725	0.06	716345	keystroke_o	o	n/a
358.2775	0.09	716555	keystroke_w	w	n/a
358.4875	0.075	716975	keystroke_Key.space	Key.space	n/a
358.5925	0.105	717185	keystroke_r	r	n/a
358.7125	0.09	717425	keystroke_i	i	n/a
358.8325	0.09	717665	keystroke_s	s	n/a
358.8925	0.09	717785	keystroke_k	k	n/a
359.0575	0.075	718115	keystroke_Key.enter	Key.enter	n/a
359.1395	7.375	718279	prompt	n/a	spell borough proprietary lovers\n
359.6275	0.075	719255	keystroke_s	s	n/a
359.7175	0.09	719435	keystroke_p	p	n/a
359.8525	0.075	719705	keystroke_e	e	n/a
359.9575	0.045	719915	keystroke_l	l	n/a
360.0925	0.075	720185	keystroke_l	l	n/a
360.2575	0.09	720515	keystroke_Key.space	Key.space	n/a
360.5875	0.0905	721175	keystroke_b	b	n/a
360.7375	0.1355	721475	keystroke_o	o	n/a
360.948	0.09	721896	keystroke_r	r	n/a
361.218	0.135	722436	keystroke_o	o	n/a
361.293	0.09	722586	keystroke_u	u	n/a
361.338	0.09	722676	keystroke_g	g	n/a
361.473	0.105	722946	keystroke_h	h	n/a
361.667	0.091	723334	keystroke_Key.space	Key.space	n/a
362.598	0.09	725196	keystroke_p	p	n/a
362.718	0.075	725436	keystroke_r	r	n/a
362.778	0.135	725556	keystroke_o	o	n/a
362.883	0.09	725766	keystroke_p	p	n/a
363.288	0.075	726576	keystroke_r	r	n/a
363.423	0.105	726846	keystroke_i	i	n/a
364.0975	0.1055	728195	keystroke_e	e	n/a
364.2325	0.075	728465	keystroke_t	t	n/a
364.7875	0.09	729575	keystroke_a	a	n/a
364.8625	0.09	729725	keystroke_r	r	n/a
364.9675	0.09	729935	keystroke_y	y	n/a
365.268	0.0445	730536	keystroke_Key.space	Key.space	n/a
365.688	0.0745	731376	keystroke_l	l	n/a
365.8525	0.0905	731705	keystroke_o	o	n/a
365.9875	0.045	731975	keystroke_v	v	n/a
366.1075	0.105	732215	keystroke_e	e	n/a
366.1825	0.075	732365	keystroke_r	r	n/a
366.3175	0.09	732635	keystroke_s	s	n/a
366.4225	0.09	732845	keystroke_Key.enter	Key.enter	n/a
366.52	6.34	733040	prompt	n/a	metro chemical venture sectors\n
367.128	0.105	734256	keystroke_m	m	n/a
367.203	0.09	734406	keystroke_e	e	n/a
367.308	0.075	734616	keystroke_t	t	n/a
367.488	0.09	734976	keystroke_r	r	n/a
367.608	0.09	735216	keystroke_o	o	n/a
367.7575	0.12	735515	keystroke_Key.space	Key.space	n/a
368.1925	0.09	736385	keystroke_c	c	n/a
368.2675	0.075	736535	keystroke_h	h	n/a
368.3725	0.105	736745	keystroke_e	e	n/a
368.5525	0.12	737105	keystroke_m	m	n/a
368.6875	0.09	737375	keystroke_i	i	n/a
368.8375	0.075	737675	keystroke_c	c	n/a
369.0025	0.09	738005	keystroke_a	a	n/a
369.0775	0.09	738155	keystroke_l	l	n/a
369.2275	0.105	738455	keystroke_Key.space	Key.space	n/a
369.5425	0.075	739085	keystroke_v	v	n/a
369.6325	0.105	739265	keystroke_e	e	n/a
369.7675	0.12	739535	keystroke_n	n	n/a
370.1575	0.06	740315	keystroke_u	u	n/a
370.4275	0.075	740855	keystroke_Key.backspace	Key.backspace	n/a
370.5175	0.075	741035	keystroke_t	t	n/a
370.5775	0.09	741155	keystroke_u	u	n/a
370.7125	0.12	741425	keystroke_r	r	n/a
370.8175	0.105	741635	keystroke_e	e	n/a
370.9375	0.09	741875	keystroke_Key.space	Key.space	n/a
371.3425	0.09	742685	keystroke_s	s	n/a
371.537	0.0905	743074	keystroke_e	e	n/a
371.597	0.09	743194	keystroke_c	c	n/a
372.1675	0.075	744335	keystroke_t	t	n/a
372.3025	0.09	744605	keystroke_o	o	n/a
372.4525	0.105	744905	keystroke_r	r	n/a
372.6175	0.12	745235	keystroke_s	s	n/a
372.7525	0.105	745505	keystroke_Key.enter	Key.enter	n/a
372.8655	6.2795	745731	prompt	n/a	talking holmes appraisal chicks\n
373.4135	0.074	746827	keystroke_t	t	n/a
373.562	0.12	747124	keystroke_a	a	n/a
373.667	0.105	747334	keystroke_l	l	n/a
373.6975	0.12	747395	keystroke_k	k	n/a
373.9235	0.075	747847	keystroke_i	i	n/a
373.9525	0.06	747905	keystroke_n	n	n/a
374.0285	0.089	748057	keystroke_g	g	n/a
374.1475	0.09	748295	keystroke_Key.space	Key.space	n/a
374.3735	0.074	748747	keystroke_h	h	n/a
374.5235	0.164	749047	keystroke_o	o	n/a
374.9725	0.09	749945	keystroke_l	l	n/a
375.1675	0.091	750335	keystroke_m	m	n/a
375.2585	0.074	750517	keystroke_e	e	n/a
375.4825	0.09	750965	keystroke_s	s	n/a
375.6625	0.12	751325	keystroke_Key.space	Key.space	n/a
376.0375	0.09	752075	keystroke_a	a	n/a
376.0825	0.075	752165	keystroke_p	p	n/a
376.2485	0.089	752497	keystroke_p	p	n/a
376.2925	0.09	752585	keystroke_r	r	n/a
376.6985	0.119	753397	keystroke_a	a	n/a
376.7725	0.105	753545	keystroke_s	s	n/a
376.9225	0.106	753845	keystroke_i	i	n/a
377.2675	0.06	754535	keystroke_Key.backspace	Key.backspace	n/a
377.4025	0.09	754805	keystroke_Key.backspace	Key.backspace	n/a
377.4935	0.105	754987	keystroke_i	i	n/a
377.5525	0.091	755105	keystroke_s	s	n/a
377.7485	0.089	755497	keystroke_a	a	n/a
377.8825	0.091	755765	keystroke_l	l	n/a
378.1375	0.09	756275	keystroke_Key.space	Key.space	n/a
378.423	0.089	756846	keystroke_c	c	n/a
378.468	0.105	756936	keystroke_h	h	n/a
378.527	0.105	757054	keystroke_i	i	n/a
378.647	0.091	757294	keystroke_c	c	n/a
378.753	0.1055	757506	keystroke_k	k	n/a
378.872	0.0905	757744	keystroke_s	s	n/a
379.0675	0.075	758135	keystroke_Key.enter	Key.enter	n/a
379.1515	5.1085	758303	prompt	n/a	obtained might suffered bolt\n
379.713	0.074	759426	keystroke_o	o	n/a
379.923	0.089	759846	keystroke_b	b	n/a
380.132	0.076	760264	keystroke_t	t	n/a
380.282	0.091	760564	keystroke_a	a	n/a
380.327	0.105	760654	keystroke_i	i	n/a
380.387	0.0755	760774	keystroke_n	n	n/a
380.507	0.091	761014	keystroke_e	e	n/a
380.567	0.09	761134	keystroke_d	d	n/a
380.672	0.09	761344	keystroke_Key.space	Key.space	n/a
380.868	0.0895	761736	keystroke_m	m	n/a
380.988	0.09	761976	keystroke_i	i	n/a
381.093	0.105	762186	keystroke_g	g	n/a
381.198	0.059	762396	keystroke_h	h	n/a
381.272	0.061	762544	keystroke_t	t	n/a
381.362	0.1655	762724	keystroke_Key.space	Key.space	n/a
381.6485	0.09	763297	keystroke_s	s	n/a
381.8425	0.09	763685	keystroke_f	f	n/a
382.1125	0.09	764225	keystroke_Key.backspace	Key.backspace	n/a
382.2185	0.074	764437	keystroke_u	u	n/a
382.2635	0.074	764527	keystroke_f	f	n/a
382.4125	0.09	764825	keystroke_f	f	n/a
382.5935	0.134	765187	keystroke_e	e	n/a
382.6835	0.119	765367	keystroke_r	r	n/a
383.1775	0.136	766355	keystroke_e	e	n/a
383.2985	0.134	766597	keystroke_d	d	n/a
383.4175	0.09	766835	keystroke_Key.space	Key.space	n/a
383.7185	0.075	767437	keystroke_b	b	n/a
383.7625	0.091	767525	keystroke_o	o	n/a
383.9285	0.104	767857	keystroke_l	l	n/a
384.0025	0.091	768005	keystroke_t	t	n/a
384.1685	0.089	768337	keystroke_Key.enter	Key.enter	n/a
384.2645	6.115	768529	prompt	n/a	yarn you'll view order\n
384.7985	0.12	769597	keystroke_t	t	n/a
385.2325	0.075	770465	keystroke_Key.backspace	Key.backspace	n/a
385.2785	0.075	770557	keystroke_y	y	n/a
385.4735	0.075	770947	keystroke_a	a	n/a
385.5775	0.106	771155	keystroke_n	n	n/a
385.8775	0.075	771755	keystroke_Key.backspace	Key.backspace	n/a
385.9685	0.075	771937	keystroke_r	r	n/a
386.0585	0.09	772117	keystroke_n	n	n/a
386.1625	0.09	772325	keystroke_Key.space	Key.space	n/a
386.5235	0.045	773047	keystroke_y	y	n/a
386.5825	0.106	773165	keystroke_o	o	n/a
386.6435	0.105	773287	keystroke_u	u	n/a
387.243	0.09	774486	keystroke_'	'	n/a
387.558	0.06	775116	keystroke_k	k	n/a
387.708	0.075	775416	keystroke_l	l	n/a
387.948	0.09	775896	keystroke_Key.backspace	Key.backspace	n/a
388.173	0.15	776346	keystroke_Key.backspace	Key.backspace	n/a
388.413	0.09	776826	keystroke_l	l	n/a
388.563	0.09	777126	keystroke_l	l	n/a
388.818	0.105	777636	keystroke_Key.space	Key.space	n/a
389.088	0.075	778176	keystroke_v	v	n/a
389.178	0.105	778356	keystroke_i	i	n/a
389.253	0.09	778506	keystroke_e	e	n/a
389.433	0.105	778866	keystroke_w	w	n/a
389.523	0.09	779046	keystroke_Key.space	Key.space	n/a
389.748	0.09	779496	keystroke_o	o	n/a
389.839	0.044	779678	keystroke_r	r	n/a
389.988	0.075	779976	keystroke_d	d	n/a
390.108	0.09	780216	keystroke_e	e	n/a
390.183	0.09	780366	keystroke_r	r	n/a
390.288	0.09	780576	keystroke_Key.enter	Key.enter	n/a
390.3845	6.7605	780769	prompt	n/a	referral guard alive provisions\n
390.9485	0.104	781897	keystroke_r	r	n/a
391.0985	0.06	782197	keystroke_e	e	n/a
391.1885	0.09	782377	keystroke_f	f	n/a
391.3525	0.075	782705	keystroke_e	e	n/a
391.3835	0.105	782767	keystroke_r	r	n/a
391.5785	0.074	783157	keystroke_r	r	n/a
391.8775	0.091	783755	keystroke_a	a	n/a
391.9835	0.075	783967	keystroke_l	l	n/a
392.1775	0.09	784355	keystroke_Key.space	Key.space	n/a
392.4785	0.074	784957	keystroke_g	g	n/a
392.7485	0.09	785497	keystroke_u	u	n/a
392.9275	0.105	785855	keystroke_a	a	n/a
393.0175	0.075	786035	keystroke_r	r	n/a
393.2125	0.105	786425	keystroke_d	d	n/a
393.4225	0.105	786845	keystroke_Key.space	Key.space	n/a
393.9025	0.105	787805	keystroke_a	a	n/a
393.9625	0.12	787925	keystroke_l	l	n/a
394.0225	0.09	788045	keystroke_i	i	n/a
394.1275	0.135	788255	keystroke_v	v	n/a
394.5475	0.1055	789095	keystroke_e	e	n/a
394.668	0.075	789336	keystroke_Key.space	Key.space	n/a
394.998	0.075	789996	keystroke_p	p	n/a
395.163	0.06	790326	keystroke_r	r	n/a
395.358	0.105	790716	keystroke_o	o	n/a
395.478	0.09	790956	keystroke_v	v	n/a
395.643	0.12	791286	keystroke_i	i	n/a
395.748	0.075	791496	keystroke_s	s	n/a
395.913	0.075	791826	keystroke_i	i	n/a
396.108	0.12	792216	keystroke_o	o	n/a
396.168	0.12	792336	keystroke_n	n	n/a
396.6325	0.1055	793265	keystroke_s	s	n/a
396.9775	0.1655	793955	keystroke_Key.enter	Key.enter	n/a
397.1485	8.8175	794297	prompt	n/a	banking booking publishers incorporate\n
398.0135	0.089	796027	keystroke_b	b	n/a
398.1175	0.105	796235	keystroke_a	a	n/a
398.5525	0.1205	797105	keystroke_n	n	n/a
398.688	0.075	797376	keystroke_k	k	n/a
398.898	0.12	797796	keystroke_i	i	n/a
398.973	0.105	797946	keystroke_n	n	n/a
399.063	0.075	798126	keystroke_g	g	n/a
399.168	0.09	798336	keystroke_Key.space	Key.space	n/a
399.348	0.091	798696	keystroke_b	b	n/a
399.423	0.075	798846	keystroke_o	o	n/a
399.573	0.135	799146	keystroke_o	o	n/a
399.678	0.075	799356	keystroke_k	k	n/a
399.858	0.105	799716	keystroke_i	i	n/a
399.903	0.105	799806	keystroke_n	n	n/a
399.978	0.091	799956	keystroke_g	g	n/a
400.143	0.075	800286	keystroke_Key.space	Key.space	n/a
400.7285	0.045	801457	keystroke_u	u	n/a
401.0125	0.106	802025	keystroke_Key.backspace	Key.backspace	n/a
401.5085	0.105	803017	keystroke_p	p	n/a
401.6435	0.105	803287	keystroke_u	u	n/a
401.9135	0.09	803827	keystroke_b	b	n/a
401.9885	0.09	803977	keystroke_l	l	n/a
402.0185	0.09	804037	keystroke_i	i	n/a
402.1385	0.105	804277	keystroke_s	s	n/a
402.2435	0.105	804487	keystroke_h	h	n/a
402.3785	0.09	804757	keystroke_e	e	n/a
402.4535	0.075	804907	keystroke_r	r	n/a
402.5735	0.09	805147	keystroke_s	s	n/a
402.6935	0.12	805387	keystroke_Key.space	Key.space	n/a
403.1585	0.135	806317	keystroke_i	i	n/a
403.2485	0.105	806497	keystroke_n	n	n/a
403.3685	0.105	806737	keystroke_c	c	n/a
403.6535	0.075	807307	keystroke_r	r	n/a
403.7885	0.06	807577	keystroke_o	o	n/a
403.9685	0.06	807937	keystroke_Key.backspace	Key.backspace	n/a
404.1185	0.105	808237	keystroke_Key.backspace	Key.backspace	n/a
404.2085	0.09	808417	keystroke_o	o	n/a
404.3135	0.09	808627	keystroke_r	r	n/a
404.5385	0.09	809077	keystroke_p	p	n/a
404.7485	0.12	809497	keystroke_o	o	n/a
405.1535	0.09	810307	keystroke_r	r	n/a
405.3335	0.09	810667	keystroke_a	a	n/a
405.5135	0.075	811027	keystroke_t	t	n/a
405.6035	0.06	811207	keystroke_e	e	n/a
405.8735	0.09	811747	keystroke_Key.enter	Key.enter	n/a
405.9705	5.1705	811941	prompt	n/a	pilot anyway intensive turtle\n
406.7585	0.12	813517	keystroke_p	p	n/a
406.8485	0.15	813697	keystroke_i	i	n/a
407.0285	0.075	814057	keystroke_l	l	n/a
407.2235	0.09	814447	keystroke_o	o	n/a
407.3735	0.09	814747	keystroke_t	t	n/a
407.5085	0.105	815017	keystroke_Key.space	Key.space	n/a
407.6585	0.075	815317	keystroke_a	a	n/a
407.7185	0.105	815437	keystroke_n	n	n/a
407.9585	0.105	815917	keystroke_y	y	n/a
408.0645	0.059	816129	keystroke_w	w	n/a
408.2135	0.09	816427	keystroke_a	a	n/a
408.2735	0.09	816547	keystroke_y	y	n/a
408.4985	0.075	816997	keystroke_Key.space	Key.space	n/a
408.7235	0.105	817447	keystroke_i	i	n/a
408.7685	0.105	817537	keystroke_n	n	n/a
408.9185	0.105	817837	keystroke_t	t	n/a
409.0385	0.075	818077	keystroke_e	e	n/a
409.1735	0.12	818347	keystroke_n	n	n/a
409.2785	0.075	818557	keystroke_s	s	n/a
409.4285	0.09	818857	keystroke_i	i	n/a
409.5335	0.06	819067	keystroke_v	v	n/a
409.6385	0.12	819277	keystroke_e	e	n/a
409.8635	0.075	819727	keystroke_Key.space	Key.space	n/a
410.1485	0.075	820297	keystroke_t	t	n/a
410.2085	0.09	820417	keystroke_u	u	n/a
410.3435	0.09	820687	keystroke_r	r	n/a
410.6585	0.06	821317	keystroke_t	t	n/a
410.7935	0.09	821587	keystroke_l	l	n/a
411.0635	0.075	822127	keystroke_Key.enter	Key.enter	n/a
411.1455	5.32	822291	prompt	n/a	spend offerings shape desired\n
412.0535	0.09	824107	keystroke_s	s	n/a
412.1585	0.09	824317	keystroke_p	p	n/a
412.2635	0.075	824527	keystroke_e	e	n/a
412.3685	0.09	824737	keystroke_n	n	n/a
412.4885	0.12	824977	keystroke_d	d	n/a
412.5635	0.09	825127	keystroke_Key.space	Key.space	n/a
412.7585	0.075	825517	keystroke_o	o	n/a
412.8185	0.075	825637	keystroke_f	f	n/a
412.9385	0.09	825877	keystroke_f	f	n/a
413.1185	0.105	826237	keystroke_e	e	n/a
413.1935	0.075	826387	keystroke_r	r	n/a
413.3285	0.12	826657	keystroke_i	i	n/a
413.3885	0.105	826777	keystroke_n	n	n/a
413.5235	0.075	827047	keystroke_g	g	n/a
413.6735	0.105	827347	keystroke_s	s	n/a
413.8385	0.12	827677	keystroke_Key.space	Key.space	n/a
414.3935	0.06	828787	keystroke_s	s	n/a
414.4835	0.09	828967	keystroke_h	h	n/a
414.6035	0.06	829207	keystroke_a	a	n/a
414.7085	0.09	829417	keystroke_p	p	n/a
414.9335	0.045	829867	keystroke_e	e	n/a
415.0385	0.12	830077	keystroke_Key.space	Key.space	n/a
415.4735	0.105	830947	keystroke_d	d	n/a
415.5635	0.06	831127	keystroke_e	e	n/a
415.6985	0.09	831397	keystroke_s	s	n/a
415.8035	0.09	831607	keystroke_i	i	n/a
415.9385	0.105	831877	keystroke_r	r	n/a
416.1035	0.12	832207	keystroke_e	e	n/a
416.1935	0.105	832387	keystroke_d	d	n/a
416.3585	0.105	832717	keystroke_Key.enter	Key.enter	n/a
416.4725	7.403	832945	prompt	n/a	installations population within licensing\n
417.0635	0.09	834127	keystroke_i	i	n/a
417.3185	0.105	834637	keystroke_n	n	n/a
417.4385	0.0745	834877	keystroke_s	s	n/a
417.498	0.075	834996	keystroke_t	t	n/a
417.648	0.075	835296	keystroke_a	a	n/a
417.708	0.06	835416	keystroke_l	l	n/a
417.828	0.12	835656	keystroke_l	l	n/a
418.038	0.09	836076	keystroke_a	a	n/a
418.173	0.075	836346	keystroke_t	t	n/a
418.233	0.075	836466	keystroke_i	i	n/a
418.323	0.15	836646	keystroke_o	o	n/a
418.413	0.105	836826	keystroke_n	n	n/a
418.563	0.03	837126	keystroke_s	s	n/a
418.638	0.075	837276	keystroke_Key.space	Key.space	n/a
418.833	0.12	837666	keystroke_p	p	n/a
418.908	0.135	837816	keystroke_o	o	n/a
419.358	0.105	838716	keystroke_p	p	n/a
419.6285	0.12	839257	keystroke_u	u	n/a
419.7635	0.09	839527	keystroke_l	l	n/a
419.8835	0.06	839767	keystroke_a	a	n/a
420.0185	0.06	840037	keystroke_t	t	n/a
420.1385	0.105	840277	keystroke_i	i	n/a
420.2885	0.15	840577	keystroke_o	o	n/a
420.3485	0.105	840697	keystroke_n	n	n/a
421.3985	0.075	842797	keystroke_Key.space	Key.space	n/a
421.5635	0.075	843127	keystroke_w	w	n/a
421.6085	0.12	843217	keystroke_i	i	n/a
421.8035	0.075	843607	keystroke_t	t	n/a
421.8185	0.135	843637	keystroke_h	h	n/a
421.9985	0.135	843997	keystroke_i	i	n/a
422.1035	0.12	844207	keystroke_n	n	n/a
422.5535	0.105	845107	keystroke_Key.space	Key.space	n/a
422.7335	0.105	845467	keystroke_l	l	n/a
422.7785	0.105	845557	keystroke_i	i	n/a
422.8985	0.105	845797	keystroke_c	c	n/a
423.0185	0.09	846037	keystroke_e	e	n/a
423.1235	0.09	846247	keystroke_n	n	n/a
423.2285	0.105	846457	keystroke_s	s	n/a
423.4685	0.105	846937	keystroke_i	i	n/a
423.5285	0.09	847057	keystroke_n	n	n/a
423.6035	0.06	847207	keystroke_g	g	n/a
423.7985	0.075	847597	keystroke_Key.enter	Key.enter	n/a
423.8805	5.2	847761	prompt	n/a	lesbian honey imports canal\n
424.5185	0.105	849037	keystroke_l	l	n/a
424.6085	0.06	849217	keystroke_e	e	n/a
424.7735	0.09	849547	keystroke_s	s	n/a
424.8785	0.12	849757	keystroke_b	b	n/a
425.2535	0.09	850507	keystroke_i	i	n/a
425.3585	0.06	850717	keystroke_a	a	n/a
425.4485	0.105	850897	keystroke_n	n	n/a
425.5985	0.105	851197	keystroke_Key.space	Key.space	n/a
425.8535	0.09	851707	keystroke_h	h	n/a
425.9585	0.105	851917	keystroke_o	o	n/a
426.0485	0.045	852097	keystroke_n	n	n/a
426.0785	0.09	852157	keystroke_e	e	n/a
426.3035	0.075	852607	keystroke_y	y	n/a
426.4385	0.09	852877	keystroke_Key.space	Key.space	n/a
426.7535	0.105	853507	keystroke_i	i	n/a
426.8435	0.075	853687	keystroke_m	m	n/a
426.9935	0.09	853987	keystroke_p	p	n/a
427.0385	0.105	854077	keystroke_o	o	n/a
427.1135	0.09	854227	keystroke_r	r	n/a
427.2935	0.075	854587	keystroke_t	t	n/a
427.3835	0.09	854767	keystroke_s	s	n/a
427.5485	0.0895	855097	keystroke_Key.space	Key.space	n/a
427.773	0.075	855546	keystroke_c	c	n/a
427.878	0.105	855756	keystroke_a	a	n/a
427.9685	0.0755	855937	keystroke_n	n	n/a
428.073	0.09	856146	keystroke_c	c	n/a
428.583	0.045	857166	keystroke_Key.backspace	Key.backspace	n/a
428.688	0.09	857376	keystroke_a	a	n/a
428.7935	0.09	857587	keystroke_l	l	n/a
429.0035	0.075	858007	keystroke_Key.enter	Key.enter	n/a
429.086	8.214	858172	prompt	n/a	occurring ahead collaborative trace\n
429.6485	0.135	859297	keystroke_o	o	n/a
429.7685	0.06	859537	keystroke_c	c	n/a
429.9035	0.09	859807	keystroke_c	c	n/a
430.0085	0.105	860017	keystroke_u	u	n/a
430.1435	0.105	860287	keystroke_r	r	n/a
430.2935	0.135	860587	keystroke_i	i	n/a
430.3685	0.105	860737	keystroke_n	n	n/a
430.4885	0.075	860977	keystroke_g	g	n/a
430.6235	0.09	861247	keystroke_Key.space	Key.space	n/a
431.704	0.075	863408	keystroke_a	a	n/a
431.809	0.09	863618	keystroke_h	h	n/a
431.929	0.075	863858	keystroke_d	d	n/a
432.019	0.045	864038	keystroke_e	e	n/a
432.214	0.074	864428	keystroke_Key.backspace	Key.backspace	n/a
432.364	0.089	864728	keystroke_Key.backspace	Key.backspace	n/a
432.455	0.104	864910	keystroke_e	e	n/a
432.754	0.075	865508	keystroke_d	d	n/a
433.069	0.059	866138	keystroke_Key.backspace	Key.backspace	n/a
433.099	0.105	866198	keystroke_a	a	n/a
433.189	0.075	866378	keystroke_d	d	n/a
433.294	0.089	866588	keystroke_Key.space	Key.space	n/a
433.534	0.105	867068	keystroke_c	c	n/a
433.609	0.075	867218	keystroke_o	o	n/a
434.179	0.09	868358	keystroke_l	l	n/a
434.329	0.089	868658	keystroke_l	l	n/a
434.509	0.105	869018	keystroke_a	a	n/a
434.989	0.09	869978	keystroke_b	b	n/a
435.199	0.105	870398	keystroke_o	o	n/a
435.364	0.059	870728	keystroke_r	r	n/a
435.484	0.105	870968	keystroke_a	a	n/a
435.679	0.06	871358	keystroke_t	t	n/a
435.784	0.09	871568	keystroke_i	i	n/a
435.904	0.12	871808	keystroke_v	v	n/a
436.039	0.09	872078	keystroke_e	e	n/a
436.189	0.089	872378	keystroke_Key.space	Key.space	n/a
436.534	0.06	873068	keystroke_t	t	n/a
436.699	0.105	873398	keystroke_r	r	n/a
436.849	0.06	873698	keystroke_a	a	n/a
436.984	0.105	873968	keystroke_c	c	n/a
437.104	0.09	874208	keystroke_e	e	n/a
437.209	0.089	874418	keystroke_Key.enter	Key.enter	n/a
437.305	4.136	874610	prompt	n/a	program prices fork soma\n
437.944	0.06	875888	keystroke_p	p	n/a
438.244	0.09	876488	keystroke_r	r	n/a
438.349	0.104	876698	keystroke_o	o	n/a
438.574	0.045	877148	keystroke_g	g	n/a
438.7235	0.09	877447	keystroke_r	r	n/a
438.8585	0.105	877717	keystroke_a	a	n/a
438.9485	0.09	877897	keystroke_m	m	n/a
439.1135	0.12	878227	keystroke_Key.space	Key.space	n/a
439.2785	0.12	878557	keystroke_p	p	n/a
439.4135	0.09	878827	keystroke_r	r	n/a
439.5185	0.105	879037	keystroke_i	i	n/a
439.6535	0.06	879307	keystroke_c	c	n/a
439.6985	0.075	879397	keystroke_e	e	n/a
439.8785	0.105	879757	keystroke_s	s	n/a
439.9985	0.09	879997	keystroke_Key.space	Key.space	n/a
440.2835	0.06	880567	keystroke_f	f	n/a
440.3285	0.09	880657	keystroke_o	o	n/a
440.4485	0.09	880897	keystroke_r	r	n/a
440.5235	0.105	881047	keystroke_k	k	n/a
440.6435	0.105	881287	keystroke_Key.space	Key.space	n/a
440.9735	0.09	881947	keystroke_s	s	n/a
441.0485	0.12	882097	keystroke_o	o	n/a
441.1085	0.09	882217	keystroke_m	m	n/a
441.2135	0.06	882427	keystroke_a	a	n/a
441.3485	0.09	882697	keystroke_Key.enter	Key.enter	n/a
441.4485	8.513	882897	prompt	n/a	aquatic participant namespace contained\n
