onset	duration	sample	value	key	prompt_text
6.969	17.302	13938	prompt	n/a	the quick brown fox jumps over a lazy dog\n
9.0935	0.105	18187	keystroke_t	t	n/a
9.2055	0.088	18411	keystroke_h	h	n/a
9.3095	0.144	18619	keystroke_e	e	n/a
9.5175	0.081	19035	keystroke_b	b	n/a
9.8385	0.12	19677	keystroke_=	=	n/a
10.0385	0.064	20077	keystroke_=	=	n/a
11.2295	0.1605	22459	keystroke_Key.caps_lock	Key.caps_lock	n/a
11.518	0.136	23036	keystroke_t	t	n/a
11.614	0.096	23228	keystroke_h	h	n/a
11.718	0.12	23436	keystroke_e	e	n/a
11.846	0.0395	23692	keystroke_b	b	n/a
11.9495	0.152	23899	keystroke_q	q	n/a
12.405	0.088	24810	keystroke_=	=	n/a
12.629	0.096	25258	keystroke_Key.backspace	Key.backspace	n/a
12.821	0.088	25642	keystroke_Key.backspace	Key.backspace	n/a
12.989	0.08	25978	keystroke_Key.backspace	Key.backspace	n/a
13.165	0.184	26330	keystroke_Key.space	Key.space	n/a
13.837	0.184	27674	keystroke_q	q	n/a
13.885	0.168	27770	keystroke_u	u	n/a
13.981	0.12	27962	keystroke_i	i	n/a
14.149	0.152	28298	keystroke_c	c	n/a
14.261	0.112	28522	keystroke_k	k	n/a
14.597	0.104	29194	keystroke_Key.space	Key.space	n/a
14.989	0.104	29978	keystroke_b	b	n/a
15.109	0.144	30218	keystroke_r	r	n/a
15.205	0.104	30410	keystroke_o	o	n/a
15.413	0.16	30826	keystroke_w	w	n/a
15.565	0.088	31130	keystroke_n	n	n/a
15.789	0.08	31578	keystroke_Key.space	Key.space	n/a
16.653	0.104	33306	keystroke_f	f	n/a
16.709	0.096	33418	keystroke_o	o	n/a
16.893	0.16	33786	keystroke_x	x	n/a
17.029	0.08	34058	keystroke_Key.space	Key.space	n/a
17.621	0.088	35242	keystroke_j	j	n/a
17.773	0.12	35546	keystroke_u	u	n/a
17.989	0.152	35978	keystroke_m	m	n/a
18.277	0.12	36554	keystroke_p	p	n/a
18.597	0.136	37194	keystroke_s	s	n/a
18.757	0.088	37514	keystroke_Key.space	Key.space	n/a
19.357	0.12	38714	keystroke_o	o	n/a
19.645	0.136	39290	keystroke_v	v	n/a
19.733	0.184	39466	keystroke_e	e	n/a
19.918	0.1755	39836	keystroke_r	r	n/a
20.3895	0.168	40779	keystroke_Key.space	Key.space	n/a
20.8695	0.184	41739	keystroke_a	a	n/a
21.4445	0.161	42889	keystroke_Key.space	Key.space	n/a
21.6695	0.143	43339	keystroke_l	l	n/a
21.7965	0.104	43593	keystroke_a	a	n/a
21.9965	0.0965	43993	keystroke_z	z	n/a
22.2525	0.112	44505	keystroke_y	y	n/a
22.4765	0.152	44953	keystroke_Key.space	Key.space	n/a
22.9005	0.104	45801	keystroke_d	d	n/a
23.0055	0.079	46011	keystroke_o	o	n/a
23.1325	0.128	46265	keystroke_g	g	n/a
23.4685	0.0645	46937	keystroke_Key.space	Key.space	n/a
23.861	0.112	47722	keystroke_Key.backspace	Key.backspace	n/a
24.149	0.12	48298	keystroke_Key.enter	Key.enter	n/a
24.275	8.3395	48550	prompt	n/a	deliver christmas advertiser elderly\n
24.965	0.184	49930	keystroke_d	d	n/a
25.093	0.152	50186	keystroke_e	e	n/a
25.165	0.224	50330	keystroke_l	l	n/a
25.301	0.112	50602	keystroke_i	i	n/a
25.341	0.184	50682	keystroke_v	v	n/a
25.445	0.224	50890	keystroke_e	e	n/a
25.677	0.168	51354	keystroke_r	r	n/a
26.037	0.144	52074	keystroke_Key.space	Key.space	n/a
26.309	0.136	52618	keystroke_c	c	n/a
26.461	0.096	52922	keystroke_h	h	n/a
26.597	0.16	53194	keystroke_r	r	n/a
26.717	0.104	53434	keystroke_i	i	n/a
26.869	0.12	53738	keystroke_s	s	n/a
27.085	0.128	54170	keystroke_t	t	n/a
27.373	0.1435	54746	keystroke_m	m	n/a
27.5405	0.184	55081	keystroke_a	a	n/a
27.7325	0.128	55465	keystroke_s	s	n/a
27.9805	0.176	55961	keystroke_Key.space	Key.space	n/a
28.5325	0.184	57065	keystroke_a	a	n/a
28.6525	0.12	57305	keystroke_d	d	n/a
28.925	0.072	57850	keystroke_v	v	n/a
28.997	0.304	57994	keystroke_e	e	n/a
29.309	0.152	58618	keystroke_r	r	n/a
29.533	0.1355	59066	keystroke_t	t	n/a
29.6845	0.12	59369	keystroke_i	i	n/a
29.7965	0.112	59593	keystroke_s	s	n/a
30.0045	0.216	60009	keystroke_e	e	n/a
30.1005	0.152	60201	keystroke_r	r	n/a
30.3005	0.192	60601	keystroke_Key.space	Key.space	n/a
30.6525	0.168	61305	keystroke_e	e	n/a
30.8125	0.136	61625	keystroke_l	l	n/a
30.9565	0.112	61913	keystroke_d	d	n/a
31.0445	0.176	62089	keystroke_e	e	n/a
31.1725	0.144	62345	keystroke_r	r	n/a
31.3965	0.096	62793	keystroke_l	l	n/a
31.5805	0.104	63161	keystroke_y	y	n/a
31.7805	0.152	63561	keystroke_Key.space	Key.space	n/a
32.2285	0.104	64457	keystroke_Key.backspace	Key.backspace	n/a
32.4925	0.12	64985	keystroke_Key.enter	Key.enter	n/a
32.617	9.077	65234	prompt	n/a	voice i bags soap\n
33.5245	0.136	67049	keystroke_v	v	n/a
33.6365	0.216	67273	keystroke_o	o	n/a
33.7165	0.152	67433	keystroke_i	i	n/a
33.9165	0.144	67833	keystroke_d	d	n/a
34.5405	0.112	69081	keystroke_Key.backspace	Key.backspace	n/a
34.9325	0.192	69865	keystroke_c	c	n/a
35.0285	0.192	70057	keystroke_e	e	n/a
35.5485	0.16	71097	keystroke_Key.space	Key.space	n/a
35.8205	0.112	71641	keystroke_i	i	n/a
36.0845	0.088	72169	keystroke_Key.space	Key.space	n/a
36.9325	0.1045	73865	keystroke_b	b	n/a
37.0685	0.144	74137	keystroke_a	a	n/a
37.2045	0.216	74409	keystroke_g	g	n/a
37.3725	0.12	74745	keystroke_s	s	n/a
37.669	0.1515	75338	keystroke_Key.space	Key.space	n/a
37.9805	0.16	75961	keystroke_s	s	n/a
38.1805	0.088	76361	keystroke_o	o	n/a
38.3645	0.176	76729	keystroke_a	a	n/a
38.7485	0.16	77497	keystroke_d	d	n/a
39.2605	0.072	78521	keystroke_Key.backspace	Key.backspace	n/a
39.5165	0.088	79033	keystroke_o	o	n/a
39.5405	0.08	79081	keystroke_p	p	n/a
40.0445	0.104	80089	keystroke_Key.backspace	Key.backspace	n/a
40.2205	0.088	80441	keystroke_Key.backspace	Key.backspace	n/a
40.4445	0.112	80889	keystroke_o	o	n/a
40.949	0.088	81898	keystroke_Key.backspace	Key.backspace	n/a
41.1805	0.112	82361	keystroke_p	p	n/a
41.5725	0.12	83145	keystroke_Key.enter	Key.enter	n/a
41.697	10.2215	83394	prompt	n/a	yield looking cycle sticky\n
42.0205	0.1765	84041	keystroke_Key.space	Key.space	n/a
42.669	0.088	85338	keystroke_Key.backspace	Key.backspace	n/a
43.0855	0.096	86171	keystroke_y	y	n/a
43.2775	0.104	86555	keystroke_i	i	n/a
43.3655	0.176	86731	keystroke_e	e	n/a
43.5415	0.184	87083	keystroke_d	d	n/a
43.6855	0.12	87371	keystroke_l	l	n/a
44.3415	0.072	88683	keystroke_Key.backspace	Key.backspace	n/a
44.5015	0.088	89003	keystroke_Key.backspace	Key.backspace	n/a
44.7415	0.088	89483	keystroke_l	l	n/a
44.8535	0.136	89707	keystroke_d	d	n/a
45.7335	0.16	91467	keystroke_Key.space	Key.space	n/a
45.9335	0.088	91867	keystroke_l	l	n/a
46.1255	0.08	92251	keystroke_o	o	n/a
46.2855	0.12	92571	keystroke_o	o	n/a
46.3815	0.112	92763	keystroke_k	k	n/a
46.6135	0.104	93227	keystroke_i	i	n/a
46.6855	0.12	93371	keystroke_n	n	n/a
46.7735	0.136	93547	keystroke_g	g	n/a
46.9655	0.128	93931	keystroke_Key.space	Key.space	n/a
47.1495	0.136	94299	keystroke_c	c	n/a
47.4935	0.128	94987	keystroke_y	y	n/a
47.8215	0.152	95643	keystroke_b	b	n/a
48.4295	0.104	96859	keystroke_Key.backspace	Key.backspace	n/a
48.6135	0.152	97227	keystroke_c	c	n/a
48.7495	0.104	97499	keystroke_l	l	n/a
48.8695	0.152	97739	keystroke_e	e	n/a
49.2295	0.16	98459	keystroke_Key.space	Key.space	n/a
49.7495	0.128	99499	keystroke_s	s	n/a
49.9255	0.128	99851	keystroke_t	t	n/a
50.0775	0.072	100155	keystroke_i	i	n/a
50.2135	0.144	100427	keystroke_c	c	n/a
50.3175	0.096	100635	keystroke_k	k	n/a
50.7575	0.088	101515	keystroke_l	l	n/a
50.8855	0.096	101771	keystroke_y	y	n/a
51.2775	0.088	102555	keystroke_Key.backspace	Key.backspace	n/a
51.4375	0.088	102875	keystroke_Key.backspace	Key.backspace	n/a
51.5575	0.128	103115	keystroke_y	y	n/a
51.8295	0.088	103659	keystroke_Key.enter	Key.enter	n/a
51.921	5.901	103842	prompt	n/a	scale funded trim myspace\n
52.5735	0.128	105147	keystroke_s	s	n/a
52.789	0.2	105578	keystroke_c	c	n/a
52.909	0.184	105818	keystroke_a	a	n/a
53.101	0.096	106202	keystroke_l	l	n/a
53.229	0.144	106458	keystroke_e	e	n/a
53.5975	0.136	107195	keystroke_Key.space	Key.space	n/a
53.8775	0.136	107755	keystroke_f	f	n/a
53.9575	0.136	107915	keystroke_u	u	n/a
54.0935	0.144	108187	keystroke_n	n	n/a
54.2135	0.1595	108427	keystroke_d	d	n/a
54.3255	0.2075	108651	keystroke_e	e	n/a
54.485	0.168	108970	keystroke_d	d	n/a
54.821	0.16	109642	keystroke_Key.space	Key.space	n/a
55.493	0.104	110986	keystroke_t	t	n/a
55.701	0.144	111402	keystroke_r	r	n/a
55.789	0.096	111578	keystroke_i	i	n/a
55.949	0.136	111898	keystroke_m	m	n/a
56.173	0.16	112346	keystroke_Key.space	Key.space	n/a
56.445	0.128	112890	keystroke_m	m	n/a
56.669	0.088	113338	keystroke_y	y	n/a
56.909	0.128	113818	keystroke_s	s	n/a
57.013	0.112	114026	keystroke_p	p	n/a
57.141	0.128	114282	keystroke_a	a	n/a
57.333	0.2	114666	keystroke_c	c	n/a
57.429	0.176	114858	keystroke_e	e	n/a
57.717	0.104	115434	keystroke_Key.enter	Key.enter	n/a
57.825	7.501	115650	prompt	n/a	barry our movement airports\n
58.517	0.096	117034	keystroke_b	b	n/a
58.621	0.152	117242	keystroke_a	a	n/a
58.749	0.088	117498	keystroke_r	r	n/a
58.917	0.112	117834	keystroke_r	r	n/a
59.141	0.112	118282	keystroke_y	y	n/a
59.405	0.144	118810	keystroke_Key.space	Key.space	n/a
59.621	0.232	119242	keystroke_o	o	n/a
59.741	0.12	119482	keystroke_u	u	n/a
59.853	0.12	119706	keystroke_t	t	n/a
60.077	0.168	120154	keystroke_Key.space	Key.space	n/a
60.965	0.096	121930	keystroke_Key.backspace	Key.backspace	n/a
61.133	0.096	122266	keystroke_Key.backspace	Key.backspace	n/a
61.381	0.152	122762	keystroke_r	r	n/a
61.6205	0.168	123241	keystroke_Key.space	Key.space	n/a
62.4525	0.144	124905	keystroke_m	m	n/a
62.5725	0.12	125145	keystroke_o	o	n/a
62.7005	0.16	125401	keystroke_v	v	n/a
62.7885	0.136	125577	keystroke_e	e	n/a
62.8845	0.088	125769	keystroke_m	m	n/a
63.0285	0.136	126057	keystroke_e	e	n/a
63.1005	0.088	126201	keystroke_n	n	n/a
63.2125	0.12	126425	keystroke_t	t	n/a
63.4045	0.16	126809	keystroke_Key.space	Key.space	n/a
63.6765	0.2	127353	keystroke_a	a	n/a
63.9405	0.104	127881	keystroke_i	i	n/a
64.1005	0.16	128201	keystroke_r	r	n/a
64.3965	0.056	128793	keystroke_p	p	n/a
64.6365	0.112	129273	keystroke_o	o	n/a
64.7885	0.088	129577	keystroke_r	r	n/a
64.9805	0.176	129961	keystroke_t	t	n/a
65.1005	0.128	130201	keystroke_s	s	n/a
65.2205	0.104	130441	keystroke_Key.enter	Key.enter	n/a
65.329	7.941	130658	prompt	n/a	pools bookmark influences perhaps\n
66.0605	0.064	132121	keystroke_p	p	n/a
66.4285	0.104	132857	keystroke_o	o	n/a
66.6205	0.08	133241	keystroke_o	o	n/a
66.8285	0.088	133657	keystroke_l	l	n/a
66.9565	0.1285	133913	keystroke_s	s	n/a
67.165	0.16	134330	keystroke_Key.space	Key.space	n/a
67.397	0.136	134794	keystroke_b	b	n/a
67.525	0.056	135050	keystroke_o	o	n/a
67.829	0.096	135658	keystroke_o	o	n/a
68.173	0.096	136346	keystroke_k	k	n/a
68.3965	0.128	136793	keystroke_m	m	n/a
68.5485	0.216	137097	keystroke_a	a	n/a
68.6605	0.16	137321	keystroke_r	r	n/a
68.8205	0.096	137641	keystroke_k	k	n/a
69.0765	0.152	138153	keystroke_Key.space	Key.space	n/a
69.3965	0.152	138793	keystroke_i	i	n/a
69.5405	0.104	139081	keystroke_n	n	n/a
69.6845	0.16	139369	keystroke_f	f	n/a
69.8045	0.192	139609	keystroke_l	l	n/a
69.9565	0.112	139913	keystroke_u	u	n/a
70.1085	0.144	140217	keystroke_e	e	n/a
70.3085	0.096	140617	keystroke_n	n	n/a
70.6925	0.192	141385	keystroke_c	c	n/a
70.7965	0.136	141593	keystroke_e	e	n/a
71.0525	0.144	142105	keystroke_s	s	n/a
71.2845	0.104	142569	keystroke_Key.space	Key.space	n/a
71.5085	0.12	143017	keystroke_p	p	n/a
71.6125	0.136	143225	keystroke_e	e	n/a
71.6925	0.16	143385	keystroke_r	r	n/a
71.8605	0.112	143721	keystroke_h	h	n/a
72.0045	0.144	144009	keystroke_a	a	n/a
72.1085	0.104	144217	keystroke_p	p	n/a
72.2525	0.144	144505	keystroke_s	s	n/a
72.5645	0.16	145129	keystroke_Key.space	Key.space	n/a
72.9325	0.08	145865	keystroke_Key.backspace	Key.backspace	n/a
73.1565	0.112	146313	keystroke_Key.enter	Key.enter	n/a
73.274	9.9405	146548	prompt	n/a	template timothy relative peninsula\n
73.9005	0.2	147801	keystroke_t	t	n/a
73.9965	0.176	147993	keystroke_e	e	n/a
74.0765	0.104	148153	keystroke_m	m	n/a
74.2685	0.088	148537	keystroke_p	p	n/a
74.4685	0.088	148937	keystroke_l	l	n/a
74.5565	0.12	149113	keystroke_a	a	n/a
74.7245	0.232	149449	keystroke_t	t	n/a
74.8125	0.176	149625	keystroke_e	e	n/a
75.0765	0.088	150153	keystroke_Key.space	Key.space	n/a
75.3885	0.184	150777	keystroke_t	t	n/a
75.5565	0.112	151113	keystroke_i	i	n/a
75.7965	0.12	151593	keystroke_m	m	n/a
76.0125	0.104	152025	keystroke_o	o	n/a
76.5005	0.168	153001	keystroke_t	t	n/a
76.6445	0.088	153289	keystroke_h	h	n/a
77.0845	0.096	154169	keystroke_Key.space	Key.space	n/a
77.8045	0.08	155609	keystroke_Key.backspace	Key.backspace	n/a
77.9725	0.088	155945	keystroke_Key.backspace	Key.backspace	n/a
78.6365	0.136	157273	keystroke_h	h	n/a
78.9485	0.136	157897	keystroke_y	y	n/a
79.3965	0.168	158793	keystroke_Key.space	Key.space	n/a
79.8045	0.184	159609	keystroke_r	r	n/a
79.9165	0.088	159833	keystroke_e	e	n/a
80.0205	0.104	160041	keystroke_l	l	n/a
80.1405	0.128	160281	keystroke_a	a	n/a
80.3005	0.128	160601	keystroke_t	t	n/a
80.4365	0.088	160873	keystroke_i	i	n/a
80.5805	0.176	161161	keystroke_v	v	n/a
80.6605	0.176	161321	keystroke_e	e	n/a
80.8685	0.088	161737	keystroke_Key.space	Key.space	n/a
81.0925	0.12	162185	keystroke_p	p	n/a
81.2685	0.144	162537	keystroke_e	e	n/a
81.4285	0.104	162857	keystroke_n	n	n/a
81.6765	0.104	163353	keystroke_i	i	n/a
82.0685	0.104	164137	keystroke_n	n	n/a
82.4445	0.16	164889	keystroke_s	s	n/a
82.5725	0.048	165145	keystroke_u	u	n/a
82.7725	0.088	165545	keystroke_l	l	n/a
82.8765	0.12	165753	keystroke_a	a	n/a
83.1165	0.096	166233	keystroke_Key.enter	Key.enter	n/a
83.217	7.493	166434	prompt	n/a	bufing auto soup stationery\n
84.2925	0.152	168585	keystroke_b	b	n/a
84.3805	0.152	168761	keystroke_u	u	n/a
84.605	0.104	169210	keystroke_f	f	n/a
84.805	0.16	169610	keystroke_i	i	n/a
84.949	0.104	169898	keystroke_n	n	n/a
85.061	0.136	170122	keystroke_g	g	n/a
85.189	0.08	170378	keystroke_Key.space	Key.space	n/a
85.349	0.144	170698	keystroke_a	a	n/a
85.493	0.08	170986	keystroke_u	u	n/a
85.605	0.12	171210	keystroke_t	t	n/a
85.749	0.096	171498	keystroke_o	o	n/a
86.013	0.088	172026	keystroke_Key.space	Key.space	n/a
86.165	0.1835	172330	keystroke_s	s	n/a
86.245	0.2235	172490	keystroke_o	o	n/a
86.3725	0.08	172745	keystroke_u	u	n/a
86.5965	0.0965	173193	keystroke_p	p	n/a
87.1325	0.136	174265	keystroke_s	s	n/a
87.3085	0.176	174617	keystroke_t	t	n/a
87.4205	0.184	174841	keystroke_a	a	n/a
87.7645	0.096	175529	keystroke_Key.backspace	Key.backspace	n/a
87.9725	0.064	175945	keystroke_Key.backspace	Key.backspace	n/a
88.1165	0.088	176233	keystroke_Key.backspace	Key.backspace	n/a
88.2845	0.144	176569	keystroke_Key.space	Key.space	n/a
88.9805	0.16	177961	keystroke_s	s	n/a
89.1485	0.2	178297	keystroke_t	t	n/a
89.2925	0.144	178585	keystroke_a	a	n/a
89.4925	0.168	178985	keystroke_t	t	n/a
89.6205	0.192	179241	keystroke_i	i	n/a
89.7005	0.12	179401	keystroke_o	o	n/a
89.7725	0.16	179545	keystroke_n	n	n/a
89.9565	0.192	179913	keystroke_e	e	n/a
90.0925	0.128	180185	keystroke_r	r	n/a
90.3965	0.144	180793	keystroke_y	y	n/a
90.6045	0.104	181209	keystroke_Key.enter	Key.enter	n/a
90.7125	8.093	181425	prompt	n/a	chose platforms walt travelers\n
91.4285	0.136	182857	keystroke_c	c	n/a
91.4765	0.136	182953	keystroke_h	h	n/a
91.5645	0.136	183129	keystroke_o	o	n/a
91.6925	0.096	183385	keystroke_s	s	n/a
91.8845	0.144	183769	keystroke_e	e	n/a
92.1165	0.12	184233	keystroke_Key.space	Key.space	n/a
92.4445	0.144	184889	keystroke_p	p	n/a
92.6925	0.112	185385	keystroke_l	l	n/a
92.7805	0.088	185561	keystroke_a	a	n/a
92.9325	0.144	185865	keystroke_t	t	n/a
93.2125	0.096	186425	keystroke_f	f	n/a
93.2765	0.096	186553	keystroke_o	o	n/a
93.4045	0.12	186809	keystroke_r	r	n/a
93.5085	0.112	187017	keystroke_m	m	n/a
93.6765	0.096	187353	keystroke_s	s	n/a
93.9645	0.16	187929	keystroke_Key.space	Key.space	n/a
94.1805	0.2	188361	keystroke_w	w	n/a
94.2845	0.152	188569	keystroke_a	a	n/a
94.4125	0.072	188825	keystroke_l	l	n/a
94.5645	0.12	189129	keystroke_t	t	n/a
94.7245	0.0715	189449	keystroke_Key.space	Key.space	n/a
94.988	0.12	189976	keystroke_Key.space	Key.space	n/a
95.604	0.104	191208	keystroke_t	t	n/a
95.82	0.144	191640	keystroke_r	r	n/a
95.916	0.176	191832	keystroke_a	a	n/a
96.268	0.088	192536	keystroke_Key.backspace	Key.backspace	n/a
96.452	0.08	192904	keystroke_Key.backspace	Key.backspace	n/a
96.628	0.096	193256	keystroke_Key.backspace	Key.backspace	n/a
96.884	0.104	193768	keystroke_Key.backspace	Key.backspace	n/a
97.108	0.112	194216	keystroke_t	t	n/a
97.348	0.152	194696	keystroke_r	r	n/a
97.436	0.168	194872	keystroke_a	a	n/a
97.796	0.144	195592	keystroke_v	v	n/a
97.9	0.168	195800	keystroke_e	e	n/a
98.076	0.096	196152	keystroke_l	l	n/a
98.268	0.128	196536	keystroke_e	e	n/a
98.364	0.144	196728	keystroke_r	r	n/a
98.54	0.16	197080	keystroke_s	s	n/a
98.684	0.12	197368	keystroke_Key.enter	Key.enter	n/a
98.808	6.085	197616	prompt	n/a	worn steel dinner broadband\n
99.46	0.144	198920	keystroke_w	w	n/a
99.532	0.08	199064	keystroke_o	o	n/a
99.652	0.168	199304	keystroke_r	r	n/a
99.78	0.08	199560	keystroke_n	n	n/a
100.3	0.072	200600	keystroke_Key.space	Key.space	n/a
100.524	0.12	201048	keystroke_s	s	n/a
100.692	0.184	201384	keystroke_t	t	n/a
100.796	0.168	201592	keystroke_e	e	n/a
101.068	0.16	202136	keystroke_e	e	n/a
101.236	0.08	202472	keystroke_l	l	n/a
101.5	0.088	203000	keystroke_Key.space	Key.space	n/a
101.772	0.136	203544	keystroke_d	d	n/a
101.844	0.088	203688	keystroke_i	i	n/a
102.02	0.072	204040	keystroke_n	n	n/a
102.172	0.104	204344	keystroke_n	n	n/a
102.244	0.192	204488	keystroke_e	e	n/a
102.324	0.168	204648	keystroke_r	r	n/a
102.476	0.08	204952	keystroke_Key.space	Key.space	n/a
102.732	0.104	205464	keystroke_b	b	n/a
102.892	0.16	205784	keystroke_r	r	n/a
103.036	0.088	206072	keystroke_o	o	n/a
103.196	0.192	206392	keystroke_a	a	n/a
103.38	0.128	206760	keystroke_d	d	n/a
104.212	0.192	208424	keystroke_a	a	n/a
104.396	0.096	208792	keystroke_n	n	n/a
104.548	0.128	209096	keystroke_d	d	n/a
104.788	0.104	209576	keystroke_Key.enter	Key.enter	n/a
104.8955	9.0375	209791	prompt	n/a	specializing keno dozen lauren\n
105.548	0.112	211096	keystroke_s	s	n/a
105.636	0.088	211272	keystroke_p	p	n/a
105.772	0.112	211544	keystroke_e	e	n/a
106.972	0.152	213944	keystroke_c	c	n/a
107.116	0.072	214232	keystroke_i	i	n/a
107.252	0.12	214504	keystroke_a	a	n/a
107.348	0.08	214696	keystroke_l	l	n/a
107.604	0.08	215208	keystroke_i	i	n/a
107.732	0.144	215464	keystroke_z	z	n/a
107.892	0.128	215784	keystroke_i	i	n/a
107.996	0.096	215992	keystroke_n	n	n/a
108.068	0.144	216136	keystroke_g	g	n/a
108.22	0.08	216440	keystroke_Key.space	Key.space	n/a
108.572	0.088	217144	keystroke_k	k	n/a
108.692	0.136	217384	keystroke_e	e	n/a
108.836	0.08	217672	keystroke_n	n	n/a
109.028	0.08	218056	keystroke_o	o	n/a
109.34	0.08	218680	keystroke_Key.space	Key.space	n/a
109.844	0.12	219688	keystroke_d	d	n/a
109.94	0.104	219880	keystroke_o	o	n/a
110.164	0.128	220328	keystroke_z	z	n/a
110.356	0.16	220712	keystroke_e	e	n/a
110.532	0.088	221064	keystroke_n	n	n/a
110.844	0.136	221688	keystroke_Key.space	Key.space	n/a
111.052	0.064	222104	keystroke_l	l	n/a
111.188	0.16	222376	keystroke_a	a	n/a
111.812	0.12	223624	keystroke_r	r	n/a
112.284	0.104	224568	keystroke_Key.backspace	Key.backspace	n/a
112.572	0.104	225144	keystroke_u	u	n/a
112.756	0.144	225512	keystroke_z	z	n/a
113.116	0.08	226232	keystroke_Key.backspace	Key.backspace	n/a
113.228	0.2	226456	keystroke_r	r	n/a
113.332	0.16	226664	keystroke_e	e	n/a
113.412	0.096	226824	keystroke_n	n	n/a
113.828	0.104	227656	keystroke_Key.enter	Key.enter	n/a
113.936	6.549	227872	prompt	n/a	abortion examination ohio greek\n
114.756	0.208	229512	keystroke_a	a	n/a
114.932	0.112	229864	keystroke_b	b	n/a
115.02	0.144	230040	keystroke_o	o	n/a
115.172	0.104	230344	keystroke_r	r	n/a
115.364	0.16	230728	keystroke_t	t	n/a
115.46	0.208	230920	keystroke_i	i	n/a
115.564	0.096	231128	keystroke_o	o	n/a
115.628	0.128	231256	keystroke_n	n	n/a
115.964	0.136	231928	keystroke_Key.space	Key.space	n/a
116.236	0.096	232472	keystroke_e	e	n/a
116.476	0.16	232952	keystroke_x	x	n/a
116.604	0.168	233208	keystroke_a	a	n/a
116.764	0.104	233528	keystroke_m	m	n/a
116.956	0.104	233912	keystroke_i	i	n/a
117.028	0.112	234056	keystroke_n	n	n/a
117.188	0.12	234376	keystroke_a	a	n/a
117.396	0.168	234792	keystroke_t	t	n/a
117.516	0.208	235032	keystroke_i	i	n/a
117.62	0.128	235240	keystroke_o	o	n/a
117.66	0.12	235320	keystroke_n	n	n/a
118.052	0.144	236104	keystroke_Key.space	Key.space	n/a
118.276	0.08	236552	keystroke_o	o	n/a
118.46	0.16	236920	keystroke_h	h	n/a
118.612	0.2	237224	keystroke_i	i	n/a
118.772	0.12	237544	keystroke_o	o	n/a
119.084	0.136	238168	keystroke_Key.space	Key.space	n/a
119.444	0.112	238888	keystroke_g	g	n/a
119.652	0.144	239304	keystroke_r	r	n/a
119.748	0.152	239496	keystroke_e	e	n/a
119.988	0.16	239976	keystroke_e	e	n/a
120.14	0.088	240280	keystroke_k	k	n/a
120.38	0.104	240760	keystroke_Key.enter	Key.enter	n/a
120.4875	7.381	240975	prompt	n/a	ridge green newport photoshop\n
121.116	0.104	242232	keystroke_r	r	n/a
121.244	0.064	242488	keystroke_i	i	n/a
121.492	0.112	242984	keystroke_d	d	n/a
121.716	0.176	243432	keystroke_g	g	n/a
121.812	0.168	243624	keystroke_e	e	n/a
122.036	0.072	244072	keystroke_Key.space	Key.space	n/a
122.34	0.112	244680	keystroke_g	g	n/a
122.556	0.136	245112	keystroke_r	r	n/a
122.628	0.136	245256	keystroke_e	e	n/a
122.844	0.168	245688	keystroke_e	e	n/a
122.988	0.096	245976	keystroke_n	n	n/a
123.196	0.104	246392	keystroke_Key.space	Key.space	n/a
123.428	0.104	246856	keystroke_n	n	n/a
123.532	0.224	247064	keystroke_e	e	n/a
123.636	0.152	247272	keystroke_w	w	n/a
123.756	0.072	247512	keystroke_Key.space	Key.space	n/a
124.124	0.136	248248	keystroke_Key.backspace	Key.backspace	n/a
124.452	0.072	248904	keystroke_p	p	n/a
124.812	0.104	249624	keystroke_o	o	n/a
124.98	0.088	249960	keystroke_r	r	n/a
125.148	0.136	250296	keystroke_t	t	n/a
125.324	0.096	250648	keystroke_Key.space	Key.space	n/a
125.692	0.096	251384	keystroke_p	p	n/a
125.916	0.144	251832	keystroke_h	h	n/a
126.036	0.112	252072	keystroke_o	o	n/a
126.2675	0.144	252535	keystroke_t	t	n/a
126.3875	0.0725	252775	keystroke_o	o	n/a
126.596	0.152	253192	keystroke_s	s	n/a
126.668	0.112	253336	keystroke_h	h	n/a
126.956	0.112	253912	keystroke_o	o	n/a
127.2195	0.096	254439	keystroke_p	p	n/a
127.7555	0.112	255511	keystroke_Key.enter	Key.enter	n/a
127.871	8.4935	255742	prompt	n/a	transfers protocol medicine glasgow\n
128.5875	0.08	257175	keystroke_t	t	n/a
128.7715	0.112	257543	keystroke_r	r	n/a
128.8115	0.184	257623	keystroke_a	a	n/a
128.9795	0.08	257959	keystroke_n	n	n/a
129.0595	0.128	258119	keystroke_s	s	n/a
129.2275	0.136	258455	keystroke_f	f	n/a
129.3235	0.184	258647	keystroke_e	e	n/a
129.4675	0.1435	258935	keystroke_r	r	n/a
129.635	0.168	259270	keystroke_s	s	n/a
129.851	0.088	259702	keystroke_Key.space	Key.space	n/a
130.075	0.088	260150	keystroke_p	p	n/a
130.188	0.119	260376	keystroke_r	r	n/a
130.291	0.08	260582	keystroke_o	o	n/a
130.459	0.12	260918	keystroke_t	t	n/a
130.619	0.072	261238	keystroke_o	o	n/a
130.859	0.208	261718	keystroke_c	c	n/a
130.987	0.096	261974	keystroke_a	a	n/a
131.123	0.08	262246	keystroke_o	o	n/a
131.395	0.096	262790	keystroke_Key.backspace	Key.backspace	n/a
131.579	0.056	263158	keystroke_Key.backspace	Key.backspace	n/a
131.811	0.072	263622	keystroke_o	o	n/a
132.027	0.072	264054	keystroke_l	l	n/a
132.251	0.088	264502	keystroke_Key.space	Key.space	n/a
132.675	0.12	265350	keystroke_m	m	n/a
132.796	0.103	265592	keystroke_e	e	n/a
132.995	0.12	265990	keystroke_d	d	n/a
133.067	0.072	266134	keystroke_i	i	n/a
133.259	0.144	266518	keystroke_c	c	n/a
133.379	0.152	266758	keystroke_i	i	n/a
133.483	0.128	266966	keystroke_n	n	n/a
133.587	0.152	267174	keystroke_e	e	n/a
133.891	0.088	267782	keystroke_Key.space	Key.space	n/a
134.403	0.128	268806	keystroke_g	g	n/a
134.555	0.08	269110	keystroke_l	l	n/a
134.907	0.168	269814	keystroke_a	a	n/a
135.259	0.128	270518	keystroke_s	s	n/a
135.835	0.12	271670	keystroke_g	g	n/a
135.979	0.056	271958	keystroke_o	o	n/a
136.091	0.184	272182	keystroke_w	w	n/a
136.251	0.112	272502	keystroke_Key.enter	Key.enter	n/a
136.368	8.1885	272736	prompt	n/a	would've equity americas provinces\n
136.939	0.176	273878	keystroke_w	w	n/a
137.067	0.176	274134	keystroke_o	o	n/a
137.155	0.08	274310	keystroke_u	u	n/a
137.363	0.096	274726	keystroke_l	l	n/a
137.435	0.12	274870	keystroke_d	d	n/a
137.667	0.136	275334	keystroke_'	'	n/a
137.915	0.048	275830	keystroke_s	s	n/a
138.235	0.08	276470	keystroke_Key.backspace	Key.backspace	n/a
138.387	0.176	276774	keystroke_v	v	n/a
138.451	0.192	276902	keystroke_e	e	n/a
138.659	0.104	277318	keystroke_Key.space	Key.space	n/a
138.883	0.128	277766	keystroke_e	e	n/a
139.083	0.184	278166	keystroke_q	q	n/a
139.179	0.16	278358	keystroke_u	u	n/a
139.259	0.12	278518	keystroke_i	i	n/a
139.467	0.112	278934	keystroke_t	t	n/a
139.683	0.128	279366	keystroke_y	y	n/a
139.867	0.088	279734	keystroke_Key.space	Key.space	n/a
140.131	0.136	280262	keystroke_a	a	n/a
140.243	0.12	280486	keystroke_m	m	n/a
140.379	0.176	280758	keystroke_e	e	n/a
140.459	0.152	280918	keystroke_r	r	n/a
140.659	0.08	281318	keystroke_i	i	n/a
141.267	0.208	282534	keystroke_c	c	n/a
141.395	0.224	282790	keystroke_a	a	n/a
141.627	0.16	283254	keystroke_s	s	n/a
141.899	0.072	283798	keystroke_Key.space	Key.space	n/a
142.099	0.104	284198	keystroke_p	p	n/a
142.204	0.119	284408	keystroke_r	r	n/a
142.347	0.088	284694	keystroke_o	o	n/a
142.491	0.176	284982	keystroke_v	v	n/a
142.595	0.152	285190	keystroke_e	e	n/a
143.427	0.096	286854	keystroke_Key.backspace	Key.backspace	n/a
143.691	0.176	287382	keystroke_i	i	n/a
143.795	0.16	287590	keystroke_n	n	n/a
144.003	0.16	288006	keystroke_c	c	n/a
144.091	0.12	288182	keystroke_e	e	n/a
144.339	0.128	288678	keystroke_s	s	n/a
144.459	0.096	288918	keystroke_Key.enter	Key.enter	n/a
144.559	6.1415	289118	prompt	n/a	italian greg method mongolia\n
145.259	0.064	290518	keystroke_i	i	n/a
145.379	0.184	290758	keystroke_t	t	n/a
145.491	0.184	290982	keystroke_a	a	n/a
145.771	0.192	291542	keystroke_l	l	n/a
145.859	0.144	291718	keystroke_i	i	n/a
146.099	0.2	292198	keystroke_a	a	n/a
146.291	0.104	292582	keystroke_n	n	n/a
146.547	0.104	293094	keystroke_Key.space	Key.space	n/a
146.699	0.12	293398	keystroke_g	g	n/a
146.931	0.2	293862	keystroke_r	r	n/a
147.035	0.16	294070	keystroke_e	e	n/a
147.371	0.16	294742	keystroke_g	g	n/a
147.603	0.088	295206	keystroke_Key.space	Key.space	n/a
147.859	0.096	295718	keystroke_m	m	n/a
147.947	0.12	295894	keystroke_e	e	n/a
148.107	0.144	296214	keystroke_t	t	n/a
148.171	0.128	296342	keystroke_h	h	n/a
148.259	0.152	296518	keystroke_o	o	n/a
148.459	0.16	296918	keystroke_d	d	n/a
148.635	0.08	297270	keystroke_Key.space	Key.space	n/a
148.859	0.136	297718	keystroke_m	m	n/a
148.971	0.144	297942	keystroke_o	o	n/a
149.219	0.12	298438	keystroke_n	n	n/a
149.843	0.16	299686	keystroke_g	g	n/a
149.947	0.08	299894	keystroke_o	o	n/a
150.147	0.216	300294	keystroke_l	l	n/a
150.251	0.136	300502	keystroke_i	i	n/a
150.395	0.168	300790	keystroke_a	a	n/a
150.603	0.096	301206	keystroke_Key.enter	Key.enter	n/a
150.703	7.0615	301406	prompt	n/a	canal explaining shelter communist\n
151.483	0.224	302966	keystroke_c	c	n/a
151.619	0.168	303238	keystroke_a	a	n/a
151.715	0.096	303430	keystroke_n	n	n/a
151.891	0.16	303782	keystroke_a	a	n/a
151.963	0.072	303926	keystroke_l	l	n/a
152.211	0.08	304422	keystroke_Key.space	Key.space	n/a
152.435	0.112	304870	keystroke_e	e	n/a
152.715	0.112	305430	keystroke_x	x	n/a
152.827	0.08	305654	keystroke_p	p	n/a
153.027	0.072	306054	keystroke_l	l	n/a
153.147	0.16	306294	keystroke_a	a	n/a
153.267	0.136	306534	keystroke_i	i	n/a
153.371	0.104	306742	keystroke_n	n	n/a
153.635	0.16	307270	keystroke_i	i	n/a
153.747	0.12	307494	keystroke_n	n	n/a
153.875	0.136	307750	keystroke_g	g	n/a
154.003	0.072	308006	keystroke_Key.space	Key.space	n/a
154.275	0.12	308550	keystroke_s	s	n/a
154.387	0.08	308774	keystroke_h	h	n/a
154.483	0.144	308966	keystroke_e	e	n/a
154.611	0.08	309222	keystroke_l	l	n/a
154.739	0.128	309478	keystroke_t	t	n/a
154.875	0.176	309750	keystroke_e	e	n/a
154.995	0.144	309990	keystroke_r	r	n/a
155.083	0.088	310166	keystroke_Key.space	Key.space	n/a
155.411	0.112	310822	keystroke_o	o	n/a
155.859	0.096	311718	keystroke_Key.backspace	Key.backspace	n/a
156.035	0.16	312070	keystroke_c	c	n/a
156.203	0.128	312406	keystroke_o	o	n/a
156.387	0.112	312774	keystroke_m	m	n/a
156.571	0.096	313142	keystroke_m	m	n/a
156.795	0.104	313590	keystroke_u	u	n/a
156.987	0.176	313974	keystroke_n	n	n/a
157.107	0.128	314214	keystroke_i	i	n/a
157.243	0.136	314486	keystroke_s	s	n/a
157.499	0.144	314998	keystroke_t	t	n/a
157.667	0.096	315334	keystroke_Key.enter	Key.enter	n/a
157.7685	6.1625	315537	prompt	n/a	kill conversations roman flashing\n
158.371	0.088	316742	keystroke_k	k	n/a
158.563	0.096	317126	keystroke_i	i	n/a
158.667	0.08	317334	keystroke_l	l	n/a
158.827	0.096	317654	keystroke_l	l	n/a
159.011	0.088	318022	keystroke_Key.space	Key.space	n/a
159.291	0.144	318582	keystroke_c	c	n/a
159.523	0.184	319046	keystroke_o	o	n/a
159.691	0.096	319382	keystroke_n	n	n/a
159.771	0.112	319542	keystroke_v	v	n/a
159.915	0.2	319830	keystroke_e	e	n/a
160.091	0.184	320182	keystroke_r	r	n/a
160.9145	0.168	321829	keystroke_s	s	n/a
161.0505	0.136	322101	keystroke_a	a	n/a
161.2505	0.1435	322501	keystroke_t	t	n/a
161.3465	0.175	322693	keystroke_i	i	n/a
161.418	0.1195	322836	keystroke_o	o	n/a
161.458	0.1275	322916	keystroke_n	n	n/a
161.5695	0.1445	323139	keystroke_s	s	n/a
161.722	0.0875	323444	keystroke_Key.space	Key.space	n/a
161.8495	0.1515	323699	keystroke_r	r	n/a
161.977	0.1115	323954	keystroke_o	o	n/a
162.1605	0.0895	324321	keystroke_m	m	n/a
162.3055	0.152	324611	keystroke_a	a	n/a
162.4015	0.064	324803	keystroke_n	n	n/a
162.5695	0.08	325139	keystroke_Key.space	Key.space	n/a
162.6575	0.1525	325315	keystroke_f	f	n/a
162.786	0.096	325572	keystroke_l	l	n/a
162.89	0.144	325780	keystroke_a	a	n/a
163.082	0.1675	326164	keystroke_s	s	n/a
163.2415	0.152	326483	keystroke_h	h	n/a
163.346	0.1435	326692	keystroke_i	i	n/a
163.5535	0.104	327107	keystroke_n	n	n/a
163.6335	0.12	327267	keystroke_g	g	n/a
163.8175	0.112	327635	keystroke_Key.enter	Key.enter	n/a
163.934	12.1315	327868	prompt	n/a	pubmed oldest rural thursday\n
164.5135	0.112	329027	keystroke_p	p	n/a
164.7695	0.096	329539	keystroke_u	u	n/a
164.9215	0.096	329843	keystroke_b	b	n/a
165.1535	0.12	330307	keystroke_m	m	n/a
165.3055	0.104	330611	keystroke_e	e	n/a
165.5375	0.152	331075	keystroke_d	d	n/a
165.6655	0.056	331331	keystroke_Key.space	Key.space	n/a
165.8335	0.12	331667	keystroke_o	o	n/a
166.0975	0.104	332195	keystroke_l	l	n/a
166.2255	0.104	332451	keystroke_d	d	n/a
166.3055	0.176	332611	keystroke_e	e	n/a
166.4415	0.192	332883	keystroke_r	r	n/a
166.6015	0.184	333203	keystroke_s	s	n/a
166.8495	0.088	333699	keystroke_Key.space	Key.space	n/a
167.0335	0.144	334067	keystroke_r	r	n/a
167.1375	0.088	334275	keystroke_u	u	n/a
167.3215	0.208	334643	keystroke_r	r	n/a
167.4895	0.208	334979	keystroke_a	a	n/a
167.5935	0.096	335187	keystroke_l	l	n/a
168.8335	0.112	337667	keystroke_Key.backspace	Key.backspace	n/a
169.1375	0.1115	338275	keystroke_Key.backspace	Key.backspace	n/a
169.4895	0.096	338979	keystroke_Key.backspace	Key.backspace	n/a
169.8335	0.128	339667	keystroke_s	s	n/a
170.0815	0.128	340163	keystroke_t	t	n/a
170.1855	0.08	340371	keystroke_Key.space	Key.space	n/a
173.488	0.144	346976	keystroke_r	r	n/a
173.592	0.0725	347184	keystroke_u	u	n/a
173.7285	0.184	347457	keystroke_r	r	n/a
173.8645	0.184	347729	keystroke_a	a	n/a
173.9445	0.08	347889	keystroke_l	l	n/a
174.1525	0.072	348305	keystroke_Key.space	Key.space	n/a
174.4005	0.144	348801	keystroke_t	t	n/a
174.5605	0.136	349121	keystroke_h	h	n/a
174.6405	0.12	349281	keystroke_u	u	n/a
174.7605	0.176	349521	keystroke_r	r	n/a
175.1765	0.16	350353	keystroke_s	s	n/a
175.5285	0.12	351057	keystroke_d	d	n/a
175.5845	0.1355	351169	keystroke_a	a	n/a
175.8405	0.144	351681	keystroke_y	y	n/a
175.9605	0.104	351921	keystroke_Key.enter	Key.enter	n/a
176.0685	4.693	352137	prompt	n/a	fans fans farm layers\n
176.672	0.144	353344	keystroke_f	f	n/a
176.744	0.128	353488	keystroke_a	a	n/a
176.856	0.08	353712	keystroke_n	n	n/a
176.952	0.16	353904	keystroke_s	s	n/a
177.144	0.088	354288	keystroke_Key.space	Key.space	n/a
177.24	0.192	354480	keystroke_f	f	n/a
177.352	0.168	354704	keystroke_a	a	n/a
177.44	0.088	354880	keystroke_n	n	n/a
177.536	0.184	355072	keystroke_s	s	n/a
177.744	0.088	355488	keystroke_Key.space	Key.space	n/a
177.904	0.192	355808	keystroke_f	f	n/a
178.032	0.184	356064	keystroke_a	a	n/a
178.216	0.0965	356432	keystroke_m	m	n/a
178.5925	0.056	357185	keystroke_r	r	n/a
178.808	0.08	357616	keystroke_Key.backspace	Key.backspace	n/a
178.96	0.096	357920	keystroke_Key.backspace	Key.backspace	n/a
179.112	0.16	358224	keystroke_r	r	n/a
179.224	0.096	358448	keystroke_m	m	n/a
179.448	0.072	358896	keystroke_Key.space	Key.space	n/a
179.656	0.112	359312	keystroke_l	l	n/a
179.752	0.104	359504	keystroke_a	a	n/a
179.952	0.12	359904	keystroke_y	y	n/a
180.064	0.184	360128	keystroke_e	e	n/a
180.2	0.144	360400	keystroke_r	r	n/a
180.392	0.16	360784	keystroke_s	s	n/a
180.64	0.12	361280	keystroke_Key.enter	Key.enter	n/a
180.764	6.7815	361528	prompt	n/a	fireplace important sticks usps\n
181.504	0.128	363008	keystroke_f	f	n/a
181.728	0.088	363456	keystroke_i	i	n/a
181.848	0.216	363696	keystroke_r	r	n/a
181.944	0.176	363888	keystroke_e	e	n/a
182.296	0.08	364592	keystroke_p	p	n/a
182.52	0.096	365040	keystroke_l	l	n/a
182.64	0.12	365280	keystroke_a	a	n/a
182.808	0.2	365616	keystroke_c	c	n/a
182.92	0.192	365840	keystroke_e	e	n/a
183.016	0.088	366032	keystroke_Key.space	Key.space	n/a
183.232	0.144	366464	keystroke_i	i	n/a
183.344	0.152	366688	keystroke_m	m	n/a
183.592	0.096	367184	keystroke_p	p	n/a
183.808	0.088	367616	keystroke_o	o	n/a
183.904	0.096	367808	keystroke_r	r	n/a
184.104	0.152	368208	keystroke_t	t	n/a
184.192	0.16	368384	keystroke_a	a	n/a
184.32	0.088	368640	keystroke_n	n	n/a
184.424	0.136	368848	keystroke_t	t	n/a
184.968	0.104	369936	keystroke_Key.space	Key.space	n/a
185.184	0.144	370368	keystroke_s	s	n/a
185.344	0.136	370688	keystroke_t	t	n/a
185.512	0.128	371024	keystroke_i	i	n/a
185.72	0.24	371440	keystroke_c	c	n/a
185.848	0.184	371696	keystroke_s	s	n/a
185.968	0.088	371936	keystroke_k	k	n/a
186.248	0.064	372496	keystroke_Key.space	Key.space	n/a
186.664	0.144	373328	keystroke_u	u	n/a
186.88	0.152	373760	keystroke_s	s	n/a
187.04	0.08	374080	keystroke_p	p	n/a
187.176	0.136	374352	keystroke_s	s	n/a
187.424	0.12	374848	keystroke_Key.enter	Key.enter	n/a
187.549	6.4125	375098	prompt	n/a	lesson premiere jesse consult\n
188.256	0.104	376512	keystroke_l	l	n/a
188.36	0.096	376720	keystroke_e	e	n/a
188.584	0.08	377168	keystroke_s	s	n/a
188.752	0.136	377504	keystroke_s	s	n/a
188.84	0.16	377680	keystroke_o	o	n/a
188.936	0.112	377872	keystroke_n	n	n/a
189.176	0.096	378352	keystroke_Key.space	Key.space	n/a
189.456	0.104	378912	keystroke_p	p	n/a
189.664	0.2	379328	keystroke_r	r	n/a
189.752	0.152	379504	keystroke_e	e	n/a
190.104	0.0965	380208	keystroke_m	m	n/a
190.3205	0.088	380641	keystroke_i	i	n/a
190.912	0.152	381824	keystroke_e	e	n/a
191.024	0.216	382048	keystroke_r	r	n/a
191.176	0.176	382352	keystroke_e	e	n/a
191.616	0.072	383232	keystroke_Key.space	Key.space	n/a
191.856	0.088	383712	keystroke_j	j	n/a
192	0.088	384000	keystroke_e	e	n/a
192.232	0.072	384464	keystroke_s	s	n/a
192.4	0.08	384800	keystroke_s	s	n/a
192.584	0.12	385168	keystroke_e	e	n/a
192.696	0.08	385392	keystroke_Key.space	Key.space	n/a
192.8805	0.1675	385761	keystroke_c	c	n/a
192.992	0.136	385984	keystroke_o	o	n/a
193.056	0.104	386112	keystroke_n	n	n/a
193.2	0.144	386400	keystroke_s	s	n/a
193.256	0.104	386512	keystroke_u	u	n/a
193.472	0.0885	386944	keystroke_l	l	n/a
193.5685	0.1275	387137	keystroke_t	t	n/a
193.8405	0.12	387681	keystroke_Key.enter	Key.enter	n/a
193.964	5.0855	387928	prompt	n/a	figure zone euro trader\n
194.648	0.112	389296	keystroke_f	f	n/a
194.768	0.0805	389536	keystroke_i	i	n/a
194.9045	0.112	389809	keystroke_g	g	n/a
195.0325	0.0875	390065	keystroke_u	u	n/a
195.144	0.184	390288	keystroke_r	r	n/a
195.232	0.16	390464	keystroke_e	e	n/a
195.416	0.08	390832	keystroke_Key.space	Key.space	n/a
195.6005	0.1755	391201	keystroke_z	z	n/a
195.768	0.152	391536	keystroke_o	o	n/a
195.888	0.128	391776	keystroke_n	n	n/a
196.048	0.152	392096	keystroke_e	e	n/a
196.208	0.088	392416	keystroke_Key.space	Key.space	n/a
196.4	0.136	392800	keystroke_e	e	n/a
196.592	0.112	393184	keystroke_u	u	n/a
196.904	0.168	393808	keystroke_r	r	n/a
197.032	0.08	394064	keystroke_o	o	n/a
197.3525	0.08	394705	keystroke_Key.space	Key.space	n/a
198.2165	0.072	396433	keystroke_t	t	n/a
198.4085	0.104	396817	keystroke_r	r	n/a
198.4485	0.16	396897	keystroke_a	a	n/a
198.6325	0.12	397265	keystroke_d	d	n/a
198.7125	0.208	397425	keystroke_e	e	n/a
198.8485	0.16	397697	keystroke_r	r	n/a
198.9605	0.088	397921	keystroke_Key.enter	Key.enter	n/a
199.0525	4.645	398105	prompt	n/a	album year golf casey\n
199.6485	0.176	399297	keystroke_a	a	n/a
199.7605	0.064	399521	keystroke_l	l	n/a
199.9205	0.144	399841	keystroke_b	b	n/a
200.0085	0.144	400017	keystroke_u	u	n/a
200.2725	0.128	400545	keystroke_m	m	n/a
200.5365	0.088	401073	keystroke_Key.space	Key.space	n/a
200.7685	0.096	401537	keystroke_y	y	n/a
200.8805	0.248	401761	keystroke_e	e	n/a
200.9605	0.16	401921	keystroke_a	a	n/a
201.0165	0.192	402033	keystroke_r	r	n/a
201.1685	0.08	402337	keystroke_Key.space	Key.space	n/a
201.3925	0.152	402785	keystroke_g	g	n/a
201.4885	0.104	402977	keystroke_o	o	n/a
201.7125	0.072	403425	keystroke_l	l	n/a
201.9365	0.152	403873	keystroke_f	f	n/a
202.0885	0.112	404177	keystroke_Key.space	Key.space	n/a
202.4005	0.168	404801	keystroke_c	c	n/a
202.5205	0.208	405041	keystroke_a	a	n/a
202.6885	0.16	405377	keystroke_s	s	n/a
203.2	0.136	406400	keystroke_e	e	n/a
203.472	0.1205	406944	keystroke_y	y	n/a
203.6085	0.088	407217	keystroke_Key.enter	Key.enter	n/a
203.7	4.1335	407400	prompt	n/a	navigator analysis qualify summit\n
204.408	0.1195	408816	keystroke_n	n	n/a
204.5355	0.1365	409071	keystroke_a	a	n/a
204.832	0.112	409664	keystroke_v	v	n/a
204.928	0.08	409856	keystroke_i	i	n/a
205.104	0.12	410208	keystroke_g	g	n/a
205.312	0.112	410624	keystroke_a	a	n/a
205.464	0.128	410928	keystroke_t	t	n/a
205.64	0.096	411280	keystroke_o	o	n/a
205.752	0.16	411504	keystroke_r	r	n/a
205.92	0.08	411840	keystroke_Key.space	Key.space	n/a
206.288	0.128	412576	keystroke_a	a	n/a
206.424	0.096	412848	keystroke_n	n	n/a
206.528	0.1285	413056	keystroke_a	a	n/a
206.6645	0.096	413329	keystroke_l	l	n/a
206.8565	0.088	413713	keystroke_y	y	n/a
207.2725	0.152	414545	keystroke_s	s	n/a
207.4485	0.072	414897	keystroke_i	i	n/a
207.5845	0.112	415169	keystroke_s	s	n/a
207.7445	0.088	415489	keystroke_Key.enter	Key.enter	n/a
207.836	10.485	415672	prompt	n/a	consent digest bluetooth wireless\n
209.36	0.16	418720	keystroke_c	c	n/a
209.48	0.12	418960	keystroke_o	o	n/a
209.552	0.128	419104	keystroke_n	n	n/a
209.656	0.088	419312	keystroke_s	s	n/a
209.856	0.144	419712	keystroke_e	e	n/a
209.992	0.096	419984	keystroke_n	n	n/a
210.096	0.16	420192	keystroke_t	t	n/a
210.296	0.104	420592	keystroke_Key.space	Key.space	n/a
211.008	0.08	422016	keystroke_Key.backspace	Key.backspace	n/a
211.4075	0.089	422815	keystroke_Key.space	Key.space	n/a
211.6165	0.16	423233	keystroke_d	d	n/a
211.7685	0.08	423537	keystroke_i	i	n/a
211.9525	0.176	423905	keystroke_g	g	n/a
212.0645	0.136	424129	keystroke_e	e	n/a
212.3125	0.12	424625	keystroke_s	s	n/a
212.4645	0.152	424929	keystroke_t	t	n/a
212.5925	0.071	425185	keystroke_Key.space	Key.space	n/a
212.7845	0.112	425569	keystroke_b	b	n/a
212.9045	0.184	425809	keystroke_l	l	n/a
213.0645	0.144	426129	keystroke_u	u	n/a
213.5605	0.16	427121	keystroke_t	t	n/a
213.7925	0.072	427585	keystroke_o	o	n/a
213.9445	0.104	427889	keystroke_o	o	n/a
214.1605	0.152	428321	keystroke_t	t	n/a
214.4395	0.072	428879	keystroke_Key.backspace	Key.backspace	n/a
214.6155	0.081	429231	keystroke_Key.backspace	Key.backspace	n/a
214.7925	0.088	429585	keystroke_Key.backspace	Key.backspace	n/a
214.9765	0.095	429953	keystroke_Key.backspace	Key.backspace	n/a
215.304	0.152	430608	keystroke_e	e	n/a
215.6325	0.1595	431265	keystroke_t	t	n/a
215.888	0.08	431776	keystroke_o	o	n/a
216.0485	0.088	432097	keystroke_o	o	n/a
216.2325	0.16	432465	keystroke_t	t	n/a
216.3605	0.08	432721	keystroke_h	h	n/a
216.5925	0.071	433185	keystroke_Key.space	Key.space	n/a
217.032	0.136	434064	keystroke_w	w	n/a
217.16	0.104	434320	keystroke_i	i	n/a
217.272	0.24	434544	keystroke_r	r	n/a
217.352	0.192	434704	keystroke_e	e	n/a
217.736	0.096	435472	keystroke_l	l	n/a
217.872	0.088	435744	keystroke_e	e	n/a
218.08	0.136	436160	keystroke_s	s	n/a
218.248	0.072	436496	keystroke_Key.enter	Key.enter	n/a
218.324	0.173	436648	prompt	n/a	significance mail word cannon\n
218.392	0.104	436784	keystroke_Key.enter	Key.enter	n/a
218.4995	9.0695	436999	prompt	n/a	marks checkout wise concentration\n
219.312	0.104	438624	keystroke_m	m	n/a
219.408	0.2	438816	keystroke_a	a	n/a
219.6	0.088	439200	keystroke_k	k	n/a
219.664	0.176	439328	keystroke_r	r	n/a
219.88	0.144	439760	keystroke_e	e	n/a
220.288	0.071	440576	keystroke_Key.backspace	Key.backspace	n/a
220.472	0.087	440944	keystroke_Key.backspace	Key.backspace	n/a
220.639	0.088	441278	keystroke_Key.backspace	Key.backspace	n/a
220.792	0.144	441584	keystroke_r	r	n/a
220.96	0.072	441920	keystroke_k	k	n/a
221.0955	0.152	442191	keystroke_s	s	n/a
221.368	0.1035	442736	keystroke_Key.space	Key.space	n/a
221.8395	0.168	443679	keystroke_c	c	n/a
221.9355	0.088	443871	keystroke_h	h	n/a
222.0155	0.16	444031	keystroke_e	e	n/a
222.1515	0.152	444303	keystroke_c	c	n/a
222.2235	0.088	444447	keystroke_k	k	n/a
222.4075	0.2565	444815	keystroke_o	o	n/a
222.5275	0.1285	445055	keystroke_u	u	n/a
222.5915	0.1525	445183	keystroke_t	t	n/a
222.984	0.128	445968	keystroke_Key.space	Key.space	n/a
223.28	0.136	446560	keystroke_w	w	n/a
223.416	0.088	446832	keystroke_i	i	n/a
223.552	0.096	447104	keystroke_s	s	n/a
223.76	0.144	447520	keystroke_e	e	n/a
223.928	0.088	447856	keystroke_Key.space	Key.space	n/a
224.136	0.192	448272	keystroke_c	c	n/a
224.288	0.12	448576	keystroke_o	o	n/a
224.368	0.096	448736	keystroke_n	n	n/a
224.504	0.208	449008	keystroke_e	e	n/a
224.968	0.192	449936	keystroke_c	c	n/a
225.44	0.064	450880	keystroke_Key.backspace	Key.backspace	n/a
225.888	0.104	451776	keystroke_Key.backspace	Key.backspace	n/a
226.064	0.192	452128	keystroke_c	c	n/a
226.16	0.224	452320	keystroke_e	e	n/a
226.28	0.088	452560	keystroke_n	n	n/a
226.456	0.112	452912	keystroke_t	t	n/a
226.664	0.152	453328	keystroke_r	r	n/a
226.744	0.152	453488	keystroke_a	a	n/a
226.928	0.168	453856	keystroke_t	t	n/a
226.992	0.2	453984	keystroke_i	i	n/a
227.088	0.112	454176	keystroke_o	o	n/a
227.128	0.128	454256	keystroke_n	n	n/a
227.464	0.104	454928	keystroke_Key.enter	Key.enter	n/a
227.5735	8.324	455147	prompt	n/a	king utils feeds periodically\n
228.16	0.08	456320	keystroke_k	k	n/a
228.344	0.144	456688	keystroke_i	i	n/a
228.456	0.128	456912	keystroke_n	n	n/a
228.64	0.096	457280	keystroke_g	g	n/a
228.832	0.088	457664	keystroke_Key.space	Key.space	n/a
229.36	0.112	458720	keystroke_u	u	n/a
230.768	0.152	461536	keystroke_t	t	n/a
230.912	0.072	461824	keystroke_i	i	n/a
231.128	0.24	462256	keystroke_l	l	n/a
231.208	0.136	462416	keystroke_i	i	n/a
231.8805	0.0715	463761	keystroke_Key.backspace	Key.backspace	n/a
232.1685	0.128	464337	keystroke_s	s	n/a
232.3125	0.0955	464625	keystroke_Key.space	Key.space	n/a
232.6565	0.144	465313	keystroke_f	f	n/a
232.7765	0.088	465553	keystroke_e	e	n/a
232.9285	0.104	465857	keystroke_e	e	n/a
233.136	0.144	466272	keystroke_d	d	n/a
233.4235	0.1365	466847	keystroke_s	s	n/a
233.64	0.1035	467280	keystroke_Key.space	Key.space	n/a
233.9595	0.1285	467919	keystroke_p	p	n/a
234.1675	0.2	468335	keystroke_e	e	n/a
234.3195	0.16	468639	keystroke_r	r	n/a
234.4635	0.1685	468927	keystroke_i	i	n/a
234.56	0.12	469120	keystroke_o	o	n/a
234.792	0.152	469584	keystroke_d	d	n/a
234.984	0.088	469968	keystroke_i	i	n/a
235.152	0.176	470304	keystroke_c	c	n/a
235.264	0.16	470528	keystroke_a	a	n/a
235.384	0.056	470768	keystroke_l	l	n/a
235.52	0.088	471040	keystroke_l	l	n/a
235.672	0.12	471344	keystroke_y	y	n/a
235.824	0.072	471648	keystroke_Key.enter	Key.enter	n/a
235.8995	5.8775	471799	prompt	n/a	impressive rick technique prague\n
236.4955	0.096	472991	keystroke_i	i	n/a
236.6555	0.112	473311	keystroke_m	m	n/a
236.8395	0.104	473679	keystroke_p	p	n/a
236.9355	0.168	473871	keystroke_r	r	n/a
237.0155	0.128	474031	keystroke_e	e	n/a
237.2795	0.064	474559	keystroke_s	s	n/a
237.4075	0.12	474815	keystroke_s	s	n/a
237.5595	0.072	475119	keystroke_i	i	n/a
237.6395	0.208	475279	keystroke_v	v	n/a
237.7435	0.176	475487	keystroke_e	e	n/a
237.8635	0.096	475727	keystroke_Key.space	Key.space	n/a
238.0555	0.12	476111	keystroke_r	r	n/a
238.1595	0.072	476319	keystroke_i	i	n/a
238.3115	0.168	476623	keystroke_c	c	n/a
238.4395	0.072	476879	keystroke_k	k	n/a
238.6715	0.088	477343	keystroke_Key.space	Key.space	n/a
239.1595	0.104	478319	keystroke_t	t	n/a
239.2235	0.128	478447	keystroke_e	e	n/a
239.4555	0.152	478911	keystroke_c	c	n/a
239.5515	0.104	479103	keystroke_h	h	n/a
239.7755	0.136	479551	keystroke_n	n	n/a
239.8635	0.152	479727	keystroke_i	i	n/a
240.1435	0.128	480287	keystroke_q	q	n/a
240.2875	0.088	480575	keystroke_u	u	n/a
240.4075	0.136	480815	keystroke_e	e	n/a
240.5995	0.072	481199	keystroke_Key.space	Key.space	n/a
240.7995	0.104	481599	keystroke_p	p	n/a
240.9275	0.2	481855	keystroke_r	r	n/a
241.0475	0.152	482095	keystroke_a	a	n/a
241.3275	0.128	482655	keystroke_g	g	n/a
241.4635	0.08	482927	keystroke_u	u	n/a
241.5355	0.152	483071	keystroke_e	e	n/a
241.7115	0.064	483423	keystroke_Key.enter	Key.enter	n/a
241.7805	7.244	483561	prompt	n/a	highways turtle wars cincinnati\n
242.3915	0.112	484783	keystroke_h	h	n/a
242.4795	0.104	484959	keystroke_i	i	n/a
242.5675	0.144	485135	keystroke_g	g	n/a
242.7195	0.112	485439	keystroke_h	h	n/a
243.0955	0.152	486191	keystroke_w	w	n/a
243.2075	0.104	486415	keystroke_a	a	n/a
243.4475	0.088	486895	keystroke_y	y	n/a
243.6235	0.104	487247	keystroke_s	s	n/a
243.7195	0.104	487439	keystroke_Key.space	Key.space	n/a
243.8395	0.16	487679	keystroke_t	t	n/a
244.0475	0.112	488095	keystroke_u	u	n/a
244.2715	0.144	488543	keystroke_r	r	n/a
244.6555	0.144	489311	keystroke_t	t	n/a
244.7995	0.08	489599	keystroke_l	l	n/a
244.9115	0.12	489823	keystroke_e	e	n/a
245.1035	0.096	490207	keystroke_Key.space	Key.space	n/a
245.2395	0.24	490479	keystroke_w	w	n/a
245.3755	0.184	490751	keystroke_a	a	n/a
245.5275	0.16	491055	keystroke_r	r	n/a
245.7355	0.12	491471	keystroke_Key.space	Key.space	n/a
246.5435	0.176	493087	keystroke_c	c	n/a
246.7595	0.168	493519	keystroke_i	i	n/a
246.8955	0.144	493791	keystroke_n	n	n/a
247.2635	0.168	494527	keystroke_c	c	n/a
247.3675	0.16	494735	keystroke_i	i	n/a
247.4795	0.16	494959	keystroke_n	n	n/a
248.1915	0.112	496383	keystroke_n	n	n/a
248.3835	0.144	496767	keystroke_a	a	n/a
248.5995	0.144	497199	keystroke_t	t	n/a
248.6795	0.088	497359	keystroke_i	i	n/a
248.9195	0.104	497839	keystroke_Key.enter	Key.enter	n/a
249.027	8.4525	498054	prompt	n/a	addressing europe bloom tube\n
249.6475	0.16	499295	keystroke_a	a	n/a
249.8155	0.104	499631	keystroke_d	d	n/a
249.9835	0.096	499967	keystroke_d	d	n/a
250.1675	0.16	500335	keystroke_r	r	n/a
250.2475	0.152	500495	keystroke_e	e	n/a
250.5515	0.056	501103	keystroke_s	s	n/a
250.7195	0.096	501439	keystroke_s	s	n/a
250.8235	0.128	501647	keystroke_i	i	n/a
250.9275	0.096	501855	keystroke_n	n	n/a
250.9755	0.12	501951	keystroke_g	g	n/a
251.1355	0.104	502271	keystroke_Key.space	Key.space	n/a
251.2955	0.12	502591	keystroke_e	e	n/a
251.7675	0.128	503535	keystroke_u	u	n/a
252.1355	0.152	504271	keystroke_r	r	n/a
252.3115	0.104	504623	keystroke_o	o	n/a
252.5675	0.096	505135	keystroke_p	p	n/a
252.6955	0.16	505391	keystroke_e	e	n/a
252.8795	0.096	505759	keystroke_Key.space	Key.space	n/a
253.271	0.16	506542	keystroke_b	b	n/a
253.527	0.1115	507054	keystroke_l	l	n/a
254.086	0.073	508172	keystroke_Key.backspace	Key.backspace	n/a
254.2785	0.088	508557	keystroke_Key.backspace	Key.backspace	n/a
254.494	0.08	508988	keystroke_Key.backspace	Key.backspace	n/a
255.3505	0.0965	510701	keystroke_Key.space	Key.space	n/a
255.599	0.112	511198	keystroke_b	b	n/a
255.807	0.088	511614	keystroke_l	l	n/a
255.999	0.096	511998	keystroke_o	o	n/a
256.1665	0.12	512333	keystroke_o	o	n/a
256.3745	0.112	512749	keystroke_m	m	n/a
256.5905	0.096	513181	keystroke_Key.space	Key.space	n/a
256.9185	0.12	513837	keystroke_t	t	n/a
256.9905	0.08	513981	keystroke_u	u	n/a
257.1265	0.112	514253	keystroke_b	b	n/a
257.2305	0.152	514461	keystroke_e	e	n/a
257.3985	0.08	514797	keystroke_Key.enter	Key.enter	n/a
257.482	7.2535	514964	prompt	n/a	mortality overseas doom tend\n
258.1345	0.128	516269	keystroke_m	m	n/a
258.2785	0.128	516557	keystroke_o	o	n/a
258.7745	0.136	517549	keystroke_r	r	n/a
259.287	0.1595	518574	keystroke_t	t	n/a
259.575	0.168	519150	keystroke_a	a	n/a
259.759	0.232	519518	keystroke_l	l	n/a
259.911	0.136	519822	keystroke_i	i	n/a
260.143	0.104	520286	keystroke_t	t	n/a
260.375	0.128	520750	keystroke_y	y	n/a
260.519	0.096	521038	keystroke_Key.space	Key.space	n/a
260.775	0.088	521550	keystroke_o	o	n/a
260.951	0.136	521902	keystroke_v	v	n/a
261.039	0.192	522078	keystroke_e	e	n/a
261.239	0.168	522478	keystroke_r	r	n/a
261.399	0.184	522798	keystroke_a	a	n/a
261.927	0.112	523854	keystroke_Key.backspace	Key.backspace	n/a
262.151	0.088	524302	keystroke_s	s	n/a
262.335	0.152	524670	keystroke_e	e	n/a
262.431	0.192	524862	keystroke_a	a	n/a
262.607	0.136	525214	keystroke_s	s	n/a
262.831	0.096	525662	keystroke_Key.space	Key.space	n/a
263.095	0.16	526190	keystroke_d	d	n/a
263.199	0.072	526398	keystroke_o	o	n/a
263.351	0.1035	526702	keystroke_o	o	n/a
263.5185	0.1205	527037	keystroke_m	m	n/a
263.775	0.096	527550	keystroke_Key.space	Key.space	n/a
264.039	0.168	528078	keystroke_t	t	n/a
264.135	0.152	528270	keystroke_e	e	n/a
264.263	0.08	528526	keystroke_n	n	n/a
264.391	0.168	528782	keystroke_d	d	n/a
264.647	0.0875	529294	keystroke_Key.enter	Key.enter	n/a
264.7385	7.789	529477	prompt	n/a	hotels leader obtained hoping\n
265.494	0.1605	530988	keystroke_h	h	n/a
265.606	0.1365	531212	keystroke_o	o	n/a
265.966	0.1525	531932	keystroke_t	t	n/a
266.022	0.1525	532044	keystroke_e	e	n/a
266.1985	0.072	532397	keystroke_l	l	n/a
266.3345	0.104	532669	keystroke_s	s	n/a
266.5105	0.088	533021	keystroke_Key.space	Key.space	n/a
266.8705	0.088	533741	keystroke_l	l	n/a
266.9745	0.184	533949	keystroke_e	e	n/a
267.0705	0.128	534141	keystroke_a	a	n/a
267.1905	0.048	534381	keystroke_e	e	n/a
267.1985	0.176	534397	keystroke_d	d	n/a
267.3425	0.288	534685	keystroke_e	e	n/a
267.4785	0.216	534957	keystroke_r	r	n/a
267.7585	0.088	535517	keystroke_Key.space	Key.space	n/a
268.2145	0.088	536429	keystroke_Key.backspace	Key.backspace	n/a
268.4145	0.088	536829	keystroke_Key.backspace	Key.backspace	n/a
268.6065	0.08	537213	keystroke_Key.backspace	Key.backspace	n/a
268.7905	0.08	537581	keystroke_Key.backspace	Key.backspace	n/a
269.0065	0.1035	538013	keystroke_Key.backspace	Key.backspace	n/a
269.174	0.1205	538348	keystroke_d	d	n/a
269.2305	0.2475	538461	keystroke_e	e	n/a
269.414	0.2	538828	keystroke_r	r	n/a
269.606	0.096	539212	keystroke_Key.space	Key.space	n/a
270.0145	0.112	540029	keystroke_o	o	n/a
270.2145	0.112	540429	keystroke_b	b	n/a
270.4865	0.144	540973	keystroke_t	t	n/a
270.5585	0.192	541117	keystroke_a	a	n/a
270.6945	0.136	541389	keystroke_i	i	n/a
270.7905	0.128	541581	keystroke_n	n	n/a
270.9265	0.088	541853	keystroke_e	e	n/a
271.1265	0.136	542253	keystroke_d	d	n/a
271.1825	0.088	542365	keystroke_Key.space	Key.space	n/a
271.4785	0.136	542957	keystroke_h	h	n/a
271.5585	0.136	543117	keystroke_o	o	n/a
271.8145	0.096	543629	keystroke_p	p	n/a
272.0465	0.152	544093	keystroke_i	i	n/a
272.1425	0.152	544285	keystroke_n	n	n/a
272.2545	0.136	544509	keystroke_g	g	n/a
272.4545	0.072	544909	keystroke_Key.enter	Key.enter	n/a
272.531	8.783	545062	prompt	n/a	reception joined pierre absent\n
273.1905	0.1435	546381	keystroke_r	r	n/a
273.286	0.12	546572	keystroke_e	e	n/a
273.5025	0.1755	547005	keystroke_c	c	n/a
273.582	0.192	547164	keystroke_e	e	n/a
273.83	0.112	547660	keystroke_o	o	n/a
274.302	0.072	548604	keystroke_Key.backspace	Key.backspace	n/a
274.55	0.128	549100	keystroke_p	p	n/a
274.878	0.16	549756	keystroke_t	t	n/a
274.95	0.264	549900	keystroke_i	i	n/a
275.046	0.176	550092	keystroke_o	o	n/a
275.166	0.152	550332	keystroke_n	n	n/a
275.502	0.096	551004	keystroke_Key.space	Key.space	n/a
275.814	0.16	551628	keystroke_j	j	n/a
275.9425	0.24	551885	keystroke_o	o	n/a
276.03	0.1925	552060	keystroke_i	i	n/a
276.1985	0.152	552397	keystroke_n	n	n/a
276.414	0.08	552828	keystroke_e	e	n/a
276.614	0.1525	553228	keystroke_d	d	n/a
276.7025	0.096	553405	keystroke_Key.space	Key.space	n/a
276.99	0.144	553980	keystroke_p	p	n/a
277.278	0.12	554556	keystroke_i	i	n/a
277.478	0.176	554956	keystroke_e	e	n/a
277.614	0.176	555228	keystroke_r	r	n/a
278.3745	0.088	556749	keystroke_r	r	n/a
278.8945	0.152	557789	keystroke_s	s	n/a
279.4065	0.08	558813	keystroke_Key.backspace	Key.backspace	n/a
279.5585	0.136	559117	keystroke_e	e	n/a
279.7505	0.08	559501	keystroke_Key.space	Key.space	n/a
280.3105	0.16	560621	keystroke_a	a	n/a
280.4545	0.096	560909	keystroke_b	b	n/a
280.6145	0.088	561229	keystroke_s	s	n/a
280.7985	0.136	561597	keystroke_e	e	n/a
280.9265	0.096	561853	keystroke_n	n	n/a
281.0145	0.152	562029	keystroke_t	t	n/a
281.2065	0.1035	562413	keystroke_Key.enter	Key.enter	n/a
281.314	5.678	562628	prompt	n/a	tape capable unless reveals\n
282.0225	0.168	564045	keystroke_t	t	n/a
282.1185	0.192	564237	keystroke_a	a	n/a
282.2785	0.08	564557	keystroke_p	p	n/a
282.4545	0.136	564909	keystroke_e	e	n/a
282.6385	0.08	565277	keystroke_Key.space	Key.space	n/a
283.1265	0.16	566253	keystroke_c	c	n/a
283.2225	0.216	566445	keystroke_a	a	n/a
283.4145	0.112	566829	keystroke_p	p	n/a
283.6145	0.16	567229	keystroke_a	a	n/a
283.8145	0.12	567629	keystroke_b	b	n/a
283.9505	0.104	567901	keystroke_l	l	n/a
284.0545	0.136	568109	keystroke_e	e	n/a
284.2545	0.088	568509	keystroke_Key.space	Key.space	n/a
284.4865	0.128	568973	keystroke_u	u	n/a
284.6545	0.112	569309	keystroke_n	n	n/a
284.8465	0.104	569693	keystroke_l	l	n/a
284.9425	0.088	569885	keystroke_e	e	n/a
285.1745	0.064	570349	keystroke_s	s	n/a
285.326	0.1125	570652	keystroke_s	s	n/a
285.4385	0.112	570877	keystroke_Key.space	Key.space	n/a
285.5905	0.168	571181	keystroke_r	r	n/a
285.6625	0.16	571325	keystroke_e	e	n/a
285.9345	0.192	571869	keystroke_v	v	n/a
286.0225	0.28	572045	keystroke_e	e	n/a
286.1665	0.176	572333	keystroke_a	a	n/a
286.3345	0.072	572669	keystroke_l	l	n/a
286.5425	0.136	573085	keystroke_s	s	n/a
286.8945	0.096	573789	keystroke_Key.enter	Key.enter	n/a
286.995	6.9965	573990	prompt	n/a	lincoln outcome fresh fake\n
287.6945	0.248	575389	keystroke_l	l	n/a
287.7985	0.184	575597	keystroke_i	i	n/a
287.9185	0.152	575837	keystroke_n	n	n/a
288.1505	0.168	576301	keystroke_c	c	n/a
289.1105	0.104	578221	keystroke_o	o	n/a
289.4705	0.088	578941	keystroke_l	l	n/a
289.5665	0.12	579133	keystroke_n	n	n/a
289.9105	0.096	579821	keystroke_Key.space	Key.space	n/a
290.1985	0.272	580397	keystroke_o	o	n/a
290.3505	0.136	580701	keystroke_u	u	n/a
290.4785	0.144	580957	keystroke_t	t	n/a
290.8705	0.184	581741	keystroke_c	c	n/a
291.0385	0.192	582077	keystroke_o	o	n/a
291.1505	0.144	582301	keystroke_m	m	n/a
291.2385	0.136	582477	keystroke_e	e	n/a
291.4865	0.096	582973	keystroke_Key.space	Key.space	n/a
291.6065	0.136	583213	keystroke_f	f	n/a
291.8305	0.168	583661	keystroke_r	r	n/a
291.9025	0.136	583805	keystroke_e	e	n/a
292.1745	0.08	584349	keystroke_s	s	n/a
292.3505	0.128	584701	keystroke_s	s	n/a
292.7265	0.08	585453	keystroke_Key.backspace	Key.backspace	n/a
292.9665	0.088	585933	keystroke_h	h	n/a
293.1985	0.096	586397	keystroke_Key.space	Key.space	n/a
293.4065	0.16	586813	keystroke_f	f	n/a
293.5025	0.144	587005	keystroke_a	a	n/a
293.6545	0.088	587309	keystroke_k	k	n/a
293.7585	0.152	587517	keystroke_e	e	n/a
293.9345	0.056	587869	keystroke_Key.enter	Key.enter	n/a
293.994	6.8045	587988	prompt	n/a	contained sleeping frequencies wear\n
294.6945	0.144	589389	keystroke_c	c	n/a
294.7905	0.136	589581	keystroke_o	o	n/a
294.8705	0.136	589741	keystroke_n	n	n/a
295.0065	0.16	590013	keystroke_t	t	n/a
295.1105	0.1675	590221	keystroke_a	a	n/a
295.198	0.144	590396	keystroke_i	i	n/a
295.286	0.136	590572	keystroke_n	n	n/a
295.398	0.088	590796	keystroke_e	e	n/a
295.598	0.104	591196	keystroke_d	d	n/a
295.67	0.0875	591340	keystroke_Key.space	Key.space	n/a
295.8535	0.1365	591707	keystroke_s	s	n/a
295.998	0.08	591996	keystroke_l	l	n/a
296.142	0.0715	592284	keystroke_e	e	n/a
296.2935	0.135	592587	keystroke_e	e	n/a
296.397	0.105	592794	keystroke_p	p	n/a
296.6215	0.167	593243	keystroke_i	i	n/a
296.733	0.1275	593466	keystroke_n	n	n/a
296.8365	0.1275	593673	keystroke_g	g	n/a
296.972	0.0935	593944	keystroke_Key.space	Key.space	n/a
297.181	0.128	594362	keystroke_f	f	n/a
297.421	0.1685	594842	keystroke_r	r	n/a
297.509	0.1045	595018	keystroke_e	e	n/a
297.7095	0.128	595419	keystroke_q	q	n/a
297.8295	0.096	595659	keystroke_u	u	n/a
298.3415	0.088	596683	keystroke_n	n	n/a
298.7175	0.096	597435	keystroke_Key.backspace	Key.backspace	n/a
298.8695	0.144	597739	keystroke_e	e	n/a
298.9895	0.104	597979	keystroke_n	n	n/a
299.1335	0.16	598267	keystroke_c	c	n/a
299.3495	0.064	598699	keystroke_i	i	n/a
299.4695	0.104	598939	keystroke_e	e	n/a
299.6935	0.12	599387	keystroke_s	s	n/a
299.7895	0.096	599579	keystroke_Key.space	Key.space	n/a
300.1495	0.0965	600299	keystroke_w	w	n/a
300.374	0.2315	600748	keystroke_e	e	n/a
300.422	0.152	600844	keystroke_a	a	n/a
300.582	0.168	601164	keystroke_r	r	n/a
300.718	0.08	601436	keystroke_Key.enter	Key.enter	n/a
300.8015	8.0455	601603	prompt	n/a	copies satisfactory who antarctica\n
301.59	0.144	603180	keystroke_c	c	n/a
301.678	0.072	603356	keystroke_o	o	n/a
301.87	0.096	603740	keystroke_p	p	n/a
302.062	0.12	604124	keystroke_i	i	n/a
302.166	0.08	604332	keystroke_e	e	n/a
302.366	0.112	604732	keystroke_s	s	n/a
302.47	0.12	604940	keystroke_Key.space	Key.space	n/a
302.758	0.12	605516	keystroke_s	s	n/a
302.918	0.168	605836	keystroke_a	a	n/a
303.294	0.096	606588	keystroke_t	t	n/a
303.414	0.088	606828	keystroke_i	i	n/a
303.566	0.12	607132	keystroke_s	s	n/a
303.854	0.128	607708	keystroke_f	f	n/a
303.918	0.176	607836	keystroke_a	a	n/a
304.102	0.104	608204	keystroke_c	c	n/a
304.366	0.12	608732	keystroke_t	t	n/a
304.502	0.088	609004	keystroke_o	o	n/a
304.598	0.112	609196	keystroke_r	r	n/a
304.8695	0.128	609739	keystroke_y	y	n/a
305.0775	0.096	610155	keystroke_Key.space	Key.space	n/a
305.63	0.16	611260	keystroke_w	w	n/a
305.75	0.136	611500	keystroke_h	h	n/a
305.838	0.128	611676	keystroke_o	o	n/a
306.07	0.096	612140	keystroke_Key.space	Key.space	n/a
306.294	0.144	612588	keystroke_a	a	n/a
306.43	0.096	612860	keystroke_n	n	n/a
306.718	0.12	613436	keystroke_t	t	n/a
306.974	0.192	613948	keystroke_a	a	n/a
307.182	0.16	614364	keystroke_r	r	n/a
307.654	0.128	615308	keystroke_c	c	n/a
308.03	0.144	616060	keystroke_t	t	n/a
308.214	0.088	616428	keystroke_i	i	n/a
308.414	0.2	616828	keystroke_c	c	n/a
308.534	0.16	617068	keystroke_a	a	n/a
308.758	0.088	617516	keystroke_Key.enter	Key.enter	n/a
308.8515	10.0595	617703	prompt	n/a	force composition mitsubishi contractor\n
309.622	0.128	619244	keystroke_f	f	n/a
309.742	0.064	619484	keystroke_o	o	n/a
309.854	0.08	619708	keystroke_r	r	n/a
310.07	0.176	620140	keystroke_c	c	n/a
310.15	0.192	620300	keystroke_e	e	n/a
310.318	0.096	620636	keystroke_Key.space	Key.space	n/a
310.614	0.2	621228	keystroke_c	c	n/a
310.734	0.216	621468	keystroke_o	o	n/a
310.87	0.152	621740	keystroke_m	m	n/a
311.11	0.104	622220	keystroke_p	p	n/a
311.414	0.096	622828	keystroke_i	i	n/a
311.758	0.072	623516	keystroke_Key.backspace	Key.backspace	n/a
312.006	0.096	624012	keystroke_o	o	n/a
312.206	0.144	624412	keystroke_s	s	n/a
312.318	0.08	624636	keystroke_i	i	n/a
312.494	0.176	624988	keystroke_t	t	n/a
312.574	0.24	625148	keystroke_i	i	n/a
312.67	0.152	625340	keystroke_o	o	n/a
312.734	0.136	625468	keystroke_n	n	n/a
312.982	0.104	625964	keystroke_Key.space	Key.space	n/a
313.31	0.128	626620	keystroke_m	m	n/a
313.622	0.096	627244	keystroke_i	i	n/a
313.958	0.152	627916	keystroke_t	t	n/a
315.206	0.224	630412	keystroke_s	s	n/a
315.374	0.096	630748	keystroke_u	u	n/a
315.662	0.144	631324	keystroke_b	b	n/a
315.766	0.12	631532	keystroke_i	i	n/a
315.918	0.208	631836	keystroke_s	s	n/a
316.038	0.144	632076	keystroke_h	h	n/a
316.118	0.152	632236	keystroke_i	i	n/a
316.406	0.088	632812	keystroke_Key.space	Key.space	n/a
316.574	0.152	633148	keystroke_c	c	n/a
316.678	0.136	633356	keystroke_o	o	n/a
316.774	0.128	633548	keystroke_n	n	n/a
317.654	0.096	635308	keystroke_t	t	n/a
317.862	0.168	635724	keystroke_r	r	n/a
317.974	0.168	635948	keystroke_a	a	n/a
318.222	0.08	636444	keystroke_c	c	n/a
318.4385	0.096	636877	keystroke_t	t	n/a
318.542	0.096	637084	keystroke_o	o	n/a
318.646	0.1285	637292	keystroke_r	r	n/a
318.8385	0.072	637677	keystroke_Key.enter	Key.enter	n/a
318.914	6.8935	637828	prompt	n/a	growth lloyd fancy dublin\n
319.574	0.096	639148	keystroke_g	g	n/a
319.7825	0.12	639565	keystroke_r	r	n/a
319.8305	0.08	639661	keystroke_o	o	n/a
320.0225	0.136	640045	keystroke_w	w	n/a
320.3105	0.16	640621	keystroke_t	t	n/a
320.4545	0.08	640909	keystroke_h	h	n/a
320.6865	0.088	641373	keystroke_Key.space	Key.space	n/a
320.9265	0.112	641853	keystroke_l	l	n/a
321.3105	0.104	642621	keystroke_o	o	n/a
321.9265	0.056	643853	keystroke_Key.backspace	Key.backspace	n/a
322.1745	0.072	644349	keystroke_l	l	n/a
322.3665	0.104	644733	keystroke_o	o	n/a
322.5825	0.104	645165	keystroke_y	y	n/a
322.9985	0.168	645997	keystroke_d	d	n/a
323.2385	0.08	646477	keystroke_Key.space	Key.space	n/a
323.3905	0.168	646781	keystroke_f	f	n/a
323.4945	0.168	646989	keystroke_a	a	n/a
323.6145	0.096	647229	keystroke_n	n	n/a
323.7265	0.112	647453	keystroke_c	c	n/a
323.999	0.096	647998	keystroke_t	t	n/a
324.079	0.1035	648158	keystroke_Key.space	Key.space	n/a
324.3345	0.1925	648669	keystroke_d	d	n/a
324.455	0.16	648910	keystroke_u	u	n/a
324.6705	0.1285	649341	keystroke_b	b	n/a
325.1745	0.2485	650349	keystroke_l	l	n/a
325.287	0.16	650574	keystroke_i	i	n/a
325.391	0.136	650782	keystroke_n	n	n/a
325.703	0.104	651406	keystroke_Key.enter	Key.enter	n/a
325.8105	9.4135	651621	prompt	n/a	tomorrow airfare hose approach\n
326.511	0.16	653022	keystroke_t	t	n/a
326.607	0.096	653214	keystroke_o	o	n/a
326.855	0.144	653710	keystroke_m	m	n/a
327.383	0.104	654766	keystroke_o	o	n/a
327.695	0.088	655390	keystroke_r	r	n/a
327.863	0.112	655726	keystroke_r	r	n/a
327.959	0.096	655918	keystroke_o	o	n/a
328.111	0.16	656222	keystroke_w	w	n/a
328.279	0.104	656558	keystroke_Key.space	Key.space	n/a
328.735	0.192	657470	keystroke_a	a	n/a
328.935	0.08	657870	keystroke_i	i	n/a
329.079	0.144	658158	keystroke_r	r	n/a
329.439	0.104	658878	keystroke_f	f	n/a
329.535	0.08	659070	keystroke_o	o	n/a
329.647	0.096	659294	keystroke_r	r	n/a
330.319	0.096	660638	keystroke_Key.backspace	Key.backspace	n/a
330.559	0.104	661118	keystroke_Key.backspace	Key.backspace	n/a
330.847	0.128	661694	keystroke_a	a	n/a
331.007	0.2	662014	keystroke_r	r	n/a
331.103	0.152	662206	keystroke_e	e	n/a
331.351	0.08	662702	keystroke_Key.space	Key.space	n/a
331.655	0.12	663310	keystroke_h	h	n/a
331.711	0.16	663422	keystroke_o	o	n/a
331.863	0.08	663726	keystroke_s	s	n/a
332.055	0.136	664110	keystroke_e	e	n/a
332.151	0.088	664302	keystroke_Key.space	Key.space	n/a
332.431	0.16	664862	keystroke_a	a	n/a
332.559	0.104	665118	keystroke_p	p	n/a
333.023	0.096	666046	keystroke_p	p	n/a
333.519	0.152	667038	keystroke_r	r	n/a
333.687	0.08	667374	keystroke_o	o	n/a
333.887	0.12	667774	keystroke_a	a	n/a
334.111	0.152	668222	keystroke_c	c	n/a
334.247	0.088	668494	keystroke_h	h	n/a
334.503	0.056	669006	keystroke_Key.space	Key.space	n/a
334.871	0.096	669742	keystroke_Key.backspace	Key.backspace	n/a
335.143	0.08	670286	keystroke_Key.enter	Key.enter	n/a
335.2265	9.9175	670453	prompt	n/a	nuke perception michelle clearly\n
335.847	0.12	671694	keystroke_n	n	n/a
336.047	0.088	672094	keystroke_u	u	n/a
336.2875	0.08	672575	keystroke_k	k	n/a
336.383	0.136	672766	keystroke_e	e	n/a
336.543	0.0965	673086	keystroke_Key.space	Key.space	n/a
336.9115	0.128	673823	keystroke_p	p	n/a
337.0635	0.16	674127	keystroke_e	e	n/a
337.1515	0.112	674303	keystroke_r	r	n/a
337.4075	0.184	674815	keystroke_c	c	n/a
337.5355	0.152	675071	keystroke_e	e	n/a
337.6315	0.096	675263	keystroke_p	p	n/a
337.855	0.168	675710	keystroke_t	t	n/a
337.959	0.2645	675918	keystroke_i	i	n/a
338.0635	0.152	676127	keystroke_o	o	n/a
338.1435	0.12	676287	keystroke_n	n	n/a
338.359	0.088	676718	keystroke_Key.space	Key.space	n/a
338.5755	0.112	677151	keystroke_m	m	n/a
338.7835	0.104	677567	keystroke_i	i	n/a
338.9995	0.152	677999	keystroke_c	c	n/a
339.1355	0.088	678271	keystroke_h	h	n/a
339.2155	0.152	678431	keystroke_e	e	n/a
339.4475	0.064	678895	keystroke_l	l	n/a
339.6075	0.088	679215	keystroke_l	l	n/a
339.7195	0.136	679439	keystroke_e	e	n/a
339.9515	0.104	679903	keystroke_Key.space	Key.space	n/a
343.663	0.144	687326	keystroke_c	c	n/a
343.943	0.136	687886	keystroke_l	l	n/a
344.159	0.312	688318	keystroke_e	e	n/a
344.271	0.176	688542	keystroke_a	a	n/a
344.359	0.176	688718	keystroke_r	r	n/a
344.655	0.096	689310	keystroke_l	l	n/a
344.863	0.128	689726	keystroke_y	y	n/a
345.047	0.096	690094	keystroke_Key.enter	Key.enter	n/a
345.147	5.8135	690294	prompt	n/a	badly general emacs option\n
345.895	0.096	691790	keystroke_b	b	n/a
346.023	0.128	692046	keystroke_a	a	n/a
346.079	0.168	692158	keystroke_d	d	n/a
346.287	0.104	692574	keystroke_l	l	n/a
346.479	0.112	692958	keystroke_y	y	n/a
346.703	0.08	693406	keystroke_Key.space	Key.space	n/a
347.023	0.16	694046	keystroke_g	g	n/a
347.127	0.16	694254	keystroke_e	e	n/a
347.231	0.112	694462	keystroke_n	n	n/a
347.391	0.112	694782	keystroke_e	e	n/a
347.407	0.224	694814	keystroke_r	r	n/a
347.599	0.16	695198	keystroke_a	a	n/a
347.759	0.088	695518	keystroke_l	l	n/a
348.031	0.104	696062	keystroke_Key.space	Key.space	n/a
348.655	0.12	697310	keystroke_e	e	n/a
348.783	0.088	697566	keystroke_m	m	n/a
348.895	0.12	697790	keystroke_a	a	n/a
349.231	0.152	698462	keystroke_c	c	n/a
349.495	0.152	698990	keystroke_s	s	n/a
349.735	0.096	699470	keystroke_Key.space	Key.space	n/a
349.983	0.096	699966	keystroke_o	o	n/a
350.183	0.104	700366	keystroke_p	p	n/a
350.367	0.16	700734	keystroke_t	t	n/a
350.455	0.224	700910	keystroke_i	i	n/a
350.543	0.128	701086	keystroke_o	o	n/a
350.623	0.12	701246	keystroke_n	n	n/a
350.863	0.096	701726	keystroke_Key.enter	Key.enter	n/a
350.9645	8.332	701929	prompt	n/a	fever internationally rank jennifer\n
351.615	0.16	703230	keystroke_f	f	n/a
351.743	0.144	703486	keystroke_e	e	n/a
351.911	0.152	703822	keystroke_v	v	n/a
352.015	0.184	704030	keystroke_e	e	n/a
352.255	0.088	704510	keystroke_l	l	n/a
352.695	0.112	705390	keystroke_Key.backspace	Key.backspace	n/a
352.871	0.176	705742	keystroke_r	r	n/a
353.039	0.112	706078	keystroke_Key.space	Key.space	n/a
353.4955	0.1275	706991	keystroke_i	i	n/a
353.583	0.144	707166	keystroke_n	n	n/a
353.687	0.16	707374	keystroke_t	t	n/a
353.759	0.1685	707518	keystroke_e	e	n/a
353.911	0.128	707822	keystroke_n	n	n/a
354.191	0.16	708382	keystroke_a	a	n/a
354.4795	0.1595	708959	keystroke_t	t	n/a
354.567	0.224	709134	keystroke_i	i	n/a
354.671	0.136	709342	keystroke_o	o	n/a
354.695	0.2005	709390	keystroke_n	n	n/a
355.223	0.152	710446	keystroke_a	a	n/a
355.4475	0.072	710895	keystroke_l	l	n/a
355.615	0.0965	711230	keystroke_l	l	n/a
355.7995	0.104	711599	keystroke_y	y	n/a
355.9355	0.096	711871	keystroke_Key.space	Key.space	n/a
356.1435	0.176	712287	keystroke_r	r	n/a
356.2235	0.2	712447	keystroke_a	a	n/a
356.3435	0.152	712687	keystroke_n	n	n/a
356.4315	0.1435	712863	keystroke_k	k	n/a
356.7035	0.08	713407	keystroke_Key.space	Key.space	n/a
357.0315	0.1195	714063	keystroke_j	j	n/a
357.551	0.176	715102	keystroke_e	e	n/a
357.759	0.0965	715518	keystroke_n	n	n/a
358.3275	0.088	716655	keystroke_n	n	n/a
358.5595	0.088	717119	keystroke_i	i	n/a
358.7515	0.152	717503	keystroke_f	f	n/a
358.8795	0.184	717759	keystroke_e	e	n/a
359.0315	0.184	718063	keystroke_r	r	n/a
359.1915	0.104	718383	keystroke_Key.enter	Key.enter	n/a
359.2995	9.9975	718599	prompt	n/a	opposition podcasts conservation editorials\n
360.0795	0.096	720159	keystroke_o	o	n/a
360.3115	0.104	720623	keystroke_p	p	n/a
360.6395	0.088	721279	keystroke_p	p	n/a
361.5035	0.104	723007	keystroke_o	o	n/a
361.8395	0.152	723679	keystroke_s	s	n/a
361.9675	0.072	723935	keystroke_i	i	n/a
362.1515	0.16	724303	keystroke_t	t	n/a
362.2155	0.232	724431	keystroke_i	i	n/a
362.3275	0.136	724655	keystroke_o	o	n/a
362.3755	0.104	724751	keystroke_n	n	n/a
362.5595	0.104	725119	keystroke_Key.space	Key.space	n/a
362.7675	0.112	725535	keystroke_p	p	n/a
362.9835	0.104	725967	keystroke_o	o	n/a
363.568	0.112	727136	keystroke_d	d	n/a
363.888	0.176	727776	keystroke_c	c	n/a
363.984	0.2	727968	keystroke_a	a	n/a
364.152	0.128	728304	keystroke_s	s	n/a
364.376	0.184	728752	keystroke_t	t	n/a
364.496	0.16	728992	keystroke_s	s	n/a
364.696	0.08	729392	keystroke_Key.space	Key.space	n/a
364.808	0.184	729616	keystroke_c	c	n/a
364.936	0.136	729872	keystroke_o	o	n/a
365.024	0.128	730048	keystroke_n	n	n/a
365.904	0.104	731808	keystroke_s	s	n/a
366.12	0.2	732240	keystroke_e	e	n/a
366.224	0.144	732448	keystroke_r	r	n/a
366.568	0.112	733136	keystroke_v	v	n/a
366.632	0.168	733264	keystroke_a	a	n/a
366.912	0.16	733824	keystroke_t	t	n/a
366.992	0.216	733984	keystroke_i	i	n/a
367.072	0.16	734144	keystroke_o	o	n/a
367.128	0.128	734256	keystroke_n	n	n/a
367.336	0.12	734672	keystroke_Key.space	Key.space	n/a
367.6	0.136	735200	keystroke_e	e	n/a
367.8	0.128	735600	keystroke_d	d	n/a
367.936	0.08	735872	keystroke_i	i	n/a
368.176	0.136	736352	keystroke_t	t	n/a
368.36	0.048	736720	keystroke_o	o	n/a
368.472	0.12	736944	keystroke_r	r	n/a
368.648	0.104	737296	keystroke_i	i	n/a
368.792	0.128	737584	keystroke_a	a	n/a
368.912	0.064	737824	keystroke_l	l	n/a
369.032	0.136	738064	keystroke_s	s	n/a
369.208	0.088	738416	keystroke_Key.enter	Key.enter	n/a
369.3	5.333	738600	prompt	n/a	sagem history ship issn\n
369.952	0.144	739904	keystroke_s	s	n/a
370.472	0.152	740944	keystroke_a	a	n/a
370.8325	0.167	741665	keystroke_g	g	n/a
371.2315	0.168	742463	keystroke_e	e	n/a
371.3835	0.105	742767	keystroke_m	m	n/a
371.7435	0.048	743487	keystroke_Key.space	Key.space	n/a
371.9525	0.143	743905	keystroke_h	h	n/a
372.0485	0.136	744097	keystroke_i	i	n/a
372.1275	0.121	744255	keystroke_s	s	n/a
372.3035	0.104	744607	keystroke_t	t	n/a
372.4405	0.072	744881	keystroke_o	o	n/a
372.5205	0.087	745041	keystroke_r	r	n/a
372.7525	0.112	745505	keystroke_y	y	n/a
372.8475	0.096	745695	keystroke_Key.space	Key.space	n/a
373.0565	0.167	746113	keystroke_s	s	n/a
373.1275	0.16	746255	keystroke_h	h	n/a
373.2075	0.168	746415	keystroke_i	i	n/a
373.3275	0.161	746655	keystroke_p	p	n/a
373.6635	0.096	747327	keystroke_Key.space	Key.space	n/a
373.9525	0.087	747905	keystroke_i	i	n/a
374.1115	0.072	748223	keystroke_s	s	n/a
374.2725	0.143	748545	keystroke_s	s	n/a
374.3435	0.08	748687	keystroke_n	n	n/a
374.5355	0.096	749071	keystroke_Key.enter	Key.enter	n/a
374.6355	9.6935	749271	prompt	n/a	proceeding marijuana transparency dozen\n
375.3525	0.095	750705	keystroke_p	p	n/a
375.5035	0.128	751007	keystroke_r	r	n/a
375.6395	0.096	751279	keystroke_o	o	n/a
375.8155	0.177	751631	keystroke_c	c	n/a
375.9115	0.161	751823	keystroke_e	e	n/a
376.2245	0.136	752449	keystroke_e	e	n/a
376.4795	0.16	752959	keystroke_d	d	n/a
376.6725	0.151	753345	keystroke_i	i	n/a
376.7685	0.119	753537	keystroke_n	n	n/a
376.9035	0.136	753807	keystroke_g	g	n/a
376.9915	0.08	753983	keystroke_Key.space	Key.space	n/a
377.2075	0.096	754415	keystroke_m	m	n/a
377.3355	0.168	754671	keystroke_a	a	n/a
378.231	0.1605	756462	keystroke_r	r	n/a
378.4955	0.12	756991	keystroke_i	i	n/a
378.8405	0.095	757681	keystroke_j	j	n/a
379.0955	0.104	758191	keystroke_u	u	n/a
379.3195	0.176	758639	keystroke_a	a	n/a
379.4725	0.096	758945	keystroke_n	n	n/a
379.6555	0.152	759311	keystroke_a	a	n/a
379.8795	0.088	759759	keystroke_Key.space	Key.space	n/a
380.2155	0.112	760431	keystroke_t	t	n/a
380.4795	0.2	760959	keystroke_r	r	n/a
380.6075	0.209	761215	keystroke_a	a	n/a
380.8075	0.088	761615	keystroke_n	n	n/a
380.9515	0.153	761903	keystroke_s	s	n/a
381.5435	0.104	763087	keystroke_p	p	n/a
381.7035	0.161	763407	keystroke_a	a	n/a
381.9595	0.192	763919	keystroke_r	r	n/a
382.0635	0.184	764127	keystroke_e	e	n/a
382.2645	0.087	764529	keystroke_n	n	n/a
382.3915	0.12	764783	keystroke_c	c	n/a
382.7035	0.104	765407	keystroke_y	y	n/a
382.7755	0.088	765551	keystroke_Key.space	Key.space	n/a
383.5525	0.127	767105	keystroke_d	d	n/a
383.7035	0.056	767407	keystroke_o	o	n/a
383.8075	0.161	767615	keystroke_z	z	n/a
383.9525	0.192	767905	keystroke_e	e	n/a
384.0155	0.088	768031	keystroke_n	n	n/a
384.2395	0.088	768479	keystroke_Key.enter	Key.enter	n/a
384.332	5.309	768664	prompt	n/a	albany norton players oldest\n
385.0005	0.159	770001	keystroke_a	a	n/a
385.1115	0.064	770223	keystroke_l	l	n/a
385.2795	0.104	770559	keystroke_b	b	n/a
385.3755	0.112	770751	keystroke_a	a	n/a
385.5285	0.103	771057	keystroke_n	n	n/a
385.6395	0.112	771279	keystroke_y	y	n/a
385.7595	0.072	771519	keystroke_Key.space	Key.space	n/a
385.9435	0.128	771887	keystroke_n	n	n/a
386.0315	0.137	772063	keystroke_o	o	n/a
386.1755	0.104	772351	keystroke_r	r	n/a
386.3765	0.167	772753	keystroke_t	t	n/a
386.5355	0.128	773071	keystroke_o	o	n/a
386.6075	0.112	773215	keystroke_n	n	n/a
386.8315	0.072	773663	keystroke_Key.space	Key.space	n/a
387.0075	0.08	774015	keystroke_p	p	n/a
387.1915	0.088	774383	keystroke_l	l	n/a
387.2955	0.105	774591	keystroke_a	a	n/a
387.4405	0.143	774881	keystroke_t	t	n/a
387.5605	0.223	775121	keystroke_e	e	n/a
387.7035	0.153	775407	keystroke_r	r	n/a
387.9275	0.169	775855	keystroke_s	s	n/a
388.0635	0.08	776127	keystroke_Key.space	Key.space	n/a
388.3915	0.104	776783	keystroke_o	o	n/a
388.5915	0.128	777183	keystroke_l	l	n/a
388.6645	0.111	777329	keystroke_d	d	n/a
388.7835	0.144	777567	keystroke_e	e	n/a
388.8795	0.1845	777759	keystroke_r	r	n/a
389.039	0.16	778078	keystroke_s	s	n/a
389.519	0.12	779038	keystroke_Key.enter	Key.enter	n/a
389.6435	6.0695	779287	prompt	n/a	suppose indication indeed selling\n
390.576	0.159	781152	keystroke_s	s	n/a
390.64	0.087	781280	keystroke_u	u	n/a
390.8395	0.096	781679	keystroke_p	p	n/a
390.9915	0.0875	781983	keystroke_p	p	n/a
391.183	0.0965	782366	keystroke_o	o	n/a
391.6155	0.088	783231	keystroke_s	s	n/a
391.8155	0.152	783631	keystroke_e	e	n/a
391.9115	0.0875	783823	keystroke_Key.space	Key.space	n/a
392.1515	0.16	784303	keystroke_i	i	n/a
392.2715	0.12	784543	keystroke_n	n	n/a
392.4075	0.1275	784815	keystroke_d	d	n/a
392.5515	0.08	785103	keystroke_i	i	n/a
392.6795	0.136	785359	keystroke_c	c	n/a
392.7835	0.145	785567	keystroke_a	a	n/a
392.9995	0.153	785999	keystroke_t	t	n/a
393.0475	0.209	786095	keystroke_i	i	n/a
393.1275	0.136	786255	keystroke_o	o	n/a
393.1915	0.104	786383	keystroke_n	n	n/a
393.3835	0.088	786767	keystroke_Key.space	Key.space	n/a
393.5675	0.152	787135	keystroke_i	i	n/a
393.6475	0.136	787295	keystroke_n	n	n/a
393.7675	0.152	787535	keystroke_d	d	n/a
393.8555	0.136	787711	keystroke_e	e	n/a
394.1035	0.136	788207	keystroke_e	e	n/a
394.3355	0.136	788671	keystroke_d	d	n/a
394.5755	0.088	789151	keystroke_Key.space	Key.space	n/a
394.7355	0.08	789471	keystroke_s	s	n/a
394.9035	0.128	789807	keystroke_e	e	n/a
395.0005	0.072	790001	keystroke_l	l	n/a
395.1355	0.112	790271	keystroke_l	l	n/a
395.2885	0.143	790577	keystroke_i	i	n/a
395.3915	0.12	790783	keystroke_n	n	n/a
395.4475	0.137	790895	keystroke_g	g	n/a
395.6235	0.088	791247	keystroke_Key.enter	Key.enter	n/a
395.72	7.7535	791440	prompt	n/a	match context reynolds shore\n
396.3355	0.104	792671	keystroke_m	m	n/a
396.4235	0.112	792847	keystroke_a	a	n/a
396.5915	0.064	793183	keystroke_t	t	n/a
396.8155	0.137	793631	keystroke_c	c	n/a
396.9605	0.08	793921	keystroke_h	h	n/a
397.2235	0.072	794447	keystroke_Key.space	Key.space	n/a
397.7515	0.128	795503	keystroke_c	c	n/a
397.8315	0.104	795663	keystroke_o	o	n/a
397.8955	0.128	795791	keystroke_n	n	n/a
398.0395	0.16	796079	keystroke_t	t	n/a
398.1355	0.168	796271	keystroke_e	e	n/a
398.4475	0.088	796895	keystroke_s	s	n/a
399.1355	0.08	798271	keystroke_Key.backspace	Key.backspace	n/a
399.7435	0.096	799487	keystroke_x	x	n/a
399.9755	0.176	799951	keystroke_t	t	n/a
400.1435	0.096	800287	keystroke_Key.space	Key.space	n/a
400.4235	0.176	800847	keystroke_r	r	n/a
400.5035	0.168	801007	keystroke_e	e	n/a
401.1915	0.128	802383	keystroke_y	y	n/a
401.5035	0.152	803007	keystroke_n	n	n/a
401.6565	0.151	803313	keystroke_o	o	n/a
401.9755	0.104	803951	keystroke_l	l	n/a
402.1435	0.225	804287	keystroke_d	d	n/a
402.2475	0.184	804495	keystroke_s	s	n/a
402.4955	0.096	804991	keystroke_Key.space	Key.space	n/a
402.7675	0.16	805535	keystroke_s	s	n/a
402.9195	0.144	805839	keystroke_h	h	n/a
403.0075	0.144	806015	keystroke_o	o	n/a
403.1115	0.224	806223	keystroke_r	r	n/a
403.1995	0.184	806399	keystroke_e	e	n/a
403.3755	0.096	806751	keystroke_Key.enter	Key.enter	n/a
403.476	5.909	806952	prompt	n/a	he'd optional skin insertion\n
404.0555	0.112	808111	keystroke_h	h	n/a
404.1915	0.16	808383	keystroke_e	e	n/a
404.4795	0.112	808959	keystroke_'	'	n/a
404.6955	0.04	809391	keystroke_s	s	n/a
405.1195	0.08	810239	keystroke_Key.backspace	Key.backspace	n/a
405.2395	0.16	810479	keystroke_d	d	n/a
405.4155	0.088	810831	keystroke_Key.space	Key.space	n/a
405.6635	0.112	811327	keystroke_o	o	n/a
405.8795	0.104	811759	keystroke_p	p	n/a
406.0715	0.128	812143	keystroke_t	t	n/a
406.1355	0.208	812271	keystroke_i	i	n/a
406.2235	0.112	812447	keystroke_o	o	n/a
406.2875	0.128	812575	keystroke_n	n	n/a
406.4075	0.16	812815	keystroke_a	a	n/a
406.5355	0.08	813071	keystroke_l	l	n/a
406.7275	0.08	813455	keystroke_Key.space	Key.space	n/a
407.0715	0.16	814143	keystroke_s	s	n/a
407.1915	0.072	814383	keystroke_k	k	n/a
407.3595	0.152	814719	keystroke_i	i	n/a
407.4795	0.104	814959	keystroke_n	n	n/a
407.6955	0.12	815391	keystroke_Key.space	Key.space	n/a
408.0555	0.152	816111	keystroke_i	i	n/a
408.1755	0.136	816351	keystroke_n	n	n/a
408.3675	0.096	816735	keystroke_s	s	n/a
408.5515	0.152	817103	keystroke_e	e	n/a
408.6555	0.12	817311	keystroke_r	r	n/a
408.8635	0.2	817727	keystroke_t	t	n/a
408.9275	0.208	817855	keystroke_i	i	n/a
409.0235	0.113	818047	keystroke_o	o	n/a
409.0395	0.136	818079	keystroke_n	n	n/a
409.2875	0.096	818575	keystroke_Key.enter	Key.enter	n/a
409.388	5.437	818776	prompt	n/a	elderly merge plates unlikely\n
409.9525	0.167	819905	keystroke_e	e	n/a
410.1115	0.08	820223	keystroke_l	l	n/a
410.3915	0.112	820783	keystroke_d	d	n/a
410.4955	0.168	820991	keystroke_e	e	n/a
410.6075	0.136	821215	keystroke_r	r	n/a
410.7275	0.096	821455	keystroke_l	l	n/a
410.9195	0.12	821839	keystroke_y	y	n/a
411.0475	0.088	822095	keystroke_Key.space	Key.space	n/a
411.2635	0.128	822527	keystroke_m	m	n/a
411.3595	0.152	822719	keystroke_e	e	n/a
411.4075	0.128	822815	keystroke_r	r	n/a
411.6315	0.184	823263	keystroke_g	g	n/a
411.7195	0.184	823439	keystroke_e	e	n/a
411.8795	0.088	823759	keystroke_Key.space	Key.space	n/a
412.0795	0.096	824159	keystroke_p	p	n/a
412.2875	0.112	824575	keystroke_l	l	n/a
412.3595	0.144	824719	keystroke_a	a	n/a
412.5275	0.184	825055	keystroke_t	t	n/a
412.6235	0.12	825247	keystroke_e	e	n/a
412.8795	0.112	825759	keystroke_s	s	n/a
413.0075	0.08	826015	keystroke_Key.space	Key.space	n/a
413.4635	0.144	826927	keystroke_u	u	n/a
413.6555	0.088	827311	keystroke_n	n	n/a
413.8315	0.208	827663	keystroke_l	l	n/a
413.9195	0.128	827839	keystroke_i	i	n/a
414.1835	0.096	828367	keystroke_k	k	n/a
414.3115	0.112	828623	keystroke_e	e	n/a
414.4635	0.08	828927	keystroke_l	l	n/a
414.5995	0.104	829199	keystroke_y	y	n/a
414.7515	0.072	829503	keystroke_Key.enter	Key.enter	n/a
414.828	5.005	829656	prompt	n/a	boats ratio cubic carb\n
415.4635	0.112	830927	keystroke_b	b	n/a
415.5515	0.112	831103	keystroke_o	o	n/a
415.6235	0.184	831247	keystroke_a	a	n/a
415.9035	0.136	831807	keystroke_t	t	n/a
416.1675	0.12	832335	keystroke_s	s	n/a
416.4075	0.072	832815	keystroke_Key.space	Key.space	n/a
416.7275	0.144	833455	keystroke_r	r	n/a
416.8315	0.128	833663	keystroke_a	a	n/a
416.9995	0.176	833999	keystroke_t	t	n/a
417.0875	0.192	834175	keystroke_i	i	n/a
417.1675	0.144	834335	keystroke_o	o	n/a
417.4155	0.096	834831	keystroke_Key.space	Key.space	n/a
417.7915	0.144	835583	keystroke_c	c	n/a
417.8875	0.104	835775	keystroke_u	u	n/a
418.0155	0.176	836031	keystroke_b	b	n/a
418.1755	0.128	836351	keystroke_i	i	n/a
418.4635	0.144	836927	keystroke_c	c	n/a
418.6795	0.104	837359	keystroke_Key.space	Key.space	n/a
418.9915	0.168	837983	keystroke_c	c	n/a
419.1275	0.208	838255	keystroke_a	a	n/a
419.3915	0.176	838783	keystroke_r	r	n/a
419.4635	0.112	838927	keystroke_b	b	n/a
419.7275	0.104	839455	keystroke_Key.enter	Key.enter	n/a
419.8355	8.6855	839671	prompt	n/a	drawing laundry upcoming subdivision\n
420.6235	0.096	841247	keystroke_d	d	n/a
420.8555	0.224	841711	keystroke_r	r	n/a
421.0555	0.192	842111	keystroke_w	w	n/a
421.3355	0.16	842671	keystroke_a	a	n/a
421.7195	0.08	843439	keystroke_Key.backspace	Key.backspace	n/a
421.8795	0.12	843759	keystroke_Key.backspace	Key.backspace	n/a
421.9675	0.185	843935	keystroke_a	a	n/a
422.0795	0.16	844159	keystroke_w	w	n/a
422.5115	0.168	845023	keystroke_i	i	n/a
422.6395	0.112	845279	keystroke_n	n	n/a
422.7355	0.136	845471	keystroke_g	g	n/a
422.8635	0.072	845727	keystroke_Key.space	Key.space	n/a
423.0315	0.104	846063	keystroke_l	l	n/a
423.1515	0.16	846303	keystroke_a	a	n/a
423.7515	0.112	847503	keystroke_u	u	n/a
424.1595	0.104	848319	keystroke_d	d	n/a
424.3915	0.112	848783	keystroke_r	r	n/a
424.6395	0.144	849279	keystroke_y	y	n/a
424.7995	0.08	849599	keystroke_Key.space	Key.space	n/a
425.0235	0.104	850047	keystroke_u	u	n/a
425.3195	0.12	850639	keystroke_p	p	n/a
425.6715	0.16	851343	keystroke_c	c	n/a
425.7675	0.176	851535	keystroke_o	o	n/a
425.8635	0.128	851727	keystroke_m	m	n/a
426.0315	0.184	852063	keystroke_i	i	n/a
426.1675	0.12	852335	keystroke_n	n	n/a
426.2635	0.136	852527	keystroke_g	g	n/a
426.4075	0.088	852815	keystroke_Key.space	Key.space	n/a
426.6315	0.16	853263	keystroke_s	s	n/a
426.7595	0.144	853519	keystroke_u	u	n/a
426.8715	0.12	853743	keystroke_b	b	n/a
427.3755	0.12	854751	keystroke_d	d	n/a
427.4955	0.088	854991	keystroke_i	i	n/a
427.6635	0.112	855327	keystroke_v	v	n/a
427.7595	0.072	855519	keystroke_i	i	n/a
427.9275	0.184	855855	keystroke_s	s	n/a
427.9995	0.256	855999	keystroke_i	i	n/a
428.1115	0.16	856223	keystroke_o	o	n/a
428.1515	0.152	856303	keystroke_n	n	n/a
428.4315	0.088	856863	keystroke_Key.enter	Key.enter	n/a
428.524	9.253	857048	prompt	n/a	guarantee clusters witnesses municipal\n
429.471	0.1605	858942	keystroke_g	g	n/a
429.7115	0.08	859423	keystroke_u	u	n/a
430.3515	0.16	860703	keystroke_a	a	n/a
430.7035	0.216	861407	keystroke_r	r	n/a
430.823	0.2085	861646	keystroke_a	a	n/a
431.0155	0.12	862031	keystroke_n	n	n/a
431.3515	0.128	862703	keystroke_t	t	n/a
431.5115	0.128	863023	keystroke_e	e	n/a
431.7435	0.144	863487	keystroke_e	e	n/a
431.8955	0.096	863791	keystroke_Key.space	Key.space	n/a
432.1115	0.152	864223	keystroke_c	c	n/a
432.2235	0.096	864447	keystroke_l	l	n/a
432.4555	0.0875	864911	keystroke_u	u	n/a
432.5755	0.104	865151	keystroke_s	s	n/a
432.7755	0.128	865551	keystroke_t	t	n/a
432.8395	0.192	865679	keystroke_e	e	n/a
433.0075	0.128	866015	keystroke_r	r	n/a
433.1915	0.152	866383	keystroke_s	s	n/a
433.3915	0.104	866783	keystroke_Key.space	Key.space	n/a
433.7435	0.168	867487	keystroke_w	w	n/a
433.9195	0.064	867839	keystroke_i	i	n/a
434.1035	0.144	868207	keystroke_t	t	n/a
434.4075	0.08	868815	keystroke_n	n	n/a
434.4955	0.104	868991	keystroke_e	e	n/a
434.7435	0.064	869487	keystroke_s	s	n/a
434.9275	0.064	869855	keystroke_s	s	n/a
435.1675	0.088	870335	keystroke_e	e	n/a
435.4075	0.072	870815	keystroke_s	s	n/a
435.6875	0.096	871375	keystroke_Key.space	Key.space	n/a
435.9435	0.104	871887	keystroke_m	m	n/a
436.207	0.12	872414	keystroke_u	u	n/a
436.423	0.1525	872846	keystroke_n	n	n/a
436.5355	0.136	873071	keystroke_i	i	n/a
436.8715	0.1595	873743	keystroke_c	c	n/a
437.023	0.088	874046	keystroke_i	i	n/a
437.231	0.0885	874462	keystroke_p	p	n/a
437.3995	0.136	874799	keystroke_a	a	n/a
437.4875	0.072	874975	keystroke_l	l	n/a
437.7195	0.056	875439	keystroke_Key.enter	Key.enter	n/a
437.7795	8.3805	875559	prompt	n/a	productive marc alexandria reasonable\n
438.471	0.048	876942	keystroke_p	p	n/a
438.559	0.1285	877118	keystroke_r	r	n/a
438.7035	0.0715	877407	keystroke_p	p	n/a
439.487	0.08	878974	keystroke_Key.backspace	Key.backspace	n/a
439.7595	0.1035	879519	keystroke_o	o	n/a
440.239	0.104	880478	keystroke_d	d	n/a
440.351	0.08	880702	keystroke_u	u	n/a
440.463	0.096	880926	keystroke_c	c	n/a
440.879	0.096	881758	keystroke_t	t	n/a
440.991	0.096	881982	keystroke_i	i	n/a
441.127	0.16	882254	keystroke_v	v	n/a
441.207	0.184	882414	keystroke_e	e	n/a
441.295	0.08	882590	keystroke_Key.space	Key.space	n/a
441.503	0.104	883006	keystroke_m	m	n/a
441.583	0.176	883166	keystroke_a	a	n/a
441.679	0.128	883358	keystroke_r	r	n/a
441.983	0.16	883966	keystroke_c	c	n/a
442.175	0.104	884350	keystroke_Key.space	Key.space	n/a
442.375	0.144	884750	keystroke_a	a	n/a
442.503	0.096	885006	keystroke_l	l	n/a
442.615	0.12	885230	keystroke_e	e	n/a
442.887	0.112	885774	keystroke_x	x	n/a
443.103	0.176	886206	keystroke_a	a	n/a
443.535	0.088	887070	keystroke_n	n	n/a
443.8065	0.112	887613	keystroke_d	d	n/a
444.031	0.128	888062	keystroke_r	r	n/a
444.175	0.072	888350	keystroke_i	i	n/a
444.311	0.192	888622	keystroke_a	a	n/a
444.471	0.088	888942	keystroke_Key.space	Key.space	n/a
444.679	0.2	889358	keystroke_r	r	n/a
444.759	0.176	889518	keystroke_e	e	n/a
444.847	0.144	889694	keystroke_a	a	n/a
445.111	0.144	890222	keystroke_s	s	n/a
445.231	0.1435	890462	keystroke_o	o	n/a
445.3105	0.104	890621	keystroke_n	n	n/a
445.4385	0.168	890877	keystroke_a	a	n/a
445.6785	0.128	891357	keystroke_b	b	n/a
445.7745	0.12	891549	keystroke_l	l	n/a
445.8545	0.144	891709	keystroke_e	e	n/a
446.0705	0.088	892141	keystroke_Key.enter	Key.enter	n/a
446.163	5.909	892326	prompt	n/a	are perth borough caught\n
446.9105	0.136	893821	keystroke_a	a	n/a
447.0305	0.264	894061	keystroke_r	r	n/a
447.0865	0.208	894173	keystroke_e	e	n/a
447.5265	0.112	895053	keystroke_Key.space	Key.space	n/a
447.9985	0.104	895997	keystroke_p	p	n/a
448.1425	0.144	896285	keystroke_e	e	n/a
448.3265	0.144	896653	keystroke_r	r	n/a
448.5825	0.184	897165	keystroke_t	t	n/a
448.7265	0.088	897453	keystroke_h	h	n/a
448.9505	0.088	897901	keystroke_Key.space	Key.space	n/a
449.3905	0.12	898781	keystroke_b	b	n/a
449.4865	0.112	898973	keystroke_o	o	n/a
449.9185	0.168	899837	keystroke_r	r	n/a
450.0785	0.224	900157	keystroke_o	o	n/a
450.1905	0.096	900381	keystroke_u	u	n/a
450.3825	0.144	900765	keystroke_g	g	n/a
450.4385	0.096	900877	keystroke_h	h	n/a
450.7185	0.112	901437	keystroke_Key.space	Key.space	n/a
451.2305	0.2	902461	keystroke_c	c	n/a
451.3345	0.192	902669	keystroke_a	a	n/a
451.4705	0.064	902941	keystroke_u	u	n/a
451.5985	0.128	903197	keystroke_g	g	n/a
451.6785	0.08	903357	keystroke_h	h	n/a
451.8225	0.168	903645	keystroke_t	t	n/a
451.9825	0.088	903965	keystroke_Key.enter	Key.enter	n/a
452.0745	11.333	904149	prompt	n/a	anonymous sheets architecture entertainment\n
452.8465	0.16	905693	keystroke_a	a	n/a
452.9745	0.112	905949	keystroke_n	n	n/a
454.8865	0.192	909773	keystroke_o	o	n/a
455.0145	0.12	910029	keystroke_n	n	n/a
455.5345	0.104	911069	keystroke_y	y	n/a
455.7025	0.112	911405	keystroke_m	m	n/a
455.8305	0.368	911661	keystroke_o	o	n/a
456.0385	0.184	912077	keystroke_u	u	n/a
456.6865	0.168	913373	keystroke_s	s	n/a
456.8385	0.072	913677	keystroke_Key.space	Key.space	n/a
457.0065	0.112	914013	keystroke_s	s	n/a
457.1345	0.088	914269	keystroke_h	h	n/a
457.3105	0.104	914621	keystroke_e	e	n/a
457.5105	0.128	915021	keystroke_e	e	n/a
457.8465	0.184	915693	keystroke_t	t	n/a
457.9905	0.128	915981	keystroke_s	s	n/a
458.1425	0.088	916285	keystroke_Key.space	Key.space	n/a
458.5585	0.144	917117	keystroke_a	a	n/a
458.7425	0.112	917485	keystroke_r	r	n/a
459.6705	0.208	919341	keystroke_c	c	n/a
459.8465	0.16	919693	keystroke_h	h	n/a
459.9585	0.16	919917	keystroke_i	i	n/a
460.2305	0.144	920461	keystroke_t	t	n/a
460.3185	0.176	920637	keystroke_e	e	n/a
460.5665	0.088	921133	keystroke_c	c	n/a
460.7985	0.12	921597	keystroke_t	t	n/a
460.9345	0.104	921869	keystroke_u	u	n/a
461.0225	0.168	922045	keystroke_r	r	n/a
461.0705	0.184	922141	keystroke_e	e	n/a
461.2305	0.088	922461	keystroke_Key.space	Key.space	n/a
461.3985	0.112	922797	keystroke_e	e	n/a
461.5105	0.112	923021	keystroke_n	n	n/a
461.6145	0.136	923229	keystroke_t	t	n/a
461.7185	0.184	923437	keystroke_e	e	n/a
461.8305	0.152	923661	keystroke_r	r	n/a
462.1105	0.16	924221	keystroke_t	t	n/a
462.2625	0.184	924525	keystroke_a	a	n/a
462.4385	0.136	924877	keystroke_i	i	n/a
462.5345	0.144	925069	keystroke_n	n	n/a
462.8465	0.104	925693	keystroke_m	m	n/a
462.9665	0.144	925933	keystroke_e	e	n/a
463.1025	0.088	926205	keystroke_n	n	n/a
463.1665	0.16	926333	keystroke_t	t	n/a
463.3425	0.064	926685	keystroke_Key.enter	Key.enter	n/a
463.4125	7.707	926825	prompt	n/a	business passing digest advocacy\n
464.1105	0.112	928221	keystroke_b	b	n/a
464.2545	0.104	928509	keystroke_u	u	n/a
464.4065	0.104	928813	keystroke_s	s	n/a
464.5025	0.064	929005	keystroke_i	i	n/a
464.6625	0.12	929325	keystroke_n	n	n/a
464.7345	0.096	929469	keystroke_e	e	n/a
464.9745	0.064	929949	keystroke_s	s	n/a
465.1345	0.136	930269	keystroke_s	s	n/a
465.2625	0.088	930525	keystroke_Key.space	Key.space	n/a
465.7905	0.128	931581	keystroke_p	p	n/a
465.9265	0.152	931853	keystroke_a	a	n/a
466.0465	0.104	932093	keystroke_s	s	n/a
466.2225	0.144	932445	keystroke_s	s	n/a
466.3505	0.144	932701	keystroke_i	i	n/a
466.4545	0.112	932909	keystroke_n	n	n/a
466.5185	0.144	933037	keystroke_g	g	n/a
466.6865	0.104	933373	keystroke_Key.space	Key.space	n/a
467.0705	0.136	934141	keystroke_d	d	n/a
467.1985	0.088	934397	keystroke_i	i	n/a
467.3585	0.168	934717	keystroke_g	g	n/a
467.4625	0.128	934925	keystroke_e	e	n/a
467.7025	0.096	935405	keystroke_s	s	n/a
467.8465	0.144	935693	keystroke_t	t	n/a
467.9585	0.104	935917	keystroke_Key.space	Key.space	n/a
468.2465	0.152	936493	keystroke_a	a	n/a
468.3745	0.104	936749	keystroke_d	d	n/a
468.5905	0.144	937181	keystroke_v	v	n/a
468.7425	0.08	937485	keystroke_o	o	n/a
469.1905	0.184	938381	keystroke_c	c	n/a
469.3185	0.216	938637	keystroke_a	a	n/a
470.1985	0.096	940397	keystroke_c	c	n/a
470.7425	0.136	941485	keystroke_y	y	n/a
471.0465	0.072	942093	keystroke_Key.enter	Key.enter	n/a
471.1225	5.1495	942245	prompt	n/a	sized largest pokemon gave\n
471.766	0.096	943532	keystroke_s	s	n/a
471.878	0.08	943756	keystroke_i	i	n/a
471.982	0.144	943964	keystroke_z	z	n/a
472.102	0.112	944204	keystroke_e	e	n/a
472.326	0.12	944652	keystroke_d	d	n/a
472.406	0.088	944812	keystroke_Key.space	Key.space	n/a
472.598	0.104	945196	keystroke_l	l	n/a
472.694	0.176	945388	keystroke_a	a	n/a
472.814	0.12	945628	keystroke_r	r	n/a
473.03	0.168	946060	keystroke_g	g	n/a
473.11	0.136	946220	keystroke_e	e	n/a
473.342	0.096	946684	keystroke_s	s	n/a
473.494	0.16	946988	keystroke_t	t	n/a
473.59	0.096	947180	keystroke_Key.space	Key.space	n/a
473.798	0.112	947596	keystroke_p	p	n/a
474.022	0.104	948044	keystroke_o	o	n/a
474.23	0.112	948460	keystroke_k	k	n/a
474.334	0.136	948668	keystroke_e	e	n/a
474.534	0.144	949068	keystroke_m	m	n/a
474.71	0.2	949420	keystroke_o	o	n/a
474.862	0.104	949724	keystroke_n	n	n/a
475.054	0.112	950108	keystroke_Key.space	Key.space	n/a
475.27	0.136	950540	keystroke_g	g	n/a
475.486	0.136	950972	keystroke_a	a	n/a
475.694	0.168	951388	keystroke_v	v	n/a
475.79	0.192	951580	keystroke_e	e	n/a
476.174	0.096	952348	keystroke_Key.enter	Key.enter	n/a
476.2765	6.027	952553	prompt	n/a	obligations skilled counts magnetic\n
477.054	0.16	954108	keystroke_o	o	n/a
477.166	0.12	954332	keystroke_b	b	n/a
477.494	0.224	954988	keystroke_l	l	n/a
477.59	0.136	955180	keystroke_i	i	n/a
477.846	0.192	955692	keystroke_g	g	n/a
477.99	0.128	955980	keystroke_a	a	n/a
478.19	0.16	956380	keystroke_t	t	n/a
478.286	0.224	956572	keystroke_i	i	n/a
478.358	0.152	956716	keystroke_o	o	n/a
478.398	0.152	956796	keystroke_n	n	n/a
478.566	0.12	957132	keystroke_s	s	n/a
478.678	0.08	957356	keystroke_Key.space	Key.space	n/a
478.846	0.144	957692	keystroke_s	s	n/a
478.974	0.064	957948	keystroke_k	k	n/a
479.134	0.088	958268	keystroke_i	i	n/a
479.326	0.064	958652	keystroke_l	l	n/a
479.478	0.08	958956	keystroke_l	l	n/a
479.542	0.088	959084	keystroke_e	e	n/a
479.726	0.144	959452	keystroke_d	d	n/a
479.83	0.104	959660	keystroke_Key.space	Key.space	n/a
480.014	0.152	960028	keystroke_c	c	n/a
480.11	0.224	960220	keystroke_o	o	n/a
480.222	0.152	960444	keystroke_u	u	n/a
480.342	0.152	960684	keystroke_n	n	n/a
480.438	0.2	960876	keystroke_t	t	n/a
480.558	0.152	961116	keystroke_s	s	n/a
480.686	0.088	961372	keystroke_Key.space	Key.space	n/a
480.91	0.112	961820	keystroke_m	m	n/a
481.006	0.128	962012	keystroke_a	a	n/a
481.23	0.144	962460	keystroke_g	g	n/a
481.486	0.12	962972	keystroke_n	n	n/a
481.614	0.12	963228	keystroke_e	e	n/a
481.782	0.136	963564	keystroke_t	t	n/a
481.926	0.096	963852	keystroke_i	i	n/a
482.086	0.16	964172	keystroke_c	c	n/a
482.254	0.048	964508	keystroke_Key.enter	Key.enter	n/a
482.3065	4.9165	964613	prompt	n/a	shore blood monkey metals\n
483.03	0.144	966060	keystroke_s	s	n/a
483.134	0.128	966268	keystroke_h	h	n/a
483.222	0.12	966444	keystroke_o	o	n/a
483.302	0.216	966604	keystroke_r	r	n/a
483.39	0.16	966780	keystroke_e	e	n/a
483.606	0.088	967212	keystroke_Key.space	Key.space	n/a
483.83	0.128	967660	keystroke_b	b	n/a
484.086	0.072	968172	keystroke_l	l	n/a
484.39	0.08	968780	keystroke_o	o	n/a
484.566	0.096	969132	keystroke_o	o	n/a
484.742	0.168	969484	keystroke_d	d	n/a
484.878	0.088	969756	keystroke_Key.space	Key.space	n/a
485.126	0.128	970252	keystroke_m	m	n/a
485.262	0.176	970524	keystroke_o	o	n/a
485.39	0.104	970780	keystroke_n	n	n/a
485.574	0.112	971148	keystroke_k	k	n/a
485.67	0.112	971340	keystroke_e	e	n/a
485.918	0.08	971836	keystroke_y	y	n/a
486.014	0.104	972028	keystroke_Key.space	Key.space	n/a
486.302	0.112	972604	keystroke_m	m	n/a
486.398	0.112	972796	keystroke_e	e	n/a
486.526	0.168	973052	keystroke_t	t	n/a
486.71	0.144	973420	keystroke_a	a	n/a
486.822	0.088	973644	keystroke_l	l	n/a
486.99	0.12	973980	keystroke_s	s	n/a
487.166	0.056	974332	keystroke_Key.enter	Key.enter	n/a
487.226	7.2455	974452	prompt	n/a	duty completion editions surprised\n
487.918	0.12	975836	keystroke_d	d	n/a
488.078	0.104	976156	keystroke_u	u	n/a
488.23	0.216	976460	keystroke_t	t	n/a
488.622	0.112	977244	keystroke_y	y	n/a
488.822	0.112	977644	keystroke_Key.space	Key.space	n/a
489.326	0.168	978652	keystroke_c	c	n/a
489.438	0.16	978876	keystroke_o	o	n/a
489.526	0.128	979052	keystroke_m	m	n/a
489.734	0.072	979468	keystroke_p	p	n/a
489.934	0.088	979868	keystroke_l	l	n/a
490.03	0.12	980060	keystroke_e	e	n/a
490.206	0.192	980412	keystroke_t	t	n/a
490.31	0.224	980620	keystroke_i	i	n/a
490.406	0.136	980812	keystroke_o	o	n/a
490.438	0.144	980876	keystroke_n	n	n/a
490.678	0.104	981356	keystroke_Key.space	Key.space	n/a
490.806	0.12	981612	keystroke_e	e	n/a
491.014	0.112	982028	keystroke_d	d	n/a
491.102	0.08	982204	keystroke_i	i	n/a
491.262	0.168	982524	keystroke_t	t	n/a
491.35	0.24	982700	keystroke_i	i	n/a
491.446	0.16	982892	keystroke_o	o	n/a
491.486	0.16	982972	keystroke_n	n	n/a
491.742	0.176	983484	keystroke_s	s	n/a
491.982	0.104	983964	keystroke_Key.space	Key.space	n/a
492.142	0.176	984284	keystroke_s	s	n/a
492.31	0.08	984620	keystroke_u	u	n/a
492.526	0.12	985052	keystroke_p	p	n/a
492.982	0.12	985964	keystroke_r	r	n/a
493.222	0.104	986444	keystroke_i	i	n/a
493.63	0.112	987260	keystroke_s	s	n/a
493.862	0.128	987724	keystroke_e	e	n/a
494.174	0.12	988348	keystroke_d	d	n/a
494.39	0.08	988780	keystroke_Key.enter	Key.enter	n/a
494.474	6.3735	988948	prompt	n/a	hockey diving damage confidential\n
495.158	0.144	990316	keystroke_h	h	n/a
495.246	0.136	990492	keystroke_o	o	n/a
495.398	0.16	990796	keystroke_c	c	n/a
495.59	0.104	991180	keystroke_k	k	n/a
495.734	0.136	991468	keystroke_e	e	n/a
496.118	0.12	992236	keystroke_y	y	n/a
496.366	0.128	992732	keystroke_Key.space	Key.space	n/a
496.67	0.104	993340	keystroke_d	d	n/a
496.766	0.088	993532	keystroke_i	i	n/a
496.902	0.136	993804	keystroke_v	v	n/a
497.03	0.12	994060	keystroke_i	i	n/a
497.118	0.12	994236	keystroke_n	n	n/a
497.214	0.152	994428	keystroke_g	g	n/a
497.374	0.104	994748	keystroke_Key.space	Key.space	n/a
497.71	0.152	995420	keystroke_d	d	n/a
497.854	0.144	995708	keystroke_a	a	n/a
498.006	0.104	996012	keystroke_m	m	n/a
498.102	0.088	996204	keystroke_a	a	n/a
498.254	0.184	996508	keystroke_g	g	n/a
498.334	0.176	996668	keystroke_e	e	n/a
498.574	0.104	997148	keystroke_Key.space	Key.space	n/a
498.742	0.192	997484	keystroke_c	c	n/a
498.926	0.152	997852	keystroke_o	o	n/a
499.006	0.136	998012	keystroke_n	n	n/a
499.206	0.152	998412	keystroke_f	f	n/a
499.35	0.096	998700	keystroke_i	i	n/a
499.814	0.184	999628	keystroke_d	d	n/a
499.95	0.184	999900	keystroke_e	e	n/a
500.134	0.088	1000268	keystroke_n	n	n/a
500.23	0.12	1000460	keystroke_t	t	n/a
500.358	0.072	1000716	keystroke_i	i	n/a
500.438	0.144	1000876	keystroke_a	a	n/a
500.55	0.08	1001100	keystroke_l	l	n/a
500.758	0.088	1001516	keystroke_Key.enter	Key.enter	n/a
500.8495	6.926	1001699	prompt	n/a	product glasgow boot broadcasting\n
501.438	0.096	1002876	keystroke_p	p	n/a
501.566	0.112	1003132	keystroke_r	r	n/a
501.678	0.072	1003356	keystroke_o	o	n/a
501.83	0.096	1003660	keystroke_d	d	n/a
501.918	0.08	1003836	keystroke_u	u	n/a
502.046	0.072	1004092	keystroke_c	c	n/a
502.246	0.096	1004492	keystroke_t	t	n/a
502.318	0.096	1004636	keystroke_Key.space	Key.space	n/a
502.726	0.08	1005452	keystroke_l	l	n/a
502.83	0.16	1005660	keystroke_a	a	n/a
503.294	0.072	1006588	keystroke_Key.backspace	Key.backspace	n/a
503.438	0.096	1006876	keystroke_Key.backspace	Key.backspace	n/a
503.59	0.152	1007180	keystroke_g	g	n/a
503.734	0.08	1007468	keystroke_l	l	n/a
503.766	0.152	1007532	keystroke_a	a	n/a
503.966	0.128	1007932	keystroke_s	s	n/a
504.358	0.12	1008716	keystroke_g	g	n/a
504.446	0.088	1008892	keystroke_o	o	n/a
504.574	0.144	1009148	keystroke_w	w	n/a
504.75	0.072	1009500	keystroke_Key.space	Key.space	n/a
504.966	0.12	1009932	keystroke_b	b	n/a
505.062	0.056	1010124	keystroke_o	o	n/a
505.198	0.112	1010396	keystroke_o	o	n/a
505.318	0.136	1010636	keystroke_t	t	n/a
505.47	0.088	1010940	keystroke_Key.space	Key.space	n/a
505.734	0.136	1011468	keystroke_b	b	n/a
505.91	0.152	1011820	keystroke_r	r	n/a
506.07	0.088	1012140	keystroke_o	o	n/a
506.39	0.184	1012780	keystroke_a	a	n/a
506.55	0.136	1013100	keystroke_d	d	n/a
506.878	0.128	1013756	keystroke_c	c	n/a
506.966	0.16	1013932	keystroke_a	a	n/a
507.054	0.144	1014108	keystroke_s	s	n/a
507.246	0.128	1014492	keystroke_t	t	n/a
507.382	0.144	1014764	keystroke_i	i	n/a
507.462	0.128	1014924	keystroke_n	n	n/a
507.51	0.136	1015020	keystroke_g	g	n/a
507.686	0.088	1015372	keystroke_Key.enter	Key.enter	n/a
507.778	4.245	1015556	prompt	n/a	given ricky social become\n
508.47	0.12	1016940	keystroke_g	g	n/a
508.606	0.08	1017212	keystroke_i	i	n/a
508.71	0.168	1017420	keystroke_v	v	n/a
508.798	0.176	1017596	keystroke_e	e	n/a
508.878	0.072	1017756	keystroke_n	n	n/a
509.062	0.088	1018124	keystroke_Key.space	Key.space	n/a
509.158	0.136	1018316	keystroke_r	r	n/a
509.286	0.072	1018572	keystroke_i	i	n/a
509.606	0.152	1019212	keystroke_c	c	n/a
509.806	0.088	1019612	keystroke_k	k	n/a
510.014	0.12	1020028	keystroke_y	y	n/a
510.15	0.104	1020300	keystroke_Key.space	Key.space	n/a
510.334	0.128	1020668	keystroke_s	s	n/a
510.438	0.088	1020876	keystroke_o	o	n/a
510.582	0.128	1021164	keystroke_c	c	n/a
510.678	0.088	1021356	keystroke_i	i	n/a
510.758	0.176	1021516	keystroke_a	a	n/a
510.902	0.064	1021804	keystroke_l	l	n/a
511.078	0.088	1022156	keystroke_Key.space	Key.space	n/a
511.294	0.08	1022588	keystroke_b	b	n/a
511.35	0.08	1022700	keystroke_e	e	n/a
511.486	0.184	1022972	keystroke_c	c	n/a
511.59	0.152	1023180	keystroke_o	o	n/a
511.686	0.128	1023372	keystroke_m	m	n/a
511.782	0.152	1023564	keystroke_e	e	n/a
511.942	0.08	1023884	keystroke_Key.enter	Key.enter	n/a
512.0255	5.189	1024051	prompt	n/a	sega ward into pointer\n
512.67	0.072	1025340	keystroke_s	s	n/a
512.838	0.112	1025676	keystroke_e	e	n/a
512.958	0.224	1025916	keystroke_g	g	n/a
513.086	0.176	1026172	keystroke_a	a	n/a
513.27	0.104	1026540	keystroke_Key.space	Key.space	n/a
513.366	0.2395	1026732	keystroke_w	w	n/a
513.454	0.1355	1026908	keystroke_a	a	n/a
513.6135	0.136	1027227	keystroke_r	r	n/a
513.8615	0.144	1027723	keystroke_d	d	n/a
513.9415	0.072	1027883	keystroke_Key.space	Key.space	n/a
514.1015	0.144	1028203	keystroke_i	i	n/a
514.1975	0.112	1028395	keystroke_n	n	n/a
514.3735	0.112	1028747	keystroke_Key.space	Key.space	n/a
514.5015	0.152	1029003	keystroke_t	t	n/a
514.6295	0.096	1029259	keystroke_o	o	n/a
514.9335	0.064	1029867	keystroke_Key.backspace	Key.backspace	n/a
515.0855	0.088	1030171	keystroke_Key.backspace	Key.backspace	n/a
515.3015	0.088	1030603	keystroke_Key.backspace	Key.backspace	n/a
