onset	duration	sample	value	key	prompt_text
3.985	12.524	7970	prompt	n/a	the quick brown fox jumps over a lazy dog\n
7.7025	0.028	15405	keystroke_t	t	n/a
7.7155	0.105	15431	keystroke_h	h	n/a
7.8055	0.09	15611	keystroke_e	e	n/a
7.9855	0.09	15971	keystroke_Key.space	Key.space	n/a
8.6015	0.0745	17203	keystroke_q	q	n/a
8.841	0.1055	17682	keystroke_u	u	n/a
8.931	0.1195	17862	keystroke_i	i	n/a
9.171	0.1045	18342	keystroke_c	c	n/a
9.3055	0.105	18611	keystroke_k	k	n/a
9.5305	0.0905	19061	keystroke_Key.space	Key.space	n/a
9.936	0.09	19872	keystroke_b	b	n/a
10.086	0.09	20172	keystroke_r	r	n/a
10.2215	0.0895	20443	keystroke_o	o	n/a
10.326	0.09	20652	keystroke_w	w	n/a
10.417	0.059	20834	keystroke_n	n	n/a
10.5505	0.1205	21101	keystroke_Key.space	Key.space	n/a
11.001	0.09	22002	keystroke_f	f	n/a
11.106	0.105	22212	keystroke_o	o	n/a
11.345	0.076	22690	keystroke_x	x	n/a
11.451	0.075	22902	keystroke_Key.space	Key.space	n/a
11.6755	0.0755	23351	keystroke_j	j	n/a
11.8255	0.09	23651	keystroke_u	u	n/a
12.021	0.075	24042	keystroke_m	m	n/a
12.1715	0.0895	24343	keystroke_p	p	n/a
12.291	0.09	24582	keystroke_s	s	n/a
12.411	0.0895	24822	keystroke_Key.space	Key.space	n/a
12.651	0.075	25302	keystroke_o	o	n/a
12.771	0.09	25542	keystroke_v	v	n/a
12.921	0.135	25842	keystroke_e	e	n/a
13.011	0.09	26022	keystroke_r	r	n/a
13.146	0.075	26292	keystroke_Key.space	Key.space	n/a
13.2215	0.0895	26443	keystroke_a	a	n/a
13.341	0.105	26682	keystroke_Key.space	Key.space	n/a
13.656	0.075	27312	keystroke_l	l	n/a
13.7465	0.0895	27493	keystroke_a	a	n/a
14.076	0.09	28152	keystroke_z	z	n/a
14.2405	0.075	28481	keystroke_y	y	n/a
14.4955	0.09	28991	keystroke_Key.space	Key.space	n/a
15.036	0.1055	30072	keystroke_d	d	n/a
15.156	0.075	30312	keystroke_o	o	n/a
15.306	0.075	30612	keystroke_g	g	n/a
15.3215	0.0295	30643	keystroke_h	h	n/a
15.8005	0.06	31601	keystroke_Key.backspace	Key.backspace	n/a
16.4305	0.075	32861	keystroke_Key.enter	Key.enter	n/a
16.5145	11.6935	33029	prompt	n/a	euro psychiatry contained spray\n
17.826	0.09	35652	keystroke_e	e	n/a
17.901	0.09	35802	keystroke_u	u	n/a
18.0215	0.0895	36043	keystroke_r	r	n/a
18.231	0.0595	36462	keystroke_o	o	n/a
18.785	0.075	37570	keystroke_Key.space	Key.space	n/a
19.235	0.061	38470	keystroke_p	p	n/a
19.356	0.09	38712	keystroke_s	s	n/a
19.731	0.09	39462	keystroke_y	y	n/a
20.2555	0.1055	40511	keystroke_c	c	n/a
20.316	0.075	40632	keystroke_h	h	n/a
20.4805	0.0905	40961	keystroke_i	i	n/a
20.5855	0.105	41171	keystroke_a	a	n/a
21.066	0.105	42132	keystroke_t	t	n/a
21.126	0.105	42252	keystroke_r	r	n/a
21.291	0.09	42582	keystroke_y	y	n/a
25.027	0.0145	50054	keystroke_Key.space	Key.space	n/a
25.221	0.09	50442	keystroke_c	c	n/a
25.3715	0.1345	50743	keystroke_o	o	n/a
25.461	0.12	50922	keystroke_n	n	n/a
25.566	0.075	51132	keystroke_t	t	n/a
25.731	0.105	51462	keystroke_a	a	n/a
25.851	0.105	51702	keystroke_i	i	n/a
25.911	0.09	51822	keystroke_n	n	n/a
26.256	0.0905	52512	keystroke_e	e	n/a
26.421	0.09	52842	keystroke_d	d	n/a
26.8115	0.074	53623	keystroke_Key.space	Key.space	n/a
27.036	0.0895	54072	keystroke_s	s	n/a
27.3505	0.075	54701	keystroke_p	p	n/a
27.5165	0.0745	55033	keystroke_r	r	n/a
27.651	0.105	55302	keystroke_a	a	n/a
27.921	0.075	55842	keystroke_y	y	n/a
28.116	0.09	56232	keystroke_Key.enter	Key.enter	n/a
28.212	10.361	56424	prompt	n/a	rays products sheriff regarding\n
29.346	0.105	58692	keystroke_r	r	n/a
29.526	0.075	59052	keystroke_a	a	n/a
29.6915	0.0895	59383	keystroke_y	y	n/a
29.811	0.105	59622	keystroke_s	s	n/a
30.9965	0.0595	61993	keystroke_Key.space	Key.space	n/a
32.917	0.1045	65834	keystroke_p	p	n/a
33.126	0.075	66252	keystroke_r	r	n/a
33.246	0.105	66492	keystroke_o	o	n/a
33.501	0.0905	67002	keystroke_d	d	n/a
33.621	0.105	67242	keystroke_u	u	n/a
33.741	0.1205	67482	keystroke_c	c	n/a
33.9665	0.075	67933	keystroke_t	t	n/a
34.161	0.09	68322	keystroke_s	s	n/a
34.5965	0.0745	69193	keystroke_Key.space	Key.space	n/a
35.0165	0.09	70033	keystroke_s	s	n/a
35.0915	0.09	70183	keystroke_h	h	n/a
35.2105	0.106	70421	keystroke_e	e	n/a
35.2865	0.09	70573	keystroke_r	r	n/a
35.3615	0.105	70723	keystroke_i	i	n/a
35.4815	0.075	70963	keystroke_f	f	n/a
35.6155	0.091	71231	keystroke_f	f	n/a
35.886	0.09	71772	keystroke_Key.space	Key.space	n/a
36.2315	0.075	72463	keystroke_r	r	n/a
36.276	0.075	72552	keystroke_e	e	n/a
36.426	0.0905	72852	keystroke_g	g	n/a
36.5765	0.164	73153	keystroke_a	a	n/a
36.6965	0.09	73393	keystroke_r	r	n/a
36.846	0.1195	73692	keystroke_d	d	n/a
37.3265	0.1195	74653	keystroke_i	i	n/a
37.4165	0.089	74833	keystroke_n	n	n/a
37.461	0.0755	74922	keystroke_g	g	n/a
38.5115	0.0595	77023	keystroke_Key.enter	Key.enter	n/a
38.5765	9.6565	77153	prompt	n/a	winston psychiatry bits marsh\n
39.4415	0.075	78883	keystroke_w	w	n/a
39.5315	0.105	79063	keystroke_i	i	n/a
39.6215	0.0745	79243	keystroke_n	n	n/a
39.741	0.1055	79482	keystroke_s	s	n/a
39.9815	0.075	79963	keystroke_t	t	n/a
40.0415	0.1045	80083	keystroke_o	o	n/a
40.1165	0.0895	80233	keystroke_n	n	n/a
40.446	0.075	80892	keystroke_Key.space	Key.space	n/a
40.8365	0.075	81673	keystroke_p	p	n/a
40.956	0.075	81912	keystroke_s	s	n/a
41.6015	0.09	83203	keystroke_y	y	n/a
42.4565	0.09	84913	keystroke_c	c	n/a
42.5165	0.15	85033	keystroke_h	h	n/a
42.6215	0.09	85243	keystroke_i	i	n/a
42.7865	0.105	85573	keystroke_a	a	n/a
43.116	0.06	86232	keystroke_t	t	n/a
43.2665	0.0895	86533	keystroke_r	r	n/a
43.476	0.0905	86952	keystroke_y	y	n/a
45.5605	0.075	91121	keystroke_Key.space	Key.space	n/a
45.741	0.0895	91482	keystroke_b	b	n/a
45.846	0.075	91692	keystroke_i	i	n/a
45.9515	0.0895	91903	keystroke_t	t	n/a
46.131	0.12	92262	keystroke_s	s	n/a
47.0305	0.0605	94061	keystroke_Key.space	Key.space	n/a
47.196	0.09	94392	keystroke_m	m	n/a
47.256	0.12	94512	keystroke_a	a	n/a
47.496	0.075	94992	keystroke_r	r	n/a
47.706	0.09	95412	keystroke_s	s	n/a
47.796	0.075	95592	keystroke_h	h	n/a
48.126	0.1055	96252	keystroke_Key.enter	Key.enter	n/a
48.238	7.406	96476	prompt	n/a	immediate entrance genetics casual\n
48.891	0.0755	97782	keystroke_i	i	n/a
49.056	0.075	98112	keystroke_m	m	n/a
49.191	0.0755	98382	keystroke_m	m	n/a
49.341	0.075	98682	keystroke_e	e	n/a
49.701	0.0755	99402	keystroke_d	d	n/a
49.791	0.075	99582	keystroke_i	i	n/a
49.911	0.105	99822	keystroke_a	a	n/a
50.106	0.12	100212	keystroke_t	t	n/a
50.181	0.105	100362	keystroke_e	e	n/a
50.421	0.075	100842	keystroke_Key.space	Key.space	n/a
50.511	0.12	101022	keystroke_e	e	n/a
50.586	0.105	101172	keystroke_n	n	n/a
50.751	0.12	101502	keystroke_t	t	n/a
50.811	0.12	101622	keystroke_r	r	n/a
51.0815	0.0895	102163	keystroke_a	a	n/a
51.201	0.105	102402	keystroke_n	n	n/a
51.396	0.1355	102792	keystroke_c	c	n/a
51.4865	0.1195	102973	keystroke_e	e	n/a
51.831	0.075	103662	keystroke_Key.space	Key.space	n/a
52.146	0.0595	104292	keystroke_e	e	n/a
52.4915	0.0895	104983	keystroke_Key.backspace	Key.backspace	n/a
52.626	0.0905	105252	keystroke_g	g	n/a
52.821	0.0755	105642	keystroke_e	e	n/a
52.9865	0.075	105973	keystroke_n	n	n/a
53.1065	0.075	106213	keystroke_e	e	n/a
53.4065	0.075	106813	keystroke_t	t	n/a
53.4965	0.09	106993	keystroke_i	i	n/a
53.6465	0.135	107293	keystroke_c	c	n/a
53.8115	0.09	107623	keystroke_s	s	n/a
54.246	0.075	108492	keystroke_Key.space	Key.space	n/a
54.5165	0.089	109033	keystroke_c	c	n/a
54.696	0.0905	109392	keystroke_a	a	n/a
54.8165	0.1205	109633	keystroke_s	s	n/a
54.9515	0.075	109903	keystroke_u	u	n/a
55.116	0.0755	110232	keystroke_a	a	n/a
55.236	0.1055	110472	keystroke_l	l	n/a
55.5515	0.089	111103	keystroke_Key.enter	Key.enter	n/a
55.648	6.6555	111296	prompt	n/a	filter road asking module\n
56.5565	0.09	113113	keystroke_f	f	n/a
56.6315	0.09	113263	keystroke_i	i	n/a
56.8415	0.09	113683	keystroke_l	l	n/a
56.9465	0.075	113893	keystroke_t	t	n/a
57.0815	0.105	114163	keystroke_e	e	n/a
57.1565	0.09	114313	keystroke_r	r	n/a
57.8015	0.089	115603	keystroke_Key.space	Key.space	n/a
58.026	0.0905	116052	keystroke_r	r	n/a
58.1615	0.0745	116323	keystroke_o	o	n/a
58.5365	0.12	117073	keystroke_a	a	n/a
58.7165	0.09	117433	keystroke_d	d	n/a
59.1805	0.076	118361	keystroke_Key.space	Key.space	n/a
59.481	0.09	118962	keystroke_a	a	n/a
59.5415	0.12	119083	keystroke_s	s	n/a
59.751	0.045	119502	keystroke_k	k	n/a
59.871	0.151	119742	keystroke_i	i	n/a
59.991	0.105	119982	keystroke_n	n	n/a
60.126	0.0905	120252	keystroke_g	g	n/a
60.606	0.0895	121212	keystroke_Key.space	Key.space	n/a
60.9365	0.074	121873	keystroke_m	m	n/a
61.1015	0.09	122203	keystroke_o	o	n/a
61.2065	0.09	122413	keystroke_d	d	n/a
61.3415	0.1195	122683	keystroke_u	u	n/a
61.6115	0.105	123223	keystroke_l	l	n/a
61.6865	0.0745	123373	keystroke_e	e	n/a
62.211	0.09	124422	keystroke_Key.enter	Key.enter	n/a
62.3085	10.3445	124617	prompt	n/a	release ultra judgment ultra\n
63.336	0.0595	126672	keystroke_r	r	n/a
63.3805	0.09	126761	keystroke_e	e	n/a
63.5005	0.09	127001	keystroke_l	l	n/a
63.5755	0.106	127151	keystroke_e	e	n/a
63.741	0.2095	127482	keystroke_s	s	n/a
63.816	0.0895	127632	keystroke_a	a	n/a
64.3705	0.0755	128741	keystroke_Key.backspace	Key.backspace	n/a
64.5055	0.105	129011	keystroke_Key.backspace	Key.backspace	n/a
64.7315	0.105	129463	keystroke_a	a	n/a
64.8515	0.105	129703	keystroke_s	s	n/a
65.361	0.09	130722	keystroke_e	e	n/a
65.811	0.0755	131622	keystroke_Key.space	Key.space	n/a
66.081	0.075	132162	keystroke_u	u	n/a
66.3215	0.105	132643	keystroke_l	l	n/a
66.4405	0.076	132881	keystroke_t	t	n/a
66.5915	0.089	133183	keystroke_r	r	n/a
66.876	0.075	133752	keystroke_a	a	n/a
67.416	0.0605	134832	keystroke_Key.space	Key.space	n/a
67.7915	0.0595	135583	keystroke_j	j	n/a
67.9565	0.0895	135913	keystroke_u	u	n/a
68.211	0.0755	136422	keystroke_d	d	n/a
68.481	0.0755	136962	keystroke_g	g	n/a
68.6165	0.0895	137233	keystroke_e	e	n/a
69.231	0.075	138462	keystroke_Key.backspace	Key.backspace	n/a
69.531	0.0755	139062	keystroke_m	m	n/a
69.726	0.09	139452	keystroke_n	n	n/a
69.936	0.03	139872	keystroke_e	e	n/a
70.161	0.0755	140322	keystroke_Key.backspace	Key.backspace	n/a
70.266	0.0905	140532	keystroke_Key.backspace	Key.backspace	n/a
70.4165	0.09	140833	keystroke_e	e	n/a
70.5665	0.1045	141133	keystroke_n	n	n/a
70.656	0.0755	141312	keystroke_t	t	n/a
71.166	0.075	142332	keystroke_Key.space	Key.space	n/a
71.5105	0.076	143021	keystroke_u	u	n/a
71.7215	0.09	143443	keystroke_l	l	n/a
71.8565	0.075	143713	keystroke_t	t	n/a
72.0065	0.06	144013	keystroke_r	r	n/a
72.3365	0.075	144673	keystroke_a	a	n/a
72.5465	0.105	145093	keystroke_Key.enter	Key.enter	n/a
72.6595	10.6735	145319	prompt	n/a	exterior blacks faster guru\n
73.4465	0.135	146893	keystroke_e	e	n/a
73.7015	0.045	147403	keystroke_x	x	n/a
74.3305	0.091	148661	keystroke_t	t	n/a
74.4815	0.104	148963	keystroke_e	e	n/a
74.5565	0.09	149113	keystroke_r	r	n/a
74.6605	0.136	149321	keystroke_i	i	n/a
74.7365	0.104	149473	keystroke_o	o	n/a
74.9005	0.0305	149801	keystroke_r	r	n/a
75.6955	0.075	151391	keystroke_Key.space	Key.space	n/a
75.9965	0.075	151993	keystroke_b	b	n/a
76.1455	0.0905	152291	keystroke_l	l	n/a
76.2505	0.1055	152501	keystroke_a	a	n/a
76.716	0.06	153432	keystroke_c	c	n/a
77.6455	0.076	155291	keystroke_k	k	n/a
78.996	0.09	157992	keystroke_s	s	n/a
79.8365	0.09	159673	keystroke_Key.space	Key.space	n/a
80.6465	0.105	161293	keystroke_f	f	n/a
80.7365	0.105	161473	keystroke_a	a	n/a
80.9305	0.136	161861	keystroke_s	s	n/a
81.1565	0.0895	162313	keystroke_t	t	n/a
81.306	0.105	162612	keystroke_e	e	n/a
81.3665	0.1045	162733	keystroke_r	r	n/a
81.7705	0.076	163541	keystroke_Key.space	Key.space	n/a
82.4465	0.075	164893	keystroke_g	g	n/a
82.5965	0.059	165193	keystroke_u	u	n/a
82.6715	0.059	165343	keystroke_r	r	n/a
82.7605	0.076	165521	keystroke_u	u	n/a
83.2415	0.09	166483	keystroke_Key.enter	Key.enter	n/a
83.339	12.834	166678	prompt	n/a	meeting ohio arrangements harold\n
84.111	0.075	168222	keystroke_m	m	n/a
84.201	0.075	168402	keystroke_e	e	n/a
84.3665	0.0595	168733	keystroke_e	e	n/a
84.636	0.09	169272	keystroke_t	t	n/a
84.741	0.165	169482	keystroke_i	i	n/a
84.861	0.0905	169722	keystroke_n	n	n/a
84.9365	0.0745	169873	keystroke_g	g	n/a
85.116	0.0905	170232	keystroke_Key.space	Key.space	n/a
86.5565	0.1195	173113	keystroke_o	o	n/a
86.7965	0.09	173593	keystroke_h	h	n/a
87.0215	0.104	174043	keystroke_i	i	n/a
87.1555	0.12	174311	keystroke_o	o	n/a
87.921	0.0745	175842	keystroke_Key.space	Key.space	n/a
88.0555	0.09	176111	keystroke_a	a	n/a
88.2505	0.046	176501	keystroke_r	r	n/a
88.3715	0.074	176743	keystroke_r	r	n/a
88.5205	0.12	177041	keystroke_a	a	n/a
88.6255	0.0905	177251	keystroke_n	n	n/a
88.7305	0.076	177461	keystroke_g	g	n/a
88.8365	0.059	177673	keystroke_w	w	n/a
88.8505	0.0305	177701	keystroke_e	e	n/a
89.5255	0.0455	179051	keystroke_=	=	n/a
89.8565	0.0895	179713	keystroke_Key.backspace	Key.backspace	n/a
90.021	0.075	180042	keystroke_Key.backspace	Key.backspace	n/a
90.3805	0.06	180761	keystroke_Key.backspace	Key.backspace	n/a
90.5005	0.091	181001	keystroke_e	e	n/a
92.5715	0.09	185143	keystroke_m	m	n/a
92.6765	0.105	185353	keystroke_e	e	n/a
92.7665	0.09	185533	keystroke_n	n	n/a
92.8415	0.075	185683	keystroke_t	t	n/a
93.0215	0.09	186043	keystroke_a	a	n/a
93.4865	0.06	186973	keystroke_Key.backspace	Key.backspace	n/a
93.5305	0.091	187061	keystroke_s	s	n/a
94.3715	0.075	188743	keystroke_Key.space	Key.space	n/a
94.581	0.09	189162	keystroke_h	h	n/a
94.701	0.12	189402	keystroke_a	a	n/a
94.8665	0.09	189733	keystroke_r	r	n/a
95.4365	0.09	190873	keystroke_o	o	n/a
95.6015	0.09	191203	keystroke_l	l	n/a
95.6765	0.09	191353	keystroke_d	d	n/a
96.0805	0.091	192161	keystroke_Key.enter	Key.enter	n/a
96.177	9.791	192354	prompt	n/a	definitely to priorities colin\n
96.876	0.075	193752	keystroke_d	d	n/a
97.041	0.09	194082	keystroke_e	e	n/a
97.5515	0.06	195103	keystroke_f	f	n/a
97.7315	0.135	195463	keystroke_i	i	n/a
97.8505	0.091	195701	keystroke_n	n	n/a
97.9715	0.105	195943	keystroke_i	i	n/a
98.1965	0.075	196393	keystroke_t	t	n/a
98.3315	0.075	196663	keystroke_e	e	n/a
98.511	0.09	197022	keystroke_l	l	n/a
98.616	0.075	197232	keystroke_y	y	n/a
99.321	0.105	198642	keystroke_Key.space	Key.space	n/a
99.516	0.06	199032	keystroke_t	t	n/a
99.621	0.045	199242	keystroke_o	o	n/a
99.771	0.0905	199542	keystroke_Key.space	Key.space	n/a
99.9815	0.09	199963	keystroke_p	p	n/a
100.1015	0.0895	200203	keystroke_r	r	n/a
100.2365	0.1345	200473	keystroke_i	i	n/a
100.491	0.06	200982	keystroke_i	i	n/a
100.536	0.1045	201072	keystroke_o	o	n/a
101.0605	0.06	202121	keystroke_Key.backspace	Key.backspace	n/a
101.181	0.06	202362	keystroke_Key.backspace	Key.backspace	n/a
101.4815	0.105	202963	keystroke_o	o	n/a
101.6015	0.075	203203	keystroke_r	r	n/a
102.2165	0.105	204433	keystroke_i	i	n/a
102.4565	0.075	204913	keystroke_t	t	n/a
102.681	0.075	205362	keystroke_i	i	n/a
102.771	0.0605	205542	keystroke_e	e	n/a
102.921	0.09	205842	keystroke_s	s	n/a
103.3855	0.015	206771	keystroke_Key.space	Key.space	n/a
103.5965	0.075	207193	keystroke_c	c	n/a
103.6405	0.0905	207281	keystroke_o	o	n/a
103.8055	0.075	207611	keystroke_l	l	n/a
103.9715	0.135	207943	keystroke_i	i	n/a
104.0605	0.0755	208121	keystroke_n	n	n/a
104.361	0.045	208722	keystroke_'	'	n/a
105.636	0.0455	211272	keystroke_Key.backspace	Key.backspace	n/a
105.876	0.09	211752	keystroke_Key.enter	Key.enter	n/a
105.972	5.1105	211944	prompt	n/a	into knowledge forth rose\n
107.0315	0.135	214063	keystroke_i	i	n/a
107.1065	0.12	214213	keystroke_n	n	n/a
107.2415	0.09	214483	keystroke_t	t	n/a
107.3165	0.0905	214633	keystroke_o	o	n/a
107.5415	0.075	215083	keystroke_Key.space	Key.space	n/a
107.7215	0.135	215443	keystroke_k	k	n/a
107.8415	0.09	215683	keystroke_n	n	n/a
108.0065	0.1045	216013	keystroke_o	o	n/a
108.1565	0.0745	216313	keystroke_w	w	n/a
108.2315	0.09	216463	keystroke_l	l	n/a
108.351	0.0905	216702	keystroke_e	e	n/a
108.5005	0.0905	217001	keystroke_d	d	n/a
108.6805	0.075	217361	keystroke_g	g	n/a
108.7405	0.09	217481	keystroke_e	e	n/a
109.461	0.0895	218922	keystroke_Key.space	Key.space	n/a
109.6565	0.059	219313	keystroke_f	f	n/a
109.731	0.1355	219462	keystroke_o	o	n/a
109.8215	0.09	219643	keystroke_r	r	n/a
109.9555	0.106	219911	keystroke_t	t	n/a
110.0455	0.076	220091	keystroke_h	h	n/a
110.2255	0.12	220451	keystroke_Key.space	Key.space	n/a
110.4205	0.075	220841	keystroke_r	r	n/a
110.541	0.0895	221082	keystroke_o	o	n/a
110.6455	0.09	221291	keystroke_s	s	n/a
110.8555	0.075	221711	keystroke_e	e	n/a
110.9905	0.0905	221981	keystroke_Key.enter	Key.enter	n/a
111.0865	7.5565	222173	prompt	n/a	formatting refurbished brother testimony\n
111.8765	0.09	223753	keystroke_f	f	n/a
111.9505	0.0755	223901	keystroke_o	o	n/a
112.0565	0.074	224113	keystroke_r	r	n/a
112.1765	0.0745	224353	keystroke_m	m	n/a
112.266	0.075	224532	keystroke_a	a	n/a
112.416	0.0745	224832	keystroke_t	t	n/a
112.5505	0.106	225101	keystroke_t	t	n/a
112.6415	0.135	225283	keystroke_i	i	n/a
112.7165	0.12	225433	keystroke_n	n	n/a
112.821	0.06	225642	keystroke_g	g	n/a
112.9265	0.1045	225853	keystroke_Key.space	Key.space	n/a
113.091	0.09	226182	keystroke_r	r	n/a
113.136	0.09	226272	keystroke_e	e	n/a
113.421	0.09	226842	keystroke_f	f	n/a
113.512	0.089	227024	keystroke_u	u	n/a
113.601	0.09	227202	keystroke_r	r	n/a
113.8265	0.06	227653	keystroke_b	b	n/a
114.171	0.09	228342	keystroke_i	i	n/a
114.516	0.075	229032	keystroke_s	s	n/a
114.606	0.075	229212	keystroke_h	h	n/a
114.801	0.075	229602	keystroke_e	e	n/a
114.9515	0.105	229903	keystroke_d	d	n/a
115.6415	0.089	231283	keystroke_Key.space	Key.space	n/a
115.7615	0.075	231523	keystroke_b	b	n/a
115.8965	0.09	231793	keystroke_r	r	n/a
115.9715	0.09	231943	keystroke_o	o	n/a
116.1065	0.09	232213	keystroke_t	t	n/a
116.1965	0.09	232393	keystroke_h	h	n/a
116.287	0.104	232574	keystroke_e	e	n/a
116.346	0.1055	232692	keystroke_r	r	n/a
116.796	0.075	233592	keystroke_Key.space	Key.space	n/a
117.051	0.076	234102	keystroke_t	t	n/a
117.171	0.09	234342	keystroke_e	e	n/a
117.336	0.09	234672	keystroke_s	s	n/a
117.516	0.075	235032	keystroke_t	t	n/a
117.621	0.075	235242	keystroke_i	i	n/a
117.801	0.075	235602	keystroke_m	m	n/a
117.966	0.075	235932	keystroke_o	o	n/a
118.101	0.09	236202	keystroke_n	n	n/a
118.2365	0.0595	236473	keystroke_y	y	n/a
118.566	0.075	237132	keystroke_Key.enter	Key.enter	n/a
118.647	8.051	237294	prompt	n/a	developed cited seventh quarter\n
119.4965	0.075	238993	keystroke_d	d	n/a
119.6615	0.075	239323	keystroke_e	e	n/a
119.7815	0.105	239563	keystroke_v	v	n/a
119.8565	0.12	239713	keystroke_e	e	n/a
120.0815	0.075	240163	keystroke_l	l	n/a
120.2915	0.1495	240583	keystroke_o	o	n/a
120.3955	0.1055	240791	keystroke_p	p	n/a
120.591	0.09	241182	keystroke_e	e	n/a
120.741	0.105	241482	keystroke_d	d	n/a
121.236	0.075	242472	keystroke_Key.space	Key.space	n/a
121.416	0.0905	242832	keystroke_c	c	n/a
121.521	0.0755	243042	keystroke_i	i	n/a
121.641	0.09	243282	keystroke_t	t	n/a
121.732	0.0895	243464	keystroke_e	e	n/a
121.881	0.12	243762	keystroke_d	d	n/a
122.016	0.105	244032	keystroke_Key.space	Key.space	n/a
122.166	0.0905	244332	keystroke_s	s	n/a
122.346	0.075	244692	keystroke_e	e	n/a
122.4365	0.075	244873	keystroke_v	v	n/a
122.526	0.1055	245052	keystroke_e	e	n/a
122.7065	0.1045	245413	keystroke_n	n	n/a
122.871	0.09	245742	keystroke_t	t	n/a
123.171	0.12	246342	keystroke_h	h	n/a
123.456	0.09	246912	keystroke_Key.space	Key.space	n/a
124.116	0.015	248232	keystroke_q	q	n/a
125.076	0.075	250152	keystroke_u	u	n/a
125.2265	0.0895	250453	keystroke_a	a	n/a
125.5265	0.0895	251053	keystroke_r	r	n/a
125.721	0.1055	251442	keystroke_t	t	n/a
125.8565	0.0895	251713	keystroke_e	e	n/a
126.2615	0.1045	252523	keystroke_r	r	n/a
126.606	0.0905	253212	keystroke_Key.enter	Key.enter	n/a
126.702	12.416	253404	prompt	n/a	observer transfer bring perceived\n
127.6415	0.105	255283	keystroke_o	o	n/a
127.7915	0.075	255583	keystroke_v	v	n/a
128.1815	0.105	256363	keystroke_Key.backspace	Key.backspace	n/a
128.2565	0.09	256513	keystroke_b	b	n/a
128.7365	0.015	257473	keystroke_s	s	n/a
128.8265	0.105	257653	keystroke_e	e	n/a
128.9015	0.09	257803	keystroke_r	r	n/a
129.4565	0.045	258913	keystroke_v	v	n/a
129.6065	0.1345	259213	keystroke_e	e	n/a
129.711	0.0905	259422	keystroke_r	r	n/a
130.086	0.075	260172	keystroke_Key.space	Key.space	n/a
130.296	0.075	260592	keystroke_t	t	n/a
130.311	0.105	260622	keystroke_r	r	n/a
130.5065	0.105	261013	keystroke_a	a	n/a
130.612	0.089	261224	keystroke_n	n	n/a
130.702	0.1045	261404	keystroke_s	s	n/a
131.4065	0.074	262813	keystroke_f	f	n/a
131.5255	0.12	263051	keystroke_e	e	n/a
131.5865	0.1045	263173	keystroke_r	r	n/a
132.2315	0.075	264463	keystroke_Key.space	Key.space	n/a
132.6065	0.06	265213	keystroke_b	b	n/a
132.8165	0.105	265633	keystroke_r	r	n/a
132.9215	0.135	265843	keystroke_i	i	n/a
133.0115	0.075	266023	keystroke_n	n	n/a
133.1915	0.1195	266383	keystroke_Key.space	Key.space	n/a
133.5215	0.0445	267043	keystroke_p	p	n/a
133.701	0.09	267402	keystroke_r	r	n/a
133.746	0.1055	267492	keystroke_e	e	n/a
134.8715	0.075	269743	keystroke_Key.backspace	Key.backspace	n/a
135.0215	0.09	270043	keystroke_Key.backspace	Key.backspace	n/a
135.3815	0.0895	270763	keystroke_Key.backspace	Key.backspace	n/a
135.5465	0.0895	271093	keystroke_Key.backspace	Key.backspace	n/a
135.906	0.06	271812	keystroke_g	g	n/a
136.3565	0.03	272713	keystroke_Key.space	Key.space	n/a
137.0305	0.061	274061	keystroke_p	p	n/a
137.2565	0.135	274513	keystroke_e	e	n/a
137.3615	0.089	274723	keystroke_r	r	n/a
137.961	0.09	275922	keystroke_c	c	n/a
138.1115	0.075	276223	keystroke_e	e	n/a
138.2765	0.09	276553	keystroke_i	i	n/a
138.4715	0.075	276943	keystroke_v	v	n/a
138.5615	0.09	277123	keystroke_e	e	n/a
138.8015	0.0745	277603	keystroke_d	d	n/a
139.041	0.075	278082	keystroke_Key.enter	Key.enter	n/a
139.122	10.991	278244	prompt	n/a	affect regularly hydrocodone consequences\n
139.881	0.0905	279762	keystroke_a	a	n/a
140.121	0.075	280242	keystroke_f	f	n/a
140.2565	0.075	280513	keystroke_f	f	n/a
140.346	0.15	280692	keystroke_e	e	n/a
140.511	0.0755	281022	keystroke_c	c	n/a
140.721	0.1055	281442	keystroke_t	t	n/a
140.871	0.03	281742	keystroke_Key.space	Key.space	n/a
140.976	0.09	281952	keystroke_r	r	n/a
141.036	0.0905	282072	keystroke_e	e	n/a
141.261	0.0755	282522	keystroke_g	g	n/a
141.351	0.076	282702	keystroke_u	u	n/a
141.576	0.1055	283152	keystroke_l	l	n/a
141.666	0.12	283332	keystroke_a	a	n/a
141.7715	0.0745	283543	keystroke_r	r	n/a
141.9215	0.0895	283843	keystroke_l	l	n/a
142.056	0.06	284112	keystroke_r	r	n/a
142.4465	0.074	284893	keystroke_Key.backspace	Key.backspace	n/a
142.4755	0.076	284951	keystroke_y	y	n/a
143.5115	0.12	287023	keystroke_Key.space	Key.space	n/a
143.7065	0.0595	287413	keystroke_h	h	n/a
143.871	0.09	287742	keystroke_y	y	n/a
143.976	0.06	287952	keystroke_r	r	n/a
144.696	0.0605	289392	keystroke_d	d	n/a
144.741	0.09	289482	keystroke_o	o	n/a
145.1015	0.075	290203	keystroke_c	c	n/a
145.191	0.1355	290382	keystroke_o	o	n/a
145.311	0.0905	290622	keystroke_n	n	n/a
145.836	0.0755	291672	keystroke_Key.backspace	Key.backspace	n/a
146.241	0.06	292482	keystroke_d	d	n/a
146.3465	0.12	292693	keystroke_o	o	n/a
146.4365	0.105	292873	keystroke_n	n	n/a
146.8265	0.045	293653	keystroke_e	e	n/a
147.2765	0.0895	294553	keystroke_Key.space	Key.space	n/a
147.4715	0.075	294943	keystroke_c	c	n/a
147.5315	0.105	295063	keystroke_o	o	n/a
147.6065	0.09	295213	keystroke_n	n	n/a
147.7415	0.135	295483	keystroke_s	s	n/a
148.1015	0.09	296203	keystroke_e	e	n/a
148.4315	0.06	296863	keystroke_q	q	n/a
148.4915	0.09	296983	keystroke_u	u	n/a
148.6115	0.075	297223	keystroke_e	e	n/a
148.7315	0.0895	297463	keystroke_n	n	n/a
148.8065	0.1045	297613	keystroke_c	c	n/a
148.881	0.09	297762	keystroke_e	e	n/a
149.061	0.0905	298122	keystroke_s	s	n/a
150.0965	0.0145	300193	keystroke_Key.enter	Key.enter	n/a
150.1175	8.3955	300235	prompt	n/a	live predicted trainer however\n
151.0565	0.089	302113	keystroke_l	l	n/a
151.2665	0.0755	302533	keystroke_i	i	n/a
151.3565	0.105	302713	keystroke_v	v	n/a
151.4765	0.0905	302953	keystroke_e	e	n/a
151.716	0.075	303432	keystroke_Key.space	Key.space	n/a
151.971	0.09	303942	keystroke_p	p	n/a
152.0465	0.0895	304093	keystroke_r	r	n/a
152.106	0.0755	304212	keystroke_e	e	n/a
152.2715	0.105	304543	keystroke_d	d	n/a
152.361	0.0905	304722	keystroke_i	i	n/a
152.466	0.105	304932	keystroke_c	c	n/a
152.586	0.12	305172	keystroke_e	e	n/a
152.8115	0.06	305623	keystroke_t	t	n/a
153.201	0.075	306402	keystroke_Key.backspace	Key.backspace	n/a
153.3365	0.0895	306673	keystroke_Key.backspace	Key.backspace	n/a
153.381	0.09	306762	keystroke_t	t	n/a
153.4565	0.09	306913	keystroke_e	e	n/a
153.606	0.105	307212	keystroke_d	d	n/a
154.371	0.09	308742	keystroke_Key.space	Key.space	n/a
154.701	0.1655	309402	keystroke_r	r	n/a
154.716	0.0755	309432	keystroke_t	t	n/a
155.2555	0.0455	310511	keystroke_Key.backspace	Key.backspace	n/a
155.361	0.0895	310722	keystroke_Key.backspace	Key.backspace	n/a
155.467	0.0745	310934	keystroke_t	t	n/a
155.5115	0.06	311023	keystroke_r	r	n/a
155.7065	0.105	311413	keystroke_a	a	n/a
155.857	0.134	311714	keystroke_i	i	n/a
155.961	0.105	311922	keystroke_n	n	n/a
156.111	0.12	312222	keystroke_e	e	n/a
156.186	0.105	312372	keystroke_r	r	n/a
156.561	0.06	313122	keystroke_Key.space	Key.space	n/a
156.967	0.074	313934	keystroke_h	h	n/a
157.1615	0.09	314323	keystroke_o	o	n/a
157.2365	0.09	314473	keystroke_w	w	n/a
157.4765	0.104	314953	keystroke_e	e	n/a
157.6415	0.105	315283	keystroke_v	v	n/a
157.8065	0.105	315613	keystroke_e	e	n/a
157.8665	0.104	315733	keystroke_r	r	n/a
158.4215	0.0895	316843	keystroke_Key.enter	Key.enter	n/a
158.516	8.037	317032	prompt	n/a	claimed machinery officer disclaimer\n
159.247	0.074	318494	keystroke_c	c	n/a
159.4265	0.105	318853	keystroke_l	l	n/a
159.561	0.075	319122	keystroke_a	a	n/a
159.666	0.1655	319332	keystroke_i	i	n/a
159.771	0.1195	319542	keystroke_m	m	n/a
159.8765	0.0745	319753	keystroke_e	e	n/a
160.0265	0.09	320053	keystroke_d	d	n/a
160.461	0.0755	320922	keystroke_Key.space	Key.space	n/a
160.6415	0.105	321283	keystroke_m	m	n/a
161.016	0.09	322032	keystroke_a	a	n/a
161.211	0.0895	322422	keystroke_c	c	n/a
161.346	0.0605	322692	keystroke_h	h	n/a
161.4965	0.09	322993	keystroke_i	i	n/a
161.6915	0.1045	323383	keystroke_n	n	n/a
161.901	0.1205	323802	keystroke_e	e	n/a
162.0065	0.0595	324013	keystroke_r	r	n/a
162.291	0.06	324582	keystroke_y	y	n/a
162.771	0.075	325542	keystroke_Key.space	Key.space	n/a
162.981	0.0905	325962	keystroke_o	o	n/a
163.056	0.075	326112	keystroke_f	f	n/a
163.221	0.06	326442	keystroke_f	f	n/a
163.3565	0.1045	326713	keystroke_i	i	n/a
164.1815	0.09	328363	keystroke_c	c	n/a
164.3305	0.135	328661	keystroke_e	e	n/a
164.436	0.0895	328872	keystroke_r	r	n/a
164.631	0.0745	329262	keystroke_Key.space	Key.space	n/a
165.051	0.0755	330102	keystroke_d	d	n/a
165.1265	0.0895	330253	keystroke_i	i	n/a
165.231	0.0905	330462	keystroke_s	s	n/a
165.5165	0.075	331033	keystroke_c	c	n/a
165.667	0.0895	331334	keystroke_l	l	n/a
165.8615	0.089	331723	keystroke_a	a	n/a
165.9365	0.15	331873	keystroke_i	i	n/a
166.0265	0.119	332053	keystroke_m	m	n/a
166.1315	0.105	332263	keystroke_e	e	n/a
166.1915	0.09	332383	keystroke_r	r	n/a
166.4615	0.09	332923	keystroke_Key.enter	Key.enter	n/a
166.557	9.7605	333114	prompt	n/a	invasion pleasure charts frequently\n
167.271	0.09	334542	keystroke_i	i	n/a
167.421	0.1055	334842	keystroke_n	n	n/a
167.6315	0.075	335263	keystroke_v	v	n/a
167.856	0.15	335712	keystroke_a	a	n/a
167.946	0.12	335892	keystroke_s	s	n/a
167.991	0.18	335982	keystroke_i	i	n/a
168.081	0.15	336162	keystroke_o	o	n/a
168.1565	0.1345	336313	keystroke_n	n	n/a
168.681	0.045	337362	keystroke_Key.space	Key.space	n/a
168.891	0.135	337782	keystroke_p	p	n/a
168.981	0.1205	337962	keystroke_l	l	n/a
169.0565	0.09	338113	keystroke_e	e	n/a
169.1615	0.135	338323	keystroke_a	a	n/a
169.2515	0.1055	338503	keystroke_s	s	n/a
169.4315	0.09	338863	keystroke_e	e	n/a
169.5815	0.105	339163	keystroke_u	u	n/a
169.7015	0.12	339403	keystroke_r	r	n/a
169.8065	0.09	339613	keystroke_e	e	n/a
170.1815	0.075	340363	keystroke_Key.backspace	Key.backspace	n/a
170.3165	0.075	340633	keystroke_Key.backspace	Key.backspace	n/a
170.4515	0.09	340903	keystroke_Key.backspace	Key.backspace	n/a
170.6165	0.06	341233	keystroke_Key.backspace	Key.backspace	n/a
172.3715	0.0895	344743	keystroke_u	u	n/a
172.476	0.09	344952	keystroke_r	r	n/a
172.536	0.075	345072	keystroke_e	e	n/a
173.136	0.03	346272	keystroke_Key.space	Key.space	n/a
173.286	0.105	346572	keystroke_c	c	n/a
173.376	0.075	346752	keystroke_h	h	n/a
173.466	0.12	346932	keystroke_a	a	n/a
173.5715	0.0895	347143	keystroke_r	r	n/a
173.7515	0.075	347503	keystroke_t	t	n/a
173.931	0.0905	347862	keystroke_s	s	n/a
174.111	0.075	348222	keystroke_Key.space	Key.space	n/a
174.516	0.105	349032	keystroke_f	f	n/a
174.6965	0.1045	349393	keystroke_r	r	n/a
174.7715	0.0895	349543	keystroke_e	e	n/a
175.1455	0.091	350291	keystroke_q	q	n/a
175.252	0.0895	350504	keystroke_u	u	n/a
175.3565	0.06	350713	keystroke_e	e	n/a
175.4615	0.105	350923	keystroke_n	n	n/a
175.5965	0.075	351193	keystroke_t	t	n/a
175.7765	0.12	351553	keystroke_l	l	n/a
175.8815	0.09	351763	keystroke_y	y	n/a
176.226	0.09	352452	keystroke_Key.enter	Key.enter	n/a
176.3245	4.884	352649	prompt	n/a	women scenarios tuner sole\n
177.1565	0.0595	354313	keystroke_w	w	n/a
177.2015	0.075	354403	keystroke_o	o	n/a
177.3215	0.105	354643	keystroke_m	m	n/a
177.4415	0.06	354883	keystroke_e	e	n/a
177.516	0.105	355032	keystroke_n	n	n/a
177.7265	0.0895	355453	keystroke_Key.space	Key.space	n/a
177.831	0.105	355662	keystroke_s	s	n/a
178.011	0.105	356022	keystroke_c	c	n/a
178.176	0.09	356352	keystroke_e	e	n/a
178.311	0.105	356622	keystroke_n	n	n/a
178.611	0.09	357222	keystroke_a	a	n/a
178.8215	0.0895	357643	keystroke_r	r	n/a
178.9565	0.09	357913	keystroke_i	i	n/a
178.971	0.135	357942	keystroke_o	o	n/a
179.091	0.045	358182	keystroke_s	s	n/a
179.871	0.0755	359742	keystroke_Key.space	Key.space	n/a
180.066	0.0905	360132	keystroke_t	t	n/a
180.141	0.12	360282	keystroke_u	u	n/a
180.201	0.1055	360402	keystroke_n	n	n/a
180.2465	0.105	360493	keystroke_e	e	n/a
180.321	0.0905	360642	keystroke_r	r	n/a
180.486	0.0745	360972	keystroke_Key.space	Key.space	n/a
180.621	0.15	361242	keystroke_s	s	n/a
180.7565	0.0595	361513	keystroke_o	o	n/a
180.8915	0.1045	361783	keystroke_l	l	n/a
180.981	0.0755	361962	keystroke_e	e	n/a
181.101	0.105	362202	keystroke_Key.enter	Key.enter	n/a
181.2115	12.4765	362423	prompt	n/a	scholars ranks porsche struck\n
181.926	0.076	363852	keystroke_s	s	n/a
182.076	0.091	364152	keystroke_c	c	n/a
182.151	0.0755	364302	keystroke_h	h	n/a
182.316	0.075	364632	keystroke_o	o	n/a
182.541	0.075	365082	keystroke_l	l	n/a
182.811	0.0905	365622	keystroke_a	a	n/a
183.0815	0.0595	366163	keystroke_r	r	n/a
183.441	0.0905	366882	keystroke_s	s	n/a
184.641	0.105	369282	keystroke_Key.space	Key.space	n/a
184.761	0.075	369522	keystroke_r	r	n/a
184.896	0.12	369792	keystroke_a	a	n/a
184.9715	0.135	369943	keystroke_n	n	n/a
185.121	0.1055	370242	keystroke_k	k	n/a
185.1965	0.0895	370393	keystroke_s	s	n/a
185.4515	0.0745	370903	keystroke_Key.space	Key.space	n/a
185.991	0.075	371982	keystroke_p	p	n/a
186.0815	0.09	372163	keystroke_r	r	n/a
186.1715	0.1045	372343	keystroke_o	o	n/a
186.711	0.075	373422	keystroke_s	s	n/a
187.2815	0.0595	374563	keystroke_Key.backspace	Key.backspace	n/a
187.416	0.0605	374832	keystroke_Key.backspace	Key.backspace	n/a
187.551	0.075	375102	keystroke_Key.backspace	Key.backspace	n/a
187.7765	0.075	375553	keystroke_p	p	n/a
187.8815	0.0595	375763	keystroke_r	r	n/a
188.6905	0.046	377381	keystroke_Key.backspace	Key.backspace	n/a
188.7955	0.061	377591	keystroke_Key.backspace	Key.backspace	n/a
189.4405	0.076	378881	keystroke_o	o	n/a
189.6365	0.075	379273	keystroke_r	r	n/a
189.9815	0.105	379963	keystroke_s	s	n/a
190.2065	0.075	380413	keystroke_c	c	n/a
190.2955	0.075	380591	keystroke_h	h	n/a
190.3555	0.091	380711	keystroke_e	e	n/a
191.0455	0.06	382091	keystroke_Key.space	Key.space	n/a
191.1215	0.135	382243	keystroke_s	s	n/a
191.3905	0.1205	382781	keystroke_t	t	n/a
191.4665	0.0895	382933	keystroke_r	r	n/a
191.541	0.09	383082	keystroke_u	u	n/a
191.662	0.1195	383324	keystroke_c	c	n/a
191.766	0.105	383532	keystroke_k	k	n/a
193.581	0.105	387162	keystroke_Key.enter	Key.enter	n/a
193.692	8.696	387384	prompt	n/a	how'd together bandwidth java\n
194.6015	0.089	389203	keystroke_h	h	n/a
194.7815	0.09	389563	keystroke_o	o	n/a
194.8865	0.075	389773	keystroke_w	w	n/a
195.2315	0.06	390463	keystroke_;	;	n/a
195.471	0.06	390942	keystroke_d	d	n/a
195.726	0.045	391452	keystroke_Key.backspace	Key.backspace	n/a
195.8315	0.075	391663	keystroke_Key.backspace	Key.backspace	n/a
196.2965	0.0745	392593	keystroke_'	'	n/a
196.386	0.075	392772	keystroke_d	d	n/a
197.091	0.0755	394182	keystroke_Key.space	Key.space	n/a
197.2855	0.09	394571	keystroke_t	t	n/a
197.3905	0.105	394781	keystroke_o	o	n/a
197.526	0.0895	395052	keystroke_g	g	n/a
197.7055	0.09	395411	keystroke_e	e	n/a
197.8105	0.105	395621	keystroke_t	t	n/a
197.9165	0.0895	395833	keystroke_h	h	n/a
197.9905	0.0905	395981	keystroke_e	e	n/a
198.0515	0.09	396103	keystroke_r	r	n/a
198.2905	0.075	396581	keystroke_Key.space	Key.space	n/a
198.9965	0.075	397993	keystroke_b	b	n/a
199.1915	0.09	398383	keystroke_a	a	n/a
199.2965	0.075	398593	keystroke_n	n	n/a
199.3865	0.09	398773	keystroke_d	d	n/a
199.7015	0.075	399403	keystroke_w	w	n/a
199.7905	0.075	399581	keystroke_i	i	n/a
200.5565	0.09	401113	keystroke_d	d	n/a
200.8415	0.0745	401683	keystroke_t	t	n/a
200.9465	0.0895	401893	keystroke_h	h	n/a
201.336	0.09	402672	keystroke_Key.space	Key.space	n/a
201.696	0.075	403392	keystroke_j	j	n/a
201.786	0.075	403572	keystroke_a	a	n/a
202.011	0.09	404022	keystroke_v	v	n/a
202.176	0.0905	404352	keystroke_a	a	n/a
202.296	0.0905	404592	keystroke_Key.enter	Key.enter	n/a
202.392	6.401	404784	prompt	n/a	dead mills thrown cooperation\n
203.0915	0.075	406183	keystroke_d	d	n/a
203.2415	0.09	406483	keystroke_e	e	n/a
203.3615	0.135	406723	keystroke_a	a	n/a
203.4515	0.105	406903	keystroke_d	d	n/a
203.5865	0.075	407173	keystroke_Key.space	Key.space	n/a
203.7515	0.09	407503	keystroke_m	m	n/a
203.8865	0.075	407773	keystroke_i	i	n/a
204.0965	0.03	408193	keystroke_l	l	n/a
204.2165	0.075	408433	keystroke_l	l	n/a
204.2615	0.075	408523	keystroke_s	s	n/a
204.4265	0.09	408853	keystroke_Key.space	Key.space	n/a
204.7115	0.09	409423	keystroke_t	t	n/a
204.8015	0.075	409603	keystroke_h	h	n/a
204.891	0.0905	409782	keystroke_r	r	n/a
205.0115	0.105	410023	keystroke_o	o	n/a
205.1015	0.09	410203	keystroke_w	w	n/a
205.2365	0.075	410473	keystroke_n	n	n/a
205.5215	0.075	411043	keystroke_Key.space	Key.space	n/a
206.106	0.075	412212	keystroke_c	c	n/a
206.2415	0.0745	412483	keystroke_o	o	n/a
206.451	0.0455	412902	keystroke_o	o	n/a
206.556	0.06	413112	keystroke_o	o	n/a
206.7515	0.0445	413503	keystroke_p	p	n/a
206.976	0.06	413952	keystroke_Key.backspace	Key.backspace	n/a
207.111	0.06	414222	keystroke_Key.backspace	Key.backspace	n/a
207.336	0.09	414672	keystroke_p	p	n/a
207.6215	0.105	415243	keystroke_e	e	n/a
207.6815	0.0895	415363	keystroke_r	r	n/a
207.9655	0.121	415931	keystroke_a	a	n/a
208.191	0.0745	416382	keystroke_t	t	n/a
208.2365	0.165	416473	keystroke_i	i	n/a
208.3115	0.135	416623	keystroke_o	o	n/a
208.3865	0.104	416773	keystroke_n	n	n/a
208.686	0.1055	417372	keystroke_Key.enter	Key.enter	n/a
208.797	6.101	417594	prompt	n/a	fallen mature lucky caps\n
209.6615	0.075	419323	keystroke_f	f	n/a
209.9315	0.045	419863	keystroke_l	l	n/a
210.3065	0.06	420613	keystroke_Key.backspace	Key.backspace	n/a
210.3815	0.09	420763	keystroke_a	a	n/a
210.5765	0.06	421153	keystroke_l	l	n/a
210.6965	0.09	421393	keystroke_l	l	n/a
210.8465	0.0895	421693	keystroke_e	e	n/a
211.131	0.075	422262	keystroke_n	n	n/a
211.4915	0.0445	422983	keystroke_Key.space	Key.space	n/a
211.641	0.09	423282	keystroke_m	m	n/a
211.7015	0.1195	423403	keystroke_a	a	n/a
211.896	0.1205	423792	keystroke_t	t	n/a
212.0615	0.0745	424123	keystroke_u	u	n/a
212.121	0.1055	424242	keystroke_r	r	n/a
212.1965	0.104	424393	keystroke_e	e	n/a
212.4055	0.075	424811	keystroke_Key.space	Key.space	n/a
212.751	0.076	425502	keystroke_l	l	n/a
212.961	0.1055	425922	keystroke_u	u	n/a
213.021	0.09	426042	keystroke_c	c	n/a
213.231	0.06	426462	keystroke_k	k	n/a
213.366	0.09	426732	keystroke_y	y	n/a
213.5465	0.0745	427093	keystroke_Key.space	Key.space	n/a
214.2515	0.09	428503	keystroke_c	c	n/a
214.386	0.105	428772	keystroke_a	a	n/a
214.5215	0.105	429043	keystroke_p	p	n/a
214.6115	0.105	429223	keystroke_s	s	n/a
214.7915	0.105	429583	keystroke_Key.enter	Key.enter	n/a
214.902	6.581	429804	prompt	n/a	ground leaving cabinet voip\n
215.7215	0.105	431443	keystroke_g	g	n/a
215.7665	0.1195	431533	keystroke_r	r	n/a
215.916	0.135	431832	keystroke_o	o	n/a
216.036	0.075	432072	keystroke_u	u	n/a
216.2465	0.1045	432493	keystroke_n	n	n/a
216.306	0.0905	432612	keystroke_d	d	n/a
216.471	0.0755	432942	keystroke_Key.space	Key.space	n/a
216.666	0.105	433332	keystroke_l	l	n/a
216.786	0.091	433572	keystroke_e	e	n/a
216.8915	0.1345	433783	keystroke_a	a	n/a
217.101	0.12	434202	keystroke_v	v	n/a
217.371	0.1205	434742	keystroke_i	i	n/a
217.4465	0.105	434893	keystroke_n	n	n/a
217.566	0.075	435132	keystroke_g	g	n/a
217.866	0.09	435732	keystroke_Key.space	Key.space	n/a
218.271	0.09	436542	keystroke_c	c	n/a
218.4965	0.1045	436993	keystroke_a	a	n/a
218.7365	0.0895	437473	keystroke_b	b	n/a
218.8715	0.0895	437743	keystroke_i	i	n/a
219.0665	0.0895	438133	keystroke_n	n	n/a
219.1715	0.0755	438343	keystroke_e	e	n/a
219.336	0.0905	438672	keystroke_t	t	n/a
219.5765	0.0595	439153	keystroke_Key.space	Key.space	n/a
220.4165	0.075	440833	keystroke_v	v	n/a
220.761	0.1205	441522	keystroke_o	o	n/a
220.8965	0.09	441793	keystroke_i	i	n/a
221.0315	0.105	442063	keystroke_p	p	n/a
221.4215	0.059	442843	keystroke_Key.enter	Key.enter	n/a
221.4865	8.2765	442973	prompt	n/a	tutorials technique perfect greece\n
222.531	0.0755	445062	keystroke_t	t	n/a
222.5915	0.12	445183	keystroke_u	u	n/a
222.7565	0.03	445513	keystroke_t	t	n/a
222.8915	0.09	445783	keystroke_o	o	n/a
223.0115	0.0905	446023	keystroke_r	r	n/a
223.2205	0.091	446441	keystroke_i	i	n/a
223.3555	0.0905	446711	keystroke_a	a	n/a
223.5365	0.104	447073	keystroke_l	l	n/a
223.6115	0.0905	447223	keystroke_s	s	n/a
224.166	0.075	448332	keystroke_Key.space	Key.space	n/a
224.556	0.075	449112	keystroke_t	t	n/a
224.601	0.12	449202	keystroke_e	e	n/a
224.7965	0.105	449593	keystroke_c	c	n/a
224.886	0.075	449772	keystroke_h	h	n/a
225.036	0.0905	450072	keystroke_n	n	n/a
225.1715	0.105	450343	keystroke_i	i	n/a
225.5165	0.0745	451033	keystroke_q	q	n/a
225.636	0.0905	451272	keystroke_u	u	n/a
226.1605	0.061	452321	keystroke_e	e	n/a
226.6705	0.09	453341	keystroke_Key.space	Key.space	n/a
227.1215	0.089	454243	keystroke_p	p	n/a
227.212	0.119	454424	keystroke_e	e	n/a
227.302	0.0745	454604	keystroke_r	r	n/a
227.481	0.105	454962	keystroke_f	f	n/a
227.572	0.089	455144	keystroke_e	e	n/a
227.706	0.105	455412	keystroke_c	c	n/a
227.931	0.075	455862	keystroke_t	t	n/a
228.036	0.075	456072	keystroke_Key.space	Key.space	n/a
228.501	0.0905	457002	keystroke_g	g	n/a
228.711	0.0905	457422	keystroke_r	r	n/a
228.8915	0.075	457783	keystroke_e	e	n/a
229.0415	0.1045	458083	keystroke_e	e	n/a
229.3265	0.1045	458653	keystroke_c	c	n/a
229.4015	0.1045	458803	keystroke_e	e	n/a
229.656	0.105	459312	keystroke_Key.enter	Key.enter	n/a
229.769	5.7845	459538	prompt	n/a	regarding test twice compaq\n
230.616	0.06	461232	keystroke_r	r	n/a
230.6615	0.105	461323	keystroke_e	e	n/a
230.8265	0.105	461653	keystroke_g	g	n/a
231.0365	0.135	462073	keystroke_a	a	n/a
231.1565	0.075	462313	keystroke_r	r	n/a
231.2915	0.105	462583	keystroke_d	d	n/a
231.4415	0.1355	462883	keystroke_i	i	n/a
231.5165	0.12	463033	keystroke_n	n	n/a
231.6215	0.0755	463243	keystroke_g	g	n/a
231.7565	0.09	463513	keystroke_Key.space	Key.space	n/a
232.1465	0.06	464293	keystroke_t	t	n/a
232.1915	0.09	464383	keystroke_e	e	n/a
232.3415	0.105	464683	keystroke_s	s	n/a
232.5065	0.105	465013	keystroke_t	t	n/a
232.6865	0.09	465373	keystroke_Key.space	Key.space	n/a
233.017	0.0895	466034	keystroke_t	t	n/a
233.1815	0.135	466363	keystroke_w	w	n/a
233.3015	0.075	466603	keystroke_i	i	n/a
233.4065	0.1355	466813	keystroke_c	c	n/a
233.5265	0.105	467053	keystroke_e	e	n/a
233.7815	0.09	467563	keystroke_Key.space	Key.space	n/a
234.0515	0.075	468103	keystroke_c	c	n/a
234.1415	0.1205	468283	keystroke_o	o	n/a
234.2465	0.09	468493	keystroke_m	m	n/a
234.7715	0.06	469543	keystroke_p	p	n/a
234.8165	0.074	469633	keystroke_a	a	n/a
235.0115	0.09	470023	keystroke_q	q	n/a
235.4615	0.09	470923	keystroke_Key.enter	Key.enter	n/a
235.557	6.806	471114	prompt	n/a	zope titten shade merge\n
236.4515	0.075	472903	keystroke_z	z	n/a
236.661	0.105	473322	keystroke_o	o	n/a
236.7215	0.105	473443	keystroke_p	p	n/a
236.886	0.075	473772	keystroke_e	e	n/a
237.786	0.105	475572	keystroke_Key.space	Key.space	n/a
238.0265	0.075	476053	keystroke_t	t	n/a
238.086	0.0905	476172	keystroke_i	i	n/a
238.191	0.091	476382	keystroke_t	t	n/a
238.2965	0.0755	476593	keystroke_t	t	n/a
238.4465	0.1045	476893	keystroke_e	e	n/a
238.567	0.089	477134	keystroke_n	n	n/a
238.7765	0.075	477553	keystroke_Key.space	Key.space	n/a
239.1515	0.06	478303	keystroke_s	s	n/a
239.1965	0.09	478393	keystroke_h	h	n/a
239.2715	0.12	478543	keystroke_a	a	n/a
239.362	0.0895	478724	keystroke_d	d	n/a
239.5115	0.12	479023	keystroke_e	e	n/a
240.561	0.045	481122	keystroke_Key.space	Key.space	n/a
240.711	0.15	481422	keystroke_m	m	n/a
240.8165	0.075	481633	keystroke_e	e	n/a
240.8765	0.0595	481753	keystroke_r	r	n/a
241.131	0.03	482262	keystroke_g	g	n/a
241.1465	0.0895	482293	keystroke_e	e	n/a
242.2855	0.0755	484571	keystroke_Key.enter	Key.enter	n/a
242.367	6.551	484734	prompt	n/a	billion alpine maine province\n
243.5465	0.1205	487093	keystroke_b	b	n/a
243.621	0.06	487242	keystroke_i	i	n/a
243.801	0.076	487602	keystroke_l	l	n/a
243.936	0.03	487872	keystroke_l	l	n/a
244.0865	0.1055	488173	keystroke_i	i	n/a
244.2515	0.1345	488503	keystroke_o	o	n/a
244.387	0.105	488774	keystroke_n	n	n/a
244.6565	0.105	489313	keystroke_Key.space	Key.space	n/a
244.9415	0.074	489883	keystroke_a	a	n/a
245.1365	0.09	490273	keystroke_l	l	n/a
245.5565	0.075	491113	keystroke_p	p	n/a
245.7065	0.075	491413	keystroke_i	i	n/a
245.902	0.0745	491804	keystroke_n	n	n/a
245.991	0.0755	491982	keystroke_e	e	n/a
246.276	0.0595	492552	keystroke_Key.space	Key.space	n/a
246.4565	0.0905	492913	keystroke_m	m	n/a
246.5315	0.104	493063	keystroke_a	a	n/a
246.6205	0.12	493241	keystroke_i	i	n/a
246.7105	0.106	493421	keystroke_n	n	n/a
246.7855	0.091	493571	keystroke_e	e	n/a
246.966	0.09	493932	keystroke_Key.space	Key.space	n/a
247.282	0.0745	494564	keystroke_p	p	n/a
247.401	0.0905	494802	keystroke_r	r	n/a
247.4765	0.09	494953	keystroke_o	o	n/a
247.612	0.1045	495224	keystroke_v	v	n/a
247.7315	0.104	495463	keystroke_i	i	n/a
247.8065	0.104	495613	keystroke_n	n	n/a
248.0605	0.0915	496121	keystroke_c	c	n/a
248.1215	0.089	496243	keystroke_e	e	n/a
248.8415	0.0745	497683	keystroke_Key.enter	Key.enter	n/a
248.9215	7.4965	497843	prompt	n/a	isle align televisions horizontal\n
249.682	0.1195	499364	keystroke_i	i	n/a
249.786	0.0755	499572	keystroke_s	s	n/a
249.9065	0.105	499813	keystroke_l	l	n/a
250.0265	0.075	500053	keystroke_e	e	n/a
250.4165	0.075	500833	keystroke_Key.space	Key.space	n/a
250.6415	0.09	501283	keystroke_a	a	n/a
250.7315	0.075	501463	keystroke_l	l	n/a
250.881	0.09	501762	keystroke_i	i	n/a
251.0465	0.1045	502093	keystroke_g	g	n/a
251.181	0.105	502362	keystroke_n	n	n/a
251.466	0.075	502932	keystroke_Key.space	Key.space	n/a
251.8715	0.0595	503743	keystroke_t	t	n/a
251.946	0.1055	503892	keystroke_e	e	n/a
252.036	0.09	504072	keystroke_l	l	n/a
252.1415	0.105	504283	keystroke_e	e	n/a
252.6515	0.0595	505303	keystroke_v	v	n/a
252.696	0.0755	505392	keystroke_i	i	n/a
252.8165	0.09	505633	keystroke_s	s	n/a
252.8765	0.1345	505753	keystroke_i	i	n/a
252.9665	0.135	505933	keystroke_o	o	n/a
253.0415	0.1195	506083	keystroke_n	n	n/a
253.116	0.09	506232	keystroke_s	s	n/a
253.686	0.0755	507372	keystroke_Key.space	Key.space	n/a
253.9265	0.0755	507853	keystroke_h	h	n/a
254.0915	0.0895	508183	keystroke_o	o	n/a
254.197	0.059	508394	keystroke_r	r	n/a
254.286	0.0905	508572	keystroke_i	i	n/a
254.511	0.105	509022	keystroke_x	x	n/a
255.126	0.075	510252	keystroke_Key.backspace	Key.backspace	n/a
255.186	0.075	510372	keystroke_z	z	n/a
255.5015	0.105	511003	keystroke_o	o	n/a
255.5765	0.12	511153	keystroke_n	n	n/a
255.771	0.09	511542	keystroke_t	t	n/a
256.0115	0.105	512023	keystroke_a	a	n/a
256.131	0.0605	512262	keystroke_l	l	n/a
256.341	0.0755	512682	keystroke_Key.enter	Key.enter	n/a
256.4225	5.875	512845	prompt	n/a	vendors width roll supervisor\n
257.2565	0.09	514513	keystroke_v	v	n/a
257.6165	0.09	515233	keystroke_e	e	n/a
257.7815	0.075	515563	keystroke_n	n	n/a
257.9315	0.0895	515863	keystroke_d	d	n/a
258.0515	0.1045	516103	keystroke_o	o	n/a
258.1265	0.09	516253	keystroke_r	r	n/a
258.2765	0.1195	516553	keystroke_s	s	n/a
258.456	0.09	516912	keystroke_Key.space	Key.space	n/a
258.6515	0.1045	517303	keystroke_w	w	n/a
258.7715	0.0895	517543	keystroke_i	i	n/a
258.8765	0.09	517753	keystroke_d	d	n/a
259.0865	0.09	518173	keystroke_t	t	n/a
259.1765	0.09	518353	keystroke_h	h	n/a
259.3865	0.105	518773	keystroke_Key.space	Key.space	n/a
259.521	0.09	519042	keystroke_r	r	n/a
259.6265	0.0905	519253	keystroke_o	o	n/a
259.792	0.059	519584	keystroke_l	l	n/a
259.911	0.075	519822	keystroke_l	l	n/a
260.121	0.0905	520242	keystroke_Key.space	Key.space	n/a
260.331	0.1055	520662	keystroke_s	s	n/a
260.4205	0.106	520841	keystroke_u	u	n/a
260.737	0.0895	521474	keystroke_p	p	n/a
260.9765	0.12	521953	keystroke_e	e	n/a
261.0665	0.105	522133	keystroke_r	r	n/a
261.6665	0.0745	523333	keystroke_v	v	n/a
261.7105	0.091	523421	keystroke_i	i	n/a
261.8155	0.1065	523631	keystroke_s	s	n/a
261.9365	0.104	523873	keystroke_o	o	n/a
262.0565	0.075	524113	keystroke_r	r	n/a
262.2065	0.089	524413	keystroke_Key.enter	Key.enter	n/a
262.3035	7.015	524607	prompt	n/a	wanted establish suspension towards\n
262.957	0.104	525914	keystroke_w	w	n/a
263.1215	0.135	526243	keystroke_a	a	n/a
263.3015	0.105	526603	keystroke_n	n	n/a
263.3605	0.121	526721	keystroke_t	t	n/a
263.4355	0.106	526871	keystroke_e	e	n/a
263.5865	0.105	527173	keystroke_d	d	n/a
263.7365	0.09	527473	keystroke_Key.space	Key.space	n/a
264.0215	0.09	528043	keystroke_e	e	n/a
264.2015	0.105	528403	keystroke_s	s	n/a
264.4265	0.075	528853	keystroke_t	t	n/a
264.5765	0.105	529153	keystroke_a	a	n/a
264.786	0.076	529572	keystroke_b	b	n/a
264.967	0.044	529934	keystroke_l	l	n/a
265.116	0.091	530232	keystroke_i	i	n/a
265.192	0.074	530384	keystroke_s	s	n/a
265.297	0.1045	530594	keystroke_h	h	n/a
265.957	0.074	531914	keystroke_Key.space	Key.space	n/a
266.4965	0.105	532993	keystroke_s	s	n/a
266.586	0.105	533172	keystroke_u	u	n/a
266.692	0.06	533384	keystroke_s	s	n/a
266.841	0.0895	533682	keystroke_p	p	n/a
266.917	0.0595	533834	keystroke_e	e	n/a
267.0665	0.0905	534133	keystroke_n	n	n/a
267.2605	0.0915	534521	keystroke_s	s	n/a
267.3215	0.1645	534643	keystroke_i	i	n/a
267.3965	0.1195	534793	keystroke_o	o	n/a
267.4565	0.1195	534913	keystroke_n	n	n/a
268.221	0.0755	536442	keystroke_Key.space	Key.space	n/a
268.416	0.076	536832	keystroke_t	t	n/a
268.506	0.076	537012	keystroke_o	o	n/a
268.6265	0.09	537253	keystroke_w	w	n/a
268.7905	0.09	537581	keystroke_a	a	n/a
268.9405	0.091	537881	keystroke_r	r	n/a
269.0765	0.12	538153	keystroke_d	d	n/a
269.1515	0.105	538303	keystroke_s	s	n/a
269.2265	0.09	538453	keystroke_Key.enter	Key.enter	n/a
269.323	10.0455	538646	prompt	n/a	archive tracked utils deviation\n
270.0365	0.12	540073	keystroke_a	a	n/a
270.2755	0.076	540551	keystroke_r	r	n/a
270.456	0.105	540912	keystroke_c	c	n/a
270.562	0.045	541124	keystroke_h	h	n/a
270.697	0.0895	541394	keystroke_i	i	n/a
270.7715	0.105	541543	keystroke_v	v	n/a
270.8915	0.105	541783	keystroke_e	e	n/a
271.026	0.1055	542052	keystroke_Key.space	Key.space	n/a
271.2515	0.105	542503	keystroke_t	t	n/a
271.3265	0.075	542653	keystroke_r	r	n/a
271.492	0.1345	542984	keystroke_a	a	n/a
271.6265	0.135	543253	keystroke_c	c	n/a
271.7765	0.1195	543553	keystroke_e	e	n/a
271.7915	0.075	543583	keystroke_k	k	n/a
271.942	0.119	543884	keystroke_d	d	n/a
272.361	0.0755	544722	keystroke_Key.backspace	Key.backspace	n/a
272.4965	0.075	544993	keystroke_Key.backspace	Key.backspace	n/a
273.516	0.0305	547032	keystroke_Key.backspace	Key.backspace	n/a
274.8815	0.075	549763	keystroke_k	k	n/a
274.972	0.0745	549944	keystroke_e	e	n/a
275.1215	0.09	550243	keystroke_d	d	n/a
276.0065	0.075	552013	keystroke_Key.space	Key.space	n/a
276.4565	0.0905	552913	keystroke_u	u	n/a
276.5475	0.089	553095	keystroke_t	t	n/a
276.6515	0.075	553303	keystroke_i	i	n/a
276.8315	0.0905	553663	keystroke_l	l	n/a
277.1765	0.075	554353	keystroke_s	s	n/a
277.4165	0.0595	554833	keystroke_Key.space	Key.space	n/a
277.5965	0.0895	555193	keystroke_d	d	n/a
277.7465	0.075	555493	keystroke_e	e	n/a
277.881	0.075	555762	keystroke_v	v	n/a
278.001	0.09	556002	keystroke_i	i	n/a
278.1215	0.1045	556243	keystroke_a	a	n/a
278.331	0.076	556662	keystroke_t	t	n/a
278.4215	0.1795	556843	keystroke_i	i	n/a
278.4965	0.15	556993	keystroke_o	o	n/a
278.586	0.1355	557172	keystroke_n	n	n/a
279.2615	0.105	558523	keystroke_Key.enter	Key.enter	n/a
279.3725	6.131	558745	prompt	n/a	customize mailed growing sailing\n
280.3115	0.1045	560623	keystroke_c	c	n/a
280.401	0.06	560802	keystroke_u	u	n/a
280.476	0.0905	560952	keystroke_s	s	n/a
280.656	0.0905	561312	keystroke_t	t	n/a
280.7155	0.121	561431	keystroke_o	o	n/a
280.7915	0.075	561583	keystroke_m	m	n/a
280.9115	0.105	561823	keystroke_i	i	n/a
281.1065	0.12	562213	keystroke_z	z	n/a
281.3615	0.09	562723	keystroke_e	e	n/a
281.5115	0.06	563023	keystroke_Key.space	Key.space	n/a
281.6765	0.09	563353	keystroke_m	m	n/a
281.7815	0.09	563563	keystroke_a	a	n/a
281.8565	0.09	563713	keystroke_i	i	n/a
282.0365	0.105	564073	keystroke_l	l	n/a
282.1115	0.09	564223	keystroke_e	e	n/a
282.2465	0.12	564493	keystroke_d	d	n/a
282.3815	0.075	564763	keystroke_Key.space	Key.space	n/a
283.056	0.0905	566112	keystroke_g	g	n/a
283.1165	0.0895	566233	keystroke_r	r	n/a
283.236	0.1055	566472	keystroke_o	o	n/a
283.326	0.09	566652	keystroke_w	w	n/a
283.4615	0.1195	566923	keystroke_i	i	n/a
283.5965	0.1345	567193	keystroke_n	n	n/a
283.776	0.075	567552	keystroke_g	g	n/a
284.271	0.06	568542	keystroke_Key.space	Key.space	n/a
284.451	0.09	568902	keystroke_s	s	n/a
284.601	0.1205	569202	keystroke_a	a	n/a
284.706	0.075	569412	keystroke_i	i	n/a
284.901	0.0755	569802	keystroke_l	l	n/a
285.0665	0.12	570133	keystroke_i	i	n/a
285.1415	0.105	570283	keystroke_n	n	n/a
285.2165	0.0895	570433	keystroke_g	g	n/a
285.396	0.105	570792	keystroke_Key.enter	Key.enter	n/a
285.5075	4.9005	571015	prompt	n/a	touch added wave angel\n
286.2365	0.0895	572473	keystroke_t	t	n/a
286.311	0.135	572622	keystroke_o	o	n/a
286.4165	0.0895	572833	keystroke_u	u	n/a
286.551	0.09	573102	keystroke_c	c	n/a
286.6115	0.0895	573223	keystroke_h	h	n/a
286.8515	0.09	573703	keystroke_Key.space	Key.space	n/a
287.1515	0.075	574303	keystroke_a	a	n/a
287.2865	0.09	574573	keystroke_d	d	n/a
287.4365	0.075	574873	keystroke_d	d	n/a
287.601	0.0605	575202	keystroke_e	e	n/a
287.721	0.121	575442	keystroke_d	d	n/a
287.901	0.0905	575802	keystroke_Key.space	Key.space	n/a
288.1115	0.1195	576223	keystroke_w	w	n/a
288.247	0.104	576494	keystroke_a	a	n/a
288.456	0.09	576912	keystroke_v	v	n/a
288.5165	0.1205	577033	keystroke_e	e	n/a
288.6665	0.0895	577333	keystroke_Key.space	Key.space	n/a
288.8915	0.0745	577783	keystroke_a	a	n/a
289.026	0.0905	578052	keystroke_n	n	n/a
289.716	0.06	579432	keystroke_g	g	n/a
289.851	0.105	579702	keystroke_e	e	n/a
289.971	0.06	579942	keystroke_l	l	n/a
290.3165	0.09	580633	keystroke_Key.enter	Key.enter	n/a
290.4115	12.312	580823	prompt	n/a	clerk certification charter synthesis\n
291.2015	0.014	582403	keystroke_c	c	n/a
291.8615	0.0895	583723	keystroke_l	l	n/a
291.9965	0.105	583993	keystroke_e	e	n/a
292.0715	0.104	584143	keystroke_r	r	n/a
292.2065	0.074	584413	keystroke_k	k	n/a
292.536	0.0755	585072	keystroke_Key.space	Key.space	n/a
292.8365	0.09	585673	keystroke_c	c	n/a
292.9865	0.12	585973	keystroke_e	e	n/a
293.0615	0.09	586123	keystroke_r	r	n/a
293.1965	0.075	586393	keystroke_i	i	n/a
293.3615	0.06	586723	keystroke_f	f	n/a
293.4065	0.09	586813	keystroke_i	i	n/a
295.658	0.0135	591316	keystroke_c	c	n/a
295.7465	0.09	591493	keystroke_a	a	n/a
295.9565	0.075	591913	keystroke_t	t	n/a
295.9865	0.18	591973	keystroke_i	i	n/a
296.0615	0.12	592123	keystroke_o	o	n/a
296.1215	0.1195	592243	keystroke_n	n	n/a
296.406	0.0905	592812	keystroke_Key.space	Key.space	n/a
296.5115	0.0895	593023	keystroke_c	c	n/a
296.601	0.105	593202	keystroke_h	h	n/a
296.691	0.12	593382	keystroke_a	a	n/a
296.7965	0.075	593593	keystroke_r	r	n/a
296.9465	0.1045	593893	keystroke_t	t	n/a
297.081	0.1055	594162	keystroke_e	e	n/a
297.1565	0.09	594313	keystroke_r	r	n/a
297.2915	0.0895	594583	keystroke_Key.space	Key.space	n/a
297.426	0.1205	594852	keystroke_s	s	n/a
297.7415	0.0895	595483	keystroke_y	y	n/a
297.8465	0.0595	595693	keystroke_n	n	n/a
298.026	0.0905	596052	keystroke_t	t	n/a
298.101	0.105	596202	keystroke_h	h	n/a
298.1915	0.09	596383	keystroke_e	e	n/a
298.611	0.09	597222	keystroke_s	s	n/a
298.7165	0.075	597433	keystroke_i	i	n/a
298.7915	0.075	597583	keystroke_s	s	n/a
301.373	0.0435	602746	keystroke_\	\	n/a
302.361	0.0605	604722	keystroke_Key.backspace	Key.backspace	n/a
302.616	0.1055	605232	keystroke_Key.enter	Key.enter	n/a
302.728	7.7205	605456	prompt	n/a	gays iowa hand organizational\n
303.606	0.105	607212	keystroke_g	g	n/a
303.756	0.12	607512	keystroke_a	a	n/a
303.861	0.1055	607722	keystroke_y	y	n/a
304.011	0.09	608022	keystroke_s	s	n/a
304.161	0.09	608322	keystroke_Key.space	Key.space	n/a
304.6865	0.0895	609373	keystroke_i	i	n/a
304.806	0.0905	609612	keystroke_o	o	n/a
304.9715	0.075	609943	keystroke_w	w	n/a
305.1515	0.075	610303	keystroke_s	s	n/a
305.5565	0.075	611113	keystroke_Key.backspace	Key.backspace	n/a
305.5865	0.09	611173	keystroke_a	a	n/a
306.2315	0.075	612463	keystroke_Key.space	Key.space	n/a
306.426	0.075	612852	keystroke_h	h	n/a
306.4865	0.0895	612973	keystroke_a	a	n/a
306.606	0.0905	613212	keystroke_n	n	n/a
306.801	0.105	613602	keystroke_d	d	n/a
307.0565	0.0445	614113	keystroke_s	s	n/a
307.4015	0.09	614803	keystroke_Key.backspace	Key.backspace	n/a
307.8215	0.075	615643	keystroke_Key.space	Key.space	n/a
308.0915	0.09	616183	keystroke_o	o	n/a
308.196	0.06	616392	keystroke_r	r	n/a
308.346	0.0905	616692	keystroke_g	g	n/a
308.4965	0.105	616993	keystroke_a	a	n/a
308.5865	0.09	617173	keystroke_n	n	n/a
308.7515	0.075	617503	keystroke_i	i	n/a
308.8865	0.0895	617773	keystroke_z	z	n/a
309.052	0.089	618104	keystroke_a	a	n/a
309.2465	0.1045	618493	keystroke_t	t	n/a
309.2915	0.1645	618583	keystroke_i	i	n/a
309.396	0.1205	618792	keystroke_o	o	n/a
309.4415	0.105	618883	keystroke_n	n	n/a
309.5915	0.0895	619183	keystroke_a	a	n/a
309.741	0.105	619482	keystroke_l	l	n/a
310.371	0.075	620742	keystroke_Key.enter	Key.enter	n/a
310.462	10.021	620924	prompt	n/a	birmingham user climbing noise\n
311.332	0.0895	622664	keystroke_b	b	n/a
311.4515	0.09	622903	keystroke_i	i	n/a
311.5265	0.075	623053	keystroke_r	r	n/a
311.6465	0.12	623293	keystroke_m	m	n/a
311.8265	0.12	623653	keystroke_i	i	n/a
311.9165	0.12	623833	keystroke_n	n	n/a
312.0215	0.075	624043	keystroke_g	g	n/a
312.2765	0.0905	624553	keystroke_h	h	n/a
312.367	0.0895	624734	keystroke_a	a	n/a
312.5315	0.09	625063	keystroke_m	m	n/a
313.251	0.06	626502	keystroke_Key.space	Key.space	n/a
313.476	0.0605	626952	keystroke_u	u	n/a
313.537	0.089	627074	keystroke_s	s	n/a
313.7465	0.1045	627493	keystroke_e	e	n/a
313.821	0.075	627642	keystroke_r	r	n/a
314.3615	0.09	628723	keystroke_Key.space	Key.space	n/a
314.5715	0.075	629143	keystroke_c	c	n/a
314.7215	0.089	629443	keystroke_l	l	n/a
315.366	0.0755	630732	keystroke_i	i	n/a
315.786	0.076	631572	keystroke_n	n	n/a
316.102	0.0595	632204	keystroke_b	b	n/a
316.192	0.119	632384	keystroke_i	i	n/a
316.267	0.1045	632534	keystroke_n	n	n/a
316.5365	0.0455	633073	keystroke_g	g	n/a
317.0165	0.06	634033	keystroke_Key.backspace	Key.backspace	n/a
317.1515	0.075	634303	keystroke_Key.backspace	Key.backspace	n/a
317.3015	0.075	634603	keystroke_Key.backspace	Key.backspace	n/a
317.4515	0.06	634903	keystroke_Key.backspace	Key.backspace	n/a
317.5865	0.045	635173	keystroke_Key.backspace	Key.backspace	n/a
318.067	0.0595	636134	keystroke_m	m	n/a
318.9215	0.0895	637843	keystroke_b	b	n/a
318.996	0.105	637992	keystroke_i	i	n/a
319.056	0.105	638112	keystroke_n	n	n/a
319.131	0.075	638262	keystroke_g	g	n/a
319.536	0.075	639072	keystroke_Key.space	Key.space	n/a
319.7615	0.0745	639523	keystroke_n	n	n/a
319.926	0.135	639852	keystroke_o	o	n/a
320.001	0.105	640002	keystroke_i	i	n/a
320.062	0.089	640124	keystroke_s	s	n/a
320.226	0.09	640452	keystroke_e	e	n/a
320.391	0.09	640782	keystroke_Key.enter	Key.enter	n/a
320.487	6.446	640974	prompt	n/a	side image when's harvey\n
321.187	0.0745	642374	keystroke_s	s	n/a
321.2615	0.09	642523	keystroke_i	i	n/a
321.366	0.0755	642732	keystroke_d	d	n/a
321.531	0.075	643062	keystroke_e	e	n/a
321.666	0.0905	643332	keystroke_Key.space	Key.space	n/a
321.906	0.075	643812	keystroke_i	i	n/a
322.2515	0.09	644503	keystroke_m	m	n/a
322.3865	0.09	644773	keystroke_a	a	n/a
322.567	0.119	645134	keystroke_g	g	n/a
322.6415	0.12	645283	keystroke_e	e	n/a
322.851	0.09	645702	keystroke_Key.space	Key.space	n/a
323.211	0.091	646422	keystroke_w	w	n/a
323.2865	0.0905	646573	keystroke_h	h	n/a
323.391	0.0755	646782	keystroke_e	e	n/a
323.481	0.091	646962	keystroke_n	n	n/a
323.811	0.06	647622	keystroke_'	'	n/a
323.902	0.09	647804	keystroke_s	s	n/a
324.456	0.0295	648912	keystroke_Key.space	Key.space	n/a
325.176	0.09	650352	keystroke_h	h	n/a
325.281	0.09	650562	keystroke_a	a	n/a
325.431	0.076	650862	keystroke_r	r	n/a
326.1665	0.0895	652333	keystroke_v	v	n/a
326.3315	0.0895	652663	keystroke_e	e	n/a
326.5865	0.0895	653173	keystroke_y	y	n/a
326.8415	0.0895	653683	keystroke_Key.enter	Key.enter	n/a
326.9375	6.656	653875	prompt	n/a	governing void sending entrepreneur\n
327.787	0.105	655574	keystroke_g	g	n/a
327.8765	0.09	655753	keystroke_o	o	n/a
327.9515	0.105	655903	keystroke_v	v	n/a
328.117	0.1195	656234	keystroke_e	e	n/a
328.1915	0.09	656383	keystroke_r	r	n/a
328.2965	0.075	656593	keystroke_n	n	n/a
328.5215	0.105	657043	keystroke_i	i	n/a
328.5815	0.12	657163	keystroke_n	n	n/a
328.6715	0.09	657343	keystroke_g	g	n/a
328.9565	0.09	657913	keystroke_Key.space	Key.space	n/a
329.3465	0.09	658693	keystroke_v	v	n/a
329.4215	0.12	658843	keystroke_o	o	n/a
329.4965	0.105	658993	keystroke_i	i	n/a
329.617	0.0895	659234	keystroke_d	d	n/a
329.9015	0.075	659803	keystroke_Key.space	Key.space	n/a
330.0815	0.0595	660163	keystroke_s	s	n/a
330.2465	0.0745	660493	keystroke_e	e	n/a
330.306	0.0905	660612	keystroke_n	n	n/a
330.4415	0.1045	660883	keystroke_d	d	n/a
330.531	0.1355	661062	keystroke_i	i	n/a
330.621	0.121	661242	keystroke_n	n	n/a
330.756	0.0605	661512	keystroke_g	g	n/a
331.0565	0.0895	662113	keystroke_Key.space	Key.space	n/a
331.311	0.09	662622	keystroke_e	e	n/a
331.416	0.076	662832	keystroke_n	n	n/a
331.566	0.121	663132	keystroke_t	t	n/a
331.672	0.0895	663344	keystroke_r	r	n/a
332.077	0.075	664154	keystroke_p	p	n/a
332.212	0.09	664424	keystroke_r	r	n/a
332.271	0.106	664542	keystroke_e	e	n/a
332.392	0.105	664784	keystroke_n	n	n/a
332.8265	0.075	665653	keystroke_e	e	n/a
332.9165	0.1045	665833	keystroke_u	u	n/a
333.051	0.091	666102	keystroke_r	r	n/a
333.5315	0.0595	667063	keystroke_Key.enter	Key.enter	n/a
333.597	9.686	667194	prompt	n/a	needed acrylic hockey tuner\n
334.537	0.074	669074	keystroke_n	n	n/a
334.581	0.061	669162	keystroke_e	e	n/a
334.716	0.0905	669432	keystroke_e	e	n/a
334.8815	0.059	669763	keystroke_d	d	n/a
335.017	0.0895	670034	keystroke_e	e	n/a
335.182	0.0745	670364	keystroke_d	d	n/a
335.2715	0.0755	670543	keystroke_Key.space	Key.space	n/a
335.9165	0.09	671833	keystroke_a	a	n/a
336.0665	0.105	672133	keystroke_c	c	n/a
336.2765	0.075	672553	keystroke_r	r	n/a
336.4715	0.09	672943	keystroke_y	y	n/a
336.8165	0.06	673633	keystroke_l	l	n/a
336.981	0.091	673962	keystroke_i	i	n/a
337.027	0.0895	674054	keystroke_c	c	n/a
337.581	0.075	675162	keystroke_Key.space	Key.space	n/a
337.882	0.089	675764	keystroke_h	h	n/a
338.047	0.105	676094	keystroke_o	o	n/a
338.1365	0.1055	676273	keystroke_c	c	n/a
338.227	0.1345	676454	keystroke_k	k	n/a
338.406	0.0905	676812	keystroke_y	y	n/a
338.5565	0.075	677113	keystroke_Key.space	Key.space	n/a
340.928	0.013	681856	keystroke_Key.backspace	Key.backspace	n/a
341.031	0.075	682062	keystroke_Key.backspace	Key.backspace	n/a
341.526	0.0905	683052	keystroke_e	e	n/a
341.737	0.075	683474	keystroke_y	y	n/a
341.961	0.075	683922	keystroke_Key.space	Key.space	n/a
342.756	0.0905	685512	keystroke_t	t	n/a
342.802	0.1495	685604	keystroke_u	u	n/a
342.8915	0.09	685783	keystroke_n	n	n/a
342.9825	0.089	685965	keystroke_e	e	n/a
343.042	0.0895	686084	keystroke_r	r	n/a
343.1915	0.09	686383	keystroke_Key.enter	Key.enter	n/a
343.2895	5.2435	686579	prompt	n/a	decrease booty quick emma\n
344.107	0.075	688214	keystroke_d	d	n/a
344.2265	0.105	688453	keystroke_e	e	n/a
344.3915	0.105	688783	keystroke_c	c	n/a
344.6165	0.09	689233	keystroke_r	r	n/a
344.6615	0.1055	689323	keystroke_e	e	n/a
344.887	0.165	689774	keystroke_a	a	n/a
345.0365	0.09	690073	keystroke_s	s	n/a
345.2315	0.09	690463	keystroke_e	e	n/a
345.426	0.1055	690852	keystroke_Key.space	Key.space	n/a
345.6965	0.075	691393	keystroke_b	b	n/a
345.832	0.075	691664	keystroke_o	o	n/a
345.9665	0.075	691933	keystroke_o	o	n/a
346.0565	0.0605	692113	keystroke_t	t	n/a
346.1915	0.09	692383	keystroke_y	y	n/a
346.402	0.0595	692804	keystroke_Key.space	Key.space	n/a
346.807	0.0895	693614	keystroke_q	q	n/a
346.8815	0.135	693763	keystroke_u	u	n/a
346.9565	0.12	693913	keystroke_i	i	n/a
347.0765	0.09	694153	keystroke_c	c	n/a
347.1965	0.09	694393	keystroke_k	k	n/a
347.392	0.09	694784	keystroke_Key.space	Key.space	n/a
347.5865	0.09	695173	keystroke_e	e	n/a
347.6915	0.06	695383	keystroke_m	m	n/a
347.7965	0.0905	695593	keystroke_m	m	n/a
348.051	0.0905	696102	keystroke_a	a	n/a
348.4415	0.0895	696883	keystroke_Key.enter	Key.enter	n/a
348.5375	5.756	697075	prompt	n/a	home ground final mostly\n
349.3115	0.1055	698623	keystroke_h	h	n/a
349.4915	0.15	698983	keystroke_o	o	n/a
349.5815	0.105	699163	keystroke_m	m	n/a
349.6565	0.075	699313	keystroke_e	e	n/a
349.7765	0.105	699553	keystroke_Key.space	Key.space	n/a
350.0315	0.1055	700063	keystroke_g	g	n/a
350.092	0.0895	700184	keystroke_r	r	n/a
350.1215	0.12	700243	keystroke_o	o	n/a
350.2115	0.09	700423	keystroke_u	u	n/a
350.4215	0.0905	700843	keystroke_n	n	n/a
350.4965	0.09	700993	keystroke_d	d	n/a
350.6015	0.09	701203	keystroke_Key.space	Key.space	n/a
351.1565	0.09	702313	keystroke_f	f	n/a
351.2165	0.12	702433	keystroke_i	i	n/a
351.2915	0.09	702583	keystroke_n	n	n/a
351.3965	0.06	702793	keystroke_a	a	n/a
351.5015	0.105	703003	keystroke_l	l	n/a
351.8315	0.075	703663	keystroke_Key.space	Key.space	n/a
352.3415	0.09	704683	keystroke_m	m	n/a
352.4915	0.09	704983	keystroke_o	o	n/a
352.6115	0.075	705223	keystroke_s	s	n/a
352.7915	0.075	705583	keystroke_t	t	n/a
352.9265	0.09	705853	keystroke_y	y	n/a
352.9565	0.09	705913	keystroke_l	l	n/a
353.6165	0.0595	707233	keystroke_Key.backspace	Key.backspace	n/a
353.7065	0.0895	707413	keystroke_Key.backspace	Key.backspace	n/a
353.946	0.105	707892	keystroke_l	l	n/a
353.977	0.059	707954	keystroke_y	y	n/a
354.2015	0.0895	708403	keystroke_Key.enter	Key.enter	n/a
354.298	9.715	708596	prompt	n/a	publisher gloves crawford postal\n
355.1015	0.075	710203	keystroke_p	p	n/a
355.3115	0.105	710623	keystroke_u	u	n/a
355.4615	0.105	710923	keystroke_b	b	n/a
355.5515	0.075	711103	keystroke_l	l	n/a
355.7165	0.075	711433	keystroke_i	i	n/a
355.792	0.089	711584	keystroke_s	s	n/a
355.867	0.09	711734	keystroke_h	h	n/a
355.972	0.075	711944	keystroke_e	e	n/a
356.122	0.1045	712244	keystroke_d	d	n/a
356.6165	0.075	713233	keystroke_Key.backspace	Key.backspace	n/a
356.6315	0.0755	713263	keystroke_r	r	n/a
357.2915	0.06	714583	keystroke_Key.space	Key.space	n/a
357.5465	0.09	715093	keystroke_g	g	n/a
357.6065	0.06	715213	keystroke_l	l	n/a
357.727	0.1045	715454	keystroke_v	v	n/a
357.7565	0.09	715513	keystroke_o	o	n/a
357.8615	0.09	715723	keystroke_e	e	n/a
358.0415	0.09	716083	keystroke_s	s	n/a
358.1615	0.0745	716323	keystroke_Key.space	Key.space	n/a
358.671	0.0605	717342	keystroke_Key.backspace	Key.backspace	n/a
358.821	0.0605	717642	keystroke_Key.backspace	Key.backspace	n/a
358.9565	0.06	717913	keystroke_Key.backspace	Key.backspace	n/a
359.1065	0.06	718213	keystroke_Key.backspace	Key.backspace	n/a
359.2265	0.075	718453	keystroke_Key.backspace	Key.backspace	n/a
359.737	0.0595	719474	keystroke_o	o	n/a
359.7815	0.1205	719563	keystroke_v	v	n/a
359.977	0.0745	719954	keystroke_e	e	n/a
360.1415	0.075	720283	keystroke_s	s	n/a
360.2615	0.0755	720523	keystroke_Key.space	Key.space	n/a
361.0115	0.105	722023	keystroke_c	c	n/a
361.207	0.0895	722414	keystroke_r	r	n/a
361.3565	0.09	722713	keystroke_w	w	n/a
361.4765	0.12	722953	keystroke_a	a	n/a
361.8365	0.0595	723673	keystroke_Key.backspace	Key.backspace	n/a
361.956	0.105	723912	keystroke_Key.backspace	Key.backspace	n/a
362.001	0.0905	724002	keystroke_a	a	n/a
362.031	0.091	724062	keystroke_w	w	n/a
362.572	0.06	725144	keystroke_f	f	n/a
362.6465	0.075	725293	keystroke_o	o	n/a
362.707	0.075	725414	keystroke_r	r	n/a
362.8415	0.105	725683	keystroke_d	d	n/a
362.9615	0.0755	725923	keystroke_Key.space	Key.space	n/a
363.187	0.15	726374	keystroke_p	p	n/a
363.307	0.09	726614	keystroke_o	o	n/a
363.352	0.12	726704	keystroke_s	s	n/a
363.547	0.104	727094	keystroke_t	t	n/a
363.697	0.12	727394	keystroke_a	a	n/a
363.801	0.061	727602	keystroke_l	l	n/a
363.8915	0.1195	727783	keystroke_Key.enter	Key.enter	n/a
364.018	8.29	728036	prompt	n/a	customized imported repeated buffer\n
365.0765	0.09	730153	keystroke_c	c	n/a
365.1815	0.075	730363	keystroke_u	u	n/a
365.2415	0.075	730483	keystroke_s	s	n/a
365.407	0.0895	730814	keystroke_t	t	n/a
365.4515	0.1355	730903	keystroke_o	o	n/a
365.557	0.075	731114	keystroke_m	m	n/a
365.6915	0.105	731383	keystroke_i	i	n/a
365.7665	0.0905	731533	keystroke_s	s	n/a
366.1715	0.09	732343	keystroke_Key.backspace	Key.backspace	n/a
366.2015	0.105	732403	keystroke_z	z	n/a
366.4115	0.075	732823	keystroke_e	e	n/a
366.5465	0.0905	733093	keystroke_d	d	n/a
366.8765	0.075	733753	keystroke_Key.space	Key.space	n/a
367.0715	0.105	734143	keystroke_i	i	n/a
367.1315	0.105	734263	keystroke_m	m	n/a
367.3115	0.105	734623	keystroke_p	p	n/a
367.3715	0.105	734743	keystroke_o	o	n/a
367.4465	0.075	734893	keystroke_r	r	n/a
367.5815	0.105	735163	keystroke_t	t	n/a
367.6715	0.135	735343	keystroke_e	e	n/a
367.8515	0.06	735703	keystroke_e	e	n/a
367.8665	0.09	735733	keystroke_d	d	n/a
367.9865	0.06	735973	keystroke_Key.space	Key.space	n/a
368.5565	0.044	737113	keystroke_Key.backspace	Key.backspace	n/a
368.6765	0.06	737353	keystroke_Key.backspace	Key.backspace	n/a
368.8265	0.06	737653	keystroke_Key.backspace	Key.backspace	n/a
369.036	0.06	738072	keystroke_d	d	n/a
369.621	0.075	739242	keystroke_Key.space	Key.space	n/a
369.8915	0.09	739783	keystroke_r	r	n/a
369.936	0.076	739872	keystroke_e	e	n/a
370.072	0.0895	740144	keystroke_p	p	n/a
370.147	0.104	740294	keystroke_e	e	n/a
370.326	0.1355	740652	keystroke_a	a	n/a
370.7165	0.1055	741433	keystroke_t	t	n/a
370.837	0.1045	741674	keystroke_e	e	n/a
370.9715	0.105	741943	keystroke_d	d	n/a
371.3165	0.0595	742633	keystroke_Key.space	Key.space	n/a
371.586	0.076	743172	keystroke_b	b	n/a
371.647	0.075	743294	keystroke_u	u	n/a
371.8115	0.0605	743623	keystroke_f	f	n/a
371.931	0.091	743862	keystroke_f	f	n/a
372.036	0.0905	744072	keystroke_e	e	n/a
372.111	0.075	744222	keystroke_r	r	n/a
372.201	0.1055	744402	keystroke_Key.enter	Key.enter	n/a
372.314	8.259	744628	prompt	n/a	tractor obvious audit electricity\n
373.1465	0.0905	746293	keystroke_t	t	n/a
373.2215	0.06	746443	keystroke_r	r	n/a
373.3715	0.12	746743	keystroke_a	a	n/a
373.507	0.1045	747014	keystroke_c	c	n/a
373.732	0.0745	747464	keystroke_t	t	n/a
373.8215	0.09	747643	keystroke_o	o	n/a
373.8815	0.105	747763	keystroke_r	r	n/a
374.751	0.075	749502	keystroke_Key.space	Key.space	n/a
374.976	0.0905	749952	keystroke_o	o	n/a
375.126	0.061	750252	keystroke_v	v	n/a
376.3115	0.09	752623	keystroke_Key.backspace	Key.backspace	n/a
376.3715	0.075	752743	keystroke_b	b	n/a
376.6865	0.075	753373	keystroke_v	v	n/a
376.747	0.059	753494	keystroke_i	i	n/a
376.8815	0.135	753763	keystroke_o	o	n/a
377.0015	0.075	754003	keystroke_u	u	n/a
377.062	0.0595	754124	keystroke_s	s	n/a
378.1265	0.075	756253	keystroke_Key.space	Key.space	n/a
378.2315	0.09	756463	keystroke_a	a	n/a
378.352	0.0745	756704	keystroke_u	u	n/a
378.4115	0.0905	756823	keystroke_d	d	n/a
378.5315	0.09	757063	keystroke_i	i	n/a
378.637	0.0745	757274	keystroke_t	t	n/a
378.7265	0.1055	757453	keystroke_Key.space	Key.space	n/a
378.8465	0.09	757693	keystroke_e	e	n/a
378.9665	0.075	757933	keystroke_l	l	n/a
379.0265	0.09	758053	keystroke_e	e	n/a
379.1915	0.105	758383	keystroke_c	c	n/a
379.4165	0.09	758833	keystroke_t	t	n/a
379.477	0.1045	758954	keystroke_r	r	n/a
379.5965	0.075	759193	keystroke_i	i	n/a
379.7165	0.105	759433	keystroke_c	c	n/a
379.8065	0.106	759613	keystroke_i	i	n/a
379.987	0.09	759974	keystroke_t	t	n/a
380.1515	0.09	760303	keystroke_y	y	n/a
380.4815	0.09	760963	keystroke_Key.enter	Key.enter	n/a
380.578	6.5955	761156	prompt	n/a	jesse elegant given legally\n
381.4715	0.075	762943	keystroke_j	j	n/a
381.562	0.0595	763124	keystroke_e	e	n/a
381.7415	0.0455	763483	keystroke_s	s	n/a
381.8315	0.0745	763663	keystroke_s	s	n/a
382.012	0.074	764024	keystroke_e	e	n/a
382.2515	0.09	764503	keystroke_Key.space	Key.space	n/a
382.372	0.075	764744	keystroke_e	e	n/a
382.4915	0.0745	764983	keystroke_l	l	n/a
382.552	0.06	765104	keystroke_e	e	n/a
382.6715	0.075	765343	keystroke_e	e	n/a
383.451	0.091	766902	keystroke_Key.backspace	Key.backspace	n/a
383.647	0.075	767294	keystroke_g	g	n/a
383.8265	0.0755	767653	keystroke_a	a	n/a
383.9165	0.0905	767833	keystroke_n	n	n/a
384.0215	0.075	768043	keystroke_t	t	n/a
384.2015	0.075	768403	keystroke_Key.space	Key.space	n/a
384.712	0.045	769424	keystroke_g	g	n/a
384.772	0.104	769544	keystroke_i	i	n/a
384.862	0.089	769724	keystroke_v	v	n/a
384.997	0.089	769994	keystroke_e	e	n/a
385.101	0.091	770202	keystroke_n	n	n/a
386.032	0.09	772064	keystroke_Key.space	Key.space	n/a
386.242	0.1045	772484	keystroke_l	l	n/a
386.287	0.0895	772574	keystroke_e	e	n/a
386.4215	0.09	772843	keystroke_g	g	n/a
386.5865	0.12	773173	keystroke_a	a	n/a
386.7215	0.06	773443	keystroke_l	l	n/a
386.8415	0.0905	773683	keystroke_l	l	n/a
386.9015	0.09	773803	keystroke_y	y	n/a
387.0815	0.09	774163	keystroke_Key.enter	Key.enter	n/a
387.178	7.855	774356	prompt	n/a	lawn catalogs determines forums\n
387.847	0.104	775694	keystroke_l	l	n/a
387.937	0.09	775874	keystroke_a	a	n/a
388.147	0.03	776294	keystroke_w	w	n/a
388.237	0.09	776474	keystroke_w	w	n/a
388.806	0.0605	777612	keystroke_Key.backspace	Key.backspace	n/a
389.032	0.0895	778064	keystroke_n	n	n/a
389.2415	0.0905	778483	keystroke_Key.space	Key.space	n/a
389.4215	0.0905	778843	keystroke_c	c	n/a
389.5565	0.12	779113	keystroke_a	a	n/a
389.737	0.0745	779474	keystroke_t	t	n/a
389.8415	0.105	779683	keystroke_a	a	n/a
390.0065	0.1055	780013	keystroke_l	l	n/a
390.1865	0.1195	780373	keystroke_o	o	n/a
390.726	0.105	781452	keystroke_g	g	n/a
390.937	0.075	781874	keystroke_s	s	n/a
392.122	0.0745	784244	keystroke_Key.space	Key.space	n/a
392.3915	0.09	784783	keystroke_d	d	n/a
392.512	0.1495	785024	keystroke_e	e	n/a
392.6915	0.105	785383	keystroke_t	t	n/a
392.782	0.15	785564	keystroke_e	e	n/a
392.8715	0.105	785743	keystroke_r	r	n/a
393.0365	0.06	786073	keystroke_m	m	n/a
393.1715	0.12	786343	keystroke_i	i	n/a
393.2315	0.135	786463	keystroke_n	n	n/a
393.307	0.075	786614	keystroke_e	e	n/a
393.4565	0.09	786913	keystroke_s	s	n/a
393.7565	0.075	787513	keystroke_Key.space	Key.space	n/a
394.027	0.0595	788054	keystroke_f	f	n/a
394.1015	0.09	788203	keystroke_o	o	n/a
394.1765	0.1055	788353	keystroke_r	r	n/a
394.3115	0.075	788623	keystroke_u	u	n/a
394.462	0.0895	788924	keystroke_m	m	n/a
394.5665	0.0605	789133	keystroke_s	s	n/a
394.956	0.075	789912	keystroke_Key.enter	Key.enter	n/a
395.037	7.8715	790074	prompt	n/a	duck cardiff structures ringtone\n
395.8265	0.0895	791653	keystroke_d	d	n/a
395.931	0.075	791862	keystroke_u	u	n/a
395.991	0.0905	791982	keystroke_c	c	n/a
396.096	0.09	792192	keystroke_k	k	n/a
396.366	0.0605	792732	keystroke_Key.space	Key.space	n/a
396.696	0.091	793392	keystroke_c	c	n/a
396.862	0.1045	793724	keystroke_a	a	n/a
396.9675	0.1045	793935	keystroke_r	r	n/a
397.147	0.0895	794294	keystroke_d	d	n/a
397.2515	0.1055	794503	keystroke_i	i	n/a
397.4465	0.06	794893	keystroke_f	f	n/a
397.5965	0.075	795193	keystroke_f	f	n/a
398.1515	0.09	796303	keystroke_Key.space	Key.space	n/a
398.2565	0.09	796513	keystroke_s	s	n/a
398.512	0.075	797024	keystroke_t	t	n/a
398.572	0.09	797144	keystroke_r	r	n/a
398.647	0.105	797294	keystroke_u	u	n/a
398.767	0.0895	797534	keystroke_c	c	n/a
398.9765	0.09	797953	keystroke_t	t	n/a
399.1715	0.075	798343	keystroke_u	u	n/a
399.3665	0.09	798733	keystroke_r	r	n/a
399.4415	0.0905	798883	keystroke_e	e	n/a
399.652	0.0745	799304	keystroke_s	s	n/a
400.3865	0.075	800773	keystroke_Key.space	Key.space	n/a
400.852	0.074	801704	keystroke_r	r	n/a
400.956	0.121	801912	keystroke_i	i	n/a
401.032	0.09	802064	keystroke_n	n	n/a
401.227	0.1045	802454	keystroke_t	t	n/a
401.7365	0.075	803473	keystroke_Key.backspace	Key.backspace	n/a
401.857	0.1045	803714	keystroke_g	g	n/a
402.052	0.0895	804104	keystroke_t	t	n/a
402.1565	0.135	804313	keystroke_o	o	n/a
402.2465	0.105	804493	keystroke_n	n	n/a
402.637	0.06	805274	keystroke_e	e	n/a
402.802	0.1045	805604	keystroke_Key.enter	Key.enter	n/a
402.912	10.841	805824	prompt	n/a	desire configuration interaction scuba\n
403.507	0.075	807014	keystroke_d	d	n/a
403.657	0.075	807314	keystroke_e	e	n/a
403.807	0.105	807614	keystroke_s	s	n/a
403.957	0.105	807914	keystroke_i	i	n/a
404.046	0.09	808092	keystroke_r	r	n/a
404.107	0.09	808214	keystroke_e	e	n/a
404.332	0.075	808664	keystroke_Key.space	Key.space	n/a
404.767	0.074	809534	keystroke_c	c	n/a
404.8265	0.1055	809653	keystroke_o	o	n/a
404.9015	0.0905	809803	keystroke_n	n	n/a
405.097	0.075	810194	keystroke_f	f	n/a
405.216	0.091	810432	keystroke_i	i	n/a
405.291	0.091	810582	keystroke_g	g	n/a
405.4115	0.1045	810823	keystroke_u	u	n/a
405.637	0.1045	811274	keystroke_r	r	n/a
405.727	0.0745	811454	keystroke_e	e	n/a
406.1765	0.091	812353	keystroke_Key.backspace	Key.backspace	n/a
406.2515	0.075	812503	keystroke_a	a	n/a
406.447	0.0895	812894	keystroke_t	t	n/a
406.5065	0.166	813013	keystroke_i	i	n/a
406.5965	0.1055	813193	keystroke_o	o	n/a
406.657	0.12	813314	keystroke_n	n	n/a
407.1365	0.0755	814273	keystroke_Key.space	Key.space	n/a
407.662	0.15	815324	keystroke_i	i	n/a
407.7365	0.1345	815473	keystroke_n	n	n/a
407.856	0.106	815712	keystroke_t	t	n/a
407.976	0.121	815952	keystroke_e	e	n/a
408.067	0.0895	816134	keystroke_r	r	n/a
408.2315	0.1055	816463	keystroke_a	a	n/a
408.4565	0.12	816913	keystroke_c	c	n/a
408.6815	0.0755	817363	keystroke_t	t	n/a
408.7415	0.181	817483	keystroke_i	i	n/a
408.787	0.12	817574	keystroke_o	o	n/a
408.877	0.119	817754	keystroke_n	n	n/a
409.3565	0.06	818713	keystroke_Key.space	Key.space	n/a
409.567	0.09	819134	keystroke_a	a	n/a
409.912	0.075	819824	keystroke_s	s	n/a
410.092	0.089	820184	keystroke_c	c	n/a
410.197	0.075	820394	keystroke_u	u	n/a
410.287	0.105	820574	keystroke_b	b	n/a
410.467	0.09	820934	keystroke_e	e	n/a
410.902	0.0595	821804	keystroke_Key.backspace	Key.backspace	n/a
411.036	0.075	822072	keystroke_Key.backspace	Key.backspace	n/a
411.171	0.075	822342	keystroke_Key.backspace	Key.backspace	n/a
411.306	0.061	822612	keystroke_Key.backspace	Key.backspace	n/a
411.427	0.075	822854	keystroke_Key.backspace	Key.backspace	n/a
411.576	0.06	823152	keystroke_Key.backspace	Key.backspace	n/a
411.772	0.0745	823544	keystroke_s	s	n/a
411.9965	0.0905	823993	keystroke_c	c	n/a
412.237	0.075	824474	keystroke_u	u	n/a
412.342	0.06	824684	keystroke_b	b	n/a
412.672	0.074	825344	keystroke_e	e	n/a
413.316	0.0905	826632	keystroke_Key.backspace	Key.backspace	n/a
413.347	0.075	826694	keystroke_a	a	n/a
413.6465	0.105	827293	keystroke_Key.enter	Key.enter	n/a
413.757	9.4465	827514	prompt	n/a	cinema griffin determine enquiries\n
414.577	0.0895	829154	keystroke_c	c	n/a
414.6675	0.134	829335	keystroke_i	i	n/a
414.7265	0.105	829453	keystroke_n	n	n/a
414.7865	0.1055	829573	keystroke_e	e	n/a
414.921	0.106	829842	keystroke_m	m	n/a
415.296	0.091	830592	keystroke_a	a	n/a
415.627	0.0745	831254	keystroke_Key.space	Key.space	n/a
415.896	0.1055	831792	keystroke_g	g	n/a
415.971	0.1065	831942	keystroke_r	r	n/a
416.092	0.075	832184	keystroke_i	i	n/a
416.3315	0.06	832663	keystroke_f	f	n/a
416.4665	0.09	832933	keystroke_f	f	n/a
416.572	0.1195	833144	keystroke_i	i	n/a
416.647	0.09	833294	keystroke_n	n	n/a
416.827	0.09	833654	keystroke_Key.space	Key.space	n/a
417.187	0.09	834374	keystroke_d	d	n/a
417.322	0.15	834644	keystroke_e	e	n/a
417.562	0.075	835124	keystroke_t	t	n/a
417.6515	0.12	835303	keystroke_e	e	n/a
417.7415	0.0895	835483	keystroke_r	r	n/a
418.281	0.075	836562	keystroke_m	m	n/a
418.387	0.135	836774	keystroke_i	i	n/a
418.477	0.09	836954	keystroke_n	n	n/a
418.537	0.09	837074	keystroke_e	e	n/a
418.687	0.09	837374	keystroke_Key.space	Key.space	n/a
419.032	0.105	838064	keystroke_e	e	n/a
419.137	0.09	838274	keystroke_n	n	n/a
419.557	0.0905	839114	keystroke_q	q	n/a
419.648	0.089	839296	keystroke_u	u	n/a
419.797	0.104	839594	keystroke_i	i	n/a
419.887	0.105	839774	keystroke_r	r	n/a
419.962	0.075	839924	keystroke_e	e	n/a
421.162	0.075	842324	keystroke_Key.backspace	Key.backspace	n/a
421.417	0.105	842834	keystroke_i	i	n/a
421.537	0.105	843074	keystroke_s	s	n/a
421.987	0.09	843974	keystroke_Key.backspace	Key.backspace	n/a
422.017	0.105	844034	keystroke_e	e	n/a
422.107	0.09	844214	keystroke_s	s	n/a
423.112	0.09	846224	keystroke_Key.enter	Key.enter	n/a
423.208	8.8005	846416	prompt	n/a	minute arizona exploring taxes\n
424.1165	0.075	848233	keystroke_m	m	n/a
424.2515	0.1055	848503	keystroke_i	i	n/a
424.327	0.105	848654	keystroke_n	n	n/a
424.4465	0.12	848893	keystroke_u	u	n/a
424.552	0.075	849104	keystroke_t	t	n/a
424.5965	0.105	849193	keystroke_e	e	n/a
424.7915	0.09	849583	keystroke_Key.space	Key.space	n/a
424.9115	0.09	849823	keystroke_a	a	n/a
425.0765	0.09	850153	keystroke_r	r	n/a
425.182	0.1045	850364	keystroke_i	i	n/a
425.3315	0.12	850663	keystroke_s	s	n/a
425.482	0.0445	850964	keystroke_o	o	n/a
425.7965	0.06	851593	keystroke_Key.backspace	Key.backspace	n/a
426.202	0.0445	852404	keystroke_Key.backspace	Key.backspace	n/a
426.4565	0.0755	852913	keystroke_z	z	n/a
426.5465	0.135	853093	keystroke_o	o	n/a
426.6515	0.0905	853303	keystroke_n	n	n/a
426.847	0.09	853694	keystroke_a	a	n/a
427.2065	0.06	854413	keystroke_Key.space	Key.space	n/a
427.402	0.0745	854804	keystroke_e	e	n/a
427.582	0.0895	855164	keystroke_c	c	n/a
427.657	0.15	855314	keystroke_p	p	n/a
427.7615	0.09	855523	keystroke_l	l	n/a
427.9115	0.1205	855823	keystroke_o	o	n/a
428.0165	0.076	856033	keystroke_r	r	n/a
428.3765	0.06	856753	keystroke_Key.backspace	Key.backspace	n/a
428.5265	0.0595	857053	keystroke_Key.backspace	Key.backspace	n/a
428.6465	0.0745	857293	keystroke_Key.backspace	Key.backspace	n/a
428.782	0.09	857564	keystroke_Key.backspace	Key.backspace	n/a
428.992	0.075	857984	keystroke_Key.backspace	Key.backspace	n/a
429.156	0.076	858312	keystroke_x	x	n/a
429.4115	0.1345	858823	keystroke_p	p	n/a
429.501	0.091	859002	keystroke_l	l	n/a
429.652	0.1195	859304	keystroke_o	o	n/a
429.741	0.105	859482	keystroke_r	r	n/a
429.892	0.149	859784	keystroke_i	i	n/a
429.982	0.1195	859964	keystroke_n	n	n/a
430.071	0.0905	860142	keystroke_g	g	n/a
430.221	0.0905	860442	keystroke_Key.space	Key.space	n/a
430.8815	0.0755	861763	keystroke_t	t	n/a
431.046	0.12	862092	keystroke_a	a	n/a
431.272	0.12	862544	keystroke_x	x	n/a
431.422	0.09	862844	keystroke_e	e	n/a
431.571	0.091	863142	keystroke_s	s	n/a
431.902	0.105	863804	keystroke_Key.enter	Key.enter	n/a
432.013	5.9215	864026	prompt	n/a	belly malpractice dream rope\n
432.922	0.074	865844	keystroke_b	b	n/a
433.071	0.105	866142	keystroke_e	e	n/a
433.192	0.059	866384	keystroke_l	l	n/a
433.312	0.09	866624	keystroke_l	l	n/a
433.4025	0.089	866805	keystroke_y	y	n/a
433.552	0.0895	867104	keystroke_Key.space	Key.space	n/a
433.7315	0.0755	867463	keystroke_m	m	n/a
433.8215	0.0905	867643	keystroke_a	a	n/a
433.942	0.09	867884	keystroke_l	l	n/a
434.1365	0.09	868273	keystroke_p	p	n/a
434.2715	0.075	868543	keystroke_a	a	n/a
434.602	0.0895	869204	keystroke_Key.backspace	Key.backspace	n/a
434.6925	0.089	869385	keystroke_r	r	n/a
434.826	0.1055	869652	keystroke_a	a	n/a
435.052	0.089	870104	keystroke_c	c	n/a
435.307	0.1045	870614	keystroke_t	t	n/a
435.366	0.105	870732	keystroke_i	i	n/a
435.4865	0.15	870973	keystroke_c	c	n/a
435.607	0.1045	871214	keystroke_e	e	n/a
436.191	0.0755	872382	keystroke_Key.space	Key.space	n/a
436.3565	0.06	872713	keystroke_d	d	n/a
436.5365	0.0905	873073	keystroke_r	r	n/a
436.597	0.0905	873194	keystroke_e	e	n/a
436.747	0.12	873494	keystroke_a	a	n/a
436.852	0.075	873704	keystroke_m	m	n/a
437.0165	0.0905	874033	keystroke_Key.space	Key.space	n/a
437.0915	0.105	874183	keystroke_r	r	n/a
437.4665	0.105	874933	keystroke_o	o	n/a
437.5265	0.12	875053	keystroke_p	p	n/a
437.632	0.0895	875264	keystroke_e	e	n/a
437.827	0.1045	875654	keystroke_Key.enter	Key.enter	n/a
437.942	6.097	875884	prompt	n/a	brick script albums producers\n
438.757	0.059	877514	keystroke_b	b	n/a
438.8465	0.12	877693	keystroke_r	r	n/a
438.952	0.0895	877904	keystroke_i	i	n/a
439.0715	0.105	878143	keystroke_c	c	n/a
439.1615	0.09	878323	keystroke_k	k	n/a
439.3415	0.0905	878683	keystroke_Key.space	Key.space	n/a
439.5665	0.09	879133	keystroke_s	s	n/a
439.7315	0.1205	879463	keystroke_c	c	n/a
440.167	0.06	880334	keystroke_r	r	n/a
440.257	0.1045	880514	keystroke_i	i	n/a
440.482	0.1045	880964	keystroke_p	p	n/a
440.601	0.075	881202	keystroke_t	t	n/a
441.172	0.075	882344	keystroke_Key.space	Key.space	n/a
441.262	0.105	882524	keystroke_a	a	n/a
441.412	0.075	882824	keystroke_l	l	n/a
441.727	0.09	883454	keystroke_b	b	n/a
441.802	0.075	883604	keystroke_u	u	n/a
441.952	0.09	883904	keystroke_m	m	n/a
442.042	0.09	884084	keystroke_s	s	n/a
442.431	0.061	884862	keystroke_Key.space	Key.space	n/a
442.7165	0.0755	885433	keystroke_p	p	n/a
442.851	0.075	885702	keystroke_r	r	n/a
442.911	0.091	885822	keystroke_o	o	n/a
443.0465	0.0895	886093	keystroke_d	d	n/a
443.1815	0.105	886363	keystroke_u	u	n/a
443.2565	0.105	886513	keystroke_c	c	n/a
443.406	0.1205	886812	keystroke_e	e	n/a
443.4965	0.09	886993	keystroke_r	r	n/a
443.707	0.0895	887414	keystroke_s	s	n/a
443.962	0.075	887924	keystroke_Key.enter	Key.enter	n/a
444.0435	3.025	888087	prompt	n/a	coins roberts tears fioricet\n
444.7115	0.09	889423	keystroke_c	c	n/a
444.8465	0.1495	889693	keystroke_o	o	n/a
444.952	0.089	889904	keystroke_i	i	n/a
445.1465	0.105	890293	keystroke_n	n	n/a
445.2365	0.1045	890473	keystroke_s	s	n/a
445.626	0.0605	891252	keystroke_Key.space	Key.space	n/a
445.971	0.0905	891942	keystroke_r	r	n/a
446.076	0.09	892152	keystroke_o	o	n/a
446.196	0.1055	892392	keystroke_b	b	n/a
446.392	0.09	892784	keystroke_e	e	n/a
446.452	0.075	892904	keystroke_r	r	n/a
446.617	0.09	893234	keystroke_t	t	n/a
446.8115	0.105	893623	keystroke_s	s	n/a
446.977	0.0895	893954	keystroke_Key.enter	Key.enter	n/a
447.0725	11.516	894145	prompt	n/a	credit personnel provided mainstream\n
448.5065	0.075	897013	keystroke_c	c	n/a
448.7165	0.0755	897433	keystroke_r	r	n/a
448.777	0.075	897554	keystroke_e	e	n/a
448.9415	0.0755	897883	keystroke_d	d	n/a
449.137	0.09	898274	keystroke_i	i	n/a
449.257	0.075	898514	keystroke_t	t	n/a
449.886	0.1205	899772	keystroke_Key.space	Key.space	n/a
450.171	0.06	900342	keystroke_p	p	n/a
450.217	0.104	900434	keystroke_e	e	n/a
450.2765	0.09	900553	keystroke_r	r	n/a
450.4565	0.12	900913	keystroke_s	s	n/a
450.5615	0.12	901123	keystroke_o	o	n/a
450.6515	0.0905	901303	keystroke_n	n	n/a
450.7565	0.0595	901513	keystroke_a	a	n/a
451.072	0.06	902144	keystroke_Key.backspace	Key.backspace	n/a
451.357	0.089	902714	keystroke_n	n	n/a
451.611	0.106	903222	keystroke_e	e	n/a
451.7315	0.0905	903463	keystroke_l	l	n/a
452.0015	0.09	904003	keystroke_Key.space	Key.space	n/a
452.2115	0.105	904423	keystroke_p	p	n/a
452.3175	0.074	904635	keystroke_r	r	n/a
452.4065	0.09	904813	keystroke_o	o	n/a
453.1565	0.0755	906313	keystroke_v	v	n/a
453.216	0.075	906432	keystroke_i	i	n/a
453.352	0.075	906704	keystroke_d	d	n/a
453.502	0.075	907004	keystroke_e	e	n/a
453.636	0.09	907272	keystroke_d	d	n/a
454.266	0.0455	908532	keystroke_Key.space	Key.space	n/a
454.4165	0.0905	908833	keystroke_m	m	n/a
454.521	0.106	909042	keystroke_a	a	n/a
454.597	0.119	909194	keystroke_i	i	n/a
454.686	0.09	909372	keystroke_n	n	n/a
454.791	0.1655	909582	keystroke_t	t	n/a
454.911	0.075	909822	keystroke_r	r	n/a
455.2565	0.0595	910513	keystroke_Key.backspace	Key.backspace	n/a
455.452	0.1045	910904	keystroke_s	s	n/a
455.7965	0.09	911593	keystroke_t	t	n/a
455.8265	0.12	911653	keystroke_r	r	n/a
456.2615	0.06	912523	keystroke_Key.backspace	Key.backspace	n/a
456.3965	0.075	912793	keystroke_Key.backspace	Key.backspace	n/a
456.5315	0.06	913063	keystroke_Key.backspace	Key.backspace	n/a
456.966	0.06	913932	keystroke_Key.backspace	Key.backspace	n/a
457.176	0.09	914352	keystroke_s	s	n/a
457.491	0.0755	914982	keystroke_t	t	n/a
457.5215	0.09	915043	keystroke_r	r	n/a
457.732	0.0745	915464	keystroke_e	e	n/a
457.9115	0.165	915823	keystroke_a	a	n/a
458.107	0.0595	916214	keystroke_m	m	n/a
458.4965	0.0895	916993	keystroke_Key.enter	Key.enter	n/a
458.5945	8.424	917189	prompt	n/a	canadian portland sandwich tutorials\n
459.321	0.091	918642	keystroke_c	c	n/a
459.441	0.135	918882	keystroke_a	a	n/a
459.532	0.089	919064	keystroke_n	n	n/a
459.606	0.105	919212	keystroke_a	a	n/a
459.7715	0.1045	919543	keystroke_d	d	n/a
460.0865	0.09	920173	keystroke_i	i	n/a
460.282	0.0895	920564	keystroke_a	a	n/a
460.3865	0.075	920773	keystroke_n	n	n/a
460.9865	0.06	921973	keystroke_Key.space	Key.space	n/a
461.1965	0.09	922393	keystroke_p	p	n/a
461.332	0.0895	922664	keystroke_o	o	n/a
461.407	0.0595	922814	keystroke_r	r	n/a
461.5265	0.09	923053	keystroke_t	t	n/a
461.722	0.06	923444	keystroke_a	a	n/a
462.0665	0.06	924133	keystroke_Key.backspace	Key.backspace	n/a
462.3665	0.0905	924733	keystroke_l	l	n/a
462.4715	0.1195	924943	keystroke_a	a	n/a
462.5765	0.0895	925153	keystroke_n	n	n/a
462.726	0.105	925452	keystroke_d	d	n/a
463.236	0.075	926472	keystroke_Key.space	Key.space	n/a
463.537	0.09	927074	keystroke_s	s	n/a
463.7015	0.0895	927403	keystroke_a	a	n/a
463.807	0.089	927614	keystroke_n	n	n/a
463.911	0.076	927822	keystroke_d	d	n/a
464.496	0.106	928992	keystroke_w	w	n/a
464.586	0.105	929172	keystroke_i	i	n/a
464.736	0.091	929472	keystroke_c	c	n/a
464.827	0.074	929654	keystroke_h	h	n/a
465.036	0.09	930072	keystroke_Key.space	Key.space	n/a
465.277	0.075	930554	keystroke_t	t	n/a
465.337	0.09	930674	keystroke_u	u	n/a
465.682	0.09	931364	keystroke_t	t	n/a
466.041	0.106	932082	keystroke_o	o	n/a
466.147	0.074	932294	keystroke_r	r	n/a
466.237	0.104	932474	keystroke_i	i	n/a
466.371	0.106	932742	keystroke_a	a	n/a
466.492	0.104	932984	keystroke_l	l	n/a
466.566	0.09	933132	keystroke_s	s	n/a
466.8965	0.12	933793	keystroke_Key.enter	Key.enter	n/a
467.0225	6.7455	934045	prompt	n/a	muscle forecast infant tribal\n
467.661	0.06	935322	keystroke_m	m	n/a
467.7965	0.1195	935593	keystroke_u	u	n/a
467.886	0.0905	935772	keystroke_s	s	n/a
468.066	0.0905	936132	keystroke_c	c	n/a
468.1715	0.09	936343	keystroke_l	l	n/a
468.277	0.0745	936554	keystroke_e	e	n/a
468.6215	0.1195	937243	keystroke_Key.space	Key.space	n/a
468.952	0.06	937904	keystroke_f	f	n/a
469.042	0.09	938084	keystroke_o	o	n/a
469.146	0.0755	938292	keystroke_r	r	n/a
470.017	0.074	940034	keystroke_e	e	n/a
470.227	0.104	940454	keystroke_c	c	n/a
470.391	0.1655	940782	keystroke_a	a	n/a
470.4965	0.135	940993	keystroke_s	s	n/a
470.736	0.076	941472	keystroke_t	t	n/a
471.0815	0.045	942163	keystroke_Key.space	Key.space	n/a
471.2765	0.1505	942553	keystroke_i	i	n/a
471.3665	0.12	942733	keystroke_n	n	n/a
471.7275	0.059	943455	keystroke_f	f	n/a
471.8465	0.105	943693	keystroke_a	a	n/a
471.9365	0.105	943873	keystroke_n	n	n/a
472.0565	0.09	944113	keystroke_t	t	n/a
472.1915	0.075	944383	keystroke_Key.space	Key.space	n/a
472.7915	0.09	945583	keystroke_t	t	n/a
472.8515	0.1205	945703	keystroke_r	r	n/a
472.957	0.0895	945914	keystroke_i	i	n/a
473.092	0.0895	946184	keystroke_b	b	n/a
473.2865	0.105	946573	keystroke_a	a	n/a
473.4065	0.06	946813	keystroke_l	l	n/a
473.6765	0.09	947353	keystroke_Key.enter	Key.enter	n/a
473.7725	9.1755	947545	prompt	n/a	laura hope thoroughly massage\n
474.4415	0.09	948883	keystroke_l	l	n/a
474.5465	0.09	949093	keystroke_a	a	n/a
474.6815	0.105	949363	keystroke_u	u	n/a
474.8165	0.09	949633	keystroke_r	r	n/a
475.0265	0.09	950053	keystroke_a	a	n/a
475.7765	0.06	951553	keystroke_Key.space	Key.space	n/a
476.002	0.0595	952004	keystroke_h	h	n/a
476.1815	0.1345	952363	keystroke_o	o	n/a
476.256	0.106	952512	keystroke_p	p	n/a
476.3465	0.0905	952693	keystroke_e	e	n/a
476.6315	0.075	953263	keystroke_Key.space	Key.space	n/a
477.0665	0.0755	954133	keystroke_t	t	n/a
477.1565	0.075	954313	keystroke_h	h	n/a
477.4565	0.1205	954913	keystroke_o	o	n/a
477.8315	0.0905	955663	keystroke_r	r	n/a
477.9665	0.075	955933	keystroke_o	o	n/a
478.6265	0.075	957253	keystroke_u	u	n/a
478.897	0.09	957794	keystroke_g	g	n/a
478.9415	0.0755	957883	keystroke_h	h	n/a
479.4815	0.105	958963	keystroke_l	l	n/a
479.572	0.075	959144	keystroke_y	y	n/a
480.561	0.0605	961122	keystroke_Key.space	Key.space	n/a
480.7265	0.1055	961453	keystroke_m	m	n/a
480.816	0.0605	961632	keystroke_a	a	n/a
480.966	0.0605	961932	keystroke_s	s	n/a
481.116	0.075	962232	keystroke_s	s	n/a
481.251	0.1205	962502	keystroke_a	a	n/a
481.4315	0.1345	962863	keystroke_g	g	n/a
481.5815	0.0595	963163	keystroke_w	w	n/a
481.611	0.1055	963222	keystroke_e	e	n/a
482.0765	0.015	964153	keystroke_Key.backspace	Key.backspace	n/a
482.1815	0.075	964363	keystroke_Key.backspace	Key.backspace	n/a
482.2265	0.06	964453	keystroke_e	e	n/a
482.8565	0.09	965713	keystroke_Key.enter	Key.enter	n/a
482.952	9.191	965904	prompt	n/a	forums depression resistance metropolitan\n
483.7265	0.075	967453	keystroke_d	d	n/a
484.0865	0.09	968173	keystroke_Key.backspace	Key.backspace	n/a
484.1915	0.09	968383	keystroke_f	f	n/a
484.3115	0.105	968623	keystroke_o	o	n/a
484.4315	0.105	968863	keystroke_r	r	n/a
484.5515	0.09	969103	keystroke_u	u	n/a
484.747	0.104	969494	keystroke_m	m	n/a
484.837	0.0595	969674	keystroke_s	s	n/a
485.046	0.075	970092	keystroke_Key.space	Key.space	n/a
485.3315	0.09	970663	keystroke_d	d	n/a
485.466	0.1055	970932	keystroke_e	e	n/a
485.586	0.1045	971172	keystroke_p	p	n/a
485.692	0.0745	971384	keystroke_r	r	n/a
485.737	0.105	971474	keystroke_e	e	n/a
485.932	0.075	971864	keystroke_s	s	n/a
486.067	0.09	972134	keystroke_s	s	n/a
486.157	0.165	972314	keystroke_i	i	n/a
486.232	0.105	972464	keystroke_o	o	n/a
486.292	0.135	972584	keystroke_n	n	n/a
487.0415	0.0745	974083	keystroke_Key.space	Key.space	n/a
487.192	0.09	974384	keystroke_r	r	n/a
487.252	0.09	974504	keystroke_e	e	n/a
487.447	0.075	974894	keystroke_s	s	n/a
487.537	0.075	975074	keystroke_i	i	n/a
487.627	0.09	975254	keystroke_s	s	n/a
487.957	0.06	975914	keystroke_t	t	n/a
488.137	0.09	976274	keystroke_a	a	n/a
488.242	0.09	976484	keystroke_n	n	n/a
488.347	0.105	976694	keystroke_c	c	n/a
488.422	0.105	976844	keystroke_e	e	n/a
488.737	0.075	977474	keystroke_Key.space	Key.space	n/a
488.9015	0.09	977803	keystroke_m	m	n/a
488.9765	0.09	977953	keystroke_e	e	n/a
489.1565	0.075	978313	keystroke_t	t	n/a
489.3065	0.105	978613	keystroke_r	r	n/a
489.4265	0.0755	978853	keystroke_o	o	n/a
489.6665	0.09	979333	keystroke_p	p	n/a
489.8315	0.0895	979663	keystroke_o	o	n/a
490.026	0.09	980052	keystroke_l	l	n/a
490.3715	0.06	980743	keystroke_o	o	n/a
490.5965	0.075	981193	keystroke_i	i	n/a
490.9565	0.06	981913	keystroke_Key.backspace	Key.backspace	n/a
491.0765	0.075	982153	keystroke_Key.backspace	Key.backspace	n/a
491.3015	0.09	982603	keystroke_i	i	n/a
491.436	0.0455	982872	keystroke_t	t	n/a
491.6165	0.09	983233	keystroke_a	a	n/a
491.736	0.1055	983472	keystroke_n	n	n/a
492.052	0.0895	984104	keystroke_Key.enter	Key.enter	n/a
492.1465	6.6265	984293	prompt	n/a	distance that wound societies\n
493.117	0.0745	986234	keystroke_d	d	n/a
493.251	0.0905	986502	keystroke_i	i	n/a
493.326	0.06	986652	keystroke_s	s	n/a
493.5815	0.0595	987163	keystroke_t	t	n/a
493.716	0.12	987432	keystroke_a	a	n/a
493.866	0.0905	987732	keystroke_n	n	n/a
494.166	0.1355	988332	keystroke_c	c	n/a
494.2715	0.0905	988543	keystroke_e	e	n/a
495.021	0.075	990042	keystroke_Key.space	Key.space	n/a
495.216	0.075	990432	keystroke_t	t	n/a
495.3065	0.09	990613	keystroke_h	h	n/a
495.366	0.121	990732	keystroke_a	a	n/a
495.5315	0.09	991063	keystroke_t	t	n/a
495.576	0.09	991152	keystroke_Key.space	Key.space	n/a
496.072	0.105	992144	keystroke_w	w	n/a
496.191	0.166	992382	keystroke_o	o	n/a
496.2965	0.1055	992593	keystroke_u	u	n/a
496.476	0.106	992952	keystroke_n	n	n/a
496.552	0.089	993104	keystroke_d	d	n/a
496.6865	0.075	993373	keystroke_Key.space	Key.space	n/a
497.3015	0.0755	994603	keystroke_s	s	n/a
497.4215	0.045	994843	keystroke_o	o	n/a
497.4815	0.0905	994963	keystroke_c	c	n/a
497.5865	0.075	995173	keystroke_i	i	n/a
497.7065	0.105	995413	keystroke_e	e	n/a
497.9165	0.0895	995833	keystroke_t	t	n/a
498.0965	0.06	996193	keystroke_i	i	n/a
498.1715	0.0755	996343	keystroke_e	e	n/a
498.3365	0.0755	996673	keystroke_s	s	n/a
498.6815	0.09	997363	keystroke_Key.enter	Key.enter	n/a
498.777	6.1165	997554	prompt	n/a	foster receive spec connect\n
499.687	0.044	999374	keystroke_f	f	n/a
499.776	0.09	999552	keystroke_o	o	n/a
499.852	0.09	999704	keystroke_s	s	n/a
500.032	0.089	1000064	keystroke_t	t	n/a
500.122	0.105	1000244	keystroke_e	e	n/a
500.196	0.091	1000392	keystroke_r	r	n/a
500.406	0.09	1000812	keystroke_Key.space	Key.space	n/a
500.572	0.075	1001144	keystroke_r	r	n/a
500.616	0.091	1001232	keystroke_e	e	n/a
500.826	0.1055	1001652	keystroke_c	c	n/a
500.9465	0.06	1001893	keystroke_e	e	n/a
501.0515	0.075	1002103	keystroke_i	i	n/a
501.172	0.0745	1002344	keystroke_v	v	n/a
501.2165	0.12	1002433	keystroke_e	e	n/a
502.8665	0.075	1005733	keystroke_Key.space	Key.space	n/a
502.971	0.1055	1005942	keystroke_s	s	n/a
503.106	0.105	1006212	keystroke_p	p	n/a
503.166	0.09	1006332	keystroke_e	e	n/a
503.331	0.0905	1006662	keystroke_c	c	n/a
503.4065	0.09	1006813	keystroke_Key.space	Key.space	n/a
503.8415	0.09	1007683	keystroke_c	c	n/a
503.9165	0.06	1007833	keystroke_o	o	n/a
504.0665	0.075	1008133	keystroke_n	n	n/a
504.1715	0.075	1008343	keystroke_n	n	n/a
504.2315	0.12	1008463	keystroke_e	e	n/a
504.352	0.0895	1008704	keystroke_c	c	n/a
504.5315	0.105	1009063	keystroke_t	t	n/a
504.8015	0.09	1009603	keystroke_Key.enter	Key.enter	n/a
504.898	7.045	1009796	prompt	n/a	jake spare jews barriers\n
505.7315	0.09	1011463	keystroke_j	j	n/a
505.8065	0.1055	1011613	keystroke_a	a	n/a
505.9265	0.0755	1011853	keystroke_k	k	n/a
506.0165	0.075	1012033	keystroke_e	e	n/a
506.166	0.075	1012332	keystroke_Key.space	Key.space	n/a
507.127	0.09	1014254	keystroke_s	s	n/a
507.201	0.091	1014402	keystroke_p	p	n/a
507.337	0.105	1014674	keystroke_a	a	n/a
507.5615	0.1345	1015123	keystroke_r	r	n/a
507.6665	0.1195	1015333	keystroke_e	e	n/a
507.8765	0.09	1015753	keystroke_Key.space	Key.space	n/a
508.311	0.075	1016622	keystroke_j	j	n/a
508.461	0.12	1016922	keystroke_e	e	n/a
508.536	0.0905	1017072	keystroke_w	w	n/a
508.7315	0.1205	1017463	keystroke_s	s	n/a
509.317	0.0745	1018634	keystroke_Key.space	Key.space	n/a
509.6315	0.1055	1019263	keystroke_b	b	n/a
509.6765	0.105	1019353	keystroke_a	a	n/a
509.8565	0.0605	1019713	keystroke_r	r	n/a
509.992	0.09	1019984	keystroke_r	r	n/a
510.097	0.105	1020194	keystroke_i	i	n/a
510.187	0.105	1020374	keystroke_r	r	n/a
510.321	0.121	1020642	keystroke_e	e	n/a
510.442	0.045	1020884	keystroke_r	r	n/a
510.562	0.09	1021124	keystroke_s	s	n/a
510.8615	0.06	1021723	keystroke_Key.backspace	Key.backspace	n/a
511.027	0.0445	1022054	keystroke_Key.backspace	Key.backspace	n/a
511.1315	0.075	1022263	keystroke_Key.backspace	Key.backspace	n/a
511.2665	0.09	1022533	keystroke_Key.backspace	Key.backspace	n/a
511.416	0.106	1022832	keystroke_e	e	n/a
511.5065	0.0905	1023013	keystroke_r	r	n/a
511.672	0.15	1023344	keystroke_s	s	n/a
511.852	0.09	1023704	keystroke_Key.enter	Key.enter	n/a
511.947	8.051	1023894	prompt	n/a	workshops aside either arlington\n
512.647	0.104	1025294	keystroke_w	w	n/a
512.767	0.09	1025534	keystroke_o	o	n/a
512.872	0.09	1025744	keystroke_r	r	n/a
512.947	0.12	1025894	keystroke_k	k	n/a
513.577	0.09	1027154	keystroke_s	s	n/a
513.652	0.105	1027304	keystroke_h	h	n/a
513.952	0.12	1027904	keystroke_i	i	n/a
514.027	0.105	1028054	keystroke_o	o	n/a
514.432	0.075	1028864	keystroke_Key.backspace	Key.backspace	n/a
514.552	0.075	1029104	keystroke_Key.backspace	Key.backspace	n/a
514.987	0.15	1029974	keystroke_o	o	n/a
515.107	0.15	1030214	keystroke_p	p	n/a
515.257	0.075	1030514	keystroke_s	s	n/a
515.9315	0.075	1031863	keystroke_Key.space	Key.space	n/a
516.0515	0.06	1032103	keystroke_a	a	n/a
516.3065	0.045	1032613	keystroke_s	s	n/a
516.9065	0.091	1033813	keystroke_i	i	n/a
517.057	0.12	1034114	keystroke_d	d	n/a
517.2215	0.09	1034443	keystroke_e	e	n/a
517.4165	0.09	1034833	keystroke_Key.space	Key.space	n/a
517.5665	0.105	1035133	keystroke_e	e	n/a
517.6565	0.09	1035313	keystroke_i	i	n/a
517.7615	0.0905	1035523	keystroke_t	t	n/a
517.8215	0.1055	1035643	keystroke_h	h	n/a
517.9115	0.09	1035823	keystroke_e	e	n/a
517.9715	0.105	1035943	keystroke_r	r	n/a
518.0615	0.105	1036123	keystroke_Key.space	Key.space	n/a
518.3315	0.1205	1036663	keystroke_a	a	n/a
518.527	0.0895	1037054	keystroke_r	r	n/a
518.647	0.0445	1037294	keystroke_l	l	n/a
518.797	0.1495	1037594	keystroke_i	i	n/a
518.9165	0.105	1037833	keystroke_n	n	n/a
518.9765	0.075	1037953	keystroke_g	g	n/a
519.1415	0.09	1038283	keystroke_t	t	n/a
519.2165	0.12	1038433	keystroke_o	o	n/a
519.3065	0.09	1038613	keystroke_n	n	n/a
519.892	0.104	1039784	keystroke_Key.enter	Key.enter	n/a
520.0025	6.1915	1040005	prompt	n/a	mail neural comes article\n
520.567	0.104	1041134	keystroke_m	m	n/a
520.687	0.105	1041374	keystroke_a	a	n/a
520.747	0.09	1041494	keystroke_i	i	n/a
520.927	0.075	1041854	keystroke_l	l	n/a
521.1065	0.075	1042213	keystroke_Key.space	Key.space	n/a
521.272	0.0745	1042544	keystroke_n	n	n/a
521.3615	0.075	1042723	keystroke_e	e	n/a
521.5115	0.12	1043023	keystroke_u	u	n/a
521.6465	0.09	1043293	keystroke_r	r	n/a
521.8415	0.09	1043683	keystroke_a	a	n/a
521.9325	0.089	1043865	keystroke_l	l	n/a
522.142	0.0895	1044284	keystroke_Key.space	Key.space	n/a
522.367	0.105	1044734	keystroke_c	c	n/a
522.4415	0.1205	1044883	keystroke_o	o	n/a
522.4865	0.1055	1044973	keystroke_m	m	n/a
522.562	0.09	1045124	keystroke_e	e	n/a
522.742	0.09	1045484	keystroke_s	s	n/a
522.847	0.105	1045694	keystroke_Key.space	Key.space	n/a
523.087	0.105	1046174	keystroke_a	a	n/a
523.342	0.075	1046684	keystroke_r	r	n/a
523.492	0.105	1046984	keystroke_t	t	n/a
523.582	0.09	1047164	keystroke_i	i	n/a
523.717	0.09	1047434	keystroke_c	c	n/a
523.822	0.105	1047644	keystroke_a	a	n/a
523.957	0.075	1047914	keystroke_l	l	n/a
524.332	0.045	1048664	keystroke_Key.backspace	Key.backspace	n/a
524.437	0.075	1048874	keystroke_Key.backspace	Key.backspace	n/a
524.557	0.06	1049114	keystroke_e	e	n/a
524.692	0.104	1049384	keystroke_l	l	n/a
525.052	0.045	1050104	keystroke_Key.backspace	Key.backspace	n/a
525.157	0.0745	1050314	keystroke_Key.backspace	Key.backspace	n/a
525.3815	0.0755	1050763	keystroke_l	l	n/a
525.442	0.06	1050884	keystroke_e	e	n/a
526.1165	0.0755	1052233	keystroke_Key.enter	Key.enter	n/a
526.198	12.9105	1052396	prompt	n/a	offering diverse hypothesis speed\n
527.046	0.091	1054092	keystroke_o	o	n/a
527.1965	0.076	1054393	keystroke_f	f	n/a
527.332	0.105	1054664	keystroke_f	f	n/a
527.511	0.105	1055022	keystroke_e	e	n/a
527.572	0.089	1055144	keystroke_r	r	n/a
527.691	0.12	1055382	keystroke_i	i	n/a
527.767	0.105	1055534	keystroke_n	n	n/a
527.842	0.09	1055684	keystroke_g	g	n/a
528.052	0.074	1056104	keystroke_Key.space	Key.space	n/a
528.411	0.075	1056822	keystroke_d	d	n/a
528.502	0.089	1057004	keystroke_i	i	n/a
528.966	0.0755	1057932	keystroke_v	v	n/a
529.177	0.12	1058354	keystroke_e	e	n/a
529.2515	0.1055	1058503	keystroke_r	r	n/a
529.552	0.105	1059104	keystroke_s	s	n/a
529.747	0.09	1059494	keystroke_e	e	n/a
529.927	0.09	1059854	keystroke_Key.space	Key.space	n/a
530.197	0.09	1060394	keystroke_h	h	n/a
530.437	0.09	1060874	keystroke_y	y	n/a
530.572	0.075	1061144	keystroke_p	p	n/a
530.917	0.105	1061834	keystroke_t	t	n/a
530.9765	0.0755	1061953	keystroke_h	h	n/a
531.067	0.105	1062134	keystroke_e	e	n/a
531.247	0.0895	1062494	keystroke_s	s	n/a
531.352	0.0745	1062704	keystroke_i	i	n/a
531.4265	0.0755	1062853	keystroke_s	s	n/a
532.072	0.0895	1064144	keystroke_Key.space	Key.space	n/a
