onset	duration	sample	value	key	prompt_text
5.493	10.6955	10986	prompt	n/a	the quick brown fox jumps over a lazy dog\n
8.0585	0.0265	16117	keystroke_t	t	n/a
8.13	0.12	16260	keystroke_h	h	n/a
8.175	0.105	16350	keystroke_e	e	n/a
8.325	0.09	16650	keystroke_Key.space	Key.space	n/a
8.715	0.06	17430	keystroke_q	q	n/a
8.985	0.105	17970	keystroke_u	u	n/a
9.3145	0.09	18629	keystroke_i	i	n/a
9.4655	0.0895	18931	keystroke_c	c	n/a
9.585	0.105	19170	keystroke_k	k	n/a
9.705	0.105	19410	keystroke_Key.space	Key.space	n/a
10.02	0.045	20040	keystroke_b	b	n/a
11.5795	0.0755	23159	keystroke_r	r	n/a
11.774	0.076	23548	keystroke_o	o	n/a
11.865	0.09	23730	keystroke_w	w	n/a
12.0755	0.1195	24151	keystroke_n	n	n/a
12.18	0.12	24360	keystroke_Key.space	Key.space	n/a
12.345	0.09	24690	keystroke_f	f	n/a
12.42	0.105	24840	keystroke_o	o	n/a
12.585	0.12	25170	keystroke_x	x	n/a
12.72	0.06	25440	keystroke_Key.space	Key.space	n/a
12.9	0.105	25800	keystroke_j	j	n/a
13.125	0.075	26250	keystroke_u	u	n/a
13.335	0.105	26670	keystroke_m	m	n/a
13.515	0.105	27030	keystroke_p	p	n/a
13.665	0.09	27330	keystroke_s	s	n/a
13.785	0.09	27570	keystroke_Key.space	Key.space	n/a
13.92	0.105	27840	keystroke_o	o	n/a
14.1	0.105	28200	keystroke_v	v	n/a
14.31	0.105	28620	keystroke_e	e	n/a
14.37	0.09	28740	keystroke_r	r	n/a
14.535	0.06	29070	keystroke_Key.space	Key.space	n/a
14.64	0.09	29280	keystroke_a	a	n/a
14.76	0.09	29520	keystroke_Key.space	Key.space	n/a
14.865	0.105	29730	keystroke_l	l	n/a
14.985	0.075	29970	keystroke_a	a	n/a
15.225	0.06	30450	keystroke_z	z	n/a
15.39	0.1355	30780	keystroke_y	y	n/a
15.4795	0.105	30959	keystroke_Key.space	Key.space	n/a
15.6605	0.075	31321	keystroke_d	d	n/a
15.7505	0.075	31501	keystroke_o	o	n/a
15.9295	0.045	31859	keystroke_g	g	n/a
16.0945	0.09	32189	keystroke_Key.enter	Key.enter	n/a
16.1955	7.012	32391	prompt	n/a	movies toolbox upgrade gasoline\n
17.04	0.09	34080	keystroke_m	m	n/a
17.174	0.1065	34348	keystroke_o	o	n/a
17.31	0.09	34620	keystroke_v	v	n/a
17.46	0.089	34920	keystroke_i	i	n/a
17.565	0.0595	35130	keystroke_e	e	n/a
17.7455	0.0895	35491	keystroke_s	s	n/a
17.8495	0.1055	35699	keystroke_Key.space	Key.space	n/a
18.105	0.075	36210	keystroke_t	t	n/a
18.21	0.06	36420	keystroke_o	o	n/a
18.36	0.089	36720	keystroke_o	o	n/a
18.5705	0.105	37141	keystroke_l	l	n/a
18.69	0.0905	37380	keystroke_b	b	n/a
18.8255	0.09	37651	keystroke_o	o	n/a
18.9605	0.089	37921	keystroke_x	x	n/a
19.1095	0.075	38219	keystroke_Key.space	Key.space	n/a
19.7105	0.12	39421	keystroke_u	u	n/a
19.8155	0.134	39631	keystroke_p	p	n/a
20.0705	0.105	40141	keystroke_g	g	n/a
20.295	0.104	40590	keystroke_r	r	n/a
20.415	0.09	40830	keystroke_a	a	n/a
20.61	0.09	41220	keystroke_d	d	n/a
20.76	0.075	41520	keystroke_e	e	n/a
20.879	0.09	41758	keystroke_Key.space	Key.space	n/a
21.4055	0.0745	42811	keystroke_g	g	n/a
21.585	0.09	43170	keystroke_a	a	n/a
21.84	0.09	43680	keystroke_s	s	n/a
21.96	0.09	43920	keystroke_o	o	n/a
22.17	0.104	44340	keystroke_l	l	n/a
22.395	0.0605	44790	keystroke_i	i	n/a
22.5745	0.0905	45149	keystroke_n	n	n/a
22.6495	0.0605	45299	keystroke_e	e	n/a
23.145	0.059	46290	keystroke_Key.enter	Key.enter	n/a
23.2135	12.0385	46427	prompt	n/a	alumni accounting engaged rebate\n
23.8795	0.076	47759	keystroke_a	a	n/a
24.24	0.0895	48480	keystroke_l	l	n/a
24.5855	0.075	49171	keystroke_u	u	n/a
24.8705	0.09	49741	keystroke_m	m	n/a
25.0955	0.105	50191	keystroke_n	n	n/a
25.3205	0.09	50641	keystroke_i	i	n/a
25.5305	0.089	51061	keystroke_Key.space	Key.space	n/a
25.7395	0.076	51479	keystroke_a	a	n/a
25.9205	0.075	51841	keystroke_c	c	n/a
26.0705	0.075	52141	keystroke_c	c	n/a
26.1605	0.0745	52321	keystroke_o	o	n/a
26.2055	0.1195	52411	keystroke_u	u	n/a
27.015	0.12	54030	keystroke_n	n	n/a
27.105	0.075	54210	keystroke_t	t	n/a
27.255	0.045	54510	keystroke_i	i	n/a
27.375	0.104	54750	keystroke_n	n	n/a
27.48	0.06	54960	keystroke_g	g	n/a
27.585	0.074	55170	keystroke_Key.space	Key.space	n/a
28.32	0.075	56640	keystroke_e	e	n/a
28.5	0.09	57000	keystroke_n	n	n/a
28.665	0.12	57330	keystroke_g	g	n/a
28.8	0.075	57600	keystroke_a	a	n/a
28.95	0.09	57900	keystroke_g	g	n/a
29.01	0.09	58020	keystroke_e	e	n/a
29.4	0.06	58800	keystroke_d	d	n/a
29.535	0.075	59070	keystroke_Key.space	Key.space	n/a
29.804	0.061	59608	keystroke_d	d	n/a
30.045	0.075	60090	keystroke_e	e	n/a
30.675	0.075	61350	keystroke_Key.backspace	Key.backspace	n/a
30.84	0.075	61680	keystroke_Key.backspace	Key.backspace	n/a
30.945	0.09	61890	keystroke_r	r	n/a
31.004	0.091	62008	keystroke_e	e	n/a
32.595	0.09	65190	keystroke_b	b	n/a
32.67	0.15	65340	keystroke_a	a	n/a
33.225	0.075	66450	keystroke_t	t	n/a
33.33	0.09	66660	keystroke_e	e	n/a
35.175	0.075	70350	keystroke_Key.enter	Key.enter	n/a
35.2575	7.045	70515	prompt	n/a	grows determines gnome titled\n
36.15	0.075	72300	keystroke_g	g	n/a
36.33	0.06	72660	keystroke_r	r	n/a
36.48	0.09	72960	keystroke_o	o	n/a
36.571	0.089	73142	keystroke_w	w	n/a
36.81	0.105	73620	keystroke_s	s	n/a
36.945	0.09	73890	keystroke_Key.space	Key.space	n/a
37.335	0.06	74670	keystroke_d	d	n/a
37.5	0.075	75000	keystroke_e	e	n/a
37.68	0.09	75360	keystroke_t	t	n/a
37.83	0.09	75660	keystroke_e	e	n/a
37.89	0.09	75780	keystroke_r	r	n/a
38.04	0.105	76080	keystroke_m	m	n/a
38.115	0.105	76230	keystroke_i	i	n/a
38.295	0.12	76590	keystroke_n	n	n/a
38.43	0.045	76860	keystroke_e	e	n/a
38.595	0.075	77190	keystroke_s	s	n/a
38.73	0.09	77460	keystroke_Key.space	Key.space	n/a
39.795	0.075	79590	keystroke_g	g	n/a
39.885	0.09	79770	keystroke_n	n	n/a
40.14	0.09	80280	keystroke_o	o	n/a
40.365	0.09	80730	keystroke_m	m	n/a
40.44	0.06	80880	keystroke_e	e	n/a
40.65	0.075	81300	keystroke_Key.space	Key.space	n/a
41.01	0.09	82020	keystroke_t	t	n/a
41.13	0.075	82260	keystroke_i	i	n/a
41.22	0.09	82440	keystroke_t	t	n/a
41.325	0.105	82650	keystroke_l	l	n/a
41.415	0.075	82830	keystroke_e	e	n/a
41.835	0.06	83670	keystroke_d	d	n/a
42.225	0.075	84450	keystroke_Key.enter	Key.enter	n/a
42.308	8.92	84616	prompt	n/a	david royalty mobile emirates\n
43.155	0.09	86310	keystroke_d	d	n/a
43.365	0.09	86730	keystroke_a	a	n/a
43.5	0.105	87000	keystroke_v	v	n/a
43.65	0.075	87300	keystroke_i	i	n/a
43.74	0.105	87480	keystroke_d	d	n/a
43.875	0.12	87750	keystroke_Key.space	Key.space	n/a
44.415	0.09	88830	keystroke_r	r	n/a
44.715	0.075	89430	keystroke_o	o	n/a
44.925	0.105	89850	keystroke_y	y	n/a
45.075	0.075	90150	keystroke_a	a	n/a
45.225	0.105	90450	keystroke_l	l	n/a
45.42	0.075	90840	keystroke_t	t	n/a
45.63	0.12	91260	keystroke_y	y	n/a
45.795	0.105	91590	keystroke_Key.space	Key.space	n/a
46.17	0.105	92340	keystroke_m	m	n/a
46.68	0.075	93360	keystroke_o	o	n/a
47.49	0.06	94980	keystroke_b	b	n/a
47.7	0.075	95400	keystroke_i	i	n/a
47.88	0.105	95760	keystroke_l	l	n/a
47.986	0.059	95972	keystroke_e	e	n/a
48.105	0.075	96210	keystroke_Key.space	Key.space	n/a
48.3	0.06	96600	keystroke_e	e	n/a
48.435	0.075	96870	keystroke_m	m	n/a
50.025	0.075	100050	keystroke_i	i	n/a
50.145	0.09	100290	keystroke_r	r	n/a
50.355	0.135	100710	keystroke_a	a	n/a
50.46	0.09	100920	keystroke_t	t	n/a
50.565	0.06	101130	keystroke_e	e	n/a
50.925	0.075	101850	keystroke_s	s	n/a
51.15	0.075	102300	keystroke_Key.enter	Key.enter	n/a
51.233	12.234	102466	prompt	n/a	facilitate grande reforms caps\n
52.02	0.075	104040	keystroke_f	f	n/a
52.155	0.09	104310	keystroke_a	a	n/a
52.35	0.09	104700	keystroke_c	c	n/a
52.53	0.06	105060	keystroke_i	i	n/a
52.89	0.09	105780	keystroke_l	l	n/a
53.115	0.075	106230	keystroke_i	i	n/a
53.175	0.075	106350	keystroke_t	t	n/a
53.43	0.105	106860	keystroke_a	a	n/a
53.505	0.075	107010	keystroke_t	t	n/a
54	0.06	108000	keystroke_e	e	n/a
54.285	0.09	108570	keystroke_Key.space	Key.space	n/a
54.6	0.075	109200	keystroke_g	g	n/a
54.795	0.09	109590	keystroke_r	r	n/a
55.29	0.075	110580	keystroke_n	n	n/a
55.86	0.105	111720	keystroke_Key.backspace	Key.backspace	n/a
56.04	0.075	112080	keystroke_a	a	n/a
56.34	0.09	112680	keystroke_n	n	n/a
56.67	0.075	113340	keystroke_d	d	n/a
56.85	0.06	113700	keystroke_e	e	n/a
57.015	0.09	114030	keystroke_Key.space	Key.space	n/a
57.465	0.105	114930	keystroke_f	f	n/a
57.96	0.09	115920	keystroke_e	e	n/a
58.215	0.03	116430	keystroke_r	r	n/a
58.56	0.105	117120	keystroke_Key.backspace	Key.backspace	n/a
58.74	0.09	117480	keystroke_Key.backspace	Key.backspace	n/a
58.92	0.075	117840	keystroke_Key.backspace	Key.backspace	n/a
59.986	0.104	119972	keystroke_r	r	n/a
60.075	0.105	120150	keystroke_e	e	n/a
60.315	0.09	120630	keystroke_f	f	n/a
60.435	0.105	120870	keystroke_o	o	n/a
60.525	0.075	121050	keystroke_r	r	n/a
60.705	0.09	121410	keystroke_m	m	n/a
60.975	0.09	121950	keystroke_s	s	n/a
61.32	0.075	122640	keystroke_Key.space	Key.space	n/a
61.635	0.12	123270	keystroke_c	c	n/a
61.74	0.105	123480	keystroke_a	a	n/a
61.89	0.09	123780	keystroke_p	p	n/a
61.995	0.075	123990	keystroke_s	s	n/a
63.39	0.0745	126780	keystroke_Key.enter	Key.enter	n/a
63.473	11.7095	126946	prompt	n/a	undefined bedford equity terrain\n
66.903	0.0005	133806	keystroke_u	u	n/a
67.0645	0.075	134129	keystroke_n	n	n/a
67.2	0.075	134400	keystroke_d	d	n/a
67.3945	0.0605	134789	keystroke_e	e	n/a
67.6795	0.06	135359	keystroke_f	f	n/a
67.7845	0.075	135569	keystroke_i	i	n/a
67.9345	0.105	135869	keystroke_n	n	n/a
68.0095	0.075	136019	keystroke_e	e	n/a
68.2195	0.09	136439	keystroke_d	d	n/a
68.325	0.0895	136650	keystroke_Key.space	Key.space	n/a
68.9995	0.0755	137999	keystroke_b	b	n/a
69.2095	0.075	138419	keystroke_e	e	n/a
69.8095	0.075	139619	keystroke_d	d	n/a
70.0645	0.075	140129	keystroke_f	f	n/a
70.1845	0.09	140369	keystroke_o	o	n/a
70.2595	0.06	140519	keystroke_r	r	n/a
70.4845	0.09	140969	keystroke_d	d	n/a
70.6045	0.09	141209	keystroke_Key.space	Key.space	n/a
70.9195	0.09	141839	keystroke_e	e	n/a
71.1895	0.075	142379	keystroke_q	q	n/a
71.8345	0.105	143669	keystroke_u	u	n/a
72.3595	0.075	144719	keystroke_i	i	n/a
72.6595	0.075	145319	keystroke_t	t	n/a
72.8545	0.15	145709	keystroke_y	y	n/a
72.9895	0.09	145979	keystroke_Key.space	Key.space	n/a
73.3645	0.105	146729	keystroke_t	t	n/a
73.6045	0.075	147209	keystroke_e	e	n/a
73.8145	0.06	147629	keystroke_r	r	n/a
73.9795	0.03	147959	keystroke_r	r	n/a
74.4445	0.06	148889	keystroke_a	a	n/a
74.5945	0.06	149189	keystroke_i	i	n/a
74.7445	0.09	149489	keystroke_n	n	n/a
75.0895	0.09	150179	keystroke_Key.enter	Key.enter	n/a
75.201	8.441	150402	prompt	n/a	effectively carol desperate slowly\n
75.9745	0.075	151949	keystroke_e	e	n/a
76.1695	0.075	152339	keystroke_f	f	n/a
76.2895	0.09	152579	keystroke_f	f	n/a
76.4395	0.075	152879	keystroke_e	e	n/a
76.6345	0.135	153269	keystroke_c	c	n/a
76.7395	0.105	153479	keystroke_t	t	n/a
76.9345	0.09	153869	keystroke_i	i	n/a
77.0555	0.104	154111	keystroke_v	v	n/a
77.1295	0.075	154259	keystroke_e	e	n/a
77.2945	0.12	154589	keystroke_l	l	n/a
77.4745	0.105	154949	keystroke_y	y	n/a
77.7295	0.105	155459	keystroke_Key.space	Key.space	n/a
77.9545	0.135	155909	keystroke_c	c	n/a
78.0595	0.18	156119	keystroke_a	a	n/a
78.2245	0.09	156449	keystroke_r	r	n/a
78.4645	0.091	156929	keystroke_o	o	n/a
78.7045	0.09	157409	keystroke_l	l	n/a
78.9745	0.09	157949	keystroke_Key.space	Key.space	n/a
80.0245	0.075	160049	keystroke_d	d	n/a
80.1745	0.075	160349	keystroke_e	e	n/a
80.3695	0.105	160739	keystroke_s	s	n/a
80.5495	0.09	161099	keystroke_p	p	n/a
80.9095	0.105	161819	keystroke_e	e	n/a
80.9995	0.105	161999	keystroke_r	r	n/a
81.1795	0.15	162359	keystroke_a	a	n/a
81.2845	0.09	162569	keystroke_t	t	n/a
81.3895	0.075	162779	keystroke_e	e	n/a
82.0045	0.105	164009	keystroke_Key.space	Key.space	n/a
82.1555	0.104	164311	keystroke_s	s	n/a
82.3045	0.106	164609	keystroke_l	l	n/a
82.5145	0.09	165029	keystroke_o	o	n/a
82.6645	0.075	165329	keystroke_w	w	n/a
82.9955	0.104	165991	keystroke_l	l	n/a
83.2495	0.075	166499	keystroke_y	y	n/a
83.5795	0.06	167159	keystroke_Key.enter	Key.enter	n/a
83.648	12.055	167296	prompt	n/a	prediction essentially tuition subsection\n
84.4945	0.09	168989	keystroke_p	p	n/a
84.7355	0.119	169471	keystroke_r	r	n/a
84.8095	0.09	169619	keystroke_e	e	n/a
85.0345	0.12	170069	keystroke_d	d	n/a
85.1695	0.075	170339	keystroke_i	i	n/a
85.3795	0.105	170759	keystroke_c	c	n/a
85.4855	0.089	170971	keystroke_t	t	n/a
85.5445	0.165	171089	keystroke_i	i	n/a
85.5895	0.166	171179	keystroke_o	o	n/a
85.6805	0.149	171361	keystroke_n	n	n/a
85.9195	0.105	171839	keystroke_Key.space	Key.space	n/a
86.3705	0.059	172741	keystroke_e	e	n/a
86.6095	0.045	173219	keystroke_s	s	n/a
86.7445	0.06	173489	keystroke_s	s	n/a
87.0905	0.074	174181	keystroke_e	e	n/a
87.5855	0.09	175171	keystroke_n	n	n/a
87.8095	0.06	175619	keystroke_t	t	n/a
88.3945	0.09	176789	keystroke_i	i	n/a
88.5595	0.075	177119	keystroke_a	a	n/a
88.6945	0.091	177389	keystroke_l	l	n/a
88.8605	0.104	177721	keystroke_l	l	n/a
89.0855	0.164	178171	keystroke_y	y	n/a
89.2045	0.12	178409	keystroke_Key.space	Key.space	n/a
89.5495	0.12	179099	keystroke_t	t	n/a
89.8345	0.091	179669	keystroke_u	u	n/a
90.5695	0.076	181139	keystroke_i	i	n/a
91.5605	0.074	183121	keystroke_t	t	n/a
91.7845	0.091	183569	keystroke_i	i	n/a
91.8905	0.164	183781	keystroke_o	o	n/a
92.0245	0.121	184049	keystroke_n	n	n/a
92.2195	0.09	184439	keystroke_Key.space	Key.space	n/a
93.2095	0.075	186419	keystroke_s	s	n/a
93.3755	0.09	186751	keystroke_u	u	n/a
93.6145	0.075	187229	keystroke_b	b	n/a
93.9295	0.09	187859	keystroke_s	s	n/a
94.0795	0.09	188159	keystroke_e	e	n/a
94.3205	0.089	188641	keystroke_c	c	n/a
94.6055	0.045	189211	keystroke_t	t	n/a
94.9345	0.091	189869	keystroke_i	i	n/a
95.1155	0.105	190231	keystroke_o	o	n/a
95.2945	0.091	190589	keystroke_n	n	n/a
95.6105	0.089	191221	keystroke_Key.enter	Key.enter	n/a
95.7085	8.259	191417	prompt	n/a	with thin rabbit interests\n
97.6805	0.105	195361	keystroke_w	w	n/a
98.0105	0.075	196021	keystroke_i	i	n/a
98.1305	0.075	196261	keystroke_t	t	n/a
98.2505	0.105	196501	keystroke_h	h	n/a
98.3255	0.119	196651	keystroke_Key.space	Key.space	n/a
98.5795	0.105	197159	keystroke_t	t	n/a
98.7155	0.089	197431	keystroke_h	h	n/a
98.8205	0.105	197641	keystroke_i	i	n/a
98.9705	0.105	197941	keystroke_n	n	n/a
99.0755	0.105	198151	keystroke_Key.space	Key.space	n/a
99.3755	0.059	198751	keystroke_r	r	n/a
99.4055	0.089	198811	keystroke_e	e	n/a
100.0195	0.075	200039	keystroke_Key.backspace	Key.backspace	n/a
100.1855	0.104	200371	keystroke_a	a	n/a
100.4105	0.074	200821	keystroke_b	b	n/a
100.5605	0.074	201121	keystroke_b	b	n/a
100.6955	0.105	201391	keystroke_i	i	n/a
100.8145	0.061	201629	keystroke_t	t	n/a
100.9045	0.12	201809	keystroke_Key.space	Key.space	n/a
101.2795	0.076	202559	keystroke_i	i	n/a
101.4605	0.104	202921	keystroke_n	n	n/a
101.5805	0.09	203161	keystroke_t	t	n/a
101.8345	0.106	203669	keystroke_e	e	n/a
101.9255	0.104	203851	keystroke_r	r	n/a
102.0445	0.091	204089	keystroke_e	e	n/a
102.3905	0.15	204781	keystroke_s	s	n/a
102.5095	0.091	205019	keystroke_t	t	n/a
102.7655	0.074	205531	keystroke_s	s	n/a
103.8905	0.074	207781	keystroke_Key.enter	Key.enter	n/a
103.973	16	207946	prompt	n/a	imagination talent arrive memphis\n
105.2705	0.105	210541	keystroke_m	m	n/a
105.6445	0.061	211289	keystroke_a	a	n/a
105.9005	0.075	211801	keystroke_g	g	n/a
106.0655	0.075	212131	keystroke_i	i	n/a
106.2155	0.105	212431	keystroke_n	n	n/a
106.4405	0.09	212881	keystroke_i	i	n/a
106.8755	0.105	213751	keystroke_a	a	n/a
107.0255	0.09	214051	keystroke_t	t	n/a
107.1305	0.21	214261	keystroke_i	i	n/a
107.205	0.1955	214410	keystroke_o	o	n/a
107.3105	0.12	214621	keystroke_n	n	n/a
107.4145	0.12	214829	keystroke_Key.space	Key.space	n/a
107.7305	0.105	215461	keystroke_t	t	n/a
108.584	0.091	217168	keystroke_Key.backspace	Key.backspace	n/a
108.7945	0.0595	217589	keystroke_Key.backspace	Key.backspace	n/a
108.9595	0.076	217919	keystroke_Key.backspace	Key.backspace	n/a
109.1255	0.09	218251	keystroke_Key.backspace	Key.backspace	n/a
109.3195	0.076	218639	keystroke_Key.backspace	Key.backspace	n/a
109.5	0.0605	219000	keystroke_Key.backspace	Key.backspace	n/a
109.6955	0.06	219391	keystroke_Key.backspace	Key.backspace	n/a
109.9495	0.09	219899	keystroke_Key.backspace	Key.backspace	n/a
110.1895	0.076	220379	keystroke_Key.backspace	Key.backspace	n/a
111.1355	0.09	222271	keystroke_n	n	n/a
111.2705	0.09	222541	keystroke_a	a	n/a
111.495	0.075	222990	keystroke_t	t	n/a
111.66	0.075	223320	keystroke_i	i	n/a
111.84	0.075	223680	keystroke_o	o	n/a
112.035	0.075	224070	keystroke_n	n	n/a
112.98	0.074	225960	keystroke_Key.space	Key.space	n/a
113.37	0.105	226740	keystroke_t	t	n/a
113.61	0.06	227220	keystroke_a	a	n/a
113.73	0.075	227460	keystroke_l	l	n/a
113.85	0.045	227700	keystroke_e	e	n/a
113.985	0.075	227970	keystroke_n	n	n/a
114.12	0.074	228240	keystroke_t	t	n/a
114.315	0.074	228630	keystroke_Key.space	Key.space	n/a
116.13	0.075	232260	keystroke_a	a	n/a
116.31	0.06	232620	keystroke_r	r	n/a
116.43	0.075	232860	keystroke_r	r	n/a
116.55	0.075	233100	keystroke_i	i	n/a
116.6405	0.1045	233281	keystroke_v	v	n/a
116.73	0.075	233460	keystroke_e	e	n/a
116.925	0.12	233850	keystroke_Key.space	Key.space	n/a
117.285	0.09	234570	keystroke_m	m	n/a
117.495	0.06	234990	keystroke_e	e	n/a
117.585	0.105	235170	keystroke_m	m	n/a
118.035	0.12	236070	keystroke_p	p	n/a
118.26	0.075	236520	keystroke_h	h	n/a
118.395	0.09	236790	keystroke_i	i	n/a
118.68	0.075	237360	keystroke_s	s	n/a
119.88	0.09	239760	keystroke_Key.enter	Key.enter	n/a
119.98	8.797	239960	prompt	n/a	adaptor bulk intensive through\n
121.245	0.045	242490	keystroke_a	a	n/a
121.41	0.06	242820	keystroke_d	d	n/a
121.635	0.09	243270	keystroke_a	a	n/a
121.8	0.09	243600	keystroke_p	p	n/a
122.04	0.06	244080	keystroke_t	t	n/a
122.19	0.105	244380	keystroke_o	o	n/a
122.265	0.075	244530	keystroke_r	r	n/a
122.4	0.09	244800	keystroke_Key.space	Key.space	n/a
122.7	0.105	245400	keystroke_b	b	n/a
123.06	0.09	246120	keystroke_u	u	n/a
123.24	0.09	246480	keystroke_l	l	n/a
123.51	0.075	247020	keystroke_k	k	n/a
123.645	0.12	247290	keystroke_Key.space	Key.space	n/a
123.825	0.09	247650	keystroke_i	i	n/a
123.975	0.105	247950	keystroke_n	n	n/a
124.2	0.075	248400	keystroke_t	t	n/a
124.395	0.045	248790	keystroke_e	e	n/a
124.53	0.09	249060	keystroke_n	n	n/a
124.695	0.09	249390	keystroke_s	s	n/a
124.815	0.075	249630	keystroke_i	i	n/a
125.04	0.105	250080	keystroke_v	v	n/a
125.1	0.06	250200	keystroke_e	e	n/a
125.82	0.105	251640	keystroke_Key.space	Key.space	n/a
126.135	0.075	252270	keystroke_t	t	n/a
126.435	0.12	252870	keystroke_h	h	n/a
126.645	0.0745	253290	keystroke_r	r	n/a
126.9745	0.135	253949	keystroke_o	o	n/a
127.0795	0.165	254159	keystroke_u	u	n/a
127.6645	0.06	255329	keystroke_g	g	n/a
127.7405	0.089	255481	keystroke_h	h	n/a
128.6995	0.075	257399	keystroke_Key.enter	Key.enter	n/a
128.7845	6.007	257569	prompt	n/a	morocco yeah nearly misc\n
129.5695	0.09	259139	keystroke_m	m	n/a
129.7495	0.09	259499	keystroke_o	o	n/a
129.8695	0.075	259739	keystroke_r	r	n/a
130.0195	0.09	260039	keystroke_o	o	n/a
130.2445	0.09	260489	keystroke_c	c	n/a
130.6195	0.075	261239	keystroke_c	c	n/a
130.7095	0.121	261419	keystroke_o	o	n/a
131.0245	0.075	262049	keystroke_Key.space	Key.space	n/a
131.6245	0.076	263249	keystroke_y	y	n/a
131.7145	0.105	263429	keystroke_e	e	n/a
131.8495	0.135	263699	keystroke_a	a	n/a
132.1045	0.106	264209	keystroke_h	h	n/a
132.2545	0.105	264509	keystroke_Key.space	Key.space	n/a
132.5395	0.09	265079	keystroke_n	n	n/a
132.6145	0.12	265229	keystroke_e	e	n/a
132.6895	0.12	265379	keystroke_a	a	n/a
132.7945	0.075	265589	keystroke_r	r	n/a
132.9295	0.105	265859	keystroke_l	l	n/a
133.1395	0.105	266279	keystroke_y	y	n/a
133.3195	0.12	266639	keystroke_Key.space	Key.space	n/a
133.5595	0.1195	267119	keystroke_m	m	n/a
133.664	0.135	267328	keystroke_i	i	n/a
133.784	0.091	267568	keystroke_s	s	n/a
134.054	0.075	268108	keystroke_c	c	n/a
134.699	0.09	269398	keystroke_Key.enter	Key.enter	n/a
134.7965	7.09	269593	prompt	n/a	head bargains cafe altered\n
135.75	0.104	271500	keystroke_h	h	n/a
136.019	0.09	272038	keystroke_e	e	n/a
136.154	0.075	272308	keystroke_a	a	n/a
136.365	0.059	272730	keystroke_d	d	n/a
136.469	0.12	272938	keystroke_Key.space	Key.space	n/a
136.709	0.135	273418	keystroke_b	b	n/a
136.889	0.136	273778	keystroke_a	a	n/a
136.994	0.09	273988	keystroke_r	r	n/a
137.234	0.105	274468	keystroke_g	g	n/a
137.369	0.105	274738	keystroke_a	a	n/a
137.564	0.075	275128	keystroke_i	i	n/a
137.684	0.12	275368	keystroke_n	n	n/a
137.819	0.075	275638	keystroke_s	s	n/a
137.954	0.12	275908	keystroke_Key.space	Key.space	n/a
138.194	0.121	276388	keystroke_c	c	n/a
138.509	0.075	277018	keystroke_a	a	n/a
138.689	0.09	277378	keystroke_f	f	n/a
138.854	0.075	277708	keystroke_e	e	n/a
139.004	0.09	278008	keystroke_Key.space	Key.space	n/a
139.199	0.106	278398	keystroke_a	a	n/a
139.319	0.09	278638	keystroke_l	l	n/a
139.604	0.09	279208	keystroke_t	t	n/a
139.785	0.075	279570	keystroke_e	e	n/a
139.845	0.119	279690	keystroke_r	r	n/a
139.949	0.09	279898	keystroke_e	e	n/a
140.205	0.074	280410	keystroke_d	d	n/a
141.794	0.09	283588	keystroke_Key.enter	Key.enter	n/a
141.89	13.7075	283780	prompt	n/a	brook integration biotechnology corps\n
142.919	0.09	285838	keystroke_b	b	n/a
143.19	0.074	286380	keystroke_r	r	n/a
143.429	0.061	286858	keystroke_o	o	n/a
143.565	0.104	287130	keystroke_o	o	n/a
143.759	0.15	287518	keystroke_k	k	n/a
143.879	0.165	287758	keystroke_Key.space	Key.space	n/a
144.105	0.089	288210	keystroke_i	i	n/a
144.269	0.105	288538	keystroke_n	n	n/a
144.494	0.091	288988	keystroke_t	t	n/a
144.675	0.074	289350	keystroke_e	e	n/a
144.944	0.136	289888	keystroke_g	g	n/a
145.184	0.091	290368	keystroke_r	r	n/a
145.335	0.12	290670	keystroke_a	a	n/a
145.469	0.076	290938	keystroke_t	t	n/a
145.605	0.195	291210	keystroke_i	i	n/a
145.71	0.2095	291420	keystroke_o	o	n/a
145.814	0.166	291628	keystroke_n	n	n/a
145.964	0.12	291928	keystroke_Key.space	Key.space	n/a
146.609	0.075	293218	keystroke_b	b	n/a
146.97	0.074	293940	keystroke_i	i	n/a
147.059	0.136	294118	keystroke_o	o	n/a
148.064	0.091	296128	keystroke_t	t	n/a
148.305	0.059	296610	keystroke_e	e	n/a
148.53	0.09	297060	keystroke_c	c	n/a
148.725	0.075	297450	keystroke_h	h	n/a
148.935	0.09	297870	keystroke_n	n	n/a
149.1	0.12	298200	keystroke_o	o	n/a
149.354	0.105	298708	keystroke_l	l	n/a
150.525	0.104	301050	keystroke_o	o	n/a
150.675	0.075	301350	keystroke_g	g	n/a
150.959	0.106	301918	keystroke_y	y	n/a
151.275	0.12	302550	keystroke_Key.space	Key.space	n/a
151.77	0.09	303540	keystroke_s	s	n/a
152.684	0.09	305368	keystroke_Key.backspace	Key.backspace	n/a
153.165	0.074	306330	keystroke_c	c	n/a
153.705	0.075	307410	keystroke_o	o	n/a
153.81	0.09	307620	keystroke_r	r	n/a
154.139	0.09	308278	keystroke_p	p	n/a
154.41	0.09	308820	keystroke_s	s	n/a
155.519	0.076	311038	keystroke_Key.enter	Key.enter	n/a
155.618	9.2935	311236	prompt	n/a	score offerings framing loads\n
156.36	0.075	312720	keystroke_s	s	n/a
156.63	0.09	313260	keystroke_c	c	n/a
156.75	0.089	313500	keystroke_o	o	n/a
156.975	0.075	313950	keystroke_r	r	n/a
157.065	0.075	314130	keystroke_e	e	n/a
157.23	0.075	314460	keystroke_Key.space	Key.space	n/a
157.365	0.105	314730	keystroke_o	o	n/a
157.515	0.06	315030	keystroke_f	f	n/a
157.65	0.075	315300	keystroke_f	f	n/a
157.8	0.075	315600	keystroke_e	e	n/a
157.86	0.075	315720	keystroke_r	r	n/a
157.95	0.074	315900	keystroke_e	e	n/a
158.655	0.075	317310	keystroke_i	i	n/a
159.525	0.075	319050	keystroke_Key.backspace	Key.backspace	n/a
159.69	0.09	319380	keystroke_Key.backspace	Key.backspace	n/a
159.975	0.075	319950	keystroke_i	i	n/a
160.14	0.105	320280	keystroke_n	n	n/a
160.245	0.06	320490	keystroke_g	g	n/a
160.545	0.09	321090	keystroke_s	s	n/a
160.755	0.12	321510	keystroke_Key.space	Key.space	n/a
161.1	0.075	322200	keystroke_f	f	n/a
161.265	0.09	322530	keystroke_a	a	n/a
161.775	0.075	323550	keystroke_Key.backspace	Key.backspace	n/a
161.94	0.075	323880	keystroke_r	r	n/a
162.06	0.105	324120	keystroke_a	a	n/a
162.225	0.105	324450	keystroke_m	m	n/a
162.36	0.075	324720	keystroke_i	i	n/a
162.525	0.104	325050	keystroke_n	n	n/a
162.9	0.045	325800	keystroke_g	g	n/a
163.32	0.105	326640	keystroke_Key.space	Key.space	n/a
163.485	0.12	326970	keystroke_l	l	n/a
163.695	0.105	327390	keystroke_o	o	n/a
163.74	0.105	327480	keystroke_a	a	n/a
163.935	0.09	327870	keystroke_d	d	n/a
164.205	0.075	328410	keystroke_s	s	n/a
164.82	0.09	329640	keystroke_Key.enter	Key.enter	n/a
164.917	18.745	329834	prompt	n/a	lucas review functionality regardless\n
165.885	0.105	331770	keystroke_l	l	n/a
166.08	0.09	332160	keystroke_u	u	n/a
166.305	0.105	332610	keystroke_c	c	n/a
166.44	0.09	332880	keystroke_a	a	n/a
166.635	0.09	333270	keystroke_s	s	n/a
166.755	0.105	333510	keystroke_Key.space	Key.space	n/a
166.9945	0.075	333989	keystroke_r	r	n/a
167.055	0.0895	334110	keystroke_e	e	n/a
167.34	0.06	334680	keystroke_v	v	n/a
167.55	0.09	335100	keystroke_i	i	n/a
167.6545	0.135	335309	keystroke_e	e	n/a
167.76	0.1345	335520	keystroke_w	w	n/a
168.075	0.09	336150	keystroke_Key.space	Key.space	n/a
168.4195	0.0455	336839	keystroke_f	f	n/a
168.5545	0.075	337109	keystroke_u	u	n/a
168.765	0.075	337530	keystroke_n	n	n/a
169.1845	0.075	338369	keystroke_t	t	n/a
169.2595	0.24	338519	keystroke_i	i	n/a
169.3495	0.195	338699	keystroke_o	o	n/a
169.4845	0.12	338969	keystroke_n	n	n/a
169.7545	0.075	339509	keystroke_a	a	n/a
169.8745	0.1055	339749	keystroke_l	l	n/a
170.1295	0.06	340259	keystroke_i	i	n/a
170.3095	0.06	340619	keystroke_t	t	n/a
170.5645	0.075	341129	keystroke_y	y	n/a
170.8945	0.0905	341789	keystroke_Key.space	Key.space	n/a
171.1195	0.075	342239	keystroke_r	r	n/a
171.165	0.1045	342330	keystroke_e	e	n/a
174.5575	0	349115	keystroke_Key.backspace	Key.backspace	n/a
174.7045	0.09	349409	keystroke_Key.backspace	Key.backspace	n/a
174.8995	0.09	349799	keystroke_Key.backspace	Key.backspace	n/a
175.1245	0.06	350249	keystroke_Key.backspace	Key.backspace	n/a
175.3495	0.06	350699	keystroke_Key.backspace	Key.backspace	n/a
175.6495	0.075	351299	keystroke_Key.backspace	Key.backspace	n/a
175.8895	0.105	351779	keystroke_Key.backspace	Key.backspace	n/a
176.1145	0.09	352229	keystroke_Key.backspace	Key.backspace	n/a
176.2945	0.12	352589	keystroke_Key.backspace	Key.backspace	n/a
176.5045	0.075	353009	keystroke_Key.backspace	Key.backspace	n/a
176.6995	0.075	353399	keystroke_Key.backspace	Key.backspace	n/a
177.7645	0.075	355529	keystroke_Key.backspace	Key.backspace	n/a
178.0045	0.09	356009	keystroke_c	c	n/a
178.2895	0.075	356579	keystroke_t	t	n/a
178.5295	0.105	357059	keystroke_i	i	n/a
178.6195	0.075	357239	keystroke_o	o	n/a
178.9345	0.09	357869	keystroke_n	n	n/a
179.2045	0.075	358409	keystroke_a	a	n/a
179.3545	0.135	358709	keystroke_l	l	n/a
179.6095	0.06	359219	keystroke_i	i	n/a
179.8345	0.075	359669	keystroke_t	t	n/a
180.0595	0.06	360119	keystroke_y	y	n/a
180.6445	0.105	361289	keystroke_Key.space	Key.space	n/a
181.1245	0.105	362249	keystroke_r	r	n/a
181.2305	0.104	362461	keystroke_e	e	n/a
181.5595	0.135	363119	keystroke_g	g	n/a
181.7845	0.12	363569	keystroke_a	a	n/a
181.8595	0.105	363719	keystroke_r	r	n/a
182.0845	0.105	364169	keystroke_d	d	n/a
182.2945	0.105	364589	keystroke_l	l	n/a
182.3845	0.075	364769	keystroke_e	e	n/a
182.5945	0.06	365189	keystroke_s	s	n/a
182.7145	0.09	365429	keystroke_s	s	n/a
183.5845	0.075	367169	keystroke_Key.enter	Key.enter	n/a
183.667	7.33	367334	prompt	n/a	shoppers math skype intend\n
184.5145	0.075	369029	keystroke_s	s	n/a
184.6795	0.105	369359	keystroke_h	h	n/a
185.3695	0.105	370739	keystroke_o	o	n/a
185.5945	0.09	371189	keystroke_p	p	n/a
185.7445	0.12	371489	keystroke_p	p	n/a
185.9245	0.105	371849	keystroke_e	e	n/a
185.9845	0.12	371969	keystroke_r	r	n/a
186.2095	0.105	372419	keystroke_s	s	n/a
186.3295	0.09	372659	keystroke_Key.space	Key.space	n/a
186.5245	0.105	373049	keystroke_m	m	n/a
186.5695	0.12	373139	keystroke_a	a	n/a
186.7795	0.06	373559	keystroke_t	t	n/a
186.8995	0.106	373799	keystroke_h	h	n/a
187.4695	0.09	374939	keystroke_Key.space	Key.space	n/a
187.6795	0.075	375359	keystroke_s	s	n/a
187.7695	0.09	375539	keystroke_k	k	n/a
188.0695	0.09	376139	keystroke_y	y	n/a
188.2645	0.105	376529	keystroke_p	p	n/a
188.4145	0.06	376829	keystroke_e	e	n/a
188.5645	0.09	377129	keystroke_Key.space	Key.space	n/a
188.7445	0.075	377489	keystroke_i	i	n/a
188.8795	0.135	377759	keystroke_n	n	n/a
189.0295	0.09	378059	keystroke_t	t	n/a
189.2095	0.075	378419	keystroke_e	e	n/a
189.4045	0.075	378809	keystroke_n	n	n/a
189.6445	0.075	379289	keystroke_d	d	n/a
190.9045	0.09	381809	keystroke_Key.enter	Key.enter	n/a
191.0015	8.7405	382003	prompt	n/a	inquire clients sciences health\n
191.7295	0.09	383459	keystroke_i	i	n/a
191.8945	0.09	383789	keystroke_n	n	n/a
192.3	0.089	384600	keystroke_q	q	n/a
192.464	0.106	384928	keystroke_u	u	n/a
192.689	0.075	385378	keystroke_i	i	n/a
192.78	0.075	385560	keystroke_r	r	n/a
192.824	0.076	385648	keystroke_e	e	n/a
193.184	0.075	386368	keystroke_Key.space	Key.space	n/a
193.71	0.09	387420	keystroke_c	c	n/a
193.83	0.09	387660	keystroke_l	l	n/a
194.085	0.09	388170	keystroke_i	i	n/a
194.19	0.06	388380	keystroke_e	e	n/a
194.31	0.105	388620	keystroke_n	n	n/a
194.43	0.075	388860	keystroke_t	t	n/a
194.55	0.09	389100	keystroke_s	s	n/a
194.91	0.075	389820	keystroke_Key.space	Key.space	n/a
195.4195	0.0605	390839	keystroke_s	s	n/a
195.6145	0.105	391229	keystroke_c	c	n/a
195.7495	0.075	391499	keystroke_i	i	n/a
196.0045	0.0605	392009	keystroke_e	e	n/a
196.14	0.0895	392280	keystroke_n	n	n/a
197.1595	0.09	394319	keystroke_c	c	n/a
197.3845	0.06	394769	keystroke_e	e	n/a
197.5195	0.105	395039	keystroke_s	s	n/a
197.6695	0.0905	395339	keystroke_Key.space	Key.space	n/a
197.9395	0.0905	395879	keystroke_h	h	n/a
197.985	0.0895	395970	keystroke_e	e	n/a
198.1195	0.0905	396239	keystroke_a	a	n/a
198.4495	0.075	396899	keystroke_l	l	n/a
198.5395	0.06	397079	keystroke_t	t	n/a
198.8095	0.06	397619	keystroke_h	h	n/a
199.6645	0.075	399329	keystroke_Key.enter	Key.enter	n/a
199.7495	7.1175	399499	prompt	n/a	had statements adidas monitors\n
200.4895	0.135	400979	keystroke_h	h	n/a
200.5945	0.075	401189	keystroke_a	a	n/a
200.8495	0.015	401699	keystroke_d	d	n/a
200.8795	0.0755	401759	keystroke_Key.space	Key.space	n/a
201.0445	0.15	402089	keystroke_s	s	n/a
201.1645	0.135	402329	keystroke_t	t	n/a
201.2845	0.135	402569	keystroke_a	a	n/a
201.4045	0.075	402809	keystroke_t	t	n/a
201.4645	0.075	402929	keystroke_e	e	n/a
201.6595	0.105	403319	keystroke_m	m	n/a
201.7495	0.075	403499	keystroke_e	e	n/a
201.8845	0.105	403769	keystroke_n	n	n/a
202.0045	0.12	404009	keystroke_t	t	n/a
202.1095	0.09	404219	keystroke_s	s	n/a
202.3795	0.105	404759	keystroke_Key.space	Key.space	n/a
202.8145	0.06	405629	keystroke_a	a	n/a
203.1295	0.06	406259	keystroke_d	d	n/a
203.2495	0.075	406499	keystroke_i	i	n/a
203.3995	0.075	406799	keystroke_d	d	n/a
203.5945	0.06	407189	keystroke_a	a	n/a
203.7745	0.075	407549	keystroke_s	s	n/a
203.9395	0.09	407879	keystroke_Key.space	Key.space	n/a
204.2095	0.105	408419	keystroke_m	m	n/a
204.3595	0.105	408719	keystroke_o	o	n/a
204.8095	0.105	409619	keystroke_n	n	n/a
204.9895	0.12	409979	keystroke_i	i	n/a
205.1395	0.06	410279	keystroke_t	t	n/a
205.2445	0.09	410489	keystroke_o	o	n/a
205.3495	0.075	410699	keystroke_r	r	n/a
205.5895	0.09	411179	keystroke_s	s	n/a
206.7595	0.105	413519	keystroke_Key.enter	Key.enter	n/a
206.872	9.1895	413744	prompt	n/a	catering registry musical plaintiff\n
207.7945	0.105	415589	keystroke_c	c	n/a
207.9145	0.15	415829	keystroke_a	a	n/a
208.1245	0.075	416249	keystroke_t	t	n/a
208.365	0.0595	416730	keystroke_e	e	n/a
208.3945	0.12	416789	keystroke_r	r	n/a
208.7095	0.075	417419	keystroke_i	i	n/a
208.8745	0.105	417749	keystroke_n	n	n/a
208.9945	0.075	417989	keystroke_g	g	n/a
209.1595	0.12	418319	keystroke_Key.space	Key.space	n/a
209.6995	0.09	419399	keystroke_r	r	n/a
209.7745	0.12	419549	keystroke_e	e	n/a
210.0445	0.075	420089	keystroke_g	g	n/a
210.1945	0.075	420389	keystroke_i	i	n/a
210.3145	0.15	420629	keystroke_s	s	n/a
210.4045	0.105	420809	keystroke_t	t	n/a
210.6145	0.045	421229	keystroke_r	r	n/a
210.8245	0.135	421649	keystroke_y	y	n/a
210.9745	0.165	421949	keystroke_Key.space	Key.space	n/a
212.2195	0.09	424439	keystroke_m	m	n/a
212.4595	0.105	424919	keystroke_u	u	n/a
212.9395	0.105	425879	keystroke_s	s	n/a
213.0895	0.105	426179	keystroke_i	i	n/a
213.2545	0.136	426509	keystroke_c	c	n/a
213.3745	0.09	426749	keystroke_a	a	n/a
213.5245	0.136	427049	keystroke_l	l	n/a
213.6445	0.135	427289	keystroke_Key.space	Key.space	n/a
213.9895	0.135	427979	keystroke_p	p	n/a
214.2445	0.15	428489	keystroke_l	l	n/a
214.4545	0.09	428909	keystroke_a	a	n/a
214.5595	0.075	429119	keystroke_i	i	n/a
214.7545	0.105	429509	keystroke_n	n	n/a
215.0095	0.105	430019	keystroke_t	t	n/a
215.1295	0.09	430259	keystroke_i	i	n/a
215.3545	0.03	430709	keystroke_f	f	n/a
215.4595	0.075	430919	keystroke_f	f	n/a
215.9845	0.075	431969	keystroke_Key.enter	Key.enter	n/a
216.0675	10.015	432135	prompt	n/a	titans ballot edited rendered\n
217.1245	0.09	434249	keystroke_t	t	n/a
217.2295	0.09	434459	keystroke_i	i	n/a
217.3495	0.105	434699	keystroke_t	t	n/a
217.4845	0.09	434969	keystroke_a	a	n/a
217.6195	0.12	435239	keystroke_n	n	n/a
217.7845	0.105	435569	keystroke_s	s	n/a
218.0245	0.09	436049	keystroke_Key.space	Key.space	n/a
218.6245	0.105	437249	keystroke_b	b	n/a
218.9545	0.06	437909	keystroke_e	e	n/a
219.9295	0.105	439859	keystroke_Key.backspace	Key.backspace	n/a
220.0495	0.09	440099	keystroke_a	a	n/a
220.2445	0.105	440489	keystroke_l	l	n/a
220.5445	0.015	441089	keystroke_l	l	n/a
220.6645	0.09	441329	keystroke_o	o	n/a
220.7245	0.075	441449	keystroke_t	t	n/a
220.8895	0.09	441779	keystroke_Key.space	Key.space	n/a
221.0695	0.06	442139	keystroke_e	e	n/a
221.2495	0.105	442499	keystroke_d	d	n/a
221.3395	0.06	442679	keystroke_i	i	n/a
222.1495	0.09	444299	keystroke_t	t	n/a
222.2695	0.09	444539	keystroke_e	e	n/a
222.4945	0.06	444989	keystroke_d	d	n/a
222.7495	0.105	445499	keystroke_Key.space	Key.space	n/a
223.1245	0.091	446249	keystroke_r	r	n/a
223.1845	0.105	446369	keystroke_e	e	n/a
223.4095	0.075	446819	keystroke_n	n	n/a
223.5145	0.09	447029	keystroke_d	d	n/a
224.4745	0.12	448949	keystroke_e	e	n/a
224.5495	0.105	449099	keystroke_r	r	n/a
224.6995	0.09	449399	keystroke_e	e	n/a
224.9395	0.075	449879	keystroke_d	d	n/a
225.9745	0.105	451949	keystroke_Key.enter	Key.enter	n/a
226.089	12.262	452178	prompt	n/a	branches medicare healthcare latin\n
227.1595	0.06	454319	keystroke_b	b	n/a
227.4595	0.045	454919	keystroke_r	r	n/a
227.5795	0.09	455159	keystroke_a	a	n/a
227.8495	0.15	455699	keystroke_n	n	n/a
228.1795	0.09	456359	keystroke_c	c	n/a
228.3145	0.075	456629	keystroke_h	h	n/a
228.6145	0.045	457229	keystroke_e	e	n/a
228.8245	0.075	457649	keystroke_s	s	n/a
229.0945	0.1195	458189	keystroke_Key.space	Key.space	n/a
229.784	0.105	459568	keystroke_m	m	n/a
229.919	0.09	459838	keystroke_e	e	n/a
230.1305	0.074	460261	keystroke_d	d	n/a
230.2345	0.09	460469	keystroke_i	i	n/a
230.4295	0.09	460859	keystroke_c	c	n/a
230.64	0.06	461280	keystroke_a	a	n/a
230.789	0.075	461578	keystroke_r	r	n/a
230.954	0.06	461908	keystroke_e	e	n/a
231.314	0.09	462628	keystroke_Key.space	Key.space	n/a
232.844	0.105	465688	keystroke_h	h	n/a
233.16	0.044	466320	keystroke_e	e	n/a
233.249	0.105	466498	keystroke_a	a	n/a
233.534	0.06	467068	keystroke_t	t	n/a
234.584	0.09	469168	keystroke_Key.backspace	Key.backspace	n/a
234.885	0.12	469770	keystroke_l	l	n/a
235.184	0.09	470368	keystroke_t	t	n/a
235.379	0.09	470758	keystroke_h	h	n/a
236.22	0.059	472440	keystroke_c	c	n/a
236.399	0.09	472798	keystroke_a	a	n/a
236.564	0.09	473128	keystroke_r	r	n/a
236.759	0.075	473518	keystroke_e	e	n/a
236.939	0.12	473878	keystroke_Key.space	Key.space	n/a
237.1945	0.135	474389	keystroke_l	l	n/a
237.2695	0.12	474539	keystroke_a	a	n/a
237.4495	0.09	474899	keystroke_t	t	n/a
237.6295	0.075	475259	keystroke_i	i	n/a
237.7945	0.075	475589	keystroke_n	n	n/a
238.2745	0.075	476549	keystroke_Key.enter	Key.enter	n/a
238.355	12.476	476710	prompt	n/a	hazard up chronicles liver\n
239.3395	0.105	478679	keystroke_h	h	n/a
239.4295	0.075	478859	keystroke_a	a	n/a
239.6995	0.09	479399	keystroke_z	z	n/a
239.9845	0.12	479969	keystroke_a	a	n/a
240.0595	0.135	480119	keystroke_r	r	n/a
240.5245	0.075	481049	keystroke_d	d	n/a
240.7345	0.09	481469	keystroke_Key.space	Key.space	n/a
241.2445	0.165	482489	keystroke_u	u	n/a
241.3495	0.15	482699	keystroke_p	p	n/a
241.5295	0.135	483059	keystroke_Key.space	Key.space	n/a
241.8745	0.105	483749	keystroke_c	c	n/a
242.1145	0.09	484229	keystroke_h	h	n/a
242.3545	0.075	484709	keystroke_r	r	n/a
242.4895	0.075	484979	keystroke_i	i	n/a
243.0745	0.075	486149	keystroke_n	n	n/a
243.3895	0.075	486779	keystroke_i	i	n/a
243.5545	0.09	487109	keystroke_c	c	n/a
243.6745	0.12	487349	keystroke_l	l	n/a
243.8245	0.075	487649	keystroke_e	e	n/a
244.0345	0.075	488069	keystroke_s	s	n/a
245.0845	0.105	490169	keystroke_Key.backspace	Key.backspace	n/a
245.2795	0.12	490559	keystroke_Key.backspace	Key.backspace	n/a
245.5045	0.105	491009	keystroke_Key.backspace	Key.backspace	n/a
245.7145	0.105	491429	keystroke_Key.backspace	Key.backspace	n/a
245.9395	0.105	491879	keystroke_Key.backspace	Key.backspace	n/a
246.1645	0.105	492329	keystroke_Key.backspace	Key.backspace	n/a
246.3745	0.105	492749	keystroke_Key.backspace	Key.backspace	n/a
247.5595	0.105	495119	keystroke_o	o	n/a
247.7845	0.105	495569	keystroke_n	n	n/a
247.9795	0.09	495959	keystroke_i	i	n/a
248.2945	0.09	496589	keystroke_c	c	n/a
248.4145	0.105	496829	keystroke_l	l	n/a
248.5645	0.075	497129	keystroke_e	e	n/a
248.7745	0.09	497549	keystroke_s	s	n/a
248.9245	0.105	497849	keystroke_Key.space	Key.space	n/a
249.1195	0.09	498239	keystroke_l	l	n/a
249.4045	0.075	498809	keystroke_i	i	n/a
249.5545	0.09	499109	keystroke_v	v	n/a
249.7345	0.12	499469	keystroke_e	e	n/a
249.7945	0.075	499589	keystroke_r	r	n/a
250.7245	0.105	501449	keystroke_Key.enter	Key.enter	n/a
250.8365	11.5	501673	prompt	n/a	expansys gamma seats wedding\n
252.6445	0.1645	505289	keystroke_s	s	n/a
254.234	0.075	508468	keystroke_Key.backspace	Key.backspace	n/a
254.444	0.075	508888	keystroke_e	e	n/a
254.714	0.105	509428	keystroke_x	x	n/a
255.089	0.075	510178	keystroke_p	p	n/a
255.239	0.075	510478	keystroke_a	a	n/a
255.374	0.135	510748	keystroke_n	n	n/a
255.944	0.075	511888	keystroke_s	s	n/a
256.154	0.09	512308	keystroke_y	y	n/a
256.304	0.075	512608	keystroke_s	s	n/a
256.874	0.09	513748	keystroke_Key.space	Key.space	n/a
257.294	0.105	514588	keystroke_g	g	n/a
257.444	0.09	514888	keystroke_a	a	n/a
257.654	0.06	515308	keystroke_m	m	n/a
257.819	0.09	515638	keystroke_m	m	n/a
257.969	0.09	515938	keystroke_a	a	n/a
259.229	0.105	518458	keystroke_Key.space	Key.space	n/a
259.484	0.06	518968	keystroke_s	s	n/a
259.634	0.045	519268	keystroke_e	e	n/a
259.724	0.135	519448	keystroke_a	a	n/a
259.86	0.074	519720	keystroke_t	t	n/a
260.144	0.075	520288	keystroke_s	s	n/a
260.249	0.12	520498	keystroke_Key.space	Key.space	n/a
260.504	0.105	521008	keystroke_w	w	n/a
260.684	0.075	521368	keystroke_e	e	n/a
260.999	0.06	521998	keystroke_d	d	n/a
261.149	0.045	522298	keystroke_d	d	n/a
261.224	0.06	522448	keystroke_i	i	n/a
261.374	0.075	522748	keystroke_n	n	n/a
261.479	0.06	522958	keystroke_g	g	n/a
262.229	0.105	524458	keystroke_Key.enter	Key.enter	n/a
262.3525	21.7685	524705	prompt	n/a	maldives actor files convertible\n
263.519	0.09	527038	keystroke_m	m	n/a
263.61	0.074	527220	keystroke_a	a	n/a
263.759	0.105	527518	keystroke_l	l	n/a
264.509	0.075	529018	keystroke_d	d	n/a
264.614	0.075	529228	keystroke_i	i	n/a
265.409	0.06	530818	keystroke_v	v	n/a
265.754	0.06	531508	keystroke_e	e	n/a
265.949	0.075	531898	keystroke_s	s	n/a
266.039	0.12	532078	keystroke_Key.space	Key.space	n/a
266.879	0.075	533758	keystroke_a	a	n/a
267.089	0.135	534178	keystroke_c	c	n/a
267.239	0.105	534478	keystroke_t	t	n/a
267.419	0.105	534838	keystroke_o	o	n/a
267.569	0.06	535138	keystroke_r	r	n/a
267.779	0.045	535558	keystroke_Key.space	Key.space	n/a
268.124	0.075	536248	keystroke_f	f	n/a
268.214	0.09	536428	keystroke_i	i	n/a
268.409	0.12	536818	keystroke_l	l	n/a
268.514	0.09	537028	keystroke_s	s	n/a
269.489	0.09	538978	keystroke_Key.backspace	Key.backspace	n/a
269.594	0.075	539188	keystroke_e	e	n/a
269.864	0.075	539728	keystroke_s	s	n/a
270.029	0.09	540058	keystroke_Key.space	Key.space	n/a
270.344	0.105	540688	keystroke_c	c	n/a
270.464	0.105	540928	keystroke_o	o	n/a
270.659	0.09	541318	keystroke_n	n	n/a
270.75	0.074	541500	keystroke_v	v	n/a
270.974	0.075	541948	keystroke_e	e	n/a
271.019	0.105	542038	keystroke_r	r	n/a
271.244	0.06	542488	keystroke_t	t	n/a
271.559	0.075	543118	keystroke_i	i	n/a
271.694	0.09	543388	keystroke_b	b	n/a
271.934	0.12	543868	keystroke_l	l	n/a
272.069	0.075	544138	keystroke_e	e	n/a
284.118	0	568236	keystroke_Key.enter	Key.enter	n/a
284.126	13.3705	568252	prompt	n/a	dodge consolidated tough receiver\n
288.138	0.012	576276	keystroke_d	d	n/a
288.21	0.09	576420	keystroke_o	o	n/a
288.285	0.075	576570	keystroke_d	d	n/a
288.525	0.075	577050	keystroke_g	g	n/a
288.644	0.076	577288	keystroke_e	e	n/a
288.96	0.089	577920	keystroke_Key.space	Key.space	n/a
289.4845	0.0905	578969	keystroke_c	c	n/a
289.59	0.089	579180	keystroke_o	o	n/a
289.769	0.106	579538	keystroke_n	n	n/a
289.89	0.09	579780	keystroke_s	s	n/a
290.28	0.089	580560	keystroke_o	o	n/a
290.505	0.0885	581010	keystroke_l	l	n/a
290.7	0.074	581400	keystroke_i	i	n/a
290.79	0.0745	581580	keystroke_d	d	n/a
290.8795	0.105	581759	keystroke_a	a	n/a
290.9695	0.105	581939	keystroke_t	t	n/a
291.0435	0.076	582087	keystroke_e	e	n/a
291.2245	0.075	582449	keystroke_d	d	n/a
291.3595	0.09	582719	keystroke_Key.space	Key.space	n/a
291.7345	0.12	583469	keystroke_t	t	n/a
292.3645	0.12	584729	keystroke_o	o	n/a
292.4245	0.1505	584849	keystroke_u	u	n/a
292.77	0.059	585540	keystroke_g	g	n/a
292.845	0.1195	585690	keystroke_h	h	n/a
293.0535	0.0755	586107	keystroke_Key.space	Key.space	n/a
293.6695	0.0905	587339	keystroke_r	r	n/a
293.745	0.0595	587490	keystroke_e	e	n/a
294.1495	0.06	588299	keystroke_e	e	n/a
295.4545	0.089	590909	keystroke_Key.backspace	Key.backspace	n/a
295.6345	0.09	591269	keystroke_c	c	n/a
295.8595	0.075	591719	keystroke_e	e	n/a
296.1145	0.075	592229	keystroke_i	i	n/a
296.2495	0.075	592499	keystroke_v	v	n/a
296.4145	0.105	592829	keystroke_e	e	n/a
296.49	0.0585	592980	keystroke_r	r	n/a
297.3895	0.105	594779	keystroke_Key.enter	Key.enter	n/a
297.5015	16.405	595003	prompt	n/a	results infectious patent renewable\n
298.3345	0.105	596669	keystroke_r	r	n/a
298.4095	0.075	596819	keystroke_e	e	n/a
298.6195	0.12	597239	keystroke_s	s	n/a
299.1895	0.105	598379	keystroke_u	u	n/a
299.3845	0.105	598769	keystroke_l	l	n/a
299.4595	0.105	598919	keystroke_t	t	n/a
299.6095	0.09	599219	keystroke_s	s	n/a
299.8045	0.105	599609	keystroke_Key.space	Key.space	n/a
300.0595	0.09	600119	keystroke_i	i	n/a
300.5845	0.09	601169	keystroke_n	n	n/a
300.7495	0.12	601499	keystroke_f	f	n/a
300.9895	0.045	601979	keystroke_e	e	n/a
301.3495	0.105	602699	keystroke_t	t	n/a
303.179	0.09	606358	keystroke_Key.backspace	Key.backspace	n/a
303.449	0.015	606898	keystroke_c	c	n/a
303.599	0.06	607198	keystroke_t	t	n/a
303.704	0.225	607408	keystroke_i	i	n/a
303.779	0.211	607558	keystroke_o	o	n/a
303.899	0.105	607798	keystroke_n	n	n/a
304.829	0.09	609658	keystroke_Key.backspace	Key.backspace	n/a
304.904	0.09	609808	keystroke_s	s	n/a
305.474	0.105	610948	keystroke_Key.space	Key.space	n/a
305.879	0.09	611758	keystroke_p	p	n/a
307.664	0.15	615328	keystroke_Key.backspace	Key.backspace	n/a
307.979	0.135	615958	keystroke_Key.backspace	Key.backspace	n/a
308.249	0.105	616498	keystroke_Key.backspace	Key.backspace	n/a
308.969	0.106	617938	keystroke_u	u	n/a
309.014	0.09	618028	keystroke_s	s	n/a
309.254	0.075	618508	keystroke_Key.space	Key.space	n/a
309.644	0.09	619288	keystroke_p	p	n/a
309.794	0.09	619588	keystroke_a	a	n/a
309.974	0.09	619948	keystroke_t	t	n/a
310.154	0.06	620308	keystroke_e	e	n/a
310.319	0.12	620638	keystroke_n	n	n/a
310.499	0.045	620998	keystroke_t	t	n/a
310.589	0.09	621178	keystroke_Key.space	Key.space	n/a
311.264	0.09	622528	keystroke_r	r	n/a
311.309	0.105	622618	keystroke_e	e	n/a
311.549	0.075	623098	keystroke_n	n	n/a
311.61	0.089	623220	keystroke_e	e	n/a
312.314	0.09	624628	keystroke_w	w	n/a
312.509	0.075	625018	keystroke_a	a	n/a
312.764	0.075	625528	keystroke_b	b	n/a
312.959	0.06	625918	keystroke_l	l	n/a
312.989	0.06	625978	keystroke_e	e	n/a
313.814	0.09	627628	keystroke_Key.enter	Key.enter	n/a
313.9105	12.821	627821	prompt	n/a	assembled removable minutes starsmerchant\n
314.925	0.044	629850	keystroke_a	a	n/a
315.09	0.074	630180	keystroke_s	s	n/a
315.239	0.105	630478	keystroke_s	s	n/a
315.78	0.059	631560	keystroke_e	e	n/a
315.899	0.09	631798	keystroke_m	m	n/a
316.14	0.059	632280	keystroke_b	b	n/a
316.349	0.09	632698	keystroke_l	l	n/a
316.454	0.06	632908	keystroke_e	e	n/a
316.679	0.075	633358	keystroke_d	d	n/a
316.799	0.09	633598	keystroke_Key.space	Key.space	n/a
317.174	0.076	634348	keystroke_r	r	n/a
317.234	0.09	634468	keystroke_e	e	n/a
317.474	0.09	634948	keystroke_m	m	n/a
317.654	0.106	635308	keystroke_o	o	n/a
317.819	0.075	635638	keystroke_v	v	n/a
317.94	0.09	635880	keystroke_e	e	n/a
319.019	0.105	638038	keystroke_Key.backspace	Key.backspace	n/a
319.139	0.091	638278	keystroke_a	a	n/a
319.38	0.09	638760	keystroke_b	b	n/a
319.53	0.134	639060	keystroke_l	l	n/a
319.649	0.061	639298	keystroke_e	e	n/a
319.814	0.09	639628	keystroke_Key.space	Key.space	n/a
320.04	0.09	640080	keystroke_m	m	n/a
320.159	0.105	640318	keystroke_i	i	n/a
320.34	0.104	640680	keystroke_n	n	n/a
320.609	0.09	641218	keystroke_u	u	n/a
320.685	0.09	641370	keystroke_t	t	n/a
320.745	0.105	641490	keystroke_e	e	n/a
320.999	0.09	641998	keystroke_s	s	n/a
321.149	0.09	642298	keystroke_Key.space	Key.space	n/a
322.259	0.12	644518	keystroke_s	s	n/a
322.59	0.119	645180	keystroke_t	t	n/a
322.814	0.105	645628	keystroke_a	a	n/a
323.024	0.076	646048	keystroke_r	r	n/a
323.324	0.075	646648	keystroke_s	s	n/a
323.88	0.105	647760	keystroke_m	m	n/a
324.119	0.12	648238	keystroke_e	e	n/a
324.224	0.135	648448	keystroke_r	r	n/a
324.569	0.121	649138	keystroke_c	c	n/a
324.915	0.089	649830	keystroke_h	h	n/a
325.005	0.105	650010	keystroke_a	a	n/a
325.139	0.106	650278	keystroke_n	n	n/a
325.379	0.06	650758	keystroke_t	t	n/a
326.624	0.105	653248	keystroke_Key.enter	Key.enter	n/a
326.7365	10.2245	653473	prompt	n/a	stays delight barry threaded\n
327.675	0.059	655350	keystroke_s	s	n/a
327.869	0.106	655738	keystroke_t	t	n/a
328.124	0.061	656248	keystroke_a	a	n/a
328.56	0.09	657120	keystroke_y	y	n/a
328.919	0.076	657838	keystroke_s	s	n/a
329.054	0.105	658108	keystroke_Key.space	Key.space	n/a
330.0595	0.075	660119	keystroke_d	d	n/a
330.4195	0.075	660839	keystroke_e	e	n/a
330.7345	0.105	661469	keystroke_l	l	n/a
330.9445	0.12	661889	keystroke_i	i	n/a
331.0795	0.09	662159	keystroke_g	g	n/a
331.2445	0.12	662489	keystroke_h	h	n/a
331.3795	0.03	662759	keystroke_t	t	n/a
331.9045	0.09	663809	keystroke_Key.space	Key.space	n/a
332.2345	0.075	664469	keystroke_b	b	n/a
332.3395	0.135	664679	keystroke_a	a	n/a
332.5945	0.06	665189	keystroke_r	r	n/a
332.7295	0.075	665459	keystroke_r	r	n/a
332.9545	0.135	665909	keystroke_y	y	n/a
333.0595	0.105	666119	keystroke_Key.space	Key.space	n/a
333.3595	0.075	666719	keystroke_t	t	n/a
333.6595	0.09	667319	keystroke_h	h	n/a
334.2145	0.105	668429	keystroke_r	r	n/a
334.4695	0.075	668939	keystroke_e	e	n/a
334.7395	0.09	669479	keystroke_a	a	n/a
334.9795	0.075	669959	keystroke_d	d	n/a
335.1595	0.06	670319	keystroke_e	e	n/a
335.3395	0.06	670679	keystroke_d	d	n/a
336.8695	0.09	673739	keystroke_Key.enter	Key.enter	n/a
336.9655	8.831	673931	prompt	n/a	granny collect shoes troubleshooting\n
337.8445	0.075	675689	keystroke_g	g	n/a
338.0395	0.075	676079	keystroke_r	r	n/a
338.1295	0.075	676259	keystroke_a	a	n/a
338.4595	0.06	676919	keystroke_n	n	n/a
338.5945	0.09	677189	keystroke_n	n	n/a
338.8645	0.15	677729	keystroke_y	y	n/a
338.9695	0.15	677939	keystroke_Key.space	Key.space	n/a
339.1945	0.12	678389	keystroke_c	c	n/a
339.3295	0.09	678659	keystroke_o	o	n/a
339.5545	0.09	679109	keystroke_l	l	n/a
339.7645	0.075	679529	keystroke_l	l	n/a
339.8095	0.09	679619	keystroke_e	e	n/a
340.0345	0.165	680069	keystroke_c	c	n/a
340.1845	0.09	680369	keystroke_t	t	n/a
340.3045	0.105	680609	keystroke_Key.space	Key.space	n/a
340.4845	0.09	680969	keystroke_s	s	n/a
340.5895	0.09	681179	keystroke_h	h	n/a
340.7395	0.105	681479	keystroke_o	o	n/a
340.8745	0.06	681749	keystroke_e	e	n/a
341.0845	0.09	682169	keystroke_s	s	n/a
341.1595	0.105	682319	keystroke_Key.space	Key.space	n/a
341.4445	0.09	682889	keystroke_t	t	n/a
341.6395	0.06	683279	keystroke_r	r	n/a
341.7745	0.12	683549	keystroke_o	o	n/a
341.9095	0.06	683819	keystroke_u	u	n/a
342.5845	0.075	685169	keystroke_b	b	n/a
342.6895	0.12	685379	keystroke_l	l	n/a
342.8395	0.045	685679	keystroke_e	e	n/a
343.6795	0.075	687359	keystroke_s	s	n/a
343.7995	0.1045	687599	keystroke_h	h	n/a
343.9645	0.075	687929	keystroke_o	o	n/a
344.1445	0.12	688289	keystroke_o	o	n/a
344.564	0.075	689128	keystroke_t	t	n/a
344.654	0.09	689308	keystroke_i	i	n/a
344.864	0.12	689728	keystroke_n	n	n/a
344.969	0.06	689938	keystroke_g	g	n/a
345.689	0.105	691378	keystroke_Key.enter	Key.enter	n/a
345.804	9.817	691608	prompt	n/a	resolve pool usps indianapolis\n
346.739	0.105	693478	keystroke_r	r	n/a
346.829	0.105	693658	keystroke_e	e	n/a
347.054	0.105	694108	keystroke_s	s	n/a
347.16	0.089	694320	keystroke_o	o	n/a
347.369	0.135	694738	keystroke_l	l	n/a
347.429	0.105	694858	keystroke_v	v	n/a
347.489	0.075	694978	keystroke_e	e	n/a
347.699	0.12	695398	keystroke_Key.space	Key.space	n/a
347.894	0.12	695788	keystroke_p	p	n/a
348.089	0.075	696178	keystroke_o	o	n/a
348.254	0.09	696508	keystroke_o	o	n/a
348.509	0.12	697018	keystroke_l	l	n/a
348.764	0.1055	697528	keystroke_Key.space	Key.space	n/a
349.2145	0.09	698429	keystroke_u	u	n/a
349.7245	0.075	699449	keystroke_s	s	n/a
349.8145	0.09	699629	keystroke_p	p	n/a
349.9645	0.09	699929	keystroke_s	s	n/a
350.3395	0.104	700679	keystroke_Key.space	Key.space	n/a
350.6685	0.076	701337	keystroke_i	i	n/a
352.3345	0.09	704669	keystroke_n	n	n/a
352.9345	0.075	705869	keystroke_d	d	n/a
353.1145	0.075	706229	keystroke_i	i	n/a
353.3095	0.075	706619	keystroke_a	a	n/a
353.6095	0.09	707219	keystroke_n	n	n/a
353.9245	0.045	707849	keystroke_a	a	n/a
354.2245	0.105	708449	keystroke_p	p	n/a
354.4645	0.09	708929	keystroke_o	o	n/a
354.6745	0.12	709349	keystroke_l	l	n/a
354.9145	0.045	709829	keystroke_i	i	n/a
355.0345	0.09	710069	keystroke_s	s	n/a
355.5295	0.09	711059	keystroke_Key.enter	Key.enter	n/a
355.625	8.6225	711250	prompt	n/a	practices lawrence neil walked\n
356.7295	0.09	713459	keystroke_p	p	n/a
356.8345	0.135	713669	keystroke_r	r	n/a
357.3445	0.06	714689	keystroke_a	a	n/a
357.5545	0.15	715109	keystroke_c	c	n/a
357.7345	0.075	715469	keystroke_t	t	n/a
357.8845	0.075	715769	keystroke_i	i	n/a
358.0195	0.09	716039	keystroke_c	c	n/a
358.2145	0.06	716429	keystroke_e	e	n/a
358.4095	0.075	716819	keystroke_s	s	n/a
358.5445	0.09	717089	keystroke_Key.space	Key.space	n/a
358.9195	0.09	717839	keystroke_l	l	n/a
359.3095	0.06	718619	keystroke_a	a	n/a
359.4895	0.075	718979	keystroke_w	w	n/a
359.7595	0.075	719519	keystroke_r	r	n/a
359.9845	0.075	719969	keystroke_e	e	n/a
360.1345	0.135	720269	keystroke_n	n	n/a
360.2845	0.105	720569	keystroke_c	c	n/a
360.4945	0.045	720989	keystroke_e	e	n/a
360.6145	0.09	721229	keystroke_Key.space	Key.space	n/a
360.8545	0.12	721709	keystroke_n	n	n/a
360.9595	0.075	721919	keystroke_e	e	n/a
361.1545	0.09	722309	keystroke_i	i	n/a
361.3645	0.12	722729	keystroke_l	l	n/a
361.4995	0.12	722999	keystroke_Key.space	Key.space	n/a
362.0695	0.075	724139	keystroke_w	w	n/a
362.3095	0.06	724619	keystroke_a	a	n/a
362.4895	0.12	724979	keystroke_l	l	n/a
362.7305	0.089	725461	keystroke_k	k	n/a
362.8495	0.075	725699	keystroke_e	e	n/a
363.0595	0.075	726119	keystroke_d	d	n/a
364.1545	0.09	728309	keystroke_Key.enter	Key.enter	n/a
364.253	9.2775	728506	prompt	n/a	filing or generous export\n
364.9795	0.06	729959	keystroke_f	f	n/a
365.0845	0.09	730169	keystroke_i	i	n/a
365.2945	0.135	730589	keystroke_l	l	n/a
365.5345	0.075	731069	keystroke_i	i	n/a
365.7745	0.09	731549	keystroke_n	n	n/a
365.8795	0.06	731759	keystroke_g	g	n/a
366.0145	0.09	732029	keystroke_Key.space	Key.space	n/a
367.1395	0.12	734279	keystroke_o	o	n/a
367.2745	0.075	734549	keystroke_r	r	n/a
367.3795	0.12	734759	keystroke_Key.space	Key.space	n/a
370.4725	0.027	740945	keystroke_g	g	n/a
370.5745	0.09	741149	keystroke_e	e	n/a
370.7245	0.105	741449	keystroke_n	n	n/a
371.009	0.12	742018	keystroke_e	e	n/a
371.084	0.105	742168	keystroke_r	r	n/a
371.369	0.135	742738	keystroke_o	o	n/a
371.444	0.12	742888	keystroke_u	u	n/a
371.579	0.105	743158	keystroke_s	s	n/a
371.714	0.12	743428	keystroke_Key.space	Key.space	n/a
372.059	0.06	744118	keystroke_e	e	n/a
372.284	0.12	744568	keystroke_x	x	n/a
372.389	0.09	744778	keystroke_p	p	n/a
372.614	0.105	745228	keystroke_o	o	n/a
372.704	0.075	745408	keystroke_r	r	n/a
372.899	0.06	745798	keystroke_t	t	n/a
373.424	0.105	746848	keystroke_Key.enter	Key.enter	n/a
373.5365	13.48	747073	prompt	n/a	bibliographic colorado adapted transform\n
374.714	0.06	749428	keystroke_b	b	n/a
374.969	0.075	749938	keystroke_i	i	n/a
375.089	0.075	750178	keystroke_b	b	n/a
375.329	0.135	750658	keystroke_l	l	n/a
375.584	0.075	751168	keystroke_i	i	n/a
375.809	0.075	751618	keystroke_o	o	n/a
377.414	0.09	754828	keystroke_g	g	n/a
377.834	0.045	755668	keystroke_a	a	n/a
378.914	0.075	757828	keystroke_Key.backspace	Key.backspace	n/a
379.004	0.075	758008	keystroke_r	r	n/a
379.124	0.09	758248	keystroke_a	a	n/a
379.469	0.105	758938	keystroke_p	p	n/a
379.694	0.12	759388	keystroke_h	h	n/a
380.099	0.09	760198	keystroke_i	i	n/a
380.294	0.09	760588	keystroke_c	c	n/a
380.459	0.105	760918	keystroke_Key.space	Key.space	n/a
380.864	0.09	761728	keystroke_c	c	n/a
380.999	0.09	761998	keystroke_o	o	n/a
381.209	0.105	762418	keystroke_l	l	n/a
381.449	0.075	762898	keystroke_o	o	n/a
381.569	0.06	763138	keystroke_r	r	n/a
381.779	0.09	763558	keystroke_a	a	n/a
381.989	0.075	763978	keystroke_d	d	n/a
382.139	0.105	764278	keystroke_o	o	n/a
382.319	0.12	764638	keystroke_Key.space	Key.space	n/a
382.619	0.09	765238	keystroke_a	a	n/a
382.83	0.074	765660	keystroke_d	d	n/a
383.159	0.075	766318	keystroke_a	a	n/a
383.654	0.105	767308	keystroke_p	p	n/a
384.104	0.075	768208	keystroke_t	t	n/a
384.254	0.09	768508	keystroke_e	e	n/a
384.479	0.075	768958	keystroke_d	d	n/a
384.569	0.105	769138	keystroke_Key.space	Key.space	n/a
384.854	0.09	769708	keystroke_t	t	n/a
385.064	0.09	770128	keystroke_r	r	n/a
385.184	0.09	770368	keystroke_a	a	n/a
385.394	0.09	770788	keystroke_n	n	n/a
385.574	0.105	771148	keystroke_s	s	n/a
385.799	0.075	771598	keystroke_f	f	n/a
385.934	0.075	771868	keystroke_o	o	n/a
386.189	0.06	772378	keystroke_r	r	n/a
386.459	0.075	772918	keystroke_m	m	n/a
386.954	0.06	773908	keystroke_Key.enter	Key.enter	n/a
387.022	8.574	774044	prompt	n/a	current heather batteries repair\n
388.004	0.105	776008	keystroke_c	c	n/a
388.184	0.09	776368	keystroke_u	u	n/a
388.319	0.09	776638	keystroke_r	r	n/a
388.499	0.12	776998	keystroke_r	r	n/a
388.604	0.09	777208	keystroke_e	e	n/a
389.069	0.09	778138	keystroke_n	n	n/a
389.174	0.075	778348	keystroke_t	t	n/a
389.264	0.09	778528	keystroke_Key.space	Key.space	n/a
389.534	0.09	779068	keystroke_h	h	n/a
389.804	0.075	779608	keystroke_e	e	n/a
389.984	0.105	779968	keystroke_a	a	n/a
390.134	0.105	780268	keystroke_t	t	n/a
390.314	0.075	780628	keystroke_h	h	n/a
390.404	0.105	780808	keystroke_e	e	n/a
390.479	0.06	780958	keystroke_r	r	n/a
390.629	0.105	781258	keystroke_Key.space	Key.space	n/a
390.989	0.09	781978	keystroke_b	b	n/a
391.199	0.09	782398	keystroke_a	a	n/a
391.439	0.03	782878	keystroke_t	t	n/a
391.559	0.075	783118	keystroke_t	t	n/a
391.784	0.075	783568	keystroke_e	e	n/a
391.829	0.075	783658	keystroke_r	r	n/a
392.114	0.075	784228	keystroke_i	i	n/a
392.174	0.06	784348	keystroke_e	e	n/a
392.399	0.075	784798	keystroke_s	s	n/a
392.519	0.105	785038	keystroke_Key.space	Key.space	n/a
392.894	0.105	785788	keystroke_r	r	n/a
392.969	0.135	785938	keystroke_e	e	n/a
393.224	0.12	786448	keystroke_p	p	n/a
393.704	0.075	787408	keystroke_a	a	n/a
393.854	0.075	787708	keystroke_i	i	n/a
394.109	0.06	788218	keystroke_r	r	n/a
395.489	0.105	790978	keystroke_Key.enter	Key.enter	n/a
395.6005	6.8955	791201	prompt	n/a	memorial greater lonely blue\n
396.509	0.09	793018	keystroke_m	m	n/a
396.629	0.075	793258	keystroke_e	e	n/a
396.779	0.075	793558	keystroke_m	m	n/a
396.959	0.105	793918	keystroke_o	o	n/a
397.154	0.09	794308	keystroke_r	r	n/a
397.304	0.09	794608	keystroke_i	i	n/a
397.409	0.09	794818	keystroke_a	a	n/a
397.544	0.15	795088	keystroke_l	l	n/a
397.679	0.12	795358	keystroke_Key.space	Key.space	n/a
397.979	0.09	795958	keystroke_g	g	n/a
398.189	0.105	796378	keystroke_r	r	n/a
398.294	0.075	796588	keystroke_e	e	n/a
398.624	0.105	797248	keystroke_a	a	n/a
398.774	0.09	797548	keystroke_t	t	n/a
399.599	0.09	799198	keystroke_e	e	n/a
399.659	0.09	799318	keystroke_r	r	n/a
399.824	0.105	799648	keystroke_Key.space	Key.space	n/a
400.064	0.105	800128	keystroke_l	l	n/a
400.289	0.09	800578	keystroke_o	o	n/a
400.469	0.12	800938	keystroke_n	n	n/a
400.559	0.06	801118	keystroke_e	e	n/a
400.664	0.12	801328	keystroke_l	l	n/a
400.889	0.165	801778	keystroke_y	y	n/a
401.039	0.15	802078	keystroke_Key.space	Key.space	n/a
401.249	0.075	802498	keystroke_b	b	n/a
401.354	0.15	802708	keystroke_l	l	n/a
401.519	0.135	803038	keystroke_u	u	n/a
401.999	0.075	803998	keystroke_e	e	n/a
402.404	0.09	804808	keystroke_Key.enter	Key.enter	n/a
402.5005	14.8905	805001	prompt	n/a	possibility ambassador interface undergraduate\n
403.379	0.105	806758	keystroke_p	p	n/a
403.604	0.105	807208	keystroke_o	o	n/a
403.784	0.075	807568	keystroke_s	s	n/a
403.949	0.09	807898	keystroke_s	s	n/a
404.129	0.075	808258	keystroke_i	i	n/a
404.609	0.09	809218	keystroke_b	b	n/a
405.329	0.09	810658	keystroke_i	i	n/a
405.524	0.12	811048	keystroke_l	l	n/a
405.824	0.09	811648	keystroke_i	i	n/a
405.974	0.06	811948	keystroke_t	t	n/a
406.6045	0.06	813209	keystroke_y	y	n/a
407.099	0.074	814198	keystroke_Key.space	Key.space	n/a
407.774	0.105	815548	keystroke_a	a	n/a
407.954	0.09	815908	keystroke_m	m	n/a
408.299	0.105	816598	keystroke_b	b	n/a
408.419	0.105	816838	keystroke_a	a	n/a
408.659	0.075	817318	keystroke_s	s	n/a
408.794	0.09	817588	keystroke_s	s	n/a
409.004	0.105	818008	keystroke_a	a	n/a
409.244	0.075	818488	keystroke_d	d	n/a
409.409	0.075	818818	keystroke_o	o	n/a
409.499	0.06	818998	keystroke_r	r	n/a
409.618	0.106	819236	keystroke_Key.space	Key.space	n/a
410.039	0.075	820078	keystroke_i	i	n/a
410.324	0.09	820648	keystroke_n	n	n/a
410.459	0.075	820918	keystroke_t	t	n/a
410.654	0.09	821308	keystroke_e	e	n/a
410.714	0.09	821428	keystroke_r	r	n/a
411.014	0.105	822028	keystroke_f	f	n/a
411.149	0.09	822298	keystroke_a	a	n/a
411.389	0.09	822778	keystroke_c	c	n/a
411.584	0.06	823168	keystroke_e	e	n/a
411.719	0.105	823438	keystroke_Key.space	Key.space	n/a
412.244	0.105	824488	keystroke_u	u	n/a
412.469	0.105	824938	keystroke_d	d	n/a
413.3385	0.09	826677	keystroke_Key.backspace	Key.backspace	n/a
413.6535	0.09	827307	keystroke_n	n	n/a
413.8485	0.09	827697	keystroke_d	d	n/a
414.0435	0.12	828087	keystroke_e	e	n/a
414.1335	0.12	828267	keystroke_r	r	n/a
415.0185	0.09	830037	keystroke_g	g	n/a
415.2735	0.105	830547	keystroke_r	r	n/a
415.5135	0.09	831027	keystroke_a	a	n/a
415.7985	0.075	831597	keystroke_d	d	n/a
416.0395	0.09	832079	keystroke_u	u	n/a
416.2335	0.061	832467	keystroke_a	a	n/a
416.3835	0.09	832767	keystroke_t	t	n/a
416.5635	0.061	833127	keystroke_e	e	n/a
417.2985	0.09	834597	keystroke_Key.enter	Key.enter	n/a
417.3975	10.9285	834795	prompt	n/a	minus execution exemption diverse\n
418.0785	0.09	836157	keystroke_m	m	n/a
418.2285	0.105	836457	keystroke_i	i	n/a
418.4385	0.106	836877	keystroke_n	n	n/a
418.6785	0.09	837357	keystroke_u	u	n/a
418.8145	0.104	837629	keystroke_s	s	n/a
418.9335	0.12	837867	keystroke_Key.space	Key.space	n/a
419.2785	0.015	838557	keystroke_e	e	n/a
419.9685	0.105	839937	keystroke_c	c	n/a
420.3885	0.045	840777	keystroke_e	e	n/a
420.9585	0.105	841917	keystroke_Key.backspace	Key.backspace	n/a
421.1685	0.105	842337	keystroke_Key.backspace	Key.backspace	n/a
421.3185	0.106	842637	keystroke_x	x	n/a
421.5585	0.045	843117	keystroke_e	e	n/a
421.7995	0.089	843599	keystroke_c	c	n/a
422.0085	0.106	844017	keystroke_u	u	n/a
422.2635	0.061	844527	keystroke_t	t	n/a
422.3835	0.211	844767	keystroke_i	i	n/a
422.4435	0.181	844887	keystroke_o	o	n/a
422.5185	0.15	845037	keystroke_n	n	n/a
422.7885	0.09	845577	keystroke_Key.space	Key.space	n/a
423.3435	0.06	846687	keystroke_e	e	n/a
423.5685	0.09	847137	keystroke_x	x	n/a
424.1385	0.06	848277	keystroke_e	e	n/a
424.4235	0.09	848847	keystroke_m	m	n/a
424.6035	0.15	849207	keystroke_p	p	n/a
424.8145	0.089	849629	keystroke_t	t	n/a
424.9335	0.21	849867	keystroke_i	i	n/a
424.9935	0.18	849987	keystroke_o	o	n/a
425.0985	0.15	850197	keystroke_n	n	n/a
425.2635	0.105	850527	keystroke_Key.space	Key.space	n/a
425.6985	0.075	851397	keystroke_d	d	n/a
426.0735	0.091	852147	keystroke_i	i	n/a
426.2535	0.105	852507	keystroke_v	v	n/a
426.4935	0.105	852987	keystroke_e	e	n/a
426.5685	0.106	853137	keystroke_r	r	n/a
426.8085	0.075	853617	keystroke_s	s	n/a
427.0035	0.06	854007	keystroke_e	e	n/a
428.2635	0.06	856527	keystroke_Key.enter	Key.enter	n/a
428.331	16.675	856662	prompt	n/a	sampling webshots worm clinics\n
429.0445	0.104	858089	keystroke_s	s	n/a
429.2385	0.075	858477	keystroke_a	a	n/a
429.5385	0.015	859077	keystroke_m	m	n/a
429.5545	0.105	859109	keystroke_p	p	n/a
429.7635	0.136	859527	keystroke_l	l	n/a
430.3495	0.059	860699	keystroke_i	i	n/a
430.5295	0.105	861059	keystroke_n	n	n/a
430.6495	0.059	861299	keystroke_g	g	n/a
430.7535	0.12	861507	keystroke_Key.space	Key.space	n/a
431.6235	0.06	863247	keystroke_w	w	n/a
431.7285	0.091	863457	keystroke_e	e	n/a
432.0445	0.075	864089	keystroke_b	b	n/a
432.3445	0.074	864689	keystroke_h	h	n/a
432.5385	0.075	865077	keystroke_o	o	n/a
432.7035	0.091	865407	keystroke_t	t	n/a
432.9595	0.074	865919	keystroke_s	s	n/a
433.0935	0.09	866187	keystroke_Key.space	Key.space	n/a
433.3345	0.059	866669	keystroke_w	w	n/a
433.4085	0.091	866817	keystroke_o	o	n/a
433.5585	0.076	867117	keystroke_r	r	n/a
433.9945	0.12	867989	keystroke_m	m	n/a
434.2035	0.105	868407	keystroke_Key.space	Key.space	n/a
436.7275	0.011	873455	keystroke_Key.backspace	Key.backspace	n/a
436.8585	0.091	873717	keystroke_Key.backspace	Key.backspace	n/a
437.1585	0.015	874317	keystroke_Key.backspace	Key.backspace	n/a
437.2335	0.12	874467	keystroke_Key.backspace	Key.backspace	n/a
437.4435	0.105	874887	keystroke_Key.backspace	Key.backspace	n/a
437.6535	0.105	875307	keystroke_Key.backspace	Key.backspace	n/a
437.8635	0.105	875727	keystroke_Key.backspace	Key.backspace	n/a
438.0735	0.09	876147	keystroke_Key.backspace	Key.backspace	n/a
438.2835	0.09	876567	keystroke_Key.backspace	Key.backspace	n/a
438.4785	0.09	876957	keystroke_Key.backspace	Key.backspace	n/a
438.6295	0.09	877259	keystroke_s	s	n/a
438.8695	0.089	877739	keystroke_h	h	n/a
439.0795	0.075	878159	keystroke_o	o	n/a
439.1695	0.09	878339	keystroke_t	t	n/a
439.3785	0.06	878757	keystroke_s	s	n/a
439.5445	0.089	879089	keystroke_Key.space	Key.space	n/a
440.2335	0.121	880467	keystroke_w	w	n/a
440.3845	0.074	880769	keystroke_o	o	n/a
440.4745	0.075	880949	keystroke_r	r	n/a
441.0885	0.09	882177	keystroke_m	m	n/a
441.2845	0.104	882569	keystroke_Key.space	Key.space	n/a
442.8295	0.09	885659	keystroke_c	c	n/a
442.9345	0.105	885869	keystroke_l	l	n/a
443.1585	0.075	886317	keystroke_i	i	n/a
443.5045	0.09	887009	keystroke_n	n	n/a
443.6695	0.09	887339	keystroke_i	i	n/a
444.1335	0.105	888267	keystroke_c	c	n/a
444.3445	0.075	888689	keystroke_s	s	n/a
444.899	0.1055	889798	keystroke_Key.enter	Key.enter	n/a
445.0115	14.7095	890023	prompt	n/a	classified pendant dublin metropolitan\n
445.6645	0.074	891329	keystroke_s	s	n/a
445.9195	0.09	891839	keystroke_l	l	n/a
446.0845	0.045	892169	keystroke_a	a	n/a
446.2795	0.074	892559	keystroke_s	s	n/a
446.4445	0.09	892889	keystroke_s	s	n/a
446.6245	0.075	893249	keystroke_i	i	n/a
447.4645	0.074	894929	keystroke_Key.backspace	Key.backspace	n/a
447.6585	0.075	895317	keystroke_Key.backspace	Key.backspace	n/a
447.8545	0.089	895709	keystroke_Key.backspace	Key.backspace	n/a
448.0785	0.105	896157	keystroke_Key.backspace	Key.backspace	n/a
448.2885	0.09	896577	keystroke_Key.backspace	Key.backspace	n/a
448.4995	0.089	896999	keystroke_Key.backspace	Key.backspace	n/a
448.9495	0.075	897899	keystroke_c	c	n/a
449.1445	0.09	898289	keystroke_l	l	n/a
449.3545	0.06	898709	keystroke_a	a	n/a
449.5645	0.059	899129	keystroke_s	s	n/a
449.7145	0.075	899429	keystroke_s	s	n/a
449.8495	0.075	899699	keystroke_i	i	n/a
450.0295	0.0895	900059	keystroke_f	f	n/a
450.149	0.075	900298	keystroke_i	i	n/a
450.239	0.0755	900478	keystroke_e	e	n/a
450.4345	0.075	900869	keystroke_d	d	n/a
450.8395	0.1045	901679	keystroke_Key.space	Key.space	n/a
451.169	0.09	902338	keystroke_p	p	n/a
451.3345	0.0885	902669	keystroke_e	e	n/a
451.499	0.105	902998	keystroke_n	n	n/a
451.5895	0.1045	903179	keystroke_d	d	n/a
451.829	0.09	903658	keystroke_a	a	n/a
452.039	0.0905	904078	keystroke_n	n	n/a
452.174	0.09	904348	keystroke_t	t	n/a
452.369	0.074	904738	keystroke_Key.space	Key.space	n/a
452.953	0.076	905906	keystroke_d	d	n/a
453.119	0.06	906238	keystroke_u	u	n/a
453.434	0.045	906868	keystroke_b	b	n/a
453.614	0.105	907228	keystroke_l	l	n/a
454.139	0.075	908278	keystroke_i	i	n/a
454.334	0.135	908668	keystroke_n	n	n/a
454.454	0.135	908908	keystroke_Key.space	Key.space	n/a
455.894	0.105	911788	keystroke_m	m	n/a
455.999	0.075	911998	keystroke_e	e	n/a
456.209	0.075	912418	keystroke_t	t	n/a
456.389	0.06	912778	keystroke_r	r	n/a
456.569	0.105	913138	keystroke_o	o	n/a
457.244	0.105	914488	keystroke_p	p	n/a
457.484	0.09	914968	keystroke_o	o	n/a
457.694	0.12	915388	keystroke_l	l	n/a
457.934	0.075	915868	keystroke_i	i	n/a
458.339	0.075	916678	keystroke_t	t	n/a
458.489	0.09	916978	keystroke_a	a	n/a
458.684	0.09	917368	keystroke_n	n	n/a
459.614	0.105	919228	keystroke_Key.enter	Key.enter	n/a
459.726	11.08	919452	prompt	n/a	cumulative collected transition commerce\n
461.234	0.075	922468	keystroke_c	c	n/a
461.384	0.09	922768	keystroke_u	u	n/a
461.669	0.09	923338	keystroke_m	m	n/a
462.434	0.105	924868	keystroke_u	u	n/a
462.659	0.105	925318	keystroke_l	l	n/a
462.824	0.09	925648	keystroke_a	a	n/a
462.959	0.105	925918	keystroke_t	t	n/a
463.904	0.09	927808	keystroke_i	i	n/a
464.054	0.12	928108	keystroke_v	v	n/a
464.159	0.045	928318	keystroke_e	e	n/a
464.459	0.09	928918	keystroke_Key.space	Key.space	n/a
464.819	0.09	929638	keystroke_c	c	n/a
464.954	0.09	929908	keystroke_o	o	n/a
465.179	0.075	930358	keystroke_l	l	n/a
465.344	0.12	930688	keystroke_l	l	n/a
465.419	0.09	930838	keystroke_e	e	n/a
465.644	0.135	931288	keystroke_c	c	n/a
465.794	0.105	931588	keystroke_t	t	n/a
465.944	0.075	931888	keystroke_e	e	n/a
466.139	0.075	932278	keystroke_d	d	n/a
466.274	0.105	932548	keystroke_Key.space	Key.space	n/a
466.559	0.09	933118	keystroke_t	t	n/a
466.769	0.06	933538	keystroke_r	r	n/a
466.889	0.075	933778	keystroke_a	a	n/a
467.084	0.09	934168	keystroke_n	n	n/a
467.234	0.075	934468	keystroke_s	s	n/a
467.444	0.075	934888	keystroke_i	i	n/a
467.639	0.075	935278	keystroke_t	t	n/a
467.729	0.21	935458	keystroke_i	i	n/a
467.789	0.21	935578	keystroke_o	o	n/a
467.879	0.15	935758	keystroke_n	n	n/a
468.014	0.105	936028	keystroke_Key.space	Key.space	n/a
468.449	0.075	936898	keystroke_c	c	n/a
468.869	0.09	937738	keystroke_o	o	n/a
469.094	0.06	938188	keystroke_m	m	n/a
469.259	0.09	938518	keystroke_m	m	n/a
469.529	0.12	939058	keystroke_e	e	n/a
469.604	0.12	939208	keystroke_r	r	n/a
469.949	0.075	939898	keystroke_c	c	n/a
470.144	0.045	940288	keystroke_e	e	n/a
470.744	0.06	941488	keystroke_Key.enter	Key.enter	n/a
470.813	13.8835	941626	prompt	n/a	dialogue waters troubleshooting learn\n
471.824	0.075	943648	keystroke_d	d	n/a
472.154	0.075	944308	keystroke_i	i	n/a
472.304	0.06	944608	keystroke_a	a	n/a
472.484	0.09	944968	keystroke_l	l	n/a
472.694	0.075	945388	keystroke_o	o	n/a
472.799	0.075	945598	keystroke_g	g	n/a
473.084	0.09	946168	keystroke_u	u	n/a
473.159	0.06	946318	keystroke_e	e	n/a
473.549	0.09	947098	keystroke_Key.space	Key.space	n/a
473.774	0.075	947548	keystroke_q	q	n/a
474.719	0.06	949438	keystroke_Key.backspace	Key.backspace	n/a
475.049	0.075	950098	keystroke_w	w	n/a
475.334	0.09	950668	keystroke_t	t	n/a
476.474	0.09	952948	keystroke_Key.backspace	Key.backspace	n/a
476.834	0.12	953668	keystroke_a	a	n/a
476.999	0.09	953998	keystroke_t	t	n/a
477.1635	0.0905	954327	keystroke_e	e	n/a
477.2385	0.0905	954477	keystroke_r	r	n/a
477.464	0.0745	954928	keystroke_s	s	n/a
478.1385	0.09	956277	keystroke_Key.space	Key.space	n/a
478.544	0.12	957088	keystroke_t	t	n/a
478.754	0.075	957508	keystroke_r	r	n/a
479.264	0.1195	958528	keystroke_o	o	n/a
479.4585	0.105	958917	keystroke_u	u	n/a
479.939	0.075	959878	keystroke_b	b	n/a
480.074	0.105	960148	keystroke_l	l	n/a
480.209	0.075	960418	keystroke_e	e	n/a
480.464	0.09	960928	keystroke_s	s	n/a
480.584	0.105	961168	keystroke_h	h	n/a
480.7935	0.075	961587	keystroke_o	o	n/a
480.974	0.105	961948	keystroke_o	o	n/a
481.109	0.06	962218	keystroke_t	t	n/a
481.199	0.075	962398	keystroke_i	i	n/a
481.379	0.09	962758	keystroke_n	n	n/a
481.499	0.06	962998	keystroke_g	g	n/a
481.589	0.09	963178	keystroke_Key.space	Key.space	n/a
482.354	0.1045	964708	keystroke_l	l	n/a
482.4735	0.0755	964947	keystroke_e	e	n/a
482.744	0.075	965488	keystroke_a	a	n/a
482.954	0.06	965908	keystroke_r	r	n/a
483.3885	0.09	966777	keystroke_n	n	n/a
484.574	0.12	969148	keystroke_Key.enter	Key.enter	n/a
484.7035	12.727	969407	prompt	n/a	probably temporarily wherever trails\n
485.504	0.135	971008	keystroke_p	p	n/a
485.744	0.075	971488	keystroke_r	r	n/a
485.8335	0.0905	971667	keystroke_o	o	n/a
486.074	0.075	972148	keystroke_b	b	n/a
486.1935	0.1055	972387	keystroke_a	a	n/a
486.254	0.09	972508	keystroke_b	b	n/a
486.389	0.15	972778	keystroke_l	l	n/a
486.5685	0.15	973137	keystroke_y	y	n/a
486.689	0.15	973378	keystroke_Key.space	Key.space	n/a
486.9885	0.135	973977	keystroke_t	t	n/a
487.499	0.0595	974998	keystroke_e	e	n/a
487.604	0.15	975208	keystroke_m	m	n/a
487.7835	0.135	975567	keystroke_p	p	n/a
488.084	0.0895	976168	keystroke_o	o	n/a
488.2035	0.09	976407	keystroke_r	r	n/a
488.4735	0.06	976947	keystroke_a	a	n/a
488.684	0.0745	977368	keystroke_r	r	n/a
488.8785	0.09	977757	keystroke_i	i	n/a
489.0735	0.105	978147	keystroke_l	l	n/a
489.3435	0.1355	978687	keystroke_y	y	n/a
489.5235	0.135	979047	keystroke_Key.space	Key.space	n/a
489.8685	0.0755	979737	keystroke_w	w	n/a
489.9735	0.105	979947	keystroke_h	h	n/a
490.2585	0.0905	980517	keystroke_e	e	n/a
490.6185	0.09	981237	keystroke_r	r	n/a
490.784	0.0745	981568	keystroke_e	e	n/a
491.1435	0.03	982287	keystroke_e	e	n/a
493.367	0.042	986734	keystroke_Key.backspace	Key.backspace	n/a
493.814	0.0895	987628	keystroke_v	v	n/a
494.039	0.09	988078	keystroke_e	e	n/a
494.099	0.075	988198	keystroke_r	r	n/a
494.3685	0.075	988737	keystroke_Key.space	Key.space	n/a
495.284	0.105	990568	keystroke_t	t	n/a
495.4935	0.0905	990987	keystroke_r	r	n/a
495.614	0.0895	991228	keystroke_a	a	n/a
495.8235	0.0605	991647	keystroke_i	i	n/a
496.2285	0.12	992457	keystroke_l	l	n/a
496.364	0.045	992728	keystroke_s	s	n/a
497.3235	0.105	994647	keystroke_Key.enter	Key.enter	n/a
497.437	8.2745	994874	prompt	n/a	comment flying subcommittee tough\n
498.2085	0.106	996417	keystroke_c	c	n/a
498.3285	0.105	996657	keystroke_o	o	n/a
498.5695	0.059	997139	keystroke_m	m	n/a
498.7345	0.09	997469	keystroke_m	m	n/a
498.8395	0.06	997679	keystroke_e	e	n/a
498.9585	0.121	997917	keystroke_n	n	n/a
499.0495	0.09	998099	keystroke_t	t	n/a
499.1835	0.09	998367	keystroke_Key.space	Key.space	n/a
499.3495	0.059	998699	keystroke_f	f	n/a
499.4545	0.089	998909	keystroke_l	l	n/a
499.7095	0.075	999419	keystroke_y	y	n/a
499.8895	0.074	999779	keystroke_i	i	n/a
500.0995	0.105	1000199	keystroke_n	n	n/a
500.2495	0.074	1000499	keystroke_g	g	n/a
500.3245	0.12	1000649	keystroke_Key.space	Key.space	n/a
500.9085	0.076	1001817	keystroke_s	s	n/a
501.0445	0.089	1002089	keystroke_u	u	n/a
501.2395	0.074	1002479	keystroke_b	b	n/a
501.6145	0.0895	1003229	keystroke_c	c	n/a
501.6895	0.104	1003379	keystroke_o	o	n/a
501.9285	0.0605	1003857	keystroke_m	m	n/a
502.0785	0.076	1004157	keystroke_m	m	n/a
502.3045	0.0595	1004609	keystroke_i	i	n/a
502.468	0.061	1004936	keystroke_t	t	n/a
502.589	0.09	1005178	keystroke_t	t	n/a
502.9045	0.0445	1005809	keystroke_e	e	n/a
503.024	0.09	1006048	keystroke_e	e	n/a
503.294	0.0895	1006588	keystroke_Key.space	Key.space	n/a
503.8345	0.0885	1007669	keystroke_t	t	n/a
504.134	0.135	1008268	keystroke_o	o	n/a
504.209	0.135	1008418	keystroke_u	u	n/a
504.479	0.06	1008958	keystroke_g	g	n/a
504.554	0.09	1009108	keystroke_h	h	n/a
505.634	0.074	1011268	keystroke_Key.enter	Key.enter	n/a
505.717	12.204	1011434	prompt	n/a	liver presentations webmaster provides\n
507.344	0.105	1014688	keystroke_l	l	n/a
507.569	0.059	1015138	keystroke_i	i	n/a
507.824	0.075	1015648	keystroke_v	v	n/a
508.049	0.074	1016098	keystroke_e	e	n/a
508.094	0.06	1016188	keystroke_r	r	n/a
508.258	0.075	1016516	keystroke_Key.space	Key.space	n/a
508.694	0.075	1017388	keystroke_p	p	n/a
508.994	0.105	1017988	keystroke_r	r	n/a
509.054	0.09	1018108	keystroke_e	e	n/a
509.354	0.045	1018708	keystroke_s	s	n/a
509.639	0.045	1019278	keystroke_e	e	n/a
509.744	0.075	1019488	keystroke_n	n	n/a
510.014	0.075	1020028	keystroke_t	t	n/a
510.359	0.0745	1020718	keystroke_a	a	n/a
510.4035	0.09	1020807	keystroke_t	t	n/a
510.5985	0.21	1021197	keystroke_i	i	n/a
510.6735	0.195	1021347	keystroke_o	o	n/a
510.7785	0.12	1021557	keystroke_n	n	n/a
510.9135	0.075	1021827	keystroke_s	s	n/a
511.334	0.0745	1022668	keystroke_Key.space	Key.space	n/a
511.964	0.0595	1023928	keystroke_w	w	n/a
512.099	0.0745	1024198	keystroke_e	e	n/a
512.3685	0.09	1024737	keystroke_b	b	n/a
512.579	0.105	1025158	keystroke_m	m	n/a
513.2835	0.0305	1026567	keystroke_a	a	n/a
513.5835	0.06	1027167	keystroke_s	s	n/a
513.7635	0.0755	1027527	keystroke_t	t	n/a
513.9585	0.075	1027917	keystroke_e	e	n/a
514.0035	0.09	1028007	keystroke_r	r	n/a
514.1985	0.09	1028397	keystroke_Key.space	Key.space	n/a
514.9185	0.15	1029837	keystroke_p	p	n/a
515.1135	0.045	1030227	keystroke_r	r	n/a
515.6385	0.075	1031277	keystroke_o	o	n/a
515.7735	0.09	1031547	keystroke_v	v	n/a
515.9985	0.045	1031997	keystroke_i	i	n/a
516.1935	0.075	1032387	keystroke_d	d	n/a
516.3735	0.06	1032747	keystroke_e	e	n/a
516.7935	0.105	1033587	keystroke_s	s	n/a
517.8285	0.09	1035657	keystroke_Key.enter	Key.enter	n/a
517.9275	8.7845	1035855	prompt	n/a	other receivers upper builder\n
518.9835	0.09	1037967	keystroke_o	o	n/a
519.1335	0.105	1038267	keystroke_t	t	n/a
519.8385	0.105	1039677	keystroke_h	h	n/a
519.9285	0.105	1039857	keystroke_e	e	n/a
520.0035	0.075	1040007	keystroke_r	r	n/a
520.1085	0.12	1040217	keystroke_Key.space	Key.space	n/a
520.3485	0.09	1040697	keystroke_r	r	n/a
520.4085	0.09	1040817	keystroke_e	e	n/a
520.6935	0.09	1041387	keystroke_c	c	n/a
520.8885	0.045	1041777	keystroke_e	e	n/a
520.9785	0.075	1041957	keystroke_i	i	n/a
521.0985	0.09	1042197	keystroke_v	v	n/a
521.1585	0.09	1042317	keystroke_e	e	n/a
521.8785	0.06	1043757	keystroke_r	r	n/a
522.0735	0.06	1044147	keystroke_s	s	n/a
522.1485	0.12	1044297	keystroke_Key.space	Key.space	n/a
522.5235	0.105	1045047	keystroke_u	u	n/a
522.6435	0.12	1045287	keystroke_p	p	n/a
522.8535	0.12	1045707	keystroke_p	p	n/a
523.1985	0.12	1046397	keystroke_e	e	n/a
523.2585	0.12	1046517	keystroke_r	r	n/a
523.4385	0.12	1046877	keystroke_Key.space	Key.space	n/a
523.6935	0.09	1047387	keystroke_b	b	n/a
523.9185	0.06	1047837	keystroke_u	u	n/a
524.0985	0.075	1048197	keystroke_i	i	n/a
524.2785	0.135	1048557	keystroke_l	l	n/a
524.5035	0.12	1049007	keystroke_d	d	n/a
524.7585	0.09	1049517	keystroke_e	e	n/a
524.8035	0.075	1049607	keystroke_r	r	n/a
526.6035	0.105	1053207	keystroke_Key.enter	Key.enter	n/a
526.7175	10.778	1053435	prompt	n/a	bought matched champions described\n
527.6085	0.075	1055217	keystroke_b	b	n/a
527.7745	0.089	1055549	keystroke_o	o	n/a
527.8485	0.105	1055697	keystroke_u	u	n/a
527.9985	0.075	1055997	keystroke_t	t	n/a
528.1485	0.12	1056297	keystroke_h	h	n/a
529.2435	0.06	1058487	keystroke_Key.backspace	Key.backspace	n/a
529.3935	0.09	1058787	keystroke_Key.backspace	Key.backspace	n/a
530.5785	0.09	1061157	keystroke_g	g	n/a
530.6985	0.09	1061397	keystroke_h	h	n/a
530.8485	0.045	1061697	keystroke_t	t	n/a
530.9985	0.09	1061997	keystroke_Key.space	Key.space	n/a
531.4785	0.1055	1062957	keystroke_m	m	n/a
531.629	0.135	1063258	keystroke_a	a	n/a
531.719	0.105	1063438	keystroke_t	t	n/a
532.004	0.09	1064008	keystroke_c	c	n/a
532.124	0.105	1064248	keystroke_h	h	n/a
532.229	0.075	1064458	keystroke_e	e	n/a
532.409	0.075	1064818	keystroke_d	d	n/a
532.499	0.12	1064998	keystroke_Key.space	Key.space	n/a
532.784	0.135	1065568	keystroke_c	c	n/a
533.069	0.075	1066138	keystroke_h	h	n/a
533.279	0.075	1066558	keystroke_a	a	n/a
533.459	0.105	1066918	keystroke_m	m	n/a
533.669	0.12	1067338	keystroke_p	p	n/a
533.924	0.12	1067848	keystroke_i	i	n/a
534.134	0.075	1068268	keystroke_o	o	n/a
534.329	0.09	1068658	keystroke_n	n	n/a
534.434	0.09	1068868	keystroke_s	s	n/a
534.569	0.09	1069138	keystroke_Key.space	Key.space	n/a
534.779	0.0745	1069558	keystroke_d	d	n/a
534.9435	0.0755	1069887	keystroke_e	e	n/a
535.169	0.075	1070338	keystroke_s	s	n/a
535.394	0.12	1070788	keystroke_c	c	n/a
535.6335	0.0755	1071267	keystroke_r	r	n/a
535.8885	0.105	1071777	keystroke_i	i	n/a
536.1285	0.06	1072257	keystroke_b	b	n/a
536.309	0.0595	1072618	keystroke_e	e	n/a
536.504	0.075	1073008	keystroke_d	d	n/a
537.3885	0.105	1074777	keystroke_Key.enter	Key.enter	n/a
537.5	12.386	1075000	prompt	n/a	ordered statutes popularity loved\n
538.4535	0.075	1076907	keystroke_o	o	n/a
538.6335	0.075	1077267	keystroke_r	r	n/a
538.8435	0.12	1077687	keystroke_d	d	n/a
539.1435	0.105	1078287	keystroke_e	e	n/a
539.4135	0.06	1078827	keystroke_r	r	n/a
539.6385	0.075	1079277	keystroke_e	e	n/a
539.8785	0.09	1079757	keystroke_d	d	n/a
540.1035	0.1055	1080207	keystroke_Key.space	Key.space	n/a
540.4185	0.075	1080837	keystroke_s	s	n/a
540.5985	0.09	1081197	keystroke_t	t	n/a
540.7485	0.12	1081497	keystroke_a	a	n/a
540.8835	0.09	1081767	keystroke_t	t	n/a
541.4385	0.075	1082877	keystroke_u	u	n/a
541.5435	0.075	1083087	keystroke_r	r	n/a
542.1135	0.09	1084227	keystroke_Key.backspace	Key.backspace	n/a
542.2185	0.075	1084437	keystroke_t	t	n/a
542.4285	0.015	1084857	keystroke_e	e	n/a
542.8035	0.105	1085607	keystroke_s	s	n/a
542.9985	0.09	1085997	keystroke_Key.space	Key.space	n/a
543.2835	0.105	1086567	keystroke_p	p	n/a
543.9585	0.09	1087917	keystroke_o	o	n/a
544.1235	0.12	1088247	keystroke_p	p	n/a
544.3635	0.12	1088727	keystroke_l	l	n/a
544.6485	0.075	1089297	keystroke_u	u	n/a
545.8785	0.075	1091757	keystroke_Key.backspace	Key.backspace	n/a
546.0435	0.09	1092087	keystroke_Key.backspace	Key.backspace	n/a
546.3435	0.09	1092687	keystroke_u	u	n/a
546.5685	0.105	1093137	keystroke_l	l	n/a
546.7335	0.18	1093467	keystroke_a	a	n/a
546.8985	0.09	1093797	keystroke_r	r	n/a
547.0335	0.09	1094067	keystroke_i	i	n/a
547.1535	0.075	1094307	keystroke_t	t	n/a
547.3485	0.135	1094697	keystroke_y	y	n/a
547.4685	0.12	1094937	keystroke_Key.space	Key.space	n/a
547.6485	0.12	1095297	keystroke_l	l	n/a
547.9035	0.09	1095807	keystroke_o	o	n/a
547.9635	0.075	1095927	keystroke_v	v	n/a
548.0235	0.075	1096047	keystroke_e	e	n/a
548.3385	0.075	1096677	keystroke_d	d	n/a
549.7785	0.105	1099557	keystroke_Key.enter	Key.enter	n/a
549.892	10.944	1099784	prompt	n/a	henry cases rebel menus\n
550.5885	0.105	1101177	keystroke_h	h	n/a
550.8285	0.06	1101657	keystroke_e	e	n/a
550.9635	0.105	1101927	keystroke_n	n	n/a
551.1735	0.06	1102347	keystroke_r	r	n/a
551.3985	0.165	1102797	keystroke_y	y	n/a
551.5335	0.105	1103067	keystroke_Key.space	Key.space	n/a
551.7735	0.105	1103547	keystroke_c	c	n/a
551.9385	0.12	1103877	keystroke_a	a	n/a
552.1335	0.105	1104267	keystroke_s	s	n/a
552.2985	0.075	1104597	keystroke_e	e	n/a
552.5085	0.075	1105017	keystroke_s	s	n/a
553.0485	0.045	1106097	keystroke_r	r	n/a
554.2635	0.09	1108527	keystroke_Key.backspace	Key.backspace	n/a
554.4585	0.09	1108917	keystroke_r	r	n/a
554.5495	0.089	1109099	keystroke_e	e	n/a
554.8185	0.075	1109637	keystroke_b	b	n/a
555.7935	0.12	1111587	keystroke_Key.backspace	Key.backspace	n/a
556.1235	0.135	1112247	keystroke_Key.backspace	Key.backspace	n/a
556.7085	0.15	1113417	keystroke_Key.backspace	Key.backspace	n/a
557.3685	0.105	1114737	keystroke_Key.space	Key.space	n/a
557.7885	0.09	1115577	keystroke_r	r	n/a
557.8635	0.09	1115727	keystroke_e	e	n/a
558.1185	0.09	1116237	keystroke_b	b	n/a
558.3285	0.045	1116657	keystroke_e	e	n/a
558.5085	0.105	1117017	keystroke_l	l	n/a
558.7335	0.075	1117467	keystroke_Key.space	Key.space	n/a
559.3785	0.12	1118757	keystroke_m	m	n/a
559.5135	0.06	1119027	keystroke_e	e	n/a
559.6335	0.09	1119267	keystroke_n	n	n/a
559.8435	0.075	1119687	keystroke_u	u	n/a
560.0835	0.075	1120167	keystroke_s	s	n/a
560.7435	0.09	1121487	keystroke_Key.enter	Key.enter	n/a
560.8415	9.2495	1121683	prompt	n/a	telescope thongs notice strain\n
561.6435	0.075	1123287	keystroke_t	t	n/a
562.1085	0.09	1124217	keystroke_e	e	n/a
562.2585	0.105	1124517	keystroke_l	l	n/a
562.4685	0.06	1124937	keystroke_e	e	n/a
562.8285	0.09	1125657	keystroke_s	s	n/a
564.0285	0.09	1128057	keystroke_c	c	n/a
564.1635	0.09	1128327	keystroke_o	o	n/a
564.3885	0.09	1128777	keystroke_p	p	n/a
564.6135	0.045	1129227	keystroke_e	e	n/a
564.7635	0.09	1129527	keystroke_Key.space	Key.space	n/a
565.4535	0.09	1130907	keystroke_t	t	n/a
565.5585	0.12	1131117	keystroke_h	h	n/a
565.7685	0.075	1131537	keystroke_o	o	n/a
565.9185	0.12	1131837	keystroke_n	n	n/a
566.0535	0.06	1132107	keystroke_g	g	n/a
566.1735	0.075	1132347	keystroke_s	s	n/a
566.3385	0.09	1132677	keystroke_Key.space	Key.space	n/a
567.1185	0.09	1134237	keystroke_n	n	n/a
567.2985	0.135	1134597	keystroke_o	o	n/a
567.4185	0.09	1134837	keystroke_t	t	n/a
567.5535	0.075	1135107	keystroke_i	i	n/a
567.6585	0.105	1135317	keystroke_c	c	n/a
567.8385	0.075	1135677	keystroke_e	e	n/a
567.9435	0.12	1135887	keystroke_Key.space	Key.space	n/a
568.2135	0.09	1136427	keystroke_s	s	n/a
568.3485	0.09	1136697	keystroke_t	t	n/a
568.5285	0.075	1137057	keystroke_r	r	n/a
569.0685	0.09	1138137	keystroke_a	a	n/a
569.2185	0.075	1138437	keystroke_i	i	n/a
569.3985	0.105	1138797	keystroke_n	n	n/a
569.9835	0.105	1139967	keystroke_Key.enter	Key.enter	n/a
570.0955	9.8345	1140191	prompt	n/a	motor discovered mixer affiliation\n
572.6265	0.042	1145253	keystroke_m	m	n/a
572.7285	0.09	1145457	keystroke_o	o	n/a
573.0885	0.09	1146177	keystroke_t	t	n/a
573.2535	0.105	1146507	keystroke_o	o	n/a
573.3735	0.045	1146747	keystroke_r	r	n/a
573.5085	0.09	1147017	keystroke_Key.space	Key.space	n/a
573.8835	0.075	1147767	keystroke_d	d	n/a
574.0035	0.075	1148007	keystroke_i	i	n/a
574.0935	0.09	1148187	keystroke_s	s	n/a
574.3335	0.09	1148667	keystroke_c	c	n/a
574.4385	0.1195	1148877	keystroke_o	o	n/a
574.573	0.12	1149146	keystroke_v	v	n/a
574.813	0.045	1149626	keystroke_e	e	n/a
574.843	0.105	1149686	keystroke_r	r	n/a
574.949	0.074	1149898	keystroke_e	e	n/a
575.143	0.075	1150286	keystroke_d	d	n/a
575.293	0.09	1150586	keystroke_Key.space	Key.space	n/a
575.968	0.09	1151936	keystroke_m	m	n/a
576.118	0.09	1152236	keystroke_i	i	n/a
576.268	0.12	1152536	keystroke_x	x	n/a
576.523	0.09	1153046	keystroke_e	e	n/a
576.598	0.075	1153196	keystroke_r	r	n/a
576.718	0.09	1153436	keystroke_Key.space	Key.space	n/a
576.973	0.0605	1153946	keystroke_a	a	n/a
577.1985	0.09	1154397	keystroke_f	f	n/a
577.738	0.075	1155476	keystroke_f	f	n/a
577.918	0.075	1155836	keystroke_i	i	n/a
578.113	0.12	1156226	keystroke_l	l	n/a
578.368	0.06	1156736	keystroke_i	i	n/a
578.503	0.12	1157006	keystroke_a	a	n/a
578.698	0.106	1157396	keystroke_t	t	n/a
578.983	0.21	1157966	keystroke_i	i	n/a
579.058	0.195	1158116	keystroke_o	o	n/a
579.178	0.105	1158356	keystroke_n	n	n/a
579.838	0.09	1159676	keystroke_Key.enter	Key.enter	n/a
579.935	5.9355	1159870	prompt	n/a	alter sister families manage\n
580.543	0.12	1161086	keystroke_a	a	n/a
580.738	0.105	1161476	keystroke_l	l	n/a
580.933	0.09	1161866	keystroke_t	t	n/a
581.113	0.105	1162226	keystroke_e	e	n/a
581.173	0.09	1162346	keystroke_r	r	n/a
581.338	0.105	1162676	keystroke_Key.space	Key.space	n/a
581.503	0.105	1163006	keystroke_s	s	n/a
581.653	0.075	1163306	keystroke_i	i	n/a
581.713	0.165	1163426	keystroke_s	s	n/a
581.848	0.09	1163696	keystroke_t	t	n/a
582.028	0.105	1164056	keystroke_e	e	n/a
582.118	0.076	1164236	keystroke_r	r	n/a
582.358	0.075	1164716	keystroke_s	s	n/a
582.523	0.105	1165046	keystroke_Key.space	Key.space	n/a
583.003	0.075	1166006	keystroke_f	f	n/a
583.168	0.075	1166336	keystroke_a	a	n/a
583.318	0.105	1166636	keystroke_m	m	n/a
583.528	0.09	1167056	keystroke_i	i	n/a
583.693	0.12	1167386	keystroke_l	l	n/a
583.933	0.105	1167866	keystroke_i	i	n/a
584.023	0.075	1168046	keystroke_e	e	n/a
584.218	0.09	1168436	keystroke_s	s	n/a
584.353	0.09	1168706	keystroke_Key.space	Key.space	n/a
584.563	0.09	1169126	keystroke_m	m	n/a
584.683	0.075	1169366	keystroke_a	a	n/a
584.803	0.09	1169606	keystroke_n	n	n/a
584.908	0.105	1169816	keystroke_a	a	n/a
585.058	0.106	1170116	keystroke_g	g	n/a
585.148	0.075	1170296	keystroke_e	e	n/a
585.763	0.105	1171526	keystroke_Key.enter	Key.enter	n/a
585.8795	13.2205	1171759	prompt	n/a	german nancy amber antibody\n
586.663	0.09	1173326	keystroke_g	g	n/a
586.858	0.091	1173716	keystroke_e	e	n/a
586.918	0.09	1173836	keystroke_r	r	n/a
587.278	0.075	1174556	keystroke_m	m	n/a
587.338	0.09	1174676	keystroke_a	a	n/a
587.488	0.12	1174976	keystroke_n	n	n/a
587.668	0.12	1175336	keystroke_Key.space	Key.space	n/a
588.028	0.105	1176056	keystroke_n	n	n/a
588.118	0.075	1176236	keystroke_a	a	n/a
588.223	0.105	1176446	keystroke_n	n	n/a
588.388	0.105	1176776	keystroke_c	c	n/a
588.583	0.06	1177166	keystroke_e	e	n/a
588.763	0.075	1177526	keystroke_Key.space	Key.space	n/a
588.928	0.09	1177856	keystroke_a	a	n/a
589.078	0.075	1178156	keystroke_m	m	n/a
589.303	0.075	1178606	keystroke_b	b	n/a
589.543	0.091	1179086	keystroke_e	e	n/a
589.588	0.06	1179176	keystroke_r	r	n/a
591.463	0.12	1182926	keystroke_Key.backspace	Key.backspace	n/a
591.733	0.12	1183466	keystroke_Key.backspace	Key.backspace	n/a
592.018	0.12	1184036	keystroke_Key.backspace	Key.backspace	n/a
592.303	0.135	1184606	keystroke_Key.backspace	Key.backspace	n/a
592.573	0.15	1185146	keystroke_Key.backspace	Key.backspace	n/a
592.858	0.15	1185716	keystroke_Key.backspace	Key.backspace	n/a
593.158	0.12	1186316	keystroke_Key.backspace	Key.backspace	n/a
593.999	0.134	1187998	keystroke_y	y	n/a
594.148	0.135	1188296	keystroke_Key.space	Key.space	n/a
594.403	0.091	1188806	keystroke_a	a	n/a
594.508	0.12	1189016	keystroke_m	m	n/a
594.688	0.105	1189376	keystroke_b	b	n/a
594.914	0.119	1189828	keystroke_e	e	n/a
594.989	0.074	1189978	keystroke_r	r	n/a
595.348	0.09	1190696	keystroke_Key.space	Key.space	n/a
595.948	0.1045	1191896	keystroke_a	a	n/a
596.0675	0.1205	1192135	keystroke_n	n	n/a
596.788	0.075	1193576	keystroke_t	t	n/a
596.953	0.075	1193906	keystroke_i	i	n/a
597.463	0.06	1194926	keystroke_b	b	n/a
597.583	0.105	1195166	keystroke_o	o	n/a
597.854	0.059	1195708	keystroke_d	d	n/a
598.049	0.059	1196098	keystroke_y	y	n/a
599.009	0.089	1198018	keystroke_Key.enter	Key.enter	n/a
599.1045	8.771	1198209	prompt	n/a	explicitly predict tapes runs\n
599.968	0.09	1199936	keystroke_e	e	n/a
600.208	0.136	1200416	keystroke_x	x	n/a
600.389	0.119	1200778	keystroke_p	p	n/a
600.614	0.105	1201228	keystroke_l	l	n/a
600.839	0.075	1201678	keystroke_i	i	n/a
600.944	0.105	1201888	keystroke_c	c	n/a
601.063	0.106	1202126	keystroke_i	i	n/a
601.198	0.076	1202396	keystroke_t	t	n/a
601.4535	0.105	1202907	keystroke_l	l	n/a
601.6935	0.1055	1203387	keystroke_y	y	n/a
601.8725	0.1055	1203745	keystroke_Key.space	Key.space	n/a
602.1425	0.0905	1204285	keystroke_p	p	n/a
602.3385	0.074	1204677	keystroke_r	r	n/a
602.3835	0.105	1204767	keystroke_e	e	n/a
602.6385	0.0895	1205277	keystroke_d	d	n/a
602.7425	0.076	1205485	keystroke_i	i	n/a
602.9525	0.09	1205905	keystroke_c	c	n/a
603.1625	0.061	1206325	keystroke_t	t	n/a
603.2535	0.089	1206507	keystroke_Key.space	Key.space	n/a
603.6285	0.0445	1207257	keystroke_t	t	n/a
603.8985	0.059	1207797	keystroke_a	a	n/a
604.0475	0.091	1208095	keystroke_p	p	n/a
604.3935	0.074	1208787	keystroke_s	s	n/a
604.6775	0.105	1209355	keystroke_Key.space	Key.space	n/a
605.3535	0.089	1210707	keystroke_Key.backspace	Key.backspace	n/a
605.5625	0.105	1211125	keystroke_Key.backspace	Key.backspace	n/a
605.6975	0.076	1211395	keystroke_e	e	n/a
605.9085	0.09	1211817	keystroke_s	s	n/a
606.0725	0.076	1212145	keystroke_Key.space	Key.space	n/a
606.4635	0.074	1212927	keystroke_r	r	n/a
606.5685	0.06	1213137	keystroke_u	u	n/a
606.7935	0.06	1213587	keystroke_n	n	n/a
606.8385	0.075	1213677	keystroke_s	s	n/a
607.7825	0.09	1215565	keystroke_Key.enter	Key.enter	n/a
607.8795	8.096	1215759	prompt	n/a	potential nick mission newport\n
608.7725	0.106	1217545	keystroke_p	p	n/a
608.9985	0.09	1217997	keystroke_o	o	n/a
609.2075	0.076	1218415	keystroke_t	t	n/a
609.4175	0.061	1218835	keystroke_e	e	n/a
609.5835	0.075	1219167	keystroke_n	n	n/a
609.7185	0.06	1219437	keystroke_t	t	n/a
609.9135	0.105	1219827	keystroke_i	i	n/a
610.0785	0.089	1220157	keystroke_a	a	n/a
610.2135	0.12	1220427	keystroke_l	l	n/a
610.4385	0.089	1220877	keystroke_Key.space	Key.space	n/a
611.0835	0.059	1222167	keystroke_n	n	n/a
611.2185	0.12	1222437	keystroke_i	i	n/a
611.3535	0.089	1222707	keystroke_c	c	n/a
611.4735	0.105	1222947	keystroke_k	k	n/a
611.5925	0.12	1223185	keystroke_Key.space	Key.space	n/a
611.9085	0.075	1223817	keystroke_m	m	n/a
612.0435	0.105	1224087	keystroke_i	i	n/a
612.1785	0.06	1224357	keystroke_s	s	n/a
612.3435	0.09	1224687	keystroke_s	s	n/a
612.4485	0.135	1224897	keystroke_i	i	n/a
612.4925	0.166	1224985	keystroke_o	o	n/a
612.5685	0.15	1225137	keystroke_n	n	n/a
612.7035	0.104	1225407	keystroke_Key.space	Key.space	n/a
613.6635	0.135	1227327	keystroke_n	n	n/a
613.8135	0.105	1227627	keystroke_e	e	n/a
613.8885	0.104	1227777	keystroke_w	w	n/a
614.3385	0.12	1228677	keystroke_p	p	n/a
614.5785	0.12	1229157	keystroke_o	o	n/a
614.6535	0.09	1229307	keystroke_r	r	n/a
614.8635	0.06	1229727	keystroke_t	t	n/a
615.8835	0.089	1231767	keystroke_Key.enter	Key.enter	n/a
615.9805	14.8595	1231961	prompt	n/a	expertise scoop guatemala competent\n
616.8125	0.061	1233625	keystroke_e	e	n/a
617.0085	0.135	1234017	keystroke_x	x	n/a
617.2035	0.105	1234407	keystroke_p	p	n/a
617.4285	0.09	1234857	keystroke_e	e	n/a
617.4735	0.12	1234947	keystroke_r	r	n/a
617.6985	0.075	1235397	keystroke_t	t	n/a
617.7885	0.075	1235577	keystroke_i	i	n/a
618.0285	0.075	1236057	keystroke_s	s	n/a
618.1785	0.06	1236357	keystroke_e	e	n/a
618.3275	0.091	1236655	keystroke_Key.space	Key.space	n/a
618.4785	0.09	1236957	keystroke_s	s	n/a
618.7635	0.09	1237527	keystroke_c	c	n/a
618.8835	0.165	1237767	keystroke_o	o	n/a
618.9585	0.135	1237917	keystroke_u	u	n/a
619.1385	0.12	1238277	keystroke_p	p	n/a
619.4835	0.075	1238967	keystroke_Key.space	Key.space	n/a
621.9015	0.057	1243803	keystroke_Key.backspace	Key.backspace	n/a
622.0635	0.12	1244127	keystroke_Key.backspace	Key.backspace	n/a
622.2585	0.12	1244517	keystroke_Key.backspace	Key.backspace	n/a
622.6485	0.105	1245297	keystroke_o	o	n/a
622.8735	0.12	1245747	keystroke_p	p	n/a
623.1135	0.09	1246227	keystroke_Key.space	Key.space	n/a
623.8185	0.12	1247637	keystroke_q	q	n/a
624.0885	0.12	1248177	keystroke_u	u	n/a
624.4185	0.105	1248837	keystroke_a	a	n/a
624.5985	0.075	1249197	keystroke_t	t	n/a
625.0035	0.075	1250007	keystroke_e	e	n/a
625.1685	0.09	1250337	keystroke_m	m	n/a
625.3185	0.09	1250637	keystroke_a	a	n/a
625.4685	0.12	1250937	keystroke_l	l	n/a
625.6485	0.075	1251297	keystroke_a	a	n/a
626.1585	0.075	1252317	keystroke_Key.space	Key.space	n/a
626.8635	0.09	1253727	keystroke_c	c	n/a
626.9985	0.12	1253997	keystroke_o	o	n/a
627.1035	0.195	1254207	keystroke_m	m	n/a
627.3735	0.09	1254747	keystroke_p	p	n/a
627.7785	0.06	1255557	keystroke_e	e	n/a
628.0335	0.06	1256067	keystroke_t	t	n/a
628.5135	0.06	1257027	keystroke_e	e	n/a
628.6185	0.105	1257237	keystroke_n	n	n/a
628.7535	0.075	1257507	keystroke_t	t	n/a
630.7635	0.075	1261527	keystroke_Key.enter	Key.enter	n/a
630.846	21.339	1261692	prompt	n/a	realize match vietnamese atmosphere\n
633.0165	0.012	1266033	keystroke_r	r	n/a
633.0175	0.101	1266035	keystroke_e	e	n/a
633.2835	0.09	1266567	keystroke_l	l	n/a
634.5585	0.105	1269117	keystroke_Key.backspace	Key.backspace	n/a
634.7085	0.105	1269417	keystroke_a	a	n/a
634.8885	0.12	1269777	keystroke_l	l	n/a
635.1585	0.06	1270317	keystroke_i	i	n/a
635.4585	0.105	1270917	keystroke_z	z	n/a
635.683	0.045	1271366	keystroke_e	e	n/a
635.803	0.105	1271606	keystroke_Key.space	Key.space	n/a
636.3735	0.136	1272747	keystroke_m	m	n/a
636.493	0.0905	1272986	keystroke_a	a	n/a
636.643	0.09	1273286	keystroke_t	t	n/a
636.8985	0.0895	1273797	keystroke_c	c	n/a
637.0185	0.1195	1274037	keystroke_h	h	n/a
637.123	0.105	1274246	keystroke_Key.space	Key.space	n/a
637.4235	0.075	1274847	keystroke_v	v	n/a
637.708	0.0605	1275416	keystroke_e	e	n/a
637.9485	0.0595	1275897	keystroke_t	t	n/a
638.188	0.09	1276376	keystroke_n	n	n/a
638.293	0.075	1276586	keystroke_a	a	n/a
638.488	0.075	1276976	keystroke_m	m	n/a
638.638	0.075	1277276	keystroke_e	e	n/a
638.8485	0.075	1277697	keystroke_s	s	n/a
638.9685	0.0895	1277937	keystroke_e	e	n/a
639.178	0.09	1278356	keystroke_Key.space	Key.space	n/a
639.433	0.1055	1278866	keystroke_a	a	n/a
639.6435	0.0895	1279287	keystroke_t	t	n/a
639.973	0.076	1279946	keystroke_m	m	n/a
640.1985	0.0895	1280397	keystroke_o	o	n/a
642.571	0.012	1285142	keystroke_Key.backspace	Key.backspace	n/a
642.688	0.1055	1285376	keystroke_Key.backspace	Key.backspace	n/a
642.898	0.09	1285796	keystroke_Key.backspace	Key.backspace	n/a
643.108	0.09	1286216	keystroke_Key.backspace	Key.backspace	n/a
643.303	0.075	1286606	keystroke_Key.backspace	Key.backspace	n/a
643.498	0.075	1286996	keystroke_Key.backspace	Key.backspace	n/a
643.678	0.09	1287356	keystroke_Key.backspace	Key.backspace	n/a
643.888	0.09	1287776	keystroke_Key.backspace	Key.backspace	n/a
644.083	0.09	1288166	keystroke_Key.backspace	Key.backspace	n/a
644.293	0.09	1288586	keystroke_Key.backspace	Key.backspace	n/a
644.4885	0.0895	1288977	keystroke_Key.backspace	Key.backspace	n/a
644.683	0.09	1289366	keystroke_Key.backspace	Key.backspace	n/a
644.863	0.09	1289726	keystroke_Key.backspace	Key.backspace	n/a
645.988	0.075	1291976	keystroke_i	i	n/a
646.198	0.075	1292396	keystroke_e	e	n/a
646.528	0.075	1293056	keystroke_t	t	n/a
646.978	0.105	1293956	keystroke_n	n	n/a
647.128	0.105	1294256	keystroke_a	a	n/a
647.323	0.075	1294646	keystroke_m	m	n/a
647.533	0.09	1295066	keystroke_e	e	n/a
647.773	0.09	1295546	keystroke_s	s	n/a
647.968	0.06	1295936	keystroke_e	e	n/a
648.283	0.075	1296566	keystroke_Key.space	Key.space	n/a
648.733	0.12	1297466	keystroke_a	a	n/a
649.408	0.09	1298816	keystroke_t	t	n/a
649.738	0.075	1299476	keystroke_m	m	n/a
649.888	0.09	1299776	keystroke_o	o	n/a
650.053	0.09	1300106	keystroke_s	s	n/a
650.458	0.09	1300916	keystroke_p	p	n/a
650.683	0.075	1301366	keystroke_h	h	n/a
650.878	0.09	1301756	keystroke_e	e	n/a
650.953	0.12	1301906	keystroke_r	r	n/a
651.043	0.075	1302086	keystroke_e	e	n/a
652.078	0.105	1304156	keystroke_Key.enter	Key.enter	n/a
652.1905	9.8945	1304381	prompt	n/a	infant judge organizing excitement\n
653.323	0.075	1306646	keystroke_i	i	n/a
653.518	0.105	1307036	keystroke_n	n	n/a
653.848	0.06	1307696	keystroke_f	f	n/a
654.373	0.09	1308746	keystroke_a	a	n/a
654.508	0.12	1309016	keystroke_n	n	n/a
654.673	0.09	1309346	keystroke_t	t	n/a
654.838	0.09	1309676	keystroke_Key.space	Key.space	n/a
655.063	0.135	1310126	keystroke_j	j	n/a
655.543	0.105	1311086	keystroke_u	u	n/a
655.753	0.075	1311506	keystroke_d	d	n/a
656.038	0.075	1312076	keystroke_g	g	n/a
656.203	0.09	1312406	keystroke_e	e	n/a
656.353	0.09	1312706	keystroke_Key.space	Key.space	n/a
656.563	0.105	1313126	keystroke_o	o	n/a
656.683	0.075	1313366	keystroke_r	r	n/a
656.953	0.075	1313906	keystroke_g	g	n/a
657.058	0.09	1314116	keystroke_a	a	n/a
657.238	0.09	1314476	keystroke_n	n	n/a
657.463	0.075	1314926	keystroke_i	i	n/a
657.583	0.12	1315166	keystroke_z	z	n/a
657.928	0.0595	1315856	keystroke_i	i	n/a
658.1075	0.135	1316215	keystroke_n	n	n/a
658.2275	0.0455	1316455	keystroke_g	g	n/a
658.4075	0.0755	1316815	keystroke_Key.space	Key.space	n/a
659.158	0.0595	1318316	keystroke_e	e	n/a
659.353	0.105	1318706	keystroke_x	x	n/a
659.578	0.06	1319156	keystroke_i	i	n/a
659.713	0.09	1319426	keystroke_c	c	n/a
660.0875	0.09	1320175	keystroke_e	e	n/a
660.3275	0.105	1320655	keystroke_m	m	n/a
660.418	0.0595	1320836	keystroke_e	e	n/a
660.5825	0.0755	1321165	keystroke_n	n	n/a
660.673	0.0595	1321346	keystroke_t	t	n/a
661.9925	0.09	1323985	keystroke_Key.enter	Key.enter	n/a
662.0905	10.9145	1324181	prompt	n/a	imposed affecting effectiveness columbus\n
662.9075	0.0905	1325815	keystroke_i	i	n/a
663.0735	0.1345	1326147	keystroke_m	m	n/a
663.163	0.135	1326326	keystroke_p	p	n/a
663.418	0.09	1326836	keystroke_o	o	n/a
663.433	0.1195	1326866	keystroke_s	s	n/a
663.643	0.0745	1327286	keystroke_e	e	n/a
663.8525	0.075	1327705	keystroke_d	d	n/a
663.9575	0.0905	1327915	keystroke_Key.space	Key.space	n/a
664.348	0.075	1328696	keystroke_a	a	n/a
664.5575	0.045	1329115	keystroke_f	f	n/a
664.648	0.12	1329296	keystroke_f	f	n/a
664.8275	0.075	1329655	keystroke_e	e	n/a
665.068	0.12	1330136	keystroke_c	c	n/a
665.173	0.0745	1330346	keystroke_t	t	n/a
665.3075	0.06	1330615	keystroke_i	i	n/a
665.488	0.15	1330976	keystroke_n	n	n/a
665.593	0.105	1331186	keystroke_g	g	n/a
665.683	0.12	1331366	keystroke_Key.space	Key.space	n/a
665.923	0.09	1331846	keystroke_e	e	n/a
666.268	0.075	1332536	keystroke_f	f	n/a
666.403	0.09	1332806	keystroke_f	f	n/a
666.568	0.075	1333136	keystroke_e	e	n/a
666.823	0.165	1333646	keystroke_c	c	n/a
666.958	0.105	1333916	keystroke_t	t	n/a
667.123	0.06	1334246	keystroke_i	i	n/a
667.288	0.09	1334576	keystroke_v	v	n/a
667.333	0.09	1334666	keystroke_e	e	n/a
667.663	0.12	1335326	keystroke_n	n	n/a
667.768	0.06	1335536	keystroke_e	e	n/a
668.038	0.075	1336076	keystroke_s	s	n/a
668.203	0.075	1336406	keystroke_s	s	n/a
668.578	0.09	1337156	keystroke_Key.space	Key.space	n/a
669.598	0.075	1339196	keystroke_c	c	n/a
669.718	0.105	1339436	keystroke_o	o	n/a
669.928	0.12	1339856	keystroke_l	l	n/a
670.153	0.075	1340306	keystroke_u	u	n/a
671.203	0.12	1342406	keystroke_m	m	n/a
671.398	0.075	1342796	keystroke_b	b	n/a
671.743	0.09	1343486	keystroke_u	u	n/a
671.848	0.06	1343696	keystroke_s	s	n/a
672.913	0.09	1345826	keystroke_Key.enter	Key.enter	n/a
673.009	8.6665	1346018	prompt	n/a	ieee neither assault algeria\n
674.248	0.105	1348496	keystroke_i	i	n/a
674.503	0.075	1349006	keystroke_e	e	n/a
674.653	0.075	1349306	keystroke_e	e	n/a
674.833	0.06	1349666	keystroke_e	e	n/a
675.403	0.09	1350806	keystroke_Key.space	Key.space	n/a
675.808	0.12	1351616	keystroke_n	n	n/a
675.929	0.09	1351858	keystroke_e	e	n/a
676.093	0.075	1352186	keystroke_i	i	n/a
676.213	0.075	1352426	keystroke_t	t	n/a
676.438	0.075	1352876	keystroke_h	h	n/a
676.558	0.075	1353116	keystroke_e	e	n/a
676.603	0.075	1353206	keystroke_r	r	n/a
677.188	0.09	1354376	keystroke_Key.space	Key.space	n/a
677.533	0.06	1355066	keystroke_a	a	n/a
677.788	0.075	1355576	keystroke_s	s	n/a
677.938	0.09	1355876	keystroke_s	s	n/a
678.163	0.075	1356326	keystroke_a	a	n/a
678.313	0.06	1356626	keystroke_u	u	n/a
678.493	0.105	1356986	keystroke_l	l	n/a
678.613	0.09	1357226	keystroke_t	t	n/a
678.823	0.105	1357646	keystroke_Key.space	Key.space	n/a
679.093	0.06	1358186	keystroke_a	a	n/a
679.618	0.105	1359236	keystroke_l	l	n/a
679.828	0.075	1359656	keystroke_g	g	n/a
679.993	0.09	1359986	keystroke_e	e	n/a
680.203	0.06	1360406	keystroke_r	r	n/a
680.323	0.075	1360646	keystroke_i	i	n/a
680.443	0.09	1360886	keystroke_a	a	n/a
681.568	0.105	1363136	keystroke_Key.enter	Key.enter	n/a
681.6815	14.708	1363363	prompt	n/a	institutional twisted perspectives injury\n
682.723	0.09	1365446	keystroke_i	i	n/a
683.038	0.105	1366076	keystroke_n	n	n/a
683.173	0.105	1366346	keystroke_s	s	n/a
683.398	0.105	1366796	keystroke_t	t	n/a
683.593	0.09	1367186	keystroke_i	i	n/a
683.773	0.09	1367546	keystroke_t	t	n/a
683.938	0.075	1367876	keystroke_u	u	n/a
684.193	0.075	1368386	keystroke_t	t	n/a
684.313	0.21	1368626	keystroke_i	i	n/a
684.358	0.165	1368716	keystroke_o	o	n/a
684.448	0.15	1368896	keystroke_n	n	n/a
684.628	0.105	1369256	keystroke_a	a	n/a
684.748	0.15	1369496	keystroke_l	l	n/a
684.943	0.105	1369886	keystroke_Key.space	Key.space	n/a
685.513	0.105	1371026	keystroke_t	t	n/a
685.663	0.0895	1371326	keystroke_w	w	n/a
685.8575	0.075	1371715	keystroke_i	i	n/a
686.023	0.1345	1372046	keystroke_s	s	n/a
686.173	0.1345	1372346	keystroke_t	t	n/a
686.323	0.09	1372646	keystroke_e	e	n/a
686.533	0.075	1373066	keystroke_d	d	n/a
686.623	0.1045	1373246	keystroke_Key.space	Key.space	n/a
687.193	0.09	1374386	keystroke_p	p	n/a
687.5225	0.1205	1375045	keystroke_e	e	n/a
687.598	0.1045	1375196	keystroke_r	r	n/a
688.468	0.105	1376936	keystroke_p	p	n/a
690.1175	0.09	1380235	keystroke_Key.backspace	Key.backspace	n/a
