onset	duration	sample	value	key	prompt_text
6.6095	14.475	13219	prompt	n/a	the quick brown fox jumps over a lazy dog\n
9.0385	0.042	18077	keystroke_t	t	n/a
9.051	0.06	18102	keystroke_h	h	n/a
9.3055	0.09	18611	keystroke_Key.space	Key.space	n/a
9.411	0.075	18822	keystroke_e	e	n/a
9.666	0.0595	19332	keystroke_Key.backspace	Key.backspace	n/a
9.786	0.09	19572	keystroke_Key.backspace	Key.backspace	n/a
9.8615	0.0905	19723	keystroke_e	e	n/a
9.996	0.12	19992	keystroke_Key.space	Key.space	n/a
10.0865	0.1345	20173	keystroke_q	q	n/a
10.2355	0.1205	20471	keystroke_u	u	n/a
10.6565	0.09	21313	keystroke_i	i	n/a
10.806	0.1355	21612	keystroke_c	c	n/a
10.881	0.1055	21762	keystroke_k	k	n/a
11.031	0.1195	22062	keystroke_Key.space	Key.space	n/a
11.2705	0.105	22541	keystroke_b	b	n/a
11.3915	0.134	22783	keystroke_r	r	n/a
11.5115	0.09	23023	keystroke_o	o	n/a
11.646	0.12	23292	keystroke_w	w	n/a
11.7365	0.1195	23473	keystroke_n	n	n/a
11.871	0.089	23742	keystroke_Key.space	Key.space	n/a
11.9915	0.1045	23983	keystroke_f	f	n/a
12.0665	0.1195	24133	keystroke_o	o	n/a
12.382	0.0585	24764	keystroke_x	x	n/a
12.4715	0.0745	24943	keystroke_x	x	n/a
12.5605	0.106	25121	keystroke_Key.space	Key.space	n/a
12.7565	0.06	25513	keystroke_j	j	n/a
13.0565	0.03	26113	keystroke_Key.backspace	Key.backspace	n/a
13.161	0.0605	26322	keystroke_Key.backspace	Key.backspace	n/a
13.266	0.0755	26532	keystroke_Key.backspace	Key.backspace	n/a
13.581	0.09	27162	keystroke_Key.space	Key.space	n/a
13.822	0.089	27644	keystroke_h	h	n/a
14.0015	0.075	28003	keystroke_u	u	n/a
14.4365	0.0295	28873	keystroke_Key.backspace	Key.backspace	n/a
14.5715	0.0745	29143	keystroke_Key.backspace	Key.backspace	n/a
14.8255	0.076	29651	keystroke_j	j	n/a
15.006	0.06	30012	keystroke_u	u	n/a
15.171	0.075	30342	keystroke_m	m	n/a
15.322	0.0745	30644	keystroke_p	p	n/a
15.637	0.074	31274	keystroke_s	s	n/a
15.831	0.12	31662	keystroke_Key.space	Key.space	n/a
15.997	0.119	31994	keystroke_o	o	n/a
16.1315	0.1195	32263	keystroke_v	v	n/a
16.2665	0.1795	32533	keystroke_e	e	n/a
16.3855	0.1505	32771	keystroke_r	r	n/a
16.521	0.1055	33042	keystroke_Key.space	Key.space	n/a
16.6565	0.1355	33313	keystroke_a	a	n/a
16.761	0.075	33522	keystroke_Key.space	Key.space	n/a
17.136	0.1055	34272	keystroke_l	l	n/a
17.2715	0.105	34543	keystroke_a	a	n/a
17.616	0.1355	35232	keystroke_z	z	n/a
17.7365	0.149	35473	keystroke_y	y	n/a
17.826	0.075	35652	keystroke_Key.space	Key.space	n/a
18.2455	0.151	36491	keystroke_g	g	n/a
18.336	0.105	36672	keystroke_o	o	n/a
18.5455	0.075	37091	keystroke_d	d	n/a
18.801	0.0445	37602	keystroke_Key.backspace	Key.backspace	n/a
18.9365	0.059	37873	keystroke_Key.backspace	Key.backspace	n/a
19.0705	0.0455	38141	keystroke_Key.backspace	Key.backspace	n/a
19.8515	0.044	39703	keystroke_g	g	n/a
20.1065	0.075	40213	keystroke_Key.backspace	Key.backspace	n/a
20.2105	0.0905	40421	keystroke_d	d	n/a
20.347	0.089	40694	keystroke_o	o	n/a
20.4665	0.15	40933	keystroke_g	g	n/a
20.991	0.09	41982	keystroke_Key.enter	Key.enter	n/a
21.0905	8.693	42181	prompt	n/a	unlikely bands isbn thousands\n
22.3715	0.0605	44743	keystroke_u	u	n/a
22.536	0.0745	45072	keystroke_n	n	n/a
22.7605	0.075	45521	keystroke_l	l	n/a
22.986	0.06	45972	keystroke_i	i	n/a
23.136	0.0905	46272	keystroke_k	k	n/a
23.2115	0.105	46423	keystroke_e	e	n/a
23.406	0.0905	46812	keystroke_l	l	n/a
23.5855	0.121	47171	keystroke_y	y	n/a
23.736	0.1045	47472	keystroke_Key.space	Key.space	n/a
24.3065	0.075	48613	keystroke_b	b	n/a
24.651	0.1045	49302	keystroke_a	a	n/a
24.7855	0.0905	49571	keystroke_n	n	n/a
24.9365	0.09	49873	keystroke_d	d	n/a
25.1315	0.1645	50263	keystroke_s	s	n/a
25.251	0.105	50502	keystroke_Key.space	Key.space	n/a
25.491	0.045	50982	keystroke_i	i	n/a
26.2715	0.1045	52543	keystroke_s	s	n/a
26.4065	0.0595	52813	keystroke_b	b	n/a
26.676	0.105	53352	keystroke_n	n	n/a
26.9015	0.0895	53803	keystroke_Key.space	Key.space	n/a
27.322	0.1045	54644	keystroke_t	t	n/a
28.1915	0.0755	56383	keystroke_h	h	n/a
28.356	0.09	56712	keystroke_o	o	n/a
28.582	0.074	57164	keystroke_u	u	n/a
28.701	0.091	57402	keystroke_s	s	n/a
28.911	0.1205	57822	keystroke_a	a	n/a
29.1365	0.074	58273	keystroke_n	n	n/a
29.316	0.075	58632	keystroke_d	d	n/a
29.4965	0.104	58993	keystroke_s	s	n/a
29.6605	0.121	59321	keystroke_Key.enter	Key.enter	n/a
29.7885	8.4695	59577	prompt	n/a	aquatic insects suggested usual\n
31.0115	0.0905	62023	keystroke_a	a	n/a
31.207	0.104	62414	keystroke_q	q	n/a
31.356	0.075	62712	keystroke_u	u	n/a
31.476	0.09	62952	keystroke_a	a	n/a
32.136	0.12	64272	keystroke_t	t	n/a
32.347	0.0745	64694	keystroke_i	i	n/a
32.527	0.104	65054	keystroke_n	n	n/a
32.8705	0.075	65741	keystroke_Key.backspace	Key.backspace	n/a
32.9905	0.1055	65981	keystroke_c	c	n/a
33.1415	0.135	66283	keystroke_Key.space	Key.space	n/a
33.4715	0.075	66943	keystroke_i	i	n/a
33.6365	0.09	67273	keystroke_n	n	n/a
33.9065	0.2395	67813	keystroke_s	s	n/a
34.267	0.0895	68534	keystroke_e	e	n/a
34.4615	0.104	68923	keystroke_c	c	n/a
34.6415	0.135	69283	keystroke_t	t	n/a
34.8965	0.1345	69793	keystroke_s	s	n/a
35.032	0.1195	70064	keystroke_Key.space	Key.space	n/a
35.421	0.1055	70842	keystroke_s	s	n/a
35.5105	0.076	71021	keystroke_u	u	n/a
35.7215	0.0755	71443	keystroke_g	g	n/a
35.8715	0.075	71743	keystroke_g	g	n/a
35.9315	0.105	71863	keystroke_e	e	n/a
36.1265	0.09	72253	keystroke_s	s	n/a
36.2615	0.135	72523	keystroke_t	t	n/a
36.5015	0.134	73003	keystroke_e	e	n/a
36.6065	0.15	73213	keystroke_d	d	n/a
36.7115	0.1345	73423	keystroke_Key.space	Key.space	n/a
36.907	0.104	73814	keystroke_u	u	n/a
37.221	0.09	74442	keystroke_s	s	n/a
37.326	0.09	74652	keystroke_u	u	n/a
37.432	0.104	74864	keystroke_a	a	n/a
37.776	0.0905	75552	keystroke_l	l	n/a
38.1665	0.09	76333	keystroke_Key.enter	Key.enter	n/a
38.264	14.019	76528	prompt	n/a	modelling difficulty faqs broadband\n
38.977	0.0745	77954	keystroke_m	m	n/a
39.1865	0.075	78373	keystroke_o	o	n/a
39.2915	0.149	78583	keystroke_d	d	n/a
39.4255	0.1215	78851	keystroke_e	e	n/a
39.548	0.058	79096	keystroke_l	l	n/a
39.6815	0.0895	79363	keystroke_l	l	n/a
39.8915	0.075	79783	keystroke_i	i	n/a
40.0415	0.105	80083	keystroke_n	n	n/a
40.1765	0.1195	80353	keystroke_g	g	n/a
40.3115	0.0895	80623	keystroke_Key.space	Key.space	n/a
40.581	0.1355	81162	keystroke_d	d	n/a
40.7015	0.0745	81403	keystroke_i	i	n/a
40.8065	0.1045	81613	keystroke_f	f	n/a
40.971	0.09	81942	keystroke_f	f	n/a
41.0765	0.09	82153	keystroke_i	i	n/a
41.4215	0.0895	82843	keystroke_c	c	n/a
41.526	0.0755	83052	keystroke_u	u	n/a
41.7365	0.1045	83473	keystroke_l	l	n/a
42.201	0.1355	84402	keystroke_t	t	n/a
42.426	0.12	84852	keystroke_y	y	n/a
42.591	0.105	85182	keystroke_Key.space	Key.space	n/a
42.906	0.091	85812	keystroke_f	f	n/a
43.311	0.12	86622	keystroke_a	a	n/a
43.506	0.1055	87012	keystroke_w	w	n/a
43.926	0.06	87852	keystroke_Key.backspace	Key.backspace	n/a
44.6015	0.09	89203	keystroke_q	q	n/a
44.8865	0.0895	89773	keystroke_s	s	n/a
45.006	0.09	90012	keystroke_Key.space	Key.space	n/a
45.3515	0.105	90703	keystroke_b	b	n/a
45.5015	0.12	91003	keystroke_r	r	n/a
45.996	0.1055	91992	keystroke_a	a	n/a
46.1155	0.09	92231	keystroke_o	o	n/a
46.3265	0.1195	92653	keystroke_d	d	n/a
46.971	0.105	93942	keystroke_b	b	n/a
47.0915	0.1345	94183	keystroke_a	a	n/a
47.242	0.059	94484	keystroke_n	n	n/a
47.571	0.0455	95142	keystroke_Key.backspace	Key.backspace	n/a
47.721	0.06	95442	keystroke_Key.backspace	Key.backspace	n/a
47.8565	0.075	95713	keystroke_Key.backspace	Key.backspace	n/a
48.0065	0.06	96013	keystroke_Key.backspace	Key.backspace	n/a
48.1415	0.075	96283	keystroke_Key.backspace	Key.backspace	n/a
48.5165	0.06	97033	keystroke_Key.backspace	Key.backspace	n/a
49.4615	0.075	98923	keystroke_o	o	n/a
49.6265	0.105	99253	keystroke_a	a	n/a
49.8215	0.1505	99643	keystroke_d	d	n/a
51.127	0.089	102254	keystroke_b	b	n/a
51.217	0.119	102434	keystroke_a	a	n/a
51.396	0.0755	102792	keystroke_n	n	n/a
51.4865	0.12	102973	keystroke_d	d	n/a
52.2215	0.06	104443	keystroke_Key.enter	Key.enter	n/a
52.2905	6.9075	104581	prompt	n/a	scheme permission licenses tied\n
53.1665	0.1045	106333	keystroke_s	s	n/a
53.407	0.06	106814	keystroke_c	c	n/a
53.691	0.0455	107382	keystroke_h	h	n/a
53.9315	0.1055	107863	keystroke_e	e	n/a
54.067	0.1045	108134	keystroke_m	m	n/a
54.217	0.0895	108434	keystroke_e	e	n/a
54.471	0.135	108942	keystroke_Key.space	Key.space	n/a
54.741	0.0905	109482	keystroke_p	p	n/a
54.906	0.225	109812	keystroke_e	e	n/a
55.056	0.15	110112	keystroke_r	r	n/a
55.2365	0.105	110473	keystroke_m	m	n/a
55.4475	0.089	110895	keystroke_i	i	n/a
55.5815	0.0895	111163	keystroke_s	s	n/a
55.761	0.1055	111522	keystroke_s	s	n/a
55.897	0.074	111794	keystroke_i	i	n/a
56.0765	0.105	112153	keystroke_o	o	n/a
56.3165	0.12	112633	keystroke_n	n	n/a
56.437	0.1345	112874	keystroke_Key.space	Key.space	n/a
56.6765	0.09	113353	keystroke_l	l	n/a
56.901	0.076	113802	keystroke_i	i	n/a
57.051	0.1205	114102	keystroke_c	c	n/a
57.201	0.1355	114402	keystroke_e	e	n/a
57.321	0.09	114642	keystroke_n	n	n/a
57.472	0.1195	114944	keystroke_s	s	n/a
57.636	0.136	115272	keystroke_e	e	n/a
57.831	0.12	115662	keystroke_s	s	n/a
57.966	0.12	115932	keystroke_Key.space	Key.space	n/a
58.266	0.1205	116532	keystroke_t	t	n/a
58.431	0.12	116862	keystroke_i	i	n/a
58.6415	0.075	117283	keystroke_e	e	n/a
58.8065	0.165	117613	keystroke_d	d	n/a
59.091	0.1045	118182	keystroke_Key.enter	Key.enter	n/a
59.2035	9.175	118407	prompt	n/a	baseline tuesday deviation mount\n
60.036	0.09	120072	keystroke_b	b	n/a
60.141	0.075	120282	keystroke_e	e	n/a
60.321	0.135	120642	keystroke_s	s	n/a
60.471	0.1205	120942	keystroke_e	e	n/a
61.1165	0.09	122233	keystroke_l	l	n/a
61.3265	0.0745	122653	keystroke_i	i	n/a
61.4615	0.12	122923	keystroke_n	n	n/a
61.5515	0.12	123103	keystroke_e	e	n/a
61.6865	0.105	123373	keystroke_Key.space	Key.space	n/a
61.8065	0.105	123613	keystroke_t	t	n/a
61.9565	0.09	123913	keystroke_u	u	n/a
62.0615	0.09	124123	keystroke_r	r	n/a
62.5265	0.075	125053	keystroke_Key.backspace	Key.backspace	n/a
62.5565	0.105	125113	keystroke_e	e	n/a
62.766	0.1055	125532	keystroke_s	s	n/a
63.021	0.09	126042	keystroke_d	d	n/a
63.2015	0.1205	126403	keystroke_a	a	n/a
63.2765	0.12	126553	keystroke_y	y	n/a
63.4405	0.106	126881	keystroke_Key.space	Key.space	n/a
63.771	0.1355	127542	keystroke_d	d	n/a
63.9515	0.09	127903	keystroke_e	e	n/a
64.2365	0.12	128473	keystroke_v	v	n/a
64.2815	0.045	128563	keystroke_i	i	n/a
64.6415	0.0755	129283	keystroke_a	a	n/a
64.8815	0.1195	129763	keystroke_t	t	n/a
64.972	0.075	129944	keystroke_i	i	n/a
65.1505	0.0605	130301	keystroke_o	o	n/a
65.346	0.1205	130692	keystroke_n	n	n/a
65.5265	0.0895	131053	keystroke_Key.space	Key.space	n/a
66.6965	0.1055	133393	keystroke_m	m	n/a
66.9515	0.0755	133903	keystroke_o	o	n/a
67.4615	0.074	134923	keystroke_u	u	n/a
67.6565	0.06	135313	keystroke_n	n	n/a
67.7615	0.09	135523	keystroke_t	t	n/a
68.2855	0.091	136571	keystroke_Key.enter	Key.enter	n/a
68.3835	8.0195	136767	prompt	n/a	mold blackberry controversy showcase\n
69.1715	0.105	138343	keystroke_m	m	n/a
69.3965	0.075	138793	keystroke_o	o	n/a
69.621	0.0755	139242	keystroke_l	l	n/a
69.7265	0.1345	139453	keystroke_d	d	n/a
69.846	0.105	139692	keystroke_Key.space	Key.space	n/a
70.0565	0.09	140113	keystroke_b	b	n/a
70.297	0.104	140594	keystroke_l	l	n/a
70.416	0.09	140832	keystroke_a	a	n/a
70.551	0.136	141102	keystroke_c	c	n/a
70.657	0.09	141314	keystroke_k	k	n/a
71.0165	0.075	142033	keystroke_b	b	n/a
71.3455	0.151	142691	keystroke_e	e	n/a
71.4815	0.09	142963	keystroke_r	r	n/a
71.6615	0.075	143323	keystroke_r	r	n/a
71.7665	0.1055	143533	keystroke_y	y	n/a
72.0215	0.1195	144043	keystroke_Key.space	Key.space	n/a
72.427	0.134	144854	keystroke_c	c	n/a
72.516	0.0755	145032	keystroke_o	o	n/a
72.711	0.09	145422	keystroke_n	n	n/a
72.802	0.09	145604	keystroke_t	t	n/a
72.9965	0.0905	145993	keystroke_r	r	n/a
73.057	0.104	146114	keystroke_o	o	n/a
73.206	0.12	146412	keystroke_v	v	n/a
73.356	0.166	146712	keystroke_e	e	n/a
73.462	0.134	146924	keystroke_r	r	n/a
74.061	0.105	148122	keystroke_s	s	n/a
74.181	0.135	148362	keystroke_y	y	n/a
74.391	0.0755	148782	keystroke_Key.space	Key.space	n/a
74.736	0.0905	149472	keystroke_s	s	n/a
74.841	0.075	149682	keystroke_h	h	n/a
75.021	0.12	150042	keystroke_o	o	n/a
75.081	0.09	150162	keystroke_w	w	n/a
75.5305	0.0915	151061	keystroke_c	c	n/a
75.682	0.1345	151364	keystroke_a	a	n/a
75.906	0.1355	151812	keystroke_s	s	n/a
76.0115	0.15	152023	keystroke_e	e	n/a
76.3115	0.09	152623	keystroke_Key.enter	Key.enter	n/a
76.411	7.9125	152822	prompt	n/a	themes honor movie probably\n
77.0765	0.1195	154153	keystroke_t	t	n/a
77.241	0.075	154482	keystroke_h	h	n/a
77.331	0.135	154662	keystroke_e	e	n/a
77.601	0.0905	155202	keystroke_e	e	n/a
77.9615	0.074	155923	keystroke_Key.backspace	Key.backspace	n/a
78.1865	0.09	156373	keystroke_n	n	n/a
78.2915	0.1045	156583	keystroke_e	e	n/a
78.816	0.06	157632	keystroke_Key.backspace	Key.backspace	n/a
78.9515	0.089	157903	keystroke_Key.backspace	Key.backspace	n/a
79.1755	0.1055	158351	keystroke_m	m	n/a
79.311	0.105	158622	keystroke_e	e	n/a
79.536	0.1055	159072	keystroke_s	s	n/a
79.626	0.105	159252	keystroke_Key.space	Key.space	n/a
80.1815	0.06	160363	keystroke_h	h	n/a
80.3765	0.0745	160753	keystroke_o	o	n/a
80.586	0.061	161172	keystroke_n	n	n/a
80.7215	0.09	161443	keystroke_o	o	n/a
80.8265	0.1195	161653	keystroke_r	r	n/a
80.9615	0.0895	161923	keystroke_Key.space	Key.space	n/a
81.096	0.105	162192	keystroke_m	m	n/a
81.261	0.1055	162522	keystroke_o	o	n/a
81.681	0.105	163362	keystroke_v	v	n/a
81.816	0.105	163632	keystroke_i	i	n/a
81.936	0.12	163872	keystroke_e	e	n/a
82.0565	0.1045	164113	keystroke_Key.space	Key.space	n/a
82.4155	0.121	164831	keystroke_p	p	n/a
82.5365	0.1195	165073	keystroke_r	r	n/a
82.671	0.0755	165342	keystroke_o	o	n/a
82.941	0.105	165882	keystroke_b	b	n/a
83.226	0.1055	166452	keystroke_a	a	n/a
83.3165	0.09	166633	keystroke_b	b	n/a
83.586	0.105	167172	keystroke_l	l	n/a
83.7515	0.1655	167503	keystroke_y	y	n/a
84.126	0.195	168252	keystroke_Key.enter	Key.enter	n/a
84.3285	16.104	168657	prompt	n/a	insured marine capture correspondence\n
85.1465	0.09	170293	keystroke_i	i	n/a
85.2665	0.12	170533	keystroke_s	s	n/a
85.4015	0.09	170803	keystroke_u	u	n/a
85.4765	0.2105	170953	keystroke_r	r	n/a
85.6415	0.12	171283	keystroke_e	e	n/a
85.7465	0.1495	171493	keystroke_Key.space	Key.space	n/a
86.376	0.105	172752	keystroke_m	m	n/a
86.496	0.105	172992	keystroke_a	a	n/a
86.751	0.135	173502	keystroke_r	r	n/a
86.856	0.0905	173712	keystroke_i	i	n/a
87.7415	0.0895	175483	keystroke_n	n	n/a
88.101	0.105	176202	keystroke_e	e	n/a
88.191	0.12	176382	keystroke_Key.space	Key.space	n/a
89.871	0.075	179742	keystroke_Key.left	Key.left	n/a
90.036	0.075	180072	keystroke_Key.left	Key.left	n/a
90.1865	0.075	180373	keystroke_Key.left	Key.left	n/a
90.351	0.075	180702	keystroke_Key.left	Key.left	n/a
90.516	0.0605	181032	keystroke_Key.left	Key.left	n/a
90.6665	0.06	181333	keystroke_Key.left	Key.left	n/a
90.816	0.06	181632	keystroke_Key.left	Key.left	n/a
91.0265	0.0145	182053	keystroke_Key.left	Key.left	n/a
91.221	0.1345	182442	keystroke_d	d	n/a
91.581	0.06	183162	keystroke_Key.right	Key.right	n/a
91.731	0.0755	183462	keystroke_Key.right	Key.right	n/a
91.8965	0.0595	183793	keystroke_Key.right	Key.right	n/a
92.061	0.06	184122	keystroke_Key.right	Key.right	n/a
92.226	0.0595	184452	keystroke_Key.right	Key.right	n/a
92.391	0.06	184782	keystroke_Key.right	Key.right	n/a
92.541	0.06	185082	keystroke_Key.right	Key.right	n/a
92.7065	0.0595	185413	keystroke_Key.right	Key.right	n/a
93.531	0.105	187062	keystroke_c	c	n/a
93.666	0.135	187332	keystroke_a	a	n/a
93.756	0.1205	187512	keystroke_p	p	n/a
93.9515	0.0755	187903	keystroke_t	t	n/a
94.071	0.1205	188142	keystroke_u	u	n/a
94.2065	0.165	188413	keystroke_r	r	n/a
94.3405	0.135	188681	keystroke_e	e	n/a
94.4455	0.166	188891	keystroke_Key.space	Key.space	n/a
95.2115	0.1045	190423	keystroke_c	c	n/a
95.2715	0.0895	190543	keystroke_o	o	n/a
95.436	0.1055	190872	keystroke_r	r	n/a
95.6015	0.1495	191203	keystroke_r	r	n/a
95.736	0.12	191472	keystroke_e	e	n/a
95.976	0.105	191952	keystroke_s	s	n/a
96.126	0.09	192252	keystroke_o	o	n/a
96.396	0.105	192792	keystroke_n	n	n/a
96.771	0.03	193542	keystroke_Key.backspace	Key.backspace	n/a
96.8765	0.0745	193753	keystroke_Key.backspace	Key.backspace	n/a
97.086	0.0745	194172	keystroke_p	p	n/a
97.3115	0.089	194623	keystroke_n	n	n/a
98.0005	0.0755	196001	keystroke_Key.backspace	Key.backspace	n/a
98.796	0.0755	197592	keystroke_o	o	n/a
98.991	0.09	197982	keystroke_n	n	n/a
99.111	0.135	198222	keystroke_d	d	n/a
99.231	0.1055	198462	keystroke_e	e	n/a
99.382	0.0895	198764	keystroke_n	n	n/a
99.486	0.0755	198972	keystroke_c	c	n/a
99.591	0.1495	199182	keystroke_e	e	n/a
100.3565	0.074	200713	keystroke_Key.enter	Key.enter	n/a
100.444	6.44	200888	prompt	n/a	landing sorry ballet procedures\n
101.2565	0.09	202513	keystroke_l	l	n/a
101.3915	0.1195	202783	keystroke_a	a	n/a
101.541	0.075	203082	keystroke_n	n	n/a
101.6305	0.106	203261	keystroke_d	d	n/a
101.7965	0.074	203593	keystroke_i	i	n/a
101.9455	0.121	203891	keystroke_n	n	n/a
102.0515	0.105	204103	keystroke_g	g	n/a
102.1415	0.12	204283	keystroke_Key.space	Key.space	n/a
102.3665	0.1195	204733	keystroke_s	s	n/a
102.441	0.09	204882	keystroke_o	o	n/a
102.591	0.075	205182	keystroke_r	r	n/a
102.726	0.0905	205452	keystroke_r	r	n/a
102.8315	0.1195	205663	keystroke_y	y	n/a
102.936	0.1045	205872	keystroke_Key.space	Key.space	n/a
103.1165	0.09	206233	keystroke_b	b	n/a
103.2215	0.09	206443	keystroke_a	a	n/a
103.3555	0.09	206711	keystroke_l	l	n/a
103.5205	0.061	207041	keystroke_l	l	n/a
103.596	0.0745	207192	keystroke_e	e	n/a
103.986	0.105	207972	keystroke_t	t	n/a
104.106	0.12	208212	keystroke_Key.space	Key.space	n/a
104.586	0.075	209172	keystroke_p	p	n/a
104.676	0.1045	209352	keystroke_r	r	n/a
104.8105	0.075	209621	keystroke_o	o	n/a
105.0055	0.1205	210011	keystroke_c	c	n/a
105.2005	0.106	210401	keystroke_e	e	n/a
105.561	0.12	211122	keystroke_d	d	n/a
105.6965	0.09	211393	keystroke_u	u	n/a
105.861	0.15	211722	keystroke_r	r	n/a
105.981	0.105	211962	keystroke_e	e	n/a
106.1915	0.12	212383	keystroke_s	s	n/a
106.8055	0.075	213611	keystroke_Key.enter	Key.enter	n/a
106.899	8.5185	213798	prompt	n/a	atomic feel donation treasurer\n
107.5115	0.0895	215023	keystroke_a	a	n/a
107.7515	0.0445	215503	keystroke_t	t	n/a
107.8115	0.075	215623	keystroke_o	o	n/a
108.006	0.105	216012	keystroke_m	m	n/a
108.1855	0.0755	216371	keystroke_i	i	n/a
108.6815	0.12	217363	keystroke_c	c	n/a
108.786	0.135	217572	keystroke_Key.space	Key.space	n/a
110.1055	0.1205	220211	keystroke_f	f	n/a
110.2405	0.1055	220481	keystroke_e	e	n/a
110.422	0.119	220844	keystroke_e	e	n/a
110.5565	0.104	221113	keystroke_l	l	n/a
110.6915	0.105	221383	keystroke_Key.space	Key.space	n/a
110.9615	0.105	221923	keystroke_d	d	n/a
111.022	0.089	222044	keystroke_o	o	n/a
111.2305	0.091	222461	keystroke_n	n	n/a
111.3215	0.09	222643	keystroke_a	a	n/a
111.5165	0.104	223033	keystroke_t	t	n/a
111.6065	0.104	223213	keystroke_i	i	n/a
111.8015	0.0745	223603	keystroke_o	o	n/a
111.9965	0.1495	223993	keystroke_n	n	n/a
112.131	0.09	224262	keystroke_Key.space	Key.space	n/a
112.281	0.12	224562	keystroke_t	t	n/a
112.611	0.15	225222	keystroke_r	r	n/a
112.717	0.149	225434	keystroke_e	e	n/a
113.691	0.1055	227382	keystroke_a	a	n/a
114.1705	0.136	228341	keystroke_s	s	n/a
114.3365	0.105	228673	keystroke_u	u	n/a
114.5465	0.1795	229093	keystroke_r	r	n/a
114.711	0.225	229422	keystroke_e	e	n/a
114.891	0.1955	229782	keystroke_r	r	n/a
115.296	0.12	230592	keystroke_Key.enter	Key.enter	n/a
115.423	6.6855	230846	prompt	n/a	allowance navy cancel consulting\n
116.0455	0.1205	232091	keystroke_a	a	n/a
116.1355	0.0755	232271	keystroke_l	l	n/a
116.2865	0.09	232573	keystroke_l	l	n/a
116.706	0.09	233412	keystroke_o	o	n/a
116.8565	0.09	233713	keystroke_w	w	n/a
117.0655	0.105	234131	keystroke_a	a	n/a
117.1555	0.09	234311	keystroke_n	n	n/a
117.3065	0.104	234613	keystroke_c	c	n/a
117.4715	0.134	234943	keystroke_e	e	n/a
117.5605	0.1205	235121	keystroke_Key.space	Key.space	n/a
117.9515	0.09	235903	keystroke_n	n	n/a
118.0855	0.091	236171	keystroke_a	a	n/a
118.3405	0.12	236681	keystroke_v	v	n/a
118.6705	0.1205	237341	keystroke_y	y	n/a
118.821	0.105	237642	keystroke_Key.space	Key.space	n/a
119.271	0.15	238542	keystroke_c	c	n/a
119.466	0.135	238932	keystroke_a	a	n/a
119.556	0.12	239112	keystroke_n	n	n/a
119.706	0.075	239412	keystroke_c	c	n/a
119.856	0.105	239712	keystroke_e	e	n/a
119.931	0.12	239862	keystroke_l	l	n/a
120.0815	0.1195	240163	keystroke_Key.space	Key.space	n/a
120.261	0.1505	240522	keystroke_c	c	n/a
120.3665	0.09	240733	keystroke_o	o	n/a
120.5915	0.09	241183	keystroke_n	n	n/a
120.7115	0.1045	241423	keystroke_s	s	n/a
120.8765	0.09	241753	keystroke_u	u	n/a
121.3105	0.121	242621	keystroke_l	l	n/a
121.476	0.105	242952	keystroke_t	t	n/a
121.611	0.076	243222	keystroke_i	i	n/a
121.791	0.06	243582	keystroke_n	n	n/a
121.821	0.1055	243642	keystroke_g	g	n/a
122.0015	0.1045	244003	keystroke_Key.enter	Key.enter	n/a
122.114	9.114	244228	prompt	n/a	outlined desk rewards offerings\n
122.886	0.075	245772	keystroke_o	o	n/a
123.1415	0.075	246283	keystroke_u	u	n/a
123.5165	0.104	247033	keystroke_t	t	n/a
123.6055	0.0765	247211	keystroke_l	l	n/a
123.7865	0.09	247573	keystroke_i	i	n/a
123.9215	0.1195	247843	keystroke_n	n	n/a
124.0115	0.1645	248023	keystroke_e	e	n/a
124.101	0.165	248202	keystroke_d	d	n/a
124.221	0.1205	248442	keystroke_Key.space	Key.space	n/a
125.1215	0.135	250243	keystroke_d	d	n/a
125.2715	0.119	250543	keystroke_e	e	n/a
125.4815	0.1355	250963	keystroke_s	s	n/a
125.572	0.119	251144	keystroke_k	k	n/a
125.856	0.1205	251712	keystroke_Key.space	Key.space	n/a
126.306	0.21	252612	keystroke_r	r	n/a
126.4565	0.1345	252913	keystroke_e	e	n/a
127.0415	0.105	254083	keystroke_w	w	n/a
127.2365	0.1195	254473	keystroke_a	a	n/a
127.416	0.12	254832	keystroke_r	r	n/a
127.656	0.181	255312	keystroke_d	d	n/a
127.822	0.134	255644	keystroke_s	s	n/a
127.941	0.12	255882	keystroke_Key.space	Key.space	n/a
128.376	0.105	256752	keystroke_o	o	n/a
128.496	0.135	256992	keystroke_f	f	n/a
128.646	0.1805	257292	keystroke_f	f	n/a
129.0965	0.195	258193	keystroke_e	e	n/a
129.2465	0.15	258493	keystroke_r	r	n/a
129.6065	0.06	259213	keystroke_i	i	n/a
129.7415	0.105	259483	keystroke_n	n	n/a
130.0415	0.0905	260083	keystroke_f	f	n/a
130.446	0.0605	260892	keystroke_Key.backspace	Key.backspace	n/a
130.522	0.074	261044	keystroke_g	g	n/a
130.746	0.1205	261492	keystroke_s	s	n/a
131.091	0.135	262182	keystroke_Key.enter	Key.enter	n/a
131.2345	10.568	262469	prompt	n/a	brazil continent designed perspective\n
132.171	0.121	264342	keystroke_b	b	n/a
132.3515	0.12	264703	keystroke_r	r	n/a
132.6065	0.074	265213	keystroke_a	a	n/a
132.861	0.1045	265722	keystroke_z	z	n/a
132.9205	0.0755	265841	keystroke_i	i	n/a
133.1615	0.104	266323	keystroke_l	l	n/a
133.3255	0.135	266651	keystroke_Key.space	Key.space	n/a
133.8955	0.105	267791	keystroke_c	c	n/a
133.9715	0.075	267943	keystroke_o	o	n/a
134.1515	0.104	268303	keystroke_n	n	n/a
134.2415	0.104	268483	keystroke_t	t	n/a
134.3755	0.09	268751	keystroke_i	i	n/a
134.5405	0.1055	269081	keystroke_n	n	n/a
134.6305	0.091	269261	keystroke_e	e	n/a
134.9605	0.091	269921	keystroke_n	n	n/a
135.0665	0.134	270133	keystroke_t	t	n/a
135.2155	0.06	270431	keystroke_Key.space	Key.space	n/a
135.7115	0.1945	271423	keystroke_d	d	n/a
135.921	0.15	271842	keystroke_e	e	n/a
136.4605	0.09	272921	keystroke_s	s	n/a
136.5955	0.0905	273191	keystroke_i	i	n/a
136.7165	0.12	273433	keystroke_g	g	n/a
136.8505	0.0905	273701	keystroke_n	n	n/a
136.956	0.136	273912	keystroke_e	e	n/a
137.181	0.165	274362	keystroke_d	d	n/a
137.286	0.105	274572	keystroke_Key.space	Key.space	n/a
137.616	0.09	275232	keystroke_p	p	n/a
137.751	0.09	275502	keystroke_r	r	n/a
138.0815	0.0595	276163	keystroke_Key.backspace	Key.backspace	n/a
138.142	0.164	276284	keystroke_e	e	n/a
138.246	0.151	276492	keystroke_r	r	n/a
138.9815	0.1205	277963	keystroke_s	s	n/a
139.0565	0.089	278113	keystroke_p	p	n/a
139.341	0.075	278682	keystroke_e	e	n/a
139.536	0.105	279072	keystroke_c	c	n/a
139.836	0.0755	279672	keystroke_i	i	n/a
140.121	0.075	280242	keystroke_Key.backspace	Key.backspace	n/a
140.211	0.075	280422	keystroke_t	t	n/a
140.436	0.0755	280872	keystroke_i	i	n/a
140.6155	0.1055	281231	keystroke_v	v	n/a
140.736	0.1655	281472	keystroke_e	e	n/a
141.726	0.075	283452	keystroke_Key.enter	Key.enter	n/a
141.8105	11.257	283621	prompt	n/a	departments volunteer consequence sugar\n
143.0315	0.0145	286063	keystroke_d	d	n/a
143.061	0.091	286122	keystroke_e	e	n/a
143.136	0.105	286272	keystroke_p	p	n/a
143.3015	0.0745	286603	keystroke_a	a	n/a
143.4515	0.1195	286903	keystroke_r	r	n/a
143.661	0.0905	287322	keystroke_t	t	n/a
143.7515	0.09	287503	keystroke_m	m	n/a
143.8565	0.1345	287713	keystroke_e	e	n/a
143.976	0.105	287952	keystroke_n	n	n/a
144.0665	0.09	288133	keystroke_t	t	n/a
144.3065	0.1195	288613	keystroke_s	s	n/a
144.381	0.1345	288762	keystroke_Key.space	Key.space	n/a
145.596	0.09	291192	keystroke_v	v	n/a
145.701	0.0755	291402	keystroke_o	o	n/a
145.881	0.075	291762	keystroke_l	l	n/a
146.0765	0.0745	292153	keystroke_u	u	n/a
146.2565	0.1045	292513	keystroke_n	n	n/a
146.511	0.1045	293022	keystroke_t	t	n/a
146.751	0.135	293502	keystroke_e	e	n/a
146.976	0.045	293952	keystroke_r	r	n/a
147.096	0.12	294192	keystroke_r	r	n/a
147.276	0.0895	294552	keystroke_Key.space	Key.space	n/a
147.6965	0.06	295393	keystroke_Key.backspace	Key.backspace	n/a
147.8615	0.03	295723	keystroke_Key.backspace	Key.backspace	n/a
147.9515	0.075	295903	keystroke_Key.backspace	Key.backspace	n/a
148.0715	0.195	296143	keystroke_e	e	n/a
148.1915	0.165	296383	keystroke_r	r	n/a
148.3715	0.105	296743	keystroke_Key.space	Key.space	n/a
148.896	0.105	297792	keystroke_c	c	n/a
148.971	0.0755	297942	keystroke_o	o	n/a
149.151	0.09	298302	keystroke_n	n	n/a
149.226	0.1805	298452	keystroke_s	s	n/a
149.391	0.1355	298782	keystroke_e	e	n/a
149.7665	0.119	299533	keystroke_q	q	n/a
149.8715	0.075	299743	keystroke_u	u	n/a
150.0365	0.105	300073	keystroke_e	e	n/a
150.1715	0.104	300343	keystroke_n	n	n/a
150.4715	0.18	300943	keystroke_c	c	n/a
150.6815	0.18	301363	keystroke_e	e	n/a
150.9205	0.1355	301841	keystroke_Key.space	Key.space	n/a
151.8215	0.12	303643	keystroke_s	s	n/a
151.987	0.074	303974	keystroke_u	u	n/a
152.1655	0.0905	304331	keystroke_g	g	n/a
152.241	0.1055	304482	keystroke_a	a	n/a
152.4055	0.1505	304811	keystroke_r	r	n/a
152.9615	0.1045	305923	keystroke_Key.enter	Key.enter	n/a
153.077	9.575	306154	prompt	n/a	neighbors instructors dining supplied\n
153.861	0.09	307722	keystroke_n	n	n/a
153.966	0.09	307932	keystroke_e	e	n/a
154.101	0.0905	308202	keystroke_i	i	n/a
154.2065	0.1345	308413	keystroke_g	g	n/a
154.371	0.105	308742	keystroke_h	h	n/a
155.256	0.091	310512	keystroke_b	b	n/a
155.466	0.09	310932	keystroke_o	o	n/a
155.811	0.12	311622	keystroke_r	r	n/a
156.1565	0.1045	312313	keystroke_s	s	n/a
156.306	0.075	312612	keystroke_Key.space	Key.space	n/a
156.5465	0.0745	313093	keystroke_i	i	n/a
156.7105	0.0905	313421	keystroke_n	n	n/a
156.786	0.1055	313572	keystroke_s	s	n/a
156.951	0.105	313902	keystroke_t	t	n/a
157.341	0.105	314682	keystroke_r	r	n/a
158.076	0.105	316152	keystroke_u	u	n/a
158.1955	0.121	316391	keystroke_c	c	n/a
158.466	0.105	316932	keystroke_t	t	n/a
158.706	0.105	317412	keystroke_o	o	n/a
158.916	0.0755	317832	keystroke_r	r	n/a
159.096	0.135	318192	keystroke_s	s	n/a
159.201	0.12	318402	keystroke_Key.space	Key.space	n/a
159.621	0.105	319242	keystroke_d	d	n/a
159.711	0.0755	319422	keystroke_i	i	n/a
159.861	0.105	319722	keystroke_n	n	n/a
159.996	0.1055	319992	keystroke_i	i	n/a
160.1305	0.136	320261	keystroke_n	n	n/a
160.222	0.119	320444	keystroke_g	g	n/a
160.386	0.135	320772	keystroke_Key.space	Key.space	n/a
161.1505	0.135	322301	keystroke_s	s	n/a
161.2255	0.076	322451	keystroke_u	u	n/a
161.451	0.0895	322902	keystroke_p	p	n/a
161.6005	0.076	323201	keystroke_p	p	n/a
161.7515	0.104	323503	keystroke_l	l	n/a
161.9605	0.09	323921	keystroke_i	i	n/a
161.991	0.2095	323982	keystroke_e	e	n/a
162.171	0.1655	324342	keystroke_d	d	n/a
162.531	0.12	325062	keystroke_Key.enter	Key.enter	n/a
162.656	6.5065	325312	prompt	n/a	holidays remove unity webster\n
163.476	0.0755	326952	keystroke_h	h	n/a
163.5815	0.06	327163	keystroke_o	o	n/a
163.7605	0.076	327521	keystroke_l	l	n/a
163.971	0.0895	327942	keystroke_i	i	n/a
164.2705	0.015	328541	keystroke_d	d	n/a
164.541	0.1195	329082	keystroke_a	a	n/a
164.6155	0.135	329231	keystroke_y	y	n/a
164.826	0.1355	329652	keystroke_s	s	n/a
164.946	0.105	329892	keystroke_Key.space	Key.space	n/a
165.381	0.1945	330762	keystroke_r	r	n/a
165.531	0.135	331062	keystroke_e	e	n/a
165.6505	0.106	331301	keystroke_m	m	n/a
165.8165	0.1195	331633	keystroke_o	o	n/a
165.8915	0.135	331783	keystroke_v	v	n/a
166.011	0.18	332022	keystroke_e	e	n/a
166.1755	0.12	332351	keystroke_Key.space	Key.space	n/a
166.716	0.075	333432	keystroke_u	u	n/a
166.881	0.105	333762	keystroke_n	n	n/a
167.031	0.105	334062	keystroke_i	i	n/a
167.121	0.105	334242	keystroke_t	t	n/a
167.316	0.12	334632	keystroke_y	y	n/a
167.4505	0.1205	334901	keystroke_Key.space	Key.space	n/a
167.886	0.225	335772	keystroke_w	w	n/a
168.0665	0.09	336133	keystroke_e	e	n/a
168.1865	0.104	336373	keystroke_b	b	n/a
168.3355	0.0905	336671	keystroke_s	s	n/a
168.516	0.1045	337032	keystroke_t	t	n/a
168.7105	0.15	337421	keystroke_e	e	n/a
168.846	0.166	337692	keystroke_r	r	n/a
169.041	0.119	338082	keystroke_Key.enter	Key.enter	n/a
169.1675	7.495	338335	prompt	n/a	william nokia count queen\n
169.896	0.105	339792	keystroke_w	w	n/a
170.002	0.074	340004	keystroke_i	i	n/a
170.196	0.06	340392	keystroke_l	l	n/a
170.331	0.06	340662	keystroke_l	l	n/a
170.5265	0.089	341053	keystroke_i	i	n/a
170.6765	0.104	341353	keystroke_a	a	n/a
170.7965	0.104	341593	keystroke_m	m	n/a
170.946	0.12	341892	keystroke_Key.space	Key.space	n/a
171.126	0.105	342252	keystroke_n	n	n/a
171.3355	0.06	342671	keystroke_i	i	n/a
171.756	0.09	343512	keystroke_Key.backspace	Key.backspace	n/a
172.1165	0.075	344233	keystroke_o	o	n/a
172.7465	0.09	345493	keystroke_k	k	n/a
172.9565	0.074	345913	keystroke_i	i	n/a
173.0755	0.09	346151	keystroke_d	d	n/a
173.451	0.105	346902	keystroke_Key.backspace	Key.backspace	n/a
173.6015	0.134	347203	keystroke_a	a	n/a
173.676	0.1345	347352	keystroke_Key.space	Key.space	n/a
174.336	0.121	348672	keystroke_c	c	n/a
174.381	0.09	348762	keystroke_o	o	n/a
174.606	0.0755	349212	keystroke_u	u	n/a
174.7565	0.12	349513	keystroke_n	n	n/a
174.8905	0.106	349781	keystroke_t	t	n/a
175.0105	0.09	350021	keystroke_Key.space	Key.space	n/a
175.356	0.045	350712	keystroke_q	q	n/a
175.416	0.0605	350832	keystroke_u	u	n/a
175.716	0.075	351432	keystroke_e	e	n/a
175.896	0.06	351792	keystroke_e	e	n/a
175.941	0.105	351882	keystroke_n	n	n/a
176.556	0.105	353112	keystroke_Key.enter	Key.enter	n/a
176.671	8.1215	353342	prompt	n/a	ranging but construction certainly\n
177.4415	0.119	354883	keystroke_r	r	n/a
177.6955	0.121	355391	keystroke_a	a	n/a
177.8455	0.106	355691	keystroke_n	n	n/a
178.4005	0.0305	356801	keystroke_g	g	n/a
178.7005	0.0755	357401	keystroke_i	i	n/a
178.881	0.105	357762	keystroke_n	n	n/a
178.956	0.1205	357912	keystroke_g	g	n/a
179.0915	0.0895	358183	keystroke_Key.space	Key.space	n/a
179.3165	0.0895	358633	keystroke_b	b	n/a
179.4955	0.076	358991	keystroke_i	i	n/a
179.586	0.12	359172	keystroke_t	t	n/a
179.796	0.105	359592	keystroke_Key.space	Key.space	n/a
180.156	0.06	360312	keystroke_Key.backspace	Key.backspace	n/a
180.306	0.0595	360612	keystroke_Key.backspace	Key.backspace	n/a
180.411	0.09	360822	keystroke_Key.backspace	Key.backspace	n/a
180.6665	0.119	361333	keystroke_u	u	n/a
180.7865	0.105	361573	keystroke_t	t	n/a
180.861	0.1045	361722	keystroke_Key.space	Key.space	n/a
181.131	0.1055	362262	keystroke_c	c	n/a
181.2215	0.074	362443	keystroke_o	o	n/a
181.416	0.09	362832	keystroke_n	n	n/a
181.491	0.09	362982	keystroke_s	s	n/a
181.656	0.105	363312	keystroke_t	t	n/a
181.851	0.105	363702	keystroke_r	r	n/a
181.971	0.105	363942	keystroke_u	u	n/a
182.136	0.12	364272	keystroke_c	c	n/a
182.361	0.0905	364722	keystroke_t	t	n/a
182.4665	0.075	364933	keystroke_i	i	n/a
182.646	0.0895	365292	keystroke_o	o	n/a
182.8115	0.104	365623	keystroke_n	n	n/a
182.9005	0.105	365801	keystroke_Key.space	Key.space	n/a
183.0205	0.106	366041	keystroke_c	c	n/a
183.1565	0.1645	366313	keystroke_e	e	n/a
183.276	0.1345	366552	keystroke_r	r	n/a
183.5305	0.075	367061	keystroke_t	t	n/a
183.7565	0.104	367513	keystroke_a	a	n/a
183.801	0.0905	367602	keystroke_i	i	n/a
183.9355	0.136	367871	keystroke_n	n	n/a
184.416	0.09	368832	keystroke_l	l	n/a
184.476	0.1205	368952	keystroke_y	y	n/a
184.6705	0.12	369341	keystroke_Key.enter	Key.enter	n/a
184.798	7.57	369596	prompt	n/a	kept font proxy licenses\n
185.617	0.089	371234	keystroke_k	k	n/a
185.721	0.105	371442	keystroke_e	e	n/a
185.841	0.09	371682	keystroke_p	p	n/a
186.021	0.12	372042	keystroke_t	t	n/a
186.156	0.105	372312	keystroke_Key.space	Key.space	n/a
186.531	0.12	373062	keystroke_f	f	n/a
186.696	0.0905	373392	keystroke_r	r	n/a
186.831	0.06	373662	keystroke_o	o	n/a
187.161	0.06	374322	keystroke_Key.backspace	Key.backspace	n/a
187.281	0.09	374562	keystroke_Key.backspace	Key.backspace	n/a
187.506	0.075	375012	keystroke_o	o	n/a
187.671	0.105	375342	keystroke_n	n	n/a
187.761	0.1205	375522	keystroke_t	t	n/a
187.896	0.0905	375792	keystroke_Key.space	Key.space	n/a
188.2715	0.105	376543	keystroke_p	p	n/a
188.3915	0.09	376783	keystroke_r	r	n/a
188.4965	0.105	376993	keystroke_o	o	n/a
188.976	0.059	377952	keystroke_y	y	n/a
189.051	0.06	378102	keystroke_b	b	n/a
189.44	0.1055	378880	keystroke_Key.backspace	Key.backspace	n/a
189.7405	0.09	379481	keystroke_Key.backspace	Key.backspace	n/a
190.1905	0.1055	380381	keystroke_x	x	n/a
190.2655	0.151	380531	keystroke_y	y	n/a
190.461	0.105	380922	keystroke_Key.space	Key.space	n/a
190.8515	0.0745	381703	keystroke_l	l	n/a
191.046	0.0905	382092	keystroke_i	i	n/a
191.256	0.105	382512	keystroke_c	c	n/a
191.391	0.151	382782	keystroke_e	e	n/a
191.496	0.105	382992	keystroke_n	n	n/a
191.751	0.165	383502	keystroke_s	s	n/a
191.871	0.15	383742	keystroke_e	e	n/a
192.0065	0.1495	384013	keystroke_s	s	n/a
192.246	0.1195	384492	keystroke_Key.enter	Key.enter	n/a
192.3725	5.515	384745	prompt	n/a	notes last although minds\n
192.9815	0.075	385963	keystroke_n	n	n/a
193.146	0.0905	386292	keystroke_o	o	n/a
193.2065	0.1195	386413	keystroke_t	t	n/a
193.416	0.09	386832	keystroke_e	e	n/a
193.6415	0.12	387283	keystroke_s	s	n/a
193.746	0.105	387492	keystroke_Key.space	Key.space	n/a
194.7365	0.1045	389473	keystroke_l	l	n/a
194.8265	0.0895	389653	keystroke_a	a	n/a
195.006	0.105	390012	keystroke_s	s	n/a
195.156	0.1205	390312	keystroke_t	t	n/a
195.261	0.09	390522	keystroke_Key.space	Key.space	n/a
195.486	0.1045	390972	keystroke_a	a	n/a
195.501	0.075	391002	keystroke_l	l	n/a
195.996	0.0895	391992	keystroke_t	t	n/a
196.0865	0.074	392173	keystroke_h	h	n/a
196.2505	0.091	392501	keystroke_o	o	n/a
196.4615	0.075	392923	keystroke_u	u	n/a
196.6255	0.106	393251	keystroke_g	g	n/a
196.8065	0.09	393613	keystroke_h	h	n/a
196.8805	0.105	393761	keystroke_Key.space	Key.space	n/a
197.091	0.0755	394182	keystroke_m	m	n/a
197.256	0.106	394512	keystroke_i	i	n/a
197.4215	0.0895	394843	keystroke_n	n	n/a
197.496	0.15	394992	keystroke_d	d	n/a
197.691	0.1205	395382	keystroke_s	s	n/a
197.766	0.1195	395532	keystroke_Key.enter	Key.enter	n/a
197.892	9.371	395784	prompt	n/a	directory planes plumbing bureau\n
198.636	0.106	397272	keystroke_d	d	n/a
198.8015	0.09	397603	keystroke_i	i	n/a
198.9655	0.106	397931	keystroke_r	r	n/a
199.1765	0.074	398353	keystroke_e	e	n/a
199.3405	0.076	398681	keystroke_c	c	n/a
199.5815	0.06	399163	keystroke_t	t	n/a
199.6715	0.105	399343	keystroke_o	o	n/a
199.8365	0.105	399673	keystroke_r	r	n/a
199.9715	0.12	399943	keystroke_y	y	n/a
200.106	0.0745	400212	keystroke_Key.space	Key.space	n/a
200.3165	0.105	400633	keystroke_p	p	n/a
200.4365	0.1345	400873	keystroke_l	l	n/a
200.556	0.12	401112	keystroke_a	a	n/a
200.751	0.09	401502	keystroke_n	n	n/a
200.9915	0.0895	401983	keystroke_e	e	n/a
201.2005	0.1205	402401	keystroke_s	s	n/a
201.291	0.09	402582	keystroke_Key.space	Key.space	n/a
201.5305	0.0905	403061	keystroke_p	p	n/a
201.756	0.061	403512	keystroke_l	l	n/a
202.012	0.0745	404024	keystroke_u	u	n/a
202.2215	0.0895	404443	keystroke_m	m	n/a
202.431	0.075	404862	keystroke_b	b	n/a
202.596	0.0905	405192	keystroke_i	i	n/a
202.731	0.1195	405462	keystroke_n	n	n/a
202.8365	0.12	405673	keystroke_g	g	n/a
202.9405	0.0905	405881	keystroke_Key.space	Key.space	n/a
203.196	0.09	406392	keystroke_b	b	n/a
203.3455	0.0755	406691	keystroke_r	r	n/a
203.6155	0.075	407231	keystroke_Key.backspace	Key.backspace	n/a
203.8705	0.0905	407741	keystroke_u	u	n/a
203.9905	0.105	407981	keystroke_r	r	n/a
204.561	0.0745	409122	keystroke_e	e	n/a
206.166	0.1355	412332	keystroke_a	a	n/a
206.256	0.0755	412512	keystroke_u	u	n/a
207.216	0.0455	414432	keystroke_Key.enter	Key.enter	n/a
207.2685	13.81	414537	prompt	n/a	miscellaneous endless albuquerque baghdad\n
208.1015	0.074	416203	keystroke_m	m	n/a
208.2805	0.09	416561	keystroke_i	i	n/a
208.3865	0.074	416773	keystroke_s	s	n/a
208.5055	0.12	417011	keystroke_c	c	n/a
208.701	0.09	417402	keystroke_e	e	n/a
208.8065	0.0595	417613	keystroke_l	l	n/a
208.956	0.075	417912	keystroke_l	l	n/a
209.136	0.105	418272	keystroke_a	a	n/a
209.316	0.105	418632	keystroke_n	n	n/a
209.541	0.106	419082	keystroke_e	e	n/a
209.661	0.0905	419322	keystroke_o	o	n/a
209.9015	0.06	419803	keystroke_u	u	n/a
210.126	0.1055	420252	keystroke_s	s	n/a
210.186	0.12	420372	keystroke_Key.space	Key.space	n/a
210.9655	0.106	421931	keystroke_e	e	n/a
211.0865	0.09	422173	keystroke_n	n	n/a
211.22	0.0905	422440	keystroke_d	d	n/a
211.3265	0.1045	422653	keystroke_l	l	n/a
211.4905	0.09	422981	keystroke_e	e	n/a
211.6865	0.0605	423373	keystroke_s	s	n/a
211.8355	0.076	423671	keystroke_s	s	n/a
211.9255	0.09	423851	keystroke_Key.space	Key.space	n/a
212.0755	0.091	424151	keystroke_a	a	n/a
212.1815	0.0895	424363	keystroke_l	l	n/a
212.4355	0.075	424871	keystroke_b	b	n/a
212.6465	0.09	425293	keystroke_u	u	n/a
212.9455	0.061	425891	keystroke_r	r	n/a
213.171	0.0755	426342	keystroke_q	q	n/a
213.231	0.0905	426462	keystroke_u	u	n/a
213.441	0.09	426882	keystroke_e	e	n/a
213.621	0.0905	427242	keystroke_r	r	n/a
213.891	0.09	427782	keystroke_q	q	n/a
213.906	0.1205	427812	keystroke_u	u	n/a
214.4765	0.104	428953	keystroke_e	e	n/a
215.2105	0.12	430421	keystroke_Key.space	Key.space	n/a
215.5715	0.0595	431143	keystroke_b	b	n/a
215.691	0.1205	431382	keystroke_a	a	n/a
216.231	0.075	432462	keystroke_g	g	n/a
216.726	0.0755	433452	keystroke_h	h	n/a
217.4765	0.15	434953	keystroke_d	d	n/a
217.6415	0.105	435283	keystroke_a	a	n/a
217.8665	0.12	435733	keystroke_d	d	n/a
221.063	0.013	442126	keystroke_Key.enter	Key.enter	n/a
221.087	14.031	442174	prompt	n/a	host clock fragrances jennifer\n
222.111	0.06	444222	keystroke_h	h	n/a
222.2615	0.105	444523	keystroke_o	o	n/a
222.3365	0.09	444673	keystroke_s	s	n/a
222.5155	0.121	445031	keystroke_t	t	n/a
222.6375	0.1035	445275	keystroke_Key.space	Key.space	n/a
222.8305	0.1055	445661	keystroke_c	c	n/a
222.921	0.0905	445842	keystroke_l	l	n/a
223.1015	0.105	446203	keystroke_o	o	n/a
223.626	0.12	447252	keystroke_c	c	n/a
223.776	0.105	447552	keystroke_k	k	n/a
223.956	0.105	447912	keystroke_Key.space	Key.space	n/a
224.106	0.12	448212	keystroke_g	g	n/a
224.481	0.075	448962	keystroke_r	r	n/a
224.706	0.09	449412	keystroke_a	a	n/a
224.841	0.09	449682	keystroke_g	g	n/a
225.036	0.0455	450072	keystroke_e	e	n/a
225.4105	0.0755	450821	keystroke_Key.backspace	Key.backspace	n/a
225.4705	0.075	450941	keystroke_r	r	n/a
225.6965	0.089	451393	keystroke_a	a	n/a
225.9805	0.06	451961	keystroke_Key.backspace	Key.backspace	n/a
226.146	0.045	452292	keystroke_Key.backspace	Key.backspace	n/a
226.281	0.06	452562	keystroke_Key.backspace	Key.backspace	n/a
226.431	0.06	452862	keystroke_Key.backspace	Key.backspace	n/a
226.611	0.045	453222	keystroke_Key.backspace	Key.backspace	n/a
226.806	0.045	453612	keystroke_Key.backspace	Key.backspace	n/a
227.017	0.1195	454034	keystroke_f	f	n/a
227.316	0.075	454632	keystroke_r	r	n/a
227.556	0.0905	455112	keystroke_a	a	n/a
227.856	0.12	455712	keystroke_g	g	n/a
228.3365	0.105	456673	keystroke_r	r	n/a
228.5905	0.091	457181	keystroke_a	a	n/a
228.8605	0.0905	457721	keystroke_c	c	n/a
229.731	0.09	459462	keystroke_Key.backspace	Key.backspace	n/a
230.031	0.075	460062	keystroke_n	n	n/a
230.166	0.105	460332	keystroke_c	c	n/a
230.3315	0.1345	460663	keystroke_e	e	n/a
230.6005	0.106	461201	keystroke_s	s	n/a
230.6915	0.119	461383	keystroke_Key.space	Key.space	n/a
230.991	0.0905	461982	keystroke_h	h	n/a
231.1255	0.1205	462251	keystroke_e	e	n/a
231.2605	0.06	462521	keystroke_n	n	n/a
231.4115	0.075	462823	keystroke_n	n	n/a
231.5905	0.09	463181	keystroke_i	i	n/a
232.071	0.045	464142	keystroke_Key.backspace	Key.backspace	n/a
232.221	0.0595	464442	keystroke_Key.backspace	Key.backspace	n/a
232.371	0.0595	464742	keystroke_Key.backspace	Key.backspace	n/a
232.5355	0.0455	465071	keystroke_Key.backspace	Key.backspace	n/a
232.686	0.075	465372	keystroke_Key.backspace	Key.backspace	n/a
233.4965	0.074	466993	keystroke_j	j	n/a
233.6315	0.089	467263	keystroke_e	e	n/a
233.7655	0.076	467531	keystroke_n	n	n/a
233.9165	0.09	467833	keystroke_n	n	n/a
234.0965	0.09	468193	keystroke_i	i	n/a
234.2465	0.15	468493	keystroke_f	f	n/a
234.5915	0.104	469183	keystroke_e	e	n/a
234.7705	0.09	469541	keystroke_r	r	n/a
235.0105	0.105	470021	keystroke_Key.enter	Key.enter	n/a
235.126	5.7215	470252	prompt	n/a	ball preservation either cure\n
235.9855	0.075	471971	keystroke_b	b	n/a
236.106	0.1045	472212	keystroke_a	a	n/a
236.2555	0.0755	472511	keystroke_l	l	n/a
236.4355	0.075	472871	keystroke_l	l	n/a
236.4955	0.12	472991	keystroke_Key.space	Key.space	n/a
236.661	0.0895	473322	keystroke_p	p	n/a
236.7805	0.18	473561	keystroke_r	r	n/a
237.0065	0.135	474013	keystroke_e	e	n/a
237.2905	0.165	474581	keystroke_s	s	n/a
237.426	0.135	474852	keystroke_e	e	n/a
237.621	0.09	475242	keystroke_r	r	n/a
237.876	0.0905	475752	keystroke_v	v	n/a
238.086	0.0905	476172	keystroke_a	a	n/a
238.341	0.03	476682	keystroke_t	t	n/a
238.385	0.076	476770	keystroke_i	i	n/a
238.611	0.0745	477222	keystroke_o	o	n/a
238.8655	0.12	477731	keystroke_n	n	n/a
239.0005	0.1055	478001	keystroke_Key.space	Key.space	n/a
239.2115	0.1345	478423	keystroke_e	e	n/a
239.361	0.075	478722	keystroke_i	i	n/a
239.571	0.12	479142	keystroke_t	t	n/a
239.706	0.0905	479412	keystroke_h	h	n/a
239.826	0.15	479652	keystroke_e	e	n/a
239.931	0.1345	479862	keystroke_r	r	n/a
240.036	0.0895	480072	keystroke_Key.space	Key.space	n/a
240.2455	0.106	480491	keystroke_c	c	n/a
240.3815	0.089	480763	keystroke_u	u	n/a
240.4705	0.196	480941	keystroke_r	r	n/a
240.591	0.1645	481182	keystroke_e	e	n/a
240.7255	0.12	481451	keystroke_Key.enter	Key.enter	n/a
240.8515	9.476	481703	prompt	n/a	metabolism boxing alarm production\n
241.626	0.09	483252	keystroke_m	m	n/a
241.731	0.09	483462	keystroke_e	e	n/a
241.956	0.06	483912	keystroke_t	t	n/a
242.226	0.12	484452	keystroke_a	a	n/a
242.481	0.06	484962	keystroke_b	b	n/a
242.691	0.0745	485382	keystroke_o	o	n/a
242.9005	0.06	485801	keystroke_l	l	n/a
243.0805	0.075	486161	keystroke_i	i	n/a
243.261	0.0145	486522	keystroke_t	t	n/a
243.621	0.075	487242	keystroke_Key.backspace	Key.backspace	n/a
243.7405	0.106	487481	keystroke_s	s	n/a
243.876	0.09	487752	keystroke_m	m	n/a
243.996	0.165	487992	keystroke_Key.space	Key.space	n/a
244.206	0.075	488412	keystroke_b	b	n/a
244.386	0.105	488772	keystroke_o	o	n/a
244.851	0.09	489702	keystroke_z	z	n/a
245.301	0.075	490602	keystroke_Key.backspace	Key.backspace	n/a
245.4665	0.074	490933	keystroke_x	x	n/a
245.5705	0.0755	491141	keystroke_i	i	n/a
245.736	0.105	491472	keystroke_n	n	n/a
245.856	0.105	491712	keystroke_g	g	n/a
245.976	0.075	491952	keystroke_Key.space	Key.space	n/a
246.246	0.06	492492	keystroke_e	e	n/a
246.681	0.075	493362	keystroke_Key.backspace	Key.backspace	n/a
246.771	0.135	493542	keystroke_a	a	n/a
246.936	0.0605	493872	keystroke_l	l	n/a
247.5655	0.1045	495131	keystroke_a	a	n/a
247.776	0.105	495552	keystroke_r	r	n/a
248.136	0.105	496272	keystroke_m	m	n/a
248.256	0.105	496512	keystroke_Key.space	Key.space	n/a
248.421	0.1055	496842	keystroke_p	p	n/a
248.556	0.12	497112	keystroke_r	r	n/a
248.691	0.075	497382	keystroke_o	o	n/a
248.9755	0.105	497951	keystroke_d	d	n/a
249.2605	0.09	498521	keystroke_u	u	n/a
249.3655	0.0905	498731	keystroke_c	c	n/a
249.5765	0.0895	499153	keystroke_t	t	n/a
249.6815	0.0595	499363	keystroke_i	i	n/a
249.816	0.09	499632	keystroke_o	o	n/a
249.996	0.0905	499992	keystroke_n	n	n/a
250.161	0.165	500322	keystroke_Key.enter	Key.enter	n/a
250.332	7.87	500664	prompt	n/a	aggregate support absent am\n
250.9415	0.2095	501883	keystroke_a	a	n/a
251.421	0.06	502842	keystroke_g	g	n/a
251.571	0.09	503142	keystroke_g	g	n/a
251.706	0.18	503412	keystroke_r	r	n/a
251.856	0.135	503712	keystroke_e	e	n/a
252.306	0.075	504612	keystroke_g	g	n/a
252.516	0.09	505032	keystroke_a	a	n/a
252.7705	0.18	505541	keystroke_r	r	n/a
253.401	0.0745	506802	keystroke_Key.backspace	Key.backspace	n/a
253.446	0.1195	506892	keystroke_t	t	n/a
253.6405	0.135	507281	keystroke_e	e	n/a
253.7455	0.1355	507491	keystroke_Key.space	Key.space	n/a
254.2855	0.1055	508571	keystroke_s	s	n/a
254.361	0.075	508722	keystroke_u	u	n/a
254.571	0.0895	509142	keystroke_p	p	n/a
254.7205	0.0905	509441	keystroke_p	p	n/a
254.8705	0.106	509741	keystroke_o	o	n/a
254.96	0.091	509920	keystroke_r	r	n/a
255.171	0.105	510342	keystroke_t	t	n/a
255.291	0.12	510582	keystroke_Key.space	Key.space	n/a
255.6815	0.1045	511363	keystroke_a	a	n/a
255.8155	0.1055	511631	keystroke_b	b	n/a
256.101	0.12	512202	keystroke_s	s	n/a
256.236	0.0905	512472	keystroke_e	e	n/a
256.356	0.105	512712	keystroke_n	n	n/a
256.491	0.1045	512982	keystroke_t	t	n/a
256.5965	0.104	513193	keystroke_Key.space	Key.space	n/a
256.9255	0.09	513851	keystroke_a	a	n/a
257.0305	0.075	514061	keystroke_m	m	n/a
258.1405	0.0605	516281	keystroke_Key.enter	Key.enter	n/a
258.208	13.164	516416	prompt	n/a	plymouth feeds barcelona coalition\n
259.206	0.0745	518412	keystroke_p	p	n/a
259.34	0.091	518680	keystroke_l	l	n/a
259.626	0.075	519252	keystroke_y	y	n/a
259.8805	0.0755	519761	keystroke_m	m	n/a
260.0155	0.09	520031	keystroke_o	o	n/a
260.2555	0.0755	520511	keystroke_u	u	n/a
260.4065	0.1045	520813	keystroke_n	n	n/a
260.526	0.1345	521052	keystroke_t	t	n/a
261.7255	0.0905	523451	keystroke_h	h	n/a
261.8755	0.12	523751	keystroke_Key.space	Key.space	n/a
263.4205	0.06	526841	keystroke_Key.backspace	Key.backspace	n/a
263.6005	0.06	527201	keystroke_Key.backspace	Key.backspace	n/a
263.7955	0.045	527591	keystroke_Key.backspace	Key.backspace	n/a
263.9905	0.075	527981	keystroke_Key.backspace	Key.backspace	n/a
264.2755	0.135	528551	keystroke_t	t	n/a
264.3955	0.105	528791	keystroke_h	h	n/a
264.666	0.1195	529332	keystroke_Key.space	Key.space	n/a
265.176	0.12	530352	keystroke_f	f	n/a
265.4305	0.09	530861	keystroke_e	e	n/a
265.596	0.15	531192	keystroke_e	e	n/a
265.7605	0.12	531521	keystroke_d	d	n/a
266.016	0.135	532032	keystroke_s	s	n/a
266.136	0.135	532272	keystroke_Key.space	Key.space	n/a
266.496	0.105	532992	keystroke_b	b	n/a
266.826	0.09	533652	keystroke_a	a	n/a
267.006	0.1045	534012	keystroke_r	r	n/a
267.2305	0.135	534461	keystroke_c	c	n/a
267.3805	0.105	534761	keystroke_e	e	n/a
267.651	0.1345	535302	keystroke_l	l	n/a
267.8605	0.105	535721	keystroke_o	o	n/a
268.0855	0.0905	536171	keystroke_n	n	n/a
268.2055	0.1355	536411	keystroke_a	a	n/a
268.3705	0.0905	536741	keystroke_Key.space	Key.space	n/a
268.6105	0.1205	537221	keystroke_c	c	n/a
268.716	0.12	537432	keystroke_o	o	n/a
268.9405	0.0905	537881	keystroke_a	a	n/a
269.061	0.075	538122	keystroke_l	l	n/a
269.301	0.09	538602	keystroke_i	i	n/a
270.1105	0.1205	540221	keystroke_t	t	n/a
270.2605	0.075	540521	keystroke_i	i	n/a
270.4255	0.075	540851	keystroke_o	o	n/a
270.6355	0.075	541271	keystroke_n	n	n/a
271.311	0.059	542622	keystroke_Key.enter	Key.enter	n/a
271.3775	6.2495	542755	prompt	n/a	ball technique anchor approved\n
272.271	0.075	544542	keystroke_b	b	n/a
272.391	0.12	544782	keystroke_a	a	n/a
272.5255	0.06	545051	keystroke_l	l	n/a
272.6755	0.0905	545351	keystroke_l	l	n/a
272.8255	0.135	545651	keystroke_Key.space	Key.space	n/a
272.976	0.1345	545952	keystroke_t	t	n/a
273.1855	0.105	546371	keystroke_e	e	n/a
273.3805	0.12	546761	keystroke_c	c	n/a
273.456	0.0755	546912	keystroke_h	h	n/a
273.696	0.1045	547392	keystroke_n	n	n/a
273.8155	0.12	547631	keystroke_i	i	n/a
274.0405	0.12	548081	keystroke_q	q	n/a
274.1305	0.105	548261	keystroke_u	u	n/a
274.2805	0.135	548561	keystroke_e	e	n/a
274.7005	0.15	549401	keystroke_Key.space	Key.space	n/a
275.0465	0.0895	550093	keystroke_a	a	n/a
275.3155	0.121	550631	keystroke_n	n	n/a
275.5715	0.1045	551143	keystroke_c	c	n/a
275.6905	0.06	551381	keystroke_h	h	n/a
275.8705	0.1055	551741	keystroke_o	o	n/a
276.005	0.12	552010	keystroke_r	r	n/a
276.1265	0.1185	552253	keystroke_Key.space	Key.space	n/a
276.38	0.09	552760	keystroke_a	a	n/a
276.4855	0.06	552971	keystroke_p	p	n/a
276.621	0.089	553242	keystroke_p	p	n/a
276.725	0.0915	553450	keystroke_r	r	n/a
276.846	0.09	553692	keystroke_o	o	n/a
276.981	0.1345	553962	keystroke_v	v	n/a
277.131	0.1195	554262	keystroke_e	e	n/a
277.3105	0.12	554621	keystroke_d	d	n/a
277.5205	0.105	555041	keystroke_Key.enter	Key.enter	n/a
277.633	9.1745	555266	prompt	n/a	zone subsection roses where're\n
278.436	0.1205	556872	keystroke_z	z	n/a
278.4805	0.091	556961	keystroke_o	o	n/a
278.72	0.121	557440	keystroke_n	n	n/a
278.8555	0.1055	557711	keystroke_e	e	n/a
278.9755	0.105	557951	keystroke_Key.space	Key.space	n/a
279.74	0.061	559480	keystroke_s	s	n/a
279.9505	0.0755	559901	keystroke_u	u	n/a
280.101	0.1195	560202	keystroke_b	b	n/a
280.2965	0.164	560593	keystroke_s	s	n/a
280.506	0.09	561012	keystroke_e	e	n/a
280.761	0.104	561522	keystroke_c	c	n/a
280.986	0.105	561972	keystroke_t	t	n/a
281.2255	0.09	562451	keystroke_i	i	n/a
281.3905	0.135	562781	keystroke_o	o	n/a
281.6305	0.136	563261	keystroke_n	n	n/a
281.7505	0.1195	563501	keystroke_Key.space	Key.space	n/a
282.006	0.135	564012	keystroke_r	r	n/a
282.126	0.089	564252	keystroke_o	o	n/a
282.3205	0.1655	564641	keystroke_s	s	n/a
282.455	0.18	564910	keystroke_e	e	n/a
282.621	0.1655	565242	keystroke_s	s	n/a
282.755	0.1955	565510	keystroke_Key.space	Key.space	n/a
283.4005	0.136	566801	keystroke_w	w	n/a
283.5055	0.0905	567011	keystroke_h	h	n/a
283.6105	0.12	567221	keystroke_e	e	n/a
283.82	0.1665	567640	keystroke_r	r	n/a
283.941	0.1655	567882	keystroke_e	e	n/a
284.166	0.104	568332	keystroke_;	;	n/a
284.375	0.24	568750	keystroke_r	r	n/a
284.51	0.135	569020	keystroke_e	e	n/a
284.78	0.06	569560	keystroke_Key.backspace	Key.backspace	n/a
284.93	0.045	569860	keystroke_Key.backspace	Key.backspace	n/a
285.035	0.106	570070	keystroke_Key.backspace	Key.backspace	n/a
286.041	0.09	572082	keystroke_'	'	n/a
286.161	0.2095	572322	keystroke_r	r	n/a
286.2955	0.2105	572591	keystroke_e	e	n/a
286.6255	0.18	573251	keystroke_Key.enter	Key.enter	n/a
286.813	7.4795	573626	prompt	n/a	xerox front who'd citizens\n
287.7965	0.119	575593	keystroke_x	x	n/a
288.336	0.09	576672	keystroke_e	e	n/a
288.636	0.06	577272	keystroke_r	r	n/a
288.876	0.12	577752	keystroke_o	o	n/a
289.1305	0.1205	578261	keystroke_x	x	n/a
289.2205	0.135	578441	keystroke_Key.space	Key.space	n/a
289.9705	0.1195	579941	keystroke_f	f	n/a
290.136	0.135	580272	keystroke_r	r	n/a
290.196	0.09	580392	keystroke_o	o	n/a
290.421	0.1195	580842	keystroke_n	n	n/a
290.5415	0.134	581083	keystroke_t	t	n/a
290.6305	0.105	581261	keystroke_Key.space	Key.space	n/a
290.9615	0.119	581923	keystroke_w	w	n/a
291.0355	0.0905	582071	keystroke_h	h	n/a
291.2155	0.121	582431	keystroke_o	o	n/a
291.486	0.1345	582972	keystroke_'	'	n/a
291.7105	0.09	583421	keystroke_d	d	n/a
291.9805	0.105	583961	keystroke_Key.space	Key.space	n/a
292.656	0.1045	585312	keystroke_c	c	n/a
292.7755	0.06	585551	keystroke_i	i	n/a
292.8805	0.1205	585761	keystroke_t	t	n/a
293.0155	0.105	586031	keystroke_i	i	n/a
293.421	0.105	586842	keystroke_z	z	n/a
293.6465	0.1045	587293	keystroke_e	e	n/a
293.766	0.075	587532	keystroke_n	n	n/a
293.961	0.105	587922	keystroke_s	s	n/a
294.171	0.1195	588342	keystroke_Key.enter	Key.enter	n/a
294.297	9.7455	588594	prompt	n/a	nice counts communist queries\n
295.1315	0.089	590263	keystroke_n	n	n/a
295.311	0.0745	590622	keystroke_i	i	n/a
295.4915	0.075	590983	keystroke_c	c	n/a
295.6255	0.1205	591251	keystroke_e	e	n/a
295.7605	0.09	591521	keystroke_Key.space	Key.space	n/a
295.94	0.076	591880	keystroke_c	c	n/a
295.971	0.09	591942	keystroke_o	o	n/a
296.181	0.074	592362	keystroke_u	u	n/a
296.316	0.12	592632	keystroke_n	n	n/a
296.376	0.12	592752	keystroke_t	t	n/a
296.646	0.105	593292	keystroke_s	s	n/a
296.72	0.106	593440	keystroke_Key.space	Key.space	n/a
296.901	0.075	593802	keystroke_c	c	n/a
296.931	0.089	593862	keystroke_o	o	n/a
297.171	0.075	594342	keystroke_n	n	n/a
297.545	0.091	595090	keystroke_Key.backspace	Key.backspace	n/a
297.8305	0.03	595661	keystroke_,	,	n/a
298.0255	0.0755	596051	keystroke_m	m	n/a
298.176	0.089	596352	keystroke_m	m	n/a
298.656	0.0445	597312	keystroke_Key.backspace	Key.backspace	n/a
298.8055	0.0605	597611	keystroke_Key.backspace	Key.backspace	n/a
298.971	0.0445	597942	keystroke_Key.backspace	Key.backspace	n/a
299.121	0.045	598242	keystroke_Key.backspace	Key.backspace	n/a
299.8855	0.0755	599771	keystroke_o	o	n/a
300.0965	0.0595	600193	keystroke_m	m	n/a
300.2605	0.075	600521	keystroke_m	m	n/a
300.576	0.09	601152	keystroke_u	u	n/a
300.741	0.09	601482	keystroke_n	n	n/a
300.906	0.075	601812	keystroke_i	i	n/a
301.0405	0.12	602081	keystroke_s	s	n/a
301.2215	0.12	602443	keystroke_t	t	n/a
301.3555	0.09	602711	keystroke_Key.space	Key.space	n/a
301.626	0.1205	603252	keystroke_q	q	n/a
301.7165	0.09	603433	keystroke_u	u	n/a
301.9715	0.089	603943	keystroke_e	e	n/a
302.1955	0.061	604391	keystroke_r	r	n/a
302.3165	0.104	604633	keystroke_i	i	n/a
302.781	0.105	605562	keystroke_e	e	n/a
302.976	0.1495	605952	keystroke_s	s	n/a
303.966	0.075	607932	keystroke_Key.enter	Key.enter	n/a
304.0485	8.124	608097	prompt	n/a	temporal assistance carl indices\n
304.836	0.15	609672	keystroke_t	t	n/a
305.0305	0.135	610061	keystroke_e	e	n/a
305.1205	0.0905	610241	keystroke_m	m	n/a
305.3165	0.089	610633	keystroke_p	p	n/a
305.57	0.0905	611140	keystroke_o	o	n/a
305.7655	0.105	611531	keystroke_r	r	n/a
305.991	0.12	611982	keystroke_a	a	n/a
306.1415	0.104	612283	keystroke_l	l	n/a
306.2905	0.12	612581	keystroke_Key.space	Key.space	n/a
306.621	0.09	613242	keystroke_a	a	n/a
307.281	0.1055	614562	keystroke_s	s	n/a
307.521	0.045	615042	keystroke_i	i	n/a
307.896	0.06	615792	keystroke_Key.backspace	Key.backspace	n/a
308.061	0.135	616122	keystroke_s	s	n/a
308.4505	0.1055	616901	keystroke_i	i	n/a
308.6005	0.105	617201	keystroke_s	s	n/a
308.8115	0.105	617623	keystroke_t	t	n/a
309.051	0.121	618102	keystroke_a	a	n/a
309.156	0.09	618312	keystroke_n	n	n/a
309.291	0.09	618582	keystroke_c	c	n/a
309.4415	0.1205	618883	keystroke_e	e	n/a
309.5755	0.075	619151	keystroke_Key.space	Key.space	n/a
309.771	0.105	619542	keystroke_c	c	n/a
309.9355	0.105	619871	keystroke_a	a	n/a
310.1005	0.12	620201	keystroke_r	r	n/a
310.2955	0.105	620591	keystroke_l	l	n/a
310.461	0.1195	620922	keystroke_Key.space	Key.space	n/a
310.6705	0.09	621341	keystroke_i	i	n/a
310.8515	0.089	621703	keystroke_n	n	n/a
311.0315	0.1045	622063	keystroke_d	d	n/a
311.3165	0.119	622633	keystroke_i	i	n/a
311.4505	0.091	622901	keystroke_c	c	n/a
311.5715	0.15	623143	keystroke_e	e	n/a
311.8115	0.135	623623	keystroke_s	s	n/a
312.0365	0.134	624073	keystroke_Key.enter	Key.enter	n/a
312.1765	7.242	624353	prompt	n/a	camcorders arrives strong indication\n
312.756	0.1345	625512	keystroke_c	c	n/a
313.0255	0.135	626051	keystroke_a	a	n/a
313.1305	0.0905	626261	keystroke_m	m	n/a
313.341	0.105	626682	keystroke_c	c	n/a
313.461	0.105	626922	keystroke_o	o	n/a
313.596	0.12	627192	keystroke_r	r	n/a
314.061	0.165	628122	keystroke_d	d	n/a
314.256	0.105	628512	keystroke_e	e	n/a
314.451	0.075	628902	keystroke_r	r	n/a
314.661	0.135	629322	keystroke_s	s	n/a
314.751	0.105	629502	keystroke_Key.space	Key.space	n/a
315.171	0.09	630342	keystroke_a	a	n/a
315.366	0.075	630732	keystroke_r	r	n/a
315.516	0.09	631032	keystroke_r	r	n/a
315.621	0.12	631242	keystroke_i	i	n/a
315.741	0.165	631482	keystroke_v	v	n/a
315.921	0.15	631842	keystroke_e	e	n/a
316.221	0.12	632442	keystroke_s	s	n/a
316.311	0.12	632622	keystroke_Key.space	Key.space	n/a
316.626	0.0905	633252	keystroke_s	s	n/a
316.7905	0.12	633581	keystroke_t	t	n/a
316.9865	0.134	633973	keystroke_r	r	n/a
317.076	0.0895	634152	keystroke_o	o	n/a
317.256	0.1195	634512	keystroke_n	n	n/a
317.346	0.1055	634692	keystroke_g	g	n/a
317.481	0.0745	634962	keystroke_Key.space	Key.space	n/a
317.6455	0.09	635291	keystroke_i	i	n/a
317.811	0.105	635622	keystroke_n	n	n/a
317.976	0.105	635952	keystroke_d	d	n/a
318.111	0.1205	636222	keystroke_i	i	n/a
318.291	0.09	636582	keystroke_c	c	n/a
318.4405	0.1355	636881	keystroke_a	a	n/a
318.681	0.12	637362	keystroke_t	t	n/a
318.7705	0.0755	637541	keystroke_i	i	n/a
318.951	0.075	637902	keystroke_o	o	n/a
319.1155	0.1055	638231	keystroke_n	n	n/a
319.2805	0.1355	638561	keystroke_Key.enter	Key.enter	n/a
319.423	8.169	638846	prompt	n/a	religions moisture drums guard\n
320.256	0.15	640512	keystroke_r	r	n/a
320.3755	0.1505	640751	keystroke_e	e	n/a
320.496	0.105	640992	keystroke_l	l	n/a
320.7815	0.1045	641563	keystroke_i	i	n/a
321.1105	0.091	642221	keystroke_g	g	n/a
321.3055	0.076	642611	keystroke_i	i	n/a
321.4855	0.075	642971	keystroke_o	o	n/a
321.666	0.1045	643332	keystroke_n	n	n/a
321.815	0.106	643630	keystroke_s	s	n/a
321.936	0.09	643872	keystroke_Key.space	Key.space	n/a
322.221	0.09	644442	keystroke_m	m	n/a
322.386	0.09	644772	keystroke_o	o	n/a
322.626	0.09	645252	keystroke_i	i	n/a
322.806	0.12	645612	keystroke_s	s	n/a
323.031	0.105	646062	keystroke_t	t	n/a
323.211	0.0895	646422	keystroke_u	u	n/a
323.3305	0.195	646661	keystroke_r	r	n/a
323.4515	0.149	646903	keystroke_e	e	n/a
323.5705	0.105	647141	keystroke_Key.space	Key.space	n/a
323.856	0.12	647712	keystroke_d	d	n/a
324.05	0.1205	648100	keystroke_r	r	n/a
324.186	0.0895	648372	keystroke_u	u	n/a
324.7105	0.106	649421	keystroke_m	m	n/a
325.206	0.1045	650412	keystroke_s	s	n/a
325.3415	0.119	650683	keystroke_Key.space	Key.space	n/a
325.6855	0.105	651371	keystroke_g	g	n/a
325.925	0.091	651850	keystroke_a	a	n/a
326.286	0.09	652572	keystroke_Key.backspace	Key.backspace	n/a
326.526	0.0895	653052	keystroke_u	u	n/a
326.646	0.135	653292	keystroke_a	a	n/a
327.006	0.105	654012	keystroke_r	r	n/a
327.23	0.121	654460	keystroke_d	d	n/a
327.44	0.15	654880	keystroke_Key.enter	Key.enter	n/a
327.5965	9.341	655193	prompt	n/a	guestbook istanbul adopted assumed\n
328.5055	0.0915	657011	keystroke_g	g	n/a
329.0155	0.09	658031	keystroke_u	u	n/a
329.1355	0.09	658271	keystroke_e	e	n/a
329.3305	0.1055	658661	keystroke_s	s	n/a
329.541	0.1195	659082	keystroke_t	t	n/a
329.8405	0.0755	659681	keystroke_b	b	n/a
330.066	0.075	660132	keystroke_o	o	n/a
330.231	0.09	660462	keystroke_o	o	n/a
330.366	0.135	660732	keystroke_k	k	n/a
330.516	0.1345	661032	keystroke_Key.space	Key.space	n/a
330.725	0.091	661450	keystroke_i	i	n/a
330.861	0.12	661722	keystroke_s	s	n/a
331.206	0.12	662412	keystroke_t	t	n/a
331.4755	0.12	662951	keystroke_a	a	n/a
331.5655	0.075	663131	keystroke_n	n	n/a
331.7605	0.09	663521	keystroke_b	b	n/a
331.9255	0.09	663851	keystroke_u	u	n/a
332.166	0.1045	664332	keystroke_l	l	n/a
332.3005	0.12	664601	keystroke_Key.space	Key.space	n/a
332.4355	0.135	664871	keystroke_a	a	n/a
332.6905	0.135	665381	keystroke_d	d	n/a
332.8405	0.076	665681	keystroke_o	o	n/a
333.0355	0.075	666071	keystroke_p	p	n/a
333.216	0.075	666432	keystroke_t	t	n/a
333.531	0.09	667062	keystroke_e	e	n/a
333.591	0.15	667182	keystroke_d	d	n/a
333.726	0.105	667452	keystroke_Key.space	Key.space	n/a
333.906	0.09	667812	keystroke_a	a	n/a
334.266	0.09	668532	keystroke_s	s	n/a
334.431	0.09	668862	keystroke_s	s	n/a
334.506	0.075	669012	keystroke_u	u	n/a
334.971	0.1045	669942	keystroke_m	m	n/a
335.2415	0.149	670483	keystroke_e	e	n/a
335.4365	0.1345	670873	keystroke_d	d	n/a
336.8455	0.0895	673691	keystroke_Key.enter	Key.enter	n/a
336.9415	12.866	673883	prompt	n/a	errors transexual grateful swap\n
337.6405	0.12	675281	keystroke_e	e	n/a
338.0605	0.03	676121	keystroke_r	r	n/a
338.856	0.089	677712	keystroke_r	r	n/a
339.096	0.12	678192	keystroke_o	o	n/a
339.246	0.105	678492	keystroke_r	r	n/a
339.5455	0.12	679091	keystroke_s	s	n/a
339.6355	0.12	679271	keystroke_Key.space	Key.space	n/a
339.9205	0.106	679841	keystroke_t	t	n/a
340.1305	0.09	680261	keystroke_r	r	n/a
340.3255	0.1205	680651	keystroke_a	a	n/a
340.4155	0.1055	680831	keystroke_n	n	n/a
340.5655	0.12	681131	keystroke_s	s	n/a
340.7755	0.151	681551	keystroke_e	e	n/a
341.271	0.134	682542	keystroke_x	x	n/a
341.4205	0.061	682841	keystroke_u	u	n/a
341.675	0.121	683350	keystroke_a	a	n/a
341.796	0.119	683592	keystroke_l	l	n/a
341.9	0.1505	683800	keystroke_Key.space	Key.space	n/a
342.306	0.1645	684612	keystroke_g	g	n/a
342.4565	0.21	684913	keystroke_r	r	n/a
342.7555	0.105	685511	keystroke_e	e	n/a
343.115	0.0905	686230	keystroke_Key.backspace	Key.backspace	n/a
343.176	0.09	686352	keystroke_a	a	n/a
343.37	0.12	686740	keystroke_t	t	n/a
343.5955	0.1205	687191	keystroke_e	e	n/a
344.3905	0.09	688781	keystroke_Key.backspace	Key.backspace	n/a
344.5555	0.1055	689111	keystroke_f	f	n/a
344.7055	0.0605	689411	keystroke_u	u	n/a
344.9	0.106	689800	keystroke_l	l	n/a
345.05	0.1055	690100	keystroke_Key.space	Key.space	n/a
345.3505	0.03	690701	keystroke_Key.backspace	Key.backspace	n/a
345.4855	0.06	690971	keystroke_Key.backspace	Key.backspace	n/a
345.6355	0.06	691271	keystroke_Key.backspace	Key.backspace	n/a
345.816	0.045	691632	keystroke_e	e	n/a
345.9205	0.075	691841	keystroke_Key.backspace	Key.backspace	n/a
346.1305	0.06	692261	keystroke_Key.backspace	Key.backspace	n/a
346.3265	0.09	692653	keystroke_e	e	n/a
346.566	0.09	693132	keystroke_f	f	n/a
346.6855	0.075	693371	keystroke_u	u	n/a
346.9105	0.09	693821	keystroke_l	l	n/a
347.0905	0.12	694181	keystroke_Key.space	Key.space	n/a
348.456	0.105	696912	keystroke_s	s	n/a
348.711	0.0895	697422	keystroke_w	w	n/a
348.9055	0.105	697811	keystroke_a	a	n/a
348.9655	0.1205	697931	keystroke_p	p	n/a
349.7305	0.075	699461	keystroke_Key.enter	Key.enter	n/a
349.8135	12.0385	699627	prompt	n/a	workshop blair choir update\n
350.7505	0.0905	701501	keystroke_w	w	n/a
350.8715	0.0895	701743	keystroke_o	o	n/a
350.9905	0.1205	701981	keystroke_r	r	n/a
351.1255	0.0905	702251	keystroke_k	k	n/a
351.8305	0.106	703661	keystroke_s	s	n/a
351.9205	0.0755	703841	keystroke_h	h	n/a
352.1005	0.0755	704201	keystroke_i	i	n/a
352.2955	0.09	704591	keystroke_p	p	n/a
352.4455	0.12	704891	keystroke_Key.space	Key.space	n/a
352.7305	0.06	705461	keystroke_Key.backspace	Key.backspace	n/a
352.8955	0.0455	705791	keystroke_Key.backspace	Key.backspace	n/a
353.0455	0.075	706091	keystroke_Key.backspace	Key.backspace	n/a
353.2555	0.06	706511	keystroke_o	o	n/a
353.991	0.09	707982	keystroke_p	p	n/a
354.186	0.104	708372	keystroke_Key.space	Key.space	n/a
354.591	0.075	709182	keystroke_b	b	n/a
354.8305	0.09	709661	keystroke_l	l	n/a
355.161	0.1045	710322	keystroke_a	a	n/a
355.2805	0.105	710561	keystroke_i	i	n/a
355.401	0.1195	710802	keystroke_r	r	n/a
355.5355	0.12	711071	keystroke_Key.space	Key.space	n/a
355.8205	0.106	711641	keystroke_c	c	n/a
358.0735	0.012	716147	keystroke_h	h	n/a
358.9405	0.1055	717881	keystroke_o	o	n/a
359.091	0.119	718182	keystroke_i	i	n/a
359.391	0.135	718782	keystroke_r	r	n/a
359.54	0.1205	719080	keystroke_Key.space	Key.space	n/a
360.2305	0.075	720461	keystroke_u	u	n/a
360.426	0.1195	720852	keystroke_p	p	n/a
360.6355	0.165	721271	keystroke_d	d	n/a
360.7855	0.1505	721571	keystroke_a	a	n/a
360.921	0.0745	721842	keystroke_t	t	n/a
361.026	0.119	722052	keystroke_e	e	n/a
361.791	0.06	723582	keystroke_Key.enter	Key.enter	n/a
361.8565	10.106	723713	prompt	n/a	atmospheric mailing rapid commodity\n
362.556	0.1355	725112	keystroke_a	a	n/a
362.826	0.075	725652	keystroke_t	t	n/a
363.066	0.0895	726132	keystroke_m	m	n/a
363.2455	0.0905	726491	keystroke_o	o	n/a
363.351	0.135	726702	keystroke_s	s	n/a
363.516	0.1205	727032	keystroke_t	t	n/a
363.8605	0.09	727721	keystroke_Key.backspace	Key.backspace	n/a
364.476	0.0745	728952	keystroke_p	p	n/a
364.7305	0.1055	729461	keystroke_h	h	n/a
365.031	0.1795	730062	keystroke_e	e	n/a
365.1955	0.12	730391	keystroke_r	r	n/a
365.3165	0.1045	730633	keystroke_i	i	n/a
365.6905	0.12	731381	keystroke_c	c	n/a
365.7805	0.105	731561	keystroke_Key.space	Key.space	n/a
366.2015	0.0895	732403	keystroke_m	m	n/a
366.3205	0.1205	732641	keystroke_a	a	n/a
366.41	0.0755	732820	keystroke_i	i	n/a
366.62	0.076	733240	keystroke_l	l	n/a
366.831	0.045	733662	keystroke_i	i	n/a
366.951	0.121	733902	keystroke_n	n	n/a
367.056	0.105	734112	keystroke_g	g	n/a
367.1905	0.075	734381	keystroke_Key.space	Key.space	n/a
367.311	0.1195	734622	keystroke_r	r	n/a
367.566	0.0895	735132	keystroke_a	a	n/a
367.671	0.0605	735342	keystroke_p	p	n/a
367.9105	0.135	735821	keystroke_i	i	n/a
368.0605	0.136	736121	keystroke_d	d	n/a
368.151	0.1195	736302	keystroke_Key.space	Key.space	n/a
369.3205	0.1055	738641	keystroke_c	c	n/a
369.3955	0.0445	738791	keystroke_o	o	n/a
369.5905	0.075	739181	keystroke_m	m	n/a
369.9205	0.0605	739841	keystroke_o	o	n/a
370.2805	0.06	740561	keystroke_Key.backspace	Key.backspace	n/a
370.5205	0.09	741041	keystroke_m	m	n/a
370.6705	0.106	741341	keystroke_o	o	n/a
370.8655	0.136	741731	keystroke_d	d	n/a
370.9865	0.0745	741973	keystroke_i	i	n/a
371.121	0.1355	742242	keystroke_t	t	n/a
371.466	0.09	742932	keystroke_y	y	n/a
371.841	0.12	743682	keystroke_Key.enter	Key.enter	n/a
371.967	6.5655	743934	prompt	n/a	souls editions instant adams\n
372.936	0.135	745872	keystroke_s	s	n/a
373.011	0.09	746022	keystroke_o	o	n/a
373.191	0.0755	746382	keystroke_u	u	n/a
373.4005	0.1045	746801	keystroke_l	l	n/a
373.671	0.135	747342	keystroke_s	s	n/a
373.7905	0.091	747581	keystroke_Key.space	Key.space	n/a
374.1355	0.12	748271	keystroke_e	e	n/a
374.286	0.1195	748572	keystroke_d	d	n/a
374.4205	0.0895	748841	keystroke_i	i	n/a
374.556	0.135	749112	keystroke_t	t	n/a
374.676	0.105	749352	keystroke_i	i	n/a
374.841	0.12	749682	keystroke_o	o	n/a
375.066	0.1195	750132	keystroke_n	n	n/a
375.2905	0.1355	750581	keystroke_s	s	n/a
375.411	0.12	750822	keystroke_Key.space	Key.space	n/a
375.6665	0.074	751333	keystroke_i	i	n/a
375.8305	0.105	751661	keystroke_n	n	n/a
375.9805	0.105	751961	keystroke_s	s	n/a
376.2055	0.106	752411	keystroke_t	t	n/a
376.461	0.09	752922	keystroke_a	a	n/a
376.536	0.0895	753072	keystroke_n	n	n/a
376.6705	0.1355	753341	keystroke_t	t	n/a
376.806	0.105	753612	keystroke_Key.space	Key.space	n/a
377.075	0.135	754150	keystroke_a	a	n/a
377.226	0.119	754452	keystroke_d	d	n/a
377.376	0.075	754752	keystroke_m	m	n/a
377.7505	0.075	755501	keystroke_Key.backspace	Key.backspace	n/a
377.8705	0.09	755741	keystroke_a	a	n/a
377.9755	0.105	755951	keystroke_m	m	n/a
378.1265	0.164	756253	keystroke_s	s	n/a
378.3955	0.1355	756791	keystroke_Key.enter	Key.enter	n/a
378.5385	9.2485	757077	prompt	n/a	retail recipient perl murray\n
379.371	0.2095	758742	keystroke_r	r	n/a
379.5355	0.165	759071	keystroke_e	e	n/a
379.7915	0.119	759583	keystroke_t	t	n/a
380.106	0.105	760212	keystroke_i	i	n/a
380.4505	0.075	760901	keystroke_Key.backspace	Key.backspace	n/a
380.5705	0.105	761141	keystroke_a	a	n/a
380.6905	0.0905	761381	keystroke_i	i	n/a
380.8715	0.134	761743	keystroke_l	l	n/a
381.0805	0.15	762161	keystroke_Key.space	Key.space	n/a
381.4705	0.165	762941	keystroke_r	r	n/a
381.6055	0.105	763211	keystroke_e	e	n/a
381.8155	0.105	763631	keystroke_c	c	n/a
381.9215	0.1045	763843	keystroke_i	i	n/a
382.5655	0.0905	765131	keystroke_p	p	n/a
382.776	0.1345	765552	keystroke_i	i	n/a
382.9555	0.135	765911	keystroke_e	e	n/a
383.1355	0.136	766271	keystroke_n	n	n/a
383.2725	0.1035	766545	keystroke_t	t	n/a
383.3905	0.15	766781	keystroke_Key.space	Key.space	n/a
383.8865	0.1345	767773	keystroke_p	p	n/a
384.051	0.1645	768102	keystroke_e	e	n/a
384.186	0.1355	768372	keystroke_r	r	n/a
384.5905	0.1205	769181	keystroke_l	l	n/a
384.7255	0.135	769451	keystroke_Key.space	Key.space	n/a
384.951	0.1205	769902	keystroke_m	m	n/a
385.2205	0.105	770441	keystroke_u	u	n/a
385.8355	0.045	771671	keystroke_r	r	n/a
385.9555	0.0905	771911	keystroke_r	r	n/a
386.166	0.135	772332	keystroke_a	a	n/a
386.2405	0.106	772481	keystroke_y	y	n/a
387.7105	0.0755	775421	keystroke_Key.enter	Key.enter	n/a
387.794	7.9725	775588	prompt	n/a	audit receptor protected having\n
388.536	0.1495	777072	keystroke_a	a	n/a
388.7755	0.1055	777551	keystroke_u	u	n/a
389.0455	0.165	778091	keystroke_d	d	n/a
389.1655	0.106	778331	keystroke_i	i	n/a
389.3165	0.134	778633	keystroke_t	t	n/a
389.436	0.1045	778872	keystroke_Key.space	Key.space	n/a
389.6005	0.165	779201	keystroke_r	r	n/a
389.7205	0.135	779441	keystroke_e	e	n/a
389.9465	0.105	779893	keystroke_c	c	n/a
390.0665	0.1345	780133	keystroke_e	e	n/a
390.1705	0.075	780341	keystroke_o	o	n/a
390.5605	0.075	781121	keystroke_Key.backspace	Key.backspace	n/a
390.7115	0.105	781423	keystroke_p	p	n/a
390.8315	0.134	781663	keystroke_t	t	n/a
391.4915	0.0895	782983	keystroke_o	o	n/a
391.566	0.1205	783132	keystroke_r	r	n/a
391.6555	0.12	783311	keystroke_Key.space	Key.space	n/a
391.8355	0.12	783671	keystroke_p	p	n/a
391.986	0.09	783972	keystroke_r	r	n/a
392.061	0.09	784122	keystroke_o	o	n/a
392.21	0.1055	784420	keystroke_t	t	n/a
392.4505	0.09	784901	keystroke_e	e	n/a
392.72	0.135	785440	keystroke_c	c	n/a
392.9765	0.1045	785953	keystroke_t	t	n/a
393.186	0.12	786372	keystroke_e	e	n/a
393.291	0.135	786582	keystroke_d	d	n/a
393.381	0.12	786762	keystroke_Key.space	Key.space	n/a
393.561	0.09	787122	keystroke_h	h	n/a
393.666	0.105	787332	keystroke_a	a	n/a
394.041	0.0895	788082	keystroke_n	n	n/a
394.3105	0.09	788621	keystroke_Key.backspace	Key.backspace	n/a
394.4155	0.1195	788831	keystroke_v	v	n/a
394.58	0.075	789160	keystroke_i	i	n/a
394.716	0.104	789432	keystroke_n	n	n/a
394.73	0.105	789460	keystroke_g	g	n/a
395.69	0.075	791380	keystroke_Key.enter	Key.enter	n/a
395.7695	7.5575	791539	prompt	n/a	learners invest includes closed\n
396.621	0.0745	793242	keystroke_l	l	n/a
396.651	0.105	793302	keystroke_e	e	n/a
396.816	0.12	793632	keystroke_a	a	n/a
396.966	0.1505	793932	keystroke_r	r	n/a
397.056	0.0905	794112	keystroke_n	n	n/a
397.1915	0.1795	794383	keystroke_e	e	n/a
397.326	0.135	794652	keystroke_r	r	n/a
397.536	0.135	795072	keystroke_s	s	n/a
397.626	0.12	795252	keystroke_Key.space	Key.space	n/a
397.791	0.075	795582	keystroke_i	i	n/a
397.9415	0.1195	795883	keystroke_n	n	n/a
398.226	0.09	796452	keystroke_v	v	n/a
398.496	0.1045	796992	keystroke_e	e	n/a
398.736	0.0745	797472	keystroke_s	s	n/a
398.8855	0.105	797771	keystroke_t	t	n/a
399.0355	0.105	798071	keystroke_Key.space	Key.space	n/a
399.1855	0.0905	798371	keystroke_i	i	n/a
399.3505	0.1205	798701	keystroke_n	n	n/a
399.801	0.12	799602	keystroke_c	c	n/a
399.906	0.06	799812	keystroke_l	l	n/a
400.0865	0.0895	800173	keystroke_u	u	n/a
400.445	0.121	800890	keystroke_d	d	n/a
400.551	0.165	801102	keystroke_e	e	n/a
400.821	0.1195	801642	keystroke_s	s	n/a
400.9555	0.105	801911	keystroke_Key.space	Key.space	n/a
401.9155	0.0905	803831	keystroke_c	c	n/a
401.9605	0.09	803921	keystroke_l	l	n/a
402.3355	0.09	804671	keystroke_o	o	n/a
402.681	0.1945	805362	keystroke_s	s	n/a
402.8605	0.1505	805721	keystroke_e	e	n/a
402.9655	0.18	805931	keystroke_d	d	n/a
403.2055	0.12	806411	keystroke_Key.enter	Key.enter	n/a
403.331	6.626	806662	prompt	n/a	completely cancel on illegal\n
403.971	0.12	807942	keystroke_c	c	n/a
404.076	0.075	808152	keystroke_o	o	n/a
404.2405	0.0905	808481	keystroke_m	m	n/a
404.436	0.074	808872	keystroke_p	p	n/a
404.585	0.105	809170	keystroke_l	l	n/a
404.7655	0.0895	809531	keystroke_e	e	n/a
404.9765	0.1035	809953	keystroke_t	t	n/a
405.1705	0.1195	810341	keystroke_e	e	n/a
405.261	0.1055	810522	keystroke_l	l	n/a
405.47	0.1655	810940	keystroke_y	y	n/a
405.651	0.1045	811302	keystroke_Key.space	Key.space	n/a
406.1605	0.09	812321	keystroke_c	c	n/a
406.2955	0.135	812591	keystroke_a	a	n/a
406.5955	0.0905	813191	keystroke_n	n	n/a
406.7905	0.105	813581	keystroke_c	c	n/a
406.9555	0.1355	813911	keystroke_e	e	n/a
407.076	0.105	814152	keystroke_l	l	n/a
407.226	0.105	814452	keystroke_Key.space	Key.space	n/a
407.406	0.09	814812	keystroke_o	o	n/a
407.6005	0.105	815201	keystroke_n	n	n/a
407.6905	0.105	815381	keystroke_Key.space	Key.space	n/a
408.036	0.0905	816072	keystroke_i	i	n/a
408.2605	0.061	816521	keystroke_l	l	n/a
408.3805	0.09	816761	keystroke_l	l	n/a
408.4855	0.1055	816971	keystroke_e	e	n/a
408.831	0.1045	817662	keystroke_g	g	n/a
409.0865	0.12	818173	keystroke_a	a	n/a
409.1605	0.1055	818321	keystroke_l	l	n/a
409.88	0.0755	819760	keystroke_Key.enter	Key.enter	n/a
409.96	7.0475	819920	prompt	n/a	crossword forward camcorder fork\n
410.676	0.135	821352	keystroke_c	c	n/a
410.751	0.075	821502	keystroke_o	o	n/a
411.1105	0.075	822221	keystroke_Key.backspace	Key.backspace	n/a
411.2005	0.0905	822401	keystroke_r	r	n/a
411.3355	0.075	822671	keystroke_o	o	n/a
411.5005	0.09	823001	keystroke_s	s	n/a
411.7715	0.014	823543	keystroke_s	s	n/a
412.0255	0.121	824051	keystroke_w	w	n/a
412.1015	0.104	824203	keystroke_o	o	n/a
412.2205	0.1205	824441	keystroke_r	r	n/a
412.476	0.1055	824952	keystroke_d	d	n/a
412.5205	0.12	825041	keystroke_Key.space	Key.space	n/a
412.7155	0.1355	825431	keystroke_f	f	n/a
412.8365	0.105	825673	keystroke_o	o	n/a
412.9115	0.119	825823	keystroke_r	r	n/a
413.1505	0.091	826301	keystroke_w	w	n/a
413.3605	0.0905	826721	keystroke_a	a	n/a
413.5705	0.105	827141	keystroke_r	r	n/a
413.8105	0.12	827621	keystroke_d	d	n/a
413.9155	0.105	827831	keystroke_Key.space	Key.space	n/a
414.0805	0.105	828161	keystroke_c	c	n/a
414.501	0.1045	829002	keystroke_a	a	n/a
414.576	0.0895	829152	keystroke_m	m	n/a
415.0115	0.104	830023	keystroke_c	c	n/a
415.1165	0.104	830233	keystroke_o	o	n/a
415.2355	0.09	830471	keystroke_r	r	n/a
415.4755	0.15	830951	keystroke_d	d	n/a
415.6705	0.21	831341	keystroke_e	e	n/a
415.836	0.135	831672	keystroke_r	r	n/a
416.016	0.0895	832032	keystroke_Key.space	Key.space	n/a
416.166	0.1345	832332	keystroke_f	f	n/a
416.3155	0.0455	832631	keystroke_o	o	n/a
416.376	0.105	832752	keystroke_r	r	n/a
416.5865	0.104	833173	keystroke_k	k	n/a
416.871	0.1345	833742	keystroke_Key.enter	Key.enter	n/a
417.0165	8.9005	834033	prompt	n/a	roller dolls valuation commented\n
417.486	0.045	834972	keystroke_c	c	n/a
417.816	0.075	835632	keystroke_Key.backspace	Key.backspace	n/a
417.966	0.075	835932	keystroke_r	r	n/a
418.326	0.075	836652	keystroke_o	o	n/a
418.5655	0.06	837131	keystroke_l	l	n/a
418.7155	0.0605	837431	keystroke_l	l	n/a
418.8065	0.1935	837613	keystroke_e	e	n/a
418.911	0.165	837822	keystroke_r	r	n/a
419.061	0.105	838122	keystroke_Key.space	Key.space	n/a
419.391	0.06	838782	keystroke_o	o	n/a
419.676	0.059	839352	keystroke_Key.backspace	Key.backspace	n/a
419.766	0.09	839532	keystroke_d	d	n/a
420.2015	0.104	840403	keystroke_o	o	n/a
420.5905	0.0755	841181	keystroke_l	l	n/a
420.7555	0.075	841511	keystroke_l	l	n/a
420.936	0.1345	841872	keystroke_a	a	n/a
421.236	0.075	842472	keystroke_Key.backspace	Key.backspace	n/a
421.3405	0.105	842681	keystroke_s	s	n/a
421.4465	0.119	842893	keystroke_Key.space	Key.space	n/a
421.6705	0.09	843341	keystroke_v	v	n/a
421.8805	0.09	843761	keystroke_a	a	n/a
421.9255	0.09	843851	keystroke_l	l	n/a
422.166	0.0895	844332	keystroke_u	u	n/a
422.2705	0.105	844541	keystroke_a	a	n/a
422.4505	0.105	844901	keystroke_b	b	n/a
422.886	0.074	845772	keystroke_Key.backspace	Key.backspace	n/a
423.0505	0.105	846101	keystroke_t	t	n/a
423.1405	0.09	846281	keystroke_i	i	n/a
423.291	0.0895	846582	keystroke_o	o	n/a
423.4865	0.104	846973	keystroke_n	n	n/a
423.6805	0.09	847361	keystroke_c	c	n/a
424.1605	0.075	848321	keystroke_Key.backspace	Key.backspace	n/a
424.2655	0.1505	848531	keystroke_Key.space	Key.space	n/a
424.461	0.135	848922	keystroke_c	c	n/a
424.581	0.075	849162	keystroke_o	o	n/a
424.776	0.09	849552	keystroke_m	m	n/a
424.941	0.06	849882	keystroke_m	m	n/a
425.0605	0.106	850121	keystroke_e	e	n/a
425.1805	0.09	850361	keystroke_n	n	n/a
425.2865	0.1035	850573	keystroke_t	t	n/a
425.51	0.0915	851020	keystroke_e	e	n/a
425.6165	0.1935	851233	keystroke_d	d	n/a
425.78	0.135	851560	keystroke_Key.enter	Key.enter	n/a
425.9215	15.536	851843	prompt	n/a	carries exclusion jewellery violations\n
426.681	0.105	853362	keystroke_c	c	n/a
426.89	0.121	853780	keystroke_a	a	n/a
427.146	0.06	854292	keystroke_r	r	n/a
427.311	0.075	854622	keystroke_r	r	n/a
427.446	0.09	854892	keystroke_i	i	n/a
427.566	0.09	855132	keystroke_e	e	n/a
427.73	0.1355	855460	keystroke_s	s	n/a
427.8355	0.105	855671	keystroke_Key.space	Key.space	n/a
428.0605	0.09	856121	keystroke_e	e	n/a
428.33	0.105	856660	keystroke_x	x	n/a
428.4515	0.0595	856903	keystroke_l	l	n/a
428.811	0.059	857622	keystroke_Key.backspace	Key.backspace	n/a
428.976	0.06	857952	keystroke_c	c	n/a
429.006	0.09	858012	keystroke_l	l	n/a
429.2615	0.074	858523	keystroke_u	u	n/a
429.696	0.105	859392	keystroke_s	s	n/a
429.816	0.06	859632	keystroke_i	i	n/a
429.95	0.076	859900	keystroke_o	o	n/a
430.101	0.121	860202	keystroke_n	n	n/a
430.251	0.0895	860502	keystroke_Key.space	Key.space	n/a
430.6105	0.075	861221	keystroke_j	j	n/a
430.8955	0.076	861791	keystroke_e	e	n/a
431.4505	0.1355	862901	keystroke_v	v	n/a
431.87	0.0605	863740	keystroke_Key.backspace	Key.backspace	n/a
431.9455	0.1205	863891	keystroke_w	w	n/a
432.171	0.1055	864342	keystroke_e	e	n/a
432.471	0.0595	864942	keystroke_l	l	n/a
432.6055	0.09	865211	keystroke_l	l	n/a
434.3755	0.1655	868751	keystroke_r	r	n/a
434.496	0.12	868992	keystroke_y	y	n/a
434.676	0.1195	869352	keystroke_Key.space	Key.space	n/a
435.2905	0.0295	870581	keystroke_Key.backspace	Key.backspace	n/a
435.41	0.06	870820	keystroke_Key.backspace	Key.backspace	n/a
436.715	0.091	873430	keystroke_Key.backspace	Key.backspace	n/a
437.076	0.195	874152	keystroke_e	e	n/a
437.196	0.15	874392	keystroke_r	r	n/a
437.526	0.15	875052	keystroke_y	y	n/a
437.69	0.106	875380	keystroke_Key.space	Key.space	n/a
438.0505	0.15	876101	keystroke_v	v	n/a
438.186	0.1345	876372	keystroke_i	i	n/a
438.3805	0.1205	876761	keystroke_o	o	n/a
438.6655	0.0755	877331	keystroke_u	u	n/a
439.0265	0.0595	878053	keystroke_Key.backspace	Key.backspace	n/a
439.2055	0.12	878411	keystroke_l	l	n/a
439.3405	0.105	878681	keystroke_a	a	n/a
439.5655	0.106	879131	keystroke_t	t	n/a
439.6405	0.06	879281	keystroke_i	i	n/a
439.8055	0.0605	879611	keystroke_o	o	n/a
439.9705	0.075	879941	keystroke_n	n	n/a
440.0305	0.105	880061	keystroke_s	s	n/a
441.381	0.075	882762	keystroke_Key.enter	Key.enter	n/a
441.463	8.8755	882926	prompt	n/a	reminder attempted nvidia dogs\n
442.0555	0.195	884111	keystroke_r	r	n/a
442.2355	0.091	884471	keystroke_m	m	n/a
442.5655	0.0755	885131	keystroke_Key.backspace	Key.backspace	n/a
442.6565	0.1045	885313	keystroke_e	e	n/a
442.806	0.0605	885612	keystroke_,	,	n/a
443.0005	0.075	886001	keystroke_i	i	n/a
443.375	0.06	886750	keystroke_Key.backspace	Key.backspace	n/a
443.51	0.09	887020	keystroke_Key.backspace	Key.backspace	n/a
443.796	0.09	887592	keystroke_m	m	n/a
443.9315	0.0895	887863	keystroke_i	i	n/a
444.0805	0.1195	888161	keystroke_n	n	n/a
444.185	0.211	888370	keystroke_d	d	n/a
444.38	0.136	888760	keystroke_e	e	n/a
444.606	0.105	889212	keystroke_r	r	n/a
444.98	0.1055	889960	keystroke_Key.space	Key.space	n/a
445.356	0.0895	890712	keystroke_a	a	n/a
445.5655	0.0745	891131	keystroke_t	t	n/a
445.701	0.135	891402	keystroke_t	t	n/a
445.911	0.12	891822	keystroke_e	e	n/a
446.12	0.076	892240	keystroke_m	m	n/a
446.345	0.091	892690	keystroke_p	p	n/a
446.706	0.104	893412	keystroke_t	t	n/a
446.991	0.12	893982	keystroke_e	e	n/a
447.0805	0.15	894161	keystroke_d	d	n/a
447.1855	0.1045	894371	keystroke_Key.space	Key.space	n/a
447.381	0.105	894762	keystroke_n	n	n/a
447.68	0.121	895360	keystroke_v	v	n/a
447.786	0.105	895572	keystroke_i	i	n/a
447.966	0.135	895932	keystroke_d	d	n/a
448.101	0.105	896202	keystroke_i	i	n/a
448.221	0.104	896442	keystroke_a	a	n/a
448.34	0.106	896680	keystroke_Key.space	Key.space	n/a
448.716	0.1195	897432	keystroke_d	d	n/a
448.8205	0.106	897641	keystroke_o	o	n/a
449.255	0.091	898510	keystroke_g	g	n/a
449.5715	0.119	899143	keystroke_s	s	n/a
450.261	0.075	900522	keystroke_Key.enter	Key.enter	n/a
450.3445	7.0875	900689	prompt	n/a	dark moved hdtv boundary\n
451.146	0.12	902292	keystroke_d	d	n/a
451.281	0.104	902562	keystroke_a	a	n/a
451.446	0.136	902892	keystroke_r	r	n/a
451.566	0.09	903132	keystroke_k	k	n/a
451.685	0.091	903370	keystroke_Key.space	Key.space	n/a
451.88	0.075	903760	keystroke_m	m	n/a
452.045	0.091	904090	keystroke_o	o	n/a
452.241	0.149	904482	keystroke_v	v	n/a
452.405	0.121	904810	keystroke_e	e	n/a
452.751	0.15	905502	keystroke_d	d	n/a
452.885	0.091	905770	keystroke_Key.space	Key.space	n/a
453.1555	0.09	906311	keystroke_h	h	n/a
453.44	0.135	906880	keystroke_d	d	n/a
453.68	0.136	907360	keystroke_t	t	n/a
454.0855	0.151	908171	keystroke_v	v	n/a
454.46	0.12	908920	keystroke_Key.space	Key.space	n/a
455.1655	0.09	910331	keystroke_b	b	n/a
455.376	0.075	910752	keystroke_o	o	n/a
455.601	0.0745	911202	keystroke_u	u	n/a
455.7055	0.1645	911411	keystroke_d	d	n/a
455.841	0.149	911682	keystroke_a	a	n/a
456.065	0.151	912130	keystroke_r	r	n/a
456.1855	0.12	912371	keystroke_y	y	n/a
457.3405	0.09	914681	keystroke_Key.enter	Key.enter	n/a
457.4405	14.3015	914881	prompt	n/a	cottage relief infectious documents\n
459.951	0.105	919902	keystroke_c	c	n/a
460.0705	0.09	920141	keystroke_o	o	n/a
460.3705	0.06	920741	keystroke_t	t	n/a
460.491	0.0745	920982	keystroke_t	t	n/a
460.5505	0.135	921101	keystroke_a	a	n/a
460.671	0.105	921342	keystroke_g	g	n/a
460.821	0.12	921642	keystroke_e	e	n/a
460.926	0.119	921852	keystroke_Key.space	Key.space	n/a
461.3305	0.2105	922661	keystroke_r	r	n/a
461.526	0.1495	923052	keystroke_e	e	n/a
461.631	0.09	923262	keystroke_l	l	n/a
461.8405	0.0895	923681	keystroke_i	i	n/a
461.99	0.2105	923980	keystroke_e	e	n/a
462.2155	0.1195	924431	keystroke_f	f	n/a
463.8355	0.18	927671	keystroke_Key.space	Key.space	n/a
464.5105	0.09	929021	keystroke_i	i	n/a
464.7515	0.0735	929503	keystroke_n	n	n/a
465.006	0.0895	930012	keystroke_c	c	n/a
465.3355	0.105	930671	keystroke_Key.backspace	Key.backspace	n/a
465.471	0.0895	930942	keystroke_f	f	n/a
466.326	0.1645	932652	keystroke_e	e	n/a
466.5805	0.12	933161	keystroke_c	c	n/a
466.82	0.12	933640	keystroke_t	t	n/a
466.925	0.091	933850	keystroke_i	i	n/a
467.121	0.074	934242	keystroke_o	o	n/a
467.316	0.104	934632	keystroke_n	n	n/a
467.765	0.046	935530	keystroke_Key.backspace	Key.backspace	n/a
467.8845	0.09	935769	keystroke_Key.backspace	Key.backspace	n/a
468.651	0.09	937302	keystroke_o	o	n/a
468.8905	0.0595	937781	keystroke_u	u	n/a
468.98	0.136	937960	keystroke_s	s	n/a
469.1005	0.1045	938201	keystroke_Key.space	Key.space	n/a
469.73	0.09	939460	keystroke_d	d	n/a
469.835	0.09	939670	keystroke_o	o	n/a
469.986	0.105	939972	keystroke_c	c	n/a
470.121	0.089	940242	keystroke_u	u	n/a
470.3905	0.075	940781	keystroke_m	m	n/a
470.4655	0.1205	940931	keystroke_e	e	n/a
470.6	0.1055	941200	keystroke_n	n	n/a
470.66	0.09	941320	keystroke_t	t	n/a
470.9	0.1205	941800	keystroke_s	s	n/a
471.6505	0.09	943301	keystroke_Key.enter	Key.enter	n/a
471.7475	8.875	943495	prompt	n/a	gamespot congress revenue interview\n
472.956	0.104	945912	keystroke_g	g	n/a
473.1795	0.1365	946359	keystroke_a	a	n/a
473.2705	0.105	946541	keystroke_m	m	n/a
473.7355	0.09	947471	keystroke_e	e	n/a
473.8855	0.06	947771	keystroke_p	p	n/a
474.2005	0.06	948401	keystroke_Key.backspace	Key.backspace	n/a
474.276	0.1045	948552	keystroke_s	s	n/a
474.3815	0.074	948763	keystroke_p	p	n/a
474.696	0.074	949392	keystroke_t	t	n/a
474.935	0.076	949870	keystroke_Key.backspace	Key.backspace	n/a
475.1	0.091	950200	keystroke_o	o	n/a
475.206	0.119	950412	keystroke_t	t	n/a
475.52	0.1355	951040	keystroke_Key.space	Key.space	n/a
475.941	0.12	951882	keystroke_c	c	n/a
476.0005	0.0745	952001	keystroke_o	o	n/a
476.1955	0.0905	952391	keystroke_n	n	n/a
476.435	0.151	952870	keystroke_g	g	n/a
476.6155	0.24	953231	keystroke_r	r	n/a
476.8405	0.1345	953681	keystroke_e	e	n/a
477.1105	0.09	954221	keystroke_s	s	n/a
477.2605	0.105	954521	keystroke_s	s	n/a
477.3955	0.104	954791	keystroke_Key.space	Key.space	n/a
477.636	0.1795	955272	keystroke_r	r	n/a
477.7555	0.165	955511	keystroke_e	e	n/a
477.9355	0.1205	955871	keystroke_v	v	n/a
478.071	0.1495	956142	keystroke_e	e	n/a
478.1905	0.105	956381	keystroke_n	n	n/a
478.3855	0.135	956771	keystroke_u	u	n/a
478.5055	0.1355	957011	keystroke_e	e	n/a
478.595	0.1055	957190	keystroke_Key.space	Key.space	n/a
478.8205	0.091	957641	keystroke_i	i	n/a
479.0005	0.1045	958001	keystroke_n	n	n/a
479.0905	0.135	958181	keystroke_t	t	n/a
479.27	0.181	958540	keystroke_e	e	n/a
479.3755	0.1495	958751	keystroke_r	r	n/a
479.615	0.135	959230	keystroke_v	v	n/a
479.72	0.12	959440	keystroke_i	i	n/a
480.02	0.18	960040	keystroke_e	e	n/a
480.17	0.165	960340	keystroke_w	w	n/a
480.44	0.1805	960880	keystroke_Key.enter	Key.enter	n/a
480.633	4.8195	961266	prompt	n/a	scsi purse alloy dont\n
481.505	0.1355	963010	keystroke_s	s	n/a
481.656	0.12	963312	keystroke_c	c	n/a
481.9405	0.1055	963881	keystroke_s	s	n/a
482.001	0.119	964002	keystroke_i	i	n/a
482.1805	0.09	964361	keystroke_Key.space	Key.space	n/a
482.406	0.075	964812	keystroke_p	p	n/a
482.631	0.09	965262	keystroke_u	u	n/a
482.735	0.106	965470	keystroke_r	r	n/a
482.9905	0.089	965981	keystroke_s	s	n/a
483.246	0.12	966492	keystroke_e	e	n/a
483.3795	0.091	966759	keystroke_Key.space	Key.space	n/a
483.5455	0.09	967091	keystroke_a	a	n/a
483.621	0.0745	967242	keystroke_l	l	n/a
483.756	0.09	967512	keystroke_l	l	n/a
483.9345	0.1065	967869	keystroke_o	o	n/a
484.2505	0.09	968501	keystroke_y	y	n/a
484.4155	0.0755	968831	keystroke_Key.space	Key.space	n/a
484.6405	0.12	969281	keystroke_d	d	n/a
484.7305	0.09	969461	keystroke_o	o	n/a
484.926	0.09	969852	keystroke_n	n	n/a
485.017	0.1485	970034	keystroke_t	t	n/a
485.3305	0.12	970661	keystroke_Key.enter	Key.enter	n/a
485.4575	6.9995	970915	prompt	n/a	miss instructions chancellor incentive\n
486.1855	0.0905	972371	keystroke_m	m	n/a
486.3665	0.089	972733	keystroke_i	i	n/a
486.4705	0.06	972941	keystroke_s	s	n/a
486.6205	0.135	973241	keystroke_s	s	n/a
486.7105	0.1195	973421	keystroke_Key.space	Key.space	n/a
487.19	0.076	974380	keystroke_i	i	n/a
487.355	0.105	974710	keystroke_n	n	n/a
487.5055	0.1055	975011	keystroke_s	s	n/a
487.715	0.1065	975430	keystroke_t	t	n/a
487.9555	0.105	975911	keystroke_r	r	n/a
488.075	0.1205	976150	keystroke_u	u	n/a
488.2405	0.105	976481	keystroke_c	c	n/a
488.4505	0.105	976901	keystroke_t	t	n/a
488.5405	0.075	977081	keystroke_i	i	n/a
488.7055	0.06	977411	keystroke_o	o	n/a
488.8845	0.091	977769	keystroke_n	n	n/a
488.9895	0.121	977979	keystroke_s	s	n/a
489.276	0.0885	978552	keystroke_Key.space	Key.space	n/a
489.4405	0.1195	978881	keystroke_c	c	n/a
489.6055	0.0745	979211	keystroke_h	h	n/a
489.7405	0.105	979481	keystroke_a	a	n/a
489.861	0.0745	979722	keystroke_n	n	n/a
490.0405	0.075	980081	keystroke_c	c	n/a
490.1905	0.105	980381	keystroke_e	e	n/a
490.2805	0.061	980561	keystroke_l	l	n/a
490.4155	0.0755	980831	keystroke_l	l	n/a
490.6555	0.03	981311	keystroke_o	o	n/a
490.7305	0.1045	981461	keystroke_r	r	n/a
490.85	0.105	981700	keystroke_Key.space	Key.space	n/a
491.0005	0.105	982001	keystroke_i	i	n/a
491.1805	0.1055	982361	keystroke_n	n	n/a
491.286	0.1195	982572	keystroke_c	c	n/a
491.466	0.0745	982932	keystroke_e	e	n/a
491.5105	0.105	983021	keystroke_n	n	n/a
491.6755	0.15	983351	keystroke_t	t	n/a
491.9905	0.09	983981	keystroke_i	i	n/a
492.0955	0.1205	984191	keystroke_v	v	n/a
492.2165	0.1785	984433	keystroke_e	e	n/a
492.335	0.12	984670	keystroke_Key.enter	Key.enter	n/a
492.465	9.952	984930	prompt	n/a	breakfast stay definitely infectious\n
493.1605	0.09	986321	keystroke_b	b	n/a
493.2955	0.12	986591	keystroke_r	r	n/a
493.4905	0.1205	986981	keystroke_e	e	n/a
493.73	0.105	987460	keystroke_a	a	n/a
494.51	0.091	989020	keystroke_k	k	n/a
494.7505	0.075	989501	keystroke_f	f	n/a
494.931	0.1195	989862	keystroke_a	a	n/a
495.2005	0.0905	990401	keystroke_s	s	n/a
495.3655	0.12	990731	keystroke_t	t	n/a
495.5155	0.105	991031	keystroke_Key.space	Key.space	n/a
495.7555	0.106	991511	keystroke_s	s	n/a
495.9505	0.12	991901	keystroke_t	t	n/a
496.1305	0.105	992261	keystroke_a	a	n/a
496.5955	0.105	993191	keystroke_t	t	n/a
497.1505	0.1045	994301	keystroke_Key.backspace	Key.backspace	n/a
497.4805	0.075	994961	keystroke_y	y	n/a
497.6155	0.105	995231	keystroke_Key.space	Key.space	n/a
497.736	0.1495	995472	keystroke_d	d	n/a
497.9005	0.09	995801	keystroke_e	e	n/a
498.336	0.075	996672	keystroke_f	f	n/a
498.426	0.06	996852	keystroke_i	i	n/a
498.591	0.09	997182	keystroke_n	n	n/a
498.756	0.09	997512	keystroke_i	i	n/a
498.891	0.1495	997782	keystroke_t	t	n/a
499.7455	0.105	999491	keystroke_e	e	n/a
499.8655	0.1055	999731	keystroke_l	l	n/a
499.9855	0.12	999971	keystroke_y	y	n/a
500.1205	0.1195	1000241	keystroke_Key.space	Key.space	n/a
500.6755	0.075	1001351	keystroke_i	i	n/a
500.8255	0.105	1001651	keystroke_n	n	n/a
500.9605	0.1045	1001921	keystroke_f	f	n/a
501.126	0.089	1002252	keystroke_e	e	n/a
501.32	0.09	1002640	keystroke_c	c	n/a
501.501	0.104	1003002	keystroke_t	t	n/a
501.59	0.09	1003180	keystroke_i	i	n/a
501.7695	0.076	1003539	keystroke_o	o	n/a
501.9945	0.076	1003989	keystroke_u	u	n/a
502.0855	0.1355	1004171	keystroke_s	s	n/a
502.2955	0.12	1004591	keystroke_Key.enter	Key.enter	n/a
502.427	7.01	1004854	prompt	n/a	mailed decimal hugh inspiration\n
503.061	0.03	1006122	keystroke_m	m	n/a
503.3605	0.105	1006721	keystroke_a	a	n/a
503.4355	0.0755	1006871	keystroke_i	i	n/a
503.6305	0.1345	1007261	keystroke_l	l	n/a
503.735	0.166	1007470	keystroke_e	e	n/a
503.855	0.151	1007710	keystroke_d	d	n/a
503.991	0.135	1007982	keystroke_Key.space	Key.space	n/a
504.23	0.106	1008460	keystroke_d	d	n/a
504.35	0.1055	1008700	keystroke_e	e	n/a
504.6055	0.1205	1009211	keystroke_c	c	n/a
504.6955	0.0755	1009391	keystroke_i	i	n/a
504.921	0.0895	1009842	keystroke_m	m	n/a
505.0255	0.135	1010051	keystroke_a	a	n/a
505.1305	0.105	1010261	keystroke_l	l	n/a
505.2805	0.1345	1010561	keystroke_Key.space	Key.space	n/a
505.5205	0.09	1011041	keystroke_h	h	n/a
506.016	0.089	1012032	keystroke_u	u	n/a
506.225	0.105	1012450	keystroke_g	g	n/a
506.36	0.076	1012720	keystroke_h	h	n/a
506.54	0.135	1013080	keystroke_Key.space	Key.space	n/a
507.0655	0.075	1014131	keystroke_i	i	n/a
507.23	0.09	1014460	keystroke_n	n	n/a
507.365	0.106	1014730	keystroke_s	s	n/a
507.56	0.045	1015120	keystroke_p	p	n/a
508.056	0.09	1016112	keystroke_i	i	n/a
508.175	0.09	1016350	keystroke_r	r	n/a
508.385	0.091	1016770	keystroke_a	a	n/a
508.566	0.0895	1017132	keystroke_t	t	n/a
508.6705	0.0605	1017341	keystroke_i	i	n/a
508.9405	0.06	1017881	keystroke_o	o	n/a
509.106	0.104	1018212	keystroke_n	n	n/a
509.3305	0.1045	1018661	keystroke_Key.enter	Key.enter	n/a
509.4415	9.7905	1018883	prompt	n/a	country drawing twisted periods\n
510.1105	0.09	1020221	keystroke_c	c	n/a
510.2155	0.105	1020431	keystroke_o	o	n/a
510.4405	0.06	1020881	keystroke_u	u	n/a
510.5605	0.1205	1021121	keystroke_n	n	n/a
510.6665	0.089	1021333	keystroke_t	t	n/a
510.8455	0.105	1021691	keystroke_r	r	n/a
510.9055	0.1055	1021811	keystroke_y	y	n/a
511.0555	0.105	1022111	keystroke_Key.space	Key.space	n/a
511.3705	0.12	1022741	keystroke_d	d	n/a
511.5655	0.135	1023131	keystroke_r	r	n/a
511.7905	0.105	1023581	keystroke_w	w	n/a
512.0455	0.075	1024091	keystroke_a	a	n/a
512.4055	0.03	1024811	keystroke_Key.backspace	Key.backspace	n/a
512.5105	0.075	1025021	keystroke_Key.backspace	Key.backspace	n/a
512.7655	0.1345	1025531	keystroke_a	a	n/a
513.0055	0.135	1026011	keystroke_w	w	n/a
513.3805	0.0605	1026761	keystroke_i	i	n/a
513.5005	0.135	1027001	keystroke_n	n	n/a
513.6205	0.105	1027241	keystroke_g	g	n/a
513.7105	0.09	1027421	keystroke_Key.space	Key.space	n/a
514.0405	0.1205	1028081	keystroke_t	t	n/a
514.281	0.104	1028562	keystroke_r	r	n/a
514.9855	0.0905	1029971	keystroke_Key.backspace	Key.backspace	n/a
515.151	0.06	1030302	keystroke_w	w	n/a
515.3	0.106	1030600	keystroke_i	i	n/a
515.435	0.121	1030870	keystroke_s	s	n/a
515.661	0.12	1031322	keystroke_t	t	n/a
515.961	0.164	1031922	keystroke_e	e	n/a
516.095	0.151	1032190	keystroke_d	d	n/a
516.216	0.104	1032432	keystroke_Key.space	Key.space	n/a
516.456	0.089	1032912	keystroke_p	p	n/a
516.56	0.075	1033120	keystroke_r	r	n/a
516.8905	0.0895	1033781	keystroke_Key.backspace	Key.backspace	n/a
516.9955	0.134	1033991	keystroke_e	e	n/a
517.0855	0.1355	1034171	keystroke_r	r	n/a
517.191	0.1185	1034382	keystroke_i	i	n/a
517.3855	0.12	1034771	keystroke_o	o	n/a
517.6855	0.09	1035371	keystroke_u	u	n/a
518.0305	0.03	1036061	keystroke_Key.backspace	Key.backspace	n/a
518.0765	0.1345	1036153	keystroke_d	d	n/a
518.2705	0.12	1036541	keystroke_s	s	n/a
519.155	0.075	1038310	keystroke_Key.enter	Key.enter	n/a
519.2375	11.8145	1038475	prompt	n/a	firewall webcam metals hello\n
520.1455	0.106	1040291	keystroke_f	f	n/a
520.3555	0.105	1040711	keystroke_i	i	n/a
520.4755	0.1655	1040951	keystroke_r	r	n/a
520.6105	0.1205	1041221	keystroke_e	e	n/a
520.9855	0.12	1041971	keystroke_w	w	n/a
521.2405	0.105	1042481	keystroke_a	a	n/a
521.4205	0.0605	1042841	keystroke_l	l	n/a
521.5555	0.12	1043111	keystroke_l	l	n/a
522.0355	0.105	1044071	keystroke_Key.space	Key.space	n/a
522.3655	0.121	1044731	keystroke_w	w	n/a
522.561	0.0895	1045122	keystroke_e	e	n/a
522.7405	0.09	1045481	keystroke_b	b	n/a
523.1755	0.12	1046351	keystroke_c	c	n/a
523.3255	0.1495	1046651	keystroke_a	a	n/a
523.4305	0.1045	1046861	keystroke_m	m	n/a
523.5955	0.0895	1047191	keystroke_Key.space	Key.space	n/a
523.7605	0.0755	1047521	keystroke_m	m	n/a
523.9395	0.075	1047879	keystroke_e	e	n/a
524.7205	0.135	1049441	keystroke_t	t	n/a
524.975	0.1205	1049950	keystroke_a	a	n/a
525.11	0.091	1050220	keystroke_l	l	n/a
525.245	0.1055	1050490	keystroke_Key.space	Key.space	n/a
525.516	0.074	1051032	keystroke_h	h	n/a
525.635	0.106	1051270	keystroke_e	e	n/a
525.786	0.074	1051572	keystroke_l	l	n/a
525.92	0.075	1051840	keystroke_l	l	n/a
526.101	0.075	1052202	keystroke_o	o	n/a
529.313	0	1058626	keystroke_Key.left	Key.left	n/a
529.401	0.0595	1058802	keystroke_Key.left	Key.left	n/a
529.55	0.045	1059100	keystroke_Key.left	Key.left	n/a
529.701	0.0595	1059402	keystroke_Key.left	Key.left	n/a
529.8505	0.06	1059701	keystroke_Key.left	Key.left	n/a
530.0005	0.0605	1060001	keystroke_Key.left	Key.left	n/a
530.511	0.135	1061022	keystroke_s	s	n/a
530.975	0.075	1061950	keystroke_Key.enter	Key.enter	n/a
531.057	7.0295	1062114	prompt	n/a	fires heritage airport yard\n
531.606	0.12	1063212	keystroke_f	f	n/a
531.785	0.105	1063570	keystroke_i	i	n/a
531.875	0.165	1063750	keystroke_r	r	n/a
531.9805	0.1205	1063961	keystroke_e	e	n/a
532.206	0.12	1064412	keystroke_s	s	n/a
532.266	0.105	1064532	keystroke_Key.space	Key.space	n/a
532.49	0.091	1064980	keystroke_h	h	n/a
532.9705	0.1795	1065941	keystroke_e	e	n/a
533.1655	0.105	1066331	keystroke_r	r	n/a
533.285	0.09	1066570	keystroke_i	i	n/a
533.63	0.1055	1067260	keystroke_t	t	n/a
533.855	0.136	1067710	keystroke_a	a	n/a
533.961	0.09	1067922	keystroke_g	g	n/a
534.08	0.1205	1068160	keystroke_e	e	n/a
534.155	0.135	1068310	keystroke_Key.space	Key.space	n/a
534.5905	0.075	1069181	keystroke_a	a	n/a
534.7855	0.12	1069571	keystroke_i	i	n/a
534.9355	0.121	1069871	keystroke_r	r	n/a
535.0865	0.09	1070173	keystroke_p	p	n/a
535.2655	0.105	1070531	keystroke_o	o	n/a
535.4005	0.09	1070801	keystroke_r	r	n/a
535.5815	0.1045	1071163	keystroke_t	t	n/a
535.6705	0.12	1071341	keystroke_Key.space	Key.space	n/a
536.586	0.104	1073172	keystroke_y	y	n/a
536.705	0.121	1073410	keystroke_a	a	n/a
536.855	0.121	1073710	keystroke_r	r	n/a
537.051	0.1645	1074102	keystroke_d	d	n/a
538.01	0.0755	1076020	keystroke_Key.enter	Key.enter	n/a
538.0925	11.3645	1076185	prompt	n/a	dosage cell powerful traditional\n
539.106	0.1045	1078212	keystroke_d	d	n/a
539.226	0.09	1078452	keystroke_o	o	n/a
539.571	0.075	1079142	keystroke_s	s	n/a
539.7505	0.1055	1079501	keystroke_a	a	n/a
539.8405	0.1055	1079681	keystroke_g	g	n/a
539.961	0.12	1079922	keystroke_e	e	n/a
540.051	0.1345	1080102	keystroke_Key.space	Key.space	n/a
540.29	0.1205	1080580	keystroke_c	c	n/a
540.485	0.1355	1080970	keystroke_e	e	n/a
540.6055	0.045	1081211	keystroke_l	l	n/a
540.725	0.0755	1081450	keystroke_l	l	n/a
540.86	0.135	1081720	keystroke_Key.space	Key.space	n/a
541.28	0.076	1082560	keystroke_p	p	n/a
541.4605	0.2095	1082921	keystroke_w	w	n/a
541.4755	0.0755	1082951	keystroke_o	o	n/a
541.671	0.075	1083342	keystroke_e	e	n/a
542.076	0.0295	1084152	keystroke_Key.backspace	Key.backspace	n/a
542.1955	0.045	1084391	keystroke_Key.backspace	Key.backspace	n/a
542.3005	0.075	1084601	keystroke_Key.backspace	Key.backspace	n/a
542.51	0.0905	1085020	keystroke_o	o	n/a
542.63	0.181	1085260	keystroke_w	w	n/a
542.7505	0.136	1085501	keystroke_e	e	n/a
542.931	0.149	1085862	keystroke_r	r	n/a
543.366	0.105	1086732	keystroke_f	f	n/a
543.441	0.06	1086882	keystroke_u	u	n/a
545.4355	0.09	1090871	keystroke_l	l	n/a
545.6445	0.166	1091289	keystroke_Key.space	Key.space	n/a
546.2305	0.135	1092461	keystroke_t	t	n/a
546.4555	0.09	1092911	keystroke_r	r	n/a
546.6205	0.1495	1093241	keystroke_a	a	n/a
547.1305	0.105	1094261	keystroke_d	d	n/a
547.4155	0.105	1094831	keystroke_i	i	n/a
547.5505	0.1355	1095101	keystroke_t	t	n/a
547.6555	0.105	1095311	keystroke_i	i	n/a
547.8655	0.075	1095731	keystroke_o	o	n/a
548.0305	0.09	1096061	keystroke_n	n	n/a
548.135	0.12	1096270	keystroke_a	a	n/a
548.27	0.12	1096540	keystroke_l	l	n/a
549.365	0.0895	1098730	keystroke_Key.enter	Key.enter	n/a
549.4645	8.782	1098929	prompt	n/a	modification shopper wash gasoline\n
550.281	0.089	1100562	keystroke_m	m	n/a
550.4455	0.0745	1100891	keystroke_o	o	n/a
550.521	0.149	1101042	keystroke_d	d	n/a
550.685	0.091	1101370	keystroke_i	i	n/a
550.836	0.0895	1101672	keystroke_f	f	n/a
550.9555	0.0895	1101911	keystroke_i	i	n/a
551.1055	0.105	1102211	keystroke_c	c	n/a
551.3305	0.1045	1102661	keystroke_a	a	n/a
551.54	0.09	1103080	keystroke_t	t	n/a
551.6455	0.0745	1103291	keystroke_i	i	n/a
551.795	0.0755	1103590	keystroke_o	o	n/a
551.961	0.1345	1103922	keystroke_n	n	n/a
552.065	0.1205	1104130	keystroke_Key.space	Key.space	n/a
552.2155	0.1345	1104431	keystroke_s	s	n/a
552.3205	0.0755	1104641	keystroke_h	h	n/a
552.516	0.0745	1105032	keystroke_o	o	n/a
552.74	0.075	1105480	keystroke_p	p	n/a
552.9055	0.0755	1105811	keystroke_p	p	n/a
553.2055	0.21	1106411	keystroke_e	e	n/a
553.3555	0.15	1106711	keystroke_r	r	n/a
553.4755	0.09	1106951	keystroke_Key.space	Key.space	n/a
553.716	0.0895	1107432	keystroke_w	w	n/a
553.9105	0.1195	1107821	keystroke_a	a	n/a
554.1205	0.1205	1108241	keystroke_s	s	n/a
554.21	0.091	1108420	keystroke_h	h	n/a
554.361	0.09	1108722	keystroke_Key.space	Key.space	n/a
554.915	0.0755	1109830	keystroke_g	g	n/a
555.1405	0.165	1110281	keystroke_a	a	n/a
555.3205	0.165	1110641	keystroke_s	s	n/a
555.5305	0.075	1111061	keystroke_h	h	n/a
556.2055	0.06	1112411	keystroke_Key.backspace	Key.backspace	n/a
556.3855	0.075	1112771	keystroke_o	o	n/a
556.7005	0.06	1113401	keystroke_l	l	n/a
556.8955	0.06	1113791	keystroke_i	i	n/a
557.0155	0.1045	1114031	keystroke_n	n	n/a
557.045	0.105	1114090	keystroke_e	e	n/a
558.186	0.0595	1116372	keystroke_Key.enter	Key.enter	n/a
558.2495	11.022	1116499	prompt	n/a	release valves underwear think\n
559.131	0.165	1118262	keystroke_r	r	n/a
559.341	0.12	1118682	keystroke_e	e	n/a
559.475	0.12	1118950	keystroke_l	l	n/a
559.641	0.1045	1119282	keystroke_a	a	n/a
559.8805	0.1655	1119761	keystroke_s	s	n/a
560.016	0.15	1120032	keystroke_e	e	n/a
560.3	0.106	1120600	keystroke_Key.space	Key.space	n/a
560.856	0.0895	1121712	keystroke_v	v	n/a
561.5155	0.045	1123031	keystroke_Key.backspace	Key.backspace	n/a
561.665	0.06	1123330	keystroke_Key.backspace	Key.backspace	n/a
561.8155	0.0445	1123631	keystroke_Key.backspace	Key.backspace	n/a
561.935	0.06	1123870	keystroke_Key.backspace	Key.backspace	n/a
562.1005	0.045	1124201	keystroke_Key.backspace	Key.backspace	n/a
562.2505	0.0295	1124501	keystroke_Key.backspace	Key.backspace	n/a
562.9405	0.03	1125881	keystroke_l	l	n/a
562.955	0.1055	1125910	keystroke_e	e	n/a
563.1355	0.135	1126271	keystroke_a	a	n/a
563.6605	0.18	1127321	keystroke_s	s	n/a
563.8105	0.12	1127621	keystroke_e	e	n/a
563.9455	0.09	1127891	keystroke_Key.space	Key.space	n/a
564.3055	0.1205	1128611	keystroke_v	v	n/a
564.5295	0.136	1129059	keystroke_a	a	n/a
564.6505	0.09	1129301	keystroke_l	l	n/a
564.8305	0.075	1129661	keystroke_a	a	n/a
565.1455	0.075	1130291	keystroke_Key.backspace	Key.backspace	n/a
565.2955	0.135	1130591	keystroke_v	v	n/a
565.4905	0.12	1130981	keystroke_e	e	n/a
566.06	0.12	1132120	keystroke_s	s	n/a
566.255	0.12	1132510	keystroke_Key.space	Key.space	n/a
566.526	0.074	1133052	keystroke_u	u	n/a
566.7055	0.1195	1133411	keystroke_n	n	n/a
566.84	0.15	1133680	keystroke_d	d	n/a
567.005	0.106	1134010	keystroke_e	e	n/a
567.2005	0.075	1134401	keystroke_r	r	n/a
