onset	duration	sample	value	key	prompt_text
15.232	24.932	30464	prompt	n/a	the quick brown fox jumps over a lazy dog\n
27.92	0.076	55840	keystroke_f	f	n/a
29.256	0.0745	58512	keystroke_Key.backspace	Key.backspace	n/a
29.69	0.0755	59380	keystroke_t	t	n/a
29.811	0.1045	59622	keystroke_h	h	n/a
29.9905	0.09	59981	keystroke_e	e	n/a
30.1855	0.0905	60371	keystroke_Key.space	Key.space	n/a
30.6355	0.0605	61271	keystroke_q	q	n/a
30.8305	0.0605	61661	keystroke_u	u	n/a
30.996	0.0895	61992	keystroke_i	i	n/a
31.101	0.074	62202	keystroke_c	c	n/a
31.206	0.12	62412	keystroke_k	k	n/a
31.341	0.105	62682	keystroke_Key.space	Key.space	n/a
31.551	0.06	63102	keystroke_b	b	n/a
31.596	0.075	63192	keystroke_r	r	n/a
32.1805	0.0905	64361	keystroke_w	w	n/a
32.331	0.0585	64662	keystroke_o	o	n/a
33.065	0.046	66130	keystroke_Key.backspace	Key.backspace	n/a
33.17	0.0905	66340	keystroke_Key.backspace	Key.backspace	n/a
33.8915	0.0295	67783	keystroke_o	o	n/a
33.951	0.0895	67902	keystroke_w	w	n/a
34.101	0.105	68202	keystroke_n	n	n/a
34.2205	0.12	68441	keystroke_Key.space	Key.space	n/a
34.4455	0.075	68891	keystroke_f	f	n/a
34.566	0.09	69132	keystroke_o	o	n/a
34.76	0.0905	69520	keystroke_x	x	n/a
34.851	0.104	69702	keystroke_Key.space	Key.space	n/a
35.076	0.06	70152	keystroke_j	j	n/a
35.226	0.09	70452	keystroke_u	u	n/a
35.436	0.0745	70872	keystroke_m	m	n/a
35.6315	0.074	71263	keystroke_p	p	n/a
35.7505	0.0895	71501	keystroke_s	s	n/a
35.8255	0.105	71651	keystroke_Key.space	Key.space	n/a
35.975	0.091	71950	keystroke_o	o	n/a
36.111	0.104	72222	keystroke_v	v	n/a
36.261	0.15	72522	keystroke_e	e	n/a
36.396	0.119	72792	keystroke_r	r	n/a
36.5	0.09	73000	keystroke_Key.space	Key.space	n/a
36.605	0.121	73210	keystroke_a	a	n/a
36.6805	0.12	73361	keystroke_Key.space	Key.space	n/a
36.8755	0.0605	73751	keystroke_a	a	n/a
36.9515	0.089	73903	keystroke_l	l	n/a
37.1005	0.09	74201	keystroke_a	a	n/a
37.64	0.075	75280	keystroke_Key.backspace	Key.backspace	n/a
37.7905	0.0755	75581	keystroke_Key.backspace	Key.backspace	n/a
37.94	0.075	75880	keystroke_Key.backspace	Key.backspace	n/a
38.691	0.0895	77382	keystroke_l	l	n/a
38.8255	0.09	77651	keystroke_a	a	n/a
39.051	0.09	78102	keystroke_z	z	n/a
39.1865	0.0735	78373	keystroke_y	y	n/a
39.32	0.1205	78640	keystroke_Key.space	Key.space	n/a
39.456	0.12	78912	keystroke_d	d	n/a
39.591	0.075	79182	keystroke_o	o	n/a
39.711	0.12	79422	keystroke_g	g	n/a
40.056	0.1045	80112	keystroke_Key.enter	Key.enter	n/a
40.17	4.9875	80340	prompt	n/a	ministers thick girls liquid\n
40.8805	0.1045	81761	keystroke_m	m	n/a
41.015	0.1065	82030	keystroke_i	i	n/a
41.1365	0.09	82273	keystroke_n	n	n/a
41.24	0.0915	82480	keystroke_i	i	n/a
41.436	0.105	82872	keystroke_s	s	n/a
41.616	0.12	83232	keystroke_t	t	n/a
41.751	0.1055	83502	keystroke_e	e	n/a
41.841	0.09	83682	keystroke_r	r	n/a
41.991	0.0905	83982	keystroke_s	s	n/a
42.096	0.104	84192	keystroke_Key.space	Key.space	n/a
42.336	0.09	84672	keystroke_t	t	n/a
42.426	0.135	84852	keystroke_h	h	n/a
42.5305	0.075	85061	keystroke_i	i	n/a
42.6505	0.105	85301	keystroke_c	c	n/a
42.8155	0.091	85631	keystroke_k	k	n/a
42.95	0.0905	85900	keystroke_Key.space	Key.space	n/a
43.1465	0.119	86293	keystroke_g	g	n/a
43.2955	0.091	86591	keystroke_i	i	n/a
43.4155	0.0755	86831	keystroke_r	r	n/a
43.536	0.09	87072	keystroke_l	l	n/a
43.671	0.105	87342	keystroke_s	s	n/a
43.761	0.119	87522	keystroke_Key.space	Key.space	n/a
43.94	0.1205	87880	keystroke_l	l	n/a
44.076	0.135	88152	keystroke_i	i	n/a
44.271	0.165	88542	keystroke_q	q	n/a
44.466	0.105	88932	keystroke_u	u	n/a
44.6905	0.0905	89381	keystroke_i	i	n/a
44.9005	0.09	89801	keystroke_d	d	n/a
45.11	0.045	90220	keystroke_Key.enter	Key.enter	n/a
45.161	14.847	90322	prompt	n/a	physiology untitled binary modify\n
45.8605	0.0895	91721	keystroke_p	p	n/a
46.806	0.075	93612	keystroke_h	h	n/a
46.986	0.0445	93972	keystroke_y	y	n/a
47.106	0.075	94212	keystroke_s	s	n/a
47.331	0.0895	94662	keystroke_i	i	n/a
47.496	0.09	94992	keystroke_c	c	n/a
48.216	0.075	96432	keystroke_Key.backspace	Key.backspace	n/a
48.366	0.075	96732	keystroke_Key.backspace	Key.backspace	n/a
48.501	0.059	97002	keystroke_c	c	n/a
49.175	0.1055	98350	keystroke_Key.backspace	Key.backspace	n/a
50.8415	0.1045	101683	keystroke_i	i	n/a
50.916	0.105	101832	keystroke_o	o	n/a
51.1255	0.075	102251	keystroke_l	l	n/a
51.2755	0.09	102551	keystroke_o	o	n/a
51.531	0.135	103062	keystroke_g	g	n/a
51.711	0.105	103422	keystroke_y	y	n/a
51.951	0.09	103902	keystroke_Key.space	Key.space	n/a
52.536	0.0755	105072	keystroke_u	u	n/a
52.7315	0.1195	105463	keystroke_n	n	n/a
52.881	0.075	105762	keystroke_i	i	n/a
53.091	0.105	106182	keystroke_t	t	n/a
53.466	0.03	106932	keystroke_Key.backspace	Key.backspace	n/a
53.541	0.074	107082	keystroke_Key.backspace	Key.backspace	n/a
53.766	0.135	107532	keystroke_t	t	n/a
53.9465	0.105	107893	keystroke_i	i	n/a
54.066	0.135	108132	keystroke_t	t	n/a
54.3805	0.091	108761	keystroke_l	l	n/a
54.5165	0.119	109033	keystroke_e	e	n/a
54.6815	0.044	109363	keystroke_s	s	n/a
55.1005	0.0755	110201	keystroke_Key.backspace	Key.backspace	n/a
55.206	0.105	110412	keystroke_d	d	n/a
55.371	0.1195	110742	keystroke_Key.space	Key.space	n/a
55.7905	0.1205	111581	keystroke_b	b	n/a
55.9855	0.06	111971	keystroke_i	i	n/a
56.1055	0.105	112211	keystroke_n	n	n/a
56.5105	0.1955	113021	keystroke_a	a	n/a
56.6905	0.1055	113381	keystroke_r	r	n/a
56.901	0.0895	113802	keystroke_y	y	n/a
57.021	0.1195	114042	keystroke_Key.space	Key.space	n/a
57.3205	0.091	114641	keystroke_m	m	n/a
57.486	0.075	114972	keystroke_o	o	n/a
57.6355	0.09	115271	keystroke_d	d	n/a
58.6865	0.0745	117373	keystroke_i	i	n/a
58.866	0.06	117732	keystroke_f	f	n/a
59.0605	0.0595	118121	keystroke_y	y	n/a
59.9005	0.105	119801	keystroke_Key.enter	Key.enter	n/a
60.0125	11.92	120025	prompt	n/a	lodge gene charging biotechnology\n
61.1315	0.044	122263	keystroke_l	l	n/a
61.2805	0.061	122561	keystroke_o	o	n/a
61.3255	0.09	122651	keystroke_d	d	n/a
61.5505	0.076	123101	keystroke_g	g	n/a
61.686	0.075	123372	keystroke_e	e	n/a
61.791	0.105	123582	keystroke_Key.space	Key.space	n/a
62.286	0.09	124572	keystroke_g	g	n/a
62.4065	0.09	124813	keystroke_e	e	n/a
62.556	0.0305	125112	keystroke_b	b	n/a
63.2905	0.0905	126581	keystroke_Key.backspace	Key.backspace	n/a
63.6665	0.015	127333	keystroke_n	n	n/a
63.7555	0.075	127511	keystroke_e	e	n/a
63.9205	0.09	127841	keystroke_Key.space	Key.space	n/a
64.3105	0.09	128621	keystroke_c	c	n/a
64.4305	0.105	128861	keystroke_h	h	n/a
64.6105	0.1355	129221	keystroke_a	a	n/a
64.716	0.09	129432	keystroke_r	r	n/a
65.1665	0.119	130333	keystroke_g	g	n/a
65.3615	0.1945	130723	keystroke_i	i	n/a
65.511	0.1045	131022	keystroke_n	n	n/a
65.6315	0.089	131263	keystroke_g	g	n/a
65.886	0.075	131772	keystroke_Key.space	Key.space	n/a
66.4715	0.089	132943	keystroke_b	b	n/a
66.726	0.18	133452	keystroke_i	i	n/a
66.8605	0.091	133721	keystroke_o	o	n/a
67.1155	0.105	134231	keystroke_t	t	n/a
67.2055	0.121	134411	keystroke_e	e	n/a
67.4765	0.09	134953	keystroke_c	c	n/a
68.271	0.0605	136542	keystroke_h	h	n/a
68.4505	0.076	136901	keystroke_n	n	n/a
68.6455	0.0455	137291	keystroke_o	o	n/a
69.9055	0.076	139811	keystroke_l	l	n/a
70.1455	0.076	140291	keystroke_o	o	n/a
70.281	0.1055	140562	keystroke_g	g	n/a
71.076	0.075	142152	keystroke_y	y	n/a
71.856	0.075	143712	keystroke_Key.enter	Key.enter	n/a
71.936	10.602	143872	prompt	n/a	warehouse appliances hole coal\n
72.831	0.1495	145662	keystroke_w	w	n/a
72.9205	0.135	145841	keystroke_a	a	n/a
73.101	0.165	146202	keystroke_r	r	n/a
73.2355	0.105	146471	keystroke_e	e	n/a
73.3255	0.135	146651	keystroke_h	h	n/a
73.5355	0.15	147071	keystroke_o	o	n/a
73.6115	0.135	147223	keystroke_u	u	n/a
73.7305	0.15	147461	keystroke_s	s	n/a
73.8505	0.106	147701	keystroke_e	e	n/a
76.9585	0.042	153917	keystroke_Key.space	Key.space	n/a
77.571	0.09	155142	keystroke_a	a	n/a
77.7505	0.075	155501	keystroke_p	p	n/a
77.9315	0.045	155863	keystroke_p	p	n/a
78.1405	0.09	156281	keystroke_l	l	n/a
78.486	0.135	156972	keystroke_i	i	n/a
78.696	0.1495	157392	keystroke_a	a	n/a
78.891	0.1505	157782	keystroke_n	n	n/a
79.0715	0.1345	158143	keystroke_c	c	n/a
79.191	0.105	158382	keystroke_e	e	n/a
79.416	0.03	158832	keystroke_Key.space	Key.space	n/a
79.941	0.105	159882	keystroke_h	h	n/a
80.1505	0.2255	160301	keystroke_Key.down	Key.down	n/a
80.2265	0.09	160453	keystroke_o	o	n/a
80.436	0.09	160872	keystroke_l	l	n/a
80.5715	0.0895	161143	keystroke_e	e	n/a
80.706	0.135	161412	keystroke_Key.space	Key.space	n/a
81.4255	0.0755	162851	keystroke_c	c	n/a
81.6665	0.1045	163333	keystroke_o	o	n/a
81.861	0.0745	163722	keystroke_a	a	n/a
82.0715	0.12	164143	keystroke_l	l	n/a
82.4455	0.09	164891	keystroke_Key.enter	Key.enter	n/a
82.5415	10.1265	165083	prompt	n/a	significance spots collective intensive\n
83.2115	0.1045	166423	keystroke_s	s	n/a
83.331	0.1055	166662	keystroke_i	i	n/a
83.4965	0.119	166993	keystroke_g	g	n/a
83.6315	0.09	167263	keystroke_n	n	n/a
83.796	0.0895	167592	keystroke_i	i	n/a
83.946	0.12	167892	keystroke_f	f	n/a
84.066	0.12	168132	keystroke_i	i	n/a
84.2605	0.1355	168521	keystroke_c	c	n/a
84.4265	0.0895	168853	keystroke_a	a	n/a
84.5915	0.09	169183	keystroke_n	n	n/a
84.831	0.1195	169662	keystroke_c	c	n/a
84.936	0.12	169872	keystroke_e	e	n/a
85.146	0.075	170292	keystroke_Key.space	Key.space	n/a
85.956	0.105	171912	keystroke_s	s	n/a
86.1065	0.15	172213	keystroke_p	p	n/a
86.1965	0.1495	172393	keystroke_o	o	n/a
86.7955	0.135	173591	keystroke_t	t	n/a
86.9005	0.1355	173801	keystroke_s	s	n/a
87.096	0.135	174192	keystroke_Key.space	Key.space	n/a
87.861	0.1205	175722	keystroke_c	c	n/a
88.011	0.075	176022	keystroke_o	o	n/a
88.191	0.075	176382	keystroke_l	l	n/a
88.341	0.06	176682	keystroke_l	l	n/a
88.446	0.06	176892	keystroke_e	e	n/a
88.6265	0.089	177253	keystroke_c	c	n/a
88.821	0.0895	177642	keystroke_t	t	n/a
88.926	0.1055	177852	keystroke_i	i	n/a
89.3315	0.149	178663	keystroke_v	v	n/a
89.5265	0.1045	179053	keystroke_e	e	n/a
89.706	0.105	179412	keystroke_Key.space	Key.space	n/a
90.441	0.15	180882	keystroke_i	i	n/a
90.637	0.074	181274	keystroke_n	n	n/a
90.7865	0.1195	181573	keystroke_t	t	n/a
90.921	0.0905	181842	keystroke_e	e	n/a
91.626	0.09	183252	keystroke_n	n	n/a
91.7915	0.09	183583	keystroke_s	s	n/a
92.0165	0.0895	184033	keystroke_i	i	n/a
92.2405	0.12	184481	keystroke_v	v	n/a
92.4055	0.106	184811	keystroke_e	e	n/a
92.5555	0.105	185111	keystroke_Key.enter	Key.enter	n/a
92.673	6.4915	185346	prompt	n/a	adoption accurately apple reprint\n
93.4865	0.1195	186973	keystroke_a	a	n/a
93.621	0.1055	187242	keystroke_d	d	n/a
93.801	0.18	187602	keystroke_o	o	n/a
93.9665	0.1045	187933	keystroke_p	p	n/a
94.131	0.1055	188262	keystroke_t	t	n/a
94.251	0.1655	188502	keystroke_i	i	n/a
94.3865	0.0595	188773	keystroke_o	o	n/a
94.6105	0.09	189221	keystroke_n	n	n/a
94.791	0.0755	189582	keystroke_Key.space	Key.space	n/a
94.956	0.105	189912	keystroke_a	a	n/a
95.181	0.0595	190362	keystroke_c	c	n/a
95.3165	0.09	190633	keystroke_c	c	n/a
95.4365	0.1045	190873	keystroke_u	u	n/a
95.6015	0.135	191203	keystroke_r	r	n/a
95.7065	0.15	191413	keystroke_a	a	n/a
95.8865	0.12	191773	keystroke_t	t	n/a
96.0365	0.1195	192073	keystroke_e	e	n/a
96.2465	0.0895	192493	keystroke_l	l	n/a
96.4865	0.075	192973	keystroke_y	y	n/a
96.6665	0.119	193333	keystroke_Key.space	Key.space	n/a
96.8465	0.075	193693	keystroke_a	a	n/a
96.9825	0.059	193965	keystroke_p	p	n/a
97.0865	0.075	194173	keystroke_p	p	n/a
97.3265	0.06	194653	keystroke_l	l	n/a
97.4315	0.075	194863	keystroke_e	e	n/a
97.5215	0.12	195043	keystroke_Key.space	Key.space	n/a
97.9715	0.1355	195943	keystroke_r	r	n/a
98.0615	0.105	196123	keystroke_e	e	n/a
98.1965	0.075	196393	keystroke_p	p	n/a
98.3615	0.119	196723	keystroke_r	r	n/a
98.556	0.1505	197112	keystroke_i	i	n/a
98.7665	0.105	197533	keystroke_n	n	n/a
98.886	0.105	197772	keystroke_t	t	n/a
99.0815	0.074	198163	keystroke_Key.enter	Key.enter	n/a
99.171	9.589	198342	prompt	n/a	governance profile jack silver\n
100.026	0.12	200052	keystroke_f	f	n/a
100.2065	0.0895	200413	keystroke_o	o	n/a
100.6565	0.09	201313	keystroke_Key.backspace	Key.backspace	n/a
100.866	0.06	201732	keystroke_Key.backspace	Key.backspace	n/a
101.3915	0.075	202783	keystroke_g	g	n/a
101.6165	0.0745	203233	keystroke_o	o	n/a
101.901	0.106	203802	keystroke_v	v	n/a
102.111	0.1045	204222	keystroke_e	e	n/a
102.201	0.1045	204402	keystroke_r	r	n/a
102.5465	0.0905	205093	keystroke_n	n	n/a
102.9815	0.105	205963	keystroke_a	a	n/a
103.3115	0.0895	206623	keystroke_n	n	n/a
103.4465	0.12	206893	keystroke_c	c	n/a
103.5515	0.105	207103	keystroke_e	e	n/a
103.7155	0.121	207431	keystroke_Key.space	Key.space	n/a
104.0315	0.075	208063	keystroke_a	a	n/a
104.3465	0.0745	208693	keystroke_Key.backspace	Key.backspace	n/a
104.736	0.1045	209472	keystroke_p	p	n/a
104.916	0.0745	209832	keystroke_r	r	n/a
105.0515	0.0895	210103	keystroke_o	o	n/a
105.3815	0.15	210763	keystroke_f	f	n/a
105.7115	0.1195	211423	keystroke_i	i	n/a
106.041	0.075	212082	keystroke_l	l	n/a
106.191	0.075	212382	keystroke_e	e	n/a
106.371	0.135	212742	keystroke_Key.space	Key.space	n/a
106.9265	0.105	213853	keystroke_j	j	n/a
107.0465	0.1195	214093	keystroke_a	a	n/a
107.226	0.135	214452	keystroke_c	c	n/a
107.3915	0.135	214783	keystroke_k	k	n/a
107.4965	0.105	214993	keystroke_Key.space	Key.space	n/a
107.6165	0.0905	215233	keystroke_s	s	n/a
107.8115	0.0745	215623	keystroke_i	i	n/a
108.0365	0.0895	216073	keystroke_l	l	n/a
108.186	0.1045	216372	keystroke_v	v	n/a
108.337	0.1645	216674	keystroke_e	e	n/a
108.4865	0.09	216973	keystroke_r	r	n/a
108.6665	0.0895	217333	keystroke_Key.enter	Key.enter	n/a
108.772	6.691	217544	prompt	n/a	detailed pads italy hollywood\n
109.4315	0.1045	218863	keystroke_d	d	n/a
109.6115	0.134	219223	keystroke_e	e	n/a
109.881	0.1205	219762	keystroke_t	t	n/a
110.047	0.1045	220094	keystroke_a	a	n/a
110.227	0.09	220454	keystroke_i	i	n/a
110.4365	0.06	220873	keystroke_l	l	n/a
110.5415	0.0755	221083	keystroke_e	e	n/a
110.7065	0.09	221413	keystroke_d	d	n/a
110.7665	0.12	221533	keystroke_Key.space	Key.space	n/a
110.962	0.0745	221924	keystroke_p	p	n/a
111.0815	0.12	222163	keystroke_a	a	n/a
111.2165	0.1195	222433	keystroke_d	d	n/a
111.3665	0.1045	222733	keystroke_s	s	n/a
111.501	0.105	223002	keystroke_Key.space	Key.space	n/a
111.711	0.0905	223422	keystroke_i	i	n/a
112.0115	0.09	224023	keystroke_t	t	n/a
112.1615	0.09	224323	keystroke_a	a	n/a
112.461	0.09	224922	keystroke_l	l	n/a
112.702	0.0745	225404	keystroke_y	y	n/a
112.8815	0.105	225763	keystroke_Key.space	Key.space	n/a
113.2265	0.075	226453	keystroke_h	h	n/a
113.421	0.0605	226842	keystroke_o	o	n/a
113.6165	0.075	227233	keystroke_l	l	n/a
113.7515	0.0755	227503	keystroke_l	l	n/a
113.9765	0.0745	227953	keystroke_y	y	n/a
114.7715	0.06	229543	keystroke_w	w	n/a
114.967	0.059	229934	keystroke_o	o	n/a
115.1015	0.0755	230203	keystroke_o	o	n/a
115.2065	0.1045	230413	keystroke_d	d	n/a
115.431	0.03	230862	keystroke_Key.enter	Key.enter	n/a
115.467	9.9125	230934	prompt	n/a	vegetation homes clearance menu\n
116.5565	0.075	233113	keystroke_v	v	n/a
116.7365	0.1645	233473	keystroke_e	e	n/a
116.916	0.1505	233832	keystroke_r	r	n/a
117.4565	0.09	234913	keystroke_Key.backspace	Key.backspace	n/a
117.5605	0.09	235121	keystroke_g	g	n/a
117.7565	0.164	235513	keystroke_e	e	n/a
118.417	0.059	236834	keystroke_t	t	n/a
118.551	0.1355	237102	keystroke_a	a	n/a
118.671	0.1055	237342	keystroke_t	t	n/a
118.7915	0.1505	237583	keystroke_i	i	n/a
118.911	0.076	237822	keystroke_o	o	n/a
119.151	0.1055	238302	keystroke_n	n	n/a
119.3465	0.0895	238693	keystroke_Key.space	Key.space	n/a
119.616	0.09	239232	keystroke_h	h	n/a
119.796	0.075	239592	keystroke_o	o	n/a
119.9765	0.104	239953	keystroke_m	m	n/a
120.1265	0.12	240253	keystroke_e	e	n/a
120.2315	0.1195	240463	keystroke_s	s	n/a
120.3365	0.12	240673	keystroke_Key.space	Key.space	n/a
120.5455	0.121	241091	keystroke_c	c	n/a
120.6965	0.0745	241393	keystroke_l	l	n/a
120.8315	0.135	241663	keystroke_e	e	n/a
120.9515	0.165	241903	keystroke_a	a	n/a
121.1165	0.089	242233	keystroke_r	r	n/a
121.3855	0.091	242771	keystroke_n	n	n/a
121.4915	0.1045	242983	keystroke_a	a	n/a
121.732	0.135	243464	keystroke_c	c	n/a
121.852	0.1045	243704	keystroke_e	e	n/a
122.0165	0.1045	244033	keystroke_Key.space	Key.space	n/a
122.631	0.06	245262	keystroke_Key.backspace	Key.backspace	n/a
122.796	0.0605	245592	keystroke_Key.backspace	Key.backspace	n/a
122.946	0.06	245892	keystroke_Key.backspace	Key.backspace	n/a
123.1115	0.0445	246223	keystroke_Key.backspace	Key.backspace	n/a
123.3505	0.061	246701	keystroke_Key.backspace	Key.backspace	n/a
123.5765	0.12	247153	keystroke_a	a	n/a
123.7855	0.106	247571	keystroke_n	n	n/a
123.9505	0.106	247901	keystroke_c	c	n/a
124.0405	0.105	248081	keystroke_e	e	n/a
124.2055	0.106	248411	keystroke_Key.space	Key.space	n/a
124.626	0.0755	249252	keystroke_m	m	n/a
124.746	0.0895	249492	keystroke_e	e	n/a
124.8655	0.091	249731	keystroke_n	n	n/a
125.076	0.0905	250152	keystroke_u	u	n/a
125.3155	0.06	250631	keystroke_Key.enter	Key.enter	n/a
125.3835	7.1645	250767	prompt	n/a	down lower exclude payable\n
125.9915	0.12	251983	keystroke_d	d	n/a
126.097	0.09	252194	keystroke_o	o	n/a
126.262	0.0735	252524	keystroke_w	w	n/a
126.3955	0.106	252791	keystroke_n	n	n/a
126.531	0.1205	253062	keystroke_Key.space	Key.space	n/a
126.696	0.0595	253392	keystroke_l	l	n/a
126.8615	0.0895	253723	keystroke_o	o	n/a
126.9825	0.0885	253965	keystroke_w	w	n/a
127.072	0.104	254144	keystroke_e	e	n/a
127.266	0.09	254532	keystroke_r	r	n/a
127.401	0.105	254802	keystroke_Key.space	Key.space	n/a
127.7465	0.075	255493	keystroke_e	e	n/a
127.9575	0.1195	255915	keystroke_x	x	n/a
128.1505	0.091	256301	keystroke_c	c	n/a
128.3765	0.075	256753	keystroke_l	l	n/a
128.7215	0.0905	257443	keystroke_d	d	n/a
128.872	0.1045	257744	keystroke_u	u	n/a
129.2915	0.06	258583	keystroke_Key.backspace	Key.backspace	n/a
129.4265	0.075	258853	keystroke_Key.backspace	Key.backspace	n/a
129.667	0.0745	259334	keystroke_u	u	n/a
129.7565	0.1195	259513	keystroke_d	d	n/a
129.832	0.104	259664	keystroke_e	e	n/a
130.071	0.09	260142	keystroke_Key.space	Key.space	n/a
130.702	0.1495	261404	keystroke_p	p	n/a
130.8665	0.045	261733	keystroke_a	a	n/a
130.9715	0.03	261943	keystroke_y	y	n/a
131.106	0.045	262212	keystroke_a	a	n/a
131.452	0.24	262904	keystroke_b	b	n/a
131.9765	0.075	263953	keystroke_l	l	n/a
132.202	0.044	264404	keystroke_e	e	n/a
132.4415	0.105	264883	keystroke_Key.enter	Key.enter	n/a
132.552	9.161	265104	prompt	n/a	application article compliance intervention\n
133.132	0.09	266264	keystroke_a	a	n/a
133.2505	0.061	266501	keystroke_p	p	n/a
133.3715	0.0745	266743	keystroke_p	p	n/a
133.596	0.091	267192	keystroke_l	l	n/a
133.807	0.089	267614	keystroke_i	i	n/a
133.927	0.104	267854	keystroke_c	c	n/a
134.0775	0.075	268155	keystroke_a	a	n/a
134.2115	0.09	268423	keystroke_t	t	n/a
134.3315	0.1345	268663	keystroke_i	i	n/a
134.436	0.06	268872	keystroke_o	o	n/a
134.646	0.0905	269292	keystroke_n	n	n/a
134.766	0.1055	269532	keystroke_Key.space	Key.space	n/a
135.0215	0.1495	270043	keystroke_a	a	n/a
135.156	0.1205	270312	keystroke_d	d	n/a
135.591	0.0605	271182	keystroke_Key.backspace	Key.backspace	n/a
135.6815	0.09	271363	keystroke_r	r	n/a
135.832	0.1045	271664	keystroke_t	t	n/a
135.952	0.0895	271904	keystroke_i	i	n/a
136.072	0.089	272144	keystroke_c	c	n/a
136.251	0.075	272502	keystroke_l	l	n/a
136.357	0.09	272714	keystroke_e	e	n/a
136.5065	0.105	273013	keystroke_Key.space	Key.space	n/a
136.9415	0.09	273883	keystroke_c	c	n/a
137.076	0.1205	274152	keystroke_o	o	n/a
137.2415	0.105	274483	keystroke_m	m	n/a
137.541	0.03	275082	keystroke_p	p	n/a
137.736	0.0755	275472	keystroke_l	l	n/a
138.021	0.0755	276042	keystroke_i	i	n/a
138.247	0.105	276494	keystroke_a	a	n/a
138.517	0.0745	277034	keystroke_n	n	n/a
138.681	0.076	277362	keystroke_c	c	n/a
138.786	0.106	277572	keystroke_e	e	n/a
138.997	0.1045	277994	keystroke_Key.space	Key.space	n/a
139.641	0.1805	279282	keystroke_i	i	n/a
139.8355	0.136	279671	keystroke_n	n	n/a
140.0765	0.12	280153	keystroke_t	t	n/a
140.2115	0.135	280423	keystroke_e	e	n/a
140.3165	0.0905	280633	keystroke_r	r	n/a
140.5415	0.105	281083	keystroke_v	v	n/a
140.782	0.1035	281564	keystroke_e	e	n/a
140.902	0.09	281804	keystroke_n	n	n/a
141.021	0.09	282042	keystroke_t	t	n/a
141.1565	0.15	282313	keystroke_i	i	n/a
141.261	0.076	282522	keystroke_o	o	n/a
141.457	0.089	282914	keystroke_n	n	n/a
141.636	0.0755	283272	keystroke_Key.enter	Key.enter	n/a
141.718	11.56	283436	prompt	n/a	agencies oldest aggregate programmes\n
142.267	0.1045	284534	keystroke_a	a	n/a
142.5065	0.1045	285013	keystroke_g	g	n/a
142.657	0.09	285314	keystroke_e	e	n/a
142.882	0.104	285764	keystroke_n	n	n/a
143.2715	0.105	286543	keystroke_c	c	n/a
143.4665	0.0745	286933	keystroke_i	i	n/a
143.5865	0.075	287173	keystroke_e	e	n/a
143.9915	0.0745	287983	keystroke_s	s	n/a
144.1415	0.09	288283	keystroke_Key.space	Key.space	n/a
144.756	0.075	289512	keystroke_o	o	n/a
144.9515	0.0745	289903	keystroke_l	l	n/a
145.041	0.0895	290082	keystroke_d	d	n/a
145.2365	0.0895	290473	keystroke_e	e	n/a
145.431	0.106	290862	keystroke_s	s	n/a
145.6115	0.0745	291223	keystroke_t	t	n/a
145.7905	0.076	291581	keystroke_Key.space	Key.space	n/a
146.2715	0.0905	292543	keystroke_a	a	n/a
146.4665	0.09	292933	keystroke_g	g	n/a
146.856	0.09	293712	keystroke_g	g	n/a
147.1715	0.09	294343	keystroke_r	r	n/a
147.397	0.09	294794	keystroke_e	e	n/a
147.712	0.0745	295424	keystroke_f	f	n/a
148.642	0.0745	297284	keystroke_Key.backspace	Key.backspace	n/a
148.762	0.1195	297524	keystroke_g	g	n/a
148.9715	0.12	297943	keystroke_a	a	n/a
149.241	0.1205	298482	keystroke_t	t	n/a
149.377	0.104	298754	keystroke_e	e	n/a
149.616	0.09	299232	keystroke_Key.space	Key.space	n/a
150.697	0.0595	301394	keystroke_p	p	n/a
150.816	0.105	301632	keystroke_r	r	n/a
151.011	0.1195	302022	keystroke_o	o	n/a
151.162	0.0595	302324	keystroke_g	g	n/a
151.3415	0.1205	302683	keystroke_r	r	n/a
151.447	0.119	302894	keystroke_a	a	n/a
152.0015	0.075	304003	keystroke_m	m	n/a
152.151	0.091	304302	keystroke_m	m	n/a
152.511	0.0905	305022	keystroke_e	e	n/a
152.751	0.0755	305502	keystroke_s	s	n/a
153.171	0.1055	306342	keystroke_Key.enter	Key.enter	n/a
153.283	10.93	306566	prompt	n/a	weren't built postings guarantees\n
154.2215	0.15	308443	keystroke_w	w	n/a
154.3565	0.12	308713	keystroke_e	e	n/a
154.582	0.0595	309164	keystroke_r	r	n/a
154.732	0.0745	309464	keystroke_e	e	n/a
154.896	0.0905	309792	keystroke_n	n	n/a
155.1515	0.0895	310303	keystroke_'	'	n/a
155.3465	0.1205	310693	keystroke_t	t	n/a
155.496	0.1205	310992	keystroke_Key.space	Key.space	n/a
155.7815	0.105	311563	keystroke_b	b	n/a
156.0215	0.105	312043	keystroke_u	u	n/a
156.2015	0.1055	312403	keystroke_i	i	n/a
156.4415	0.06	312883	keystroke_l	l	n/a
156.5615	0.1195	313123	keystroke_t	t	n/a
156.696	0.075	313392	keystroke_Key.space	Key.space	n/a
156.8765	0.06	313753	keystroke_p	p	n/a
157.0265	0.0745	314053	keystroke_r	r	n/a
157.207	0.105	314414	keystroke_o	o	n/a
157.476	0.0895	314952	keystroke_s	s	n/a
157.866	0.0755	315732	keystroke_Key.backspace	Key.backspace	n/a
158.031	0.06	316062	keystroke_Key.backspace	Key.backspace	n/a
158.1815	0.06	316363	keystroke_Key.backspace	Key.backspace	n/a
158.4215	0.105	316843	keystroke_o	o	n/a
158.5715	0.075	317143	keystroke_s	s	n/a
158.7665	0.0895	317533	keystroke_t	t	n/a
158.9465	0.15	317893	keystroke_i	i	n/a
159.127	0.1345	318254	keystroke_n	n	n/a
159.2915	0.1055	318583	keystroke_g	g	n/a
159.4865	0.0895	318973	keystroke_Key.space	Key.space	n/a
159.8615	0.075	319723	keystroke_Key.backspace	Key.backspace	n/a
160.0115	0.075	320023	keystroke_s	s	n/a
160.1615	0.104	320323	keystroke_Key.space	Key.space	n/a
160.851	0.1505	321702	keystroke_g	g	n/a
160.986	0.1505	321972	keystroke_u	u	n/a
161.196	0.151	322392	keystroke_a	a	n/a
161.9915	0.09	323983	keystroke_r	r	n/a
162.352	0.12	324704	keystroke_n	n	n/a
162.786	0.075	325572	keystroke_Key.backspace	Key.backspace	n/a
162.922	0.1045	325844	keystroke_a	a	n/a
163.161	0.105	326322	keystroke_n	n	n/a
163.326	0.12	326652	keystroke_t	t	n/a
163.491	0.121	326982	keystroke_e	e	n/a
163.6565	0.1195	327313	keystroke_e	e	n/a
163.9265	0.0745	327853	keystroke_s	s	n/a
164.106	0.105	328212	keystroke_Key.enter	Key.enter	n/a
164.217	7.4065	328434	prompt	n/a	critical applicants pete prophet\n
164.888	0.089	329776	keystroke_c	c	n/a
165.0815	0.075	330163	keystroke_r	r	n/a
165.2015	0.12	330403	keystroke_i	i	n/a
165.3365	0.06	330673	keystroke_t	t	n/a
165.427	0.09	330854	keystroke_i	i	n/a
165.622	0.1195	331244	keystroke_c	c	n/a
165.8615	0.09	331723	keystroke_a	a	n/a
166.027	0.0895	332054	keystroke_l	l	n/a
166.1765	0.105	332353	keystroke_Key.space	Key.space	n/a
166.387	0.09	332774	keystroke_a	a	n/a
166.5665	0.0745	333133	keystroke_p	p	n/a
166.7165	0.0605	333433	keystroke_p	p	n/a
166.9115	0.075	333823	keystroke_l	l	n/a
167.1065	0.09	334213	keystroke_i	i	n/a
167.226	0.106	334452	keystroke_c	c	n/a
167.3915	0.0905	334783	keystroke_a	a	n/a
167.6015	0.09	335203	keystroke_n	n	n/a
167.722	0.09	335444	keystroke_a	a	n/a
168.1565	0.045	336313	keystroke_Key.backspace	Key.backspace	n/a
168.442	0.0895	336884	keystroke_t	t	n/a
168.5915	0.1055	337183	keystroke_s	s	n/a
168.8165	0.09	337633	keystroke_Key.space	Key.space	n/a
169.491	0.0755	338982	keystroke_p	p	n/a
169.642	0.104	339284	keystroke_e	e	n/a
169.762	0.1345	339524	keystroke_t	t	n/a
169.8815	0.0905	339763	keystroke_e	e	n/a
170.0015	0.105	340003	keystroke_Key.space	Key.space	n/a
170.2715	0.0455	340543	keystroke_p	p	n/a
170.482	0.0745	340964	keystroke_r	r	n/a
170.6165	0.09	341233	keystroke_o	o	n/a
170.8265	0.075	341653	keystroke_p	p	n/a
171.0515	0.075	342103	keystroke_h	h	n/a
171.2615	0.165	342523	keystroke_e	e	n/a
171.412	0.074	342824	keystroke_t	t	n/a
171.531	0.0905	343062	keystroke_Key.enter	Key.enter	n/a
171.629	8.274	343258	prompt	n/a	increasingly civic rehab surprise\n
172.1915	0.165	344383	keystroke_i	i	n/a
172.341	0.09	344682	keystroke_n	n	n/a
172.446	0.076	344892	keystroke_c	c	n/a
172.672	0.0595	345344	keystroke_r	r	n/a
172.8215	0.12	345643	keystroke_e	e	n/a
172.9565	0.1655	345913	keystroke_a	a	n/a
173.092	0.12	346184	keystroke_s	s	n/a
173.152	0.1345	346304	keystroke_i	i	n/a
173.3015	0.0895	346603	keystroke_n	n	n/a
173.407	0.0895	346814	keystroke_g	g	n/a
173.6015	0.09	347203	keystroke_l	l	n/a
173.9015	0.0605	347803	keystroke_y	y	n/a
174.1415	0.0745	348283	keystroke_Key.space	Key.space	n/a
174.937	0.105	349874	keystroke_c	c	n/a
175.087	0.09	350174	keystroke_i	i	n/a
175.221	0.0755	350442	keystroke_v	v	n/a
175.326	0.0905	350652	keystroke_i	i	n/a
175.761	0.075	351522	keystroke_c	c	n/a
175.986	0.09	351972	keystroke_Key.space	Key.space	n/a
176.5865	0.12	353173	keystroke_r	r	n/a
176.6765	0.0755	353353	keystroke_e	e	n/a
176.811	0.106	353622	keystroke_h	h	n/a
176.962	0.105	353924	keystroke_a	a	n/a
177.0965	0.105	354193	keystroke_b	b	n/a
177.3065	0.09	354613	keystroke_Key.space	Key.space	n/a
177.9515	0.105	355903	keystroke_s	s	n/a
178.0565	0.09	356113	keystroke_u	u	n/a
178.1915	0.06	356383	keystroke_r	r	n/a
178.6565	0.0445	357313	keystroke_p	p	n/a
178.9865	0.075	357973	keystroke_r	r	n/a
179.2565	0.075	358513	keystroke_i	i	n/a
179.3775	0.074	358755	keystroke_s	s	n/a
179.6765	0.075	359353	keystroke_e	e	n/a
179.8415	0.06	359683	keystroke_Key.enter	Key.enter	n/a
179.9075	7.256	359815	prompt	n/a	differences meaning skilled exist\n
180.6665	0.1045	361333	keystroke_d	d	n/a
180.787	0.075	361574	keystroke_i	i	n/a
180.952	0.0445	361904	keystroke_f	f	n/a
181.072	0.0445	362144	keystroke_f	f	n/a
181.2665	0.1795	362533	keystroke_e	e	n/a
181.2815	0.0295	362563	keystroke_r	r	n/a
182.2865	0.0755	364573	keystroke_e	e	n/a
182.437	0.105	364874	keystroke_n	n	n/a
182.8115	0.09	365623	keystroke_c	c	n/a
182.932	0.1045	365864	keystroke_e	e	n/a
183.202	0.0895	366404	keystroke_s	s	n/a
183.3665	0.1045	366733	keystroke_Key.space	Key.space	n/a
183.7715	0.105	367543	keystroke_m	m	n/a
183.9065	0.12	367813	keystroke_e	e	n/a
183.997	0.135	367994	keystroke_a	a	n/a
184.117	0.0895	368234	keystroke_n	n	n/a
184.2515	0.1805	368503	keystroke_i	i	n/a
184.3865	0.1055	368773	keystroke_n	n	n/a
184.506	0.09	369012	keystroke_g	g	n/a
184.626	0.1055	369252	keystroke_Key.space	Key.space	n/a
184.9265	0.075	369853	keystroke_s	s	n/a
185.122	0.075	370244	keystroke_k	k	n/a
185.287	0.06	370574	keystroke_i	i	n/a
185.4815	0.06	370963	keystroke_l	l	n/a
185.602	0.075	371204	keystroke_l	l	n/a
185.692	0.075	371384	keystroke_e	e	n/a
185.871	0.075	371742	keystroke_d	d	n/a
185.9615	0.105	371923	keystroke_Key.space	Key.space	n/a
186.0965	0.075	372193	keystroke_e	e	n/a
186.3215	0.105	372643	keystroke_x	x	n/a
186.4865	0.09	372973	keystroke_i	i	n/a
186.621	0.1055	373242	keystroke_s	s	n/a
186.8465	0.0595	373693	keystroke_t	t	n/a
187.0715	0.0905	374143	keystroke_Key.enter	Key.enter	n/a
187.1765	6.7815	374353	prompt	n/a	notes generate hybrid files\n
187.732	0.0745	375464	keystroke_n	n	n/a
187.911	0.061	375822	keystroke_o	o	n/a
188.0165	0.1055	376033	keystroke_t	t	n/a
188.0615	0.1055	376123	keystroke_e	e	n/a
188.347	0.12	376694	keystroke_s	s	n/a
188.6165	0.075	377233	keystroke_Key.space	Key.space	n/a
189.2465	0.075	378493	keystroke_g	g	n/a
189.3815	0.0755	378763	keystroke_e	e	n/a
189.487	0.0895	378974	keystroke_n	n	n/a
189.6065	0.15	379213	keystroke_e	e	n/a
189.7415	0.12	379483	keystroke_r	r	n/a
189.8915	0.0905	379783	keystroke_a	a	n/a
190.1765	0.135	380353	keystroke_t	t	n/a
190.2965	0.1055	380593	keystroke_e	e	n/a
190.4615	0.105	380923	keystroke_Key.space	Key.space	n/a
190.8365	0.0755	381673	keystroke_h	h	n/a
191.031	0.0755	382062	keystroke_y	y	n/a
191.542	0.075	383084	keystroke_b	b	n/a
191.692	0.1045	383384	keystroke_r	r	n/a
191.8865	0.075	383773	keystroke_i	i	n/a
192.0215	0.09	384043	keystroke_d	d	n/a
192.1715	0.09	384343	keystroke_Key.space	Key.space	n/a
193.0715	0.09	386143	keystroke_f	f	n/a
193.222	0.0895	386444	keystroke_i	i	n/a
193.4315	0.09	386863	keystroke_l	l	n/a
193.5815	0.09	387163	keystroke_e	e	n/a
193.717	0.0895	387434	keystroke_s	s	n/a
193.866	0.0905	387732	keystroke_Key.enter	Key.enter	n/a
193.9625	4.9605	387925	prompt	n/a	cash continue nursery ties\n
194.572	0.089	389144	keystroke_c	c	n/a
194.7815	0.06	389563	keystroke_a	a	n/a
194.8265	0.12	389653	keystroke_s	s	n/a
194.9915	0.09	389983	keystroke_h	h	n/a
195.1715	0.0745	390343	keystroke_Key.space	Key.space	n/a
195.2615	0.0905	390523	keystroke_c	c	n/a
195.3815	0.075	390763	keystroke_o	o	n/a
195.5625	0.089	391125	keystroke_n	n	n/a
195.6365	0.09	391273	keystroke_t	t	n/a
195.7415	0.1055	391483	keystroke_i	i	n/a
195.8765	0.1195	391753	keystroke_n	n	n/a
196.0115	0.1045	392023	keystroke_u	u	n/a
196.161	0.061	392322	keystroke_e	e	n/a
196.311	0.09	392622	keystroke_Key.space	Key.space	n/a
196.8365	0.0605	393673	keystroke_n	n	n/a
197.0165	0.075	394033	keystroke_u	u	n/a
197.1065	0.075	394213	keystroke_r	r	n/a
197.272	0.15	394544	keystroke_s	s	n/a
197.407	0.104	394814	keystroke_e	e	n/a
197.602	0.0895	395204	keystroke_r	r	n/a
197.7665	0.075	395533	keystroke_y	y	n/a
197.9165	0.105	395833	keystroke_Key.space	Key.space	n/a
198.2465	0.09	396493	keystroke_t	t	n/a
198.3965	0.0905	396793	keystroke_i	i	n/a
198.5915	0.075	397183	keystroke_e	e	n/a
198.7115	0.105	397423	keystroke_s	s	n/a
198.847	0.0745	397694	keystroke_Key.enter	Key.enter	n/a
198.9285	7.81	397857	prompt	n/a	directed grove says forward\n
199.5965	0.0755	399193	keystroke_d	d	n/a
199.7475	0.074	399495	keystroke_i	i	n/a
199.867	0.0745	399734	keystroke_r	r	n/a
200.0165	0.1055	400033	keystroke_e	e	n/a
200.272	0.03	400544	keystroke_c	c	n/a
200.617	0.0595	401234	keystroke_e	e	n/a
201.277	0.0745	402554	keystroke_Key.backspace	Key.backspace	n/a
201.382	0.105	402764	keystroke_t	t	n/a
201.472	0.089	402944	keystroke_e	e	n/a
201.6665	0.0905	403333	keystroke_d	d	n/a
201.816	0.12	403632	keystroke_Key.space	Key.space	n/a
202.281	0.075	404562	keystroke_g	g	n/a
202.7015	0.09	405403	keystroke_r	r	n/a
202.9865	0.09	405973	keystroke_o	o	n/a
203.437	0.089	406874	keystroke_v	v	n/a
203.6465	0.06	407293	keystroke_e	e	n/a
203.857	0.105	407714	keystroke_Key.space	Key.space	n/a
204.216	0.0905	408432	keystroke_s	s	n/a
204.3515	0.1205	408703	keystroke_a	a	n/a
204.562	0.0745	409124	keystroke_y	y	n/a
204.712	0.0895	409424	keystroke_s	s	n/a
204.906	0.1055	409812	keystroke_Key.space	Key.space	n/a
205.4615	0.15	410923	keystroke_f	f	n/a
205.627	0.0745	411254	keystroke_o	o	n/a
205.777	0.1045	411554	keystroke_r	r	n/a
206.032	0.135	412064	keystroke_w	w	n/a
206.182	0.1045	412364	keystroke_a	a	n/a
206.3015	0.09	412603	keystroke_r	r	n/a
206.5115	0.09	413023	keystroke_d	d	n/a
206.6615	0.075	413323	keystroke_Key.enter	Key.enter	n/a
206.743	8.336	413486	prompt	n/a	optional endangered mexican belong\n
207.5615	0.195	415123	keystroke_o	o	n/a
207.7415	0.045	415483	keystroke_p	p	n/a
207.832	0.1195	415664	keystroke_t	t	n/a
207.982	0.1345	415964	keystroke_i	i	n/a
208.087	0.059	416174	keystroke_o	o	n/a
208.282	0.09	416564	keystroke_n	n	n/a
208.402	0.105	416804	keystroke_a	a	n/a
208.567	0.075	417134	keystroke_l	l	n/a
208.702	0.105	417404	keystroke_Key.space	Key.space	n/a
209.047	0.0905	418094	keystroke_e	e	n/a
209.227	0.089	418454	keystroke_n	n	n/a
210.187	0.105	420374	keystroke_d	d	n/a
210.352	0.12	420704	keystroke_a	a	n/a
211.432	0.0895	422864	keystroke_n	n	n/a
211.657	0.1345	423314	keystroke_g	g	n/a
212.0165	0.1055	424033	keystroke_e	e	n/a
212.151	0.1665	424302	keystroke_r	r	n/a
212.302	0.075	424604	keystroke_e	e	n/a
212.5415	0.0605	425083	keystroke_d	d	n/a
212.6465	0.1055	425293	keystroke_Key.space	Key.space	n/a
212.8265	0.105	425653	keystroke_m	m	n/a
212.947	0.075	425894	keystroke_e	e	n/a
213.157	0.09	426314	keystroke_x	x	n/a
213.292	0.0895	426584	keystroke_i	i	n/a
213.4115	0.1195	426823	keystroke_c	c	n/a
213.622	0.075	427244	keystroke_a	a	n/a
213.741	0.1055	427482	keystroke_n	n	n/a
213.8615	0.075	427723	keystroke_Key.space	Key.space	n/a
214.072	0.09	428144	keystroke_b	b	n/a
214.192	0.09	428384	keystroke_e	e	n/a
214.372	0.06	428744	keystroke_l	l	n/a
214.536	0.06	429072	keystroke_o	o	n/a
214.7175	0.0885	429435	keystroke_n	n	n/a
214.836	0.075	429672	keystroke_g	g	n/a
214.987	0.09	429974	keystroke_Key.enter	Key.enter	n/a
215.0845	8.8435	430169	prompt	n/a	influences expressed releases groups\n
215.901	0.046	431802	keystroke_i	i	n/a
216.277	0.074	432554	keystroke_n	n	n/a
216.622	0.075	433244	keystroke_f	f	n/a
217.0725	0.1195	434145	keystroke_l	l	n/a
217.372	0.015	434744	keystroke_u	u	n/a
217.417	0.075	434834	keystroke_e	e	n/a
217.5515	0.105	435103	keystroke_n	n	n/a
217.6715	0.105	435343	keystroke_c	c	n/a
217.807	0.0895	435614	keystroke_e	e	n/a
218.047	0.0895	436094	keystroke_s	s	n/a
218.167	0.105	436334	keystroke_Key.space	Key.space	n/a
218.392	0.075	436784	keystroke_e	e	n/a
218.572	0.105	437144	keystroke_x	x	n/a
218.722	0.075	437444	keystroke_p	p	n/a
218.827	0.09	437654	keystroke_r	r	n/a
219.007	0.0745	438014	keystroke_e	e	n/a
219.187	0.09	438374	keystroke_s	s	n/a
219.337	0.105	438674	keystroke_s	s	n/a
219.547	0.0595	439094	keystroke_e	e	n/a
219.7115	0.0895	439423	keystroke_d	d	n/a
219.846	0.09	439692	keystroke_Key.space	Key.space	n/a
220.222	0.075	440444	keystroke_r	r	n/a
220.3715	0.09	440743	keystroke_e	e	n/a
220.5215	0.0755	441043	keystroke_l	l	n/a
220.627	0.135	441254	keystroke_e	e	n/a
220.777	0.195	441554	keystroke_a	a	n/a
220.942	0.119	441884	keystroke_s	s	n/a
221.092	0.12	442184	keystroke_e	e	n/a
221.302	0.105	442604	keystroke_s	s	n/a
221.557	0.0745	443114	keystroke_Key.space	Key.space	n/a
222.2465	0.0305	444493	keystroke_f	f	n/a
222.6665	0.0755	445333	keystroke_Key.backspace	Key.backspace	n/a
222.7425	0.089	445485	keystroke_g	g	n/a
222.9515	0.0755	445903	keystroke_r	r	n/a
223.1315	0.1355	446263	keystroke_o	o	n/a
223.237	0.1195	446474	keystroke_u	u	n/a
223.447	0.0745	446894	keystroke_p	p	n/a
223.6265	0.0755	447253	keystroke_s	s	n/a
223.852	0.074	447704	keystroke_Key.enter	Key.enter	n/a
223.933	7.6005	447866	prompt	n/a	duck query regulatory mechanism\n
224.4965	0.075	448993	keystroke_d	d	n/a
224.6025	0.074	449205	keystroke_u	u	n/a
224.737	0.1045	449474	keystroke_c	c	n/a
224.8715	0.105	449743	keystroke_k	k	n/a
224.9915	0.1055	449983	keystroke_Key.space	Key.space	n/a
225.2165	0.09	450433	keystroke_q	q	n/a
225.3215	0.105	450643	keystroke_u	u	n/a
225.442	0.1195	450884	keystroke_e	e	n/a
225.652	0.09	451304	keystroke_r	r	n/a
225.8015	0.09	451603	keystroke_y	y	n/a
225.9815	0.09	451963	keystroke_Key.space	Key.space	n/a
226.477	0.12	452954	keystroke_r	r	n/a
226.5665	0.0905	453133	keystroke_e	e	n/a
226.7465	0.1205	453493	keystroke_g	g	n/a
226.897	0.09	453794	keystroke_u	u	n/a
227.332	0.0895	454664	keystroke_l	l	n/a
227.5715	0.105	455143	keystroke_a	a	n/a
227.887	0.12	455774	keystroke_t	t	n/a
228.037	0.0895	456074	keystroke_o	o	n/a
228.1415	0.09	456283	keystroke_r	r	n/a
228.307	0.0745	456614	keystroke_y	y	n/a
228.4565	0.0905	456913	keystroke_Key.space	Key.space	n/a
228.712	0.075	457424	keystroke_m	m	n/a
228.787	0.075	457574	keystroke_e	e	n/a
229.0265	0.075	458053	keystroke_c	c	n/a
229.1315	0.075	458263	keystroke_h	h	n/a
229.3125	0.1195	458625	keystroke_n	n	n/a
230.107	0.0745	460214	keystroke_Key.backspace	Key.backspace	n/a
230.2115	0.1055	460423	keystroke_a	a	n/a
230.392	0.0895	460784	keystroke_n	n	n/a
230.571	0.076	461142	keystroke_i	i	n/a
230.7065	0.0755	461413	keystroke_s	s	n/a
230.9465	0.0455	461893	keystroke_m	m	n/a
231.4565	0.0755	462913	keystroke_Key.enter	Key.enter	n/a
231.536	12.2225	463072	prompt	n/a	norman sponsored tanzania cathedral\n
232.117	0.09	464234	keystroke_m	m	n/a
232.431	0.046	464862	keystroke_Key.backspace	Key.backspace	n/a
232.717	0.075	465434	keystroke_n	n	n/a
232.942	0.0745	465884	keystroke_o	o	n/a
233.047	0.0895	466094	keystroke_r	r	n/a
233.197	0.09	466394	keystroke_m	m	n/a
233.332	0.09	466664	keystroke_a	a	n/a
234.126	0.061	468252	keystroke_n	n	n/a
234.426	0.0605	468852	keystroke_Key.space	Key.space	n/a
237.278	0.029	474556	keystroke_s	s	n/a
237.3675	0.1045	474735	keystroke_p	p	n/a
237.622	0.075	475244	keystroke_o	o	n/a
237.832	0.09	475664	keystroke_n	n	n/a
237.982	0.09	475964	keystroke_s	s	n/a
238.1315	0.075	476263	keystroke_o	o	n/a
238.2515	0.09	476503	keystroke_r	r	n/a
238.4465	0.075	476893	keystroke_e	e	n/a
238.642	0.09	477284	keystroke_d	d	n/a
238.777	0.105	477554	keystroke_Key.space	Key.space	n/a
239.0015	0.0905	478003	keystroke_r	r	n/a
239.392	0.074	478784	keystroke_Key.backspace	Key.backspace	n/a
239.482	0.1345	478964	keystroke_t	t	n/a
239.6465	0.1205	479293	keystroke_a	a	n/a
239.8265	0.106	479653	keystroke_n	n	n/a
240.2175	0.0895	480435	keystroke_z	z	n/a
240.4575	0.074	480915	keystroke_a	a	n/a
240.6065	0.105	481213	keystroke_n	n	n/a
240.786	0.0905	481572	keystroke_i	i	n/a
240.9825	0.0895	481965	keystroke_a	a	n/a
241.327	0.0895	482654	keystroke_Key.space	Key.space	n/a
241.927	0.1045	483854	keystroke_c	c	n/a
242.137	0.1195	484274	keystroke_a	a	n/a
242.4365	0.015	484873	keystroke_t	t	n/a
242.4815	0.0755	484963	keystroke_h	h	n/a
242.6315	0.075	485263	keystroke_e	e	n/a
242.9625	0.0445	485925	keystroke_d	d	n/a
243.127	0.09	486254	keystroke_r	r	n/a
243.277	0.09	486554	keystroke_a	a	n/a
243.4565	0.0905	486913	keystroke_l	l	n/a
243.682	0.075	487364	keystroke_Key.enter	Key.enter	n/a
243.77	5.598	487540	prompt	n/a	commercial stack shaw actual\n
244.447	0.105	488894	keystroke_c	c	n/a
244.612	0.0595	489224	keystroke_o	o	n/a
244.8215	0.045	489643	keystroke_m	m	n/a
244.9565	0.06	489913	keystroke_m	m	n/a
245.032	0.09	490064	keystroke_e	e	n/a
245.422	0.09	490844	keystroke_r	r	n/a
245.6615	0.0755	491323	keystroke_c	c	n/a
245.782	0.09	491564	keystroke_i	i	n/a
245.932	0.1045	491864	keystroke_a	a	n/a
246.0975	0.074	492195	keystroke_l	l	n/a
246.217	0.1045	492434	keystroke_Key.space	Key.space	n/a
246.3665	0.076	492733	keystroke_s	s	n/a
246.502	0.09	493004	keystroke_t	t	n/a
246.653	0.073	493306	keystroke_a	a	n/a
246.8315	0.1055	493663	keystroke_c	c	n/a
246.997	0.12	493994	keystroke_k	k	n/a
247.102	0.09	494204	keystroke_Key.space	Key.space	n/a
247.267	0.0755	494534	keystroke_s	s	n/a
247.402	0.105	494804	keystroke_h	h	n/a
247.567	0.135	495134	keystroke_a	a	n/a
247.7615	0.105	495523	keystroke_w	w	n/a
247.927	0.1045	495854	keystroke_Key.space	Key.space	n/a
248.1225	0.1185	496245	keystroke_a	a	n/a
248.3915	0.091	496783	keystroke_c	c	n/a
248.602	0.09	497204	keystroke_t	t	n/a
248.767	0.045	497534	keystroke_u	u	n/a
248.842	0.105	497684	keystroke_a	a	n/a
249.052	0.0905	498104	keystroke_l	l	n/a
249.292	0.074	498584	keystroke_Key.enter	Key.enter	n/a
249.372	5.6215	498744	prompt	n/a	rocket coins aging goods\n
250.0575	0.0895	500115	keystroke_r	r	n/a
250.2215	0.075	500443	keystroke_o	o	n/a
250.3575	0.105	500715	keystroke_c	c	n/a
250.4925	0.089	500985	keystroke_k	k	n/a
250.642	0.1495	501284	keystroke_e	e	n/a
250.807	0.0755	501614	keystroke_t	t	n/a
250.912	0.1045	501824	keystroke_Key.space	Key.space	n/a
251.167	0.12	502334	keystroke_c	c	n/a
251.302	0.075	502604	keystroke_o	o	n/a
251.527	0.1055	503054	keystroke_i	i	n/a
251.692	0.0895	503384	keystroke_n	n	n/a
251.827	0.0755	503654	keystroke_s	s	n/a
251.962	0.0755	503924	keystroke_Key.space	Key.space	n/a
252.8475	0.0895	505695	keystroke_a	a	n/a
253.117	0.105	506234	keystroke_g	g	n/a
253.2675	0.165	506535	keystroke_i	i	n/a
253.387	0.12	506774	keystroke_n	n	n/a
253.537	0.09	507074	keystroke_g	g	n/a
253.747	0.09	507494	keystroke_Key.space	Key.space	n/a
254.122	0.105	508244	keystroke_g	g	n/a
254.287	0.06	508574	keystroke_o	o	n/a
254.4375	0.059	508875	keystroke_o	o	n/a
254.542	0.1045	509084	keystroke_d	d	n/a
254.7525	0.075	509505	keystroke_s	s	n/a
254.887	0.105	509774	keystroke_Key.enter	Key.enter	n/a
254.996	8.1125	509992	prompt	n/a	mortgage arise managing years\n
255.6075	0.074	511215	keystroke_m	m	n/a
255.802	0.0605	511604	keystroke_o	o	n/a
255.907	0.09	511814	keystroke_r	r	n/a
256.057	0.09	512114	keystroke_t	t	n/a
256.207	0.105	512414	keystroke_a	a	n/a
256.387	0.1505	512774	keystroke_g	g	n/a
256.567	0.135	513134	keystroke_e	e	n/a
256.986	0.0755	513972	keystroke_Key.backspace	Key.backspace	n/a
257.1365	0.0605	514273	keystroke_Key.backspace	Key.backspace	n/a
257.3015	0.045	514603	keystroke_Key.backspace	Key.backspace	n/a
257.5715	0.136	515143	keystroke_g	g	n/a
257.7225	0.134	515445	keystroke_a	a	n/a
257.9325	0.1495	515865	keystroke_g	g	n/a
258.0525	0.1035	516105	keystroke_e	e	n/a
258.291	0.106	516582	keystroke_Key.space	Key.space	n/a
258.6975	0.165	517395	keystroke_a	a	n/a
258.8775	0.09	517755	keystroke_r	r	n/a
259.0715	0.0905	518143	keystroke_i	i	n/a
259.207	0.225	518414	keystroke_s	s	n/a
259.402	0.135	518804	keystroke_e	e	n/a
259.672	0.1045	519344	keystroke_Key.space	Key.space	n/a
260.002	0.09	520004	keystroke_n	n	n/a
260.3765	0.06	520753	keystroke_Key.backspace	Key.backspace	n/a
260.647	0.09	521294	keystroke_m	m	n/a
260.782	0.105	521564	keystroke_a	a	n/a
260.947	0.074	521894	keystroke_n	n	n/a
261.037	0.105	522074	keystroke_a	a	n/a
261.337	0.105	522674	keystroke_g	g	n/a
261.4725	0.1495	522945	keystroke_i	i	n/a
261.592	0.105	523184	keystroke_n	n	n/a
261.7125	0.09	523425	keystroke_g	g	n/a
261.907	0.074	523814	keystroke_Key.space	Key.space	n/a
262.312	0.0895	524624	keystroke_y	y	n/a
262.387	0.18	524774	keystroke_e	e	n/a
262.5515	0.136	525103	keystroke_a	a	n/a
262.7025	0.134	525405	keystroke_r	r	n/a
262.8525	0.0895	525705	keystroke_s	s	n/a
263.032	0.075	526064	keystroke_Key.enter	Key.enter	n/a
263.113	9.446	526226	prompt	n/a	edward arise accountability escape\n
263.8875	0.014	527775	keystroke_e	e	n/a
263.9465	0.1055	527893	keystroke_d	d	n/a
264.322	0.09	528644	keystroke_w	w	n/a
264.6525	0.0595	529305	keystroke_r	r	n/a
265.1015	0.0755	530203	keystroke_Key.backspace	Key.backspace	n/a
265.1925	0.1345	530385	keystroke_a	a	n/a
265.3565	0.09	530713	keystroke_r	r	n/a
265.5515	0.1205	531103	keystroke_d	d	n/a
265.7615	0.0905	531523	keystroke_Key.space	Key.space	n/a
266.332	0.12	532664	keystroke_a	a	n/a
266.5275	0.075	533055	keystroke_r	r	n/a
266.6775	0.09	533355	keystroke_i	i	n/a
266.7975	0.164	533595	keystroke_s	s	n/a
266.9465	0.105	533893	keystroke_e	e	n/a
267.112	0.105	534224	keystroke_Key.space	Key.space	n/a
267.277	0.105	534554	keystroke_a	a	n/a
267.577	0.09	535154	keystroke_c	c	n/a
267.7425	0.09	535485	keystroke_c	c	n/a
267.9515	0.1805	535903	keystroke_o	o	n/a
268.102	0.1205	536204	keystroke_u	u	n/a
268.5525	0.09	537105	keystroke_n	n	n/a
268.7015	0.105	537403	keystroke_t	t	n/a
268.912	0.1055	537824	keystroke_a	a	n/a
269.122	0.0895	538244	keystroke_b	b	n/a
269.3615	0.061	538723	keystroke_i	i	n/a
269.5725	0.0745	539145	keystroke_l	l	n/a
269.752	0.0745	539504	keystroke_i	i	n/a
269.887	0.0895	539774	keystroke_t	t	n/a
270.0825	0.089	540165	keystroke_y	y	n/a
270.3815	0.09	540763	keystroke_Key.space	Key.space	n/a
270.8765	0.061	541753	keystroke_a	a	n/a
271.2065	0.075	542413	keystroke_Key.backspace	Key.backspace	n/a
271.2975	0.06	542595	keystroke_e	e	n/a
271.492	0.091	542984	keystroke_s	s	n/a
271.732	0.1055	543464	keystroke_c	c	n/a
271.9725	0.075	543945	keystroke_a	a	n/a
272.167	0.0455	544334	keystroke_p	p	n/a
272.332	0.06	544664	keystroke_e	e	n/a
272.467	0.09	544934	keystroke_Key.enter	Key.enter	n/a
272.5635	10.5255	545127	prompt	n/a	christianity routers relatively sunday\n
273.3525	0.044	546705	keystroke_d	d	n/a
273.6525	0.0595	547305	keystroke_Key.backspace	Key.backspace	n/a
273.773	0.0745	547546	keystroke_c	c	n/a
273.967	0.075	547934	keystroke_h	h	n/a
274.3575	0.0745	548715	keystroke_r	r	n/a
274.897	0.136	549794	keystroke_i	i	n/a
275.0475	0.0745	550095	keystroke_s	s	n/a
275.287	0.09	550574	keystroke_t	t	n/a
275.542	0.0905	551084	keystroke_i	i	n/a
275.692	0.1055	551384	keystroke_a	a	n/a
275.9175	0.089	551835	keystroke_n	n	n/a
276.082	0.075	552164	keystroke_i	i	n/a
276.277	0.075	552554	keystroke_t	t	n/a
276.442	0.09	552884	keystroke_y	y	n/a
276.6365	0.105	553273	keystroke_Key.space	Key.space	n/a
276.8925	0.0745	553785	keystroke_r	r	n/a
277.0275	0.164	554055	keystroke_o	o	n/a
277.1315	0.105	554263	keystroke_u	u	n/a
277.297	0.06	554594	keystroke_t	t	n/a
277.4165	0.136	554833	keystroke_e	e	n/a
277.522	0.1195	555044	keystroke_r	r	n/a
277.6865	0.1055	555373	keystroke_s	s	n/a
277.8665	0.105	555733	keystroke_Key.space	Key.space	n/a
278.2115	0.061	556423	keystroke_r	r	n/a
278.4825	0.105	556965	keystroke_e	e	n/a
278.9015	0.12	557803	keystroke_l	l	n/a
279.2325	0.149	558465	keystroke_a	a	n/a
279.4575	0.06	558915	keystroke_t	t	n/a
279.8765	0.0905	559753	keystroke_i	i	n/a
280.1175	0.074	560235	keystroke_v	v	n/a
280.4475	0.09	560895	keystroke_e	e	n/a
280.6575	0.104	561315	keystroke_l	l	n/a
280.927	0.0605	561854	keystroke_y	y	n/a
281.122	0.12	562244	keystroke_Key.space	Key.space	n/a
281.4375	0.0595	562875	keystroke_e	e	n/a
281.932	0.0445	563864	keystroke_Key.backspace	Key.backspace	n/a
282.0375	0.075	564075	keystroke_s	s	n/a
282.1725	0.075	564345	keystroke_u	u	n/a
282.397	0.0905	564794	keystroke_n	n	n/a
282.532	0.105	565064	keystroke_d	d	n/a
282.607	0.135	565214	keystroke_a	a	n/a
282.787	0.105	565574	keystroke_y	y	n/a
283.012	0.075	566024	keystroke_Key.enter	Key.enter	n/a
283.095	9.8485	566190	prompt	n/a	grateful joshua makeup monitored\n
283.7925	0.105	567585	keystroke_g	g	n/a
284.0625	0.1495	568125	keystroke_r	r	n/a
284.272	0.1195	568544	keystroke_e	e	n/a
284.362	0.1355	568724	keystroke_a	a	n/a
284.542	0.09	569084	keystroke_t	t	n/a
284.6325	0.09	569265	keystroke_e	e	n/a
284.8425	0.105	569685	keystroke_f	f	n/a
284.9925	0.0895	569985	keystroke_u	u	n/a
285.1875	0.075	570375	keystroke_l	l	n/a
285.3665	0.09	570733	keystroke_Key.space	Key.space	n/a
285.8625	0.0895	571725	keystroke_j	j	n/a
286.027	0.075	572054	keystroke_o	o	n/a
286.2525	0.0745	572505	keystroke_s	s	n/a
286.5375	0.09	573075	keystroke_h	h	n/a
287.122	0.0605	574244	keystroke_u	u	n/a
287.242	0.0905	574484	keystroke_a	a	n/a
287.8125	0.104	575625	keystroke_Key.space	Key.space	n/a
288.1275	0.0905	576255	keystroke_m	m	n/a
288.2775	0.1045	576555	keystroke_a	a	n/a
288.4265	0.076	576853	keystroke_k	k	n/a
288.5475	0.0745	577095	keystroke_e	e	n/a
288.802	0.0905	577604	keystroke_u	u	n/a
289.057	0.06	578114	keystroke_p	p	n/a
289.462	0.09	578924	keystroke_Key.space	Key.space	n/a
289.657	0.091	579314	keystroke_m	m	n/a
289.807	0.0595	579614	keystroke_o	o	n/a
290.0025	0.165	580005	keystroke_n	n	n/a
290.6915	0.076	581383	keystroke_i	i	n/a
290.887	0.105	581774	keystroke_t	t	n/a
291.0665	0.076	582133	keystroke_o	o	n/a
292.192	0.1205	584384	keystroke_r	r	n/a
292.4325	0.0895	584865	keystroke_e	e	n/a
292.6715	0.076	585343	keystroke_d	d	n/a
292.8525	0.0895	585705	keystroke_Key.enter	Key.enter	n/a
292.9475	7.376	585895	prompt	n/a	arrest ballot means messaging\n
293.617	0.1055	587234	keystroke_a	a	n/a
293.8575	0.0605	587715	keystroke_r	r	n/a
293.9925	0.075	587985	keystroke_r	r	n/a
294.1875	0.09	588375	keystroke_e	e	n/a
294.3215	0.121	588643	keystroke_s	s	n/a
294.4875	0.059	588975	keystroke_t	t	n/a
294.6065	0.09	589213	keystroke_Key.space	Key.space	n/a
294.8325	0.089	589665	keystroke_b	b	n/a
295.1025	0.089	590205	keystroke_a	a	n/a
295.342	0.0445	590684	keystroke_l	l	n/a
295.462	0.06	590924	keystroke_l	l	n/a
295.627	0.075	591254	keystroke_o	o	n/a
295.7465	0.091	591493	keystroke_t	t	n/a
295.852	0.075	591704	keystroke_Key.space	Key.space	n/a
296.0325	0.0895	592065	keystroke_m	m	n/a
296.1225	0.0895	592245	keystroke_e	e	n/a
296.197	0.135	592394	keystroke_a	a	n/a
296.377	0.09	592754	keystroke_n	n	n/a
296.5275	0.09	593055	keystroke_s	s	n/a
296.6925	0.0745	593385	keystroke_Key.space	Key.space	n/a
296.977	0.0755	593954	keystroke_m	m	n/a
297.082	0.0905	594164	keystroke_e	e	n/a
297.232	0.0905	594464	keystroke_s	s	n/a
297.382	0.1055	594764	keystroke_s	s	n/a
297.562	0.105	595124	keystroke_a	a	n/a
297.8175	0.075	595635	keystroke_f	f	n/a
298.4615	0.0905	596923	keystroke_Key.backspace	Key.backspace	n/a
298.567	0.1055	597134	keystroke_g	g	n/a
298.807	0.15	597614	keystroke_i	i	n/a
298.942	0.09	597884	keystroke_n	n	n/a
299.017	0.09	598034	keystroke_g	g	n/a
300.142	0.18	600284	keystroke_Key.enter	Key.enter	n/a
300.328	6.476	600656	prompt	n/a	same innovative disorder pairs\n
301.177	0.1355	602354	keystroke_s	s	n/a
301.2975	0.1195	602595	keystroke_a	a	n/a
301.4315	0.1055	602863	keystroke_m	m	n/a
301.567	0.1045	603134	keystroke_e	e	n/a
301.6565	0.0905	603313	keystroke_Key.space	Key.space	n/a
301.852	0.105	603704	keystroke_i	i	n/a
301.942	0.06	603884	keystroke_n	n	n/a
302.077	0.0755	604154	keystroke_n	n	n/a
302.317	0.09	604634	keystroke_o	o	n/a
302.467	0.105	604934	keystroke_v	v	n/a
302.6775	0.1195	605355	keystroke_a	a	n/a
302.842	0.075	605684	keystroke_t	t	n/a
303.007	0.075	606014	keystroke_i	i	n/a
303.1875	0.119	606375	keystroke_v	v	n/a
303.382	0.075	606764	keystroke_e	e	n/a
303.502	0.09	607004	keystroke_Key.space	Key.space	n/a
303.862	0.09	607724	keystroke_d	d	n/a
304.012	0.075	608024	keystroke_i	i	n/a
304.162	0.075	608324	keystroke_s	s	n/a
304.372	0.075	608744	keystroke_o	o	n/a
304.463	0.104	608926	keystroke_r	r	n/a
304.7775	0.105	609555	keystroke_d	d	n/a
305.0175	0.06	610035	keystroke_e	e	n/a
305.2125	0.0745	610425	keystroke_r	r	n/a
305.572	0.1055	611144	keystroke_Key.space	Key.space	n/a
305.9475	0.0895	611895	keystroke_p	p	n/a
306.0525	0.105	612105	keystroke_a	a	n/a
306.247	0.09	612494	keystroke_i	i	n/a
306.397	0.1055	612794	keystroke_r	r	n/a
306.577	0.09	613154	keystroke_s	s	n/a
306.7275	0.0745	613455	keystroke_Key.enter	Key.enter	n/a
306.8095	6.354	613619	prompt	n/a	tion increase steve danny\n
307.492	0.0905	614984	keystroke_t	t	n/a
307.6125	0.089	615225	keystroke_i	i	n/a
307.9715	0.061	615943	keystroke_o	o	n/a
308.2125	0.06	616425	keystroke_n	n	n/a
308.4215	0.09	616843	keystroke_Key.space	Key.space	n/a
308.9015	0.06	617803	keystroke_i	i	n/a
308.9465	0.0455	617893	keystroke_n	n	n/a
308.9925	0.0895	617985	keystroke_c	c	n/a
309.2325	0.0745	618465	keystroke_r	r	n/a
309.412	0.12	618824	keystroke_e	e	n/a
309.5775	0.1945	619155	keystroke_a	a	n/a
309.712	0.1495	619424	keystroke_s	s	n/a
309.8775	0.105	619755	keystroke_e	e	n/a
310.0715	0.106	620143	keystroke_Key.space	Key.space	n/a
310.582	0.09	621164	keystroke_s	s	n/a
310.7765	0.091	621553	keystroke_t	t	n/a
311.0025	0.0745	622005	keystroke_e	e	n/a
311.272	0.0905	622544	keystroke_v	v	n/a
311.4225	0.09	622845	keystroke_e	e	n/a
311.6315	0.0905	623263	keystroke_Key.space	Key.space	n/a
312.1275	0.1205	624255	keystroke_d	d	n/a
312.232	0.15	624464	keystroke_a	a	n/a
312.412	0.09	624824	keystroke_n	n	n/a
312.562	0.0895	625124	keystroke_n	n	n/a
312.8025	0.0745	625605	keystroke_y	y	n/a
313.102	0.06	626204	keystroke_Key.enter	Key.enter	n/a
313.1685	8.8605	626337	prompt	n/a	arrivals convenience peaceful render\n
313.7025	0.09	627405	keystroke_a	a	n/a
314.002	0.0305	628004	keystroke_r	r	n/a
314.1075	0.0895	628215	keystroke_r	r	n/a
314.2415	0.0755	628483	keystroke_i	i	n/a
314.377	0.09	628754	keystroke_c	c	n/a
314.7975	0.074	629595	keystroke_Key.backspace	Key.backspace	n/a
314.9015	0.076	629803	keystroke_v	v	n/a
315.082	0.075	630164	keystroke_a	a	n/a
315.262	0.09	630524	keystroke_l	l	n/a
315.412	0.0755	630824	keystroke_s	s	n/a
315.547	0.1045	631094	keystroke_Key.space	Key.space	n/a
315.8475	0.06	631695	keystroke_c	c	n/a
315.9365	0.091	631873	keystroke_o	o	n/a
316.132	0.0905	632264	keystroke_n	n	n/a
316.237	0.0755	632474	keystroke_v	v	n/a
316.462	0.045	632924	keystroke_e	e	n/a
316.642	0.0605	633284	keystroke_n	n	n/a
316.747	0.1205	633494	keystroke_i	i	n/a
316.9125	0.105	633825	keystroke_e	e	n/a
318.0975	0.0895	636195	keystroke_n	n	n/a
318.3675	0.075	636735	keystroke_c	c	n/a
318.5025	0.09	637005	keystroke_e	e	n/a
318.6675	0.09	637335	keystroke_Key.space	Key.space	n/a
319.0725	0.09	638145	keystroke_p	p	n/a
319.192	0.12	638384	keystroke_e	e	n/a
319.282	0.1055	638564	keystroke_a	a	n/a
319.4475	0.1195	638895	keystroke_c	c	n/a
319.882	0.0755	639764	keystroke_e	e	n/a
320.1675	0.105	640335	keystroke_f	f	n/a
320.317	0.09	640634	keystroke_u	u	n/a
320.5275	0.0745	641055	keystroke_l	l	n/a
320.782	0.075	641564	keystroke_Key.space	Key.space	n/a
321.022	0.075	642044	keystroke_r	r	n/a
321.187	0.09	642374	keystroke_e	e	n/a
321.352	0.075	642704	keystroke_n	n	n/a
321.4875	0.09	642975	keystroke_d	d	n/a
321.667	0.0755	643334	keystroke_e	e	n/a
321.8475	0.06	643695	keystroke_r	r	n/a
321.9525	0.0745	643905	keystroke_Key.enter	Key.enter	n/a
322.0335	6.1905	644067	prompt	n/a	cycles customers join aids\n
322.732	0.1205	645464	keystroke_c	c	n/a
323.5875	0.075	647175	keystroke_y	y	n/a
323.722	0.0895	647444	keystroke_c	c	n/a
323.9165	0.076	647833	keystroke_l	l	n/a
324.0365	0.121	648073	keystroke_e	e	n/a
324.1875	0.105	648375	keystroke_s	s	n/a
324.3815	0.076	648763	keystroke_Key.space	Key.space	n/a
324.593	0.0895	649186	keystroke_c	c	n/a
324.697	0.091	649394	keystroke_u	u	n/a
324.817	0.105	649634	keystroke_s	s	n/a
324.9815	0.076	649963	keystroke_t	t	n/a
325.162	0.1055	650324	keystroke_o	o	n/a
325.327	0.0905	650654	keystroke_m	m	n/a
325.4625	0.1345	650925	keystroke_e	e	n/a
325.567	0.1055	651134	keystroke_r	r	n/a
325.7475	0.09	651495	keystroke_s	s	n/a
325.9265	0.0755	651853	keystroke_Key.space	Key.space	n/a
326.3175	0.1055	652635	keystroke_j	j	n/a
326.482	0.0755	652964	keystroke_o	o	n/a
326.6925	0.105	653385	keystroke_i	i	n/a
326.8125	0.09	653625	keystroke_n	n	n/a
327.037	0.075	654074	keystroke_Key.space	Key.space	n/a
327.3675	0.0895	654735	keystroke_a	a	n/a
327.592	0.0905	655184	keystroke_i	i	n/a
327.772	0.0905	655544	keystroke_d	d	n/a
327.967	0.075	655934	keystroke_s	s	n/a
328.147	0.075	656294	keystroke_Key.enter	Key.enter	n/a
328.2285	8.7255	656457	prompt	n/a	questionnaire marking coordinate unlike\n
329.017	0.06	658034	keystroke_q	q	n/a
329.1065	0.0755	658213	keystroke_u	u	n/a
329.9925	0.12	659985	keystroke_e	e	n/a
330.172	0.105	660344	keystroke_s	s	n/a
330.337	0.105	660674	keystroke_t	t	n/a
330.472	0.12	660944	keystroke_i	i	n/a
330.5775	0.06	661155	keystroke_o	o	n/a
330.7565	0.0765	661513	keystroke_n	n	n/a
330.908	0.0895	661816	keystroke_n	n	n/a
331.0575	0.12	662115	keystroke_a	a	n/a
331.4025	0.0895	662805	keystroke_i	i	n/a
331.537	0.075	663074	keystroke_r	r	n/a
331.717	0.0755	663434	keystroke_e	e	n/a
331.9115	0.09	663823	keystroke_Key.space	Key.space	n/a
332.2125	0.09	664425	keystroke_m	m	n/a
332.3325	0.075	664665	keystroke_a	a	n/a
332.513	0.0895	665026	keystroke_r	r	n/a
332.9625	0.09	665925	keystroke_k	k	n/a
333.1575	0.0745	666315	keystroke_i	i	n/a
333.382	0.075	666764	keystroke_n	n	n/a
333.5175	0.0745	667035	keystroke_g	g	n/a
333.607	0.0905	667214	keystroke_Key.space	Key.space	n/a
333.7875	0.1045	667575	keystroke_c	c	n/a
333.907	0.06	667814	keystroke_o	o	n/a
334.0575	0.075	668115	keystroke_o	o	n/a
334.207	0.09	668414	keystroke_r	r	n/a
334.492	0.0755	668984	keystroke_d	d	n/a
334.627	0.1055	669254	keystroke_i	i	n/a
334.7475	0.105	669495	keystroke_n	n	n/a
334.8825	0.105	669765	keystroke_a	a	n/a
335.0625	0.1495	670125	keystroke_t	t	n/a
335.2275	0.0895	670455	keystroke_e	e	n/a
335.347	0.105	670694	keystroke_Key.space	Key.space	n/a
335.6025	0.075	671205	keystroke_u	u	n/a
335.797	0.0755	671594	keystroke_n	n	n/a
336.007	0.0755	672014	keystroke_l	l	n/a
336.262	0.0605	672524	keystroke_i	i	n/a
336.4425	0.075	672885	keystroke_k	k	n/a
336.5625	0.09	673125	keystroke_e	e	n/a
336.892	0.06	673784	keystroke_Key.enter	Key.enter	n/a
336.9585	12.1155	673917	prompt	n/a	who'd've hydrogen replaced corrected\n
337.6425	0.075	675285	keystroke_e	e	n/a
337.763	0.0745	675526	keystroke_h	h	n/a
338.1075	0.045	676215	keystroke_Key.backspace	Key.backspace	n/a
338.3765	0.0605	676753	keystroke_Key.backspace	Key.backspace	n/a
338.6015	0.0755	677203	keystroke_w	w	n/a
338.7075	0.075	677415	keystroke_h	h	n/a
338.9175	0.0595	677835	keystroke_o	o	n/a
339.3975	0.045	678795	keystroke_'	'	n/a
339.922	0.09	679844	keystroke_d	d	n/a
340.597	0.075	681194	keystroke_'	'	n/a
340.8075	0.09	681615	keystroke_v	v	n/a
341.287	0.105	682574	keystroke_e	e	n/a
341.527	0.09	683054	keystroke_Key.space	Key.space	n/a
342.5325	0.06	685065	keystroke_h	h	n/a
342.7125	0.06	685425	keystroke_y	y	n/a
342.8465	0.046	685693	keystroke_d	d	n/a
342.998	0.0595	685996	keystroke_r	r	n/a
343.117	0.09	686234	keystroke_o	o	n/a
343.327	0.075	686654	keystroke_g	g	n/a
344.0175	0.015	688035	keystroke_e	e	n/a
344.077	0.09	688154	keystroke_n	n	n/a
344.257	0.0905	688514	keystroke_Key.space	Key.space	n/a
344.497	0.075	688994	keystroke_r	r	n/a
344.662	0.075	689324	keystroke_e	e	n/a
344.767	0.076	689534	keystroke_p	p	n/a
344.9775	0.09	689955	keystroke_l	l	n/a
345.097	0.09	690194	keystroke_a	a	n/a
345.3975	0.1195	690795	keystroke_c	c	n/a
345.623	0.075	691246	keystroke_e	e	n/a
345.862	0.03	691724	keystroke_s	s	n/a
346.3565	0.075	692713	keystroke_Key.backspace	Key.backspace	n/a
346.4925	0.075	692985	keystroke_d	d	n/a
346.8075	0.074	693615	keystroke_Key.space	Key.space	n/a
347.4225	0.09	694845	keystroke_c	c	n/a
347.5575	0.0595	695115	keystroke_o	o	n/a
347.707	0.06	695414	keystroke_r	r	n/a
347.8425	0.0755	695685	keystroke_r	r	n/a
348.0225	0.0905	696045	keystroke_e	e	n/a
348.277	0.0905	696554	keystroke_c	c	n/a
348.5475	0.09	697095	keystroke_t	t	n/a
348.6525	0.089	697305	keystroke_e	e	n/a
348.8475	0.09	697695	keystroke_d	d	n/a
348.9675	0.105	697935	keystroke_Key.enter	Key.enter	n/a
349.078	6.596	698156	prompt	n/a	dennis eleven workers shipping\n
349.567	0.015	699134	keystroke_w	w	n/a
349.867	0.0605	699734	keystroke_Key.backspace	Key.backspace	n/a
350.002	0.06	700004	keystroke_d	d	n/a
350.168	0.059	700336	keystroke_e	e	n/a
350.287	0.06	700574	keystroke_n	n	n/a
350.437	0.075	700874	keystroke_n	n	n/a
350.587	0.075	701174	keystroke_i	i	n/a
350.722	0.061	701444	keystroke_s	s	n/a
350.842	0.0905	701684	keystroke_Key.space	Key.space	n/a
351.0525	0.075	702105	keystroke_e	e	n/a
351.2175	0.075	702435	keystroke_l	l	n/a
351.3225	0.0745	702645	keystroke_e	e	n/a
351.5475	0.075	703095	keystroke_c	c	n/a
351.9825	0.0445	703965	keystroke_Key.backspace	Key.backspace	n/a
352.073	0.105	704146	keystroke_v	v	n/a
352.179	0.0885	704358	keystroke_e	e	n/a
352.4035	0.0735	704807	keystroke_n	n	n/a
352.612	0.09	705224	keystroke_Key.space	Key.space	n/a
353.032	0.105	706064	keystroke_w	w	n/a
353.152	0.075	706304	keystroke_o	o	n/a
353.257	0.09	706514	keystroke_r	r	n/a
353.438	0.075	706876	keystroke_k	k	n/a
353.543	0.09	707086	keystroke_e	e	n/a
353.738	0.059	707476	keystroke_r	r	n/a
353.903	0.074	707806	keystroke_s	s	n/a
354.052	0.0905	708104	keystroke_Key.space	Key.space	n/a
354.293	0.0895	708586	keystroke_s	s	n/a
354.427	0.0755	708854	keystroke_h	h	n/a
354.637	0.075	709274	keystroke_i	i	n/a
354.847	0.045	709694	keystroke_p	p	n/a
354.9825	0.0595	709965	keystroke_p	p	n/a
355.2375	0.135	710475	keystroke_i	i	n/a
355.357	0.0905	710714	keystroke_n	n	n/a
355.433	0.074	710866	keystroke_g	g	n/a
355.6275	0.045	711255	keystroke_Key.enter	Key.enter	n/a
355.6785	8.3355	711357	prompt	n/a	saudi collection firewire cardiac\n
356.407	0.09	712814	keystroke_s	s	n/a
356.542	0.135	713084	keystroke_a	a	n/a
356.753	0.0895	713506	keystroke_u	u	n/a
356.8875	0.105	713775	keystroke_d	d	n/a
357.082	0.075	714164	keystroke_i	i	n/a
357.337	0.1055	714674	keystroke_Key.space	Key.space	n/a
357.7575	0.09	715515	keystroke_c	c	n/a
357.862	0.0455	715724	keystroke_o	o	n/a
358.0275	0.06	716055	keystroke_l	l	n/a
358.1475	0.075	716295	keystroke_l	l	n/a
358.2375	0.06	716475	keystroke_e	e	n/a
358.4325	0.0755	716865	keystroke_c	c	n/a
358.6425	0.06	717285	keystroke_t	t	n/a
358.9125	0.045	717825	keystroke_i	i	n/a
359.1525	0.06	718305	keystroke_o	o	n/a
359.363	0.06	718726	keystroke_n	n	n/a
359.5575	0.105	719115	keystroke_Key.space	Key.space	n/a
360.1275	0.09	720255	keystroke_f	f	n/a
360.3375	0.06	720675	keystroke_i	i	n/a
360.4725	0.105	720945	keystroke_r	r	n/a
360.6825	0.0755	721365	keystroke_e	e	n/a
360.9825	0.12	721965	keystroke_w	w	n/a
361.328	0.089	722656	keystroke_i	i	n/a
361.523	0.1345	723046	keystroke_r	r	n/a
361.6425	0.09	723285	keystroke_e	e	n/a
361.8675	0.105	723735	keystroke_Key.space	Key.space	n/a
362.123	0.09	724246	keystroke_c	c	n/a
362.2425	0.15	724485	keystroke_a	a	n/a
362.4225	0.075	724845	keystroke_r	r	n/a
362.5875	0.09	725175	keystroke_d	d	n/a
362.6925	0.075	725385	keystroke_i	i	n/a
362.8275	0.075	725655	keystroke_a	a	n/a
363.1435	0.1045	726287	keystroke_c	c	n/a
363.263	0.074	726526	keystroke_e	e	n/a
363.652	0.0755	727304	keystroke_Key.backspace	Key.backspace	n/a
363.9375	0.075	727875	keystroke_Key.enter	Key.enter	n/a
364.023	7.1165	728046	prompt	n/a	scales hands trap photographers\n
364.583	0.0745	729166	keystroke_s	s	n/a
364.7775	0.0905	729555	keystroke_c	c	n/a
364.9275	0.06	729855	keystroke_a	a	n/a
365.0775	0.06	730155	keystroke_l	l	n/a
365.228	0.075	730456	keystroke_e	e	n/a
365.348	0.089	730696	keystroke_s	s	n/a
365.497	0.1055	730994	keystroke_Key.space	Key.space	n/a
365.813	0.0445	731626	keystroke_h	h	n/a
365.9325	0.1045	731865	keystroke_a	a	n/a
366.472	0.075	732944	keystroke_n	n	n/a
366.623	0.12	733246	keystroke_d	d	n/a
366.743	0.0745	733486	keystroke_s	s	n/a
366.937	0.0605	733874	keystroke_Key.space	Key.space	n/a
367.3275	0.075	734655	keystroke_t	t	n/a
367.522	0.076	735044	keystroke_r	r	n/a
367.612	0.105	735224	keystroke_a	a	n/a
367.763	0.0895	735526	keystroke_p	p	n/a
367.897	0.1205	735794	keystroke_Key.space	Key.space	n/a
368.392	0.06	736784	keystroke_p	p	n/a
368.603	0.075	737206	keystroke_h	h	n/a
368.783	0.0595	737566	keystroke_o	o	n/a
369.0225	0.105	738045	keystroke_t	t	n/a
369.2325	0.1055	738465	keystroke_o	o	n/a
369.623	0.1195	739246	keystroke_g	g	n/a
369.908	0.1195	739816	keystroke_r	r	n/a
370.013	0.135	740026	keystroke_a	a	n/a
370.1625	0.075	740325	keystroke_p	p	n/a
370.4625	0.0755	740925	keystroke_h	h	n/a
370.598	0.105	741196	keystroke_e	e	n/a
370.7175	0.1055	741435	keystroke_r	r	n/a
370.868	0.12	741736	keystroke_s	s	n/a
371.062	0.075	742124	keystroke_Key.enter	Key.enter	n/a
371.144	7.555	742288	prompt	n/a	sound joel live anonymous\n
371.7975	0.12	743595	keystroke_s	s	n/a
371.9025	0.15	743805	keystroke_o	o	n/a
371.993	0.1045	743986	keystroke_u	u	n/a
372.2475	0.075	744495	keystroke_n	n	n/a
372.4275	0.06	744855	keystroke_d	d	n/a
373.1925	0.1045	746385	keystroke_Key.space	Key.space	n/a
373.583	0.074	747166	keystroke_j	j	n/a
373.808	0.045	747616	keystroke_o	o	n/a
373.943	0.06	747886	keystroke_e	e	n/a
374.108	0.06	748216	keystroke_l	l	n/a
374.2575	0.09	748515	keystroke_Key.space	Key.space	n/a
374.5875	0.165	749175	keystroke_l	l	n/a
374.7225	0.09	749445	keystroke_i	i	n/a
374.9325	0.12	749865	keystroke_v	v	n/a
375.068	0.105	750136	keystroke_e	e	n/a
375.247	0.0905	750494	keystroke_Key.space	Key.space	n/a
375.5325	0.075	751065	keystroke_a	a	n/a
375.6975	0.075	751395	keystroke_n	n	n/a
375.968	0.06	751936	keystroke_o	o	n/a
376.192	0.075	752384	keystroke_n	n	n/a
376.447	0.06	752894	keystroke_y	y	n/a
376.687	0.09	753374	keystroke_m	m	n/a
376.913	0.134	753826	keystroke_o	o	n/a
377.3925	0.075	754785	keystroke_i	i	n/a
377.887	0.075	755774	keystroke_Key.backspace	Key.backspace	n/a
378.142	0.075	756284	keystroke_u	u	n/a
378.3525	0.075	756705	keystroke_s	s	n/a
378.6075	0.09	757215	keystroke_Key.enter	Key.enter	n/a
378.7035	7.856	757407	prompt	n/a	gift lyrics primary exec\n
379.387	0.0905	758774	keystroke_f	f	n/a
379.7175	0.06	759435	keystroke_Key.backspace	Key.backspace	n/a
380.242	0.0605	760484	keystroke_g	g	n/a
380.4375	0.0755	760875	keystroke_i	i	n/a
380.6175	0.075	761235	keystroke_f	f	n/a
380.797	0.0755	761594	keystroke_t	t	n/a
380.9325	0.105	761865	keystroke_Key.space	Key.space	n/a
381.353	0.135	762706	keystroke_l	l	n/a
381.8475	0.06	763695	keystroke_y	y	n/a
382.0275	0.1045	764055	keystroke_r	r	n/a
382.283	0.1045	764566	keystroke_i	i	n/a
382.7775	0.105	765555	keystroke_c	c	n/a
383.032	0.0755	766064	keystroke_s	s	n/a
383.2125	0.0905	766425	keystroke_Key.space	Key.space	n/a
383.422	0.076	766844	keystroke_p	p	n/a
383.543	0.09	767086	keystroke_r	r	n/a
383.933	0.1495	767866	keystroke_i	i	n/a
384.2325	0.105	768465	keystroke_m	m	n/a
384.398	0.12	768796	keystroke_a	a	n/a
384.5475	0.0905	769095	keystroke_r	r	n/a
384.757	0.091	769514	keystroke_y	y	n/a
384.9525	0.1055	769905	keystroke_Key.space	Key.space	n/a
385.2225	0.075	770445	keystroke_e	e	n/a
385.5375	0.0895	771075	keystroke_x	x	n/a
385.897	0.091	771794	keystroke_e	e	n/a
386.153	0.1045	772306	keystroke_c	c	n/a
386.467	0.0905	772934	keystroke_Key.enter	Key.enter	n/a
386.5645	5.695	773129	prompt	n/a	additions drink markets legend\n
387.1275	0.105	774255	keystroke_a	a	n/a
387.6075	0.0455	775215	keystroke_d	d	n/a
387.668	0.015	775336	keystroke_d	d	n/a
387.773	0.09	775546	keystroke_i	i	n/a
388.043	0.09	776086	keystroke_t	t	n/a
388.163	0.134	776326	keystroke_i	i	n/a
388.267	0.091	776534	keystroke_o	o	n/a
388.493	0.0895	776986	keystroke_n	n	n/a
388.628	0.09	777256	keystroke_s	s	n/a
388.8225	0.0745	777645	keystroke_Key.space	Key.space	n/a
389.062	0.106	778124	keystroke_d	d	n/a
389.242	0.106	778484	keystroke_r	r	n/a
389.333	0.164	778666	keystroke_i	i	n/a
389.468	0.1045	778936	keystroke_n	n	n/a
389.648	0.0895	779296	keystroke_k	k	n/a
389.827	0.0905	779654	keystroke_Key.space	Key.space	n/a
390.0075	0.0905	780015	keystroke_m	m	n/a
390.112	0.1055	780224	keystroke_a	a	n/a
390.233	0.1195	780466	keystroke_r	r	n/a
390.3375	0.121	780675	keystroke_k	k	n/a
390.4735	0.0895	780947	keystroke_e	e	n/a
390.5775	0.105	781155	keystroke_t	t	n/a
390.758	0.09	781516	keystroke_s	s	n/a
390.863	0.119	781726	keystroke_Key.space	Key.space	n/a
391.1625	0.0145	782325	keystroke_l	l	n/a
391.193	0.074	782386	keystroke_e	e	n/a
391.4475	0.09	782895	keystroke_g	g	n/a
391.5525	0.09	783105	keystroke_e	e	n/a
391.7475	0.1055	783495	keystroke_n	n	n/a
391.9425	0.09	783885	keystroke_d	d	n/a
392.1825	0.0755	784365	keystroke_Key.enter	Key.enter	n/a
392.264	7.1805	784528	prompt	n/a	itunes supply selections drugs\n
392.948	0.09	785896	keystroke_i	i	n/a
393.068	0.089	786136	keystroke_t	t	n/a
393.293	0.015	786586	keystroke_o	o	n/a
393.577	0.075	787154	keystroke_Key.backspace	Key.backspace	n/a
393.8175	0.0745	787635	keystroke_u	u	n/a
394.043	0.0745	788086	keystroke_n	n	n/a
394.1625	0.09	788325	keystroke_e	e	n/a
394.2975	0.105	788595	keystroke_s	s	n/a
394.4775	0.075	788955	keystroke_Key.space	Key.space	n/a
394.6575	0.075	789315	keystroke_s	s	n/a
394.7775	0.075	789555	keystroke_u	u	n/a
395.0025	0.0455	790005	keystroke_p	p	n/a
395.1075	0.075	790215	keystroke_p	p	n/a
395.3175	0.105	790635	keystroke_l	l	n/a
395.6025	0.045	791205	keystroke_y	y	n/a
395.8125	0.0905	791625	keystroke_Key.space	Key.space	n/a
395.9625	0.075	791925	keystroke_e	e	n/a
396.3075	0.06	792615	keystroke_Key.backspace	Key.backspace	n/a
396.4735	0.0895	792947	keystroke_s	s	n/a
396.878	0.06	793756	keystroke_e	e	n/a
397.254	0.059	794508	keystroke_l	l	n/a
397.343	0.075	794686	keystroke_e	e	n/a
397.5375	0.1055	795075	keystroke_c	c	n/a
397.762	0.0755	795524	keystroke_t	t	n/a
397.852	0.136	795704	keystroke_i	i	n/a
397.958	0.059	795916	keystroke_o	o	n/a
398.182	0.076	796364	keystroke_n	n	n/a
398.272	0.075	796544	keystroke_s	s	n/a
398.377	0.09	796754	keystroke_Key.space	Key.space	n/a
398.512	0.0605	797024	keystroke_d	d	n/a
398.662	0.0755	797324	keystroke_r	r	n/a
398.7675	0.1055	797535	keystroke_u	u	n/a
398.918	0.09	797836	keystroke_g	g	n/a
399.173	0.074	798346	keystroke_s	s	n/a
399.352	0.09	798704	keystroke_Key.enter	Key.enter	n/a
399.4495	6.1	798899	prompt	n/a	would painting marcus installation\n
400.163	0.06	800326	keystroke_w	w	n/a
400.253	0.135	800506	keystroke_o	o	n/a
400.388	0.075	800776	keystroke_u	u	n/a
400.568	0.075	801136	keystroke_l	l	n/a
400.643	0.0895	801286	keystroke_d	d	n/a
400.747	0.105	801494	keystroke_Key.space	Key.space	n/a
400.912	0.076	801824	keystroke_p	p	n/a
401.018	0.1045	802036	keystroke_a	a	n/a
401.1675	0.12	802335	keystroke_i	i	n/a
401.318	0.0895	802636	keystroke_n	n	n/a
401.3775	0.105	802755	keystroke_t	t	n/a
401.4975	0.1205	802995	keystroke_i	i	n/a
401.6325	0.0905	803265	keystroke_n	n	n/a
401.753	0.104	803506	keystroke_g	g	n/a
401.902	0.09	803804	keystroke_Key.space	Key.space	n/a
402.6075	0.09	805215	keystroke_m	m	n/a
402.743	0.075	805486	keystroke_a	a	n/a
402.8475	0.075	805695	keystroke_r	r	n/a
403.057	0.09	806114	keystroke_c	c	n/a
403.1775	0.09	806355	keystroke_u	u	n/a
403.3135	0.0735	806627	keystroke_s	s	n/a
403.417	0.106	806834	keystroke_Key.space	Key.space	n/a
403.6275	0.1355	807255	keystroke_i	i	n/a
403.733	0.105	807466	keystroke_n	n	n/a
403.883	0.18	807766	keystroke_s	s	n/a
404.048	0.105	808096	keystroke_t	t	n/a
404.1675	0.0905	808335	keystroke_a	a	n/a
404.273	0.0605	808546	keystroke_l	l	n/a
404.423	0.09	808846	keystroke_l	l	n/a
404.558	0.105	809116	keystroke_a	a	n/a
404.723	0.104	809446	keystroke_t	t	n/a
404.858	0.12	809716	keystroke_i	i	n/a
404.948	0.06	809896	keystroke_o	o	n/a
405.157	0.076	810314	keystroke_n	n	n/a
405.472	0.0755	810944	keystroke_Key.enter	Key.enter	n/a
405.5535	7.166	811107	prompt	n/a	messages responding various reads\n
406.222	0.09	812444	keystroke_m	m	n/a
406.373	0.06	812746	keystroke_a	a	n/a
406.6875	0.06	813375	keystroke_Key.backspace	Key.backspace	n/a
406.763	0.0895	813526	keystroke_e	e	n/a
406.9125	0.091	813825	keystroke_s	s	n/a
407.062	0.0905	814124	keystroke_s	s	n/a
407.2425	0.105	814485	keystroke_a	a	n/a
407.4675	0.0755	814935	keystroke_g	g	n/a
407.573	0.09	815146	keystroke_e	e	n/a
407.783	0.1045	815566	keystroke_s	s	n/a
407.9625	0.09	815925	keystroke_Key.space	Key.space	n/a
408.263	0.09	816526	keystroke_r	r	n/a
408.458	0.045	816916	keystroke_e	e	n/a
408.593	0.089	817186	keystroke_s	s	n/a
408.713	0.075	817426	keystroke_p	p	n/a
408.923	0.075	817846	keystroke_o	o	n/a
409.073	0.105	818146	keystroke_n	n	n/a
409.193	0.1045	818386	keystroke_d	d	n/a
409.3125	0.136	818625	keystroke_i	i	n/a
409.4025	0.12	818805	keystroke_n	n	n/a
409.5375	0.0755	819075	keystroke_g	g	n/a
409.6875	0.0895	819375	keystroke_Key.space	Key.space	n/a
410.2735	0.1045	820547	keystroke_v	v	n/a
410.513	0.105	821026	keystroke_a	a	n/a
410.678	0.0905	821356	keystroke_r	r	n/a
410.8735	0.1795	821747	keystroke_i	i	n/a
411.038	0.0595	822076	keystroke_o	o	n/a
411.113	0.1055	822226	keystroke_u	u	n/a
411.2475	0.0905	822495	keystroke_s	s	n/a
411.413	0.1045	822826	keystroke_Key.space	Key.space	n/a
411.908	0.0895	823816	keystroke_r	r	n/a
412.1035	0.104	824207	keystroke_e	e	n/a
412.2085	0.134	824417	keystroke_a	a	n/a
412.3275	0.1205	824655	keystroke_d	d	n/a
412.433	0.105	824866	keystroke_s	s	n/a
412.6125	0.1045	825225	keystroke_Key.enter	Key.enter	n/a
412.724	13.5555	825448	prompt	n/a	scenario termination disturbed translator\n
413.408	0.0755	826816	keystroke_s	s	n/a
413.573	0.1195	827146	keystroke_c	c	n/a
414.158	0.09	828316	keystroke_e	e	n/a
414.367	0.061	828734	keystroke_n	n	n/a
414.503	0.134	829006	keystroke_a	a	n/a
414.6675	0.0755	829335	keystroke_r	r	n/a
414.802	0.151	829604	keystroke_i	i	n/a
414.9685	0.0595	829937	keystroke_o	o	n/a
415.1775	0.0905	830355	keystroke_Key.space	Key.space	n/a
415.477	0.106	830954	keystroke_t	t	n/a
415.598	0.105	831196	keystroke_e	e	n/a
415.688	0.1045	831376	keystroke_r	r	n/a
416.377	0.1055	832754	keystroke_m	m	n/a
416.6625	0.12	833325	keystroke_i	i	n/a
416.7675	0.105	833535	keystroke_n	n	n/a
416.9475	0.135	833895	keystroke_a	a	n/a
417.143	0.075	834286	keystroke_t	t	n/a
417.263	0.15	834526	keystroke_i	i	n/a
417.3675	0.0605	834735	keystroke_o	o	n/a
417.578	0.105	835156	keystroke_n	n	n/a
417.683	0.09	835366	keystroke_Key.space	Key.space	n/a
417.9675	0.1045	835935	keystroke_d	d	n/a
418.088	0.0595	836176	keystroke_i	i	n/a
418.177	0.105	836354	keystroke_s	s	n/a
418.3425	0.1045	836685	keystroke_t	t	n/a
418.5225	0.0755	837045	keystroke_r	r	n/a
418.673	0.09	837346	keystroke_u	u	n/a
418.9125	0.105	837825	keystroke_b	b	n/a
419.198	0.0595	838396	keystroke_e	e	n/a
419.3625	0.0905	838725	keystroke_d	d	n/a
419.513	0.105	839026	keystroke_Key.space	Key.space	n/a
419.858	0.09	839716	keystroke_t	t	n/a
421.298	0.075	842596	keystroke_Key.backspace	Key.backspace	n/a
421.5375	0.06	843075	keystroke_Key.backspace	Key.backspace	n/a
421.7025	0.0755	843405	keystroke_Key.backspace	Key.backspace	n/a
421.8675	0.075	843735	keystroke_Key.backspace	Key.backspace	n/a
422.0775	0.045	844155	keystroke_Key.backspace	Key.backspace	n/a
422.258	0.075	844516	keystroke_Key.backspace	Key.backspace	n/a
422.4525	0.06	844905	keystroke_Key.backspace	Key.backspace	n/a
423.083	0.0595	846166	keystroke_u	u	n/a
423.158	0.0745	846316	keystroke_r	r	n/a
423.338	0.075	846676	keystroke_b	b	n/a
423.4735	0.059	846947	keystroke_e	e	n/a
423.6525	0.06	847305	keystroke_d	d	n/a
423.7275	0.0905	847455	keystroke_Key.space	Key.space	n/a
424.118	0.09	848236	keystroke_t	t	n/a
424.268	0.135	848536	keystroke_r	r	n/a
424.403	0.135	848806	keystroke_a	a	n/a
424.568	0.1045	849136	keystroke_n	n	n/a
424.688	0.09	849376	keystroke_s	s	n/a
424.9575	0.0905	849915	keystroke_l	l	n/a
425.392	0.135	850784	keystroke_a	a	n/a
425.573	0.075	851146	keystroke_t	t	n/a
425.753	0.075	851506	keystroke_o	o	n/a
425.857	0.076	851714	keystroke_r	r	n/a
426.218	0.0595	852436	keystroke_Key.enter	Key.enter	n/a
426.2835	5.2005	852567	prompt	n/a	gale breaks angry tattoo\n
427.3285	0.06	854657	keystroke_g	g	n/a
427.433	0.09	854866	keystroke_a	a	n/a
427.5835	0.059	855167	keystroke_l	l	n/a
427.7035	0.089	855407	keystroke_e	e	n/a
427.8675	0.105	855735	keystroke_Key.space	Key.space	n/a
428.1375	0.075	856275	keystroke_b	b	n/a
428.2425	0.075	856485	keystroke_r	r	n/a
428.408	0.075	856816	keystroke_e	e	n/a
428.4975	0.09	856995	keystroke_a	a	n/a
428.6175	0.106	857235	keystroke_k	k	n/a
428.7985	0.089	857597	keystroke_s	s	n/a
428.9475	0.09	857895	keystroke_Key.space	Key.space	n/a
429.2775	0.09	858555	keystroke_a	a	n/a
429.4885	0.09	858977	keystroke_n	n	n/a
429.7275	0.1205	859455	keystroke_g	g	n/a
429.9685	0.089	859937	keystroke_r	r	n/a
430.1185	0.0895	860237	keystroke_y	y	n/a
430.298	0.1045	860596	keystroke_Key.space	Key.space	n/a
430.5975	0.0905	861195	keystroke_t	t	n/a
430.688	0.135	861376	keystroke_a	a	n/a
430.838	0.0745	861676	keystroke_t	t	n/a
430.9725	0.09	861945	keystroke_t	t	n/a
431.1825	0.09	862365	keystroke_o	o	n/a
431.4075	0.075	862815	keystroke_Key.enter	Key.enter	n/a
431.49	7.3745	862980	prompt	n/a	connectivity strike accompanied fell\n
432.5325	0.1055	865065	keystroke_c	c	n/a
432.623	0.0745	865246	keystroke_o	o	n/a
432.8325	0.0605	865665	keystroke_n	n	n/a
432.9675	0.075	865935	keystroke_n	n	n/a
433.0125	0.0905	866025	keystroke_e	e	n/a
433.2225	0.06	866445	keystroke_c	c	n/a
433.403	0.075	866806	keystroke_t	t	n/a
433.5225	0.09	867045	keystroke_i	i	n/a
433.6875	0.1055	867375	keystroke_v	v	n/a
433.7775	0.105	867555	keystroke_i	i	n/a
433.943	0.0745	867886	keystroke_t	t	n/a
434.1225	0.075	868245	keystroke_y	y	n/a
434.3475	0.075	868695	keystroke_Key.space	Key.space	n/a
434.6175	0.1055	869235	keystroke_s	s	n/a
434.798	0.0755	869596	keystroke_t	t	n/a
434.9485	0.075	869897	keystroke_r	r	n/a
435.068	0.09	870136	keystroke_i	i	n/a
435.263	0.09	870526	keystroke_k	k	n/a
435.398	0.075	870796	keystroke_e	e	n/a
435.548	0.075	871096	keystroke_Key.space	Key.space	n/a
435.923	0.0455	871846	keystroke_a	a	n/a
436.073	0.074	872146	keystroke_c	c	n/a
436.208	0.1055	872416	keystroke_c	c	n/a
436.3425	0.075	872685	keystroke_o	o	n/a
436.5525	0.0905	873105	keystroke_m	m	n/a
436.748	0.06	873496	keystroke_p	p	n/a
436.9285	0.075	873857	keystroke_a	a	n/a
437.078	0.09	874156	keystroke_n	n	n/a
437.2275	0.076	874455	keystroke_i	i	n/a
437.3775	0.0605	874755	keystroke_e	e	n/a
437.5425	0.105	875085	keystroke_d	d	n/a
437.663	0.0895	875326	keystroke_Key.space	Key.space	n/a
438.1275	0.12	876255	keystroke_f	f	n/a
438.2935	0.089	876587	keystroke_e	e	n/a
438.4425	0.076	876885	keystroke_l	l	n/a
438.5775	0.0755	877155	keystroke_l	l	n/a
438.7875	0.0755	877575	keystroke_Key.enter	Key.enter	n/a
438.8695	8.65	877739	prompt	n/a	carries runs pencil gore\n
439.6125	0.075	879225	keystroke_c	c	n/a
439.808	0.1045	879616	keystroke_a	a	n/a
439.9725	0.046	879945	keystroke_r	r	n/a
440.093	0.0905	880186	keystroke_r	r	n/a
440.2285	0.075	880457	keystroke_i	i	n/a
440.333	0.0605	880666	keystroke_e	e	n/a
440.4525	0.105	880905	keystroke_s	s	n/a
440.6325	0.1205	881265	keystroke_Key.space	Key.space	n/a
440.993	0.09	881986	keystroke_r	r	n/a
441.098	0.075	882196	keystroke_u	u	n/a
441.307	0.106	882614	keystroke_n	n	n/a
441.4275	0.076	882855	keystroke_s	s	n/a
441.5175	0.1055	883035	keystroke_Key.space	Key.space	n/a
441.6525	0.0905	883305	keystroke_p	p	n/a
441.803	0.09	883606	keystroke_e	e	n/a
441.923	0.0905	883846	keystroke_n	n	n/a
442.1035	0.104	884207	keystroke_c	c	n/a
442.2375	0.0605	884475	keystroke_i	i	n/a
442.433	0.0595	884866	keystroke_l	l	n/a
442.778	0.075	885556	keystroke_e	e	n/a
442.943	0.075	885886	keystroke_Key.space	Key.space	n/a
443.363	0.045	886726	keystroke_g	g	n/a
445.043	0.06	890086	keystroke_Key.backspace	Key.backspace	n/a
445.238	0.06	890476	keystroke_Key.backspace	Key.backspace	n/a
445.4175	0.045	890835	keystroke_Key.backspace	Key.backspace	n/a
445.7625	0.075	891525	keystroke_Key.space	Key.space	n/a
446.7375	0.075	893475	keystroke_g	g	n/a
446.8575	0.076	893715	keystroke_o	o	n/a
447.023	0.0595	894046	keystroke_r	r	n/a
447.2335	0.0595	894467	keystroke_e	e	n/a
447.413	0.105	894826	keystroke_Key.enter	Key.enter	n/a
447.527	5.8425	895054	prompt	n/a	rocks financing chuck rural\n
447.998	0.045	895996	keystroke_c	c	n/a
448.268	0.045	896536	keystroke_Key.backspace	Key.backspace	n/a
448.403	0.09	896806	keystroke_r	r	n/a
448.553	0.075	897106	keystroke_o	o	n/a
448.658	0.105	897316	keystroke_c	c	n/a
448.8235	0.0895	897647	keystroke_k	k	n/a
448.958	0.075	897916	keystroke_s	s	n/a
449.063	0.105	898126	keystroke_Key.space	Key.space	n/a
449.318	0.09	898636	keystroke_f	f	n/a
449.423	0.1195	898846	keystroke_i	i	n/a
449.5275	0.091	899055	keystroke_n	n	n/a
449.6325	0.105	899265	keystroke_a	a	n/a
449.7525	0.1205	899505	keystroke_n	n	n/a
449.9025	0.09	899805	keystroke_c	c	n/a
450.0825	0.225	900165	keystroke_i	i	n/a
450.2635	0.104	900527	keystroke_n	n	n/a
450.3525	0.105	900705	keystroke_g	g	n/a
450.5175	0.09	901035	keystroke_Key.space	Key.space	n/a
451.3875	0.1055	902775	keystroke_c	c	n/a
451.478	0.075	902956	keystroke_h	h	n/a
451.658	0.09	903316	keystroke_u	u	n/a
451.808	0.075	903616	keystroke_c	c	n/a
451.958	0.075	903916	keystroke_k	k	n/a
452.078	0.105	904156	keystroke_Key.space	Key.space	n/a
452.393	0.105	904786	keystroke_r	r	n/a
452.663	0.0905	905326	keystroke_u	u	n/a
452.783	0.09	905566	keystroke_r	r	n/a
452.948	0.105	905896	keystroke_a	a	n/a
453.098	0.09	906196	keystroke_l	l	n/a
453.278	0.09	906556	keystroke_Key.enter	Key.enter	n/a
453.3745	5.53	906749	prompt	n/a	comm ranger applications dana\n
453.968	0.09	907936	keystroke_c	c	n/a
454.0735	0.0145	908147	keystroke_o	o	n/a
454.163	0.075	908326	keystroke_m	m	n/a
454.343	0.0605	908686	keystroke_m	m	n/a
454.478	0.09	908956	keystroke_Key.space	Key.space	n/a
454.688	0.09	909376	keystroke_r	r	n/a
454.808	0.12	909616	keystroke_a	a	n/a
454.973	0.09	909946	keystroke_n	n	n/a
455.198	0.075	910396	keystroke_g	g	n/a
455.333	0.12	910666	keystroke_e	e	n/a
455.468	0.075	910936	keystroke_r	r	n/a
455.573	0.09	911146	keystroke_Key.space	Key.space	n/a
455.813	0.0595	911626	keystroke_a	a	n/a
455.9325	0.075	911865	keystroke_p	p	n/a
456.0675	0.075	912135	keystroke_p	p	n/a
456.2625	0.0605	912525	keystroke_l	l	n/a
456.458	0.075	912916	keystroke_i	i	n/a
456.563	0.1055	913126	keystroke_c	c	n/a
456.713	0.105	913426	keystroke_a	a	n/a
456.908	0.0595	913816	keystroke_t	t	n/a
456.9975	0.12	913995	keystroke_i	i	n/a
457.073	0.09	914146	keystroke_o	o	n/a
457.283	0.0905	914566	keystroke_n	n	n/a
457.418	0.075	914836	keystroke_s	s	n/a
457.553	0.0895	915106	keystroke_Key.space	Key.space	n/a
457.8375	0.1055	915675	keystroke_d	d	n/a
458.003	0.06	916006	keystroke_a	a	n/a
458.033	0.105	916066	keystroke_n	n	n/a
458.588	0.09	917176	keystroke_a	a	n/a
458.828	0.0755	917656	keystroke_Key.enter	Key.enter	n/a
458.9085	9.282	917817	prompt	n/a	moments midnight access serve\n
459.4435	0.0895	918887	keystroke_m	m	n/a
459.623	0.045	919246	keystroke_o	o	n/a
459.7735	0.0745	919547	keystroke_m	m	n/a
459.8635	0.1495	919727	keystroke_e	e	n/a
460.118	0.075	920236	keystroke_n	n	n/a
460.208	0.105	920416	keystroke_t	t	n/a
460.3575	0.106	920715	keystroke_s	s	n/a
460.733	0.105	921466	keystroke_Key.space	Key.space	n/a
461.3925	0.061	922785	keystroke_m	m	n/a
461.5725	0.076	923145	keystroke_i	i	n/a
461.678	0.105	923356	keystroke_d	d	n/a
461.7985	0.09	923597	keystroke_n	n	n/a
461.933	0.1195	923866	keystroke_g	g	n/a
462.0375	0.105	924075	keystroke_i	i	n/a
462.2635	0.09	924527	keystroke_h	h	n/a
462.637	0.061	925274	keystroke_Key.backspace	Key.backspace	n/a
462.773	0.0755	925546	keystroke_Key.backspace	Key.backspace	n/a
462.923	0.06	925846	keystroke_Key.backspace	Key.backspace	n/a
463.1625	0.045	926325	keystroke_i	i	n/a
463.2675	0.0905	926535	keystroke_g	g	n/a
464.228	0.06	928456	keystroke_h	h	n/a
464.363	0.075	928726	keystroke_t	t	n/a
464.573	0.09	929146	keystroke_Key.space	Key.space	n/a
465.2935	0.09	930587	keystroke_a	a	n/a
465.5025	0.0605	931005	keystroke_c	c	n/a
465.6385	0.1045	931277	keystroke_c	c	n/a
465.878	0.09	931756	keystroke_e	e	n/a
466.043	0.075	932086	keystroke_s	s	n/a
466.193	0.076	932386	keystroke_s	s	n/a
466.389	0.089	932778	keystroke_Key.space	Key.space	n/a
466.6275	0.135	933255	keystroke_s	s	n/a
466.7775	0.12	933555	keystroke_e	e	n/a
466.9735	0.104	933947	keystroke_r	r	n/a
467.3175	0.1055	934635	keystroke_v	v	n/a
467.5285	0.149	935057	keystroke_e	e	n/a
468.1125	0.076	936225	keystroke_Key.enter	Key.enter	n/a
468.1945	6.7155	936389	prompt	n/a	still outputs bacterial plasma\n
468.7435	0.119	937487	keystroke_s	s	n/a
468.9385	0.075	937877	keystroke_t	t	n/a
469.0435	0.074	938087	keystroke_i	i	n/a
469.223	0.0595	938446	keystroke_l	l	n/a
469.3425	0.09	938685	keystroke_l	l	n/a
469.4775	0.12	938955	keystroke_Key.space	Key.space	n/a
469.6285	0.15	939257	keystroke_o	o	n/a
469.748	0.1045	939496	keystroke_u	u	n/a
469.8685	0.0745	939737	keystroke_t	t	n/a
470.0485	0.0895	940097	keystroke_p	p	n/a
470.243	0.09	940486	keystroke_u	u	n/a
470.363	0.09	940726	keystroke_t	t	n/a
470.529	0.074	941058	keystroke_s	s	n/a
470.663	0.09	941326	keystroke_Key.space	Key.space	n/a
471.248	0.0755	942496	keystroke_b	b	n/a
471.3385	0.12	942677	keystroke_a	a	n/a
471.5325	0.1505	943065	keystroke_c	c	n/a
471.8935	0.075	943787	keystroke_t	t	n/a
472.0275	0.106	944055	keystroke_e	e	n/a
472.1335	0.075	944267	keystroke_r	r	n/a
472.2385	0.075	944477	keystroke_i	i	n/a
472.3585	0.105	944717	keystroke_a	a	n/a
472.5375	0.076	945075	keystroke_l	l	n/a
472.6735	0.1045	945347	keystroke_Key.space	Key.space	n/a
473.798	0.09	947596	keystroke_p	p	n/a
474.038	0.06	948076	keystroke_l	l	n/a
474.1285	0.135	948257	keystroke_a	a	n/a
474.278	0.1345	948556	keystroke_s	s	n/a
474.503	0.0905	949006	keystroke_m	m	n/a
474.653	0.1045	949306	keystroke_a	a	n/a
474.833	0.075	949666	keystroke_Key.enter	Key.enter	n/a
474.9145	7.0905	949829	prompt	n/a	boot whole kong mason\n
475.538	0.0905	951076	keystroke_b	b	n/a
475.7635	0.0295	951527	keystroke_o	o	n/a
475.8835	0.0745	951767	keystroke_o	o	n/a
476.018	0.09	952036	keystroke_t	t	n/a
476.258	0.09	952516	keystroke_Key.space	Key.space	n/a
476.468	0.0605	952936	keystroke_w	w	n/a
476.6325	0.09	953265	keystroke_h	h	n/a
476.8275	0.091	953655	keystroke_o	o	n/a
477.038	0.0605	954076	keystroke_l	l	n/a
477.1285	0.09	954257	keystroke_e	e	n/a
477.2325	0.09	954465	keystroke_Key.space	Key.space	n/a
477.5175	0.061	955035	keystroke_k	k	n/a
477.6685	0.06	955337	keystroke_i	i	n/a
477.8325	0.0905	955665	keystroke_n	n	n/a
477.9535	0.105	955907	keystroke_g	g	n/a
478.073	0.09	956146	keystroke_Key.space	Key.space	n/a
478.508	0.0455	957016	keystroke_Key.backspace	Key.backspace	n/a
478.643	0.06	957286	keystroke_Key.backspace	Key.backspace	n/a
478.793	0.06	957586	keystroke_Key.backspace	Key.backspace	n/a
478.9735	0.0445	957947	keystroke_Key.backspace	Key.backspace	n/a
479.603	0.06	959206	keystroke_o	o	n/a
479.798	0.09	959596	keystroke_n	n	n/a
479.903	0.09	959806	keystroke_g	g	n/a
480.008	0.1045	960016	keystroke_Key.space	Key.space	n/a
480.1285	0.074	960257	keystroke_m	m	n/a
480.3375	0.061	960675	keystroke_i	i	n/a
480.443	0.06	960886	keystroke_s	s	n/a
480.8485	0.06	961697	keystroke_Key.backspace	Key.backspace	n/a
481.1035	0.06	962207	keystroke_Key.backspace	Key.backspace	n/a
481.2385	0.135	962477	keystroke_a	a	n/a
481.3585	0.105	962717	keystroke_s	s	n/a
481.568	0.06	963136	keystroke_o	o	n/a
481.748	0.0755	963496	keystroke_n	n	n/a
481.928	0.075	963856	keystroke_Key.enter	Key.enter	n/a
482.0095	5.5155	964019	prompt	n/a	cited owns season slip\n
482.5285	0.105	965057	keystroke_c	c	n/a
482.648	0.0755	965296	keystroke_i	i	n/a
482.7825	0.0905	965565	keystroke_t	t	n/a
483.0235	0.0595	966047	keystroke_e	e	n/a
483.188	0.0755	966376	keystroke_d	d	n/a
483.293	0.1205	966586	keystroke_Key.space	Key.space	n/a
483.5635	0.06	967127	keystroke_o	o	n/a
483.6835	0.06	967367	keystroke_w	w	n/a
483.8635	0.075	967727	keystroke_n	n	n/a
483.9685	0.09	967937	keystroke_s	s	n/a
484.1035	0.09	968207	keystroke_Key.space	Key.space	n/a
484.4185	0.0895	968837	keystroke_s	s	n/a
484.628	0.18	969256	keystroke_e	e	n/a
484.793	0.18	969586	keystroke_a	a	n/a
484.9585	0.105	969917	keystroke_s	s	n/a
485.108	0.075	970216	keystroke_o	o	n/a
485.3035	0.09	970607	keystroke_n	n	n/a
485.453	0.0895	970906	keystroke_Key.space	Key.space	n/a
485.5725	0.09	971145	keystroke_s	s	n/a
485.918	0.09	971836	keystroke_l	l	n/a
486.1285	0.09	972257	keystroke_i	i	n/a
486.2935	0.06	972587	keystroke_p	p	n/a
487.463	0.06	974926	keystroke_Key.enter	Key.enter	n/a
487.5285	7.376	975057	prompt	n/a	concluded burst nuke jeffrey\n
488.228	0.106	976456	keystroke_c	c	n/a
488.3485	0.0595	976697	keystroke_o	o	n/a
488.513	0.09	977026	keystroke_n	n	n/a
488.618	0.0905	977236	keystroke_c	c	n/a
488.783	0.165	977566	keystroke_l	l	n/a
488.963	0.09	977926	keystroke_u	u	n/a
489.1135	0.0895	978227	keystroke_d	d	n/a
489.2935	0.074	978587	keystroke_e	e	n/a
489.458	0.0905	978916	keystroke_d	d	n/a
489.578	0.0905	979156	keystroke_Key.space	Key.space	n/a
489.9235	0.12	979847	keystroke_b	b	n/a
490.0435	0.075	980087	keystroke_u	u	n/a
490.2075	0.121	980415	keystroke_r	r	n/a
490.343	0.1345	980686	keystroke_s	s	n/a
490.5075	0.091	981015	keystroke_t	t	n/a
490.628	0.1045	981256	keystroke_Key.space	Key.space	n/a
490.8385	0.075	981677	keystroke_n	n	n/a
491.0325	0.0755	982065	keystroke_u	u	n/a
491.2285	0.0745	982457	keystroke_k	k	n/a
491.3335	0.09	982667	keystroke_e	e	n/a
491.438	0.0895	982876	keystroke_Key.space	Key.space	n/a
491.6775	0.0755	983355	keystroke_h	h	n/a
492.0385	0.06	984077	keystroke_Key.backspace	Key.backspace	n/a
492.2785	0.0745	984557	keystroke_j	j	n/a
492.398	0.12	984796	keystroke_e	e	n/a
492.7735	0.09	985547	keystroke_f	f	n/a
492.953	0.0895	985906	keystroke_f	f	n/a
493.1335	0.12	986267	keystroke_e	e	n/a
493.238	0.0905	986476	keystroke_r	r	n/a
493.583	0.06	987166	keystroke_Key.backspace	Key.backspace	n/a
493.733	0.06	987466	keystroke_Key.backspace	Key.backspace	n/a
494.0785	0.1045	988157	keystroke_r	r	n/a
494.1685	0.1195	988337	keystroke_e	e	n/a
494.4835	0.1195	988967	keystroke_y	y	n/a
494.828	0.075	989656	keystroke_Key.enter	Key.enter	n/a
494.909	6.641	989818	prompt	n/a	only kevin addiction loan\n
495.5485	0.074	991097	keystroke_o	o	n/a
495.743	0.0905	991486	keystroke_n	n	n/a
495.9535	0.0895	991907	keystroke_l	l	n/a
496.148	0.076	992296	keystroke_y	y	n/a
496.283	0.12	992566	keystroke_Key.space	Key.space	n/a
496.4185	0.1045	992837	keystroke_k	k	n/a
496.5835	0.0755	993167	keystroke_e	e	n/a
496.808	0.09	993616	keystroke_v	v	n/a
496.928	0.135	993856	keystroke_i	i	n/a
497.018	0.135	994036	keystroke_n	n	n/a
497.2285	0.075	994457	keystroke_Key.space	Key.space	n/a
497.4825	0.121	994965	keystroke_a	a	n/a
497.6475	0.0605	995295	keystroke_d	d	n/a
497.768	0.105	995536	keystroke_d	d	n/a
497.8885	0.09	995777	keystroke_i	i	n/a
497.9785	0.1195	995957	keystroke_c	c	n/a
498.113	0.1055	996226	keystroke_a	a	n/a
498.2785	0.09	996557	keystroke_t	t	n/a
498.3835	0.135	996767	keystroke_i	i	n/a
498.4885	0.075	996977	keystroke_o	o	n/a
498.8635	0.045	997727	keystroke_Key.backspace	Key.backspace	n/a
498.9985	0.045	997997	keystroke_Key.backspace	Key.backspace	n/a
499.1185	0.09	998237	keystroke_Key.backspace	Key.backspace	n/a
499.4935	0.075	998987	keystroke_Key.backspace	Key.backspace	n/a
499.6585	0.075	999317	keystroke_t	t	n/a
499.793	0.1505	999586	keystroke_i	i	n/a
499.9285	0.0745	999857	keystroke_o	o	n/a
500.123	0.0755	1000246	keystroke_n	n	n/a
500.468	0.075	1000936	keystroke_Key.space	Key.space	n/a
500.8885	0.0605	1001777	keystroke_l	l	n/a
501.0385	0.06	1002077	keystroke_o	o	n/a
501.144	0.0895	1002288	keystroke_a	a	n/a
501.2785	0.0895	1002557	keystroke_n	n	n/a
501.4735	0.075	1002947	keystroke_Key.enter	Key.enter	n/a
501.554	8.081	1003108	prompt	n/a	grande milton alternatives taste\n
502.793	0.0755	1005586	keystroke_g	g	n/a
502.913	0.09	1005826	keystroke_r	r	n/a
503.0185	0.09	1006037	keystroke_a	a	n/a
503.154	0.09	1006308	keystroke_n	n	n/a
503.348	0.0755	1006696	keystroke_d	d	n/a
503.513	0.0765	1007026	keystroke_e	e	n/a
503.6325	0.0605	1007265	keystroke_Key.space	Key.space	n/a
503.7535	0.105	1007507	keystroke_m	m	n/a
503.9635	0.075	1007927	keystroke_i	i	n/a
504.1585	0.105	1008317	keystroke_l	l	n/a
504.2785	0.105	1008557	keystroke_t	t	n/a
504.4285	0.075	1008857	keystroke_o	o	n/a
504.639	0.0895	1009278	keystroke_n	n	n/a
504.7885	0.074	1009577	keystroke_Key.space	Key.space	n/a
504.9235	0.105	1009847	keystroke_a	a	n/a
505.0585	0.0745	1010117	keystroke_l	l	n/a
505.208	0.0905	1010416	keystroke_t	t	n/a
505.3585	0.09	1010717	keystroke_e	e	n/a
505.4335	0.0895	1010867	keystroke_r	r	n/a
505.628	0.075	1011256	keystroke_a	a	n/a
505.643	0.1355	1011286	keystroke_n	n	n/a
506.318	0.1055	1012636	keystroke_Key.backspace	Key.backspace	n/a
506.453	0.0755	1012906	keystroke_Key.backspace	Key.backspace	n/a
506.7085	0.075	1013417	keystroke_n	n	n/a
506.7985	0.135	1013597	keystroke_a	a	n/a
506.9485	0.09	1013897	keystroke_t	t	n/a
507.0835	0.09	1014167	keystroke_i	i	n/a
507.2185	0.105	1014437	keystroke_v	v	n/a
507.4135	0.075	1014827	keystroke_e	e	n/a
507.623	0.06	1015246	keystroke_s	s	n/a
507.7885	0.0895	1015577	keystroke_Key.space	Key.space	n/a
508.058	0.105	1016116	keystroke_t	t	n/a
508.2535	0.105	1016507	keystroke_s	s	n/a
508.6285	0.0595	1017257	keystroke_Key.backspace	Key.backspace	n/a
508.719	0.1345	1017438	keystroke_a	a	n/a
508.808	0.165	1017616	keystroke_s	s	n/a
509.004	0.0895	1018008	keystroke_t	t	n/a
509.3635	0.0595	1018727	keystroke_e	e	n/a
509.543	0.09	1019086	keystroke_Key.enter	Key.enter	n/a
509.638	10.137	1019276	prompt	n/a	submitted america pantyhose leaving\n
510.279	0.104	1020558	keystroke_s	s	n/a
510.3385	0.1645	1020677	keystroke_u	u	n/a
510.504	0.0745	1021008	keystroke_b	b	n/a
510.6985	0.1345	1021397	keystroke_m	m	n/a
510.834	0.0745	1021668	keystroke_i	i	n/a
510.954	0.074	1021908	keystroke_t	t	n/a
511.0885	0.09	1022177	keystroke_t	t	n/a
511.2235	0.09	1022447	keystroke_e	e	n/a
511.433	0.06	1022866	keystroke_d	d	n/a
511.553	0.09	1023106	keystroke_Key.space	Key.space	n/a
511.8535	0.119	1023707	keystroke_a	a	n/a
512.0785	0.1055	1024157	keystroke_m	m	n/a
512.2285	0.075	1024457	keystroke_e	e	n/a
512.3785	0.075	1024757	keystroke_r	r	n/a
512.5285	0.1045	1025057	keystroke_i	i	n/a
512.6485	0.1045	1025297	keystroke_c	c	n/a
512.8285	0.105	1025657	keystroke_a	a	n/a
512.993	0.075	1025986	keystroke_Key.space	Key.space	n/a
513.2485	0.0595	1026497	keystroke_p	p	n/a
513.488	0.075	1026976	keystroke_a	a	n/a
513.6685	0.0595	1027337	keystroke_n	n	n/a
513.8635	0.074	1027727	keystroke_y	y	n/a
514.0285	0.089	1028057	keystroke_t	t	n/a
515.2585	0.0595	1030517	keystroke_Key.backspace	Key.backspace	n/a
515.393	0.0755	1030786	keystroke_Key.backspace	Key.backspace	n/a
516.1135	0.09	1032227	keystroke_t	t	n/a
516.3685	0.06	1032737	keystroke_y	y	n/a
516.7585	0.075	1033517	keystroke_h	h	n/a
516.9535	0.105	1033907	keystroke_o	o	n/a
517.313	0.1055	1034626	keystroke_s	s	n/a
517.6885	0.0595	1035377	keystroke_e	e	n/a
518.138	0.1055	1036276	keystroke_Key.space	Key.space	n/a
518.498	0.0905	1036996	keystroke_l	l	n/a
518.574	0.1045	1037148	keystroke_e	e	n/a
518.6485	0.1055	1037297	keystroke_a	a	n/a
518.828	0.135	1037656	keystroke_v	v	n/a
519.008	0.2855	1038016	keystroke_i	i	n/a
519.263	0.12	1038526	keystroke_n	n	n/a
519.398	0.1055	1038796	keystroke_g	g	n/a
519.6835	0.0895	1039367	keystroke_Key.enter	Key.enter	n/a
519.7795	6.3255	1039559	prompt	n/a	models who'll node director\n
520.3125	0.091	1040625	keystroke_m	m	n/a
520.5235	0.06	1041047	keystroke_o	o	n/a
520.6135	0.075	1041227	keystroke_d	d	n/a
520.7635	0.075	1041527	keystroke_e	e	n/a
520.898	0.0755	1041796	keystroke_l	l	n/a
521.0035	0.0895	1042007	keystroke_s	s	n/a
521.2585	0.075	1042517	keystroke_Key.space	Key.space	n/a
521.8435	0.09	1043687	keystroke_w	w	n/a
521.9485	0.075	1043897	keystroke_h	h	n/a
522.0985	0.075	1044197	keystroke_o	o	n/a
522.3835	0.06	1044767	keystroke_'	'	n/a
522.9835	0.0445	1045967	keystroke_l	l	n/a
523.134	0.044	1046268	keystroke_l	l	n/a
523.4785	0.075	1046957	keystroke_Key.space	Key.space	n/a
523.883	0.09	1047766	keystroke_n	n	n/a
524.1385	0.0445	1048277	keystroke_o	o	n/a
524.2285	0.0895	1048457	keystroke_d	d	n/a
524.3785	0.1045	1048757	keystroke_e	e	n/a
524.543	0.075	1049086	keystroke_Key.space	Key.space	n/a
524.8885	0.0745	1049777	keystroke_d	d	n/a
525.008	0.0905	1050016	keystroke_i	i	n/a
525.1285	0.0605	1050257	keystroke_r	r	n/a
525.264	0.1045	1050528	keystroke_e	e	n/a
525.5035	0.045	1051007	keystroke_c	c	n/a
525.6535	0.075	1051307	keystroke_t	t	n/a
525.7735	0.075	1051547	keystroke_o	o	n/a
525.8785	0.075	1051757	keystroke_r	r	n/a
526.0135	0.09	1052027	keystroke_Key.enter	Key.enter	n/a
526.112	6.098	1052224	prompt	n/a	eugene express choose we're\n
527.183	0.061	1054366	keystroke_e	e	n/a
527.4235	0.09	1054847	keystroke_u	u	n/a
527.6335	0.12	1055267	keystroke_g	g	n/a
527.739	0.09	1055478	keystroke_e	e	n/a
527.8585	0.12	1055717	keystroke_n	n	n/a
528.0085	0.075	1056017	keystroke_e	e	n/a
528.1735	0.0895	1056347	keystroke_Key.space	Key.space	n/a
528.473	0.061	1056946	keystroke_e	e	n/a
528.638	0.105	1057276	keystroke_x	x	n/a
528.7735	0.09	1057547	keystroke_p	p	n/a
528.878	0.09	1057756	keystroke_r	r	n/a
529.058	0.06	1058116	keystroke_e	e	n/a
529.224	0.0595	1058448	keystroke_s	s	n/a
529.3435	0.09	1058687	keystroke_s	s	n/a
529.4635	0.105	1058927	keystroke_Key.space	Key.space	n/a
529.5985	0.105	1059197	keystroke_c	c	n/a
529.733	0.061	1059466	keystroke_h	h	n/a
529.898	0.0605	1059796	keystroke_o	o	n/a
530.0335	0.0745	1060067	keystroke_o	o	n/a
530.1685	0.1045	1060337	keystroke_s	s	n/a
530.303	0.075	1060606	keystroke_e	e	n/a
530.5285	0.075	1061057	keystroke_Key.space	Key.space	n/a
531.039	0.1045	1062078	keystroke_w	w	n/a
531.128	0.09	1062256	keystroke_e	e	n/a
531.308	0.076	1062616	keystroke_'	'	n/a
531.578	0.076	1063156	keystroke_r	r	n/a
531.804	0.074	1063608	keystroke_e	e	n/a
532.134	0.074	1064268	keystroke_Key.enter	Key.enter	n/a
532.2145	4.525	1064429	prompt	n/a	prayers pray matches know\n
532.869	0.015	1065738	keystroke_p	p	n/a
533.1235	0.135	1066247	keystroke_r	r	n/a
533.2735	0.1205	1066547	keystroke_a	a	n/a
533.4235	0.09	1066847	keystroke_y	y	n/a
533.5285	0.105	1067057	keystroke_e	e	n/a
533.7085	0.0905	1067417	keystroke_r	r	n/a
533.874	0.0895	1067748	keystroke_s	s	n/a
534.0235	0.075	1068047	keystroke_Key.space	Key.space	n/a
534.1585	0.075	1068317	keystroke_p	p	n/a
534.2635	0.105	1068527	keystroke_r	r	n/a
534.4285	0.165	1068857	keystroke_a	a	n/a
534.684	0.074	1069368	keystroke_y	y	n/a
534.833	0.09	1069666	keystroke_Key.space	Key.space	n/a
535.0735	0.075	1070147	keystroke_m	m	n/a
535.1785	0.105	1070357	keystroke_a	a	n/a
535.298	0.061	1070596	keystroke_t	t	n/a
535.5235	0.09	1071047	keystroke_c	c	n/a
535.6435	0.09	1071287	keystroke_h	h	n/a
535.7485	0.0905	1071497	keystroke_e	e	n/a
535.8685	0.106	1071737	keystroke_s	s	n/a
535.9585	0.12	1071917	keystroke_Key.space	Key.space	n/a
536.1235	0.09	1072247	keystroke_k	k	n/a
536.2285	0.106	1072457	keystroke_n	n	n/a
536.4235	0.0445	1072847	keystroke_o	o	n/a
536.5285	0.075	1073057	keystroke_w	w	n/a
536.6635	0.075	1073327	keystroke_Key.enter	Key.enter	n/a
536.743	5.232	1073486	prompt	n/a	allah brick breeds iowa\n
537.3385	0.075	1074677	keystroke_a	a	n/a
537.4585	0.06	1074917	keystroke_l	l	n/a
537.5935	0.06	1075187	keystroke_l	l	n/a
537.7135	0.1055	1075427	keystroke_a	a	n/a
537.848	0.09	1075696	keystroke_h	h	n/a
538.0585	0.0745	1076117	keystroke_Key.space	Key.space	n/a
538.224	0.089	1076448	keystroke_b	b	n/a
538.328	0.076	1076656	keystroke_r	r	n/a
538.4935	0.075	1076987	keystroke_i	i	n/a
538.644	0.089	1077288	keystroke_c	c	n/a
538.793	0.091	1077586	keystroke_k	k	n/a
538.9285	0.0745	1077857	keystroke_Key.space	Key.space	n/a
539.0935	0.075	1078187	keystroke_b	b	n/a
539.1385	0.09	1078277	keystroke_r	r	n/a
539.3035	0.075	1078607	keystroke_e	e	n/a
539.4535	0.075	1078907	keystroke_e	e	n/a
539.6475	0.091	1079295	keystroke_d	d	n/a
539.7835	0.0755	1079567	keystroke_s	s	n/a
539.8735	0.09	1079747	keystroke_Key.space	Key.space	n/a
540.039	0.09	1080078	keystroke_i	i	n/a
540.653	0.0755	1081306	keystroke_o	o	n/a
541.0585	0.075	1082117	keystroke_w	w	n/a
541.3135	0.105	1082627	keystroke_a	a	n/a
541.8835	0.09	1083767	keystroke_Key.enter	Key.enter	n/a
541.98	5.1855	1083960	prompt	n/a	tired thing itunes excited\n
542.6185	0.09	1085237	keystroke_t	t	n/a
542.813	0.076	1085626	keystroke_i	i	n/a
542.919	0.09	1085838	keystroke_r	r	n/a
543.1135	0.09	1086227	keystroke_e	e	n/a
543.3085	0.09	1086617	keystroke_d	d	n/a
543.4285	0.075	1086857	keystroke_Key.space	Key.space	n/a
543.5785	0.075	1087157	keystroke_t	t	n/a
543.6685	0.1055	1087337	keystroke_h	h	n/a
543.7745	0.074	1087549	keystroke_i	i	n/a
543.8935	0.09	1087787	keystroke_n	n	n/a
543.9985	0.0905	1087997	keystroke_g	g	n/a
544.0735	0.105	1088147	keystroke_Key.space	Key.space	n/a
544.2535	0.1045	1088507	keystroke_i	i	n/a
544.373	0.0905	1088746	keystroke_t	t	n/a
544.5985	0.045	1089197	keystroke_e	e	n/a
544.898	0.06	1089796	keystroke_Key.backspace	Key.backspace	n/a
545.138	0.0755	1090276	keystroke_u	u	n/a
545.334	0.089	1090668	keystroke_n	n	n/a
545.439	0.1045	1090878	keystroke_e	e	n/a
545.558	0.105	1091116	keystroke_s	s	n/a
545.6785	0.0895	1091357	keystroke_Key.space	Key.space	n/a
546.0085	0.075	1092017	keystroke_e	e	n/a
546.2185	0.105	1092437	keystroke_x	x	n/a
546.3835	0.105	1092767	keystroke_c	c	n/a
546.5485	0.09	1093097	keystroke_i	i	n/a
546.6535	0.075	1093307	keystroke_t	t	n/a
546.7735	0.075	1093547	keystroke_e	e	n/a
546.9535	0.09	1093907	keystroke_d	d	n/a
547.088	0.0755	1094176	keystroke_Key.enter	Key.enter	n/a
547.1695	8.0505	1094339	prompt	n/a	ethical blvd broadband machine\n
547.8535	0.105	1095707	keystroke_e	e	n/a
548.0785	0.075	1096157	keystroke_t	t	n/a
548.214	0.09	1096428	keystroke_h	h	n/a
548.5885	0.075	1097177	keystroke_i	i	n/a
548.7685	0.09	1097537	keystroke_c	c	n/a
548.9335	0.09	1097867	keystroke_a	a	n/a
549.0835	0.09	1098167	keystroke_l	l	n/a
549.2635	0.105	1098527	keystroke_Key.space	Key.space	n/a
549.5935	0.075	1099187	keystroke_b	b	n/a
549.8035	0.06	1099607	keystroke_l	l	n/a
549.984	0.09	1099968	keystroke_v	v	n/a
550.3585	0.0905	1100717	keystroke_s	s	n/a
550.7935	0.06	1101587	keystroke_Key.backspace	Key.backspace	n/a
550.8385	0.0755	1101677	keystroke_d	d	n/a
551.318	0.0455	1102636	keystroke_Key.space	Key.space	n/a
551.828	0.0755	1103656	keystroke_b	b	n/a
