onset	duration	sample	value	key	prompt_text
4.4755	7.8515	8951	prompt	n/a	the quick brown fox jumps over a lazy dog\n
6.2065	0.001	12413	keystroke_t	t	n/a
6.3545	0.0905	12709	keystroke_h	h	n/a
6.459	0.09	12918	keystroke_e	e	n/a
6.594	0.09	13188	keystroke_Key.space	Key.space	n/a
6.775	0.104	13550	keystroke_q	q	n/a
6.909	0.135	13818	keystroke_u	u	n/a
6.984	0.105	13968	keystroke_i	i	n/a
7.134	0.09	14268	keystroke_c	c	n/a
7.239	0.09	14478	keystroke_k	k	n/a
7.434	0.09	14868	keystroke_Key.space	Key.space	n/a
7.689	0.105	15378	keystroke_b	b	n/a
8.019	0.105	16038	keystroke_r	r	n/a
8.3645	0.075	16729	keystroke_o	o	n/a
8.485	0.105	16970	keystroke_w	w	n/a
8.605	0.0595	17210	keystroke_n	n	n/a
8.7695	0.075	17539	keystroke_Key.space	Key.space	n/a
8.8595	0.075	17719	keystroke_f	f	n/a
8.9945	0.0755	17989	keystroke_o	o	n/a
9.085	0.105	18170	keystroke_x	x	n/a
9.19	0.075	18380	keystroke_Key.space	Key.space	n/a
9.385	0.06	18770	keystroke_j	j	n/a
9.52	0.06	19040	keystroke_u	u	n/a
9.7	0.09	19400	keystroke_m	m	n/a
9.895	0.09	19790	keystroke_p	p	n/a
10.015	0.105	20030	keystroke_s	s	n/a
10.105	0.09	20210	keystroke_Key.space	Key.space	n/a
10.285	0.105	20570	keystroke_o	o	n/a
10.36	0.06	20720	keystroke_v	v	n/a
10.5095	0.09	21019	keystroke_e	e	n/a
10.5695	0.105	21139	keystroke_r	r	n/a
10.6595	0.0905	21319	keystroke_Key.space	Key.space	n/a
10.78	0.09	21560	keystroke_a	a	n/a
10.9	0.0895	21800	keystroke_Key.space	Key.space	n/a
11.1245	0.105	22249	keystroke_l	l	n/a
11.1845	0.09	22369	keystroke_a	a	n/a
11.3945	0.135	22789	keystroke_z	z	n/a
11.5145	0.06	23029	keystroke_y	y	n/a
11.6945	0.09	23389	keystroke_Key.space	Key.space	n/a
11.785	0.0895	23570	keystroke_d	d	n/a
11.904	0.12	23808	keystroke_o	o	n/a
12.1	0.09	24200	keystroke_g	g	n/a
12.2045	0.12	24409	keystroke_Key.enter	Key.enter	n/a
12.3315	8.32	24663	prompt	n/a	firewire mistress managed cassette\n
13.075	0.06	26150	keystroke_f	f	n/a
13.165	0.12	26330	keystroke_i	i	n/a
13.27	0.15	26540	keystroke_r	r	n/a
13.36	0.12	26720	keystroke_e	e	n/a
13.585	0.09	27170	keystroke_w	w	n/a
13.75	0.1195	27500	keystroke_i	i	n/a
13.8545	0.135	27709	keystroke_r	r	n/a
13.9295	0.105	27859	keystroke_e	e	n/a
14.0795	0.09	28159	keystroke_Key.space	Key.space	n/a
14.3495	0.1205	28699	keystroke_m	m	n/a
14.605	0.105	29210	keystroke_i	i	n/a
14.65	0.105	29300	keystroke_s	s	n/a
14.875	0.06	29750	keystroke_t	t	n/a
15.055	0.15	30110	keystroke_r	r	n/a
15.145	0.105	30290	keystroke_e	e	n/a
15.355	0.075	30710	keystroke_s	s	n/a
15.52	0.06	31040	keystroke_s	s	n/a
15.595	0.075	31190	keystroke_Key.space	Key.space	n/a
15.8045	0.105	31609	keystroke_m	m	n/a
15.9845	0.105	31969	keystroke_a	a	n/a
16.1795	0.1045	32359	keystroke_n	n	n/a
16.2995	0.1055	32599	keystroke_a	a	n/a
16.449	0.075	32898	keystroke_g	g	n/a
16.5545	0.09	33109	keystroke_e	e	n/a
16.7495	0.075	33499	keystroke_d	d	n/a
16.8395	0.09	33679	keystroke_Key.space	Key.space	n/a
17.725	0.075	35450	keystroke_c	c	n/a
17.92	0.12	35840	keystroke_a	a	n/a
17.98	0.1195	35960	keystroke_s	s	n/a
19.2245	0.1205	38449	keystroke_s	s	n/a
19.39	0.105	38780	keystroke_e	e	n/a
20.02	0.09	40040	keystroke_t	t	n/a
20.185	0.12	40370	keystroke_t	t	n/a
20.29	0.12	40580	keystroke_e	e	n/a
20.4995	0.15	40999	keystroke_Key.enter	Key.enter	n/a
20.6545	7.617	41309	prompt	n/a	regularly airplane coast democratic\n
21.55	0.1495	43100	keystroke_r	r	n/a
21.6245	0.1505	43249	keystroke_e	e	n/a
21.9545	0.09	43909	keystroke_g	g	n/a
22.1055	0.119	44211	keystroke_u	u	n/a
22.3595	0.1505	44719	keystroke_l	l	n/a
22.66	0.105	45320	keystroke_a	a	n/a
22.8695	0.075	45739	keystroke_r	r	n/a
22.9595	0.09	45919	keystroke_l	l	n/a
23.1845	0.075	46369	keystroke_y	y	n/a
23.41	0.09	46820	keystroke_Key.space	Key.space	n/a
23.905	0.12	47810	keystroke_a	a	n/a
24.071	0.104	48142	keystroke_i	i	n/a
24.19	0.06	48380	keystroke_r	r	n/a
24.325	0.225	48650	keystroke_p	p	n/a
24.52	0.1495	49040	keystroke_l	l	n/a
24.6995	0.1205	49399	keystroke_a	a	n/a
24.835	0.105	49670	keystroke_n	n	n/a
24.955	0.075	49910	keystroke_e	e	n/a
25.09	0.105	50180	keystroke_Key.space	Key.space	n/a
25.75	0.09	51500	keystroke_c	c	n/a
26.1095	0.09	52219	keystroke_o	o	n/a
26.2445	0.1655	52489	keystroke_a	a	n/a
26.335	0.12	52670	keystroke_s	s	n/a
26.619	0.09	53238	keystroke_t	t	n/a
26.724	0.12	53448	keystroke_Key.space	Key.space	n/a
26.919	0.12	53838	keystroke_d	d	n/a
26.995	0.119	53990	keystroke_e	e	n/a
27.085	0.059	54170	keystroke_m	m	n/a
27.204	0.12	54408	keystroke_o	o	n/a
27.309	0.046	54618	keystroke_c	c	n/a
27.46	0.075	54920	keystroke_r	r	n/a
27.5945	0.075	55189	keystroke_a	a	n/a
27.7745	0.075	55549	keystroke_t	t	n/a
27.8505	0.1335	55701	keystroke_i	i	n/a
28	0.09	56000	keystroke_c	c	n/a
28.15	0.1195	56300	keystroke_Key.enter	Key.enter	n/a
28.2745	10.182	56549	prompt	n/a	prerequisite value itself transmission\n
29.395	0.15	58790	keystroke_p	p	n/a
29.62	0.165	59240	keystroke_r	r	n/a
29.71	0.12	59420	keystroke_e	e	n/a
31.5545	0.18	63109	keystroke_r	r	n/a
31.6745	0.135	63349	keystroke_e	e	n/a
32.3645	0.1055	64729	keystroke_q	q	n/a
32.56	0.105	65120	keystroke_u	u	n/a
32.62	0.15	65240	keystroke_i	i	n/a
32.755	0.12	65510	keystroke_s	s	n/a
32.9345	0.105	65869	keystroke_i	i	n/a
33.085	0.12	66170	keystroke_t	t	n/a
33.19	0.15	66380	keystroke_e	e	n/a
33.325	0.1195	66650	keystroke_Key.space	Key.space	n/a
34.12	0.075	68240	keystroke_v	v	n/a
34.33	0.135	68660	keystroke_a	a	n/a
34.4045	0.1505	68809	keystroke_l	l	n/a
34.63	0.09	69260	keystroke_u	u	n/a
34.75	0.06	69500	keystroke_e	e	n/a
34.87	0.09	69740	keystroke_Key.space	Key.space	n/a
35.065	0.135	70130	keystroke_i	i	n/a
35.2	0.09	70400	keystroke_t	t	n/a
35.365	0.12	70730	keystroke_s	s	n/a
35.56	0.09	71120	keystroke_e	e	n/a
35.665	0.09	71330	keystroke_l	l	n/a
35.95	0.12	71900	keystroke_f	f	n/a
36.115	0.1345	72230	keystroke_Key.space	Key.space	n/a
36.2945	0.075	72589	keystroke_t	t	n/a
36.4745	0.06	72949	keystroke_r	r	n/a
36.6105	0.12	73221	keystroke_a	a	n/a
36.8195	0.105	73639	keystroke_n	n	n/a
37.0905	0.089	74181	keystroke_s	s	n/a
37.1945	0.0905	74389	keystroke_m	m	n/a
37.345	0.1345	74690	keystroke_i	i	n/a
37.5545	0.075	75109	keystroke_s	s	n/a
37.7045	0.105	75409	keystroke_s	s	n/a
37.7505	0.089	75501	keystroke_i	i	n/a
37.9595	0.06	75919	keystroke_o	o	n/a
38.0955	0.104	76191	keystroke_n	n	n/a
38.3495	0.1055	76699	keystroke_Key.enter	Key.enter	n/a
38.46	9.2965	76920	prompt	n/a	during virginia nearest flour\n
39.385	0.075	78770	keystroke_d	d	n/a
39.52	0.075	79040	keystroke_u	u	n/a
39.61	0.09	79220	keystroke_r	r	n/a
39.715	0.09	79430	keystroke_i	i	n/a
39.85	0.105	79700	keystroke_n	n	n/a
39.97	0.075	79940	keystroke_g	g	n/a
40.09	0.135	80180	keystroke_Key.space	Key.space	n/a
40.72	0.105	81440	keystroke_v	v	n/a
40.9	0.105	81800	keystroke_i	i	n/a
40.99	0.075	81980	keystroke_r	r	n/a
41.44	0.075	82880	keystroke_g	g	n/a
41.575	0.075	83150	keystroke_i	i	n/a
41.695	0.09	83390	keystroke_n	n	n/a
41.815	0.105	83630	keystroke_i	i	n/a
41.965	0.105	83930	keystroke_a	a	n/a
42.085	0.06	84170	keystroke_Key.space	Key.space	n/a
42.34	0.1195	84680	keystroke_n	n	n/a
42.415	0.1195	84830	keystroke_e	e	n/a
42.5195	0.195	85039	keystroke_a	a	n/a
43.5545	0.105	87109	keystroke_Key.backspace	Key.backspace	n/a
43.945	0.12	87890	keystroke_a	a	n/a
44.8595	0.165	89719	keystroke_r	r	n/a
45.0255	0.089	90051	keystroke_e	e	n/a
45.2195	0.075	90439	keystroke_s	s	n/a
45.3545	0.09	90709	keystroke_t	t	n/a
45.4295	0.105	90859	keystroke_Key.space	Key.space	n/a
45.805	0.105	91610	keystroke_f	f	n/a
46.945	0.09	93890	keystroke_l	l	n/a
47.155	0.105	94310	keystroke_o	o	n/a
47.32	0.09	94640	keystroke_u	u	n/a
47.47	0.12	94940	keystroke_r	r	n/a
47.62	0.135	95240	keystroke_Key.enter	Key.enter	n/a
47.762	13.878	95524	prompt	n/a	march warcraft reviewer granny\n
48.355	0.1355	96710	keystroke_m	m	n/a
48.475	0.105	96950	keystroke_a	a	n/a
49.1495	0.105	98299	keystroke_r	r	n/a
49.4045	0.105	98809	keystroke_c	c	n/a
49.5395	0.076	99079	keystroke_h	h	n/a
49.7495	0.105	99499	keystroke_Key.space	Key.space	n/a
49.8695	0.06	99739	keystroke_w	w	n/a
50.0945	0.1505	100189	keystroke_a	a	n/a
50.35	0.06	100700	keystroke_r	r	n/a
50.56	0.09	101120	keystroke_c	c	n/a
50.77	0.0745	101540	keystroke_r	r	n/a
50.9195	0.12	101839	keystroke_a	a	n/a
51.1445	0.12	102289	keystroke_f	f	n/a
51.2345	0.105	102469	keystroke_t	t	n/a
51.5345	0.105	103069	keystroke_Key.space	Key.space	n/a
53.095	0.075	106190	keystroke_Key.backspace	Key.backspace	n/a
53.305	0.09	106610	keystroke_Key.backspace	Key.backspace	n/a
53.695	0.075	107390	keystroke_Key.backspace	Key.backspace	n/a
54.37	0.06	108740	keystroke_Key.backspace	Key.backspace	n/a
54.565	0.06	109130	keystroke_Key.backspace	Key.backspace	n/a
56.08	0.075	112160	keystroke_r	r	n/a
56.23	0.105	112460	keystroke_a	a	n/a
56.425	0.075	112850	keystroke_f	f	n/a
56.62	0.0905	113240	keystroke_t	t	n/a
56.725	0.0895	113450	keystroke_Key.space	Key.space	n/a
57.64	0.1195	115280	keystroke_r	r	n/a
57.73	0.1045	115460	keystroke_e	e	n/a
57.91	0.0895	115820	keystroke_v	v	n/a
58.135	0.12	116270	keystroke_i	i	n/a
58.4955	0.105	116991	keystroke_e	e	n/a
58.7955	0.12	117591	keystroke_w	w	n/a
58.9445	0.091	117889	keystroke_e	e	n/a
59.1855	0.105	118371	keystroke_r	r	n/a
59.4255	0.105	118851	keystroke_Key.space	Key.space	n/a
59.9805	0.075	119961	keystroke_g	g	n/a
60.0255	0.09	120051	keystroke_r	r	n/a
60.1755	0.119	120351	keystroke_a	a	n/a
60.2645	0.061	120529	keystroke_n	n	n/a
60.3705	0.09	120741	keystroke_n	n	n/a
61.24	0.09	122480	keystroke_y	y	n/a
61.54	0.09	123080	keystroke_Key.enter	Key.enter	n/a
61.644	7.9675	123288	prompt	n/a	subscribe emotions discrete fellowship\n
62.275	0.105	124550	keystroke_s	s	n/a
62.41	0.06	124820	keystroke_u	u	n/a
62.605	0.09	125210	keystroke_b	b	n/a
62.71	0.105	125420	keystroke_s	s	n/a
63.0095	0.09	126019	keystroke_c	c	n/a
63.25	0.09	126500	keystroke_r	r	n/a
63.355	0.075	126710	keystroke_i	i	n/a
63.535	0.09	127070	keystroke_b	b	n/a
63.61	0.09	127220	keystroke_e	e	n/a
63.775	0.12	127550	keystroke_Key.space	Key.space	n/a
64.09	0.105	128180	keystroke_e	e	n/a
64.285	0.09	128570	keystroke_m	m	n/a
64.4645	0.105	128929	keystroke_o	o	n/a
64.6155	0.089	129231	keystroke_t	t	n/a
64.6895	0.12	129379	keystroke_i	i	n/a
64.7655	0.105	129531	keystroke_o	o	n/a
64.9605	0.104	129921	keystroke_n	n	n/a
65.0805	0.105	130161	keystroke_s	s	n/a
65.1995	0.09	130399	keystroke_Key.space	Key.space	n/a
65.8145	0.09	131629	keystroke_d	d	n/a
65.9195	0.12	131839	keystroke_i	i	n/a
66.0245	0.06	132049	keystroke_s	s	n/a
66.1745	0.075	132349	keystroke_c	c	n/a
66.3995	0.1355	132799	keystroke_r	r	n/a
66.505	0.135	133010	keystroke_e	e	n/a
66.7	0.105	133400	keystroke_t	t	n/a
66.79	0.12	133580	keystroke_e	e	n/a
66.925	0.1045	133850	keystroke_Key.space	Key.space	n/a
67.4795	0.12	134959	keystroke_f	f	n/a
67.6445	0.105	135289	keystroke_e	e	n/a
67.8395	0.09	135679	keystroke_l	l	n/a
68.0645	0.045	136129	keystroke_l	l	n/a
68.2445	0.09	136489	keystroke_o	o	n/a
68.3045	0.1055	136609	keystroke_w	w	n/a
68.71	0.105	137420	keystroke_s	s	n/a
68.86	0.09	137720	keystroke_h	h	n/a
69.085	0.09	138170	keystroke_i	i	n/a
69.265	0.12	138530	keystroke_p	p	n/a
69.4745	0.135	138949	keystroke_Key.enter	Key.enter	n/a
69.6155	9.131	139231	prompt	n/a	bowling caught weed arkansas\n
70.4205	0.0745	140841	keystroke_b	b	n/a
70.69	0.09	141380	keystroke_o	o	n/a
70.795	0.105	141590	keystroke_w	w	n/a
70.915	0.105	141830	keystroke_i	i	n/a
71.005	0.1045	142010	keystroke_n	n	n/a
71.1545	0.121	142309	keystroke_g	g	n/a
71.6655	0.06	143331	keystroke_Key.space	Key.space	n/a
72.0405	0.0595	144081	keystroke_Key.backspace	Key.backspace	n/a
72.205	0.0755	144410	keystroke_Key.backspace	Key.backspace	n/a
72.4005	0.045	144801	keystroke_Key.backspace	Key.backspace	n/a
72.8795	0.075	145759	keystroke_Key.backspace	Key.backspace	n/a
73.1645	0.105	146329	keystroke_l	l	n/a
73.3895	0.09	146779	keystroke_i	i	n/a
73.4945	0.075	146989	keystroke_n	n	n/a
73.5845	0.09	147169	keystroke_g	g	n/a
73.6895	0.105	147379	keystroke_Key.space	Key.space	n/a
73.825	0.12	147650	keystroke_c	c	n/a
73.99	0.135	147980	keystroke_o	o	n/a
74.44	0.105	148880	keystroke_Key.backspace	Key.backspace	n/a
74.56	0.105	149120	keystroke_a	a	n/a
74.74	0.09	149480	keystroke_u	u	n/a
74.89	0.075	149780	keystroke_g	g	n/a
74.995	0.09	149990	keystroke_h	h	n/a
75.115	0.1355	150230	keystroke_t	t	n/a
75.2655	0.1195	150531	keystroke_Key.space	Key.space	n/a
75.805	0.105	151610	keystroke_w	w	n/a
75.895	0.105	151790	keystroke_e	e	n/a
76.075	0.075	152150	keystroke_e	e	n/a
76.27	0.075	152540	keystroke_d	d	n/a
76.375	0.105	152750	keystroke_Key.space	Key.space	n/a
76.51	0.09	153020	keystroke_a	a	n/a
76.705	0.09	153410	keystroke_r	r	n/a
76.8555	0.105	153711	keystroke_k	k	n/a
77.8905	0.09	155781	keystroke_a	a	n/a
77.9955	0.09	155991	keystroke_n	n	n/a
78.1455	0.18	156291	keystroke_s	s	n/a
78.2805	0.15	156561	keystroke_a	a	n/a
78.445	0.09	156890	keystroke_s	s	n/a
78.6245	0.12	157249	keystroke_Key.enter	Key.enter	n/a
78.749	13.1455	157498	prompt	n/a	manually solely millennium syndrome\n
79.4355	0.104	158871	keystroke_m	m	n/a
79.5545	0.105	159109	keystroke_a	a	n/a
79.6895	0.105	159379	keystroke_n	n	n/a
79.825	0.105	159650	keystroke_u	u	n/a
79.915	0.12	159830	keystroke_a	a	n/a
80.08	0.06	160160	keystroke_l	l	n/a
80.215	0.09	160430	keystroke_l	l	n/a
80.425	0.09	160850	keystroke_y	y	n/a
80.665	0.105	161330	keystroke_Key.space	Key.space	n/a
80.9045	0.12	161809	keystroke_s	s	n/a
81.0095	0.09	162019	keystroke_o	o	n/a
81.2045	0.105	162409	keystroke_l	l	n/a
81.5945	0.075	163189	keystroke_e	e	n/a
81.7295	0.09	163459	keystroke_l	l	n/a
82.3295	0.06	164659	keystroke_y	y	n/a
82.5405	0.075	165081	keystroke_Key.space	Key.space	n/a
82.7505	0.12	165501	keystroke_m	m	n/a
83.0955	0.135	166191	keystroke_i	i	n/a
83.4105	0.059	166821	keystroke_l	l	n/a
83.5745	0.105	167149	keystroke_l	l	n/a
83.7405	0.104	167481	keystroke_e	e	n/a
83.8745	0.1205	167749	keystroke_n	n	n/a
85.225	0.165	170450	keystroke_i	i	n/a
85.4195	0.12	170839	keystroke_u	u	n/a
85.7045	0.076	171409	keystroke_m	m	n/a
86.38	0.0895	172760	keystroke_Key.backspace	Key.backspace	n/a
86.5745	0.075	173149	keystroke_Key.backspace	Key.backspace	n/a
86.7545	0.06	173509	keystroke_Key.backspace	Key.backspace	n/a
87.3555	0.12	174711	keystroke_n	n	n/a
87.4895	0.1355	174979	keystroke_i	i	n/a
87.61	0.09	175220	keystroke_u	u	n/a
87.79	0.075	175580	keystroke_m	m	n/a
87.97	0.09	175940	keystroke_Key.space	Key.space	n/a
88.12	0.135	176240	keystroke_s	s	n/a
88.27	0.12	176540	keystroke_y	y	n/a
88.405	0.09	176810	keystroke_b	b	n/a
88.75	0.0905	177500	keystroke_d	d	n/a
88.9605	0.0745	177921	keystroke_r	r	n/a
89.125	0.09	178250	keystroke_m	m	n/a
89.485	0.09	178970	keystroke_Key.backspace	Key.backspace	n/a
89.95	0.03	179900	keystroke_Key.backspace	Key.backspace	n/a
90.0695	0.091	180139	keystroke_Key.backspace	Key.backspace	n/a
90.775	0.06	181550	keystroke_Key.backspace	Key.backspace	n/a
90.9855	0.1045	181971	keystroke_n	n	n/a
91.12	0.105	182240	keystroke_d	d	n/a
91.345	0.105	182690	keystroke_r	r	n/a
91.435	0.0905	182870	keystroke_o	o	n/a
91.51	0.0895	183020	keystroke_m	m	n/a
91.6605	0.105	183321	keystroke_e	e	n/a
91.7795	0.106	183559	keystroke_Key.enter	Key.enter	n/a
91.8985	5.433	183797	prompt	n/a	favorite bubble fill guards\n
92.7555	0.075	185511	keystroke_f	f	n/a
92.935	0.12	185870	keystroke_a	a	n/a
93.07	0.045	186140	keystroke_v	v	n/a
93.25	0.105	186500	keystroke_o	o	n/a
93.34	0.075	186680	keystroke_r	r	n/a
93.475	0.105	186950	keystroke_i	i	n/a
93.55	0.09	187100	keystroke_t	t	n/a
93.655	0.135	187310	keystroke_e	e	n/a
93.805	0.105	187610	keystroke_Key.space	Key.space	n/a
94.225	0.0605	188450	keystroke_b	b	n/a
94.4045	0.0755	188809	keystroke_u	u	n/a
94.57	0.075	189140	keystroke_b	b	n/a
94.765	0.09	189530	keystroke_b	b	n/a
95.05	0.075	190100	keystroke_l	l	n/a
95.155	0.105	190310	keystroke_e	e	n/a
95.275	0.09	190550	keystroke_Key.space	Key.space	n/a
95.7555	0.075	191511	keystroke_f	f	n/a
95.8005	0.09	191601	keystroke_i	i	n/a
96.0105	0.045	192021	keystroke_l	l	n/a
96.1305	0.06	192261	keystroke_l	l	n/a
96.2945	0.091	192589	keystroke_Key.space	Key.space	n/a
96.5055	0.09	193011	keystroke_g	g	n/a
96.58	0.1055	193160	keystroke_u	u	n/a
96.64	0.075	193280	keystroke_a	a	n/a
96.8055	0.09	193611	keystroke_r	r	n/a
97.0145	0.15	194029	keystroke_d	d	n/a
97.1045	0.135	194209	keystroke_s	s	n/a
97.2545	0.075	194509	keystroke_Key.enter	Key.enter	n/a
97.3345	8.795	194669	prompt	n/a	cook charlie deborah adware\n
98.1095	0.106	196219	keystroke_c	c	n/a
98.1845	0.075	196369	keystroke_o	o	n/a
98.35	0.1055	196700	keystroke_o	o	n/a
98.44	0.0905	196880	keystroke_k	k	n/a
98.6355	0.09	197271	keystroke_Key.space	Key.space	n/a
98.7105	0.09	197421	keystroke_c	c	n/a
98.8605	0.09	197721	keystroke_h	h	n/a
98.9655	0.075	197931	keystroke_a	a	n/a
99.1155	0.105	198231	keystroke_r	r	n/a
99.2355	0.105	198471	keystroke_l	l	n/a
99.3555	0.105	198711	keystroke_i	i	n/a
99.4755	0.06	198951	keystroke_e	e	n/a
99.6105	0.12	199221	keystroke_Key.space	Key.space	n/a
100.03	0.165	200060	keystroke_d	d	n/a
100.135	0.12	200270	keystroke_e	e	n/a
100.285	0.09	200570	keystroke_b	b	n/a
102.2645	0.135	204529	keystroke_o	o	n/a
102.4755	0.09	204951	keystroke_r	r	n/a
102.6855	0.1195	205371	keystroke_a	a	n/a
102.97	0.105	205940	keystroke_h	h	n/a
103.645	0.09	207290	keystroke_Key.space	Key.space	n/a
103.8545	0.135	207709	keystroke_a	a	n/a
104.2005	0.089	208401	keystroke_d	d	n/a
104.3495	0.075	208699	keystroke_w	w	n/a
104.5155	0.105	209031	keystroke_a	a	n/a
104.7255	0.1495	209451	keystroke_r	r	n/a
104.815	0.12	209630	keystroke_e	e	n/a
105.97	0.15	211940	keystroke_Key.enter	Key.enter	n/a
106.1335	4.773	212267	prompt	n/a	puzzles even statement tells\n
106.8405	0.09	213681	keystroke_p	p	n/a
107.0055	0.105	214011	keystroke_u	u	n/a
107.0655	0.09	214131	keystroke_z	z	n/a
107.2155	0.12	214431	keystroke_z	z	n/a
107.3655	0.09	214731	keystroke_l	l	n/a
107.4405	0.09	214881	keystroke_e	e	n/a
107.7105	0.03	215421	keystroke_s	s	n/a
107.7255	0.075	215451	keystroke_Key.space	Key.space	n/a
107.8455	0.0895	215691	keystroke_e	e	n/a
107.965	0.09	215930	keystroke_v	v	n/a
108.07	0.09	216140	keystroke_e	e	n/a
108.25	0.075	216500	keystroke_n	n	n/a
108.445	0.0895	216890	keystroke_Key.space	Key.space	n/a
108.6095	0.09	217219	keystroke_s	s	n/a
108.7745	0.105	217549	keystroke_t	t	n/a
108.9695	0.075	217939	keystroke_a	a	n/a
109.1195	0.105	218239	keystroke_t	t	n/a
109.1795	0.1055	218359	keystroke_e	e	n/a
109.3	0.075	218600	keystroke_m	m	n/a
109.405	0.105	218810	keystroke_e	e	n/a
109.525	0.075	219050	keystroke_n	n	n/a
109.601	0.089	219202	keystroke_t	t	n/a
109.72	0.105	219440	keystroke_Key.space	Key.space	n/a
110.2305	0.104	220461	keystroke_t	t	n/a
110.3205	0.119	220641	keystroke_e	e	n/a
110.4555	0.0445	220911	keystroke_l	l	n/a
110.575	0.105	221150	keystroke_l	l	n/a
110.665	0.105	221330	keystroke_s	s	n/a
110.815	0.09	221630	keystroke_Key.enter	Key.enter	n/a
110.909	6.0275	221818	prompt	n/a	music madonna webmasters gnome\n
111.5195	0.09	223039	keystroke_m	m	n/a
111.8045	0.075	223609	keystroke_u	u	n/a
111.9245	0.0905	223849	keystroke_s	s	n/a
112.045	0.09	224090	keystroke_i	i	n/a
112.18	0.09	224360	keystroke_c	c	n/a
112.315	0.09	224630	keystroke_Key.space	Key.space	n/a
112.5245	0.09	225049	keystroke_m	m	n/a
112.585	0.075	225170	keystroke_a	a	n/a
112.735	0.12	225470	keystroke_d	d	n/a
112.84	0.09	225680	keystroke_o	o	n/a
113.0945	0.06	226189	keystroke_n	n	n/a
113.245	0.075	226490	keystroke_n	n	n/a
113.3655	0.105	226731	keystroke_a	a	n/a
113.4705	0.09	226941	keystroke_Key.space	Key.space	n/a
113.6355	0.12	227271	keystroke_w	w	n/a
113.7105	0.12	227421	keystroke_e	e	n/a
114.37	0.09	228740	keystroke_b	b	n/a
114.64	0.0895	229280	keystroke_m	m	n/a
114.7155	0.135	229431	keystroke_a	a	n/a
114.7745	0.121	229549	keystroke_s	s	n/a
114.94	0.075	229880	keystroke_t	t	n/a
115.03	0.075	230060	keystroke_e	e	n/a
115.2095	0.105	230419	keystroke_r	r	n/a
115.2995	0.106	230599	keystroke_s	s	n/a
115.4345	0.09	230869	keystroke_Key.space	Key.space	n/a
116.23	0.075	232460	keystroke_g	g	n/a
116.32	0.09	232640	keystroke_n	n	n/a
116.5	0.09	233000	keystroke_o	o	n/a
116.605	0.105	233210	keystroke_m	m	n/a
116.695	0.075	233390	keystroke_e	e	n/a
116.83	0.105	233660	keystroke_Key.enter	Key.enter	n/a
116.939	4.7675	233878	prompt	n/a	junk universal demands karma\n
117.7295	0.06	235459	keystroke_j	j	n/a
117.8645	0.06	235729	keystroke_u	u	n/a
118.0445	0.09	236089	keystroke_n	n	n/a
118.1795	0.076	236359	keystroke_k	k	n/a
118.3145	0.105	236629	keystroke_Key.space	Key.space	n/a
118.4645	0.135	236929	keystroke_u	u	n/a
118.5545	0.105	237109	keystroke_n	n	n/a
118.7195	0.1205	237439	keystroke_i	i	n/a
118.7795	0.0755	237559	keystroke_v	v	n/a
118.9	0.135	237800	keystroke_e	e	n/a
118.99	0.12	237980	keystroke_r	r	n/a
119.155	0.105	238310	keystroke_s	s	n/a
119.35	0.105	238700	keystroke_a	a	n/a
119.44	0.075	238880	keystroke_l	l	n/a
119.62	0.105	239240	keystroke_Key.space	Key.space	n/a
119.71	0.12	239420	keystroke_d	d	n/a
119.785	0.12	239570	keystroke_e	e	n/a
119.89	0.075	239780	keystroke_m	m	n/a
119.995	0.09	239990	keystroke_a	a	n/a
120.115	0.0895	240230	keystroke_n	n	n/a
120.1895	0.135	240379	keystroke_d	d	n/a
120.2645	0.12	240529	keystroke_s	s	n/a
120.3995	0.076	240799	keystroke_Key.space	Key.space	n/a
120.6105	0.045	241221	keystroke_j	j	n/a
120.8805	0.075	241761	keystroke_Key.backspace	Key.backspace	n/a
121.0605	0.09	242121	keystroke_k	k	n/a
121.1055	0.075	242211	keystroke_a	a	n/a
121.2555	0.075	242511	keystroke_r	r	n/a
121.3755	0.06	242751	keystroke_m	m	n/a
121.4505	0.12	242901	keystroke_a	a	n/a
121.6005	0.105	243201	keystroke_Key.enter	Key.enter	n/a
121.7095	9.402	243419	prompt	n/a	governments warehouse juvenile cheese\n
122.5605	0.06	245121	keystroke_g	g	n/a
122.6505	0.105	245301	keystroke_o	o	n/a
122.7405	0.06	245481	keystroke_v	v	n/a
122.8605	0.105	245721	keystroke_e	e	n/a
122.9355	0.105	245871	keystroke_r	r	n/a
123.0255	0.09	246051	keystroke_n	n	n/a
123.2205	0.09	246441	keystroke_m	m	n/a
123.2805	0.105	246561	keystroke_e	e	n/a
123.4305	0.09	246861	keystroke_n	n	n/a
123.4755	0.105	246951	keystroke_t	t	n/a
123.6105	0.09	247221	keystroke_s	s	n/a
123.6855	0.09	247371	keystroke_Key.space	Key.space	n/a
123.8505	0.075	247701	keystroke_w	w	n/a
124.0155	0.075	248031	keystroke_a	a	n/a
124.1655	0.15	248331	keystroke_r	r	n/a
124.2255	0.105	248451	keystroke_e	e	n/a
124.42	0.09	248840	keystroke_h	h	n/a
124.6	0.105	249200	keystroke_o	o	n/a
124.69	0.12	249380	keystroke_u	u	n/a
124.795	0.105	249590	keystroke_s	s	n/a
125.005	0.045	250010	keystroke_e	e	n/a
125.9045	0.1355	251809	keystroke_Key.space	Key.space	n/a
126.445	0.09	252890	keystroke_j	j	n/a
126.67	0.075	253340	keystroke_u	u	n/a
127.945	0.075	255890	keystroke_v	v	n/a
128.53	0.12	257060	keystroke_e	e	n/a
129.4155	0.105	258831	keystroke_n	n	n/a
129.55	0.12	259100	keystroke_i	i	n/a
129.775	0.075	259550	keystroke_l	l	n/a
129.88	0.105	259760	keystroke_e	e	n/a
129.97	0.105	259940	keystroke_Key.space	Key.space	n/a
130.15	0.075	260300	keystroke_c	c	n/a
130.24	0.075	260480	keystroke_h	h	n/a
130.36	0.0905	260720	keystroke_e	e	n/a
130.51	0.105	261020	keystroke_e	e	n/a
130.735	0.075	261470	keystroke_s	s	n/a
130.855	0.105	261710	keystroke_e	e	n/a
131.02	0.09	262040	keystroke_Key.enter	Key.enter	n/a
131.116	6.4755	262232	prompt	n/a	opponents vice dispatched practices\n
131.8	0.09	263600	keystroke_o	o	n/a
132.025	0.06	264050	keystroke_p	p	n/a
132.16	0.075	264320	keystroke_p	p	n/a
132.355	0.075	264710	keystroke_o	o	n/a
132.5495	0.09	265099	keystroke_n	n	n/a
132.6695	0.12	265339	keystroke_e	e	n/a
132.8045	0.12	265609	keystroke_n	n	n/a
132.9395	0.09	265879	keystroke_t	t	n/a
133.1355	0.09	266271	keystroke_s	s	n/a
133.2255	0.12	266451	keystroke_Key.space	Key.space	n/a
133.6005	0.06	267201	keystroke_v	v	n/a
133.6905	0.105	267381	keystroke_i	i	n/a
133.7805	0.105	267561	keystroke_c	c	n/a
133.9155	0.105	267831	keystroke_e	e	n/a
134.0505	0.105	268101	keystroke_Key.space	Key.space	n/a
134.59	0.09	269180	keystroke_d	d	n/a
134.71	0.105	269420	keystroke_i	i	n/a
134.785	0.105	269570	keystroke_s	s	n/a
134.965	0.09	269930	keystroke_p	p	n/a
135.1595	0.09	270319	keystroke_a	a	n/a
135.3995	0.09	270799	keystroke_t	t	n/a
135.5045	0.09	271009	keystroke_c	c	n/a
135.655	0.09	271310	keystroke_h	h	n/a
135.76	0.09	271520	keystroke_e	e	n/a
135.835	0.12	271670	keystroke_d	d	n/a
135.97	0.09	271940	keystroke_Key.space	Key.space	n/a
136.21	0.105	272420	keystroke_p	p	n/a
136.36	0.075	272720	keystroke_r	r	n/a
136.495	0.0745	272990	keystroke_a	a	n/a
136.6895	0.06	273379	keystroke_c	c	n/a
136.8995	0.09	273799	keystroke_t	t	n/a
136.9745	0.105	273949	keystroke_i	i	n/a
137.0945	0.09	274189	keystroke_c	c	n/a
137.1995	0.105	274399	keystroke_e	e	n/a
137.3795	0.12	274759	keystroke_s	s	n/a
137.4845	0.105	274969	keystroke_Key.enter	Key.enter	n/a
137.595	5.9665	275190	prompt	n/a	whale he'll symantec bean\n
138.25	0.09	276500	keystroke_w	w	n/a
138.385	0.09	276770	keystroke_h	h	n/a
138.505	0.105	277010	keystroke_a	a	n/a
138.625	0.105	277250	keystroke_l	l	n/a
138.745	0.09	277490	keystroke_e	e	n/a
138.85	0.09	277700	keystroke_Key.space	Key.space	n/a
139.03	0.09	278060	keystroke_h	h	n/a
139.15	0.1055	278300	keystroke_e	e	n/a
139.7195	0.09	279439	keystroke_'	'	n/a
139.9595	0.075	279919	keystroke_l	l	n/a
140.1245	0.075	280249	keystroke_l	l	n/a
140.3495	0.075	280699	keystroke_Key.space	Key.space	n/a
140.53	0.105	281060	keystroke_s	s	n/a
140.8455	0.075	281691	keystroke_y	y	n/a
141.13	0.09	282260	keystroke_m	m	n/a
141.8055	0.06	283611	keystroke_a	a	n/a
141.8795	0.1205	283759	keystroke_n	n	n/a
142.015	0.1045	284030	keystroke_t	t	n/a
142.0895	0.09	284179	keystroke_e	e	n/a
142.2845	0.105	284569	keystroke_c	c	n/a
142.4045	0.06	284809	keystroke_Key.space	Key.space	n/a
142.6445	0.075	285289	keystroke_b	b	n/a
142.7045	0.105	285409	keystroke_e	e	n/a
142.7645	0.105	285529	keystroke_a	a	n/a
142.9445	0.09	285889	keystroke_n	n	n/a
143.4245	0.135	286849	keystroke_Key.enter	Key.enter	n/a
143.564	6.2225	287128	prompt	n/a	rear salt religious jackets\n
144.1595	0.15	288319	keystroke_r	r	n/a
144.2195	0.105	288439	keystroke_e	e	n/a
144.4295	0.106	288859	keystroke_a	a	n/a
145.2995	0.09	290599	keystroke_r	r	n/a
145.4195	0.09	290839	keystroke_Key.space	Key.space	n/a
145.5245	0.09	291049	keystroke_s	s	n/a
145.7345	0.09	291469	keystroke_a	a	n/a
145.8395	0.09	291679	keystroke_l	l	n/a
146.3355	0.075	292671	keystroke_t	t	n/a
146.9945	0.075	293989	keystroke_Key.space	Key.space	n/a
147.1755	0.18	294351	keystroke_r	r	n/a
147.2805	0.12	294561	keystroke_e	e	n/a
147.3855	0.1195	294771	keystroke_l	l	n/a
147.535	0.105	295070	keystroke_i	i	n/a
147.685	0.1195	295370	keystroke_g	g	n/a
147.7905	0.105	295581	keystroke_i	i	n/a
147.8495	0.121	295699	keystroke_o	o	n/a
148.0445	0.09	296089	keystroke_u	u	n/a
148.1945	0.09	296389	keystroke_s	s	n/a
148.2995	0.09	296599	keystroke_Key.space	Key.space	n/a
148.7495	0.0905	297499	keystroke_j	j	n/a
148.78	0.105	297560	keystroke_a	a	n/a
149.005	0.0745	298010	keystroke_c	c	n/a
149.1245	0.09	298249	keystroke_k	k	n/a
149.2295	0.09	298459	keystroke_e	e	n/a
149.3945	0.09	298789	keystroke_t	t	n/a
149.4995	0.105	298999	keystroke_s	s	n/a
149.695	0.09	299390	keystroke_Key.enter	Key.enter	n/a
149.7925	5.3045	299585	prompt	n/a	pollution survive keno seminar\n
150.4595	0.15	300919	keystroke_p	p	n/a
150.5795	0.09	301159	keystroke_o	o	n/a
150.8045	0.06	301609	keystroke_l	l	n/a
150.9545	0.075	301909	keystroke_l	l	n/a
151.1795	0.09	302359	keystroke_u	u	n/a
151.3445	0.12	302689	keystroke_t	t	n/a
151.4345	0.1355	302869	keystroke_i	i	n/a
151.525	0.105	303050	keystroke_o	o	n/a
151.75	0.075	303500	keystroke_n	n	n/a
151.93	0.105	303860	keystroke_Key.space	Key.space	n/a
152.02	0.12	304040	keystroke_s	s	n/a
152.3655	0.075	304731	keystroke_u	u	n/a
152.4255	0.1045	304851	keystroke_r	r	n/a
152.68	0.09	305360	keystroke_v	v	n/a
152.8	0.0905	305600	keystroke_i	i	n/a
152.8755	0.075	305751	keystroke_v	v	n/a
153.0255	0.105	306051	keystroke_e	e	n/a
153.1595	0.106	306319	keystroke_Key.space	Key.space	n/a
153.445	0.105	306890	keystroke_k	k	n/a
153.58	0.09	307160	keystroke_e	e	n/a
153.715	0.0905	307430	keystroke_n	n	n/a
153.9255	0.075	307851	keystroke_o	o	n/a
154.1195	0.09	308239	keystroke_Key.space	Key.space	n/a
154.1955	0.105	308391	keystroke_s	s	n/a
154.3605	0.1045	308721	keystroke_e	e	n/a
154.465	0.06	308930	keystroke_m	m	n/a
154.54	0.09	309080	keystroke_i	i	n/a
154.675	0.09	309350	keystroke_n	n	n/a
154.72	0.09	309440	keystroke_a	a	n/a
154.885	0.09	309770	keystroke_r	r	n/a
155.035	0.06	310070	keystroke_Key.enter	Key.enter	n/a
155.103	6.5335	310206	prompt	n/a	since christianity earth bible\n
155.695	0.12	311390	keystroke_s	s	n/a
155.816	0.104	311632	keystroke_i	i	n/a
155.89	0.135	311780	keystroke_n	n	n/a
156.04	0.105	312080	keystroke_c	c	n/a
156.205	0.12	312410	keystroke_e	e	n/a
156.385	0.105	312770	keystroke_Key.space	Key.space	n/a
156.895	0.1045	313790	keystroke_c	c	n/a
157.1195	0.09	314239	keystroke_h	h	n/a
157.4055	0.105	314811	keystroke_r	r	n/a
157.5855	0.12	315171	keystroke_i	i	n/a
157.6605	0.075	315321	keystroke_s	s	n/a
157.8105	0.105	315621	keystroke_t	t	n/a
157.9305	0.105	315861	keystroke_i	i	n/a
158.0655	0.135	316131	keystroke_a	a	n/a
158.2155	0.075	316431	keystroke_n	n	n/a
158.365	0.1045	316730	keystroke_i	i	n/a
158.4995	0.075	316999	keystroke_t	t	n/a
158.6345	0.045	317269	keystroke_y	y	n/a
159.7	0.12	319400	keystroke_Key.space	Key.space	n/a
159.775	0.15	319550	keystroke_e	e	n/a
159.88	0.12	319760	keystroke_a	a	n/a
160.075	0.09	320150	keystroke_r	r	n/a
160.27	0.09	320540	keystroke_t	t	n/a
160.33	0.09	320660	keystroke_h	h	n/a
160.525	0.09	321050	keystroke_Key.space	Key.space	n/a
160.72	0.09	321440	keystroke_b	b	n/a
160.885	0.09	321770	keystroke_u	u	n/a
161.02	0.09	322040	keystroke_b	b	n/a
161.29	0.09	322580	keystroke_l	l	n/a
161.395	0.075	322790	keystroke_e	e	n/a
161.545	0.09	323090	keystroke_Key.enter	Key.enter	n/a
161.6405	8.3215	323281	prompt	n/a	grab ensemble dodge rachel\n
162.5955	0.09	325191	keystroke_g	g	n/a
162.6705	0.045	325341	keystroke_r	r	n/a
162.82	0.105	325640	keystroke_a	a	n/a
162.91	0.09	325820	keystroke_b	b	n/a
163.135	0.105	326270	keystroke_Key.space	Key.space	n/a
163.69	0.1045	327380	keystroke_e	e	n/a
163.9455	0.09	327891	keystroke_n	n	n/a
164.1255	0.09	328251	keystroke_s	s	n/a
164.4395	0.075	328879	keystroke_a	a	n/a
164.9045	0.06	329809	keystroke_Key.backspace	Key.backspace	n/a
165.385	0.0905	330770	keystroke_e	e	n/a
165.5345	0.09	331069	keystroke_m	m	n/a
165.8345	0.076	331669	keystroke_b	b	n/a
166.0445	0.105	332089	keystroke_l	l	n/a
166.2095	0.09	332419	keystroke_e	e	n/a
166.3745	0.105	332749	keystroke_Key.space	Key.space	n/a
166.7345	0.075	333469	keystroke_d	d	n/a
166.8245	0.075	333649	keystroke_o	o	n/a
166.9445	0.076	333889	keystroke_d	d	n/a
167.0955	0.074	334191	keystroke_g	g	n/a
167.2445	0.105	334489	keystroke_e	e	n/a
167.4395	0.09	334879	keystroke_Key.space	Key.space	n/a
168.7	0.105	337400	keystroke_r	r	n/a
168.97	0.09	337940	keystroke_a	a	n/a
169.195	0.0755	338390	keystroke_c	c	n/a
169.3155	0.105	338631	keystroke_h	h	n/a
169.4655	0.105	338931	keystroke_e	e	n/a
169.6005	0.09	339201	keystroke_l	l	n/a
169.8705	0.09	339741	keystroke_Key.enter	Key.enter	n/a
169.973	5.6285	339946	prompt	n/a	oakland johns tree folder\n
170.56	0.105	341120	keystroke_o	o	n/a
170.695	0.105	341390	keystroke_a	a	n/a
170.815	0.09	341630	keystroke_k	k	n/a
171.025	0.09	342050	keystroke_l	l	n/a
171.13	0.105	342260	keystroke_a	a	n/a
171.25	0.075	342500	keystroke_n	n	n/a
171.37	0.075	342740	keystroke_d	d	n/a
171.49	0.075	342980	keystroke_Key.space	Key.space	n/a
172.09	0.06	344180	keystroke_j	j	n/a
172.165	0.06	344330	keystroke_o	o	n/a
172.315	0.06	344630	keystroke_h	h	n/a
172.4645	0.09	344929	keystroke_n	n	n/a
172.5695	0.09	345139	keystroke_s	s	n/a
172.6745	0.09	345349	keystroke_Key.space	Key.space	n/a
173.6795	0.09	347359	keystroke_t	t	n/a
173.9195	0.18	347839	keystroke_r	r	n/a
174.0845	0.12	348169	keystroke_e	e	n/a
174.2945	0.09	348589	keystroke_e	e	n/a
174.4595	0.105	348919	keystroke_Key.space	Key.space	n/a
174.8045	0.076	349609	keystroke_f	f	n/a
174.8945	0.075	349789	keystroke_o	o	n/a
175.0595	0.106	350119	keystroke_l	l	n/a
175.0905	0.134	350181	keystroke_d	d	n/a
175.1795	0.105	350359	keystroke_e	e	n/a
175.3295	0.105	350659	keystroke_r	r	n/a
175.4945	0.105	350989	keystroke_Key.enter	Key.enter	n/a
175.6045	8.5775	351209	prompt	n/a	targets unauthorized pubs where've\n
176.3195	0.09	352639	keystroke_t	t	n/a
176.7395	0.12	353479	keystroke_a	a	n/a
176.9495	0.075	353899	keystroke_r	r	n/a
177.1145	0.075	354229	keystroke_g	g	n/a
177.1745	0.09	354349	keystroke_e	e	n/a
177.2945	0.09	354589	keystroke_t	t	n/a
177.4745	0.09	354949	keystroke_s	s	n/a
177.6095	0.105	355219	keystroke_Key.space	Key.space	n/a
178.1795	0.135	356359	keystroke_u	u	n/a
178.2995	0.12	356599	keystroke_n	n	n/a
178.4645	0.135	356929	keystroke_a	a	n/a
178.6745	0.121	357349	keystroke_u	u	n/a
178.8105	0.074	357621	keystroke_t	t	n/a
178.9295	0.075	357859	keystroke_h	h	n/a
179.0495	0.106	358099	keystroke_r	r	n/a
179.1395	0.0905	358279	keystroke_o	o	n/a
179.335	0.105	358670	keystroke_i	i	n/a
179.395	0.105	358790	keystroke_z	z	n/a
179.605	0.09	359210	keystroke_e	e	n/a
179.815	0.105	359630	keystroke_d	d	n/a
179.905	0.09	359810	keystroke_Key.space	Key.space	n/a
180.25	0.135	360500	keystroke_p	p	n/a
180.625	0.075	361250	keystroke_u	u	n/a
180.865	0.105	361730	keystroke_b	b	n/a
181.045	0.1055	362090	keystroke_s	s	n/a
181.2255	0.09	362451	keystroke_Key.space	Key.space	n/a
182.1395	0.1055	364279	keystroke_w	w	n/a
182.35	0.09	364700	keystroke_h	h	n/a
182.41	0.135	364820	keystroke_e	e	n/a
182.575	0.165	365150	keystroke_r	r	n/a
182.665	0.135	365330	keystroke_e	e	n/a
183.0105	0.09	366021	keystroke_'	'	n/a
183.4445	0.075	366889	keystroke_v	v	n/a
183.9095	0.105	367819	keystroke_e	e	n/a
184.1045	0.075	368209	keystroke_Key.enter	Key.enter	n/a
184.1925	6.859	368385	prompt	n/a	centered brush tomatoes bottles\n
184.87	0.09	369740	keystroke_c	c	n/a
185.065	0.12	370130	keystroke_e	e	n/a
185.23	0.105	370460	keystroke_n	n	n/a
185.32	0.09	370640	keystroke_t	t	n/a
185.53	0.1195	371060	keystroke_e	e	n/a
185.6645	0.151	371329	keystroke_r	r	n/a
185.7695	0.12	371539	keystroke_e	e	n/a
185.9495	0.12	371899	keystroke_d	d	n/a
186.1145	0.12	372229	keystroke_Key.space	Key.space	n/a
186.835	0.09	373670	keystroke_b	b	n/a
187	0.12	374000	keystroke_u	u	n/a
187.495	0.015	374990	keystroke_Key.backspace	Key.backspace	n/a
187.555	0.1195	375110	keystroke_r	r	n/a
187.6905	0.119	375381	keystroke_u	u	n/a
188.2745	0.0905	376549	keystroke_s	s	n/a
188.38	0.06	376760	keystroke_h	h	n/a
188.56	0.105	377120	keystroke_Key.space	Key.space	n/a
188.666	0.104	377332	keystroke_t	t	n/a
188.785	0.09	377570	keystroke_o	o	n/a
188.86	0.135	377720	keystroke_m	m	n/a
189.01	0.105	378020	keystroke_a	a	n/a
189.25	0.09	378500	keystroke_t	t	n/a
189.4	0.105	378800	keystroke_o	o	n/a
189.55	0.105	379100	keystroke_e	e	n/a
189.7455	0.12	379491	keystroke_s	s	n/a
189.7905	0.09	379581	keystroke_Key.space	Key.space	n/a
190.0005	0.075	380001	keystroke_b	b	n/a
190.1955	0.09	380391	keystroke_o	o	n/a
190.2705	0.06	380541	keystroke_t	t	n/a
190.4205	0.09	380841	keystroke_t	t	n/a
190.5255	0.09	381051	keystroke_l	l	n/a
190.645	0.09	381290	keystroke_e	e	n/a
190.855	0.09	381710	keystroke_s	s	n/a
190.96	0.0895	381920	keystroke_Key.enter	Key.enter	n/a
191.055	4.7965	382110	prompt	n/a	buck revision interim glass\n
192.0255	0.09	384051	keystroke_b	b	n/a
192.1445	0.105	384289	keystroke_u	u	n/a
192.31	0.075	384620	keystroke_c	c	n/a
192.415	0.06	384830	keystroke_k	k	n/a
192.58	0.09	385160	keystroke_Key.space	Key.space	n/a
192.595	0.135	385190	keystroke_r	r	n/a
192.685	0.075	385370	keystroke_e	e	n/a
192.865	0.09	385730	keystroke_v	v	n/a
193	0.06	386000	keystroke_i	i	n/a
193.09	0.09	386180	keystroke_s	s	n/a
193.195	0.09	386390	keystroke_i	i	n/a
193.255	0.09	386510	keystroke_o	o	n/a
193.465	0.075	386930	keystroke_n	n	n/a
193.645	0.06	387290	keystroke_Key.space	Key.space	n/a
193.765	0.12	387530	keystroke_i	i	n/a
193.87	0.12	387740	keystroke_n	n	n/a
193.96	0.0905	387920	keystroke_t	t	n/a
194.0955	0.12	388191	keystroke_e	e	n/a
194.1855	0.09	388371	keystroke_r	r	n/a
194.3205	0.1495	388641	keystroke_i	i	n/a
194.4405	0.1045	388881	keystroke_m	m	n/a
194.68	0.075	389360	keystroke_Key.space	Key.space	n/a
195.055	0.0605	390110	keystroke_g	g	n/a
195.2505	0.09	390501	keystroke_l	l	n/a
195.3555	0.09	390711	keystroke_a	a	n/a
195.4155	0.105	390831	keystroke_s	s	n/a
195.625	0.06	391250	keystroke_s	s	n/a
195.79	0.06	391580	keystroke_Key.enter	Key.enter	n/a
195.8545	5.367	391709	prompt	n/a	millions giving considering wedding\n
196.405	0.09	392810	keystroke_m	m	n/a
196.555	0.105	393110	keystroke_i	i	n/a
196.78	0.075	393560	keystroke_l	l	n/a
196.96	0.12	393920	keystroke_l	l	n/a
197.11	0.135	394220	keystroke_i	i	n/a
197.215	0.075	394430	keystroke_o	o	n/a
197.41	0.075	394820	keystroke_n	n	n/a
197.515	0.12	395030	keystroke_s	s	n/a
197.605	0.09	395210	keystroke_Key.space	Key.space	n/a
197.8	0.09	395600	keystroke_g	g	n/a
197.905	0.075	395810	keystroke_i	i	n/a
198.025	0.105	396050	keystroke_v	v	n/a
198.1	0.09	396200	keystroke_i	i	n/a
198.22	0.09	396440	keystroke_n	n	n/a
198.295	0.09	396590	keystroke_g	g	n/a
198.43	0.105	396860	keystroke_Key.space	Key.space	n/a
198.715	0.09	397430	keystroke_c	c	n/a
198.775	0.075	397550	keystroke_o	o	n/a
198.955	0.105	397910	keystroke_n	n	n/a
199.075	0.09	398150	keystroke_s	s	n/a
199.18	0.1055	398360	keystroke_i	i	n/a
199.2705	0.164	398541	keystroke_d	d	n/a
199.5105	0.15	399021	keystroke_e	e	n/a
199.6745	0.106	399349	keystroke_r	r	n/a
199.825	0.0905	399650	keystroke_i	i	n/a
199.9445	0.0905	399889	keystroke_n	n	n/a
200.05	0.075	400100	keystroke_g	g	n/a
200.155	0.12	400310	keystroke_Key.space	Key.space	n/a
200.276	0.119	400552	keystroke_w	w	n/a
200.335	0.12	400670	keystroke_e	e	n/a
200.575	0.06	401150	keystroke_d	d	n/a
200.725	0.075	401450	keystroke_d	d	n/a
200.755	0.1205	401510	keystroke_i	i	n/a
200.8445	0.106	401689	keystroke_n	n	n/a
200.9795	0.09	401959	keystroke_g	g	n/a
201.0995	0.12	402199	keystroke_Key.enter	Key.enter	n/a
201.2245	5.3375	402449	prompt	n/a	habits crew direct worcester\n
202.045	0.075	404090	keystroke_h	h	n/a
202.135	0.12	404270	keystroke_a	a	n/a
202.27	0.06	404540	keystroke_b	b	n/a
202.42	0.09	404840	keystroke_i	i	n/a
202.45	0.09	404900	keystroke_t	t	n/a
202.615	0.09	405230	keystroke_s	s	n/a
202.735	0.075	405470	keystroke_Key.space	Key.space	n/a
202.825	0.12	405650	keystroke_c	c	n/a
203.095	0.1055	406190	keystroke_r	r	n/a
203.3355	0.18	406671	keystroke_e	e	n/a
203.4555	0.105	406911	keystroke_w	w	n/a
203.6055	0.105	407211	keystroke_Key.space	Key.space	n/a
203.8305	0.12	407661	keystroke_d	d	n/a
204.0255	0.105	408051	keystroke_i	i	n/a
204.0855	0.18	408171	keystroke_r	r	n/a
204.2355	0.06	408471	keystroke_e	e	n/a
204.4155	0.075	408831	keystroke_c	c	n/a
204.6255	0.06	409251	keystroke_t	t	n/a
204.6705	0.105	409341	keystroke_Key.space	Key.space	n/a
204.9705	0.1045	409941	keystroke_w	w	n/a
205.12	0.105	410240	keystroke_o	o	n/a
205.285	0.105	410570	keystroke_r	r	n/a
205.54	0.075	411080	keystroke_c	c	n/a
205.645	0.105	411290	keystroke_e	e	n/a
205.855	0.12	411710	keystroke_s	s	n/a
206.05	0.09	412100	keystroke_t	t	n/a
206.2	0.105	412400	keystroke_e	e	n/a
206.29	0.09	412580	keystroke_r	r	n/a
206.44	0.12	412880	keystroke_Key.enter	Key.enter	n/a
206.5685	4.958	413137	prompt	n/a	analyzed immune reach rubber\n
207.205	0.09	414410	keystroke_a	a	n/a
207.34	0.105	414680	keystroke_n	n	n/a
207.43	0.09	414860	keystroke_a	a	n/a
207.595	0.105	415190	keystroke_l	l	n/a
207.79	0.06	415580	keystroke_y	y	n/a
207.851	0.1045	415702	keystroke_z	z	n/a
208.0605	0.06	416121	keystroke_e	e	n/a
208.2405	0.105	416481	keystroke_d	d	n/a
208.3755	0.0895	416751	keystroke_Key.space	Key.space	n/a
208.675	0.105	417350	keystroke_i	i	n/a
208.825	0.06	417650	keystroke_m	m	n/a
208.99	0.075	417980	keystroke_m	m	n/a
209.185	0.135	418370	keystroke_u	u	n/a
209.305	0.135	418610	keystroke_n	n	n/a
209.47	0.105	418940	keystroke_e	e	n/a
209.62	0.12	419240	keystroke_Key.space	Key.space	n/a
209.755	0.15	419510	keystroke_r	r	n/a
209.845	0.09	419690	keystroke_e	e	n/a
210.055	0.0605	420110	keystroke_a	a	n/a
210.2205	0.105	420441	keystroke_c	c	n/a
210.3105	0.075	420621	keystroke_h	h	n/a
210.5205	0.105	421041	keystroke_Key.space	Key.space	n/a
210.6105	0.105	421221	keystroke_r	r	n/a
210.7455	0.12	421491	keystroke_u	u	n/a
210.9255	0.09	421851	keystroke_b	b	n/a
211.0905	0.105	422181	keystroke_b	b	n/a
211.1805	0.12	422361	keystroke_e	e	n/a
211.2555	0.12	422511	keystroke_r	r	n/a
211.4355	0.09	422871	keystroke_Key.enter	Key.enter	n/a
211.5315	6.7	423063	prompt	n/a	uzbekistan weed sector navigation\n
212.605	0.09	425210	keystroke_u	u	n/a
212.68	0.12	425360	keystroke_z	z	n/a
213.2505	0.09	426501	keystroke_b	b	n/a
213.3705	0.105	426741	keystroke_e	e	n/a
213.5055	0.075	427011	keystroke_k	k	n/a
213.6855	0.09	427371	keystroke_i	i	n/a
213.7295	0.091	427459	keystroke_s	s	n/a
213.8955	0.075	427791	keystroke_t	t	n/a
214.0755	0.105	428151	keystroke_a	a	n/a
214.1505	0.075	428301	keystroke_n	n	n/a
214.3155	0.09	428631	keystroke_Key.space	Key.space	n/a
214.4655	0.12	428931	keystroke_w	w	n/a
214.5555	0.105	429111	keystroke_e	e	n/a
214.7205	0.1045	429441	keystroke_e	e	n/a
214.93	0.06	429860	keystroke_d	d	n/a
215.005	0.09	430010	keystroke_Key.space	Key.space	n/a
215.275	0.075	430550	keystroke_s	s	n/a
215.395	0.075	430790	keystroke_e	e	n/a
215.575	0.09	431150	keystroke_c	c	n/a
215.785	0.09	431570	keystroke_t	t	n/a
215.905	0.075	431810	keystroke_o	o	n/a
215.995	0.075	431990	keystroke_r	r	n/a
216.13	0.075	432260	keystroke_Key.space	Key.space	n/a
216.295	0.09	432590	keystroke_n	n	n/a
216.37	0.09	432740	keystroke_a	a	n/a
216.685	0.105	433370	keystroke_v	v	n/a
216.835	0.0905	433670	keystroke_i	i	n/a
217.3005	0.044	434601	keystroke_g	g	n/a
217.4795	0.045	434959	keystroke_a	a	n/a
217.6445	0.136	435289	keystroke_i	i	n/a
217.6595	0.075	435319	keystroke_t	t	n/a
217.7055	0.09	435411	keystroke_o	o	n/a
217.9155	0.0745	435831	keystroke_n	n	n/a
218.125	0.105	436250	keystroke_Key.enter	Key.enter	n/a
218.235	5.8615	436470	prompt	n/a	librarian divisions coming guide\n
219.175	0.09	438350	keystroke_l	l	n/a
219.385	0.0905	438770	keystroke_i	i	n/a
219.5955	0.09	439191	keystroke_b	b	n/a
219.7155	0.075	439431	keystroke_r	r	n/a
219.8505	0.105	439701	keystroke_a	a	n/a
220.0155	0.105	440031	keystroke_r	r	n/a
220.1505	0.09	440301	keystroke_i	i	n/a
220.2555	0.075	440511	keystroke_a	a	n/a
220.3455	0.075	440691	keystroke_n	n	n/a
220.525	0.09	441050	keystroke_Key.space	Key.space	n/a
220.81	0.075	441620	keystroke_d	d	n/a
220.915	0.1055	441830	keystroke_i	i	n/a
221.0355	0.09	442071	keystroke_v	v	n/a
221.1555	0.075	442311	keystroke_i	i	n/a
221.3205	0.09	442641	keystroke_s	s	n/a
221.5005	0.06	443001	keystroke_i	i	n/a
221.6805	0.06	443361	keystroke_o	o	n/a
221.8605	0.09	443721	keystroke_n	n	n/a
221.9805	0.12	443961	keystroke_s	s	n/a
222.1155	0.105	444231	keystroke_Key.space	Key.space	n/a
222.2955	0.075	444591	keystroke_c	c	n/a
222.3405	0.12	444681	keystroke_o	o	n/a
222.4455	0.075	444891	keystroke_m	m	n/a
222.5805	0.105	445161	keystroke_i	i	n/a
222.6705	0.09	445341	keystroke_n	n	n/a
222.7755	0.09	445551	keystroke_g	g	n/a
222.8805	0.06	445761	keystroke_Key.space	Key.space	n/a
223.5255	0.075	447051	keystroke_g	g	n/a
223.6005	0.105	447201	keystroke_u	u	n/a
223.6605	0.1195	447321	keystroke_i	i	n/a
223.765	0.135	447530	keystroke_d	d	n/a
223.84	0.135	447680	keystroke_e	e	n/a
223.96	0.135	447920	keystroke_Key.enter	Key.enter	n/a
224.0995	6.6275	448199	prompt	n/a	consciousness am arrangement paradise\n
224.7405	0.12	449481	keystroke_c	c	n/a
224.8155	0.075	449631	keystroke_o	o	n/a
225.0105	0.12	450021	keystroke_n	n	n/a
225.3255	0.09	450651	keystroke_s	s	n/a
225.5205	0.105	451041	keystroke_c	c	n/a
225.6405	0.15	451281	keystroke_i	i	n/a
225.7605	0.135	451521	keystroke_o	o	n/a
226.1805	0.09	452361	keystroke_u	u	n/a
226.2855	0.12	452571	keystroke_s	s	n/a
226.4655	0.105	452931	keystroke_n	n	n/a
226.6005	0.135	453201	keystroke_e	e	n/a
226.8555	0.045	453711	keystroke_s	s	n/a
227.0055	0.075	454011	keystroke_s	s	n/a
227.1405	0.075	454281	keystroke_Key.space	Key.space	n/a
227.3355	0.105	454671	keystroke_a	a	n/a
227.4255	0.06	454851	keystroke_m	m	n/a
227.5905	0.09	455181	keystroke_Key.space	Key.space	n/a
227.6655	0.105	455331	keystroke_a	a	n/a
227.8755	0.0745	455751	keystroke_r	r	n/a
228.025	0.09	456050	keystroke_r	r	n/a
228.145	0.15	456290	keystroke_a	a	n/a
228.28	0.09	456560	keystroke_n	n	n/a
228.475	0.075	456950	keystroke_g	g	n/a
228.595	0.105	457190	keystroke_e	e	n/a
228.715	0.075	457430	keystroke_m	m	n/a
228.82	0.12	457640	keystroke_e	e	n/a
228.955	0.075	457910	keystroke_n	n	n/a
229.075	0.075	458150	keystroke_t	t	n/a
229.18	0.075	458360	keystroke_Key.space	Key.space	n/a
229.3905	0.105	458781	keystroke_p	p	n/a
229.6755	0.105	459351	keystroke_a	a	n/a
229.8555	0.075	459711	keystroke_r	r	n/a
229.9905	0.075	459981	keystroke_a	a	n/a
230.1255	0.09	460251	keystroke_d	d	n/a
230.2605	0.135	460521	keystroke_i	i	n/a
230.3505	0.09	460701	keystroke_s	s	n/a
230.485	0.105	460970	keystroke_e	e	n/a
230.62	0.105	461240	keystroke_Key.enter	Key.enter	n/a
230.7305	5.0665	461461	prompt	n/a	colorado auctions supplies are\n
231.2955	0.09	462591	keystroke_c	c	n/a
231.3705	0.075	462741	keystroke_o	o	n/a
231.535	0.075	463070	keystroke_l	l	n/a
231.7	0.091	463400	keystroke_o	o	n/a
231.73	0.075	463460	keystroke_r	r	n/a
231.865	0.12	463730	keystroke_a	a	n/a
232.045	0.105	464090	keystroke_d	d	n/a
232.165	0.045	464330	keystroke_o	o	n/a
232.315	0.105	464630	keystroke_Key.space	Key.space	n/a
232.435	0.075	464870	keystroke_a	a	n/a
232.645	0.075	465290	keystroke_u	u	n/a
232.705	0.075	465410	keystroke_c	c	n/a
232.93	0.0755	465860	keystroke_t	t	n/a
232.9605	0.12	465921	keystroke_i	i	n/a
233.0355	0.06	466071	keystroke_o	o	n/a
233.2155	0.09	466431	keystroke_n	n	n/a
233.3205	0.105	466641	keystroke_s	s	n/a
233.4405	0.09	466881	keystroke_Key.space	Key.space	n/a
233.6805	0.105	467361	keystroke_s	s	n/a
234.2055	0.075	468411	keystroke_u	u	n/a
234.4005	0.06	468801	keystroke_p	p	n/a
234.5655	0.075	469131	keystroke_p	p	n/a
234.76	0.09	469520	keystroke_l	l	n/a
234.985	0.075	469970	keystroke_i	i	n/a
235.045	0.06	470090	keystroke_e	e	n/a
235.21	0.075	470420	keystroke_s	s	n/a
235.27	0.105	470540	keystroke_Key.space	Key.space	n/a
235.345	0.12	470690	keystroke_a	a	n/a
235.51	0.165	471020	keystroke_r	r	n/a
235.615	0.105	471230	keystroke_e	e	n/a
235.705	0.09	471410	keystroke_Key.enter	Key.enter	n/a
235.8005	6.2365	471601	prompt	n/a	fantasy generated dans echo\n
236.6055	0.075	473211	keystroke_f	f	n/a
236.7855	0.075	473571	keystroke_a	a	n/a
236.8755	0.105	473751	keystroke_n	n	n/a
236.9655	0.075	473931	keystroke_t	t	n/a
237.1455	0.105	474291	keystroke_a	a	n/a
237.2205	0.135	474441	keystroke_s	s	n/a
237.4	0.075	474800	keystroke_y	y	n/a
237.685	0.12	475370	keystroke_Key.space	Key.space	n/a
238.1655	0.09	476331	keystroke_g	g	n/a
238.2405	0.075	476481	keystroke_e	e	n/a
238.7655	0.075	477531	keystroke_n	n	n/a
238.8415	0.104	477683	keystroke_e	e	n/a
239.0955	0.09	478191	keystroke_r	r	n/a
239.2755	0.09	478551	keystroke_a	a	n/a
239.3805	0.075	478761	keystroke_t	t	n/a
239.4705	0.06	478941	keystroke_e	e	n/a
239.6505	0.075	479301	keystroke_d	d	n/a
239.7105	0.105	479421	keystroke_Key.space	Key.space	n/a
239.8755	0.105	479751	keystroke_d	d	n/a
240.221	0.104	480442	keystroke_a	a	n/a
240.341	0.089	480682	keystroke_n	n	n/a
240.476	0.06	480952	keystroke_s	s	n/a
240.595	0.1205	481190	keystroke_Key.space	Key.space	n/a
240.7455	0.105	481491	keystroke_s	s	n/a
241.1355	0.075	482271	keystroke_Key.backspace	Key.backspace	n/a
241.2255	0.075	482451	keystroke_e	e	n/a
241.4505	0.1045	482901	keystroke_c	c	n/a
241.54	0.075	483080	keystroke_h	h	n/a
241.72	0.09	483440	keystroke_o	o	n/a
241.93	0.105	483860	keystroke_Key.enter	Key.enter	n/a
242.04	6.822	484080	prompt	n/a	niagara faculty help state\n
242.6655	0.09	485331	keystroke_n	n	n/a
242.9205	0.1345	485841	keystroke_i	i	n/a
243.19	0.135	486380	keystroke_a	a	n/a
244.3155	0.105	488631	keystroke_g	g	n/a
244.54	0.12	489080	keystroke_a	a	n/a
244.735	0.09	489470	keystroke_r	r	n/a
244.915	0.09	489830	keystroke_a	a	n/a
245.006	0.089	490012	keystroke_Key.space	Key.space	n/a
245.38	0.09	490760	keystroke_f	f	n/a
245.545	0.1055	491090	keystroke_a	a	n/a
245.7705	0.075	491541	keystroke_c	c	n/a
245.8455	0.09	491691	keystroke_u	u	n/a
246.0105	0.135	492021	keystroke_l	l	n/a
246.2505	0.105	492501	keystroke_t	t	n/a
246.4905	0.075	492981	keystroke_y	y	n/a
246.7305	0.09	493461	keystroke_Key.space	Key.space	n/a
246.97	0.09	493940	keystroke_h	h	n/a
247.105	0.105	494210	keystroke_e	e	n/a
247.21	0.09	494420	keystroke_l	l	n/a
247.435	0.06	494870	keystroke_p	p	n/a
247.66	0.105	495320	keystroke_Key.space	Key.space	n/a
247.81	0.12	495620	keystroke_s	s	n/a
248.1855	0.075	496371	keystroke_t	t	n/a
248.365	0.091	496730	keystroke_a	a	n/a
248.576	0.0895	497152	keystroke_t	t	n/a
248.6505	0.135	497301	keystroke_e	e	n/a
248.8005	0.06	497601	keystroke_Key.enter	Key.enter	n/a
248.8705	5.9765	497741	prompt	n/a	father terrible politicians surge\n
249.6555	0.09	499311	keystroke_f	f	n/a
249.8205	0.105	499641	keystroke_a	a	n/a
249.9555	0.105	499911	keystroke_t	t	n/a
250.1655	0.09	500331	keystroke_h	h	n/a
250.2405	0.105	500481	keystroke_e	e	n/a
250.2855	0.12	500571	keystroke_r	r	n/a
250.4505	0.12	500901	keystroke_Key.space	Key.space	n/a
250.7055	0.09	501411	keystroke_t	t	n/a
250.856	0.1345	501712	keystroke_e	e	n/a
250.9605	0.105	501921	keystroke_r	r	n/a
251.1255	0.12	502251	keystroke_r	r	n/a
251.2005	0.105	502401	keystroke_i	i	n/a
251.3805	0.09	502761	keystroke_b	b	n/a
251.6205	0.09	503241	keystroke_l	l	n/a
251.7405	0.09	503481	keystroke_e	e	n/a
251.8755	0.105	503751	keystroke_Key.space	Key.space	n/a
252.1305	0.135	504261	keystroke_p	p	n/a
252.2355	0.105	504471	keystroke_o	o	n/a
252.4455	0.075	504891	keystroke_l	l	n/a
252.6555	0.135	505311	keystroke_i	i	n/a
252.8205	0.09	505641	keystroke_t	t	n/a
252.9855	0.105	505971	keystroke_i	i	n/a
253.0605	0.105	506121	keystroke_c	c	n/a
253.2855	0.09	506571	keystroke_a	a	n/a
253.435	0.075	506870	keystroke_n	n	n/a
253.5555	0.0895	507111	keystroke_s	s	n/a
253.6755	0.09	507351	keystroke_Key.space	Key.space	n/a
253.8105	0.105	507621	keystroke_s	s	n/a
253.9905	0.09	507981	keystroke_u	u	n/a
254.2305	0.075	508461	keystroke_r	r	n/a
254.3955	0.09	508791	keystroke_g	g	n/a
254.5005	0.09	509001	keystroke_e	e	n/a
254.7555	0.09	509511	keystroke_Key.enter	Key.enter	n/a
254.8505	6.223	509701	prompt	n/a	specifically tickets tolerance within\n
255.625	0.106	511250	keystroke_s	s	n/a
255.746	0.119	511492	keystroke_p	p	n/a
255.88	0.076	511760	keystroke_e	e	n/a
256.076	0.074	512152	keystroke_c	c	n/a
256.165	0.105	512330	keystroke_i	i	n/a
256.285	0.091	512570	keystroke_f	f	n/a
256.391	0.105	512782	keystroke_i	i	n/a
256.45	0.06	512900	keystroke_c	c	n/a
256.586	0.105	513172	keystroke_a	a	n/a
256.661	0.059	513322	keystroke_l	l	n/a
256.81	0.076	513620	keystroke_l	l	n/a
257.021	0.059	514042	keystroke_y	y	n/a
257.215	0.1055	514430	keystroke_Key.space	Key.space	n/a
257.3655	0.09	514731	keystroke_t	t	n/a
257.65	0.061	515300	keystroke_c	c	n/a
257.9355	0.06	515871	keystroke_Key.backspace	Key.backspace	n/a
258.115	0.09	516230	keystroke_i	i	n/a
258.22	0.075	516440	keystroke_c	c	n/a
258.355	0.09	516710	keystroke_k	k	n/a
258.551	0.12	517102	keystroke_e	e	n/a
258.701	0.105	517402	keystroke_t	t	n/a
258.9255	0.09	517851	keystroke_s	s	n/a
259.0005	0.105	518001	keystroke_Key.space	Key.space	n/a
259.166	0.09	518332	keystroke_t	t	n/a
259.241	0.0745	518482	keystroke_o	o	n/a
259.4205	0.09	518841	keystroke_l	l	n/a
259.4355	0.12	518871	keystroke_e	e	n/a
259.5255	0.12	519051	keystroke_r	r	n/a
259.7505	0.0905	519501	keystroke_a	a	n/a
259.9	0.091	519800	keystroke_n	n	n/a
260.006	0.045	520012	keystroke_c	c	n/a
260.066	0.1045	520132	keystroke_e	e	n/a
260.156	0.1045	520312	keystroke_Key.space	Key.space	n/a
260.2755	0.105	520551	keystroke_w	w	n/a
260.3815	0.089	520763	keystroke_i	i	n/a
260.4855	0.1045	520971	keystroke_t	t	n/a
260.5455	0.0905	521091	keystroke_h	h	n/a
260.665	0.105	521330	keystroke_i	i	n/a
260.786	0.074	521572	keystroke_n	n	n/a
260.965	0.105	521930	keystroke_Key.enter	Key.enter	n/a
261.0835	6.5285	522167	prompt	n/a	sugar anytime churches spring\n
261.641	0.105	523282	keystroke_s	s	n/a
261.9105	0.09	523821	keystroke_u	u	n/a
262.1055	0.09	524211	keystroke_g	g	n/a
262.1805	0.06	524361	keystroke_a	a	n/a
262.3155	0.09	524631	keystroke_r	r	n/a
262.3905	0.1045	524781	keystroke_Key.space	Key.space	n/a
262.525	0.1055	525050	keystroke_a	a	n/a
262.615	0.0755	525230	keystroke_n	n	n/a
262.7955	0.09	525591	keystroke_y	y	n/a
262.9155	0.09	525831	keystroke_t	t	n/a
263.0055	0.135	526011	keystroke_i	i	n/a
263.0955	0.09	526191	keystroke_m	m	n/a
263.2155	0.075	526431	keystroke_e	e	n/a
263.3205	0.09	526641	keystroke_Key.space	Key.space	n/a
263.4705	0.105	526941	keystroke_c	c	n/a
263.5455	0.075	527091	keystroke_h	h	n/a
263.7105	0.09	527421	keystroke_u	u	n/a
263.7855	0.075	527571	keystroke_r	r	n/a
263.9505	0.075	527901	keystroke_h	h	n/a
264.0105	0.075	528021	keystroke_c	c	n/a
264.1905	0.06	528381	keystroke_e	e	n/a
264.3555	0.1045	528711	keystroke_s	s	n/a
264.4305	0.1045	528861	keystroke_Key.space	Key.space	n/a
265.0455	0.06	530091	keystroke_Key.backspace	Key.backspace	n/a
265.2255	0.0595	530451	keystroke_Key.backspace	Key.backspace	n/a
265.39	0.075	530780	keystroke_Key.backspace	Key.backspace	n/a
265.57	0.076	531140	keystroke_Key.backspace	Key.backspace	n/a
265.735	0.09	531470	keystroke_Key.backspace	Key.backspace	n/a
266.0655	0.09	532131	keystroke_c	c	n/a
266.1855	0.105	532371	keystroke_h	h	n/a
266.3055	0.075	532611	keystroke_e	e	n/a
266.4705	0.105	532941	keystroke_s	s	n/a
266.5455	0.06	533091	keystroke_Key.space	Key.space	n/a
266.7405	0.12	533481	keystroke_s	s	n/a
266.7855	0.09	533571	keystroke_p	p	n/a
266.9955	0.105	533991	keystroke_r	r	n/a
267.1155	0.105	534231	keystroke_i	i	n/a
267.2205	0.09	534441	keystroke_n	n	n/a
267.3405	0.075	534681	keystroke_g	g	n/a
267.4905	0.12	534981	keystroke_Key.enter	Key.enter	n/a
267.6165	5.696	535233	prompt	n/a	brass ticket toner functionality\n
268.3005	0.09	536601	keystroke_b	b	n/a
268.3605	0.075	536721	keystroke_r	r	n/a
268.5555	0.12	537111	keystroke_a	a	n/a
268.6305	0.1055	537261	keystroke_s	s	n/a
268.826	0.105	537652	keystroke_s	s	n/a
268.976	0.12	537952	keystroke_Key.space	Key.space	n/a
269.156	0.075	538312	keystroke_t	t	n/a
269.261	0.12	538522	keystroke_i	i	n/a
269.426	0.09	538852	keystroke_c	c	n/a
269.576	0.075	539152	keystroke_k	k	n/a
269.666	0.0895	539332	keystroke_e	e	n/a
269.8305	0.105	539661	keystroke_t	t	n/a
269.9205	0.075	539841	keystroke_Key.space	Key.space	n/a
270.1005	0.0905	540201	keystroke_t	t	n/a
270.1755	0.06	540351	keystroke_o	o	n/a
270.3405	0.075	540681	keystroke_n	n	n/a
270.4005	0.1205	540801	keystroke_e	e	n/a
270.4455	0.12	540891	keystroke_r	r	n/a
270.5955	0.105	541191	keystroke_Key.space	Key.space	n/a
270.8805	0.075	541761	keystroke_f	f	n/a
270.9705	0.09	541941	keystroke_u	u	n/a
271.1655	0.09	542331	keystroke_n	n	n/a
271.8255	0.075	543651	keystroke_c	c	n/a
272.035	0.09	544070	keystroke_t	t	n/a
272.065	0.12	544130	keystroke_i	i	n/a
272.14	0.09	544280	keystroke_o	o	n/a
272.35	0.1055	544700	keystroke_n	n	n/a
272.5155	0.105	545031	keystroke_a	a	n/a
272.6355	0.12	545271	keystroke_l	l	n/a
272.7255	0.09	545451	keystroke_i	i	n/a
272.8305	0.1195	545661	keystroke_t	t	n/a
272.9805	0.075	545961	keystroke_y	y	n/a
273.2355	0.075	546471	keystroke_Key.enter	Key.enter	n/a
273.3185	8.934	546637	prompt	n/a	trouble entities scratch predict\n
276.4635	0.027	552927	keystroke_t	t	n/a
276.5955	0.09	553191	keystroke_r	r	n/a
276.6405	0.12	553281	keystroke_o	o	n/a
276.7305	0.06	553461	keystroke_u	u	n/a
276.94	0.075	553880	keystroke_b	b	n/a
277.135	0.105	554270	keystroke_l	l	n/a
277.285	0.045	554570	keystroke_e	e	n/a
277.405	0.09	554810	keystroke_Key.space	Key.space	n/a
277.75	0.135	555500	keystroke_e	e	n/a
277.871	0.119	555742	keystroke_n	n	n/a
278.035	0.1205	556070	keystroke_t	t	n/a
278.2155	0.135	556431	keystroke_i	i	n/a
278.3355	0.12	556671	keystroke_t	t	n/a
279.0705	0.09	558141	keystroke_e	e	n/a
279.2655	0.09	558531	keystroke_s	s	n/a
279.3405	0.135	558681	keystroke_Key.space	Key.space	n/a
279.625	0.105	559250	keystroke_s	s	n/a
279.88	0.075	559760	keystroke_c	c	n/a
280.12	0.045	560240	keystroke_r	r	n/a
280.33	0.12	560660	keystroke_a	a	n/a
280.585	0.06	561170	keystroke_t	t	n/a
280.795	0.09	561590	keystroke_c	c	n/a
280.9	0.06	561800	keystroke_h	h	n/a
281.111	0.06	562222	keystroke_Key.space	Key.space	n/a
281.306	0.09	562612	keystroke_p	p	n/a
281.351	0.12	562702	keystroke_r	r	n/a
281.441	0.075	562882	keystroke_e	e	n/a
281.591	0.09	563182	keystroke_d	d	n/a
281.726	0.12	563452	keystroke_i	i	n/a
281.861	0.045	563722	keystroke_c	c	n/a
282.056	0.105	564112	keystroke_t	t	n/a
282.146	0.105	564292	keystroke_Key.enter	Key.enter	n/a
282.263	6.3195	564526	prompt	n/a	dist graduation could recommendations\n
283.001	0.09	566002	keystroke_d	d	n/a
283.106	0.12	566212	keystroke_i	i	n/a
283.211	0.105	566422	keystroke_s	s	n/a
283.391	0.075	566782	keystroke_t	t	n/a
283.526	0.135	567052	keystroke_Key.space	Key.space	n/a
283.931	0.0745	567862	keystroke_g	g	n/a
283.946	0.09	567892	keystroke_r	r	n/a
284.111	0.075	568222	keystroke_a	a	n/a
284.2455	0.0905	568491	keystroke_d	d	n/a
284.381	0.105	568762	keystroke_u	u	n/a
284.4405	0.0905	568881	keystroke_a	a	n/a
284.606	0.12	569212	keystroke_t	t	n/a
284.651	0.135	569302	keystroke_i	i	n/a
284.741	0.0895	569482	keystroke_o	o	n/a
284.936	0.0745	569872	keystroke_n	n	n/a
285.086	0.1045	570172	keystroke_Key.space	Key.space	n/a
285.1905	0.1205	570381	keystroke_c	c	n/a
285.3255	0.12	570651	keystroke_o	o	n/a
285.416	0.105	570832	keystroke_u	u	n/a
285.596	0.15	571192	keystroke_l	l	n/a
285.791	0.105	571582	keystroke_d	d	n/a
286.016	0.1195	572032	keystroke_Key.space	Key.space	n/a
286.4655	0.18	572931	keystroke_r	r	n/a
286.5705	0.105	573141	keystroke_e	e	n/a
286.9305	0.12	573861	keystroke_c	c	n/a
287.0655	0.075	574131	keystroke_o	o	n/a
287.2305	0.075	574461	keystroke_m	m	n/a
287.3955	0.09	574791	keystroke_m	m	n/a
287.4705	0.06	574941	keystroke_e	e	n/a
287.6055	0.09	575211	keystroke_n	n	n/a
287.6505	0.06	575301	keystroke_d	d	n/a
287.7405	0.1195	575481	keystroke_a	a	n/a
287.9355	0.1195	575871	keystroke_t	t	n/a
287.995	0.12	575990	keystroke_i	i	n/a
288.07	0.09	576140	keystroke_o	o	n/a
288.25	0.09	576500	keystroke_n	n	n/a
288.325	0.105	576650	keystroke_s	s	n/a
288.491	0.09	576982	keystroke_Key.enter	Key.enter	n/a
288.5925	4.13	577185	prompt	n/a	who elder warm diamond\n
289.2555	0.105	578511	keystroke_w	w	n/a
289.3615	0.074	578723	keystroke_h	h	n/a
289.511	0.09	579022	keystroke_o	o	n/a
289.706	0.075	579412	keystroke_Key.space	Key.space	n/a
289.796	0.075	579592	keystroke_e	e	n/a
289.931	0.105	579862	keystroke_l	l	n/a
290.066	0.1495	580132	keystroke_d	d	n/a
290.1855	0.105	580371	keystroke_e	e	n/a
290.3205	0.105	580641	keystroke_r	r	n/a
290.4405	0.12	580881	keystroke_Key.space	Key.space	n/a
290.5305	0.12	581061	keystroke_w	w	n/a
290.7855	0.12	581571	keystroke_a	a	n/a
290.9955	0.105	581991	keystroke_r	r	n/a
291.1305	0.09	582261	keystroke_m	m	n/a
291.3255	0.09	582651	keystroke_Key.space	Key.space	n/a
291.3855	0.105	582771	keystroke_d	d	n/a
291.5655	0.075	583131	keystroke_i	i	n/a
291.7905	0.1195	583581	keystroke_a	a	n/a
292.06	0.09	584120	keystroke_m	m	n/a
292.226	0.074	584452	keystroke_o	o	n/a
292.405	0.06	584810	keystroke_n	n	n/a
292.496	0.135	584992	keystroke_d	d	n/a
292.645	0.076	585290	keystroke_Key.enter	Key.enter	n/a
292.7255	6.5965	585451	prompt	n/a	discovered participate presented fiction\n
293.471	0.075	586942	keystroke_d	d	n/a
293.5755	0.1205	587151	keystroke_i	i	n/a
293.681	0.075	587362	keystroke_s	s	n/a
293.846	0.075	587692	keystroke_c	c	n/a
293.996	0.105	587992	keystroke_o	o	n/a
294.221	0.075	588442	keystroke_v	v	n/a
294.371	0.1045	588742	keystroke_e	e	n/a
294.4605	0.1805	588921	keystroke_r	r	n/a
294.5805	0.1205	589161	keystroke_e	e	n/a
294.776	0.12	589552	keystroke_d	d	n/a
294.941	0.075	589882	keystroke_Key.space	Key.space	n/a
295.241	0.12	590482	keystroke_p	p	n/a
295.376	0.06	590752	keystroke_a	a	n/a
295.541	0.0895	591082	keystroke_r	r	n/a
295.7505	0.06	591501	keystroke_t	t	n/a
295.8255	0.09	591651	keystroke_i	i	n/a
295.9305	0.09	591861	keystroke_c	c	n/a
296.0355	0.09	592071	keystroke_i	i	n/a
296.2305	0.105	592461	keystroke_p	p	n/a
296.2905	0.075	592581	keystroke_a	a	n/a
296.4555	0.1055	592911	keystroke_t	t	n/a
296.531	0.104	593062	keystroke_e	e	n/a
296.65	0.105	593300	keystroke_Key.space	Key.space	n/a
296.95	0.121	593900	keystroke_p	p	n/a
297.085	0.151	594170	keystroke_r	r	n/a
297.175	0.106	594350	keystroke_e	e	n/a
297.4005	0.06	594801	keystroke_s	s	n/a
297.5355	0.075	595071	keystroke_e	e	n/a
297.6405	0.09	595281	keystroke_n	n	n/a
297.7455	0.075	595491	keystroke_t	t	n/a
297.8055	0.105	595611	keystroke_e	e	n/a
297.9855	0.09	595971	keystroke_d	d	n/a
298.0455	0.135	596091	keystroke_Key.space	Key.space	n/a
298.2705	0.075	596541	keystroke_f	f	n/a
298.3755	0.105	596751	keystroke_i	i	n/a
298.4655	0.075	596931	keystroke_c	c	n/a
298.6455	0.105	597291	keystroke_t	t	n/a
298.6905	0.075	597381	keystroke_i	i	n/a
298.8705	0.045	597741	keystroke_o	o	n/a
299.0205	0.06	598041	keystroke_n	n	n/a
299.2155	0.105	598431	keystroke_Key.enter	Key.enter	n/a
299.326	5.9065	598652	prompt	n/a	gamma playstation cameras dash\n
300.3105	0.03	600621	keystroke_h	h	n/a
300.6255	0.0605	601251	keystroke_Key.backspace	Key.backspace	n/a
300.7155	0.105	601431	keystroke_g	g	n/a
300.941	0.1045	601882	keystroke_a	a	n/a
301.031	0.0595	602062	keystroke_m	m	n/a
301.166	0.06	602332	keystroke_m	m	n/a
301.2855	0.09	602571	keystroke_a	a	n/a
301.3455	0.0755	602691	keystroke_Key.space	Key.space	n/a
301.5555	0.105	603111	keystroke_p	p	n/a
301.616	0.105	603232	keystroke_l	l	n/a
301.736	0.075	603472	keystroke_a	a	n/a
301.9755	0.015	603951	keystroke_y	y	n/a
302.0055	0.06	604011	keystroke_s	s	n/a
302.1105	0.105	604221	keystroke_t	t	n/a
302.231	0.0745	604462	keystroke_a	a	n/a
302.456	0.105	604912	keystroke_t	t	n/a
302.546	0.12	605092	keystroke_i	i	n/a
302.636	0.075	605272	keystroke_o	o	n/a
302.8155	0.075	605631	keystroke_n	n	n/a
302.9955	0.09	605991	keystroke_Key.space	Key.space	n/a
303.0405	0.06	606081	keystroke_c	c	n/a
303.2055	0.105	606411	keystroke_a	a	n/a
303.3255	0.09	606651	keystroke_m	m	n/a
303.3855	0.075	606771	keystroke_e	e	n/a
303.5655	0.06	607131	keystroke_r	r	n/a
303.7005	0.135	607401	keystroke_a	a	n/a
303.8205	0.09	607641	keystroke_s	s	n/a
303.9855	0.105	607971	keystroke_Key.space	Key.space	n/a
304.301	0.075	608602	keystroke_d	d	n/a
304.5405	0.12	609081	keystroke_a	a	n/a
304.6305	0.12	609261	keystroke_s	s	n/a
304.796	0.1195	609592	keystroke_h	h	n/a
305.1405	0.09	610281	keystroke_Key.enter	Key.enter	n/a
305.2385	7.539	610477	prompt	n/a	boating reaching exist bizarre\n
305.905	0.075	611810	keystroke_b	b	n/a
306.626	0.105	613252	keystroke_o	o	n/a
306.746	0.075	613492	keystroke_a	a	n/a
306.911	0.105	613822	keystroke_t	t	n/a
306.986	0.105	613972	keystroke_i	i	n/a
307.076	0.105	614152	keystroke_n	n	n/a
307.196	0.06	614392	keystroke_g	g	n/a
307.286	0.12	614572	keystroke_Key.space	Key.space	n/a
307.421	0.15	614842	keystroke_r	r	n/a
307.496	0.09	614992	keystroke_e	e	n/a
307.691	0.06	615382	keystroke_a	a	n/a
307.856	0.105	615712	keystroke_c	c	n/a
307.931	0.075	615862	keystroke_h	h	n/a
308.021	0.09	616042	keystroke_i	i	n/a
308.141	0.105	616282	keystroke_n	n	n/a
308.336	0.075	616672	keystroke_Key.space	Key.space	n/a
308.65	0.061	617300	keystroke_Key.backspace	Key.backspace	n/a
309.1155	0.09	618231	keystroke_g	g	n/a
309.5805	0.105	619161	keystroke_Key.space	Key.space	n/a
309.7	0.075	619400	keystroke_e	e	n/a
309.9105	0.0745	619821	keystroke_x	x	n/a
310.03	0.105	620060	keystroke_i	i	n/a
310.12	0.105	620240	keystroke_s	s	n/a
310.33	0.09	620660	keystroke_t	t	n/a
310.435	0.1355	620870	keystroke_Key.space	Key.space	n/a
311.2005	0.09	622401	keystroke_b	b	n/a
311.4255	0.15	622851	keystroke_i	i	n/a
311.5605	0.09	623121	keystroke_a	a	n/a
311.8905	0.09	623781	keystroke_Key.backspace	Key.backspace	n/a
311.9655	0.06	623931	keystroke_z	z	n/a
312.1455	0.09	624291	keystroke_a	a	n/a
312.3405	0.06	624681	keystroke_r	r	n/a
312.5505	0.075	625101	keystroke_r	r	n/a
312.5655	0.12	625131	keystroke_e	e	n/a
312.6705	0.105	625341	keystroke_Key.enter	Key.enter	n/a
312.788	4.46	625576	prompt	n/a	lens math bios checkout\n
313.6005	0.15	627201	keystroke_l	l	n/a
313.7655	0.09	627531	keystroke_e	e	n/a
313.9005	0.09	627801	keystroke_n	n	n/a
314.0055	0.105	628011	keystroke_s	s	n/a
314.1255	0.045	628251	keystroke_Key.space	Key.space	n/a
314.2755	0.09	628551	keystroke_m	m	n/a
314.3505	0.03	628701	keystroke_e	e	n/a
314.6205	0.075	629241	keystroke_Key.backspace	Key.backspace	n/a
314.6805	0.105	629361	keystroke_a	a	n/a
314.8905	0.105	629781	keystroke_t	t	n/a
314.9655	0.09	629931	keystroke_h	h	n/a
315.1905	0.075	630381	keystroke_Key.space	Key.space	n/a
315.3705	0.075	630741	keystroke_b	b	n/a
315.5805	0.135	631161	keystroke_i	i	n/a
315.6855	0.135	631371	keystroke_o	o	n/a
315.8655	0.105	631731	keystroke_s	s	n/a
316.0305	0.09	632061	keystroke_Key.space	Key.space	n/a
316.1505	0.09	632301	keystroke_c	c	n/a
316.2855	0.105	632571	keystroke_h	h	n/a
316.3605	0.075	632721	keystroke_e	e	n/a
316.511	0.12	633022	keystroke_c	c	n/a
316.601	0.089	633202	keystroke_k	k	n/a
316.796	0.134	633592	keystroke_o	o	n/a
316.916	0.105	633832	keystroke_u	u	n/a
316.99	0.106	633980	keystroke_t	t	n/a
317.125	0.12	634250	keystroke_Key.enter	Key.enter	n/a
317.251	6.6115	634502	prompt	n/a	broader block benefits entertaining\n
317.921	0.119	635842	keystroke_b	b	n/a
318.025	0.09	636050	keystroke_r	r	n/a
318.25	0.105	636500	keystroke_a	a	n/a
318.5805	0.075	637161	keystroke_Key.backspace	Key.backspace	n/a
318.791	0.09	637582	keystroke_o	o	n/a
318.851	0.09	637702	keystroke_a	a	n/a
319.016	0.15	638032	keystroke_d	d	n/a
319.121	0.1045	638242	keystroke_e	e	n/a
319.2555	0.105	638511	keystroke_r	r	n/a
319.3455	0.075	638691	keystroke_Key.space	Key.space	n/a
319.5255	0.015	639051	keystroke_b	b	n/a
319.6755	0.09	639351	keystroke_l	l	n/a
319.8405	0.075	639681	keystroke_o	o	n/a
319.9755	0.105	639951	keystroke_c	c	n/a
320.0655	0.075	640131	keystroke_k	k	n/a
320.2455	0.09	640491	keystroke_Key.space	Key.space	n/a
320.4405	0.09	640881	keystroke_b	b	n/a
320.5455	0.105	641091	keystroke_e	e	n/a
320.7255	0.12	641451	keystroke_n	n	n/a
320.8305	0.09	641661	keystroke_e	e	n/a
321.3105	0.075	642621	keystroke_f	f	n/a
321.4455	0.075	642891	keystroke_i	i	n/a
321.5055	0.09	643011	keystroke_t	t	n/a
321.6405	0.105	643281	keystroke_s	s	n/a
321.7605	0.105	643521	keystroke_Key.space	Key.space	n/a
321.9555	0.09	643911	keystroke_e	e	n/a
322.0755	0.09	644151	keystroke_n	n	n/a
322.1805	0.09	644361	keystroke_t	t	n/a
322.3455	0.12	644691	keystroke_e	e	n/a
322.4205	0.12	644841	keystroke_r	r	n/a
322.796	0.06	645592	keystroke_t	t	n/a
322.976	0.105	645952	keystroke_a	a	n/a
323.096	0.105	646192	keystroke_i	i	n/a
323.186	0.1345	646372	keystroke_n	n	n/a
323.3655	0.12	646731	keystroke_i	i	n/a
323.4705	0.12	646941	keystroke_n	n	n/a
323.6215	0.074	647243	keystroke_g	g	n/a
323.771	0.09	647542	keystroke_Key.enter	Key.enter	n/a
323.8655	4.6615	647731	prompt	n/a	floors employ rivers jamie\n
324.866	0.105	649732	keystroke_f	f	n/a
324.986	0.045	649972	keystroke_l	l	n/a
325.196	0.045	650392	keystroke_o	o	n/a
325.346	0.075	650692	keystroke_o	o	n/a
325.391	0.12	650782	keystroke_r	r	n/a
325.451	0.15	650902	keystroke_s	s	n/a
325.616	0.075	651232	keystroke_Key.space	Key.space	n/a
325.706	0.105	651412	keystroke_e	e	n/a
325.856	0.06	651712	keystroke_m	m	n/a
326.006	0.165	652012	keystroke_p	p	n/a
326.111	0.105	652222	keystroke_l	l	n/a
326.291	0.105	652582	keystroke_o	o	n/a
326.516	0.06	653032	keystroke_y	y	n/a
326.726	0.0895	653452	keystroke_Key.space	Key.space	n/a
326.8305	0.075	653661	keystroke_r	r	n/a
326.9355	0.09	653871	keystroke_i	i	n/a
327.0555	0.09	654111	keystroke_v	v	n/a
327.2805	0.12	654561	keystroke_e	e	n/a
327.3705	0.105	654741	keystroke_r	r	n/a
327.5355	0.12	655071	keystroke_s	s	n/a
327.6255	0.105	655251	keystroke_Key.space	Key.space	n/a
327.8955	0.075	655791	keystroke_j	j	n/a
327.9855	0.09	655971	keystroke_a	a	n/a
328.1055	0.06	656211	keystroke_m	m	n/a
328.1955	0.105	656391	keystroke_i	i	n/a
328.2705	0.105	656541	keystroke_e	e	n/a
328.4205	0.1055	656841	keystroke_Key.enter	Key.enter	n/a
328.5305	5.7565	657061	prompt	n/a	planet don't jonathan pipe\n
329.2305	0.09	658461	keystroke_p	p	n/a
329.4255	0.075	658851	keystroke_l	l	n/a
329.5155	0.09	659031	keystroke_a	a	n/a
329.7255	0.075	659451	keystroke_n	n	n/a
329.7855	0.045	659571	keystroke_e	e	n/a
329.9805	0.1055	659961	keystroke_t	t	n/a
330.0555	0.0755	660111	keystroke_Key.space	Key.space	n/a
330.416	0.105	660832	keystroke_d	d	n/a
330.4755	0.0745	660951	keystroke_o	o	n/a
330.655	0.09	661310	keystroke_n	n	n/a
331.316	0.075	662632	keystroke_'	'	n/a
331.4815	0.104	662963	keystroke_t	t	n/a
331.6005	0.075	663201	keystroke_Key.space	Key.space	n/a
331.811	0.105	663622	keystroke_j	j	n/a
331.976	0.09	663952	keystroke_o	o	n/a
332.171	0.135	664342	keystroke_n	n	n/a
332.291	0.09	664582	keystroke_a	a	n/a
332.5155	0.105	665031	keystroke_t	t	n/a
332.6955	0.105	665391	keystroke_h	h	n/a
332.816	0.105	665632	keystroke_a	a	n/a
332.936	0.06	665872	keystroke_n	n	n/a
333.101	0.06	666202	keystroke_Key.space	Key.space	n/a
333.281	0.12	666562	keystroke_p	p	n/a
333.551	0.12	667102	keystroke_i	i	n/a
333.941	0.09	667882	keystroke_p	p	n/a
334.046	0.105	668092	keystroke_e	e	n/a
334.1955	0.09	668391	keystroke_Key.enter	Key.enter	n/a
334.292	6.7455	668584	prompt	n/a	carter exhibits healthcare astrology\n
335.1855	0.09	670371	keystroke_c	c	n/a
335.3805	0.09	670761	keystroke_a	a	n/a
335.5605	0.075	671121	keystroke_r	r	n/a
335.7405	0.105	671481	keystroke_t	t	n/a
335.8755	0.105	671751	keystroke_e	e	n/a
335.9815	0.074	671963	keystroke_r	r	n/a
336.0705	0.1355	672141	keystroke_Key.space	Key.space	n/a
336.176	0.105	672352	keystroke_e	e	n/a
336.416	0.105	672832	keystroke_x	x	n/a
336.566	0.089	673132	keystroke_h	h	n/a
336.6715	0.1345	673343	keystroke_i	i	n/a
336.821	0.105	673642	keystroke_b	b	n/a
336.956	0.135	673912	keystroke_i	i	n/a
337.061	0.105	674122	keystroke_t	t	n/a
337.241	0.105	674482	keystroke_s	s	n/a
337.376	0.15	674752	keystroke_Key.space	Key.space	n/a
337.931	0.06	675862	keystroke_h	h	n/a
337.946	0.09	675892	keystroke_e	e	n/a
338.006	0.12	676012	keystroke_a	a	n/a
338.111	0.12	676222	keystroke_l	l	n/a
338.2605	0.075	676521	keystroke_t	t	n/a
338.3515	0.089	676703	keystroke_h	h	n/a
338.6205	0.075	677241	keystroke_c	c	n/a
338.816	0.06	677632	keystroke_a	a	n/a
338.966	0.135	677932	keystroke_r	r	n/a
339.026	0.12	678052	keystroke_e	e	n/a
339.206	0.135	678412	keystroke_Key.space	Key.space	n/a
339.4615	0.1045	678923	keystroke_a	a	n/a
339.716	0.15	679432	keystroke_s	s	n/a
339.971	0.075	679942	keystroke_t	t	n/a
340.1515	0.0895	680303	keystroke_r	r	n/a
340.2115	0.075	680423	keystroke_o	o	n/a
340.391	0.0445	680782	keystroke_l	l	n/a
340.526	0.075	681052	keystroke_o	o	n/a
340.631	0.12	681262	keystroke_g	g	n/a
340.736	0.06	681472	keystroke_y	y	n/a
340.946	0.09	681892	keystroke_Key.enter	Key.enter	n/a
341.04	13.783	682080	prompt	n/a	synthetic celebrity message classifieds\n
341.8155	0.135	683631	keystroke_s	s	n/a
341.9655	0.06	683931	keystroke_y	y	n/a
342.1905	0.135	684381	keystroke_n	n	n/a
343.4805	0.091	686961	keystroke_t	t	n/a
343.6905	0.1055	687381	keystroke_h	h	n/a
343.811	0.12	687622	keystroke_e	e	n/a
344.261	0.09	688522	keystroke_t	t	n/a
344.411	0.105	688822	keystroke_i	i	n/a
344.546	0.09	689092	keystroke_c	c	n/a
344.681	0.119	689362	keystroke_Key.space	Key.space	n/a
345.056	0.09	690112	keystroke_c	c	n/a
345.341	0.09	690682	keystroke_e	e	n/a
346.3005	0.105	692601	keystroke_l	l	n/a
346.4355	0.1205	692871	keystroke_e	e	n/a
346.631	0.09	693262	keystroke_b	b	n/a
346.736	0.09	693472	keystroke_r	r	n/a
346.856	0.12	693712	keystroke_i	i	n/a
346.976	0.105	693952	keystroke_t	t	n/a
347.111	0.09	694222	keystroke_y	y	n/a
347.351	0.105	694702	keystroke_Key.space	Key.space	n/a
347.621	0.105	695242	keystroke_m	m	n/a
347.711	0.1345	695422	keystroke_a	a	n/a
347.801	0.09	695602	keystroke_s	s	n/a
347.996	0.06	695992	keystroke_s	s	n/a
348.386	0.045	696772	keystroke_Key.backspace	Key.backspace	n/a
348.536	0.06	697072	keystroke_Key.backspace	Key.backspace	n/a
348.716	0.06	697432	keystroke_Key.backspace	Key.backspace	n/a
348.911	0.09	697822	keystroke_e	e	n/a
349.151	0.0745	698302	keystroke_s	s	n/a
349.3605	0.075	698721	keystroke_s	s	n/a
349.3905	0.135	698781	keystroke_a	a	n/a
349.5555	0.12	699111	keystroke_g	g	n/a
349.7205	0.105	699441	keystroke_e	e	n/a
349.8855	0.105	699771	keystroke_Key.space	Key.space	n/a
350.1555	0.09	700311	keystroke_c	c	n/a
350.5455	0.12	701091	keystroke_l	l	n/a
350.6805	0.165	701361	keystroke_a	a	n/a
350.8005	0.12	701601	keystroke_s	s	n/a
351.041	0.105	702082	keystroke_s	s	n/a
351.386	0.15	702772	keystroke_i	i	n/a
352.646	0.15	705292	keystroke_f	f	n/a
353.6355	0.09	707271	keystroke_e	e	n/a
354.4905	0.15	708981	keystroke_d	d	n/a
354.5505	0.15	709101	keystroke_s	s	n/a
354.7305	0.09	709461	keystroke_Key.enter	Key.enter	n/a
354.8335	5.4785	709667	prompt	n/a	roots formal documented mining\n
355.6455	0.105	711291	keystroke_r	r	n/a
355.7205	0.09	711441	keystroke_o	o	n/a
355.9455	0.105	711891	keystroke_o	o	n/a
356.0805	0.09	712161	keystroke_t	t	n/a
356.2605	0.09	712521	keystroke_s	s	n/a
356.3205	0.105	712641	keystroke_Key.space	Key.space	n/a
356.4705	0.09	712941	keystroke_f	f	n/a
356.6055	0.09	713211	keystroke_o	o	n/a
356.7255	0.09	713451	keystroke_r	r	n/a
356.8755	0.09	713751	keystroke_m	m	n/a
356.9805	0.12	713961	keystroke_a	a	n/a
357.1155	0.06	714231	keystroke_l	l	n/a
357.3105	0.06	714621	keystroke_Key.space	Key.space	n/a
357.4155	0.09	714831	keystroke_d	d	n/a
357.5505	0.12	715101	keystroke_o	o	n/a
357.6555	0.09	715311	keystroke_c	c	n/a
357.7905	0.09	715581	keystroke_u	u	n/a
357.9855	0.105	715971	keystroke_m	m	n/a
358.0605	0.1055	716121	keystroke_e	e	n/a
358.211	0.09	716422	keystroke_n	n	n/a
358.316	0.09	716632	keystroke_t	t	n/a
358.421	0.105	716842	keystroke_e	e	n/a
358.556	0.105	717112	keystroke_d	d	n/a
358.676	0.0895	717352	keystroke_Key.space	Key.space	n/a
358.856	0.045	717712	keystroke_r	r	n/a
359.216	0.075	718432	keystroke_Key.backspace	Key.backspace	n/a
359.441	0.1195	718882	keystroke_m	m	n/a
359.6055	0.091	719211	keystroke_i	i	n/a
359.7255	0.105	719451	keystroke_n	n	n/a
359.8605	0.105	719721	keystroke_i	i	n/a
359.9505	0.09	719901	keystroke_n	n	n/a
360.056	0.09	720112	keystroke_g	g	n/a
360.221	0.09	720442	keystroke_Key.enter	Key.enter	n/a
360.3155	9.3425	720631	prompt	n/a	gratis developmental tion standards\n
361.2705	0.075	722541	keystroke_g	g	n/a
361.5555	0.105	723111	keystroke_r	r	n/a
361.7205	0.105	723441	keystroke_a	a	n/a
361.9155	0.09	723831	keystroke_t	t	n/a
362.0205	0.105	724041	keystroke_i	i	n/a
362.2305	0.105	724461	keystroke_s	s	n/a
362.3805	0.1205	724761	keystroke_Key.space	Key.space	n/a
362.561	0.135	725122	keystroke_d	d	n/a
362.636	0.09	725272	keystroke_e	e	n/a
362.831	0.135	725662	keystroke_v	v	n/a
363.086	0.12	726172	keystroke_e	e	n/a
363.356	0.075	726712	keystroke_l	l	n/a
363.671	0.06	727342	keystroke_o	o	n/a
363.8655	0.075	727731	keystroke_p	p	n/a
364.0905	0.045	728181	keystroke_m	m	n/a
364.1655	0.075	728331	keystroke_e	e	n/a
364.3005	0.1055	728601	keystroke_n	n	n/a
364.421	0.0745	728842	keystroke_t	t	n/a
364.6005	0.105	729201	keystroke_a	a	n/a
364.6455	0.075	729291	keystroke_l	l	n/a
364.8255	0.09	729651	keystroke_Key.space	Key.space	n/a
365.0205	0.105	730041	keystroke_t	t	n/a
365.8305	0.18	731661	keystroke_i	i	n/a
365.9805	0.105	731961	keystroke_o	o	n/a
366.3405	0.076	732681	keystroke_n	n	n/a
366.5355	0.105	733071	keystroke_Key.space	Key.space	n/a
366.6105	0.12	733221	keystroke_s	s	n/a
367.0915	0.074	734183	keystroke_t	t	n/a
367.3005	0.061	734601	keystroke_a	a	n/a
367.4055	0.105	734811	keystroke_n	n	n/a
367.4665	0.059	734933	keystroke_d	d	n/a
367.6005	0.09	735201	keystroke_a	a	n/a
367.7355	0.09	735471	keystroke_r	r	n/a
367.9315	0.134	735863	keystroke_d	d	n/a
368.0055	0.106	736011	keystroke_s	s	n/a
369.596	0.06	739192	keystroke_Key.enter	Key.enter	n/a
369.6685	9.395	739337	prompt	n/a	venezuela uniform securely resistant\n
372.448	0.058	744896	keystroke_v	v	n/a
372.521	0.075	745042	keystroke_e	e	n/a
372.671	0.12	745342	keystroke_n	n	n/a
372.731	0.075	745462	keystroke_e	e	n/a
373.166	0.1505	746332	keystroke_z	z	n/a
373.946	0.12	747892	keystroke_u	u	n/a
374.051	0.09	748102	keystroke_e	e	n/a
374.246	0.105	748492	keystroke_l	l	n/a
374.426	0.135	748852	keystroke_a	a	n/a
374.606	0.12	749212	keystroke_Key.space	Key.space	n/a
374.9665	0.1495	749933	keystroke_u	u	n/a
375.101	0.105	750202	keystroke_n	n	n/a
375.326	0.135	750652	keystroke_i	i	n/a
375.566	0.09	751132	keystroke_f	f	n/a
375.716	0.09	751432	keystroke_o	o	n/a
375.821	0.09	751642	keystroke_r	r	n/a
375.971	0.075	751942	keystroke_m	m	n/a
376.196	0.105	752392	keystroke_Key.space	Key.space	n/a
376.286	0.105	752572	keystroke_s	s	n/a
376.466	0.09	752932	keystroke_e	e	n/a
376.721	0.075	753442	keystroke_c	c	n/a
376.871	0.09	753742	keystroke_u	u	n/a
376.946	0.15	753892	keystroke_r	r	n/a
377.036	0.12	754072	keystroke_e	e	n/a
377.171	0.075	754342	keystroke_l	l	n/a
377.396	0.045	754792	keystroke_y	y	n/a
377.606	0.09	755212	keystroke_Key.space	Key.space	n/a
377.756	0.1495	755512	keystroke_r	r	n/a
377.8605	0.09	755721	keystroke_e	e	n/a
378.0555	0.09	756111	keystroke_s	s	n/a
378.1605	0.105	756321	keystroke_i	i	n/a
378.2505	0.09	756501	keystroke_s	s	n/a
378.3855	0.075	756771	keystroke_t	t	n/a
378.5805	0.075	757161	keystroke_a	a	n/a
378.6705	0.09	757341	keystroke_n	n	n/a
378.8055	0.09	757611	keystroke_t	t	n/a
378.9555	0.105	757911	keystroke_Key.enter	Key.enter	n/a
379.074	6.8435	758148	prompt	n/a	statement flavor cubic grateful\n
379.6455	0.12	759291	keystroke_s	s	n/a
379.8705	0.075	759741	keystroke_t	t	n/a
379.9605	0.105	759921	keystroke_a	a	n/a
380.0805	0.075	760161	keystroke_t	t	n/a
380.2005	0.09	760401	keystroke_e	e	n/a
380.366	0.105	760732	keystroke_m	m	n/a
380.5015	0.075	761003	keystroke_e	e	n/a
380.6065	0.075	761213	keystroke_n	n	n/a
380.7115	0.09	761423	keystroke_t	t	n/a
380.8165	0.105	761633	keystroke_Key.space	Key.space	n/a
381.1615	0.075	762323	keystroke_f	f	n/a
381.2665	0.075	762533	keystroke_l	l	n/a
381.4015	0.105	762803	keystroke_a	a	n/a
381.5215	0.06	763043	keystroke_v	v	n/a
381.731	0.06	763462	keystroke_o	o	n/a
381.851	0.06	763702	keystroke_r	r	n/a
382.016	0.09	764032	keystroke_Key.space	Key.space	n/a
382.871	0.03	765742	keystroke_c	c	n/a
382.886	0.03	765772	keystroke_u	u	n/a
383.066	0.0595	766132	keystroke_b	b	n/a
383.561	0.09	767122	keystroke_i	i	n/a
383.711	0.105	767422	keystroke_c	c	n/a
383.846	0.12	767692	keystroke_Key.space	Key.space	n/a
384.4155	0.061	768831	keystroke_g	g	n/a
384.4915	0.09	768983	keystroke_r	r	n/a
384.7915	0.12	769583	keystroke_a	a	n/a
385.0015	0.045	770003	keystroke_t	t	n/a
385.0465	0.075	770093	keystroke_e	e	n/a
385.2565	0.09	770513	keystroke_f	f	n/a
385.3615	0.09	770723	keystroke_u	u	n/a
385.5715	0.105	771143	keystroke_l	l	n/a
385.8115	0.105	771623	keystroke_Key.enter	Key.enter	n/a
385.921	7.392	771842	prompt	n/a	republican thesaurus contamination anxiety\n
386.741	0.15	773482	keystroke_r	r	n/a
386.831	0.105	773662	keystroke_e	e	n/a
386.9965	0.09	773993	keystroke_p	p	n/a
387.1915	0.09	774383	keystroke_u	u	n/a
387.491	0.075	774982	keystroke_b	b	n/a
387.581	0.12	775162	keystroke_l	l	n/a
387.671	0.12	775342	keystroke_i	i	n/a
387.746	0.075	775492	keystroke_c	c	n/a
387.896	0.12	775792	keystroke_a	a	n/a
388.001	0.075	776002	keystroke_n	n	n/a
388.196	0.105	776392	keystroke_Key.space	Key.space	n/a
388.331	0.09	776662	keystroke_t	t	n/a
388.526	0.09	777052	keystroke_h	h	n/a
388.631	0.0745	777262	keystroke_e	e	n/a
388.8255	0.0755	777651	keystroke_s	s	n/a
389.0505	0.105	778101	keystroke_a	a	n/a
389.2455	0.195	778491	keystroke_u	u	n/a
389.5915	0.09	779183	keystroke_r	r	n/a
389.771	0.1055	779542	keystroke_u	u	n/a
389.8765	0.105	779753	keystroke_s	s	n/a
390.0565	0.135	780113	keystroke_Key.space	Key.space	n/a
390.3415	0.09	780683	keystroke_c	c	n/a
390.4465	0.075	780893	keystroke_o	o	n/a
390.6115	0.12	781223	keystroke_n	n	n/a
390.7015	0.09	781403	keystroke_t	t	n/a
390.8965	0.105	781793	keystroke_a	a	n/a
391.0165	0.12	782033	keystroke_i	i	n/a
391.0615	0.135	782123	keystroke_m	m	n/a
391.2415	0.12	782483	keystroke_i	i	n/a
391.3465	0.12	782693	keystroke_n	n	n/a
391.4365	0.075	782873	keystroke_a	a	n/a
391.6015	0.105	783203	keystroke_t	t	n/a
391.6615	0.12	783323	keystroke_i	i	n/a
391.7515	0.075	783503	keystroke_o	o	n/a
391.9165	0.075	783833	keystroke_n	n	n/a
392.0815	0.105	784163	keystroke_Key.space	Key.space	n/a
392.1565	0.09	784313	keystroke_a	a	n/a
392.3065	0.12	784613	keystroke_n	n	n/a
392.4865	0.09	784973	keystroke_x	x	n/a
392.6365	0.12	785273	keystroke_i	i	n/a
392.771	0.075	785542	keystroke_e	e	n/a
392.921	0.12	785842	keystroke_t	t	n/a
392.996	0.105	785992	keystroke_y	y	n/a
393.236	0.075	786472	keystroke_Key.enter	Key.enter	n/a
393.3295	5.293	786659	prompt	n/a	any only holy theatre\n
394.0765	0.0895	788153	keystroke_a	a	n/a
394.136	0.09	788272	keystroke_n	n	n/a
394.346	0.06	788692	keystroke_y	y	n/a
394.556	0.06	789112	keystroke_Key.space	Key.space	n/a
394.721	0.06	789442	keystroke_o	o	n/a
394.886	0.045	789772	keystroke_n	n	n/a
395.036	0.075	790072	keystroke_l	l	n/a
395.231	0.075	790462	keystroke_y	y	n/a
395.426	0.0755	790852	keystroke_Key.space	Key.space	n/a
395.6815	0.015	791363	keystroke_h	h	n/a
395.7415	0.06	791483	keystroke_o	o	n/a
395.8915	0.0745	791783	keystroke_l	l	n/a
396.071	0.06	792142	keystroke_y	y	n/a
396.2815	0.105	792563	keystroke_Key.space	Key.space	n/a
396.3865	0.09	792773	keystroke_t	t	n/a
396.5365	0.09	793073	keystroke_h	h	n/a
396.6865	0.12	793373	keystroke_e	e	n/a
396.9555	0.135	793911	keystroke_a	a	n/a
397.9305	0.075	795861	keystroke_t	t	n/a
398.2155	0.15	796431	keystroke_r	r	n/a
398.2905	0.135	796581	keystroke_e	e	n/a
398.531	0.09	797062	keystroke_Key.enter	Key.enter	n/a
398.6255	8.5025	797251	prompt	n/a	vsnet talking kuwait districts\n
400.0015	0.075	800003	keystroke_v	v	n/a
400.3315	0.1345	800663	keystroke_s	s	n/a
400.7805	0.105	801561	keystroke_n	n	n/a
400.8555	0.1055	801711	keystroke_e	e	n/a
401.021	0.09	802042	keystroke_t	t	n/a
401.096	0.12	802192	keystroke_Key.space	Key.space	n/a
401.261	0.045	802522	keystroke_t	t	n/a
401.426	0.105	802852	keystroke_a	a	n/a
401.486	0.0895	802972	keystroke_l	l	n/a
401.516	0.12	803032	keystroke_k	k	n/a
401.7255	0.105	803451	keystroke_i	i	n/a
401.8755	0.105	803751	keystroke_n	n	n/a
402.041	0.1045	804082	keystroke_g	g	n/a
402.2055	0.136	804411	keystroke_Key.space	Key.space	n/a
404.4425	0.029	808885	keystroke_k	k	n/a
404.5765	0.105	809153	keystroke_u	u	n/a
404.6515	0.045	809303	keystroke_w	w	n/a
404.8315	0.075	809663	keystroke_a	a	n/a
404.936	0.091	809872	keystroke_i	i	n/a
405.1005	0.075	810201	keystroke_t	t	n/a
405.2055	0.105	810411	keystroke_Key.space	Key.space	n/a
405.5355	0.105	811071	keystroke_d	d	n/a
405.7305	0.09	811461	keystroke_i	i	n/a
405.7905	0.09	811581	keystroke_s	s	n/a
406.0755	0.045	812151	keystroke_t	t	n/a
406.2105	0.09	812421	keystroke_r	r	n/a
406.3305	0.135	812661	keystroke_i	i	n/a
406.4055	0.075	812811	keystroke_c	c	n/a
406.5855	0.075	813171	keystroke_t	t	n/a
406.7205	0.105	813441	keystroke_s	s	n/a
406.9605	0.165	813921	keystroke_Key.enter	Key.enter	n/a
407.1385	8.6595	814277	prompt	n/a	although fresh study automobiles\n
407.8155	0.1055	815631	keystroke_a	a	n/a
407.891	0.135	815782	keystroke_l	l	n/a
408.101	0.09	816202	keystroke_t	t	n/a
408.251	0.09	816502	keystroke_h	h	n/a
408.446	0.075	816892	keystroke_o	o	n/a
408.491	0.09	816982	keystroke_u	u	n/a
408.611	0.09	817222	keystroke_g	g	n/a
408.911	0.09	817822	keystroke_h	h	n/a
409.256	0.12	818512	keystroke_Key.space	Key.space	n/a
409.7515	0.06	819503	keystroke_f	f	n/a
409.931	0.105	819862	keystroke_r	r	n/a
409.991	0.12	819982	keystroke_e	e	n/a
410.186	0.12	820372	keystroke_s	s	n/a
410.276	0.075	820552	keystroke_h	h	n/a
410.516	0.105	821032	keystroke_Key.space	Key.space	n/a
410.726	0.09	821452	keystroke_s	s	n/a
410.936	0.09	821872	keystroke_t	t	n/a
411.056	0.075	822112	keystroke_u	u	n/a
411.221	0.105	822442	keystroke_d	d	n/a
411.311	0.09	822622	keystroke_y	y	n/a
411.5355	0.12	823071	keystroke_Key.space	Key.space	n/a
411.9555	0.105	823911	keystroke_a	a	n/a
412.196	0.075	824392	keystroke_u	u	n/a
412.301	0.09	824602	keystroke_t	t	n/a
412.406	0.09	824812	keystroke_o	o	n/a
412.616	0.09	825232	keystroke_m	m	n/a
412.811	0.0895	825622	keystroke_i	i	n/a
413.726	0.09	827452	keystroke_Key.backspace	Key.backspace	n/a
413.996	0.135	827992	keystroke_o	o	n/a
414.326	0.06	828652	keystroke_b	b	n/a
415.0905	0.0755	830181	keystroke_i	i	n/a
415.271	0.135	830542	keystroke_l	l	n/a
415.346	0.105	830692	keystroke_e	e	n/a
415.541	0.105	831082	keystroke_s	s	n/a
415.676	0.12	831352	keystroke_Key.enter	Key.enter	n/a
415.8105	6.227	831621	prompt	n/a	converter bureau fathers prevention\n
416.456	0.09	832912	keystroke_c	c	n/a
416.531	0.09	833062	keystroke_o	o	n/a
416.726	0.105	833452	keystroke_n	n	n/a
416.831	0.075	833662	keystroke_v	v	n/a
416.996	0.15	833992	keystroke_e	e	n/a
417.116	0.135	834232	keystroke_r	r	n/a
417.3555	0.075	834711	keystroke_t	t	n/a
417.4905	0.105	834981	keystroke_e	e	n/a
417.5655	0.105	835131	keystroke_r	r	n/a
417.7005	0.105	835401	keystroke_Key.space	Key.space	n/a
417.9555	0.09	835911	keystroke_b	b	n/a
418.2555	0.12	836511	keystroke_u	u	n/a
418.5405	0.12	837081	keystroke_r	r	n/a
418.6005	0.121	837201	keystroke_e	e	n/a
418.8415	0.105	837683	keystroke_a	a	n/a
418.9615	0.075	837923	keystroke_u	u	n/a
419.1715	0.134	838343	keystroke_Key.space	Key.space	n/a
419.5765	0.075	839153	keystroke_f	f	n/a
419.7565	0.075	839513	keystroke_a	a	n/a
419.9365	0.075	839873	keystroke_t	t	n/a
420.0565	0.075	840113	keystroke_h	h	n/a
420.1165	0.1195	840233	keystroke_e	e	n/a
420.2065	0.0895	840413	keystroke_r	r	n/a
420.386	0.0895	840772	keystroke_s	s	n/a
420.4605	0.075	840921	keystroke_Key.space	Key.space	n/a
420.7155	0.105	841431	keystroke_p	p	n/a
420.7605	0.12	841521	keystroke_r	r	n/a
420.8505	0.06	841701	keystroke_e	e	n/a
421.0905	0.015	842181	keystroke_v	v	n/a
421.1505	0.09	842301	keystroke_e	e	n/a
421.2705	0.075	842541	keystroke_n	n	n/a
421.3465	0.1045	842693	keystroke_t	t	n/a
421.481	0.12	842962	keystroke_i	i	n/a
421.586	0.06	843172	keystroke_o	o	n/a
421.736	0.075	843472	keystroke_n	n	n/a
421.961	0.075	843922	keystroke_Key.enter	Key.enter	n/a
422.0405	6.177	844081	prompt	n/a	wrapped inter queens neil\n
422.7105	0.121	845421	keystroke_w	w	n/a
422.9055	0.121	845811	keystroke_r	r	n/a
423.1305	0.06	846261	keystroke_a	a	n/a
423.2065	0.075	846413	keystroke_p	p	n/a
423.3565	0.105	846713	keystroke_p	p	n/a
423.4465	0.105	846893	keystroke_e	e	n/a
423.5515	0.12	847103	keystroke_r	r	n/a
423.9405	0.106	847881	keystroke_d	d	n/a
424.3605	0.075	848721	keystroke_Key.backspace	Key.backspace	n/a
424.496	0.09	848992	keystroke_Key.backspace	Key.backspace	n/a
424.751	0.075	849502	keystroke_d	d	n/a
425.246	0.1055	850492	keystroke_Key.space	Key.space	n/a
425.486	0.075	850972	keystroke_i	i	n/a
425.562	0.134	851124	keystroke_n	n	n/a
425.666	0.06	851332	keystroke_t	t	n/a
425.786	0.105	851572	keystroke_e	e	n/a
425.861	0.09	851722	keystroke_r	r	n/a
425.966	0.12	851932	keystroke_Key.space	Key.space	n/a
426.146	0.075	852292	keystroke_q	q	n/a
426.251	0.12	852502	keystroke_u	u	n/a
426.356	0.075	852712	keystroke_e	e	n/a
426.5365	0.075	853073	keystroke_e	e	n/a
426.6265	0.06	853253	keystroke_n	n	n/a
426.7315	0.105	853463	keystroke_s	s	n/a
426.8065	0.0595	853613	keystroke_Key.space	Key.space	n/a
427.001	0.06	854002	keystroke_n	n	n/a
427.046	0.1045	854092	keystroke_e	e	n/a
427.2105	0.06	854421	keystroke_i	i	n/a
427.9015	0.105	855803	keystroke_l	l	n/a
428.1265	0.09	856253	keystroke_Key.enter	Key.enter	n/a
428.2205	6.222	856441	prompt	n/a	notify blanket popularity beads\n
428.771	0.09	857542	keystroke_n	n	n/a
428.966	0.09	857932	keystroke_o	o	n/a
429.041	0.105	858082	keystroke_t	t	n/a
429.176	0.1205	858352	keystroke_i	i	n/a
429.356	0.105	858712	keystroke_f	f	n/a
429.536	0.09	859072	keystroke_y	y	n/a
429.776	0.09	859552	keystroke_Key.space	Key.space	n/a
429.9115	0.09	859823	keystroke_f	f	n/a
430.3165	0.075	860633	keystroke_Key.backspace	Key.backspace	n/a
430.5715	0.075	861143	keystroke_b	b	n/a
430.7815	0.075	861563	keystroke_l	l	n/a
430.8715	0.1195	861743	keystroke_a	a	n/a
431.006	0.09	862012	keystroke_n	n	n/a
431.141	0.12	862282	keystroke_k	k	n/a
431.306	0.075	862612	keystroke_e	e	n/a
431.516	0.12	863032	keystroke_t	t	n/a
431.621	0.075	863242	keystroke_Key.space	Key.space	n/a
431.846	0.105	863692	keystroke_p	p	n/a
432.101	0.045	864202	keystroke_o	o	n/a
432.266	0.06	864532	keystroke_p	p	n/a
432.416	0.0905	864832	keystroke_u	u	n/a
432.5515	0.1495	865103	keystroke_l	l	n/a
432.656	0.09	865312	keystroke_a	a	n/a
432.851	0.075	865702	keystroke_r	r	n/a
432.956	0.075	865912	keystroke_i	i	n/a
433.061	0.12	866122	keystroke_t	t	n/a
433.196	0.075	866392	keystroke_y	y	n/a
433.406	0.09	866812	keystroke_Key.space	Key.space	n/a
433.601	0.075	867202	keystroke_b	b	n/a
433.841	0.105	867682	keystroke_e	e	n/a
433.961	0.105	867922	keystroke_a	a	n/a
434.111	0.18	868222	keystroke_d	d	n/a
434.231	0.12	868462	keystroke_s	s	n/a
434.352	0.089	868704	keystroke_Key.enter	Key.enter	n/a
434.4485	9.6245	868897	prompt	n/a	sociology principal quick mental\n
435.041	0.09	870082	keystroke_s	s	n/a
435.146	0.1055	870292	keystroke_o	o	n/a
435.2965	0.105	870593	keystroke_c	c	n/a
435.3855	0.105	870771	keystroke_i	i	n/a
435.5515	0.105	871103	keystroke_t	t	n/a
435.6565	0.06	871313	keystroke_i	i	n/a
435.8355	0.061	871671	keystroke_o	o	n/a
436.0005	0.076	872001	keystroke_l	l	n/a
436.1515	0.075	872303	keystroke_o	o	n/a
436.3005	0.105	872601	keystroke_g	g	n/a
436.4215	0.089	872843	keystroke_y	y	n/a
436.6615	0.104	873323	keystroke_Key.space	Key.space	n/a
437.381	0.045	874762	keystroke_Key.backspace	Key.backspace	n/a
437.531	0.075	875062	keystroke_Key.backspace	Key.backspace	n/a
437.696	0.075	875392	keystroke_Key.backspace	Key.backspace	n/a
437.876	0.075	875752	keystroke_Key.backspace	Key.backspace	n/a
438.056	0.06	876112	keystroke_Key.backspace	Key.backspace	n/a
438.221	0.075	876442	keystroke_Key.backspace	Key.backspace	n/a
438.401	0.075	876802	keystroke_Key.backspace	Key.backspace	n/a
438.581	0.075	877162	keystroke_Key.backspace	Key.backspace	n/a
439.3315	0.06	878663	keystroke_o	o	n/a
439.5265	0.06	879053	keystroke_l	l	n/a
439.6915	0.075	879383	keystroke_o	o	n/a
439.8565	0.06	879713	keystroke_g	g	n/a
439.9765	0.06	879953	keystroke_y	y	n/a
440.1565	0.09	880313	keystroke_Key.space	Key.space	n/a
440.741	0.12	881482	keystroke_p	p	n/a
440.921	0.06	881842	keystroke_r	r	n/a
441.041	0.09	882082	keystroke_i	i	n/a
441.191	0.09	882382	keystroke_n	n	n/a
441.311	0.105	882622	keystroke_c	c	n/a
441.401	0.105	882802	keystroke_i	i	n/a
441.626	0.09	883252	keystroke_p	p	n/a
441.776	0.12	883552	keystroke_a	a	n/a
441.881	0.075	883762	keystroke_l	l	n/a
442.0765	0.06	884153	keystroke_Key.space	Key.space	n/a
442.1665	0.105	884333	keystroke_q	q	n/a
442.3315	0.105	884663	keystroke_u	u	n/a
442.4065	0.09	884813	keystroke_i	i	n/a
442.5415	0.105	885083	keystroke_c	c	n/a
442.6315	0.075	885263	keystroke_k	k	n/a
442.7815	0.075	885563	keystroke_Key.space	Key.space	n/a
442.9615	0.06	885923	keystroke_m	m	n/a
443.1115	0.1195	886223	keystroke_e	e	n/a
443.336	0.075	886672	keystroke_n	n	n/a
443.441	0.0755	886882	keystroke_t	t	n/a
443.6365	0.12	887273	keystroke_a	a	n/a
443.7115	0.09	887423	keystroke_l	l	n/a
443.9815	0.09	887963	keystroke_Key.enter	Key.enter	n/a
444.0835	8.63	888167	prompt	n/a	devices memories ensures assistance\n
444.8515	0.135	889703	keystroke_d	d	n/a
444.9265	0.105	889853	keystroke_e	e	n/a
445.1365	0.0895	890273	keystroke_v	v	n/a
445.301	0.1055	890602	keystroke_i	i	n/a
445.4365	0.105	890873	keystroke_d	d	n/a
445.8415	0.0895	891683	keystroke_Key.backspace	Key.backspace	n/a
445.961	0.105	891922	keystroke_c	c	n/a
446.141	0.12	892282	keystroke_e	e	n/a
446.441	0.1195	892882	keystroke_s	s	n/a
446.5755	0.09	893151	keystroke_Key.space	Key.space	n/a
446.8005	0.09	893601	keystroke_m	m	n/a
446.9215	0.074	893843	keystroke_e	e	n/a
447.0405	0.06	894081	keystroke_m	m	n/a
447.1755	0.09	894351	keystroke_o	o	n/a
447.2505	0.091	894501	keystroke_r	r	n/a
447.3865	0.1045	894773	keystroke_i	i	n/a
447.461	0.09	894922	keystroke_e	e	n/a
447.656	0.0755	895312	keystroke_s	s	n/a
447.716	0.1055	895432	keystroke_Key.space	Key.space	n/a
447.8515	0.105	895703	keystroke_e	e	n/a
447.9715	0.105	895943	keystroke_n	n	n/a
448.0915	0.09	896183	keystroke_s	s	n/a
448.2715	0.045	896543	keystroke_u	u	n/a
448.586	0.1345	897172	keystroke_r	r	n/a
448.7065	0.059	897413	keystroke_e	e	n/a
448.8705	0.121	897741	keystroke_s	s	n/a
449.0355	0.106	898071	keystroke_Key.space	Key.space	n/a
449.1565	0.119	898313	keystroke_a	a	n/a
449.2465	0.09	898493	keystroke_s	s	n/a
449.4115	0.1045	898823	keystroke_s	s	n/a
449.7255	0.06	899451	keystroke_s	s	n/a
450.0265	0.09	900053	keystroke_Key.backspace	Key.backspace	n/a
450.761	0.1505	901522	keystroke_u	u	n/a
451.6615	0.09	903323	keystroke_s	s	n/a
451.856	0.075	903712	keystroke_t	t	n/a
452.021	0.09	904042	keystroke_a	a	n/a
452.156	0.09	904312	keystroke_n	n	n/a
452.276	0.075	904552	keystroke_c	c	n/a
452.426	0.12	904852	keystroke_e	e	n/a
452.591	0.12	905182	keystroke_Key.enter	Key.enter	n/a
452.7235	5.209	905447	prompt	n/a	likes homeless estimates engaging\n
453.311	0.12	906622	keystroke_l	l	n/a
453.566	0.06	907132	keystroke_i	i	n/a
453.701	0.09	907402	keystroke_k	k	n/a
453.821	0.075	907642	keystroke_e	e	n/a
454.001	0.12	908002	keystroke_s	s	n/a
454.091	0.075	908182	keystroke_Key.space	Key.space	n/a
454.286	0.075	908572	keystroke_h	h	n/a
454.451	0.075	908902	keystroke_o	o	n/a
454.586	0.12	909172	keystroke_m	m	n/a
454.661	0.105	909322	keystroke_e	e	n/a
454.886	0.09	909772	keystroke_l	l	n/a
454.961	0.105	909922	keystroke_e	e	n/a
455.156	0.075	910312	keystroke_s	s	n/a
455.336	0.06	910672	keystroke_s	s	n/a
455.411	0.135	910822	keystroke_Key.space	Key.space	n/a
455.531	0.09	911062	keystroke_e	e	n/a
455.711	0.075	911422	keystroke_s	s	n/a
455.861	0.105	911722	keystroke_t	t	n/a
455.951	0.09	911902	keystroke_i	i	n/a
455.996	0.12	911992	keystroke_m	m	n/a
456.086	0.06	912172	keystroke_a	a	n/a
456.266	0.105	912532	keystroke_t	t	n/a
456.341	0.1055	912682	keystroke_e	e	n/a
456.5365	0.105	913073	keystroke_s	s	n/a
456.6265	0.105	913253	keystroke_Key.space	Key.space	n/a
456.7615	0.09	913523	keystroke_e	e	n/a
456.8815	0.09	913763	keystroke_n	n	n/a
457.1065	0.06	914213	keystroke_g	g	n/a
457.1665	0.105	914333	keystroke_a	a	n/a
457.2865	0.075	914573	keystroke_g	g	n/a
457.4515	0.09	914903	keystroke_i	i	n/a
457.5415	0.12	915083	keystroke_n	n	n/a
457.6765	0.075	915353	keystroke_g	g	n/a
457.8265	0.105	915653	keystroke_Key.enter	Key.enter	n/a
457.936	5.7715	915872	prompt	n/a	seafood indicate fantasy doll\n
458.7565	0.105	917513	keystroke_s	s	n/a
458.9665	0.12	917933	keystroke_e	e	n/a
459.0415	0.12	918083	keystroke_a	a	n/a
459.3565	0.06	918713	keystroke_g	g	n/a
459.641	0.09	919282	keystroke_Key.backspace	Key.backspace	n/a
459.761	0.09	919522	keystroke_f	f	n/a
459.896	0.06	919792	keystroke_o	o	n/a
460.076	0.075	920152	keystroke_o	o	n/a
460.226	0.06	920452	keystroke_d	d	n/a
460.331	0.09	920662	keystroke_Key.space	Key.space	n/a
460.526	0.12	921052	keystroke_i	i	n/a
460.647	0.119	921294	keystroke_n	n	n/a
460.751	0.075	921502	keystroke_d	d	n/a
460.826	0.135	921652	keystroke_i	i	n/a
460.946	0.075	921892	keystroke_c	c	n/a
461.126	0.075	922252	keystroke_a	a	n/a
461.291	0.105	922582	keystroke_t	t	n/a
461.366	0.105	922732	keystroke_e	e	n/a
461.501	0.105	923002	keystroke_Key.space	Key.space	n/a
461.921	0.105	923842	keystroke_f	f	n/a
462.116	0.09	924232	keystroke_a	a	n/a
462.221	0.105	924442	keystroke_n	n	n/a
462.341	0.06	924682	keystroke_t	t	n/a
462.5065	0.135	925013	keystroke_a	a	n/a
462.5965	0.089	925193	keystroke_s	s	n/a
462.7165	0.06	925433	keystroke_y	y	n/a
462.8955	0.091	925791	keystroke_Key.space	Key.space	n/a
463.0015	0.09	926003	keystroke_d	d	n/a
463.1065	0.09	926213	keystroke_o	o	n/a
463.2715	0.059	926543	keystroke_l	l	n/a
463.406	0.075	926812	keystroke_l	l	n/a
463.616	0.0895	927232	keystroke_Key.enter	Key.enter	n/a
463.71	6.1925	927420	prompt	n/a	dentists protection please ripe\n
464.441	0.18	928882	keystroke_d	d	n/a
464.576	0.1355	929152	keystroke_e	e	n/a
464.7715	0.15	929543	keystroke_n	n	n/a
464.9515	0.0895	929903	keystroke_t	t	n/a
465.071	0.135	930142	keystroke_i	i	n/a
465.221	0.105	930442	keystroke_s	s	n/a
465.416	0.075	930832	keystroke_t	t	n/a
465.551	0.12	931102	keystroke_s	s	n/a
465.701	0.045	931402	keystroke_Key.space	Key.space	n/a
465.956	0.105	931912	keystroke_p	p	n/a
466.046	0.09	932092	keystroke_r	r	n/a
466.181	0.09	932362	keystroke_o	o	n/a
466.6315	0.105	933263	keystroke_t	t	n/a
466.7965	0.09	933593	keystroke_e	e	n/a
467.0515	0.105	934103	keystroke_c	c	n/a
467.2915	0.105	934583	keystroke_t	t	n/a
467.4115	0.105	934823	keystroke_i	i	n/a
467.4715	0.105	934943	keystroke_o	o	n/a
467.6815	0.0895	935363	keystroke_n	n	n/a
467.861	0.09	935722	keystroke_Key.space	Key.space	n/a
468.102	0.06	936204	keystroke_p	p	n/a
468.341	0.15	936682	keystroke_l	l	n/a
468.461	0.105	936922	keystroke_e	e	n/a
468.581	0.165	937162	keystroke_a	a	n/a
468.686	0.105	937372	keystroke_s	s	n/a
468.896	0.105	937792	keystroke_e	e	n/a
468.986	0.09	937972	keystroke_Key.space	Key.space	n/a
469.136	0.105	938272	keystroke_r	r	n/a
469.271	0.105	938542	keystroke_i	i	n/a
469.436	0.135	938872	keystroke_p	p	n/a
469.631	0.105	939262	keystroke_e	e	n/a
469.766	0.135	939532	keystroke_Key.enter	Key.enter	n/a
469.9055	9.8675	939811	prompt	n/a	conservation criterion theft infection\n
471.0855	0.075	942171	keystroke_c	c	n/a
471.1915	0.089	942383	keystroke_o	o	n/a
471.3855	0.105	942771	keystroke_n	n	n/a
471.4465	0.104	942893	keystroke_s	s	n/a
471.6115	0.074	943223	keystroke_e	e	n/a
471.7915	0.075	943583	keystroke_r	r	n/a
471.8965	0.075	943793	keystroke_v	v	n/a
471.9715	0.045	943943	keystroke_a	a	n/a
472.1515	0.105	944303	keystroke_t	t	n/a
472.2405	0.1205	944481	keystroke_i	i	n/a
472.331	0.105	944662	keystroke_o	o	n/a
472.5415	0.105	945083	keystroke_n	n	n/a
472.7965	0.12	945593	keystroke_Key.space	Key.space	n/a
473.0515	0.09	946103	keystroke_c	c	n/a
474.0415	0.0745	948083	keystroke_r	r	n/a
474.2655	0.165	948531	keystroke_i	i	n/a
474.656	0.075	949312	keystroke_t	t	n/a
474.836	0.12	949672	keystroke_e	e	n/a
474.926	0.135	949852	keystroke_r	r	n/a
475.211	0.135	950422	keystroke_i	i	n/a
475.301	0.105	950602	keystroke_o	o	n/a
475.5255	0.09	951051	keystroke_n	n	n/a
475.706	0.0745	951412	keystroke_Key.space	Key.space	n/a
475.766	0.0745	951532	keystroke_t	t	n/a
475.886	0.105	951772	keystroke_h	h	n/a
475.946	0.105	951892	keystroke_a	a	n/a
476.202	0.074	952404	keystroke_t	t	n/a
476.7715	0.1195	953543	keystroke_Key.backspace	Key.backspace	n/a
476.8615	0.1045	953723	keystroke_e	e	n/a
477.311	0.06	954622	keystroke_Key.backspace	Key.backspace	n/a
477.4765	0.075	954953	keystroke_Key.backspace	Key.backspace	n/a
477.6265	0.075	955253	keystroke_e	e	n/a
477.8665	0.105	955733	keystroke_f	f	n/a
478.1065	0.09	956213	keystroke_t	t	n/a
478.1815	0.075	956363	keystroke_Key.space	Key.space	n/a
478.3465	0.1045	956693	keystroke_i	i	n/a
478.4065	0.1345	956813	keystroke_n	n	n/a
478.571	0.1045	957142	keystroke_f	f	n/a
478.7065	0.09	957413	keystroke_e	e	n/a
478.8865	0.09	957773	keystroke_c	c	n/a
479.0965	0.075	958193	keystroke_t	t	n/a
479.1565	0.105	958313	keystroke_i	i	n/a
479.2315	0.075	958463	keystroke_o	o	n/a
479.4115	0.09	958823	keystroke_n	n	n/a
479.6665	0.105	959333	keystroke_Key.enter	Key.enter	n/a
479.7835	5.524	959567	prompt	n/a	bicycle solve losing chem\n
480.971	0.09	961942	keystroke_b	b	n/a
481.166	0.165	962332	keystroke_i	i	n/a
482.0065	0.119	964013	keystroke_c	c	n/a
482.1865	0.134	964373	keystroke_u	u	n/a
482.3365	0.104	964673	keystroke_c	c	n/a
482.5005	0.106	965001	keystroke_l	l	n/a
482.6205	0.106	965241	keystroke_e	e	n/a
482.7855	0.105	965571	keystroke_Key.space	Key.space	n/a
482.936	0.121	965872	keystroke_s	s	n/a
483.027	0.089	966054	keystroke_o	o	n/a
483.191	0.12	966382	keystroke_l	l	n/a
483.266	0.105	966532	keystroke_v	v	n/a
483.491	0.105	966982	keystroke_e	e	n/a
483.641	0.075	967282	keystroke_Key.space	Key.space	n/a
483.896	0.09	967792	keystroke_l	l	n/a
484.0915	0.089	968183	keystroke_o	o	n/a
484.1355	0.105	968271	keystroke_s	s	n/a
484.3005	0.1065	968601	keystroke_i	i	n/a
484.3905	0.0905	968781	keystroke_n	n	n/a
484.4505	0.0755	968901	keystroke_g	g	n/a
484.601	0.045	969202	keystroke_Key.space	Key.space	n/a
484.661	0.105	969322	keystroke_c	c	n/a
484.781	0.09	969562	keystroke_h	h	n/a
484.901	0.105	969802	keystroke_e	e	n/a
484.991	0.09	969982	keystroke_m	m	n/a
485.216	0.0895	970432	keystroke_Key.enter	Key.enter	n/a
485.312	6.071	970624	prompt	n/a	health eleven locked leading\n
486.2505	0.09	972501	keystroke_h	h	n/a
