onset	duration	sample	value	key	prompt_text
6.2855	9.1165	12571	prompt	n/a	the quick brown fox jumps over a lazy dog\n
7.4205	0.014	14841	keystroke_t	t	n/a
7.4635	0.076	14927	keystroke_h	h	n/a
7.5845	0.0755	15169	keystroke_e	e	n/a
7.689	0.0755	15378	keystroke_Key.space	Key.space	n/a
8.0345	0.0905	16069	keystroke_q	q	n/a
8.1395	0.12	16279	keystroke_u	u	n/a
8.2295	0.09	16459	keystroke_i	i	n/a
8.3645	0.0905	16729	keystroke_c	c	n/a
8.5745	0.104	17149	keystroke_k	k	n/a
8.74	0.059	17480	keystroke_Key.space	Key.space	n/a
8.9195	0.075	17839	keystroke_b	b	n/a
9.0545	0.06	18109	keystroke_r	r	n/a
9.1295	0.09	18259	keystroke_o	o	n/a
9.2335	0.076	18467	keystroke_w	w	n/a
9.3395	0.075	18679	keystroke_n	n	n/a
9.5035	0.031	19007	keystroke_Key.space	Key.space	n/a
9.5795	0.0895	19159	keystroke_f	f	n/a
9.7135	0.0905	19427	keystroke_o	o	n/a
9.8795	0.0745	19759	keystroke_x	x	n/a
10.0295	0.03	20059	keystroke_Key.space	Key.space	n/a
10.3445	0.015	20689	keystroke_k	k	n/a
10.7195	0.03	21439	keystroke_i	i	n/a
10.9895	0.0595	21979	keystroke_Key.backspace	Key.backspace	n/a
11.154	0.0455	22308	keystroke_Key.backspace	Key.backspace	n/a
11.6495	0.06	23299	keystroke_j	j	n/a
11.7995	0.0755	23599	keystroke_u	u	n/a
12.3545	0.105	24709	keystroke_m	m	n/a
12.5495	0.089	25099	keystroke_p	p	n/a
12.7895	0.12	25579	keystroke_s	s	n/a
13.1645	0.1045	26329	keystroke_Key.space	Key.space	n/a
13.285	0.1045	26570	keystroke_o	o	n/a
13.48	0.1495	26960	keystroke_v	v	n/a
13.7045	0.1505	27409	keystroke_e	e	n/a
13.8095	0.105	27619	keystroke_r	r	n/a
13.8995	0.12	27799	keystroke_Key.space	Key.space	n/a
14.0645	0.06	28129	keystroke_a	a	n/a
14.155	0.0745	28310	keystroke_Key.space	Key.space	n/a
14.3195	0.105	28639	keystroke_l	l	n/a
14.4395	0.0755	28879	keystroke_a	a	n/a
14.6345	0.105	29269	keystroke_z	z	n/a
14.7545	0.075	29509	keystroke_y	y	n/a
14.8435	0.121	29687	keystroke_Key.space	Key.space	n/a
15.025	0.089	30050	keystroke_d	d	n/a
15.085	0.0895	30170	keystroke_o	o	n/a
15.204	0.0765	30408	keystroke_g	g	n/a
15.339	0.0605	30678	keystroke_Key.enter	Key.enter	n/a
15.407	6.159	30814	prompt	n/a	clouds skirt backgrounds workers\n
16.2695	0.0305	32539	keystroke_c	c	n/a
16.315	0.089	32630	keystroke_l	l	n/a
16.51	0.105	33020	keystroke_o	o	n/a
16.7045	0.075	33409	keystroke_u	u	n/a
16.8095	0.15	33619	keystroke_d	d	n/a
16.884	0.121	33768	keystroke_s	s	n/a
17.0345	0.075	34069	keystroke_Key.space	Key.space	n/a
17.544	0.091	35088	keystroke_s	s	n/a
17.636	0.0745	35272	keystroke_k	k	n/a
18.0995	0.09	36199	keystroke_i	i	n/a
18.175	0.09	36350	keystroke_r	r	n/a
18.3245	0.105	36649	keystroke_t	t	n/a
18.4895	0.0895	36979	keystroke_Key.space	Key.space	n/a
18.9395	0.0445	37879	keystroke_b	b	n/a
19.0445	0.06	38089	keystroke_a	a	n/a
19.089	0.1355	38178	keystroke_c	c	n/a
19.1795	0.0905	38359	keystroke_k	k	n/a
19.555	0.1345	39110	keystroke_g	g	n/a
19.6445	0.12	39289	keystroke_r	r	n/a
19.7495	0.135	39499	keystroke_o	o	n/a
19.8695	0.105	39739	keystroke_u	u	n/a
20.0945	0.06	40189	keystroke_n	n	n/a
20.1695	0.1355	40339	keystroke_d	d	n/a
20.2605	0.1045	40521	keystroke_s	s	n/a
20.4095	0.09	40819	keystroke_Key.space	Key.space	n/a
20.709	0.09	41418	keystroke_w	w	n/a
20.7845	0.09	41569	keystroke_o	o	n/a
20.9045	0.09	41809	keystroke_r	r	n/a
21.0095	0.09	42019	keystroke_k	k	n/a
21.13	0.1495	42260	keystroke_e	e	n/a
21.219	0.121	42438	keystroke_r	r	n/a
21.3405	0.119	42681	keystroke_s	s	n/a
21.5045	0.06	43009	keystroke_Key.enter	Key.enter	n/a
21.572	11.499	43144	prompt	n/a	spam understanding automobile enhanced\n
22.3	0.1045	44600	keystroke_a	a	n/a
22.42	0.105	44840	keystroke_p	p	n/a
22.5695	0.1045	45139	keystroke_a	a	n/a
22.8545	0.0745	45709	keystroke_Key.backspace	Key.backspace	n/a
23.0045	0.075	46009	keystroke_Key.backspace	Key.backspace	n/a
23.1845	0.06	46369	keystroke_Key.backspace	Key.backspace	n/a
23.5005	0.1195	47001	keystroke_s	s	n/a
23.621	0.0885	47242	keystroke_p	p	n/a
23.7245	0.12	47449	keystroke_a	a	n/a
24.0845	0.06	48169	keystroke_m	m	n/a
24.235	0.0445	48470	keystroke_Key.space	Key.space	n/a
24.805	0.0595	49610	keystroke_i	i	n/a
25.1345	0.105	50269	keystroke_Key.backspace	Key.backspace	n/a
25.3295	0.076	50659	keystroke_u	u	n/a
25.51	0.075	51020	keystroke_n	n	n/a
25.5995	0.075	51199	keystroke_d	d	n/a
25.7655	0.119	51531	keystroke_e	e	n/a
25.8245	0.1055	51649	keystroke_r	r	n/a
25.9895	0.1655	51979	keystroke_s	s	n/a
26.125	0.135	52250	keystroke_t	t	n/a
26.244	0.1505	52488	keystroke_a	a	n/a
26.3345	0.1355	52669	keystroke_i	i	n/a
26.4545	0.1205	52909	keystroke_n	n	n/a
26.8895	0.075	53779	keystroke_Key.backspace	Key.backspace	n/a
27.0245	0.09	54049	keystroke_Key.backspace	Key.backspace	n/a
27.2655	0.089	54531	keystroke_n	n	n/a
27.49	0.0605	54980	keystroke_g	g	n/a
27.5795	0.105	55159	keystroke_i	i	n/a
27.8645	0.075	55729	keystroke_Key.backspace	Key.backspace	n/a
27.999	0.0755	55998	keystroke_Key.backspace	Key.backspace	n/a
28.1045	0.09	56209	keystroke_d	d	n/a
28.2245	0.1805	56449	keystroke_i	i	n/a
28.345	0.104	56690	keystroke_n	n	n/a
28.4645	0.09	56929	keystroke_g	g	n/a
28.6145	0.075	57229	keystroke_Key.space	Key.space	n/a
29.0645	0.1195	58129	keystroke_a	a	n/a
29.2905	0.09	58581	keystroke_u	u	n/a
29.4395	0.105	58879	keystroke_t	t	n/a
29.5595	0.105	59119	keystroke_o	o	n/a
29.874	0.046	59748	keystroke_m	m	n/a
30.235	0.1045	60470	keystroke_o	o	n/a
30.7445	0.0745	61489	keystroke_b	b	n/a
30.8495	0.105	61699	keystroke_i	i	n/a
30.9995	0.1495	61999	keystroke_l	l	n/a
31.1345	0.0745	62269	keystroke_e	e	n/a
31.2545	0.075	62509	keystroke_Key.space	Key.space	n/a
31.69	0.075	63380	keystroke_e	e	n/a
31.7795	0.0905	63559	keystroke_n	n	n/a
32.02	0.045	64040	keystroke_h	h	n/a
32.08	0.12	64160	keystroke_a	a	n/a
32.23	0.075	64460	keystroke_n	n	n/a
32.32	0.1195	64640	keystroke_c	c	n/a
32.3945	0.1355	64789	keystroke_e	e	n/a
32.6795	0.075	65359	keystroke_d	d	n/a
32.9945	0.075	65989	keystroke_Key.enter	Key.enter	n/a
33.075	21.2965	66150	prompt	n/a	antarctica appraisal productive bibliographic\n
33.895	0.06	67790	keystroke_a	a	n/a
34.03	0.09	68060	keystroke_n	n	n/a
34.39	0.105	68780	keystroke_t	t	n/a
34.975	0.1045	69950	keystroke_a	a	n/a
35.1545	0.06	70309	keystroke_r	r	n/a
35.3055	0.0885	70611	keystroke_t	t	n/a
35.4395	0.076	70879	keystroke_i	i	n/a
35.62	0.0745	71240	keystroke_c	c	n/a
35.709	0.091	71418	keystroke_a	a	n/a
35.904	0.045	71808	keystroke_Key.space	Key.space	n/a
36.4595	0.0755	72919	keystroke_a	a	n/a
36.5805	0.0895	73161	keystroke_p	p	n/a
36.73	0.0755	73460	keystroke_r	r	n/a
36.925	0.03	73850	keystroke_r	r	n/a
37.3295	0.0895	74659	keystroke_Key.backspace	Key.backspace	n/a
38.3945	0.06	76789	keystroke_Key.backspace	Key.backspace	n/a
38.574	0.136	77148	keystroke_Key.backspace	Key.backspace	n/a
38.785	0.089	77570	keystroke_Key.backspace	Key.backspace	n/a
38.949	0.105	77898	keystroke_Key.backspace	Key.backspace	n/a
39.3695	0.1045	78739	keystroke_Key.backspace	Key.backspace	n/a
40.48	0.089	80960	keystroke_Key.backspace	Key.backspace	n/a
40.644	0.091	81288	keystroke_Key.backspace	Key.backspace	n/a
40.8545	0.075	81709	keystroke_Key.backspace	Key.backspace	n/a
41.1405	0.1045	82281	keystroke_c	c	n/a
41.4845	0.09	82969	keystroke_t	t	n/a
41.5895	0.09	83179	keystroke_i	i	n/a
41.7245	0.181	83449	keystroke_c	c	n/a
41.8445	0.136	83689	keystroke_a	a	n/a
42.055	0.0895	84110	keystroke_Key.space	Key.space	n/a
42.6695	0.0905	85339	keystroke_Key.backspace	Key.backspace	n/a
44.3045	0.0905	88609	keystroke_Key.space	Key.space	n/a
44.62	0.1195	89240	keystroke_a	a	n/a
44.785	0.0595	89570	keystroke_p	p	n/a
44.9645	0.06	89929	keystroke_p	p	n/a
45.1145	0.0755	90229	keystroke_r	r	n/a
45.2345	0.105	90469	keystroke_a	a	n/a
46.0295	0.075	92059	keystroke_i	i	n/a
46.285	0.1345	92570	keystroke_s	s	n/a
46.405	0.09	92810	keystroke_a	a	n/a
46.48	0.1195	92960	keystroke_l	l	n/a
46.6595	0.1055	93319	keystroke_Key.space	Key.space	n/a
47.3045	0.1055	94609	keystroke_p	p	n/a
47.454	0.076	94908	keystroke_r	r	n/a
47.575	0.09	95150	keystroke_o	o	n/a
47.74	0.0905	95480	keystroke_d	d	n/a
47.86	0.0895	95720	keystroke_u	u	n/a
48.0245	0.091	96049	keystroke_c	c	n/a
48.79	0.09	97580	keystroke_t	t	n/a
49.0155	0.0735	98031	keystroke_i	i	n/a
49.36	0.1495	98720	keystroke_v	v	n/a
49.4945	0.105	98989	keystroke_e	e	n/a
49.63	0.105	99260	keystroke_Key.space	Key.space	n/a
50.1545	0.075	100309	keystroke_b	b	n/a
50.38	0.074	100760	keystroke_i	i	n/a
50.575	0.12	101150	keystroke_l	l	n/a
50.725	0.09	101450	keystroke_b	b	n/a
50.9495	0.0605	101899	keystroke_Key.backspace	Key.backspace	n/a
51.099	0.076	102198	keystroke_Key.backspace	Key.backspace	n/a
51.9545	0.075	103909	keystroke_b	b	n/a
52.0895	0.09	104179	keystroke_l	l	n/a
52.2395	0.106	104479	keystroke_i	i	n/a
52.5105	0.104	105021	keystroke_o	o	n/a
53.275	0.1355	106550	keystroke_g	g	n/a
53.35	0.1355	106700	keystroke_r	r	n/a
53.425	0.09	106850	keystroke_a	a	n/a
53.546	0.104	107092	keystroke_p	p	n/a
53.725	0.1055	107450	keystroke_h	h	n/a
53.935	0.089	107870	keystroke_i	i	n/a
54.0705	0.1195	108141	keystroke_c	c	n/a
54.279	0.09	108558	keystroke_Key.enter	Key.enter	n/a
54.384	10.7145	108768	prompt	n/a	address relevant bringing acdbentity\n
55.2105	0.089	110421	keystroke_a	a	n/a
55.4495	0.045	110899	keystroke_d	d	n/a
55.6455	0.1045	111291	keystroke_d	d	n/a
55.8545	0.1205	111709	keystroke_r	r	n/a
55.9295	0.1795	111859	keystroke_e	e	n/a
56.02	0.12	112040	keystroke_s	s	n/a
56.214	0.1055	112428	keystroke_s	s	n/a
56.4395	0.0895	112879	keystroke_Key.space	Key.space	n/a
56.634	0.1355	113268	keystroke_r	r	n/a
56.7245	0.12	113449	keystroke_e	e	n/a
56.86	0.0905	113720	keystroke_l	l	n/a
56.9945	0.105	113989	keystroke_e	e	n/a
57.2045	0.1355	114409	keystroke_v	v	n/a
57.325	0.135	114650	keystroke_a	a	n/a
57.415	0.06	114830	keystroke_n	n	n/a
57.565	0.105	115130	keystroke_t	t	n/a
57.775	0.105	115550	keystroke_Key.space	Key.space	n/a
58.39	0.15	116780	keystroke_b	b	n/a
58.525	0.105	117050	keystroke_r	r	n/a
58.6	0.18	117200	keystroke_i	i	n/a
58.734	0.091	117468	keystroke_n	n	n/a
58.84	0.075	117680	keystroke_g	g	n/a
58.959	0.152	117918	keystroke_i	i	n/a
59.065	0.12	118130	keystroke_n	n	n/a
59.2	0.075	118400	keystroke_g	g	n/a
59.3345	0.1055	118669	keystroke_Key.space	Key.space	n/a
59.6345	0.106	119269	keystroke_a	a	n/a
59.8595	0.105	119719	keystroke_c	c	n/a
61.06	0.105	122120	keystroke_d	d	n/a
61.795	0.104	123590	keystroke_Key.backspace	Key.backspace	n/a
62.98	0.09	125960	keystroke_d	d	n/a
63.205	0.105	126410	keystroke_b	b	n/a
63.7295	0.1355	127459	keystroke_e	e	n/a
63.8805	0.105	127761	keystroke_n	n	n/a
64.0455	0.1195	128091	keystroke_t	t	n/a
64.4045	0.105	128809	keystroke_i	i	n/a
64.4945	0.0595	128989	keystroke_t	t	n/a
64.72	0.0145	129440	keystroke_t	t	n/a
64.8255	0.0745	129651	keystroke_y	y	n/a
64.9895	0.105	129979	keystroke_Key.enter	Key.enter	n/a
65.106	7.235	130212	prompt	n/a	activity vids affairs juan\n
66.46	0.105	132920	keystroke_a	a	n/a
66.64	0.105	133280	keystroke_c	c	n/a
66.895	0.06	133790	keystroke_t	t	n/a
66.985	0.105	133970	keystroke_i	i	n/a
67.195	0.06	134390	keystroke_c	c	n/a
67.449	0.06	134898	keystroke_Key.backspace	Key.backspace	n/a
67.5695	0.0755	135139	keystroke_v	v	n/a
67.735	0.1045	135470	keystroke_i	i	n/a
67.8545	0.15	135709	keystroke_t	t	n/a
67.9745	0.09	135949	keystroke_y	y	n/a
68.44	0.075	136880	keystroke_Key.space	Key.space	n/a
69.1	0.1045	138200	keystroke_v	v	n/a
69.28	0.075	138560	keystroke_i	i	n/a
69.37	0.1345	138740	keystroke_d	d	n/a
69.4745	0.135	138949	keystroke_s	s	n/a
69.6395	0.09	139279	keystroke_Key.space	Key.space	n/a
69.9255	0.0745	139851	keystroke_a	a	n/a
70.15	0.075	140300	keystroke_f	f	n/a
70.299	0.136	140598	keystroke_f	f	n/a
70.42	0.135	140840	keystroke_a	a	n/a
70.556	0.0445	141112	keystroke_i	i	n/a
70.645	0.134	141290	keystroke_r	r	n/a
70.764	0.091	141528	keystroke_s	s	n/a
70.96	0.06	141920	keystroke_Key.space	Key.space	n/a
71.7695	0.061	143539	keystroke_j	j	n/a
71.9195	0.075	143839	keystroke_u	u	n/a
72.04	0.015	144080	keystroke_a	a	n/a
72.1	0.0905	144200	keystroke_n	n	n/a
72.2795	0.06	144559	keystroke_Key.enter	Key.enter	n/a
72.3465	9.0845	144693	prompt	n/a	maldives backing patch slovakia\n
73.5555	0.1045	147111	keystroke_m	m	n/a
73.735	0.105	147470	keystroke_a	a	n/a
74.23	0.119	148460	keystroke_l	l	n/a
74.44	0.089	148880	keystroke_d	d	n/a
74.56	0.09	149120	keystroke_i	i	n/a
74.71	0.134	149420	keystroke_v	v	n/a
74.86	0.1355	149720	keystroke_e	e	n/a
74.9055	0.1345	149811	keystroke_s	s	n/a
75.1	0.089	150200	keystroke_Key.space	Key.space	n/a
75.64	0.0595	151280	keystroke_b	b	n/a
75.9695	0.135	151939	keystroke_a	a	n/a
76.1495	0.1205	152299	keystroke_c	c	n/a
76.225	0.105	152450	keystroke_k	k	n/a
76.435	0.119	152870	keystroke_i	i	n/a
76.525	0.135	153050	keystroke_n	n	n/a
76.6455	0.0735	153291	keystroke_g	g	n/a
76.795	0.104	153590	keystroke_Key.space	Key.space	n/a
77.3205	0.105	154641	keystroke_p	p	n/a
77.6345	0.135	155269	keystroke_a	a	n/a
77.9345	0.075	155869	keystroke_t	t	n/a
78.1295	0.09	156259	keystroke_c	c	n/a
78.235	0.0745	156470	keystroke_h	h	n/a
78.3245	0.105	156649	keystroke_Key.space	Key.space	n/a
78.5495	0.09	157099	keystroke_s	s	n/a
78.9395	0.0905	157879	keystroke_l	l	n/a
79.15	0.1045	158300	keystroke_o	o	n/a
79.2695	0.1355	158539	keystroke_v	v	n/a
79.3895	0.076	158779	keystroke_a	a	n/a
79.7345	0.06	159469	keystroke_i	i	n/a
80.1095	0.06	160219	keystroke_Key.backspace	Key.backspace	n/a
80.3645	0.075	160729	keystroke_k	k	n/a
80.53	0.0595	161060	keystroke_i	i	n/a
80.6345	0.105	161269	keystroke_a	a	n/a
81.3095	0.12	162619	keystroke_Key.enter	Key.enter	n/a
81.436	5.772	162872	prompt	n/a	trunk verse flood sanyo\n
82.4945	0.12	164989	keystroke_t	t	n/a
82.5995	0.105	165199	keystroke_r	r	n/a
82.7655	0.044	165531	keystroke_u	u	n/a
82.96	0.0745	165920	keystroke_n	n	n/a
83.094	0.106	166188	keystroke_k	k	n/a
83.3045	0.09	166609	keystroke_Key.space	Key.space	n/a
83.95	0.0595	167900	keystroke_v	v	n/a
84.0545	0.15	168109	keystroke_e	e	n/a
84.1295	0.12	168259	keystroke_r	r	n/a
84.2945	0.195	168589	keystroke_s	s	n/a
84.4295	0.135	168859	keystroke_e	e	n/a
84.5795	0.105	169159	keystroke_Key.space	Key.space	n/a
84.91	0.1205	169820	keystroke_f	f	n/a
85.165	0.0455	170330	keystroke_l	l	n/a
85.3145	0.0755	170629	keystroke_o	o	n/a
85.4805	0.104	170961	keystroke_o	o	n/a
85.5395	0.106	171079	keystroke_d	d	n/a
85.6895	0.09	171379	keystroke_Key.space	Key.space	n/a
86.304	0.1055	172608	keystroke_s	s	n/a
86.3945	0.1355	172789	keystroke_a	a	n/a
86.4845	0.105	172969	keystroke_n	n	n/a
86.6805	0.0895	173361	keystroke_y	y	n/a
86.8145	0.0905	173629	keystroke_o	o	n/a
87.099	0.106	174198	keystroke_Key.enter	Key.enter	n/a
87.2175	6.304	174435	prompt	n/a	tested apache statement signed\n
87.9995	0.136	175999	keystroke_r	r	n/a
88.314	0.06	176628	keystroke_Key.backspace	Key.backspace	n/a
88.404	0.166	176808	keystroke_t	t	n/a
88.5555	0.2235	177111	keystroke_e	e	n/a
88.689	0.121	177378	keystroke_s	s	n/a
88.9145	0.1205	177829	keystroke_t	t	n/a
89.02	0.105	178040	keystroke_e	e	n/a
89.214	0.091	178428	keystroke_d	d	n/a
89.35	0.105	178700	keystroke_Key.space	Key.space	n/a
89.5	0.09	179000	keystroke_a	a	n/a
89.635	0.09	179270	keystroke_p	p	n/a
89.8	0.09	179600	keystroke_a	a	n/a
90.099	0.091	180198	keystroke_c	c	n/a
90.235	0.059	180470	keystroke_h	h	n/a
90.324	0.0755	180648	keystroke_e	e	n/a
90.4605	0.074	180921	keystroke_Key.space	Key.space	n/a
90.8945	0.121	181789	keystroke_s	s	n/a
91.0455	0.1495	182091	keystroke_t	t	n/a
91.18	0.1645	182360	keystroke_a	a	n/a
91.285	0.134	182570	keystroke_t	t	n/a
91.405	0.12	182810	keystroke_e	e	n/a
91.5395	0.0905	183079	keystroke_m	m	n/a
91.69	0.12	183380	keystroke_e	e	n/a
91.7955	0.089	183591	keystroke_n	n	n/a
91.975	0.105	183950	keystroke_t	t	n/a
92.199	0.06	184398	keystroke_Key.space	Key.space	n/a
92.4405	0.1195	184881	keystroke_s	s	n/a
92.605	0.09	185210	keystroke_i	i	n/a
92.71	0.059	185420	keystroke_g	g	n/a
92.994	0.09	185988	keystroke_n	n	n/a
93.099	0.076	186198	keystroke_e	e	n/a
93.265	0.09	186530	keystroke_d	d	n/a
93.46	0.0595	186920	keystroke_Key.enter	Key.enter	n/a
93.5255	8.186	187051	prompt	n/a	mineral grateful green margaret\n
94.24	0.09	188480	keystroke_m	m	n/a
94.63	0.075	189260	keystroke_i	i	n/a
94.765	0.105	189530	keystroke_n	n	n/a
94.855	0.105	189710	keystroke_e	e	n/a
94.9295	0.12	189859	keystroke_r	r	n/a
95.0645	0.105	190129	keystroke_a	a	n/a
95.2145	0.06	190429	keystroke_l	l	n/a
95.4245	0.0605	190849	keystroke_Key.space	Key.space	n/a
96.13	0.1195	192260	keystroke_g	g	n/a
96.1595	0.1655	192319	keystroke_r	r	n/a
96.2645	0.15	192529	keystroke_a	a	n/a
96.3995	0.165	192799	keystroke_t	t	n/a
96.535	0.1045	193070	keystroke_e	e	n/a
96.775	0.075	193550	keystroke_f	f	n/a
96.91	0.104	193820	keystroke_u	u	n/a
97.12	0.075	194240	keystroke_l	l	n/a
97.344	0.106	194688	keystroke_Key.space	Key.space	n/a
97.825	0.105	195650	keystroke_g	g	n/a
97.915	0.09	195830	keystroke_r	r	n/a
98.11	0.0595	196220	keystroke_e	e	n/a
98.26	0.0895	196520	keystroke_e	e	n/a
98.394	0.0905	196788	keystroke_n	n	n/a
98.544	0.06	197088	keystroke_Key.space	Key.space	n/a
98.814	0.06	197628	keystroke_m	m	n/a
98.919	0.106	197838	keystroke_a	a	n/a
99.009	0.106	198018	keystroke_r	r	n/a
100.3	0.1195	200600	keystroke_g	g	n/a
100.5105	0.1335	201021	keystroke_a	a	n/a
100.6895	0.0755	201379	keystroke_r	r	n/a
100.975	0.1645	201950	keystroke_e	e	n/a
101.1405	0.0895	202281	keystroke_t	t	n/a
101.6345	0.075	203269	keystroke_Key.enter	Key.enter	n/a
101.7155	7.872	203431	prompt	n/a	columnists earrings deferred brochure\n
102.5195	0.12	205039	keystroke_c	c	n/a
102.6545	0.09	205309	keystroke_o	o	n/a
102.8795	0.12	205759	keystroke_l	l	n/a
103.1195	0.06	206239	keystroke_u	u	n/a
103.3305	0.06	206661	keystroke_m	m	n/a
103.525	0.09	207050	keystroke_n	n	n/a
103.6295	0.09	207259	keystroke_i	i	n/a
103.7345	0.105	207469	keystroke_s	s	n/a
103.7945	0.135	207589	keystroke_t	t	n/a
103.9445	0.105	207889	keystroke_s	s	n/a
104.0795	0.12	208159	keystroke_Key.space	Key.space	n/a
104.5145	0.1355	209029	keystroke_e	e	n/a
104.6945	0.1665	209389	keystroke_a	a	n/a
104.815	0.09	209630	keystroke_r	r	n/a
104.995	0.06	209990	keystroke_r	r	n/a
105.07	0.1795	210140	keystroke_i	i	n/a
105.1895	0.106	210379	keystroke_n	n	n/a
105.2965	0.088	210593	keystroke_g	g	n/a
105.4745	0.1055	210949	keystroke_s	s	n/a
105.6545	0.09	211309	keystroke_Key.space	Key.space	n/a
105.9995	0.075	211999	keystroke_d	d	n/a
106.1795	0.12	212359	keystroke_e	e	n/a
106.2695	0.15	212539	keystroke_f	f	n/a
106.5995	0.12	213199	keystroke_e	e	n/a
106.8695	0.075	213739	keystroke_r	r	n/a
107.0195	0.1055	214039	keystroke_r	r	n/a
107.1995	0.075	214399	keystroke_e	e	n/a
107.4095	0.06	214819	keystroke_d	d	n/a
107.9195	0.075	215839	keystroke_Key.space	Key.space	n/a
108.5495	0.075	217099	keystroke_b	b	n/a
108.6095	0.06	217219	keystroke_r	r	n/a
108.7305	0.135	217461	keystroke_o	o	n/a
108.9995	0.09	217999	keystroke_c	c	n/a
109.0745	0.09	218149	keystroke_h	h	n/a
109.1795	0.136	218359	keystroke_u	u	n/a
109.255	0.09	218510	keystroke_r	r	n/a
109.33	0.12	218660	keystroke_e	e	n/a
109.495	0.089	218990	keystroke_Key.enter	Key.enter	n/a
109.592	4.554	219184	prompt	n/a	tear sitting last dominant\n
110.455	0.1645	220910	keystroke_t	t	n/a
110.559	0.1505	221118	keystroke_e	e	n/a
110.6495	0.15	221299	keystroke_a	a	n/a
110.7845	0.105	221569	keystroke_r	r	n/a
110.9645	0.12	221929	keystroke_Key.space	Key.space	n/a
111.1745	0.1045	222349	keystroke_s	s	n/a
111.2795	0.09	222559	keystroke_i	i	n/a
111.4295	0.09	222859	keystroke_t	t	n/a
111.5945	0.105	223189	keystroke_t	t	n/a
111.7445	0.135	223489	keystroke_i	i	n/a
111.8195	0.105	223639	keystroke_n	n	n/a
111.9855	0.029	223971	keystroke_g	g	n/a
112.1645	0.09	224329	keystroke_Key.space	Key.space	n/a
112.4645	0.1055	224929	keystroke_l	l	n/a
112.5995	0.1805	225199	keystroke_a	a	n/a
112.765	0.1495	225530	keystroke_s	s	n/a
112.8845	0.1205	225769	keystroke_t	t	n/a
113.05	0.0895	226100	keystroke_Key.space	Key.space	n/a
113.1545	0.0755	226309	keystroke_d	d	n/a
113.2445	0.091	226489	keystroke_o	o	n/a
113.3645	0.105	226729	keystroke_c	c	n/a
113.4845	0.0755	226969	keystroke_u	u	n/a
113.6795	0.06	227359	keystroke_m	m	n/a
113.785	0.0745	227570	keystroke_e	e	n/a
113.875	0.075	227750	keystroke_n	n	n/a
113.9645	0.076	227929	keystroke_t	t	n/a
114.0845	0.06	228169	keystroke_Key.enter	Key.enter	n/a
114.1495	9.028	228299	prompt	n/a	gazette zope soap explains\n
115.36	0.15	230720	keystroke_g	g	n/a
115.51	0.12	231020	keystroke_a	a	n/a
116.7695	0.045	233539	keystroke_z	z	n/a
117.775	0.134	235550	keystroke_e	e	n/a
117.9845	0.105	235969	keystroke_t	t	n/a
118.1495	0.1205	236299	keystroke_t	t	n/a
118.2845	0.195	236569	keystroke_e	e	n/a
118.584	0.09	237168	keystroke_Key.space	Key.space	n/a
119.335	0.119	238670	keystroke_z	z	n/a
119.469	0.181	238938	keystroke_o	o	n/a
119.635	0.105	239270	keystroke_p	p	n/a
119.755	0.09	239510	keystroke_e	e	n/a
119.919	0.1055	239838	keystroke_Key.space	Key.space	n/a
120.43	0.1345	240860	keystroke_s	s	n/a
120.5795	0.1355	241159	keystroke_o	o	n/a
120.73	0.09	241460	keystroke_a	a	n/a
120.8345	0.0755	241669	keystroke_p	p	n/a
121.0145	0.09	242029	keystroke_Key.space	Key.space	n/a
121.4795	0.075	242959	keystroke_e	e	n/a
121.7645	0.135	243529	keystroke_x	x	n/a
121.9145	0.135	243829	keystroke_p	p	n/a
122.1845	0.075	244369	keystroke_l	l	n/a
122.2745	0.105	244549	keystroke_a	a	n/a
122.5295	0.1655	245059	keystroke_i	i	n/a
122.679	0.1055	245358	keystroke_n	n	n/a
122.83	0.1045	245660	keystroke_s	s	n/a
123.0845	0.09	246169	keystroke_Key.enter	Key.enter	n/a
123.1815	7.1195	246363	prompt	n/a	filed blow sherman qualifying\n
124.255	0.105	248510	keystroke_f	f	n/a
124.404	0.106	248808	keystroke_i	i	n/a
124.539	0.151	249078	keystroke_l	l	n/a
124.645	0.1045	249290	keystroke_e	e	n/a
124.84	0.1045	249680	keystroke_d	d	n/a
124.9445	0.105	249889	keystroke_Key.space	Key.space	n/a
125.905	0.09	251810	keystroke_b	b	n/a
125.9795	0.0755	251959	keystroke_l	l	n/a
126.1455	0.1345	252291	keystroke_o	o	n/a
126.265	0.119	252530	keystroke_w	w	n/a
126.4295	0.1345	252859	keystroke_Key.space	Key.space	n/a
126.955	0.1055	253910	keystroke_s	s	n/a
127.1345	0.0595	254269	keystroke_h	h	n/a
127.225	0.149	254450	keystroke_e	e	n/a
127.3145	0.1195	254629	keystroke_r	r	n/a
127.449	0.075	254898	keystroke_m	m	n/a
127.539	0.09	255078	keystroke_a	a	n/a
127.675	0.06	255350	keystroke_n	n	n/a
127.81	0.089	255620	keystroke_Key.space	Key.space	n/a
128.259	0.105	256518	keystroke_q	q	n/a
128.3795	0.1055	256759	keystroke_u	u	n/a
128.5595	0.12	257119	keystroke_a	a	n/a
128.694	0.1215	257388	keystroke_l	l	n/a
128.8895	0.0755	257779	keystroke_i	i	n/a
129.159	0.0755	258318	keystroke_g	g	n/a
129.4895	0.15	258979	keystroke_Key.backspace	Key.backspace	n/a
129.5945	0.075	259189	keystroke_f	f	n/a
129.79	0.0745	259580	keystroke_y	y	n/a
129.8795	0.105	259759	keystroke_i	i	n/a
130.0295	0.076	260059	keystroke_n	n	n/a
130.1205	0.059	260241	keystroke_g	g	n/a
130.2095	0.09	260419	keystroke_Key.enter	Key.enter	n/a
130.307	7.1795	260614	prompt	n/a	comm heading acquired camcorder\n
131.0805	0.104	262161	keystroke_c	c	n/a
131.1245	0.1055	262249	keystroke_o	o	n/a
131.3645	0.015	262729	keystroke_m	m	n/a
131.4845	0.045	262969	keystroke_m	m	n/a
131.6645	0.029	263329	keystroke_Key.space	Key.space	n/a
132.144	0.0605	264288	keystroke_h	h	n/a
132.1895	0.105	264379	keystroke_e	e	n/a
132.2345	0.15	264469	keystroke_a	a	n/a
132.5495	0.12	265099	keystroke_d	d	n/a
132.6395	0.1505	265279	keystroke_i	i	n/a
132.7145	0.12	265429	keystroke_n	n	n/a
132.8795	0.045	265759	keystroke_g	g	n/a
132.9845	0.09	265969	keystroke_Key.space	Key.space	n/a
133.6155	0.134	267231	keystroke_a	a	n/a
133.765	0.0895	267530	keystroke_c	c	n/a
134.14	0.0895	268280	keystroke_q	q	n/a
134.26	0.1345	268520	keystroke_u	u	n/a
134.3945	0.06	268789	keystroke_i	i	n/a
134.4845	0.166	268969	keystroke_r	r	n/a
134.755	0.0605	269510	keystroke_e	e	n/a
134.935	0.0445	269870	keystroke_d	d	n/a
135.0995	0.0905	270199	keystroke_Key.space	Key.space	n/a
135.55	0.105	271100	keystroke_a	a	n/a
136.045	0.074	272090	keystroke_Key.backspace	Key.backspace	n/a
136.135	0.1045	272270	keystroke_c	c	n/a
136.2395	0.09	272479	keystroke_a	a	n/a
136.3445	0.075	272689	keystroke_m	m	n/a
136.6595	0.105	273319	keystroke_c	c	n/a
136.7495	0.105	273499	keystroke_o	o	n/a
136.8855	0.074	273771	keystroke_r	r	n/a
137.0795	0.0605	274159	keystroke_d	d	n/a
137.1995	0.15	274399	keystroke_e	e	n/a
137.305	0.1045	274610	keystroke_r	r	n/a
137.3795	0.1045	274759	keystroke_Key.enter	Key.enter	n/a
137.493	5.723	274986	prompt	n/a	formal technology wage life\n
138.234	0.09	276468	keystroke_f	f	n/a
138.339	0.091	276678	keystroke_o	o	n/a
138.4745	0.1055	276949	keystroke_r	r	n/a
138.8195	0.0755	277639	keystroke_m	m	n/a
138.91	0.075	277820	keystroke_a	a	n/a
139.03	0.1345	278060	keystroke_l	l	n/a
139.3595	0.0755	278719	keystroke_Key.space	Key.space	n/a
139.5095	0.12	279019	keystroke_t	t	n/a
139.6145	0.12	279229	keystroke_e	e	n/a
139.7805	0.1045	279561	keystroke_c	c	n/a
139.8695	0.105	279739	keystroke_h	h	n/a
140.2745	0.0755	280549	keystroke_n	n	n/a
140.4095	0.1195	280819	keystroke_o	o	n/a
140.6795	0.1045	281359	keystroke_l	l	n/a
140.934	0.06	281868	keystroke_o	o	n/a
141.0845	0.09	282169	keystroke_g	g	n/a
141.324	0.105	282648	keystroke_y	y	n/a
141.444	0.151	282888	keystroke_Key.space	Key.space	n/a
142.0145	0.15	284029	keystroke_w	w	n/a
142.1345	0.18	284269	keystroke_a	a	n/a
142.2545	0.151	284509	keystroke_g	g	n/a
142.3595	0.12	284719	keystroke_e	e	n/a
142.51	0.1195	285020	keystroke_Key.space	Key.space	n/a
142.6895	0.15	285379	keystroke_l	l	n/a
142.8245	0.075	285649	keystroke_i	i	n/a
142.9445	0.105	285889	keystroke_f	f	n/a
143.0345	0.0755	286069	keystroke_e	e	n/a
143.155	0.0595	286310	keystroke_Key.enter	Key.enter	n/a
143.2245	7.9145	286449	prompt	n/a	recruiting transcription fitting paso\n
143.9645	0.135	287929	keystroke_r	r	n/a
144.0705	0.0895	288141	keystroke_e	e	n/a
144.3245	0.105	288649	keystroke_c	c	n/a
144.535	0.089	289070	keystroke_r	r	n/a
144.699	0.1355	289398	keystroke_u	u	n/a
144.864	0.1205	289728	keystroke_i	i	n/a
145.0135	0.0905	290027	keystroke_t	t	n/a
145.1645	0.2845	290329	keystroke_i	i	n/a
145.3595	0.179	290719	keystroke_n	n	n/a
145.509	0.1055	291018	keystroke_g	g	n/a
145.689	0.1055	291378	keystroke_Key.space	Key.space	n/a
146.2295	0.135	292459	keystroke_t	t	n/a
146.3195	0.12	292639	keystroke_r	r	n/a
146.8595	0.0595	293719	keystroke_n	n	n/a
147.1295	0.0745	294259	keystroke_Key.backspace	Key.backspace	n/a
147.234	0.1205	294468	keystroke_a	a	n/a
147.3695	0.1045	294739	keystroke_n	n	n/a
147.5645	0.09	295129	keystroke_s	s	n/a
147.9245	0.0895	295849	keystroke_c	c	n/a
148.119	0.0905	296238	keystroke_r	r	n/a
148.2695	0.105	296539	keystroke_i	i	n/a
148.419	0.0905	296838	keystroke_p	p	n/a
148.5395	0.105	297079	keystroke_t	t	n/a
148.7345	0.1355	297469	keystroke_i	i	n/a
148.7945	0.18	297589	keystroke_o	o	n/a
148.9595	0.12	297919	keystroke_n	n	n/a
149.124	0.075	298248	keystroke_Key.space	Key.space	n/a
149.4245	0.1045	298849	keystroke_f	f	n/a
149.559	0.1055	299118	keystroke_i	i	n/a
149.6945	0.105	299389	keystroke_t	t	n/a
149.844	0.1055	299688	keystroke_t	t	n/a
149.9495	0.15	299899	keystroke_i	i	n/a
150.0395	0.12	300079	keystroke_n	n	n/a
150.144	0.075	300288	keystroke_g	g	n/a
150.279	0.0755	300558	keystroke_Key.space	Key.space	n/a
150.52	0.09	301040	keystroke_p	p	n/a
150.5945	0.12	301189	keystroke_a	a	n/a
150.6995	0.12	301399	keystroke_s	s	n/a
150.8205	0.104	301641	keystroke_o	o	n/a
151.0445	0.089	302089	keystroke_Key.enter	Key.enter	n/a
151.142	8.274	302284	prompt	n/a	thursday profit patents stories\n
152.0195	0.0595	304039	keystroke_t	t	n/a
152.064	0.09	304128	keystroke_h	h	n/a
152.2895	0.09	304579	keystroke_u	u	n/a
152.5145	0.09	305029	keystroke_r	r	n/a
152.799	0.105	305598	keystroke_s	s	n/a
152.949	0.1505	305898	keystroke_d	d	n/a
153.0845	0.1945	306169	keystroke_a	a	n/a
153.189	0.136	306378	keystroke_y	y	n/a
153.4745	0.12	306949	keystroke_Key.space	Key.space	n/a
153.6695	0.12	307339	keystroke_p	p	n/a
153.9395	0.089	307879	keystroke_r	r	n/a
154.0895	0.09	308179	keystroke_o	o	n/a
154.1945	0.0905	308389	keystroke_f	f	n/a
154.329	0.091	308658	keystroke_i	i	n/a
154.449	0.0905	308898	keystroke_t	t	n/a
154.584	0.135	309168	keystroke_Key.space	Key.space	n/a
156.0845	0.0895	312169	keystroke_p	p	n/a
156.129	0.105	312258	keystroke_a	a	n/a
156.354	0.105	312708	keystroke_t	t	n/a
156.474	0.15	312948	keystroke_e	e	n/a
156.639	0.0755	313278	keystroke_n	n	n/a
156.774	0.1355	313548	keystroke_s	s	n/a
156.9095	0.1195	313819	keystroke_t	t	n/a
157.5095	0.0145	315019	keystroke_Key.backspace	Key.backspace	n/a
157.614	0.06	315228	keystroke_Key.backspace	Key.backspace	n/a
157.69	0.1195	315380	keystroke_t	t	n/a
157.7945	0.12	315589	keystroke_s	s	n/a
157.9435	0.1205	315887	keystroke_Key.space	Key.space	n/a
158.245	0.1345	316490	keystroke_s	s	n/a
158.499	0.1055	316998	keystroke_t	t	n/a
158.755	0.0595	317510	keystroke_o	o	n/a
158.8595	0.0745	317719	keystroke_r	r	n/a
158.994	0.076	317988	keystroke_i	i	n/a
159.114	0.1355	318228	keystroke_e	e	n/a
159.1895	0.12	318379	keystroke_s	s	n/a
159.3245	0.09	318649	keystroke_Key.enter	Key.enter	n/a
159.422	7.9135	318844	prompt	n/a	height springer tile supervision\n
160.225	0.0595	320450	keystroke_h	h	n/a
160.2545	0.105	320509	keystroke_e	e	n/a
160.3745	0.12	320749	keystroke_i	i	n/a
160.4655	0.089	320931	keystroke_g	g	n/a
160.5695	0.0895	321139	keystroke_h	h	n/a
160.735	0.0595	321470	keystroke_t	t	n/a
160.9585	0.09	321917	keystroke_Key.space	Key.space	n/a
161.9805	0.074	323961	keystroke_s	s	n/a
162.1745	0.105	324349	keystroke_p	p	n/a
162.295	0.089	324590	keystroke_r	r	n/a
162.505	0.089	325010	keystroke_i	i	n/a
162.7	0.075	325400	keystroke_n	n	n/a
162.76	0.09	325520	keystroke_g	g	n/a
162.91	0.179	325820	keystroke_e	e	n/a
163.015	0.134	326030	keystroke_r	r	n/a
163.1945	0.12	326389	keystroke_Key.space	Key.space	n/a
163.5095	0.105	327019	keystroke_l	l	n/a
163.8245	0.09	327649	keystroke_Key.backspace	Key.backspace	n/a
163.9295	0.09	327859	keystroke_t	t	n/a
164.0795	0.075	328159	keystroke_i	i	n/a
164.2295	0.105	328459	keystroke_l	l	n/a
164.3495	0.075	328699	keystroke_e	e	n/a
164.47	0.0895	328940	keystroke_Key.space	Key.space	n/a
164.755	0.135	329510	keystroke_s	s	n/a
165.3995	0.12	330799	keystroke_u	u	n/a
165.5505	0.104	331101	keystroke_p	p	n/a
165.7145	0.21	331429	keystroke_e	e	n/a
165.8195	0.135	331639	keystroke_r	r	n/a
166.449	0.076	332898	keystroke_v	v	n/a
166.5395	0.1045	333079	keystroke_i	i	n/a
166.659	0.1055	333318	keystroke_s	s	n/a
166.749	0.316	333498	keystroke_i	i	n/a
166.884	0.15	333768	keystroke_o	o	n/a
167.005	0.119	334010	keystroke_n	n	n/a
167.244	0.09	334488	keystroke_Key.enter	Key.enter	n/a
167.345	8.167	334690	prompt	n/a	suspension mandate bend beastality\n
168.2945	0.0905	336589	keystroke_s	s	n/a
168.505	0.0295	337010	keystroke_u	u	n/a
168.775	0.0745	337550	keystroke_s	s	n/a
169.299	0.06	338598	keystroke_p	p	n/a
169.3445	0.0745	338689	keystroke_e	e	n/a
169.48	0.074	338960	keystroke_n	n	n/a
169.644	0.121	339288	keystroke_s	s	n/a
169.795	0.33	339590	keystroke_i	i	n/a
169.914	0.106	339828	keystroke_o	o	n/a
170.095	0.12	340190	keystroke_n	n	n/a
170.2745	0.075	340549	keystroke_Key.space	Key.space	n/a
170.6795	0.1355	341359	keystroke_m	m	n/a
170.83	0.0895	341660	keystroke_a	a	n/a
171.009	0.061	342018	keystroke_n	n	n/a
171.34	0.135	342680	keystroke_d	d	n/a
171.49	0.2245	342980	keystroke_a	a	n/a
171.61	0.1645	343220	keystroke_t	t	n/a
171.76	0.1345	343520	keystroke_e	e	n/a
171.9095	0.1045	343819	keystroke_Key.space	Key.space	n/a
172.075	0.09	344150	keystroke_b	b	n/a
172.105	0.075	344210	keystroke_e	e	n/a
172.315	0.06	344630	keystroke_n	n	n/a
172.33	0.09	344660	keystroke_d	d	n/a
172.539	0.091	345078	keystroke_Key.space	Key.space	n/a
173.2295	0.075	346459	keystroke_b	b	n/a
173.3495	0.135	346699	keystroke_e	e	n/a
173.4555	0.209	346911	keystroke_a	a	n/a
174.1295	0.1055	348259	keystroke_s	s	n/a
174.2045	0.15	348409	keystroke_t	t	n/a
174.4145	0.15	348829	keystroke_a	a	n/a
174.5495	0.105	349099	keystroke_l	l	n/a
174.9245	0.09	349849	keystroke_i	i	n/a
174.9995	0.1055	349999	keystroke_t	t	n/a
175.1945	0.09	350389	keystroke_y	y	n/a
175.419	0.09	350838	keystroke_Key.enter	Key.enter	n/a
175.5245	9.4965	351049	prompt	n/a	slot lows capability quad\n
176.1245	0.075	352249	keystroke_s	s	n/a
176.3945	0.105	352789	keystroke_l	l	n/a
176.5895	0.12	353179	keystroke_o	o	n/a
176.725	0.0745	353450	keystroke_t	t	n/a
176.8595	0.09	353719	keystroke_Key.space	Key.space	n/a
177.1745	0.09	354349	keystroke_l	l	n/a
177.3995	0.12	354799	keystroke_o	o	n/a
177.4745	0.075	354949	keystroke_w	w	n/a
177.6545	0.075	355309	keystroke_s	s	n/a
177.7745	0.105	355549	keystroke_Key.space	Key.space	n/a
178.0145	0.105	356029	keystroke_c	c	n/a
178.21	0.1045	356420	keystroke_p	p	n/a
178.2395	0.09	356479	keystroke_a	a	n/a
178.584	0.06	357168	keystroke_Key.backspace	Key.backspace	n/a
178.764	0.045	357528	keystroke_Key.backspace	Key.backspace	n/a
178.8545	0.061	357709	keystroke_a	a	n/a
179.005	0.1045	358010	keystroke_[	[	n/a
179.14	0.09	358280	keystroke_a	a	n/a
179.6495	0.06	359299	keystroke_Key.backspace	Key.backspace	n/a
179.7995	0.105	359599	keystroke_Key.backspace	Key.backspace	n/a
180.2495	0.1045	360499	keystroke_p	p	n/a
180.444	0.091	360888	keystroke_a	a	n/a
181.36	0.09	362720	keystroke_b	b	n/a
181.495	0.105	362990	keystroke_i	i	n/a
181.719	0.135	363438	keystroke_l	l	n/a
181.944	0.045	363888	keystroke_u	u	n/a
182.0495	0.1195	364099	keystroke_t	t	n/a
182.259	0.09	364518	keystroke_y	y	n/a
182.469	0.075	364938	keystroke_Key.backspace	Key.backspace	n/a
182.6495	0.045	365299	keystroke_Key.backspace	Key.backspace	n/a
182.7845	0.105	365569	keystroke_Key.backspace	Key.backspace	n/a
183.5795	0.0745	367159	keystroke_i	i	n/a
183.684	0.0905	367368	keystroke_t	t	n/a
183.849	0.075	367698	keystroke_y	y	n/a
184.03	0.105	368060	keystroke_Key.space	Key.space	n/a
184.495	0.0745	368990	keystroke_q	q	n/a
184.5845	0.0755	369169	keystroke_u	u	n/a
184.7045	0.1495	369409	keystroke_a	a	n/a
184.8245	0.1195	369649	keystroke_d	d	n/a
184.929	0.09	369858	keystroke_Key.enter	Key.enter	n/a
185.0245	6.3265	370049	prompt	n/a	collector farming media disk\n
185.6345	0.12	371269	keystroke_c	c	n/a
185.695	0.1045	371390	keystroke_o	o	n/a
185.9195	0.06	371839	keystroke_l	l	n/a
186.0695	0.06	372139	keystroke_l	l	n/a
186.1595	0.135	372319	keystroke_e	e	n/a
186.2495	0.135	372499	keystroke_c	c	n/a
186.5045	0.075	373009	keystroke_o	o	n/a
186.5195	0.0745	373039	keystroke_t	t	n/a
187.1645	0.06	374329	keystroke_Key.backspace	Key.backspace	n/a
187.299	0.075	374598	keystroke_Key.backspace	Key.backspace	n/a
187.4195	0.0445	374839	keystroke_t	t	n/a
187.554	0.105	375108	keystroke_o	o	n/a
187.7045	0.0595	375409	keystroke_r	r	n/a
187.809	0.076	375618	keystroke_Key.space	Key.space	n/a
188.2145	0.135	376429	keystroke_f	f	n/a
188.3345	0.165	376669	keystroke_a	a	n/a
188.4845	0.105	376969	keystroke_r	r	n/a
188.5445	0.09	377089	keystroke_m	m	n/a
188.6795	0.18	377359	keystroke_i	i	n/a
188.8455	0.089	377691	keystroke_n	n	n/a
188.9195	0.09	377839	keystroke_g	g	n/a
189.0545	0.075	378109	keystroke_Key.space	Key.space	n/a
189.25	0.0895	378500	keystroke_m	m	n/a
189.2945	0.075	378589	keystroke_e	e	n/a
189.475	0.105	378950	keystroke_d	d	n/a
189.61	0.075	379220	keystroke_i	i	n/a
189.67	0.074	379340	keystroke_a	a	n/a
190.209	0.075	380418	keystroke_Key.space	Key.space	n/a
190.719	0.0905	381438	keystroke_d	d	n/a
190.8685	0.046	381737	keystroke_i	i	n/a
190.9445	0.1045	381889	keystroke_s	s	n/a
191.065	0.074	382130	keystroke_k	k	n/a
191.229	0.1205	382458	keystroke_Key.enter	Key.enter	n/a
191.3595	5.6915	382719	prompt	n/a	weight opinions dave budget\n
192.0095	0.1495	384019	keystroke_w	w	n/a
192.144	0.1355	384288	keystroke_e	e	n/a
192.2495	0.09	384499	keystroke_i	i	n/a
192.369	0.1055	384738	keystroke_g	g	n/a
192.459	0.106	384918	keystroke_h	h	n/a
192.55	0.105	385100	keystroke_t	t	n/a
192.655	0.0895	385310	keystroke_Key.space	Key.space	n/a
192.9545	0.135	385909	keystroke_o	o	n/a
193.1485	0.1505	386297	keystroke_p	p	n/a
193.584	0.1055	387168	keystroke_i	i	n/a
193.8095	0.074	387619	keystroke_n	n	n/a
193.959	0.195	387918	keystroke_i	i	n/a
194.139	0.1055	388278	keystroke_o	o	n/a
194.229	0.1205	388458	keystroke_n	n	n/a
194.5605	0.014	389121	keystroke_s	s	n/a
194.5895	0.09	389179	keystroke_Key.space	Key.space	n/a
194.7095	0.1055	389419	keystroke_d	d	n/a
194.935	0.105	389870	keystroke_a	a	n/a
195.175	0.1345	390350	keystroke_v	v	n/a
195.295	0.104	390590	keystroke_e	e	n/a
195.444	0.09	390888	keystroke_Key.space	Key.space	n/a
196.0295	0.06	392059	keystroke_b	b	n/a
196.314	0.045	392628	keystroke_u	u	n/a
196.404	0.09	392808	keystroke_d	d	n/a
196.584	0.091	393168	keystroke_g	g	n/a
196.6595	0.1655	393319	keystroke_e	e	n/a
196.795	0.09	393590	keystroke_t	t	n/a
196.9595	0.0895	393919	keystroke_Key.enter	Key.enter	n/a
197.0615	6.426	394123	prompt	n/a	flip activity greg record\n
197.9495	0.0445	395899	keystroke_t	t	n/a
198.264	0.075	396528	keystroke_Key.backspace	Key.backspace	n/a
198.385	0.075	396770	keystroke_f	f	n/a
198.505	0.135	397010	keystroke_l	l	n/a
198.849	0.016	397698	keystroke_i	i	n/a
198.88	0.0895	397760	keystroke_p	p	n/a
199.0445	0.12	398089	keystroke_Key.space	Key.space	n/a
199.2545	0.1505	398509	keystroke_a	a	n/a
199.42	0.09	398840	keystroke_c	c	n/a
199.63	0.075	399260	keystroke_t	t	n/a
199.69	0.09	399380	keystroke_i	i	n/a
199.915	0.09	399830	keystroke_v	v	n/a
199.975	0.06	399950	keystroke_i	i	n/a
200.1545	0.1045	400309	keystroke_t	t	n/a
200.4395	0.06	400879	keystroke_y	y	n/a
201.099	0.0605	402198	keystroke_Key.space	Key.space	n/a
201.535	0.179	403070	keystroke_g	g	n/a
201.6395	0.1195	403279	keystroke_r	r	n/a
201.85	0.12	403700	keystroke_e	e	n/a
202.044	0.091	404088	keystroke_g	g	n/a
202.239	0.1055	404478	keystroke_Key.space	Key.space	n/a
202.57	0.164	405140	keystroke_r	r	n/a
202.6605	0.1035	405321	keystroke_e	e	n/a
202.8695	0.0905	405739	keystroke_c	c	n/a
202.975	0.0745	405950	keystroke_o	o	n/a
203.065	0.0745	406130	keystroke_r	r	n/a
203.2295	0.0745	406459	keystroke_d	d	n/a
203.349	0.135	406698	keystroke_Key.enter	Key.enter	n/a
203.5	8.806	407000	prompt	n/a	straight membership bank introductory\n
204.234	0.1505	408468	keystroke_s	s	n/a
204.369	0.1805	408738	keystroke_t	t	n/a
204.5345	0.255	409069	keystroke_r	r	n/a
204.5645	0.15	409129	keystroke_a	a	n/a
205.0745	0.1045	410149	keystroke_i	i	n/a
205.195	0.0745	410390	keystroke_g	g	n/a
205.3145	0.075	410629	keystroke_h	h	n/a
205.3745	0.09	410749	keystroke_t	t	n/a
205.5095	0.089	411019	keystroke_Key.space	Key.space	n/a
206.0045	0.075	412009	keystroke_m	m	n/a
206.0945	0.06	412189	keystroke_e	e	n/a
206.2595	0.075	412519	keystroke_m	m	n/a
206.4845	0.075	412969	keystroke_b	b	n/a
206.5745	0.135	413149	keystroke_e	e	n/a
206.6645	0.12	413329	keystroke_r	r	n/a
206.9495	0.105	413899	keystroke_s	s	n/a
207.0845	0.105	414169	keystroke_h	h	n/a
207.1895	0.15	414379	keystroke_i	i	n/a
207.3395	0.03	414679	keystroke_p	p	n/a
207.4445	0.09	414889	keystroke_[	[	n/a
207.894	0.09	415788	keystroke_Key.backspace	Key.backspace	n/a
208.224	0.075	416448	keystroke_Key.space	Key.space	n/a
208.675	0.105	417350	keystroke_a	a	n/a
209.034	0.091	418068	keystroke_Key.backspace	Key.backspace	n/a
209.29	0.074	418580	keystroke_b	b	n/a
209.5295	0.105	419059	keystroke_a	a	n/a
209.694	0.09	419388	keystroke_n	n	n/a
209.7995	0.105	419599	keystroke_k	k	n/a
210.0395	0.045	420079	keystroke_Key.space	Key.space	n/a
210.2645	0.135	420529	keystroke_i	i	n/a
210.415	0.0745	420830	keystroke_n	n	n/a
210.624	0.165	421248	keystroke_t	t	n/a
210.759	0.105	421518	keystroke_r	r	n/a
210.94	0.135	421880	keystroke_o	o	n/a
211.2095	0.0905	422419	keystroke_d	d	n/a
211.3595	0.0895	422719	keystroke_u	u	n/a
211.434	0.1055	422868	keystroke_c	c	n/a
211.675	0.089	423350	keystroke_t	t	n/a
211.72	0.104	423440	keystroke_o	o	n/a
211.885	0.089	423770	keystroke_r	r	n/a
212.095	0.06	424190	keystroke_y	y	n/a
212.214	0.09	424428	keystroke_Key.enter	Key.enter	n/a
212.3135	7.7775	424627	prompt	n/a	riders cleveland benjamin awarded\n
213.055	0.0595	426110	keystroke_r	r	n/a
213.1295	0.0905	426259	keystroke_i	i	n/a
213.235	0.089	426470	keystroke_d	d	n/a
213.4145	0.1195	426829	keystroke_e	e	n/a
213.474	0.121	426948	keystroke_r	r	n/a
213.64	0.1045	427280	keystroke_s	s	n/a
213.8045	0.09	427609	keystroke_Key.space	Key.space	n/a
214.0295	0.0755	428059	keystroke_s	s	n/a
214.134	0.075	428268	keystroke_l	l	n/a
214.614	0.0605	429228	keystroke_Key.backspace	Key.backspace	n/a
214.764	0.06	429528	keystroke_Key.backspace	Key.backspace	n/a
214.854	0.09	429708	keystroke_c	c	n/a
214.9885	0.075	429977	keystroke_l	l	n/a
215.0645	0.104	430129	keystroke_e	e	n/a
215.2295	0.0745	430459	keystroke_v	v	n/a
215.4095	0.1195	430819	keystroke_e	e	n/a
215.724	0.0455	431448	keystroke_l	l	n/a
215.7845	0.0895	431569	keystroke_a	a	n/a
215.889	0.105	431778	keystroke_n	n	n/a
216.099	0.015	432198	keystroke_d	d	n/a
216.1295	0.0745	432259	keystroke_Key.space	Key.space	n/a
216.429	0.06	432858	keystroke_b	b	n/a
216.7	0.089	433400	keystroke_e	e	n/a
216.909	0.061	433818	keystroke_n	n	n/a
217.209	0.0445	434418	keystroke_j	j	n/a
217.3145	0.075	434629	keystroke_a	a	n/a
217.4495	0.059	434899	keystroke_m	m	n/a
217.6295	0.12	435259	keystroke_i	i	n/a
217.7345	0.1045	435469	keystroke_n	n	n/a
217.914	0.09	435828	keystroke_Key.space	Key.space	n/a
218.424	0.075	436848	keystroke_a	a	n/a
218.709	0.1205	437418	keystroke_w	w	n/a
218.889	0.1655	437778	keystroke_a	a	n/a
219.069	0.1795	438138	keystroke_r	r	n/a
219.534	0.09	439068	keystroke_d	d	n/a
219.7145	0.0595	439429	keystroke_e	e	n/a
219.864	0.09	439728	keystroke_d	d	n/a
219.999	0.09	439998	keystroke_Key.enter	Key.enter	n/a
220.0975	6.1735	440195	prompt	n/a	analysts charming loss districts\n
220.6595	0.0745	441319	keystroke_a	a	n/a
220.779	0.091	441558	keystroke_n	n	n/a
220.945	0.0735	441890	keystroke_a	a	n/a
221.0645	0.106	442129	keystroke_l	l	n/a
221.305	0.0595	442610	keystroke_y	y	n/a
221.4095	0.149	442819	keystroke_s	s	n/a
221.5145	0.1345	443029	keystroke_t	t	n/a
221.7535	0.106	443507	keystroke_s	s	n/a
221.9635	0.09	443927	keystroke_Key.space	Key.space	n/a
222.2785	0.075	444557	keystroke_c	c	n/a
222.4295	0.075	444859	keystroke_h	h	n/a
222.5495	0.165	445099	keystroke_a	a	n/a
222.669	0.136	445338	keystroke_r	r	n/a
223.0135	0.076	446027	keystroke_m	m	n/a
223.194	0.1655	446388	keystroke_i	i	n/a
223.315	0.119	446630	keystroke_n	n	n/a
223.3745	0.0745	446749	keystroke_g	g	n/a
223.5245	0.06	447049	keystroke_Key.space	Key.space	n/a
223.764	0.121	447528	keystroke_l	l	n/a
223.974	0.09	447948	keystroke_o	o	n/a
224.2595	0.0755	448519	keystroke_s	s	n/a
224.425	0.12	448850	keystroke_s	s	n/a
224.604	0.06	449208	keystroke_Key.space	Key.space	n/a
224.754	0.0745	449508	keystroke_d	d	n/a
224.875	0.06	449750	keystroke_i	i	n/a
225.025	0.18	450050	keystroke_s	s	n/a
225.189	0.181	450378	keystroke_t	t	n/a
225.31	0.12	450620	keystroke_r	r	n/a
225.504	0.091	451008	keystroke_i	i	n/a
225.6995	0.0595	451399	keystroke_c	c	n/a
225.91	0.119	451820	keystroke_t	t	n/a
226.014	0.12	452028	keystroke_s	s	n/a
226.164	0.1055	452328	keystroke_Key.enter	Key.enter	n/a
226.2815	12.2895	452563	prompt	n/a	terry semiconductor convenience vampire\n
226.779	0.075	453558	keystroke_s	s	n/a
227.049	0.09	454098	keystroke_Key.backspace	Key.backspace	n/a
227.124	0.091	454248	keystroke_t	t	n/a
227.244	0.1505	454488	keystroke_e	e	n/a
227.409	0.09	454818	keystroke_r	r	n/a
227.559	0.09	455118	keystroke_r	r	n/a
227.634	0.105	455268	keystroke_y	y	n/a
227.7845	0.075	455569	keystroke_Key.space	Key.space	n/a
227.9945	0.075	455989	keystroke_c	c	n/a
228.2945	0.075	456589	keystroke_Key.backspace	Key.backspace	n/a
228.3845	0.149	456769	keystroke_s	s	n/a
228.4595	0.105	456919	keystroke_e	e	n/a
228.5945	0.09	457189	keystroke_m	m	n/a
228.819	0.09	457638	keystroke_i	i	n/a
229.0895	0.089	458179	keystroke_d	d	n/a
229.539	0.1345	459078	keystroke_o	o	n/a
229.7195	0.0745	459439	keystroke_n	n	n/a
229.959	0.0905	459918	keystroke_c	c	n/a
230.844	0.075	461688	keystroke_Key.backspace	Key.backspace	n/a
230.979	0.09	461958	keystroke_Key.backspace	Key.backspace	n/a
231.174	0.0455	462348	keystroke_Key.backspace	Key.backspace	n/a
231.339	0.0755	462678	keystroke_Key.backspace	Key.backspace	n/a
231.4445	0.1045	462889	keystroke_c	c	n/a
231.609	0.1505	463218	keystroke_o	o	n/a
231.8035	0.121	463607	keystroke_n	n	n/a
232.284	0.075	464568	keystroke_d	d	n/a
232.374	0.075	464748	keystroke_i	i	n/a
232.4935	0.0905	464987	keystroke_c	c	n/a
232.704	0.106	465408	keystroke_t	t	n/a
233.049	0.0455	466098	keystroke_Key.backspace	Key.backspace	n/a
233.169	0.0755	466338	keystroke_Key.backspace	Key.backspace	n/a
233.3185	0.09	466637	keystroke_Key.backspace	Key.backspace	n/a
233.6935	0.045	467387	keystroke_u	u	n/a
233.7685	0.091	467537	keystroke_c	c	n/a
234.0095	0.075	468019	keystroke_t	t	n/a
234.0995	0.12	468199	keystroke_o	o	n/a
234.2045	0.0905	468409	keystroke_r	r	n/a
234.3985	0.135	468797	keystroke_Key.space	Key.space	n/a
234.9255	0.074	469851	keystroke_c	c	n/a
235.0145	0.135	470029	keystroke_o	o	n/a
235.1195	0.105	470239	keystroke_n	n	n/a
235.5395	0.075	471079	keystroke_v	v	n/a
235.6295	0.1055	471259	keystroke_e	e	n/a
235.764	0.09	471528	keystroke_n	n	n/a
235.929	0.106	471858	keystroke_i	i	n/a
236.094	0.09	472188	keystroke_e	e	n/a
236.439	0.045	472878	keystroke_n	n	n/a
236.544	0.15	473088	keystroke_c	c	n/a
236.634	0.1055	473268	keystroke_e	e	n/a
236.919	0.105	473838	keystroke_Key.space	Key.space	n/a
237.4885	0.121	474977	keystroke_v	v	n/a
237.579	0.1045	475158	keystroke_a	a	n/a
237.8335	0.105	475667	keystroke_m	m	n/a
237.9535	0.1505	475907	keystroke_p	p	n/a
238.1495	0.0445	476299	keystroke_i	i	n/a
238.224	0.15	476448	keystroke_r	r	n/a
238.315	0.089	476630	keystroke_e	e	n/a
238.479	0.09	476958	keystroke_Key.enter	Key.enter	n/a
238.5875	10.7235	477175	prompt	n/a	observations lauderdale late floppy\n
239.2895	0.09	478579	keystroke_o	o	n/a
239.4395	0.03	478879	keystroke_v	v	n/a
239.709	0.0905	479418	keystroke_Key.backspace	Key.backspace	n/a
239.8445	0.105	479689	keystroke_b	b	n/a
240.0095	0.1505	480019	keystroke_s	s	n/a
240.0845	0.1945	480169	keystroke_e	e	n/a
240.399	0.105	480798	keystroke_r	r	n/a
240.609	0.135	481218	keystroke_v	v	n/a
240.745	0.164	481490	keystroke_a	a	n/a
240.894	0.09	481788	keystroke_t	t	n/a
240.969	0.2855	481938	keystroke_i	i	n/a
241.119	0.09	482238	keystroke_o	o	n/a
241.179	0.1505	482358	keystroke_n	n	n/a
241.3895	0.09	482779	keystroke_s	s	n/a
241.3895	0.09	482779	keystroke_Key.space	Key.space	n/a
242.064	0.15	484128	keystroke_l	l	n/a
242.199	0.1355	484398	keystroke_a	a	n/a
242.394	0.1195	484788	keystroke_r	r	n/a
243.264	0.09	486528	keystroke_Key.backspace	Key.backspace	n/a
243.474	0.075	486948	keystroke_u	u	n/a
243.5645	0.0755	487129	keystroke_d	d	n/a
243.759	0.15	487518	keystroke_e	e	n/a
243.88	0.134	487760	keystroke_r	r	n/a
244.074	0.12	488148	keystroke_l	l	n/a
244.209	0.106	488418	keystroke_a	a	n/a
244.5685	0.06	489137	keystroke_Key.backspace	Key.backspace	n/a
244.734	0.0595	489468	keystroke_Key.backspace	Key.backspace	n/a
244.8695	0.1805	489739	keystroke_d	d	n/a
244.9885	0.106	489977	keystroke_a	a	n/a
245.0645	0.0595	490129	keystroke_l	l	n/a
245.2295	0.0755	490459	keystroke_e	e	n/a
245.439	0.105	490878	keystroke_Key.space	Key.space	n/a
245.949	0.075	491898	keystroke_l	l	n/a
246.0545	0.15	492109	keystroke_a	a	n/a
246.189	0.135	492378	keystroke_t	t	n/a
246.2795	0.1195	492559	keystroke_e	e	n/a
246.414	0.105	492828	keystroke_Key.space	Key.space	n/a
246.954	0.06	493908	keystroke_f	f	n/a
247.029	0.09	494058	keystroke_o	o	n/a
247.284	0.075	494568	keystroke_l	l	n/a
247.704	0.075	495408	keystroke_Key.backspace	Key.backspace	n/a
247.959	0.0745	495918	keystroke_Key.backspace	Key.backspace	n/a
248.2745	0.1205	496549	keystroke_l	l	n/a
248.5435	0.135	497087	keystroke_o	o	n/a
248.799	0.061	497598	keystroke_p	p	n/a
248.934	0.06	497868	keystroke_p	p	n/a
249.069	0.0895	498138	keystroke_y	y	n/a
249.2035	0.105	498407	keystroke_Key.enter	Key.enter	n/a
249.3295	5.9815	498659	prompt	n/a	efforts predicted cardiac what\n
250.15	0.1345	500300	keystroke_e	e	n/a
250.299	0.091	500598	keystroke_f	f	n/a
250.464	0.105	500928	keystroke_f	f	n/a
250.615	0.09	501230	keystroke_o	o	n/a
250.69	0.0895	501380	keystroke_r	r	n/a
250.8685	0.09	501737	keystroke_t	t	n/a
250.9435	0.136	501887	keystroke_s	s	n/a
251.0645	0.09	502129	keystroke_Key.space	Key.space	n/a
251.3345	0.09	502669	keystroke_p	p	n/a
251.4395	0.1345	502879	keystroke_r	r	n/a
251.5285	0.136	503057	keystroke_e	e	n/a
251.7845	0.074	503569	keystroke_d	d	n/a
251.9035	0.09	503807	keystroke_i	i	n/a
252.219	0.105	504438	keystroke_c	c	n/a
252.4745	0.1195	504949	keystroke_t	t	n/a
252.564	0.105	505128	keystroke_e	e	n/a
252.7745	0.105	505549	keystroke_d	d	n/a
252.9385	0.0755	505877	keystroke_Key.space	Key.space	n/a
253.224	0.1195	506448	keystroke_c	c	n/a
253.3585	0.1805	506717	keystroke_a	a	n/a
253.464	0.105	506928	keystroke_r	r	n/a
253.659	0.135	507318	keystroke_d	d	n/a
253.734	0.075	507468	keystroke_i	i	n/a
253.915	0.225	507830	keystroke_a	a	n/a
254.05	0.269	508100	keystroke_c	c	n/a
254.424	0.075	508848	keystroke_Key.space	Key.space	n/a
254.844	0.135	509688	keystroke_w	w	n/a
254.9645	0.1045	509929	keystroke_h	h	n/a
255.054	0.1355	510108	keystroke_a	a	n/a
255.114	0.1205	510228	keystroke_t	t	n/a
255.2045	0.105	510409	keystroke_Key.enter	Key.enter	n/a
255.3165	7.329	510633	prompt	n/a	widescreen cache music resolve\n
255.955	0.1635	511910	keystroke_w	w	n/a
256.315	0.074	512630	keystroke_i	i	n/a
256.419	0.0905	512838	keystroke_d	d	n/a
256.629	0.075	513258	keystroke_e	e	n/a
257.424	0.195	514848	keystroke_s	s	n/a
257.829	0.105	515658	keystroke_c	c	n/a
258.0685	0.076	516137	keystroke_r	r	n/a
258.2485	0.076	516497	keystroke_e	e	n/a
258.4135	0.075	516827	keystroke_e	e	n/a
258.534	0.0895	517068	keystroke_n	n	n/a
258.6985	0.1055	517397	keystroke_Key.space	Key.space	n/a
259.089	0.105	518178	keystroke_c	c	n/a
259.179	0.15	518358	keystroke_a	a	n/a
259.3595	0.104	518719	keystroke_c	c	n/a
259.449	0.09	518898	keystroke_h	h	n/a
259.5835	0.091	519167	keystroke_e	e	n/a
259.6285	0.09	519257	keystroke_Key.space	Key.space	n/a
260.1985	0.09	520397	keystroke_m	m	n/a
260.4985	0.105	520997	keystroke_u	u	n/a
260.7085	0.075	521417	keystroke_s	s	n/a
260.7985	0.075	521597	keystroke_i	i	n/a
261.0985	0.105	522197	keystroke_c	c	n/a
261.309	0.0905	522618	keystroke_Key.space	Key.space	n/a
261.5935	0.121	523187	keystroke_r	r	n/a
261.6835	0.136	523367	keystroke_e	e	n/a
261.9835	0.0755	523967	keystroke_s	s	n/a
262.0895	0.074	524179	keystroke_o	o	n/a
262.2695	0.104	524539	keystroke_l	l	n/a
262.3145	0.119	524629	keystroke_v	v	n/a
262.4185	0.12	524837	keystroke_e	e	n/a
262.5535	0.09	525107	keystroke_Key.enter	Key.enter	n/a
262.652	5.4685	525304	prompt	n/a	pregnant and reviews visual\n
263.319	0.075	526638	keystroke_p	p	n/a
263.409	0.135	526818	keystroke_r	r	n/a
263.4995	0.1045	526999	keystroke_e	e	n/a
263.648	0.076	527296	keystroke_o	o	n/a
263.979	0.09	527958	keystroke_Key.backspace	Key.backspace	n/a
264.159	0.06	528318	keystroke_g	g	n/a
264.3845	0.045	528769	keystroke_n	n	n/a
264.4745	0.12	528949	keystroke_a	a	n/a
264.5795	0.089	529159	keystroke_n	n	n/a
264.6985	0.105	529397	keystroke_t	t	n/a
264.8785	0.075	529757	keystroke_Key.space	Key.space	n/a
265.165	0.1195	530330	keystroke_a	a	n/a
265.2995	0.075	530599	keystroke_n	n	n/a
265.3745	0.0895	530749	keystroke_d	d	n/a
265.493	0.075	530986	keystroke_Key.space	Key.space	n/a
265.6295	0.135	531259	keystroke_r	r	n/a
265.7335	0.1045	531467	keystroke_e	e	n/a
265.9445	0.0895	531889	keystroke_v	v	n/a
266.064	0.0305	532128	keystroke_i	i	n/a
266.1845	0.1645	532369	keystroke_e	e	n/a
266.334	0.0755	532668	keystroke_w	w	n/a
266.5285	0.06	533057	keystroke_s	s	n/a
266.6935	0.0745	533387	keystroke_Key.space	Key.space	n/a
267.324	0.059	534648	keystroke_v	v	n/a
267.399	0.075	534798	keystroke_i	i	n/a
267.504	0.105	535008	keystroke_s	s	n/a
267.624	0.045	535248	keystroke_u	u	n/a
267.729	0.09	535458	keystroke_a	a	n/a
267.789	0.119	535578	keystroke_l	l	n/a
268.043	0.0755	536086	keystroke_Key.enter	Key.enter	n/a
268.1255	6.775	536251	prompt	n/a	pump no accomplish sara\n
268.8085	0.1355	537617	keystroke_p	p	n/a
269.214	0.0745	538428	keystroke_u	u	n/a
269.5135	0.105	539027	keystroke_m	m	n/a
269.6635	0.0905	539327	keystroke_p	p	n/a
269.874	0.09	539748	keystroke_Key.space	Key.space	n/a
270.024	0.09	540048	keystroke_t	t	n/a
270.399	0.0755	540798	keystroke_Key.backspace	Key.backspace	n/a
270.624	0.1195	541248	keystroke_n	n	n/a
270.8035	0.135	541607	keystroke_o	o	n/a
271.0135	0.12	542027	keystroke_Key.space	Key.space	n/a
271.3885	0.0905	542777	keystroke_s	s	n/a
271.764	0.0745	543528	keystroke_Key.backspace	Key.backspace	n/a
271.8685	0.1045	543737	keystroke_a	a	n/a
271.9585	0.1055	543917	keystroke_c	c	n/a
272.139	0.09	544278	keystroke_c	c	n/a
272.259	0.0905	544518	keystroke_o	o	n/a
272.529	0.0445	545058	keystroke_m	m	n/a
272.7395	0.0895	545479	keystroke_p	p	n/a
272.9345	0.12	545869	keystroke_l	l	n/a
273.129	0.075	546258	keystroke_i	i	n/a
273.3085	0.09	546617	keystroke_s	s	n/a
273.4135	0.091	546827	keystroke_h	h	n/a
274.1035	0.061	548207	keystroke_Key.space	Key.space	n/a
274.2245	0.1495	548449	keystroke_s	s	n/a
274.389	0.1505	548778	keystroke_a	a	n/a
274.4945	0.134	548989	keystroke_r	r	n/a
274.6745	0.1345	549349	keystroke_a	a	n/a
274.824	0.075	549648	keystroke_Key.enter	Key.enter	n/a
274.9075	5.783	549815	prompt	n/a	foot finishing spotlight guam\n
275.799	0.076	551598	keystroke_f	f	n/a
275.889	0.03	551778	keystroke_o	o	n/a
276.024	0.09	552048	keystroke_o	o	n/a
276.159	0.045	552318	keystroke_t	t	n/a
276.264	0.105	552528	keystroke_Key.space	Key.space	n/a
276.519	0.045	553038	keystroke_f	f	n/a
276.698	0.121	553396	keystroke_i	i	n/a
276.8345	0.09	553669	keystroke_n	n	n/a
277.014	0.119	554028	keystroke_i	i	n/a
277.209	0.09	554418	keystroke_s	s	n/a
277.2995	0.1045	554599	keystroke_h	h	n/a
277.464	0.135	554928	keystroke_i	i	n/a
277.5685	0.135	555137	keystroke_n	n	n/a
277.6885	0.0905	555377	keystroke_g	g	n/a
277.809	0.09	555618	keystroke_Key.space	Key.space	n/a
277.959	0.09	555918	keystroke_s	s	n/a
278.094	0.09	556188	keystroke_p	p	n/a
278.319	0.105	556638	keystroke_o	o	n/a
278.484	0.09	556968	keystroke_t	t	n/a
278.754	0.075	557508	keystroke_l	l	n/a
278.904	0.1045	557808	keystroke_i	i	n/a
278.9785	0.076	557957	keystroke_g	g	n/a
279.0995	0.104	558199	keystroke_h	h	n/a
279.1885	0.075	558377	keystroke_t	t	n/a
279.293	0.121	558586	keystroke_Key.space	Key.space	n/a
280.1185	0.09	560237	keystroke_g	g	n/a
280.2085	0.061	560417	keystroke_u	u	n/a
280.3135	0.105	560627	keystroke_a	a	n/a
280.4485	0.076	560897	keystroke_m	m	n/a
280.584	0.105	561168	keystroke_Key.enter	Key.enter	n/a
280.707	8.1285	561414	prompt	n/a	residential math downloads physician\n
281.469	0.21	562938	keystroke_r	r	n/a
281.634	0.15	563268	keystroke_e	e	n/a
281.799	0.12	563598	keystroke_s	s	n/a
281.994	0.1045	563988	keystroke_i	i	n/a
282.4435	0.0155	564887	keystroke_d	d	n/a
282.5785	0.105	565157	keystroke_e	e	n/a
282.6685	0.09	565337	keystroke_n	n	n/a
282.834	0.1045	565668	keystroke_t	t	n/a
282.9535	0.075	565907	keystroke_i	i	n/a
283.089	0.075	566178	keystroke_a	a	n/a
283.3435	0.1055	566687	keystroke_l	l	n/a
283.539	0.059	567078	keystroke_Key.space	Key.space	n/a
283.7345	0.0895	567469	keystroke_m	m	n/a
283.839	0.1055	567678	keystroke_a	a	n/a
283.9285	0.0905	567857	keystroke_t	t	n/a
284.034	0.075	568068	keystroke_h	h	n/a
284.154	0.0895	568308	keystroke_Key.space	Key.space	n/a
284.499	0.135	568998	keystroke_d	d	n/a
284.6495	0.0895	569299	keystroke_o	o	n/a
284.769	0.12	569538	keystroke_w	w	n/a
284.919	0.06	569838	keystroke_n	n	n/a
285.0695	0.1045	570139	keystroke_l	l	n/a
285.189	0.1055	570378	keystroke_a	a	n/a
285.774	0.075	571548	keystroke_Key.backspace	Key.backspace	n/a
286.014	0.105	572028	keystroke_o	o	n/a
286.104	0.12	572208	keystroke_a	a	n/a
286.329	0.195	572658	keystroke_d	d	n/a
286.434	0.165	572868	keystroke_s	s	n/a
286.614	0.075	573228	keystroke_Key.space	Key.space	n/a
287.019	0.075	574038	keystroke_p	p	n/a
287.199	0.0605	574398	keystroke_h	h	n/a
287.3645	0.06	574729	keystroke_y	y	n/a
287.5285	0.0905	575057	keystroke_s	s	n/a
287.649	0.09	575298	keystroke_i	i	n/a
287.784	0.0905	575568	keystroke_c	c	n/a
287.9345	0.0595	575869	keystroke_i	i	n/a
288.444	0.09	576888	keystroke_a	a	n/a
288.594	0.03	577188	keystroke_n	n	n/a
288.744	0.09	577488	keystroke_Key.enter	Key.enter	n/a
288.84	7.3005	577680	prompt	n/a	warnings language weed beginners\n
289.6145	0.1495	579229	keystroke_w	w	n/a
289.689	0.15	579378	keystroke_a	a	n/a
289.794	0.12	579588	keystroke_r	r	n/a
289.974	0.09	579948	keystroke_n	n	n/a
290.094	0.1805	580188	keystroke_i	i	n/a
290.229	0.1045	580458	keystroke_n	n	n/a
290.3185	0.105	580637	keystroke_g	g	n/a
290.439	0.1195	580878	keystroke_s	s	n/a
290.5585	0.09	581117	keystroke_Key.space	Key.space	n/a
290.7545	0.0745	581509	keystroke_l	l	n/a
290.7985	0.076	581597	keystroke_a	a	n/a
290.9345	0.0895	581869	keystroke_n	n	n/a
291.264	0.075	582528	keystroke_g	g	n/a
291.76	0.059	583520	keystroke_u	u	n/a
291.834	0.15	583668	keystroke_a	a	n/a
291.924	0.165	583848	keystroke_g	g	n/a
292.0445	0.119	584089	keystroke_e	e	n/a
292.2085	0.09	584417	keystroke_Key.space	Key.space	n/a
292.6895	0.105	585379	keystroke_w	w	n/a
292.825	0.1045	585650	keystroke_e	e	n/a
293.0335	0.0905	586067	keystroke_e	e	n/a
293.214	0.165	586428	keystroke_d	d	n/a
293.334	0.09	586668	keystroke_Key.space	Key.space	n/a
293.559	0.06	587118	keystroke_b	b	n/a
293.664	0.045	587328	keystroke_e	e	n/a
294.0095	0.0895	588019	keystroke_g	g	n/a
294.264	0.045	588528	keystroke_n	n	n/a
294.429	0.075	588858	keystroke_i	i	n/a
294.714	0.075	589428	keystroke_Key.backspace	Key.backspace	n/a
294.849	0.09	589698	keystroke_Key.backspace	Key.backspace	n/a
295.0745	0.119	590149	keystroke_i	i	n/a
295.2395	0.0895	590479	keystroke_n	n	n/a
295.495	0.014	590990	keystroke_n	n	n/a
295.644	0.15	591288	keystroke_e	e	n/a
295.749	0.1355	591498	keystroke_r	r	n/a
295.899	0.12	591798	keystroke_s	s	n/a
296.0345	0.1035	592069	keystroke_Key.enter	Key.enter	n/a
296.1445	10.932	592289	prompt	n/a	verified islands downloadable copyright\n
297.2335	0.075	594467	keystroke_v	v	n/a
297.3245	0.1345	594649	keystroke_e	e	n/a
297.3995	0.119	594799	keystroke_r	r	n/a
297.5195	0.074	595039	keystroke_i	i	n/a
297.6385	0.105	595277	keystroke_f	f	n/a
297.7445	0.06	595489	keystroke_i	i	n/a
297.8485	0.09	595697	keystroke_e	e	n/a
298.029	0.0895	596058	keystroke_d	d	n/a
298.1335	0.091	596267	keystroke_Key.space	Key.space	n/a
298.3745	0.06	596749	keystroke_i	i	n/a
298.479	0.105	596958	keystroke_s	s	n/a
298.5995	0.089	597199	keystroke_l	l	n/a
298.7035	0.076	597407	keystroke_a	a	n/a
298.7945	0.059	597589	keystroke_n	n	n/a
298.899	0.09	597798	keystroke_d	d	n/a
299.0035	0.135	598007	keystroke_s	s	n/a
299.199	0.105	598398	keystroke_Key.space	Key.space	n/a
299.514	0.1205	599028	keystroke_d	d	n/a
299.6935	0.1355	599387	keystroke_o	o	n/a
299.814	0.0895	599628	keystroke_w	w	n/a
299.9485	0.06	599897	keystroke_n	n	n/a
300.8185	0.1055	601637	keystroke_l	l	n/a
300.8935	0.105	601787	keystroke_a	a	n/a
301.5985	0.09	603197	keystroke_Key.backspace	Key.backspace	n/a
301.869	0.12	603738	keystroke_o	o	n/a
302.034	0.135	604068	keystroke_a	a	n/a
302.154	0.105	604308	keystroke_d	d	n/a
302.409	0.1645	604818	keystroke_a	a	n/a
302.5285	0.12	605057	keystroke_b	b	n/a
302.6335	0.165	605267	keystroke_l	l	n/a
302.7535	0.0755	605507	keystroke_e	e	n/a
302.874	0.1195	605748	keystroke_Key.space	Key.space	n/a
303.4135	0.106	606827	keystroke_c	c	n/a
303.5345	0.1045	607069	keystroke_o	o	n/a
303.7285	0.075	607457	keystroke_p	p	n/a
304.0435	0.045	608087	keystroke_t	t	n/a
304.419	0.06	608838	keystroke_Key.backspace	Key.backspace	n/a
304.494	0.105	608988	keystroke_y	y	n/a
304.764	0.075	609528	keystroke_r	r	n/a
304.9135	0.105	609827	keystroke_u	u	n/a
305.0335	0.1055	610067	keystroke_g	g	n/a
305.2135	0.0605	610427	keystroke_h	h	n/a
305.319	0.105	610638	keystroke_t	t	n/a
305.529	0.06	611058	keystroke_Key.backspace	Key.backspace	n/a
305.694	0.0445	611388	keystroke_Key.backspace	Key.backspace	n/a
305.843	0.031	611686	keystroke_Key.backspace	Key.backspace	n/a
306.264	0.075	612528	keystroke_Key.backspace	Key.backspace	n/a
306.5645	0.0595	613129	keystroke_i	i	n/a
306.669	0.045	613338	keystroke_g	g	n/a
306.759	0.1045	613518	keystroke_h	h	n/a
306.834	0.09	613668	keystroke_t	t	n/a
306.954	0.1195	613908	keystroke_Key.enter	Key.enter	n/a
307.0935	8.475	614187	prompt	n/a	revolution mills tide differences\n
307.764	0.135	615528	keystroke_r	r	n/a
307.854	0.1205	615708	keystroke_e	e	n/a
308.109	0.06	616218	keystroke_v	v	n/a
308.139	0.075	616278	keystroke_o	o	n/a
308.3345	0.0745	616669	keystroke_l	l	n/a
308.484	0.075	616968	keystroke_u	u	n/a
308.544	0.075	617088	keystroke_t	t	n/a
308.679	0.15	617358	keystroke_u	u	n/a
308.784	0.2545	617568	keystroke_i	i	n/a
308.9495	0.18	617899	keystroke_o	o	n/a
309.1145	0.105	618229	keystroke_n	n	n/a
309.339	0.09	618678	keystroke_Key.space	Key.space	n/a
309.564	0.059	619128	keystroke_Key.backspace	Key.backspace	n/a
309.7295	0.0435	619459	keystroke_Key.backspace	Key.backspace	n/a
309.8785	0.061	619757	keystroke_Key.backspace	Key.backspace	n/a
310.029	0.06	620058	keystroke_Key.backspace	Key.backspace	n/a
310.208	0.0765	620416	keystroke_Key.backspace	Key.backspace	n/a
310.494	0.285	620988	keystroke_i	i	n/a
310.6445	0.1645	621289	keystroke_o	o	n/a
310.794	0.074	621588	keystroke_n	n	n/a
310.944	0.089	621888	keystroke_Key.space	Key.space	n/a
311.6335	0.106	623267	keystroke_m	m	n/a
312.024	0.0605	624048	keystroke_i	i	n/a
312.1745	0.074	624349	keystroke_l	l	n/a
312.3385	0.061	624677	keystroke_l	l	n/a
312.4295	0.0895	624859	keystroke_s	s	n/a
312.5935	0.09	625187	keystroke_Key.space	Key.space	n/a
312.744	0.0895	625488	keystroke_t	t	n/a
312.8345	0.089	625669	keystroke_i	i	n/a
312.9545	0.089	625909	keystroke_d	d	n/a
313.1335	0.0895	626267	keystroke_e	e	n/a
313.269	0.104	626538	keystroke_Key.space	Key.space	n/a
313.644	0.0745	627288	keystroke_d	d	n/a
313.7785	0.0905	627557	keystroke_i	i	n/a
313.899	0.09	627798	keystroke_r	r	n/a
314.259	0.075	628518	keystroke_Key.backspace	Key.backspace	n/a
314.3635	0.061	628727	keystroke_f	f	n/a
314.5	0.119	629000	keystroke_f	f	n/a
314.664	0.12	629328	keystroke_e	e	n/a
314.754	0.1205	629508	keystroke_r	r	n/a
314.919	0.104	629838	keystroke_e	e	n/a
314.979	0.134	629958	keystroke_n	n	n/a
315.129	0.18	630258	keystroke_c	c	n/a
315.278	0.121	630556	keystroke_e	e	n/a
315.413	0.151	630826	keystroke_Key.enter	Key.enter	n/a
315.593	9.501	631186	prompt	n/a	estonia nickname opinion kurt\n
316.418	0.0765	632836	keystroke_w	w	n/a
316.824	0.0605	633648	keystroke_Key.backspace	Key.backspace	n/a
316.8855	0.179	633771	keystroke_e	e	n/a
316.988	0.1515	633976	keystroke_s	s	n/a
317.1095	0.135	634219	keystroke_t	t	n/a
317.2585	0.105	634517	keystroke_o	o	n/a
317.3785	0.0905	634757	keystroke_n	n	n/a
317.529	0.06	635058	keystroke_i	i	n/a
317.604	0.075	635208	keystroke_a	a	n/a
317.829	0.09	635658	keystroke_Key.space	Key.space	n/a
318.114	0.075	636228	keystroke_n	n	n/a
318.234	0.0755	636468	keystroke_i	i	n/a
318.339	0.0905	636678	keystroke_c	c	n/a
318.654	0.06	637308	keystroke_k	k	n/a
319.059	0.12	638118	keystroke_Key.backspace	Key.backspace	n/a
320.1835	0.0905	640367	keystroke_k	k	n/a
320.439	0.06	640878	keystroke_n	n	n/a
320.574	0.105	641148	keystroke_a	a	n/a
320.799	0.089	641598	keystroke_m	m	n/a
320.994	0.09	641988	keystroke_e	e	n/a
321.159	0.105	642318	keystroke_Key.space	Key.space	n/a
321.669	0.15	643338	keystroke_o	o	n/a
321.834	0.12	643668	keystroke_p	p	n/a
322.299	0.12	644598	keystroke_i	i	n/a
322.524	0.12	645048	keystroke_n	n	n/a
322.659	0.2695	645318	keystroke_i	i	n/a
322.794	0.1355	645588	keystroke_o	o	n/a
322.914	0.1495	645828	keystroke_n	n	n/a
323.109	0.09	646218	keystroke_Key.space	Key.space	n/a
323.574	0.06	647148	keystroke_j	j	n/a
324.174	0.0745	648348	keystroke_Key.backspace	Key.backspace	n/a
324.399	0.06	648798	keystroke_k	k	n/a
324.639	0.06	649278	keystroke_u	u	n/a
324.729	0.076	649458	keystroke_r	r	n/a
324.895	0.089	649790	keystroke_t	t	n/a
324.999	0.09	649998	keystroke_Key.enter	Key.enter	n/a
325.1285	8.5575	650257	prompt	n/a	qualifying xhtml shares chicken\n
325.929	0.0755	651858	keystroke_q	q	n/a
326.094	0.0605	652188	keystroke_u	u	n/a
326.229	0.12	652458	keystroke_a	a	n/a
326.559	0.0595	653118	keystroke_l	l	n/a
326.6785	0.091	653357	keystroke_i	i	n/a
326.8435	0.09	653687	keystroke_g	g	n/a
327.2935	0.06	654587	keystroke_Key.backspace	Key.backspace	n/a
327.444	0.075	654888	keystroke_f	f	n/a
327.5335	0.075	655067	keystroke_y	y	n/a
327.6685	0.135	655337	keystroke_i	i	n/a
327.8335	0.121	655667	keystroke_n	n	n/a
327.9685	0.045	655937	keystroke_g	g	n/a
328.0735	0.105	656147	keystroke_Key.space	Key.space	n/a
329.274	0.1195	658548	keystroke_x	x	n/a
329.4535	0.105	658907	keystroke_h	h	n/a
329.6495	0.104	659299	keystroke_t	t	n/a
329.9185	0.0905	659837	keystroke_m	m	n/a
330.1295	0.104	660259	keystroke_l	l	n/a
330.384	0.0895	660768	keystroke_Key.space	Key.space	n/a
330.608	0.091	661216	keystroke_s	s	n/a
330.728	0.061	661456	keystroke_h	h	n/a
330.819	0.119	661638	keystroke_a	a	n/a
330.9235	0.1505	661847	keystroke_r	r	n/a
330.998	0.15	661996	keystroke_e	e	n/a
331.134	0.1495	662268	keystroke_s	s	n/a
331.2985	0.1355	662597	keystroke_Key.space	Key.space	n/a
331.569	0.075	663138	keystroke_c	c	n/a
331.629	0.09	663258	keystroke_h	h	n/a
331.749	0.12	663498	keystroke_i	i	n/a
331.839	0.075	663678	keystroke_c	c	n/a
332.2295	0.0895	664459	keystroke_h	h	n/a
332.7235	0.0745	665447	keystroke_Key.backspace	Key.backspace	n/a
333.129	0.12	666258	keystroke_k	k	n/a
333.234	0.09	666468	keystroke_e	e	n/a
333.384	0.075	666768	keystroke_n	n	n/a
333.609	0.075	667218	keystroke_Key.enter	Key.enter	n/a
333.702	7.9785	667404	prompt	n/a	chevrolet comm berry badly\n
334.6435	0.09	669287	keystroke_c	c	n/a
334.7485	0.0905	669497	keystroke_h	h	n/a
334.884	0.105	669768	keystroke_e	e	n/a
336.2635	0.06	672527	keystroke_v	v	n/a
337.494	0.0905	674988	keystroke_r	r	n/a
337.569	0.0745	675138	keystroke_o	o	n/a
337.749	0.089	675498	keystroke_l	l	n/a
337.823	0.136	675646	keystroke_e	e	n/a
337.8985	0.1195	675797	keystroke_t	t	n/a
338.063	0.12	676126	keystroke_Key.space	Key.space	n/a
338.6485	0.0905	677297	keystroke_c	c	n/a
338.6935	0.0905	677387	keystroke_o	o	n/a
338.904	0.075	677808	keystroke_m	m	n/a
339.084	0.0605	678168	keystroke_m	m	n/a
339.324	0.045	678648	keystroke_Key.space	Key.space	n/a
339.579	0.045	679158	keystroke_b	b	n/a
339.639	0.12	679278	keystroke_e	e	n/a
339.714	0.09	679428	keystroke_r	r	n/a
339.879	0.105	679758	keystroke_r	r	n/a
339.999	0.09	679998	keystroke_y	y	n/a
340.104	0.135	680208	keystroke_Key.space	Key.space	n/a
340.734	0.09	681468	keystroke_b	b	n/a
340.839	0.105	681678	keystroke_o	o	n/a
340.958	0.0755	681916	keystroke_d	d	n/a
341.3485	0.12	682697	keystroke_l	l	n/a
341.4835	0.0905	682967	keystroke_y	y	n/a
341.6035	0.0755	683207	keystroke_Key.enter	Key.enter	n/a
341.685	9.3715	683370	prompt	n/a	stomach younger pathology earthquake\n
343.179	0.12	686358	keystroke_s	s	n/a
343.2685	0.1805	686537	keystroke_t	t	n/a
343.314	0.1195	686628	keystroke_o	o	n/a
343.5385	0.135	687077	keystroke_m	m	n/a
343.659	0.1345	687318	keystroke_a	a	n/a
343.8235	0.09	687647	keystroke_c	c	n/a
343.8985	0.105	687797	keystroke_h	h	n/a
344.1385	0.075	688277	keystroke_Key.space	Key.space	n/a
344.769	0.0745	689538	keystroke_y	y	n/a
344.8745	0.12	689749	keystroke_o	o	n/a
344.9635	0.105	689927	keystroke_u	u	n/a
345.249	0.0755	690498	keystroke_n	n	n/a
345.3385	0.1205	690677	keystroke_g	g	n/a
345.4735	0.195	690947	keystroke_e	e	n/a
345.5785	0.105	691157	keystroke_r	r	n/a
345.7585	0.09	691517	keystroke_Key.space	Key.space	n/a
346.1035	0.0755	692207	keystroke_p	p	n/a
346.284	0.12	692568	keystroke_a	a	n/a
346.419	0.09	692838	keystroke_r	r	n/a
346.734	0.0745	693468	keystroke_Key.backspace	Key.backspace	n/a
346.869	0.0745	693738	keystroke_t	t	n/a
346.9885	0.09	693977	keystroke_h	h	n/a
347.1685	0.1055	694337	keystroke_o	o	n/a
347.364	0.0895	694728	keystroke_l	l	n/a
347.5585	0.09	695117	keystroke_o	o	n/a
347.664	0.0745	695328	keystroke_g	g	n/a
347.7835	0.075	695567	keystroke_y	y	n/a
347.9185	0.1055	695837	keystroke_Key.space	Key.space	n/a
348.714	0.149	697428	keystroke_e	e	n/a
348.848	0.151	697696	keystroke_a	a	n/a
349.0145	0.1185	698029	keystroke_r	r	n/a
349.1935	0.12	698387	keystroke_t	t	n/a
349.3145	0.09	698629	keystroke_h	h	n/a
349.674	0.045	699348	keystroke_w	w	n/a
350.019	0.075	700038	keystroke_Key.backspace	Key.backspace	n/a
350.304	0.12	700608	keystroke_q	q	n/a
350.469	0.0755	700938	keystroke_u	u	n/a
350.649	0.075	701298	keystroke_a	a	n/a
350.724	0.09	701448	keystroke_k	k	n/a
350.859	0.075	701718	keystroke_e	e	n/a
350.979	0.075	701958	keystroke_Key.enter	Key.enter	n/a
351.0675	10.384	702135	prompt	n/a	litigation users isn't pubmed\n
351.97	0.119	703940	keystroke_l	l	n/a
352.134	0.06	704268	keystroke_i	i	n/a
352.239	0.0905	704478	keystroke_t	t	n/a
352.388	0.061	704776	keystroke_i	i	n/a
352.584	0.074	705168	keystroke_g	g	n/a
352.7335	0.1345	705467	keystroke_a	a	n/a
352.824	0.12	705648	keystroke_t	t	n/a
352.929	0.2555	705858	keystroke_i	i	n/a
353.019	0.1195	706038	keystroke_o	o	n/a
353.1535	0.1055	706307	keystroke_n	n	n/a
353.348	0.076	706696	keystroke_Key.space	Key.space	n/a
353.619	0.06	707238	keystroke_i	i	n/a
353.754	0.075	707508	keystroke_s	s	n/a
354.009	0.059	708018	keystroke_Key.backspace	Key.backspace	n/a
354.159	0.0745	708318	keystroke_Key.backspace	Key.backspace	n/a
354.2635	0.076	708527	keystroke_u	u	n/a
354.384	0.211	708768	keystroke_s	s	n/a
354.549	0.195	709098	keystroke_e	e	n/a
354.699	0.15	709398	keystroke_r	r	n/a
354.9395	0.1495	709879	keystroke_s	s	n/a
355.104	0.06	710208	keystroke_Key.space	Key.space	n/a
355.539	0.045	711078	keystroke_i	i	n/a
355.614	0.104	711228	keystroke_s	s	n/a
355.793	0.06	711586	keystroke_n	n	n/a
355.9585	0.075	711917	keystroke_t	t	n/a
356.079	0.0595	712158	keystroke_'	'	n/a
356.3935	0.075	712787	keystroke_Key.backspace	Key.backspace	n/a
356.5445	0.0745	713089	keystroke_Key.backspace	Key.backspace	n/a
356.829	0.015	713658	keystroke_'	'	n/a
356.889	0.045	713778	keystroke_t	t	n/a
357.743	0.136	715486	keystroke_Key.space	Key.space	n/a
358.809	0.21	717618	keystroke_p	p	n/a
359.034	0.0755	718068	keystroke_u	u	n/a
359.364	0.045	718728	keystroke_b	b	n/a
359.9635	0.1205	719927	keystroke_m	m	n/a
360.085	0.0745	720170	keystroke_e	e	n/a
360.2795	0.0895	720559	keystroke_d	d	n/a
360.414	0.12	720828	keystroke_'	'	n/a
361.164	0.0595	722328	keystroke_Key.backspace	Key.backspace	n/a
361.3285	0.1205	722657	keystroke_Key.enter	Key.enter	n/a
361.467	6.913	722934	prompt	n/a	incidents stanley persons goat\n
362.334	0.074	724668	keystroke_i	i	n/a
362.469	0.0755	724938	keystroke_n	n	n/a
362.574	0.12	725148	keystroke_c	c	n/a
362.709	0.06	725418	keystroke_i	i	n/a
362.874	0.09	725748	keystroke_d	d	n/a
363.129	0.1195	726258	keystroke_e	e	n/a
363.2335	0.0455	726467	keystroke_n	n	n/a
363.2935	0.15	726587	keystroke_t	t	n/a
363.414	0.1645	726828	keystroke_s	s	n/a
363.5485	0.0905	727097	keystroke_Key.space	Key.space	n/a
363.7595	0.135	727519	keystroke_s	s	n/a
363.8645	0.1495	727729	keystroke_t	t	n/a
363.9985	0.121	727997	keystroke_a	a	n/a
364.1335	0.091	728267	keystroke_n	n	n/a
364.7945	0.0895	729589	keystroke_l	l	n/a
365.004	0.165	730008	keystroke_e	e	n/a
365.094	0.105	730188	keystroke_y	y	n/a
365.3185	0.09	730637	keystroke_Key.space	Key.space	n/a
365.889	0.105	731778	keystroke_p	p	n/a
366.025	0.119	732050	keystroke_e	e	n/a
366.099	0.12	732198	keystroke_r	r	n/a
366.264	0.12	732528	keystroke_s	s	n/a
366.3845	0.164	732769	keystroke_o	o	n/a
366.504	0.105	733008	keystroke_n	n	n/a
366.638	0.0915	733276	keystroke_s	s	n/a
366.744	0.105	733488	keystroke_Key.space	Key.space	n/a
367.9285	0.076	735857	keystroke_g	g	n/a
367.9895	0.1045	735979	keystroke_o	o	n/a
368.0645	0.149	736129	keystroke_a	a	n/a
368.2145	0.0735	736429	keystroke_t	t	n/a
368.274	0.104	736548	keystroke_Key.enter	Key.enter	n/a
368.384	7.871	736768	prompt	n/a	adequate storage desk fellowship\n
369.549	0.149	739098	keystroke_a	a	n/a
369.6835	0.0755	739367	keystroke_d	d	n/a
369.864	0.15	739728	keystroke_e	e	n/a
370.029	0.135	740058	keystroke_q	q	n/a
370.1195	0.075	740239	keystroke_u	u	n/a
370.374	0.15	740748	keystroke_a	a	n/a
370.479	0.1805	740958	keystroke_t	t	n/a
370.5985	0.1055	741197	keystroke_e	e	n/a
370.824	0.0895	741648	keystroke_Key.space	Key.space	n/a
371.1245	0.12	742249	keystroke_s	s	n/a
371.2145	0.119	742429	keystroke_t	t	n/a
371.3485	0.1055	742697	keystroke_o	o	n/a
371.4985	0.0905	742997	keystroke_g	g	n/a
371.604	0.135	743208	keystroke_e	e	n/a
371.919	0.06	743838	keystroke_Key.backspace	Key.backspace	n/a
372.053	0.09	744106	keystroke_Key.backspace	Key.backspace	n/a
372.113	0.106	744226	keystroke_r	r	n/a
372.234	0.165	744468	keystroke_a	a	n/a
372.339	0.1795	744678	keystroke_g	g	n/a
372.444	0.1345	744888	keystroke_e	e	n/a
372.804	0.09	745608	keystroke_Key.space	Key.space	n/a
373.104	0.0745	746208	keystroke_d	d	n/a
373.284	0.1045	746568	keystroke_e	e	n/a
373.3445	0.1195	746689	keystroke_s	s	n/a
373.509	0.09	747018	keystroke_k	k	n/a
373.7185	0.075	747437	keystroke_Key.space	Key.space	n/a
373.9435	0.09	747887	keystroke_f	f	n/a
374.1085	0.09	748217	keystroke_e	e	n/a
374.214	0.0595	748428	keystroke_l	l	n/a
374.3635	0.061	748727	keystroke_l	l	n/a
374.5435	0.06	749087	keystroke_o	o	n/a
374.6185	0.0905	749237	keystroke_w	w	n/a
374.9195	0.134	749839	keystroke_h	h	n/a
375.0235	0.09	750047	keystroke_s	s	n/a
375.309	0.0295	750618	keystroke_Key.backspace	Key.backspace	n/a
375.4285	0.0905	750857	keystroke_Key.backspace	Key.backspace	n/a
375.504	0.134	751008	keystroke_s	s	n/a
375.564	0.135	751128	keystroke_h	h	n/a
375.729	0.15	751458	keystroke_i	i	n/a
375.909	0.1195	751818	keystroke_p	p	n/a
376.1635	0.09	752327	keystroke_Key.enter	Key.enter	n/a
376.2575	7.768	752515	prompt	n/a	black peas shareholders questions\n
377.2295	0.089	754459	keystroke_b	b	n/a
377.333	0.106	754666	keystroke_l	l	n/a
377.483	0.1355	754966	keystroke_a	a	n/a
377.6335	0.09	755267	keystroke_c	c	n/a
377.7685	0.09	755537	keystroke_k	k	n/a
377.9185	0.1055	755837	keystroke_Key.space	Key.space	n/a
378.144	0.0445	756288	keystroke_p	p	n/a
378.3685	0.1505	756737	keystroke_e	e	n/a
378.5205	0.0735	757041	keystroke_a	a	n/a
379.089	0.089	758178	keystroke_s	s	n/a
379.253	0.105	758506	keystroke_Key.space	Key.space	n/a
379.539	0.0895	759078	keystroke_s	s	n/a
379.644	0.059	759288	keystroke_h	h	n/a
379.779	0.12	759558	keystroke_a	a	n/a
379.8695	0.135	759739	keystroke_r	r	n/a
380.258	0.0915	760516	keystroke_e	e	n/a
380.679	0.0755	761358	keystroke_o	o	n/a
381.009	0.089	762018	keystroke_Key.backspace	Key.backspace	n/a
381.383	0.075	762766	keystroke_h	h	n/a
381.488	0.0765	762976	keystroke_o	o	n/a
381.6685	0.091	763337	keystroke_l	l	n/a
381.744	0.059	763488	keystroke_d	d	n/a
381.909	0.12	763818	keystroke_e	e	n/a
381.984	0.09	763968	keystroke_r	r	n/a
382.103	0.091	764206	keystroke_s	s	n/a
382.268	0.091	764536	keystroke_Key.space	Key.space	n/a
382.778	0.091	765556	keystroke_q	q	n/a
382.944	0.0595	765888	keystroke_u	u	n/a
383.0335	0.1505	766067	keystroke_e	e	n/a
383.1535	0.1205	766307	keystroke_s	s	n/a
383.259	0.1205	766518	keystroke_t	t	n/a
383.349	0.3	766698	keystroke_i	i	n/a
383.499	0.119	766998	keystroke_o	o	n/a
383.589	0.134	767178	keystroke_n	n	n/a
383.7695	0.0895	767539	keystroke_s	s	n/a
383.933	0.091	767866	keystroke_Key.enter	Key.enter	n/a
384.045	7.1655	768090	prompt	n/a	gang testimony downloadable merry\n
384.759	0.1045	769518	keystroke_g	g	n/a
384.879	0.074	769758	keystroke_a	a	n/a
384.938	0.045	769876	keystroke_n	n	n/a
385.074	0.12	770148	keystroke_g	g	n/a
385.2085	0.0605	770417	keystroke_Key.space	Key.space	n/a
385.4195	0.1495	770839	keystroke_t	t	n/a
385.5535	0.21	771107	keystroke_e	e	n/a
385.658	0.1205	771316	keystroke_s	s	n/a
385.7935	0.09	771587	keystroke_t	t	n/a
386.0185	0.0605	772037	keystroke_i	i	n/a
386.274	0.0745	772548	keystroke_m	m	n/a
386.4385	0.15	772877	keystroke_o	o	n/a
386.5885	0.075	773177	keystroke_n	n	n/a
386.7385	0.045	773477	keystroke_y	y	n/a
386.858	0.1205	773716	keystroke_Key.space	Key.space	n/a
387.1885	0.075	774377	keystroke_d	d	n/a
387.3235	0.09	774647	keystroke_o	o	n/a
387.4435	0.105	774887	keystroke_w	w	n/a
387.5635	0.045	775127	keystroke_n	n	n/a
387.7285	0.12	775457	keystroke_l	l	n/a
388.1035	0.09	776207	keystroke_o	o	n/a
388.269	0.1495	776538	keystroke_a	a	n/a
388.688	0.106	777376	keystroke_d	d	n/a
388.853	0.15	777706	keystroke_a	a	n/a
389.0785	0.105	778157	keystroke_l	l	n/a
389.109	0.0905	778218	keystroke_b	b	n/a
389.4085	0.045	778817	keystroke_Key.backspace	Key.backspace	n/a
389.5285	0.0895	779057	keystroke_Key.backspace	Key.backspace	n/a
389.603	0.045	779206	keystroke_b	b	n/a
389.7685	0.0905	779537	keystroke_l	l	n/a
389.8735	0.09	779747	keystroke_e	e	n/a
390.0835	0.105	780167	keystroke_Key.space	Key.space	n/a
390.5185	0.075	781037	keystroke_m	m	n/a
390.609	0.1045	781218	keystroke_e	e	n/a
390.6985	0.075	781397	keystroke_r	r	n/a
390.8635	0.1055	781727	keystroke_r	r	n/a
390.9235	0.105	781847	keystroke_y	y	n/a
391.1035	0.105	782207	keystroke_Key.enter	Key.enter	n/a
391.216	10.075	782432	prompt	n/a	stephanie there'd dealtime developers\n
391.8235	0.0905	783647	keystroke_s	s	n/a
392.3635	0.015	784727	keystroke_t	t	n/a
392.394	0.0745	784788	keystroke_a	a	n/a
392.529	0.09	785058	keystroke_p	p	n/a
392.8135	0.06	785627	keystroke_Key.backspace	Key.backspace	n/a
392.9785	0.06	785957	keystroke_Key.backspace	Key.backspace	n/a
393.0085	0.09	786017	keystroke_e	e	n/a
393.1885	0.105	786377	keystroke_h	h	n/a
393.3535	0.045	786707	keystroke_p	p	n/a
393.7135	0.06	787427	keystroke_Key.backspace	Key.backspace	n/a
394.193	0.06	788386	keystroke_Key.backspace	Key.backspace	n/a
394.6435	0.1805	789287	keystroke_p	p	n/a
394.838	0.06	789676	keystroke_h	h	n/a
394.928	0.0905	789856	keystroke_a	a	n/a
395.034	0.089	790068	keystroke_n	n	n/a
395.138	0.106	790276	keystroke_i	i	n/a
395.259	0.105	790518	keystroke_e	e	n/a
395.424	0.1045	790848	keystroke_Key.space	Key.space	n/a
395.859	0.1795	791718	keystroke_t	t	n/a
396.0535	0.015	792107	keystroke_h	h	n/a
396.189	0.09	792378	keystroke_e	e	n/a
396.264	0.075	792528	keystroke_r	r	n/a
396.399	0.075	792798	keystroke_e	e	n/a
396.773	0.106	793546	keystroke_'	'	n/a
396.9235	0.091	793847	keystroke_d	d	n/a
397.1485	0.0755	794297	keystroke_Key.space	Key.space	n/a
397.703	0.09	795406	keystroke_d	d	n/a
397.913	0.076	795826	keystroke_e	e	n/a
397.973	0.136	795946	keystroke_a	a	n/a
398.319	0.09	796638	keystroke_l	l	n/a
398.439	0.09	796878	keystroke_t	t	n/a
398.709	0.09	797418	keystroke_i	i	n/a
398.9185	0.0605	797837	keystroke_m	m	n/a
399.039	0.09	798078	keystroke_e	e	n/a
399.143	0.1055	798286	keystroke_Key.space	Key.space	n/a
399.4585	0.0595	798917	keystroke_d	d	n/a
399.624	0.09	799248	keystroke_e	e	n/a
399.804	0.105	799608	keystroke_v	v	n/a
399.91	0.104	799820	keystroke_e	e	n/a
400.059	0.045	800118	keystroke_l	l	n/a
400.2385	0.1055	800477	keystroke_o	o	n/a
400.494	0.09	800988	keystroke_p	p	n/a
400.629	0.0895	801258	keystroke_e	e	n/a
400.9285	0.1055	801857	keystroke_r	r	n/a
401.0485	0.1205	802097	keystroke_s	s	n/a
401.199	0.0895	802398	keystroke_Key.enter	Key.enter	n/a
401.3095	10.0015	802619	prompt	n/a	fatty finnish principal daisy\n
401.814	0.1045	803628	keystroke_s	s	n/a
402.1435	0.06	804287	keystroke_Key.backspace	Key.backspace	n/a
402.2185	0.09	804437	keystroke_f	f	n/a
402.3985	0.1055	804797	keystroke_a	a	n/a
402.638	0.076	805276	keystroke_t	t	n/a
402.774	0.09	805548	keystroke_t	t	n/a
402.909	0.075	805818	keystroke_y	y	n/a
403.029	0.09	806058	keystroke_Key.space	Key.space	n/a
403.2835	0.09	806567	keystroke_f	f	n/a
403.449	0.09	806898	keystroke_i	i	n/a
403.614	0.06	807228	keystroke_n	n	n/a
403.959	0.1045	807918	keystroke_n	n	n/a
404.109	0.1045	808218	keystroke_i	i	n/a
404.2285	0.0905	808457	keystroke_s	s	n/a
404.3485	0.075	808697	keystroke_h	h	n/a
404.754	0.0595	809508	keystroke_Key.space	Key.space	n/a
406.1485	0.105	812297	keystroke_p	p	n/a
406.3735	0.075	812747	keystroke_r	r	n/a
406.5835	0.076	813167	keystroke_Key.backspace	Key.backspace	n/a
408.0685	0.075	816137	keystroke_r	r	n/a
408.2035	0.105	816407	keystroke_i	i	n/a
408.429	0.0295	816858	keystroke_c	c	n/a
408.474	0.105	816948	keystroke_i	i	n/a
408.819	0.12	817638	keystroke_p	p	n/a
409.029	0.105	818058	keystroke_a	a	n/a
409.104	0.12	818208	keystroke_l	l	n/a
409.314	0.089	818628	keystroke_Key.space	Key.space	n/a
410.033	0.1515	820066	keystroke_d	d	n/a
410.1545	0.1195	820309	keystroke_a	a	n/a
410.364	0.105	820728	keystroke_s	s	n/a
410.708	0.06	821416	keystroke_Key.backspace	Key.backspace	n/a
410.9035	0.0755	821807	keystroke_i	i	n/a
410.964	0.15	821928	keystroke_s	s	n/a
411.054	0.09	822108	keystroke_y	y	n/a
411.174	0.134	822348	keystroke_Key.enter	Key.enter	n/a
411.3265	7.244	822653	prompt	n/a	robin snapshot identity chip\n
412.389	0.045	824778	keystroke_r	r	n/a
412.448	0.0905	824896	keystroke_o	o	n/a
412.5685	0.076	825137	keystroke_b	b	n/a
412.6745	0.134	825349	keystroke_i	i	n/a
412.8235	0.1355	825647	keystroke_n	n	n/a
412.9885	0.105	825977	keystroke_Key.space	Key.space	n/a
413.379	0.1045	826758	keystroke_s	s	n/a
413.6035	0.06	827207	keystroke_n	n	n/a
413.6785	0.09	827357	keystroke_a	a	n/a
414.2185	0.075	828437	keystroke_p	p	n/a
414.4885	0.09	828977	keystroke_s	s	n/a
414.6535	0.075	829307	keystroke_h	h	n/a
414.924	0.1045	829848	keystroke_o	o	n/a
415.104	0.1045	830208	keystroke_t	t	n/a
415.4635	0.09	830927	keystroke_Key.space	Key.space	n/a
416.0935	0.09	832187	keystroke_i	i	n/a
416.199	0.0595	832398	keystroke_d	d	n/a
416.3645	0.12	832729	keystroke_e	e	n/a
416.4685	0.075	832937	keystroke_n	n	n/a
416.5895	0.0895	833179	keystroke_t	t	n/a
416.6945	0.0595	833389	keystroke_i	i	n/a
416.7695	0.089	833539	keystroke_t	t	n/a
416.949	0.06	833898	keystroke_y	y	n/a
417.0985	0.104	834197	keystroke_Key.space	Key.space	n/a
417.4435	0.12	834887	keystroke_c	c	n/a
417.5485	0.12	835097	keystroke_h	h	n/a
417.699	0.15	835398	keystroke_i	i	n/a
418.2685	0.0605	836537	keystroke_p	p	n/a
418.4785	0.09	836957	keystroke_Key.enter	Key.enter	n/a
418.581	9.7395	837162	prompt	n/a	completion pastor adventure student\n
419.3935	0.1205	838787	keystroke_c	c	n/a
419.4695	0.1035	838939	keystroke_o	o	n/a
419.679	0.09	839358	keystroke_m	m	n/a
419.964	0.045	839928	keystroke_p	p	n/a
420.114	0.03	840228	keystroke_p	p	n/a
420.129	0.104	840258	keystroke_l	l	n/a
420.249	0.105	840498	keystroke_e	e	n/a
420.384	0.09	840768	keystroke_t	t	n/a
420.5495	0.2835	841099	keystroke_i	i	n/a
420.683	0.12	841366	keystroke_o	o	n/a
420.774	0.12	841548	keystroke_n	n	n/a
421.0135	0.09	842027	keystroke_Key.space	Key.space	n/a
421.3435	0.045	842687	keystroke_a	a	n/a
421.3585	0.105	842717	keystroke_p	p	n/a
421.6735	0.06	843347	keystroke_Key.backspace	Key.backspace	n/a
421.8535	0.0455	843707	keystroke_Key.backspace	Key.backspace	n/a
421.9735	0.075	843947	keystroke_Key.backspace	Key.backspace	n/a
422.124	0.0445	844248	keystroke_Key.backspace	Key.backspace	n/a
422.2435	0.06	844487	keystroke_Key.backspace	Key.backspace	n/a
422.3785	0.06	844757	keystroke_Key.backspace	Key.backspace	n/a
422.5135	0.0605	845027	keystroke_Key.backspace	Key.backspace	n/a
422.6485	0.06	845297	keystroke_Key.backspace	Key.backspace	n/a
422.7685	0.075	845537	keystroke_Key.backspace	Key.backspace	n/a
422.9485	0.06	845897	keystroke_Key.backspace	Key.backspace	n/a
423.534	0.104	847068	keystroke_k	k	n/a
423.623	0.121	847246	keystroke_e	e	n/a
423.7135	0.1045	847427	keystroke_t	t	n/a
423.819	0.2095	847638	keystroke_i	i	n/a
424.043	0.106	848086	keystroke_o	o	n/a
424.179	0.104	848358	keystroke_n	n	n/a
424.388	0.061	848776	keystroke_Key.space	Key.space	n/a
424.539	0.075	849078	keystroke_p	p	n/a
424.674	0.15	849348	keystroke_a	a	n/a
424.749	0.165	849498	keystroke_s	s	n/a
424.898	0.105	849796	keystroke_t	t	n/a
424.989	0.075	849978	keystroke_o	o	n/a
425.124	0.075	850248	keystroke_r	r	n/a
425.2585	0.0895	850517	keystroke_Key.space	Key.space	n/a
425.709	0.15	851418	keystroke_a	a	n/a
425.978	0.105	851956	keystroke_d	d	n/a
426.234	0.1045	852468	keystroke_v	v	n/a
426.3835	0.106	852767	keystroke_e	e	n/a
426.474	0.09	852948	keystroke_n	n	n/a
426.5935	0.075	853187	keystroke_t	t	n/a
426.759	0.1195	853518	keystroke_u	u	n/a
426.9395	0.1495	853879	keystroke_r	r	n/a
427.0435	0.0755	854087	keystroke_e	e	n/a
427.1935	0.09	854387	keystroke_Key.space	Key.space	n/a
427.3885	0.12	854777	keystroke_s	s	n/a
427.5985	0.09	855197	keystroke_t	t	n/a
427.7335	0.061	855467	keystroke_u	u	n/a
427.838	0.06	855676	keystroke_d	d	n/a
427.989	0.09	855978	keystroke_e	e	n/a
428.048	0.061	856096	keystroke_n	n	n/a
428.154	0.09	856308	keystroke_t	t	n/a
428.244	0.074	856488	keystroke_Key.enter	Key.enter	n/a
428.3365	7.3485	856673	prompt	n/a	needs plaza criticism cingular\n
428.919	0.045	857838	keystroke_n	n	n/a
428.9485	0.0905	857897	keystroke_e	e	n/a
429.129	0.0745	858258	keystroke_e	e	n/a
429.3535	0.1045	858707	keystroke_d	d	n/a
429.428	0.106	858856	keystroke_s	s	n/a
429.5935	0.09	859187	keystroke_Key.space	Key.space	n/a
429.9235	0.074	859847	keystroke_p	p	n/a
430.1185	0.06	860237	keystroke_a	a	n/a
430.5385	0.075	861077	keystroke_Key.backspace	Key.backspace	n/a
430.779	0.104	861558	keystroke_l	l	n/a
430.8845	0.09	861769	keystroke_a	a	n/a
431.124	0.089	862248	keystroke_z	z	n/a
431.349	0.0755	862698	keystroke_a	a	n/a
431.5285	0.09	863057	keystroke_Key.space	Key.space	n/a
432.054	0.075	864108	keystroke_c	c	n/a
432.234	0.075	864468	keystroke_r	r	n/a
432.324	0.09	864648	keystroke_i	i	n/a
432.458	0.105	864916	keystroke_t	t	n/a
432.593	0.076	865186	keystroke_i	i	n/a
432.8635	0.09	865727	keystroke_c	c	n/a
433.014	0.0605	866028	keystroke_i	i	n/a
433.1345	0.0895	866269	keystroke_s	s	n/a
433.328	0.106	866656	keystroke_m	m	n/a
433.5385	0.09	867077	keystroke_Key.space	Key.space	n/a
434.064	0.0745	868128	keystroke_c	c	n/a
434.1835	0.15	868367	keystroke_i	i	n/a
434.2745	0.104	868549	keystroke_n	n	n/a
435.039	0.1495	870078	keystroke_g	g	n/a
435.1735	0.0905	870347	keystroke_u	u	n/a
435.3535	0.09	870707	keystroke_l	l	n/a
435.4585	0.0905	870917	keystroke_a	a	n/a
435.489	0.104	870978	keystroke_r	r	n/a
435.6235	0.06	871247	keystroke_Key.enter	Key.enter	n/a
435.6885	7.482	871377	prompt	n/a	practice kazakhstan tries mothers\n
436.5985	0.09	873197	keystroke_p	p	n/a
436.6745	0.1195	873349	keystroke_r	r	n/a
436.8695	0.1945	873739	keystroke_a	a	n/a
437.004	0.135	874008	keystroke_c	c	n/a
437.2885	0.06	874577	keystroke_t	t	n/a
437.3935	0.075	874787	keystroke_i	i	n/a
437.544	0.1045	875088	keystroke_c	c	n/a
437.6185	0.15	875237	keystroke_e	e	n/a
437.7535	0.0895	875507	keystroke_Key.space	Key.space	n/a
438.1145	0.089	876229	keystroke_k	k	n/a
438.2485	0.1055	876497	keystroke_a	a	n/a
438.833	0.225	877666	keystroke_z	z	n/a
439.193	0.0905	878386	keystroke_a	a	n/a
439.299	0.0905	878598	keystroke_k	k	n/a
439.974	0.045	879948	keystroke_h	h	n/a
440.1395	0.0895	880279	keystroke_s	s	n/a
440.2435	0.0905	880487	keystroke_t	t	n/a
440.3785	0.135	880757	keystroke_a	a	n/a
440.484	0.0745	880968	keystroke_n	n	n/a
440.6485	0.09	881297	keystroke_Key.space	Key.space	n/a
441.2335	0.195	882467	keystroke_t	t	n/a
441.3835	0.09	882767	keystroke_r	r	n/a
441.4885	0.075	882977	keystroke_i	i	n/a
441.609	0.0745	883218	keystroke_e	e	n/a
441.8185	0.09	883637	keystroke_s	s	n/a
441.9835	0.075	883967	keystroke_Key.space	Key.space	n/a
442.3435	0.0745	884687	keystroke_m	m	n/a
442.478	0.136	884956	keystroke_o	o	n/a
442.584	0.09	885168	keystroke_t	t	n/a
442.689	0.06	885378	keystroke_h	h	n/a
442.794	0.09	885588	keystroke_e	e	n/a
442.839	0.105	885678	keystroke_r	r	n/a
442.9585	0.105	885917	keystroke_s	s	n/a
443.078	0.09	886156	keystroke_Key.enter	Key.enter	n/a
443.178	9.8475	886356	prompt	n/a	revenue joshua whether communities\n
444.1135	0.135	888227	keystroke_r	r	n/a
444.2335	0.12	888467	keystroke_e	e	n/a
444.444	0.12	888888	keystroke_v	v	n/a
444.5485	0.105	889097	keystroke_e	e	n/a
444.6085	0.075	889217	keystroke_n	n	n/a
444.9085	0.09	889817	keystroke_u	u	n/a
445.013	0.1055	890026	keystroke_e	e	n/a
445.2085	0.0755	890417	keystroke_Key.space	Key.space	n/a
445.7635	0.0745	891527	keystroke_j	j	n/a
445.883	0.1055	891766	keystroke_o	o	n/a
446.0035	0.09	892007	keystroke_s	s	n/a
446.1385	0.075	892277	keystroke_h	h	n/a
446.229	0.15	892458	keystroke_u	u	n/a
446.408	0.12	892816	keystroke_a	a	n/a
446.5585	0.0595	893117	keystroke_Key.space	Key.space	n/a
446.9035	0.09	893807	keystroke_t	t	n/a
447.2185	0.045	894437	keystroke_Key.backspace	Key.backspace	n/a
447.3835	0.1055	894767	keystroke_w	w	n/a
447.5035	0.045	895007	keystroke_h	h	n/a
447.6085	0.105	895217	keystroke_e	e	n/a
447.834	0.105	895668	keystroke_t	t	n/a
447.969	0.134	895938	keystroke_e	e	n/a
448.118	0.076	896236	keystroke_h	h	n/a
448.524	0.09	897048	keystroke_e	e	n/a
448.719	0.059	897438	keystroke_Key.backspace	Key.backspace	n/a
448.8535	0.0745	897707	keystroke_Key.backspace	Key.backspace	n/a
449.003	0.09	898006	keystroke_Key.backspace	Key.backspace	n/a
449.094	0.12	898188	keystroke_h	h	n/a
449.229	0.165	898458	keystroke_e	e	n/a
449.334	0.105	898668	keystroke_r	r	n/a
449.543	0.091	899086	keystroke_Key.space	Key.space	n/a
449.7685	0.0905	899537	keystroke_c	c	n/a
449.8595	0.089	899719	keystroke_o	o	n/a
450.054	0.0445	900108	keystroke_m	m	n/a
450.2785	0.0455	900557	keystroke_m	m	n/a
450.5495	0.074	901099	keystroke_u	u	n/a
450.7135	0.075	901427	keystroke_n	n	n/a
450.879	0.0595	901758	keystroke_i	i	n/a
451.059	0.0745	902118	keystroke_t	t	n/a
451.2385	0.105	902477	keystroke_e	e	n/a
451.284	0.0745	902568	keystroke_i	i	n/a
451.524	0.0895	903048	keystroke_e	e	n/a
451.569	0.0895	903138	keystroke_s	s	n/a
451.8835	0.0605	903767	keystroke_Key.backspace	Key.backspace	n/a
452.048	0.06	904096	keystroke_Key.backspace	Key.backspace	n/a
452.1835	0.09	904367	keystroke_Key.backspace	Key.backspace	n/a
452.393	0.09	904786	keystroke_Key.backspace	Key.backspace	n/a
452.543	0.106	905086	keystroke_i	i	n/a
452.664	0.149	905328	keystroke_e	e	n/a
452.754	0.104	905508	keystroke_s	s	n/a
452.918	0.105	905836	keystroke_Key.enter	Key.enter	n/a
453.039	7.471	906078	prompt	n/a	evening sends researcher vintage\n
453.7135	0.075	907427	keystroke_e	e	n/a
453.9085	0.09	907817	keystroke_v	v	n/a
454.0135	0.075	908027	keystroke_e	e	n/a
454.2385	0.09	908477	keystroke_n	n	n/a
454.4035	0.135	908807	keystroke_i	i	n/a
454.5395	0.119	909079	keystroke_n	n	n/a
454.704	0.0895	909408	keystroke_g	g	n/a
454.9285	0.045	909857	keystroke_Key.space	Key.space	n/a
455.153	0.1205	910306	keystroke_s	s	n/a
455.2885	0.12	910577	keystroke_e	e	n/a
455.3635	0.06	910727	keystroke_n	n	n/a
455.5135	0.135	911027	keystroke_d	d	n/a
455.5885	0.12	911177	keystroke_s	s	n/a
455.7385	0.075	911477	keystroke_Key.space	Key.space	n/a
456.0085	0.1495	912017	keystroke_r	r	n/a
456.0835	0.225	912167	keystroke_e	e	n/a
456.3235	0.165	912647	keystroke_s	s	n/a
456.474	0.2395	912948	keystroke_e	e	n/a
456.639	0.119	913278	keystroke_a	a	n/a
456.728	0.1205	913456	keystroke_r	r	n/a
456.9535	0.09	913907	keystroke_c	c	n/a
457.2385	0.06	914477	keystroke_h	h	n/a
457.434	0.119	914868	keystroke_e	e	n/a
457.493	0.106	914986	keystroke_r	r	n/a
457.6435	0.0595	915287	keystroke_Key.backspace	Key.backspace	n/a
457.778	0.075	915556	keystroke_Key.backspace	Key.backspace	n/a
457.929	0.075	915858	keystroke_Key.backspace	Key.backspace	n/a
458.6785	0.0455	917357	keystroke_h	h	n/a
458.783	0.12	917566	keystroke_e	e	n/a
458.8585	0.1045	917717	keystroke_r	r	n/a
459.0085	0.12	918017	keystroke_Key.space	Key.space	n/a
459.4585	0.09	918917	keystroke_c	c	n/a
459.639	0.1495	919278	keystroke_i	i	n/a
459.7585	0.09	919517	keystroke_n	n	n/a
460.029	0.1045	920058	keystroke_t	t	n/a
460.1185	0.15	920237	keystroke_a	a	n/a
460.2385	0.12	920477	keystroke_g	g	n/a
460.3135	0.12	920627	keystroke_e	e	n/a
460.4185	0.09	920837	keystroke_Key.enter	Key.enter	n/a
460.514	7.6465	921028	prompt	n/a	trackback highlights being protecting\n
461.1235	0.15	922247	keystroke_t	t	n/a
461.2285	0.0905	922457	keystroke_r	r	n/a
461.514	0.0745	923028	keystroke_c	c	n/a
461.5735	0.0905	923147	keystroke_a	a	n/a
462.2635	0.06	924527	keystroke_Key.backspace	Key.backspace	n/a
462.414	0.0745	924828	keystroke_Key.backspace	Key.backspace	n/a
462.5185	0.105	925037	keystroke_a	a	n/a
462.6085	0.135	925217	keystroke_c	c	n/a
462.729	0.0595	925458	keystroke_k	k	n/a
463.1185	0.106	926237	keystroke_b	b	n/a
463.2385	0.165	926477	keystroke_a	a	n/a
463.3885	0.105	926777	keystroke_c	c	n/a
463.4645	0.074	926929	keystroke_k	k	n/a
463.6585	0.075	927317	keystroke_Key.space	Key.space	n/a
464.184	0.0745	928368	keystroke_h	h	n/a
464.2885	0.105	928577	keystroke_i	i	n/a
464.4085	0.045	928817	keystroke_g	g	n/a
464.4985	0.09	928997	keystroke_h	h	n/a
464.7085	0.121	929417	keystroke_l	l	n/a
464.9035	0.075	929807	keystroke_i	i	n/a
464.9795	0.059	929959	keystroke_g	g	n/a
465.0995	0.089	930199	keystroke_h	h	n/a
465.174	0.1345	930348	keystroke_t	t	n/a
465.3085	0.12	930617	keystroke_s	s	n/a
465.5335	0.1505	931067	keystroke_Key.space	Key.space	n/a
465.923	0.046	931846	keystroke_b	b	n/a
465.983	0.1205	931966	keystroke_e	e	n/a
466.088	0.1215	932176	keystroke_i	i	n/a
466.1185	0.0155	932237	keystroke_e	e	n/a
466.1785	0.105	932357	keystroke_n	n	n/a
466.2685	0.105	932537	keystroke_g	g	n/a
466.4035	0.075	932807	keystroke_Key.space	Key.space	n/a
466.614	0.0745	933228	keystroke_p	p	n/a
466.7485	0.075	933497	keystroke_r	r	n/a
466.884	0.075	933768	keystroke_o	o	n/a
467.0485	0.105	934097	keystroke_t	t	n/a
467.229	0.1045	934458	keystroke_e	e	n/a
467.4385	0.09	934877	keystroke_c	c	n/a
467.6345	0.074	935269	keystroke_t	t	n/a
467.7235	0.121	935447	keystroke_i	i	n/a
467.8285	0.09	935657	keystroke_n	n	n/a
467.9485	0.0755	935897	keystroke_g	g	n/a
468.0385	0.12	936077	keystroke_Key.enter	Key.enter	n/a
468.1695	7.927	936339	prompt	n/a	older karma rated peninsula\n
468.984	0.09	937968	keystroke_o	o	n/a
469.1635	0.0895	938327	keystroke_l	l	n/a
469.239	0.0895	938478	keystroke_d	d	n/a
469.4335	0.121	938867	keystroke_e	e	n/a
469.4945	0.1195	938989	keystroke_r	r	n/a
469.628	0.1055	939256	keystroke_Key.space	Key.space	n/a
470.198	0.076	940396	keystroke_k	k	n/a
470.303	0.12	940606	keystroke_a	a	n/a
470.393	0.106	940786	keystroke_r	r	n/a
470.619	0.09	941238	keystroke_m	m	n/a
470.9035	0.0445	941807	keystroke_Key.space	Key.space	n/a
471.1735	0.0445	942347	keystroke_Key.backspace	Key.backspace	n/a
471.3385	0.061	942677	keystroke_a	a	n/a
471.458	0.1205	942916	keystroke_Key.space	Key.space	n/a
471.8935	0.151	943787	keystroke_r	r	n/a
471.9985	0.105	943997	keystroke_e	e	n/a
472.0895	0.136	944179	keystroke_a	a	n/a
472.2095	0.15	944419	keystroke_t	t	n/a
472.4185	0.045	944837	keystroke_Key.backspace	Key.backspace	n/a
472.569	0.06	945138	keystroke_Key.backspace	Key.backspace	n/a
473.1085	0.06	946217	keystroke_Key.backspace	Key.backspace	n/a
473.274	0.165	946548	keystroke_a	a	n/a
473.379	0.15	946758	keystroke_t	t	n/a
473.484	0.1205	946968	keystroke_e	e	n/a
473.708	0.106	947416	keystroke_d	d	n/a
473.828	0.105	947656	keystroke_Key.space	Key.space	n/a
474.579	0.075	949158	keystroke_p	p	n/a
474.728	0.091	949456	keystroke_e	e	n/a
474.968	0.0605	949936	keystroke_n	n	n/a
475.1785	0.091	950357	keystroke_i	i	n/a
475.314	0.075	950628	keystroke_n	n	n/a
475.464	0.075	950928	keystroke_s	s	n/a
475.584	0.1055	951168	keystroke_u	u	n/a
475.7485	0.12	951497	keystroke_l	l	n/a
475.8845	0.089	951769	keystroke_a	a	n/a
476.019	0.0745	952038	keystroke_Key.enter	Key.enter	n/a
476.127	6.0435	952254	prompt	n/a	enormous comes belle become\n
476.7385	0.06	953477	keystroke_e	e	n/a
476.8585	0.06	953717	keystroke_n	n	n/a
477.009	0.1195	954018	keystroke_o	o	n/a
477.294	0.045	954588	keystroke_u	u	n/a
477.608	0.075	955216	keystroke_Key.backspace	Key.backspace	n/a
477.714	0.0745	955428	keystroke_r	r	n/a
477.8945	0.0745	955789	keystroke_m	m	n/a
478.029	0.15	956058	keystroke_o	o	n/a
478.164	0.1045	956328	keystroke_u	u	n/a
478.284	0.104	956568	keystroke_s	s	n/a
478.389	0.089	956778	keystroke_Key.space	Key.space	n/a
478.9285	0.09	957857	keystroke_c	c	n/a
478.9735	0.09	957947	keystroke_o	o	n/a
479.1685	0.0895	958337	keystroke_m	m	n/a
479.274	0.119	958548	keystroke_e	e	n/a
479.349	0.12	958698	keystroke_s	s	n/a
479.5135	0.1195	959027	keystroke_Key.space	Key.space	n/a
479.738	0.075	959476	keystroke_b	b	n/a
479.8585	0.0905	959717	keystroke_e	e	n/a
480.009	0.09	960018	keystroke_l	l	n/a
480.234	0.059	960468	keystroke_l	l	n/a
480.3535	0.0755	960707	keystroke_e	e	n/a
480.519	0.0895	961038	keystroke_Key.space	Key.space	n/a
480.668	0.046	961336	keystroke_c	c	n/a
481.073	0.091	962146	keystroke_Key.backspace	Key.backspace	n/a
481.2085	0.105	962417	keystroke_b	b	n/a
481.3735	0.0605	962747	keystroke_e	e	n/a
481.6435	0.075	963287	keystroke_c	c	n/a
481.7335	0.18	963467	keystroke_o	o	n/a
481.8085	0.15	963617	keystroke_m	m	n/a
481.944	0.075	963888	keystroke_e	e	n/a
482.0635	0.105	964127	keystroke_Key.enter	Key.enter	n/a
482.1765	7.5985	964353	prompt	n/a	christina afford biology percentage\n
482.9635	0.09	965927	keystroke_s	s	n/a
483.2335	0.06	966467	keystroke_Key.backspace	Key.backspace	n/a
483.3235	0.09	966647	keystroke_c	c	n/a
483.4285	0.075	966857	keystroke_h	h	n/a
483.624	0.075	967248	keystroke_r	r	n/a
483.714	0.0745	967428	keystroke_i	i	n/a
483.8495	0.134	967699	keystroke_s	s	n/a
483.9535	0.105	967907	keystroke_t	t	n/a
484.0735	0.135	968147	keystroke_i	i	n/a
484.2685	0.075	968537	keystroke_n	n	n/a
484.3585	0.12	968717	keystroke_a	a	n/a
484.4935	0.1055	968987	keystroke_Key.space	Key.space	n/a
484.824	0.12	969648	keystroke_f	f	n/a
485.2735	0.06	970547	keystroke_Key.backspace	Key.backspace	n/a
485.3495	0.134	970699	keystroke_a	a	n/a
485.4385	0.075	970877	keystroke_f	f	n/a
485.5885	0.09	971177	keystroke_f	f	n/a
485.7085	0.09	971417	keystroke_o	o	n/a
485.8135	0.0605	971627	keystroke_r	r	n/a
485.9785	0.106	971957	keystroke_d	d	n/a
486.0995	0.074	972199	keystroke_Key.space	Key.space	n/a
486.3835	0.0755	972767	keystroke_b	b	n/a
486.6545	0.119	973309	keystroke_i	i	n/a
486.8335	0.105	973667	keystroke_o	o	n/a
487.029	0.075	974058	keystroke_l	l	n/a
487.2085	0.075	974417	keystroke_o	o	n/a
487.2985	0.1045	974597	keystroke_g	g	n/a
487.4935	0.075	974987	keystroke_y	y	n/a
487.6735	0.09	975347	keystroke_Key.space	Key.space	n/a
487.9285	0.0905	975857	keystroke_p	p	n/a
488.319	0.1195	976638	keystroke_e	e	n/a
488.379	0.12	976758	keystroke_r	r	n/a
488.889	0.18	977778	keystroke_c	c	n/a
489.024	0.135	978048	keystroke_e	e	n/a
489.129	0.104	978258	keystroke_n	n	n/a
489.2485	0.0895	978497	keystroke_t	t	n/a
489.3835	0.1505	978767	keystroke_a	a	n/a
489.4885	0.135	978977	keystroke_g	g	n/a
489.578	0.1205	979156	keystroke_e	e	n/a
489.669	0.104	979338	keystroke_Key.enter	Key.enter	n/a
489.7795	17.8475	979559	prompt	n/a	deemed beastality present postcard\n
490.4185	0.075	980837	keystroke_d	d	n/a
490.5685	0.0755	981137	keystroke_e	e	n/a
490.718	0.105	981436	keystroke_e	e	n/a
490.808	0.0755	981616	keystroke_m	m	n/a
490.944	0.075	981888	keystroke_e	e	n/a
491.109	0.0895	982218	keystroke_d	d	n/a
491.2735	0.075	982547	keystroke_Key.space	Key.space	n/a
491.8135	0.045	983627	keystroke_b	b	n/a
491.8735	0.2105	983747	keystroke_e	e	n/a
491.949	0.119	983898	keystroke_a	a	n/a
492.248	0.106	984496	keystroke_s	s	n/a
492.429	0.1045	984858	keystroke_t	t	n/a
492.9235	0.06	985847	keystroke_i	i	n/a
493.5085	0.06	987017	keystroke_a	a	n/a
493.6595	0.089	987319	keystroke_l	l	n/a
493.9585	0.075	987917	keystroke_i	i	n/a
494.2435	0.12	988487	keystroke_t	t	n/a
494.4535	0.075	988907	keystroke_y	y	n/a
494.858	0.0605	989716	keystroke_Key.space	Key.space	n/a
495.5945	0.044	991189	keystroke_Key.backspace	Key.backspace	n/a
495.834	0.0745	991668	keystroke_Key.backspace	Key.backspace	n/a
496.733	0.045	993466	keystroke_Key.backspace	Key.backspace	n/a
496.8535	0.0745	993707	keystroke_Key.backspace	Key.backspace	n/a
497.048	0.075	994096	keystroke_Key.backspace	Key.backspace	n/a
497.723	0.06	995446	keystroke_Key.backspace	Key.backspace	n/a
498.669	0.089	997338	keystroke_Key.backspace	Key.backspace	n/a
499.2685	0.1495	998537	keystroke_a	a	n/a
499.419	0.0745	998838	keystroke_l	l	n/a
499.5985	0.0905	999197	keystroke_i	i	n/a
499.734	0.09	999468	keystroke_t	t	n/a
499.929	0.0445	999858	keystroke_y	y	n/a
500.078	0.1355	1000156	keystroke_Key.space	Key.space	n/a
500.7245	0.075	1001449	keystroke_p	p	n/a
500.8145	0.1195	1001629	keystroke_r	r	n/a
500.8885	0.1355	1001777	keystroke_e	e	n/a
501.084	0.1645	1002168	keystroke_s	s	n/a
501.1885	0.151	1002377	keystroke_e	e	n/a
501.2945	0.1185	1002589	keystroke_n	n	n/a
501.414	0.0905	1002828	keystroke_t	t	n/a
501.5485	0.12	1003097	keystroke_Key.space	Key.space	n/a
505.166	0.0275	1010332	keystroke_p	p	n/a
505.569	0.0895	1011138	keystroke_Key.backspace	Key.backspace	n/a
505.884	0.1195	1011768	keystroke_p	p	n/a
506.0485	0.12	1012097	keystroke_o	o	n/a
506.1985	0.1505	1012397	keystroke_s	s	n/a
506.3185	0.1205	1012637	keystroke_t	t	n/a
506.7985	0.105	1013597	keystroke_c	c	n/a
507.069	0.12	1014138	keystroke_a	a	n/a
507.219	0.09	1014438	keystroke_r	r	n/a
507.399	0.12	1014798	keystroke_d	d	n/a
507.534	0.09	1015068	keystroke_Key.enter	Key.enter	n/a
507.643	12.163	1015286	prompt	n/a	bathroom quotations tumor liverpool\n
